sub_n, computer_n, bw_cond, effect, set, distance, diag, block_n, trial_n, h1, w1, h2, w2, h3, w3, choice, rt 
271, 2, bw, practice, NA, 999, 999, 0, 1, 176, 167, 90, 166, 130, 162, 1, 3.70672
271, 2, bw, practice, NA, 999, 999, 0, 1, 176, 167, 90, 166, 130, 162, 2, 3.88758
271, 2, bw, practice, NA, 999, 999, 0, 2, 85, 164, 171, 68, 82, 61, 1, 3.64296
271, 2, bw, practice, NA, 999, 999, 0, 2, 85, 164, 171, 68, 82, 61, 3, 2.00705
271, 2, bw, practice, NA, 999, 999, 0, 3, 118, 65, 149, 148, 57, 116, 2, 2.10658
271, 2, bw, practice, NA, 999, 999, 0, 3, 118, 65, 149, 148, 57, 116, 3, 2.55102
271, 2, bw, filler, NA, 999, 999, 1, 1, 113, 182, 77, 57, 189, 92, 1, 2.42709
271, 2, bw, filler, NA, 999, 999, 1, 1, 113, 182, 77, 57, 189, 92, 2, 0.880258
271, 2, bw, attraction, a-b-da, 2, 2, 1, 2, 163, 89, 165, 90, 90, 165, 3, 5.28262
271, 2, bw, attraction, a-b-da, 2, 2, 1, 2, 163, 89, 165, 90, 90, 165, 1, 1.80496
271, 2, bw, attraction, a-b-da, 5, 2, 1, 3, 90, 165, 165, 90, 161, 88, 1, 4.74631
271, 2, bw, attraction, a-b-da, 5, 2, 1, 3, 90, 165, 165, 90, 161, 88, 2, 1.70619
271, 2, bw, attraction, a-b-da, 9, 1, 1, 4, 129, 57, 60, 135, 135, 60, 2, 2.78766
271, 2, bw, attraction, a-b-da, 9, 1, 1, 4, 129, 57, 60, 135, 135, 60, 1, 2.09805
271, 2, bw, attraction, a-b-da, 14, 3, 1, 5, 120, 195, 195, 120, 181, 111, 1, 2.96328
271, 2, bw, attraction, a-b-da, 14, 3, 1, 5, 120, 195, 195, 120, 181, 111, 2, 0.787083
271, 2, bw, attraction, a-b-da, 5, 3, 1, 6, 190, 117, 120, 195, 195, 120, 1, 5.16139
271, 2, bw, attraction, a-b-da, 5, 3, 1, 6, 190, 117, 120, 195, 195, 120, 2, 2.88836
271, 2, bw, attraction, a-b-db, 9, 3, 1, 7, 120, 195, 195, 120, 114, 186, 1, 2.26607
271, 2, bw, attraction, a-b-db, 9, 3, 1, 7, 120, 195, 195, 120, 114, 186, 2, 0.854161
271, 2, bw, catch, NA, 999, 999, 1, 8, 87, 108, 122, 133, 158, 157, 3, 1.1777
271, 2, bw, catch, NA, 999, 999, 1, 8, 87, 108, 122, 133, 158, 157, 1, 1.04135
271, 2, bw, attraction, a-b-da, 14, 1, 1, 9, 135, 60, 125, 56, 60, 135, 3, 7.31699
271, 2, bw, attraction, a-b-da, 14, 1, 1, 9, 135, 60, 125, 56, 60, 135, 1, 1.22134
271, 2, bw, attraction, a-b-db, 5, 1, 1, 10, 58, 132, 135, 60, 60, 135, 3, 2.06617
271, 2, bw, attraction, a-b-db, 5, 1, 1, 10, 58, 132, 135, 60, 60, 135, 2, 1.05429
271, 2, bw, attraction, a-b-db, 5, 3, 1, 11, 195, 120, 120, 195, 117, 190, 1, 2.92982
271, 2, bw, attraction, a-b-db, 5, 3, 1, 11, 195, 120, 120, 195, 117, 190, 3, 0.826873
271, 2, bw, attraction, a-b-da, 14, 2, 1, 12, 90, 165, 165, 90, 153, 83, 1, 2.12725
271, 2, bw, attraction, a-b-da, 14, 2, 1, 12, 90, 165, 165, 90, 153, 83, 2, 1.53651
271, 2, bw, attraction, a-b-db, 2, 1, 1, 13, 59, 134, 135, 60, 60, 135, 3, 3.50466
271, 2, bw, attraction, a-b-db, 2, 1, 1, 13, 59, 134, 135, 60, 60, 135, 2, 1.21088
271, 2, bw, filler, NA, 999, 999, 1, 14, 87, 170, 183, 68, 91, 180, 3, 2.18371
271, 2, bw, filler, NA, 999, 999, 1, 14, 87, 170, 183, 68, 91, 180, 2, 0.751065
271, 2, bw, filler, NA, 999, 999, 1, 15, 104, 170, 70, 84, 126, 144, 1, 5.89485
271, 2, bw, filler, NA, 999, 999, 1, 15, 104, 170, 70, 84, 126, 144, 2, 0.69615
271, 2, bw, attraction, a-b-db, 2, 2, 1, 16, 89, 163, 90, 165, 165, 90, 1, 5.32991
271, 2, bw, attraction, a-b-db, 2, 2, 1, 16, 89, 163, 90, 165, 165, 90, 3, 3.0743
271, 2, bw, filler, NA, 999, 999, 1, 17, 167, 80, 155, 176, 67, 159, 2, 1.61191
271, 2, bw, filler, NA, 999, 999, 1, 17, 167, 80, 155, 176, 67, 159, 3, 1.06599
271, 2, bw, filler, NA, 999, 999, 1, 18, 161, 108, 169, 157, 164, 171, 3, 1.80504
271, 2, bw, filler, NA, 999, 999, 1, 18, 161, 108, 169, 157, 164, 171, 1, 1.05904
271, 2, bw, attraction, a-b-da, 2, 1, 1, 19, 60, 135, 134, 59, 135, 60, 1, 2.77403
271, 2, bw, attraction, a-b-da, 2, 1, 1, 19, 60, 135, 134, 59, 135, 60, 3, 0.724982
271, 2, bw, attraction, a-b-da, 9, 2, 1, 20, 165, 90, 90, 165, 157, 86, 2, 5.82146
271, 2, bw, attraction, a-b-da, 9, 2, 1, 20, 165, 90, 90, 165, 157, 86, 3, 0.762422
271, 2, bw, filler, NA, 999, 999, 1, 21, 183, 69, 94, 122, 79, 133, 1, 4.2015
271, 2, bw, filler, NA, 999, 999, 1, 21, 183, 69, 94, 122, 79, 133, 3, 0.759327
271, 2, bw, attraction, a-b-db, 9, 2, 1, 22, 90, 165, 165, 90, 86, 157, 2, 3.91032
271, 2, bw, attraction, a-b-db, 9, 2, 1, 22, 90, 165, 165, 90, 86, 157, 3, 0.687809
271, 2, bw, attraction, a-b-db, 9, 1, 1, 23, 60, 135, 57, 129, 135, 60, 1, 3.44214
271, 2, bw, attraction, a-b-db, 9, 1, 1, 23, 60, 135, 57, 129, 135, 60, 3, 0.566411
271, 2, bw, attraction, a-b-db, 14, 3, 1, 24, 120, 195, 111, 181, 195, 120, 1, 2.94154
271, 2, bw, attraction, a-b-db, 14, 3, 1, 24, 120, 195, 111, 181, 195, 120, 3, 0.70992
271, 2, bw, filler, NA, 999, 999, 1, 25, 161, 140, 191, 122, 97, 88, 2, 2.35897
271, 2, bw, filler, NA, 999, 999, 1, 25, 161, 140, 191, 122, 97, 88, 3, 0.886811
271, 2, bw, attraction, a-b-db, 2, 3, 1, 26, 120, 195, 195, 120, 119, 193, 1, 4.94527
271, 2, bw, attraction, a-b-db, 2, 3, 1, 26, 120, 195, 195, 120, 119, 193, 2, 0.544957
271, 2, bw, attraction, a-b-db, 5, 2, 1, 27, 88, 161, 165, 90, 90, 165, 1, 5.3928
271, 2, bw, attraction, a-b-db, 5, 2, 1, 27, 88, 161, 165, 90, 90, 165, 2, 0.742415
271, 2, bw, catch, NA, 999, 999, 1, 28, 81, 114, 139, 116, 165, 150, 3, 1.734
271, 2, bw, catch, NA, 999, 999, 1, 28, 81, 114, 139, 116, 165, 150, 1, 0.839469
271, 2, bw, attraction, a-b-da, 2, 3, 1, 29, 195, 120, 193, 119, 120, 195, 2, 3.51514
271, 2, bw, attraction, a-b-da, 2, 3, 1, 29, 195, 120, 193, 119, 120, 195, 3, 0.716631
271, 2, bw, attraction, a-b-da, 5, 1, 1, 30, 135, 60, 132, 58, 60, 135, 2, 3.43773
271, 2, bw, attraction, a-b-da, 5, 1, 1, 30, 135, 60, 132, 58, 60, 135, 3, 1.1467
271, 2, bw, catch, NA, 999, 999, 1, 31, 135, 60, 96, 159, 128, 187, 3, 1.47424
271, 2, bw, catch, NA, 999, 999, 1, 31, 135, 60, 96, 159, 128, 187, 1, 1.30167
271, 2, bw, attraction, a-b-db, 14, 2, 1, 32, 165, 90, 90, 165, 83, 153, 3, 2.93534
271, 2, bw, attraction, a-b-db, 14, 2, 1, 32, 165, 90, 90, 165, 83, 153, 2, 1.08034
271, 2, bw, attraction, a-b-da, 9, 3, 1, 33, 186, 114, 195, 120, 120, 195, 2, 3.55463
271, 2, bw, attraction, a-b-da, 9, 3, 1, 33, 186, 114, 195, 120, 120, 195, 3, 0.802118
271, 2, bw, filler, NA, 999, 999, 1, 34, 161, 150, 152, 103, 102, 97, 1, 1.88778
271, 2, bw, filler, NA, 999, 999, 1, 34, 161, 150, 152, 103, 102, 97, 3, 0.826541
271, 2, bw, filler, NA, 999, 999, 1, 35, 106, 130, 85, 167, 121, 104, 2, 7.25485
271, 2, bw, filler, NA, 999, 999, 1, 35, 106, 130, 85, 167, 121, 104, 3, 0.945931
271, 2, bw, filler, NA, 999, 999, 1, 36, 101, 134, 181, 145, 134, 69, 2, 1.4095
271, 2, bw, filler, NA, 999, 999, 1, 36, 101, 134, 181, 145, 134, 69, 3, 1.27178
271, 2, bw, attraction, a-b-db, 14, 1, 1, 37, 56, 125, 135, 60, 60, 135, 2, 3.27465
271, 2, bw, attraction, a-b-db, 14, 1, 1, 37, 56, 125, 135, 60, 60, 135, 1, 1.89365
271, 2, bw, attraction, a-b-db, 2, 2, 2, 1, 89, 163, 165, 90, 90, 165, 2, 4.615
271, 2, bw, attraction, a-b-db, 2, 2, 2, 1, 89, 163, 165, 90, 90, 165, 3, 0.54817
271, 2, bw, attraction, a-b-db, 14, 2, 2, 2, 165, 90, 90, 165, 83, 153, 1, 5.54004
271, 2, bw, attraction, a-b-db, 14, 2, 2, 2, 165, 90, 90, 165, 83, 153, 3, 1.41959
271, 2, bw, attraction, a-b-da, 2, 3, 2, 3, 193, 119, 120, 195, 195, 120, 2, 1.99231
271, 2, bw, attraction, a-b-da, 2, 3, 2, 3, 193, 119, 120, 195, 195, 120, 1, 1.49505
271, 2, bw, filler, NA, 999, 999, 2, 4, 177, 164, 97, 191, 75, 117, 1, 1.57642
271, 2, bw, filler, NA, 999, 999, 2, 4, 177, 164, 97, 191, 75, 117, 3, 0.89591
271, 2, bw, filler, NA, 999, 999, 2, 5, 149, 182, 189, 88, 168, 82, 1, 1.64157
271, 2, bw, filler, NA, 999, 999, 2, 5, 149, 182, 189, 88, 168, 82, 3, 1.05454
271, 2, bw, attraction, a-b-db, 9, 3, 2, 6, 195, 120, 114, 186, 120, 195, 3, 2.45002
271, 2, bw, attraction, a-b-db, 9, 3, 2, 6, 195, 120, 114, 186, 120, 195, 2, 0.97454
271, 2, bw, attraction, a-b-da, 5, 2, 2, 7, 161, 88, 90, 165, 165, 90, 3, 3.06887
271, 2, bw, attraction, a-b-da, 5, 2, 2, 7, 161, 88, 90, 165, 165, 90, 2, 0.800544
271, 2, bw, filler, NA, 999, 999, 2, 8, 109, 65, 65, 140, 192, 57, 3, 3.00623
271, 2, bw, filler, NA, 999, 999, 2, 8, 109, 65, 65, 140, 192, 57, 1, 0.780044
271, 2, bw, attraction, a-b-da, 2, 2, 2, 9, 165, 90, 90, 165, 163, 89, 1, 2.97039
271, 2, bw, attraction, a-b-da, 2, 2, 2, 9, 165, 90, 90, 165, 163, 89, 2, 2.04196
271, 2, bw, attraction, a-b-da, 2, 1, 2, 10, 135, 60, 134, 59, 60, 135, 1, 5.35729
271, 2, bw, attraction, a-b-da, 2, 1, 2, 10, 135, 60, 134, 59, 60, 135, 3, 0.51641
271, 2, bw, attraction, a-b-db, 5, 2, 2, 11, 165, 90, 88, 161, 90, 165, 1, 3.8774
271, 2, bw, attraction, a-b-db, 5, 2, 2, 11, 165, 90, 88, 161, 90, 165, 2, 0.952102
271, 2, bw, attraction, a-b-da, 5, 1, 2, 12, 135, 60, 60, 135, 132, 58, 1, 4.35972
271, 2, bw, attraction, a-b-da, 5, 1, 2, 12, 135, 60, 60, 135, 132, 58, 2, 0.639032
271, 2, bw, attraction, a-b-db, 5, 1, 2, 13, 135, 60, 58, 132, 60, 135, 1, 2.49955
271, 2, bw, attraction, a-b-db, 5, 1, 2, 13, 135, 60, 58, 132, 60, 135, 2, 0.942159
271, 2, bw, attraction, a-b-db, 2, 1, 2, 14, 60, 135, 59, 134, 135, 60, 1, 4.02966
271, 2, bw, attraction, a-b-db, 2, 1, 2, 14, 60, 135, 59, 134, 135, 60, 3, 3.2745
271, 2, bw, attraction, a-b-db, 5, 3, 2, 15, 195, 120, 117, 190, 120, 195, 1, 3.83599
271, 2, bw, attraction, a-b-db, 5, 3, 2, 15, 195, 120, 117, 190, 120, 195, 3, 0.600772
271, 2, bw, attraction, a-b-da, 14, 1, 2, 16, 135, 60, 125, 56, 60, 135, 1, 4.09453
271, 2, bw, attraction, a-b-da, 14, 1, 2, 16, 135, 60, 125, 56, 60, 135, 3, 0.744537
271, 2, bw, catch, NA, 999, 999, 2, 17, 131, 184, 99, 96, 146, 109, 1, 1.11219
271, 2, bw, catch, NA, 999, 999, 2, 17, 131, 184, 99, 96, 146, 109, 2, 0.746491
271, 2, bw, attraction, a-b-da, 9, 3, 2, 18, 120, 195, 195, 120, 186, 114, 1, 3.44228
271, 2, bw, attraction, a-b-da, 9, 3, 2, 18, 120, 195, 195, 120, 186, 114, 3, 1.11052
271, 2, bw, attraction, a-b-db, 2, 3, 2, 19, 195, 120, 120, 195, 119, 193, 2, 5.51148
271, 2, bw, attraction, a-b-db, 2, 3, 2, 19, 195, 120, 120, 195, 119, 193, 1, 0.69627
271, 2, bw, attraction, a-b-db, 14, 1, 2, 20, 56, 125, 135, 60, 60, 135, 2, 2.73791
271, 2, bw, attraction, a-b-db, 14, 1, 2, 20, 56, 125, 135, 60, 60, 135, 1, 0.803134
271, 2, bw, catch, NA, 999, 999, 2, 21, 185, 130, 142, 113, 96, 99, 1, 1.32081
271, 2, bw, catch, NA, 999, 999, 2, 21, 185, 130, 142, 113, 96, 99, 3, 1.29037
271, 2, bw, attraction, a-b-da, 14, 2, 2, 22, 165, 90, 90, 165, 153, 83, 1, 1.90791
271, 2, bw, attraction, a-b-da, 14, 2, 2, 22, 165, 90, 90, 165, 153, 83, 2, 1.07002
271, 2, bw, filler, NA, 999, 999, 2, 23, 139, 65, 170, 158, 177, 155, 2, 2.30492
271, 2, bw, filler, NA, 999, 999, 2, 23, 139, 65, 170, 158, 177, 155, 1, 0.874807
271, 2, bw, filler, NA, 999, 999, 2, 24, 175, 71, 101, 128, 87, 151, 1, 3.42916
271, 2, bw, filler, NA, 999, 999, 2, 24, 175, 71, 101, 128, 87, 151, 2, 0.522022
271, 2, bw, attraction, a-b-da, 14, 3, 2, 25, 120, 195, 195, 120, 181, 111, 1, 3.25115
271, 2, bw, attraction, a-b-da, 14, 3, 2, 25, 120, 195, 195, 120, 181, 111, 3, 0.671564
271, 2, bw, attraction, a-b-db, 9, 2, 2, 26, 86, 157, 165, 90, 90, 165, 1, 2.13058
271, 2, bw, attraction, a-b-db, 9, 2, 2, 26, 86, 157, 165, 90, 90, 165, 2, 7.09188
271, 2, bw, attraction, a-b-da, 9, 1, 2, 27, 60, 135, 135, 60, 129, 57, 2, 2.4757
271, 2, bw, attraction, a-b-da, 9, 1, 2, 27, 60, 135, 135, 60, 129, 57, 1, 0.710749
271, 2, bw, filler, NA, 999, 999, 2, 28, 117, 162, 127, 145, 143, 176, 3, 3.3839
271, 2, bw, filler, NA, 999, 999, 2, 28, 117, 162, 127, 145, 143, 176, 1, 1.13474
271, 2, bw, filler, NA, 999, 999, 2, 29, 184, 57, 141, 79, 117, 189, 3, 3.65505
271, 2, bw, filler, NA, 999, 999, 2, 29, 184, 57, 141, 79, 117, 189, 2, 2.81851
271, 2, bw, attraction, a-b-da, 5, 3, 2, 30, 195, 120, 190, 117, 120, 195, 3, 4.35089
271, 2, bw, attraction, a-b-da, 5, 3, 2, 30, 195, 120, 190, 117, 120, 195, 2, 0.478827
271, 2, bw, attraction, a-b-da, 9, 2, 2, 31, 157, 86, 165, 90, 90, 165, 3, 5.59339
271, 2, bw, attraction, a-b-da, 9, 2, 2, 31, 157, 86, 165, 90, 90, 165, 2, 5.6148
271, 2, bw, filler, NA, 999, 999, 2, 32, 68, 189, 130, 66, 115, 98, 1, 3.43443
271, 2, bw, filler, NA, 999, 999, 2, 32, 68, 189, 130, 66, 115, 98, 2, 1.51929
271, 2, bw, filler, NA, 999, 999, 2, 33, 93, 131, 125, 58, 118, 95, 1, 3.47212
271, 2, bw, filler, NA, 999, 999, 2, 33, 93, 131, 125, 58, 118, 95, 2, 0.706994
271, 2, bw, attraction, a-b-db, 9, 1, 2, 34, 57, 129, 135, 60, 60, 135, 2, 6.77196
271, 2, bw, attraction, a-b-db, 9, 1, 2, 34, 57, 129, 135, 60, 60, 135, 3, 0.962502
271, 2, bw, catch, NA, 999, 999, 2, 35, 158, 97, 95, 100, 185, 130, 3, 1.33747
271, 2, bw, catch, NA, 999, 999, 2, 35, 158, 97, 95, 100, 185, 130, 2, 0.970396
271, 2, bw, attraction, a-b-db, 14, 3, 2, 36, 111, 181, 120, 195, 195, 120, 1, 4.12143
271, 2, bw, attraction, a-b-db, 14, 3, 2, 36, 111, 181, 120, 195, 195, 120, 3, 1.33884
271, 2, bw, filler, NA, 999, 999, 2, 37, 64, 186, 90, 100, 189, 72, 1, 3.09895
271, 2, bw, filler, NA, 999, 999, 2, 37, 64, 186, 90, 100, 189, 72, 2, 0.749246
271, 2, bw, filler, NA, 999, 999, 3, 1, 151, 115, 88, 125, 155, 92, 1, 2.57291
271, 2, bw, filler, NA, 999, 999, 3, 1, 151, 115, 88, 125, 155, 92, 2, 1.66015
271, 2, bw, attraction, a-b-da, 14, 3, 3, 2, 195, 120, 120, 195, 181, 111, 1, 3.3989
271, 2, bw, attraction, a-b-da, 14, 3, 3, 2, 195, 120, 120, 195, 181, 111, 3, 1.06118
271, 2, bw, catch, NA, 999, 999, 3, 3, 125, 190, 107, 88, 146, 109, 1, 1.38421
271, 2, bw, catch, NA, 999, 999, 3, 3, 125, 190, 107, 88, 146, 109, 2, 1.18371
271, 2, bw, attraction, a-b-da, 14, 2, 3, 4, 90, 165, 153, 83, 165, 90, 1, 2.44591
271, 2, bw, attraction, a-b-da, 14, 2, 3, 4, 90, 165, 153, 83, 165, 90, 2, 1.14639
271, 2, bw, filler, NA, 999, 999, 3, 5, 65, 169, 134, 120, 151, 139, 3, 3.84194
271, 2, bw, filler, NA, 999, 999, 3, 5, 65, 169, 134, 120, 151, 139, 1, 0.774157
271, 2, bw, attraction, a-b-da, 14, 1, 3, 6, 135, 60, 125, 56, 60, 135, 1, 4.15645
271, 2, bw, attraction, a-b-da, 14, 1, 3, 6, 135, 60, 125, 56, 60, 135, 2, 1.84375
271, 2, bw, attraction, a-b-db, 2, 1, 3, 7, 135, 60, 60, 135, 59, 134, 1, 2.06313
271, 2, bw, attraction, a-b-db, 2, 1, 3, 7, 135, 60, 60, 135, 59, 134, 3, 0.89918
271, 2, bw, filler, NA, 999, 999, 3, 8, 107, 143, 177, 171, 79, 91, 2, 1.15677
271, 2, bw, filler, NA, 999, 999, 3, 8, 107, 143, 177, 171, 79, 91, 3, 0.949135
271, 2, bw, attraction, a-b-db, 14, 2, 3, 9, 165, 90, 90, 165, 83, 153, 1, 3.64478
271, 2, bw, attraction, a-b-db, 14, 2, 3, 9, 165, 90, 90, 165, 83, 153, 3, 0.992887
271, 2, bw, attraction, a-b-da, 2, 1, 3, 10, 60, 135, 134, 59, 135, 60, 1, 3.44662
271, 2, bw, attraction, a-b-da, 2, 1, 3, 10, 60, 135, 134, 59, 135, 60, 2, 0.78677
271, 2, bw, filler, NA, 999, 999, 3, 11, 147, 96, 87, 116, 71, 108, 1, 1.28113
271, 2, bw, filler, NA, 999, 999, 3, 11, 147, 96, 87, 116, 71, 108, 3, 0.924762
271, 2, bw, attraction, a-b-db, 2, 3, 3, 12, 119, 193, 195, 120, 120, 195, 2, 2.79702
271, 2, bw, attraction, a-b-db, 2, 3, 3, 12, 119, 193, 195, 120, 120, 195, 1, 1.07555
271, 2, bw, attraction, a-b-db, 9, 3, 3, 13, 114, 186, 120, 195, 195, 120, 1, 5.72574
271, 2, bw, attraction, a-b-db, 9, 3, 3, 13, 114, 186, 120, 195, 195, 120, 3, 0.741904
271, 2, bw, attraction, a-b-db, 5, 2, 3, 14, 90, 165, 165, 90, 88, 161, 3, 6.61358
271, 2, bw, attraction, a-b-db, 5, 2, 3, 14, 90, 165, 165, 90, 88, 161, 2, 0.530109
271, 2, bw, attraction, a-b-da, 9, 1, 3, 15, 135, 60, 60, 135, 129, 57, 1, 2.76264
271, 2, bw, attraction, a-b-da, 9, 1, 3, 15, 135, 60, 60, 135, 129, 57, 2, 5.57842
271, 2, bw, attraction, a-b-db, 9, 2, 3, 16, 165, 90, 86, 157, 90, 165, 1, 7.08726
271, 2, bw, attraction, a-b-db, 9, 2, 3, 16, 165, 90, 86, 157, 90, 165, 3, 0.84099
271, 2, bw, catch, NA, 999, 999, 3, 17, 189, 126, 140, 115, 71, 124, 1, 1.27661
271, 2, bw, catch, NA, 999, 999, 3, 17, 189, 126, 140, 115, 71, 124, 3, 0.896297
271, 2, bw, filler, NA, 999, 999, 3, 18, 108, 128, 58, 118, 170, 106, 3, 1.55394
271, 2, bw, filler, NA, 999, 999, 3, 18, 108, 128, 58, 118, 170, 106, 2, 0.570092
271, 2, bw, attraction, a-b-db, 9, 1, 3, 19, 135, 60, 57, 129, 60, 135, 2, 2.52122
271, 2, bw, attraction, a-b-db, 9, 1, 3, 19, 135, 60, 57, 129, 60, 135, 1, 0.594342
271, 2, bw, attraction, a-b-db, 2, 2, 3, 20, 165, 90, 90, 165, 89, 163, 2, 2.55212
271, 2, bw, attraction, a-b-db, 2, 2, 3, 20, 165, 90, 90, 165, 89, 163, 1, 1.4726
271, 2, bw, filler, NA, 999, 999, 3, 21, 90, 84, 87, 82, 64, 104, 1, 3.80344
271, 2, bw, filler, NA, 999, 999, 3, 21, 90, 84, 87, 82, 64, 104, 3, 0.657584
271, 2, bw, attraction, a-b-da, 9, 3, 3, 22, 186, 114, 195, 120, 120, 195, 2, 3.86862
271, 2, bw, attraction, a-b-da, 9, 3, 3, 22, 186, 114, 195, 120, 120, 195, 1, 1.35206
271, 2, bw, attraction, a-b-db, 5, 3, 3, 23, 195, 120, 120, 195, 117, 190, 2, 2.33561
271, 2, bw, attraction, a-b-db, 5, 3, 3, 23, 195, 120, 120, 195, 117, 190, 1, 1.26485
271, 2, bw, filler, NA, 999, 999, 3, 24, 188, 118, 146, 170, 79, 194, 2, 2.87564
271, 2, bw, filler, NA, 999, 999, 3, 24, 188, 118, 146, 170, 79, 194, 3, 0.702799
271, 2, bw, catch, NA, 999, 999, 3, 25, 105, 150, 128, 187, 116, 79, 2, 1.96846
271, 2, bw, catch, NA, 999, 999, 3, 25, 105, 150, 128, 187, 116, 79, 3, 0.592473
271, 2, bw, filler, NA, 999, 999, 3, 26, 195, 73, 135, 172, 121, 82, 2, 1.81443
271, 2, bw, filler, NA, 999, 999, 3, 26, 195, 73, 135, 172, 121, 82, 3, 0.724354
271, 2, bw, attraction, a-b-da, 9, 2, 3, 27, 90, 165, 165, 90, 157, 86, 1, 1.95669
271, 2, bw, attraction, a-b-da, 9, 2, 3, 27, 90, 165, 165, 90, 157, 86, 3, 0.812816
271, 2, bw, attraction, a-b-db, 5, 1, 3, 28, 135, 60, 58, 132, 60, 135, 2, 6.48978
271, 2, bw, attraction, a-b-db, 5, 1, 3, 28, 135, 60, 58, 132, 60, 135, 3, 0.787013
271, 2, bw, attraction, a-b-da, 5, 3, 3, 29, 190, 117, 195, 120, 120, 195, 2, 2.71339
271, 2, bw, attraction, a-b-da, 5, 3, 3, 29, 190, 117, 195, 120, 120, 195, 1, 0.931148
271, 2, bw, attraction, a-b-da, 2, 2, 3, 30, 165, 90, 163, 89, 90, 165, 2, 2.16351
271, 2, bw, attraction, a-b-da, 2, 2, 3, 30, 165, 90, 163, 89, 90, 165, 3, 1.61953
271, 2, bw, attraction, a-b-da, 5, 1, 3, 31, 60, 135, 132, 58, 135, 60, 1, 2.27225
271, 2, bw, attraction, a-b-da, 5, 1, 3, 31, 60, 135, 132, 58, 135, 60, 3, 0.907593
271, 2, bw, attraction, a-b-da, 2, 3, 3, 32, 193, 119, 120, 195, 195, 120, 2, 4.15655
271, 2, bw, attraction, a-b-da, 2, 3, 3, 32, 193, 119, 120, 195, 195, 120, 1, 0.627852
271, 2, bw, attraction, a-b-db, 14, 1, 3, 33, 56, 125, 135, 60, 60, 135, 2, 8.64031
271, 2, bw, attraction, a-b-db, 14, 1, 3, 33, 56, 125, 135, 60, 60, 135, 1, 2.09095
271, 2, bw, filler, NA, 999, 999, 3, 34, 167, 135, 158, 91, 88, 180, 1, 1.39612
271, 2, bw, filler, NA, 999, 999, 3, 34, 167, 135, 158, 91, 88, 180, 2, 4.09106
271, 2, bw, attraction, a-b-da, 5, 2, 3, 35, 165, 90, 90, 165, 161, 88, 2, 2.82768
271, 2, bw, attraction, a-b-da, 5, 2, 3, 35, 165, 90, 90, 165, 161, 88, 3, 0.960809
271, 2, bw, filler, NA, 999, 999, 3, 36, 73, 87, 179, 91, 116, 123, 2, 2.0477
271, 2, bw, filler, NA, 999, 999, 3, 36, 73, 87, 179, 91, 116, 123, 1, 0.516339
271, 2, bw, attraction, a-b-db, 14, 3, 3, 37, 111, 181, 195, 120, 120, 195, 2, 4.07751
271, 2, bw, attraction, a-b-db, 14, 3, 3, 37, 111, 181, 195, 120, 120, 195, 1, 0.512262
271, 2, bw, filler, NA, 999, 999, 4, 1, 185, 97, 143, 131, 93, 102, 2, 5.01739
271, 2, bw, filler, NA, 999, 999, 4, 1, 185, 97, 143, 131, 93, 102, 3, 0.766421
271, 2, bw, attraction, a-b-da, 14, 1, 4, 2, 135, 60, 60, 135, 125, 56, 2, 0.869431
271, 2, bw, attraction, a-b-da, 14, 1, 4, 2, 135, 60, 60, 135, 125, 56, 3, 1.54579
271, 2, bw, filler, NA, 999, 999, 4, 3, 131, 184, 179, 130, 85, 114, 1, 1.74531
271, 2, bw, filler, NA, 999, 999, 4, 3, 131, 184, 179, 130, 85, 114, 3, 0.618055
271, 2, bw, attraction, a-b-da, 9, 3, 4, 4, 120, 195, 186, 114, 195, 120, 1, 3.05511
271, 2, bw, attraction, a-b-da, 9, 3, 4, 4, 120, 195, 186, 114, 195, 120, 3, 0.554833
271, 2, bw, attraction, a-b-db, 2, 1, 4, 5, 60, 135, 59, 134, 135, 60, 1, 2.01054
271, 2, bw, attraction, a-b-db, 2, 1, 4, 5, 60, 135, 59, 134, 135, 60, 3, 0.600552
271, 2, bw, filler, NA, 999, 999, 4, 6, 85, 175, 60, 103, 133, 149, 3, 2.30234
271, 2, bw, filler, NA, 999, 999, 4, 6, 85, 175, 60, 103, 133, 149, 2, 0.840918
271, 2, bw, attraction, a-b-db, 9, 1, 4, 7, 57, 129, 60, 135, 135, 60, 2, 4.0286
271, 2, bw, attraction, a-b-db, 9, 1, 4, 7, 57, 129, 60, 135, 135, 60, 1, 1.24933
271, 2, bw, attraction, a-b-da, 2, 1, 4, 8, 135, 60, 60, 135, 134, 59, 1, 3.68496
271, 2, bw, attraction, a-b-da, 2, 1, 4, 8, 135, 60, 60, 135, 134, 59, 2, 0.975671
271, 2, bw, filler, NA, 999, 999, 4, 9, 184, 74, 93, 65, 76, 106, 1, 1.45409
271, 2, bw, filler, NA, 999, 999, 4, 9, 184, 74, 93, 65, 76, 106, 2, 2.78632
271, 2, bw, attraction, a-b-da, 14, 2, 4, 10, 165, 90, 153, 83, 90, 165, 1, 4.47201
271, 2, bw, attraction, a-b-da, 14, 2, 4, 10, 165, 90, 153, 83, 90, 165, 3, 1.93051
271, 2, bw, attraction, a-b-db, 5, 2, 4, 11, 88, 161, 90, 165, 165, 90, 2, 2.09048
271, 2, bw, attraction, a-b-db, 5, 2, 4, 11, 88, 161, 90, 165, 165, 90, 3, 1.71714
271, 2, bw, attraction, a-b-db, 14, 1, 4, 12, 135, 60, 60, 135, 56, 125, 1, 2.66182
271, 2, bw, attraction, a-b-db, 14, 1, 4, 12, 135, 60, 60, 135, 56, 125, 3, 0.753684
271, 2, bw, filler, NA, 999, 999, 4, 13, 140, 75, 164, 150, 125, 68, 1, 2.18538
271, 2, bw, filler, NA, 999, 999, 4, 13, 140, 75, 164, 150, 125, 68, 3, 3.0247
271, 2, bw, attraction, a-b-db, 14, 3, 4, 14, 195, 120, 111, 181, 120, 195, 1, 4.09241
271, 2, bw, attraction, a-b-db, 14, 3, 4, 14, 195, 120, 111, 181, 120, 195, 2, 1.26243
271, 2, bw, filler, NA, 999, 999, 4, 15, 67, 145, 93, 104, 132, 166, 3, 2.55331
271, 2, bw, filler, NA, 999, 999, 4, 15, 67, 145, 93, 104, 132, 166, 2, 0.985811
271, 2, bw, filler, NA, 999, 999, 4, 16, 178, 108, 78, 115, 93, 81, 1, 1.39213
271, 2, bw, filler, NA, 999, 999, 4, 16, 178, 108, 78, 115, 93, 81, 3, 1.30294
271, 2, bw, attraction, a-b-db, 9, 3, 4, 17, 195, 120, 114, 186, 120, 195, 1, 8.54452
271, 2, bw, attraction, a-b-db, 9, 3, 4, 17, 195, 120, 114, 186, 120, 195, 3, 0.815075
271, 2, bw, attraction, a-b-db, 2, 3, 4, 18, 195, 120, 120, 195, 119, 193, 1, 3.65208
271, 2, bw, attraction, a-b-db, 2, 3, 4, 18, 195, 120, 120, 195, 119, 193, 2, 1.47235
271, 2, bw, attraction, a-b-da, 5, 3, 4, 19, 120, 195, 195, 120, 190, 117, 1, 3.37125
271, 2, bw, attraction, a-b-da, 5, 3, 4, 19, 120, 195, 195, 120, 190, 117, 2, 0.578035
271, 2, bw, filler, NA, 999, 999, 4, 20, 107, 139, 130, 142, 87, 118, 2, 3.32844
271, 2, bw, filler, NA, 999, 999, 4, 20, 107, 139, 130, 142, 87, 118, 3, 0.521382
271, 2, bw, attraction, a-b-db, 2, 2, 4, 21, 89, 163, 165, 90, 90, 165, 2, 4.33065
271, 2, bw, attraction, a-b-db, 2, 2, 4, 21, 89, 163, 165, 90, 90, 165, 3, 1.78718
271, 2, bw, filler, NA, 999, 999, 4, 22, 119, 144, 138, 72, 56, 160, 1, 1.58521
271, 2, bw, filler, NA, 999, 999, 4, 22, 119, 144, 138, 72, 56, 160, 3, 0.512697
271, 2, bw, attraction, a-b-db, 5, 3, 4, 23, 117, 190, 120, 195, 195, 120, 2, 2.59376
271, 2, bw, attraction, a-b-db, 5, 3, 4, 23, 117, 190, 120, 195, 195, 120, 3, 1.36039
271, 2, bw, catch, NA, 999, 999, 4, 24, 127, 68, 126, 189, 134, 121, 2, 2.82306
271, 2, bw, catch, NA, 999, 999, 4, 24, 127, 68, 126, 189, 134, 121, 1, 0.484251
271, 2, bw, attraction, a-b-da, 5, 1, 4, 25, 60, 135, 135, 60, 132, 58, 1, 5.30279
271, 2, bw, attraction, a-b-da, 5, 1, 4, 25, 60, 135, 135, 60, 132, 58, 2, 1.01646
271, 2, bw, catch, NA, 999, 999, 4, 26, 67, 128, 105, 150, 184, 131, 3, 1.14931
271, 2, bw, catch, NA, 999, 999, 4, 26, 67, 128, 105, 150, 184, 131, 1, 0.950321
271, 2, bw, attraction, a-b-db, 5, 1, 4, 27, 58, 132, 135, 60, 60, 135, 3, 2.92588
271, 2, bw, attraction, a-b-db, 5, 1, 4, 27, 58, 132, 135, 60, 60, 135, 2, 0.670915
271, 2, bw, attraction, a-b-da, 2, 3, 4, 28, 193, 119, 195, 120, 120, 195, 2, 5.47399
271, 2, bw, attraction, a-b-da, 2, 3, 4, 28, 193, 119, 195, 120, 120, 195, 3, 0.628431
271, 2, bw, attraction, a-b-da, 9, 1, 4, 29, 60, 135, 135, 60, 129, 57, 1, 2.00863
271, 2, bw, attraction, a-b-da, 9, 1, 4, 29, 60, 135, 135, 60, 129, 57, 3, 0.83865
271, 2, bw, attraction, a-b-da, 5, 2, 4, 30, 161, 88, 165, 90, 90, 165, 3, 6.41097
271, 2, bw, attraction, a-b-da, 5, 2, 4, 30, 161, 88, 165, 90, 90, 165, 2, 3.84771
271, 2, bw, catch, NA, 999, 999, 4, 31, 111, 84, 136, 119, 178, 137, 3, 1.35439
271, 2, bw, catch, NA, 999, 999, 4, 31, 111, 84, 136, 119, 178, 137, 1, 0.52272
271, 2, bw, attraction, a-b-da, 9, 2, 4, 32, 165, 90, 157, 86, 90, 165, 1, 3.56304
271, 2, bw, attraction, a-b-da, 9, 2, 4, 32, 165, 90, 157, 86, 90, 165, 2, 1.10654
271, 2, bw, attraction, a-b-db, 9, 2, 4, 33, 86, 157, 90, 165, 165, 90, 2, 1.53157
271, 2, bw, attraction, a-b-db, 9, 2, 4, 33, 86, 157, 90, 165, 165, 90, 3, 2.01298
271, 2, bw, attraction, a-b-da, 14, 3, 4, 34, 120, 195, 195, 120, 181, 111, 1, 1.04169
271, 2, bw, attraction, a-b-da, 14, 3, 4, 34, 120, 195, 195, 120, 181, 111, 3, 0.798708
271, 2, bw, attraction, a-b-db, 14, 2, 4, 35, 165, 90, 90, 165, 83, 153, 2, 3.70832
271, 2, bw, attraction, a-b-db, 14, 2, 4, 35, 165, 90, 90, 165, 83, 153, 1, 0.613779
271, 2, bw, attraction, a-b-da, 2, 2, 4, 36, 163, 89, 165, 90, 90, 165, 3, 3.21094
271, 2, bw, attraction, a-b-da, 2, 2, 4, 36, 163, 89, 165, 90, 90, 165, 1, 0.528466
271, 2, bw, filler, NA, 999, 999, 4, 37, 180, 87, 124, 102, 63, 113, 1, 2.12894
271, 2, bw, filler, NA, 999, 999, 4, 37, 180, 87, 124, 102, 63, 113, 3, 0.61028
271, 2, bw, attraction, a-b-da, 9, 2, 5, 1, 165, 90, 157, 86, 90, 165, 3, 3.52599
271, 2, bw, attraction, a-b-da, 9, 2, 5, 1, 165, 90, 157, 86, 90, 165, 2, 0.438867
271, 2, bw, attraction, a-b-da, 5, 1, 5, 2, 60, 135, 132, 58, 135, 60, 1, 1.9714
271, 2, bw, attraction, a-b-da, 5, 1, 5, 2, 60, 135, 132, 58, 135, 60, 2, 0.666667
271, 2, bw, filler, NA, 999, 999, 5, 3, 169, 152, 164, 157, 93, 93, 2, 1.6698
271, 2, bw, filler, NA, 999, 999, 5, 3, 169, 152, 164, 157, 93, 93, 3, 0.897814
271, 2, bw, catch, NA, 999, 999, 5, 4, 103, 152, 177, 138, 120, 75, 2, 0.987537
271, 2, bw, catch, NA, 999, 999, 5, 4, 103, 152, 177, 138, 120, 75, 3, 0.522535
271, 2, bw, attraction, a-b-da, 14, 3, 5, 5, 195, 120, 120, 195, 181, 111, 2, 1.54769
271, 2, bw, attraction, a-b-da, 14, 3, 5, 5, 195, 120, 120, 195, 181, 111, 3, 0.836596
271, 2, bw, filler, NA, 999, 999, 5, 6, 109, 116, 125, 160, 120, 135, 2, 1.42492
271, 2, bw, filler, NA, 999, 999, 5, 6, 109, 116, 125, 160, 120, 135, 1, 0.702306
271, 2, bw, attraction, a-b-db, 2, 1, 5, 7, 59, 134, 60, 135, 135, 60, 2, 2.55224
271, 2, bw, attraction, a-b-db, 2, 1, 5, 7, 59, 134, 60, 135, 135, 60, 3, 0.632593
271, 2, bw, attraction, a-b-db, 9, 2, 5, 8, 165, 90, 86, 157, 90, 165, 1, 3.19696
271, 2, bw, attraction, a-b-db, 9, 2, 5, 8, 165, 90, 86, 157, 90, 165, 3, 0.651216
271, 2, bw, attraction, a-b-db, 14, 1, 5, 9, 56, 125, 60, 135, 135, 60, 2, 2.14316
271, 2, bw, attraction, a-b-db, 14, 1, 5, 9, 56, 125, 60, 135, 135, 60, 3, 1.15164
271, 2, bw, filler, NA, 999, 999, 5, 10, 95, 116, 58, 56, 118, 186, 3, 1.22317
271, 2, bw, filler, NA, 999, 999, 5, 10, 95, 116, 58, 56, 118, 186, 2, 0.756819
271, 2, bw, filler, NA, 999, 999, 5, 11, 128, 78, 158, 94, 94, 73, 2, 1.17182
271, 2, bw, filler, NA, 999, 999, 5, 11, 128, 78, 158, 94, 94, 73, 3, 0.8035
271, 2, bw, attraction, a-b-db, 2, 3, 5, 12, 195, 120, 120, 195, 119, 193, 1, 2.88916
271, 2, bw, attraction, a-b-db, 2, 3, 5, 12, 195, 120, 120, 195, 119, 193, 2, 1.02758
271, 2, bw, attraction, a-b-da, 14, 1, 5, 13, 60, 135, 125, 56, 135, 60, 1, 2.15981
271, 2, bw, attraction, a-b-da, 14, 1, 5, 13, 60, 135, 125, 56, 135, 60, 2, 0.823772
271, 2, bw, catch, NA, 999, 999, 5, 14, 155, 100, 163, 152, 107, 88, 2, 1.02017
271, 2, bw, catch, NA, 999, 999, 5, 14, 155, 100, 163, 152, 107, 88, 3, 0.689858
271, 2, bw, attraction, a-b-da, 2, 3, 5, 15, 195, 120, 120, 195, 193, 119, 2, 2.29149
271, 2, bw, attraction, a-b-da, 2, 3, 5, 15, 195, 120, 120, 195, 193, 119, 1, 0.406086
271, 2, bw, attraction, a-b-da, 5, 3, 5, 16, 195, 120, 120, 195, 190, 117, 2, 1.93119
271, 2, bw, attraction, a-b-da, 5, 3, 5, 16, 195, 120, 120, 195, 190, 117, 3, 0.660668
271, 2, bw, attraction, a-b-da, 2, 2, 5, 17, 90, 165, 165, 90, 163, 89, 2, 1.76764
271, 2, bw, attraction, a-b-da, 2, 2, 5, 17, 90, 165, 165, 90, 163, 89, 3, 0.687783
271, 2, bw, filler, NA, 999, 999, 5, 18, 126, 137, 182, 134, 169, 80, 2, 1.31414
271, 2, bw, filler, NA, 999, 999, 5, 18, 126, 137, 182, 134, 169, 80, 3, 0.796433
271, 2, bw, attraction, a-b-db, 9, 1, 5, 19, 60, 135, 135, 60, 57, 129, 2, 0.986104
271, 2, bw, attraction, a-b-db, 9, 1, 5, 19, 60, 135, 135, 60, 57, 129, 3, 0.505777
271, 2, bw, attraction, a-b-da, 14, 2, 5, 20, 90, 165, 165, 90, 153, 83, 2, 1.15562
271, 2, bw, attraction, a-b-da, 14, 2, 5, 20, 90, 165, 165, 90, 153, 83, 3, 1.48393
271, 2, bw, attraction, a-b-db, 2, 2, 5, 21, 90, 165, 89, 163, 165, 90, 2, 1.00599
271, 2, bw, attraction, a-b-db, 2, 2, 5, 21, 90, 165, 89, 163, 165, 90, 3, 0.444348
271, 2, bw, filler, NA, 999, 999, 5, 22, 68, 191, 174, 59, 130, 94, 2, 1.58415
271, 2, bw, filler, NA, 999, 999, 5, 22, 68, 191, 174, 59, 130, 94, 3, 0.439702
271, 2, bw, attraction, a-b-db, 5, 1, 5, 23, 58, 132, 135, 60, 60, 135, 2, 0.995427
271, 2, bw, attraction, a-b-db, 5, 1, 5, 23, 58, 132, 135, 60, 60, 135, 1, 0.554399
271, 2, bw, filler, NA, 999, 999, 5, 24, 134, 190, 159, 173, 84, 193, 2, 0.786246
271, 2, bw, filler, NA, 999, 999, 5, 24, 134, 190, 159, 173, 84, 193, 3, 0.521871
271, 2, bw, attraction, a-b-db, 5, 3, 5, 25, 120, 195, 117, 190, 195, 120, 2, 2.24308
271, 2, bw, attraction, a-b-db, 5, 3, 5, 25, 120, 195, 117, 190, 195, 120, 1, 1.29562
271, 2, bw, catch, NA, 999, 999, 5, 26, 121, 194, 139, 116, 75, 120, 1, 0.993129
271, 2, bw, catch, NA, 999, 999, 5, 26, 121, 194, 139, 116, 75, 120, 3, 0.448125
271, 2, bw, attraction, a-b-da, 9, 1, 5, 27, 60, 135, 135, 60, 129, 57, 2, 1.21191
271, 2, bw, attraction, a-b-da, 9, 1, 5, 27, 60, 135, 135, 60, 129, 57, 3, 2.02623
271, 2, bw, attraction, a-b-da, 5, 2, 5, 28, 161, 88, 165, 90, 90, 165, 2, 0.782095
271, 2, bw, attraction, a-b-da, 5, 2, 5, 28, 161, 88, 165, 90, 90, 165, 1, 0.893893
271, 2, bw, filler, NA, 999, 999, 5, 29, 189, 190, 133, 181, 145, 166, 1, 0.87156
271, 2, bw, filler, NA, 999, 999, 5, 29, 189, 190, 133, 181, 145, 166, 3, 0.4273
271, 2, bw, attraction, a-b-db, 9, 3, 5, 30, 120, 195, 195, 120, 114, 186, 2, 0.823799
271, 2, bw, attraction, a-b-db, 9, 3, 5, 30, 120, 195, 195, 120, 114, 186, 3, 0.66149
271, 2, bw, attraction, a-b-da, 9, 3, 5, 31, 195, 120, 120, 195, 186, 114, 1, 2.23264
271, 2, bw, attraction, a-b-da, 9, 3, 5, 31, 195, 120, 120, 195, 186, 114, 3, 0.485855
271, 2, bw, attraction, a-b-db, 14, 2, 5, 32, 90, 165, 83, 153, 165, 90, 1, 2.16837
271, 2, bw, attraction, a-b-db, 14, 2, 5, 32, 90, 165, 83, 153, 165, 90, 2, 0.456244
271, 2, bw, attraction, a-b-da, 2, 1, 5, 33, 135, 60, 134, 59, 60, 135, 1, 1.05134
271, 2, bw, attraction, a-b-da, 2, 1, 5, 33, 135, 60, 134, 59, 60, 135, 3, 0.52036
271, 2, bw, attraction, a-b-db, 14, 3, 5, 34, 195, 120, 120, 195, 111, 181, 1, 2.16947
271, 2, bw, attraction, a-b-db, 14, 3, 5, 34, 195, 120, 120, 195, 111, 181, 3, 0.513554
271, 2, bw, filler, NA, 999, 999, 5, 35, 149, 128, 88, 113, 179, 121, 3, 1.29865
271, 2, bw, filler, NA, 999, 999, 5, 35, 149, 128, 88, 113, 179, 121, 2, 0.421526
271, 2, bw, attraction, a-b-db, 5, 2, 5, 36, 90, 165, 165, 90, 88, 161, 1, 1.68265
271, 2, bw, attraction, a-b-db, 5, 2, 5, 36, 90, 165, 165, 90, 88, 161, 2, 0.478006
271, 2, bw, filler, NA, 999, 999, 5, 37, 79, 60, 81, 185, 83, 104, 2, 0.920523
271, 2, bw, filler, NA, 999, 999, 5, 37, 79, 60, 81, 185, 83, 104, 1, 2.00217
271, 2, bw, filler, NA, 999, 999, 6, 1, 82, 109, 65, 180, 69, 90, 2, 2.18351
271, 2, bw, filler, NA, 999, 999, 6, 1, 82, 109, 65, 180, 69, 90, 3, 0.582797
271, 2, bw, filler, NA, 999, 999, 6, 2, 183, 118, 171, 68, 185, 187, 3, 0.669199
271, 2, bw, filler, NA, 999, 999, 6, 2, 183, 118, 171, 68, 185, 187, 2, 0.705651
271, 2, bw, attraction, a-b-da, 9, 2, 6, 3, 90, 165, 165, 90, 157, 86, 1, 3.65138
271, 2, bw, attraction, a-b-da, 9, 2, 6, 3, 90, 165, 165, 90, 157, 86, 2, 0.479524
271, 2, bw, attraction, a-b-db, 2, 3, 6, 4, 119, 193, 120, 195, 195, 120, 2, 2.59398
271, 2, bw, attraction, a-b-db, 2, 3, 6, 4, 119, 193, 120, 195, 195, 120, 3, 0.992485
271, 2, bw, filler, NA, 999, 999, 6, 5, 154, 167, 145, 139, 67, 190, 1, 2.27002
271, 2, bw, filler, NA, 999, 999, 6, 5, 154, 167, 145, 139, 67, 190, 3, 0.938084
271, 2, bw, attraction, a-b-db, 2, 1, 6, 6, 60, 135, 59, 134, 135, 60, 1, 2.41042
271, 2, bw, attraction, a-b-db, 2, 1, 6, 6, 60, 135, 59, 134, 135, 60, 2, 1.60022
271, 2, bw, filler, NA, 999, 999, 6, 7, 131, 161, 87, 194, 88, 88, 1, 0.941637
271, 2, bw, filler, NA, 999, 999, 6, 7, 131, 161, 87, 194, 88, 88, 3, 0.774719
271, 2, bw, filler, NA, 999, 999, 6, 8, 122, 119, 167, 174, 141, 144, 2, 1.34923
271, 2, bw, filler, NA, 999, 999, 6, 8, 122, 119, 167, 174, 141, 144, 1, 0.629976
271, 2, bw, attraction, a-b-da, 9, 1, 6, 9, 60, 135, 129, 57, 135, 60, 1, 3.74635
271, 2, bw, attraction, a-b-da, 9, 1, 6, 9, 60, 135, 129, 57, 135, 60, 2, 0.522494
271, 2, bw, attraction, a-b-db, 2, 2, 6, 10, 165, 90, 90, 165, 89, 163, 1, 1.85164
271, 2, bw, attraction, a-b-db, 2, 2, 6, 10, 165, 90, 90, 165, 89, 163, 3, 0.576343
271, 2, bw, attraction, a-b-da, 9, 3, 6, 11, 195, 120, 186, 114, 120, 195, 1, 1.96678
271, 2, bw, attraction, a-b-da, 9, 3, 6, 11, 195, 120, 186, 114, 120, 195, 2, 0.886867
271, 2, bw, attraction, a-b-da, 5, 2, 6, 12, 161, 88, 90, 165, 165, 90, 1, 2.25718
271, 2, bw, attraction, a-b-da, 5, 2, 6, 12, 161, 88, 90, 165, 165, 90, 3, 0.685104
271, 2, bw, attraction, a-b-db, 9, 2, 6, 13, 165, 90, 90, 165, 86, 157, 1, 1.97538
271, 2, bw, attraction, a-b-db, 9, 2, 6, 13, 165, 90, 90, 165, 86, 157, 2, 0.46272
271, 2, bw, attraction, a-b-da, 5, 1, 6, 14, 132, 58, 135, 60, 60, 135, 2, 3.81784
271, 2, bw, attraction, a-b-da, 5, 1, 6, 14, 132, 58, 135, 60, 60, 135, 3, 0.599412
271, 2, bw, attraction, a-b-db, 14, 3, 6, 15, 120, 195, 195, 120, 111, 181, 1, 2.68512
271, 2, bw, attraction, a-b-db, 14, 3, 6, 15, 120, 195, 195, 120, 111, 181, 3, 0.496279
271, 2, bw, attraction, a-b-da, 14, 3, 6, 16, 120, 195, 195, 120, 181, 111, 2, 2.35406
271, 2, bw, attraction, a-b-da, 14, 3, 6, 16, 120, 195, 195, 120, 181, 111, 1, 0.569967
271, 2, bw, attraction, a-b-db, 5, 1, 6, 17, 135, 60, 60, 135, 58, 132, 1, 2.59304
271, 2, bw, attraction, a-b-db, 5, 1, 6, 17, 135, 60, 60, 135, 58, 132, 3, 0.631506
271, 2, bw, attraction, a-b-da, 14, 1, 6, 18, 135, 60, 125, 56, 60, 135, 2, 2.02795
271, 2, bw, attraction, a-b-da, 14, 1, 6, 18, 135, 60, 125, 56, 60, 135, 3, 0.793313
271, 2, bw, filler, NA, 999, 999, 6, 19, 120, 61, 146, 147, 164, 91, 1, 1.06306
271, 2, bw, filler, NA, 999, 999, 6, 19, 120, 61, 146, 147, 164, 91, 2, 0.715245
271, 2, bw, catch, NA, 999, 999, 6, 20, 112, 83, 124, 131, 187, 128, 1, 1.10047
271, 2, bw, catch, NA, 999, 999, 6, 20, 112, 83, 124, 131, 187, 128, 3, 0.695351
271, 2, bw, attraction, a-b-db, 9, 1, 6, 21, 60, 135, 135, 60, 57, 129, 2, 3.82505
271, 2, bw, attraction, a-b-db, 9, 1, 6, 21, 60, 135, 135, 60, 57, 129, 3, 0.693822
271, 2, bw, attraction, a-b-da, 14, 2, 6, 22, 153, 83, 90, 165, 165, 90, 2, 2.66364
271, 2, bw, attraction, a-b-da, 14, 2, 6, 22, 153, 83, 90, 165, 165, 90, 1, 0.515344
271, 2, bw, filler, NA, 999, 999, 6, 23, 120, 125, 160, 187, 134, 77, 2, 0.884402
271, 2, bw, filler, NA, 999, 999, 6, 23, 120, 125, 160, 187, 134, 77, 3, 0.496264
271, 2, bw, attraction, a-b-db, 5, 3, 6, 24, 120, 195, 195, 120, 117, 190, 1, 2.09791
271, 2, bw, attraction, a-b-db, 5, 3, 6, 24, 120, 195, 195, 120, 117, 190, 2, 0.396627
271, 2, bw, attraction, a-b-da, 2, 2, 6, 25, 165, 90, 90, 165, 163, 89, 1, 3.83439
271, 2, bw, attraction, a-b-da, 2, 2, 6, 25, 165, 90, 90, 165, 163, 89, 2, 0.495145
271, 2, bw, catch, NA, 999, 999, 6, 26, 135, 180, 122, 133, 111, 84, 1, 1.41704
271, 2, bw, catch, NA, 999, 999, 6, 26, 135, 180, 122, 133, 111, 84, 3, 0.623239
271, 2, bw, attraction, a-b-db, 9, 3, 6, 27, 120, 195, 114, 186, 195, 120, 3, 1.95557
271, 2, bw, attraction, a-b-db, 9, 3, 6, 27, 120, 195, 114, 186, 195, 120, 2, 0.643594
271, 2, bw, attraction, a-b-da, 5, 3, 6, 28, 195, 120, 190, 117, 120, 195, 1, 1.84741
271, 2, bw, attraction, a-b-da, 5, 3, 6, 28, 195, 120, 190, 117, 120, 195, 3, 0.588081
271, 2, bw, filler, NA, 999, 999, 6, 29, 77, 160, 138, 110, 151, 57, 2, 2.44261
271, 2, bw, filler, NA, 999, 999, 6, 29, 77, 160, 138, 110, 151, 57, 3, 0.663161
271, 2, bw, attraction, a-b-db, 14, 2, 6, 30, 165, 90, 90, 165, 83, 153, 1, 1.76209
271, 2, bw, attraction, a-b-db, 14, 2, 6, 30, 165, 90, 90, 165, 83, 153, 3, 0.658234
271, 2, bw, attraction, a-b-da, 2, 3, 6, 31, 193, 119, 120, 195, 195, 120, 2, 3.89336
271, 2, bw, attraction, a-b-da, 2, 3, 6, 31, 193, 119, 120, 195, 195, 120, 1, 0.535313
271, 2, bw, filler, NA, 999, 999, 6, 32, 76, 174, 100, 194, 184, 173, 3, 2.12778
271, 2, bw, filler, NA, 999, 999, 6, 32, 76, 174, 100, 194, 184, 173, 1, 1.00106
271, 2, bw, filler, NA, 999, 999, 6, 33, 152, 111, 134, 95, 120, 145, 3, 2.67868
271, 2, bw, filler, NA, 999, 999, 6, 33, 152, 111, 134, 95, 120, 145, 2, 0.633835
271, 2, bw, attraction, a-b-da, 2, 1, 6, 34, 60, 135, 135, 60, 134, 59, 3, 2.61433
271, 2, bw, attraction, a-b-da, 2, 1, 6, 34, 60, 135, 135, 60, 134, 59, 1, 0.500079
271, 2, bw, catch, NA, 999, 999, 6, 35, 152, 103, 147, 168, 90, 105, 2, 1.45392
271, 2, bw, catch, NA, 999, 999, 6, 35, 152, 103, 147, 168, 90, 105, 3, 0.610049
271, 2, bw, attraction, a-b-db, 14, 1, 6, 36, 60, 135, 135, 60, 56, 125, 2, 2.03125
271, 2, bw, attraction, a-b-db, 14, 1, 6, 36, 60, 135, 135, 60, 56, 125, 3, 0.460522
271, 2, bw, attraction, a-b-db, 5, 2, 6, 37, 90, 165, 88, 161, 165, 90, 2, 2.15969
271, 2, bw, attraction, a-b-db, 5, 2, 6, 37, 90, 165, 88, 161, 165, 90, 3, 0.615675
271, 2, bw, attraction, a-b-da, 9, 2, 7, 1, 165, 90, 90, 165, 157, 86, 1, 1.85264
271, 2, bw, attraction, a-b-da, 9, 2, 7, 1, 165, 90, 90, 165, 157, 86, 2, 0.441447
271, 2, bw, filler, NA, 999, 999, 7, 2, 133, 107, 170, 186, 174, 88, 2, 1.06128
271, 2, bw, filler, NA, 999, 999, 7, 2, 133, 107, 170, 186, 174, 88, 1, 1.11365
271, 2, bw, filler, NA, 999, 999, 7, 3, 124, 132, 192, 135, 124, 68, 2, 1.00244
271, 2, bw, filler, NA, 999, 999, 7, 3, 124, 132, 192, 135, 124, 68, 3, 0.43349
271, 2, bw, attraction, a-b-da, 14, 3, 7, 4, 195, 120, 181, 111, 120, 195, 3, 2.13405
271, 2, bw, attraction, a-b-da, 14, 3, 7, 4, 195, 120, 181, 111, 120, 195, 2, 0.39118
271, 2, bw, filler, NA, 999, 999, 7, 5, 147, 144, 153, 185, 59, 113, 2, 0.997019
271, 2, bw, filler, NA, 999, 999, 7, 5, 147, 144, 153, 185, 59, 113, 3, 0.596047
271, 2, bw, catch, NA, 999, 999, 7, 6, 177, 138, 90, 105, 156, 99, 1, 0.91376
271, 2, bw, catch, NA, 999, 999, 7, 6, 177, 138, 90, 105, 156, 99, 2, 0.372172
271, 2, bw, filler, NA, 999, 999, 7, 7, 70, 76, 169, 125, 81, 155, 2, 0.939257
271, 2, bw, filler, NA, 999, 999, 7, 7, 70, 76, 169, 125, 81, 155, 1, 1.0844
271, 2, bw, catch, NA, 999, 999, 7, 8, 105, 90, 183, 132, 107, 148, 2, 0.966554
271, 2, bw, catch, NA, 999, 999, 7, 8, 105, 90, 183, 132, 107, 148, 1, 0.438918
271, 2, bw, attraction, a-b-da, 5, 3, 7, 9, 195, 120, 120, 195, 190, 117, 1, 1.79542
271, 2, bw, attraction, a-b-da, 5, 3, 7, 9, 195, 120, 120, 195, 190, 117, 2, 0.6341
271, 2, bw, attraction, a-b-db, 9, 1, 7, 10, 57, 129, 135, 60, 60, 135, 1, 1.89452
271, 2, bw, attraction, a-b-db, 9, 1, 7, 10, 57, 129, 135, 60, 60, 135, 2, 0.361225
271, 2, bw, attraction, a-b-da, 2, 1, 7, 11, 60, 135, 135, 60, 134, 59, 2, 2.32047
271, 2, bw, attraction, a-b-da, 2, 1, 7, 11, 60, 135, 135, 60, 134, 59, 1, 0.649703
271, 2, bw, attraction, a-b-da, 14, 1, 7, 12, 135, 60, 60, 135, 125, 56, 2, 1.67741
271, 2, bw, attraction, a-b-da, 14, 1, 7, 12, 135, 60, 60, 135, 125, 56, 3, 0.824975
271, 2, bw, filler, NA, 999, 999, 7, 13, 112, 176, 174, 141, 82, 144, 2, 0.909198
271, 2, bw, filler, NA, 999, 999, 7, 13, 112, 176, 174, 141, 82, 144, 3, 0.463595
271, 2, bw, attraction, a-b-db, 5, 2, 7, 14, 90, 165, 88, 161, 165, 90, 2, 2.40269
271, 2, bw, attraction, a-b-db, 5, 2, 7, 14, 90, 165, 88, 161, 165, 90, 1, 1.02525
271, 2, bw, filler, NA, 999, 999, 7, 15, 136, 73, 144, 58, 137, 175, 3, 1.17353
271, 2, bw, filler, NA, 999, 999, 7, 15, 136, 73, 144, 58, 137, 175, 2, 1.35716
271, 2, bw, attraction, a-b-da, 9, 1, 7, 16, 60, 135, 129, 57, 135, 60, 3, 3.09994
271, 2, bw, attraction, a-b-da, 9, 1, 7, 16, 60, 135, 129, 57, 135, 60, 2, 0.734282
271, 2, bw, attraction, a-b-db, 9, 3, 7, 17, 120, 195, 114, 186, 195, 120, 1, 3.03085
271, 2, bw, attraction, a-b-db, 9, 3, 7, 17, 120, 195, 114, 186, 195, 120, 3, 1.23585
271, 2, bw, attraction, a-b-db, 5, 1, 7, 18, 60, 135, 58, 132, 135, 60, 3, 1.25598
271, 2, bw, attraction, a-b-db, 5, 1, 7, 18, 60, 135, 58, 132, 135, 60, 2, 0.716203
271, 2, bw, attraction, a-b-db, 2, 2, 7, 19, 165, 90, 90, 165, 89, 163, 3, 2.26127
271, 2, bw, attraction, a-b-db, 2, 2, 7, 19, 165, 90, 90, 165, 89, 163, 2, 0.529247
271, 2, bw, attraction, a-b-db, 14, 2, 7, 20, 165, 90, 90, 165, 83, 153, 2, 1.47359
271, 2, bw, attraction, a-b-db, 14, 2, 7, 20, 165, 90, 90, 165, 83, 153, 3, 0.397122
271, 2, bw, attraction, a-b-da, 5, 1, 7, 21, 135, 60, 60, 135, 132, 58, 2, 1.29095
271, 2, bw, attraction, a-b-da, 5, 1, 7, 21, 135, 60, 60, 135, 132, 58, 3, 1.55002
271, 2, bw, attraction, a-b-db, 2, 3, 7, 22, 195, 120, 119, 193, 120, 195, 2, 1.69346
271, 2, bw, attraction, a-b-db, 2, 3, 7, 22, 195, 120, 119, 193, 120, 195, 3, 0.776105
271, 2, bw, attraction, a-b-db, 5, 3, 7, 23, 117, 190, 195, 120, 120, 195, 1, 2.00648
271, 2, bw, attraction, a-b-db, 5, 3, 7, 23, 117, 190, 195, 120, 120, 195, 2, 1.47645
271, 2, bw, attraction, a-b-da, 2, 2, 7, 24, 165, 90, 163, 89, 90, 165, 2, 0.990577
271, 2, bw, attraction, a-b-da, 2, 2, 7, 24, 165, 90, 163, 89, 90, 165, 3, 0.493597
271, 2, bw, attraction, a-b-da, 9, 3, 7, 25, 186, 114, 120, 195, 195, 120, 2, 1.11935
271, 2, bw, attraction, a-b-da, 9, 3, 7, 25, 186, 114, 120, 195, 195, 120, 3, 0.577715
271, 2, bw, attraction, a-b-da, 14, 2, 7, 26, 153, 83, 90, 165, 165, 90, 2, 1.07219
271, 2, bw, attraction, a-b-da, 14, 2, 7, 26, 153, 83, 90, 165, 165, 90, 3, 0.779703
271, 2, bw, attraction, a-b-db, 14, 1, 7, 27, 135, 60, 56, 125, 60, 135, 1, 2.60217
271, 2, bw, attraction, a-b-db, 14, 1, 7, 27, 135, 60, 56, 125, 60, 135, 2, 0.432714
271, 2, bw, attraction, a-b-db, 2, 1, 7, 28, 59, 134, 135, 60, 60, 135, 2, 1.51719
271, 2, bw, attraction, a-b-db, 2, 1, 7, 28, 59, 134, 135, 60, 60, 135, 1, 0.415208
271, 2, bw, attraction, a-b-db, 9, 2, 7, 29, 90, 165, 86, 157, 165, 90, 2, 2.65248
271, 2, bw, attraction, a-b-db, 9, 2, 7, 29, 90, 165, 86, 157, 165, 90, 3, 0.976964
271, 2, bw, filler, NA, 999, 999, 7, 30, 87, 64, 161, 149, 138, 100, 2, 0.967162
271, 2, bw, filler, NA, 999, 999, 7, 30, 87, 64, 161, 149, 138, 100, 1, 0.567505
271, 2, bw, filler, NA, 999, 999, 7, 31, 72, 81, 70, 159, 135, 91, 2, 1.05463
271, 2, bw, filler, NA, 999, 999, 7, 31, 72, 81, 70, 159, 135, 91, 1, 0.730931
271, 2, bw, filler, NA, 999, 999, 7, 32, 172, 108, 176, 145, 173, 141, 2, 0.907348
271, 2, bw, filler, NA, 999, 999, 7, 32, 172, 108, 176, 145, 173, 141, 1, 0.533598
271, 2, bw, attraction, a-b-db, 14, 3, 7, 33, 120, 195, 195, 120, 111, 181, 2, 4.34211
271, 2, bw, attraction, a-b-db, 14, 3, 7, 33, 120, 195, 195, 120, 111, 181, 3, 0.590076
271, 2, bw, attraction, a-b-da, 5, 2, 7, 34, 90, 165, 165, 90, 161, 88, 3, 2.14783
271, 2, bw, attraction, a-b-da, 5, 2, 7, 34, 90, 165, 165, 90, 161, 88, 1, 0.420437
271, 2, bw, filler, NA, 999, 999, 7, 35, 179, 114, 153, 110, 97, 133, 1, 2.0977
271, 2, bw, filler, NA, 999, 999, 7, 35, 179, 114, 153, 110, 97, 133, 3, 0.516261
271, 2, bw, catch, NA, 999, 999, 7, 36, 162, 93, 83, 112, 142, 173, 3, 1.33336
271, 2, bw, catch, NA, 999, 999, 7, 36, 162, 93, 83, 112, 142, 173, 2, 0.454959
271, 2, bw, attraction, a-b-da, 2, 3, 7, 37, 193, 119, 120, 195, 195, 120, 2, 2.21867
271, 2, bw, attraction, a-b-da, 2, 3, 7, 37, 193, 119, 120, 195, 195, 120, 1, 1.16074
271, 2, bw, catch, NA, 999, 999, 8, 1, 132, 123, 122, 193, 92, 103, 2, 0.96752
271, 2, bw, catch, NA, 999, 999, 8, 1, 132, 123, 122, 193, 92, 103, 3, 0.864068
271, 2, bw, filler, NA, 999, 999, 8, 2, 125, 148, 92, 72, 57, 70, 1, 0.794816
271, 2, bw, filler, NA, 999, 999, 8, 2, 125, 148, 92, 72, 57, 70, 3, 1.018
271, 2, bw, attraction, a-b-da, 2, 2, 8, 3, 163, 89, 165, 90, 90, 165, 3, 1.59892
271, 2, bw, attraction, a-b-da, 2, 2, 8, 3, 163, 89, 165, 90, 90, 165, 1, 1.14967
271, 2, bw, attraction, a-b-db, 9, 3, 8, 4, 114, 186, 195, 120, 120, 195, 3, 1.10142
271, 2, bw, attraction, a-b-db, 9, 3, 8, 4, 114, 186, 195, 120, 120, 195, 1, 0.624255
271, 2, bw, attraction, a-b-db, 14, 3, 8, 5, 195, 120, 111, 181, 120, 195, 1, 2.00482
271, 2, bw, attraction, a-b-db, 14, 3, 8, 5, 195, 120, 111, 181, 120, 195, 2, 0.714686
271, 2, bw, filler, NA, 999, 999, 8, 6, 191, 185, 101, 171, 123, 140, 1, 0.691738
271, 2, bw, filler, NA, 999, 999, 8, 6, 191, 185, 101, 171, 123, 140, 3, 0.558881
271, 2, bw, attraction, a-b-db, 9, 2, 8, 7, 90, 165, 165, 90, 86, 157, 2, 1.25389
271, 2, bw, attraction, a-b-db, 9, 2, 8, 7, 90, 165, 165, 90, 86, 157, 3, 0.538903
271, 2, bw, catch, NA, 999, 999, 8, 8, 139, 176, 79, 116, 165, 90, 1, 0.803296
271, 2, bw, catch, NA, 999, 999, 8, 8, 139, 176, 79, 116, 165, 90, 2, 0.49846
271, 2, bw, filler, NA, 999, 999, 8, 9, 173, 152, 136, 127, 94, 191, 1, 0.892076
271, 2, bw, filler, NA, 999, 999, 8, 9, 173, 152, 136, 127, 94, 191, 2, 0.879123
271, 2, bw, attraction, a-b-da, 9, 1, 8, 10, 129, 57, 60, 135, 135, 60, 3, 3.48157
271, 2, bw, attraction, a-b-da, 9, 1, 8, 10, 129, 57, 60, 135, 135, 60, 2, 0.668368
271, 2, bw, filler, NA, 999, 999, 8, 11, 195, 175, 145, 167, 143, 60, 1, 1.03954
271, 2, bw, filler, NA, 999, 999, 8, 11, 195, 175, 145, 167, 143, 60, 3, 0.764497
271, 2, bw, attraction, a-b-da, 5, 3, 8, 12, 195, 120, 190, 117, 120, 195, 2, 2.06749
271, 2, bw, attraction, a-b-da, 5, 3, 8, 12, 195, 120, 190, 117, 120, 195, 1, 1.26345
271, 2, bw, attraction, a-b-da, 2, 3, 8, 13, 193, 119, 120, 195, 195, 120, 2, 4.68243
271, 2, bw, attraction, a-b-da, 2, 3, 8, 13, 193, 119, 120, 195, 195, 120, 1, 0.724861
271, 2, bw, attraction, a-b-db, 5, 3, 8, 14, 195, 120, 117, 190, 120, 195, 2, 0.797228
271, 2, bw, attraction, a-b-db, 5, 3, 8, 14, 195, 120, 117, 190, 120, 195, 1, 1.3723
271, 2, bw, attraction, a-b-da, 5, 1, 8, 15, 60, 135, 132, 58, 135, 60, 1, 3.04317
271, 2, bw, attraction, a-b-da, 5, 1, 8, 15, 60, 135, 132, 58, 135, 60, 2, 0.463461
271, 2, bw, attraction, a-b-da, 5, 2, 8, 16, 165, 90, 161, 88, 90, 165, 1, 2.57069
271, 2, bw, attraction, a-b-da, 5, 2, 8, 16, 165, 90, 161, 88, 90, 165, 2, 0.753832
271, 2, bw, attraction, a-b-da, 9, 2, 8, 17, 157, 86, 90, 165, 165, 90, 3, 2.88161
271, 2, bw, attraction, a-b-da, 9, 2, 8, 17, 157, 86, 90, 165, 165, 90, 2, 0.916609
271, 2, bw, filler, NA, 999, 999, 8, 18, 58, 105, 81, 73, 170, 192, 3, 0.821587
271, 2, bw, filler, NA, 999, 999, 8, 18, 58, 105, 81, 73, 170, 192, 2, 0.675279
271, 2, bw, attraction, a-b-da, 2, 1, 8, 19, 60, 135, 135, 60, 134, 59, 2, 2.54159
271, 2, bw, attraction, a-b-da, 2, 1, 8, 19, 60, 135, 135, 60, 134, 59, 3, 0.446158
271, 2, bw, filler, NA, 999, 999, 8, 20, 61, 154, 132, 114, 100, 156, 2, 3.85803
271, 2, bw, filler, NA, 999, 999, 8, 20, 61, 154, 132, 114, 100, 156, 1, 0.405531
271, 2, bw, attraction, a-b-db, 14, 2, 8, 21, 165, 90, 83, 153, 90, 165, 1, 2.61126
271, 2, bw, attraction, a-b-db, 14, 2, 8, 21, 165, 90, 83, 153, 90, 165, 2, 0.473046
271, 2, bw, filler, NA, 999, 999, 8, 22, 115, 62, 144, 99, 187, 132, 1, 1.33157
271, 2, bw, filler, NA, 999, 999, 8, 22, 115, 62, 144, 99, 187, 132, 3, 1.02119
271, 2, bw, attraction, a-b-db, 14, 1, 8, 23, 56, 125, 135, 60, 60, 135, 3, 3.89002
271, 2, bw, attraction, a-b-db, 14, 1, 8, 23, 56, 125, 135, 60, 60, 135, 2, 0.988126
271, 2, bw, attraction, a-b-db, 5, 1, 8, 24, 58, 132, 60, 135, 135, 60, 2, 3.81048
271, 2, bw, attraction, a-b-db, 5, 1, 8, 24, 58, 132, 60, 135, 135, 60, 1, 1.59186
271, 2, bw, filler, NA, 999, 999, 8, 25, 63, 127, 68, 77, 66, 108, 1, 1.31734
271, 2, bw, filler, NA, 999, 999, 8, 25, 63, 127, 68, 77, 66, 108, 2, 0.703602
271, 2, bw, attraction, a-b-db, 9, 1, 8, 26, 57, 129, 135, 60, 60, 135, 2, 1.7853
271, 2, bw, attraction, a-b-db, 9, 1, 8, 26, 57, 129, 135, 60, 60, 135, 1, 1.16872
271, 2, bw, attraction, a-b-db, 5, 2, 8, 27, 165, 90, 88, 161, 90, 165, 1, 4.27153
271, 2, bw, attraction, a-b-db, 5, 2, 8, 27, 165, 90, 88, 161, 90, 165, 2, 0.402339
271, 2, bw, attraction, a-b-da, 14, 1, 8, 28, 135, 60, 60, 135, 125, 56, 2, 3.19208
271, 2, bw, attraction, a-b-da, 14, 1, 8, 28, 135, 60, 60, 135, 125, 56, 3, 0.854355
271, 2, bw, catch, NA, 999, 999, 8, 29, 154, 161, 85, 110, 164, 91, 1, 1.10603
271, 2, bw, catch, NA, 999, 999, 8, 29, 154, 161, 85, 110, 164, 91, 2, 0.532381
271, 2, bw, attraction, a-b-da, 9, 3, 8, 30, 186, 114, 120, 195, 195, 120, 1, 2.46095
271, 2, bw, attraction, a-b-da, 9, 3, 8, 30, 186, 114, 120, 195, 195, 120, 2, 2.04063
271, 2, bw, filler, NA, 999, 999, 8, 31, 187, 168, 60, 143, 133, 96, 1, 0.955956
271, 2, bw, filler, NA, 999, 999, 8, 31, 187, 168, 60, 143, 133, 96, 2, 0.88431
271, 2, bw, attraction, a-b-da, 14, 2, 8, 32, 90, 165, 165, 90, 153, 83, 1, 2.5748
271, 2, bw, attraction, a-b-da, 14, 2, 8, 32, 90, 165, 165, 90, 153, 83, 3, 0.69376
271, 2, bw, attraction, a-b-da, 14, 3, 8, 33, 120, 195, 181, 111, 195, 120, 1, 0.823516
271, 2, bw, attraction, a-b-da, 14, 3, 8, 33, 120, 195, 181, 111, 195, 120, 2, 0.517317
271, 2, bw, filler, NA, 999, 999, 8, 34, 135, 101, 170, 147, 90, 131, 2, 0.846291
271, 2, bw, filler, NA, 999, 999, 8, 34, 135, 101, 170, 147, 90, 131, 3, 1.05134
271, 2, bw, attraction, a-b-db, 2, 3, 8, 35, 120, 195, 195, 120, 119, 193, 1, 2.46303
271, 2, bw, attraction, a-b-db, 2, 3, 8, 35, 120, 195, 195, 120, 119, 193, 2, 0.410888
271, 2, bw, attraction, a-b-db, 2, 2, 8, 36, 90, 165, 165, 90, 89, 163, 1, 3.12
271, 2, bw, attraction, a-b-db, 2, 2, 8, 36, 90, 165, 165, 90, 89, 163, 2, 0.505625
271, 2, bw, attraction, a-b-db, 2, 1, 8, 37, 60, 135, 59, 134, 135, 60, 2, 2.28341
271, 2, bw, attraction, a-b-db, 2, 1, 8, 37, 60, 135, 59, 134, 135, 60, 3, 0.558695
