sub_n, computer_n, bw_cond, effect, set, distance, diag, block_n, trial_n, h1, w1, h2, w2, h3, w3, choice, rt 
29, 2, bw, practice, NA, 999, 999, 0, 1, 115, 106, 121, 147, 63, 103, 2, 3.65895
29, 2, bw, practice, NA, 999, 999, 0, 1, 115, 106, 121, 147, 63, 103, 3, 2.9204
29, 2, bw, practice, NA, 999, 999, 0, 2, 116, 160, 162, 149, 193, 169, 3, 2.87027
29, 2, bw, practice, NA, 999, 999, 0, 2, 116, 160, 162, 149, 193, 169, 1, 2.60699
29, 2, bw, practice, NA, 999, 999, 0, 3, 78, 58, 75, 174, 127, 94, 2, 6.66447
29, 2, bw, practice, NA, 999, 999, 0, 3, 78, 58, 75, 174, 127, 94, 1, 2.45322
29, 2, bw, attraction, a-b-db, 2, 3, 1, 1, 119, 193, 195, 120, 120, 195, 3, 6.39612
29, 2, bw, attraction, a-b-db, 2, 3, 1, 1, 119, 193, 195, 120, 120, 195, 2, 2.55334
29, 2, bw, filler, NA, 999, 999, 1, 2, 90, 57, 128, 141, 58, 153, 2, 1.69663
29, 2, bw, filler, NA, 999, 999, 1, 2, 90, 57, 128, 141, 58, 153, 1, 1.29126
29, 2, bw, catch, NA, 999, 999, 1, 3, 135, 60, 133, 122, 166, 149, 3, 1.66086
29, 2, bw, catch, NA, 999, 999, 1, 3, 135, 60, 133, 122, 166, 149, 1, 1.20905
29, 2, bw, attraction, a-b-da, 2, 2, 1, 4, 90, 165, 163, 89, 165, 90, 1, 3.59787
29, 2, bw, attraction, a-b-da, 2, 2, 1, 4, 90, 165, 163, 89, 165, 90, 2, 1.22815
29, 2, bw, attraction, a-b-da, 14, 2, 1, 5, 90, 165, 165, 90, 153, 83, 1, 2.92038
29, 2, bw, attraction, a-b-da, 14, 2, 1, 5, 90, 165, 165, 90, 153, 83, 3, 1.25736
29, 2, bw, attraction, a-b-db, 2, 1, 1, 6, 59, 134, 60, 135, 135, 60, 2, 2.57222
29, 2, bw, attraction, a-b-db, 2, 1, 1, 6, 59, 134, 60, 135, 135, 60, 1, 3.30732
29, 2, bw, filler, NA, 999, 999, 1, 7, 96, 119, 86, 144, 126, 162, 3, 1.37954
29, 2, bw, filler, NA, 999, 999, 1, 7, 96, 119, 86, 144, 126, 162, 1, 1.39515
29, 2, bw, attraction, a-b-da, 2, 3, 1, 8, 193, 119, 120, 195, 195, 120, 2, 2.63259
29, 2, bw, attraction, a-b-da, 2, 3, 1, 8, 193, 119, 120, 195, 195, 120, 1, 1.35775
29, 2, bw, attraction, a-b-da, 14, 3, 1, 9, 120, 195, 181, 111, 195, 120, 1, 5.01262
29, 2, bw, attraction, a-b-da, 14, 3, 1, 9, 120, 195, 181, 111, 195, 120, 2, 0.769727
29, 2, bw, attraction, a-b-da, 2, 1, 1, 10, 135, 60, 60, 135, 134, 59, 2, 3.03284
29, 2, bw, attraction, a-b-da, 2, 1, 1, 10, 135, 60, 60, 135, 134, 59, 1, 2.54976
29, 2, bw, filler, NA, 999, 999, 1, 11, 118, 189, 187, 156, 192, 153, 2, 2.25289
29, 2, bw, filler, NA, 999, 999, 1, 11, 118, 189, 187, 156, 192, 153, 1, 1.80155
29, 2, bw, attraction, a-b-da, 9, 2, 1, 12, 165, 90, 157, 86, 90, 165, 1, 6.20689
29, 2, bw, attraction, a-b-da, 9, 2, 1, 12, 165, 90, 157, 86, 90, 165, 2, 3.69958
29, 2, bw, attraction, a-b-da, 9, 3, 1, 13, 195, 120, 120, 195, 186, 114, 2, 2.94845
29, 2, bw, attraction, a-b-da, 9, 3, 1, 13, 195, 120, 120, 195, 186, 114, 3, 1.02884
29, 2, bw, catch, NA, 999, 999, 1, 14, 120, 195, 92, 103, 150, 105, 1, 1.63305
29, 2, bw, catch, NA, 999, 999, 1, 14, 120, 195, 92, 103, 150, 105, 2, 1.07872
29, 2, bw, filler, NA, 999, 999, 1, 15, 112, 64, 167, 117, 151, 60, 2, 1.38488
29, 2, bw, filler, NA, 999, 999, 1, 15, 112, 64, 167, 117, 151, 60, 1, 0.816383
29, 2, bw, attraction, a-b-db, 5, 3, 1, 16, 120, 195, 195, 120, 117, 190, 1, 3.48532
29, 2, bw, attraction, a-b-db, 5, 3, 1, 16, 120, 195, 195, 120, 117, 190, 2, 1.00829
29, 2, bw, attraction, a-b-da, 5, 1, 1, 17, 132, 58, 60, 135, 135, 60, 2, 1.86912
29, 2, bw, attraction, a-b-da, 5, 1, 1, 17, 132, 58, 60, 135, 135, 60, 3, 0.841182
29, 2, bw, filler, NA, 999, 999, 1, 18, 146, 189, 121, 84, 84, 85, 1, 0.860827
29, 2, bw, filler, NA, 999, 999, 1, 18, 146, 189, 121, 84, 84, 85, 3, 0.737311
29, 2, bw, attraction, a-b-db, 5, 2, 1, 19, 90, 165, 88, 161, 165, 90, 1, 3.1937
29, 2, bw, attraction, a-b-db, 5, 2, 1, 19, 90, 165, 88, 161, 165, 90, 3, 1.79202
29, 2, bw, attraction, a-b-db, 5, 1, 1, 20, 58, 132, 135, 60, 60, 135, 3, 3.58941
29, 2, bw, attraction, a-b-db, 5, 1, 1, 20, 58, 132, 135, 60, 60, 135, 2, 3.57169
29, 2, bw, attraction, a-b-db, 14, 1, 1, 21, 60, 135, 56, 125, 135, 60, 1, 1.86573
29, 2, bw, attraction, a-b-db, 14, 1, 1, 21, 60, 135, 56, 125, 135, 60, 3, 1.21383
29, 2, bw, attraction, a-b-db, 9, 3, 1, 22, 195, 120, 114, 186, 120, 195, 2, 2.21085
29, 2, bw, attraction, a-b-db, 9, 3, 1, 22, 195, 120, 114, 186, 120, 195, 1, 0.840616
29, 2, bw, attraction, a-b-db, 14, 2, 1, 23, 90, 165, 165, 90, 83, 153, 1, 2.07627
29, 2, bw, attraction, a-b-db, 14, 2, 1, 23, 90, 165, 165, 90, 83, 153, 3, 0.743835
29, 2, bw, attraction, a-b-db, 9, 1, 1, 24, 60, 135, 57, 129, 135, 60, 1, 2.02332
29, 2, bw, attraction, a-b-db, 9, 1, 1, 24, 60, 135, 57, 129, 135, 60, 3, 0.724668
29, 2, bw, filler, NA, 999, 999, 1, 25, 146, 63, 151, 171, 128, 104, 2, 0.89309
29, 2, bw, filler, NA, 999, 999, 1, 25, 146, 63, 151, 171, 128, 104, 1, 0.840046
29, 2, bw, attraction, a-b-da, 9, 1, 1, 26, 135, 60, 129, 57, 60, 135, 3, 2.41189
29, 2, bw, attraction, a-b-da, 9, 1, 1, 26, 135, 60, 129, 57, 60, 135, 2, 1.16963
29, 2, bw, filler, NA, 999, 999, 1, 27, 180, 133, 175, 168, 96, 99, 2, 1.13659
29, 2, bw, filler, NA, 999, 999, 1, 27, 180, 133, 175, 168, 96, 99, 3, 1.16218
29, 2, bw, attraction, a-b-da, 5, 3, 1, 28, 190, 117, 120, 195, 195, 120, 2, 1.92123
29, 2, bw, attraction, a-b-da, 5, 3, 1, 28, 190, 117, 120, 195, 195, 120, 1, 0.866556
29, 2, bw, catch, NA, 999, 999, 1, 29, 133, 182, 106, 149, 68, 127, 1, 1.29341
29, 2, bw, catch, NA, 999, 999, 1, 29, 133, 182, 106, 149, 68, 127, 3, 0.680378
29, 2, bw, filler, NA, 999, 999, 1, 30, 63, 148, 147, 122, 67, 75, 2, 0.82676
29, 2, bw, filler, NA, 999, 999, 1, 30, 63, 148, 147, 122, 67, 75, 3, 0.960553
29, 2, bw, filler, NA, 999, 999, 1, 31, 158, 170, 95, 146, 142, 86, 1, 0.815346
29, 2, bw, filler, NA, 999, 999, 1, 31, 158, 170, 95, 146, 142, 86, 3, 0.61376
29, 2, bw, attraction, a-b-db, 9, 2, 1, 32, 90, 165, 86, 157, 165, 90, 1, 1.09881
29, 2, bw, attraction, a-b-db, 9, 2, 1, 32, 90, 165, 86, 157, 165, 90, 3, 0.58186
29, 2, bw, filler, NA, 999, 999, 1, 33, 57, 111, 177, 187, 113, 162, 2, 0.772218
29, 2, bw, filler, NA, 999, 999, 1, 33, 57, 111, 177, 187, 113, 162, 1, 1.18796
29, 2, bw, attraction, a-b-da, 5, 2, 1, 34, 165, 90, 161, 88, 90, 165, 1, 4.01824
29, 2, bw, attraction, a-b-da, 5, 2, 1, 34, 165, 90, 161, 88, 90, 165, 2, 2.29565
29, 2, bw, attraction, a-b-db, 2, 2, 1, 35, 89, 163, 90, 165, 165, 90, 2, 2.29695
29, 2, bw, attraction, a-b-db, 2, 2, 1, 35, 89, 163, 90, 165, 165, 90, 3, 1.40353
29, 2, bw, attraction, a-b-da, 14, 1, 1, 36, 125, 56, 135, 60, 60, 135, 2, 1.65695
29, 2, bw, attraction, a-b-da, 14, 1, 1, 36, 125, 56, 135, 60, 60, 135, 1, 1.04521
29, 2, bw, attraction, a-b-db, 14, 3, 1, 37, 120, 195, 195, 120, 111, 181, 1, 2.37678
29, 2, bw, attraction, a-b-db, 14, 3, 1, 37, 120, 195, 195, 120, 111, 181, 3, 2.68793
29, 2, bw, attraction, a-b-da, 5, 3, 2, 1, 195, 120, 120, 195, 190, 117, 2, 1.68963
29, 2, bw, attraction, a-b-da, 5, 3, 2, 1, 195, 120, 120, 195, 190, 117, 3, 0.548398
29, 2, bw, attraction, a-b-db, 5, 2, 2, 2, 88, 161, 165, 90, 90, 165, 3, 4.06831
29, 2, bw, attraction, a-b-db, 5, 2, 2, 2, 88, 161, 165, 90, 90, 165, 2, 1.07961
29, 2, bw, attraction, a-b-db, 9, 1, 2, 3, 57, 129, 60, 135, 135, 60, 2, 2.08189
29, 2, bw, attraction, a-b-db, 9, 1, 2, 3, 57, 129, 60, 135, 135, 60, 3, 0.773172
29, 2, bw, filler, NA, 999, 999, 2, 4, 75, 57, 96, 178, 83, 84, 2, 0.571552
29, 2, bw, filler, NA, 999, 999, 2, 4, 75, 57, 96, 178, 83, 84, 3, 0.787328
29, 2, bw, catch, NA, 999, 999, 2, 5, 95, 160, 80, 115, 147, 168, 3, 1.55374
29, 2, bw, catch, NA, 999, 999, 2, 5, 95, 160, 80, 115, 147, 168, 2, 0.746637
29, 2, bw, attraction, a-b-db, 14, 1, 2, 6, 135, 60, 56, 125, 60, 135, 2, 2.31429
29, 2, bw, attraction, a-b-db, 14, 1, 2, 6, 135, 60, 56, 125, 60, 135, 1, 0.524203
29, 2, bw, filler, NA, 999, 999, 2, 7, 151, 139, 70, 114, 164, 148, 3, 0.860627
29, 2, bw, filler, NA, 999, 999, 2, 7, 151, 139, 70, 114, 164, 148, 2, 0.737064
29, 2, bw, attraction, a-b-da, 2, 3, 2, 8, 193, 119, 120, 195, 195, 120, 2, 0.881351
29, 2, bw, attraction, a-b-da, 2, 3, 2, 8, 193, 119, 120, 195, 195, 120, 3, 1.58107
29, 2, bw, filler, NA, 999, 999, 2, 9, 78, 72, 67, 128, 150, 62, 2, 1.09119
29, 2, bw, filler, NA, 999, 999, 2, 9, 78, 72, 67, 128, 150, 62, 1, 1.14212
29, 2, bw, filler, NA, 999, 999, 2, 10, 81, 194, 141, 131, 63, 154, 2, 1.07775
29, 2, bw, filler, NA, 999, 999, 2, 10, 81, 194, 141, 131, 63, 154, 3, 0.801312
29, 2, bw, attraction, a-b-db, 14, 2, 2, 11, 83, 153, 90, 165, 165, 90, 2, 2.22311
29, 2, bw, attraction, a-b-db, 14, 2, 2, 11, 83, 153, 90, 165, 165, 90, 1, 1.16432
29, 2, bw, attraction, a-b-db, 5, 3, 2, 12, 195, 120, 120, 195, 117, 190, 2, 0.635201
29, 2, bw, attraction, a-b-db, 5, 3, 2, 12, 195, 120, 120, 195, 117, 190, 1, 0.945033
29, 2, bw, attraction, a-b-da, 9, 1, 2, 13, 135, 60, 60, 135, 129, 57, 2, 1.2326
29, 2, bw, attraction, a-b-da, 9, 1, 2, 13, 135, 60, 60, 135, 129, 57, 3, 0.630288
29, 2, bw, attraction, a-b-da, 14, 2, 2, 14, 90, 165, 165, 90, 153, 83, 1, 2.8346
29, 2, bw, attraction, a-b-da, 14, 2, 2, 14, 90, 165, 165, 90, 153, 83, 3, 0.815779
29, 2, bw, attraction, a-b-da, 5, 2, 2, 15, 161, 88, 90, 165, 165, 90, 2, 2.2208
29, 2, bw, attraction, a-b-da, 5, 2, 2, 15, 161, 88, 90, 165, 165, 90, 1, 1.16279
29, 2, bw, attraction, a-b-da, 14, 1, 2, 16, 60, 135, 135, 60, 125, 56, 1, 3.00956
29, 2, bw, attraction, a-b-da, 14, 1, 2, 16, 60, 135, 135, 60, 125, 56, 3, 1.27927
29, 2, bw, attraction, a-b-da, 2, 1, 2, 17, 60, 135, 135, 60, 134, 59, 2, 1.98567
29, 2, bw, attraction, a-b-da, 2, 1, 2, 17, 60, 135, 135, 60, 134, 59, 3, 0.712873
29, 2, bw, attraction, a-b-db, 9, 3, 2, 18, 114, 186, 120, 195, 195, 120, 2, 1.68992
29, 2, bw, attraction, a-b-db, 9, 3, 2, 18, 114, 186, 120, 195, 195, 120, 3, 4.38883
29, 2, bw, attraction, a-b-da, 14, 3, 2, 19, 195, 120, 181, 111, 120, 195, 3, 2.69797
29, 2, bw, attraction, a-b-da, 14, 3, 2, 19, 195, 120, 181, 111, 120, 195, 2, 0.868459
29, 2, bw, catch, NA, 999, 999, 2, 20, 114, 81, 94, 161, 181, 134, 3, 1.96739
29, 2, bw, catch, NA, 999, 999, 2, 20, 114, 81, 94, 161, 181, 134, 1, 1.35944
29, 2, bw, filler, NA, 999, 999, 2, 21, 78, 98, 63, 166, 89, 181, 3, 2.7103
29, 2, bw, filler, NA, 999, 999, 2, 21, 78, 98, 63, 166, 89, 181, 1, 0.768193
29, 2, bw, filler, NA, 999, 999, 2, 22, 120, 173, 57, 109, 129, 141, 1, 1.87113
29, 2, bw, filler, NA, 999, 999, 2, 22, 120, 173, 57, 109, 129, 141, 2, 0.690461
29, 2, bw, attraction, a-b-da, 9, 2, 2, 23, 90, 165, 157, 86, 165, 90, 1, 2.67623
29, 2, bw, attraction, a-b-da, 9, 2, 2, 23, 90, 165, 157, 86, 165, 90, 2, 0.583493
29, 2, bw, attraction, a-b-db, 2, 1, 2, 24, 59, 134, 135, 60, 60, 135, 3, 4.01383
29, 2, bw, attraction, a-b-db, 2, 1, 2, 24, 59, 134, 135, 60, 60, 135, 2, 0.883181
29, 2, bw, filler, NA, 999, 999, 2, 25, 108, 113, 169, 186, 109, 121, 2, 1.21346
29, 2, bw, filler, NA, 999, 999, 2, 25, 108, 113, 169, 186, 109, 121, 1, 0.899807
29, 2, bw, attraction, a-b-db, 5, 1, 2, 26, 135, 60, 60, 135, 58, 132, 2, 2.83737
29, 2, bw, attraction, a-b-db, 5, 1, 2, 26, 135, 60, 60, 135, 58, 132, 3, 2.80181
29, 2, bw, attraction, a-b-da, 9, 3, 2, 27, 186, 114, 120, 195, 195, 120, 2, 1.42289
29, 2, bw, attraction, a-b-da, 9, 3, 2, 27, 186, 114, 120, 195, 195, 120, 1, 2.75648
29, 2, bw, attraction, a-b-db, 2, 2, 2, 28, 165, 90, 90, 165, 89, 163, 2, 2.83553
29, 2, bw, attraction, a-b-db, 2, 2, 2, 28, 165, 90, 90, 165, 89, 163, 1, 0.656616
29, 2, bw, filler, NA, 999, 999, 2, 29, 81, 143, 60, 95, 144, 157, 3, 0.899704
29, 2, bw, filler, NA, 999, 999, 2, 29, 81, 143, 60, 95, 144, 157, 2, 1.59074
29, 2, bw, attraction, a-b-db, 2, 3, 2, 30, 195, 120, 120, 195, 119, 193, 2, 3.26032
29, 2, bw, attraction, a-b-db, 2, 3, 2, 30, 195, 120, 120, 195, 119, 193, 1, 0.823834
29, 2, bw, attraction, a-b-da, 2, 2, 2, 31, 90, 165, 163, 89, 165, 90, 2, 1.18821
29, 2, bw, attraction, a-b-da, 2, 2, 2, 31, 90, 165, 163, 89, 165, 90, 3, 3.49903
29, 2, bw, attraction, a-b-db, 14, 3, 2, 32, 120, 195, 195, 120, 111, 181, 1, 1.56397
29, 2, bw, attraction, a-b-db, 14, 3, 2, 32, 120, 195, 195, 120, 111, 181, 3, 1.36407
29, 2, bw, filler, NA, 999, 999, 2, 33, 89, 76, 113, 72, 193, 61, 3, 2.5229
29, 2, bw, filler, NA, 999, 999, 2, 33, 89, 76, 113, 72, 193, 61, 1, 1.02808
29, 2, bw, catch, NA, 999, 999, 2, 34, 126, 129, 174, 141, 85, 110, 2, 0.904365
29, 2, bw, catch, NA, 999, 999, 2, 34, 126, 129, 174, 141, 85, 110, 3, 1.33873
29, 2, bw, attraction, a-b-db, 9, 2, 2, 35, 86, 157, 90, 165, 165, 90, 2, 3.57092
29, 2, bw, attraction, a-b-db, 9, 2, 2, 35, 86, 157, 90, 165, 165, 90, 1, 0.601707
29, 2, bw, attraction, a-b-da, 5, 1, 2, 36, 135, 60, 132, 58, 60, 135, 3, 2.23161
29, 2, bw, attraction, a-b-da, 5, 1, 2, 36, 135, 60, 132, 58, 60, 135, 2, 0.71678
29, 2, bw, filler, NA, 999, 999, 2, 37, 149, 126, 162, 104, 99, 155, 1, 1.52582
29, 2, bw, filler, NA, 999, 999, 2, 37, 149, 126, 162, 104, 99, 155, 3, 5.64736
29, 2, bw, catch, NA, 999, 999, 3, 1, 74, 121, 175, 140, 161, 94, 2, 0.953508
29, 2, bw, catch, NA, 999, 999, 3, 1, 74, 121, 175, 140, 161, 94, 1, 0.818521
29, 2, bw, attraction, a-b-db, 2, 3, 3, 2, 120, 195, 195, 120, 119, 193, 1, 6.45554
29, 2, bw, attraction, a-b-db, 2, 3, 3, 2, 120, 195, 195, 120, 119, 193, 2, 0.986194
29, 2, bw, attraction, a-b-db, 2, 1, 3, 3, 135, 60, 59, 134, 60, 135, 2, 2.60858
29, 2, bw, attraction, a-b-db, 2, 1, 3, 3, 135, 60, 59, 134, 60, 135, 1, 1.31837
29, 2, bw, attraction, a-b-db, 9, 1, 3, 4, 135, 60, 60, 135, 57, 129, 1, 3.64711
29, 2, bw, attraction, a-b-db, 9, 1, 3, 4, 135, 60, 60, 135, 57, 129, 2, 3.14753
29, 2, bw, attraction, a-b-db, 9, 3, 3, 5, 120, 195, 114, 186, 195, 120, 2, 1.44224
29, 2, bw, attraction, a-b-db, 9, 3, 3, 5, 120, 195, 114, 186, 195, 120, 3, 0.751132
29, 2, bw, attraction, a-b-db, 14, 3, 3, 6, 120, 195, 111, 181, 195, 120, 2, 0.982842
29, 2, bw, attraction, a-b-db, 14, 3, 3, 6, 120, 195, 111, 181, 195, 120, 3, 0.574556
29, 2, bw, attraction, a-b-da, 5, 1, 3, 7, 132, 58, 135, 60, 60, 135, 3, 1.541
29, 2, bw, attraction, a-b-da, 5, 1, 3, 7, 132, 58, 135, 60, 60, 135, 2, 0.757805
29, 2, bw, attraction, a-b-da, 2, 3, 3, 8, 195, 120, 193, 119, 120, 195, 3, 2.16478
29, 2, bw, attraction, a-b-da, 2, 3, 3, 8, 195, 120, 193, 119, 120, 195, 2, 0.620709
29, 2, bw, filler, NA, 999, 999, 3, 9, 105, 109, 61, 96, 82, 166, 3, 2.49786
29, 2, bw, filler, NA, 999, 999, 3, 9, 105, 109, 61, 96, 82, 166, 2, 0.564355
29, 2, bw, attraction, a-b-db, 14, 1, 3, 10, 56, 125, 60, 135, 135, 60, 2, 3.24365
29, 2, bw, attraction, a-b-db, 14, 1, 3, 10, 56, 125, 60, 135, 135, 60, 1, 1.15975
29, 2, bw, attraction, a-b-db, 9, 2, 3, 11, 86, 157, 165, 90, 90, 165, 2, 3.3348
29, 2, bw, attraction, a-b-db, 9, 2, 3, 11, 86, 157, 165, 90, 90, 165, 1, 1.91153
29, 2, bw, attraction, a-b-da, 9, 3, 3, 12, 195, 120, 186, 114, 120, 195, 1, 4.91228
29, 2, bw, attraction, a-b-da, 9, 3, 3, 12, 195, 120, 186, 114, 120, 195, 2, 0.689415
29, 2, bw, attraction, a-b-db, 5, 1, 3, 13, 58, 132, 135, 60, 60, 135, 2, 4.69904
29, 2, bw, attraction, a-b-db, 5, 1, 3, 13, 58, 132, 135, 60, 60, 135, 1, 0.572947
29, 2, bw, filler, NA, 999, 999, 3, 14, 90, 146, 118, 108, 160, 130, 3, 1.08339
29, 2, bw, filler, NA, 999, 999, 3, 14, 90, 146, 118, 108, 160, 130, 2, 1.17504
29, 2, bw, attraction, a-b-db, 2, 2, 3, 15, 165, 90, 90, 165, 89, 163, 2, 1.50923
29, 2, bw, attraction, a-b-db, 2, 2, 3, 15, 165, 90, 90, 165, 89, 163, 3, 1.48742
29, 2, bw, attraction, a-b-da, 9, 1, 3, 16, 135, 60, 60, 135, 129, 57, 2, 1.33767
29, 2, bw, attraction, a-b-da, 9, 1, 3, 16, 135, 60, 60, 135, 129, 57, 1, 1.09842
29, 2, bw, attraction, a-b-da, 2, 1, 3, 17, 134, 59, 135, 60, 60, 135, 2, 4.52404
29, 2, bw, attraction, a-b-da, 2, 1, 3, 17, 134, 59, 135, 60, 60, 135, 1, 1.82864
29, 2, bw, attraction, a-b-da, 2, 2, 3, 18, 163, 89, 90, 165, 165, 90, 2, 4.71272
29, 2, bw, attraction, a-b-da, 2, 2, 3, 18, 163, 89, 90, 165, 165, 90, 1, 0.52181
29, 2, bw, catch, NA, 999, 999, 3, 19, 130, 65, 186, 129, 94, 161, 2, 1.475
29, 2, bw, catch, NA, 999, 999, 3, 19, 130, 65, 186, 129, 94, 161, 1, 0.966503
29, 2, bw, attraction, a-b-da, 14, 2, 3, 20, 90, 165, 153, 83, 165, 90, 1, 2.0614
29, 2, bw, attraction, a-b-da, 14, 2, 3, 20, 90, 165, 153, 83, 165, 90, 2, 1.68946
29, 2, bw, attraction, a-b-da, 14, 1, 3, 21, 60, 135, 135, 60, 125, 56, 1, 4.45969
29, 2, bw, attraction, a-b-da, 14, 1, 3, 21, 60, 135, 135, 60, 125, 56, 3, 1.61469
29, 2, bw, filler, NA, 999, 999, 3, 22, 132, 114, 80, 78, 163, 131, 3, 1.01951
29, 2, bw, filler, NA, 999, 999, 3, 22, 132, 114, 80, 78, 163, 131, 2, 0.769807
29, 2, bw, filler, NA, 999, 999, 3, 23, 182, 110, 143, 148, 79, 188, 2, 1.03286
29, 2, bw, filler, NA, 999, 999, 3, 23, 182, 110, 143, 148, 79, 188, 3, 1.88651
29, 2, bw, filler, NA, 999, 999, 3, 24, 93, 154, 165, 65, 68, 129, 1, 5.19263
29, 2, bw, filler, NA, 999, 999, 3, 24, 93, 154, 165, 65, 68, 129, 3, 0.638208
29, 2, bw, attraction, a-b-db, 5, 3, 3, 25, 195, 120, 120, 195, 117, 190, 2, 4.89058
29, 2, bw, attraction, a-b-db, 5, 3, 3, 25, 195, 120, 120, 195, 117, 190, 3, 2.32458
29, 2, bw, attraction, a-b-db, 14, 2, 3, 26, 165, 90, 90, 165, 83, 153, 2, 3.02031
29, 2, bw, attraction, a-b-db, 14, 2, 3, 26, 165, 90, 90, 165, 83, 153, 3, 0.898121
29, 2, bw, filler, NA, 999, 999, 3, 27, 139, 154, 75, 74, 77, 131, 1, 0.803769
29, 2, bw, filler, NA, 999, 999, 3, 27, 139, 154, 75, 74, 77, 131, 2, 1.59469
29, 2, bw, attraction, a-b-da, 9, 2, 3, 28, 157, 86, 165, 90, 90, 165, 2, 2.28024
29, 2, bw, attraction, a-b-da, 9, 2, 3, 28, 157, 86, 165, 90, 90, 165, 1, 0.539373
29, 2, bw, filler, NA, 999, 999, 3, 29, 174, 107, 169, 183, 147, 112, 2, 1.06789
29, 2, bw, filler, NA, 999, 999, 3, 29, 174, 107, 169, 183, 147, 112, 3, 1.85613
29, 2, bw, catch, NA, 999, 999, 3, 30, 129, 66, 192, 123, 100, 155, 2, 2.18765
29, 2, bw, catch, NA, 999, 999, 3, 30, 129, 66, 192, 123, 100, 155, 1, 0.546174
29, 2, bw, attraction, a-b-da, 5, 3, 3, 31, 195, 120, 120, 195, 190, 117, 2, 1.89787
29, 2, bw, attraction, a-b-da, 5, 3, 3, 31, 195, 120, 120, 195, 190, 117, 1, 0.884736
29, 2, bw, attraction, a-b-db, 5, 2, 3, 32, 90, 165, 88, 161, 165, 90, 2, 4.51099
29, 2, bw, attraction, a-b-db, 5, 2, 3, 32, 90, 165, 88, 161, 165, 90, 3, 2.90419
29, 2, bw, filler, NA, 999, 999, 3, 33, 111, 173, 56, 166, 67, 147, 1, 2.54525
29, 2, bw, filler, NA, 999, 999, 3, 33, 111, 173, 56, 166, 67, 147, 3, 1.76967
29, 2, bw, filler, NA, 999, 999, 3, 34, 127, 62, 119, 90, 153, 158, 3, 3.7045
29, 2, bw, filler, NA, 999, 999, 3, 34, 127, 62, 119, 90, 153, 158, 1, 0.818659
29, 2, bw, attraction, a-b-da, 14, 3, 3, 35, 181, 111, 120, 195, 195, 120, 2, 5.07168
29, 2, bw, attraction, a-b-da, 14, 3, 3, 35, 181, 111, 120, 195, 195, 120, 1, 1.92207
29, 2, bw, attraction, a-b-da, 5, 2, 3, 36, 165, 90, 90, 165, 161, 88, 2, 6.87479
29, 2, bw, attraction, a-b-da, 5, 2, 3, 36, 165, 90, 90, 165, 161, 88, 3, 1.34068
29, 2, bw, filler, NA, 999, 999, 3, 37, 159, 125, 70, 145, 189, 172, 3, 1.54008
29, 2, bw, filler, NA, 999, 999, 3, 37, 159, 125, 70, 145, 189, 172, 2, 1.64494
29, 2, bw, filler, NA, 999, 999, 4, 1, 169, 132, 176, 75, 74, 97, 1, 1.0883
29, 2, bw, filler, NA, 999, 999, 4, 1, 169, 132, 176, 75, 74, 97, 3, 0.755303
29, 2, bw, catch, NA, 999, 999, 4, 2, 85, 110, 140, 175, 128, 127, 2, 1.26696
29, 2, bw, catch, NA, 999, 999, 4, 2, 85, 110, 140, 175, 128, 127, 1, 1.47919
29, 2, bw, attraction, a-b-da, 5, 3, 4, 3, 120, 195, 190, 117, 195, 120, 1, 2.12928
29, 2, bw, attraction, a-b-da, 5, 3, 4, 3, 120, 195, 190, 117, 195, 120, 2, 1.85061
29, 2, bw, filler, NA, 999, 999, 4, 4, 107, 119, 168, 61, 62, 106, 2, 5.65426
29, 2, bw, filler, NA, 999, 999, 4, 4, 107, 119, 168, 61, 62, 106, 3, 1.05761
29, 2, bw, attraction, a-b-db, 2, 2, 4, 5, 165, 90, 90, 165, 89, 163, 2, 1.94851
29, 2, bw, attraction, a-b-db, 2, 2, 4, 5, 165, 90, 90, 165, 89, 163, 3, 0.661181
29, 2, bw, filler, NA, 999, 999, 4, 6, 107, 77, 84, 130, 187, 189, 3, 0.816254
29, 2, bw, filler, NA, 999, 999, 4, 6, 107, 77, 84, 130, 187, 189, 1, 0.934827
29, 2, bw, attraction, a-b-db, 9, 1, 4, 7, 57, 129, 60, 135, 135, 60, 2, 1.27896
29, 2, bw, attraction, a-b-db, 9, 1, 4, 7, 57, 129, 60, 135, 135, 60, 3, 1.2266
29, 2, bw, attraction, a-b-da, 5, 2, 4, 8, 165, 90, 90, 165, 161, 88, 2, 6.43083
29, 2, bw, attraction, a-b-da, 5, 2, 4, 8, 165, 90, 90, 165, 161, 88, 3, 0.57076
29, 2, bw, catch, NA, 999, 999, 4, 9, 69, 126, 148, 167, 161, 94, 2, 0.874012
29, 2, bw, catch, NA, 999, 999, 4, 9, 69, 126, 148, 167, 161, 94, 1, 0.485539
29, 2, bw, filler, NA, 999, 999, 4, 10, 99, 183, 84, 193, 185, 63, 1, 2.71207
29, 2, bw, filler, NA, 999, 999, 4, 10, 99, 183, 84, 193, 185, 63, 3, 1.08979
29, 2, bw, filler, NA, 999, 999, 4, 11, 178, 84, 116, 102, 84, 83, 1, 1.96343
29, 2, bw, filler, NA, 999, 999, 4, 11, 178, 84, 116, 102, 84, 83, 3, 0.699507
29, 2, bw, filler, NA, 999, 999, 4, 12, 97, 195, 80, 157, 182, 94, 1, 2.42117
29, 2, bw, filler, NA, 999, 999, 4, 12, 97, 195, 80, 157, 182, 94, 2, 0.810386
29, 2, bw, filler, NA, 999, 999, 4, 13, 80, 172, 160, 144, 189, 155, 3, 1.87941
29, 2, bw, filler, NA, 999, 999, 4, 13, 80, 172, 160, 144, 189, 155, 1, 0.546781
29, 2, bw, attraction, a-b-db, 14, 3, 4, 14, 111, 181, 120, 195, 195, 120, 2, 3.78655
29, 2, bw, attraction, a-b-db, 14, 3, 4, 14, 111, 181, 120, 195, 195, 120, 1, 0.7614
29, 2, bw, attraction, a-b-da, 9, 2, 4, 15, 165, 90, 90, 165, 157, 86, 2, 3.43241
29, 2, bw, attraction, a-b-da, 9, 2, 4, 15, 165, 90, 90, 165, 157, 86, 1, 1.46127
29, 2, bw, attraction, a-b-da, 9, 3, 4, 16, 195, 120, 186, 114, 120, 195, 3, 2.41616
29, 2, bw, attraction, a-b-da, 9, 3, 4, 16, 195, 120, 186, 114, 120, 195, 2, 0.670033
29, 2, bw, attraction, a-b-da, 2, 1, 4, 17, 135, 60, 60, 135, 134, 59, 2, 1.26499
29, 2, bw, attraction, a-b-da, 2, 1, 4, 17, 135, 60, 60, 135, 134, 59, 3, 1.56539
29, 2, bw, filler, NA, 999, 999, 4, 18, 102, 58, 61, 117, 62, 74, 2, 1.05216
29, 2, bw, filler, NA, 999, 999, 4, 18, 102, 58, 61, 117, 62, 74, 3, 1.8411
29, 2, bw, attraction, a-b-db, 2, 3, 4, 19, 119, 193, 120, 195, 195, 120, 3, 8.55636
29, 2, bw, attraction, a-b-db, 2, 3, 4, 19, 119, 193, 120, 195, 195, 120, 2, 1.09834
29, 2, bw, catch, NA, 999, 999, 4, 20, 158, 97, 180, 135, 78, 117, 2, 1.07605
29, 2, bw, catch, NA, 999, 999, 4, 20, 158, 97, 180, 135, 78, 117, 3, 0.863565
29, 2, bw, attraction, a-b-db, 14, 2, 4, 21, 90, 165, 83, 153, 165, 90, 1, 1.27453
29, 2, bw, attraction, a-b-db, 14, 2, 4, 21, 90, 165, 83, 153, 165, 90, 2, 1.89426
29, 2, bw, attraction, a-b-db, 9, 3, 4, 22, 195, 120, 120, 195, 114, 186, 1, 1.67961
29, 2, bw, attraction, a-b-db, 9, 3, 4, 22, 195, 120, 120, 195, 114, 186, 2, 1.947
29, 2, bw, attraction, a-b-db, 14, 1, 4, 23, 60, 135, 135, 60, 56, 125, 1, 2.62635
29, 2, bw, attraction, a-b-db, 14, 1, 4, 23, 60, 135, 135, 60, 56, 125, 3, 1.73551
29, 2, bw, attraction, a-b-db, 2, 1, 4, 24, 60, 135, 59, 134, 135, 60, 2, 3.67167
29, 2, bw, attraction, a-b-db, 2, 1, 4, 24, 60, 135, 59, 134, 135, 60, 3, 0.818361
29, 2, bw, attraction, a-b-db, 5, 1, 4, 25, 60, 135, 135, 60, 58, 132, 2, 4.9275
29, 2, bw, attraction, a-b-db, 5, 1, 4, 25, 60, 135, 135, 60, 58, 132, 3, 0.767873
29, 2, bw, attraction, a-b-db, 5, 3, 4, 26, 120, 195, 117, 190, 195, 120, 2, 2.9589
29, 2, bw, attraction, a-b-db, 5, 3, 4, 26, 120, 195, 117, 190, 195, 120, 3, 1.61454
29, 2, bw, attraction, a-b-da, 14, 3, 4, 27, 195, 120, 181, 111, 120, 195, 1, 2.17136
29, 2, bw, attraction, a-b-da, 14, 3, 4, 27, 195, 120, 181, 111, 120, 195, 3, 1.50728
29, 2, bw, attraction, a-b-da, 9, 1, 4, 28, 135, 60, 129, 57, 60, 135, 3, 4.67611
29, 2, bw, attraction, a-b-da, 9, 1, 4, 28, 135, 60, 129, 57, 60, 135, 2, 0.822601
29, 2, bw, filler, NA, 999, 999, 4, 29, 92, 64, 77, 86, 127, 102, 3, 1.38766
29, 2, bw, filler, NA, 999, 999, 4, 29, 92, 64, 77, 86, 127, 102, 1, 2.18652
29, 2, bw, attraction, a-b-da, 5, 1, 4, 30, 135, 60, 60, 135, 132, 58, 2, 2.45636
29, 2, bw, attraction, a-b-da, 5, 1, 4, 30, 135, 60, 60, 135, 132, 58, 3, 0.932242
29, 2, bw, attraction, a-b-db, 9, 2, 4, 31, 90, 165, 86, 157, 165, 90, 1, 3.66071
29, 2, bw, attraction, a-b-db, 9, 2, 4, 31, 90, 165, 86, 157, 165, 90, 3, 0.808127
29, 2, bw, attraction, a-b-da, 2, 2, 4, 32, 165, 90, 90, 165, 163, 89, 2, 1.35712
29, 2, bw, attraction, a-b-da, 2, 2, 4, 32, 165, 90, 90, 165, 163, 89, 3, 0.5893
29, 2, bw, attraction, a-b-da, 14, 2, 4, 33, 90, 165, 165, 90, 153, 83, 1, 2.45108
29, 2, bw, attraction, a-b-da, 14, 2, 4, 33, 90, 165, 165, 90, 153, 83, 2, 1.26365
29, 2, bw, filler, NA, 999, 999, 4, 34, 78, 195, 125, 98, 113, 101, 1, 2.5465
29, 2, bw, filler, NA, 999, 999, 4, 34, 78, 195, 125, 98, 113, 101, 2, 0.69898
29, 2, bw, attraction, a-b-db, 5, 2, 4, 35, 90, 165, 165, 90, 88, 161, 3, 1.66883
29, 2, bw, attraction, a-b-db, 5, 2, 4, 35, 90, 165, 165, 90, 88, 161, 2, 1.09685
29, 2, bw, attraction, a-b-da, 2, 3, 4, 36, 195, 120, 120, 195, 193, 119, 2, 1.21847
29, 2, bw, attraction, a-b-da, 2, 3, 4, 36, 195, 120, 120, 195, 193, 119, 3, 1.60072
29, 2, bw, attraction, a-b-da, 14, 1, 4, 37, 135, 60, 60, 135, 125, 56, 2, 0.926149
29, 2, bw, attraction, a-b-da, 14, 1, 4, 37, 135, 60, 60, 135, 125, 56, 3, 0.935789
29, 2, bw, attraction, a-b-da, 14, 1, 5, 1, 60, 135, 125, 56, 135, 60, 1, 3.01488
29, 2, bw, attraction, a-b-da, 14, 1, 5, 1, 60, 135, 125, 56, 135, 60, 2, 1.22872
29, 2, bw, filler, NA, 999, 999, 5, 2, 65, 119, 67, 104, 188, 150, 3, 0.688641
29, 2, bw, filler, NA, 999, 999, 5, 2, 65, 119, 67, 104, 188, 150, 2, 1.19586
29, 2, bw, filler, NA, 999, 999, 5, 3, 123, 144, 157, 183, 87, 144, 2, 1.02534
29, 2, bw, filler, NA, 999, 999, 5, 3, 123, 144, 157, 183, 87, 144, 3, 0.735018
29, 2, bw, catch, NA, 999, 999, 5, 4, 147, 168, 114, 81, 107, 148, 1, 0.815495
29, 2, bw, catch, NA, 999, 999, 5, 4, 147, 168, 114, 81, 107, 148, 2, 0.493722
29, 2, bw, attraction, a-b-db, 5, 1, 5, 5, 135, 60, 58, 132, 60, 135, 2, 1.75159
29, 2, bw, attraction, a-b-db, 5, 1, 5, 5, 135, 60, 58, 132, 60, 135, 1, 1.96834
29, 2, bw, filler, NA, 999, 999, 5, 6, 93, 162, 145, 177, 103, 144, 2, 0.903153
29, 2, bw, filler, NA, 999, 999, 5, 6, 93, 162, 145, 177, 103, 144, 3, 0.833315
29, 2, bw, attraction, a-b-db, 14, 1, 5, 7, 56, 125, 60, 135, 135, 60, 2, 1.46176
29, 2, bw, attraction, a-b-db, 14, 1, 5, 7, 56, 125, 60, 135, 135, 60, 1, 0.545857
29, 2, bw, catch, NA, 999, 999, 5, 8, 163, 152, 86, 109, 106, 149, 1, 0.985648
29, 2, bw, catch, NA, 999, 999, 5, 8, 163, 152, 86, 109, 106, 149, 2, 0.433309
29, 2, bw, attraction, a-b-da, 14, 3, 5, 9, 120, 195, 181, 111, 195, 120, 1, 2.30183
29, 2, bw, attraction, a-b-da, 14, 3, 5, 9, 120, 195, 181, 111, 195, 120, 2, 0.552401
29, 2, bw, attraction, a-b-da, 5, 3, 5, 10, 195, 120, 120, 195, 190, 117, 2, 1.90414
29, 2, bw, attraction, a-b-da, 5, 3, 5, 10, 195, 120, 120, 195, 190, 117, 3, 0.506227
29, 2, bw, attraction, a-b-db, 9, 3, 5, 11, 195, 120, 120, 195, 114, 186, 2, 2.17933
29, 2, bw, attraction, a-b-db, 9, 3, 5, 11, 195, 120, 120, 195, 114, 186, 3, 0.698518
29, 2, bw, filler, NA, 999, 999, 5, 12, 133, 64, 170, 194, 123, 117, 2, 0.980263
29, 2, bw, filler, NA, 999, 999, 5, 12, 133, 64, 170, 194, 123, 117, 1, 0.86803
29, 2, bw, attraction, a-b-da, 5, 2, 5, 13, 90, 165, 161, 88, 165, 90, 1, 1.91903
29, 2, bw, attraction, a-b-da, 5, 2, 5, 13, 90, 165, 161, 88, 165, 90, 2, 0.657027
29, 2, bw, attraction, a-b-da, 14, 2, 5, 14, 90, 165, 153, 83, 165, 90, 1, 1.81216
29, 2, bw, attraction, a-b-da, 14, 2, 5, 14, 90, 165, 153, 83, 165, 90, 2, 0.45819
29, 2, bw, attraction, a-b-db, 5, 2, 5, 15, 90, 165, 88, 161, 165, 90, 2, 0.97321
29, 2, bw, attraction, a-b-db, 5, 2, 5, 15, 90, 165, 88, 161, 165, 90, 3, 0.845076
29, 2, bw, attraction, a-b-da, 9, 3, 5, 16, 120, 195, 195, 120, 186, 114, 1, 1.24865
29, 2, bw, attraction, a-b-da, 9, 3, 5, 16, 120, 195, 195, 120, 186, 114, 2, 0.693679
29, 2, bw, attraction, a-b-db, 14, 3, 5, 17, 195, 120, 111, 181, 120, 195, 2, 1.72738
29, 2, bw, attraction, a-b-db, 14, 3, 5, 17, 195, 120, 111, 181, 120, 195, 1, 0.808845
29, 2, bw, filler, NA, 999, 999, 5, 18, 80, 154, 161, 113, 78, 58, 2, 0.645829
29, 2, bw, filler, NA, 999, 999, 5, 18, 80, 154, 161, 113, 78, 58, 3, 1.75488
29, 2, bw, attraction, a-b-db, 9, 2, 5, 19, 90, 165, 86, 157, 165, 90, 2, 2.20235
29, 2, bw, attraction, a-b-db, 9, 2, 5, 19, 90, 165, 86, 157, 165, 90, 3, 1.52099
29, 2, bw, attraction, a-b-db, 5, 3, 5, 20, 120, 195, 195, 120, 117, 190, 1, 2.85775
29, 2, bw, attraction, a-b-db, 5, 3, 5, 20, 120, 195, 195, 120, 117, 190, 2, 0.677426
29, 2, bw, attraction, a-b-db, 2, 1, 5, 21, 59, 134, 135, 60, 60, 135, 3, 2.0319
29, 2, bw, attraction, a-b-db, 2, 1, 5, 21, 59, 134, 135, 60, 60, 135, 2, 0.853135
29, 2, bw, attraction, a-b-db, 2, 3, 5, 22, 195, 120, 119, 193, 120, 195, 2, 2.03291
29, 2, bw, attraction, a-b-db, 2, 3, 5, 22, 195, 120, 119, 193, 120, 195, 1, 0.7182
29, 2, bw, attraction, a-b-db, 14, 2, 5, 23, 165, 90, 83, 153, 90, 165, 1, 4.15923
29, 2, bw, attraction, a-b-db, 14, 2, 5, 23, 165, 90, 83, 153, 90, 165, 2, 0.406669
29, 2, bw, attraction, a-b-db, 2, 2, 5, 24, 90, 165, 89, 163, 165, 90, 1, 1.79584
29, 2, bw, attraction, a-b-db, 2, 2, 5, 24, 90, 165, 89, 163, 165, 90, 3, 0.666392
29, 2, bw, filler, NA, 999, 999, 5, 25, 179, 149, 138, 139, 93, 65, 1, 0.797548
29, 2, bw, filler, NA, 999, 999, 5, 25, 179, 149, 138, 139, 93, 65, 2, 0.348589
29, 2, bw, filler, NA, 999, 999, 5, 26, 119, 182, 113, 155, 184, 60, 1, 1.66837
29, 2, bw, filler, NA, 999, 999, 5, 26, 119, 182, 113, 155, 184, 60, 3, 0.752483
29, 2, bw, attraction, a-b-da, 2, 2, 5, 27, 90, 165, 163, 89, 165, 90, 1, 2.88024
29, 2, bw, attraction, a-b-da, 2, 2, 5, 27, 90, 165, 163, 89, 165, 90, 3, 0.723298
29, 2, bw, filler, NA, 999, 999, 5, 28, 79, 69, 92, 186, 149, 117, 3, 2.14772
29, 2, bw, filler, NA, 999, 999, 5, 28, 79, 69, 92, 186, 149, 117, 2, 0.436311
29, 2, bw, attraction, a-b-da, 2, 1, 5, 29, 60, 135, 135, 60, 134, 59, 1, 1.12084
29, 2, bw, attraction, a-b-da, 2, 1, 5, 29, 60, 135, 135, 60, 134, 59, 2, 1.08247
29, 2, bw, attraction, a-b-da, 9, 1, 5, 30, 135, 60, 60, 135, 129, 57, 1, 3.2287
29, 2, bw, attraction, a-b-da, 9, 1, 5, 30, 135, 60, 60, 135, 129, 57, 2, 0.585652
29, 2, bw, attraction, a-b-da, 9, 2, 5, 31, 165, 90, 90, 165, 157, 86, 2, 3.88825
29, 2, bw, attraction, a-b-da, 9, 2, 5, 31, 165, 90, 90, 165, 157, 86, 3, 1.51422
29, 2, bw, filler, NA, 999, 999, 5, 32, 148, 64, 101, 136, 194, 131, 3, 1.51503
29, 2, bw, filler, NA, 999, 999, 5, 32, 148, 64, 101, 136, 194, 131, 1, 0.845183
29, 2, bw, attraction, a-b-da, 2, 3, 5, 33, 120, 195, 193, 119, 195, 120, 1, 2.94475
29, 2, bw, attraction, a-b-da, 2, 3, 5, 33, 120, 195, 193, 119, 195, 120, 3, 0.601146
29, 2, bw, attraction, a-b-db, 9, 1, 5, 34, 57, 129, 60, 135, 135, 60, 2, 6.33495
29, 2, bw, attraction, a-b-db, 9, 1, 5, 34, 57, 129, 60, 135, 135, 60, 1, 0.742884
29, 2, bw, catch, NA, 999, 999, 5, 35, 103, 152, 125, 70, 195, 120, 3, 1.4788
29, 2, bw, catch, NA, 999, 999, 5, 35, 103, 152, 125, 70, 195, 120, 2, 0.394189
29, 2, bw, filler, NA, 999, 999, 5, 36, 138, 77, 172, 70, 167, 183, 3, 0.911965
29, 2, bw, filler, NA, 999, 999, 5, 36, 138, 77, 172, 70, 167, 183, 1, 2.45034
29, 2, bw, attraction, a-b-da, 5, 1, 5, 37, 60, 135, 132, 58, 135, 60, 1, 4.0856
29, 2, bw, attraction, a-b-da, 5, 1, 5, 37, 60, 135, 132, 58, 135, 60, 3, 0.952354
29, 2, bw, attraction, a-b-db, 2, 1, 6, 1, 135, 60, 59, 134, 60, 135, 2, 4.12787
29, 2, bw, attraction, a-b-db, 2, 1, 6, 1, 135, 60, 59, 134, 60, 135, 1, 2.42468
29, 2, bw, filler, NA, 999, 999, 6, 2, 87, 63, 108, 61, 146, 160, 3, 0.676502
29, 2, bw, filler, NA, 999, 999, 6, 2, 87, 63, 108, 61, 146, 160, 2, 0.520076
29, 2, bw, attraction, a-b-db, 2, 3, 6, 3, 195, 120, 119, 193, 120, 195, 2, 3.90524
29, 2, bw, attraction, a-b-db, 2, 3, 6, 3, 195, 120, 119, 193, 120, 195, 3, 0.499371
29, 2, bw, attraction, a-b-da, 9, 2, 6, 4, 90, 165, 157, 86, 165, 90, 1, 2.26909
29, 2, bw, attraction, a-b-da, 9, 2, 6, 4, 90, 165, 157, 86, 165, 90, 2, 0.505145
29, 2, bw, attraction, a-b-da, 14, 1, 6, 5, 135, 60, 125, 56, 60, 135, 1, 3.43493
29, 2, bw, attraction, a-b-da, 14, 1, 6, 5, 135, 60, 125, 56, 60, 135, 3, 0.663755
29, 2, bw, filler, NA, 999, 999, 6, 6, 111, 141, 58, 93, 77, 67, 1, 0.778751
29, 2, bw, filler, NA, 999, 999, 6, 6, 111, 141, 58, 93, 77, 67, 2, 0.898491
29, 2, bw, catch, NA, 999, 999, 6, 7, 146, 109, 164, 151, 112, 83, 2, 0.964187
29, 2, bw, catch, NA, 999, 999, 6, 7, 146, 109, 164, 151, 112, 83, 3, 0.532519
29, 2, bw, catch, NA, 999, 999, 6, 8, 166, 149, 111, 144, 108, 87, 1, 1.18903
29, 2, bw, catch, NA, 999, 999, 6, 8, 166, 149, 111, 144, 108, 87, 3, 0.628004
29, 2, bw, attraction, a-b-da, 2, 1, 6, 9, 134, 59, 60, 135, 135, 60, 2, 1.13639
29, 2, bw, attraction, a-b-da, 2, 1, 6, 9, 134, 59, 60, 135, 135, 60, 3, 0.810002
29, 2, bw, attraction, a-b-da, 5, 3, 6, 10, 190, 117, 195, 120, 120, 195, 1, 4.65515
29, 2, bw, attraction, a-b-da, 5, 3, 6, 10, 190, 117, 195, 120, 120, 195, 3, 0.538244
29, 2, bw, attraction, a-b-db, 2, 2, 6, 11, 165, 90, 90, 165, 89, 163, 2, 4.52262
29, 2, bw, attraction, a-b-db, 2, 2, 6, 11, 165, 90, 90, 165, 89, 163, 3, 0.547176
29, 2, bw, attraction, a-b-da, 14, 2, 6, 12, 165, 90, 153, 83, 90, 165, 1, 1.08303
29, 2, bw, attraction, a-b-da, 14, 2, 6, 12, 165, 90, 153, 83, 90, 165, 2, 1.99068
29, 2, bw, attraction, a-b-db, 5, 3, 6, 13, 117, 190, 195, 120, 120, 195, 3, 2.34785
29, 2, bw, attraction, a-b-db, 5, 3, 6, 13, 117, 190, 195, 120, 120, 195, 2, 0.452503
29, 2, bw, attraction, a-b-db, 9, 1, 6, 14, 57, 129, 60, 135, 135, 60, 3, 6.76827
29, 2, bw, attraction, a-b-db, 9, 1, 6, 14, 57, 129, 60, 135, 135, 60, 1, 0.502804
29, 2, bw, filler, NA, 999, 999, 6, 15, 173, 135, 195, 72, 115, 185, 3, 3.63251
29, 2, bw, filler, NA, 999, 999, 6, 15, 173, 135, 195, 72, 115, 185, 1, 2.82945
29, 2, bw, attraction, a-b-db, 9, 3, 6, 16, 195, 120, 120, 195, 114, 186, 2, 3.52912
29, 2, bw, attraction, a-b-db, 9, 3, 6, 16, 195, 120, 120, 195, 114, 186, 1, 0.441978
29, 2, bw, attraction, a-b-db, 9, 2, 6, 17, 165, 90, 86, 157, 90, 165, 1, 2.20579
29, 2, bw, attraction, a-b-db, 9, 2, 6, 17, 165, 90, 86, 157, 90, 165, 3, 0.779733
29, 2, bw, filler, NA, 999, 999, 6, 18, 167, 163, 72, 113, 97, 156, 1, 0.882099
29, 2, bw, filler, NA, 999, 999, 6, 18, 167, 163, 72, 113, 97, 156, 2, 0.885762
29, 2, bw, attraction, a-b-da, 5, 1, 6, 19, 60, 135, 132, 58, 135, 60, 2, 2.84008
29, 2, bw, attraction, a-b-da, 5, 1, 6, 19, 60, 135, 132, 58, 135, 60, 1, 0.60462
29, 2, bw, attraction, a-b-da, 9, 3, 6, 20, 186, 114, 120, 195, 195, 120, 2, 1.06639
29, 2, bw, attraction, a-b-da, 9, 3, 6, 20, 186, 114, 120, 195, 195, 120, 1, 0.622697
29, 2, bw, attraction, a-b-da, 14, 3, 6, 21, 120, 195, 181, 111, 195, 120, 3, 3.27509
29, 2, bw, attraction, a-b-da, 14, 3, 6, 21, 120, 195, 181, 111, 195, 120, 2, 0.478006
29, 2, bw, attraction, a-b-db, 14, 3, 6, 22, 111, 181, 195, 120, 120, 195, 3, 0.936504
29, 2, bw, attraction, a-b-db, 14, 3, 6, 22, 111, 181, 195, 120, 120, 195, 2, 0.578151
29, 2, bw, catch, NA, 999, 999, 6, 23, 121, 74, 141, 174, 129, 126, 2, 0.944535
29, 2, bw, catch, NA, 999, 999, 6, 23, 121, 74, 141, 174, 129, 126, 3, 0.505574
29, 2, bw, attraction, a-b-da, 2, 3, 6, 24, 195, 120, 193, 119, 120, 195, 3, 5.66748
29, 2, bw, attraction, a-b-da, 2, 3, 6, 24, 195, 120, 193, 119, 120, 195, 2, 0.398289
29, 2, bw, attraction, a-b-db, 14, 2, 6, 25, 90, 165, 165, 90, 83, 153, 1, 2.38814
29, 2, bw, attraction, a-b-db, 14, 2, 6, 25, 90, 165, 165, 90, 83, 153, 3, 0.658583
29, 2, bw, filler, NA, 999, 999, 6, 26, 175, 184, 70, 56, 129, 166, 1, 1.03767
29, 2, bw, filler, NA, 999, 999, 6, 26, 175, 184, 70, 56, 129, 166, 2, 0.602663
29, 2, bw, attraction, a-b-da, 5, 2, 6, 27, 90, 165, 165, 90, 161, 88, 1, 4.20046
29, 2, bw, attraction, a-b-da, 5, 2, 6, 27, 90, 165, 165, 90, 161, 88, 3, 1.04635
29, 2, bw, filler, NA, 999, 999, 6, 28, 72, 76, 178, 160, 143, 192, 2, 1.85003
29, 2, bw, filler, NA, 999, 999, 6, 28, 72, 76, 178, 160, 143, 192, 1, 0.806748
29, 2, bw, attraction, a-b-db, 14, 1, 6, 29, 56, 125, 60, 135, 135, 60, 2, 4.01976
29, 2, bw, attraction, a-b-db, 14, 1, 6, 29, 56, 125, 60, 135, 135, 60, 3, 0.649114
29, 2, bw, attraction, a-b-da, 2, 2, 6, 30, 90, 165, 165, 90, 163, 89, 2, 6.30895
29, 2, bw, attraction, a-b-da, 2, 2, 6, 30, 90, 165, 165, 90, 163, 89, 1, 0.717521
29, 2, bw, filler, NA, 999, 999, 6, 31, 171, 172, 144, 143, 180, 185, 3, 0.814639
29, 2, bw, filler, NA, 999, 999, 6, 31, 171, 172, 144, 143, 180, 185, 2, 0.429016
29, 2, bw, filler, NA, 999, 999, 6, 32, 146, 158, 86, 154, 88, 72, 1, 0.761489
29, 2, bw, filler, NA, 999, 999, 6, 32, 146, 158, 86, 154, 88, 72, 3, 0.569859
29, 2, bw, attraction, a-b-db, 5, 1, 6, 33, 58, 132, 135, 60, 60, 135, 2, 1.6969
29, 2, bw, attraction, a-b-db, 5, 1, 6, 33, 58, 132, 135, 60, 60, 135, 1, 0.587789
29, 2, bw, filler, NA, 999, 999, 6, 34, 64, 193, 105, 64, 125, 120, 3, 0.818187
29, 2, bw, filler, NA, 999, 999, 6, 34, 64, 193, 105, 64, 125, 120, 2, 0.568653
29, 2, bw, filler, NA, 999, 999, 6, 35, 76, 138, 150, 184, 73, 170, 2, 0.831673
29, 2, bw, filler, NA, 999, 999, 6, 35, 76, 138, 150, 184, 73, 170, 1, 0.437354
29, 2, bw, attraction, a-b-da, 9, 1, 6, 36, 129, 57, 135, 60, 60, 135, 3, 2.9538
29, 2, bw, attraction, a-b-da, 9, 1, 6, 36, 129, 57, 135, 60, 60, 135, 1, 0.882202
29, 2, bw, attraction, a-b-db, 5, 2, 6, 37, 165, 90, 90, 165, 88, 161, 2, 1.53253
29, 2, bw, attraction, a-b-db, 5, 2, 6, 37, 165, 90, 90, 165, 88, 161, 3, 1.07827
29, 2, bw, attraction, a-b-db, 14, 3, 7, 1, 111, 181, 195, 120, 120, 195, 2, 4.33633
29, 2, bw, attraction, a-b-db, 14, 3, 7, 1, 111, 181, 195, 120, 120, 195, 1, 1.24091
29, 2, bw, attraction, a-b-db, 9, 1, 7, 2, 57, 129, 60, 135, 135, 60, 2, 2.1805
29, 2, bw, attraction, a-b-db, 9, 1, 7, 2, 57, 129, 60, 135, 135, 60, 1, 1.45189
29, 2, bw, attraction, a-b-db, 9, 2, 7, 3, 165, 90, 90, 165, 86, 157, 2, 5.55126
29, 2, bw, attraction, a-b-db, 9, 2, 7, 3, 165, 90, 90, 165, 86, 157, 1, 0.766804
29, 2, bw, catch, NA, 999, 999, 7, 4, 151, 104, 170, 145, 124, 71, 2, 0.869828
29, 2, bw, catch, NA, 999, 999, 7, 4, 151, 104, 170, 145, 124, 71, 3, 1.42555
29, 2, bw, attraction, a-b-db, 9, 3, 7, 5, 120, 195, 195, 120, 114, 186, 1, 3.64582
29, 2, bw, attraction, a-b-db, 9, 3, 7, 5, 120, 195, 195, 120, 114, 186, 2, 0.513972
29, 2, bw, attraction, a-b-db, 2, 3, 7, 6, 195, 120, 119, 193, 120, 195, 2, 2.09908
29, 2, bw, attraction, a-b-db, 2, 3, 7, 6, 195, 120, 119, 193, 120, 195, 1, 0.60567
29, 2, bw, filler, NA, 999, 999, 7, 7, 174, 79, 187, 99, 62, 81, 2, 0.931405
29, 2, bw, filler, NA, 999, 999, 7, 7, 174, 79, 187, 99, 62, 81, 3, 1.02216
29, 2, bw, attraction, a-b-da, 2, 1, 7, 8, 60, 135, 134, 59, 135, 60, 1, 3.47405
29, 2, bw, attraction, a-b-da, 2, 1, 7, 8, 60, 135, 134, 59, 135, 60, 3, 1.07702
29, 2, bw, attraction, a-b-da, 2, 2, 7, 9, 163, 89, 90, 165, 165, 90, 2, 1.35132
29, 2, bw, attraction, a-b-da, 2, 2, 7, 9, 163, 89, 90, 165, 165, 90, 1, 0.664139
29, 2, bw, attraction, a-b-da, 5, 3, 7, 10, 120, 195, 190, 117, 195, 120, 1, 4.43519
29, 2, bw, attraction, a-b-da, 5, 3, 7, 10, 120, 195, 190, 117, 195, 120, 3, 0.767946
29, 2, bw, attraction, a-b-db, 5, 2, 7, 11, 165, 90, 88, 161, 90, 165, 2, 1.25477
29, 2, bw, attraction, a-b-db, 5, 2, 7, 11, 165, 90, 88, 161, 90, 165, 1, 1.62704
29, 2, bw, attraction, a-b-da, 9, 2, 7, 12, 165, 90, 90, 165, 157, 86, 2, 0.727285
29, 2, bw, attraction, a-b-da, 9, 2, 7, 12, 165, 90, 90, 165, 157, 86, 3, 0.73692
29, 2, bw, filler, NA, 999, 999, 7, 13, 66, 82, 165, 189, 134, 181, 2, 1.15329
29, 2, bw, filler, NA, 999, 999, 7, 13, 66, 82, 165, 189, 134, 181, 1, 1.04217
29, 2, bw, filler, NA, 999, 999, 7, 14, 81, 94, 145, 179, 180, 106, 2, 0.629841
29, 2, bw, filler, NA, 999, 999, 7, 14, 81, 94, 145, 179, 180, 106, 1, 0.611641
29, 2, bw, attraction, a-b-db, 5, 3, 7, 15, 120, 195, 195, 120, 117, 190, 1, 4.47266
29, 2, bw, attraction, a-b-db, 5, 3, 7, 15, 120, 195, 195, 120, 117, 190, 2, 1.0913
29, 2, bw, attraction, a-b-db, 14, 2, 7, 16, 83, 153, 90, 165, 165, 90, 2, 0.964806
29, 2, bw, attraction, a-b-db, 14, 2, 7, 16, 83, 153, 90, 165, 165, 90, 1, 0.669178
29, 2, bw, attraction, a-b-da, 9, 1, 7, 17, 135, 60, 60, 135, 129, 57, 2, 3.86444
29, 2, bw, attraction, a-b-da, 9, 1, 7, 17, 135, 60, 60, 135, 129, 57, 3, 0.731718
29, 2, bw, filler, NA, 999, 999, 7, 18, 165, 83, 87, 83, 67, 110, 1, 1.42003
29, 2, bw, filler, NA, 999, 999, 7, 18, 165, 83, 87, 83, 67, 110, 2, 0.746377
29, 2, bw, filler, NA, 999, 999, 7, 19, 124, 184, 186, 69, 125, 128, 1, 1.24992
29, 2, bw, filler, NA, 999, 999, 7, 19, 124, 184, 186, 69, 125, 128, 2, 0.734997
29, 2, bw, attraction, a-b-da, 5, 1, 7, 20, 132, 58, 135, 60, 60, 135, 2, 1.81536
29, 2, bw, attraction, a-b-da, 5, 1, 7, 20, 132, 58, 135, 60, 60, 135, 3, 0.549413
29, 2, bw, filler, NA, 999, 999, 7, 21, 64, 177, 194, 160, 76, 189, 2, 1.23707
29, 2, bw, filler, NA, 999, 999, 7, 21, 64, 177, 194, 160, 76, 189, 1, 0.858027
29, 2, bw, filler, NA, 999, 999, 7, 22, 147, 72, 98, 89, 112, 120, 3, 1.74117
29, 2, bw, filler, NA, 999, 999, 7, 22, 147, 72, 98, 89, 112, 120, 2, 1.12601
29, 2, bw, attraction, a-b-da, 14, 1, 7, 23, 60, 135, 125, 56, 135, 60, 3, 4.28613
29, 2, bw, attraction, a-b-da, 14, 1, 7, 23, 60, 135, 125, 56, 135, 60, 2, 0.760704
29, 2, bw, filler, NA, 999, 999, 7, 24, 150, 93, 171, 142, 150, 120, 2, 0.791725
29, 2, bw, filler, NA, 999, 999, 7, 24, 150, 93, 171, 142, 150, 120, 1, 1.0229
29, 2, bw, attraction, a-b-da, 2, 3, 7, 25, 120, 195, 195, 120, 193, 119, 3, 2.73118
29, 2, bw, attraction, a-b-da, 2, 3, 7, 25, 120, 195, 195, 120, 193, 119, 1, 1.10817
29, 2, bw, catch, NA, 999, 999, 7, 26, 143, 112, 106, 89, 185, 130, 3, 0.901179
29, 2, bw, catch, NA, 999, 999, 7, 26, 143, 112, 106, 89, 185, 130, 2, 0.840193
29, 2, bw, attraction, a-b-db, 2, 2, 7, 27, 89, 163, 90, 165, 165, 90, 2, 2.07581
29, 2, bw, attraction, a-b-db, 2, 2, 7, 27, 89, 163, 90, 165, 165, 90, 1, 1.47123
29, 2, bw, attraction, a-b-db, 2, 1, 7, 28, 60, 135, 135, 60, 59, 134, 3, 1.84998
29, 2, bw, attraction, a-b-db, 2, 1, 7, 28, 60, 135, 135, 60, 59, 134, 2, 1.6307
29, 2, bw, attraction, a-b-da, 5, 2, 7, 29, 161, 88, 90, 165, 165, 90, 2, 3.28293
29, 2, bw, attraction, a-b-da, 5, 2, 7, 29, 161, 88, 90, 165, 165, 90, 1, 0.701717
29, 2, bw, catch, NA, 999, 999, 7, 30, 187, 128, 111, 84, 135, 120, 1, 0.775406
29, 2, bw, catch, NA, 999, 999, 7, 30, 187, 128, 111, 84, 135, 120, 2, 0.703215
29, 2, bw, filler, NA, 999, 999, 7, 31, 58, 174, 108, 69, 170, 189, 3, 0.728952
29, 2, bw, filler, NA, 999, 999, 7, 31, 58, 174, 108, 69, 170, 189, 2, 0.546662
29, 2, bw, attraction, a-b-da, 14, 2, 7, 32, 90, 165, 165, 90, 153, 83, 1, 1.49841
29, 2, bw, attraction, a-b-da, 14, 2, 7, 32, 90, 165, 165, 90, 153, 83, 3, 1.16537
29, 2, bw, filler, NA, 999, 999, 7, 33, 89, 185, 187, 122, 142, 190, 3, 0.932199
29, 2, bw, filler, NA, 999, 999, 7, 33, 89, 185, 187, 122, 142, 190, 1, 0.925856
29, 2, bw, attraction, a-b-da, 14, 3, 7, 34, 120, 195, 181, 111, 195, 120, 1, 2.83016
29, 2, bw, attraction, a-b-da, 14, 3, 7, 34, 120, 195, 181, 111, 195, 120, 2, 0.49939
29, 2, bw, attraction, a-b-db, 14, 1, 7, 35, 56, 125, 135, 60, 60, 135, 3, 2.08512
29, 2, bw, attraction, a-b-db, 14, 1, 7, 35, 56, 125, 135, 60, 60, 135, 2, 0.560344
29, 2, bw, attraction, a-b-da, 9, 3, 7, 36, 120, 195, 195, 120, 186, 114, 1, 2.18352
29, 2, bw, attraction, a-b-da, 9, 3, 7, 36, 120, 195, 195, 120, 186, 114, 2, 0.694781
29, 2, bw, attraction, a-b-db, 5, 1, 7, 37, 58, 132, 135, 60, 60, 135, 3, 2.78457
29, 2, bw, attraction, a-b-db, 5, 1, 7, 37, 58, 132, 135, 60, 60, 135, 2, 0.463623
29, 2, bw, attraction, a-b-da, 14, 1, 8, 1, 125, 56, 135, 60, 60, 135, 3, 3.96273
29, 2, bw, attraction, a-b-da, 14, 1, 8, 1, 125, 56, 135, 60, 60, 135, 2, 0.586094
29, 2, bw, catch, NA, 999, 999, 8, 2, 154, 161, 123, 72, 153, 102, 1, 0.632489
29, 2, bw, catch, NA, 999, 999, 8, 2, 154, 161, 123, 72, 153, 102, 2, 0.758381
29, 2, bw, attraction, a-b-db, 2, 3, 8, 3, 120, 195, 119, 193, 195, 120, 1, 2.2534
29, 2, bw, attraction, a-b-db, 2, 3, 8, 3, 120, 195, 119, 193, 195, 120, 2, 0.561971
29, 2, bw, filler, NA, 999, 999, 8, 4, 130, 96, 140, 120, 91, 97, 2, 0.985106
29, 2, bw, filler, NA, 999, 999, 8, 4, 130, 96, 140, 120, 91, 97, 3, 0.79294
29, 2, bw, attraction, a-b-da, 2, 2, 8, 5, 90, 165, 163, 89, 165, 90, 1, 3.04636
29, 2, bw, attraction, a-b-da, 2, 2, 8, 5, 90, 165, 163, 89, 165, 90, 2, 0.80279
29, 2, bw, filler, NA, 999, 999, 8, 6, 93, 73, 79, 66, 90, 89, 3, 1.33648
29, 2, bw, filler, NA, 999, 999, 8, 6, 93, 73, 79, 66, 90, 89, 2, 0.522022
29, 2, bw, filler, NA, 999, 999, 8, 7, 97, 133, 164, 130, 163, 131, 2, 3.5153
29, 2, bw, filler, NA, 999, 999, 8, 7, 97, 133, 164, 130, 163, 131, 1, 0.532713
29, 2, bw, attraction, a-b-db, 14, 2, 8, 8, 83, 153, 165, 90, 90, 165, 3, 2.83721
29, 2, bw, attraction, a-b-db, 14, 2, 8, 8, 83, 153, 165, 90, 90, 165, 1, 0.802279
29, 2, bw, attraction, a-b-db, 14, 1, 8, 9, 56, 125, 60, 135, 135, 60, 2, 4.008
29, 2, bw, attraction, a-b-db, 14, 1, 8, 9, 56, 125, 60, 135, 135, 60, 1, 0.549516
29, 2, bw, attraction, a-b-db, 5, 1, 8, 10, 58, 132, 135, 60, 60, 135, 3, 1.92513
29, 2, bw, attraction, a-b-db, 5, 1, 8, 10, 58, 132, 135, 60, 60, 135, 2, 1.15049
29, 2, bw, catch, NA, 999, 999, 8, 11, 101, 154, 158, 157, 74, 121, 2, 0.853977
29, 2, bw, catch, NA, 999, 999, 8, 11, 101, 154, 158, 157, 74, 121, 3, 0.674456
29, 2, bw, attraction, a-b-db, 2, 2, 8, 12, 165, 90, 90, 165, 89, 163, 2, 4.64477
29, 2, bw, attraction, a-b-db, 2, 2, 8, 12, 165, 90, 90, 165, 89, 163, 3, 0.504777
29, 2, bw, attraction, a-b-db, 5, 3, 8, 13, 120, 195, 117, 190, 195, 120, 1, 1.35444
29, 2, bw, attraction, a-b-db, 5, 3, 8, 13, 120, 195, 117, 190, 195, 120, 2, 1.9306
29, 2, bw, attraction, a-b-db, 14, 3, 8, 14, 195, 120, 120, 195, 111, 181, 2, 2.94681
29, 2, bw, attraction, a-b-db, 14, 3, 8, 14, 195, 120, 120, 195, 111, 181, 3, 0.563018
29, 2, bw, filler, NA, 999, 999, 8, 15, 167, 115, 100, 103, 138, 71, 1, 2.28211
29, 2, bw, filler, NA, 999, 999, 8, 15, 167, 115, 100, 103, 138, 71, 3, 1.10152
29, 2, bw, attraction, a-b-da, 5, 3, 8, 16, 195, 120, 190, 117, 120, 195, 3, 2.1752
29, 2, bw, attraction, a-b-da, 5, 3, 8, 16, 195, 120, 190, 117, 120, 195, 2, 1.35827
29, 2, bw, filler, NA, 999, 999, 8, 17, 56, 187, 136, 79, 103, 161, 3, 2.25313
29, 2, bw, filler, NA, 999, 999, 8, 17, 56, 187, 136, 79, 103, 161, 2, 0.681911
29, 2, bw, attraction, a-b-da, 5, 1, 8, 18, 132, 58, 60, 135, 135, 60, 2, 2.94017
29, 2, bw, attraction, a-b-da, 5, 1, 8, 18, 132, 58, 60, 135, 135, 60, 1, 0.892563
29, 2, bw, filler, NA, 999, 999, 8, 19, 100, 183, 111, 101, 158, 77, 1, 0.926124
29, 2, bw, filler, NA, 999, 999, 8, 19, 100, 183, 111, 101, 158, 77, 3, 1.99984
29, 2, bw, filler, NA, 999, 999, 8, 20, 123, 102, 87, 135, 89, 114, 2, 3.31723
29, 2, bw, filler, NA, 999, 999, 8, 20, 123, 102, 87, 135, 89, 114, 3, 0.558798
29, 2, bw, attraction, a-b-db, 2, 1, 8, 21, 60, 135, 135, 60, 59, 134, 1, 1.60592
29, 2, bw, attraction, a-b-db, 2, 1, 8, 21, 60, 135, 135, 60, 59, 134, 2, 0.652051
29, 2, bw, attraction, a-b-db, 9, 1, 8, 22, 57, 129, 60, 135, 135, 60, 3, 2.60774
29, 2, bw, attraction, a-b-db, 9, 1, 8, 22, 57, 129, 60, 135, 135, 60, 2, 0.989614
29, 2, bw, attraction, a-b-da, 9, 3, 8, 23, 120, 195, 186, 114, 195, 120, 1, 2.63539
29, 2, bw, attraction, a-b-da, 9, 3, 8, 23, 120, 195, 186, 114, 195, 120, 2, 0.56831
29, 2, bw, filler, NA, 999, 999, 8, 24, 176, 81, 61, 122, 168, 97, 3, 0.871424
29, 2, bw, filler, NA, 999, 999, 8, 24, 176, 81, 61, 122, 168, 97, 2, 0.419145
29, 2, bw, attraction, a-b-db, 9, 3, 8, 25, 120, 195, 114, 186, 195, 120, 1, 1.26434
29, 2, bw, attraction, a-b-db, 9, 3, 8, 25, 120, 195, 114, 186, 195, 120, 3, 0.884746
29, 2, bw, attraction, a-b-da, 9, 2, 8, 26, 157, 86, 165, 90, 90, 165, 3, 3.35884
29, 2, bw, attraction, a-b-da, 9, 2, 8, 26, 157, 86, 165, 90, 90, 165, 2, 0.414583
29, 2, bw, attraction, a-b-da, 14, 2, 8, 27, 165, 90, 153, 83, 90, 165, 3, 1.0676
29, 2, bw, attraction, a-b-da, 14, 2, 8, 27, 165, 90, 153, 83, 90, 165, 2, 1.06396
29, 2, bw, attraction, a-b-da, 5, 2, 8, 28, 161, 88, 90, 165, 165, 90, 2, 1.45089
29, 2, bw, attraction, a-b-da, 5, 2, 8, 28, 161, 88, 90, 165, 165, 90, 1, 1.00784
29, 2, bw, catch, NA, 999, 999, 8, 29, 64, 131, 122, 193, 129, 126, 2, 1.75666
29, 2, bw, catch, NA, 999, 999, 8, 29, 64, 131, 122, 193, 129, 126, 1, 0.652766
29, 2, bw, attraction, a-b-db, 5, 2, 8, 30, 88, 161, 90, 165, 165, 90, 2, 2.75255
29, 2, bw, attraction, a-b-db, 5, 2, 8, 30, 88, 161, 90, 165, 165, 90, 1, 1.01692
29, 2, bw, attraction, a-b-db, 9, 2, 8, 31, 165, 90, 90, 165, 86, 157, 1, 3.81391
29, 2, bw, attraction, a-b-db, 9, 2, 8, 31, 165, 90, 90, 165, 86, 157, 2, 0.835359
29, 2, bw, attraction, a-b-da, 2, 3, 8, 32, 195, 120, 193, 119, 120, 195, 1, 3.30387
29, 2, bw, attraction, a-b-da, 2, 3, 8, 32, 195, 120, 193, 119, 120, 195, 2, 0.538014
29, 2, bw, attraction, a-b-da, 14, 3, 8, 33, 120, 195, 181, 111, 195, 120, 1, 1.09044
29, 2, bw, attraction, a-b-da, 14, 3, 8, 33, 120, 195, 181, 111, 195, 120, 2, 0.565436
29, 2, bw, filler, NA, 999, 999, 8, 34, 145, 148, 120, 124, 73, 134, 1, 1.47662
29, 2, bw, filler, NA, 999, 999, 8, 34, 145, 148, 120, 124, 73, 134, 3, 0.992141
29, 2, bw, attraction, a-b-da, 9, 1, 8, 35, 129, 57, 60, 135, 135, 60, 2, 2.05377
29, 2, bw, attraction, a-b-da, 9, 1, 8, 35, 129, 57, 60, 135, 135, 60, 3, 0.553757
29, 2, bw, attraction, a-b-da, 2, 1, 8, 36, 135, 60, 134, 59, 60, 135, 3, 2.75342
29, 2, bw, attraction, a-b-da, 2, 1, 8, 36, 135, 60, 134, 59, 60, 135, 2, 0.937963
29, 2, bw, filler, NA, 999, 999, 8, 37, 75, 57, 83, 168, 171, 141, 3, 0.810234
29, 2, bw, filler, NA, 999, 999, 8, 37, 75, 57, 83, 168, 171, 141, 1, 1.15253
