sub_n, computer_n, bw_cond, effect, set, distance, diag, block_n, trial_n, h1, w1, h2, w2, h3, w3, choice, rt 
275, 2, bw, practice, NA, 999, 999, 0, 1, 181, 187, 130, 153, 185, 108, 1, 3.41386
275, 2, bw, practice, NA, 999, 999, 0, 1, 181, 187, 130, 153, 185, 108, 3, 3.35496
275, 2, bw, practice, NA, 999, 999, 0, 2, 151, 108, 178, 164, 86, 119, 2, 2.27994
275, 2, bw, practice, NA, 999, 999, 0, 2, 151, 108, 178, 164, 86, 119, 3, 1.64172
275, 2, bw, practice, NA, 999, 999, 0, 3, 138, 75, 106, 134, 75, 143, 2, 2.62715
275, 2, bw, practice, NA, 999, 999, 0, 3, 138, 75, 106, 134, 75, 143, 1, 1.66439
275, 2, bw, attraction, a-b-db, 9, 1, 1, 1, 135, 60, 60, 135, 57, 129, 2, 2.01657
275, 2, bw, attraction, a-b-db, 9, 1, 1, 1, 135, 60, 60, 135, 57, 129, 1, 1.46265
275, 2, bw, attraction, a-b-db, 2, 3, 1, 2, 120, 195, 195, 120, 119, 193, 2, 2.89738
275, 2, bw, attraction, a-b-db, 2, 3, 1, 2, 120, 195, 195, 120, 119, 193, 1, 2.21986
275, 2, bw, attraction, a-b-da, 2, 3, 1, 3, 120, 195, 195, 120, 193, 119, 3, 2.68049
275, 2, bw, attraction, a-b-da, 2, 3, 1, 3, 120, 195, 195, 120, 193, 119, 1, 1.48348
275, 2, bw, filler, NA, 999, 999, 1, 4, 88, 104, 64, 174, 88, 171, 3, 2.30961
275, 2, bw, filler, NA, 999, 999, 1, 4, 88, 104, 64, 174, 88, 171, 1, 0.695573
275, 2, bw, filler, NA, 999, 999, 1, 5, 74, 141, 116, 63, 80, 116, 1, 2.56143
275, 2, bw, filler, NA, 999, 999, 1, 5, 74, 141, 116, 63, 80, 116, 2, 1.56916
275, 2, bw, filler, NA, 999, 999, 1, 6, 69, 169, 154, 130, 73, 120, 2, 1.2079
275, 2, bw, filler, NA, 999, 999, 1, 6, 69, 169, 154, 130, 73, 120, 3, 1.35029
275, 2, bw, catch, NA, 999, 999, 1, 7, 143, 112, 151, 164, 129, 66, 2, 1.41373
275, 2, bw, catch, NA, 999, 999, 1, 7, 143, 112, 151, 164, 129, 66, 3, 1.97995
275, 2, bw, filler, NA, 999, 999, 1, 8, 188, 68, 82, 82, 180, 193, 3, 0.930055
275, 2, bw, filler, NA, 999, 999, 1, 8, 188, 68, 82, 82, 180, 193, 2, 1.32375
275, 2, bw, attraction, a-b-db, 5, 2, 1, 9, 90, 165, 88, 161, 165, 90, 2, 2.73978
275, 2, bw, attraction, a-b-db, 5, 2, 1, 9, 90, 165, 88, 161, 165, 90, 1, 0.892243
275, 2, bw, attraction, a-b-db, 5, 1, 1, 10, 135, 60, 60, 135, 58, 132, 1, 1.94184
275, 2, bw, attraction, a-b-db, 5, 1, 1, 10, 135, 60, 60, 135, 58, 132, 2, 1.27862
275, 2, bw, filler, NA, 999, 999, 1, 11, 104, 147, 63, 138, 166, 117, 3, 1.1368
275, 2, bw, filler, NA, 999, 999, 1, 11, 104, 147, 63, 138, 166, 117, 2, 1.17843
275, 2, bw, attraction, a-b-da, 9, 3, 1, 12, 195, 120, 120, 195, 186, 114, 2, 1.58471
275, 2, bw, attraction, a-b-da, 9, 3, 1, 12, 195, 120, 120, 195, 186, 114, 3, 1.90422
275, 2, bw, attraction, a-b-db, 9, 2, 1, 13, 86, 157, 90, 165, 165, 90, 2, 1.99344
275, 2, bw, attraction, a-b-db, 9, 2, 1, 13, 86, 157, 90, 165, 165, 90, 1, 1.26416
275, 2, bw, attraction, a-b-da, 5, 1, 1, 14, 132, 58, 60, 135, 135, 60, 2, 3.29106
275, 2, bw, attraction, a-b-da, 5, 1, 1, 14, 132, 58, 60, 135, 135, 60, 1, 0.629392
275, 2, bw, filler, NA, 999, 999, 1, 15, 88, 71, 108, 156, 108, 119, 2, 1.16179
275, 2, bw, filler, NA, 999, 999, 1, 15, 88, 71, 108, 156, 108, 119, 1, 0.986045
275, 2, bw, filler, NA, 999, 999, 1, 16, 157, 167, 94, 101, 77, 98, 1, 1.34431
275, 2, bw, filler, NA, 999, 999, 1, 16, 157, 167, 94, 101, 77, 98, 3, 1.06527
275, 2, bw, attraction, a-b-db, 14, 2, 1, 17, 165, 90, 83, 153, 90, 165, 3, 2.44421
275, 2, bw, attraction, a-b-db, 14, 2, 1, 17, 165, 90, 83, 153, 90, 165, 1, 0.680759
275, 2, bw, attraction, a-b-db, 2, 2, 1, 18, 165, 90, 90, 165, 89, 163, 2, 1.49917
275, 2, bw, attraction, a-b-db, 2, 2, 1, 18, 165, 90, 90, 165, 89, 163, 1, 0.557926
275, 2, bw, filler, NA, 999, 999, 1, 19, 98, 66, 62, 85, 119, 130, 3, 1.893
275, 2, bw, filler, NA, 999, 999, 1, 19, 98, 66, 62, 85, 119, 130, 2, 0.72772
275, 2, bw, catch, NA, 999, 999, 1, 20, 136, 119, 143, 172, 61, 134, 2, 1.25611
275, 2, bw, catch, NA, 999, 999, 1, 20, 136, 119, 143, 172, 61, 134, 3, 0.708394
275, 2, bw, attraction, a-b-da, 5, 3, 1, 21, 190, 117, 195, 120, 120, 195, 2, 1.46946
275, 2, bw, attraction, a-b-da, 5, 3, 1, 21, 190, 117, 195, 120, 120, 195, 3, 0.921599
275, 2, bw, attraction, a-b-db, 9, 3, 1, 22, 120, 195, 114, 186, 195, 120, 1, 2.65862
275, 2, bw, attraction, a-b-db, 9, 3, 1, 22, 120, 195, 114, 186, 195, 120, 2, 0.646445
275, 2, bw, attraction, a-b-da, 14, 3, 1, 23, 195, 120, 120, 195, 181, 111, 2, 1.76211
275, 2, bw, attraction, a-b-da, 14, 3, 1, 23, 195, 120, 120, 195, 181, 111, 1, 0.450244
275, 2, bw, attraction, a-b-da, 14, 1, 1, 24, 135, 60, 125, 56, 60, 135, 3, 2.27807
275, 2, bw, attraction, a-b-da, 14, 1, 1, 24, 135, 60, 125, 56, 60, 135, 2, 0.505223
275, 2, bw, attraction, a-b-db, 2, 1, 1, 25, 60, 135, 135, 60, 59, 134, 3, 2.16305
275, 2, bw, attraction, a-b-db, 2, 1, 1, 25, 60, 135, 135, 60, 59, 134, 2, 0.723036
275, 2, bw, attraction, a-b-da, 5, 2, 1, 26, 165, 90, 161, 88, 90, 165, 3, 1.03536
275, 2, bw, attraction, a-b-da, 5, 2, 1, 26, 165, 90, 161, 88, 90, 165, 2, 0.625056
275, 2, bw, attraction, a-b-da, 2, 2, 1, 27, 163, 89, 165, 90, 90, 165, 3, 2.07748
275, 2, bw, attraction, a-b-da, 2, 2, 1, 27, 163, 89, 165, 90, 90, 165, 1, 0.696824
275, 2, bw, catch, NA, 999, 999, 1, 28, 116, 79, 186, 129, 156, 99, 2, 0.818475
275, 2, bw, catch, NA, 999, 999, 1, 28, 116, 79, 186, 129, 156, 99, 1, 0.640888
275, 2, bw, filler, NA, 999, 999, 1, 29, 142, 91, 148, 80, 123, 158, 3, 0.908675
275, 2, bw, filler, NA, 999, 999, 1, 29, 142, 91, 148, 80, 123, 158, 2, 0.526983
275, 2, bw, attraction, a-b-da, 14, 2, 1, 30, 153, 83, 90, 165, 165, 90, 2, 3.36746
275, 2, bw, attraction, a-b-da, 14, 2, 1, 30, 153, 83, 90, 165, 165, 90, 1, 0.767211
275, 2, bw, attraction, a-b-db, 14, 1, 1, 31, 60, 135, 56, 125, 135, 60, 1, 1.58212
275, 2, bw, attraction, a-b-db, 14, 1, 1, 31, 60, 135, 56, 125, 135, 60, 2, 0.4855
275, 2, bw, filler, NA, 999, 999, 1, 32, 128, 84, 121, 149, 170, 177, 3, 0.728087
275, 2, bw, filler, NA, 999, 999, 1, 32, 128, 84, 121, 149, 170, 177, 1, 0.833925
275, 2, bw, attraction, a-b-db, 14, 3, 1, 33, 120, 195, 195, 120, 111, 181, 1, 1.73414
275, 2, bw, attraction, a-b-db, 14, 3, 1, 33, 120, 195, 195, 120, 111, 181, 2, 0.615583
275, 2, bw, attraction, a-b-da, 9, 1, 1, 34, 60, 135, 135, 60, 129, 57, 2, 1.62859
275, 2, bw, attraction, a-b-da, 9, 1, 1, 34, 60, 135, 135, 60, 129, 57, 3, 0.834145
275, 2, bw, attraction, a-b-da, 2, 1, 1, 35, 60, 135, 135, 60, 134, 59, 2, 2.1986
275, 2, bw, attraction, a-b-da, 2, 1, 1, 35, 60, 135, 135, 60, 134, 59, 3, 0.677115
275, 2, bw, attraction, a-b-da, 9, 2, 1, 36, 90, 165, 157, 86, 165, 90, 1, 1.19952
275, 2, bw, attraction, a-b-da, 9, 2, 1, 36, 90, 165, 157, 86, 165, 90, 2, 0.702402
275, 2, bw, attraction, a-b-db, 5, 3, 1, 37, 120, 195, 117, 190, 195, 120, 3, 1.42418
275, 2, bw, attraction, a-b-db, 5, 3, 1, 37, 120, 195, 117, 190, 195, 120, 2, 0.605637
275, 2, bw, filler, NA, 999, 999, 2, 1, 103, 112, 65, 57, 80, 138, 1, 1.02739
275, 2, bw, filler, NA, 999, 999, 2, 1, 103, 112, 65, 57, 80, 138, 2, 0.985035
275, 2, bw, attraction, a-b-db, 14, 3, 2, 2, 111, 181, 195, 120, 120, 195, 3, 0.991307
275, 2, bw, attraction, a-b-db, 14, 3, 2, 2, 111, 181, 195, 120, 120, 195, 2, 0.630309
275, 2, bw, attraction, a-b-da, 9, 2, 2, 3, 90, 165, 157, 86, 165, 90, 3, 3.25069
275, 2, bw, attraction, a-b-da, 9, 2, 2, 3, 90, 165, 157, 86, 165, 90, 1, 0.703124
275, 2, bw, attraction, a-b-da, 9, 3, 2, 4, 186, 114, 120, 195, 195, 120, 2, 1.34471
275, 2, bw, attraction, a-b-da, 9, 3, 2, 4, 186, 114, 120, 195, 195, 120, 1, 1.24961
275, 2, bw, attraction, a-b-da, 14, 2, 2, 5, 153, 83, 90, 165, 165, 90, 2, 2.76522
275, 2, bw, attraction, a-b-da, 14, 2, 2, 5, 153, 83, 90, 165, 165, 90, 1, 0.477085
275, 2, bw, attraction, a-b-da, 2, 2, 2, 6, 163, 89, 165, 90, 90, 165, 2, 3.02342
275, 2, bw, attraction, a-b-da, 2, 2, 2, 6, 163, 89, 165, 90, 90, 165, 1, 0.468557
275, 2, bw, catch, NA, 999, 999, 2, 7, 124, 191, 98, 97, 97, 158, 1, 1.1676
275, 2, bw, catch, NA, 999, 999, 2, 7, 124, 191, 98, 97, 97, 158, 2, 0.727833
275, 2, bw, catch, NA, 999, 999, 2, 8, 115, 80, 176, 139, 111, 144, 2, 1.20822
275, 2, bw, catch, NA, 999, 999, 2, 8, 115, 80, 176, 139, 111, 144, 1, 1.39047
275, 2, bw, attraction, a-b-db, 9, 1, 2, 9, 135, 60, 57, 129, 60, 135, 2, 2.48399
275, 2, bw, attraction, a-b-db, 9, 1, 2, 9, 135, 60, 57, 129, 60, 135, 1, 0.487307
275, 2, bw, attraction, a-b-da, 5, 1, 2, 10, 132, 58, 135, 60, 60, 135, 3, 2.05776
275, 2, bw, attraction, a-b-da, 5, 1, 2, 10, 132, 58, 135, 60, 60, 135, 1, 0.445646
275, 2, bw, filler, NA, 999, 999, 2, 11, 121, 122, 136, 194, 151, 59, 2, 0.80942
275, 2, bw, filler, NA, 999, 999, 2, 11, 121, 122, 136, 194, 151, 59, 3, 1.55195
275, 2, bw, filler, NA, 999, 999, 2, 12, 112, 124, 68, 76, 152, 194, 3, 1.10336
275, 2, bw, filler, NA, 999, 999, 2, 12, 112, 124, 68, 76, 152, 194, 2, 0.44162
275, 2, bw, attraction, a-b-da, 5, 2, 2, 13, 165, 90, 90, 165, 161, 88, 2, 2.40542
275, 2, bw, attraction, a-b-da, 5, 2, 2, 13, 165, 90, 90, 165, 161, 88, 1, 1.11529
275, 2, bw, filler, NA, 999, 999, 2, 14, 76, 184, 156, 129, 118, 147, 2, 2.46817
275, 2, bw, filler, NA, 999, 999, 2, 14, 76, 184, 156, 129, 118, 147, 1, 0.824103
275, 2, bw, attraction, a-b-db, 14, 1, 2, 15, 60, 135, 56, 125, 135, 60, 3, 2.75645
275, 2, bw, attraction, a-b-db, 14, 1, 2, 15, 60, 135, 56, 125, 135, 60, 2, 0.428172
275, 2, bw, attraction, a-b-db, 14, 2, 2, 16, 83, 153, 165, 90, 90, 165, 3, 1.68065
275, 2, bw, attraction, a-b-db, 14, 2, 2, 16, 83, 153, 165, 90, 90, 165, 2, 0.452121
275, 2, bw, attraction, a-b-db, 5, 1, 2, 17, 135, 60, 58, 132, 60, 135, 2, 2.13595
275, 2, bw, attraction, a-b-db, 5, 1, 2, 17, 135, 60, 58, 132, 60, 135, 1, 0.513223
275, 2, bw, filler, NA, 999, 999, 2, 18, 64, 157, 194, 149, 62, 174, 2, 0.754321
275, 2, bw, filler, NA, 999, 999, 2, 18, 64, 157, 194, 149, 62, 174, 3, 0.994776
275, 2, bw, attraction, a-b-db, 2, 2, 2, 19, 89, 163, 90, 165, 165, 90, 3, 1.10432
275, 2, bw, attraction, a-b-db, 2, 2, 2, 19, 89, 163, 90, 165, 165, 90, 2, 0.474635
275, 2, bw, attraction, a-b-db, 2, 3, 2, 20, 119, 193, 120, 195, 195, 120, 2, 1.39717
275, 2, bw, attraction, a-b-db, 2, 3, 2, 20, 119, 193, 120, 195, 195, 120, 3, 0.787986
275, 2, bw, attraction, a-b-db, 2, 1, 2, 21, 59, 134, 60, 135, 135, 60, 2, 2.27438
275, 2, bw, attraction, a-b-db, 2, 1, 2, 21, 59, 134, 60, 135, 135, 60, 3, 0.533657
275, 2, bw, attraction, a-b-da, 9, 1, 2, 22, 129, 57, 135, 60, 60, 135, 3, 1.58213
275, 2, bw, attraction, a-b-da, 9, 1, 2, 22, 129, 57, 135, 60, 60, 135, 2, 0.389577
275, 2, bw, filler, NA, 999, 999, 2, 23, 110, 60, 151, 84, 190, 83, 2, 1.53143
275, 2, bw, filler, NA, 999, 999, 2, 23, 110, 60, 151, 84, 190, 83, 1, 1.99681
275, 2, bw, attraction, a-b-da, 2, 3, 2, 24, 195, 120, 120, 195, 193, 119, 3, 2.3544
275, 2, bw, attraction, a-b-da, 2, 3, 2, 24, 195, 120, 120, 195, 193, 119, 2, 0.394038
275, 2, bw, filler, NA, 999, 999, 2, 25, 108, 192, 137, 75, 71, 152, 1, 0.847803
275, 2, bw, filler, NA, 999, 999, 2, 25, 108, 192, 137, 75, 71, 152, 2, 0.700897
275, 2, bw, attraction, a-b-db, 9, 2, 2, 26, 165, 90, 90, 165, 86, 157, 1, 2.11058
275, 2, bw, attraction, a-b-db, 9, 2, 2, 26, 165, 90, 90, 165, 86, 157, 2, 0.440647
275, 2, bw, attraction, a-b-da, 2, 1, 2, 27, 135, 60, 134, 59, 60, 135, 2, 1.69242
275, 2, bw, attraction, a-b-da, 2, 1, 2, 27, 135, 60, 134, 59, 60, 135, 3, 0.59917
275, 2, bw, attraction, a-b-da, 14, 3, 2, 28, 195, 120, 120, 195, 181, 111, 1, 2.31688
275, 2, bw, attraction, a-b-da, 14, 3, 2, 28, 195, 120, 120, 195, 181, 111, 2, 0.678878
275, 2, bw, filler, NA, 999, 999, 2, 29, 168, 73, 154, 106, 134, 135, 3, 2.66536
275, 2, bw, filler, NA, 999, 999, 2, 29, 168, 73, 154, 106, 134, 135, 1, 1.37317
275, 2, bw, attraction, a-b-db, 5, 3, 2, 30, 117, 190, 195, 120, 120, 195, 3, 2.69128
275, 2, bw, attraction, a-b-db, 5, 3, 2, 30, 117, 190, 195, 120, 120, 195, 2, 0.589743
275, 2, bw, filler, NA, 999, 999, 2, 31, 75, 70, 124, 193, 100, 159, 2, 1.40351
275, 2, bw, filler, NA, 999, 999, 2, 31, 75, 70, 124, 193, 100, 159, 1, 0.889654
275, 2, bw, attraction, a-b-da, 14, 1, 2, 32, 135, 60, 125, 56, 60, 135, 1, 2.37133
275, 2, bw, attraction, a-b-da, 14, 1, 2, 32, 135, 60, 125, 56, 60, 135, 2, 0.53857
275, 2, bw, attraction, a-b-da, 5, 3, 2, 33, 120, 195, 190, 117, 195, 120, 3, 3.4751
275, 2, bw, attraction, a-b-da, 5, 3, 2, 33, 120, 195, 190, 117, 195, 120, 2, 0.694121
275, 2, bw, filler, NA, 999, 999, 2, 34, 103, 113, 131, 124, 60, 177, 2, 1.0636
275, 2, bw, filler, NA, 999, 999, 2, 34, 103, 113, 131, 124, 60, 177, 3, 0.564012
275, 2, bw, attraction, a-b-db, 9, 3, 2, 35, 114, 186, 120, 195, 195, 120, 3, 1.18715
275, 2, bw, attraction, a-b-db, 9, 3, 2, 35, 114, 186, 120, 195, 195, 120, 2, 0.682105
275, 2, bw, attraction, a-b-db, 5, 2, 2, 36, 90, 165, 88, 161, 165, 90, 3, 2.13236
275, 2, bw, attraction, a-b-db, 5, 2, 2, 36, 90, 165, 88, 161, 165, 90, 2, 0.557677
275, 2, bw, catch, NA, 999, 999, 2, 37, 178, 137, 163, 92, 73, 122, 1, 0.780808
275, 2, bw, catch, NA, 999, 999, 2, 37, 178, 137, 163, 92, 73, 122, 3, 1.02857
275, 2, bw, attraction, a-b-da, 14, 3, 3, 1, 120, 195, 195, 120, 181, 111, 3, 1.05692
275, 2, bw, attraction, a-b-da, 14, 3, 3, 1, 120, 195, 195, 120, 181, 111, 1, 0.38116
275, 2, bw, attraction, a-b-db, 2, 1, 3, 2, 60, 135, 59, 134, 135, 60, 2, 1.40368
275, 2, bw, attraction, a-b-db, 2, 1, 3, 2, 60, 135, 59, 134, 135, 60, 3, 0.441944
275, 2, bw, attraction, a-b-db, 5, 3, 3, 3, 195, 120, 117, 190, 120, 195, 2, 1.65358
275, 2, bw, attraction, a-b-db, 5, 3, 3, 3, 195, 120, 117, 190, 120, 195, 1, 1.0265
275, 2, bw, filler, NA, 999, 999, 3, 4, 56, 186, 192, 104, 114, 83, 2, 2.05462
275, 2, bw, filler, NA, 999, 999, 3, 4, 56, 186, 192, 104, 114, 83, 1, 0.714633
275, 2, bw, filler, NA, 999, 999, 3, 5, 132, 121, 89, 147, 191, 127, 3, 0.843663
275, 2, bw, filler, NA, 999, 999, 3, 5, 132, 121, 89, 147, 191, 127, 2, 0.512738
275, 2, bw, attraction, a-b-da, 2, 2, 3, 6, 165, 90, 163, 89, 90, 165, 3, 1.25783
275, 2, bw, attraction, a-b-da, 2, 2, 3, 6, 165, 90, 163, 89, 90, 165, 2, 0.590123
275, 2, bw, attraction, a-b-da, 5, 1, 3, 7, 135, 60, 60, 135, 132, 58, 2, 1.13985
275, 2, bw, attraction, a-b-da, 5, 1, 3, 7, 135, 60, 60, 135, 132, 58, 1, 0.484767
275, 2, bw, attraction, a-b-db, 14, 2, 3, 8, 90, 165, 83, 153, 165, 90, 1, 2.44726
275, 2, bw, attraction, a-b-db, 14, 2, 3, 8, 90, 165, 83, 153, 165, 90, 2, 0.531966
275, 2, bw, attraction, a-b-db, 2, 2, 3, 9, 165, 90, 90, 165, 89, 163, 2, 2.53226
275, 2, bw, attraction, a-b-db, 2, 2, 3, 9, 165, 90, 90, 165, 89, 163, 1, 0.557391
275, 2, bw, catch, NA, 999, 999, 3, 10, 136, 119, 73, 122, 148, 167, 3, 0.652639
275, 2, bw, catch, NA, 999, 999, 3, 10, 136, 119, 73, 122, 148, 167, 2, 0.609638
275, 2, bw, attraction, a-b-da, 9, 2, 3, 11, 165, 90, 90, 165, 157, 86, 2, 1.17478
275, 2, bw, attraction, a-b-da, 9, 2, 3, 11, 165, 90, 90, 165, 157, 86, 1, 0.822363
275, 2, bw, attraction, a-b-db, 9, 1, 3, 12, 60, 135, 135, 60, 57, 129, 2, 1.69138
275, 2, bw, attraction, a-b-db, 9, 1, 3, 12, 60, 135, 135, 60, 57, 129, 3, 0.718105
275, 2, bw, attraction, a-b-da, 5, 2, 3, 13, 90, 165, 161, 88, 165, 90, 3, 0.735165
275, 2, bw, attraction, a-b-da, 5, 2, 3, 13, 90, 165, 161, 88, 165, 90, 2, 0.424901
275, 2, bw, attraction, a-b-da, 5, 3, 3, 14, 190, 117, 195, 120, 120, 195, 3, 0.781414
275, 2, bw, attraction, a-b-da, 5, 3, 3, 14, 190, 117, 195, 120, 120, 195, 1, 0.501142
275, 2, bw, filler, NA, 999, 999, 3, 15, 176, 71, 186, 187, 178, 192, 2, 0.726858
275, 2, bw, filler, NA, 999, 999, 3, 15, 176, 71, 186, 187, 178, 192, 1, 0.62464
275, 2, bw, attraction, a-b-da, 9, 3, 3, 16, 195, 120, 186, 114, 120, 195, 3, 0.877175
275, 2, bw, attraction, a-b-da, 9, 3, 3, 16, 195, 120, 186, 114, 120, 195, 1, 0.60077
275, 2, bw, attraction, a-b-db, 14, 3, 3, 17, 120, 195, 111, 181, 195, 120, 2, 1.29468
275, 2, bw, attraction, a-b-db, 14, 3, 3, 17, 120, 195, 111, 181, 195, 120, 3, 0.649445
275, 2, bw, filler, NA, 999, 999, 3, 18, 67, 134, 109, 134, 172, 67, 1, 1.2771
275, 2, bw, filler, NA, 999, 999, 3, 18, 67, 134, 109, 134, 172, 67, 3, 1.59282
275, 2, bw, attraction, a-b-db, 9, 2, 3, 19, 90, 165, 86, 157, 165, 90, 1, 2.95015
275, 2, bw, attraction, a-b-db, 9, 2, 3, 19, 90, 165, 86, 157, 165, 90, 2, 1.47054
275, 2, bw, filler, NA, 999, 999, 3, 20, 95, 79, 172, 74, 171, 93, 3, 1.39338
275, 2, bw, filler, NA, 999, 999, 3, 20, 95, 79, 172, 74, 171, 93, 1, 0.496268
275, 2, bw, catch, NA, 999, 999, 3, 21, 163, 92, 131, 184, 117, 78, 2, 0.914082
275, 2, bw, catch, NA, 999, 999, 3, 21, 163, 92, 131, 184, 117, 78, 3, 0.476353
275, 2, bw, filler, NA, 999, 999, 3, 22, 159, 80, 179, 173, 100, 165, 2, 0.894911
275, 2, bw, filler, NA, 999, 999, 3, 22, 159, 80, 179, 173, 100, 165, 1, 0.585899
275, 2, bw, filler, NA, 999, 999, 3, 23, 62, 97, 89, 83, 145, 173, 3, 0.768333
275, 2, bw, filler, NA, 999, 999, 3, 23, 62, 97, 89, 83, 145, 173, 2, 1.07275
275, 2, bw, attraction, a-b-db, 14, 1, 3, 24, 60, 135, 56, 125, 135, 60, 3, 2.47568
275, 2, bw, attraction, a-b-db, 14, 1, 3, 24, 60, 135, 56, 125, 135, 60, 2, 0.726856
275, 2, bw, attraction, a-b-da, 2, 1, 3, 25, 135, 60, 60, 135, 134, 59, 2, 1.35924
275, 2, bw, attraction, a-b-da, 2, 1, 3, 25, 135, 60, 60, 135, 134, 59, 1, 0.575417
275, 2, bw, attraction, a-b-da, 14, 1, 3, 26, 125, 56, 135, 60, 60, 135, 3, 0.80585
275, 2, bw, attraction, a-b-da, 14, 1, 3, 26, 125, 56, 135, 60, 60, 135, 1, 0.956214
275, 2, bw, filler, NA, 999, 999, 3, 27, 113, 158, 122, 138, 77, 67, 1, 1.78723
275, 2, bw, filler, NA, 999, 999, 3, 27, 113, 158, 122, 138, 77, 67, 3, 0.674663
275, 2, bw, attraction, a-b-da, 2, 3, 3, 28, 193, 119, 195, 120, 120, 195, 3, 5.90908
275, 2, bw, attraction, a-b-da, 2, 3, 3, 28, 193, 119, 195, 120, 120, 195, 1, 0.477834
275, 2, bw, attraction, a-b-da, 14, 2, 3, 29, 165, 90, 90, 165, 153, 83, 2, 2.0803
275, 2, bw, attraction, a-b-da, 14, 2, 3, 29, 165, 90, 90, 165, 153, 83, 3, 0.459645
275, 2, bw, filler, NA, 999, 999, 3, 30, 169, 87, 85, 153, 176, 148, 3, 0.758778
275, 2, bw, filler, NA, 999, 999, 3, 30, 169, 87, 85, 153, 176, 148, 2, 0.535235
275, 2, bw, attraction, a-b-db, 2, 3, 3, 31, 120, 195, 119, 193, 195, 120, 2, 1.44761
275, 2, bw, attraction, a-b-db, 2, 3, 3, 31, 120, 195, 119, 193, 195, 120, 3, 0.468414
275, 2, bw, attraction, a-b-db, 5, 1, 3, 32, 135, 60, 58, 132, 60, 135, 3, 3.05561
275, 2, bw, attraction, a-b-db, 5, 1, 3, 32, 135, 60, 58, 132, 60, 135, 1, 0.499292
275, 2, bw, catch, NA, 999, 999, 3, 33, 189, 126, 119, 76, 161, 94, 1, 0.861006
275, 2, bw, catch, NA, 999, 999, 3, 33, 189, 126, 119, 76, 161, 94, 2, 0.625353
275, 2, bw, attraction, a-b-db, 5, 2, 3, 34, 165, 90, 88, 161, 90, 165, 3, 2.77386
275, 2, bw, attraction, a-b-db, 5, 2, 3, 34, 165, 90, 88, 161, 90, 165, 1, 0.460858
275, 2, bw, attraction, a-b-da, 9, 1, 3, 35, 129, 57, 135, 60, 60, 135, 1, 2.03199
275, 2, bw, attraction, a-b-da, 9, 1, 3, 35, 129, 57, 135, 60, 60, 135, 3, 0.421416
275, 2, bw, attraction, a-b-db, 9, 3, 3, 36, 120, 195, 114, 186, 195, 120, 3, 1.66651
275, 2, bw, attraction, a-b-db, 9, 3, 3, 36, 120, 195, 114, 186, 195, 120, 1, 0.382654
275, 2, bw, filler, NA, 999, 999, 3, 37, 139, 65, 114, 186, 98, 57, 2, 0.749238
275, 2, bw, filler, NA, 999, 999, 3, 37, 139, 65, 114, 186, 98, 57, 3, 0.598222
275, 2, bw, attraction, a-b-da, 14, 1, 4, 1, 125, 56, 135, 60, 60, 135, 3, 2.06796
275, 2, bw, attraction, a-b-da, 14, 1, 4, 1, 125, 56, 135, 60, 60, 135, 2, 0.535997
275, 2, bw, filler, NA, 999, 999, 4, 2, 61, 147, 148, 122, 151, 73, 2, 0.792452
275, 2, bw, filler, NA, 999, 999, 4, 2, 61, 147, 148, 122, 151, 73, 3, 0.463453
275, 2, bw, attraction, a-b-db, 2, 1, 4, 3, 60, 135, 59, 134, 135, 60, 1, 1.79459
275, 2, bw, attraction, a-b-db, 2, 1, 4, 3, 60, 135, 59, 134, 135, 60, 3, 0.665349
275, 2, bw, attraction, a-b-da, 2, 2, 4, 4, 163, 89, 165, 90, 90, 165, 3, 1.06843
275, 2, bw, attraction, a-b-da, 2, 2, 4, 4, 163, 89, 165, 90, 90, 165, 2, 0.488793
275, 2, bw, attraction, a-b-db, 5, 3, 4, 5, 195, 120, 117, 190, 120, 195, 2, 2.60321
275, 2, bw, attraction, a-b-db, 5, 3, 4, 5, 195, 120, 117, 190, 120, 195, 1, 0.489668
275, 2, bw, attraction, a-b-db, 5, 2, 4, 6, 90, 165, 165, 90, 88, 161, 2, 2.13145
275, 2, bw, attraction, a-b-db, 5, 2, 4, 6, 90, 165, 165, 90, 88, 161, 3, 0.436717
275, 2, bw, attraction, a-b-da, 9, 2, 4, 7, 165, 90, 157, 86, 90, 165, 3, 1.45744
275, 2, bw, attraction, a-b-da, 9, 2, 4, 7, 165, 90, 157, 86, 90, 165, 2, 0.549458
275, 2, bw, attraction, a-b-db, 2, 3, 4, 8, 195, 120, 119, 193, 120, 195, 2, 2.10119
275, 2, bw, attraction, a-b-db, 2, 3, 4, 8, 195, 120, 119, 193, 120, 195, 1, 0.383888
275, 2, bw, filler, NA, 999, 999, 4, 9, 141, 112, 58, 170, 165, 68, 1, 1.06232
275, 2, bw, filler, NA, 999, 999, 4, 9, 141, 112, 58, 170, 165, 68, 2, 0.514625
275, 2, bw, attraction, a-b-db, 14, 1, 4, 10, 135, 60, 56, 125, 60, 135, 1, 1.7398
275, 2, bw, attraction, a-b-db, 14, 1, 4, 10, 135, 60, 56, 125, 60, 135, 2, 0.452615
275, 2, bw, attraction, a-b-da, 2, 3, 4, 11, 120, 195, 193, 119, 195, 120, 2, 1.77632
275, 2, bw, attraction, a-b-da, 2, 3, 4, 11, 120, 195, 193, 119, 195, 120, 1, 0.256544
275, 2, bw, attraction, a-b-da, 5, 3, 4, 12, 190, 117, 195, 120, 120, 195, 2, 2.62697
275, 2, bw, attraction, a-b-da, 5, 3, 4, 12, 190, 117, 195, 120, 120, 195, 1, 1.2402
275, 2, bw, filler, NA, 999, 999, 4, 13, 72, 169, 139, 73, 114, 146, 3, 0.667544
275, 2, bw, filler, NA, 999, 999, 4, 13, 72, 169, 139, 73, 114, 146, 2, 0.400046
275, 2, bw, attraction, a-b-da, 14, 3, 4, 14, 120, 195, 195, 120, 181, 111, 2, 1.84597
275, 2, bw, attraction, a-b-da, 14, 3, 4, 14, 120, 195, 195, 120, 181, 111, 1, 0.402546
275, 2, bw, filler, NA, 999, 999, 4, 15, 171, 153, 138, 94, 113, 130, 1, 0.904428
275, 2, bw, filler, NA, 999, 999, 4, 15, 171, 153, 138, 94, 113, 130, 2, 0.370713
275, 2, bw, filler, NA, 999, 999, 4, 16, 160, 96, 63, 78, 130, 156, 3, 1.13796
275, 2, bw, filler, NA, 999, 999, 4, 16, 160, 96, 63, 78, 130, 156, 2, 0.482916
275, 2, bw, attraction, a-b-db, 5, 1, 4, 17, 60, 135, 58, 132, 135, 60, 3, 2.51734
275, 2, bw, attraction, a-b-db, 5, 1, 4, 17, 60, 135, 58, 132, 135, 60, 2, 0.567155
275, 2, bw, attraction, a-b-db, 14, 2, 4, 18, 83, 153, 165, 90, 90, 165, 3, 1.68634
275, 2, bw, attraction, a-b-db, 14, 2, 4, 18, 83, 153, 165, 90, 90, 165, 1, 1.55383
275, 2, bw, filler, NA, 999, 999, 4, 19, 161, 108, 128, 180, 97, 77, 2, 1.08127
275, 2, bw, filler, NA, 999, 999, 4, 19, 161, 108, 128, 180, 97, 77, 3, 0.988946
275, 2, bw, attraction, a-b-db, 14, 3, 4, 20, 111, 181, 120, 195, 195, 120, 3, 1.89112
275, 2, bw, attraction, a-b-db, 14, 3, 4, 20, 111, 181, 120, 195, 195, 120, 2, 0.645865
275, 2, bw, filler, NA, 999, 999, 4, 21, 182, 155, 123, 84, 180, 71, 1, 0.681564
275, 2, bw, filler, NA, 999, 999, 4, 21, 182, 155, 123, 84, 180, 71, 2, 0.677377
275, 2, bw, attraction, a-b-db, 9, 1, 4, 22, 60, 135, 57, 129, 135, 60, 3, 1.18389
275, 2, bw, attraction, a-b-db, 9, 1, 4, 22, 60, 135, 57, 129, 135, 60, 2, 0.559363
275, 2, bw, filler, NA, 999, 999, 4, 23, 153, 124, 89, 128, 177, 190, 3, 0.662532
275, 2, bw, filler, NA, 999, 999, 4, 23, 153, 124, 89, 128, 177, 190, 2, 0.530864
275, 2, bw, attraction, a-b-db, 2, 2, 4, 24, 165, 90, 90, 165, 89, 163, 1, 1.05945
275, 2, bw, attraction, a-b-db, 2, 2, 4, 24, 165, 90, 90, 165, 89, 163, 2, 0.423666
275, 2, bw, catch, NA, 999, 999, 4, 25, 146, 169, 147, 108, 63, 132, 1, 0.924086
275, 2, bw, catch, NA, 999, 999, 4, 25, 146, 169, 147, 108, 63, 132, 3, 0.893823
275, 2, bw, attraction, a-b-da, 5, 1, 4, 26, 132, 58, 60, 135, 135, 60, 3, 2.24751
275, 2, bw, attraction, a-b-da, 5, 1, 4, 26, 132, 58, 60, 135, 135, 60, 2, 0.572055
275, 2, bw, filler, NA, 999, 999, 4, 27, 72, 115, 176, 130, 101, 103, 2, 0.84314
275, 2, bw, filler, NA, 999, 999, 4, 27, 72, 115, 176, 130, 101, 103, 1, 0.504198
275, 2, bw, attraction, a-b-da, 9, 1, 4, 28, 135, 60, 60, 135, 129, 57, 1, 1.78601
275, 2, bw, attraction, a-b-da, 9, 1, 4, 28, 135, 60, 60, 135, 129, 57, 2, 0.513343
275, 2, bw, catch, NA, 999, 999, 4, 29, 138, 117, 62, 133, 194, 121, 3, 0.818547
275, 2, bw, catch, NA, 999, 999, 4, 29, 138, 117, 62, 133, 194, 121, 2, 0.544899
275, 2, bw, attraction, a-b-db, 9, 3, 4, 30, 120, 195, 195, 120, 114, 186, 2, 1.03272
275, 2, bw, attraction, a-b-db, 9, 3, 4, 30, 120, 195, 195, 120, 114, 186, 3, 1.26245
275, 2, bw, filler, NA, 999, 999, 4, 31, 169, 180, 106, 103, 120, 57, 1, 0.817215
275, 2, bw, filler, NA, 999, 999, 4, 31, 169, 180, 106, 103, 120, 57, 3, 0.807606
275, 2, bw, attraction, a-b-da, 2, 1, 4, 32, 134, 59, 135, 60, 60, 135, 2, 2.07663
275, 2, bw, attraction, a-b-da, 2, 1, 4, 32, 134, 59, 135, 60, 60, 135, 3, 0.455949
275, 2, bw, catch, NA, 999, 999, 4, 33, 194, 121, 92, 163, 101, 94, 1, 0.987755
275, 2, bw, catch, NA, 999, 999, 4, 33, 194, 121, 92, 163, 101, 94, 3, 0.506834
275, 2, bw, attraction, a-b-da, 9, 3, 4, 34, 120, 195, 186, 114, 195, 120, 3, 1.63592
275, 2, bw, attraction, a-b-da, 9, 3, 4, 34, 120, 195, 186, 114, 195, 120, 1, 0.721369
275, 2, bw, attraction, a-b-da, 5, 2, 4, 35, 90, 165, 161, 88, 165, 90, 3, 2.32237
275, 2, bw, attraction, a-b-da, 5, 2, 4, 35, 90, 165, 161, 88, 165, 90, 2, 0.403612
275, 2, bw, attraction, a-b-da, 14, 2, 4, 36, 153, 83, 165, 90, 90, 165, 3, 2.16943
275, 2, bw, attraction, a-b-da, 14, 2, 4, 36, 153, 83, 165, 90, 90, 165, 1, 0.793395
275, 2, bw, attraction, a-b-db, 9, 2, 4, 37, 165, 90, 86, 157, 90, 165, 1, 1.69525
275, 2, bw, attraction, a-b-db, 9, 2, 4, 37, 165, 90, 86, 157, 90, 165, 2, 0.425893
275, 2, bw, attraction, a-b-da, 5, 3, 5, 1, 120, 195, 195, 120, 190, 117, 2, 2.86095
275, 2, bw, attraction, a-b-da, 5, 3, 5, 1, 120, 195, 195, 120, 190, 117, 1, 0.536727
275, 2, bw, attraction, a-b-da, 5, 1, 5, 2, 132, 58, 135, 60, 60, 135, 2, 1.1531
275, 2, bw, attraction, a-b-da, 5, 1, 5, 2, 132, 58, 135, 60, 60, 135, 3, 0.754134
275, 2, bw, attraction, a-b-da, 2, 2, 5, 3, 163, 89, 90, 165, 165, 90, 3, 0.921783
275, 2, bw, attraction, a-b-da, 2, 2, 5, 3, 163, 89, 90, 165, 165, 90, 2, 0.531487
275, 2, bw, filler, NA, 999, 999, 5, 4, 133, 139, 124, 111, 71, 106, 1, 0.980001
275, 2, bw, filler, NA, 999, 999, 5, 4, 133, 139, 124, 111, 71, 106, 3, 0.619616
275, 2, bw, attraction, a-b-da, 14, 1, 5, 5, 125, 56, 60, 135, 135, 60, 2, 1.25666
275, 2, bw, attraction, a-b-da, 14, 1, 5, 5, 125, 56, 60, 135, 135, 60, 1, 0.420882
275, 2, bw, attraction, a-b-db, 5, 2, 5, 6, 88, 161, 90, 165, 165, 90, 3, 1.97806
275, 2, bw, attraction, a-b-db, 5, 2, 5, 6, 88, 161, 90, 165, 165, 90, 2, 0.36146
275, 2, bw, filler, NA, 999, 999, 5, 7, 195, 184, 82, 129, 195, 82, 1, 0.792579
275, 2, bw, filler, NA, 999, 999, 5, 7, 195, 184, 82, 129, 195, 82, 2, 0.487671
275, 2, bw, attraction, a-b-da, 14, 3, 5, 8, 195, 120, 120, 195, 181, 111, 2, 0.954112
275, 2, bw, attraction, a-b-da, 14, 3, 5, 8, 195, 120, 120, 195, 181, 111, 1, 0.474445
275, 2, bw, filler, NA, 999, 999, 5, 9, 144, 194, 141, 145, 169, 64, 1, 0.884899
275, 2, bw, filler, NA, 999, 999, 5, 9, 144, 194, 141, 145, 169, 64, 3, 0.584598
275, 2, bw, attraction, a-b-da, 9, 3, 5, 10, 186, 114, 195, 120, 120, 195, 3, 1.02301
275, 2, bw, attraction, a-b-da, 9, 3, 5, 10, 186, 114, 195, 120, 120, 195, 1, 0.700682
275, 2, bw, attraction, a-b-da, 9, 1, 5, 11, 129, 57, 135, 60, 60, 135, 1, 1.68639
275, 2, bw, attraction, a-b-da, 9, 1, 5, 11, 129, 57, 135, 60, 60, 135, 3, 0.537849
275, 2, bw, attraction, a-b-db, 9, 2, 5, 12, 165, 90, 90, 165, 86, 157, 1, 1.36233
275, 2, bw, attraction, a-b-db, 9, 2, 5, 12, 165, 90, 90, 165, 86, 157, 2, 0.394516
275, 2, bw, attraction, a-b-db, 14, 1, 5, 13, 56, 125, 135, 60, 60, 135, 3, 1.20032
275, 2, bw, attraction, a-b-db, 14, 1, 5, 13, 56, 125, 135, 60, 60, 135, 1, 1.19925
275, 2, bw, filler, NA, 999, 999, 5, 14, 168, 162, 66, 149, 100, 194, 1, 0.764859
275, 2, bw, filler, NA, 999, 999, 5, 14, 168, 162, 66, 149, 100, 194, 2, 0.39721
275, 2, bw, filler, NA, 999, 999, 5, 15, 137, 113, 97, 140, 102, 181, 1, 2.38709
275, 2, bw, filler, NA, 999, 999, 5, 15, 137, 113, 97, 140, 102, 181, 2, 0.546259
275, 2, bw, attraction, a-b-db, 9, 1, 5, 16, 60, 135, 57, 129, 135, 60, 3, 1.26602
275, 2, bw, attraction, a-b-db, 9, 1, 5, 16, 60, 135, 57, 129, 135, 60, 2, 0.614302
275, 2, bw, filler, NA, 999, 999, 5, 17, 158, 178, 90, 114, 87, 122, 1, 0.667356
275, 2, bw, filler, NA, 999, 999, 5, 17, 158, 178, 90, 114, 87, 122, 2, 1.19186
275, 2, bw, attraction, a-b-db, 2, 1, 5, 18, 59, 134, 60, 135, 135, 60, 3, 1.35737
275, 2, bw, attraction, a-b-db, 2, 1, 5, 18, 59, 134, 60, 135, 135, 60, 2, 0.50961
275, 2, bw, catch, NA, 999, 999, 5, 19, 192, 123, 88, 107, 96, 159, 1, 1.12678
275, 2, bw, catch, NA, 999, 999, 5, 19, 192, 123, 88, 107, 96, 159, 2, 0.488499
275, 2, bw, attraction, a-b-da, 5, 2, 5, 20, 165, 90, 90, 165, 161, 88, 3, 1.77878
275, 2, bw, attraction, a-b-da, 5, 2, 5, 20, 165, 90, 90, 165, 161, 88, 2, 0.466281
275, 2, bw, filler, NA, 999, 999, 5, 21, 98, 189, 176, 64, 163, 71, 1, 0.957277
275, 2, bw, filler, NA, 999, 999, 5, 21, 98, 189, 176, 64, 163, 71, 2, 0.829738
275, 2, bw, catch, NA, 999, 999, 5, 22, 146, 169, 120, 75, 101, 154, 1, 0.95405
275, 2, bw, catch, NA, 999, 999, 5, 22, 146, 169, 120, 75, 101, 154, 2, 0.442387
275, 2, bw, attraction, a-b-db, 14, 3, 5, 23, 111, 181, 120, 195, 195, 120, 3, 1.23813
275, 2, bw, attraction, a-b-db, 14, 3, 5, 23, 111, 181, 120, 195, 195, 120, 2, 0.466985
275, 2, bw, attraction, a-b-da, 2, 3, 5, 24, 193, 119, 120, 195, 195, 120, 2, 1.30225
275, 2, bw, attraction, a-b-da, 2, 3, 5, 24, 193, 119, 120, 195, 195, 120, 1, 0.489152
275, 2, bw, attraction, a-b-db, 9, 3, 5, 25, 114, 186, 120, 195, 195, 120, 2, 1.97163
275, 2, bw, attraction, a-b-db, 9, 3, 5, 25, 114, 186, 120, 195, 195, 120, 3, 0.514936
275, 2, bw, attraction, a-b-db, 2, 3, 5, 26, 120, 195, 195, 120, 119, 193, 2, 1.14014
275, 2, bw, attraction, a-b-db, 2, 3, 5, 26, 120, 195, 195, 120, 119, 193, 1, 0.428991
275, 2, bw, filler, NA, 999, 999, 5, 27, 128, 102, 116, 192, 176, 77, 2, 1.3295
275, 2, bw, filler, NA, 999, 999, 5, 27, 128, 102, 116, 192, 176, 77, 1, 1.00298
275, 2, bw, attraction, a-b-db, 5, 3, 5, 28, 195, 120, 120, 195, 117, 190, 1, 1.2247
275, 2, bw, attraction, a-b-db, 5, 3, 5, 28, 195, 120, 120, 195, 117, 190, 2, 0.350278
275, 2, bw, catch, NA, 999, 999, 5, 29, 189, 126, 129, 66, 116, 139, 1, 1.03811
275, 2, bw, catch, NA, 999, 999, 5, 29, 189, 126, 129, 66, 116, 139, 2, 0.619071
275, 2, bw, attraction, a-b-db, 2, 2, 5, 30, 90, 165, 165, 90, 89, 163, 2, 1.06419
275, 2, bw, attraction, a-b-db, 2, 2, 5, 30, 90, 165, 165, 90, 89, 163, 1, 0.836456
275, 2, bw, attraction, a-b-da, 2, 1, 5, 31, 135, 60, 60, 135, 134, 59, 1, 1.45681
275, 2, bw, attraction, a-b-da, 2, 1, 5, 31, 135, 60, 60, 135, 134, 59, 2, 0.604989
275, 2, bw, attraction, a-b-da, 9, 2, 5, 32, 165, 90, 157, 86, 90, 165, 2, 1.09879
275, 2, bw, attraction, a-b-da, 9, 2, 5, 32, 165, 90, 157, 86, 90, 165, 1, 0.981684
275, 2, bw, attraction, a-b-da, 14, 2, 5, 33, 90, 165, 165, 90, 153, 83, 3, 1.11601
275, 2, bw, attraction, a-b-da, 14, 2, 5, 33, 90, 165, 165, 90, 153, 83, 2, 0.350266
275, 2, bw, attraction, a-b-db, 5, 1, 5, 34, 58, 132, 135, 60, 60, 135, 2, 1.42213
275, 2, bw, attraction, a-b-db, 5, 1, 5, 34, 58, 132, 135, 60, 60, 135, 1, 0.611626
275, 2, bw, filler, NA, 999, 999, 5, 35, 87, 90, 185, 167, 63, 174, 2, 0.640726
275, 2, bw, filler, NA, 999, 999, 5, 35, 87, 90, 185, 167, 63, 174, 1, 0.509771
275, 2, bw, filler, NA, 999, 999, 5, 36, 97, 122, 123, 83, 103, 161, 3, 0.831079
275, 2, bw, filler, NA, 999, 999, 5, 36, 97, 122, 123, 83, 103, 161, 2, 0.452711
275, 2, bw, attraction, a-b-db, 14, 2, 5, 37, 90, 165, 165, 90, 83, 153, 2, 1.36858
275, 2, bw, attraction, a-b-db, 14, 2, 5, 37, 90, 165, 165, 90, 83, 153, 1, 0.400687
275, 2, bw, attraction, a-b-db, 14, 1, 6, 1, 60, 135, 135, 60, 56, 125, 2, 2.73455
275, 2, bw, attraction, a-b-db, 14, 1, 6, 1, 60, 135, 135, 60, 56, 125, 3, 0.423624
275, 2, bw, filler, NA, 999, 999, 6, 2, 144, 111, 87, 193, 168, 189, 3, 0.70811
275, 2, bw, filler, NA, 999, 999, 6, 2, 144, 111, 87, 193, 168, 189, 2, 1.0625
275, 2, bw, attraction, a-b-da, 9, 3, 6, 3, 120, 195, 195, 120, 186, 114, 1, 1.74541
275, 2, bw, attraction, a-b-da, 9, 3, 6, 3, 120, 195, 195, 120, 186, 114, 2, 0.546219
275, 2, bw, attraction, a-b-da, 9, 1, 6, 4, 60, 135, 129, 57, 135, 60, 2, 1.282
275, 2, bw, attraction, a-b-da, 9, 1, 6, 4, 60, 135, 129, 57, 135, 60, 1, 0.717551
275, 2, bw, catch, NA, 999, 999, 6, 5, 120, 195, 135, 60, 145, 110, 1, 1.27061
275, 2, bw, catch, NA, 999, 999, 6, 5, 120, 195, 135, 60, 145, 110, 2, 0.690971
275, 2, bw, filler, NA, 999, 999, 6, 6, 163, 170, 144, 61, 189, 88, 1, 0.852637
275, 2, bw, filler, NA, 999, 999, 6, 6, 163, 170, 144, 61, 189, 88, 2, 0.713621
275, 2, bw, filler, NA, 999, 999, 6, 7, 71, 153, 194, 73, 90, 166, 3, 1.07478
275, 2, bw, filler, NA, 999, 999, 6, 7, 71, 153, 194, 73, 90, 166, 1, 1.00632
275, 2, bw, catch, NA, 999, 999, 6, 8, 91, 104, 169, 146, 114, 141, 2, 0.875321
275, 2, bw, catch, NA, 999, 999, 6, 8, 91, 104, 169, 146, 114, 141, 1, 0.710878
275, 2, bw, attraction, a-b-db, 5, 2, 6, 9, 90, 165, 88, 161, 165, 90, 3, 2.17615
275, 2, bw, attraction, a-b-db, 5, 2, 6, 9, 90, 165, 88, 161, 165, 90, 2, 0.455298
275, 2, bw, attraction, a-b-db, 14, 3, 6, 10, 111, 181, 195, 120, 120, 195, 3, 0.779052
275, 2, bw, attraction, a-b-db, 14, 3, 6, 10, 111, 181, 195, 120, 120, 195, 2, 1.59486
275, 2, bw, filler, NA, 999, 999, 6, 11, 95, 70, 145, 127, 59, 73, 2, 0.968274
275, 2, bw, filler, NA, 999, 999, 6, 11, 95, 70, 145, 127, 59, 73, 3, 1.20861
275, 2, bw, attraction, a-b-db, 2, 3, 6, 12, 195, 120, 120, 195, 119, 193, 2, 2.51753
275, 2, bw, attraction, a-b-db, 2, 3, 6, 12, 195, 120, 120, 195, 119, 193, 1, 0.471366
275, 2, bw, attraction, a-b-db, 5, 3, 6, 13, 195, 120, 117, 190, 120, 195, 1, 1.72253
275, 2, bw, attraction, a-b-db, 5, 3, 6, 13, 195, 120, 117, 190, 120, 195, 2, 0.667925
275, 2, bw, filler, NA, 999, 999, 6, 14, 151, 97, 73, 70, 62, 176, 1, 1.14312
275, 2, bw, filler, NA, 999, 999, 6, 14, 151, 97, 73, 70, 62, 176, 2, 0.575941
275, 2, bw, attraction, a-b-db, 5, 1, 6, 15, 58, 132, 135, 60, 60, 135, 3, 1.65438
275, 2, bw, attraction, a-b-db, 5, 1, 6, 15, 58, 132, 135, 60, 60, 135, 2, 0.490444
275, 2, bw, attraction, a-b-da, 14, 2, 6, 16, 90, 165, 153, 83, 165, 90, 1, 1.37229
275, 2, bw, attraction, a-b-da, 14, 2, 6, 16, 90, 165, 153, 83, 165, 90, 2, 0.803959
275, 2, bw, attraction, a-b-da, 5, 1, 6, 17, 132, 58, 60, 135, 135, 60, 2, 1.18546
275, 2, bw, attraction, a-b-da, 5, 1, 6, 17, 132, 58, 60, 135, 135, 60, 1, 1.01712
275, 2, bw, attraction, a-b-da, 9, 2, 6, 18, 90, 165, 157, 86, 165, 90, 1, 1.10204
275, 2, bw, attraction, a-b-da, 9, 2, 6, 18, 90, 165, 157, 86, 165, 90, 2, 0.44913
275, 2, bw, attraction, a-b-db, 9, 3, 6, 19, 120, 195, 114, 186, 195, 120, 2, 1.12478
275, 2, bw, attraction, a-b-db, 9, 3, 6, 19, 120, 195, 114, 186, 195, 120, 3, 0.606443
275, 2, bw, filler, NA, 999, 999, 6, 20, 131, 177, 178, 150, 80, 87, 2, 1.19546
275, 2, bw, filler, NA, 999, 999, 6, 20, 131, 177, 178, 150, 80, 87, 3, 0.730492
275, 2, bw, attraction, a-b-da, 14, 1, 6, 21, 135, 60, 125, 56, 60, 135, 3, 1.89088
275, 2, bw, attraction, a-b-da, 14, 1, 6, 21, 135, 60, 125, 56, 60, 135, 2, 0.429559
275, 2, bw, attraction, a-b-da, 14, 3, 6, 22, 195, 120, 120, 195, 181, 111, 2, 1.31404
275, 2, bw, attraction, a-b-da, 14, 3, 6, 22, 195, 120, 120, 195, 181, 111, 1, 0.636259
275, 2, bw, attraction, a-b-da, 5, 3, 6, 23, 190, 117, 195, 120, 120, 195, 3, 0.824689
275, 2, bw, attraction, a-b-da, 5, 3, 6, 23, 190, 117, 195, 120, 120, 195, 2, 0.486381
275, 2, bw, filler, NA, 999, 999, 6, 24, 76, 56, 129, 152, 161, 184, 2, 0.816771
275, 2, bw, filler, NA, 999, 999, 6, 24, 76, 56, 129, 152, 161, 184, 1, 0.775267
275, 2, bw, attraction, a-b-da, 2, 2, 6, 25, 165, 90, 163, 89, 90, 165, 1, 1.28555
275, 2, bw, attraction, a-b-da, 2, 2, 6, 25, 165, 90, 163, 89, 90, 165, 2, 0.425237
275, 2, bw, attraction, a-b-da, 2, 3, 6, 26, 120, 195, 193, 119, 195, 120, 3, 0.91773
275, 2, bw, attraction, a-b-da, 2, 3, 6, 26, 120, 195, 193, 119, 195, 120, 2, 0.519977
275, 2, bw, attraction, a-b-da, 5, 2, 6, 27, 90, 165, 161, 88, 165, 90, 1, 2.20906
275, 2, bw, attraction, a-b-da, 5, 2, 6, 27, 90, 165, 161, 88, 165, 90, 2, 0.799102
275, 2, bw, attraction, a-b-db, 14, 2, 6, 28, 165, 90, 90, 165, 83, 153, 2, 2.10068
275, 2, bw, attraction, a-b-db, 14, 2, 6, 28, 165, 90, 90, 165, 83, 153, 1, 0.471337
275, 2, bw, attraction, a-b-db, 2, 1, 6, 29, 59, 134, 60, 135, 135, 60, 3, 2.32256
275, 2, bw, attraction, a-b-db, 2, 1, 6, 29, 59, 134, 60, 135, 135, 60, 2, 0.61177
275, 2, bw, filler, NA, 999, 999, 6, 30, 149, 78, 172, 173, 67, 63, 2, 0.904864
275, 2, bw, filler, NA, 999, 999, 6, 30, 149, 78, 172, 173, 67, 63, 3, 0.803194
275, 2, bw, attraction, a-b-da, 2, 1, 6, 31, 60, 135, 135, 60, 134, 59, 2, 1.33686
275, 2, bw, attraction, a-b-da, 2, 1, 6, 31, 60, 135, 135, 60, 134, 59, 1, 0.594417
275, 2, bw, attraction, a-b-db, 9, 2, 6, 32, 90, 165, 86, 157, 165, 90, 2, 1.41612
275, 2, bw, attraction, a-b-db, 9, 2, 6, 32, 90, 165, 86, 157, 165, 90, 1, 0.590434
275, 2, bw, filler, NA, 999, 999, 6, 33, 79, 193, 121, 192, 184, 176, 3, 0.796132
275, 2, bw, filler, NA, 999, 999, 6, 33, 79, 193, 121, 192, 184, 176, 1, 0.571225
275, 2, bw, filler, NA, 999, 999, 6, 34, 176, 166, 74, 155, 122, 136, 1, 1.01835
275, 2, bw, filler, NA, 999, 999, 6, 34, 176, 166, 74, 155, 122, 136, 2, 0.496716
275, 2, bw, attraction, a-b-db, 2, 2, 6, 35, 90, 165, 89, 163, 165, 90, 3, 1.70646
275, 2, bw, attraction, a-b-db, 2, 2, 6, 35, 90, 165, 89, 163, 165, 90, 2, 2.42056
275, 2, bw, catch, NA, 999, 999, 6, 36, 130, 185, 118, 137, 100, 95, 1, 1.16097
275, 2, bw, catch, NA, 999, 999, 6, 36, 130, 185, 118, 137, 100, 95, 3, 0.689327
275, 2, bw, attraction, a-b-db, 9, 1, 6, 37, 57, 129, 60, 135, 135, 60, 3, 1.09978
275, 2, bw, attraction, a-b-db, 9, 1, 6, 37, 57, 129, 60, 135, 135, 60, 2, 0.558668
275, 2, bw, attraction, a-b-da, 2, 2, 7, 1, 90, 165, 165, 90, 163, 89, 1, 1.42178
275, 2, bw, attraction, a-b-da, 2, 2, 7, 1, 90, 165, 165, 90, 163, 89, 3, 1.15542
275, 2, bw, attraction, a-b-da, 5, 2, 7, 2, 161, 88, 165, 90, 90, 165, 2, 2.61094
275, 2, bw, attraction, a-b-da, 5, 2, 7, 2, 161, 88, 165, 90, 90, 165, 1, 0.408724
275, 2, bw, attraction, a-b-db, 5, 3, 7, 3, 120, 195, 117, 190, 195, 120, 3, 1.88584
275, 2, bw, attraction, a-b-db, 5, 3, 7, 3, 120, 195, 117, 190, 195, 120, 2, 0.41726
275, 2, bw, attraction, a-b-db, 9, 2, 7, 4, 86, 157, 165, 90, 90, 165, 2, 2.08635
275, 2, bw, attraction, a-b-db, 9, 2, 7, 4, 86, 157, 165, 90, 90, 165, 1, 0.449769
275, 2, bw, attraction, a-b-da, 5, 1, 7, 5, 60, 135, 132, 58, 135, 60, 3, 2.00562
275, 2, bw, attraction, a-b-da, 5, 1, 7, 5, 60, 135, 132, 58, 135, 60, 2, 0.45959
275, 2, bw, filler, NA, 999, 999, 7, 6, 68, 145, 170, 102, 85, 133, 2, 1.43075
275, 2, bw, filler, NA, 999, 999, 7, 6, 68, 145, 170, 102, 85, 133, 1, 0.65221
275, 2, bw, attraction, a-b-db, 9, 1, 7, 7, 60, 135, 135, 60, 57, 129, 1, 3.63993
275, 2, bw, attraction, a-b-db, 9, 1, 7, 7, 60, 135, 135, 60, 57, 129, 2, 0.452263
275, 2, bw, filler, NA, 999, 999, 7, 8, 184, 96, 113, 156, 160, 94, 1, 1.98386
275, 2, bw, filler, NA, 999, 999, 7, 8, 184, 96, 113, 156, 160, 94, 3, 0.999239
275, 2, bw, filler, NA, 999, 999, 7, 9, 82, 194, 156, 94, 146, 57, 1, 2.07692
275, 2, bw, filler, NA, 999, 999, 7, 9, 82, 194, 156, 94, 146, 57, 3, 0.704288
275, 2, bw, catch, NA, 999, 999, 7, 10, 112, 143, 100, 95, 188, 127, 3, 0.889967
275, 2, bw, catch, NA, 999, 999, 7, 10, 112, 143, 100, 95, 188, 127, 2, 0.428987
275, 2, bw, attraction, a-b-da, 2, 3, 7, 11, 193, 119, 195, 120, 120, 195, 2, 1.76938
275, 2, bw, attraction, a-b-da, 2, 3, 7, 11, 193, 119, 195, 120, 120, 195, 1, 0.673509
275, 2, bw, attraction, a-b-db, 2, 2, 7, 12, 165, 90, 89, 163, 90, 165, 3, 2.204
275, 2, bw, attraction, a-b-db, 2, 2, 7, 12, 165, 90, 89, 163, 90, 165, 1, 0.641808
275, 2, bw, attraction, a-b-da, 14, 3, 7, 13, 195, 120, 181, 111, 120, 195, 3, 0.917751
275, 2, bw, attraction, a-b-da, 14, 3, 7, 13, 195, 120, 181, 111, 120, 195, 2, 0.687901
275, 2, bw, filler, NA, 999, 999, 7, 14, 132, 79, 89, 101, 116, 146, 3, 1.00238
275, 2, bw, filler, NA, 999, 999, 7, 14, 132, 79, 89, 101, 116, 146, 2, 0.465303
275, 2, bw, attraction, a-b-da, 2, 1, 7, 15, 60, 135, 135, 60, 134, 59, 3, 1.53249
275, 2, bw, attraction, a-b-da, 2, 1, 7, 15, 60, 135, 135, 60, 134, 59, 1, 0.438053
275, 2, bw, attraction, a-b-da, 14, 2, 7, 16, 153, 83, 90, 165, 165, 90, 1, 1.07443
275, 2, bw, attraction, a-b-da, 14, 2, 7, 16, 153, 83, 90, 165, 165, 90, 2, 0.438065
275, 2, bw, attraction, a-b-da, 14, 1, 7, 17, 135, 60, 60, 135, 125, 56, 1, 2.8265
275, 2, bw, attraction, a-b-da, 14, 1, 7, 17, 135, 60, 60, 135, 125, 56, 3, 0.695674
275, 2, bw, attraction, a-b-db, 14, 1, 7, 18, 56, 125, 135, 60, 60, 135, 2, 2.93738
275, 2, bw, attraction, a-b-db, 14, 1, 7, 18, 56, 125, 135, 60, 60, 135, 1, 0.602418
275, 2, bw, attraction, a-b-db, 5, 1, 7, 19, 60, 135, 58, 132, 135, 60, 3, 1.89624
275, 2, bw, attraction, a-b-db, 5, 1, 7, 19, 60, 135, 58, 132, 135, 60, 2, 0.730941
275, 2, bw, attraction, a-b-db, 14, 3, 7, 20, 111, 181, 195, 120, 120, 195, 2, 2.62733
275, 2, bw, attraction, a-b-db, 14, 3, 7, 20, 111, 181, 195, 120, 120, 195, 1, 0.600485
275, 2, bw, attraction, a-b-da, 9, 1, 7, 21, 129, 57, 135, 60, 60, 135, 3, 2.35832
275, 2, bw, attraction, a-b-da, 9, 1, 7, 21, 129, 57, 135, 60, 60, 135, 1, 1.07804
275, 2, bw, attraction, a-b-db, 5, 2, 7, 22, 90, 165, 165, 90, 88, 161, 2, 2.38447
275, 2, bw, attraction, a-b-db, 5, 2, 7, 22, 90, 165, 165, 90, 88, 161, 3, 0.471683
275, 2, bw, attraction, a-b-da, 5, 3, 7, 23, 195, 120, 190, 117, 120, 195, 3, 1.37871
275, 2, bw, attraction, a-b-da, 5, 3, 7, 23, 195, 120, 190, 117, 120, 195, 2, 0.906285
275, 2, bw, filler, NA, 999, 999, 7, 24, 189, 174, 173, 102, 87, 173, 1, 0.835244
275, 2, bw, filler, NA, 999, 999, 7, 24, 189, 174, 173, 102, 87, 173, 2, 0.664936
275, 2, bw, attraction, a-b-db, 2, 3, 7, 25, 195, 120, 119, 193, 120, 195, 1, 2.22815
275, 2, bw, attraction, a-b-db, 2, 3, 7, 25, 195, 120, 119, 193, 120, 195, 2, 0.425318
275, 2, bw, attraction, a-b-db, 2, 1, 7, 26, 135, 60, 60, 135, 59, 134, 1, 2.61377
275, 2, bw, attraction, a-b-db, 2, 1, 7, 26, 135, 60, 60, 135, 59, 134, 2, 0.859736
275, 2, bw, attraction, a-b-da, 9, 2, 7, 27, 90, 165, 157, 86, 165, 90, 1, 2.19065
275, 2, bw, attraction, a-b-da, 9, 2, 7, 27, 90, 165, 157, 86, 165, 90, 2, 0.653203
275, 2, bw, filler, NA, 999, 999, 7, 28, 168, 88, 62, 177, 181, 181, 3, 0.888977
275, 2, bw, filler, NA, 999, 999, 7, 28, 168, 88, 62, 177, 181, 181, 2, 1.13194
275, 2, bw, filler, NA, 999, 999, 7, 29, 116, 57, 183, 147, 124, 162, 2, 0.980252
275, 2, bw, filler, NA, 999, 999, 7, 29, 116, 57, 183, 147, 124, 162, 1, 0.499884
275, 2, bw, attraction, a-b-db, 14, 2, 7, 30, 165, 90, 90, 165, 83, 153, 1, 1.86164
275, 2, bw, attraction, a-b-db, 14, 2, 7, 30, 165, 90, 90, 165, 83, 153, 3, 0.777844
275, 2, bw, attraction, a-b-da, 9, 3, 7, 31, 195, 120, 120, 195, 186, 114, 1, 1.97613
275, 2, bw, attraction, a-b-da, 9, 3, 7, 31, 195, 120, 120, 195, 186, 114, 3, 0.679516
275, 2, bw, filler, NA, 999, 999, 7, 32, 84, 99, 116, 117, 132, 126, 3, 1.546
275, 2, bw, filler, NA, 999, 999, 7, 32, 84, 99, 116, 117, 132, 126, 1, 0.482642
275, 2, bw, filler, NA, 999, 999, 7, 33, 135, 80, 106, 150, 113, 156, 3, 2.58118
275, 2, bw, filler, NA, 999, 999, 7, 33, 135, 80, 106, 150, 113, 156, 1, 0.492337
275, 2, bw, filler, NA, 999, 999, 7, 34, 151, 146, 67, 83, 111, 183, 1, 1.27806
275, 2, bw, filler, NA, 999, 999, 7, 34, 151, 146, 67, 83, 111, 183, 2, 0.433632
275, 2, bw, attraction, a-b-db, 9, 3, 7, 35, 195, 120, 114, 186, 120, 195, 3, 2.87817
275, 2, bw, attraction, a-b-db, 9, 3, 7, 35, 195, 120, 114, 186, 120, 195, 2, 0.785246
275, 2, bw, catch, NA, 999, 999, 7, 36, 96, 99, 134, 181, 96, 159, 2, 1.3196
275, 2, bw, catch, NA, 999, 999, 7, 36, 96, 99, 134, 181, 96, 159, 1, 0.745835
275, 2, bw, catch, NA, 999, 999, 7, 37, 108, 87, 156, 159, 138, 117, 2, 0.881532
275, 2, bw, catch, NA, 999, 999, 7, 37, 108, 87, 156, 159, 138, 117, 1, 0.517343
275, 2, bw, filler, NA, 999, 999, 8, 1, 195, 64, 193, 111, 74, 80, 2, 1.07832
275, 2, bw, filler, NA, 999, 999, 8, 1, 195, 64, 193, 111, 74, 80, 3, 0.569975
275, 2, bw, attraction, a-b-db, 9, 1, 8, 2, 57, 129, 135, 60, 60, 135, 3, 2.44913
275, 2, bw, attraction, a-b-db, 9, 1, 8, 2, 57, 129, 135, 60, 60, 135, 1, 1.34964
275, 2, bw, catch, NA, 999, 999, 8, 3, 60, 135, 134, 121, 124, 191, 3, 0.677123
275, 2, bw, catch, NA, 999, 999, 8, 3, 60, 135, 134, 121, 124, 191, 1, 0.576871
275, 2, bw, attraction, a-b-da, 14, 1, 8, 4, 125, 56, 135, 60, 60, 135, 2, 1.7353
275, 2, bw, attraction, a-b-da, 14, 1, 8, 4, 125, 56, 135, 60, 60, 135, 1, 1.11279
275, 2, bw, filler, NA, 999, 999, 8, 5, 116, 155, 82, 81, 109, 71, 1, 0.753615
275, 2, bw, filler, NA, 999, 999, 8, 5, 116, 155, 82, 81, 109, 71, 2, 0.578743
275, 2, bw, attraction, a-b-da, 9, 1, 8, 6, 60, 135, 129, 57, 135, 60, 3, 1.3772
275, 2, bw, attraction, a-b-da, 9, 1, 8, 6, 60, 135, 129, 57, 135, 60, 1, 0.472734
275, 2, bw, attraction, a-b-da, 14, 3, 8, 7, 195, 120, 181, 111, 120, 195, 3, 1.45121
275, 2, bw, attraction, a-b-da, 14, 3, 8, 7, 195, 120, 181, 111, 120, 195, 2, 0.447957
275, 2, bw, attraction, a-b-db, 2, 3, 8, 8, 195, 120, 120, 195, 119, 193, 1, 1.9318
275, 2, bw, attraction, a-b-db, 2, 3, 8, 8, 195, 120, 120, 195, 119, 193, 2, 0.749156
275, 2, bw, attraction, a-b-db, 9, 2, 8, 9, 90, 165, 165, 90, 86, 157, 2, 0.98896
275, 2, bw, attraction, a-b-db, 9, 2, 8, 9, 90, 165, 165, 90, 86, 157, 1, 0.57201
275, 2, bw, attraction, a-b-da, 5, 1, 8, 10, 132, 58, 60, 135, 135, 60, 2, 1.07504
275, 2, bw, attraction, a-b-da, 5, 1, 8, 10, 132, 58, 60, 135, 135, 60, 1, 0.934745
275, 2, bw, filler, NA, 999, 999, 8, 11, 102, 72, 122, 91, 177, 94, 3, 0.926917
275, 2, bw, filler, NA, 999, 999, 8, 11, 102, 72, 122, 91, 177, 94, 1, 0.656638
275, 2, bw, filler, NA, 999, 999, 8, 12, 144, 154, 163, 120, 180, 127, 1, 1.68375
275, 2, bw, filler, NA, 999, 999, 8, 12, 144, 154, 163, 120, 180, 127, 2, 0.631181
275, 2, bw, attraction, a-b-da, 5, 3, 8, 13, 120, 195, 195, 120, 190, 117, 1, 1.96361
275, 2, bw, attraction, a-b-da, 5, 3, 8, 13, 120, 195, 195, 120, 190, 117, 2, 0.595601
275, 2, bw, attraction, a-b-db, 2, 1, 8, 14, 60, 135, 135, 60, 59, 134, 2, 2.56937
275, 2, bw, attraction, a-b-db, 2, 1, 8, 14, 60, 135, 135, 60, 59, 134, 1, 0.433156
275, 2, bw, attraction, a-b-db, 2, 2, 8, 15, 89, 163, 90, 165, 165, 90, 3, 1.42968
275, 2, bw, attraction, a-b-db, 2, 2, 8, 15, 89, 163, 90, 165, 165, 90, 2, 0.979183
275, 2, bw, attraction, a-b-da, 2, 2, 8, 16, 90, 165, 163, 89, 165, 90, 1, 1.69747
275, 2, bw, attraction, a-b-da, 2, 2, 8, 16, 90, 165, 163, 89, 165, 90, 2, 0.548371
275, 2, bw, filler, NA, 999, 999, 8, 17, 95, 65, 119, 122, 132, 118, 2, 1.04402
275, 2, bw, filler, NA, 999, 999, 8, 17, 95, 65, 119, 122, 132, 118, 1, 0.409235
275, 2, bw, attraction, a-b-db, 9, 3, 8, 18, 114, 186, 195, 120, 120, 195, 3, 1.0222
275, 2, bw, attraction, a-b-db, 9, 3, 8, 18, 114, 186, 195, 120, 120, 195, 2, 0.619839
275, 2, bw, attraction, a-b-db, 5, 3, 8, 19, 120, 195, 195, 120, 117, 190, 1, 1.87287
275, 2, bw, attraction, a-b-db, 5, 3, 8, 19, 120, 195, 195, 120, 117, 190, 2, 0.39629
275, 2, bw, attraction, a-b-da, 9, 3, 8, 20, 186, 114, 195, 120, 120, 195, 3, 1.54607
275, 2, bw, attraction, a-b-da, 9, 3, 8, 20, 186, 114, 195, 120, 120, 195, 1, 0.402901
275, 2, bw, filler, NA, 999, 999, 8, 21, 70, 72, 176, 123, 185, 61, 2, 1.17668
275, 2, bw, filler, NA, 999, 999, 8, 21, 70, 72, 176, 123, 185, 61, 1, 0.456406
275, 2, bw, attraction, a-b-da, 2, 3, 8, 22, 195, 120, 120, 195, 193, 119, 1, 2.27548
275, 2, bw, attraction, a-b-da, 2, 3, 8, 22, 195, 120, 120, 195, 193, 119, 2, 0.406871
275, 2, bw, attraction, a-b-db, 14, 2, 8, 23, 83, 153, 165, 90, 90, 165, 3, 0.955938
275, 2, bw, attraction, a-b-db, 14, 2, 8, 23, 83, 153, 165, 90, 90, 165, 2, 0.492174
275, 2, bw, filler, NA, 999, 999, 8, 24, 166, 121, 56, 174, 110, 175, 1, 0.75802
275, 2, bw, filler, NA, 999, 999, 8, 24, 166, 121, 56, 174, 110, 175, 2, 0.45462
275, 2, bw, attraction, a-b-db, 14, 3, 8, 25, 111, 181, 120, 195, 195, 120, 2, 1.7302
275, 2, bw, attraction, a-b-db, 14, 3, 8, 25, 111, 181, 120, 195, 195, 120, 3, 0.827737
275, 2, bw, filler, NA, 999, 999, 8, 26, 118, 169, 181, 192, 170, 194, 3, 0.783978
275, 2, bw, filler, NA, 999, 999, 8, 26, 118, 169, 181, 192, 170, 194, 1, 0.519714
275, 2, bw, catch, NA, 999, 999, 8, 27, 129, 126, 150, 165, 94, 101, 2, 0.872839
275, 2, bw, catch, NA, 999, 999, 8, 27, 129, 126, 150, 165, 94, 101, 3, 0.468563
275, 2, bw, attraction, a-b-db, 5, 2, 8, 28, 165, 90, 90, 165, 88, 161, 2, 1.88776
275, 2, bw, attraction, a-b-db, 5, 2, 8, 28, 165, 90, 90, 165, 88, 161, 1, 0.338445
275, 2, bw, attraction, a-b-da, 14, 2, 8, 29, 153, 83, 90, 165, 165, 90, 3, 1.16285
275, 2, bw, attraction, a-b-da, 14, 2, 8, 29, 153, 83, 90, 165, 165, 90, 2, 0.419189
275, 2, bw, attraction, a-b-da, 2, 1, 8, 30, 135, 60, 134, 59, 60, 135, 3, 2.17674
275, 2, bw, attraction, a-b-da, 2, 1, 8, 30, 135, 60, 134, 59, 60, 135, 2, 0.999626
275, 2, bw, filler, NA, 999, 999, 8, 31, 133, 90, 137, 96, 87, 165, 3, 2.24523
275, 2, bw, filler, NA, 999, 999, 8, 31, 133, 90, 137, 96, 87, 165, 2, 0.833932
275, 2, bw, filler, NA, 999, 999, 8, 32, 155, 63, 74, 87, 97, 85, 1, 1.67827
275, 2, bw, filler, NA, 999, 999, 8, 32, 155, 63, 74, 87, 97, 85, 2, 0.73773
275, 2, bw, attraction, a-b-da, 5, 2, 8, 33, 165, 90, 90, 165, 161, 88, 1, 1.83394
275, 2, bw, attraction, a-b-da, 5, 2, 8, 33, 165, 90, 90, 165, 161, 88, 2, 0.423382
275, 2, bw, attraction, a-b-db, 14, 1, 8, 34, 135, 60, 56, 125, 60, 135, 2, 1.07599
275, 2, bw, attraction, a-b-db, 14, 1, 8, 34, 135, 60, 56, 125, 60, 135, 1, 0.48752
275, 2, bw, catch, NA, 999, 999, 8, 35, 190, 125, 97, 98, 161, 94, 1, 0.881966
275, 2, bw, catch, NA, 999, 999, 8, 35, 190, 125, 97, 98, 161, 94, 2, 0.421685
275, 2, bw, attraction, a-b-db, 5, 1, 8, 36, 60, 135, 58, 132, 135, 60, 3, 1.92283
275, 2, bw, attraction, a-b-db, 5, 1, 8, 36, 60, 135, 58, 132, 135, 60, 1, 0.484169
275, 2, bw, attraction, a-b-da, 9, 2, 8, 37, 165, 90, 157, 86, 90, 165, 1, 1.20661
275, 2, bw, attraction, a-b-da, 9, 2, 8, 37, 165, 90, 157, 86, 90, 165, 2, 0.540841
