sub_n, computer_n, bw_cond, effect, set, distance, diag, block_n, trial_n, h1, w1, h2, w2, h3, w3, choice, rt 
221, 2, bw, practice, NA, 999, 999, 0, 1, 69, 132, 151, 171, 72, 96, 2, 2.35834
221, 2, bw, practice, NA, 999, 999, 0, 1, 69, 132, 151, 171, 72, 96, 3, 1.97331
221, 2, bw, practice, NA, 999, 999, 0, 2, 92, 110, 65, 73, 177, 113, 3, 1.66665
221, 2, bw, practice, NA, 999, 999, 0, 2, 92, 110, 65, 73, 177, 113, 2, 0.846741
221, 2, bw, practice, NA, 999, 999, 0, 3, 134, 86, 68, 161, 105, 165, 3, 3.15769
221, 2, bw, practice, NA, 999, 999, 0, 3, 134, 86, 68, 161, 105, 165, 2, 2.53489
221, 2, bw, attraction, a-b-da, 9, 1, 1, 1, 60, 135, 129, 57, 135, 60, 1, 5.65332
221, 2, bw, attraction, a-b-da, 9, 1, 1, 1, 60, 135, 129, 57, 135, 60, 2, 0.824786
221, 2, bw, attraction, a-b-db, 5, 1, 1, 2, 135, 60, 58, 132, 60, 135, 1, 6.30921
221, 2, bw, attraction, a-b-db, 5, 1, 1, 2, 135, 60, 58, 132, 60, 135, 2, 1.52585
221, 2, bw, filler, NA, 999, 999, 1, 3, 156, 69, 167, 103, 80, 195, 2, 1.31005
221, 2, bw, filler, NA, 999, 999, 1, 3, 156, 69, 167, 103, 80, 195, 1, 1.0403
221, 2, bw, attraction, a-b-da, 5, 3, 1, 4, 120, 195, 195, 120, 190, 117, 1, 2.07591
221, 2, bw, attraction, a-b-da, 5, 3, 1, 4, 120, 195, 195, 120, 190, 117, 3, 0.783108
221, 2, bw, attraction, a-b-db, 9, 1, 1, 5, 57, 129, 60, 135, 135, 60, 3, 4.57352
221, 2, bw, attraction, a-b-db, 9, 1, 1, 5, 57, 129, 60, 135, 135, 60, 1, 0.412105
221, 2, bw, attraction, a-b-db, 9, 2, 1, 6, 86, 157, 90, 165, 165, 90, 2, 2.82524
221, 2, bw, attraction, a-b-db, 9, 2, 1, 6, 86, 157, 90, 165, 165, 90, 3, 0.350218
221, 2, bw, attraction, a-b-db, 14, 1, 1, 7, 135, 60, 60, 135, 56, 125, 1, 1.50206
221, 2, bw, attraction, a-b-db, 14, 1, 1, 7, 135, 60, 60, 135, 56, 125, 3, 0.384894
221, 2, bw, attraction, a-b-da, 9, 2, 1, 8, 157, 86, 165, 90, 90, 165, 3, 3.05543
221, 2, bw, attraction, a-b-da, 9, 2, 1, 8, 157, 86, 165, 90, 90, 165, 1, 0.315159
221, 2, bw, catch, NA, 999, 999, 1, 9, 125, 130, 66, 129, 139, 176, 3, 1.28429
221, 2, bw, catch, NA, 999, 999, 1, 9, 125, 130, 66, 129, 139, 176, 2, 0.303857
221, 2, bw, attraction, a-b-db, 14, 2, 1, 10, 90, 165, 83, 153, 165, 90, 1, 2.17769
221, 2, bw, attraction, a-b-db, 14, 2, 1, 10, 90, 165, 83, 153, 165, 90, 2, 0.368944
221, 2, bw, filler, NA, 999, 999, 1, 11, 155, 129, 79, 99, 145, 142, 3, 2.54418
221, 2, bw, filler, NA, 999, 999, 1, 11, 155, 129, 79, 99, 145, 142, 2, 0.960632
221, 2, bw, attraction, a-b-da, 2, 2, 1, 12, 163, 89, 165, 90, 90, 165, 2, 3.69562
221, 2, bw, attraction, a-b-da, 2, 2, 1, 12, 163, 89, 165, 90, 90, 165, 3, 0.281795
221, 2, bw, attraction, a-b-da, 5, 1, 1, 13, 132, 58, 60, 135, 135, 60, 1, 1.7003
221, 2, bw, attraction, a-b-da, 5, 1, 1, 13, 132, 58, 60, 135, 135, 60, 2, 0.319049
221, 2, bw, attraction, a-b-db, 2, 1, 1, 14, 59, 134, 60, 135, 135, 60, 3, 1.34421
221, 2, bw, attraction, a-b-db, 2, 1, 1, 14, 59, 134, 60, 135, 135, 60, 2, 0.289179
221, 2, bw, filler, NA, 999, 999, 1, 15, 78, 64, 62, 146, 100, 139, 3, 1.02772
221, 2, bw, filler, NA, 999, 999, 1, 15, 78, 64, 62, 146, 100, 139, 1, 0.369364
221, 2, bw, attraction, a-b-db, 2, 3, 1, 16, 195, 120, 120, 195, 119, 193, 1, 4.36054
221, 2, bw, attraction, a-b-db, 2, 3, 1, 16, 195, 120, 120, 195, 119, 193, 3, 0.575744
221, 2, bw, attraction, a-b-db, 9, 3, 1, 17, 120, 195, 195, 120, 114, 186, 1, 1.79016
221, 2, bw, attraction, a-b-db, 9, 3, 1, 17, 120, 195, 195, 120, 114, 186, 3, 0.268921
221, 2, bw, attraction, a-b-db, 5, 3, 1, 18, 195, 120, 120, 195, 117, 190, 2, 2.16819
221, 2, bw, attraction, a-b-db, 5, 3, 1, 18, 195, 120, 120, 195, 117, 190, 3, 0.272068
221, 2, bw, attraction, a-b-da, 14, 2, 1, 19, 165, 90, 90, 165, 153, 83, 1, 2.4753
221, 2, bw, attraction, a-b-da, 14, 2, 1, 19, 165, 90, 90, 165, 153, 83, 3, 0.438456
221, 2, bw, attraction, a-b-da, 2, 3, 1, 20, 193, 119, 195, 120, 120, 195, 1, 2.54699
221, 2, bw, attraction, a-b-da, 2, 3, 1, 20, 193, 119, 195, 120, 120, 195, 2, 0.251411
221, 2, bw, filler, NA, 999, 999, 1, 21, 178, 129, 102, 118, 130, 172, 1, 1.97535
221, 2, bw, filler, NA, 999, 999, 1, 21, 178, 129, 102, 118, 130, 172, 2, 0.302644
221, 2, bw, filler, NA, 999, 999, 1, 22, 190, 65, 129, 195, 185, 72, 2, 2.60057
221, 2, bw, filler, NA, 999, 999, 1, 22, 190, 65, 129, 195, 185, 72, 1, 0.823011
221, 2, bw, attraction, a-b-db, 5, 2, 1, 23, 165, 90, 88, 161, 90, 165, 1, 3.13143
221, 2, bw, attraction, a-b-db, 5, 2, 1, 23, 165, 90, 88, 161, 90, 165, 2, 0.364371
221, 2, bw, attraction, a-b-da, 14, 1, 1, 24, 60, 135, 135, 60, 125, 56, 1, 2.26757
221, 2, bw, attraction, a-b-da, 14, 1, 1, 24, 60, 135, 135, 60, 125, 56, 3, 0.839974
221, 2, bw, attraction, a-b-db, 2, 2, 1, 25, 165, 90, 89, 163, 90, 165, 2, 3.18713
221, 2, bw, attraction, a-b-db, 2, 2, 1, 25, 165, 90, 89, 163, 90, 165, 3, 0.346117
221, 2, bw, attraction, a-b-da, 9, 3, 1, 26, 120, 195, 186, 114, 195, 120, 1, 2.40196
221, 2, bw, attraction, a-b-da, 9, 3, 1, 26, 120, 195, 186, 114, 195, 120, 2, 0.456498
221, 2, bw, filler, NA, 999, 999, 1, 27, 190, 194, 88, 115, 69, 86, 1, 1.08359
221, 2, bw, filler, NA, 999, 999, 1, 27, 190, 194, 88, 115, 69, 86, 3, 0.551288
221, 2, bw, filler, NA, 999, 999, 1, 28, 147, 106, 99, 171, 147, 127, 3, 1.44699
221, 2, bw, filler, NA, 999, 999, 1, 28, 147, 106, 99, 171, 147, 127, 1, 0.515867
221, 2, bw, catch, NA, 999, 999, 1, 29, 83, 112, 144, 171, 154, 101, 2, 0.901025
221, 2, bw, catch, NA, 999, 999, 1, 29, 83, 112, 144, 171, 154, 101, 1, 0.407975
221, 2, bw, attraction, a-b-da, 2, 1, 1, 30, 134, 59, 60, 135, 135, 60, 1, 1.30112
221, 2, bw, attraction, a-b-da, 2, 1, 1, 30, 134, 59, 60, 135, 135, 60, 2, 0.368192
221, 2, bw, attraction, a-b-da, 5, 2, 1, 31, 161, 88, 165, 90, 90, 165, 2, 1.37523
221, 2, bw, attraction, a-b-da, 5, 2, 1, 31, 161, 88, 165, 90, 90, 165, 3, 0.27891
221, 2, bw, filler, NA, 999, 999, 1, 32, 138, 150, 92, 140, 121, 140, 1, 0.953443
221, 2, bw, filler, NA, 999, 999, 1, 32, 138, 150, 92, 140, 121, 140, 2, 0.617625
221, 2, bw, attraction, a-b-db, 14, 3, 1, 33, 120, 195, 195, 120, 111, 181, 1, 1.31078
221, 2, bw, attraction, a-b-db, 14, 3, 1, 33, 120, 195, 195, 120, 111, 181, 3, 0.457071
221, 2, bw, filler, NA, 999, 999, 1, 34, 132, 103, 192, 141, 106, 106, 2, 1.10017
221, 2, bw, filler, NA, 999, 999, 1, 34, 132, 103, 192, 141, 106, 106, 3, 0.439138
221, 2, bw, filler, NA, 999, 999, 1, 35, 66, 77, 97, 117, 62, 148, 2, 0.851614
221, 2, bw, filler, NA, 999, 999, 1, 35, 66, 77, 97, 117, 62, 148, 1, 0.368572
221, 2, bw, catch, NA, 999, 999, 1, 36, 124, 71, 159, 96, 128, 187, 3, 0.815775
221, 2, bw, catch, NA, 999, 999, 1, 36, 124, 71, 159, 96, 128, 187, 1, 0.422218
221, 2, bw, attraction, a-b-da, 14, 3, 1, 37, 120, 195, 195, 120, 181, 111, 1, 1.04336
221, 2, bw, attraction, a-b-da, 14, 3, 1, 37, 120, 195, 195, 120, 181, 111, 3, 0.280246
221, 2, bw, attraction, a-b-db, 2, 1, 2, 1, 60, 135, 59, 134, 135, 60, 2, 0.882712
221, 2, bw, attraction, a-b-db, 2, 1, 2, 1, 60, 135, 59, 134, 135, 60, 3, 0.38589
221, 2, bw, attraction, a-b-db, 9, 2, 2, 2, 165, 90, 86, 157, 90, 165, 2, 1.25295
221, 2, bw, attraction, a-b-db, 9, 2, 2, 2, 165, 90, 86, 157, 90, 165, 3, 0.297877
221, 2, bw, catch, NA, 999, 999, 2, 3, 132, 183, 79, 116, 116, 139, 1, 0.891741
221, 2, bw, catch, NA, 999, 999, 2, 3, 132, 183, 79, 116, 116, 139, 2, 0.422927
221, 2, bw, catch, NA, 999, 999, 2, 4, 138, 177, 104, 91, 96, 159, 1, 0.891115
221, 2, bw, catch, NA, 999, 999, 2, 4, 138, 177, 104, 91, 96, 159, 2, 0.334319
221, 2, bw, attraction, a-b-da, 14, 2, 2, 5, 165, 90, 90, 165, 153, 83, 2, 0.854727
221, 2, bw, attraction, a-b-da, 14, 2, 2, 5, 165, 90, 90, 165, 153, 83, 3, 0.435068
221, 2, bw, filler, NA, 999, 999, 2, 6, 148, 72, 112, 73, 114, 77, 1, 3.33561
221, 2, bw, filler, NA, 999, 999, 2, 6, 148, 72, 112, 73, 114, 77, 2, 0.50449
221, 2, bw, attraction, a-b-db, 14, 1, 2, 7, 56, 125, 135, 60, 60, 135, 2, 1.80351
221, 2, bw, attraction, a-b-db, 14, 1, 2, 7, 56, 125, 135, 60, 60, 135, 1, 0.518956
221, 2, bw, filler, NA, 999, 999, 2, 8, 168, 102, 117, 120, 107, 111, 2, 1.48954
221, 2, bw, filler, NA, 999, 999, 2, 8, 168, 102, 117, 120, 107, 111, 3, 0.332388
221, 2, bw, attraction, a-b-da, 2, 1, 2, 9, 134, 59, 135, 60, 60, 135, 2, 0.788847
221, 2, bw, attraction, a-b-da, 2, 1, 2, 9, 134, 59, 135, 60, 60, 135, 1, 0.267907
221, 2, bw, attraction, a-b-da, 14, 1, 2, 10, 125, 56, 60, 135, 135, 60, 2, 0.631118
221, 2, bw, attraction, a-b-da, 14, 1, 2, 10, 125, 56, 60, 135, 135, 60, 3, 0.404938
221, 2, bw, filler, NA, 999, 999, 2, 11, 97, 177, 67, 117, 121, 104, 1, 0.754673
221, 2, bw, filler, NA, 999, 999, 2, 11, 97, 177, 67, 117, 121, 104, 2, 0.267062
221, 2, bw, attraction, a-b-da, 5, 2, 2, 12, 90, 165, 161, 88, 165, 90, 2, 0.726261
221, 2, bw, attraction, a-b-da, 5, 2, 2, 12, 90, 165, 161, 88, 165, 90, 1, 0.400004
221, 2, bw, attraction, a-b-da, 9, 2, 2, 13, 157, 86, 165, 90, 90, 165, 2, 0.757887
221, 2, bw, attraction, a-b-da, 9, 2, 2, 13, 157, 86, 165, 90, 90, 165, 3, 0.278238
221, 2, bw, filler, NA, 999, 999, 2, 14, 188, 143, 149, 109, 86, 156, 1, 0.776764
221, 2, bw, filler, NA, 999, 999, 2, 14, 188, 143, 149, 109, 86, 156, 2, 0.256438
221, 2, bw, attraction, a-b-db, 5, 2, 2, 15, 88, 161, 90, 165, 165, 90, 2, 0.803661
221, 2, bw, attraction, a-b-db, 5, 2, 2, 15, 88, 161, 90, 165, 165, 90, 3, 0.658741
221, 2, bw, filler, NA, 999, 999, 2, 16, 100, 109, 85, 169, 175, 96, 2, 0.685974
221, 2, bw, filler, NA, 999, 999, 2, 16, 100, 109, 85, 169, 175, 96, 1, 0.345705
221, 2, bw, attraction, a-b-db, 9, 3, 2, 17, 195, 120, 114, 186, 120, 195, 3, 0.889496
221, 2, bw, attraction, a-b-db, 9, 3, 2, 17, 195, 120, 114, 186, 120, 195, 2, 0.668446
221, 2, bw, attraction, a-b-da, 2, 3, 2, 18, 120, 195, 195, 120, 193, 119, 2, 0.767512
221, 2, bw, attraction, a-b-da, 2, 3, 2, 18, 120, 195, 195, 120, 193, 119, 1, 0.311923
221, 2, bw, filler, NA, 999, 999, 2, 19, 72, 182, 160, 168, 56, 137, 2, 0.833152
221, 2, bw, filler, NA, 999, 999, 2, 19, 72, 182, 160, 168, 56, 137, 3, 0.366794
221, 2, bw, filler, NA, 999, 999, 2, 20, 171, 98, 128, 144, 123, 142, 2, 1.09401
221, 2, bw, filler, NA, 999, 999, 2, 20, 171, 98, 128, 144, 123, 142, 3, 0.256865
221, 2, bw, attraction, a-b-db, 5, 1, 2, 21, 60, 135, 135, 60, 58, 132, 1, 1.16409
221, 2, bw, attraction, a-b-db, 5, 1, 2, 21, 60, 135, 135, 60, 58, 132, 3, 0.316379
221, 2, bw, attraction, a-b-da, 2, 2, 2, 22, 163, 89, 165, 90, 90, 165, 2, 0.813607
221, 2, bw, attraction, a-b-da, 2, 2, 2, 22, 163, 89, 165, 90, 90, 165, 1, 0.252054
221, 2, bw, attraction, a-b-db, 5, 3, 2, 23, 117, 190, 195, 120, 120, 195, 1, 0.991861
221, 2, bw, attraction, a-b-db, 5, 3, 2, 23, 117, 190, 195, 120, 120, 195, 3, 0.230729
221, 2, bw, attraction, a-b-db, 2, 3, 2, 24, 119, 193, 120, 195, 195, 120, 2, 0.491362
221, 2, bw, attraction, a-b-db, 2, 3, 2, 24, 119, 193, 120, 195, 195, 120, 1, 0.206481
221, 2, bw, attraction, a-b-da, 5, 1, 2, 25, 132, 58, 60, 135, 135, 60, 1, 0.747639
221, 2, bw, attraction, a-b-da, 5, 1, 2, 25, 132, 58, 60, 135, 135, 60, 3, 0.516764
221, 2, bw, attraction, a-b-db, 14, 2, 2, 26, 165, 90, 83, 153, 90, 165, 1, 0.49384
221, 2, bw, attraction, a-b-db, 14, 2, 2, 26, 165, 90, 83, 153, 90, 165, 2, 2.49706
221, 2, bw, attraction, a-b-da, 5, 3, 2, 27, 195, 120, 120, 195, 190, 117, 1, 0.938212
221, 2, bw, attraction, a-b-da, 5, 3, 2, 27, 195, 120, 120, 195, 190, 117, 3, 0.219195
221, 2, bw, catch, NA, 999, 999, 2, 28, 91, 164, 70, 125, 142, 173, 3, 0.856433
221, 2, bw, catch, NA, 999, 999, 2, 28, 91, 164, 70, 125, 142, 173, 2, 0.772923
221, 2, bw, attraction, a-b-da, 14, 3, 2, 29, 195, 120, 120, 195, 181, 111, 1, 1.77923
221, 2, bw, attraction, a-b-da, 14, 3, 2, 29, 195, 120, 120, 195, 181, 111, 3, 0.458573
221, 2, bw, attraction, a-b-db, 2, 2, 2, 30, 90, 165, 89, 163, 165, 90, 2, 1.19773
221, 2, bw, attraction, a-b-db, 2, 2, 2, 30, 90, 165, 89, 163, 165, 90, 1, 0.292635
221, 2, bw, filler, NA, 999, 999, 2, 31, 72, 138, 118, 183, 108, 157, 2, 0.998393
221, 2, bw, filler, NA, 999, 999, 2, 31, 72, 138, 118, 183, 108, 157, 1, 0.413544
221, 2, bw, filler, NA, 999, 999, 2, 32, 71, 159, 133, 97, 187, 93, 3, 3.64264
221, 2, bw, filler, NA, 999, 999, 2, 32, 71, 159, 133, 97, 187, 93, 2, 0.302795
221, 2, bw, filler, NA, 999, 999, 2, 33, 72, 152, 129, 162, 182, 145, 2, 0.672631
221, 2, bw, filler, NA, 999, 999, 2, 33, 72, 152, 129, 162, 182, 145, 1, 0.780479
221, 2, bw, attraction, a-b-db, 14, 3, 2, 34, 120, 195, 111, 181, 195, 120, 1, 1.57075
221, 2, bw, attraction, a-b-db, 14, 3, 2, 34, 120, 195, 111, 181, 195, 120, 2, 0.258207
221, 2, bw, attraction, a-b-da, 9, 3, 2, 35, 186, 114, 195, 120, 120, 195, 2, 3.86157
221, 2, bw, attraction, a-b-da, 9, 3, 2, 35, 186, 114, 195, 120, 120, 195, 1, 0.288878
221, 2, bw, attraction, a-b-da, 9, 1, 2, 36, 60, 135, 129, 57, 135, 60, 2, 2.2914
221, 2, bw, attraction, a-b-da, 9, 1, 2, 36, 60, 135, 129, 57, 135, 60, 3, 0.229965
221, 2, bw, attraction, a-b-db, 9, 1, 2, 37, 135, 60, 60, 135, 57, 129, 2, 1.45864
221, 2, bw, attraction, a-b-db, 9, 1, 2, 37, 135, 60, 60, 135, 57, 129, 3, 0.254815
221, 2, bw, attraction, a-b-db, 9, 1, 3, 1, 57, 129, 60, 135, 135, 60, 2, 0.642599
221, 2, bw, attraction, a-b-db, 9, 1, 3, 1, 57, 129, 60, 135, 135, 60, 1, 0.223608
221, 2, bw, attraction, a-b-db, 9, 2, 3, 2, 90, 165, 165, 90, 86, 157, 1, 0.860187
221, 2, bw, attraction, a-b-db, 9, 2, 3, 2, 90, 165, 165, 90, 86, 157, 3, 0.192563
221, 2, bw, catch, NA, 999, 999, 3, 3, 76, 119, 175, 140, 127, 128, 2, 0.470416
221, 2, bw, catch, NA, 999, 999, 3, 3, 76, 119, 175, 140, 127, 128, 3, 0.242266
221, 2, bw, attraction, a-b-da, 2, 3, 3, 4, 120, 195, 193, 119, 195, 120, 3, 1.13422
221, 2, bw, attraction, a-b-da, 2, 3, 3, 4, 120, 195, 193, 119, 195, 120, 2, 0.183843
221, 2, bw, filler, NA, 999, 999, 3, 5, 105, 66, 193, 116, 82, 76, 2, 0.878314
221, 2, bw, filler, NA, 999, 999, 3, 5, 105, 66, 193, 116, 82, 76, 3, 0.266044
221, 2, bw, catch, NA, 999, 999, 3, 6, 162, 153, 99, 156, 132, 63, 1, 0.885223
221, 2, bw, catch, NA, 999, 999, 3, 6, 162, 153, 99, 156, 132, 63, 3, 0.408947
221, 2, bw, attraction, a-b-db, 5, 3, 3, 7, 117, 190, 120, 195, 195, 120, 2, 0.92601
221, 2, bw, attraction, a-b-db, 5, 3, 3, 7, 117, 190, 120, 195, 195, 120, 1, 0.247658
221, 2, bw, filler, NA, 999, 999, 3, 8, 103, 82, 56, 126, 63, 152, 1, 2.7717
221, 2, bw, filler, NA, 999, 999, 3, 8, 103, 82, 56, 126, 63, 152, 2, 0.250784
221, 2, bw, attraction, a-b-da, 14, 3, 3, 9, 120, 195, 181, 111, 195, 120, 3, 2.74274
221, 2, bw, attraction, a-b-da, 14, 3, 3, 9, 120, 195, 181, 111, 195, 120, 2, 0.247014
221, 2, bw, attraction, a-b-da, 9, 2, 3, 10, 165, 90, 157, 86, 90, 165, 1, 1.8188
221, 2, bw, attraction, a-b-da, 9, 2, 3, 10, 165, 90, 157, 86, 90, 165, 2, 0.25701
221, 2, bw, filler, NA, 999, 999, 3, 11, 112, 68, 191, 114, 105, 127, 2, 0.812171
221, 2, bw, filler, NA, 999, 999, 3, 11, 112, 68, 191, 114, 105, 127, 3, 0.850579
221, 2, bw, attraction, a-b-db, 14, 3, 3, 12, 195, 120, 111, 181, 120, 195, 1, 1.90222
221, 2, bw, attraction, a-b-db, 14, 3, 3, 12, 195, 120, 111, 181, 120, 195, 2, 0.240946
221, 2, bw, attraction, a-b-da, 9, 1, 3, 13, 129, 57, 135, 60, 60, 135, 2, 3.96484
221, 2, bw, attraction, a-b-da, 9, 1, 3, 13, 129, 57, 135, 60, 60, 135, 1, 1.34831
221, 2, bw, attraction, a-b-db, 14, 2, 3, 14, 83, 153, 90, 165, 165, 90, 2, 1.06776
221, 2, bw, attraction, a-b-db, 14, 2, 3, 14, 83, 153, 90, 165, 165, 90, 1, 0.608018
221, 2, bw, attraction, a-b-da, 5, 2, 3, 15, 161, 88, 165, 90, 90, 165, 2, 1.84519
221, 2, bw, attraction, a-b-da, 5, 2, 3, 15, 161, 88, 165, 90, 90, 165, 1, 0.233768
221, 2, bw, filler, NA, 999, 999, 3, 16, 70, 81, 194, 182, 95, 72, 2, 0.702397
221, 2, bw, filler, NA, 999, 999, 3, 16, 70, 81, 194, 182, 95, 72, 1, 0.377442
221, 2, bw, attraction, a-b-db, 5, 2, 3, 17, 90, 165, 88, 161, 165, 90, 1, 1.17599
221, 2, bw, attraction, a-b-db, 5, 2, 3, 17, 90, 165, 88, 161, 165, 90, 2, 0.247546
221, 2, bw, attraction, a-b-da, 14, 1, 3, 18, 135, 60, 60, 135, 125, 56, 2, 0.763442
221, 2, bw, attraction, a-b-da, 14, 1, 3, 18, 135, 60, 60, 135, 125, 56, 3, 1.67585
221, 2, bw, attraction, a-b-db, 5, 1, 3, 19, 60, 135, 135, 60, 58, 132, 2, 0.845876
221, 2, bw, attraction, a-b-db, 5, 1, 3, 19, 60, 135, 135, 60, 58, 132, 1, 0.298951
221, 2, bw, catch, NA, 999, 999, 3, 20, 161, 94, 120, 75, 165, 150, 3, 0.772852
221, 2, bw, catch, NA, 999, 999, 3, 20, 161, 94, 120, 75, 165, 150, 2, 0.39653
221, 2, bw, attraction, a-b-db, 9, 3, 3, 21, 114, 186, 195, 120, 120, 195, 2, 2.03431
221, 2, bw, attraction, a-b-db, 9, 3, 3, 21, 114, 186, 195, 120, 120, 195, 3, 0.279617
221, 2, bw, filler, NA, 999, 999, 3, 22, 184, 187, 148, 72, 106, 65, 1, 0.594142
221, 2, bw, filler, NA, 999, 999, 3, 22, 184, 187, 148, 72, 106, 65, 3, 0.289273
221, 2, bw, attraction, a-b-da, 5, 1, 3, 23, 60, 135, 132, 58, 135, 60, 3, 0.795842
221, 2, bw, attraction, a-b-da, 5, 1, 3, 23, 60, 135, 132, 58, 135, 60, 2, 0.603039
221, 2, bw, filler, NA, 999, 999, 3, 24, 67, 95, 81, 186, 155, 86, 2, 0.664639
221, 2, bw, filler, NA, 999, 999, 3, 24, 67, 95, 81, 186, 155, 86, 1, 0.237083
221, 2, bw, attraction, a-b-db, 2, 3, 3, 25, 119, 193, 195, 120, 120, 195, 1, 0.681638
221, 2, bw, attraction, a-b-db, 2, 3, 3, 25, 119, 193, 195, 120, 120, 195, 3, 0.245456
221, 2, bw, attraction, a-b-da, 2, 2, 3, 26, 90, 165, 163, 89, 165, 90, 2, 0.633276
221, 2, bw, attraction, a-b-da, 2, 2, 3, 26, 90, 165, 163, 89, 165, 90, 1, 0.199048
221, 2, bw, attraction, a-b-db, 14, 1, 3, 27, 135, 60, 60, 135, 56, 125, 1, 0.612914
221, 2, bw, attraction, a-b-db, 14, 1, 3, 27, 135, 60, 60, 135, 56, 125, 2, 0.21938
221, 2, bw, attraction, a-b-db, 2, 1, 3, 28, 60, 135, 135, 60, 59, 134, 2, 0.512539
221, 2, bw, attraction, a-b-db, 2, 1, 3, 28, 60, 135, 135, 60, 59, 134, 1, 0.186968
221, 2, bw, filler, NA, 999, 999, 3, 29, 60, 122, 68, 91, 100, 152, 3, 0.697581
221, 2, bw, filler, NA, 999, 999, 3, 29, 60, 122, 68, 91, 100, 152, 2, 0.756673
221, 2, bw, filler, NA, 999, 999, 3, 30, 81, 181, 73, 178, 182, 172, 3, 0.499711
221, 2, bw, filler, NA, 999, 999, 3, 30, 81, 181, 73, 178, 182, 172, 2, 0.534967
221, 2, bw, attraction, a-b-da, 2, 1, 3, 31, 135, 60, 134, 59, 60, 135, 1, 0.615261
221, 2, bw, attraction, a-b-da, 2, 1, 3, 31, 135, 60, 134, 59, 60, 135, 2, 0.213727
221, 2, bw, filler, NA, 999, 999, 3, 32, 69, 192, 87, 82, 101, 144, 3, 0.402952
221, 2, bw, filler, NA, 999, 999, 3, 32, 69, 192, 87, 82, 101, 144, 2, 0.241551
221, 2, bw, attraction, a-b-db, 2, 2, 3, 33, 89, 163, 90, 165, 165, 90, 2, 0.789408
221, 2, bw, attraction, a-b-db, 2, 2, 3, 33, 89, 163, 90, 165, 165, 90, 3, 0.436407
221, 2, bw, filler, NA, 999, 999, 3, 34, 112, 138, 83, 145, 153, 158, 3, 0.696832
221, 2, bw, filler, NA, 999, 999, 3, 34, 112, 138, 83, 145, 153, 158, 2, 0.251913
221, 2, bw, attraction, a-b-da, 14, 2, 3, 35, 153, 83, 90, 165, 165, 90, 2, 0.71979
221, 2, bw, attraction, a-b-da, 14, 2, 3, 35, 153, 83, 90, 165, 165, 90, 1, 1.04952
221, 2, bw, attraction, a-b-da, 9, 3, 3, 36, 195, 120, 120, 195, 186, 114, 2, 0.589101
221, 2, bw, attraction, a-b-da, 9, 3, 3, 36, 195, 120, 120, 195, 186, 114, 3, 0.452246
221, 2, bw, attraction, a-b-da, 5, 3, 3, 37, 190, 117, 195, 120, 120, 195, 3, 0.912084
221, 2, bw, attraction, a-b-da, 5, 3, 3, 37, 190, 117, 195, 120, 120, 195, 2, 0.218424
221, 2, bw, attraction, a-b-db, 5, 2, 4, 1, 165, 90, 90, 165, 88, 161, 1, 1.01564
221, 2, bw, attraction, a-b-db, 5, 2, 4, 1, 165, 90, 90, 165, 88, 161, 2, 0.205919
221, 2, bw, attraction, a-b-da, 9, 2, 4, 2, 157, 86, 90, 165, 165, 90, 2, 0.523813
221, 2, bw, attraction, a-b-da, 9, 2, 4, 2, 157, 86, 90, 165, 165, 90, 3, 0.493747
221, 2, bw, attraction, a-b-db, 2, 2, 4, 3, 89, 163, 90, 165, 165, 90, 2, 0.511413
221, 2, bw, attraction, a-b-db, 2, 2, 4, 3, 89, 163, 90, 165, 165, 90, 1, 0.529995
221, 2, bw, attraction, a-b-db, 5, 3, 4, 4, 195, 120, 120, 195, 117, 190, 2, 0.538539
221, 2, bw, attraction, a-b-db, 5, 3, 4, 4, 195, 120, 120, 195, 117, 190, 1, 0.203572
221, 2, bw, attraction, a-b-da, 2, 3, 4, 5, 195, 120, 120, 195, 193, 119, 2, 0.377413
221, 2, bw, attraction, a-b-da, 2, 3, 4, 5, 195, 120, 120, 195, 193, 119, 1, 0.217255
221, 2, bw, attraction, a-b-da, 5, 1, 4, 6, 132, 58, 60, 135, 135, 60, 2, 0.638449
221, 2, bw, attraction, a-b-da, 5, 1, 4, 6, 132, 58, 60, 135, 135, 60, 1, 0.243574
221, 2, bw, attraction, a-b-db, 2, 1, 4, 7, 135, 60, 60, 135, 59, 134, 2, 0.367386
221, 2, bw, attraction, a-b-db, 2, 1, 4, 7, 135, 60, 60, 135, 59, 134, 1, 0.799901
221, 2, bw, attraction, a-b-db, 14, 1, 4, 8, 135, 60, 56, 125, 60, 135, 2, 0.405738
221, 2, bw, attraction, a-b-db, 14, 1, 4, 8, 135, 60, 56, 125, 60, 135, 1, 0.244188
221, 2, bw, attraction, a-b-db, 9, 3, 4, 9, 195, 120, 114, 186, 120, 195, 3, 1.78407
221, 2, bw, attraction, a-b-db, 9, 3, 4, 9, 195, 120, 114, 186, 120, 195, 2, 0.239448
221, 2, bw, attraction, a-b-db, 2, 3, 4, 10, 120, 195, 195, 120, 119, 193, 1, 0.675435
221, 2, bw, attraction, a-b-db, 2, 3, 4, 10, 120, 195, 195, 120, 119, 193, 3, 0.215119
221, 2, bw, filler, NA, 999, 999, 4, 11, 186, 71, 157, 141, 174, 163, 3, 0.708264
221, 2, bw, filler, NA, 999, 999, 4, 11, 186, 71, 157, 141, 174, 163, 1, 1.30268
221, 2, bw, attraction, a-b-da, 5, 3, 4, 12, 190, 117, 195, 120, 120, 195, 3, 0.704214
221, 2, bw, attraction, a-b-da, 5, 3, 4, 12, 190, 117, 195, 120, 120, 195, 1, 0.266626
221, 2, bw, filler, NA, 999, 999, 4, 13, 61, 99, 180, 84, 193, 83, 2, 0.53378
221, 2, bw, filler, NA, 999, 999, 4, 13, 61, 99, 180, 84, 193, 83, 1, 0.311583
221, 2, bw, filler, NA, 999, 999, 4, 14, 144, 58, 192, 181, 164, 172, 2, 0.432742
221, 2, bw, filler, NA, 999, 999, 4, 14, 144, 58, 192, 181, 164, 172, 1, 0.550712
221, 2, bw, filler, NA, 999, 999, 4, 15, 128, 84, 131, 128, 159, 188, 2, 0.494377
221, 2, bw, filler, NA, 999, 999, 4, 15, 128, 84, 131, 128, 159, 188, 1, 0.329534
221, 2, bw, attraction, a-b-db, 5, 1, 4, 16, 135, 60, 58, 132, 60, 135, 1, 0.666072
221, 2, bw, attraction, a-b-db, 5, 1, 4, 16, 135, 60, 58, 132, 60, 135, 2, 0.526512
221, 2, bw, filler, NA, 999, 999, 4, 17, 100, 77, 123, 123, 132, 158, 3, 0.486853
221, 2, bw, filler, NA, 999, 999, 4, 17, 100, 77, 123, 123, 132, 158, 1, 0.906053
221, 2, bw, attraction, a-b-db, 9, 2, 4, 18, 165, 90, 86, 157, 90, 165, 1, 0.659041
221, 2, bw, attraction, a-b-db, 9, 2, 4, 18, 165, 90, 86, 157, 90, 165, 2, 0.215466
221, 2, bw, attraction, a-b-db, 14, 2, 4, 19, 90, 165, 165, 90, 83, 153, 1, 0.46887
221, 2, bw, attraction, a-b-db, 14, 2, 4, 19, 90, 165, 165, 90, 83, 153, 3, 0.225177
221, 2, bw, attraction, a-b-da, 14, 1, 4, 20, 60, 135, 125, 56, 135, 60, 1, 0.461742
221, 2, bw, attraction, a-b-da, 14, 1, 4, 20, 60, 135, 125, 56, 135, 60, 3, 0.218421
221, 2, bw, catch, NA, 999, 999, 4, 21, 145, 110, 106, 89, 121, 194, 1, 0.279389
221, 2, bw, catch, NA, 999, 999, 4, 21, 145, 110, 106, 89, 121, 194, 2, 1.01154
221, 2, bw, attraction, a-b-da, 2, 1, 4, 22, 60, 135, 135, 60, 134, 59, 2, 0.936244
221, 2, bw, attraction, a-b-da, 2, 1, 4, 22, 60, 135, 135, 60, 134, 59, 1, 0.130391
221, 2, bw, attraction, a-b-da, 5, 2, 4, 23, 161, 88, 165, 90, 90, 165, 3, 1.08262
221, 2, bw, attraction, a-b-da, 5, 2, 4, 23, 161, 88, 165, 90, 90, 165, 2, 0.510419
221, 2, bw, catch, NA, 999, 999, 4, 24, 123, 132, 80, 115, 193, 122, 3, 0.511419
221, 2, bw, catch, NA, 999, 999, 4, 24, 123, 132, 80, 115, 193, 122, 1, 0.241846
221, 2, bw, filler, NA, 999, 999, 4, 25, 111, 163, 183, 123, 58, 75, 2, 0.557602
221, 2, bw, filler, NA, 999, 999, 4, 25, 111, 163, 183, 123, 58, 75, 3, 0.478071
221, 2, bw, filler, NA, 999, 999, 4, 26, 162, 191, 105, 189, 68, 122, 1, 0.456556
221, 2, bw, filler, NA, 999, 999, 4, 26, 162, 191, 105, 189, 68, 122, 3, 0.253063
221, 2, bw, filler, NA, 999, 999, 4, 27, 68, 159, 116, 94, 195, 57, 2, 0.928994
221, 2, bw, filler, NA, 999, 999, 4, 27, 68, 159, 116, 94, 195, 57, 3, 0.314613
221, 2, bw, attraction, a-b-da, 9, 3, 4, 28, 120, 195, 186, 114, 195, 120, 3, 0.899803
221, 2, bw, attraction, a-b-da, 9, 3, 4, 28, 120, 195, 186, 114, 195, 120, 2, 0.222858
221, 2, bw, attraction, a-b-db, 14, 3, 4, 29, 120, 195, 195, 120, 111, 181, 2, 0.595481
221, 2, bw, attraction, a-b-db, 14, 3, 4, 29, 120, 195, 195, 120, 111, 181, 1, 0.218464
221, 2, bw, catch, NA, 999, 999, 4, 30, 124, 191, 161, 94, 84, 111, 1, 0.455693
221, 2, bw, catch, NA, 999, 999, 4, 30, 124, 191, 161, 94, 84, 111, 3, 0.804197
221, 2, bw, attraction, a-b-da, 9, 1, 4, 31, 129, 57, 135, 60, 60, 135, 3, 0.625797
221, 2, bw, attraction, a-b-da, 9, 1, 4, 31, 129, 57, 135, 60, 60, 135, 1, 0.215673
221, 2, bw, filler, NA, 999, 999, 4, 32, 157, 145, 69, 65, 131, 172, 1, 0.476803
221, 2, bw, filler, NA, 999, 999, 4, 32, 157, 145, 69, 65, 131, 172, 2, 0.240612
221, 2, bw, attraction, a-b-da, 14, 3, 4, 33, 120, 195, 181, 111, 195, 120, 3, 0.652537
221, 2, bw, attraction, a-b-da, 14, 3, 4, 33, 120, 195, 181, 111, 195, 120, 1, 0.265585
221, 2, bw, filler, NA, 999, 999, 4, 34, 186, 158, 124, 139, 106, 184, 1, 0.564855
221, 2, bw, filler, NA, 999, 999, 4, 34, 186, 158, 124, 139, 106, 184, 2, 0.237277
221, 2, bw, attraction, a-b-da, 2, 2, 4, 35, 163, 89, 90, 165, 165, 90, 2, 0.593782
221, 2, bw, attraction, a-b-da, 2, 2, 4, 35, 163, 89, 90, 165, 165, 90, 3, 0.241125
221, 2, bw, attraction, a-b-db, 9, 1, 4, 36, 135, 60, 57, 129, 60, 135, 2, 0.532789
221, 2, bw, attraction, a-b-db, 9, 1, 4, 36, 135, 60, 57, 129, 60, 135, 1, 0.198578
221, 2, bw, attraction, a-b-da, 14, 2, 4, 37, 153, 83, 90, 165, 165, 90, 2, 0.468479
221, 2, bw, attraction, a-b-da, 14, 2, 4, 37, 153, 83, 90, 165, 165, 90, 3, 0.233135
221, 2, bw, attraction, a-b-db, 14, 3, 5, 1, 195, 120, 111, 181, 120, 195, 3, 14.9403
221, 2, bw, attraction, a-b-db, 14, 3, 5, 1, 195, 120, 111, 181, 120, 195, 2, 0.577491
221, 2, bw, attraction, a-b-da, 2, 1, 5, 2, 134, 59, 60, 135, 135, 60, 2, 0.815835
221, 2, bw, attraction, a-b-da, 2, 1, 5, 2, 134, 59, 60, 135, 135, 60, 3, 0.246335
221, 2, bw, attraction, a-b-da, 9, 1, 5, 3, 129, 57, 60, 135, 135, 60, 2, 0.45812
221, 2, bw, attraction, a-b-da, 9, 1, 5, 3, 129, 57, 60, 135, 135, 60, 3, 0.638658
221, 2, bw, filler, NA, 999, 999, 5, 4, 180, 64, 142, 150, 179, 161, 3, 0.787036
221, 2, bw, filler, NA, 999, 999, 5, 4, 180, 64, 142, 150, 179, 161, 1, 0.530809
221, 2, bw, filler, NA, 999, 999, 5, 5, 174, 186, 176, 101, 132, 158, 1, 0.683264
221, 2, bw, filler, NA, 999, 999, 5, 5, 174, 186, 176, 101, 132, 158, 3, 0.246976
221, 2, bw, attraction, a-b-da, 5, 2, 5, 6, 161, 88, 90, 165, 165, 90, 2, 11.2109
221, 2, bw, attraction, a-b-da, 5, 2, 5, 6, 161, 88, 90, 165, 165, 90, 3, 0.285966
221, 2, bw, attraction, a-b-da, 5, 1, 5, 7, 132, 58, 60, 135, 135, 60, 2, 0.77666
221, 2, bw, attraction, a-b-da, 5, 1, 5, 7, 132, 58, 60, 135, 135, 60, 3, 0.512784
221, 2, bw, attraction, a-b-db, 2, 1, 5, 8, 60, 135, 135, 60, 59, 134, 2, 0.473314
221, 2, bw, attraction, a-b-db, 2, 1, 5, 8, 60, 135, 135, 60, 59, 134, 1, 0.197224
221, 2, bw, attraction, a-b-db, 5, 2, 5, 9, 90, 165, 88, 161, 165, 90, 2, 0.451054
221, 2, bw, attraction, a-b-db, 5, 2, 5, 9, 90, 165, 88, 161, 165, 90, 3, 0.216199
221, 2, bw, filler, NA, 999, 999, 5, 10, 73, 151, 106, 188, 73, 118, 2, 0.437381
221, 2, bw, filler, NA, 999, 999, 5, 10, 73, 151, 106, 188, 73, 118, 3, 0.210538
221, 2, bw, attraction, a-b-da, 14, 1, 5, 11, 125, 56, 60, 135, 135, 60, 2, 0.932842
221, 2, bw, attraction, a-b-da, 14, 1, 5, 11, 125, 56, 60, 135, 135, 60, 1, 0.345565
221, 2, bw, attraction, a-b-da, 14, 2, 5, 12, 153, 83, 90, 165, 165, 90, 2, 0.841433
221, 2, bw, attraction, a-b-da, 14, 2, 5, 12, 153, 83, 90, 165, 165, 90, 1, 0.814575
221, 2, bw, attraction, a-b-da, 5, 3, 5, 13, 120, 195, 190, 117, 195, 120, 1, 1.53948
221, 2, bw, attraction, a-b-da, 5, 3, 5, 13, 120, 195, 190, 117, 195, 120, 3, 0.20427
221, 2, bw, attraction, a-b-db, 2, 2, 5, 14, 165, 90, 89, 163, 90, 165, 2, 0.650147
221, 2, bw, attraction, a-b-db, 2, 2, 5, 14, 165, 90, 89, 163, 90, 165, 1, 0.207175
221, 2, bw, attraction, a-b-db, 5, 1, 5, 15, 135, 60, 58, 132, 60, 135, 1, 0.58842
221, 2, bw, attraction, a-b-db, 5, 1, 5, 15, 135, 60, 58, 132, 60, 135, 2, 0.227633
221, 2, bw, catch, NA, 999, 999, 5, 16, 141, 114, 129, 66, 158, 157, 3, 0.592053
221, 2, bw, catch, NA, 999, 999, 5, 16, 141, 114, 129, 66, 158, 157, 2, 0.367219
221, 2, bw, filler, NA, 999, 999, 5, 17, 173, 107, 106, 138, 57, 82, 2, 0.526329
221, 2, bw, filler, NA, 999, 999, 5, 17, 173, 107, 106, 138, 57, 82, 3, 0.208158
221, 2, bw, attraction, a-b-db, 14, 1, 5, 18, 56, 125, 60, 135, 135, 60, 2, 0.805454
221, 2, bw, attraction, a-b-db, 14, 1, 5, 18, 56, 125, 60, 135, 135, 60, 1, 0.187716
221, 2, bw, filler, NA, 999, 999, 5, 19, 57, 163, 122, 132, 137, 193, 2, 0.954309
221, 2, bw, filler, NA, 999, 999, 5, 19, 57, 163, 122, 132, 137, 193, 1, 0.194626
221, 2, bw, attraction, a-b-db, 9, 1, 5, 20, 135, 60, 60, 135, 57, 129, 2, 0.60058
221, 2, bw, attraction, a-b-db, 9, 1, 5, 20, 135, 60, 60, 135, 57, 129, 1, 0.664255
221, 2, bw, filler, NA, 999, 999, 5, 21, 184, 67, 129, 104, 174, 119, 3, 1.40271
221, 2, bw, filler, NA, 999, 999, 5, 21, 184, 67, 129, 104, 174, 119, 1, 0.22553
221, 2, bw, attraction, a-b-da, 2, 3, 5, 22, 120, 195, 193, 119, 195, 120, 2, 1.08614
221, 2, bw, attraction, a-b-da, 2, 3, 5, 22, 120, 195, 193, 119, 195, 120, 3, 0.193974
221, 2, bw, attraction, a-b-da, 2, 2, 5, 23, 163, 89, 165, 90, 90, 165, 2, 1.56766
221, 2, bw, attraction, a-b-da, 2, 2, 5, 23, 163, 89, 165, 90, 90, 165, 1, 0.183796
221, 2, bw, attraction, a-b-da, 9, 2, 5, 24, 165, 90, 157, 86, 90, 165, 2, 0.526354
221, 2, bw, attraction, a-b-da, 9, 2, 5, 24, 165, 90, 157, 86, 90, 165, 1, 0.168134
221, 2, bw, attraction, a-b-da, 9, 3, 5, 25, 186, 114, 195, 120, 120, 195, 2, 0.415409
221, 2, bw, attraction, a-b-da, 9, 3, 5, 25, 186, 114, 195, 120, 120, 195, 1, 0.181871
221, 2, bw, attraction, a-b-db, 2, 3, 5, 26, 119, 193, 195, 120, 120, 195, 2, 0.356469
221, 2, bw, attraction, a-b-db, 2, 3, 5, 26, 119, 193, 195, 120, 120, 195, 1, 0.180954
221, 2, bw, attraction, a-b-db, 9, 2, 5, 27, 86, 157, 90, 165, 165, 90, 2, 0.459501
221, 2, bw, attraction, a-b-db, 9, 2, 5, 27, 86, 157, 90, 165, 165, 90, 1, 0.167957
221, 2, bw, attraction, a-b-da, 14, 3, 5, 28, 120, 195, 181, 111, 195, 120, 2, 1.03924
221, 2, bw, attraction, a-b-da, 14, 3, 5, 28, 120, 195, 181, 111, 195, 120, 1, 0.196149
221, 2, bw, filler, NA, 999, 999, 5, 29, 107, 57, 63, 58, 109, 79, 3, 0.754074
221, 2, bw, filler, NA, 999, 999, 5, 29, 107, 57, 63, 58, 109, 79, 2, 0.914467
221, 2, bw, filler, NA, 999, 999, 5, 30, 151, 160, 103, 164, 185, 83, 2, 0.803483
221, 2, bw, filler, NA, 999, 999, 5, 30, 151, 160, 103, 164, 185, 83, 1, 0.178554
221, 2, bw, attraction, a-b-db, 14, 2, 5, 31, 165, 90, 83, 153, 90, 165, 2, 0.705088
221, 2, bw, attraction, a-b-db, 14, 2, 5, 31, 165, 90, 83, 153, 90, 165, 1, 0.187506
221, 2, bw, filler, NA, 999, 999, 5, 32, 164, 146, 85, 111, 61, 144, 1, 0.658044
221, 2, bw, filler, NA, 999, 999, 5, 32, 164, 146, 85, 111, 61, 144, 2, 0.206513
221, 2, bw, catch, NA, 999, 999, 5, 33, 120, 75, 105, 150, 125, 190, 2, 0.931681
221, 2, bw, catch, NA, 999, 999, 5, 33, 120, 75, 105, 150, 125, 190, 1, 0.221392
221, 2, bw, catch, NA, 999, 999, 5, 34, 103, 152, 110, 85, 145, 170, 3, 1.24268
221, 2, bw, catch, NA, 999, 999, 5, 34, 103, 152, 110, 85, 145, 170, 2, 0.551417
221, 2, bw, filler, NA, 999, 999, 5, 35, 128, 68, 171, 185, 97, 76, 2, 0.86333
221, 2, bw, filler, NA, 999, 999, 5, 35, 128, 68, 171, 185, 97, 76, 3, 0.883772
221, 2, bw, attraction, a-b-db, 5, 3, 5, 36, 195, 120, 117, 190, 120, 195, 2, 1.66994
221, 2, bw, attraction, a-b-db, 5, 3, 5, 36, 195, 120, 117, 190, 120, 195, 3, 0.218095
221, 2, bw, attraction, a-b-db, 9, 3, 5, 37, 114, 186, 120, 195, 195, 120, 2, 0.871237
221, 2, bw, attraction, a-b-db, 9, 3, 5, 37, 114, 186, 120, 195, 195, 120, 1, 0.170974
221, 2, bw, filler, NA, 999, 999, 6, 1, 77, 139, 168, 166, 146, 69, 2, 0.650174
221, 2, bw, filler, NA, 999, 999, 6, 1, 77, 139, 168, 166, 146, 69, 1, 0.207299
221, 2, bw, filler, NA, 999, 999, 6, 2, 106, 176, 159, 158, 61, 145, 2, 0.724545
221, 2, bw, filler, NA, 999, 999, 6, 2, 106, 176, 159, 158, 61, 145, 3, 0.22226
221, 2, bw, attraction, a-b-da, 14, 1, 6, 3, 135, 60, 125, 56, 60, 135, 1, 3.7155
221, 2, bw, attraction, a-b-da, 14, 1, 6, 3, 135, 60, 125, 56, 60, 135, 2, 0.188977
221, 2, bw, attraction, a-b-db, 14, 2, 6, 4, 165, 90, 83, 153, 90, 165, 3, 1.77149
221, 2, bw, attraction, a-b-db, 14, 2, 6, 4, 165, 90, 83, 153, 90, 165, 1, 0.194889
221, 2, bw, filler, NA, 999, 999, 6, 5, 163, 190, 147, 154, 181, 91, 2, 0.768756
221, 2, bw, filler, NA, 999, 999, 6, 5, 163, 190, 147, 154, 181, 91, 3, 0.217233
221, 2, bw, attraction, a-b-da, 14, 3, 6, 6, 120, 195, 181, 111, 195, 120, 2, 0.814382
221, 2, bw, attraction, a-b-da, 14, 3, 6, 6, 120, 195, 181, 111, 195, 120, 1, 0.172767
221, 2, bw, attraction, a-b-db, 9, 1, 6, 7, 135, 60, 57, 129, 60, 135, 2, 0.987378
221, 2, bw, attraction, a-b-db, 9, 1, 6, 7, 135, 60, 57, 129, 60, 135, 3, 0.234393
221, 2, bw, filler, NA, 999, 999, 6, 8, 74, 188, 63, 168, 179, 155, 3, 0.959021
221, 2, bw, filler, NA, 999, 999, 6, 8, 74, 188, 63, 168, 179, 155, 2, 0.207223
221, 2, bw, catch, NA, 999, 999, 6, 9, 103, 152, 183, 132, 122, 73, 2, 0.668434
221, 2, bw, catch, NA, 999, 999, 6, 9, 103, 152, 183, 132, 122, 73, 3, 0.464883
221, 2, bw, attraction, a-b-da, 2, 3, 6, 10, 193, 119, 195, 120, 120, 195, 3, 1.28401
221, 2, bw, attraction, a-b-da, 2, 3, 6, 10, 193, 119, 195, 120, 120, 195, 1, 0.551608
221, 2, bw, attraction, a-b-db, 9, 2, 6, 11, 90, 165, 86, 157, 165, 90, 2, 1.19132
221, 2, bw, attraction, a-b-db, 9, 2, 6, 11, 90, 165, 86, 157, 165, 90, 1, 0.198265
221, 2, bw, filler, NA, 999, 999, 6, 12, 176, 78, 158, 146, 130, 148, 2, 0.852164
221, 2, bw, filler, NA, 999, 999, 6, 12, 176, 78, 158, 146, 130, 148, 1, 1.15322
221, 2, bw, attraction, a-b-da, 5, 2, 6, 13, 165, 90, 90, 165, 161, 88, 2, 1.80878
221, 2, bw, attraction, a-b-da, 5, 2, 6, 13, 165, 90, 90, 165, 161, 88, 3, 0.198853
221, 2, bw, attraction, a-b-da, 5, 1, 6, 14, 132, 58, 135, 60, 60, 135, 2, 1.20468
221, 2, bw, attraction, a-b-da, 5, 1, 6, 14, 132, 58, 135, 60, 60, 135, 1, 0.571035
221, 2, bw, catch, NA, 999, 999, 6, 15, 153, 162, 141, 114, 132, 63, 2, 0.546121
221, 2, bw, catch, NA, 999, 999, 6, 15, 153, 162, 141, 114, 132, 63, 3, 0.235246
221, 2, bw, attraction, a-b-db, 2, 1, 6, 16, 60, 135, 135, 60, 59, 134, 2, 0.583671
221, 2, bw, attraction, a-b-db, 2, 1, 6, 16, 60, 135, 135, 60, 59, 134, 1, 0.199522
221, 2, bw, attraction, a-b-da, 9, 3, 6, 17, 186, 114, 195, 120, 120, 195, 3, 2.02147
221, 2, bw, attraction, a-b-da, 9, 3, 6, 17, 186, 114, 195, 120, 120, 195, 1, 0.234776
221, 2, bw, attraction, a-b-db, 2, 2, 6, 18, 165, 90, 90, 165, 89, 163, 2, 0.887316
221, 2, bw, attraction, a-b-db, 2, 2, 6, 18, 165, 90, 90, 165, 89, 163, 1, 0.186379
221, 2, bw, attraction, a-b-db, 14, 3, 6, 19, 120, 195, 111, 181, 195, 120, 2, 0.656946
221, 2, bw, attraction, a-b-db, 14, 3, 6, 19, 120, 195, 111, 181, 195, 120, 3, 0.213323
221, 2, bw, filler, NA, 999, 999, 6, 20, 168, 79, 137, 87, 78, 123, 2, 0.538612
221, 2, bw, filler, NA, 999, 999, 6, 20, 168, 79, 137, 87, 78, 123, 1, 0.179744
221, 2, bw, filler, NA, 999, 999, 6, 21, 187, 128, 189, 147, 103, 114, 2, 0.434272
221, 2, bw, filler, NA, 999, 999, 6, 21, 187, 128, 189, 147, 103, 114, 3, 0.248121
221, 2, bw, attraction, a-b-da, 2, 2, 6, 22, 165, 90, 90, 165, 163, 89, 2, 0.515986
221, 2, bw, attraction, a-b-da, 2, 2, 6, 22, 165, 90, 90, 165, 163, 89, 3, 0.214479
221, 2, bw, attraction, a-b-db, 2, 3, 6, 23, 120, 195, 119, 193, 195, 120, 2, 0.883616
221, 2, bw, attraction, a-b-db, 2, 3, 6, 23, 120, 195, 119, 193, 195, 120, 3, 0.439493
221, 2, bw, catch, NA, 999, 999, 6, 24, 104, 91, 135, 180, 129, 126, 2, 0.499084
221, 2, bw, catch, NA, 999, 999, 6, 24, 104, 91, 135, 180, 129, 126, 1, 0.198195
221, 2, bw, attraction, a-b-db, 5, 1, 6, 25, 60, 135, 135, 60, 58, 132, 2, 0.756052
221, 2, bw, attraction, a-b-db, 5, 1, 6, 25, 60, 135, 135, 60, 58, 132, 1, 0.22052
221, 2, bw, attraction, a-b-da, 5, 3, 6, 26, 190, 117, 120, 195, 195, 120, 2, 0.441663
221, 2, bw, attraction, a-b-da, 5, 3, 6, 26, 190, 117, 120, 195, 195, 120, 1, 0.174865
221, 2, bw, attraction, a-b-db, 5, 2, 6, 27, 165, 90, 90, 165, 88, 161, 2, 0.413416
221, 2, bw, attraction, a-b-db, 5, 2, 6, 27, 165, 90, 90, 165, 88, 161, 1, 0.395935
221, 2, bw, attraction, a-b-db, 5, 3, 6, 28, 117, 190, 120, 195, 195, 120, 2, 0.689816
221, 2, bw, attraction, a-b-db, 5, 3, 6, 28, 117, 190, 120, 195, 195, 120, 3, 0.180845
221, 2, bw, attraction, a-b-da, 9, 2, 6, 29, 165, 90, 157, 86, 90, 165, 1, 1.87542
221, 2, bw, attraction, a-b-da, 9, 2, 6, 29, 165, 90, 157, 86, 90, 165, 2, 0.182784
221, 2, bw, attraction, a-b-da, 9, 1, 6, 30, 129, 57, 60, 135, 135, 60, 2, 0.589352
221, 2, bw, attraction, a-b-da, 9, 1, 6, 30, 129, 57, 60, 135, 135, 60, 1, 0.164467
221, 2, bw, attraction, a-b-da, 2, 1, 6, 31, 135, 60, 60, 135, 134, 59, 2, 0.579694
221, 2, bw, attraction, a-b-da, 2, 1, 6, 31, 135, 60, 60, 135, 134, 59, 1, 0.643597
221, 2, bw, filler, NA, 999, 999, 6, 32, 65, 64, 59, 190, 67, 184, 2, 0.703227
221, 2, bw, filler, NA, 999, 999, 6, 32, 65, 64, 59, 190, 67, 184, 1, 0.226319
221, 2, bw, attraction, a-b-da, 14, 2, 6, 33, 165, 90, 153, 83, 90, 165, 3, 1.07894
221, 2, bw, attraction, a-b-da, 14, 2, 6, 33, 165, 90, 153, 83, 90, 165, 2, 0.194558
221, 2, bw, attraction, a-b-db, 9, 3, 6, 34, 114, 186, 195, 120, 120, 195, 2, 0.504446
221, 2, bw, attraction, a-b-db, 9, 3, 6, 34, 114, 186, 195, 120, 120, 195, 1, 0.226981
221, 2, bw, filler, NA, 999, 999, 6, 35, 62, 117, 168, 95, 167, 169, 3, 0.751413
221, 2, bw, filler, NA, 999, 999, 6, 35, 62, 117, 168, 95, 167, 169, 1, 0.184465
221, 2, bw, attraction, a-b-db, 14, 1, 6, 36, 135, 60, 56, 125, 60, 135, 2, 0.815098
221, 2, bw, attraction, a-b-db, 14, 1, 6, 36, 135, 60, 56, 125, 60, 135, 1, 0.221458
221, 2, bw, filler, NA, 999, 999, 6, 37, 85, 188, 77, 70, 142, 163, 3, 0.562674
221, 2, bw, filler, NA, 999, 999, 6, 37, 85, 188, 77, 70, 142, 163, 2, 0.179203
221, 2, bw, attraction, a-b-da, 9, 1, 7, 1, 60, 135, 135, 60, 129, 57, 2, 0.705647
221, 2, bw, attraction, a-b-da, 9, 1, 7, 1, 60, 135, 135, 60, 129, 57, 3, 0.212056
221, 2, bw, filler, NA, 999, 999, 7, 2, 183, 134, 172, 108, 120, 106, 1, 0.961215
221, 2, bw, filler, NA, 999, 999, 7, 2, 183, 134, 172, 108, 120, 106, 3, 0.185676
221, 2, bw, attraction, a-b-da, 14, 3, 7, 3, 195, 120, 181, 111, 120, 195, 2, 0.896231
221, 2, bw, attraction, a-b-da, 14, 3, 7, 3, 195, 120, 181, 111, 120, 195, 3, 0.179165
221, 2, bw, attraction, a-b-db, 2, 1, 7, 4, 60, 135, 135, 60, 59, 134, 2, 0.785726
221, 2, bw, attraction, a-b-db, 2, 1, 7, 4, 60, 135, 135, 60, 59, 134, 1, 0.209452
221, 2, bw, attraction, a-b-da, 2, 3, 7, 5, 193, 119, 120, 195, 195, 120, 2, 0.662657
221, 2, bw, attraction, a-b-da, 2, 3, 7, 5, 193, 119, 120, 195, 195, 120, 3, 0.243207
221, 2, bw, attraction, a-b-db, 14, 1, 7, 6, 56, 125, 135, 60, 60, 135, 2, 0.558909
221, 2, bw, attraction, a-b-db, 14, 1, 7, 6, 56, 125, 135, 60, 60, 135, 1, 0.175448
221, 2, bw, catch, NA, 999, 999, 7, 7, 181, 134, 61, 134, 145, 110, 1, 0.525998
221, 2, bw, catch, NA, 999, 999, 7, 7, 181, 134, 61, 134, 145, 110, 2, 0.19182
221, 2, bw, attraction, a-b-db, 9, 2, 7, 8, 165, 90, 90, 165, 86, 157, 2, 0.661686
221, 2, bw, attraction, a-b-db, 9, 2, 7, 8, 165, 90, 90, 165, 86, 157, 1, 0.186118
221, 2, bw, attraction, a-b-da, 5, 1, 7, 9, 132, 58, 135, 60, 60, 135, 3, 0.664711
221, 2, bw, attraction, a-b-da, 5, 1, 7, 9, 132, 58, 135, 60, 60, 135, 2, 0.18909
221, 2, bw, filler, NA, 999, 999, 7, 10, 152, 111, 92, 105, 161, 150, 3, 0.531601
221, 2, bw, filler, NA, 999, 999, 7, 10, 152, 111, 92, 105, 161, 150, 2, 0.205451
221, 2, bw, attraction, a-b-db, 14, 2, 7, 11, 90, 165, 165, 90, 83, 153, 2, 0.555339
221, 2, bw, attraction, a-b-db, 14, 2, 7, 11, 90, 165, 165, 90, 83, 153, 1, 0.187813
221, 2, bw, attraction, a-b-db, 2, 2, 7, 12, 165, 90, 90, 165, 89, 163, 3, 0.538465
221, 2, bw, attraction, a-b-db, 2, 2, 7, 12, 165, 90, 90, 165, 89, 163, 1, 0.283527
221, 2, bw, attraction, a-b-db, 14, 3, 7, 13, 111, 181, 195, 120, 120, 195, 3, 0.782008
221, 2, bw, attraction, a-b-db, 14, 3, 7, 13, 111, 181, 195, 120, 120, 195, 1, 0.197767
221, 2, bw, filler, NA, 999, 999, 7, 14, 72, 110, 162, 113, 89, 90, 2, 0.611607
221, 2, bw, filler, NA, 999, 999, 7, 14, 72, 110, 162, 113, 89, 90, 3, 0.194168
221, 2, bw, catch, NA, 999, 999, 7, 15, 121, 194, 104, 151, 79, 116, 2, 0.695914
221, 2, bw, catch, NA, 999, 999, 7, 15, 121, 194, 104, 151, 79, 116, 3, 0.210972
221, 2, bw, attraction, a-b-da, 9, 3, 7, 16, 186, 114, 120, 195, 195, 120, 2, 0.816288
221, 2, bw, attraction, a-b-da, 9, 3, 7, 16, 186, 114, 120, 195, 195, 120, 3, 0.190673
221, 2, bw, filler, NA, 999, 999, 7, 17, 129, 115, 139, 135, 104, 101, 2, 0.972437
221, 2, bw, filler, NA, 999, 999, 7, 17, 129, 115, 139, 135, 104, 101, 3, 0.204088
221, 2, bw, attraction, a-b-da, 2, 1, 7, 18, 135, 60, 60, 135, 134, 59, 2, 0.714063
221, 2, bw, attraction, a-b-da, 2, 1, 7, 18, 135, 60, 60, 135, 134, 59, 1, 0.252401
221, 2, bw, attraction, a-b-da, 14, 1, 7, 19, 135, 60, 60, 135, 125, 56, 2, 0.448325
221, 2, bw, attraction, a-b-da, 14, 1, 7, 19, 135, 60, 60, 135, 125, 56, 3, 0.413599
221, 2, bw, filler, NA, 999, 999, 7, 20, 125, 128, 77, 194, 150, 152, 3, 0.778793
221, 2, bw, filler, NA, 999, 999, 7, 20, 125, 128, 77, 194, 150, 152, 1, 0.306438
221, 2, bw, attraction, a-b-da, 2, 2, 7, 21, 90, 165, 163, 89, 165, 90, 2, 0.619561
221, 2, bw, attraction, a-b-da, 2, 2, 7, 21, 90, 165, 163, 89, 165, 90, 3, 0.226059
221, 2, bw, filler, NA, 999, 999, 7, 22, 153, 84, 115, 129, 81, 66, 2, 0.646566
221, 2, bw, filler, NA, 999, 999, 7, 22, 153, 84, 115, 129, 81, 66, 3, 0.459647
221, 2, bw, attraction, a-b-da, 5, 2, 7, 23, 161, 88, 165, 90, 90, 165, 2, 0.718791
221, 2, bw, attraction, a-b-da, 5, 2, 7, 23, 161, 88, 165, 90, 90, 165, 3, 0.529198
221, 2, bw, attraction, a-b-db, 5, 3, 7, 24, 117, 190, 195, 120, 120, 195, 2, 0.545626
221, 2, bw, attraction, a-b-db, 5, 3, 7, 24, 117, 190, 195, 120, 120, 195, 3, 0.266745
221, 2, bw, attraction, a-b-da, 14, 2, 7, 25, 165, 90, 90, 165, 153, 83, 3, 0.749948
221, 2, bw, attraction, a-b-da, 14, 2, 7, 25, 165, 90, 90, 165, 153, 83, 2, 0.471036
221, 2, bw, attraction, a-b-db, 5, 2, 7, 26, 88, 161, 90, 165, 165, 90, 3, 0.638357
221, 2, bw, attraction, a-b-db, 5, 2, 7, 26, 88, 161, 90, 165, 165, 90, 2, 0.127228
221, 2, bw, filler, NA, 999, 999, 7, 27, 165, 62, 130, 120, 113, 61, 2, 0.495897
221, 2, bw, filler, NA, 999, 999, 7, 27, 165, 62, 130, 120, 113, 61, 3, 0.67506
221, 2, bw, attraction, a-b-db, 9, 3, 7, 28, 120, 195, 195, 120, 114, 186, 2, 0.437408
221, 2, bw, attraction, a-b-db, 9, 3, 7, 28, 120, 195, 195, 120, 114, 186, 3, 0.178753
221, 2, bw, attraction, a-b-db, 5, 1, 7, 29, 135, 60, 58, 132, 60, 135, 2, 0.561173
221, 2, bw, attraction, a-b-db, 5, 1, 7, 29, 135, 60, 58, 132, 60, 135, 1, 0.721715
221, 2, bw, filler, NA, 999, 999, 7, 30, 190, 132, 78, 151, 79, 174, 1, 0.78656
221, 2, bw, filler, NA, 999, 999, 7, 30, 190, 132, 78, 151, 79, 174, 2, 0.666335
221, 2, bw, filler, NA, 999, 999, 7, 31, 171, 139, 170, 154, 173, 184, 3, 0.709416
221, 2, bw, filler, NA, 999, 999, 7, 31, 171, 139, 170, 154, 173, 184, 1, 0.223798
221, 2, bw, attraction, a-b-da, 5, 3, 7, 32, 190, 117, 195, 120, 120, 195, 2, 0.748297
221, 2, bw, attraction, a-b-da, 5, 3, 7, 32, 190, 117, 195, 120, 120, 195, 3, 0.237462
221, 2, bw, attraction, a-b-da, 9, 2, 7, 33, 90, 165, 165, 90, 157, 86, 2, 0.578037
221, 2, bw, attraction, a-b-da, 9, 2, 7, 33, 90, 165, 165, 90, 157, 86, 3, 0.305722
221, 2, bw, catch, NA, 999, 999, 7, 34, 187, 128, 124, 71, 115, 140, 1, 0.651556
221, 2, bw, catch, NA, 999, 999, 7, 34, 187, 128, 124, 71, 115, 140, 2, 0.216631
221, 2, bw, attraction, a-b-db, 9, 1, 7, 35, 60, 135, 57, 129, 135, 60, 2, 0.605899
221, 2, bw, attraction, a-b-db, 9, 1, 7, 35, 60, 135, 57, 129, 135, 60, 3, 0.236421
221, 2, bw, attraction, a-b-db, 2, 3, 7, 36, 119, 193, 195, 120, 120, 195, 3, 0.696883
221, 2, bw, attraction, a-b-db, 2, 3, 7, 36, 119, 193, 195, 120, 120, 195, 1, 0.355952
221, 2, bw, filler, NA, 999, 999, 7, 37, 58, 72, 82, 146, 160, 133, 2, 0.579277
221, 2, bw, filler, NA, 999, 999, 7, 37, 58, 72, 82, 146, 160, 133, 1, 0.370933
221, 2, bw, catch, NA, 999, 999, 8, 1, 165, 90, 129, 186, 88, 107, 2, 0.610054
221, 2, bw, catch, NA, 999, 999, 8, 1, 165, 90, 129, 186, 88, 107, 3, 0.208514
221, 2, bw, attraction, a-b-da, 5, 1, 8, 2, 60, 135, 132, 58, 135, 60, 3, 0.621729
221, 2, bw, attraction, a-b-da, 5, 1, 8, 2, 60, 135, 132, 58, 135, 60, 1, 0.243642
221, 2, bw, filler, NA, 999, 999, 8, 3, 106, 70, 151, 89, 103, 107, 2, 1.5514
221, 2, bw, filler, NA, 999, 999, 8, 3, 106, 70, 151, 89, 103, 107, 1, 0.224194
221, 2, bw, filler, NA, 999, 999, 8, 4, 175, 88, 78, 147, 181, 189, 3, 0.82882
221, 2, bw, filler, NA, 999, 999, 8, 4, 175, 88, 78, 147, 181, 189, 2, 0.202557
221, 2, bw, attraction, a-b-db, 2, 2, 8, 5, 165, 90, 90, 165, 89, 163, 2, 0.928336
221, 2, bw, attraction, a-b-db, 2, 2, 8, 5, 165, 90, 90, 165, 89, 163, 1, 0.298008
221, 2, bw, filler, NA, 999, 999, 8, 6, 85, 123, 125, 136, 115, 157, 3, 1.89986
221, 2, bw, filler, NA, 999, 999, 8, 6, 85, 123, 125, 136, 115, 157, 1, 0.214585
221, 2, bw, attraction, a-b-db, 9, 1, 8, 7, 135, 60, 57, 129, 60, 135, 3, 1.21982
221, 2, bw, attraction, a-b-db, 9, 1, 8, 7, 135, 60, 57, 129, 60, 135, 1, 0.274066
221, 2, bw, attraction, a-b-da, 14, 1, 8, 8, 125, 56, 60, 135, 135, 60, 2, 0.868621
221, 2, bw, attraction, a-b-da, 14, 1, 8, 8, 125, 56, 60, 135, 135, 60, 1, 0.600925
221, 2, bw, attraction, a-b-da, 9, 3, 8, 9, 120, 195, 186, 114, 195, 120, 3, 0.790798
221, 2, bw, attraction, a-b-da, 9, 3, 8, 9, 120, 195, 186, 114, 195, 120, 1, 0.189796
221, 2, bw, attraction, a-b-da, 9, 2, 8, 10, 165, 90, 90, 165, 157, 86, 2, 0.539586
221, 2, bw, attraction, a-b-da, 9, 2, 8, 10, 165, 90, 90, 165, 157, 86, 3, 0.220883
221, 2, bw, filler, NA, 999, 999, 8, 11, 191, 189, 86, 161, 134, 65, 1, 0.69809
221, 2, bw, filler, NA, 999, 999, 8, 11, 191, 189, 86, 161, 134, 65, 3, 0.221283
221, 2, bw, attraction, a-b-da, 14, 2, 8, 12, 165, 90, 90, 165, 153, 83, 3, 0.922376
221, 2, bw, attraction, a-b-da, 14, 2, 8, 12, 165, 90, 90, 165, 153, 83, 1, 0.236063
221, 2, bw, filler, NA, 999, 999, 8, 13, 122, 133, 111, 97, 166, 60, 1, 0.728488
221, 2, bw, filler, NA, 999, 999, 8, 13, 122, 133, 111, 97, 166, 60, 3, 1.28229
221, 2, bw, attraction, a-b-da, 2, 2, 8, 14, 165, 90, 163, 89, 90, 165, 3, 0.748427
221, 2, bw, attraction, a-b-da, 2, 2, 8, 14, 165, 90, 163, 89, 90, 165, 1, 0.341531
221, 2, bw, filler, NA, 999, 999, 8, 15, 192, 148, 99, 134, 195, 114, 1, 0.925425
221, 2, bw, filler, NA, 999, 999, 8, 15, 192, 148, 99, 134, 195, 114, 2, 0.271016
221, 2, bw, filler, NA, 999, 999, 8, 16, 163, 125, 76, 190, 168, 60, 2, 0.690184
221, 2, bw, filler, NA, 999, 999, 8, 16, 163, 125, 76, 190, 168, 60, 3, 0.277345
221, 2, bw, filler, NA, 999, 999, 8, 17, 168, 113, 144, 181, 128, 185, 2, 1.16786
221, 2, bw, filler, NA, 999, 999, 8, 17, 168, 113, 144, 181, 128, 185, 1, 0.232265
221, 2, bw, filler, NA, 999, 999, 8, 18, 180, 89, 101, 70, 61, 85, 1, 0.644604
221, 2, bw, filler, NA, 999, 999, 8, 18, 180, 89, 101, 70, 61, 85, 3, 0.457992
221, 2, bw, attraction, a-b-db, 2, 3, 8, 19, 120, 195, 195, 120, 119, 193, 3, 0.549
221, 2, bw, attraction, a-b-db, 2, 3, 8, 19, 120, 195, 195, 120, 119, 193, 1, 0.326197
221, 2, bw, attraction, a-b-da, 14, 3, 8, 20, 181, 111, 195, 120, 120, 195, 2, 0.358601
221, 2, bw, attraction, a-b-da, 14, 3, 8, 20, 181, 111, 195, 120, 120, 195, 1, 0.215043
221, 2, bw, attraction, a-b-da, 5, 2, 8, 21, 165, 90, 161, 88, 90, 165, 2, 0.431877
221, 2, bw, attraction, a-b-da, 5, 2, 8, 21, 165, 90, 161, 88, 90, 165, 1, 0.162077
221, 2, bw, attraction, a-b-da, 9, 1, 8, 22, 60, 135, 135, 60, 129, 57, 2, 0.361307
221, 2, bw, attraction, a-b-da, 9, 1, 8, 22, 60, 135, 135, 60, 129, 57, 3, 0.443403
221, 2, bw, attraction, a-b-db, 14, 3, 8, 23, 195, 120, 120, 195, 111, 181, 2, 0.405657
221, 2, bw, attraction, a-b-db, 14, 3, 8, 23, 195, 120, 120, 195, 111, 181, 1, 0.204119
221, 2, bw, attraction, a-b-db, 2, 1, 8, 24, 60, 135, 135, 60, 59, 134, 2, 0.426113
221, 2, bw, attraction, a-b-db, 2, 1, 8, 24, 60, 135, 135, 60, 59, 134, 1, 0.234189
221, 2, bw, attraction, a-b-db, 14, 2, 8, 25, 83, 153, 90, 165, 165, 90, 2, 0.372446
221, 2, bw, attraction, a-b-db, 14, 2, 8, 25, 83, 153, 90, 165, 165, 90, 3, 0.484328
221, 2, bw, attraction, a-b-db, 14, 1, 8, 26, 135, 60, 56, 125, 60, 135, 2, 0.542745
221, 2, bw, attraction, a-b-db, 14, 1, 8, 26, 135, 60, 56, 125, 60, 135, 1, 0.223863
221, 2, bw, attraction, a-b-db, 9, 3, 8, 27, 195, 120, 120, 195, 114, 186, 2, 1.30843
221, 2, bw, attraction, a-b-db, 9, 3, 8, 27, 195, 120, 120, 195, 114, 186, 1, 0.190633
221, 2, bw, attraction, a-b-db, 5, 2, 8, 28, 165, 90, 90, 165, 88, 161, 2, 0.796551
221, 2, bw, attraction, a-b-db, 5, 2, 8, 28, 165, 90, 90, 165, 88, 161, 1, 0.203709
221, 2, bw, attraction, a-b-da, 2, 3, 8, 29, 120, 195, 195, 120, 193, 119, 2, 0.849478
221, 2, bw, attraction, a-b-da, 2, 3, 8, 29, 120, 195, 195, 120, 193, 119, 3, 0.454539
221, 2, bw, catch, NA, 999, 999, 8, 30, 186, 129, 138, 117, 72, 123, 1, 0.850411
221, 2, bw, catch, NA, 999, 999, 8, 30, 186, 129, 138, 117, 72, 123, 3, 0.215391
221, 2, bw, attraction, a-b-db, 5, 1, 8, 31, 58, 132, 135, 60, 60, 135, 1, 0.796484
221, 2, bw, attraction, a-b-db, 5, 1, 8, 31, 58, 132, 135, 60, 60, 135, 2, 0.595649
221, 2, bw, attraction, a-b-da, 2, 1, 8, 32, 135, 60, 134, 59, 60, 135, 2, 0.537322
221, 2, bw, attraction, a-b-da, 2, 1, 8, 32, 135, 60, 134, 59, 60, 135, 1, 0.234515
221, 2, bw, catch, NA, 999, 999, 8, 33, 149, 166, 120, 135, 129, 66, 1, 0.558972
221, 2, bw, catch, NA, 999, 999, 8, 33, 149, 166, 120, 135, 129, 66, 3, 0.231613
221, 2, bw, attraction, a-b-db, 9, 2, 8, 34, 90, 165, 165, 90, 86, 157, 3, 0.572023
221, 2, bw, attraction, a-b-db, 9, 2, 8, 34, 90, 165, 165, 90, 86, 157, 1, 0.203765
221, 2, bw, filler, NA, 999, 999, 8, 35, 113, 90, 116, 60, 162, 127, 3, 0.585772
221, 2, bw, filler, NA, 999, 999, 8, 35, 113, 90, 116, 60, 162, 127, 2, 0.32148
221, 2, bw, attraction, a-b-da, 5, 3, 8, 36, 190, 117, 195, 120, 120, 195, 2, 0.45865
221, 2, bw, attraction, a-b-da, 5, 3, 8, 36, 190, 117, 195, 120, 120, 195, 1, 0.207189
221, 2, bw, attraction, a-b-db, 5, 3, 8, 37, 120, 195, 117, 190, 195, 120, 2, 0.460361
221, 2, bw, attraction, a-b-db, 5, 3, 8, 37, 120, 195, 117, 190, 195, 120, 1, 0.208822
