sub_n, computer_n, bw_cond, effect, set, distance, diag, block_n, trial_n, h1, w1, h2, w2, h3, w3, choice, rt 
258, 2, wb, practice, NA, 999, 999, 0, 1, 127, 184, 139, 184, 70, 182, 3, 4.62503
258, 2, wb, practice, NA, 999, 999, 0, 1, 127, 184, 139, 184, 70, 182, 2, 4.7512
258, 2, wb, practice, NA, 999, 999, 0, 2, 63, 148, 158, 89, 83, 127, 1, 10.3375
258, 2, wb, practice, NA, 999, 999, 0, 2, 63, 148, 158, 89, 83, 127, 2, 2.11167
258, 2, wb, practice, NA, 999, 999, 0, 3, 180, 195, 73, 147, 162, 182, 2, 6.74005
258, 2, wb, practice, NA, 999, 999, 0, 3, 180, 195, 73, 147, 162, 182, 1, 1.01242
258, 2, wb, filler, NA, 999, 999, 1, 1, 129, 194, 114, 97, 75, 95, 3, 2.75896
258, 2, wb, filler, NA, 999, 999, 1, 1, 129, 194, 114, 97, 75, 95, 1, 1.49477
258, 2, wb, attraction, a-b-da, 2, 1, 1, 2, 134, 59, 60, 135, 135, 60, 3, 3.34415
258, 2, wb, attraction, a-b-da, 2, 1, 1, 2, 134, 59, 60, 135, 135, 60, 2, 1.49642
258, 2, wb, attraction, a-b-db, 2, 1, 1, 3, 60, 135, 135, 60, 59, 134, 1, 1.49792
258, 2, wb, attraction, a-b-db, 2, 1, 1, 3, 60, 135, 135, 60, 59, 134, 3, 1.79677
258, 2, wb, attraction, a-b-da, 9, 2, 1, 4, 90, 165, 157, 86, 165, 90, 3, 5.02627
258, 2, wb, attraction, a-b-da, 9, 2, 1, 4, 90, 165, 157, 86, 165, 90, 1, 1.19061
258, 2, wb, attraction, a-b-da, 2, 2, 1, 5, 90, 165, 165, 90, 163, 89, 3, 6.02013
258, 2, wb, attraction, a-b-da, 2, 2, 1, 5, 90, 165, 165, 90, 163, 89, 2, 1.4889
258, 2, wb, attraction, a-b-db, 14, 2, 1, 6, 83, 153, 165, 90, 90, 165, 1, 2.26707
258, 2, wb, attraction, a-b-db, 14, 2, 1, 6, 83, 153, 165, 90, 90, 165, 2, 2.43891
258, 2, wb, attraction, a-b-da, 14, 3, 1, 7, 195, 120, 120, 195, 181, 111, 3, 1.58678
258, 2, wb, attraction, a-b-da, 14, 3, 1, 7, 195, 120, 120, 195, 181, 111, 2, 1.04159
258, 2, wb, filler, NA, 999, 999, 1, 8, 178, 149, 88, 73, 125, 102, 2, 1.47727
258, 2, wb, filler, NA, 999, 999, 1, 8, 178, 149, 88, 73, 125, 102, 1, 0.592663
258, 2, wb, attraction, a-b-da, 2, 3, 1, 9, 120, 195, 195, 120, 193, 119, 3, 2.27051
258, 2, wb, attraction, a-b-da, 2, 3, 1, 9, 120, 195, 195, 120, 193, 119, 1, 2.28249
258, 2, wb, attraction, a-b-db, 2, 2, 1, 10, 89, 163, 165, 90, 90, 165, 1, 2.1163
258, 2, wb, attraction, a-b-db, 2, 2, 1, 10, 89, 163, 165, 90, 90, 165, 2, 0.798228
258, 2, wb, attraction, a-b-db, 14, 3, 1, 11, 120, 195, 195, 120, 111, 181, 3, 1.25206
258, 2, wb, attraction, a-b-db, 14, 3, 1, 11, 120, 195, 195, 120, 111, 181, 1, 0.672851
258, 2, wb, attraction, a-b-da, 5, 1, 1, 12, 60, 135, 132, 58, 135, 60, 3, 3.26734
258, 2, wb, attraction, a-b-da, 5, 1, 1, 12, 60, 135, 132, 58, 135, 60, 1, 0.510944
258, 2, wb, attraction, a-b-db, 5, 3, 1, 13, 117, 190, 120, 195, 195, 120, 3, 2.88804
258, 2, wb, attraction, a-b-db, 5, 3, 1, 13, 117, 190, 120, 195, 195, 120, 2, 1.66653
258, 2, wb, attraction, a-b-db, 5, 1, 1, 14, 60, 135, 135, 60, 58, 132, 3, 3.99717
258, 2, wb, attraction, a-b-db, 5, 1, 1, 14, 60, 135, 135, 60, 58, 132, 2, 2.23556
258, 2, wb, filler, NA, 999, 999, 1, 15, 188, 159, 118, 89, 96, 104, 3, 0.879187
258, 2, wb, filler, NA, 999, 999, 1, 15, 188, 159, 118, 89, 96, 104, 1, 0.506909
258, 2, wb, filler, NA, 999, 999, 1, 16, 110, 132, 128, 186, 67, 80, 3, 0.771923
258, 2, wb, filler, NA, 999, 999, 1, 16, 110, 132, 128, 186, 67, 80, 2, 0.691715
258, 2, wb, attraction, a-b-da, 5, 2, 1, 17, 165, 90, 90, 165, 161, 88, 3, 1.37337
258, 2, wb, attraction, a-b-da, 5, 2, 1, 17, 165, 90, 90, 165, 161, 88, 2, 3.15691
258, 2, wb, filler, NA, 999, 999, 1, 18, 62, 94, 78, 177, 99, 187, 1, 0.803173
258, 2, wb, filler, NA, 999, 999, 1, 18, 62, 94, 78, 177, 99, 187, 3, 0.434317
258, 2, wb, attraction, a-b-da, 14, 1, 1, 19, 135, 60, 60, 135, 125, 56, 3, 1.61474
258, 2, wb, attraction, a-b-da, 14, 1, 1, 19, 135, 60, 60, 135, 125, 56, 2, 6.81287
258, 2, wb, attraction, a-b-da, 5, 3, 1, 20, 120, 195, 190, 117, 195, 120, 1, 1.91211
258, 2, wb, attraction, a-b-da, 5, 3, 1, 20, 120, 195, 190, 117, 195, 120, 2, 1.69815
258, 2, wb, filler, NA, 999, 999, 1, 21, 58, 72, 166, 68, 183, 65, 1, 1.03565
258, 2, wb, filler, NA, 999, 999, 1, 21, 58, 72, 166, 68, 183, 65, 2, 0.91331
258, 2, wb, attraction, a-b-db, 9, 2, 1, 22, 165, 90, 86, 157, 90, 165, 2, 1.54614
258, 2, wb, attraction, a-b-db, 9, 2, 1, 22, 165, 90, 86, 157, 90, 165, 1, 3.45894
258, 2, wb, attraction, a-b-da, 9, 1, 1, 23, 135, 60, 60, 135, 129, 57, 1, 2.40516
258, 2, wb, attraction, a-b-da, 9, 1, 1, 23, 135, 60, 60, 135, 129, 57, 2, 1.16307
258, 2, wb, filler, NA, 999, 999, 1, 24, 191, 140, 158, 72, 114, 177, 2, 1.46598
258, 2, wb, filler, NA, 999, 999, 1, 24, 191, 140, 158, 72, 114, 177, 1, 0.638141
258, 2, wb, catch, NA, 999, 999, 1, 25, 132, 123, 124, 191, 86, 109, 3, 0.914546
258, 2, wb, catch, NA, 999, 999, 1, 25, 132, 123, 124, 191, 86, 109, 2, 0.428903
258, 2, wb, attraction, a-b-db, 5, 2, 1, 26, 165, 90, 90, 165, 88, 161, 3, 3.58538
258, 2, wb, attraction, a-b-db, 5, 2, 1, 26, 165, 90, 90, 165, 88, 161, 1, 0.832257
258, 2, wb, attraction, a-b-da, 9, 3, 1, 27, 195, 120, 120, 195, 186, 114, 1, 2.49256
258, 2, wb, attraction, a-b-da, 9, 3, 1, 27, 195, 120, 120, 195, 186, 114, 2, 0.967175
258, 2, wb, catch, NA, 999, 999, 1, 28, 162, 153, 128, 67, 98, 157, 2, 0.854131
258, 2, wb, catch, NA, 999, 999, 1, 28, 162, 153, 128, 67, 98, 157, 1, 0.394481
258, 2, wb, filler, NA, 999, 999, 1, 29, 185, 158, 171, 122, 105, 117, 3, 0.808318
258, 2, wb, filler, NA, 999, 999, 1, 29, 185, 158, 171, 122, 105, 117, 1, 0.326677
258, 2, wb, attraction, a-b-da, 14, 2, 1, 30, 153, 83, 90, 165, 165, 90, 1, 1.22312
258, 2, wb, attraction, a-b-da, 14, 2, 1, 30, 153, 83, 90, 165, 165, 90, 2, 0.468793
258, 2, wb, catch, NA, 999, 999, 1, 31, 190, 125, 120, 135, 70, 125, 3, 0.784067
258, 2, wb, catch, NA, 999, 999, 1, 31, 190, 125, 120, 135, 70, 125, 1, 1.48763
258, 2, wb, filler, NA, 999, 999, 1, 32, 161, 78, 108, 176, 78, 156, 1, 1.25777
258, 2, wb, filler, NA, 999, 999, 1, 32, 161, 78, 108, 176, 78, 156, 2, 0.491499
258, 2, wb, filler, NA, 999, 999, 1, 33, 172, 159, 74, 111, 180, 194, 2, 1.15981
258, 2, wb, filler, NA, 999, 999, 1, 33, 172, 159, 74, 111, 180, 194, 3, 0.408098
258, 2, wb, attraction, a-b-db, 9, 3, 1, 34, 120, 195, 195, 120, 114, 186, 3, 2.15732
258, 2, wb, attraction, a-b-db, 9, 3, 1, 34, 120, 195, 195, 120, 114, 186, 2, 1.18116
258, 2, wb, attraction, a-b-db, 14, 1, 1, 35, 56, 125, 60, 135, 135, 60, 1, 3.32346
258, 2, wb, attraction, a-b-db, 14, 1, 1, 35, 56, 125, 60, 135, 135, 60, 3, 1.28449
258, 2, wb, attraction, a-b-db, 2, 3, 1, 36, 119, 193, 195, 120, 120, 195, 1, 1.19063
258, 2, wb, attraction, a-b-db, 2, 3, 1, 36, 119, 193, 195, 120, 120, 195, 3, 0.461544
258, 2, wb, attraction, a-b-db, 9, 1, 1, 37, 135, 60, 57, 129, 60, 135, 2, 4.91257
258, 2, wb, attraction, a-b-db, 9, 1, 1, 37, 135, 60, 57, 129, 60, 135, 1, 4.07379
258, 2, wb, attraction, a-b-db, 9, 3, 2, 1, 114, 186, 120, 195, 195, 120, 1, 1.9557
258, 2, wb, attraction, a-b-db, 9, 3, 2, 1, 114, 186, 120, 195, 195, 120, 3, 0.523748
258, 2, wb, filler, NA, 999, 999, 2, 2, 158, 75, 132, 151, 143, 188, 1, 1.00416
258, 2, wb, filler, NA, 999, 999, 2, 2, 158, 75, 132, 151, 143, 188, 3, 0.570554
258, 2, wb, attraction, a-b-da, 2, 2, 2, 3, 90, 165, 163, 89, 165, 90, 2, 0.953552
258, 2, wb, attraction, a-b-da, 2, 2, 2, 3, 90, 165, 163, 89, 165, 90, 1, 0.490661
258, 2, wb, filler, NA, 999, 999, 2, 4, 130, 184, 170, 124, 71, 178, 3, 0.900416
258, 2, wb, filler, NA, 999, 999, 2, 4, 130, 184, 170, 124, 71, 178, 1, 0.679496
258, 2, wb, attraction, a-b-db, 14, 2, 2, 5, 165, 90, 90, 165, 83, 153, 3, 1.26582
258, 2, wb, attraction, a-b-db, 14, 2, 2, 5, 165, 90, 90, 165, 83, 153, 1, 0.990063
258, 2, wb, attraction, a-b-db, 2, 1, 2, 6, 59, 134, 60, 135, 135, 60, 1, 1.35575
258, 2, wb, attraction, a-b-db, 2, 1, 2, 6, 59, 134, 60, 135, 135, 60, 3, 0.899939
258, 2, wb, filler, NA, 999, 999, 2, 7, 158, 168, 102, 172, 64, 103, 3, 0.75753
258, 2, wb, filler, NA, 999, 999, 2, 7, 158, 168, 102, 172, 64, 103, 1, 0.35796
258, 2, wb, attraction, a-b-db, 5, 2, 2, 8, 88, 161, 90, 165, 165, 90, 1, 1.49314
258, 2, wb, attraction, a-b-db, 5, 2, 2, 8, 88, 161, 90, 165, 165, 90, 3, 0.871969
258, 2, wb, attraction, a-b-db, 14, 1, 2, 9, 135, 60, 56, 125, 60, 135, 2, 0.706928
258, 2, wb, attraction, a-b-db, 14, 1, 2, 9, 135, 60, 56, 125, 60, 135, 3, 1.18146
258, 2, wb, attraction, a-b-da, 5, 2, 2, 10, 161, 88, 90, 165, 165, 90, 1, 1.17171
258, 2, wb, attraction, a-b-da, 5, 2, 2, 10, 161, 88, 90, 165, 165, 90, 2, 0.427224
258, 2, wb, filler, NA, 999, 999, 2, 11, 157, 189, 125, 176, 88, 174, 3, 0.903839
258, 2, wb, filler, NA, 999, 999, 2, 11, 157, 189, 125, 176, 88, 174, 1, 0.810056
258, 2, wb, attraction, a-b-db, 9, 1, 2, 12, 135, 60, 60, 135, 57, 129, 3, 1.15911
258, 2, wb, attraction, a-b-db, 9, 1, 2, 12, 135, 60, 60, 135, 57, 129, 1, 1.30985
258, 2, wb, attraction, a-b-da, 9, 1, 2, 13, 135, 60, 60, 135, 129, 57, 2, 1.87227
258, 2, wb, attraction, a-b-da, 9, 1, 2, 13, 135, 60, 60, 135, 129, 57, 1, 3.40364
258, 2, wb, attraction, a-b-db, 5, 1, 2, 14, 58, 132, 60, 135, 135, 60, 1, 2.4165
258, 2, wb, attraction, a-b-db, 5, 1, 2, 14, 58, 132, 60, 135, 135, 60, 3, 1.06241
258, 2, wb, attraction, a-b-da, 5, 3, 2, 15, 190, 117, 120, 195, 195, 120, 1, 1.40934
258, 2, wb, attraction, a-b-da, 5, 3, 2, 15, 190, 117, 120, 195, 195, 120, 2, 0.495546
258, 2, wb, attraction, a-b-db, 2, 2, 2, 16, 90, 165, 165, 90, 89, 163, 1, 0.753395
258, 2, wb, attraction, a-b-db, 2, 2, 2, 16, 90, 165, 165, 90, 89, 163, 2, 0.641773
258, 2, wb, attraction, a-b-da, 5, 1, 2, 17, 60, 135, 132, 58, 135, 60, 1, 0.981405
258, 2, wb, attraction, a-b-da, 5, 1, 2, 17, 60, 135, 132, 58, 135, 60, 3, 0.845107
258, 2, wb, attraction, a-b-db, 14, 3, 2, 18, 120, 195, 111, 181, 195, 120, 1, 1.1288
258, 2, wb, attraction, a-b-db, 14, 3, 2, 18, 120, 195, 111, 181, 195, 120, 3, 0.418404
258, 2, wb, filler, NA, 999, 999, 2, 19, 155, 125, 163, 145, 131, 129, 1, 3.2475
258, 2, wb, filler, NA, 999, 999, 2, 19, 155, 125, 163, 145, 131, 129, 2, 0.339977
258, 2, wb, attraction, a-b-db, 5, 3, 2, 20, 120, 195, 195, 120, 117, 190, 1, 0.72371
258, 2, wb, attraction, a-b-db, 5, 3, 2, 20, 120, 195, 195, 120, 117, 190, 2, 0.829445
258, 2, wb, filler, NA, 999, 999, 2, 21, 116, 152, 110, 125, 173, 78, 2, 1.80185
258, 2, wb, filler, NA, 999, 999, 2, 21, 116, 152, 110, 125, 173, 78, 1, 1.04058
258, 2, wb, attraction, a-b-da, 14, 1, 2, 22, 60, 135, 135, 60, 125, 56, 1, 0.796169
258, 2, wb, attraction, a-b-da, 14, 1, 2, 22, 60, 135, 135, 60, 125, 56, 2, 1.73124
258, 2, wb, catch, NA, 999, 999, 2, 23, 116, 139, 71, 124, 120, 195, 2, 1.18732
258, 2, wb, catch, NA, 999, 999, 2, 23, 116, 139, 71, 124, 120, 195, 3, 0.803049
258, 2, wb, attraction, a-b-da, 2, 1, 2, 24, 135, 60, 134, 59, 60, 135, 1, 2.71262
258, 2, wb, attraction, a-b-da, 2, 1, 2, 24, 135, 60, 134, 59, 60, 135, 3, 0.482347
258, 2, wb, catch, NA, 999, 999, 2, 25, 99, 96, 159, 156, 94, 161, 1, 0.820737
258, 2, wb, catch, NA, 999, 999, 2, 25, 99, 96, 159, 156, 94, 161, 2, 0.354518
258, 2, wb, attraction, a-b-da, 14, 3, 2, 26, 195, 120, 181, 111, 120, 195, 2, 4.3544
258, 2, wb, attraction, a-b-da, 14, 3, 2, 26, 195, 120, 181, 111, 120, 195, 3, 0.353611
258, 2, wb, filler, NA, 999, 999, 2, 27, 106, 180, 61, 117, 140, 173, 2, 0.649463
258, 2, wb, filler, NA, 999, 999, 2, 27, 106, 180, 61, 117, 140, 173, 3, 0.438708
258, 2, wb, attraction, a-b-da, 14, 2, 2, 28, 165, 90, 153, 83, 90, 165, 2, 1.89102
258, 2, wb, attraction, a-b-da, 14, 2, 2, 28, 165, 90, 153, 83, 90, 165, 3, 0.50194
258, 2, wb, attraction, a-b-db, 2, 3, 2, 29, 119, 193, 195, 120, 120, 195, 1, 1.57554
258, 2, wb, attraction, a-b-db, 2, 3, 2, 29, 119, 193, 195, 120, 120, 195, 3, 0.487038
258, 2, wb, attraction, a-b-da, 9, 2, 2, 30, 90, 165, 165, 90, 157, 86, 3, 1.40153
258, 2, wb, attraction, a-b-da, 9, 2, 2, 30, 90, 165, 165, 90, 157, 86, 1, 1.00838
258, 2, wb, attraction, a-b-db, 9, 2, 2, 31, 165, 90, 90, 165, 86, 157, 1, 1.96533
258, 2, wb, attraction, a-b-db, 9, 2, 2, 31, 165, 90, 90, 165, 86, 157, 3, 0.685376
258, 2, wb, attraction, a-b-da, 9, 3, 2, 32, 186, 114, 120, 195, 195, 120, 1, 1.25581
258, 2, wb, attraction, a-b-da, 9, 3, 2, 32, 186, 114, 120, 195, 195, 120, 2, 0.828001
258, 2, wb, filler, NA, 999, 999, 2, 33, 110, 171, 85, 166, 192, 90, 2, 1.29633
258, 2, wb, filler, NA, 999, 999, 2, 33, 110, 171, 85, 166, 192, 90, 1, 1.58737
258, 2, wb, filler, NA, 999, 999, 2, 34, 162, 127, 66, 67, 163, 123, 2, 0.913368
258, 2, wb, filler, NA, 999, 999, 2, 34, 162, 127, 66, 67, 163, 123, 1, 0.547678
258, 2, wb, catch, NA, 999, 999, 2, 35, 126, 129, 166, 149, 96, 99, 3, 1.18753
258, 2, wb, catch, NA, 999, 999, 2, 35, 126, 129, 166, 149, 96, 99, 2, 0.506445
258, 2, wb, filler, NA, 999, 999, 2, 36, 67, 163, 186, 189, 176, 125, 1, 0.667485
258, 2, wb, filler, NA, 999, 999, 2, 36, 67, 163, 186, 189, 176, 125, 2, 0.455975
258, 2, wb, attraction, a-b-da, 2, 3, 2, 37, 120, 195, 195, 120, 193, 119, 2, 1.11511
258, 2, wb, attraction, a-b-da, 2, 3, 2, 37, 120, 195, 195, 120, 193, 119, 1, 0.357395
258, 2, wb, catch, NA, 999, 999, 3, 1, 155, 100, 161, 154, 69, 126, 3, 0.860518
258, 2, wb, catch, NA, 999, 999, 3, 1, 155, 100, 161, 154, 69, 126, 2, 1.137
258, 2, wb, attraction, a-b-da, 14, 3, 3, 2, 181, 111, 195, 120, 120, 195, 1, 1.14523
258, 2, wb, attraction, a-b-da, 14, 3, 3, 2, 181, 111, 195, 120, 120, 195, 2, 0.546202
258, 2, wb, filler, NA, 999, 999, 3, 3, 193, 177, 163, 165, 132, 83, 3, 0.865929
258, 2, wb, filler, NA, 999, 999, 3, 3, 193, 177, 163, 165, 132, 83, 1, 1.03826
258, 2, wb, attraction, a-b-db, 5, 1, 3, 4, 135, 60, 58, 132, 60, 135, 1, 1.01602
258, 2, wb, attraction, a-b-db, 5, 1, 3, 4, 135, 60, 58, 132, 60, 135, 3, 0.472912
258, 2, wb, attraction, a-b-da, 5, 1, 3, 5, 135, 60, 132, 58, 60, 135, 2, 1.00342
258, 2, wb, attraction, a-b-da, 5, 1, 3, 5, 135, 60, 132, 58, 60, 135, 3, 2.88242
258, 2, wb, filler, NA, 999, 999, 3, 6, 95, 95, 77, 95, 85, 158, 2, 0.764031
258, 2, wb, filler, NA, 999, 999, 3, 6, 95, 95, 77, 95, 85, 158, 3, 1.0284
258, 2, wb, attraction, a-b-da, 2, 2, 3, 7, 165, 90, 163, 89, 90, 165, 1, 5.20069
258, 2, wb, attraction, a-b-da, 2, 2, 3, 7, 165, 90, 163, 89, 90, 165, 3, 0.406572
258, 2, wb, attraction, a-b-da, 2, 3, 3, 8, 193, 119, 120, 195, 195, 120, 3, 6.69955
258, 2, wb, attraction, a-b-da, 2, 3, 3, 8, 193, 119, 120, 195, 195, 120, 2, 0.420736
258, 2, wb, attraction, a-b-da, 5, 2, 3, 9, 90, 165, 165, 90, 161, 88, 3, 1.7539
258, 2, wb, attraction, a-b-da, 5, 2, 3, 9, 90, 165, 165, 90, 161, 88, 1, 0.586128
258, 2, wb, attraction, a-b-da, 2, 1, 3, 10, 134, 59, 60, 135, 135, 60, 3, 2.64839
258, 2, wb, attraction, a-b-da, 2, 1, 3, 10, 134, 59, 60, 135, 135, 60, 2, 1.01294
258, 2, wb, attraction, a-b-da, 9, 3, 3, 11, 186, 114, 120, 195, 195, 120, 1, 1.01792
258, 2, wb, attraction, a-b-da, 9, 3, 3, 11, 186, 114, 120, 195, 195, 120, 2, 0.480152
258, 2, wb, attraction, a-b-da, 14, 2, 3, 12, 153, 83, 165, 90, 90, 165, 1, 5.86661
258, 2, wb, attraction, a-b-da, 14, 2, 3, 12, 153, 83, 165, 90, 90, 165, 3, 0.917474
258, 2, wb, attraction, a-b-db, 14, 1, 3, 13, 135, 60, 60, 135, 56, 125, 1, 0.838428
258, 2, wb, attraction, a-b-db, 14, 1, 3, 13, 135, 60, 60, 135, 56, 125, 2, 0.715508
258, 2, wb, filler, NA, 999, 999, 3, 14, 121, 156, 135, 88, 65, 126, 3, 1.65253
258, 2, wb, filler, NA, 999, 999, 3, 14, 121, 156, 135, 88, 65, 126, 1, 0.56135
258, 2, wb, attraction, a-b-db, 9, 1, 3, 15, 135, 60, 57, 129, 60, 135, 1, 1.17641
258, 2, wb, attraction, a-b-db, 9, 1, 3, 15, 135, 60, 57, 129, 60, 135, 3, 0.928114
258, 2, wb, attraction, a-b-db, 2, 2, 3, 16, 89, 163, 165, 90, 90, 165, 1, 0.79235
258, 2, wb, attraction, a-b-db, 2, 2, 3, 16, 89, 163, 165, 90, 90, 165, 2, 0.543336
258, 2, wb, filler, NA, 999, 999, 3, 17, 184, 123, 170, 107, 149, 101, 3, 0.879115
258, 2, wb, filler, NA, 999, 999, 3, 17, 184, 123, 170, 107, 149, 101, 1, 0.49081
258, 2, wb, attraction, a-b-db, 14, 3, 3, 18, 120, 195, 111, 181, 195, 120, 3, 1.60465
258, 2, wb, attraction, a-b-db, 14, 3, 3, 18, 120, 195, 111, 181, 195, 120, 1, 0.594819
258, 2, wb, catch, NA, 999, 999, 3, 19, 150, 105, 137, 178, 98, 97, 3, 0.808527
258, 2, wb, catch, NA, 999, 999, 3, 19, 150, 105, 137, 178, 98, 97, 2, 0.43111
258, 2, wb, attraction, a-b-db, 5, 3, 3, 20, 120, 195, 117, 190, 195, 120, 3, 1.73135
258, 2, wb, attraction, a-b-db, 5, 3, 3, 20, 120, 195, 117, 190, 195, 120, 2, 0.428908
258, 2, wb, attraction, a-b-da, 14, 1, 3, 21, 125, 56, 60, 135, 135, 60, 1, 0.769413
258, 2, wb, attraction, a-b-da, 14, 1, 3, 21, 125, 56, 60, 135, 135, 60, 2, 0.417688
258, 2, wb, catch, NA, 999, 999, 3, 22, 125, 130, 168, 147, 88, 107, 3, 0.991017
258, 2, wb, catch, NA, 999, 999, 3, 22, 125, 130, 168, 147, 88, 107, 2, 0.749906
258, 2, wb, attraction, a-b-db, 14, 2, 3, 23, 90, 165, 83, 153, 165, 90, 1, 0.869564
258, 2, wb, attraction, a-b-db, 14, 2, 3, 23, 90, 165, 83, 153, 165, 90, 3, 0.905934
258, 2, wb, attraction, a-b-da, 9, 1, 3, 24, 135, 60, 60, 135, 129, 57, 1, 0.539633
258, 2, wb, attraction, a-b-da, 9, 1, 3, 24, 135, 60, 60, 135, 129, 57, 2, 0.356754
258, 2, wb, attraction, a-b-db, 9, 2, 3, 25, 86, 157, 90, 165, 165, 90, 1, 0.651861
258, 2, wb, attraction, a-b-db, 9, 2, 3, 25, 86, 157, 90, 165, 165, 90, 3, 0.512952
258, 2, wb, attraction, a-b-db, 9, 3, 3, 26, 195, 120, 114, 186, 120, 195, 3, 1.54616
258, 2, wb, attraction, a-b-db, 9, 3, 3, 26, 195, 120, 114, 186, 120, 195, 1, 0.794869
258, 2, wb, filler, NA, 999, 999, 3, 27, 182, 149, 107, 163, 147, 132, 2, 1.69655
258, 2, wb, filler, NA, 999, 999, 3, 27, 182, 149, 107, 163, 147, 132, 1, 0.979358
258, 2, wb, filler, NA, 999, 999, 3, 28, 143, 86, 117, 148, 191, 152, 1, 0.881667
258, 2, wb, filler, NA, 999, 999, 3, 28, 143, 86, 117, 148, 191, 152, 3, 0.365552
258, 2, wb, filler, NA, 999, 999, 3, 29, 108, 146, 102, 123, 155, 150, 2, 0.988663
258, 2, wb, filler, NA, 999, 999, 3, 29, 108, 146, 102, 123, 155, 150, 3, 0.603616
258, 2, wb, attraction, a-b-db, 5, 2, 3, 30, 90, 165, 88, 161, 165, 90, 3, 1.86538
258, 2, wb, attraction, a-b-db, 5, 2, 3, 30, 90, 165, 88, 161, 165, 90, 2, 1.15736
258, 2, wb, filler, NA, 999, 999, 3, 31, 113, 175, 68, 57, 58, 75, 2, 0.692331
258, 2, wb, filler, NA, 999, 999, 3, 31, 113, 175, 68, 57, 58, 75, 1, 0.647388
258, 2, wb, attraction, a-b-da, 9, 2, 3, 32, 90, 165, 157, 86, 165, 90, 1, 0.851105
258, 2, wb, attraction, a-b-da, 9, 2, 3, 32, 90, 165, 157, 86, 165, 90, 2, 0.976208
258, 2, wb, filler, NA, 999, 999, 3, 33, 194, 167, 192, 135, 73, 152, 3, 1.26244
258, 2, wb, filler, NA, 999, 999, 3, 33, 194, 167, 192, 135, 73, 152, 1, 1.45073
258, 2, wb, attraction, a-b-db, 2, 1, 3, 34, 135, 60, 59, 134, 60, 135, 1, 1.98216
258, 2, wb, attraction, a-b-db, 2, 1, 3, 34, 135, 60, 59, 134, 60, 135, 3, 0.581676
258, 2, wb, filler, NA, 999, 999, 3, 35, 157, 146, 146, 161, 80, 155, 3, 0.771968
258, 2, wb, filler, NA, 999, 999, 3, 35, 157, 146, 146, 161, 80, 155, 2, 0.443806
258, 2, wb, attraction, a-b-da, 5, 3, 3, 36, 120, 195, 190, 117, 195, 120, 1, 1.81557
258, 2, wb, attraction, a-b-da, 5, 3, 3, 36, 120, 195, 190, 117, 195, 120, 2, 0.301557
258, 2, wb, attraction, a-b-db, 2, 3, 3, 37, 195, 120, 120, 195, 119, 193, 3, 0.727368
258, 2, wb, attraction, a-b-db, 2, 3, 3, 37, 195, 120, 120, 195, 119, 193, 1, 0.385267
258, 2, wb, attraction, a-b-da, 2, 2, 4, 1, 90, 165, 163, 89, 165, 90, 2, 0.57563
258, 2, wb, attraction, a-b-da, 2, 2, 4, 1, 90, 165, 163, 89, 165, 90, 3, 0.311558
258, 2, wb, attraction, a-b-db, 9, 2, 4, 2, 86, 157, 165, 90, 90, 165, 1, 0.544534
258, 2, wb, attraction, a-b-db, 9, 2, 4, 2, 86, 157, 165, 90, 90, 165, 2, 0.321855
258, 2, wb, attraction, a-b-db, 14, 2, 4, 3, 83, 153, 90, 165, 165, 90, 1, 0.794871
258, 2, wb, attraction, a-b-db, 14, 2, 4, 3, 83, 153, 90, 165, 165, 90, 2, 0.370034
258, 2, wb, filler, NA, 999, 999, 4, 4, 117, 87, 91, 120, 162, 156, 1, 0.457143
258, 2, wb, filler, NA, 999, 999, 4, 4, 117, 87, 91, 120, 162, 156, 3, 0.50172
258, 2, wb, attraction, a-b-da, 14, 3, 4, 5, 195, 120, 120, 195, 181, 111, 1, 0.591548
258, 2, wb, attraction, a-b-da, 14, 3, 4, 5, 195, 120, 120, 195, 181, 111, 2, 0.590541
258, 2, wb, attraction, a-b-db, 5, 3, 4, 6, 195, 120, 120, 195, 117, 190, 3, 1.04431
258, 2, wb, attraction, a-b-db, 5, 3, 4, 6, 195, 120, 120, 195, 117, 190, 1, 0.457388
258, 2, wb, filler, NA, 999, 999, 4, 7, 141, 183, 119, 178, 58, 124, 3, 0.636352
258, 2, wb, filler, NA, 999, 999, 4, 7, 141, 183, 119, 178, 58, 124, 1, 0.650185
258, 2, wb, filler, NA, 999, 999, 4, 8, 135, 133, 188, 175, 106, 111, 3, 0.45389
258, 2, wb, filler, NA, 999, 999, 4, 8, 135, 133, 188, 175, 106, 111, 2, 0.434478
258, 2, wb, attraction, a-b-db, 9, 1, 4, 9, 57, 129, 135, 60, 60, 135, 1, 0.702894
258, 2, wb, attraction, a-b-db, 9, 1, 4, 9, 57, 129, 135, 60, 60, 135, 3, 0.346109
258, 2, wb, attraction, a-b-da, 5, 2, 4, 10, 161, 88, 165, 90, 90, 165, 1, 0.681774
258, 2, wb, attraction, a-b-da, 5, 2, 4, 10, 161, 88, 165, 90, 90, 165, 3, 2.25368
258, 2, wb, attraction, a-b-da, 14, 1, 4, 11, 125, 56, 135, 60, 60, 135, 1, 0.69682
258, 2, wb, attraction, a-b-da, 14, 1, 4, 11, 125, 56, 135, 60, 60, 135, 3, 0.500395
258, 2, wb, attraction, a-b-db, 2, 2, 4, 12, 89, 163, 90, 165, 165, 90, 3, 1.34976
258, 2, wb, attraction, a-b-db, 2, 2, 4, 12, 89, 163, 90, 165, 165, 90, 1, 0.406623
258, 2, wb, attraction, a-b-db, 9, 3, 4, 13, 120, 195, 114, 186, 195, 120, 3, 0.939759
258, 2, wb, attraction, a-b-db, 9, 3, 4, 13, 120, 195, 114, 186, 195, 120, 2, 0.436678
258, 2, wb, attraction, a-b-db, 14, 3, 4, 14, 120, 195, 111, 181, 195, 120, 3, 1.35328
258, 2, wb, attraction, a-b-db, 14, 3, 4, 14, 120, 195, 111, 181, 195, 120, 1, 0.354196
258, 2, wb, attraction, a-b-da, 14, 2, 4, 15, 90, 165, 153, 83, 165, 90, 3, 0.865887
258, 2, wb, attraction, a-b-da, 14, 2, 4, 15, 90, 165, 153, 83, 165, 90, 1, 0.286474
258, 2, wb, attraction, a-b-db, 5, 1, 4, 16, 135, 60, 60, 135, 58, 132, 1, 0.776778
258, 2, wb, attraction, a-b-db, 5, 1, 4, 16, 135, 60, 60, 135, 58, 132, 3, 0.496512
258, 2, wb, catch, NA, 999, 999, 4, 17, 164, 151, 163, 92, 95, 100, 3, 0.618357
258, 2, wb, catch, NA, 999, 999, 4, 17, 164, 151, 163, 92, 95, 100, 1, 0.296829
258, 2, wb, attraction, a-b-da, 9, 2, 4, 18, 90, 165, 165, 90, 157, 86, 1, 1.37061
258, 2, wb, attraction, a-b-da, 9, 2, 4, 18, 90, 165, 165, 90, 157, 86, 2, 0.354214
258, 2, wb, filler, NA, 999, 999, 4, 19, 190, 126, 86, 124, 130, 87, 3, 1.98604
258, 2, wb, filler, NA, 999, 999, 4, 19, 190, 126, 86, 124, 130, 87, 1, 0.385391
258, 2, wb, filler, NA, 999, 999, 4, 20, 113, 108, 195, 89, 191, 194, 1, 0.783864
258, 2, wb, filler, NA, 999, 999, 4, 20, 113, 108, 195, 89, 191, 194, 3, 0.319522
258, 2, wb, catch, NA, 999, 999, 4, 21, 188, 127, 113, 142, 133, 62, 3, 1.08875
258, 2, wb, catch, NA, 999, 999, 4, 21, 188, 127, 113, 142, 133, 62, 1, 0.411737
258, 2, wb, attraction, a-b-da, 2, 3, 4, 22, 195, 120, 120, 195, 193, 119, 3, 0.648895
258, 2, wb, attraction, a-b-da, 2, 3, 4, 22, 195, 120, 120, 195, 193, 119, 2, 0.542017
258, 2, wb, attraction, a-b-da, 2, 1, 4, 23, 135, 60, 134, 59, 60, 135, 1, 0.669739
258, 2, wb, attraction, a-b-da, 2, 1, 4, 23, 135, 60, 134, 59, 60, 135, 3, 1.2416
258, 2, wb, filler, NA, 999, 999, 4, 24, 69, 191, 178, 160, 86, 76, 3, 1.06902
258, 2, wb, filler, NA, 999, 999, 4, 24, 69, 191, 178, 160, 86, 76, 2, 0.353341
258, 2, wb, attraction, a-b-da, 5, 3, 4, 25, 120, 195, 190, 117, 195, 120, 1, 0.577197
258, 2, wb, attraction, a-b-da, 5, 3, 4, 25, 120, 195, 190, 117, 195, 120, 2, 0.760981
258, 2, wb, attraction, a-b-da, 9, 3, 4, 26, 195, 120, 186, 114, 120, 195, 1, 0.800019
258, 2, wb, attraction, a-b-da, 9, 3, 4, 26, 195, 120, 186, 114, 120, 195, 3, 0.519168
258, 2, wb, attraction, a-b-db, 5, 2, 4, 27, 88, 161, 165, 90, 90, 165, 1, 0.584162
258, 2, wb, attraction, a-b-db, 5, 2, 4, 27, 88, 161, 165, 90, 90, 165, 2, 0.263988
258, 2, wb, attraction, a-b-da, 5, 1, 4, 28, 60, 135, 132, 58, 135, 60, 1, 0.715178
258, 2, wb, attraction, a-b-da, 5, 1, 4, 28, 60, 135, 132, 58, 135, 60, 3, 0.405604
258, 2, wb, filler, NA, 999, 999, 4, 29, 160, 124, 82, 127, 183, 101, 2, 0.891413
258, 2, wb, filler, NA, 999, 999, 4, 29, 160, 124, 82, 127, 183, 101, 1, 0.302412
258, 2, wb, catch, NA, 999, 999, 4, 30, 107, 88, 146, 169, 161, 94, 1, 0.888363
258, 2, wb, catch, NA, 999, 999, 4, 30, 107, 88, 146, 169, 161, 94, 2, 0.627297
258, 2, wb, filler, NA, 999, 999, 4, 31, 124, 108, 118, 102, 116, 145, 1, 0.895682
258, 2, wb, filler, NA, 999, 999, 4, 31, 124, 108, 118, 102, 116, 145, 3, 0.354763
258, 2, wb, filler, NA, 999, 999, 4, 32, 101, 178, 108, 185, 123, 59, 3, 1.04263
258, 2, wb, filler, NA, 999, 999, 4, 32, 101, 178, 108, 185, 123, 59, 2, 0.311611
258, 2, wb, attraction, a-b-da, 9, 1, 4, 33, 129, 57, 60, 135, 135, 60, 1, 0.768741
258, 2, wb, attraction, a-b-da, 9, 1, 4, 33, 129, 57, 60, 135, 135, 60, 2, 1.34533
258, 2, wb, attraction, a-b-db, 2, 1, 4, 34, 135, 60, 60, 135, 59, 134, 2, 3.15262
258, 2, wb, attraction, a-b-db, 2, 1, 4, 34, 135, 60, 60, 135, 59, 134, 1, 0.656972
258, 2, wb, attraction, a-b-db, 2, 3, 4, 35, 195, 120, 119, 193, 120, 195, 2, 1.40405
258, 2, wb, attraction, a-b-db, 2, 3, 4, 35, 195, 120, 119, 193, 120, 195, 1, 0.31425
258, 2, wb, filler, NA, 999, 999, 4, 36, 62, 117, 106, 140, 76, 107, 1, 0.803479
258, 2, wb, filler, NA, 999, 999, 4, 36, 62, 117, 106, 140, 76, 107, 2, 0.386506
258, 2, wb, attraction, a-b-db, 14, 1, 4, 37, 56, 125, 60, 135, 135, 60, 1, 0.696958
258, 2, wb, attraction, a-b-db, 14, 1, 4, 37, 56, 125, 60, 135, 135, 60, 3, 0.412043
258, 2, wb, filler, NA, 999, 999, 5, 1, 73, 90, 192, 178, 71, 147, 1, 2.06377
258, 2, wb, filler, NA, 999, 999, 5, 1, 73, 90, 192, 178, 71, 147, 2, 0.30786
258, 2, wb, attraction, a-b-da, 5, 1, 5, 2, 135, 60, 132, 58, 60, 135, 2, 1.01309
258, 2, wb, attraction, a-b-da, 5, 1, 5, 2, 135, 60, 132, 58, 60, 135, 1, 0.387437
258, 2, wb, attraction, a-b-db, 5, 1, 5, 3, 60, 135, 58, 132, 135, 60, 1, 0.681827
258, 2, wb, attraction, a-b-db, 5, 1, 5, 3, 60, 135, 58, 132, 135, 60, 3, 0.469653
258, 2, wb, attraction, a-b-da, 9, 2, 5, 4, 157, 86, 90, 165, 165, 90, 2, 0.840819
258, 2, wb, attraction, a-b-da, 9, 2, 5, 4, 157, 86, 90, 165, 165, 90, 3, 0.813794
258, 2, wb, attraction, a-b-da, 9, 1, 5, 5, 135, 60, 129, 57, 60, 135, 2, 0.794796
258, 2, wb, attraction, a-b-da, 9, 1, 5, 5, 135, 60, 129, 57, 60, 135, 1, 0.985804
258, 2, wb, attraction, a-b-db, 14, 1, 5, 6, 60, 135, 135, 60, 56, 125, 1, 0.824164
258, 2, wb, attraction, a-b-db, 14, 1, 5, 6, 60, 135, 135, 60, 56, 125, 2, 0.341945
258, 2, wb, attraction, a-b-da, 2, 2, 5, 7, 163, 89, 90, 165, 165, 90, 2, 0.805726
258, 2, wb, attraction, a-b-da, 2, 2, 5, 7, 163, 89, 90, 165, 165, 90, 1, 0.364039
258, 2, wb, attraction, a-b-db, 2, 3, 5, 8, 119, 193, 120, 195, 195, 120, 3, 1.04319
258, 2, wb, attraction, a-b-db, 2, 3, 5, 8, 119, 193, 120, 195, 195, 120, 1, 0.424141
258, 2, wb, attraction, a-b-da, 5, 2, 5, 9, 161, 88, 90, 165, 165, 90, 2, 0.620701
258, 2, wb, attraction, a-b-da, 5, 2, 5, 9, 161, 88, 90, 165, 165, 90, 3, 0.394539
258, 2, wb, attraction, a-b-da, 5, 3, 5, 10, 120, 195, 190, 117, 195, 120, 1, 0.568316
258, 2, wb, attraction, a-b-da, 5, 3, 5, 10, 120, 195, 190, 117, 195, 120, 2, 0.560799
258, 2, wb, filler, NA, 999, 999, 5, 11, 188, 105, 80, 85, 71, 193, 2, 0.879824
258, 2, wb, filler, NA, 999, 999, 5, 11, 188, 105, 80, 85, 71, 193, 1, 0.347634
258, 2, wb, attraction, a-b-db, 14, 2, 5, 12, 83, 153, 165, 90, 90, 165, 1, 1.1554
258, 2, wb, attraction, a-b-db, 14, 2, 5, 12, 83, 153, 165, 90, 90, 165, 2, 0.707618
258, 2, wb, filler, NA, 999, 999, 5, 13, 161, 89, 162, 161, 131, 129, 1, 1.29262
258, 2, wb, filler, NA, 999, 999, 5, 13, 161, 89, 162, 161, 131, 129, 2, 0.327634
258, 2, wb, attraction, a-b-db, 14, 3, 5, 14, 195, 120, 120, 195, 111, 181, 3, 1.08007
258, 2, wb, attraction, a-b-db, 14, 3, 5, 14, 195, 120, 120, 195, 111, 181, 1, 0.931719
258, 2, wb, attraction, a-b-db, 9, 2, 5, 15, 86, 157, 165, 90, 90, 165, 1, 0.980066
258, 2, wb, attraction, a-b-db, 9, 2, 5, 15, 86, 157, 165, 90, 90, 165, 2, 0.603694
258, 2, wb, filler, NA, 999, 999, 5, 16, 81, 123, 122, 107, 171, 178, 1, 0.849475
258, 2, wb, filler, NA, 999, 999, 5, 16, 81, 123, 122, 107, 171, 178, 3, 0.414725
258, 2, wb, attraction, a-b-db, 5, 3, 5, 17, 117, 190, 120, 195, 195, 120, 3, 1.17966
258, 2, wb, attraction, a-b-db, 5, 3, 5, 17, 117, 190, 120, 195, 195, 120, 2, 0.331269
258, 2, wb, attraction, a-b-da, 14, 1, 5, 18, 135, 60, 60, 135, 125, 56, 1, 0.803761
258, 2, wb, attraction, a-b-da, 14, 1, 5, 18, 135, 60, 60, 135, 125, 56, 2, 0.834154
258, 2, wb, attraction, a-b-db, 5, 2, 5, 19, 165, 90, 88, 161, 90, 165, 1, 0.734447
258, 2, wb, attraction, a-b-db, 5, 2, 5, 19, 165, 90, 88, 161, 90, 165, 2, 0.384323
258, 2, wb, catch, NA, 999, 999, 5, 20, 86, 109, 123, 192, 137, 118, 1, 0.67077
258, 2, wb, catch, NA, 999, 999, 5, 20, 86, 109, 123, 192, 137, 118, 2, 0.386538
258, 2, wb, catch, NA, 999, 999, 5, 21, 126, 69, 158, 157, 123, 132, 1, 1.39301
258, 2, wb, catch, NA, 999, 999, 5, 21, 126, 69, 158, 157, 123, 132, 2, 0.679945
258, 2, wb, attraction, a-b-db, 2, 1, 5, 22, 60, 135, 59, 134, 135, 60, 1, 0.86623
258, 2, wb, attraction, a-b-db, 2, 1, 5, 22, 60, 135, 59, 134, 135, 60, 3, 0.8707
258, 2, wb, attraction, a-b-db, 2, 2, 5, 23, 89, 163, 165, 90, 90, 165, 1, 0.825667
258, 2, wb, attraction, a-b-db, 2, 2, 5, 23, 89, 163, 165, 90, 90, 165, 2, 0.607378
258, 2, wb, filler, NA, 999, 999, 5, 24, 148, 147, 142, 191, 126, 125, 3, 1.03646
258, 2, wb, filler, NA, 999, 999, 5, 24, 148, 147, 142, 191, 126, 125, 2, 0.514073
258, 2, wb, attraction, a-b-da, 2, 1, 5, 25, 135, 60, 134, 59, 60, 135, 1, 0.692566
258, 2, wb, attraction, a-b-da, 2, 1, 5, 25, 135, 60, 134, 59, 60, 135, 2, 0.582266
258, 2, wb, attraction, a-b-da, 2, 3, 5, 26, 193, 119, 195, 120, 120, 195, 1, 1.44485
258, 2, wb, attraction, a-b-da, 2, 3, 5, 26, 193, 119, 195, 120, 120, 195, 3, 0.513572
258, 2, wb, attraction, a-b-db, 9, 1, 5, 27, 60, 135, 135, 60, 57, 129, 1, 0.618692
258, 2, wb, attraction, a-b-db, 9, 1, 5, 27, 60, 135, 135, 60, 57, 129, 2, 0.537079
258, 2, wb, attraction, a-b-db, 9, 3, 5, 28, 195, 120, 120, 195, 114, 186, 1, 0.865613
258, 2, wb, attraction, a-b-db, 9, 3, 5, 28, 195, 120, 120, 195, 114, 186, 2, 0.758008
258, 2, wb, attraction, a-b-da, 14, 3, 5, 29, 181, 111, 195, 120, 120, 195, 1, 0.517027
258, 2, wb, attraction, a-b-da, 14, 3, 5, 29, 181, 111, 195, 120, 120, 195, 2, 0.49552
258, 2, wb, attraction, a-b-da, 14, 2, 5, 30, 153, 83, 165, 90, 90, 165, 1, 0.577313
258, 2, wb, attraction, a-b-da, 14, 2, 5, 30, 153, 83, 165, 90, 90, 165, 2, 0.74505
258, 2, wb, filler, NA, 999, 999, 5, 31, 147, 68, 93, 61, 163, 139, 2, 0.83272
258, 2, wb, filler, NA, 999, 999, 5, 31, 147, 68, 93, 61, 163, 139, 3, 0.414482
258, 2, wb, catch, NA, 999, 999, 5, 32, 95, 160, 149, 166, 83, 112, 3, 1.0196
258, 2, wb, catch, NA, 999, 999, 5, 32, 95, 160, 149, 166, 83, 112, 2, 0.417968
258, 2, wb, filler, NA, 999, 999, 5, 33, 135, 170, 124, 194, 98, 137, 3, 0.991242
258, 2, wb, filler, NA, 999, 999, 5, 33, 135, 170, 124, 194, 98, 137, 2, 0.494036
258, 2, wb, attraction, a-b-da, 9, 3, 5, 34, 186, 114, 195, 120, 120, 195, 1, 0.823852
258, 2, wb, attraction, a-b-da, 9, 3, 5, 34, 186, 114, 195, 120, 120, 195, 3, 0.853688
258, 2, wb, filler, NA, 999, 999, 5, 35, 194, 105, 94, 191, 149, 117, 1, 0.841214
258, 2, wb, filler, NA, 999, 999, 5, 35, 194, 105, 94, 191, 149, 117, 3, 2.36632
258, 2, wb, filler, NA, 999, 999, 5, 36, 155, 130, 123, 65, 124, 182, 2, 1.33276
258, 2, wb, filler, NA, 999, 999, 5, 36, 155, 130, 123, 65, 124, 182, 3, 0.302356
258, 2, wb, filler, NA, 999, 999, 5, 37, 176, 134, 147, 189, 93, 118, 3, 0.968185
258, 2, wb, filler, NA, 999, 999, 5, 37, 176, 134, 147, 189, 93, 118, 2, 0.392572
258, 2, wb, attraction, a-b-db, 9, 3, 6, 1, 120, 195, 195, 120, 114, 186, 1, 0.910327
258, 2, wb, attraction, a-b-db, 9, 3, 6, 1, 120, 195, 195, 120, 114, 186, 2, 0.256732
258, 2, wb, catch, NA, 999, 999, 6, 2, 79, 116, 101, 154, 187, 128, 1, 0.795851
258, 2, wb, catch, NA, 999, 999, 6, 2, 79, 116, 101, 154, 187, 128, 3, 0.314971
258, 2, wb, filler, NA, 999, 999, 6, 3, 80, 98, 190, 131, 134, 110, 1, 0.700262
258, 2, wb, filler, NA, 999, 999, 6, 3, 80, 98, 190, 131, 134, 110, 2, 0.287207
258, 2, wb, attraction, a-b-db, 2, 3, 6, 4, 195, 120, 119, 193, 120, 195, 1, 0.865747
258, 2, wb, attraction, a-b-db, 2, 3, 6, 4, 195, 120, 119, 193, 120, 195, 2, 0.502276
258, 2, wb, attraction, a-b-da, 2, 2, 6, 5, 165, 90, 90, 165, 163, 89, 1, 0.671894
258, 2, wb, attraction, a-b-da, 2, 2, 6, 5, 165, 90, 90, 165, 163, 89, 2, 0.307701
258, 2, wb, attraction, a-b-da, 14, 3, 6, 6, 181, 111, 195, 120, 120, 195, 1, 0.436798
258, 2, wb, attraction, a-b-da, 14, 3, 6, 6, 181, 111, 195, 120, 120, 195, 2, 0.265976
258, 2, wb, attraction, a-b-da, 9, 2, 6, 7, 157, 86, 90, 165, 165, 90, 2, 1.74124
258, 2, wb, attraction, a-b-da, 9, 2, 6, 7, 157, 86, 90, 165, 165, 90, 3, 1.58993
258, 2, wb, attraction, a-b-db, 9, 2, 6, 8, 90, 165, 86, 157, 165, 90, 2, 1.15548
258, 2, wb, attraction, a-b-db, 9, 2, 6, 8, 90, 165, 86, 157, 165, 90, 3, 0.539702
258, 2, wb, attraction, a-b-da, 2, 1, 6, 9, 60, 135, 134, 59, 135, 60, 1, 0.63545
258, 2, wb, attraction, a-b-da, 2, 1, 6, 9, 60, 135, 134, 59, 135, 60, 2, 0.28927
258, 2, wb, catch, NA, 999, 999, 6, 10, 166, 149, 109, 146, 127, 68, 3, 1.19511
258, 2, wb, catch, NA, 999, 999, 6, 10, 166, 149, 109, 146, 127, 68, 1, 0.578015
258, 2, wb, catch, NA, 999, 999, 6, 11, 157, 98, 109, 86, 174, 141, 2, 1.61646
258, 2, wb, catch, NA, 999, 999, 6, 11, 157, 98, 109, 86, 174, 141, 3, 0.558623
258, 2, wb, attraction, a-b-db, 14, 3, 6, 12, 111, 181, 120, 195, 195, 120, 3, 2.00581
258, 2, wb, attraction, a-b-db, 14, 3, 6, 12, 111, 181, 120, 195, 195, 120, 2, 0.587804
258, 2, wb, attraction, a-b-da, 5, 2, 6, 13, 165, 90, 90, 165, 161, 88, 1, 2.13007
258, 2, wb, attraction, a-b-da, 5, 2, 6, 13, 165, 90, 90, 165, 161, 88, 2, 0.77952
258, 2, wb, filler, NA, 999, 999, 6, 14, 125, 181, 136, 193, 151, 104, 3, 1.12194
258, 2, wb, filler, NA, 999, 999, 6, 14, 125, 181, 136, 193, 151, 104, 2, 0.635467
258, 2, wb, attraction, a-b-db, 5, 1, 6, 15, 60, 135, 135, 60, 58, 132, 1, 1.78383
258, 2, wb, attraction, a-b-db, 5, 1, 6, 15, 60, 135, 135, 60, 58, 132, 2, 0.495224
258, 2, wb, attraction, a-b-db, 2, 1, 6, 16, 60, 135, 135, 60, 59, 134, 2, 0.793046
258, 2, wb, attraction, a-b-db, 2, 1, 6, 16, 60, 135, 135, 60, 59, 134, 1, 0.7601
258, 2, wb, filler, NA, 999, 999, 6, 17, 90, 166, 192, 156, 167, 114, 1, 0.767134
258, 2, wb, filler, NA, 999, 999, 6, 17, 90, 166, 192, 156, 167, 114, 2, 0.903546
258, 2, wb, filler, NA, 999, 999, 6, 18, 180, 74, 162, 93, 185, 139, 1, 0.793206
258, 2, wb, filler, NA, 999, 999, 6, 18, 180, 74, 162, 93, 185, 139, 2, 0.584242
258, 2, wb, filler, NA, 999, 999, 6, 19, 85, 142, 127, 138, 150, 103, 1, 1.06275
258, 2, wb, filler, NA, 999, 999, 6, 19, 85, 142, 127, 138, 150, 103, 2, 0.442925
258, 2, wb, filler, NA, 999, 999, 6, 20, 137, 89, 114, 193, 187, 191, 1, 0.694792
258, 2, wb, filler, NA, 999, 999, 6, 20, 137, 89, 114, 193, 187, 191, 2, 0.321821
258, 2, wb, attraction, a-b-da, 9, 3, 6, 21, 195, 120, 186, 114, 120, 195, 1, 0.43504
258, 2, wb, attraction, a-b-da, 9, 3, 6, 21, 195, 120, 186, 114, 120, 195, 2, 0.312972
258, 2, wb, attraction, a-b-da, 5, 1, 6, 22, 132, 58, 135, 60, 60, 135, 1, 0.882055
258, 2, wb, attraction, a-b-da, 5, 1, 6, 22, 132, 58, 135, 60, 60, 135, 2, 0.557749
258, 2, wb, attraction, a-b-da, 14, 1, 6, 23, 60, 135, 125, 56, 135, 60, 2, 0.764814
258, 2, wb, attraction, a-b-da, 14, 1, 6, 23, 60, 135, 125, 56, 135, 60, 1, 0.461281
258, 2, wb, attraction, a-b-db, 2, 2, 6, 24, 89, 163, 90, 165, 165, 90, 1, 0.856342
258, 2, wb, attraction, a-b-db, 2, 2, 6, 24, 89, 163, 90, 165, 165, 90, 2, 0.284708
258, 2, wb, attraction, a-b-db, 5, 3, 6, 25, 117, 190, 120, 195, 195, 120, 1, 0.535215
258, 2, wb, attraction, a-b-db, 5, 3, 6, 25, 117, 190, 120, 195, 195, 120, 2, 0.241042
258, 2, wb, filler, NA, 999, 999, 6, 26, 63, 73, 112, 169, 105, 105, 1, 0.636903
258, 2, wb, filler, NA, 999, 999, 6, 26, 63, 73, 112, 169, 105, 105, 2, 0.346024
258, 2, wb, filler, NA, 999, 999, 6, 27, 122, 192, 142, 82, 171, 137, 2, 0.945864
258, 2, wb, filler, NA, 999, 999, 6, 27, 122, 192, 142, 82, 171, 137, 1, 0.314891
258, 2, wb, attraction, a-b-db, 9, 1, 6, 28, 57, 129, 60, 135, 135, 60, 1, 1.0681
258, 2, wb, attraction, a-b-db, 9, 1, 6, 28, 57, 129, 60, 135, 135, 60, 2, 0.848413
258, 2, wb, filler, NA, 999, 999, 6, 29, 162, 129, 112, 184, 173, 133, 1, 0.364137
258, 2, wb, filler, NA, 999, 999, 6, 29, 162, 129, 112, 184, 173, 133, 2, 0.204699
258, 2, wb, attraction, a-b-db, 5, 2, 6, 30, 90, 165, 165, 90, 88, 161, 1, 0.522442
258, 2, wb, attraction, a-b-db, 5, 2, 6, 30, 90, 165, 165, 90, 88, 161, 2, 0.228319
258, 2, wb, attraction, a-b-da, 9, 1, 6, 31, 135, 60, 129, 57, 60, 135, 1, 0.552857
258, 2, wb, attraction, a-b-da, 9, 1, 6, 31, 135, 60, 129, 57, 60, 135, 2, 0.265305
258, 2, wb, attraction, a-b-db, 14, 2, 6, 32, 165, 90, 90, 165, 83, 153, 1, 2.58054
258, 2, wb, attraction, a-b-db, 14, 2, 6, 32, 165, 90, 90, 165, 83, 153, 2, 0.835604
258, 2, wb, filler, NA, 999, 999, 6, 33, 166, 108, 88, 165, 114, 135, 2, 2.05599
258, 2, wb, filler, NA, 999, 999, 6, 33, 166, 108, 88, 165, 114, 135, 3, 0.372085
258, 2, wb, attraction, a-b-da, 5, 3, 6, 34, 190, 117, 120, 195, 195, 120, 1, 1.52311
258, 2, wb, attraction, a-b-da, 5, 3, 6, 34, 190, 117, 120, 195, 195, 120, 2, 0.620753
258, 2, wb, attraction, a-b-da, 2, 3, 6, 35, 195, 120, 193, 119, 120, 195, 1, 0.489742
258, 2, wb, attraction, a-b-da, 2, 3, 6, 35, 195, 120, 193, 119, 120, 195, 2, 0.292836
258, 2, wb, attraction, a-b-da, 14, 2, 6, 36, 165, 90, 90, 165, 153, 83, 3, 1.43078
258, 2, wb, attraction, a-b-da, 14, 2, 6, 36, 165, 90, 90, 165, 153, 83, 2, 0.284273
258, 2, wb, attraction, a-b-db, 14, 1, 6, 37, 60, 135, 56, 125, 135, 60, 3, 1.22286
258, 2, wb, attraction, a-b-db, 14, 1, 6, 37, 60, 135, 56, 125, 135, 60, 2, 0.452371
258, 2, wb, attraction, a-b-da, 14, 1, 7, 1, 125, 56, 135, 60, 60, 135, 1, 1.28015
258, 2, wb, attraction, a-b-da, 14, 1, 7, 1, 125, 56, 135, 60, 60, 135, 3, 0.435918
258, 2, wb, filler, NA, 999, 999, 7, 2, 135, 164, 76, 78, 156, 164, 2, 1.06424
258, 2, wb, filler, NA, 999, 999, 7, 2, 135, 164, 76, 78, 156, 164, 3, 0.292551
258, 2, wb, attraction, a-b-db, 14, 2, 7, 3, 90, 165, 83, 153, 165, 90, 3, 1.59035
258, 2, wb, attraction, a-b-db, 14, 2, 7, 3, 90, 165, 83, 153, 165, 90, 1, 0.605164
258, 2, wb, attraction, a-b-da, 5, 3, 7, 4, 120, 195, 190, 117, 195, 120, 2, 1.58695
258, 2, wb, attraction, a-b-da, 5, 3, 7, 4, 120, 195, 190, 117, 195, 120, 1, 0.314396
258, 2, wb, attraction, a-b-da, 9, 1, 7, 5, 129, 57, 60, 135, 135, 60, 3, 0.971553
258, 2, wb, attraction, a-b-da, 9, 1, 7, 5, 129, 57, 60, 135, 135, 60, 2, 0.675256
258, 2, wb, attraction, a-b-da, 9, 2, 7, 6, 90, 165, 165, 90, 157, 86, 3, 1.16563
258, 2, wb, attraction, a-b-da, 9, 2, 7, 6, 90, 165, 165, 90, 157, 86, 1, 0.526105
258, 2, wb, attraction, a-b-da, 5, 1, 7, 7, 132, 58, 60, 135, 135, 60, 3, 0.982466
258, 2, wb, attraction, a-b-da, 5, 1, 7, 7, 132, 58, 60, 135, 135, 60, 2, 0.472978
258, 2, wb, catch, NA, 999, 999, 7, 8, 76, 119, 146, 109, 191, 124, 1, 0.992489
258, 2, wb, catch, NA, 999, 999, 7, 8, 76, 119, 146, 109, 191, 124, 3, 0.423468
258, 2, wb, filler, NA, 999, 999, 7, 9, 120, 93, 81, 127, 96, 160, 1, 3.05192
258, 2, wb, filler, NA, 999, 999, 7, 9, 120, 93, 81, 127, 96, 160, 3, 0.800354
258, 2, wb, attraction, a-b-db, 2, 3, 7, 10, 195, 120, 120, 195, 119, 193, 1, 1.98196
258, 2, wb, attraction, a-b-db, 2, 3, 7, 10, 195, 120, 120, 195, 119, 193, 2, 0.261362
258, 2, wb, attraction, a-b-db, 14, 1, 7, 11, 60, 135, 56, 125, 135, 60, 3, 0.888536
258, 2, wb, attraction, a-b-db, 14, 1, 7, 11, 60, 135, 56, 125, 135, 60, 1, 0.56376
258, 2, wb, catch, NA, 999, 999, 7, 12, 135, 180, 146, 109, 104, 91, 3, 0.73866
258, 2, wb, catch, NA, 999, 999, 7, 12, 135, 180, 146, 109, 104, 91, 1, 0.515817
258, 2, wb, attraction, a-b-da, 2, 2, 7, 13, 90, 165, 165, 90, 163, 89, 1, 0.812948
258, 2, wb, attraction, a-b-da, 2, 2, 7, 13, 90, 165, 165, 90, 163, 89, 2, 0.54735
258, 2, wb, filler, NA, 999, 999, 7, 14, 115, 189, 148, 81, 64, 106, 2, 1.7631
258, 2, wb, filler, NA, 999, 999, 7, 14, 115, 189, 148, 81, 64, 106, 1, 0.803166
258, 2, wb, attraction, a-b-db, 5, 2, 7, 15, 90, 165, 165, 90, 88, 161, 1, 1.17678
258, 2, wb, attraction, a-b-db, 5, 2, 7, 15, 90, 165, 165, 90, 88, 161, 2, 0.384382
258, 2, wb, attraction, a-b-db, 2, 2, 7, 16, 165, 90, 89, 163, 90, 165, 1, 0.646848
258, 2, wb, attraction, a-b-db, 2, 2, 7, 16, 165, 90, 89, 163, 90, 165, 2, 0.587976
258, 2, wb, attraction, a-b-da, 2, 1, 7, 17, 134, 59, 60, 135, 135, 60, 1, 0.674417
258, 2, wb, attraction, a-b-da, 2, 1, 7, 17, 134, 59, 60, 135, 135, 60, 2, 0.390205
258, 2, wb, attraction, a-b-db, 9, 1, 7, 18, 57, 129, 60, 135, 135, 60, 3, 1.09212
258, 2, wb, attraction, a-b-db, 9, 1, 7, 18, 57, 129, 60, 135, 135, 60, 2, 0.406994
258, 2, wb, attraction, a-b-db, 14, 3, 7, 19, 120, 195, 195, 120, 111, 181, 2, 1.57214
258, 2, wb, attraction, a-b-db, 14, 3, 7, 19, 120, 195, 195, 120, 111, 181, 1, 0.4916
258, 2, wb, filler, NA, 999, 999, 7, 20, 182, 157, 138, 189, 147, 122, 3, 1.20555
258, 2, wb, filler, NA, 999, 999, 7, 20, 182, 157, 138, 189, 147, 122, 1, 0.555634
258, 2, wb, filler, NA, 999, 999, 7, 21, 115, 167, 180, 56, 170, 191, 2, 1.05144
258, 2, wb, filler, NA, 999, 999, 7, 21, 115, 167, 180, 56, 170, 191, 3, 0.312407
258, 2, wb, catch, NA, 999, 999, 7, 22, 104, 151, 137, 178, 108, 87, 3, 1.14553
258, 2, wb, catch, NA, 999, 999, 7, 22, 104, 151, 137, 178, 108, 87, 2, 0.682529
258, 2, wb, attraction, a-b-db, 9, 3, 7, 23, 114, 186, 120, 195, 195, 120, 3, 0.740912
258, 2, wb, attraction, a-b-db, 9, 3, 7, 23, 114, 186, 120, 195, 195, 120, 2, 0.286126
258, 2, wb, attraction, a-b-db, 5, 3, 7, 24, 117, 190, 120, 195, 195, 120, 3, 1.04051
258, 2, wb, attraction, a-b-db, 5, 3, 7, 24, 117, 190, 120, 195, 195, 120, 2, 0.301509
258, 2, wb, attraction, a-b-db, 5, 1, 7, 25, 60, 135, 58, 132, 135, 60, 3, 0.655317
258, 2, wb, attraction, a-b-db, 5, 1, 7, 25, 60, 135, 58, 132, 135, 60, 2, 0.667764
258, 2, wb, filler, NA, 999, 999, 7, 26, 155, 135, 65, 148, 186, 60, 3, 1.16679
258, 2, wb, filler, NA, 999, 999, 7, 26, 155, 135, 65, 148, 186, 60, 1, 0.455064
258, 2, wb, attraction, a-b-da, 5, 2, 7, 27, 161, 88, 165, 90, 90, 165, 2, 0.794872
258, 2, wb, attraction, a-b-da, 5, 2, 7, 27, 161, 88, 165, 90, 90, 165, 3, 0.353935
258, 2, wb, filler, NA, 999, 999, 7, 28, 147, 186, 160, 123, 64, 113, 3, 0.961929
258, 2, wb, filler, NA, 999, 999, 7, 28, 147, 186, 160, 123, 64, 113, 1, 0.322116
258, 2, wb, attraction, a-b-da, 14, 3, 7, 29, 181, 111, 195, 120, 120, 195, 1, 1.06741
258, 2, wb, attraction, a-b-da, 14, 3, 7, 29, 181, 111, 195, 120, 120, 195, 3, 0.287752
258, 2, wb, attraction, a-b-db, 2, 1, 7, 30, 60, 135, 59, 134, 135, 60, 1, 0.762126
258, 2, wb, attraction, a-b-db, 2, 1, 7, 30, 60, 135, 59, 134, 135, 60, 3, 1.58658
258, 2, wb, filler, NA, 999, 999, 7, 31, 144, 69, 87, 169, 105, 124, 1, 0.608637
258, 2, wb, filler, NA, 999, 999, 7, 31, 144, 69, 87, 169, 105, 124, 2, 0.343094
258, 2, wb, attraction, a-b-da, 9, 3, 7, 32, 195, 120, 186, 114, 120, 195, 2, 2.81499
258, 2, wb, attraction, a-b-da, 9, 3, 7, 32, 195, 120, 186, 114, 120, 195, 3, 0.292728
258, 2, wb, attraction, a-b-db, 9, 2, 7, 33, 86, 157, 165, 90, 90, 165, 2, 0.694598
258, 2, wb, attraction, a-b-db, 9, 2, 7, 33, 86, 157, 165, 90, 90, 165, 3, 0.337608
258, 2, wb, attraction, a-b-da, 14, 2, 7, 34, 90, 165, 153, 83, 165, 90, 2, 0.61817
258, 2, wb, attraction, a-b-da, 14, 2, 7, 34, 90, 165, 153, 83, 165, 90, 1, 0.312599
258, 2, wb, attraction, a-b-da, 2, 3, 7, 35, 120, 195, 195, 120, 193, 119, 2, 0.569803
258, 2, wb, attraction, a-b-da, 2, 3, 7, 35, 120, 195, 195, 120, 193, 119, 1, 0.298322
258, 2, wb, filler, NA, 999, 999, 7, 36, 145, 93, 86, 164, 76, 57, 3, 0.860188
258, 2, wb, filler, NA, 999, 999, 7, 36, 145, 93, 86, 164, 76, 57, 2, 0.71243
258, 2, wb, filler, NA, 999, 999, 7, 37, 155, 61, 188, 140, 84, 100, 3, 1.2735
258, 2, wb, filler, NA, 999, 999, 7, 37, 155, 61, 188, 140, 84, 100, 2, 0.325087
258, 2, wb, attraction, a-b-db, 5, 2, 8, 1, 165, 90, 88, 161, 90, 165, 1, 0.909562
258, 2, wb, attraction, a-b-db, 5, 2, 8, 1, 165, 90, 88, 161, 90, 165, 2, 0.711926
258, 2, wb, catch, NA, 999, 999, 8, 2, 68, 127, 91, 164, 161, 154, 1, 0.641148
258, 2, wb, catch, NA, 999, 999, 8, 2, 68, 127, 91, 164, 161, 154, 2, 0.358142
258, 2, wb, attraction, a-b-da, 9, 3, 8, 3, 186, 114, 195, 120, 120, 195, 2, 2.4773
258, 2, wb, attraction, a-b-da, 9, 3, 8, 3, 186, 114, 195, 120, 120, 195, 3, 0.328477
258, 2, wb, attraction, a-b-db, 5, 1, 8, 4, 135, 60, 60, 135, 58, 132, 1, 1.00931
258, 2, wb, attraction, a-b-db, 5, 1, 8, 4, 135, 60, 60, 135, 58, 132, 2, 0.503371
258, 2, wb, attraction, a-b-db, 9, 1, 8, 5, 57, 129, 135, 60, 60, 135, 2, 1.297
258, 2, wb, attraction, a-b-db, 9, 1, 8, 5, 57, 129, 135, 60, 60, 135, 1, 0.73206
258, 2, wb, attraction, a-b-da, 9, 1, 8, 6, 129, 57, 60, 135, 135, 60, 1, 0.740313
258, 2, wb, attraction, a-b-da, 9, 1, 8, 6, 129, 57, 60, 135, 135, 60, 2, 0.325409
258, 2, wb, catch, NA, 999, 999, 8, 7, 175, 140, 103, 92, 99, 156, 1, 0.357952
258, 2, wb, catch, NA, 999, 999, 8, 7, 175, 140, 103, 92, 99, 156, 2, 3.03052
258, 2, wb, attraction, a-b-da, 14, 3, 8, 8, 181, 111, 120, 195, 195, 120, 3, 3.00212
258, 2, wb, attraction, a-b-da, 14, 3, 8, 8, 181, 111, 120, 195, 195, 120, 2, 0.376456
258, 2, wb, attraction, a-b-db, 2, 2, 8, 9, 165, 90, 89, 163, 90, 165, 1, 0.743047
258, 2, wb, attraction, a-b-db, 2, 2, 8, 9, 165, 90, 89, 163, 90, 165, 2, 0.368074
258, 2, wb, filler, NA, 999, 999, 8, 10, 186, 154, 140, 110, 80, 179, 2, 0.839282
258, 2, wb, filler, NA, 999, 999, 8, 10, 186, 154, 140, 110, 80, 179, 1, 0.620299
258, 2, wb, catch, NA, 999, 999, 8, 11, 187, 128, 132, 63, 163, 92, 2, 0.705354
258, 2, wb, catch, NA, 999, 999, 8, 11, 187, 128, 132, 63, 163, 92, 1, 0.715782
258, 2, wb, attraction, a-b-da, 14, 2, 8, 12, 165, 90, 90, 165, 153, 83, 3, 1.22884
258, 2, wb, attraction, a-b-da, 14, 2, 8, 12, 165, 90, 90, 165, 153, 83, 2, 0.274398
258, 2, wb, attraction, a-b-da, 2, 3, 8, 13, 193, 119, 195, 120, 120, 195, 1, 0.684906
258, 2, wb, attraction, a-b-da, 2, 3, 8, 13, 193, 119, 195, 120, 120, 195, 3, 0.464713
258, 2, wb, filler, NA, 999, 999, 8, 14, 64, 150, 130, 137, 82, 124, 1, 1.67581
258, 2, wb, filler, NA, 999, 999, 8, 14, 64, 150, 130, 137, 82, 124, 2, 0.247363
258, 2, wb, attraction, a-b-da, 9, 2, 8, 15, 165, 90, 157, 86, 90, 165, 2, 1.06711
258, 2, wb, attraction, a-b-da, 9, 2, 8, 15, 165, 90, 157, 86, 90, 165, 3, 0.391437
258, 2, wb, attraction, a-b-db, 2, 3, 8, 16, 119, 193, 120, 195, 195, 120, 3, 1.04526
258, 2, wb, attraction, a-b-db, 2, 3, 8, 16, 119, 193, 120, 195, 195, 120, 2, 0.266226
258, 2, wb, attraction, a-b-db, 2, 1, 8, 17, 60, 135, 135, 60, 59, 134, 2, 0.853441
258, 2, wb, attraction, a-b-db, 2, 1, 8, 17, 60, 135, 135, 60, 59, 134, 3, 0.354449
258, 2, wb, filler, NA, 999, 999, 8, 18, 93, 56, 188, 85, 132, 181, 1, 0.906246
258, 2, wb, filler, NA, 999, 999, 8, 18, 93, 56, 188, 85, 132, 181, 3, 0.300749
258, 2, wb, attraction, a-b-da, 2, 1, 8, 19, 134, 59, 60, 135, 135, 60, 3, 1.07057
258, 2, wb, attraction, a-b-da, 2, 1, 8, 19, 134, 59, 60, 135, 135, 60, 2, 0.434145
258, 2, wb, attraction, a-b-db, 9, 2, 8, 20, 86, 157, 165, 90, 90, 165, 2, 0.886626
258, 2, wb, attraction, a-b-db, 9, 2, 8, 20, 86, 157, 165, 90, 90, 165, 1, 0.36967
258, 2, wb, filler, NA, 999, 999, 8, 21, 185, 77, 140, 83, 138, 66, 3, 1.07285
258, 2, wb, filler, NA, 999, 999, 8, 21, 185, 77, 140, 83, 138, 66, 1, 0.868644
258, 2, wb, attraction, a-b-da, 14, 1, 8, 22, 125, 56, 135, 60, 60, 135, 1, 1.08743
258, 2, wb, attraction, a-b-da, 14, 1, 8, 22, 125, 56, 135, 60, 60, 135, 2, 1.03437
258, 2, wb, filler, NA, 999, 999, 8, 23, 161, 185, 136, 95, 128, 188, 2, 0.534682
258, 2, wb, filler, NA, 999, 999, 8, 23, 161, 185, 136, 95, 128, 188, 1, 0.664521
258, 2, wb, filler, NA, 999, 999, 8, 24, 91, 123, 59, 192, 186, 102, 1, 2.3955
258, 2, wb, filler, NA, 999, 999, 8, 24, 91, 123, 59, 192, 186, 102, 3, 0.402119
258, 2, wb, filler, NA, 999, 999, 8, 25, 92, 128, 193, 145, 62, 169, 1, 1.31186
258, 2, wb, filler, NA, 999, 999, 8, 25, 92, 128, 193, 145, 62, 169, 2, 0.338158
258, 2, wb, filler, NA, 999, 999, 8, 26, 81, 184, 150, 143, 102, 165, 2, 4.08269
258, 2, wb, filler, NA, 999, 999, 8, 26, 81, 184, 150, 143, 102, 165, 3, 1.23745
258, 2, wb, attraction, a-b-da, 2, 2, 8, 27, 163, 89, 165, 90, 90, 165, 2, 1.2656
258, 2, wb, attraction, a-b-da, 2, 2, 8, 27, 163, 89, 165, 90, 90, 165, 3, 0.701919
258, 2, wb, attraction, a-b-db, 9, 3, 8, 28, 195, 120, 120, 195, 114, 186, 3, 0.743651
258, 2, wb, attraction, a-b-db, 9, 3, 8, 28, 195, 120, 120, 195, 114, 186, 1, 1.29677
258, 2, wb, attraction, a-b-da, 5, 1, 8, 29, 132, 58, 135, 60, 60, 135, 2, 0.530115
258, 2, wb, attraction, a-b-da, 5, 1, 8, 29, 132, 58, 135, 60, 60, 135, 3, 1.17201
258, 2, wb, attraction, a-b-db, 14, 2, 8, 30, 165, 90, 90, 165, 83, 153, 1, 0.882831
258, 2, wb, attraction, a-b-db, 14, 2, 8, 30, 165, 90, 90, 165, 83, 153, 3, 1.06255
258, 2, wb, attraction, a-b-db, 14, 1, 8, 31, 135, 60, 56, 125, 60, 135, 1, 1.48945
258, 2, wb, attraction, a-b-db, 14, 1, 8, 31, 135, 60, 56, 125, 60, 135, 2, 0.292374
258, 2, wb, filler, NA, 999, 999, 8, 32, 192, 107, 193, 133, 159, 157, 1, 0.718174
258, 2, wb, filler, NA, 999, 999, 8, 32, 192, 107, 193, 133, 159, 157, 3, 0.648634
258, 2, wb, attraction, a-b-da, 5, 3, 8, 33, 120, 195, 190, 117, 195, 120, 1, 0.516302
258, 2, wb, attraction, a-b-da, 5, 3, 8, 33, 120, 195, 190, 117, 195, 120, 2, 0.382807
258, 2, wb, filler, NA, 999, 999, 8, 34, 182, 94, 126, 72, 97, 119, 3, 0.925327
258, 2, wb, filler, NA, 999, 999, 8, 34, 182, 94, 126, 72, 97, 119, 1, 0.534996
258, 2, wb, attraction, a-b-da, 5, 2, 8, 35, 161, 88, 90, 165, 165, 90, 3, 0.935491
258, 2, wb, attraction, a-b-da, 5, 2, 8, 35, 161, 88, 90, 165, 165, 90, 2, 0.55314
258, 2, wb, attraction, a-b-db, 5, 3, 8, 36, 117, 190, 195, 120, 120, 195, 1, 0.67289
258, 2, wb, attraction, a-b-db, 5, 3, 8, 36, 117, 190, 195, 120, 120, 195, 3, 0.532704
258, 2, wb, attraction, a-b-db, 14, 3, 8, 37, 111, 181, 195, 120, 120, 195, 1, 0.661134
258, 2, wb, attraction, a-b-db, 14, 3, 8, 37, 111, 181, 195, 120, 120, 195, 3, 0.881586
