sub_n, computer_n, bw_cond, effect, set, distance, diag, block_n, trial_n, h1, w1, h2, w2, h3, w3, choice, rt 
290, 2, wb, practice, NA, 999, 999, 0, 1, 84, 153, 109, 58, 178, 175, 2, 2.87274
290, 2, wb, practice, NA, 999, 999, 0, 1, 84, 153, 109, 58, 178, 175, 3, 5.2791
290, 2, wb, practice, NA, 999, 999, 0, 2, 132, 85, 195, 173, 121, 189, 1, 1.81037
290, 2, wb, practice, NA, 999, 999, 0, 2, 132, 85, 195, 173, 121, 189, 2, 1.92338
290, 2, wb, practice, NA, 999, 999, 0, 3, 144, 188, 119, 133, 157, 114, 3, 4.57587
290, 2, wb, practice, NA, 999, 999, 0, 3, 144, 188, 119, 133, 157, 114, 1, 2.53403
290, 2, wb, attraction, a-b-da, 9, 2, 1, 1, 157, 86, 165, 90, 90, 165, 1, 6.45837
290, 2, wb, attraction, a-b-da, 9, 2, 1, 1, 157, 86, 165, 90, 90, 165, 2, 4.26893
290, 2, wb, attraction, a-b-db, 5, 3, 1, 2, 120, 195, 195, 120, 117, 190, 3, 2.75888
290, 2, wb, attraction, a-b-db, 5, 3, 1, 2, 120, 195, 195, 120, 117, 190, 1, 2.95064
290, 2, wb, filler, NA, 999, 999, 1, 3, 105, 93, 138, 170, 61, 82, 3, 1.73367
290, 2, wb, filler, NA, 999, 999, 1, 3, 105, 93, 138, 170, 61, 82, 2, 1.03114
290, 2, wb, attraction, a-b-db, 9, 3, 1, 4, 120, 195, 195, 120, 114, 186, 2, 2.93943
290, 2, wb, attraction, a-b-db, 9, 3, 1, 4, 120, 195, 195, 120, 114, 186, 1, 1.81974
290, 2, wb, filler, NA, 999, 999, 1, 5, 180, 160, 83, 96, 98, 166, 2, 1.31241
290, 2, wb, filler, NA, 999, 999, 1, 5, 180, 160, 83, 96, 98, 166, 1, 0.986791
290, 2, wb, attraction, a-b-da, 9, 1, 1, 6, 135, 60, 129, 57, 60, 135, 2, 4.47303
290, 2, wb, attraction, a-b-da, 9, 1, 1, 6, 135, 60, 129, 57, 60, 135, 3, 3.23562
290, 2, wb, attraction, a-b-da, 9, 3, 1, 7, 120, 195, 186, 114, 195, 120, 2, 3.95925
290, 2, wb, attraction, a-b-da, 9, 3, 1, 7, 120, 195, 186, 114, 195, 120, 1, 2.10257
290, 2, wb, attraction, a-b-da, 14, 2, 1, 8, 165, 90, 90, 165, 153, 83, 3, 3.94385
290, 2, wb, attraction, a-b-da, 14, 2, 1, 8, 165, 90, 90, 165, 153, 83, 2, 2.23201
290, 2, wb, attraction, a-b-da, 14, 1, 1, 9, 135, 60, 60, 135, 125, 56, 3, 4.22801
290, 2, wb, attraction, a-b-da, 14, 1, 1, 9, 135, 60, 60, 135, 125, 56, 2, 1.53651
290, 2, wb, filler, NA, 999, 999, 1, 10, 98, 149, 87, 173, 163, 195, 1, 6.27265
290, 2, wb, filler, NA, 999, 999, 1, 10, 98, 149, 87, 173, 163, 195, 3, 0.610641
290, 2, wb, attraction, a-b-da, 5, 1, 1, 11, 132, 58, 60, 135, 135, 60, 1, 1.35974
290, 2, wb, attraction, a-b-da, 5, 1, 1, 11, 132, 58, 60, 135, 135, 60, 2, 0.640093
290, 2, wb, attraction, a-b-da, 2, 2, 1, 12, 165, 90, 163, 89, 90, 165, 1, 3.79574
290, 2, wb, attraction, a-b-da, 2, 2, 1, 12, 165, 90, 163, 89, 90, 165, 3, 0.953862
290, 2, wb, catch, NA, 999, 999, 1, 13, 119, 76, 139, 116, 168, 147, 1, 1.66548
290, 2, wb, catch, NA, 999, 999, 1, 13, 119, 76, 139, 116, 168, 147, 3, 0.653681
290, 2, wb, attraction, a-b-da, 5, 2, 1, 14, 161, 88, 90, 165, 165, 90, 1, 3.0574
290, 2, wb, attraction, a-b-da, 5, 2, 1, 14, 161, 88, 90, 165, 165, 90, 2, 0.493019
290, 2, wb, attraction, a-b-db, 9, 1, 1, 15, 60, 135, 135, 60, 57, 129, 3, 3.32688
290, 2, wb, attraction, a-b-db, 9, 1, 1, 15, 60, 135, 135, 60, 57, 129, 2, 1.04775
290, 2, wb, attraction, a-b-db, 2, 2, 1, 16, 165, 90, 90, 165, 89, 163, 1, 7.69935
290, 2, wb, attraction, a-b-db, 2, 2, 1, 16, 165, 90, 90, 165, 89, 163, 2, 0.43634
290, 2, wb, attraction, a-b-da, 14, 3, 1, 17, 120, 195, 195, 120, 181, 111, 3, 2.63267
290, 2, wb, attraction, a-b-da, 14, 3, 1, 17, 120, 195, 195, 120, 181, 111, 2, 0.437921
290, 2, wb, attraction, a-b-da, 2, 1, 1, 18, 134, 59, 135, 60, 60, 135, 1, 9.17839
290, 2, wb, attraction, a-b-da, 2, 1, 1, 18, 134, 59, 135, 60, 60, 135, 3, 0.463431
290, 2, wb, filler, NA, 999, 999, 1, 19, 133, 181, 151, 141, 118, 186, 2, 4.5387
290, 2, wb, filler, NA, 999, 999, 1, 19, 133, 181, 151, 141, 118, 186, 1, 0.522484
290, 2, wb, attraction, a-b-da, 2, 3, 1, 20, 195, 120, 193, 119, 120, 195, 1, 11.7716
290, 2, wb, attraction, a-b-da, 2, 3, 1, 20, 195, 120, 193, 119, 120, 195, 3, 0.512481
290, 2, wb, filler, NA, 999, 999, 1, 21, 120, 107, 149, 68, 148, 56, 3, 2.98581
290, 2, wb, filler, NA, 999, 999, 1, 21, 120, 107, 149, 68, 148, 56, 2, 11.3848
290, 2, wb, filler, NA, 999, 999, 1, 22, 120, 69, 81, 98, 149, 121, 2, 9.37985
290, 2, wb, filler, NA, 999, 999, 1, 22, 120, 69, 81, 98, 149, 121, 3, 0.896771
290, 2, wb, attraction, a-b-db, 2, 1, 1, 23, 60, 135, 59, 134, 135, 60, 3, 4.41839
290, 2, wb, attraction, a-b-db, 2, 1, 1, 23, 60, 135, 59, 134, 135, 60, 2, 1.21565
290, 2, wb, attraction, a-b-db, 14, 2, 1, 24, 83, 153, 165, 90, 90, 165, 1, 5.63659
290, 2, wb, attraction, a-b-db, 14, 2, 1, 24, 83, 153, 165, 90, 90, 165, 2, 2.32085
290, 2, wb, catch, NA, 999, 999, 1, 25, 127, 188, 107, 88, 137, 118, 2, 1.64937
290, 2, wb, catch, NA, 999, 999, 1, 25, 127, 188, 107, 88, 137, 118, 1, 0.742145
290, 2, wb, filler, NA, 999, 999, 1, 26, 145, 163, 189, 155, 90, 144, 3, 2.42205
290, 2, wb, filler, NA, 999, 999, 1, 26, 145, 163, 189, 155, 90, 144, 2, 3.05908
290, 2, wb, attraction, a-b-db, 14, 3, 1, 27, 120, 195, 195, 120, 111, 181, 3, 4.41348
290, 2, wb, attraction, a-b-db, 14, 3, 1, 27, 120, 195, 195, 120, 111, 181, 2, 0.474743
290, 2, wb, attraction, a-b-da, 5, 3, 1, 28, 120, 195, 190, 117, 195, 120, 2, 9.59718
290, 2, wb, attraction, a-b-da, 5, 3, 1, 28, 120, 195, 190, 117, 195, 120, 1, 0.657398
290, 2, wb, attraction, a-b-db, 5, 1, 1, 29, 135, 60, 58, 132, 60, 135, 3, 6.07659
290, 2, wb, attraction, a-b-db, 5, 1, 1, 29, 135, 60, 58, 132, 60, 135, 1, 0.574555
290, 2, wb, attraction, a-b-db, 2, 3, 1, 30, 195, 120, 119, 193, 120, 195, 1, 8.20503
290, 2, wb, attraction, a-b-db, 2, 3, 1, 30, 195, 120, 119, 193, 120, 195, 3, 0.953802
290, 2, wb, attraction, a-b-db, 14, 1, 1, 31, 56, 125, 135, 60, 60, 135, 1, 2.70537
290, 2, wb, attraction, a-b-db, 14, 1, 1, 31, 56, 125, 135, 60, 60, 135, 2, 0.9793
290, 2, wb, filler, NA, 999, 999, 1, 32, 83, 166, 105, 132, 79, 190, 1, 4.63355
290, 2, wb, filler, NA, 999, 999, 1, 32, 83, 166, 105, 132, 79, 190, 2, 3.71815
290, 2, wb, filler, NA, 999, 999, 1, 33, 185, 176, 146, 109, 122, 108, 3, 1.65418
290, 2, wb, filler, NA, 999, 999, 1, 33, 185, 176, 146, 109, 122, 108, 1, 0.362322
290, 2, wb, attraction, a-b-db, 5, 2, 1, 34, 88, 161, 90, 165, 165, 90, 1, 7.55349
290, 2, wb, attraction, a-b-db, 5, 2, 1, 34, 88, 161, 90, 165, 165, 90, 2, 0.672432
290, 2, wb, attraction, a-b-db, 9, 2, 1, 35, 86, 157, 165, 90, 90, 165, 1, 13.0035
290, 2, wb, attraction, a-b-db, 9, 2, 1, 35, 86, 157, 165, 90, 90, 165, 2, 0.446624
290, 2, wb, catch, NA, 999, 999, 1, 36, 106, 149, 73, 122, 163, 152, 2, 1.0025
290, 2, wb, catch, NA, 999, 999, 1, 36, 106, 149, 73, 122, 163, 152, 3, 0.441538
290, 2, wb, filler, NA, 999, 999, 1, 37, 181, 74, 57, 72, 129, 159, 2, 4.35725
290, 2, wb, filler, NA, 999, 999, 1, 37, 181, 74, 57, 72, 129, 159, 3, 2.03661
290, 2, wb, attraction, a-b-da, 14, 2, 2, 1, 153, 83, 90, 165, 165, 90, 1, 1.86459
290, 2, wb, attraction, a-b-da, 14, 2, 2, 1, 153, 83, 90, 165, 165, 90, 2, 0.828578
290, 2, wb, attraction, a-b-da, 5, 3, 2, 2, 190, 117, 120, 195, 195, 120, 1, 3.84897
290, 2, wb, attraction, a-b-da, 5, 3, 2, 2, 190, 117, 120, 195, 195, 120, 2, 0.693061
290, 2, wb, attraction, a-b-db, 14, 3, 2, 3, 111, 181, 195, 120, 120, 195, 1, 1.76669
290, 2, wb, attraction, a-b-db, 14, 3, 2, 3, 111, 181, 195, 120, 120, 195, 2, 0.470816
290, 2, wb, filler, NA, 999, 999, 2, 4, 70, 67, 157, 175, 136, 92, 1, 1.74592
290, 2, wb, filler, NA, 999, 999, 2, 4, 70, 67, 157, 175, 136, 92, 2, 0.466716
290, 2, wb, attraction, a-b-db, 2, 1, 2, 5, 135, 60, 59, 134, 60, 135, 1, 8.33397
290, 2, wb, attraction, a-b-db, 2, 1, 2, 5, 135, 60, 59, 134, 60, 135, 2, 0.605178
290, 2, wb, attraction, a-b-db, 5, 3, 2, 6, 117, 190, 195, 120, 120, 195, 1, 8.45918
290, 2, wb, attraction, a-b-db, 5, 3, 2, 6, 117, 190, 195, 120, 120, 195, 3, 0.524947
290, 2, wb, filler, NA, 999, 999, 2, 7, 68, 89, 154, 181, 167, 177, 1, 2.12539
290, 2, wb, filler, NA, 999, 999, 2, 7, 68, 89, 154, 181, 167, 177, 3, 0.894805
290, 2, wb, attraction, a-b-da, 2, 3, 2, 8, 120, 195, 195, 120, 193, 119, 3, 2.67242
290, 2, wb, attraction, a-b-da, 2, 3, 2, 8, 120, 195, 195, 120, 193, 119, 1, 0.627558
290, 2, wb, attraction, a-b-da, 14, 3, 2, 9, 195, 120, 120, 195, 181, 111, 3, 3.1439
290, 2, wb, attraction, a-b-da, 14, 3, 2, 9, 195, 120, 120, 195, 181, 111, 2, 0.584267
290, 2, wb, filler, NA, 999, 999, 2, 10, 107, 85, 137, 175, 87, 79, 3, 1.61471
290, 2, wb, filler, NA, 999, 999, 2, 10, 107, 85, 137, 175, 87, 79, 2, 0.300879
290, 2, wb, attraction, a-b-da, 14, 1, 2, 11, 135, 60, 125, 56, 60, 135, 2, 1.69461
290, 2, wb, attraction, a-b-da, 14, 1, 2, 11, 135, 60, 125, 56, 60, 135, 1, 0.76143
290, 2, wb, attraction, a-b-db, 9, 2, 2, 12, 90, 165, 86, 157, 165, 90, 3, 6.37653
290, 2, wb, attraction, a-b-db, 9, 2, 2, 12, 90, 165, 86, 157, 165, 90, 2, 0.43848
290, 2, wb, attraction, a-b-db, 14, 2, 2, 13, 83, 153, 90, 165, 165, 90, 1, 1.81899
290, 2, wb, attraction, a-b-db, 14, 2, 2, 13, 83, 153, 90, 165, 165, 90, 2, 0.904979
290, 2, wb, catch, NA, 999, 999, 2, 14, 136, 119, 81, 114, 154, 161, 2, 0.922778
290, 2, wb, catch, NA, 999, 999, 2, 14, 136, 119, 81, 114, 154, 161, 3, 0.508386
290, 2, wb, filler, NA, 999, 999, 2, 15, 179, 116, 167, 106, 106, 159, 2, 2.73344
290, 2, wb, filler, NA, 999, 999, 2, 15, 179, 116, 167, 106, 106, 159, 1, 0.518635
290, 2, wb, attraction, a-b-db, 2, 3, 2, 16, 119, 193, 120, 195, 195, 120, 1, 5.8557
290, 2, wb, attraction, a-b-db, 2, 3, 2, 16, 119, 193, 120, 195, 195, 120, 3, 0.418465
290, 2, wb, attraction, a-b-db, 9, 1, 2, 17, 135, 60, 60, 135, 57, 129, 3, 3.71974
290, 2, wb, attraction, a-b-db, 9, 1, 2, 17, 135, 60, 60, 135, 57, 129, 2, 0.593136
290, 2, wb, filler, NA, 999, 999, 2, 18, 172, 94, 116, 128, 90, 159, 3, 2.83101
290, 2, wb, filler, NA, 999, 999, 2, 18, 172, 94, 116, 128, 90, 159, 1, 0.835948
290, 2, wb, filler, NA, 999, 999, 2, 19, 96, 122, 179, 181, 59, 180, 3, 11.3924
290, 2, wb, filler, NA, 999, 999, 2, 19, 96, 122, 179, 181, 59, 180, 2, 0.484088
290, 2, wb, attraction, a-b-da, 2, 1, 2, 20, 60, 135, 134, 59, 135, 60, 2, 3.74261
290, 2, wb, attraction, a-b-da, 2, 1, 2, 20, 60, 135, 134, 59, 135, 60, 1, 0.598668
290, 2, wb, attraction, a-b-db, 2, 2, 2, 21, 89, 163, 90, 165, 165, 90, 3, 6.67658
290, 2, wb, attraction, a-b-db, 2, 2, 2, 21, 89, 163, 90, 165, 165, 90, 2, 0.750357
290, 2, wb, filler, NA, 999, 999, 2, 22, 191, 98, 160, 66, 160, 132, 2, 7.59008
290, 2, wb, filler, NA, 999, 999, 2, 22, 191, 98, 160, 66, 160, 132, 3, 0.306918
290, 2, wb, attraction, a-b-db, 14, 1, 2, 23, 60, 135, 135, 60, 56, 125, 1, 1.74825
290, 2, wb, attraction, a-b-db, 14, 1, 2, 23, 60, 135, 135, 60, 56, 125, 2, 1.31696
290, 2, wb, filler, NA, 999, 999, 2, 24, 115, 122, 189, 108, 136, 76, 3, 5.37373
290, 2, wb, filler, NA, 999, 999, 2, 24, 115, 122, 189, 108, 136, 76, 2, 0.396035
290, 2, wb, attraction, a-b-da, 9, 3, 2, 25, 186, 114, 195, 120, 120, 195, 1, 1.74586
290, 2, wb, attraction, a-b-da, 9, 3, 2, 25, 186, 114, 195, 120, 120, 195, 3, 0.482576
290, 2, wb, attraction, a-b-db, 9, 3, 2, 26, 195, 120, 120, 195, 114, 186, 3, 2.77308
290, 2, wb, attraction, a-b-db, 9, 3, 2, 26, 195, 120, 120, 195, 114, 186, 2, 1.48432
290, 2, wb, catch, NA, 999, 999, 2, 27, 134, 181, 83, 112, 99, 156, 2, 0.934277
290, 2, wb, catch, NA, 999, 999, 2, 27, 134, 181, 83, 112, 99, 156, 1, 0.359958
290, 2, wb, attraction, a-b-da, 2, 2, 2, 28, 165, 90, 90, 165, 163, 89, 1, 8.59918
290, 2, wb, attraction, a-b-da, 2, 2, 2, 28, 165, 90, 90, 165, 163, 89, 2, 0.387799
290, 2, wb, catch, NA, 999, 999, 2, 29, 145, 170, 148, 107, 91, 104, 3, 1.49023
290, 2, wb, catch, NA, 999, 999, 2, 29, 145, 170, 148, 107, 91, 104, 1, 0.373205
290, 2, wb, filler, NA, 999, 999, 2, 30, 193, 122, 74, 101, 99, 85, 2, 4.40364
290, 2, wb, filler, NA, 999, 999, 2, 30, 193, 122, 74, 101, 99, 85, 1, 0.641575
290, 2, wb, attraction, a-b-da, 9, 2, 2, 31, 165, 90, 90, 165, 157, 86, 3, 1.59731
290, 2, wb, attraction, a-b-da, 9, 2, 2, 31, 165, 90, 90, 165, 157, 86, 2, 0.772103
290, 2, wb, attraction, a-b-da, 5, 2, 2, 32, 165, 90, 161, 88, 90, 165, 1, 5.04307
290, 2, wb, attraction, a-b-da, 5, 2, 2, 32, 165, 90, 161, 88, 90, 165, 3, 0.422818
290, 2, wb, attraction, a-b-db, 5, 2, 2, 33, 90, 165, 165, 90, 88, 161, 3, 3.79539
290, 2, wb, attraction, a-b-db, 5, 2, 2, 33, 90, 165, 165, 90, 88, 161, 2, 0.601427
290, 2, wb, attraction, a-b-db, 5, 1, 2, 34, 60, 135, 58, 132, 135, 60, 3, 8.24722
290, 2, wb, attraction, a-b-db, 5, 1, 2, 34, 60, 135, 58, 132, 135, 60, 2, 0.561937
290, 2, wb, filler, NA, 999, 999, 2, 35, 179, 63, 150, 154, 66, 142, 3, 2.04899
290, 2, wb, filler, NA, 999, 999, 2, 35, 179, 63, 150, 154, 66, 142, 2, 0.501615
290, 2, wb, attraction, a-b-da, 9, 1, 2, 36, 129, 57, 135, 60, 60, 135, 1, 3.29556
290, 2, wb, attraction, a-b-da, 9, 1, 2, 36, 129, 57, 135, 60, 60, 135, 3, 0.481728
290, 2, wb, attraction, a-b-da, 5, 1, 2, 37, 135, 60, 132, 58, 60, 135, 2, 4.17224
290, 2, wb, attraction, a-b-da, 5, 1, 2, 37, 135, 60, 132, 58, 60, 135, 3, 0.49085
290, 2, wb, attraction, a-b-da, 9, 3, 3, 1, 186, 114, 120, 195, 195, 120, 1, 2.99667
290, 2, wb, attraction, a-b-da, 9, 3, 3, 1, 186, 114, 120, 195, 195, 120, 2, 0.635019
290, 2, wb, filler, NA, 999, 999, 3, 2, 56, 112, 126, 193, 92, 95, 1, 1.02342
290, 2, wb, filler, NA, 999, 999, 3, 2, 56, 112, 126, 193, 92, 95, 2, 0.789093
290, 2, wb, attraction, a-b-db, 9, 2, 3, 3, 90, 165, 165, 90, 86, 157, 3, 4.21946
290, 2, wb, attraction, a-b-db, 9, 2, 3, 3, 90, 165, 165, 90, 86, 157, 2, 2.24893
290, 2, wb, attraction, a-b-db, 5, 1, 3, 4, 60, 135, 58, 132, 135, 60, 2, 5.98005
290, 2, wb, attraction, a-b-db, 5, 1, 3, 4, 60, 135, 58, 132, 135, 60, 3, 1.42619
290, 2, wb, filler, NA, 999, 999, 3, 5, 179, 165, 158, 87, 102, 140, 2, 4.29435
290, 2, wb, filler, NA, 999, 999, 3, 5, 179, 165, 158, 87, 102, 140, 1, 0.688273
290, 2, wb, attraction, a-b-da, 5, 2, 3, 6, 165, 90, 161, 88, 90, 165, 3, 7.25075
290, 2, wb, attraction, a-b-da, 5, 2, 3, 6, 165, 90, 161, 88, 90, 165, 1, 0.725641
290, 2, wb, attraction, a-b-da, 5, 3, 3, 7, 195, 120, 120, 195, 190, 117, 3, 2.9103
290, 2, wb, attraction, a-b-da, 5, 3, 3, 7, 195, 120, 120, 195, 190, 117, 2, 4.34384
290, 2, wb, attraction, a-b-da, 14, 3, 3, 8, 195, 120, 181, 111, 120, 195, 2, 1.99837
290, 2, wb, attraction, a-b-da, 14, 3, 3, 8, 195, 120, 181, 111, 120, 195, 3, 0.533071
290, 2, wb, filler, NA, 999, 999, 3, 9, 133, 184, 81, 155, 105, 117, 2, 1.91755
290, 2, wb, filler, NA, 999, 999, 3, 9, 133, 184, 81, 155, 105, 117, 1, 0.447586
290, 2, wb, catch, NA, 999, 999, 3, 10, 74, 121, 107, 148, 182, 133, 1, 0.979573
290, 2, wb, catch, NA, 999, 999, 3, 10, 74, 121, 107, 148, 182, 133, 3, 0.467031
290, 2, wb, filler, NA, 999, 999, 3, 11, 112, 80, 171, 96, 84, 158, 1, 0.838332
290, 2, wb, filler, NA, 999, 999, 3, 11, 112, 80, 171, 96, 84, 158, 2, 0.65122
290, 2, wb, filler, NA, 999, 999, 3, 12, 143, 134, 194, 157, 162, 130, 1, 1.99094
290, 2, wb, filler, NA, 999, 999, 3, 12, 143, 134, 194, 157, 162, 130, 2, 0.485745
290, 2, wb, attraction, a-b-db, 5, 3, 3, 13, 120, 195, 117, 190, 195, 120, 3, 2.92009
290, 2, wb, attraction, a-b-db, 5, 3, 3, 13, 120, 195, 117, 190, 195, 120, 1, 0.449805
290, 2, wb, filler, NA, 999, 999, 3, 14, 146, 66, 60, 177, 96, 178, 1, 2.4296
290, 2, wb, filler, NA, 999, 999, 3, 14, 146, 66, 60, 177, 96, 178, 3, 0.426964
290, 2, wb, attraction, a-b-db, 2, 2, 3, 15, 89, 163, 165, 90, 90, 165, 3, 5.92736
290, 2, wb, attraction, a-b-db, 2, 2, 3, 15, 89, 163, 165, 90, 90, 165, 2, 0.807486
290, 2, wb, filler, NA, 999, 999, 3, 16, 164, 178, 112, 57, 83, 95, 2, 2.50847
290, 2, wb, filler, NA, 999, 999, 3, 16, 164, 178, 112, 57, 83, 95, 1, 0.382237
290, 2, wb, attraction, a-b-db, 2, 1, 3, 17, 60, 135, 135, 60, 59, 134, 1, 3.26876
290, 2, wb, attraction, a-b-db, 2, 1, 3, 17, 60, 135, 135, 60, 59, 134, 2, 0.784383
290, 2, wb, attraction, a-b-da, 5, 1, 3, 18, 132, 58, 60, 135, 135, 60, 1, 3.4468
290, 2, wb, attraction, a-b-da, 5, 1, 3, 18, 132, 58, 60, 135, 135, 60, 2, 0.474983
290, 2, wb, attraction, a-b-db, 9, 1, 3, 19, 135, 60, 60, 135, 57, 129, 3, 1.58953
290, 2, wb, attraction, a-b-db, 9, 1, 3, 19, 135, 60, 60, 135, 57, 129, 2, 1.48422
290, 2, wb, attraction, a-b-db, 5, 2, 3, 20, 90, 165, 88, 161, 165, 90, 2, 5.83039
290, 2, wb, attraction, a-b-db, 5, 2, 3, 20, 90, 165, 88, 161, 165, 90, 3, 2.3706
290, 2, wb, attraction, a-b-db, 9, 3, 3, 21, 195, 120, 114, 186, 120, 195, 2, 4.84112
290, 2, wb, attraction, a-b-db, 9, 3, 3, 21, 195, 120, 114, 186, 120, 195, 1, 1.42091
290, 2, wb, attraction, a-b-da, 2, 2, 3, 22, 90, 165, 165, 90, 163, 89, 3, 2.64977
290, 2, wb, attraction, a-b-da, 2, 2, 3, 22, 90, 165, 165, 90, 163, 89, 2, 0.446221
290, 2, wb, catch, NA, 999, 999, 3, 23, 98, 97, 150, 165, 116, 139, 1, 1.13801
290, 2, wb, catch, NA, 999, 999, 3, 23, 98, 97, 150, 165, 116, 139, 2, 0.746975
290, 2, wb, attraction, a-b-da, 14, 2, 3, 24, 153, 83, 90, 165, 165, 90, 1, 2.13863
290, 2, wb, attraction, a-b-da, 14, 2, 3, 24, 153, 83, 90, 165, 165, 90, 2, 0.403225
290, 2, wb, attraction, a-b-db, 14, 3, 3, 25, 120, 195, 195, 120, 111, 181, 3, 1.50507
290, 2, wb, attraction, a-b-db, 14, 3, 3, 25, 120, 195, 195, 120, 111, 181, 2, 1.30726
290, 2, wb, filler, NA, 999, 999, 3, 26, 124, 168, 88, 173, 115, 182, 2, 1.37219
290, 2, wb, filler, NA, 999, 999, 3, 26, 124, 168, 88, 173, 115, 182, 1, 2.20375
290, 2, wb, attraction, a-b-db, 2, 3, 3, 27, 120, 195, 195, 120, 119, 193, 3, 1.44108
290, 2, wb, attraction, a-b-db, 2, 3, 3, 27, 120, 195, 195, 120, 119, 193, 2, 0.581775
290, 2, wb, attraction, a-b-db, 14, 2, 3, 28, 90, 165, 83, 153, 165, 90, 2, 1.30017
290, 2, wb, attraction, a-b-db, 14, 2, 3, 28, 90, 165, 83, 153, 165, 90, 3, 0.783157
290, 2, wb, attraction, a-b-db, 14, 1, 3, 29, 56, 125, 60, 135, 135, 60, 1, 3.68552
290, 2, wb, attraction, a-b-db, 14, 1, 3, 29, 56, 125, 60, 135, 135, 60, 2, 0.960359
290, 2, wb, catch, NA, 999, 999, 3, 30, 93, 102, 132, 123, 164, 151, 1, 1.39924
290, 2, wb, catch, NA, 999, 999, 3, 30, 93, 102, 132, 123, 164, 151, 3, 0.4381
290, 2, wb, attraction, a-b-da, 14, 1, 3, 31, 135, 60, 125, 56, 60, 135, 2, 4.83462
290, 2, wb, attraction, a-b-da, 14, 1, 3, 31, 135, 60, 125, 56, 60, 135, 1, 0.823089
290, 2, wb, attraction, a-b-da, 2, 3, 3, 32, 120, 195, 195, 120, 193, 119, 1, 6.30744
290, 2, wb, attraction, a-b-da, 2, 3, 3, 32, 120, 195, 195, 120, 193, 119, 2, 1.69223
290, 2, wb, filler, NA, 999, 999, 3, 33, 97, 119, 167, 104, 166, 165, 1, 1.75759
290, 2, wb, filler, NA, 999, 999, 3, 33, 97, 119, 167, 104, 166, 165, 3, 0.565629
290, 2, wb, attraction, a-b-da, 2, 1, 3, 34, 134, 59, 135, 60, 60, 135, 2, 3.02066
290, 2, wb, attraction, a-b-da, 2, 1, 3, 34, 134, 59, 135, 60, 60, 135, 1, 1.07442
290, 2, wb, attraction, a-b-da, 9, 1, 3, 35, 60, 135, 129, 57, 135, 60, 1, 5.32464
290, 2, wb, attraction, a-b-da, 9, 1, 3, 35, 60, 135, 129, 57, 135, 60, 2, 1.55701
290, 2, wb, filler, NA, 999, 999, 3, 36, 156, 176, 57, 91, 96, 157, 2, 0.923728
290, 2, wb, filler, NA, 999, 999, 3, 36, 156, 176, 57, 91, 96, 157, 1, 0.653456
290, 2, wb, attraction, a-b-da, 9, 2, 3, 37, 90, 165, 157, 86, 165, 90, 2, 1.96921
290, 2, wb, attraction, a-b-da, 9, 2, 3, 37, 90, 165, 157, 86, 165, 90, 1, 0.409252
290, 2, wb, filler, NA, 999, 999, 4, 1, 156, 150, 60, 78, 140, 179, 2, 0.958364
290, 2, wb, filler, NA, 999, 999, 4, 1, 156, 150, 60, 78, 140, 179, 3, 5.04679
290, 2, wb, filler, NA, 999, 999, 4, 2, 118, 103, 135, 147, 84, 158, 1, 3.15309
290, 2, wb, filler, NA, 999, 999, 4, 2, 118, 103, 135, 147, 84, 158, 2, 0.473419
290, 2, wb, attraction, a-b-db, 2, 3, 4, 3, 120, 195, 195, 120, 119, 193, 3, 7.73992
290, 2, wb, attraction, a-b-db, 2, 3, 4, 3, 120, 195, 195, 120, 119, 193, 1, 1.95487
290, 2, wb, filler, NA, 999, 999, 4, 4, 168, 181, 109, 100, 119, 192, 2, 2.04206
290, 2, wb, filler, NA, 999, 999, 4, 4, 168, 181, 109, 100, 119, 192, 1, 0.622742
290, 2, wb, filler, NA, 999, 999, 4, 5, 79, 79, 175, 167, 86, 84, 1, 1.25178
290, 2, wb, filler, NA, 999, 999, 4, 5, 79, 79, 175, 167, 86, 84, 2, 0.360757
290, 2, wb, attraction, a-b-da, 14, 3, 4, 6, 181, 111, 120, 195, 195, 120, 1, 1.94391
290, 2, wb, attraction, a-b-da, 14, 3, 4, 6, 181, 111, 120, 195, 195, 120, 2, 0.456624
290, 2, wb, attraction, a-b-db, 9, 1, 4, 7, 60, 135, 135, 60, 57, 129, 3, 2.53173
290, 2, wb, attraction, a-b-db, 9, 1, 4, 7, 60, 135, 135, 60, 57, 129, 2, 0.612872
290, 2, wb, attraction, a-b-db, 2, 1, 4, 8, 60, 135, 135, 60, 59, 134, 3, 6.15401
290, 2, wb, attraction, a-b-db, 2, 1, 4, 8, 60, 135, 135, 60, 59, 134, 2, 1.15335
290, 2, wb, filler, NA, 999, 999, 4, 9, 160, 128, 60, 85, 178, 145, 2, 1.04913
290, 2, wb, filler, NA, 999, 999, 4, 9, 160, 128, 60, 85, 178, 145, 3, 1.66996
290, 2, wb, attraction, a-b-da, 2, 2, 4, 10, 90, 165, 165, 90, 163, 89, 3, 5.40067
290, 2, wb, attraction, a-b-da, 2, 2, 4, 10, 90, 165, 165, 90, 163, 89, 2, 0.494288
290, 2, wb, catch, NA, 999, 999, 4, 11, 178, 137, 130, 125, 70, 125, 3, 0.86407
290, 2, wb, catch, NA, 999, 999, 4, 11, 178, 137, 130, 125, 70, 125, 1, 0.364436
290, 2, wb, attraction, a-b-da, 14, 2, 4, 12, 153, 83, 90, 165, 165, 90, 1, 1.48361
290, 2, wb, attraction, a-b-da, 14, 2, 4, 12, 153, 83, 90, 165, 165, 90, 2, 0.607172
290, 2, wb, attraction, a-b-da, 14, 1, 4, 13, 125, 56, 60, 135, 135, 60, 1, 1.05225
290, 2, wb, attraction, a-b-da, 14, 1, 4, 13, 125, 56, 60, 135, 135, 60, 2, 2.14525
290, 2, wb, catch, NA, 999, 999, 4, 14, 161, 154, 108, 87, 154, 101, 2, 1.54442
290, 2, wb, catch, NA, 999, 999, 4, 14, 161, 154, 108, 87, 154, 101, 1, 1.65735
290, 2, wb, attraction, a-b-da, 9, 2, 4, 15, 90, 165, 165, 90, 157, 86, 3, 2.97215
290, 2, wb, attraction, a-b-da, 9, 2, 4, 15, 90, 165, 165, 90, 157, 86, 1, 1.1071
290, 2, wb, attraction, a-b-db, 5, 3, 4, 16, 195, 120, 117, 190, 120, 195, 2, 6.81205
290, 2, wb, attraction, a-b-db, 5, 3, 4, 16, 195, 120, 117, 190, 120, 195, 1, 0.480509
290, 2, wb, attraction, a-b-da, 2, 3, 4, 17, 195, 120, 193, 119, 120, 195, 3, 2.66701
290, 2, wb, attraction, a-b-da, 2, 3, 4, 17, 195, 120, 193, 119, 120, 195, 1, 0.702807
290, 2, wb, filler, NA, 999, 999, 4, 18, 103, 68, 103, 194, 136, 93, 1, 0.960472
290, 2, wb, filler, NA, 999, 999, 4, 18, 103, 68, 103, 194, 136, 93, 2, 0.320968
290, 2, wb, attraction, a-b-da, 9, 3, 4, 19, 186, 114, 195, 120, 120, 195, 1, 3.60204
290, 2, wb, attraction, a-b-da, 9, 3, 4, 19, 186, 114, 195, 120, 120, 195, 3, 1.8002
290, 2, wb, attraction, a-b-db, 14, 3, 4, 20, 195, 120, 120, 195, 111, 181, 3, 4.3738
290, 2, wb, attraction, a-b-db, 14, 3, 4, 20, 195, 120, 120, 195, 111, 181, 1, 0.532146
290, 2, wb, attraction, a-b-da, 5, 2, 4, 21, 90, 165, 161, 88, 165, 90, 2, 1.43663
290, 2, wb, attraction, a-b-da, 5, 2, 4, 21, 90, 165, 161, 88, 165, 90, 1, 0.618204
290, 2, wb, filler, NA, 999, 999, 4, 22, 119, 166, 97, 170, 91, 101, 3, 3.38336
290, 2, wb, filler, NA, 999, 999, 4, 22, 119, 166, 97, 170, 91, 101, 1, 0.670243
290, 2, wb, attraction, a-b-db, 2, 2, 4, 23, 90, 165, 89, 163, 165, 90, 1, 6.72923
290, 2, wb, attraction, a-b-db, 2, 2, 4, 23, 90, 165, 89, 163, 165, 90, 2, 0.681082
290, 2, wb, attraction, a-b-db, 5, 2, 4, 24, 88, 161, 90, 165, 165, 90, 1, 2.37946
290, 2, wb, attraction, a-b-db, 5, 2, 4, 24, 88, 161, 90, 165, 165, 90, 2, 0.482696
290, 2, wb, attraction, a-b-da, 2, 1, 4, 25, 134, 59, 60, 135, 135, 60, 1, 4.30924
290, 2, wb, attraction, a-b-da, 2, 1, 4, 25, 134, 59, 60, 135, 135, 60, 2, 0.766443
290, 2, wb, attraction, a-b-db, 9, 2, 4, 26, 86, 157, 90, 165, 165, 90, 1, 4.79758
290, 2, wb, attraction, a-b-db, 9, 2, 4, 26, 86, 157, 90, 165, 165, 90, 2, 0.603344
290, 2, wb, attraction, a-b-db, 14, 2, 4, 27, 165, 90, 83, 153, 90, 165, 2, 2.36106
290, 2, wb, attraction, a-b-db, 14, 2, 4, 27, 165, 90, 83, 153, 90, 165, 1, 0.848933
290, 2, wb, attraction, a-b-db, 5, 1, 4, 28, 60, 135, 135, 60, 58, 132, 2, 6.0607
290, 2, wb, attraction, a-b-db, 5, 1, 4, 28, 60, 135, 135, 60, 58, 132, 1, 0.727406
290, 2, wb, filler, NA, 999, 999, 4, 29, 133, 175, 150, 94, 99, 116, 3, 1.48776
290, 2, wb, filler, NA, 999, 999, 4, 29, 133, 175, 150, 94, 99, 116, 1, 0.482571
290, 2, wb, attraction, a-b-da, 5, 3, 4, 30, 195, 120, 190, 117, 120, 195, 1, 5.15707
290, 2, wb, attraction, a-b-da, 5, 3, 4, 30, 195, 120, 190, 117, 120, 195, 2, 1.1641
290, 2, wb, attraction, a-b-db, 14, 1, 4, 31, 60, 135, 56, 125, 135, 60, 2, 4.18711
290, 2, wb, attraction, a-b-db, 14, 1, 4, 31, 60, 135, 56, 125, 135, 60, 3, 1.54571
290, 2, wb, filler, NA, 999, 999, 4, 32, 161, 104, 184, 156, 145, 160, 1, 1.40115
290, 2, wb, filler, NA, 999, 999, 4, 32, 161, 104, 184, 156, 145, 160, 2, 0.384022
290, 2, wb, attraction, a-b-da, 9, 1, 4, 33, 135, 60, 60, 135, 129, 57, 3, 1.3105
290, 2, wb, attraction, a-b-da, 9, 1, 4, 33, 135, 60, 60, 135, 129, 57, 2, 0.520715
290, 2, wb, catch, NA, 999, 999, 4, 34, 152, 163, 149, 106, 97, 98, 3, 1.04188
290, 2, wb, catch, NA, 999, 999, 4, 34, 152, 163, 149, 106, 97, 98, 1, 0.910841
290, 2, wb, attraction, a-b-da, 5, 1, 4, 35, 135, 60, 60, 135, 132, 58, 3, 2.41587
290, 2, wb, attraction, a-b-da, 5, 1, 4, 35, 135, 60, 60, 135, 132, 58, 2, 1.56582
290, 2, wb, filler, NA, 999, 999, 4, 36, 102, 89, 131, 147, 148, 150, 1, 0.980445
290, 2, wb, filler, NA, 999, 999, 4, 36, 102, 89, 131, 147, 148, 150, 3, 0.684117
290, 2, wb, attraction, a-b-db, 9, 3, 4, 37, 114, 186, 195, 120, 120, 195, 1, 1.32664
290, 2, wb, attraction, a-b-db, 9, 3, 4, 37, 114, 186, 195, 120, 120, 195, 2, 1.03216
290, 2, wb, attraction, a-b-db, 9, 2, 5, 1, 86, 157, 90, 165, 165, 90, 1, 2.79499
290, 2, wb, attraction, a-b-db, 9, 2, 5, 1, 86, 157, 90, 165, 165, 90, 2, 0.41745
290, 2, wb, attraction, a-b-db, 14, 2, 5, 2, 165, 90, 83, 153, 90, 165, 2, 5.03066
290, 2, wb, attraction, a-b-db, 14, 2, 5, 2, 165, 90, 83, 153, 90, 165, 1, 1.05106
290, 2, wb, attraction, a-b-da, 2, 3, 5, 3, 120, 195, 193, 119, 195, 120, 3, 4.09462
290, 2, wb, attraction, a-b-da, 2, 3, 5, 3, 120, 195, 193, 119, 195, 120, 2, 0.520682
290, 2, wb, attraction, a-b-db, 5, 3, 5, 4, 195, 120, 120, 195, 117, 190, 3, 7.84977
290, 2, wb, attraction, a-b-db, 5, 3, 5, 4, 195, 120, 120, 195, 117, 190, 2, 0.49263
290, 2, wb, attraction, a-b-db, 5, 2, 5, 5, 90, 165, 88, 161, 165, 90, 1, 2.91843
290, 2, wb, attraction, a-b-db, 5, 2, 5, 5, 90, 165, 88, 161, 165, 90, 2, 0.632108
290, 2, wb, catch, NA, 999, 999, 5, 6, 100, 95, 189, 126, 159, 96, 1, 1.78064
290, 2, wb, catch, NA, 999, 999, 5, 6, 100, 95, 189, 126, 159, 96, 2, 0.643892
290, 2, wb, attraction, a-b-da, 9, 2, 5, 7, 157, 86, 90, 165, 165, 90, 1, 1.14378
290, 2, wb, attraction, a-b-da, 9, 2, 5, 7, 157, 86, 90, 165, 165, 90, 3, 0.728659
290, 2, wb, filler, NA, 999, 999, 5, 8, 182, 114, 93, 178, 117, 115, 3, 3.24103
290, 2, wb, filler, NA, 999, 999, 5, 8, 182, 114, 93, 178, 117, 115, 1, 0.541308
290, 2, wb, filler, NA, 999, 999, 5, 9, 157, 88, 145, 107, 179, 109, 1, 1.4771
290, 2, wb, filler, NA, 999, 999, 5, 9, 157, 88, 145, 107, 179, 109, 3, 0.624558
290, 2, wb, attraction, a-b-db, 14, 1, 5, 10, 60, 135, 56, 125, 135, 60, 2, 2.70897
290, 2, wb, attraction, a-b-db, 14, 1, 5, 10, 60, 135, 56, 125, 135, 60, 3, 0.846843
290, 2, wb, attraction, a-b-da, 5, 1, 5, 11, 135, 60, 60, 135, 132, 58, 1, 2.56251
290, 2, wb, attraction, a-b-da, 5, 1, 5, 11, 135, 60, 60, 135, 132, 58, 2, 0.458361
290, 2, wb, filler, NA, 999, 999, 5, 12, 189, 142, 78, 103, 162, 84, 2, 1.50943
290, 2, wb, filler, NA, 999, 999, 5, 12, 189, 142, 78, 103, 162, 84, 1, 0.527524
290, 2, wb, catch, NA, 999, 999, 5, 13, 145, 170, 142, 113, 84, 111, 3, 0.92006
290, 2, wb, catch, NA, 999, 999, 5, 13, 145, 170, 142, 113, 84, 111, 1, 0.473769
290, 2, wb, attraction, a-b-db, 9, 1, 5, 14, 135, 60, 57, 129, 60, 135, 2, 5.52416
290, 2, wb, attraction, a-b-db, 9, 1, 5, 14, 135, 60, 57, 129, 60, 135, 1, 4.68454
290, 2, wb, catch, NA, 999, 999, 5, 15, 73, 122, 181, 134, 133, 122, 1, 3.26965
290, 2, wb, catch, NA, 999, 999, 5, 15, 73, 122, 181, 134, 133, 122, 2, 0.441288
290, 2, wb, filler, NA, 999, 999, 5, 16, 169, 67, 83, 76, 97, 187, 2, 2.50099
290, 2, wb, filler, NA, 999, 999, 5, 16, 169, 67, 83, 76, 97, 187, 3, 0.575526
290, 2, wb, filler, NA, 999, 999, 5, 17, 132, 76, 97, 177, 68, 176, 3, 5.03
290, 2, wb, filler, NA, 999, 999, 5, 17, 132, 76, 97, 177, 68, 176, 2, 1.21034
290, 2, wb, attraction, a-b-db, 14, 3, 5, 18, 111, 181, 195, 120, 120, 195, 1, 2.41528
290, 2, wb, attraction, a-b-db, 14, 3, 5, 18, 111, 181, 195, 120, 120, 195, 2, 0.46129
290, 2, wb, attraction, a-b-da, 2, 1, 5, 19, 60, 135, 135, 60, 134, 59, 1, 1.17644
290, 2, wb, attraction, a-b-da, 2, 1, 5, 19, 60, 135, 135, 60, 134, 59, 2, 0.503885
290, 2, wb, attraction, a-b-db, 5, 1, 5, 20, 135, 60, 58, 132, 60, 135, 3, 6.28179
290, 2, wb, attraction, a-b-db, 5, 1, 5, 20, 135, 60, 58, 132, 60, 135, 2, 0.499638
290, 2, wb, attraction, a-b-da, 5, 3, 5, 21, 195, 120, 120, 195, 190, 117, 1, 5.40547
290, 2, wb, attraction, a-b-da, 5, 3, 5, 21, 195, 120, 120, 195, 190, 117, 2, 0.827074
290, 2, wb, filler, NA, 999, 999, 5, 22, 180, 173, 166, 107, 100, 183, 2, 2.76804
290, 2, wb, filler, NA, 999, 999, 5, 22, 180, 173, 166, 107, 100, 183, 1, 0.423264
290, 2, wb, attraction, a-b-db, 2, 1, 5, 23, 135, 60, 60, 135, 59, 134, 3, 1.89172
290, 2, wb, attraction, a-b-db, 2, 1, 5, 23, 135, 60, 60, 135, 59, 134, 1, 0.478364
290, 2, wb, attraction, a-b-da, 14, 3, 5, 24, 120, 195, 181, 111, 195, 120, 2, 1.32886
290, 2, wb, attraction, a-b-da, 14, 3, 5, 24, 120, 195, 181, 111, 195, 120, 1, 1.95444
290, 2, wb, attraction, a-b-da, 5, 2, 5, 25, 161, 88, 165, 90, 90, 165, 1, 3.16968
290, 2, wb, attraction, a-b-da, 5, 2, 5, 25, 161, 88, 165, 90, 90, 165, 3, 0.7214
290, 2, wb, attraction, a-b-db, 2, 3, 5, 26, 119, 193, 120, 195, 195, 120, 1, 2.92251
290, 2, wb, attraction, a-b-db, 2, 3, 5, 26, 119, 193, 120, 195, 195, 120, 2, 3.49951
290, 2, wb, filler, NA, 999, 999, 5, 27, 96, 87, 96, 153, 116, 156, 1, 0.844283
290, 2, wb, filler, NA, 999, 999, 5, 27, 96, 87, 96, 153, 116, 156, 3, 1.96167
290, 2, wb, attraction, a-b-da, 9, 3, 5, 28, 195, 120, 120, 195, 186, 114, 3, 2.49603
290, 2, wb, attraction, a-b-da, 9, 3, 5, 28, 195, 120, 120, 195, 186, 114, 2, 0.5387
290, 2, wb, attraction, a-b-da, 9, 1, 5, 29, 129, 57, 60, 135, 135, 60, 1, 1.25903
290, 2, wb, attraction, a-b-da, 9, 1, 5, 29, 129, 57, 60, 135, 135, 60, 2, 0.727283
290, 2, wb, attraction, a-b-da, 14, 2, 5, 30, 165, 90, 90, 165, 153, 83, 3, 1.41567
290, 2, wb, attraction, a-b-da, 14, 2, 5, 30, 165, 90, 90, 165, 153, 83, 2, 0.869873
290, 2, wb, attraction, a-b-da, 2, 2, 5, 31, 163, 89, 90, 165, 165, 90, 1, 1.33685
290, 2, wb, attraction, a-b-da, 2, 2, 5, 31, 163, 89, 90, 165, 165, 90, 2, 0.698399
290, 2, wb, filler, NA, 999, 999, 5, 32, 192, 90, 145, 102, 67, 189, 3, 1.82816
290, 2, wb, filler, NA, 999, 999, 5, 32, 192, 90, 145, 102, 67, 189, 1, 2.62568
290, 2, wb, filler, NA, 999, 999, 5, 33, 106, 81, 107, 108, 56, 103, 3, 0.805245
290, 2, wb, filler, NA, 999, 999, 5, 33, 106, 81, 107, 108, 56, 103, 2, 0.363644
290, 2, wb, filler, NA, 999, 999, 5, 34, 88, 118, 185, 177, 134, 177, 1, 1.00288
290, 2, wb, filler, NA, 999, 999, 5, 34, 88, 118, 185, 177, 134, 177, 2, 0.329863
290, 2, wb, attraction, a-b-da, 14, 1, 5, 35, 125, 56, 60, 135, 135, 60, 1, 1.03436
290, 2, wb, attraction, a-b-da, 14, 1, 5, 35, 125, 56, 60, 135, 135, 60, 2, 1.26404
290, 2, wb, attraction, a-b-db, 2, 2, 5, 36, 90, 165, 89, 163, 165, 90, 3, 3.9309
290, 2, wb, attraction, a-b-db, 2, 2, 5, 36, 90, 165, 89, 163, 165, 90, 1, 0.883596
290, 2, wb, attraction, a-b-db, 9, 3, 5, 37, 195, 120, 114, 186, 120, 195, 2, 2.60602
290, 2, wb, attraction, a-b-db, 9, 3, 5, 37, 195, 120, 114, 186, 120, 195, 1, 0.43574
290, 2, wb, filler, NA, 999, 999, 6, 1, 65, 89, 60, 176, 67, 138, 1, 1.2482
290, 2, wb, filler, NA, 999, 999, 6, 1, 65, 89, 60, 176, 67, 138, 2, 4.06924
290, 2, wb, attraction, a-b-da, 14, 2, 6, 2, 153, 83, 90, 165, 165, 90, 1, 2.4793
290, 2, wb, attraction, a-b-da, 14, 2, 6, 2, 153, 83, 90, 165, 165, 90, 2, 0.634422
290, 2, wb, attraction, a-b-da, 5, 3, 6, 3, 120, 195, 195, 120, 190, 117, 3, 2.06287
290, 2, wb, attraction, a-b-da, 5, 3, 6, 3, 120, 195, 195, 120, 190, 117, 2, 1.00298
290, 2, wb, filler, NA, 999, 999, 6, 4, 144, 170, 82, 146, 136, 127, 2, 0.720367
290, 2, wb, filler, NA, 999, 999, 6, 4, 144, 170, 82, 146, 136, 127, 1, 0.474858
290, 2, wb, attraction, a-b-da, 2, 2, 6, 5, 165, 90, 163, 89, 90, 165, 1, 4.17329
290, 2, wb, attraction, a-b-da, 2, 2, 6, 5, 165, 90, 163, 89, 90, 165, 2, 0.420083
290, 2, wb, attraction, a-b-da, 9, 1, 6, 6, 135, 60, 129, 57, 60, 135, 2, 3.28919
290, 2, wb, attraction, a-b-da, 9, 1, 6, 6, 135, 60, 129, 57, 60, 135, 1, 1.18748
290, 2, wb, attraction, a-b-da, 14, 1, 6, 7, 125, 56, 60, 135, 135, 60, 1, 1.36173
290, 2, wb, attraction, a-b-da, 14, 1, 6, 7, 125, 56, 60, 135, 135, 60, 2, 0.505807
290, 2, wb, attraction, a-b-da, 14, 3, 6, 8, 195, 120, 120, 195, 181, 111, 3, 1.17158
290, 2, wb, attraction, a-b-da, 14, 3, 6, 8, 195, 120, 120, 195, 181, 111, 2, 0.915228
290, 2, wb, attraction, a-b-da, 9, 3, 6, 9, 195, 120, 186, 114, 120, 195, 1, 3.64424
290, 2, wb, attraction, a-b-da, 9, 3, 6, 9, 195, 120, 186, 114, 120, 195, 2, 0.432381
290, 2, wb, filler, NA, 999, 999, 6, 10, 141, 192, 109, 91, 80, 161, 2, 6.23688
290, 2, wb, filler, NA, 999, 999, 6, 10, 141, 192, 109, 91, 80, 161, 1, 0.560878
290, 2, wb, filler, NA, 999, 999, 6, 11, 120, 177, 73, 115, 145, 110, 2, 0.688156
290, 2, wb, filler, NA, 999, 999, 6, 11, 120, 177, 73, 115, 145, 110, 1, 0.46707
290, 2, wb, attraction, a-b-db, 5, 3, 6, 12, 195, 120, 120, 195, 117, 190, 1, 1.31019
290, 2, wb, attraction, a-b-db, 5, 3, 6, 12, 195, 120, 120, 195, 117, 190, 2, 0.384464
290, 2, wb, attraction, a-b-db, 14, 3, 6, 13, 111, 181, 195, 120, 120, 195, 1, 0.862919
290, 2, wb, attraction, a-b-db, 14, 3, 6, 13, 111, 181, 195, 120, 120, 195, 2, 0.379267
290, 2, wb, attraction, a-b-da, 2, 1, 6, 14, 134, 59, 135, 60, 60, 135, 3, 4.32186
290, 2, wb, attraction, a-b-da, 2, 1, 6, 14, 134, 59, 135, 60, 60, 135, 2, 0.618414
290, 2, wb, attraction, a-b-db, 14, 2, 6, 15, 165, 90, 90, 165, 83, 153, 3, 3.42345
290, 2, wb, attraction, a-b-db, 14, 2, 6, 15, 165, 90, 90, 165, 83, 153, 2, 0.732362
290, 2, wb, filler, NA, 999, 999, 6, 16, 62, 180, 140, 141, 100, 175, 1, 0.812728
290, 2, wb, filler, NA, 999, 999, 6, 16, 62, 180, 140, 141, 100, 175, 2, 0.49121
290, 2, wb, attraction, a-b-da, 5, 2, 6, 17, 161, 88, 90, 165, 165, 90, 1, 1.72491
290, 2, wb, attraction, a-b-da, 5, 2, 6, 17, 161, 88, 90, 165, 165, 90, 2, 0.62239
290, 2, wb, filler, NA, 999, 999, 6, 18, 77, 137, 87, 147, 184, 123, 1, 0.875483
290, 2, wb, filler, NA, 999, 999, 6, 18, 77, 137, 87, 147, 184, 123, 3, 0.783133
290, 2, wb, attraction, a-b-db, 2, 1, 6, 19, 60, 135, 135, 60, 59, 134, 1, 1.13348
290, 2, wb, attraction, a-b-db, 2, 1, 6, 19, 60, 135, 135, 60, 59, 134, 2, 0.591119
290, 2, wb, attraction, a-b-db, 14, 1, 6, 20, 56, 125, 135, 60, 60, 135, 1, 0.797045
290, 2, wb, attraction, a-b-db, 14, 1, 6, 20, 56, 125, 135, 60, 60, 135, 2, 0.411975
290, 2, wb, attraction, a-b-da, 9, 2, 6, 21, 165, 90, 90, 165, 157, 86, 3, 2.44119
290, 2, wb, attraction, a-b-da, 9, 2, 6, 21, 165, 90, 90, 165, 157, 86, 1, 1.58975
290, 2, wb, catch, NA, 999, 999, 6, 22, 145, 110, 129, 66, 144, 171, 2, 1.21918
290, 2, wb, catch, NA, 999, 999, 6, 22, 145, 110, 129, 66, 144, 171, 3, 0.649415
290, 2, wb, attraction, a-b-db, 5, 1, 6, 23, 135, 60, 60, 135, 58, 132, 1, 2.15704
290, 2, wb, attraction, a-b-db, 5, 1, 6, 23, 135, 60, 60, 135, 58, 132, 2, 2.73324
290, 2, wb, catch, NA, 999, 999, 6, 24, 123, 132, 129, 66, 137, 178, 2, 1.30872
290, 2, wb, catch, NA, 999, 999, 6, 24, 123, 132, 129, 66, 137, 178, 3, 0.455114
290, 2, wb, attraction, a-b-db, 9, 2, 6, 25, 86, 157, 165, 90, 90, 165, 1, 1.24301
290, 2, wb, attraction, a-b-db, 9, 2, 6, 25, 86, 157, 165, 90, 90, 165, 2, 0.335732
290, 2, wb, attraction, a-b-db, 2, 3, 6, 26, 120, 195, 119, 193, 195, 120, 1, 3.13628
290, 2, wb, attraction, a-b-db, 2, 3, 6, 26, 120, 195, 119, 193, 195, 120, 2, 1.65727
290, 2, wb, filler, NA, 999, 999, 6, 27, 85, 181, 179, 177, 124, 92, 3, 3.71601
290, 2, wb, filler, NA, 999, 999, 6, 27, 85, 181, 179, 177, 124, 92, 2, 0.421456
290, 2, wb, catch, NA, 999, 999, 6, 28, 92, 103, 135, 120, 124, 191, 1, 1.35462
290, 2, wb, catch, NA, 999, 999, 6, 28, 92, 103, 135, 120, 124, 191, 3, 0.818838
290, 2, wb, attraction, a-b-db, 9, 3, 6, 29, 120, 195, 114, 186, 195, 120, 2, 3.0799
290, 2, wb, attraction, a-b-db, 9, 3, 6, 29, 120, 195, 114, 186, 195, 120, 3, 0.619025
290, 2, wb, filler, NA, 999, 999, 6, 30, 175, 131, 94, 91, 101, 138, 2, 0.823992
290, 2, wb, filler, NA, 999, 999, 6, 30, 175, 131, 94, 91, 101, 138, 1, 0.405772
290, 2, wb, filler, NA, 999, 999, 6, 31, 166, 172, 101, 178, 167, 177, 2, 1.62743
290, 2, wb, filler, NA, 999, 999, 6, 31, 166, 172, 101, 178, 167, 177, 3, 0.952979
290, 2, wb, attraction, a-b-da, 2, 3, 6, 32, 193, 119, 195, 120, 120, 195, 1, 1.59254
290, 2, wb, attraction, a-b-da, 2, 3, 6, 32, 193, 119, 195, 120, 120, 195, 3, 0.439489
290, 2, wb, attraction, a-b-db, 2, 2, 6, 33, 89, 163, 90, 165, 165, 90, 1, 2.01922
290, 2, wb, attraction, a-b-db, 2, 2, 6, 33, 89, 163, 90, 165, 165, 90, 2, 0.497311
290, 2, wb, attraction, a-b-da, 5, 1, 6, 34, 132, 58, 60, 135, 135, 60, 1, 2.84301
290, 2, wb, attraction, a-b-da, 5, 1, 6, 34, 132, 58, 60, 135, 135, 60, 2, 0.815428
290, 2, wb, filler, NA, 999, 999, 6, 35, 89, 72, 99, 104, 89, 137, 1, 2.45256
290, 2, wb, filler, NA, 999, 999, 6, 35, 89, 72, 99, 104, 89, 137, 3, 0.593032
290, 2, wb, attraction, a-b-db, 9, 1, 6, 36, 135, 60, 60, 135, 57, 129, 3, 3.36675
290, 2, wb, attraction, a-b-db, 9, 1, 6, 36, 135, 60, 60, 135, 57, 129, 1, 2.19834
290, 2, wb, attraction, a-b-db, 5, 2, 6, 37, 90, 165, 88, 161, 165, 90, 3, 3.05164
290, 2, wb, attraction, a-b-db, 5, 2, 6, 37, 90, 165, 88, 161, 165, 90, 2, 0.631907
290, 2, wb, attraction, a-b-db, 5, 1, 7, 1, 135, 60, 58, 132, 60, 135, 1, 3.07631
290, 2, wb, attraction, a-b-db, 5, 1, 7, 1, 135, 60, 58, 132, 60, 135, 2, 1.2394
290, 2, wb, attraction, a-b-db, 5, 3, 7, 2, 117, 190, 195, 120, 120, 195, 1, 1.17958
290, 2, wb, attraction, a-b-db, 5, 3, 7, 2, 117, 190, 195, 120, 120, 195, 2, 2.06719
290, 2, wb, attraction, a-b-db, 2, 2, 7, 3, 90, 165, 89, 163, 165, 90, 1, 1.8938
290, 2, wb, attraction, a-b-db, 2, 2, 7, 3, 90, 165, 89, 163, 165, 90, 2, 0.856681
290, 2, wb, catch, NA, 999, 999, 7, 4, 195, 120, 123, 132, 69, 126, 3, 0.667549
290, 2, wb, catch, NA, 999, 999, 7, 4, 195, 120, 123, 132, 69, 126, 1, 0.495923
290, 2, wb, attraction, a-b-da, 2, 3, 7, 5, 193, 119, 195, 120, 120, 195, 2, 2.12969
290, 2, wb, attraction, a-b-da, 2, 3, 7, 5, 193, 119, 195, 120, 120, 195, 3, 0.411221
290, 2, wb, filler, NA, 999, 999, 7, 6, 92, 187, 113, 179, 62, 134, 3, 0.694856
290, 2, wb, filler, NA, 999, 999, 7, 6, 92, 187, 113, 179, 62, 134, 2, 0.299321
290, 2, wb, attraction, a-b-da, 9, 2, 7, 7, 165, 90, 90, 165, 157, 86, 3, 2.49309
290, 2, wb, attraction, a-b-da, 9, 2, 7, 7, 165, 90, 90, 165, 157, 86, 1, 2.11969
290, 2, wb, attraction, a-b-db, 2, 1, 7, 8, 135, 60, 60, 135, 59, 134, 3, 2.14427
290, 2, wb, attraction, a-b-db, 2, 1, 7, 8, 135, 60, 60, 135, 59, 134, 1, 1.22494
290, 2, wb, attraction, a-b-da, 14, 2, 7, 9, 165, 90, 153, 83, 90, 165, 2, 1.10912
290, 2, wb, attraction, a-b-da, 14, 2, 7, 9, 165, 90, 153, 83, 90, 165, 1, 0.471589
290, 2, wb, attraction, a-b-da, 14, 1, 7, 10, 135, 60, 125, 56, 60, 135, 2, 0.970607
290, 2, wb, attraction, a-b-da, 14, 1, 7, 10, 135, 60, 125, 56, 60, 135, 1, 0.634224
290, 2, wb, attraction, a-b-db, 2, 3, 7, 11, 119, 193, 120, 195, 195, 120, 1, 2.24672
290, 2, wb, attraction, a-b-db, 2, 3, 7, 11, 119, 193, 120, 195, 195, 120, 3, 0.483255
290, 2, wb, attraction, a-b-da, 9, 3, 7, 12, 186, 114, 195, 120, 120, 195, 1, 4.40571
290, 2, wb, attraction, a-b-da, 9, 3, 7, 12, 186, 114, 195, 120, 120, 195, 2, 0.538997
290, 2, wb, filler, NA, 999, 999, 7, 13, 191, 182, 117, 170, 183, 95, 3, 2.53945
290, 2, wb, filler, NA, 999, 999, 7, 13, 191, 182, 117, 170, 183, 95, 1, 0.516001
290, 2, wb, attraction, a-b-db, 9, 1, 7, 14, 135, 60, 57, 129, 60, 135, 2, 2.32513
290, 2, wb, attraction, a-b-db, 9, 1, 7, 14, 135, 60, 57, 129, 60, 135, 1, 0.910246
290, 2, wb, attraction, a-b-da, 5, 3, 7, 15, 190, 117, 195, 120, 120, 195, 2, 14.2873
290, 2, wb, attraction, a-b-da, 5, 3, 7, 15, 190, 117, 195, 120, 120, 195, 3, 1.01482
290, 2, wb, filler, NA, 999, 999, 7, 16, 152, 95, 83, 135, 102, 74, 3, 0.771746
290, 2, wb, filler, NA, 999, 999, 7, 16, 152, 95, 83, 135, 102, 74, 1, 0.563607
290, 2, wb, attraction, a-b-da, 5, 1, 7, 17, 135, 60, 60, 135, 132, 58, 1, 2.65062
290, 2, wb, attraction, a-b-da, 5, 1, 7, 17, 135, 60, 60, 135, 132, 58, 2, 0.663059
290, 2, wb, catch, NA, 999, 999, 7, 18, 94, 101, 126, 129, 179, 136, 1, 1.31416
290, 2, wb, catch, NA, 999, 999, 7, 18, 94, 101, 126, 129, 179, 136, 3, 0.444419
290, 2, wb, filler, NA, 999, 999, 7, 19, 176, 165, 87, 83, 89, 100, 2, 1.05612
290, 2, wb, filler, NA, 999, 999, 7, 19, 176, 165, 87, 83, 89, 100, 1, 0.372473
290, 2, wb, filler, NA, 999, 999, 7, 20, 151, 90, 59, 109, 118, 161, 2, 0.947647
290, 2, wb, filler, NA, 999, 999, 7, 20, 151, 90, 59, 109, 118, 161, 3, 0.428624
290, 2, wb, attraction, a-b-da, 2, 2, 7, 21, 90, 165, 163, 89, 165, 90, 1, 2.72903
290, 2, wb, attraction, a-b-da, 2, 2, 7, 21, 90, 165, 163, 89, 165, 90, 2, 0.458161
290, 2, wb, attraction, a-b-db, 9, 2, 7, 22, 165, 90, 90, 165, 86, 157, 3, 1.72542
290, 2, wb, attraction, a-b-db, 9, 2, 7, 22, 165, 90, 90, 165, 86, 157, 1, 1.83078
290, 2, wb, attraction, a-b-db, 9, 3, 7, 23, 114, 186, 120, 195, 195, 120, 1, 1.9308
290, 2, wb, attraction, a-b-db, 9, 3, 7, 23, 114, 186, 120, 195, 195, 120, 2, 0.436167
290, 2, wb, filler, NA, 999, 999, 7, 24, 65, 149, 104, 175, 122, 111, 1, 0.640627
290, 2, wb, filler, NA, 999, 999, 7, 24, 65, 149, 104, 175, 122, 111, 2, 0.31775
290, 2, wb, filler, NA, 999, 999, 7, 25, 126, 133, 192, 139, 99, 89, 3, 0.711016
290, 2, wb, filler, NA, 999, 999, 7, 25, 126, 133, 192, 139, 99, 89, 2, 0.305304
290, 2, wb, attraction, a-b-da, 14, 3, 7, 26, 120, 195, 195, 120, 181, 111, 3, 1.37116
290, 2, wb, attraction, a-b-da, 14, 3, 7, 26, 120, 195, 195, 120, 181, 111, 2, 0.690737
290, 2, wb, catch, NA, 999, 999, 7, 27, 150, 105, 175, 140, 90, 105, 3, 0.740442
290, 2, wb, catch, NA, 999, 999, 7, 27, 150, 105, 175, 140, 90, 105, 2, 0.333519
290, 2, wb, filler, NA, 999, 999, 7, 28, 113, 68, 195, 62, 85, 60, 3, 3.44606
290, 2, wb, filler, NA, 999, 999, 7, 28, 113, 68, 195, 62, 85, 60, 2, 0.514322
290, 2, wb, filler, NA, 999, 999, 7, 29, 109, 192, 104, 151, 150, 58, 3, 6.2914
290, 2, wb, filler, NA, 999, 999, 7, 29, 109, 192, 104, 151, 150, 58, 1, 0.540815
290, 2, wb, attraction, a-b-da, 9, 1, 7, 30, 135, 60, 129, 57, 60, 135, 2, 2.07646
290, 2, wb, attraction, a-b-da, 9, 1, 7, 30, 135, 60, 129, 57, 60, 135, 3, 2.72794
290, 2, wb, attraction, a-b-db, 14, 3, 7, 31, 120, 195, 195, 120, 111, 181, 3, 2.86362
290, 2, wb, attraction, a-b-db, 14, 3, 7, 31, 120, 195, 195, 120, 111, 181, 2, 0.635364
290, 2, wb, attraction, a-b-da, 2, 1, 7, 32, 135, 60, 134, 59, 60, 135, 3, 0.727701
290, 2, wb, attraction, a-b-da, 2, 1, 7, 32, 135, 60, 134, 59, 60, 135, 1, 0.513403
290, 2, wb, attraction, a-b-db, 5, 2, 7, 33, 165, 90, 90, 165, 88, 161, 1, 1.03459
290, 2, wb, attraction, a-b-db, 5, 2, 7, 33, 165, 90, 90, 165, 88, 161, 2, 0.70423
290, 2, wb, attraction, a-b-db, 14, 2, 7, 34, 83, 153, 165, 90, 90, 165, 1, 1.29789
290, 2, wb, attraction, a-b-db, 14, 2, 7, 34, 83, 153, 165, 90, 90, 165, 2, 0.348858
290, 2, wb, attraction, a-b-db, 14, 1, 7, 35, 56, 125, 60, 135, 135, 60, 1, 2.0127
290, 2, wb, attraction, a-b-db, 14, 1, 7, 35, 56, 125, 60, 135, 135, 60, 3, 0.514776
290, 2, wb, filler, NA, 999, 999, 7, 36, 166, 186, 160, 171, 113, 183, 3, 1.14781
290, 2, wb, filler, NA, 999, 999, 7, 36, 166, 186, 160, 171, 113, 183, 1, 0.612754
290, 2, wb, attraction, a-b-da, 5, 2, 7, 37, 90, 165, 165, 90, 161, 88, 2, 7.84197
290, 2, wb, attraction, a-b-da, 5, 2, 7, 37, 90, 165, 165, 90, 161, 88, 1, 0.484735
290, 2, wb, attraction, a-b-db, 14, 1, 8, 1, 135, 60, 60, 135, 56, 125, 3, 1.33516
290, 2, wb, attraction, a-b-db, 14, 1, 8, 1, 135, 60, 60, 135, 56, 125, 2, 1.25676
290, 2, wb, attraction, a-b-da, 9, 1, 8, 2, 129, 57, 60, 135, 135, 60, 1, 0.859535
290, 2, wb, attraction, a-b-da, 9, 1, 8, 2, 129, 57, 60, 135, 135, 60, 3, 0.967982
290, 2, wb, filler, NA, 999, 999, 8, 3, 176, 133, 151, 123, 173, 73, 3, 0.814967
290, 2, wb, filler, NA, 999, 999, 8, 3, 176, 133, 151, 123, 173, 73, 1, 0.421444
290, 2, wb, filler, NA, 999, 999, 8, 4, 147, 150, 64, 186, 137, 126, 2, 1.18649
290, 2, wb, filler, NA, 999, 999, 8, 4, 147, 150, 64, 186, 137, 126, 1, 0.450095
290, 2, wb, attraction, a-b-da, 2, 2, 8, 5, 163, 89, 165, 90, 90, 165, 1, 1.68587
290, 2, wb, attraction, a-b-da, 2, 2, 8, 5, 163, 89, 165, 90, 90, 165, 2, 0.417356
290, 2, wb, filler, NA, 999, 999, 8, 6, 124, 191, 111, 100, 181, 132, 2, 0.646597
290, 2, wb, filler, NA, 999, 999, 8, 6, 124, 191, 111, 100, 181, 132, 3, 0.315624
290, 2, wb, filler, NA, 999, 999, 8, 7, 118, 156, 59, 188, 136, 150, 2, 0.796728
290, 2, wb, filler, NA, 999, 999, 8, 7, 118, 156, 59, 188, 136, 150, 3, 0.3318
290, 2, wb, attraction, a-b-db, 5, 2, 8, 8, 90, 165, 88, 161, 165, 90, 1, 2.10028
290, 2, wb, attraction, a-b-db, 5, 2, 8, 8, 90, 165, 88, 161, 165, 90, 3, 1.52706
290, 2, wb, attraction, a-b-db, 14, 2, 8, 9, 83, 153, 90, 165, 165, 90, 1, 3.53512
290, 2, wb, attraction, a-b-db, 14, 2, 8, 9, 83, 153, 90, 165, 165, 90, 3, 0.448051
290, 2, wb, attraction, a-b-db, 9, 2, 8, 10, 165, 90, 90, 165, 86, 157, 3, 1.64375
290, 2, wb, attraction, a-b-db, 9, 2, 8, 10, 165, 90, 90, 165, 86, 157, 1, 1.88867
290, 2, wb, attraction, a-b-db, 2, 3, 8, 11, 120, 195, 195, 120, 119, 193, 1, 3.0506
290, 2, wb, attraction, a-b-db, 2, 3, 8, 11, 120, 195, 195, 120, 119, 193, 2, 0.44713
290, 2, wb, attraction, a-b-db, 2, 2, 8, 12, 89, 163, 90, 165, 165, 90, 3, 2.88281
290, 2, wb, attraction, a-b-db, 2, 2, 8, 12, 89, 163, 90, 165, 165, 90, 2, 0.693798
290, 2, wb, attraction, a-b-db, 5, 3, 8, 13, 120, 195, 195, 120, 117, 190, 3, 4.95152
290, 2, wb, attraction, a-b-db, 5, 3, 8, 13, 120, 195, 195, 120, 117, 190, 2, 0.511269
290, 2, wb, catch, NA, 999, 999, 8, 14, 74, 121, 140, 175, 108, 147, 1, 0.768337
290, 2, wb, catch, NA, 999, 999, 8, 14, 74, 121, 140, 175, 108, 147, 2, 0.336829
290, 2, wb, attraction, a-b-da, 14, 2, 8, 15, 153, 83, 90, 165, 165, 90, 1, 1.36929
290, 2, wb, attraction, a-b-da, 14, 2, 8, 15, 153, 83, 90, 165, 165, 90, 2, 1.44157
290, 2, wb, attraction, a-b-da, 14, 1, 8, 16, 60, 135, 125, 56, 135, 60, 3, 3.76505
290, 2, wb, attraction, a-b-da, 14, 1, 8, 16, 60, 135, 125, 56, 135, 60, 1, 0.44447
290, 2, wb, filler, NA, 999, 999, 8, 17, 191, 80, 120, 190, 97, 93, 3, 1.9283
290, 2, wb, filler, NA, 999, 999, 8, 17, 191, 80, 120, 190, 97, 93, 2, 0.369766
290, 2, wb, attraction, a-b-da, 9, 2, 8, 18, 90, 165, 165, 90, 157, 86, 3, 3.65697
290, 2, wb, attraction, a-b-da, 9, 2, 8, 18, 90, 165, 165, 90, 157, 86, 1, 0.412296
290, 2, wb, attraction, a-b-db, 9, 1, 8, 19, 57, 129, 60, 135, 135, 60, 1, 2.14562
290, 2, wb, attraction, a-b-db, 9, 1, 8, 19, 57, 129, 60, 135, 135, 60, 2, 0.418037
290, 2, wb, attraction, a-b-da, 5, 3, 8, 20, 190, 117, 195, 120, 120, 195, 1, 0.823169
290, 2, wb, attraction, a-b-da, 5, 3, 8, 20, 190, 117, 195, 120, 120, 195, 3, 0.388988
290, 2, wb, attraction, a-b-db, 9, 3, 8, 21, 120, 195, 114, 186, 195, 120, 2, 0.947449
290, 2, wb, attraction, a-b-db, 9, 3, 8, 21, 120, 195, 114, 186, 195, 120, 1, 0.740458
290, 2, wb, attraction, a-b-db, 14, 3, 8, 22, 120, 195, 111, 181, 195, 120, 2, 0.892188
290, 2, wb, attraction, a-b-db, 14, 3, 8, 22, 120, 195, 111, 181, 195, 120, 1, 0.487165
290, 2, wb, filler, NA, 999, 999, 8, 23, 109, 119, 136, 116, 165, 123, 1, 0.881684
290, 2, wb, filler, NA, 999, 999, 8, 23, 109, 119, 136, 116, 165, 123, 3, 0.701401
290, 2, wb, attraction, a-b-db, 5, 1, 8, 24, 60, 135, 58, 132, 135, 60, 1, 2.83909
290, 2, wb, attraction, a-b-db, 5, 1, 8, 24, 60, 135, 58, 132, 135, 60, 3, 0.691514
290, 2, wb, filler, NA, 999, 999, 8, 25, 65, 170, 109, 168, 115, 167, 1, 0.789339
290, 2, wb, filler, NA, 999, 999, 8, 25, 65, 170, 109, 168, 115, 167, 2, 1.83632
290, 2, wb, attraction, a-b-da, 5, 2, 8, 26, 90, 165, 165, 90, 161, 88, 3, 2.7363
290, 2, wb, attraction, a-b-da, 5, 2, 8, 26, 90, 165, 165, 90, 161, 88, 1, 0.70554
290, 2, wb, catch, NA, 999, 999, 8, 27, 121, 194, 69, 126, 139, 116, 2, 0.707152
290, 2, wb, catch, NA, 999, 999, 8, 27, 121, 194, 69, 126, 139, 116, 1, 0.613707
290, 2, wb, catch, NA, 999, 999, 8, 28, 194, 121, 122, 133, 117, 78, 3, 0.810678
290, 2, wb, catch, NA, 999, 999, 8, 28, 194, 121, 122, 133, 117, 78, 1, 0.657054
290, 2, wb, attraction, a-b-da, 2, 1, 8, 29, 135, 60, 134, 59, 60, 135, 1, 3.72411
290, 2, wb, attraction, a-b-da, 2, 1, 8, 29, 135, 60, 134, 59, 60, 135, 3, 0.789031
290, 2, wb, attraction, a-b-da, 5, 1, 8, 30, 60, 135, 135, 60, 132, 58, 2, 2.69924
290, 2, wb, attraction, a-b-da, 5, 1, 8, 30, 60, 135, 135, 60, 132, 58, 1, 0.429715
290, 2, wb, attraction, a-b-da, 14, 3, 8, 31, 195, 120, 181, 111, 120, 195, 2, 1.76221
290, 2, wb, attraction, a-b-da, 14, 3, 8, 31, 195, 120, 181, 111, 120, 195, 1, 0.52239
290, 2, wb, filler, NA, 999, 999, 8, 32, 86, 143, 60, 182, 185, 78, 2, 5.02743
290, 2, wb, filler, NA, 999, 999, 8, 32, 86, 143, 60, 182, 185, 78, 3, 1.84788
290, 2, wb, attraction, a-b-db, 2, 1, 8, 33, 60, 135, 135, 60, 59, 134, 1, 4.14717
290, 2, wb, attraction, a-b-db, 2, 1, 8, 33, 60, 135, 135, 60, 59, 134, 2, 0.747212
290, 2, wb, attraction, a-b-da, 2, 3, 8, 34, 195, 120, 120, 195, 193, 119, 1, 2.01097
290, 2, wb, attraction, a-b-da, 2, 3, 8, 34, 195, 120, 120, 195, 193, 119, 2, 0.560915
290, 2, wb, filler, NA, 999, 999, 8, 35, 180, 161, 95, 88, 117, 182, 2, 0.656158
290, 2, wb, filler, NA, 999, 999, 8, 35, 180, 161, 95, 88, 117, 182, 1, 0.35642
290, 2, wb, attraction, a-b-da, 9, 3, 8, 36, 120, 195, 186, 114, 195, 120, 1, 1.71569
290, 2, wb, attraction, a-b-da, 9, 3, 8, 36, 120, 195, 186, 114, 195, 120, 2, 2.24569
290, 2, wb, filler, NA, 999, 999, 8, 37, 122, 183, 163, 114, 123, 152, 2, 1.71295
290, 2, wb, filler, NA, 999, 999, 8, 37, 122, 183, 163, 114, 123, 152, 1, 0.419022
