sub_n, computer_n, bw_cond, effect, set, distance, diag, block_n, trial_n, h1, w1, h2, w2, h3, w3, choice, rt 
269, 2, bw, practice, NA, 999, 999, 0, 1, 121, 150, 99, 142, 138, 83, 1, 3.37883
269, 2, bw, practice, NA, 999, 999, 0, 1, 121, 150, 99, 142, 138, 83, 3, 3.30677
269, 2, bw, practice, NA, 999, 999, 0, 2, 110, 70, 75, 192, 70, 172, 2, 2.12964
269, 2, bw, practice, NA, 999, 999, 0, 2, 110, 70, 75, 192, 70, 172, 1, 1.16753
269, 2, bw, practice, NA, 999, 999, 0, 3, 113, 144, 174, 62, 183, 68, 1, 4.25295
269, 2, bw, practice, NA, 999, 999, 0, 3, 113, 144, 174, 62, 183, 68, 2, 0.776994
269, 2, bw, attraction, a-b-da, 9, 1, 1, 1, 129, 57, 135, 60, 60, 135, 3, 6.92959
269, 2, bw, attraction, a-b-da, 9, 1, 1, 1, 129, 57, 135, 60, 60, 135, 1, 0.95343
269, 2, bw, attraction, a-b-da, 9, 2, 1, 2, 90, 165, 165, 90, 157, 86, 1, 4.63307
269, 2, bw, attraction, a-b-da, 9, 2, 1, 2, 90, 165, 165, 90, 157, 86, 2, 2.06965
269, 2, bw, attraction, a-b-da, 2, 1, 1, 3, 134, 59, 135, 60, 60, 135, 3, 2.99233
269, 2, bw, attraction, a-b-da, 2, 1, 1, 3, 134, 59, 135, 60, 60, 135, 1, 0.582545
269, 2, bw, catch, NA, 999, 999, 1, 4, 121, 194, 63, 132, 90, 165, 1, 1.50901
269, 2, bw, catch, NA, 999, 999, 1, 4, 121, 194, 63, 132, 90, 165, 2, 0.807142
269, 2, bw, attraction, a-b-da, 5, 2, 1, 5, 161, 88, 90, 165, 165, 90, 2, 4.69214
269, 2, bw, attraction, a-b-da, 5, 2, 1, 5, 161, 88, 90, 165, 165, 90, 1, 0.590005
269, 2, bw, attraction, a-b-db, 5, 2, 1, 6, 90, 165, 165, 90, 88, 161, 1, 6.42788
269, 2, bw, attraction, a-b-db, 5, 2, 1, 6, 90, 165, 165, 90, 88, 161, 2, 0.535794
269, 2, bw, attraction, a-b-da, 5, 3, 1, 7, 120, 195, 195, 120, 190, 117, 1, 5.8243
269, 2, bw, attraction, a-b-da, 5, 3, 1, 7, 120, 195, 195, 120, 190, 117, 3, 0.404432
269, 2, bw, filler, NA, 999, 999, 1, 8, 142, 190, 178, 172, 190, 67, 2, 1.31414
269, 2, bw, filler, NA, 999, 999, 1, 8, 142, 190, 178, 172, 190, 67, 3, 0.452457
269, 2, bw, attraction, a-b-db, 2, 2, 1, 9, 89, 163, 165, 90, 90, 165, 2, 3.29623
269, 2, bw, attraction, a-b-db, 2, 2, 1, 9, 89, 163, 165, 90, 90, 165, 1, 0.394545
269, 2, bw, filler, NA, 999, 999, 1, 10, 75, 148, 130, 76, 95, 146, 3, 1.40028
269, 2, bw, filler, NA, 999, 999, 1, 10, 75, 148, 130, 76, 95, 146, 2, 0.831131
269, 2, bw, attraction, a-b-da, 14, 3, 1, 11, 195, 120, 181, 111, 120, 195, 3, 3.46755
269, 2, bw, attraction, a-b-da, 14, 3, 1, 11, 195, 120, 181, 111, 120, 195, 2, 0.367087
269, 2, bw, filler, NA, 999, 999, 1, 12, 157, 183, 182, 151, 80, 162, 1, 5.31821
269, 2, bw, filler, NA, 999, 999, 1, 12, 157, 183, 182, 151, 80, 162, 3, 0.439179
269, 2, bw, attraction, a-b-db, 9, 1, 1, 13, 60, 135, 135, 60, 57, 129, 1, 10.995
269, 2, bw, attraction, a-b-db, 9, 1, 1, 13, 60, 135, 135, 60, 57, 129, 3, 0.902888
269, 2, bw, attraction, a-b-db, 5, 1, 1, 14, 58, 132, 135, 60, 60, 135, 1, 11.7605
269, 2, bw, attraction, a-b-db, 5, 1, 1, 14, 58, 132, 135, 60, 60, 135, 2, 0.749559
269, 2, bw, attraction, a-b-db, 14, 1, 1, 15, 135, 60, 60, 135, 56, 125, 2, 5.35717
269, 2, bw, attraction, a-b-db, 14, 1, 1, 15, 135, 60, 60, 135, 56, 125, 3, 0.492145
269, 2, bw, catch, NA, 999, 999, 1, 16, 110, 85, 130, 185, 135, 120, 2, 2.18196
269, 2, bw, catch, NA, 999, 999, 1, 16, 110, 85, 130, 185, 135, 120, 1, 0.429188
269, 2, bw, filler, NA, 999, 999, 1, 17, 106, 91, 82, 81, 137, 116, 3, 1.53774
269, 2, bw, filler, NA, 999, 999, 1, 17, 106, 91, 82, 81, 137, 116, 2, 0.386564
269, 2, bw, attraction, a-b-da, 14, 2, 1, 18, 165, 90, 90, 165, 153, 83, 1, 3.74513
269, 2, bw, attraction, a-b-da, 14, 2, 1, 18, 165, 90, 90, 165, 153, 83, 3, 0.377126
269, 2, bw, filler, NA, 999, 999, 1, 19, 132, 195, 77, 165, 135, 152, 1, 1.54363
269, 2, bw, filler, NA, 999, 999, 1, 19, 132, 195, 77, 165, 135, 152, 2, 0.880556
269, 2, bw, attraction, a-b-db, 14, 3, 1, 20, 111, 181, 120, 195, 195, 120, 2, 3.18691
269, 2, bw, attraction, a-b-db, 14, 3, 1, 20, 111, 181, 120, 195, 195, 120, 1, 2.12186
269, 2, bw, attraction, a-b-da, 2, 2, 1, 21, 165, 90, 163, 89, 90, 165, 2, 8.75443
269, 2, bw, attraction, a-b-da, 2, 2, 1, 21, 165, 90, 163, 89, 90, 165, 3, 1.03302
269, 2, bw, attraction, a-b-da, 14, 1, 1, 22, 125, 56, 135, 60, 60, 135, 3, 2.67725
269, 2, bw, attraction, a-b-da, 14, 1, 1, 22, 125, 56, 135, 60, 60, 135, 1, 0.392332
269, 2, bw, attraction, a-b-db, 9, 2, 1, 23, 86, 157, 165, 90, 90, 165, 3, 2.82224
269, 2, bw, attraction, a-b-db, 9, 2, 1, 23, 86, 157, 165, 90, 90, 165, 1, 0.851326
269, 2, bw, filler, NA, 999, 999, 1, 24, 66, 78, 100, 60, 60, 82, 2, 5.91119
269, 2, bw, filler, NA, 999, 999, 1, 24, 66, 78, 100, 60, 60, 82, 3, 6.65582
269, 2, bw, filler, NA, 999, 999, 1, 25, 148, 129, 103, 101, 166, 106, 1, 6.42573
269, 2, bw, filler, NA, 999, 999, 1, 25, 148, 129, 103, 101, 166, 106, 2, 0.46157
269, 2, bw, attraction, a-b-db, 9, 3, 1, 26, 120, 195, 114, 186, 195, 120, 3, 5.33684
269, 2, bw, attraction, a-b-db, 9, 3, 1, 26, 120, 195, 114, 186, 195, 120, 2, 0.289035
269, 2, bw, filler, NA, 999, 999, 1, 27, 154, 71, 86, 185, 155, 107, 3, 2.89971
269, 2, bw, filler, NA, 999, 999, 1, 27, 154, 71, 86, 185, 155, 107, 1, 1.05415
269, 2, bw, attraction, a-b-da, 2, 3, 1, 28, 120, 195, 193, 119, 195, 120, 1, 8.1136
269, 2, bw, attraction, a-b-da, 2, 3, 1, 28, 120, 195, 193, 119, 195, 120, 2, 1.72178
269, 2, bw, filler, NA, 999, 999, 1, 29, 146, 189, 160, 86, 85, 56, 1, 1.3144
269, 2, bw, filler, NA, 999, 999, 1, 29, 146, 189, 160, 86, 85, 56, 3, 0.332811
269, 2, bw, attraction, a-b-db, 2, 1, 1, 30, 135, 60, 59, 134, 60, 135, 1, 5.24508
269, 2, bw, attraction, a-b-db, 2, 1, 1, 30, 135, 60, 59, 134, 60, 135, 3, 0.504865
269, 2, bw, attraction, a-b-db, 14, 2, 1, 31, 83, 153, 90, 165, 165, 90, 3, 8.82668
269, 2, bw, attraction, a-b-db, 14, 2, 1, 31, 83, 153, 90, 165, 165, 90, 1, 0.397861
269, 2, bw, attraction, a-b-da, 5, 1, 1, 32, 132, 58, 135, 60, 60, 135, 2, 2.64359
269, 2, bw, attraction, a-b-da, 5, 1, 1, 32, 132, 58, 135, 60, 60, 135, 3, 0.560109
269, 2, bw, catch, NA, 999, 999, 1, 33, 102, 153, 64, 131, 190, 125, 3, 1.97526
269, 2, bw, catch, NA, 999, 999, 1, 33, 102, 153, 64, 131, 190, 125, 2, 0.710661
269, 2, bw, attraction, a-b-db, 2, 3, 1, 34, 195, 120, 120, 195, 119, 193, 2, 4.03166
269, 2, bw, attraction, a-b-db, 2, 3, 1, 34, 195, 120, 120, 195, 119, 193, 1, 0.700297
269, 2, bw, filler, NA, 999, 999, 1, 35, 188, 188, 192, 166, 105, 134, 1, 1.74213
269, 2, bw, filler, NA, 999, 999, 1, 35, 188, 188, 192, 166, 105, 134, 3, 0.40733
269, 2, bw, attraction, a-b-da, 9, 3, 1, 36, 186, 114, 195, 120, 120, 195, 3, 4.63609
269, 2, bw, attraction, a-b-da, 9, 3, 1, 36, 186, 114, 195, 120, 120, 195, 1, 0.680502
269, 2, bw, attraction, a-b-db, 5, 3, 1, 37, 120, 195, 117, 190, 195, 120, 1, 6.61096
269, 2, bw, attraction, a-b-db, 5, 3, 1, 37, 120, 195, 117, 190, 195, 120, 3, 0.40755
269, 2, bw, attraction, a-b-da, 14, 1, 2, 1, 135, 60, 125, 56, 60, 135, 3, 4.13273
269, 2, bw, attraction, a-b-da, 14, 1, 2, 1, 135, 60, 125, 56, 60, 135, 2, 0.781337
269, 2, bw, filler, NA, 999, 999, 2, 2, 154, 61, 137, 98, 145, 120, 3, 0.923676
269, 2, bw, filler, NA, 999, 999, 2, 2, 154, 61, 137, 98, 145, 120, 1, 0.909305
269, 2, bw, attraction, a-b-db, 2, 3, 2, 3, 119, 193, 120, 195, 195, 120, 3, 6.92642
269, 2, bw, attraction, a-b-db, 2, 3, 2, 3, 119, 193, 120, 195, 195, 120, 1, 0.318179
269, 2, bw, filler, NA, 999, 999, 2, 4, 168, 160, 88, 115, 93, 81, 1, 1.11925
269, 2, bw, filler, NA, 999, 999, 2, 4, 168, 160, 88, 115, 93, 81, 3, 1.22576
269, 2, bw, attraction, a-b-da, 2, 2, 2, 5, 163, 89, 90, 165, 165, 90, 2, 12.838
269, 2, bw, attraction, a-b-da, 2, 2, 2, 5, 163, 89, 90, 165, 165, 90, 1, 0.42379
269, 2, bw, attraction, a-b-da, 5, 1, 2, 6, 135, 60, 132, 58, 60, 135, 1, 4.87628
269, 2, bw, attraction, a-b-da, 5, 1, 2, 6, 135, 60, 132, 58, 60, 135, 3, 2.34428
269, 2, bw, filler, NA, 999, 999, 2, 7, 167, 194, 168, 97, 154, 91, 1, 1.17395
269, 2, bw, filler, NA, 999, 999, 2, 7, 167, 194, 168, 97, 154, 91, 3, 0.765618
269, 2, bw, catch, NA, 999, 999, 2, 8, 162, 93, 95, 100, 139, 176, 3, 0.764548
269, 2, bw, catch, NA, 999, 999, 2, 8, 162, 93, 95, 100, 139, 176, 2, 0.388965
269, 2, bw, attraction, a-b-db, 9, 2, 2, 9, 86, 157, 90, 165, 165, 90, 3, 2.98753
269, 2, bw, attraction, a-b-db, 9, 2, 2, 9, 86, 157, 90, 165, 165, 90, 1, 0.466528
269, 2, bw, catch, NA, 999, 999, 2, 10, 90, 165, 151, 164, 133, 62, 2, 1.0377
269, 2, bw, catch, NA, 999, 999, 2, 10, 90, 165, 151, 164, 133, 62, 3, 0.498604
269, 2, bw, attraction, a-b-db, 14, 2, 2, 11, 165, 90, 83, 153, 90, 165, 3, 2.37242
269, 2, bw, attraction, a-b-db, 14, 2, 2, 11, 165, 90, 83, 153, 90, 165, 1, 1.12371
269, 2, bw, attraction, a-b-db, 2, 1, 2, 12, 59, 134, 60, 135, 135, 60, 1, 2.05184
269, 2, bw, attraction, a-b-db, 2, 1, 2, 12, 59, 134, 60, 135, 135, 60, 3, 0.416641
269, 2, bw, filler, NA, 999, 999, 2, 13, 102, 146, 91, 115, 122, 190, 3, 0.757701
269, 2, bw, filler, NA, 999, 999, 2, 13, 102, 146, 91, 115, 122, 190, 2, 0.326087
269, 2, bw, attraction, a-b-db, 5, 2, 2, 14, 90, 165, 88, 161, 165, 90, 1, 7.54269
269, 2, bw, attraction, a-b-db, 5, 2, 2, 14, 90, 165, 88, 161, 165, 90, 3, 0.365524
269, 2, bw, filler, NA, 999, 999, 2, 15, 139, 57, 77, 124, 129, 166, 3, 1.05268
269, 2, bw, filler, NA, 999, 999, 2, 15, 139, 57, 77, 124, 129, 166, 1, 0.393889
269, 2, bw, attraction, a-b-da, 14, 2, 2, 16, 165, 90, 153, 83, 90, 165, 1, 6.4395
269, 2, bw, attraction, a-b-da, 14, 2, 2, 16, 165, 90, 153, 83, 90, 165, 2, 0.658754
269, 2, bw, attraction, a-b-da, 5, 3, 2, 17, 120, 195, 195, 120, 190, 117, 2, 9.52595
269, 2, bw, attraction, a-b-da, 5, 3, 2, 17, 120, 195, 195, 120, 190, 117, 1, 1.09289
269, 2, bw, attraction, a-b-da, 9, 1, 2, 18, 135, 60, 60, 135, 129, 57, 2, 2.63048
269, 2, bw, attraction, a-b-da, 9, 1, 2, 18, 135, 60, 60, 135, 129, 57, 3, 0.627706
269, 2, bw, attraction, a-b-da, 5, 2, 2, 19, 161, 88, 90, 165, 165, 90, 2, 1.62406
269, 2, bw, attraction, a-b-da, 5, 2, 2, 19, 161, 88, 90, 165, 165, 90, 3, 0.629531
269, 2, bw, attraction, a-b-da, 2, 1, 2, 20, 135, 60, 134, 59, 60, 135, 3, 1.16998
269, 2, bw, attraction, a-b-da, 2, 1, 2, 20, 135, 60, 134, 59, 60, 135, 2, 0.434103
269, 2, bw, filler, NA, 999, 999, 2, 21, 113, 122, 153, 194, 98, 142, 2, 0.798563
269, 2, bw, filler, NA, 999, 999, 2, 21, 113, 122, 153, 194, 98, 142, 1, 0.437822
269, 2, bw, attraction, a-b-db, 5, 3, 2, 22, 195, 120, 120, 195, 117, 190, 2, 2.58632
269, 2, bw, attraction, a-b-db, 5, 3, 2, 22, 195, 120, 120, 195, 117, 190, 3, 1.01737
269, 2, bw, attraction, a-b-db, 9, 1, 2, 23, 60, 135, 135, 60, 57, 129, 2, 3.29432
269, 2, bw, attraction, a-b-db, 9, 1, 2, 23, 60, 135, 135, 60, 57, 129, 3, 0.568593
269, 2, bw, filler, NA, 999, 999, 2, 24, 176, 184, 88, 187, 94, 67, 1, 1.03164
269, 2, bw, filler, NA, 999, 999, 2, 24, 176, 184, 88, 187, 94, 67, 3, 0.629497
269, 2, bw, attraction, a-b-db, 14, 1, 2, 25, 60, 135, 135, 60, 56, 125, 2, 2.60171
269, 2, bw, attraction, a-b-db, 14, 1, 2, 25, 60, 135, 135, 60, 56, 125, 3, 0.512243
269, 2, bw, attraction, a-b-da, 9, 3, 2, 26, 186, 114, 120, 195, 195, 120, 2, 7.08946
269, 2, bw, attraction, a-b-da, 9, 3, 2, 26, 186, 114, 120, 195, 195, 120, 1, 0.411141
269, 2, bw, filler, NA, 999, 999, 2, 27, 113, 82, 63, 149, 81, 137, 3, 9.36034
269, 2, bw, filler, NA, 999, 999, 2, 27, 113, 82, 63, 149, 81, 137, 2, 1.08597
269, 2, bw, filler, NA, 999, 999, 2, 28, 171, 165, 127, 127, 112, 89, 1, 0.888396
269, 2, bw, filler, NA, 999, 999, 2, 28, 171, 165, 127, 127, 112, 89, 3, 0.339371
269, 2, bw, attraction, a-b-db, 5, 1, 2, 29, 58, 132, 60, 135, 135, 60, 3, 3.98713
269, 2, bw, attraction, a-b-db, 5, 1, 2, 29, 58, 132, 60, 135, 135, 60, 1, 0.929847
269, 2, bw, attraction, a-b-da, 9, 2, 2, 30, 157, 86, 165, 90, 90, 165, 3, 1.32217
269, 2, bw, attraction, a-b-da, 9, 2, 2, 30, 157, 86, 165, 90, 90, 165, 1, 0.459796
269, 2, bw, catch, NA, 999, 999, 2, 31, 145, 110, 73, 122, 192, 123, 3, 1.1268
269, 2, bw, catch, NA, 999, 999, 2, 31, 145, 110, 73, 122, 192, 123, 2, 0.312415
269, 2, bw, attraction, a-b-da, 2, 3, 2, 32, 120, 195, 193, 119, 195, 120, 1, 2.66566
269, 2, bw, attraction, a-b-da, 2, 3, 2, 32, 120, 195, 193, 119, 195, 120, 2, 0.677581
269, 2, bw, attraction, a-b-db, 14, 3, 2, 33, 120, 195, 195, 120, 111, 181, 1, 3.08786
269, 2, bw, attraction, a-b-db, 14, 3, 2, 33, 120, 195, 195, 120, 111, 181, 3, 0.346122
269, 2, bw, attraction, a-b-db, 2, 2, 2, 34, 89, 163, 90, 165, 165, 90, 2, 4.11408
269, 2, bw, attraction, a-b-db, 2, 2, 2, 34, 89, 163, 90, 165, 165, 90, 1, 1.41934
269, 2, bw, filler, NA, 999, 999, 2, 35, 109, 140, 60, 85, 119, 186, 3, 0.968198
269, 2, bw, filler, NA, 999, 999, 2, 35, 109, 140, 60, 85, 119, 186, 2, 0.344606
269, 2, bw, attraction, a-b-da, 14, 3, 2, 36, 181, 111, 195, 120, 120, 195, 2, 1.62449
269, 2, bw, attraction, a-b-da, 14, 3, 2, 36, 181, 111, 195, 120, 120, 195, 3, 0.413808
269, 2, bw, attraction, a-b-db, 9, 3, 2, 37, 114, 186, 195, 120, 120, 195, 3, 3.27509
269, 2, bw, attraction, a-b-db, 9, 3, 2, 37, 114, 186, 195, 120, 120, 195, 1, 1.70199
269, 2, bw, attraction, a-b-db, 5, 3, 3, 1, 117, 190, 120, 195, 195, 120, 3, 5.62332
269, 2, bw, attraction, a-b-db, 5, 3, 3, 1, 117, 190, 120, 195, 195, 120, 1, 0.419576
269, 2, bw, attraction, a-b-da, 14, 1, 3, 2, 125, 56, 60, 135, 135, 60, 2, 3.2567
269, 2, bw, attraction, a-b-da, 14, 1, 3, 2, 125, 56, 60, 135, 135, 60, 1, 0.452288
269, 2, bw, attraction, a-b-da, 5, 3, 3, 3, 190, 117, 195, 120, 120, 195, 3, 5.84024
269, 2, bw, attraction, a-b-da, 5, 3, 3, 3, 190, 117, 195, 120, 120, 195, 2, 0.315642
269, 2, bw, attraction, a-b-da, 9, 3, 3, 4, 195, 120, 120, 195, 186, 114, 2, 1.79676
269, 2, bw, attraction, a-b-da, 9, 3, 3, 4, 195, 120, 120, 195, 186, 114, 3, 0.603487
269, 2, bw, attraction, a-b-db, 9, 2, 3, 5, 90, 165, 165, 90, 86, 157, 1, 3.45726
269, 2, bw, attraction, a-b-db, 9, 2, 3, 5, 90, 165, 165, 90, 86, 157, 3, 0.332944
269, 2, bw, filler, NA, 999, 999, 3, 6, 156, 143, 185, 91, 68, 114, 1, 2.44543
269, 2, bw, filler, NA, 999, 999, 3, 6, 156, 143, 185, 91, 68, 114, 3, 1.14594
269, 2, bw, filler, NA, 999, 999, 3, 7, 117, 69, 149, 57, 120, 113, 3, 4.00952
269, 2, bw, filler, NA, 999, 999, 3, 7, 117, 69, 149, 57, 120, 113, 1, 3.42288
269, 2, bw, filler, NA, 999, 999, 3, 8, 142, 153, 111, 121, 188, 163, 3, 0.931004
269, 2, bw, filler, NA, 999, 999, 3, 8, 142, 153, 111, 121, 188, 163, 2, 0.300744
269, 2, bw, attraction, a-b-db, 2, 2, 3, 9, 90, 165, 89, 163, 165, 90, 2, 3.48669
269, 2, bw, attraction, a-b-db, 2, 2, 3, 9, 90, 165, 89, 163, 165, 90, 3, 0.977438
269, 2, bw, attraction, a-b-db, 9, 3, 3, 10, 195, 120, 120, 195, 114, 186, 1, 5.58385
269, 2, bw, attraction, a-b-db, 9, 3, 3, 10, 195, 120, 120, 195, 114, 186, 3, 0.430056
269, 2, bw, filler, NA, 999, 999, 3, 11, 77, 171, 102, 76, 159, 152, 3, 0.922404
269, 2, bw, filler, NA, 999, 999, 3, 11, 77, 171, 102, 76, 159, 152, 2, 0.380271
269, 2, bw, attraction, a-b-db, 14, 1, 3, 12, 56, 125, 60, 135, 135, 60, 3, 4.83467
269, 2, bw, attraction, a-b-db, 14, 1, 3, 12, 56, 125, 60, 135, 135, 60, 1, 0.863102
269, 2, bw, attraction, a-b-db, 5, 1, 3, 13, 135, 60, 58, 132, 60, 135, 1, 2.77013
269, 2, bw, attraction, a-b-db, 5, 1, 3, 13, 135, 60, 58, 132, 60, 135, 2, 1.33798
269, 2, bw, filler, NA, 999, 999, 3, 14, 95, 186, 77, 135, 136, 63, 1, 3.01815
269, 2, bw, filler, NA, 999, 999, 3, 14, 95, 186, 77, 135, 136, 63, 3, 1.68797
269, 2, bw, catch, NA, 999, 999, 3, 15, 133, 122, 76, 119, 123, 192, 3, 1.8499
269, 2, bw, catch, NA, 999, 999, 3, 15, 133, 122, 76, 119, 123, 192, 2, 0.342546
269, 2, bw, filler, NA, 999, 999, 3, 16, 68, 103, 85, 109, 140, 73, 3, 4.08655
269, 2, bw, filler, NA, 999, 999, 3, 16, 68, 103, 85, 109, 140, 73, 1, 0.425097
269, 2, bw, filler, NA, 999, 999, 3, 17, 91, 140, 184, 195, 187, 166, 2, 0.82962
269, 2, bw, filler, NA, 999, 999, 3, 17, 91, 140, 184, 195, 187, 166, 1, 0.379321
269, 2, bw, attraction, a-b-db, 9, 1, 3, 18, 57, 129, 60, 135, 135, 60, 3, 3.48182
269, 2, bw, attraction, a-b-db, 9, 1, 3, 18, 57, 129, 60, 135, 135, 60, 1, 1.05268
269, 2, bw, catch, NA, 999, 999, 3, 19, 139, 116, 122, 193, 89, 106, 2, 1.54431
269, 2, bw, catch, NA, 999, 999, 3, 19, 139, 116, 122, 193, 89, 106, 3, 0.31318
269, 2, bw, attraction, a-b-db, 14, 3, 3, 20, 111, 181, 120, 195, 195, 120, 2, 3.63439
269, 2, bw, attraction, a-b-db, 14, 3, 3, 20, 111, 181, 120, 195, 195, 120, 1, 0.455175
269, 2, bw, attraction, a-b-da, 5, 2, 3, 21, 90, 165, 165, 90, 161, 88, 2, 5.68311
269, 2, bw, attraction, a-b-da, 5, 2, 3, 21, 90, 165, 165, 90, 161, 88, 1, 0.5412
269, 2, bw, attraction, a-b-da, 9, 1, 3, 22, 135, 60, 60, 135, 129, 57, 2, 5.18919
269, 2, bw, attraction, a-b-da, 9, 1, 3, 22, 135, 60, 60, 135, 129, 57, 3, 0.426813
269, 2, bw, attraction, a-b-db, 5, 2, 3, 23, 90, 165, 88, 161, 165, 90, 3, 5.88703
269, 2, bw, attraction, a-b-db, 5, 2, 3, 23, 90, 165, 88, 161, 165, 90, 1, 0.377211
269, 2, bw, filler, NA, 999, 999, 3, 24, 99, 74, 164, 77, 133, 124, 3, 1.66374
269, 2, bw, filler, NA, 999, 999, 3, 24, 99, 74, 164, 77, 133, 124, 1, 0.307834
269, 2, bw, filler, NA, 999, 999, 3, 25, 189, 171, 56, 155, 56, 71, 1, 0.869006
269, 2, bw, filler, NA, 999, 999, 3, 25, 189, 171, 56, 155, 56, 71, 3, 0.449397
269, 2, bw, catch, NA, 999, 999, 3, 26, 90, 165, 184, 131, 90, 105, 2, 0.869161
269, 2, bw, catch, NA, 999, 999, 3, 26, 90, 165, 184, 131, 90, 105, 3, 0.305586
269, 2, bw, attraction, a-b-da, 2, 2, 3, 27, 163, 89, 165, 90, 90, 165, 3, 1.77139
269, 2, bw, attraction, a-b-da, 2, 2, 3, 27, 163, 89, 165, 90, 90, 165, 1, 2.49084
269, 2, bw, attraction, a-b-da, 9, 2, 3, 28, 165, 90, 157, 86, 90, 165, 3, 1.44411
269, 2, bw, attraction, a-b-da, 9, 2, 3, 28, 165, 90, 157, 86, 90, 165, 2, 1.40093
269, 2, bw, attraction, a-b-da, 2, 1, 3, 29, 135, 60, 134, 59, 60, 135, 3, 3.3823
269, 2, bw, attraction, a-b-da, 2, 1, 3, 29, 135, 60, 134, 59, 60, 135, 2, 0.677274
269, 2, bw, attraction, a-b-db, 2, 1, 3, 30, 135, 60, 59, 134, 60, 135, 3, 4.99977
269, 2, bw, attraction, a-b-db, 2, 1, 3, 30, 135, 60, 59, 134, 60, 135, 2, 0.541505
269, 2, bw, attraction, a-b-db, 14, 2, 3, 31, 90, 165, 165, 90, 83, 153, 2, 2.56516
269, 2, bw, attraction, a-b-db, 14, 2, 3, 31, 90, 165, 165, 90, 83, 153, 3, 0.597012
269, 2, bw, attraction, a-b-db, 2, 3, 3, 32, 120, 195, 119, 193, 195, 120, 1, 7.99482
269, 2, bw, attraction, a-b-db, 2, 3, 3, 32, 120, 195, 119, 193, 195, 120, 3, 0.543606
269, 2, bw, attraction, a-b-da, 2, 3, 3, 33, 193, 119, 195, 120, 120, 195, 3, 2.83938
269, 2, bw, attraction, a-b-da, 2, 3, 3, 33, 193, 119, 195, 120, 120, 195, 1, 0.93187
269, 2, bw, attraction, a-b-da, 14, 2, 3, 34, 90, 165, 153, 83, 165, 90, 3, 8.18818
269, 2, bw, attraction, a-b-da, 14, 2, 3, 34, 90, 165, 153, 83, 165, 90, 2, 0.305455
269, 2, bw, filler, NA, 999, 999, 3, 35, 123, 68, 189, 109, 67, 109, 2, 4.67537
269, 2, bw, filler, NA, 999, 999, 3, 35, 123, 68, 189, 109, 67, 109, 3, 0.405817
269, 2, bw, attraction, a-b-da, 14, 3, 3, 36, 181, 111, 120, 195, 195, 120, 2, 3.03561
269, 2, bw, attraction, a-b-da, 14, 3, 3, 36, 181, 111, 120, 195, 195, 120, 1, 0.560822
269, 2, bw, attraction, a-b-da, 5, 1, 3, 37, 132, 58, 135, 60, 60, 135, 2, 2.24773
269, 2, bw, attraction, a-b-da, 5, 1, 3, 37, 132, 58, 135, 60, 60, 135, 3, 1.7724
269, 2, bw, attraction, a-b-db, 9, 3, 4, 1, 195, 120, 120, 195, 114, 186, 1, 3.34728
269, 2, bw, attraction, a-b-db, 9, 3, 4, 1, 195, 120, 120, 195, 114, 186, 3, 0.507444
269, 2, bw, attraction, a-b-db, 14, 3, 4, 2, 120, 195, 195, 120, 111, 181, 1, 2.66848
269, 2, bw, attraction, a-b-db, 14, 3, 4, 2, 120, 195, 195, 120, 111, 181, 3, 0.608312
269, 2, bw, attraction, a-b-da, 2, 2, 4, 3, 163, 89, 90, 165, 165, 90, 2, 5.63738
269, 2, bw, attraction, a-b-da, 2, 2, 4, 3, 163, 89, 90, 165, 165, 90, 1, 8.4176
269, 2, bw, attraction, a-b-db, 5, 1, 4, 4, 58, 132, 135, 60, 60, 135, 3, 4.38843
269, 2, bw, attraction, a-b-db, 5, 1, 4, 4, 58, 132, 135, 60, 60, 135, 1, 0.394163
269, 2, bw, attraction, a-b-da, 14, 2, 4, 5, 90, 165, 165, 90, 153, 83, 1, 4.23211
269, 2, bw, attraction, a-b-da, 14, 2, 4, 5, 90, 165, 165, 90, 153, 83, 3, 0.7646
269, 2, bw, attraction, a-b-da, 9, 3, 4, 6, 195, 120, 186, 114, 120, 195, 3, 1.16368
269, 2, bw, attraction, a-b-da, 9, 3, 4, 6, 195, 120, 186, 114, 120, 195, 2, 0.611906
269, 2, bw, attraction, a-b-db, 2, 1, 4, 7, 60, 135, 135, 60, 59, 134, 2, 2.16905
269, 2, bw, attraction, a-b-db, 2, 1, 4, 7, 60, 135, 135, 60, 59, 134, 1, 1.185
269, 2, bw, filler, NA, 999, 999, 4, 8, 99, 124, 137, 88, 93, 78, 2, 1.03121
269, 2, bw, filler, NA, 999, 999, 4, 8, 99, 124, 137, 88, 93, 78, 3, 0.412905
269, 2, bw, filler, NA, 999, 999, 4, 9, 183, 189, 164, 59, 119, 142, 1, 0.641957
269, 2, bw, filler, NA, 999, 999, 4, 9, 183, 189, 164, 59, 119, 142, 2, 0.447148
269, 2, bw, attraction, a-b-da, 5, 3, 4, 10, 195, 120, 120, 195, 190, 117, 1, 3.37099
269, 2, bw, attraction, a-b-da, 5, 3, 4, 10, 195, 120, 120, 195, 190, 117, 2, 1.38653
269, 2, bw, attraction, a-b-da, 5, 1, 4, 11, 60, 135, 132, 58, 135, 60, 1, 4.10474
269, 2, bw, attraction, a-b-da, 5, 1, 4, 11, 60, 135, 132, 58, 135, 60, 3, 0.770737
269, 2, bw, attraction, a-b-db, 9, 1, 4, 12, 135, 60, 57, 129, 60, 135, 1, 3.77781
269, 2, bw, attraction, a-b-db, 9, 1, 4, 12, 135, 60, 57, 129, 60, 135, 2, 0.416563
269, 2, bw, filler, NA, 999, 999, 4, 13, 188, 179, 163, 123, 68, 129, 1, 1.42172
269, 2, bw, filler, NA, 999, 999, 4, 13, 188, 179, 163, 123, 68, 129, 3, 0.363262
269, 2, bw, filler, NA, 999, 999, 4, 14, 114, 57, 179, 86, 166, 121, 3, 0.850357
269, 2, bw, filler, NA, 999, 999, 4, 14, 114, 57, 179, 86, 166, 121, 1, 0.343484
269, 2, bw, catch, NA, 999, 999, 4, 15, 89, 106, 159, 96, 161, 154, 3, 0.799347
269, 2, bw, catch, NA, 999, 999, 4, 15, 89, 106, 159, 96, 161, 154, 1, 0.502358
269, 2, bw, attraction, a-b-db, 5, 2, 4, 16, 165, 90, 90, 165, 88, 161, 2, 3.94416
269, 2, bw, attraction, a-b-db, 5, 2, 4, 16, 165, 90, 90, 165, 88, 161, 3, 0.288185
269, 2, bw, filler, NA, 999, 999, 4, 17, 153, 82, 129, 63, 77, 67, 1, 1.03475
269, 2, bw, filler, NA, 999, 999, 4, 17, 153, 82, 129, 63, 77, 67, 3, 0.536389
269, 2, bw, filler, NA, 999, 999, 4, 18, 145, 128, 166, 112, 78, 183, 2, 5.67284
269, 2, bw, filler, NA, 999, 999, 4, 18, 145, 128, 166, 112, 78, 183, 3, 0.595054
269, 2, bw, filler, NA, 999, 999, 4, 19, 135, 106, 73, 144, 72, 76, 1, 0.952738
269, 2, bw, filler, NA, 999, 999, 4, 19, 135, 106, 73, 144, 72, 76, 3, 0.873817
269, 2, bw, attraction, a-b-da, 9, 1, 4, 20, 60, 135, 135, 60, 129, 57, 2, 1.06008
269, 2, bw, attraction, a-b-da, 9, 1, 4, 20, 60, 135, 135, 60, 129, 57, 1, 1.4325
269, 2, bw, attraction, a-b-db, 9, 2, 4, 21, 165, 90, 90, 165, 86, 157, 2, 3.60466
269, 2, bw, attraction, a-b-db, 9, 2, 4, 21, 165, 90, 90, 165, 86, 157, 3, 1.73015
269, 2, bw, catch, NA, 999, 999, 4, 22, 90, 105, 130, 185, 107, 148, 2, 0.794086
269, 2, bw, catch, NA, 999, 999, 4, 22, 90, 105, 130, 185, 107, 148, 1, 0.353162
269, 2, bw, filler, NA, 999, 999, 4, 23, 168, 110, 163, 95, 181, 136, 3, 0.897041
269, 2, bw, filler, NA, 999, 999, 4, 23, 168, 110, 163, 95, 181, 136, 2, 0.340192
269, 2, bw, attraction, a-b-da, 2, 3, 4, 24, 120, 195, 195, 120, 193, 119, 1, 1.74793
269, 2, bw, attraction, a-b-da, 2, 3, 4, 24, 120, 195, 195, 120, 193, 119, 3, 1.9647
269, 2, bw, attraction, a-b-db, 14, 1, 4, 25, 56, 125, 135, 60, 60, 135, 2, 2.13944
269, 2, bw, attraction, a-b-db, 14, 1, 4, 25, 56, 125, 135, 60, 60, 135, 1, 0.772
269, 2, bw, attraction, a-b-da, 2, 1, 4, 26, 134, 59, 135, 60, 60, 135, 3, 8.33096
269, 2, bw, attraction, a-b-da, 2, 1, 4, 26, 134, 59, 135, 60, 60, 135, 1, 0.322336
269, 2, bw, filler, NA, 999, 999, 4, 27, 71, 181, 129, 106, 135, 177, 3, 0.963612
269, 2, bw, filler, NA, 999, 999, 4, 27, 71, 181, 129, 106, 135, 177, 2, 1.23598
269, 2, bw, catch, NA, 999, 999, 4, 28, 101, 154, 108, 87, 184, 131, 3, 0.976058
269, 2, bw, catch, NA, 999, 999, 4, 28, 101, 154, 108, 87, 184, 131, 2, 0.27971
269, 2, bw, attraction, a-b-db, 2, 2, 4, 29, 89, 163, 165, 90, 90, 165, 2, 4.36233
269, 2, bw, attraction, a-b-db, 2, 2, 4, 29, 89, 163, 165, 90, 90, 165, 3, 0.329543
269, 2, bw, attraction, a-b-db, 5, 3, 4, 30, 195, 120, 117, 190, 120, 195, 1, 4.05801
269, 2, bw, attraction, a-b-db, 5, 3, 4, 30, 195, 120, 117, 190, 120, 195, 2, 0.301458
269, 2, bw, attraction, a-b-db, 14, 2, 4, 31, 83, 153, 165, 90, 90, 165, 3, 1.62326
269, 2, bw, attraction, a-b-db, 14, 2, 4, 31, 83, 153, 165, 90, 90, 165, 1, 1.79676
269, 2, bw, attraction, a-b-da, 14, 1, 4, 32, 60, 135, 135, 60, 125, 56, 2, 6.38617
269, 2, bw, attraction, a-b-da, 14, 1, 4, 32, 60, 135, 135, 60, 125, 56, 3, 0.304133
269, 2, bw, attraction, a-b-da, 9, 2, 4, 33, 157, 86, 90, 165, 165, 90, 2, 4.08195
269, 2, bw, attraction, a-b-da, 9, 2, 4, 33, 157, 86, 90, 165, 165, 90, 1, 0.436655
269, 2, bw, attraction, a-b-da, 14, 3, 4, 34, 120, 195, 181, 111, 195, 120, 3, 2.00106
269, 2, bw, attraction, a-b-da, 14, 3, 4, 34, 120, 195, 181, 111, 195, 120, 2, 0.3918
269, 2, bw, attraction, a-b-db, 2, 3, 4, 35, 120, 195, 195, 120, 119, 193, 2, 5.6457
269, 2, bw, attraction, a-b-db, 2, 3, 4, 35, 120, 195, 195, 120, 119, 193, 1, 0.441169
269, 2, bw, attraction, a-b-da, 5, 2, 4, 36, 90, 165, 161, 88, 165, 90, 3, 9.08509
269, 2, bw, attraction, a-b-da, 5, 2, 4, 36, 90, 165, 161, 88, 165, 90, 1, 0.358051
269, 2, bw, filler, NA, 999, 999, 4, 37, 122, 105, 181, 173, 152, 175, 2, 0.941192
269, 2, bw, filler, NA, 999, 999, 4, 37, 122, 105, 181, 173, 152, 175, 1, 0.366237
269, 2, bw, filler, NA, 999, 999, 5, 1, 66, 80, 68, 175, 87, 125, 2, 3.61216
269, 2, bw, filler, NA, 999, 999, 5, 1, 66, 80, 68, 175, 87, 125, 1, 0.329567
269, 2, bw, attraction, a-b-da, 5, 3, 5, 2, 195, 120, 190, 117, 120, 195, 3, 3.73809
269, 2, bw, attraction, a-b-da, 5, 3, 5, 2, 195, 120, 190, 117, 120, 195, 2, 0.226247
269, 2, bw, filler, NA, 999, 999, 5, 3, 184, 101, 162, 187, 124, 120, 2, 0.702765
269, 2, bw, filler, NA, 999, 999, 5, 3, 184, 101, 162, 187, 124, 120, 3, 0.321859
269, 2, bw, attraction, a-b-da, 9, 1, 5, 4, 60, 135, 135, 60, 129, 57, 2, 1.73899
269, 2, bw, attraction, a-b-da, 9, 1, 5, 4, 60, 135, 135, 60, 129, 57, 1, 0.419797
269, 2, bw, attraction, a-b-da, 14, 2, 5, 5, 165, 90, 153, 83, 90, 165, 3, 1.00886
269, 2, bw, attraction, a-b-da, 14, 2, 5, 5, 165, 90, 153, 83, 90, 165, 1, 0.28716
269, 2, bw, filler, NA, 999, 999, 5, 6, 107, 170, 62, 124, 153, 124, 3, 3.33787
269, 2, bw, filler, NA, 999, 999, 5, 6, 107, 170, 62, 124, 153, 124, 2, 0.298095
269, 2, bw, catch, NA, 999, 999, 5, 7, 186, 129, 91, 104, 150, 105, 1, 1.61196
269, 2, bw, catch, NA, 999, 999, 5, 7, 186, 129, 91, 104, 150, 105, 2, 0.322046
269, 2, bw, attraction, a-b-db, 14, 3, 5, 8, 111, 181, 195, 120, 120, 195, 3, 2.49119
269, 2, bw, attraction, a-b-db, 14, 3, 5, 8, 111, 181, 195, 120, 120, 195, 1, 0.381685
269, 2, bw, attraction, a-b-db, 5, 2, 5, 9, 90, 165, 165, 90, 88, 161, 2, 3.04436
269, 2, bw, attraction, a-b-db, 5, 2, 5, 9, 90, 165, 165, 90, 88, 161, 3, 0.240516
269, 2, bw, attraction, a-b-db, 5, 3, 5, 10, 120, 195, 117, 190, 195, 120, 3, 3.44452
269, 2, bw, attraction, a-b-db, 5, 3, 5, 10, 120, 195, 117, 190, 195, 120, 1, 0.312767
269, 2, bw, attraction, a-b-da, 9, 2, 5, 11, 157, 86, 165, 90, 90, 165, 2, 7.79387
269, 2, bw, attraction, a-b-da, 9, 2, 5, 11, 157, 86, 165, 90, 90, 165, 1, 0.294839
269, 2, bw, attraction, a-b-da, 9, 3, 5, 12, 186, 114, 195, 120, 120, 195, 3, 2.17648
269, 2, bw, attraction, a-b-da, 9, 3, 5, 12, 186, 114, 195, 120, 120, 195, 1, 0.343783
269, 2, bw, catch, NA, 999, 999, 5, 13, 123, 132, 112, 83, 193, 122, 3, 0.911595
269, 2, bw, catch, NA, 999, 999, 5, 13, 123, 132, 112, 83, 193, 122, 2, 0.306123
269, 2, bw, filler, NA, 999, 999, 5, 14, 114, 186, 95, 132, 77, 93, 1, 0.739306
269, 2, bw, filler, NA, 999, 999, 5, 14, 114, 186, 95, 132, 77, 93, 3, 0.45226
269, 2, bw, filler, NA, 999, 999, 5, 15, 149, 62, 59, 73, 106, 85, 3, 1.3521
269, 2, bw, filler, NA, 999, 999, 5, 15, 149, 62, 59, 73, 106, 85, 2, 0.68098
269, 2, bw, attraction, a-b-db, 9, 3, 5, 16, 114, 186, 120, 195, 195, 120, 3, 2.81142
269, 2, bw, attraction, a-b-db, 9, 3, 5, 16, 114, 186, 120, 195, 195, 120, 1, 0.297105
269, 2, bw, attraction, a-b-da, 14, 3, 5, 17, 195, 120, 181, 111, 120, 195, 1, 3.90699
269, 2, bw, attraction, a-b-da, 14, 3, 5, 17, 195, 120, 181, 111, 120, 195, 2, 0.260407
269, 2, bw, filler, NA, 999, 999, 5, 18, 70, 115, 159, 139, 123, 184, 2, 1.19164
269, 2, bw, filler, NA, 999, 999, 5, 18, 70, 115, 159, 139, 123, 184, 1, 1.63851
269, 2, bw, attraction, a-b-db, 2, 1, 5, 19, 59, 134, 60, 135, 135, 60, 3, 2.21863
269, 2, bw, attraction, a-b-db, 2, 1, 5, 19, 59, 134, 60, 135, 135, 60, 1, 0.816588
269, 2, bw, attraction, a-b-db, 9, 1, 5, 20, 57, 129, 135, 60, 60, 135, 2, 3.18161
269, 2, bw, attraction, a-b-db, 9, 1, 5, 20, 57, 129, 135, 60, 60, 135, 1, 0.644523
269, 2, bw, attraction, a-b-db, 9, 2, 5, 21, 90, 165, 86, 157, 165, 90, 3, 3.75238
269, 2, bw, attraction, a-b-db, 9, 2, 5, 21, 90, 165, 86, 157, 165, 90, 2, 0.360434
269, 2, bw, attraction, a-b-db, 2, 3, 5, 22, 119, 193, 195, 120, 120, 195, 3, 8.90364
269, 2, bw, attraction, a-b-db, 2, 3, 5, 22, 119, 193, 195, 120, 120, 195, 1, 0.304066
269, 2, bw, filler, NA, 999, 999, 5, 23, 170, 157, 195, 169, 151, 148, 2, 1.30596
269, 2, bw, filler, NA, 999, 999, 5, 23, 170, 157, 195, 169, 151, 148, 3, 0.308304
269, 2, bw, attraction, a-b-db, 2, 2, 5, 24, 165, 90, 90, 165, 89, 163, 2, 2.80544
269, 2, bw, attraction, a-b-db, 2, 2, 5, 24, 165, 90, 90, 165, 89, 163, 3, 0.363203
269, 2, bw, attraction, a-b-da, 14, 1, 5, 25, 60, 135, 125, 56, 135, 60, 1, 1.08231
269, 2, bw, attraction, a-b-da, 14, 1, 5, 25, 60, 135, 125, 56, 135, 60, 2, 1.34996
269, 2, bw, filler, NA, 999, 999, 5, 26, 173, 180, 69, 194, 62, 77, 1, 0.821448
269, 2, bw, filler, NA, 999, 999, 5, 26, 173, 180, 69, 194, 62, 77, 3, 1.04319
269, 2, bw, attraction, a-b-da, 2, 3, 5, 27, 195, 120, 193, 119, 120, 195, 3, 4.55079
269, 2, bw, attraction, a-b-da, 2, 3, 5, 27, 195, 120, 193, 119, 120, 195, 2, 1.08683
269, 2, bw, filler, NA, 999, 999, 5, 28, 154, 119, 115, 163, 73, 94, 2, 1.00899
269, 2, bw, filler, NA, 999, 999, 5, 28, 154, 119, 115, 163, 73, 94, 3, 0.375251
269, 2, bw, attraction, a-b-db, 14, 1, 5, 29, 56, 125, 60, 135, 135, 60, 3, 1.74177
269, 2, bw, attraction, a-b-db, 14, 1, 5, 29, 56, 125, 60, 135, 135, 60, 1, 0.29469
269, 2, bw, attraction, a-b-db, 14, 2, 5, 30, 165, 90, 83, 153, 90, 165, 3, 1.51232
269, 2, bw, attraction, a-b-db, 14, 2, 5, 30, 165, 90, 83, 153, 90, 165, 2, 0.306444
269, 2, bw, catch, NA, 999, 999, 5, 31, 167, 148, 72, 123, 126, 129, 1, 1.53968
269, 2, bw, catch, NA, 999, 999, 5, 31, 167, 148, 72, 123, 126, 129, 2, 0.380477
269, 2, bw, attraction, a-b-da, 2, 2, 5, 32, 90, 165, 165, 90, 163, 89, 1, 4.91501
269, 2, bw, attraction, a-b-da, 2, 2, 5, 32, 90, 165, 165, 90, 163, 89, 3, 0.284025
269, 2, bw, attraction, a-b-da, 2, 1, 5, 33, 60, 135, 135, 60, 134, 59, 2, 4.43867
269, 2, bw, attraction, a-b-da, 2, 1, 5, 33, 60, 135, 135, 60, 134, 59, 3, 0.30649
269, 2, bw, attraction, a-b-da, 5, 2, 5, 34, 90, 165, 161, 88, 165, 90, 1, 3.75578
269, 2, bw, attraction, a-b-da, 5, 2, 5, 34, 90, 165, 161, 88, 165, 90, 2, 0.307307
269, 2, bw, attraction, a-b-da, 5, 1, 5, 35, 60, 135, 135, 60, 132, 58, 2, 6.86832
269, 2, bw, attraction, a-b-da, 5, 1, 5, 35, 60, 135, 135, 60, 132, 58, 1, 0.462893
269, 2, bw, attraction, a-b-db, 5, 1, 5, 36, 135, 60, 58, 132, 60, 135, 1, 4.35399
269, 2, bw, attraction, a-b-db, 5, 1, 5, 36, 135, 60, 58, 132, 60, 135, 2, 0.593922
269, 2, bw, filler, NA, 999, 999, 5, 37, 140, 115, 139, 139, 121, 190, 3, 1.15971
269, 2, bw, filler, NA, 999, 999, 5, 37, 140, 115, 139, 139, 121, 190, 1, 0.279905
269, 2, bw, attraction, a-b-da, 14, 1, 6, 1, 135, 60, 60, 135, 125, 56, 1, 4.11456
269, 2, bw, attraction, a-b-da, 14, 1, 6, 1, 135, 60, 60, 135, 125, 56, 3, 0.515838
269, 2, bw, attraction, a-b-db, 9, 2, 6, 2, 90, 165, 86, 157, 165, 90, 2, 2.70898
269, 2, bw, attraction, a-b-db, 9, 2, 6, 2, 90, 165, 86, 157, 165, 90, 1, 0.982822
269, 2, bw, attraction, a-b-db, 9, 3, 6, 3, 114, 186, 195, 120, 120, 195, 3, 5.54116
269, 2, bw, attraction, a-b-db, 9, 3, 6, 3, 114, 186, 195, 120, 120, 195, 1, 0.556706
269, 2, bw, catch, NA, 999, 999, 6, 4, 88, 107, 184, 131, 131, 124, 2, 1.37969
269, 2, bw, catch, NA, 999, 999, 6, 4, 88, 107, 184, 131, 131, 124, 1, 0.331182
269, 2, bw, attraction, a-b-da, 2, 2, 6, 5, 90, 165, 163, 89, 165, 90, 3, 2.72392
269, 2, bw, attraction, a-b-da, 2, 2, 6, 5, 90, 165, 163, 89, 165, 90, 1, 0.28501
269, 2, bw, filler, NA, 999, 999, 6, 6, 163, 87, 180, 94, 86, 125, 2, 1.91944
269, 2, bw, filler, NA, 999, 999, 6, 6, 163, 87, 180, 94, 86, 125, 3, 0.273423
269, 2, bw, attraction, a-b-db, 14, 3, 6, 7, 120, 195, 195, 120, 111, 181, 2, 2.39596
269, 2, bw, attraction, a-b-db, 14, 3, 6, 7, 120, 195, 195, 120, 111, 181, 3, 0.234512
269, 2, bw, attraction, a-b-db, 14, 1, 6, 8, 60, 135, 135, 60, 56, 125, 2, 5.47107
269, 2, bw, attraction, a-b-db, 14, 1, 6, 8, 60, 135, 135, 60, 56, 125, 3, 0.44999
269, 2, bw, filler, NA, 999, 999, 6, 9, 87, 101, 93, 93, 100, 155, 3, 3.85382
269, 2, bw, filler, NA, 999, 999, 6, 9, 87, 101, 93, 93, 100, 155, 2, 0.27385
269, 2, bw, attraction, a-b-da, 9, 2, 6, 10, 157, 86, 90, 165, 165, 90, 2, 2.18045
269, 2, bw, attraction, a-b-da, 9, 2, 6, 10, 157, 86, 90, 165, 165, 90, 1, 0.36395
269, 2, bw, filler, NA, 999, 999, 6, 11, 169, 188, 84, 129, 152, 69, 1, 0.954867
269, 2, bw, filler, NA, 999, 999, 6, 11, 169, 188, 84, 129, 152, 69, 3, 1.47529
269, 2, bw, filler, NA, 999, 999, 6, 12, 180, 147, 70, 84, 114, 183, 1, 1.56536
269, 2, bw, filler, NA, 999, 999, 6, 12, 180, 147, 70, 84, 114, 183, 2, 0.573507
269, 2, bw, filler, NA, 999, 999, 6, 13, 101, 151, 65, 78, 84, 180, 3, 2.50794
269, 2, bw, filler, NA, 999, 999, 6, 13, 101, 151, 65, 78, 84, 180, 2, 0.325872
269, 2, bw, catch, NA, 999, 999, 6, 14, 108, 147, 67, 128, 137, 178, 3, 1.17425
269, 2, bw, catch, NA, 999, 999, 6, 14, 108, 147, 67, 128, 137, 178, 2, 0.286062
269, 2, bw, attraction, a-b-da, 9, 1, 6, 15, 135, 60, 129, 57, 60, 135, 1, 11.0724
269, 2, bw, attraction, a-b-da, 9, 1, 6, 15, 135, 60, 129, 57, 60, 135, 2, 0.513599
269, 2, bw, filler, NA, 999, 999, 6, 16, 87, 117, 137, 119, 96, 134, 2, 1.81076
269, 2, bw, filler, NA, 999, 999, 6, 16, 87, 117, 137, 119, 96, 134, 1, 0.304756
269, 2, bw, attraction, a-b-da, 2, 3, 6, 17, 193, 119, 195, 120, 120, 195, 3, 1.54674
269, 2, bw, attraction, a-b-da, 2, 3, 6, 17, 193, 119, 195, 120, 120, 195, 1, 0.411496
269, 2, bw, attraction, a-b-db, 5, 2, 6, 18, 165, 90, 88, 161, 90, 165, 2, 3.7768
269, 2, bw, attraction, a-b-db, 5, 2, 6, 18, 165, 90, 88, 161, 90, 165, 1, 0.487374
269, 2, bw, attraction, a-b-db, 5, 1, 6, 19, 60, 135, 135, 60, 58, 132, 1, 2.58587
269, 2, bw, attraction, a-b-db, 5, 1, 6, 19, 60, 135, 135, 60, 58, 132, 3, 0.361122
269, 2, bw, attraction, a-b-da, 5, 3, 6, 20, 120, 195, 190, 117, 195, 120, 1, 3.83224
269, 2, bw, attraction, a-b-da, 5, 3, 6, 20, 120, 195, 190, 117, 195, 120, 3, 0.309009
269, 2, bw, filler, NA, 999, 999, 6, 21, 109, 68, 177, 64, 125, 60, 2, 1.12615
269, 2, bw, filler, NA, 999, 999, 6, 21, 109, 68, 177, 64, 125, 60, 3, 0.31979
269, 2, bw, attraction, a-b-db, 2, 3, 6, 22, 120, 195, 195, 120, 119, 193, 3, 3.13693
269, 2, bw, attraction, a-b-db, 2, 3, 6, 22, 120, 195, 195, 120, 119, 193, 1, 0.281998
269, 2, bw, attraction, a-b-db, 9, 1, 6, 23, 135, 60, 57, 129, 60, 135, 2, 3.20446
269, 2, bw, attraction, a-b-db, 9, 1, 6, 23, 135, 60, 57, 129, 60, 135, 1, 1.49881
269, 2, bw, attraction, a-b-db, 14, 2, 6, 24, 90, 165, 165, 90, 83, 153, 1, 3.05229
269, 2, bw, attraction, a-b-db, 14, 2, 6, 24, 90, 165, 165, 90, 83, 153, 3, 0.488614
269, 2, bw, attraction, a-b-db, 5, 3, 6, 25, 195, 120, 120, 195, 117, 190, 2, 2.99519
269, 2, bw, attraction, a-b-db, 5, 3, 6, 25, 195, 120, 120, 195, 117, 190, 3, 0.353448
269, 2, bw, attraction, a-b-db, 2, 2, 6, 26, 89, 163, 90, 165, 165, 90, 3, 2.95331
269, 2, bw, attraction, a-b-db, 2, 2, 6, 26, 89, 163, 90, 165, 165, 90, 1, 1.61774
269, 2, bw, filler, NA, 999, 999, 6, 27, 75, 192, 174, 57, 114, 58, 1, 1.27833
269, 2, bw, filler, NA, 999, 999, 6, 27, 75, 192, 174, 57, 114, 58, 3, 0.466052
269, 2, bw, filler, NA, 999, 999, 6, 28, 78, 135, 80, 181, 183, 119, 3, 1.90913
269, 2, bw, filler, NA, 999, 999, 6, 28, 78, 135, 80, 181, 183, 119, 1, 0.431314
269, 2, bw, attraction, a-b-da, 9, 3, 6, 29, 120, 195, 195, 120, 186, 114, 1, 2.53159
269, 2, bw, attraction, a-b-da, 9, 3, 6, 29, 120, 195, 195, 120, 186, 114, 3, 0.436903
269, 2, bw, attraction, a-b-da, 5, 1, 6, 30, 132, 58, 135, 60, 60, 135, 3, 11.0333
269, 2, bw, attraction, a-b-da, 5, 1, 6, 30, 132, 58, 135, 60, 60, 135, 1, 0.363906
269, 2, bw, attraction, a-b-da, 5, 2, 6, 31, 90, 165, 165, 90, 161, 88, 2, 4.77098
269, 2, bw, attraction, a-b-da, 5, 2, 6, 31, 90, 165, 165, 90, 161, 88, 1, 0.346098
269, 2, bw, attraction, a-b-db, 2, 1, 6, 32, 135, 60, 60, 135, 59, 134, 1, 4.14597
269, 2, bw, attraction, a-b-db, 2, 1, 6, 32, 135, 60, 60, 135, 59, 134, 3, 0.770031
269, 2, bw, attraction, a-b-da, 14, 2, 6, 33, 153, 83, 90, 165, 165, 90, 2, 3.44098
269, 2, bw, attraction, a-b-da, 14, 2, 6, 33, 153, 83, 90, 165, 165, 90, 1, 0.301246
269, 2, bw, attraction, a-b-da, 14, 3, 6, 34, 195, 120, 181, 111, 120, 195, 3, 2.60718
269, 2, bw, attraction, a-b-da, 14, 3, 6, 34, 195, 120, 181, 111, 120, 195, 2, 0.252889
269, 2, bw, filler, NA, 999, 999, 6, 35, 168, 105, 124, 120, 179, 169, 3, 0.984746
269, 2, bw, filler, NA, 999, 999, 6, 35, 168, 105, 124, 120, 179, 169, 2, 0.400464
269, 2, bw, attraction, a-b-da, 2, 1, 6, 36, 135, 60, 134, 59, 60, 135, 1, 2.09423
269, 2, bw, attraction, a-b-da, 2, 1, 6, 36, 135, 60, 134, 59, 60, 135, 2, 0.280859
269, 2, bw, catch, NA, 999, 999, 6, 37, 98, 157, 98, 97, 148, 167, 3, 0.819391
269, 2, bw, catch, NA, 999, 999, 6, 37, 98, 157, 98, 97, 148, 167, 2, 0.281798
269, 2, bw, attraction, a-b-da, 14, 1, 7, 1, 60, 135, 135, 60, 125, 56, 1, 3.30833
269, 2, bw, attraction, a-b-da, 14, 1, 7, 1, 60, 135, 135, 60, 125, 56, 3, 0.461927
269, 2, bw, attraction, a-b-db, 9, 1, 7, 2, 135, 60, 57, 129, 60, 135, 1, 4.14511
269, 2, bw, attraction, a-b-db, 9, 1, 7, 2, 135, 60, 57, 129, 60, 135, 2, 0.345074
269, 2, bw, attraction, a-b-db, 2, 2, 7, 3, 89, 163, 90, 165, 165, 90, 2, 1.41693
269, 2, bw, attraction, a-b-db, 2, 2, 7, 3, 89, 163, 90, 165, 165, 90, 3, 0.343147
269, 2, bw, filler, NA, 999, 999, 7, 4, 182, 72, 165, 161, 73, 127, 2, 0.926906
269, 2, bw, filler, NA, 999, 999, 7, 4, 182, 72, 165, 161, 73, 127, 3, 0.648641
269, 2, bw, attraction, a-b-da, 5, 3, 7, 5, 120, 195, 195, 120, 190, 117, 1, 1.80439
269, 2, bw, attraction, a-b-da, 5, 3, 7, 5, 120, 195, 195, 120, 190, 117, 2, 0.442465
269, 2, bw, attraction, a-b-da, 9, 2, 7, 6, 165, 90, 157, 86, 90, 165, 3, 3.01428
269, 2, bw, attraction, a-b-da, 9, 2, 7, 6, 165, 90, 157, 86, 90, 165, 2, 0.291911
269, 2, bw, catch, NA, 999, 999, 7, 7, 127, 68, 132, 183, 115, 140, 2, 1.82985
269, 2, bw, catch, NA, 999, 999, 7, 7, 127, 68, 132, 183, 115, 140, 1, 0.675184
269, 2, bw, attraction, a-b-db, 14, 2, 7, 8, 90, 165, 165, 90, 83, 153, 1, 2.13362
269, 2, bw, attraction, a-b-db, 14, 2, 7, 8, 90, 165, 165, 90, 83, 153, 3, 0.310937
269, 2, bw, attraction, a-b-db, 5, 3, 7, 9, 120, 195, 195, 120, 117, 190, 3, 2.22406
269, 2, bw, attraction, a-b-db, 5, 3, 7, 9, 120, 195, 195, 120, 117, 190, 2, 0.637311
269, 2, bw, filler, NA, 999, 999, 7, 10, 122, 140, 100, 141, 119, 152, 3, 1.1777
269, 2, bw, filler, NA, 999, 999, 7, 10, 122, 140, 100, 141, 119, 152, 2, 0.249308
269, 2, bw, attraction, a-b-db, 9, 3, 7, 11, 120, 195, 195, 120, 114, 186, 2, 3.15719
269, 2, bw, attraction, a-b-db, 9, 3, 7, 11, 120, 195, 195, 120, 114, 186, 3, 0.260905
269, 2, bw, attraction, a-b-db, 9, 2, 7, 12, 165, 90, 90, 165, 86, 157, 2, 2.37603
269, 2, bw, attraction, a-b-db, 9, 2, 7, 12, 165, 90, 90, 165, 86, 157, 3, 0.327314
269, 2, bw, attraction, a-b-da, 2, 2, 7, 13, 165, 90, 90, 165, 163, 89, 2, 1.63186
269, 2, bw, attraction, a-b-da, 2, 2, 7, 13, 165, 90, 90, 165, 163, 89, 3, 0.429317
269, 2, bw, attraction, a-b-db, 2, 1, 7, 14, 135, 60, 60, 135, 59, 134, 2, 8.93771
269, 2, bw, attraction, a-b-db, 2, 1, 7, 14, 135, 60, 60, 135, 59, 134, 3, 0.529012
269, 2, bw, filler, NA, 999, 999, 7, 15, 188, 63, 159, 158, 172, 118, 2, 3.76135
269, 2, bw, filler, NA, 999, 999, 7, 15, 188, 63, 159, 158, 172, 118, 1, 0.368853
269, 2, bw, catch, NA, 999, 999, 7, 16, 193, 122, 161, 94, 127, 68, 1, 1.70393
269, 2, bw, catch, NA, 999, 999, 7, 16, 193, 122, 161, 94, 127, 68, 3, 0.578226
269, 2, bw, attraction, a-b-da, 5, 1, 7, 17, 60, 135, 135, 60, 132, 58, 1, 6.26449
269, 2, bw, attraction, a-b-da, 5, 1, 7, 17, 60, 135, 135, 60, 132, 58, 2, 0.379206
269, 2, bw, attraction, a-b-da, 14, 2, 7, 18, 153, 83, 165, 90, 90, 165, 3, 1.63365
269, 2, bw, attraction, a-b-da, 14, 2, 7, 18, 153, 83, 165, 90, 90, 165, 1, 0.351106
269, 2, bw, filler, NA, 999, 999, 7, 19, 122, 173, 67, 151, 178, 106, 1, 1.05507
269, 2, bw, filler, NA, 999, 999, 7, 19, 122, 173, 67, 151, 178, 106, 2, 0.419295
269, 2, bw, attraction, a-b-da, 14, 3, 7, 20, 181, 111, 120, 195, 195, 120, 3, 2.38451
269, 2, bw, attraction, a-b-da, 14, 3, 7, 20, 181, 111, 120, 195, 195, 120, 1, 0.447788
269, 2, bw, filler, NA, 999, 999, 7, 21, 164, 114, 106, 190, 94, 99, 2, 1.1715
269, 2, bw, filler, NA, 999, 999, 7, 21, 164, 114, 106, 190, 94, 99, 3, 0.371082
269, 2, bw, attraction, a-b-db, 14, 1, 7, 22, 56, 125, 60, 135, 135, 60, 2, 1.6424
269, 2, bw, attraction, a-b-db, 14, 1, 7, 22, 56, 125, 60, 135, 135, 60, 1, 0.343051
269, 2, bw, attraction, a-b-da, 2, 1, 7, 23, 134, 59, 135, 60, 60, 135, 3, 1.23097
269, 2, bw, attraction, a-b-da, 2, 1, 7, 23, 134, 59, 135, 60, 60, 135, 2, 0.316488
269, 2, bw, attraction, a-b-da, 9, 3, 7, 24, 186, 114, 120, 195, 195, 120, 2, 1.27763
269, 2, bw, attraction, a-b-da, 9, 3, 7, 24, 186, 114, 120, 195, 195, 120, 1, 1.2412
269, 2, bw, attraction, a-b-db, 5, 1, 7, 25, 60, 135, 135, 60, 58, 132, 2, 6.09279
269, 2, bw, attraction, a-b-db, 5, 1, 7, 25, 60, 135, 135, 60, 58, 132, 1, 0.51816
269, 2, bw, catch, NA, 999, 999, 7, 26, 188, 127, 131, 124, 92, 103, 1, 1.31131
269, 2, bw, catch, NA, 999, 999, 7, 26, 188, 127, 131, 124, 92, 103, 3, 0.337459
269, 2, bw, attraction, a-b-db, 2, 3, 7, 27, 120, 195, 119, 193, 195, 120, 2, 3.41001
269, 2, bw, attraction, a-b-db, 2, 3, 7, 27, 120, 195, 119, 193, 195, 120, 3, 0.671587
269, 2, bw, attraction, a-b-db, 5, 2, 7, 28, 88, 161, 165, 90, 90, 165, 2, 6.73871
269, 2, bw, attraction, a-b-db, 5, 2, 7, 28, 88, 161, 165, 90, 90, 165, 1, 1.02662
269, 2, bw, filler, NA, 999, 999, 7, 29, 123, 57, 100, 63, 126, 87, 3, 1.67084
269, 2, bw, filler, NA, 999, 999, 7, 29, 123, 57, 100, 63, 126, 87, 2, 0.258239
269, 2, bw, attraction, a-b-da, 9, 1, 7, 30, 60, 135, 129, 57, 135, 60, 1, 14.4214
269, 2, bw, attraction, a-b-da, 9, 1, 7, 30, 60, 135, 129, 57, 135, 60, 3, 0.487545
269, 2, bw, filler, NA, 999, 999, 7, 31, 106, 68, 105, 143, 99, 140, 2, 0.778062
269, 2, bw, filler, NA, 999, 999, 7, 31, 106, 68, 105, 143, 99, 140, 1, 0.87383
269, 2, bw, filler, NA, 999, 999, 7, 32, 62, 175, 81, 192, 147, 134, 3, 0.876184
269, 2, bw, filler, NA, 999, 999, 7, 32, 62, 175, 81, 192, 147, 134, 1, 0.431802
269, 2, bw, attraction, a-b-da, 5, 2, 7, 33, 90, 165, 161, 88, 165, 90, 1, 1.36443
269, 2, bw, attraction, a-b-da, 5, 2, 7, 33, 90, 165, 161, 88, 165, 90, 2, 0.422745
269, 2, bw, attraction, a-b-da, 2, 3, 7, 34, 193, 119, 195, 120, 120, 195, 3, 2.6011
269, 2, bw, attraction, a-b-da, 2, 3, 7, 34, 193, 119, 195, 120, 120, 195, 2, 0.343508
269, 2, bw, filler, NA, 999, 999, 7, 35, 84, 126, 184, 152, 70, 67, 2, 0.871398
269, 2, bw, filler, NA, 999, 999, 7, 35, 84, 126, 184, 152, 70, 67, 3, 0.355013
269, 2, bw, attraction, a-b-db, 14, 3, 7, 36, 111, 181, 195, 120, 120, 195, 3, 1.67491
269, 2, bw, attraction, a-b-db, 14, 3, 7, 36, 111, 181, 195, 120, 120, 195, 1, 0.422277
269, 2, bw, filler, NA, 999, 999, 7, 37, 188, 117, 158, 164, 161, 114, 2, 0.859489
269, 2, bw, filler, NA, 999, 999, 7, 37, 188, 117, 158, 164, 161, 114, 3, 0.839758
269, 2, bw, attraction, a-b-db, 5, 1, 8, 1, 58, 132, 135, 60, 60, 135, 2, 4.81953
269, 2, bw, attraction, a-b-db, 5, 1, 8, 1, 58, 132, 135, 60, 60, 135, 3, 0.296711
269, 2, bw, attraction, a-b-db, 14, 1, 8, 2, 135, 60, 56, 125, 60, 135, 3, 5.88256
269, 2, bw, attraction, a-b-db, 14, 1, 8, 2, 135, 60, 56, 125, 60, 135, 2, 0.356645
269, 2, bw, attraction, a-b-da, 14, 3, 8, 3, 120, 195, 181, 111, 195, 120, 1, 2.45174
269, 2, bw, attraction, a-b-da, 14, 3, 8, 3, 120, 195, 181, 111, 195, 120, 2, 0.232275
269, 2, bw, attraction, a-b-da, 2, 2, 8, 4, 165, 90, 90, 165, 163, 89, 2, 4.40477
269, 2, bw, attraction, a-b-da, 2, 2, 8, 4, 165, 90, 90, 165, 163, 89, 3, 0.426148
269, 2, bw, filler, NA, 999, 999, 8, 5, 87, 157, 62, 124, 74, 98, 1, 2.51858
269, 2, bw, filler, NA, 999, 999, 8, 5, 87, 157, 62, 124, 74, 98, 3, 2.97647
269, 2, bw, filler, NA, 999, 999, 8, 6, 194, 169, 167, 151, 172, 91, 1, 1.41413
269, 2, bw, filler, NA, 999, 999, 8, 6, 194, 169, 167, 151, 172, 91, 3, 0.588237
269, 2, bw, filler, NA, 999, 999, 8, 7, 162, 175, 112, 145, 131, 78, 1, 0.698656
269, 2, bw, filler, NA, 999, 999, 8, 7, 162, 175, 112, 145, 131, 78, 3, 0.941777
269, 2, bw, attraction, a-b-da, 9, 3, 8, 8, 186, 114, 120, 195, 195, 120, 2, 2.14957
269, 2, bw, attraction, a-b-da, 9, 3, 8, 8, 186, 114, 120, 195, 195, 120, 1, 0.382066
269, 2, bw, attraction, a-b-db, 2, 1, 8, 9, 59, 134, 60, 135, 135, 60, 3, 5.14063
269, 2, bw, attraction, a-b-db, 2, 1, 8, 9, 59, 134, 60, 135, 135, 60, 1, 0.868246
269, 2, bw, filler, NA, 999, 999, 8, 10, 138, 71, 70, 58, 112, 90, 3, 7.14336
269, 2, bw, filler, NA, 999, 999, 8, 10, 138, 71, 70, 58, 112, 90, 2, 0.422427
269, 2, bw, attraction, a-b-db, 9, 1, 8, 11, 60, 135, 135, 60, 57, 129, 2, 1.02761
269, 2, bw, attraction, a-b-db, 9, 1, 8, 11, 60, 135, 135, 60, 57, 129, 3, 0.257204
269, 2, bw, catch, NA, 999, 999, 8, 12, 113, 142, 180, 135, 74, 121, 2, 0.996277
269, 2, bw, catch, NA, 999, 999, 8, 12, 113, 142, 180, 135, 74, 121, 3, 0.283337
269, 2, bw, attraction, a-b-da, 2, 3, 8, 13, 120, 195, 195, 120, 193, 119, 2, 1.28597
269, 2, bw, attraction, a-b-da, 2, 3, 8, 13, 120, 195, 195, 120, 193, 119, 1, 0.313557
269, 2, bw, attraction, a-b-da, 5, 3, 8, 14, 120, 195, 190, 117, 195, 120, 3, 0.946625
269, 2, bw, attraction, a-b-da, 5, 3, 8, 14, 120, 195, 190, 117, 195, 120, 2, 0.283599
269, 2, bw, attraction, a-b-db, 14, 2, 8, 15, 165, 90, 83, 153, 90, 165, 3, 1.36613
269, 2, bw, attraction, a-b-db, 14, 2, 8, 15, 165, 90, 83, 153, 90, 165, 2, 0.310373
269, 2, bw, filler, NA, 999, 999, 8, 16, 92, 188, 111, 122, 136, 125, 1, 3.99961
269, 2, bw, filler, NA, 999, 999, 8, 16, 92, 188, 111, 122, 136, 125, 2, 0.341602
269, 2, bw, attraction, a-b-da, 5, 2, 8, 17, 90, 165, 161, 88, 165, 90, 1, 1.86952
269, 2, bw, attraction, a-b-da, 5, 2, 8, 17, 90, 165, 161, 88, 165, 90, 2, 0.289574
269, 2, bw, attraction, a-b-da, 2, 1, 8, 18, 135, 60, 60, 135, 134, 59, 1, 3.00329
269, 2, bw, attraction, a-b-da, 2, 1, 8, 18, 135, 60, 60, 135, 134, 59, 3, 0.377739
269, 2, bw, filler, NA, 999, 999, 8, 19, 83, 81, 148, 69, 72, 116, 2, 5.88822
269, 2, bw, filler, NA, 999, 999, 8, 19, 83, 81, 148, 69, 72, 116, 1, 0.290418
269, 2, bw, attraction, a-b-da, 9, 2, 8, 20, 90, 165, 165, 90, 157, 86, 1, 3.4682
269, 2, bw, attraction, a-b-da, 9, 2, 8, 20, 90, 165, 165, 90, 157, 86, 3, 0.311692
269, 2, bw, attraction, a-b-db, 14, 3, 8, 21, 111, 181, 120, 195, 195, 120, 2, 1.83291
269, 2, bw, attraction, a-b-db, 14, 3, 8, 21, 111, 181, 120, 195, 195, 120, 1, 0.350332
269, 2, bw, attraction, a-b-db, 9, 3, 8, 22, 120, 195, 195, 120, 114, 186, 2, 2.40618
269, 2, bw, attraction, a-b-db, 9, 3, 8, 22, 120, 195, 195, 120, 114, 186, 1, 0.324032
269, 2, bw, attraction, a-b-db, 5, 2, 8, 23, 88, 161, 165, 90, 90, 165, 3, 1.3325
269, 2, bw, attraction, a-b-db, 5, 2, 8, 23, 88, 161, 165, 90, 90, 165, 2, 0.318087
269, 2, bw, catch, NA, 999, 999, 8, 24, 114, 81, 136, 179, 106, 149, 2, 0.951254
269, 2, bw, catch, NA, 999, 999, 8, 24, 114, 81, 136, 179, 106, 149, 1, 0.304287
269, 2, bw, attraction, a-b-db, 2, 3, 8, 25, 120, 195, 119, 193, 195, 120, 1, 1.4581
269, 2, bw, attraction, a-b-db, 2, 3, 8, 25, 120, 195, 119, 193, 195, 120, 3, 0.342489
269, 2, bw, attraction, a-b-db, 5, 3, 8, 26, 117, 190, 195, 120, 120, 195, 3, 4.26213
269, 2, bw, attraction, a-b-db, 5, 3, 8, 26, 117, 190, 195, 120, 120, 195, 1, 1.47353
269, 2, bw, attraction, a-b-da, 9, 1, 8, 27, 135, 60, 60, 135, 129, 57, 2, 2.34772
269, 2, bw, attraction, a-b-da, 9, 1, 8, 27, 135, 60, 60, 135, 129, 57, 3, 0.564245
269, 2, bw, filler, NA, 999, 999, 8, 28, 105, 135, 80, 103, 181, 102, 3, 0.643349
269, 2, bw, filler, NA, 999, 999, 8, 28, 105, 135, 80, 103, 181, 102, 2, 0.280361
269, 2, bw, filler, NA, 999, 999, 8, 29, 121, 106, 195, 166, 135, 158, 2, 0.618869
269, 2, bw, filler, NA, 999, 999, 8, 29, 121, 106, 195, 166, 135, 158, 1, 0.321418
269, 2, bw, attraction, a-b-da, 14, 2, 8, 30, 153, 83, 90, 165, 165, 90, 2, 1.37053
269, 2, bw, attraction, a-b-da, 14, 2, 8, 30, 153, 83, 90, 165, 165, 90, 1, 1.61867
269, 2, bw, attraction, a-b-da, 14, 1, 8, 31, 125, 56, 60, 135, 135, 60, 2, 4.0476
269, 2, bw, attraction, a-b-da, 14, 1, 8, 31, 125, 56, 60, 135, 135, 60, 1, 0.52352
269, 2, bw, catch, NA, 999, 999, 8, 32, 117, 138, 139, 176, 85, 110, 2, 0.795937
269, 2, bw, catch, NA, 999, 999, 8, 32, 117, 138, 139, 176, 85, 110, 3, 0.275148
269, 2, bw, attraction, a-b-db, 9, 2, 8, 33, 165, 90, 90, 165, 86, 157, 1, 2.29354
269, 2, bw, attraction, a-b-db, 9, 2, 8, 33, 165, 90, 90, 165, 86, 157, 3, 0.352171
269, 2, bw, attraction, a-b-db, 2, 2, 8, 34, 89, 163, 165, 90, 90, 165, 2, 3.79218
269, 2, bw, attraction, a-b-db, 2, 2, 8, 34, 89, 163, 165, 90, 90, 165, 1, 0.718069
269, 2, bw, filler, NA, 999, 999, 8, 35, 76, 125, 123, 95, 165, 127, 3, 0.887121
269, 2, bw, filler, NA, 999, 999, 8, 35, 76, 125, 123, 95, 165, 127, 1, 1.81832
269, 2, bw, filler, NA, 999, 999, 8, 36, 93, 185, 127, 91, 115, 69, 1, 3.40685
269, 2, bw, filler, NA, 999, 999, 8, 36, 93, 185, 127, 91, 115, 69, 3, 0.588529
269, 2, bw, attraction, a-b-da, 5, 1, 8, 37, 60, 135, 132, 58, 135, 60, 2, 5.89897
269, 2, bw, attraction, a-b-da, 5, 1, 8, 37, 60, 135, 132, 58, 135, 60, 3, 0.37233
