sub_n, computer_n, bw_cond, effect, set, distance, diag, block_n, trial_n, h1, w1, h2, w2, h3, w3, choice, rt 
205, 2, bw, practice, NA, 999, 999, 0, 1, 133, 143, 101, 74, 113, 128, 1, 2.66326
205, 2, bw, practice, NA, 999, 999, 0, 1, 133, 143, 101, 74, 113, 128, 2, 1.32247
205, 2, bw, practice, NA, 999, 999, 0, 2, 133, 98, 73, 91, 178, 105, 3, 1.79945
205, 2, bw, practice, NA, 999, 999, 0, 2, 133, 98, 73, 91, 178, 105, 2, 0.95821
205, 2, bw, practice, NA, 999, 999, 0, 3, 175, 177, 185, 136, 127, 156, 1, 2.97832
205, 2, bw, practice, NA, 999, 999, 0, 3, 175, 177, 185, 136, 127, 156, 3, 0.866557
205, 2, bw, attraction, a-b-db, 2, 1, 1, 1, 135, 60, 59, 134, 60, 135, 1, 4.69045
205, 2, bw, attraction, a-b-db, 2, 1, 1, 1, 135, 60, 59, 134, 60, 135, 3, 2.10027
205, 2, bw, attraction, a-b-da, 2, 1, 1, 2, 134, 59, 60, 135, 135, 60, 2, 4.42163
205, 2, bw, attraction, a-b-da, 2, 1, 1, 2, 134, 59, 60, 135, 135, 60, 1, 2.27412
205, 2, bw, filler, NA, 999, 999, 1, 3, 62, 113, 111, 182, 61, 191, 2, 1.09997
205, 2, bw, filler, NA, 999, 999, 1, 3, 62, 113, 111, 182, 61, 191, 1, 0.718958
205, 2, bw, attraction, a-b-da, 14, 1, 1, 4, 125, 56, 60, 135, 135, 60, 3, 2.80803
205, 2, bw, attraction, a-b-da, 14, 1, 1, 4, 125, 56, 60, 135, 135, 60, 1, 0.741765
205, 2, bw, filler, NA, 999, 999, 1, 5, 97, 57, 121, 192, 106, 132, 2, 0.981459
205, 2, bw, filler, NA, 999, 999, 1, 5, 97, 57, 121, 192, 106, 132, 1, 0.757134
205, 2, bw, catch, NA, 999, 999, 1, 6, 183, 132, 134, 61, 148, 107, 1, 0.916222
205, 2, bw, catch, NA, 999, 999, 1, 6, 183, 132, 134, 61, 148, 107, 2, 0.878544
205, 2, bw, attraction, a-b-da, 5, 3, 1, 7, 190, 117, 195, 120, 120, 195, 3, 3.27285
205, 2, bw, attraction, a-b-da, 5, 3, 1, 7, 190, 117, 195, 120, 120, 195, 2, 0.451924
205, 2, bw, filler, NA, 999, 999, 1, 8, 162, 109, 131, 63, 166, 114, 3, 1.15965
205, 2, bw, filler, NA, 999, 999, 1, 8, 162, 109, 131, 63, 166, 114, 2, 0.671941
205, 2, bw, attraction, a-b-da, 5, 1, 1, 9, 132, 58, 135, 60, 60, 135, 3, 1.93909
205, 2, bw, attraction, a-b-da, 5, 1, 1, 9, 132, 58, 135, 60, 60, 135, 2, 0.539707
205, 2, bw, attraction, a-b-db, 5, 2, 1, 10, 90, 165, 88, 161, 165, 90, 3, 5.3235
205, 2, bw, attraction, a-b-db, 5, 2, 1, 10, 90, 165, 88, 161, 165, 90, 1, 0.803916
205, 2, bw, attraction, a-b-db, 14, 1, 1, 11, 135, 60, 56, 125, 60, 135, 3, 3.8494
205, 2, bw, attraction, a-b-db, 14, 1, 1, 11, 135, 60, 56, 125, 60, 135, 2, 0.605594
205, 2, bw, attraction, a-b-da, 9, 1, 1, 12, 60, 135, 135, 60, 129, 57, 1, 1.88338
205, 2, bw, attraction, a-b-da, 9, 1, 1, 12, 60, 135, 135, 60, 129, 57, 3, 0.678814
205, 2, bw, attraction, a-b-db, 9, 1, 1, 13, 60, 135, 135, 60, 57, 129, 1, 1.96915
205, 2, bw, attraction, a-b-db, 9, 1, 1, 13, 60, 135, 135, 60, 57, 129, 3, 0.833148
205, 2, bw, attraction, a-b-da, 9, 3, 1, 14, 120, 195, 186, 114, 195, 120, 3, 3.5494
205, 2, bw, attraction, a-b-da, 9, 3, 1, 14, 120, 195, 186, 114, 195, 120, 2, 0.669659
205, 2, bw, attraction, a-b-db, 5, 1, 1, 15, 60, 135, 135, 60, 58, 132, 3, 3.01685
205, 2, bw, attraction, a-b-db, 5, 1, 1, 15, 60, 135, 135, 60, 58, 132, 2, 0.486538
205, 2, bw, attraction, a-b-da, 14, 2, 1, 16, 90, 165, 153, 83, 165, 90, 1, 2.46493
205, 2, bw, attraction, a-b-da, 14, 2, 1, 16, 90, 165, 153, 83, 165, 90, 2, 0.572776
205, 2, bw, filler, NA, 999, 999, 1, 17, 84, 93, 109, 154, 151, 60, 2, 1.08314
205, 2, bw, filler, NA, 999, 999, 1, 17, 84, 93, 109, 154, 151, 60, 1, 1.55893
205, 2, bw, attraction, a-b-db, 9, 3, 1, 18, 114, 186, 120, 195, 195, 120, 2, 4.33361
205, 2, bw, attraction, a-b-db, 9, 3, 1, 18, 114, 186, 120, 195, 195, 120, 3, 0.494215
205, 2, bw, attraction, a-b-da, 2, 2, 1, 19, 163, 89, 165, 90, 90, 165, 3, 2.06404
205, 2, bw, attraction, a-b-da, 2, 2, 1, 19, 163, 89, 165, 90, 90, 165, 2, 0.388023
205, 2, bw, filler, NA, 999, 999, 1, 20, 178, 64, 130, 143, 80, 145, 2, 0.922498
205, 2, bw, filler, NA, 999, 999, 1, 20, 178, 64, 130, 143, 80, 145, 3, 5.07637
205, 2, bw, filler, NA, 999, 999, 1, 21, 87, 75, 62, 128, 91, 180, 3, 1.03721
205, 2, bw, filler, NA, 999, 999, 1, 21, 87, 75, 62, 128, 91, 180, 2, 0.786164
205, 2, bw, filler, NA, 999, 999, 1, 22, 82, 115, 56, 166, 116, 189, 3, 1.08053
205, 2, bw, filler, NA, 999, 999, 1, 22, 82, 115, 56, 166, 116, 189, 1, 1.26025
205, 2, bw, attraction, a-b-db, 5, 3, 1, 23, 120, 195, 195, 120, 117, 190, 1, 1.42317
205, 2, bw, attraction, a-b-db, 5, 3, 1, 23, 120, 195, 195, 120, 117, 190, 2, 0.476761
205, 2, bw, catch, NA, 999, 999, 1, 24, 162, 153, 114, 141, 107, 88, 1, 0.839041
205, 2, bw, catch, NA, 999, 999, 1, 24, 162, 153, 114, 141, 107, 88, 3, 0.51609
205, 2, bw, attraction, a-b-db, 14, 3, 1, 25, 111, 181, 120, 195, 195, 120, 3, 0.957251
205, 2, bw, attraction, a-b-db, 14, 3, 1, 25, 111, 181, 120, 195, 195, 120, 1, 0.413509
205, 2, bw, filler, NA, 999, 999, 1, 26, 148, 178, 148, 169, 132, 83, 2, 0.754719
205, 2, bw, filler, NA, 999, 999, 1, 26, 148, 178, 148, 169, 132, 83, 3, 0.563133
205, 2, bw, attraction, a-b-db, 2, 2, 1, 27, 165, 90, 90, 165, 89, 163, 3, 3.39439
205, 2, bw, attraction, a-b-db, 2, 2, 1, 27, 165, 90, 90, 165, 89, 163, 1, 0.44845
205, 2, bw, attraction, a-b-da, 5, 2, 1, 28, 161, 88, 165, 90, 90, 165, 3, 1.91625
205, 2, bw, attraction, a-b-da, 5, 2, 1, 28, 161, 88, 165, 90, 90, 165, 1, 0.494291
205, 2, bw, attraction, a-b-db, 2, 3, 1, 29, 195, 120, 120, 195, 119, 193, 2, 3.67205
205, 2, bw, attraction, a-b-db, 2, 3, 1, 29, 195, 120, 120, 195, 119, 193, 1, 0.482832
205, 2, bw, attraction, a-b-da, 9, 2, 1, 30, 157, 86, 165, 90, 90, 165, 2, 3.66946
205, 2, bw, attraction, a-b-da, 9, 2, 1, 30, 157, 86, 165, 90, 90, 165, 1, 0.640838
205, 2, bw, filler, NA, 999, 999, 1, 31, 166, 158, 140, 194, 59, 134, 2, 4.5566
205, 2, bw, filler, NA, 999, 999, 1, 31, 166, 158, 140, 194, 59, 134, 3, 0.459767
205, 2, bw, attraction, a-b-da, 14, 3, 1, 32, 120, 195, 195, 120, 181, 111, 2, 1.63096
205, 2, bw, attraction, a-b-da, 14, 3, 1, 32, 120, 195, 195, 120, 181, 111, 3, 0.708444
205, 2, bw, attraction, a-b-db, 9, 2, 1, 33, 86, 157, 165, 90, 90, 165, 3, 4.00556
205, 2, bw, attraction, a-b-db, 9, 2, 1, 33, 86, 157, 165, 90, 90, 165, 1, 0.586851
205, 2, bw, attraction, a-b-da, 2, 3, 1, 34, 195, 120, 193, 119, 120, 195, 1, 2.15333
205, 2, bw, attraction, a-b-da, 2, 3, 1, 34, 195, 120, 193, 119, 120, 195, 3, 1.25793
205, 2, bw, filler, NA, 999, 999, 1, 35, 180, 176, 84, 125, 102, 61, 1, 1.49287
205, 2, bw, filler, NA, 999, 999, 1, 35, 180, 176, 84, 125, 102, 61, 3, 0.575629
205, 2, bw, attraction, a-b-db, 14, 2, 1, 36, 83, 153, 90, 165, 165, 90, 2, 3.14202
205, 2, bw, attraction, a-b-db, 14, 2, 1, 36, 83, 153, 90, 165, 165, 90, 3, 0.558386
205, 2, bw, catch, NA, 999, 999, 1, 37, 81, 114, 113, 142, 190, 125, 3, 1.0774
205, 2, bw, catch, NA, 999, 999, 1, 37, 81, 114, 113, 142, 190, 125, 1, 0.969153
205, 2, bw, attraction, a-b-da, 5, 1, 2, 1, 132, 58, 60, 135, 135, 60, 2, 1.16805
205, 2, bw, attraction, a-b-da, 5, 1, 2, 1, 132, 58, 60, 135, 135, 60, 3, 1.0164
205, 2, bw, attraction, a-b-da, 14, 3, 2, 2, 195, 120, 120, 195, 181, 111, 1, 1.39726
205, 2, bw, attraction, a-b-da, 14, 3, 2, 2, 195, 120, 120, 195, 181, 111, 3, 1.32423
205, 2, bw, attraction, a-b-da, 5, 2, 2, 3, 165, 90, 161, 88, 90, 165, 3, 3.49245
205, 2, bw, attraction, a-b-da, 5, 2, 2, 3, 165, 90, 161, 88, 90, 165, 2, 0.8866
205, 2, bw, catch, NA, 999, 999, 2, 4, 101, 94, 167, 148, 130, 125, 2, 1.10493
205, 2, bw, catch, NA, 999, 999, 2, 4, 101, 94, 167, 148, 130, 125, 1, 0.451145
205, 2, bw, filler, NA, 999, 999, 2, 5, 70, 107, 68, 105, 176, 67, 3, 1.74306
205, 2, bw, filler, NA, 999, 999, 2, 5, 70, 107, 68, 105, 176, 67, 2, 0.599831
205, 2, bw, filler, NA, 999, 999, 2, 6, 156, 114, 141, 152, 67, 161, 2, 1.43744
205, 2, bw, filler, NA, 999, 999, 2, 6, 156, 114, 141, 152, 67, 161, 3, 0.434314
205, 2, bw, filler, NA, 999, 999, 2, 7, 56, 129, 64, 90, 145, 176, 3, 0.702834
205, 2, bw, filler, NA, 999, 999, 2, 7, 56, 129, 64, 90, 145, 176, 2, 0.51392
205, 2, bw, attraction, a-b-db, 9, 1, 2, 8, 60, 135, 135, 60, 57, 129, 1, 1.11502
205, 2, bw, attraction, a-b-db, 9, 1, 2, 8, 60, 135, 135, 60, 57, 129, 3, 0.37332
205, 2, bw, attraction, a-b-da, 14, 1, 2, 9, 125, 56, 135, 60, 60, 135, 3, 1.13977
205, 2, bw, attraction, a-b-da, 14, 1, 2, 9, 125, 56, 135, 60, 60, 135, 2, 0.436864
205, 2, bw, attraction, a-b-db, 2, 3, 2, 10, 120, 195, 195, 120, 119, 193, 3, 2.4573
205, 2, bw, attraction, a-b-db, 2, 3, 2, 10, 120, 195, 195, 120, 119, 193, 1, 0.677162
205, 2, bw, filler, NA, 999, 999, 2, 11, 145, 141, 122, 189, 132, 190, 3, 0.967535
205, 2, bw, filler, NA, 999, 999, 2, 11, 145, 141, 122, 189, 132, 190, 1, 0.903916
205, 2, bw, attraction, a-b-db, 5, 2, 2, 12, 165, 90, 88, 161, 90, 165, 3, 1.88953
205, 2, bw, attraction, a-b-db, 5, 2, 2, 12, 165, 90, 88, 161, 90, 165, 2, 0.684285
205, 2, bw, filler, NA, 999, 999, 2, 13, 116, 190, 192, 131, 100, 92, 2, 1.50274
205, 2, bw, filler, NA, 999, 999, 2, 13, 116, 190, 192, 131, 100, 92, 3, 0.393547
205, 2, bw, attraction, a-b-db, 9, 3, 2, 14, 114, 186, 195, 120, 120, 195, 3, 2.18333
205, 2, bw, attraction, a-b-db, 9, 3, 2, 14, 114, 186, 195, 120, 120, 195, 1, 0.694564
205, 2, bw, attraction, a-b-da, 9, 1, 2, 15, 60, 135, 135, 60, 129, 57, 1, 4.23232
205, 2, bw, attraction, a-b-da, 9, 1, 2, 15, 60, 135, 135, 60, 129, 57, 3, 0.772983
205, 2, bw, filler, NA, 999, 999, 2, 16, 72, 89, 169, 129, 162, 124, 2, 2.52346
205, 2, bw, filler, NA, 999, 999, 2, 16, 72, 89, 169, 129, 162, 124, 1, 0.412468
205, 2, bw, attraction, a-b-db, 14, 3, 2, 17, 195, 120, 120, 195, 111, 181, 2, 1.80164
205, 2, bw, attraction, a-b-db, 14, 3, 2, 17, 195, 120, 120, 195, 111, 181, 1, 0.536324
205, 2, bw, filler, NA, 999, 999, 2, 18, 187, 88, 69, 77, 64, 151, 1, 0.848802
205, 2, bw, filler, NA, 999, 999, 2, 18, 187, 88, 69, 77, 64, 151, 2, 0.56596
205, 2, bw, attraction, a-b-db, 14, 2, 2, 19, 83, 153, 90, 165, 165, 90, 2, 2.02903
205, 2, bw, attraction, a-b-db, 14, 2, 2, 19, 83, 153, 90, 165, 165, 90, 3, 0.442333
205, 2, bw, filler, NA, 999, 999, 2, 20, 183, 163, 115, 166, 179, 151, 1, 5.74219
205, 2, bw, filler, NA, 999, 999, 2, 20, 183, 163, 115, 166, 179, 151, 2, 0.725631
205, 2, bw, attraction, a-b-da, 14, 2, 2, 21, 165, 90, 153, 83, 90, 165, 3, 1.75804
205, 2, bw, attraction, a-b-da, 14, 2, 2, 21, 165, 90, 153, 83, 90, 165, 2, 0.63014
205, 2, bw, attraction, a-b-db, 9, 2, 2, 22, 86, 157, 90, 165, 165, 90, 3, 1.40258
205, 2, bw, attraction, a-b-db, 9, 2, 2, 22, 86, 157, 90, 165, 165, 90, 2, 0.441361
205, 2, bw, attraction, a-b-da, 9, 2, 2, 23, 165, 90, 90, 165, 157, 86, 1, 1.59721
205, 2, bw, attraction, a-b-da, 9, 2, 2, 23, 165, 90, 90, 165, 157, 86, 3, 1.04398
205, 2, bw, attraction, a-b-da, 5, 3, 2, 24, 120, 195, 190, 117, 195, 120, 1, 5.19162
205, 2, bw, attraction, a-b-da, 5, 3, 2, 24, 120, 195, 190, 117, 195, 120, 2, 0.333404
205, 2, bw, attraction, a-b-db, 2, 2, 2, 25, 165, 90, 90, 165, 89, 163, 1, 0.805785
205, 2, bw, attraction, a-b-db, 2, 2, 2, 25, 165, 90, 90, 165, 89, 163, 3, 0.436312
205, 2, bw, attraction, a-b-db, 5, 3, 2, 26, 195, 120, 117, 190, 120, 195, 3, 1.36862
205, 2, bw, attraction, a-b-db, 5, 3, 2, 26, 195, 120, 117, 190, 120, 195, 1, 0.552795
205, 2, bw, attraction, a-b-da, 2, 3, 2, 27, 120, 195, 193, 119, 195, 120, 1, 3.85665
205, 2, bw, attraction, a-b-da, 2, 3, 2, 27, 120, 195, 193, 119, 195, 120, 2, 0.668044
205, 2, bw, filler, NA, 999, 999, 2, 28, 95, 92, 94, 92, 102, 95, 3, 1.66316
205, 2, bw, filler, NA, 999, 999, 2, 28, 95, 92, 94, 92, 102, 95, 2, 0.435314
205, 2, bw, attraction, a-b-db, 5, 1, 2, 29, 135, 60, 58, 132, 60, 135, 3, 2.5438
205, 2, bw, attraction, a-b-db, 5, 1, 2, 29, 135, 60, 58, 132, 60, 135, 1, 0.640198
205, 2, bw, catch, NA, 999, 999, 2, 30, 87, 108, 105, 150, 182, 133, 3, 0.851906
205, 2, bw, catch, NA, 999, 999, 2, 30, 87, 108, 105, 150, 182, 133, 1, 0.649002
205, 2, bw, attraction, a-b-da, 2, 2, 2, 31, 90, 165, 163, 89, 165, 90, 1, 2.8288
205, 2, bw, attraction, a-b-da, 2, 2, 2, 31, 90, 165, 163, 89, 165, 90, 2, 0.465842
205, 2, bw, attraction, a-b-db, 2, 1, 2, 32, 59, 134, 135, 60, 60, 135, 3, 1.35706
205, 2, bw, attraction, a-b-db, 2, 1, 2, 32, 59, 134, 135, 60, 60, 135, 2, 0.59724
205, 2, bw, catch, NA, 999, 999, 2, 33, 78, 117, 133, 122, 145, 170, 3, 0.811158
205, 2, bw, catch, NA, 999, 999, 2, 33, 78, 117, 133, 122, 145, 170, 1, 0.617399
205, 2, bw, filler, NA, 999, 999, 2, 34, 119, 72, 104, 162, 173, 150, 3, 0.566454
205, 2, bw, filler, NA, 999, 999, 2, 34, 119, 72, 104, 162, 173, 150, 1, 0.582963
205, 2, bw, attraction, a-b-da, 2, 1, 2, 35, 60, 135, 135, 60, 134, 59, 3, 1.80533
205, 2, bw, attraction, a-b-da, 2, 1, 2, 35, 60, 135, 135, 60, 134, 59, 2, 1.23545
205, 2, bw, attraction, a-b-da, 9, 3, 2, 36, 120, 195, 195, 120, 186, 114, 1, 4.62362
205, 2, bw, attraction, a-b-da, 9, 3, 2, 36, 120, 195, 195, 120, 186, 114, 3, 0.36415
205, 2, bw, attraction, a-b-db, 14, 1, 2, 37, 56, 125, 135, 60, 60, 135, 3, 1.84332
205, 2, bw, attraction, a-b-db, 14, 1, 2, 37, 56, 125, 135, 60, 60, 135, 2, 2.21612
205, 2, bw, attraction, a-b-db, 14, 1, 3, 1, 135, 60, 56, 125, 60, 135, 3, 1.11675
205, 2, bw, attraction, a-b-db, 14, 1, 3, 1, 135, 60, 56, 125, 60, 135, 2, 0.366981
205, 2, bw, attraction, a-b-db, 9, 3, 3, 2, 120, 195, 195, 120, 114, 186, 1, 1.614
205, 2, bw, attraction, a-b-db, 9, 3, 3, 2, 120, 195, 195, 120, 114, 186, 2, 0.500187
205, 2, bw, attraction, a-b-db, 5, 3, 3, 3, 117, 190, 120, 195, 195, 120, 3, 1.60601
205, 2, bw, attraction, a-b-db, 5, 3, 3, 3, 117, 190, 120, 195, 195, 120, 2, 0.788079
205, 2, bw, filler, NA, 999, 999, 3, 4, 78, 130, 86, 125, 113, 146, 3, 0.762517
205, 2, bw, filler, NA, 999, 999, 3, 4, 78, 130, 86, 125, 113, 146, 2, 3.50694
205, 2, bw, filler, NA, 999, 999, 3, 5, 96, 139, 105, 57, 93, 61, 1, 0.787049
205, 2, bw, filler, NA, 999, 999, 3, 5, 96, 139, 105, 57, 93, 61, 3, 0.746118
205, 2, bw, filler, NA, 999, 999, 3, 6, 77, 172, 112, 66, 59, 99, 1, 1.39386
205, 2, bw, filler, NA, 999, 999, 3, 6, 77, 172, 112, 66, 59, 99, 3, 0.376685
205, 2, bw, attraction, a-b-da, 14, 1, 3, 7, 60, 135, 135, 60, 125, 56, 3, 0.887176
205, 2, bw, attraction, a-b-da, 14, 1, 3, 7, 60, 135, 135, 60, 125, 56, 1, 0.8744
205, 2, bw, attraction, a-b-da, 14, 2, 3, 8, 153, 83, 90, 165, 165, 90, 3, 8.21256
205, 2, bw, attraction, a-b-da, 14, 2, 3, 8, 153, 83, 90, 165, 165, 90, 2, 0.272757
205, 2, bw, filler, NA, 999, 999, 3, 9, 128, 169, 73, 105, 137, 102, 1, 0.555165
205, 2, bw, filler, NA, 999, 999, 3, 9, 128, 169, 73, 105, 137, 102, 2, 0.667745
205, 2, bw, attraction, a-b-db, 14, 3, 3, 10, 120, 195, 195, 120, 111, 181, 3, 0.998683
205, 2, bw, attraction, a-b-db, 14, 3, 3, 10, 120, 195, 195, 120, 111, 181, 2, 0.301669
205, 2, bw, attraction, a-b-db, 2, 3, 3, 11, 195, 120, 120, 195, 119, 193, 1, 0.831596
205, 2, bw, attraction, a-b-db, 2, 3, 3, 11, 195, 120, 120, 195, 119, 193, 3, 0.397287
205, 2, bw, catch, NA, 999, 999, 3, 12, 145, 170, 72, 123, 139, 116, 1, 0.874959
205, 2, bw, catch, NA, 999, 999, 3, 12, 145, 170, 72, 123, 139, 116, 2, 0.350715
205, 2, bw, filler, NA, 999, 999, 3, 13, 186, 68, 61, 104, 155, 57, 1, 0.726549
205, 2, bw, filler, NA, 999, 999, 3, 13, 186, 68, 61, 104, 155, 57, 2, 0.768313
205, 2, bw, attraction, a-b-da, 9, 2, 3, 14, 90, 165, 157, 86, 165, 90, 1, 2.92738
205, 2, bw, attraction, a-b-da, 9, 2, 3, 14, 90, 165, 157, 86, 165, 90, 2, 0.400405
205, 2, bw, attraction, a-b-db, 14, 2, 3, 15, 165, 90, 90, 165, 83, 153, 1, 1.3902
205, 2, bw, attraction, a-b-db, 14, 2, 3, 15, 165, 90, 90, 165, 83, 153, 2, 0.461123
205, 2, bw, attraction, a-b-da, 5, 1, 3, 16, 60, 135, 135, 60, 132, 58, 2, 4.09631
205, 2, bw, attraction, a-b-da, 5, 1, 3, 16, 60, 135, 135, 60, 132, 58, 3, 0.530224
205, 2, bw, attraction, a-b-da, 9, 1, 3, 17, 135, 60, 129, 57, 60, 135, 1, 1.61079
205, 2, bw, attraction, a-b-da, 9, 1, 3, 17, 135, 60, 129, 57, 60, 135, 2, 0.400789
205, 2, bw, filler, NA, 999, 999, 3, 18, 119, 79, 195, 70, 82, 102, 2, 1.54268
205, 2, bw, filler, NA, 999, 999, 3, 18, 119, 79, 195, 70, 82, 102, 3, 0.72762
205, 2, bw, attraction, a-b-db, 2, 1, 3, 19, 59, 134, 60, 135, 135, 60, 3, 2.27195
205, 2, bw, attraction, a-b-db, 2, 1, 3, 19, 59, 134, 60, 135, 135, 60, 1, 0.579141
205, 2, bw, filler, NA, 999, 999, 3, 20, 114, 153, 151, 165, 159, 183, 3, 0.953584
205, 2, bw, filler, NA, 999, 999, 3, 20, 114, 153, 151, 165, 159, 183, 1, 0.48192
205, 2, bw, attraction, a-b-da, 2, 2, 3, 21, 90, 165, 165, 90, 163, 89, 3, 1.15632
205, 2, bw, attraction, a-b-da, 2, 2, 3, 21, 90, 165, 165, 90, 163, 89, 2, 0.820573
205, 2, bw, catch, NA, 999, 999, 3, 22, 100, 95, 129, 186, 98, 157, 2, 0.849724
205, 2, bw, catch, NA, 999, 999, 3, 22, 100, 95, 129, 186, 98, 157, 1, 0.454632
205, 2, bw, attraction, a-b-db, 9, 1, 3, 23, 60, 135, 135, 60, 57, 129, 1, 1.44245
205, 2, bw, attraction, a-b-db, 9, 1, 3, 23, 60, 135, 135, 60, 57, 129, 2, 0.343307
205, 2, bw, attraction, a-b-da, 2, 1, 3, 24, 60, 135, 135, 60, 134, 59, 2, 1.64728
205, 2, bw, attraction, a-b-da, 2, 1, 3, 24, 60, 135, 135, 60, 134, 59, 3, 0.395991
205, 2, bw, catch, NA, 999, 999, 3, 25, 121, 74, 173, 142, 160, 95, 2, 1.05788
205, 2, bw, catch, NA, 999, 999, 3, 25, 121, 74, 173, 142, 160, 95, 1, 0.350148
205, 2, bw, filler, NA, 999, 999, 3, 26, 169, 138, 79, 174, 70, 86, 1, 0.725871
205, 2, bw, filler, NA, 999, 999, 3, 26, 169, 138, 79, 174, 70, 86, 3, 0.44763
205, 2, bw, attraction, a-b-da, 5, 2, 3, 27, 90, 165, 165, 90, 161, 88, 3, 0.891532
205, 2, bw, attraction, a-b-da, 5, 2, 3, 27, 90, 165, 165, 90, 161, 88, 2, 0.798506
205, 2, bw, attraction, a-b-db, 5, 1, 3, 28, 60, 135, 58, 132, 135, 60, 3, 0.788183
205, 2, bw, attraction, a-b-db, 5, 1, 3, 28, 60, 135, 58, 132, 135, 60, 2, 0.419174
205, 2, bw, filler, NA, 999, 999, 3, 29, 74, 110, 79, 169, 111, 100, 2, 1.56836
205, 2, bw, filler, NA, 999, 999, 3, 29, 74, 110, 79, 169, 111, 100, 1, 0.512664
205, 2, bw, attraction, a-b-db, 2, 2, 3, 30, 90, 165, 89, 163, 165, 90, 3, 1.85772
205, 2, bw, attraction, a-b-db, 2, 2, 3, 30, 90, 165, 89, 163, 165, 90, 2, 0.349785
205, 2, bw, attraction, a-b-da, 2, 3, 3, 31, 195, 120, 193, 119, 120, 195, 3, 2.88566
205, 2, bw, attraction, a-b-da, 2, 3, 3, 31, 195, 120, 193, 119, 120, 195, 2, 0.440552
205, 2, bw, attraction, a-b-da, 14, 3, 3, 32, 181, 111, 120, 195, 195, 120, 3, 5.45245
205, 2, bw, attraction, a-b-da, 14, 3, 3, 32, 181, 111, 120, 195, 195, 120, 1, 0.384092
205, 2, bw, attraction, a-b-db, 5, 2, 3, 33, 88, 161, 90, 165, 165, 90, 2, 1.79851
205, 2, bw, attraction, a-b-db, 5, 2, 3, 33, 88, 161, 90, 165, 165, 90, 3, 0.325239
205, 2, bw, attraction, a-b-db, 9, 2, 3, 34, 165, 90, 86, 157, 90, 165, 1, 1.0537
205, 2, bw, attraction, a-b-db, 9, 2, 3, 34, 165, 90, 86, 157, 90, 165, 3, 1.16212
205, 2, bw, attraction, a-b-da, 5, 3, 3, 35, 120, 195, 195, 120, 190, 117, 2, 3.32101
205, 2, bw, attraction, a-b-da, 5, 3, 3, 35, 120, 195, 195, 120, 190, 117, 3, 0.665917
205, 2, bw, filler, NA, 999, 999, 3, 36, 112, 168, 160, 161, 77, 113, 2, 1.11696
205, 2, bw, filler, NA, 999, 999, 3, 36, 112, 168, 160, 161, 77, 113, 3, 0.583295
205, 2, bw, attraction, a-b-da, 9, 3, 3, 37, 195, 120, 120, 195, 186, 114, 1, 3.51767
205, 2, bw, attraction, a-b-da, 9, 3, 3, 37, 195, 120, 120, 195, 186, 114, 3, 0.455271
205, 2, bw, attraction, a-b-da, 14, 2, 4, 1, 90, 165, 153, 83, 165, 90, 2, 1.89099
205, 2, bw, attraction, a-b-da, 14, 2, 4, 1, 90, 165, 153, 83, 165, 90, 3, 0.18977
205, 2, bw, filler, NA, 999, 999, 4, 2, 89, 173, 59, 183, 124, 169, 3, 1.29166
205, 2, bw, filler, NA, 999, 999, 4, 2, 89, 173, 59, 183, 124, 169, 2, 0.318621
205, 2, bw, filler, NA, 999, 999, 4, 3, 183, 165, 77, 106, 105, 72, 1, 0.799739
205, 2, bw, filler, NA, 999, 999, 4, 3, 183, 165, 77, 106, 105, 72, 3, 0.398825
205, 2, bw, filler, NA, 999, 999, 4, 4, 150, 93, 64, 149, 92, 79, 1, 0.836555
205, 2, bw, filler, NA, 999, 999, 4, 4, 150, 93, 64, 149, 92, 79, 3, 0.410368
205, 2, bw, attraction, a-b-db, 14, 3, 4, 5, 111, 181, 120, 195, 195, 120, 3, 1.09543
205, 2, bw, attraction, a-b-db, 14, 3, 4, 5, 111, 181, 120, 195, 195, 120, 1, 0.562393
205, 2, bw, attraction, a-b-db, 5, 1, 4, 6, 60, 135, 135, 60, 58, 132, 1, 2.03343
205, 2, bw, attraction, a-b-db, 5, 1, 4, 6, 60, 135, 135, 60, 58, 132, 2, 0.350993
205, 2, bw, attraction, a-b-da, 14, 3, 4, 7, 181, 111, 120, 195, 195, 120, 2, 2.63869
205, 2, bw, attraction, a-b-da, 14, 3, 4, 7, 181, 111, 120, 195, 195, 120, 1, 0.371136
205, 2, bw, attraction, a-b-db, 9, 3, 4, 8, 114, 186, 195, 120, 120, 195, 2, 5.74639
205, 2, bw, attraction, a-b-db, 9, 3, 4, 8, 114, 186, 195, 120, 120, 195, 1, 0.433874
205, 2, bw, attraction, a-b-da, 9, 3, 4, 9, 195, 120, 186, 114, 120, 195, 1, 0.990381
205, 2, bw, attraction, a-b-da, 9, 3, 4, 9, 195, 120, 186, 114, 120, 195, 3, 0.373321
205, 2, bw, attraction, a-b-db, 2, 2, 4, 10, 89, 163, 90, 165, 165, 90, 3, 0.843771
205, 2, bw, attraction, a-b-db, 2, 2, 4, 10, 89, 163, 90, 165, 165, 90, 2, 0.416906
205, 2, bw, attraction, a-b-db, 5, 3, 4, 11, 195, 120, 120, 195, 117, 190, 1, 1.14192
205, 2, bw, attraction, a-b-db, 5, 3, 4, 11, 195, 120, 120, 195, 117, 190, 3, 0.4149
205, 2, bw, attraction, a-b-da, 2, 3, 4, 12, 193, 119, 195, 120, 120, 195, 3, 1.88408
205, 2, bw, attraction, a-b-da, 2, 3, 4, 12, 193, 119, 195, 120, 120, 195, 1, 0.471374
205, 2, bw, attraction, a-b-da, 2, 1, 4, 13, 60, 135, 135, 60, 134, 59, 3, 0.490772
205, 2, bw, attraction, a-b-da, 2, 1, 4, 13, 60, 135, 135, 60, 134, 59, 2, 1.80589
205, 2, bw, filler, NA, 999, 999, 4, 14, 116, 78, 136, 90, 63, 59, 2, 1.09905
205, 2, bw, filler, NA, 999, 999, 4, 14, 116, 78, 136, 90, 63, 59, 3, 0.574113
205, 2, bw, attraction, a-b-db, 14, 2, 4, 15, 83, 153, 90, 165, 165, 90, 2, 2.02866
205, 2, bw, attraction, a-b-db, 14, 2, 4, 15, 83, 153, 90, 165, 165, 90, 3, 0.497859
205, 2, bw, attraction, a-b-db, 2, 3, 4, 16, 119, 193, 195, 120, 120, 195, 2, 4.42767
205, 2, bw, attraction, a-b-db, 2, 3, 4, 16, 119, 193, 195, 120, 120, 195, 3, 0.416254
205, 2, bw, attraction, a-b-da, 9, 1, 4, 17, 135, 60, 129, 57, 60, 135, 1, 2.03744
205, 2, bw, attraction, a-b-da, 9, 1, 4, 17, 135, 60, 129, 57, 60, 135, 2, 0.754069
205, 2, bw, attraction, a-b-db, 14, 1, 4, 18, 135, 60, 60, 135, 56, 125, 1, 4.6657
205, 2, bw, attraction, a-b-db, 14, 1, 4, 18, 135, 60, 60, 135, 56, 125, 3, 0.70098
205, 2, bw, attraction, a-b-da, 14, 1, 4, 19, 135, 60, 60, 135, 125, 56, 1, 1.08662
205, 2, bw, attraction, a-b-da, 14, 1, 4, 19, 135, 60, 60, 135, 125, 56, 3, 0.578231
205, 2, bw, catch, NA, 999, 999, 4, 20, 70, 125, 133, 122, 169, 146, 3, 0.720724
205, 2, bw, catch, NA, 999, 999, 4, 20, 70, 125, 133, 122, 169, 146, 1, 0.482548
205, 2, bw, filler, NA, 999, 999, 4, 21, 75, 81, 142, 110, 112, 145, 2, 1.17293
205, 2, bw, filler, NA, 999, 999, 4, 21, 75, 81, 142, 110, 112, 145, 1, 0.500524
205, 2, bw, filler, NA, 999, 999, 4, 22, 88, 111, 175, 59, 139, 151, 3, 0.646307
205, 2, bw, filler, NA, 999, 999, 4, 22, 88, 111, 175, 59, 139, 151, 1, 1.03541
205, 2, bw, attraction, a-b-db, 5, 2, 4, 23, 88, 161, 165, 90, 90, 165, 2, 2.13573
205, 2, bw, attraction, a-b-db, 5, 2, 4, 23, 88, 161, 165, 90, 90, 165, 1, 0.88904
205, 2, bw, filler, NA, 999, 999, 4, 24, 90, 108, 134, 190, 68, 193, 2, 0.779347
205, 2, bw, filler, NA, 999, 999, 4, 24, 90, 108, 134, 190, 68, 193, 1, 0.691122
205, 2, bw, attraction, a-b-da, 5, 3, 4, 25, 120, 195, 190, 117, 195, 120, 1, 2.04472
205, 2, bw, attraction, a-b-da, 5, 3, 4, 25, 120, 195, 190, 117, 195, 120, 2, 0.449451
205, 2, bw, attraction, a-b-db, 9, 1, 4, 26, 57, 129, 60, 135, 135, 60, 3, 1.04523
205, 2, bw, attraction, a-b-db, 9, 1, 4, 26, 57, 129, 60, 135, 135, 60, 1, 0.54623
205, 2, bw, filler, NA, 999, 999, 4, 27, 106, 179, 141, 141, 93, 111, 1, 3.23402
205, 2, bw, filler, NA, 999, 999, 4, 27, 106, 179, 141, 141, 93, 111, 3, 0.511066
205, 2, bw, attraction, a-b-da, 5, 2, 4, 28, 90, 165, 165, 90, 161, 88, 1, 10.9521
205, 2, bw, attraction, a-b-da, 5, 2, 4, 28, 90, 165, 165, 90, 161, 88, 3, 0.397991
205, 2, bw, attraction, a-b-da, 2, 2, 4, 29, 90, 165, 163, 89, 165, 90, 2, 13.9478
205, 2, bw, attraction, a-b-da, 2, 2, 4, 29, 90, 165, 163, 89, 165, 90, 3, 0.368783
205, 2, bw, attraction, a-b-da, 5, 1, 4, 30, 135, 60, 60, 135, 132, 58, 2, 1.41595
205, 2, bw, attraction, a-b-da, 5, 1, 4, 30, 135, 60, 60, 135, 132, 58, 1, 0.326111
205, 2, bw, catch, NA, 999, 999, 4, 31, 96, 99, 124, 191, 145, 110, 2, 1.85459
205, 2, bw, catch, NA, 999, 999, 4, 31, 96, 99, 124, 191, 145, 110, 1, 0.650619
205, 2, bw, catch, NA, 999, 999, 4, 32, 85, 110, 134, 121, 166, 149, 3, 1.49433
205, 2, bw, catch, NA, 999, 999, 4, 32, 85, 110, 134, 121, 166, 149, 1, 0.401223
205, 2, bw, filler, NA, 999, 999, 4, 33, 161, 111, 56, 57, 170, 146, 3, 0.999119
205, 2, bw, filler, NA, 999, 999, 4, 33, 161, 111, 56, 57, 170, 146, 2, 0.422061
205, 2, bw, filler, NA, 999, 999, 4, 34, 115, 172, 87, 155, 109, 172, 1, 1.71517
205, 2, bw, filler, NA, 999, 999, 4, 34, 115, 172, 87, 155, 109, 172, 2, 0.333407
205, 2, bw, attraction, a-b-db, 9, 2, 4, 35, 90, 165, 86, 157, 165, 90, 1, 3.30979
205, 2, bw, attraction, a-b-db, 9, 2, 4, 35, 90, 165, 86, 157, 165, 90, 3, 0.639344
205, 2, bw, attraction, a-b-da, 9, 2, 4, 36, 90, 165, 165, 90, 157, 86, 2, 3.88315
205, 2, bw, attraction, a-b-da, 9, 2, 4, 36, 90, 165, 165, 90, 157, 86, 3, 0.422015
205, 2, bw, attraction, a-b-db, 2, 1, 4, 37, 59, 134, 60, 135, 135, 60, 3, 1.08304
205, 2, bw, attraction, a-b-db, 2, 1, 4, 37, 59, 134, 60, 135, 135, 60, 2, 0.350628
205, 2, bw, attraction, a-b-db, 14, 2, 5, 1, 165, 90, 90, 165, 83, 153, 1, 3.75714
205, 2, bw, attraction, a-b-db, 14, 2, 5, 1, 165, 90, 90, 165, 83, 153, 3, 0.284684
205, 2, bw, attraction, a-b-da, 2, 3, 5, 2, 193, 119, 120, 195, 195, 120, 2, 0.847099
205, 2, bw, attraction, a-b-da, 2, 3, 5, 2, 193, 119, 120, 195, 195, 120, 3, 0.29225
205, 2, bw, attraction, a-b-db, 2, 3, 5, 3, 119, 193, 195, 120, 120, 195, 3, 2.15003
205, 2, bw, attraction, a-b-db, 2, 3, 5, 3, 119, 193, 195, 120, 120, 195, 2, 0.310626
205, 2, bw, filler, NA, 999, 999, 5, 4, 184, 104, 117, 121, 66, 172, 1, 1.8798
205, 2, bw, filler, NA, 999, 999, 5, 4, 184, 104, 117, 121, 66, 172, 3, 0.45125
205, 2, bw, attraction, a-b-da, 2, 2, 5, 5, 163, 89, 90, 165, 165, 90, 2, 2.4311
205, 2, bw, attraction, a-b-da, 2, 2, 5, 5, 163, 89, 90, 165, 165, 90, 3, 1.12429
205, 2, bw, filler, NA, 999, 999, 5, 6, 157, 134, 192, 176, 105, 142, 2, 0.908468
205, 2, bw, filler, NA, 999, 999, 5, 6, 157, 134, 192, 176, 105, 142, 3, 0.406933
205, 2, bw, attraction, a-b-db, 9, 1, 5, 7, 135, 60, 60, 135, 57, 129, 1, 1.05996
205, 2, bw, attraction, a-b-db, 9, 1, 5, 7, 135, 60, 60, 135, 57, 129, 2, 0.440401
205, 2, bw, attraction, a-b-da, 9, 2, 5, 8, 165, 90, 90, 165, 157, 86, 2, 0.964128
205, 2, bw, attraction, a-b-da, 9, 2, 5, 8, 165, 90, 90, 165, 157, 86, 3, 0.396492
205, 2, bw, filler, NA, 999, 999, 5, 9, 175, 175, 128, 168, 89, 91, 1, 0.98619
205, 2, bw, filler, NA, 999, 999, 5, 9, 175, 175, 128, 168, 89, 91, 3, 0.465876
205, 2, bw, attraction, a-b-da, 9, 1, 5, 10, 135, 60, 60, 135, 129, 57, 1, 1.50905
205, 2, bw, attraction, a-b-da, 9, 1, 5, 10, 135, 60, 60, 135, 129, 57, 2, 0.455192
205, 2, bw, attraction, a-b-db, 9, 3, 5, 11, 195, 120, 114, 186, 120, 195, 3, 4.01116
205, 2, bw, attraction, a-b-db, 9, 3, 5, 11, 195, 120, 114, 186, 120, 195, 2, 0.416349
205, 2, bw, attraction, a-b-da, 14, 2, 5, 12, 153, 83, 90, 165, 165, 90, 3, 1.55759
205, 2, bw, attraction, a-b-da, 14, 2, 5, 12, 153, 83, 90, 165, 165, 90, 2, 0.469828
205, 2, bw, attraction, a-b-db, 5, 2, 5, 13, 165, 90, 90, 165, 88, 161, 2, 2.00886
205, 2, bw, attraction, a-b-db, 5, 2, 5, 13, 165, 90, 90, 165, 88, 161, 1, 0.518962
205, 2, bw, catch, NA, 999, 999, 5, 14, 135, 60, 159, 156, 162, 93, 2, 1.21595
205, 2, bw, catch, NA, 999, 999, 5, 14, 135, 60, 159, 156, 162, 93, 1, 0.406237
205, 2, bw, attraction, a-b-da, 14, 3, 5, 15, 181, 111, 195, 120, 120, 195, 3, 3.3394
205, 2, bw, attraction, a-b-da, 14, 3, 5, 15, 181, 111, 195, 120, 120, 195, 1, 0.467647
205, 2, bw, attraction, a-b-db, 9, 2, 5, 16, 90, 165, 86, 157, 165, 90, 1, 1.46289
205, 2, bw, attraction, a-b-db, 9, 2, 5, 16, 90, 165, 86, 157, 165, 90, 2, 0.450974
205, 2, bw, attraction, a-b-db, 5, 3, 5, 17, 195, 120, 117, 190, 120, 195, 3, 3.46283
205, 2, bw, attraction, a-b-db, 5, 3, 5, 17, 195, 120, 117, 190, 120, 195, 2, 0.386254
205, 2, bw, attraction, a-b-da, 9, 3, 5, 18, 120, 195, 186, 114, 195, 120, 1, 1.77678
205, 2, bw, attraction, a-b-da, 9, 3, 5, 18, 120, 195, 186, 114, 195, 120, 2, 0.560133
205, 2, bw, catch, NA, 999, 999, 5, 19, 82, 113, 126, 129, 165, 150, 3, 0.775277
205, 2, bw, catch, NA, 999, 999, 5, 19, 82, 113, 126, 129, 165, 150, 1, 0.447061
205, 2, bw, filler, NA, 999, 999, 5, 20, 63, 76, 103, 113, 155, 108, 3, 1.57889
205, 2, bw, filler, NA, 999, 999, 5, 20, 63, 76, 103, 113, 155, 108, 1, 0.474365
205, 2, bw, attraction, a-b-db, 2, 2, 5, 21, 89, 163, 90, 165, 165, 90, 1, 1.49272
205, 2, bw, attraction, a-b-db, 2, 2, 5, 21, 89, 163, 90, 165, 165, 90, 3, 0.495622
205, 2, bw, filler, NA, 999, 999, 5, 22, 66, 92, 123, 92, 111, 104, 3, 2.18545
205, 2, bw, filler, NA, 999, 999, 5, 22, 66, 92, 123, 92, 111, 104, 1, 0.496665
205, 2, bw, attraction, a-b-da, 5, 3, 5, 23, 190, 117, 120, 195, 195, 120, 3, 2.57847
205, 2, bw, attraction, a-b-da, 5, 3, 5, 23, 190, 117, 120, 195, 195, 120, 1, 0.457565
205, 2, bw, attraction, a-b-da, 2, 1, 5, 24, 134, 59, 60, 135, 135, 60, 2, 3.23684
205, 2, bw, attraction, a-b-da, 2, 1, 5, 24, 134, 59, 60, 135, 135, 60, 1, 0.385087
205, 2, bw, filler, NA, 999, 999, 5, 25, 138, 132, 151, 98, 127, 103, 1, 2.25562
205, 2, bw, filler, NA, 999, 999, 5, 25, 138, 132, 151, 98, 127, 103, 3, 0.38758
205, 2, bw, attraction, a-b-db, 2, 1, 5, 26, 60, 135, 59, 134, 135, 60, 3, 3.52203
205, 2, bw, attraction, a-b-db, 2, 1, 5, 26, 60, 135, 59, 134, 135, 60, 1, 1.52282
205, 2, bw, filler, NA, 999, 999, 5, 27, 72, 144, 102, 138, 181, 124, 3, 1.60366
205, 2, bw, filler, NA, 999, 999, 5, 27, 72, 144, 102, 138, 181, 124, 1, 0.40972
205, 2, bw, filler, NA, 999, 999, 5, 28, 147, 114, 114, 74, 141, 131, 3, 1.21495
205, 2, bw, filler, NA, 999, 999, 5, 28, 147, 114, 114, 74, 141, 131, 2, 0.381142
205, 2, bw, attraction, a-b-da, 14, 1, 5, 29, 60, 135, 135, 60, 125, 56, 2, 2.06777
205, 2, bw, attraction, a-b-da, 14, 1, 5, 29, 60, 135, 135, 60, 125, 56, 3, 0.479628
205, 2, bw, catch, NA, 999, 999, 5, 30, 127, 188, 64, 131, 139, 116, 1, 0.930038
205, 2, bw, catch, NA, 999, 999, 5, 30, 127, 188, 64, 131, 139, 116, 2, 0.491807
205, 2, bw, filler, NA, 999, 999, 5, 31, 156, 164, 66, 95, 71, 185, 1, 0.637606
205, 2, bw, filler, NA, 999, 999, 5, 31, 156, 164, 66, 95, 71, 185, 2, 0.506631
205, 2, bw, attraction, a-b-db, 5, 1, 5, 32, 58, 132, 135, 60, 60, 135, 3, 1.00385
205, 2, bw, attraction, a-b-db, 5, 1, 5, 32, 58, 132, 135, 60, 60, 135, 1, 0.426103
205, 2, bw, attraction, a-b-db, 14, 1, 5, 33, 135, 60, 56, 125, 60, 135, 3, 0.966632
205, 2, bw, attraction, a-b-db, 14, 1, 5, 33, 135, 60, 56, 125, 60, 135, 2, 0.502965
205, 2, bw, attraction, a-b-da, 5, 1, 5, 34, 135, 60, 132, 58, 60, 135, 1, 0.936792
205, 2, bw, attraction, a-b-da, 5, 1, 5, 34, 135, 60, 132, 58, 60, 135, 3, 0.418504
205, 2, bw, attraction, a-b-db, 14, 3, 5, 35, 195, 120, 111, 181, 120, 195, 1, 3.93561
205, 2, bw, attraction, a-b-db, 14, 3, 5, 35, 195, 120, 111, 181, 120, 195, 2, 0.36026
205, 2, bw, attraction, a-b-da, 5, 2, 5, 36, 161, 88, 90, 165, 165, 90, 2, 3.47148
205, 2, bw, attraction, a-b-da, 5, 2, 5, 36, 161, 88, 90, 165, 165, 90, 1, 1.49835
205, 2, bw, filler, NA, 999, 999, 5, 37, 189, 110, 126, 162, 122, 187, 3, 2.79587
205, 2, bw, filler, NA, 999, 999, 5, 37, 189, 110, 126, 162, 122, 187, 2, 0.410265
205, 2, bw, attraction, a-b-da, 5, 1, 6, 1, 135, 60, 60, 135, 132, 58, 3, 1.51139
205, 2, bw, attraction, a-b-da, 5, 1, 6, 1, 135, 60, 60, 135, 132, 58, 2, 0.353615
205, 2, bw, attraction, a-b-db, 2, 2, 6, 2, 90, 165, 89, 163, 165, 90, 1, 1.84938
205, 2, bw, attraction, a-b-db, 2, 2, 6, 2, 90, 165, 89, 163, 165, 90, 2, 0.334284
205, 2, bw, attraction, a-b-db, 5, 1, 6, 3, 60, 135, 135, 60, 58, 132, 1, 1.78268
205, 2, bw, attraction, a-b-db, 5, 1, 6, 3, 60, 135, 135, 60, 58, 132, 3, 0.622073
205, 2, bw, attraction, a-b-db, 5, 3, 6, 4, 117, 190, 195, 120, 120, 195, 2, 6.23515
205, 2, bw, attraction, a-b-db, 5, 3, 6, 4, 117, 190, 195, 120, 120, 195, 3, 0.471193
205, 2, bw, attraction, a-b-db, 5, 2, 6, 5, 165, 90, 88, 161, 90, 165, 1, 0.842255
205, 2, bw, attraction, a-b-db, 5, 2, 6, 5, 165, 90, 88, 161, 90, 165, 2, 0.391301
205, 2, bw, attraction, a-b-db, 14, 1, 6, 6, 60, 135, 56, 125, 135, 60, 1, 1.82912
205, 2, bw, attraction, a-b-db, 14, 1, 6, 6, 60, 135, 56, 125, 135, 60, 2, 0.298554
205, 2, bw, catch, NA, 999, 999, 6, 7, 174, 141, 134, 121, 118, 77, 1, 0.716368
205, 2, bw, catch, NA, 999, 999, 6, 7, 174, 141, 134, 121, 118, 77, 3, 0.79077
205, 2, bw, attraction, a-b-da, 2, 3, 6, 8, 193, 119, 195, 120, 120, 195, 1, 2.17255
205, 2, bw, attraction, a-b-da, 2, 3, 6, 8, 193, 119, 195, 120, 120, 195, 3, 0.355824
205, 2, bw, attraction, a-b-db, 14, 3, 6, 9, 195, 120, 120, 195, 111, 181, 1, 1.57971
205, 2, bw, attraction, a-b-db, 14, 3, 6, 9, 195, 120, 120, 195, 111, 181, 3, 0.387158
205, 2, bw, attraction, a-b-da, 14, 2, 6, 10, 153, 83, 165, 90, 90, 165, 2, 0.897579
205, 2, bw, attraction, a-b-da, 14, 2, 6, 10, 153, 83, 165, 90, 90, 165, 1, 0.356616
205, 2, bw, attraction, a-b-db, 9, 2, 6, 11, 90, 165, 165, 90, 86, 157, 1, 1.32379
205, 2, bw, attraction, a-b-db, 9, 2, 6, 11, 90, 165, 165, 90, 86, 157, 2, 0.421364
205, 2, bw, filler, NA, 999, 999, 6, 12, 102, 195, 139, 101, 89, 88, 1, 1.07462
205, 2, bw, filler, NA, 999, 999, 6, 12, 102, 195, 139, 101, 89, 88, 3, 0.790211
205, 2, bw, catch, NA, 999, 999, 6, 13, 102, 93, 190, 125, 91, 164, 2, 0.835949
205, 2, bw, catch, NA, 999, 999, 6, 13, 102, 93, 190, 125, 91, 164, 1, 0.313527
205, 2, bw, attraction, a-b-da, 9, 2, 6, 14, 90, 165, 165, 90, 157, 86, 1, 0.978758
205, 2, bw, attraction, a-b-da, 9, 2, 6, 14, 90, 165, 165, 90, 157, 86, 3, 0.354537
205, 2, bw, attraction, a-b-db, 9, 3, 6, 15, 195, 120, 114, 186, 120, 195, 3, 1.54618
205, 2, bw, attraction, a-b-db, 9, 3, 6, 15, 195, 120, 114, 186, 120, 195, 2, 0.715
205, 2, bw, attraction, a-b-db, 2, 3, 6, 16, 119, 193, 120, 195, 195, 120, 2, 1.38813
205, 2, bw, attraction, a-b-db, 2, 3, 6, 16, 119, 193, 120, 195, 195, 120, 3, 0.826956
205, 2, bw, filler, NA, 999, 999, 6, 17, 186, 177, 120, 107, 80, 173, 1, 0.599337
205, 2, bw, filler, NA, 999, 999, 6, 17, 186, 177, 120, 107, 80, 173, 3, 0.678573
205, 2, bw, filler, NA, 999, 999, 6, 18, 142, 93, 121, 133, 71, 167, 2, 1.21684
205, 2, bw, filler, NA, 999, 999, 6, 18, 142, 93, 121, 133, 71, 167, 3, 1.3912
205, 2, bw, filler, NA, 999, 999, 6, 19, 192, 152, 59, 137, 177, 106, 1, 0.75659
205, 2, bw, filler, NA, 999, 999, 6, 19, 192, 152, 59, 137, 177, 106, 2, 0.693067
205, 2, bw, filler, NA, 999, 999, 6, 20, 130, 67, 68, 155, 97, 89, 2, 4.59077
205, 2, bw, filler, NA, 999, 999, 6, 20, 130, 67, 68, 155, 97, 89, 1, 1.30057
205, 2, bw, attraction, a-b-db, 9, 1, 6, 21, 57, 129, 60, 135, 135, 60, 3, 0.646146
205, 2, bw, attraction, a-b-db, 9, 1, 6, 21, 57, 129, 60, 135, 135, 60, 2, 0.323227
205, 2, bw, attraction, a-b-da, 5, 3, 6, 22, 195, 120, 190, 117, 120, 195, 1, 0.755818
205, 2, bw, attraction, a-b-da, 5, 3, 6, 22, 195, 120, 190, 117, 120, 195, 2, 0.572125
205, 2, bw, filler, NA, 999, 999, 6, 23, 135, 84, 165, 165, 91, 164, 2, 0.707233
205, 2, bw, filler, NA, 999, 999, 6, 23, 135, 84, 165, 165, 91, 164, 1, 0.445683
205, 2, bw, filler, NA, 999, 999, 6, 24, 157, 175, 178, 74, 86, 175, 1, 0.777448
205, 2, bw, filler, NA, 999, 999, 6, 24, 157, 175, 178, 74, 86, 175, 2, 0.45719
205, 2, bw, attraction, a-b-da, 2, 2, 6, 25, 163, 89, 90, 165, 165, 90, 1, 1.43631
205, 2, bw, attraction, a-b-da, 2, 2, 6, 25, 163, 89, 90, 165, 165, 90, 2, 0.449824
205, 2, bw, attraction, a-b-da, 9, 1, 6, 26, 135, 60, 60, 135, 129, 57, 1, 1.15757
205, 2, bw, attraction, a-b-da, 9, 1, 6, 26, 135, 60, 60, 135, 129, 57, 3, 0.541869
205, 2, bw, filler, NA, 999, 999, 6, 27, 108, 65, 139, 107, 93, 146, 2, 3.92569
205, 2, bw, filler, NA, 999, 999, 6, 27, 108, 65, 139, 107, 93, 146, 1, 0.694391
205, 2, bw, catch, NA, 999, 999, 6, 28, 163, 152, 120, 75, 110, 145, 1, 0.904175
205, 2, bw, catch, NA, 999, 999, 6, 28, 163, 152, 120, 75, 110, 145, 2, 0.402516
205, 2, bw, attraction, a-b-da, 14, 3, 6, 29, 120, 195, 195, 120, 181, 111, 2, 0.888294
205, 2, bw, attraction, a-b-da, 14, 3, 6, 29, 120, 195, 195, 120, 181, 111, 3, 0.459342
205, 2, bw, attraction, a-b-da, 2, 1, 6, 30, 134, 59, 135, 60, 60, 135, 3, 0.942581
205, 2, bw, attraction, a-b-da, 2, 1, 6, 30, 134, 59, 135, 60, 60, 135, 2, 0.471629
205, 2, bw, attraction, a-b-db, 14, 2, 6, 31, 165, 90, 90, 165, 83, 153, 2, 1.83454
205, 2, bw, attraction, a-b-db, 14, 2, 6, 31, 165, 90, 90, 165, 83, 153, 3, 0.544192
205, 2, bw, attraction, a-b-db, 2, 1, 6, 32, 135, 60, 60, 135, 59, 134, 3, 1.49591
205, 2, bw, attraction, a-b-db, 2, 1, 6, 32, 135, 60, 60, 135, 59, 134, 1, 0.682646
205, 2, bw, filler, NA, 999, 999, 6, 33, 127, 166, 130, 188, 192, 57, 2, 0.965057
205, 2, bw, filler, NA, 999, 999, 6, 33, 127, 166, 130, 188, 192, 57, 3, 0.445476
205, 2, bw, attraction, a-b-da, 14, 1, 6, 34, 135, 60, 125, 56, 60, 135, 3, 1.58225
205, 2, bw, attraction, a-b-da, 14, 1, 6, 34, 135, 60, 125, 56, 60, 135, 2, 0.288654
205, 2, bw, attraction, a-b-da, 9, 3, 6, 35, 186, 114, 120, 195, 195, 120, 2, 2.69924
205, 2, bw, attraction, a-b-da, 9, 3, 6, 35, 186, 114, 120, 195, 195, 120, 3, 0.565618
205, 2, bw, filler, NA, 999, 999, 6, 36, 100, 62, 111, 73, 150, 171, 3, 0.868819
205, 2, bw, filler, NA, 999, 999, 6, 36, 100, 62, 111, 73, 150, 171, 1, 0.481049
205, 2, bw, attraction, a-b-da, 5, 2, 6, 37, 161, 88, 165, 90, 90, 165, 1, 1.28353
205, 2, bw, attraction, a-b-da, 5, 2, 6, 37, 161, 88, 165, 90, 90, 165, 3, 0.447189
205, 2, bw, attraction, a-b-da, 9, 2, 7, 1, 157, 86, 165, 90, 90, 165, 2, 0.730916
205, 2, bw, attraction, a-b-da, 9, 2, 7, 1, 157, 86, 165, 90, 90, 165, 3, 0.524624
205, 2, bw, attraction, a-b-da, 2, 2, 7, 2, 163, 89, 90, 165, 165, 90, 2, 0.797076
205, 2, bw, attraction, a-b-da, 2, 2, 7, 2, 163, 89, 90, 165, 165, 90, 1, 0.572136
205, 2, bw, filler, NA, 999, 999, 7, 3, 186, 92, 176, 76, 152, 69, 1, 1.05932
205, 2, bw, filler, NA, 999, 999, 7, 3, 186, 92, 176, 76, 152, 69, 3, 0.479538
205, 2, bw, attraction, a-b-da, 5, 2, 7, 4, 90, 165, 161, 88, 165, 90, 1, 1.92201
205, 2, bw, attraction, a-b-da, 5, 2, 7, 4, 90, 165, 161, 88, 165, 90, 3, 0.379411
205, 2, bw, catch, NA, 999, 999, 7, 5, 139, 116, 81, 114, 175, 140, 3, 0.70594
205, 2, bw, catch, NA, 999, 999, 7, 5, 139, 116, 81, 114, 175, 140, 2, 0.436341
205, 2, bw, attraction, a-b-da, 2, 3, 7, 6, 120, 195, 195, 120, 193, 119, 2, 0.792785
205, 2, bw, attraction, a-b-da, 2, 3, 7, 6, 120, 195, 195, 120, 193, 119, 3, 0.807784
205, 2, bw, catch, NA, 999, 999, 7, 7, 181, 134, 123, 72, 103, 152, 1, 1.51692
205, 2, bw, catch, NA, 999, 999, 7, 7, 181, 134, 123, 72, 103, 152, 2, 0.407206
205, 2, bw, attraction, a-b-db, 9, 1, 7, 8, 60, 135, 135, 60, 57, 129, 2, 1.38835
205, 2, bw, attraction, a-b-db, 9, 1, 7, 8, 60, 135, 135, 60, 57, 129, 3, 0.515133
205, 2, bw, attraction, a-b-db, 5, 2, 7, 9, 88, 161, 90, 165, 165, 90, 2, 1.74014
205, 2, bw, attraction, a-b-db, 5, 2, 7, 9, 88, 161, 90, 165, 165, 90, 3, 0.397012
205, 2, bw, filler, NA, 999, 999, 7, 10, 185, 142, 193, 94, 159, 128, 1, 1.32273
205, 2, bw, filler, NA, 999, 999, 7, 10, 185, 142, 193, 94, 159, 128, 2, 0.396481
205, 2, bw, attraction, a-b-db, 14, 3, 7, 11, 195, 120, 111, 181, 120, 195, 1, 1.04212
205, 2, bw, attraction, a-b-db, 14, 3, 7, 11, 195, 120, 111, 181, 120, 195, 2, 0.423068
205, 2, bw, filler, NA, 999, 999, 7, 12, 133, 186, 177, 111, 148, 181, 3, 0.851542
205, 2, bw, filler, NA, 999, 999, 7, 12, 133, 186, 177, 111, 148, 181, 2, 0.424568
205, 2, bw, attraction, a-b-db, 2, 2, 7, 13, 90, 165, 165, 90, 89, 163, 2, 1.11709
205, 2, bw, attraction, a-b-db, 2, 2, 7, 13, 90, 165, 165, 90, 89, 163, 1, 0.607518
205, 2, bw, attraction, a-b-da, 5, 3, 7, 14, 190, 117, 195, 120, 120, 195, 3, 2.14056
205, 2, bw, attraction, a-b-da, 5, 3, 7, 14, 190, 117, 195, 120, 120, 195, 2, 0.381142
205, 2, bw, filler, NA, 999, 999, 7, 15, 166, 131, 184, 174, 113, 175, 2, 0.995611
205, 2, bw, filler, NA, 999, 999, 7, 15, 166, 131, 184, 174, 113, 175, 3, 0.314595
205, 2, bw, attraction, a-b-db, 2, 3, 7, 16, 120, 195, 195, 120, 119, 193, 3, 1.48375
205, 2, bw, attraction, a-b-db, 2, 3, 7, 16, 120, 195, 195, 120, 119, 193, 2, 0.343274
205, 2, bw, attraction, a-b-db, 14, 2, 7, 17, 90, 165, 83, 153, 165, 90, 1, 0.799055
205, 2, bw, attraction, a-b-db, 14, 2, 7, 17, 90, 165, 83, 153, 165, 90, 2, 0.526131
205, 2, bw, filler, NA, 999, 999, 7, 18, 68, 89, 72, 74, 60, 64, 1, 0.934626
205, 2, bw, filler, NA, 999, 999, 7, 18, 68, 89, 72, 74, 60, 64, 3, 0.856292
205, 2, bw, attraction, a-b-db, 9, 3, 7, 19, 114, 186, 120, 195, 195, 120, 2, 2.05129
205, 2, bw, attraction, a-b-db, 9, 3, 7, 19, 114, 186, 120, 195, 195, 120, 3, 0.503937
205, 2, bw, attraction, a-b-da, 14, 1, 7, 20, 125, 56, 135, 60, 60, 135, 3, 1.42581
205, 2, bw, attraction, a-b-da, 14, 1, 7, 20, 125, 56, 135, 60, 60, 135, 2, 0.287221
205, 2, bw, attraction, a-b-da, 9, 3, 7, 21, 120, 195, 186, 114, 195, 120, 2, 0.577721
205, 2, bw, attraction, a-b-da, 9, 3, 7, 21, 120, 195, 186, 114, 195, 120, 3, 0.273581
205, 2, bw, filler, NA, 999, 999, 7, 22, 154, 181, 128, 118, 171, 174, 3, 0.852057
205, 2, bw, filler, NA, 999, 999, 7, 22, 154, 181, 128, 118, 171, 174, 2, 0.337138
205, 2, bw, catch, NA, 999, 999, 7, 23, 159, 156, 102, 93, 163, 92, 1, 0.68579
205, 2, bw, catch, NA, 999, 999, 7, 23, 159, 156, 102, 93, 163, 92, 2, 0.516675
205, 2, bw, attraction, a-b-db, 14, 1, 7, 24, 135, 60, 56, 125, 60, 135, 1, 3.20586
205, 2, bw, attraction, a-b-db, 14, 1, 7, 24, 135, 60, 56, 125, 60, 135, 2, 0.619441
205, 2, bw, attraction, a-b-db, 9, 2, 7, 25, 165, 90, 86, 157, 90, 165, 3, 2.11265
205, 2, bw, attraction, a-b-db, 9, 2, 7, 25, 165, 90, 86, 157, 90, 165, 2, 0.290609
205, 2, bw, attraction, a-b-db, 5, 3, 7, 26, 195, 120, 120, 195, 117, 190, 1, 0.772527
205, 2, bw, attraction, a-b-db, 5, 3, 7, 26, 195, 120, 120, 195, 117, 190, 2, 0.324172
205, 2, bw, attraction, a-b-db, 5, 1, 7, 27, 60, 135, 58, 132, 135, 60, 2, 1.32461
205, 2, bw, attraction, a-b-db, 5, 1, 7, 27, 60, 135, 58, 132, 135, 60, 3, 0.382195
205, 2, bw, attraction, a-b-da, 2, 1, 7, 28, 134, 59, 60, 135, 135, 60, 1, 0.972619
205, 2, bw, attraction, a-b-da, 2, 1, 7, 28, 134, 59, 60, 135, 135, 60, 2, 0.636427
205, 2, bw, filler, NA, 999, 999, 7, 29, 130, 111, 77, 111, 121, 123, 1, 2.4088
205, 2, bw, filler, NA, 999, 999, 7, 29, 130, 111, 77, 111, 121, 123, 2, 0.478632
205, 2, bw, attraction, a-b-da, 5, 1, 7, 30, 135, 60, 60, 135, 132, 58, 1, 1.96902
205, 2, bw, attraction, a-b-da, 5, 1, 7, 30, 135, 60, 60, 135, 132, 58, 2, 0.329484
205, 2, bw, attraction, a-b-da, 9, 1, 7, 31, 60, 135, 135, 60, 129, 57, 2, 1.1616
205, 2, bw, attraction, a-b-da, 9, 1, 7, 31, 60, 135, 135, 60, 129, 57, 3, 0.345865
205, 2, bw, attraction, a-b-da, 14, 3, 7, 32, 195, 120, 181, 111, 120, 195, 3, 1.59379
205, 2, bw, attraction, a-b-da, 14, 3, 7, 32, 195, 120, 181, 111, 120, 195, 2, 0.320488
205, 2, bw, filler, NA, 999, 999, 7, 33, 78, 160, 168, 138, 110, 173, 2, 1.23382
205, 2, bw, filler, NA, 999, 999, 7, 33, 78, 160, 168, 138, 110, 173, 1, 0.607373
205, 2, bw, attraction, a-b-da, 14, 2, 7, 34, 90, 165, 165, 90, 153, 83, 1, 0.996459
205, 2, bw, attraction, a-b-da, 14, 2, 7, 34, 90, 165, 165, 90, 153, 83, 2, 0.395521
205, 2, bw, filler, NA, 999, 999, 7, 35, 58, 195, 181, 193, 87, 171, 2, 0.713135
205, 2, bw, filler, NA, 999, 999, 7, 35, 58, 195, 181, 193, 87, 171, 1, 0.539594
205, 2, bw, filler, NA, 999, 999, 7, 36, 148, 106, 129, 91, 69, 127, 1, 0.923409
205, 2, bw, filler, NA, 999, 999, 7, 36, 148, 106, 129, 91, 69, 127, 3, 0.477127
205, 2, bw, attraction, a-b-db, 2, 1, 7, 37, 60, 135, 135, 60, 59, 134, 3, 1.11163
205, 2, bw, attraction, a-b-db, 2, 1, 7, 37, 60, 135, 135, 60, 59, 134, 1, 0.441977
205, 2, bw, filler, NA, 999, 999, 8, 1, 144, 122, 120, 139, 184, 154, 3, 0.989623
205, 2, bw, filler, NA, 999, 999, 8, 1, 144, 122, 120, 139, 184, 154, 2, 0.404599
205, 2, bw, filler, NA, 999, 999, 8, 2, 152, 75, 119, 82, 93, 163, 3, 1.61841
205, 2, bw, filler, NA, 999, 999, 8, 2, 152, 75, 119, 82, 93, 163, 2, 0.432548
205, 2, bw, attraction, a-b-da, 2, 3, 8, 3, 120, 195, 195, 120, 193, 119, 2, 2.1653
205, 2, bw, attraction, a-b-da, 2, 3, 8, 3, 120, 195, 195, 120, 193, 119, 1, 0.469187
205, 2, bw, attraction, a-b-da, 14, 2, 8, 4, 153, 83, 90, 165, 165, 90, 2, 1.91226
205, 2, bw, attraction, a-b-da, 14, 2, 8, 4, 153, 83, 90, 165, 165, 90, 1, 0.62613
205, 2, bw, attraction, a-b-db, 5, 3, 8, 5, 120, 195, 195, 120, 117, 190, 2, 3.73466
205, 2, bw, attraction, a-b-db, 5, 3, 8, 5, 120, 195, 195, 120, 117, 190, 3, 0.399564
205, 2, bw, attraction, a-b-da, 14, 3, 8, 6, 195, 120, 181, 111, 120, 195, 3, 1.59722
205, 2, bw, attraction, a-b-da, 14, 3, 8, 6, 195, 120, 181, 111, 120, 195, 2, 0.324016
205, 2, bw, attraction, a-b-db, 2, 1, 8, 7, 135, 60, 60, 135, 59, 134, 3, 1.54064
205, 2, bw, attraction, a-b-db, 2, 1, 8, 7, 135, 60, 60, 135, 59, 134, 2, 0.29345
205, 2, bw, attraction, a-b-db, 9, 2, 8, 8, 86, 157, 165, 90, 90, 165, 3, 1.52725
205, 2, bw, attraction, a-b-db, 9, 2, 8, 8, 86, 157, 165, 90, 90, 165, 2, 0.680827
205, 2, bw, attraction, a-b-da, 5, 2, 8, 9, 90, 165, 165, 90, 161, 88, 1, 1.37115
205, 2, bw, attraction, a-b-da, 5, 2, 8, 9, 90, 165, 165, 90, 161, 88, 2, 0.36264
205, 2, bw, filler, NA, 999, 999, 8, 10, 146, 58, 92, 76, 183, 182, 3, 0.657853
205, 2, bw, filler, NA, 999, 999, 8, 10, 146, 58, 92, 76, 183, 182, 2, 0.574273
205, 2, bw, attraction, a-b-db, 14, 1, 8, 11, 60, 135, 135, 60, 56, 125, 1, 1.03665
205, 2, bw, attraction, a-b-db, 14, 1, 8, 11, 60, 135, 135, 60, 56, 125, 3, 1.17762
205, 2, bw, filler, NA, 999, 999, 8, 12, 133, 58, 65, 122, 125, 175, 3, 0.97583
205, 2, bw, filler, NA, 999, 999, 8, 12, 133, 58, 65, 122, 125, 175, 2, 0.511518
205, 2, bw, attraction, a-b-db, 9, 3, 8, 13, 195, 120, 114, 186, 120, 195, 3, 1.22485
205, 2, bw, attraction, a-b-db, 9, 3, 8, 13, 195, 120, 114, 186, 120, 195, 2, 0.758246
205, 2, bw, catch, NA, 999, 999, 8, 14, 157, 98, 181, 134, 67, 128, 2, 0.69339
205, 2, bw, catch, NA, 999, 999, 8, 14, 157, 98, 181, 134, 67, 128, 3, 0.336364
205, 2, bw, attraction, a-b-da, 5, 1, 8, 15, 132, 58, 135, 60, 60, 135, 1, 1.28883
205, 2, bw, attraction, a-b-da, 5, 1, 8, 15, 132, 58, 135, 60, 60, 135, 2, 0.387723
205, 2, bw, attraction, a-b-da, 9, 1, 8, 16, 129, 57, 60, 135, 135, 60, 2, 0.658341
205, 2, bw, attraction, a-b-da, 9, 1, 8, 16, 129, 57, 60, 135, 135, 60, 3, 0.526719
205, 2, bw, filler, NA, 999, 999, 8, 17, 195, 129, 156, 107, 91, 67, 1, 0.799216
205, 2, bw, filler, NA, 999, 999, 8, 17, 195, 129, 156, 107, 91, 67, 3, 0.430392
205, 2, bw, filler, NA, 999, 999, 8, 18, 85, 85, 152, 181, 128, 95, 2, 0.754746
205, 2, bw, filler, NA, 999, 999, 8, 18, 85, 85, 152, 181, 128, 95, 1, 0.451157
205, 2, bw, attraction, a-b-db, 5, 2, 8, 19, 165, 90, 88, 161, 90, 165, 1, 1.19087
205, 2, bw, attraction, a-b-db, 5, 2, 8, 19, 165, 90, 88, 161, 90, 165, 2, 0.349881
205, 2, bw, attraction, a-b-da, 14, 1, 8, 20, 135, 60, 60, 135, 125, 56, 1, 1.04565
205, 2, bw, attraction, a-b-da, 14, 1, 8, 20, 135, 60, 60, 135, 125, 56, 3, 0.426677
205, 2, bw, attraction, a-b-da, 2, 2, 8, 21, 163, 89, 165, 90, 90, 165, 3, 0.69511
205, 2, bw, attraction, a-b-da, 2, 2, 8, 21, 163, 89, 165, 90, 90, 165, 2, 0.498178
205, 2, bw, attraction, a-b-db, 14, 2, 8, 22, 90, 165, 165, 90, 83, 153, 2, 0.604011
205, 2, bw, attraction, a-b-db, 14, 2, 8, 22, 90, 165, 165, 90, 83, 153, 1, 0.322552
205, 2, bw, attraction, a-b-da, 9, 2, 8, 23, 165, 90, 157, 86, 90, 165, 1, 0.80363
205, 2, bw, attraction, a-b-da, 9, 2, 8, 23, 165, 90, 157, 86, 90, 165, 2, 0.458732
205, 2, bw, filler, NA, 999, 999, 8, 24, 138, 183, 117, 63, 106, 137, 1, 0.66187
205, 2, bw, filler, NA, 999, 999, 8, 24, 138, 183, 117, 63, 106, 137, 2, 0.362223
205, 2, bw, filler, NA, 999, 999, 8, 25, 185, 141, 114, 139, 87, 125, 1, 0.881338
205, 2, bw, filler, NA, 999, 999, 8, 25, 185, 141, 114, 139, 87, 125, 3, 0.51716
205, 2, bw, attraction, a-b-db, 2, 3, 8, 26, 119, 193, 195, 120, 120, 195, 1, 1.38226
205, 2, bw, attraction, a-b-db, 2, 3, 8, 26, 119, 193, 195, 120, 120, 195, 2, 0.421788
205, 2, bw, attraction, a-b-db, 5, 1, 8, 27, 60, 135, 135, 60, 58, 132, 3, 0.746925
205, 2, bw, attraction, a-b-db, 5, 1, 8, 27, 60, 135, 135, 60, 58, 132, 2, 0.307988
205, 2, bw, attraction, a-b-da, 5, 3, 8, 28, 190, 117, 120, 195, 195, 120, 1, 0.62907
205, 2, bw, attraction, a-b-da, 5, 3, 8, 28, 190, 117, 120, 195, 195, 120, 2, 0.3629
205, 2, bw, filler, NA, 999, 999, 8, 29, 102, 130, 143, 190, 154, 156, 2, 0.745991
205, 2, bw, filler, NA, 999, 999, 8, 29, 102, 130, 143, 190, 154, 156, 1, 0.435165
205, 2, bw, filler, NA, 999, 999, 8, 30, 135, 100, 92, 121, 83, 57, 1, 0.711724
205, 2, bw, filler, NA, 999, 999, 8, 30, 135, 100, 92, 121, 83, 57, 3, 0.386125
205, 2, bw, attraction, a-b-da, 2, 1, 8, 31, 134, 59, 60, 135, 135, 60, 1, 0.792462
205, 2, bw, attraction, a-b-da, 2, 1, 8, 31, 134, 59, 60, 135, 135, 60, 3, 0.375554
205, 2, bw, attraction, a-b-db, 14, 3, 8, 32, 120, 195, 111, 181, 195, 120, 3, 0.710072
205, 2, bw, attraction, a-b-db, 14, 3, 8, 32, 120, 195, 111, 181, 195, 120, 2, 0.360457
205, 2, bw, attraction, a-b-db, 9, 1, 8, 33, 135, 60, 57, 129, 60, 135, 1, 0.983565
205, 2, bw, attraction, a-b-db, 9, 1, 8, 33, 135, 60, 57, 129, 60, 135, 2, 0.391319
205, 2, bw, catch, NA, 999, 999, 8, 34, 97, 158, 104, 91, 172, 143, 3, 0.653125
205, 2, bw, catch, NA, 999, 999, 8, 34, 97, 158, 104, 91, 172, 143, 2, 0.658329
205, 2, bw, catch, NA, 999, 999, 8, 35, 106, 89, 91, 164, 141, 174, 3, 0.69326
205, 2, bw, catch, NA, 999, 999, 8, 35, 106, 89, 91, 164, 141, 174, 1, 0.784538
205, 2, bw, attraction, a-b-da, 9, 3, 8, 36, 186, 114, 195, 120, 120, 195, 1, 0.870742
205, 2, bw, attraction, a-b-da, 9, 3, 8, 36, 186, 114, 195, 120, 120, 195, 3, 0.746463
205, 2, bw, attraction, a-b-db, 2, 2, 8, 37, 90, 165, 165, 90, 89, 163, 2, 0.922143
205, 2, bw, attraction, a-b-db, 2, 2, 8, 37, 90, 165, 165, 90, 89, 163, 1, 0.451882
