sub_n, computer_n, bw_cond, effect, set, distance, diag, block_n, trial_n, h1, w1, h2, w2, h3, w3, choice, rt 
28, 2, wb, practice, NA, 999, 999, 0, 1, 98, 71, 78, 71, 193, 171, 2, 3.4343
28, 2, wb, practice, NA, 999, 999, 0, 1, 98, 71, 78, 71, 193, 171, 3, 3.07877
28, 2, wb, practice, NA, 999, 999, 0, 2, 92, 152, 119, 104, 128, 148, 2, 3.94734
28, 2, wb, practice, NA, 999, 999, 0, 2, 92, 152, 119, 104, 128, 148, 3, 1.59573
28, 2, wb, practice, NA, 999, 999, 0, 3, 103, 64, 82, 103, 147, 155, 1, 2.66265
28, 2, wb, practice, NA, 999, 999, 0, 3, 103, 64, 82, 103, 147, 155, 3, 1.10804
28, 2, wb, catch, NA, 999, 999, 1, 1, 86, 109, 103, 152, 135, 180, 1, 2.21648
28, 2, wb, catch, NA, 999, 999, 1, 1, 86, 109, 103, 152, 135, 180, 3, 1.30343
28, 2, wb, attraction, a-b-db, 2, 1, 1, 2, 60, 135, 59, 134, 135, 60, 2, 5.00983
28, 2, wb, attraction, a-b-db, 2, 1, 1, 2, 60, 135, 59, 134, 135, 60, 3, 1.89254
28, 2, wb, attraction, a-b-da, 2, 1, 1, 3, 134, 59, 135, 60, 60, 135, 1, 3.53541
28, 2, wb, attraction, a-b-da, 2, 1, 1, 3, 134, 59, 135, 60, 60, 135, 2, 1.12057
28, 2, wb, attraction, a-b-db, 2, 3, 1, 4, 195, 120, 119, 193, 120, 195, 3, 4.61037
28, 2, wb, attraction, a-b-db, 2, 3, 1, 4, 195, 120, 119, 193, 120, 195, 1, 1.60625
28, 2, wb, attraction, a-b-db, 14, 3, 1, 5, 111, 181, 195, 120, 120, 195, 1, 1.90997
28, 2, wb, attraction, a-b-db, 14, 3, 1, 5, 111, 181, 195, 120, 120, 195, 3, 1.01835
28, 2, wb, filler, NA, 999, 999, 1, 6, 72, 83, 114, 171, 81, 184, 1, 1.30822
28, 2, wb, filler, NA, 999, 999, 1, 6, 72, 83, 114, 171, 81, 184, 2, 0.83959
28, 2, wb, attraction, a-b-da, 9, 3, 1, 7, 195, 120, 120, 195, 186, 114, 1, 2.1486
28, 2, wb, attraction, a-b-da, 9, 3, 1, 7, 195, 120, 120, 195, 186, 114, 2, 0.981666
28, 2, wb, attraction, a-b-da, 9, 1, 1, 8, 135, 60, 129, 57, 60, 135, 1, 3.15548
28, 2, wb, attraction, a-b-da, 9, 1, 1, 8, 135, 60, 129, 57, 60, 135, 3, 0.738546
28, 2, wb, attraction, a-b-db, 5, 3, 1, 9, 195, 120, 120, 195, 117, 190, 1, 5.84376
28, 2, wb, attraction, a-b-db, 5, 3, 1, 9, 195, 120, 120, 195, 117, 190, 2, 0.967116
28, 2, wb, attraction, a-b-db, 14, 2, 1, 10, 90, 165, 83, 153, 165, 90, 3, 3.05522
28, 2, wb, attraction, a-b-db, 14, 2, 1, 10, 90, 165, 83, 153, 165, 90, 1, 0.907618
28, 2, wb, filler, NA, 999, 999, 1, 11, 85, 65, 183, 158, 89, 174, 1, 1.4701
28, 2, wb, filler, NA, 999, 999, 1, 11, 85, 65, 183, 158, 89, 174, 2, 1.2088
28, 2, wb, attraction, a-b-da, 14, 2, 1, 12, 90, 165, 153, 83, 165, 90, 2, 2.07831
28, 2, wb, attraction, a-b-da, 14, 2, 1, 12, 90, 165, 153, 83, 165, 90, 1, 0.92821
28, 2, wb, catch, NA, 999, 999, 1, 13, 135, 60, 143, 112, 191, 124, 1, 1.73107
28, 2, wb, catch, NA, 999, 999, 1, 13, 135, 60, 143, 112, 191, 124, 3, 0.772511
28, 2, wb, attraction, a-b-db, 2, 2, 1, 14, 90, 165, 165, 90, 89, 163, 2, 2.81126
28, 2, wb, attraction, a-b-db, 2, 2, 1, 14, 90, 165, 165, 90, 89, 163, 1, 0.889242
28, 2, wb, attraction, a-b-da, 9, 2, 1, 15, 165, 90, 157, 86, 90, 165, 2, 3.72996
28, 2, wb, attraction, a-b-da, 9, 2, 1, 15, 165, 90, 157, 86, 90, 165, 3, 0.780895
28, 2, wb, attraction, a-b-db, 9, 2, 1, 16, 90, 165, 165, 90, 86, 157, 2, 1.73724
28, 2, wb, attraction, a-b-db, 9, 2, 1, 16, 90, 165, 165, 90, 86, 157, 1, 0.834851
28, 2, wb, attraction, a-b-da, 2, 3, 1, 17, 195, 120, 120, 195, 193, 119, 3, 2.32745
28, 2, wb, attraction, a-b-da, 2, 3, 1, 17, 195, 120, 120, 195, 193, 119, 2, 0.784718
28, 2, wb, filler, NA, 999, 999, 1, 18, 118, 168, 56, 110, 118, 146, 2, 1.40845
28, 2, wb, filler, NA, 999, 999, 1, 18, 118, 168, 56, 110, 118, 146, 1, 0.766948
28, 2, wb, attraction, a-b-da, 14, 1, 1, 19, 135, 60, 125, 56, 60, 135, 2, 1.6597
28, 2, wb, attraction, a-b-da, 14, 1, 1, 19, 135, 60, 125, 56, 60, 135, 3, 0.721133
28, 2, wb, attraction, a-b-da, 5, 2, 1, 20, 165, 90, 90, 165, 161, 88, 3, 1.54602
28, 2, wb, attraction, a-b-da, 5, 2, 1, 20, 165, 90, 90, 165, 161, 88, 2, 0.715303
28, 2, wb, attraction, a-b-da, 5, 1, 1, 21, 135, 60, 60, 135, 132, 58, 3, 2.2847
28, 2, wb, attraction, a-b-da, 5, 1, 1, 21, 135, 60, 60, 135, 132, 58, 2, 0.626653
28, 2, wb, filler, NA, 999, 999, 1, 22, 116, 140, 69, 57, 154, 132, 2, 1.41343
28, 2, wb, filler, NA, 999, 999, 1, 22, 116, 140, 69, 57, 154, 132, 3, 0.693356
28, 2, wb, filler, NA, 999, 999, 1, 23, 180, 86, 86, 128, 103, 138, 2, 3.0784
28, 2, wb, filler, NA, 999, 999, 1, 23, 180, 86, 86, 128, 103, 138, 1, 1.23439
28, 2, wb, attraction, a-b-db, 9, 3, 1, 24, 195, 120, 120, 195, 114, 186, 3, 1.71766
28, 2, wb, attraction, a-b-db, 9, 3, 1, 24, 195, 120, 120, 195, 114, 186, 2, 1.66306
28, 2, wb, attraction, a-b-db, 5, 2, 1, 25, 90, 165, 165, 90, 88, 161, 2, 1.52953
28, 2, wb, attraction, a-b-db, 5, 2, 1, 25, 90, 165, 165, 90, 88, 161, 1, 1.16669
28, 2, wb, filler, NA, 999, 999, 1, 26, 172, 92, 153, 93, 134, 95, 3, 2.42774
28, 2, wb, filler, NA, 999, 999, 1, 26, 172, 92, 153, 93, 134, 95, 1, 0.81583
28, 2, wb, attraction, a-b-da, 2, 2, 1, 27, 163, 89, 165, 90, 90, 165, 1, 1.74918
28, 2, wb, attraction, a-b-da, 2, 2, 1, 27, 163, 89, 165, 90, 90, 165, 3, 1.19921
28, 2, wb, filler, NA, 999, 999, 1, 28, 84, 59, 144, 119, 110, 102, 1, 1.15472
28, 2, wb, filler, NA, 999, 999, 1, 28, 84, 59, 144, 119, 110, 102, 2, 0.731851
28, 2, wb, attraction, a-b-db, 14, 1, 1, 29, 60, 135, 56, 125, 135, 60, 3, 2.38144
28, 2, wb, attraction, a-b-db, 14, 1, 1, 29, 60, 135, 56, 125, 135, 60, 2, 0.707879
28, 2, wb, filler, NA, 999, 999, 1, 30, 60, 132, 96, 63, 182, 119, 2, 1.38196
28, 2, wb, filler, NA, 999, 999, 1, 30, 60, 132, 96, 63, 182, 119, 3, 0.814448
28, 2, wb, attraction, a-b-db, 5, 1, 1, 31, 60, 135, 58, 132, 135, 60, 2, 2.43325
28, 2, wb, attraction, a-b-db, 5, 1, 1, 31, 60, 135, 58, 132, 135, 60, 3, 0.608852
28, 2, wb, filler, NA, 999, 999, 1, 32, 91, 121, 139, 180, 135, 179, 1, 1.73337
28, 2, wb, filler, NA, 999, 999, 1, 32, 91, 121, 139, 180, 135, 179, 2, 0.862916
28, 2, wb, attraction, a-b-da, 14, 3, 1, 33, 181, 111, 120, 195, 195, 120, 1, 1.9475
28, 2, wb, attraction, a-b-da, 14, 3, 1, 33, 181, 111, 120, 195, 195, 120, 2, 0.571313
28, 2, wb, attraction, a-b-da, 5, 3, 1, 34, 190, 117, 195, 120, 120, 195, 1, 1.82481
28, 2, wb, attraction, a-b-da, 5, 3, 1, 34, 190, 117, 195, 120, 120, 195, 3, 1.53516
28, 2, wb, attraction, a-b-db, 9, 1, 1, 35, 135, 60, 57, 129, 60, 135, 3, 1.82575
28, 2, wb, attraction, a-b-db, 9, 1, 1, 35, 135, 60, 57, 129, 60, 135, 2, 0.701717
28, 2, wb, catch, NA, 999, 999, 1, 36, 102, 93, 153, 162, 143, 112, 1, 1.20142
28, 2, wb, catch, NA, 999, 999, 1, 36, 102, 93, 153, 162, 143, 112, 2, 0.713238
28, 2, wb, filler, NA, 999, 999, 1, 37, 78, 83, 60, 143, 98, 98, 1, 1.97766
28, 2, wb, filler, NA, 999, 999, 1, 37, 78, 83, 60, 143, 98, 98, 3, 0.855627
28, 2, wb, attraction, a-b-db, 14, 1, 2, 1, 56, 125, 60, 135, 135, 60, 1, 1.68306
28, 2, wb, attraction, a-b-db, 14, 1, 2, 1, 56, 125, 60, 135, 135, 60, 2, 1.03226
28, 2, wb, attraction, a-b-db, 5, 1, 2, 2, 60, 135, 58, 132, 135, 60, 1, 1.33933
28, 2, wb, attraction, a-b-db, 5, 1, 2, 2, 60, 135, 58, 132, 135, 60, 2, 1.01168
28, 2, wb, attraction, a-b-da, 14, 3, 2, 3, 195, 120, 120, 195, 181, 111, 3, 2.09837
28, 2, wb, attraction, a-b-da, 14, 3, 2, 3, 195, 120, 120, 195, 181, 111, 2, 0.708941
28, 2, wb, catch, NA, 999, 999, 2, 4, 170, 145, 142, 113, 63, 132, 3, 1.34446
28, 2, wb, catch, NA, 999, 999, 2, 4, 170, 145, 142, 113, 63, 132, 1, 0.890116
28, 2, wb, attraction, a-b-da, 9, 1, 2, 5, 135, 60, 60, 135, 129, 57, 1, 1.89879
28, 2, wb, attraction, a-b-da, 9, 1, 2, 5, 135, 60, 60, 135, 129, 57, 2, 0.604482
28, 2, wb, attraction, a-b-db, 9, 1, 2, 6, 57, 129, 60, 135, 135, 60, 3, 3.00235
28, 2, wb, attraction, a-b-db, 9, 1, 2, 6, 57, 129, 60, 135, 135, 60, 2, 0.667275
28, 2, wb, catch, NA, 999, 999, 2, 7, 132, 123, 84, 111, 122, 193, 2, 1.4144
28, 2, wb, catch, NA, 999, 999, 2, 7, 132, 123, 84, 111, 122, 193, 3, 0.707819
28, 2, wb, attraction, a-b-db, 9, 3, 2, 8, 114, 186, 195, 120, 120, 195, 1, 1.76316
28, 2, wb, attraction, a-b-db, 9, 3, 2, 8, 114, 186, 195, 120, 120, 195, 3, 0.789107
28, 2, wb, attraction, a-b-da, 14, 1, 2, 9, 135, 60, 60, 135, 125, 56, 1, 1.53166
28, 2, wb, attraction, a-b-da, 14, 1, 2, 9, 135, 60, 60, 135, 125, 56, 2, 0.764957
28, 2, wb, attraction, a-b-da, 2, 3, 2, 10, 193, 119, 120, 195, 195, 120, 1, 2.15541
28, 2, wb, attraction, a-b-da, 2, 3, 2, 10, 193, 119, 120, 195, 195, 120, 2, 0.654029
28, 2, wb, filler, NA, 999, 999, 2, 11, 59, 69, 186, 70, 180, 177, 1, 1.19967
28, 2, wb, filler, NA, 999, 999, 2, 11, 59, 69, 186, 70, 180, 177, 3, 0.629898
28, 2, wb, filler, NA, 999, 999, 2, 12, 185, 112, 66, 75, 70, 191, 2, 1.22735
28, 2, wb, filler, NA, 999, 999, 2, 12, 185, 112, 66, 75, 70, 191, 1, 0.688972
28, 2, wb, filler, NA, 999, 999, 2, 13, 182, 83, 77, 167, 71, 187, 3, 2.81024
28, 2, wb, filler, NA, 999, 999, 2, 13, 182, 83, 77, 167, 71, 187, 2, 0.715684
28, 2, wb, attraction, a-b-da, 9, 3, 2, 14, 120, 195, 186, 114, 195, 120, 2, 2.27611
28, 2, wb, attraction, a-b-da, 9, 3, 2, 14, 120, 195, 186, 114, 195, 120, 1, 0.534561
28, 2, wb, attraction, a-b-db, 2, 2, 2, 15, 89, 163, 165, 90, 90, 165, 2, 1.42547
28, 2, wb, attraction, a-b-db, 2, 2, 2, 15, 89, 163, 165, 90, 90, 165, 3, 0.540653
28, 2, wb, attraction, a-b-db, 5, 2, 2, 16, 90, 165, 165, 90, 88, 161, 2, 1.12516
28, 2, wb, attraction, a-b-db, 5, 2, 2, 16, 90, 165, 165, 90, 88, 161, 1, 0.623575
28, 2, wb, attraction, a-b-db, 2, 3, 2, 17, 120, 195, 195, 120, 119, 193, 2, 2.26757
28, 2, wb, attraction, a-b-db, 2, 3, 2, 17, 120, 195, 195, 120, 119, 193, 1, 0.627144
28, 2, wb, attraction, a-b-da, 5, 3, 2, 18, 195, 120, 190, 117, 120, 195, 2, 2.24465
28, 2, wb, attraction, a-b-da, 5, 3, 2, 18, 195, 120, 190, 117, 120, 195, 1, 0.546296
28, 2, wb, filler, NA, 999, 999, 2, 19, 124, 106, 78, 184, 121, 117, 1, 3.99357
28, 2, wb, filler, NA, 999, 999, 2, 19, 124, 106, 78, 184, 121, 117, 2, 0.563604
28, 2, wb, attraction, a-b-db, 14, 2, 2, 20, 90, 165, 83, 153, 165, 90, 2, 1.27499
28, 2, wb, attraction, a-b-db, 14, 2, 2, 20, 90, 165, 83, 153, 165, 90, 1, 0.631907
28, 2, wb, filler, NA, 999, 999, 2, 21, 100, 98, 57, 116, 186, 147, 2, 2.10678
28, 2, wb, filler, NA, 999, 999, 2, 21, 100, 98, 57, 116, 186, 147, 3, 0.532511
28, 2, wb, attraction, a-b-db, 14, 3, 2, 22, 195, 120, 120, 195, 111, 181, 3, 2.48635
28, 2, wb, attraction, a-b-db, 14, 3, 2, 22, 195, 120, 120, 195, 111, 181, 2, 0.641047
28, 2, wb, attraction, a-b-da, 5, 2, 2, 23, 90, 165, 165, 90, 161, 88, 3, 1.79674
28, 2, wb, attraction, a-b-da, 5, 2, 2, 23, 90, 165, 165, 90, 161, 88, 1, 2.25207
28, 2, wb, filler, NA, 999, 999, 2, 24, 76, 143, 146, 156, 140, 81, 3, 2.35838
28, 2, wb, filler, NA, 999, 999, 2, 24, 76, 143, 146, 156, 140, 81, 2, 0.537492
28, 2, wb, filler, NA, 999, 999, 2, 25, 148, 132, 127, 179, 155, 185, 1, 1.98342
28, 2, wb, filler, NA, 999, 999, 2, 25, 148, 132, 127, 179, 155, 185, 3, 0.536086
28, 2, wb, attraction, a-b-da, 2, 2, 2, 26, 90, 165, 165, 90, 163, 89, 2, 2.37515
28, 2, wb, attraction, a-b-da, 2, 2, 2, 26, 90, 165, 165, 90, 163, 89, 1, 0.654059
28, 2, wb, filler, NA, 999, 999, 2, 27, 73, 190, 121, 186, 94, 79, 3, 1.6423
28, 2, wb, filler, NA, 999, 999, 2, 27, 73, 190, 121, 186, 94, 79, 2, 1.56165
28, 2, wb, attraction, a-b-db, 9, 2, 2, 28, 86, 157, 165, 90, 90, 165, 1, 1.73707
28, 2, wb, attraction, a-b-db, 9, 2, 2, 28, 86, 157, 165, 90, 90, 165, 3, 0.538646
28, 2, wb, attraction, a-b-db, 5, 3, 2, 29, 117, 190, 120, 195, 195, 120, 3, 1.80059
28, 2, wb, attraction, a-b-db, 5, 3, 2, 29, 117, 190, 120, 195, 195, 120, 2, 0.657388
28, 2, wb, attraction, a-b-db, 2, 1, 2, 30, 59, 134, 135, 60, 60, 135, 3, 2.9876
28, 2, wb, attraction, a-b-db, 2, 1, 2, 30, 59, 134, 135, 60, 60, 135, 2, 0.555234
28, 2, wb, attraction, a-b-da, 2, 1, 2, 31, 135, 60, 60, 135, 134, 59, 3, 1.53355
28, 2, wb, attraction, a-b-da, 2, 1, 2, 31, 135, 60, 60, 135, 134, 59, 2, 0.5656
28, 2, wb, attraction, a-b-da, 9, 2, 2, 32, 157, 86, 165, 90, 90, 165, 1, 2.63775
28, 2, wb, attraction, a-b-da, 9, 2, 2, 32, 157, 86, 165, 90, 90, 165, 3, 0.600767
28, 2, wb, attraction, a-b-da, 14, 2, 2, 33, 153, 83, 165, 90, 90, 165, 1, 1.34988
28, 2, wb, attraction, a-b-da, 14, 2, 2, 33, 153, 83, 165, 90, 90, 165, 2, 0.728923
28, 2, wb, attraction, a-b-da, 5, 1, 2, 34, 132, 58, 135, 60, 60, 135, 1, 1.84938
28, 2, wb, attraction, a-b-da, 5, 1, 2, 34, 132, 58, 135, 60, 60, 135, 2, 1.21332
28, 2, wb, filler, NA, 999, 999, 2, 35, 116, 139, 173, 165, 97, 148, 1, 1.41179
28, 2, wb, filler, NA, 999, 999, 2, 35, 116, 139, 173, 165, 97, 148, 2, 0.618367
28, 2, wb, catch, NA, 999, 999, 2, 36, 105, 90, 140, 115, 137, 178, 1, 1.18369
28, 2, wb, catch, NA, 999, 999, 2, 36, 105, 90, 140, 115, 137, 178, 3, 0.773711
28, 2, wb, filler, NA, 999, 999, 2, 37, 94, 167, 157, 170, 165, 131, 1, 2.27063
28, 2, wb, filler, NA, 999, 999, 2, 37, 94, 167, 157, 170, 165, 131, 2, 0.610774
28, 2, wb, catch, NA, 999, 999, 3, 1, 171, 144, 159, 96, 131, 64, 3, 1.63828
28, 2, wb, catch, NA, 999, 999, 3, 1, 171, 144, 159, 96, 131, 64, 1, 0.564366
28, 2, wb, attraction, a-b-db, 2, 2, 3, 2, 90, 165, 165, 90, 89, 163, 2, 1.26122
28, 2, wb, attraction, a-b-db, 2, 2, 3, 2, 90, 165, 165, 90, 89, 163, 1, 0.600472
28, 2, wb, filler, NA, 999, 999, 3, 3, 95, 119, 101, 165, 66, 115, 3, 2.08387
28, 2, wb, filler, NA, 999, 999, 3, 3, 95, 119, 101, 165, 66, 115, 2, 0.562357
28, 2, wb, filler, NA, 999, 999, 3, 4, 137, 100, 170, 58, 151, 160, 2, 2.62414
28, 2, wb, filler, NA, 999, 999, 3, 4, 137, 100, 170, 58, 151, 160, 3, 1.59944
28, 2, wb, attraction, a-b-db, 14, 3, 3, 5, 120, 195, 195, 120, 111, 181, 3, 1.65925
28, 2, wb, attraction, a-b-db, 14, 3, 3, 5, 120, 195, 195, 120, 111, 181, 1, 0.607913
28, 2, wb, catch, NA, 999, 999, 3, 6, 81, 114, 153, 102, 150, 165, 1, 1.5756
28, 2, wb, catch, NA, 999, 999, 3, 6, 81, 114, 153, 102, 150, 165, 3, 0.573684
28, 2, wb, attraction, a-b-da, 14, 3, 3, 7, 181, 111, 120, 195, 195, 120, 1, 2.09404
28, 2, wb, attraction, a-b-da, 14, 3, 3, 7, 181, 111, 120, 195, 195, 120, 2, 0.775051
28, 2, wb, attraction, a-b-da, 14, 2, 3, 8, 153, 83, 90, 165, 165, 90, 1, 1.67859
28, 2, wb, attraction, a-b-da, 14, 2, 3, 8, 153, 83, 90, 165, 165, 90, 2, 0.602548
28, 2, wb, filler, NA, 999, 999, 3, 9, 56, 137, 153, 107, 62, 63, 3, 1.16878
28, 2, wb, filler, NA, 999, 999, 3, 9, 56, 137, 153, 107, 62, 63, 2, 0.657616
28, 2, wb, attraction, a-b-da, 5, 1, 3, 10, 132, 58, 135, 60, 60, 135, 1, 1.33346
28, 2, wb, attraction, a-b-da, 5, 1, 3, 10, 132, 58, 135, 60, 60, 135, 3, 0.550718
28, 2, wb, filler, NA, 999, 999, 3, 11, 109, 174, 168, 70, 59, 137, 3, 1.60619
28, 2, wb, filler, NA, 999, 999, 3, 11, 109, 174, 168, 70, 59, 137, 1, 0.62875
28, 2, wb, filler, NA, 999, 999, 3, 12, 92, 102, 95, 160, 154, 104, 1, 1.11188
28, 2, wb, filler, NA, 999, 999, 3, 12, 92, 102, 95, 160, 154, 104, 3, 0.892364
28, 2, wb, filler, NA, 999, 999, 3, 13, 151, 107, 186, 104, 146, 111, 1, 2.23749
28, 2, wb, filler, NA, 999, 999, 3, 13, 151, 107, 186, 104, 146, 111, 2, 1.19745
28, 2, wb, filler, NA, 999, 999, 3, 14, 112, 148, 156, 86, 76, 147, 3, 1.41814
28, 2, wb, filler, NA, 999, 999, 3, 14, 112, 148, 156, 86, 76, 147, 1, 0.736156
28, 2, wb, attraction, a-b-db, 9, 1, 3, 15, 57, 129, 135, 60, 60, 135, 1, 1.49618
28, 2, wb, attraction, a-b-db, 9, 1, 3, 15, 57, 129, 135, 60, 60, 135, 2, 0.659908
28, 2, wb, attraction, a-b-da, 5, 3, 3, 16, 195, 120, 120, 195, 190, 117, 1, 1.37407
28, 2, wb, attraction, a-b-da, 5, 3, 3, 16, 195, 120, 120, 195, 190, 117, 2, 0.637783
28, 2, wb, attraction, a-b-db, 14, 1, 3, 17, 135, 60, 56, 125, 60, 135, 2, 1.66734
28, 2, wb, attraction, a-b-db, 14, 1, 3, 17, 135, 60, 56, 125, 60, 135, 3, 1.51041
28, 2, wb, attraction, a-b-db, 5, 1, 3, 18, 60, 135, 135, 60, 58, 132, 2, 1.33715
28, 2, wb, attraction, a-b-db, 5, 1, 3, 18, 60, 135, 135, 60, 58, 132, 1, 1.73105
28, 2, wb, attraction, a-b-db, 5, 2, 3, 19, 90, 165, 88, 161, 165, 90, 2, 1.30454
28, 2, wb, attraction, a-b-db, 5, 2, 3, 19, 90, 165, 88, 161, 165, 90, 1, 0.780428
28, 2, wb, attraction, a-b-da, 9, 3, 3, 20, 120, 195, 195, 120, 186, 114, 3, 2.04523
28, 2, wb, attraction, a-b-da, 9, 3, 3, 20, 120, 195, 195, 120, 186, 114, 1, 0.600558
28, 2, wb, attraction, a-b-db, 9, 2, 3, 21, 90, 165, 86, 157, 165, 90, 2, 1.68677
28, 2, wb, attraction, a-b-db, 9, 2, 3, 21, 90, 165, 86, 157, 165, 90, 1, 1.16979
28, 2, wb, attraction, a-b-db, 14, 2, 3, 22, 83, 153, 90, 165, 165, 90, 1, 1.35257
28, 2, wb, attraction, a-b-db, 14, 2, 3, 22, 83, 153, 90, 165, 165, 90, 2, 0.753545
28, 2, wb, attraction, a-b-da, 14, 1, 3, 23, 125, 56, 135, 60, 60, 135, 1, 1.17659
28, 2, wb, attraction, a-b-da, 14, 1, 3, 23, 125, 56, 135, 60, 60, 135, 2, 0.681656
28, 2, wb, attraction, a-b-da, 2, 1, 3, 24, 60, 135, 135, 60, 134, 59, 1, 1.78776
28, 2, wb, attraction, a-b-da, 2, 1, 3, 24, 60, 135, 135, 60, 134, 59, 3, 0.813198
28, 2, wb, attraction, a-b-da, 9, 1, 3, 25, 135, 60, 60, 135, 129, 57, 3, 1.88246
28, 2, wb, attraction, a-b-da, 9, 1, 3, 25, 135, 60, 60, 135, 129, 57, 2, 0.77171
28, 2, wb, catch, NA, 999, 999, 3, 26, 158, 157, 109, 86, 136, 119, 2, 1.58804
28, 2, wb, catch, NA, 999, 999, 3, 26, 158, 157, 109, 86, 136, 119, 1, 0.61839
28, 2, wb, attraction, a-b-db, 2, 1, 3, 27, 59, 134, 135, 60, 60, 135, 2, 1.18358
28, 2, wb, attraction, a-b-db, 2, 1, 3, 27, 59, 134, 135, 60, 60, 135, 1, 1.3013
28, 2, wb, attraction, a-b-da, 2, 3, 3, 28, 193, 119, 195, 120, 120, 195, 2, 1.50509
28, 2, wb, attraction, a-b-da, 2, 3, 3, 28, 193, 119, 195, 120, 120, 195, 3, 0.788183
28, 2, wb, attraction, a-b-da, 2, 2, 3, 29, 90, 165, 163, 89, 165, 90, 1, 1.64985
28, 2, wb, attraction, a-b-da, 2, 2, 3, 29, 90, 165, 163, 89, 165, 90, 3, 1.58314
28, 2, wb, attraction, a-b-db, 9, 3, 3, 30, 114, 186, 195, 120, 120, 195, 1, 3.76671
28, 2, wb, attraction, a-b-db, 9, 3, 3, 30, 114, 186, 195, 120, 120, 195, 3, 0.805991
28, 2, wb, filler, NA, 999, 999, 3, 31, 80, 195, 80, 185, 111, 143, 2, 2.69746
28, 2, wb, filler, NA, 999, 999, 3, 31, 80, 195, 80, 185, 111, 143, 3, 0.763144
28, 2, wb, attraction, a-b-da, 5, 2, 3, 32, 165, 90, 161, 88, 90, 165, 1, 1.49102
28, 2, wb, attraction, a-b-da, 5, 2, 3, 32, 165, 90, 161, 88, 90, 165, 3, 0.601143
28, 2, wb, attraction, a-b-db, 5, 3, 3, 33, 120, 195, 117, 190, 195, 120, 3, 1.78836
28, 2, wb, attraction, a-b-db, 5, 3, 3, 33, 120, 195, 117, 190, 195, 120, 1, 0.909466
28, 2, wb, attraction, a-b-db, 2, 3, 3, 34, 119, 193, 120, 195, 195, 120, 2, 2.10217
28, 2, wb, attraction, a-b-db, 2, 3, 3, 34, 119, 193, 120, 195, 195, 120, 1, 1.22565
28, 2, wb, attraction, a-b-da, 9, 2, 3, 35, 90, 165, 165, 90, 157, 86, 2, 1.63177
28, 2, wb, attraction, a-b-da, 9, 2, 3, 35, 90, 165, 165, 90, 157, 86, 1, 0.66082
28, 2, wb, filler, NA, 999, 999, 3, 36, 185, 158, 148, 59, 112, 68, 3, 1.2393
28, 2, wb, filler, NA, 999, 999, 3, 36, 185, 158, 148, 59, 112, 68, 1, 0.694365
28, 2, wb, filler, NA, 999, 999, 3, 37, 184, 113, 86, 139, 141, 146, 2, 1.07331
28, 2, wb, filler, NA, 999, 999, 3, 37, 184, 113, 86, 139, 141, 146, 3, 0.690863
28, 2, wb, attraction, a-b-da, 5, 1, 4, 1, 132, 58, 60, 135, 135, 60, 2, 1.20737
28, 2, wb, attraction, a-b-da, 5, 1, 4, 1, 132, 58, 60, 135, 135, 60, 3, 0.708705
28, 2, wb, attraction, a-b-db, 5, 3, 4, 2, 120, 195, 117, 190, 195, 120, 2, 1.1817
28, 2, wb, attraction, a-b-db, 5, 3, 4, 2, 120, 195, 117, 190, 195, 120, 3, 2.10171
28, 2, wb, attraction, a-b-db, 14, 2, 4, 3, 83, 153, 90, 165, 165, 90, 1, 1.3278
28, 2, wb, attraction, a-b-db, 14, 2, 4, 3, 83, 153, 90, 165, 165, 90, 3, 0.602358
28, 2, wb, attraction, a-b-db, 14, 3, 4, 4, 195, 120, 120, 195, 111, 181, 3, 1.87941
28, 2, wb, attraction, a-b-db, 14, 3, 4, 4, 195, 120, 120, 195, 111, 181, 1, 0.609377
28, 2, wb, filler, NA, 999, 999, 4, 5, 81, 183, 138, 60, 103, 103, 3, 1.65458
28, 2, wb, filler, NA, 999, 999, 4, 5, 81, 183, 138, 60, 103, 103, 1, 0.542065
28, 2, wb, attraction, a-b-db, 9, 3, 4, 6, 195, 120, 114, 186, 120, 195, 2, 1.36626
28, 2, wb, attraction, a-b-db, 9, 3, 4, 6, 195, 120, 114, 186, 120, 195, 3, 0.540892
28, 2, wb, filler, NA, 999, 999, 4, 7, 194, 128, 93, 180, 73, 114, 3, 1.4541
28, 2, wb, filler, NA, 999, 999, 4, 7, 194, 128, 93, 180, 73, 114, 1, 0.674688
28, 2, wb, attraction, a-b-db, 9, 1, 4, 8, 60, 135, 57, 129, 135, 60, 2, 2.0382
28, 2, wb, attraction, a-b-db, 9, 1, 4, 8, 60, 135, 57, 129, 135, 60, 3, 0.75551
28, 2, wb, catch, NA, 999, 999, 4, 9, 139, 116, 186, 129, 82, 113, 3, 1.26736
28, 2, wb, catch, NA, 999, 999, 4, 9, 139, 116, 186, 129, 82, 113, 2, 0.96797
28, 2, wb, attraction, a-b-da, 5, 2, 4, 10, 161, 88, 90, 165, 165, 90, 2, 1.85246
28, 2, wb, attraction, a-b-da, 5, 2, 4, 10, 161, 88, 90, 165, 165, 90, 3, 3.95341
28, 2, wb, attraction, a-b-db, 5, 1, 4, 11, 58, 132, 60, 135, 135, 60, 3, 2.36079
28, 2, wb, attraction, a-b-db, 5, 1, 4, 11, 58, 132, 60, 135, 135, 60, 2, 1.94571
28, 2, wb, filler, NA, 999, 999, 4, 12, 75, 170, 170, 182, 168, 109, 1, 1.73709
28, 2, wb, filler, NA, 999, 999, 4, 12, 75, 170, 170, 182, 168, 109, 2, 2.24313
28, 2, wb, attraction, a-b-da, 9, 3, 4, 13, 186, 114, 195, 120, 120, 195, 1, 1.36713
28, 2, wb, attraction, a-b-da, 9, 3, 4, 13, 186, 114, 195, 120, 120, 195, 2, 0.967528
28, 2, wb, filler, NA, 999, 999, 4, 14, 144, 129, 105, 132, 108, 99, 3, 1.02079
28, 2, wb, filler, NA, 999, 999, 4, 14, 144, 129, 105, 132, 108, 99, 1, 0.748143
28, 2, wb, attraction, a-b-db, 2, 3, 4, 15, 119, 193, 120, 195, 195, 120, 2, 1.37218
28, 2, wb, attraction, a-b-db, 2, 3, 4, 15, 119, 193, 120, 195, 195, 120, 1, 0.589237
28, 2, wb, catch, NA, 999, 999, 4, 16, 171, 144, 98, 157, 130, 65, 3, 6.51536
28, 2, wb, catch, NA, 999, 999, 4, 16, 171, 144, 98, 157, 130, 65, 1, 0.658603
28, 2, wb, filler, NA, 999, 999, 4, 17, 175, 95, 153, 87, 128, 189, 1, 1.27002
28, 2, wb, filler, NA, 999, 999, 4, 17, 175, 95, 153, 87, 128, 189, 3, 0.563221
28, 2, wb, attraction, a-b-db, 2, 1, 4, 18, 59, 134, 135, 60, 60, 135, 2, 1.64512
28, 2, wb, attraction, a-b-db, 2, 1, 4, 18, 59, 134, 135, 60, 60, 135, 3, 1.82559
28, 2, wb, catch, NA, 999, 999, 4, 19, 74, 121, 130, 125, 152, 163, 1, 1.12483
28, 2, wb, catch, NA, 999, 999, 4, 19, 74, 121, 130, 125, 152, 163, 3, 0.703257
28, 2, wb, attraction, a-b-da, 2, 1, 4, 20, 135, 60, 60, 135, 134, 59, 2, 1.59315
28, 2, wb, attraction, a-b-da, 2, 1, 4, 20, 135, 60, 60, 135, 134, 59, 1, 0.75197
28, 2, wb, attraction, a-b-db, 2, 2, 4, 21, 90, 165, 165, 90, 89, 163, 3, 1.73557
28, 2, wb, attraction, a-b-db, 2, 2, 4, 21, 90, 165, 165, 90, 89, 163, 1, 1.06578
28, 2, wb, attraction, a-b-da, 9, 2, 4, 22, 157, 86, 90, 165, 165, 90, 3, 1.53268
28, 2, wb, attraction, a-b-da, 9, 2, 4, 22, 157, 86, 90, 165, 165, 90, 2, 0.732279
28, 2, wb, filler, NA, 999, 999, 4, 23, 99, 104, 85, 93, 194, 182, 2, 1.62095
28, 2, wb, filler, NA, 999, 999, 4, 23, 99, 104, 85, 93, 194, 182, 3, 1.08287
28, 2, wb, filler, NA, 999, 999, 4, 24, 71, 185, 102, 158, 191, 97, 1, 3.27875
28, 2, wb, filler, NA, 999, 999, 4, 24, 71, 185, 102, 158, 191, 97, 2, 1.88118
28, 2, wb, attraction, a-b-da, 2, 3, 4, 25, 120, 195, 195, 120, 193, 119, 2, 2.36412
28, 2, wb, attraction, a-b-da, 2, 3, 4, 25, 120, 195, 195, 120, 193, 119, 1, 0.756941
28, 2, wb, attraction, a-b-da, 14, 2, 4, 26, 90, 165, 165, 90, 153, 83, 1, 1.54474
28, 2, wb, attraction, a-b-da, 14, 2, 4, 26, 90, 165, 165, 90, 153, 83, 2, 0.715263
28, 2, wb, attraction, a-b-db, 9, 2, 4, 27, 165, 90, 90, 165, 86, 157, 1, 1.14885
28, 2, wb, attraction, a-b-db, 9, 2, 4, 27, 165, 90, 90, 165, 86, 157, 2, 0.70969
28, 2, wb, attraction, a-b-db, 14, 1, 4, 28, 60, 135, 56, 125, 135, 60, 1, 1.98981
28, 2, wb, attraction, a-b-db, 14, 1, 4, 28, 60, 135, 56, 125, 135, 60, 2, 0.670902
28, 2, wb, filler, NA, 999, 999, 4, 29, 72, 101, 108, 81, 69, 148, 1, 1.13649
28, 2, wb, filler, NA, 999, 999, 4, 29, 72, 101, 108, 81, 69, 148, 2, 0.705133
28, 2, wb, attraction, a-b-da, 2, 2, 4, 30, 90, 165, 165, 90, 163, 89, 2, 1.32575
28, 2, wb, attraction, a-b-da, 2, 2, 4, 30, 90, 165, 165, 90, 163, 89, 1, 0.653964
28, 2, wb, filler, NA, 999, 999, 4, 31, 104, 112, 111, 91, 122, 112, 2, 0.980392
28, 2, wb, filler, NA, 999, 999, 4, 31, 104, 112, 111, 91, 122, 112, 3, 0.569685
28, 2, wb, attraction, a-b-da, 5, 3, 4, 32, 195, 120, 190, 117, 120, 195, 2, 1.62699
28, 2, wb, attraction, a-b-da, 5, 3, 4, 32, 195, 120, 190, 117, 120, 195, 3, 0.737055
28, 2, wb, attraction, a-b-da, 9, 1, 4, 33, 135, 60, 60, 135, 129, 57, 1, 1.06245
28, 2, wb, attraction, a-b-da, 9, 1, 4, 33, 135, 60, 60, 135, 129, 57, 2, 0.67479
28, 2, wb, attraction, a-b-db, 5, 2, 4, 34, 90, 165, 88, 161, 165, 90, 2, 1.54328
28, 2, wb, attraction, a-b-db, 5, 2, 4, 34, 90, 165, 88, 161, 165, 90, 1, 0.695697
28, 2, wb, filler, NA, 999, 999, 4, 35, 170, 97, 173, 73, 119, 136, 2, 1.33909
28, 2, wb, filler, NA, 999, 999, 4, 35, 170, 97, 173, 73, 119, 136, 3, 0.685077
28, 2, wb, attraction, a-b-da, 14, 3, 4, 36, 181, 111, 195, 120, 120, 195, 1, 1.63005
28, 2, wb, attraction, a-b-da, 14, 3, 4, 36, 181, 111, 195, 120, 120, 195, 3, 0.628427
28, 2, wb, attraction, a-b-da, 14, 1, 4, 37, 60, 135, 135, 60, 125, 56, 2, 1.29791
28, 2, wb, attraction, a-b-da, 14, 1, 4, 37, 60, 135, 135, 60, 125, 56, 1, 1.34045
28, 2, wb, attraction, a-b-db, 9, 2, 5, 1, 165, 90, 90, 165, 86, 157, 1, 2.36186
28, 2, wb, attraction, a-b-db, 9, 2, 5, 1, 165, 90, 90, 165, 86, 157, 2, 0.514409
28, 2, wb, attraction, a-b-db, 14, 3, 5, 2, 111, 181, 195, 120, 120, 195, 1, 1.42022
28, 2, wb, attraction, a-b-db, 14, 3, 5, 2, 111, 181, 195, 120, 120, 195, 2, 0.555428
28, 2, wb, filler, NA, 999, 999, 5, 3, 139, 73, 155, 177, 70, 120, 3, 1.19257
28, 2, wb, filler, NA, 999, 999, 5, 3, 139, 73, 155, 177, 70, 120, 2, 0.663633
28, 2, wb, filler, NA, 999, 999, 5, 4, 102, 166, 70, 96, 122, 126, 2, 1.27089
28, 2, wb, filler, NA, 999, 999, 5, 4, 102, 166, 70, 96, 122, 126, 3, 0.587266
28, 2, wb, filler, NA, 999, 999, 5, 5, 170, 146, 86, 80, 101, 106, 2, 0.967428
28, 2, wb, filler, NA, 999, 999, 5, 5, 170, 146, 86, 80, 101, 106, 1, 0.583624
28, 2, wb, attraction, a-b-da, 9, 2, 5, 6, 157, 86, 165, 90, 90, 165, 1, 1.32705
28, 2, wb, attraction, a-b-da, 9, 2, 5, 6, 157, 86, 165, 90, 90, 165, 2, 0.569761
28, 2, wb, attraction, a-b-da, 5, 3, 5, 7, 120, 195, 195, 120, 190, 117, 2, 1.75975
28, 2, wb, attraction, a-b-da, 5, 3, 5, 7, 120, 195, 195, 120, 190, 117, 1, 0.558524
28, 2, wb, attraction, a-b-db, 2, 2, 5, 8, 90, 165, 89, 163, 165, 90, 2, 1.13416
28, 2, wb, attraction, a-b-db, 2, 2, 5, 8, 90, 165, 89, 163, 165, 90, 1, 0.791332
28, 2, wb, filler, NA, 999, 999, 5, 9, 173, 103, 159, 193, 143, 139, 1, 1.27824
28, 2, wb, filler, NA, 999, 999, 5, 9, 173, 103, 159, 193, 143, 139, 2, 0.570269
28, 2, wb, attraction, a-b-da, 5, 1, 5, 10, 132, 58, 60, 135, 135, 60, 1, 1.20798
28, 2, wb, attraction, a-b-da, 5, 1, 5, 10, 132, 58, 60, 135, 135, 60, 2, 0.527836
28, 2, wb, attraction, a-b-da, 14, 1, 5, 11, 125, 56, 60, 135, 135, 60, 1, 1.13087
28, 2, wb, attraction, a-b-da, 14, 1, 5, 11, 125, 56, 60, 135, 135, 60, 2, 0.685114
28, 2, wb, attraction, a-b-da, 14, 2, 5, 12, 153, 83, 90, 165, 165, 90, 1, 1.43675
28, 2, wb, attraction, a-b-da, 14, 2, 5, 12, 153, 83, 90, 165, 165, 90, 2, 0.577783
28, 2, wb, filler, NA, 999, 999, 5, 13, 91, 113, 146, 99, 195, 130, 1, 1.09833
28, 2, wb, filler, NA, 999, 999, 5, 13, 91, 113, 146, 99, 195, 130, 3, 0.596703
28, 2, wb, catch, NA, 999, 999, 5, 14, 149, 106, 69, 126, 193, 122, 2, 1.06027
28, 2, wb, catch, NA, 999, 999, 5, 14, 149, 106, 69, 126, 193, 122, 3, 0.535118
28, 2, wb, filler, NA, 999, 999, 5, 15, 57, 56, 113, 178, 150, 103, 1, 1.15996
28, 2, wb, filler, NA, 999, 999, 5, 15, 57, 56, 113, 178, 150, 103, 2, 1.72074
28, 2, wb, attraction, a-b-db, 2, 3, 5, 16, 120, 195, 195, 120, 119, 193, 1, 1.67161
28, 2, wb, attraction, a-b-db, 2, 3, 5, 16, 120, 195, 195, 120, 119, 193, 2, 1.85461
28, 2, wb, attraction, a-b-db, 9, 1, 5, 17, 60, 135, 135, 60, 57, 129, 1, 1.2965
28, 2, wb, attraction, a-b-db, 9, 1, 5, 17, 60, 135, 135, 60, 57, 129, 2, 0.684595
28, 2, wb, attraction, a-b-db, 14, 2, 5, 18, 165, 90, 90, 165, 83, 153, 3, 1.50313
28, 2, wb, attraction, a-b-db, 14, 2, 5, 18, 165, 90, 90, 165, 83, 153, 1, 0.952617
28, 2, wb, catch, NA, 999, 999, 5, 19, 102, 93, 153, 162, 105, 150, 1, 1.2418
28, 2, wb, catch, NA, 999, 999, 5, 19, 102, 93, 153, 162, 105, 150, 2, 0.693258
28, 2, wb, attraction, a-b-db, 2, 1, 5, 20, 60, 135, 59, 134, 135, 60, 2, 1.60762
28, 2, wb, attraction, a-b-db, 2, 1, 5, 20, 60, 135, 59, 134, 135, 60, 1, 0.696079
28, 2, wb, attraction, a-b-da, 9, 3, 5, 21, 120, 195, 195, 120, 186, 114, 2, 1.12273
28, 2, wb, attraction, a-b-da, 9, 3, 5, 21, 120, 195, 195, 120, 186, 114, 1, 0.565927
28, 2, wb, attraction, a-b-db, 14, 1, 5, 22, 135, 60, 56, 125, 60, 135, 2, 1.26667
28, 2, wb, attraction, a-b-db, 14, 1, 5, 22, 135, 60, 56, 125, 60, 135, 1, 1.42356
28, 2, wb, filler, NA, 999, 999, 5, 23, 65, 99, 62, 78, 82, 126, 2, 0.994936
28, 2, wb, filler, NA, 999, 999, 5, 23, 65, 99, 62, 78, 82, 126, 3, 0.685429
28, 2, wb, attraction, a-b-da, 14, 3, 5, 24, 120, 195, 195, 120, 181, 111, 3, 1.98002
28, 2, wb, attraction, a-b-da, 14, 3, 5, 24, 120, 195, 195, 120, 181, 111, 1, 0.598754
28, 2, wb, attraction, a-b-da, 2, 2, 5, 25, 90, 165, 165, 90, 163, 89, 2, 1.04107
28, 2, wb, attraction, a-b-da, 2, 2, 5, 25, 90, 165, 165, 90, 163, 89, 1, 0.631561
28, 2, wb, attraction, a-b-db, 5, 1, 5, 26, 58, 132, 135, 60, 60, 135, 1, 1.39829
28, 2, wb, attraction, a-b-db, 5, 1, 5, 26, 58, 132, 135, 60, 60, 135, 2, 0.597535
28, 2, wb, attraction, a-b-da, 9, 1, 5, 27, 129, 57, 135, 60, 60, 135, 1, 1.30498
28, 2, wb, attraction, a-b-da, 9, 1, 5, 27, 129, 57, 135, 60, 60, 135, 2, 0.564488
28, 2, wb, attraction, a-b-db, 9, 3, 5, 28, 195, 120, 114, 186, 120, 195, 1, 1.24409
28, 2, wb, attraction, a-b-db, 9, 3, 5, 28, 195, 120, 114, 186, 120, 195, 2, 0.537433
28, 2, wb, attraction, a-b-da, 5, 2, 5, 29, 90, 165, 161, 88, 165, 90, 1, 1.10351
28, 2, wb, attraction, a-b-da, 5, 2, 5, 29, 90, 165, 161, 88, 165, 90, 2, 0.555976
28, 2, wb, filler, NA, 999, 999, 5, 30, 75, 79, 89, 156, 179, 72, 1, 1.06005
28, 2, wb, filler, NA, 999, 999, 5, 30, 75, 79, 89, 156, 179, 72, 2, 0.624646
28, 2, wb, filler, NA, 999, 999, 5, 31, 69, 103, 125, 162, 181, 80, 1, 1.19966
28, 2, wb, filler, NA, 999, 999, 5, 31, 69, 103, 125, 162, 181, 80, 2, 1.74134
28, 2, wb, attraction, a-b-db, 5, 2, 5, 32, 165, 90, 88, 161, 90, 165, 2, 1.31599
28, 2, wb, attraction, a-b-db, 5, 2, 5, 32, 165, 90, 88, 161, 90, 165, 1, 0.632772
28, 2, wb, attraction, a-b-da, 2, 1, 5, 33, 135, 60, 134, 59, 60, 135, 3, 1.2834
28, 2, wb, attraction, a-b-da, 2, 1, 5, 33, 135, 60, 134, 59, 60, 135, 2, 0.663424
28, 2, wb, filler, NA, 999, 999, 5, 34, 123, 140, 183, 179, 143, 170, 1, 1.42602
28, 2, wb, filler, NA, 999, 999, 5, 34, 123, 140, 183, 179, 143, 170, 2, 0.648187
28, 2, wb, catch, NA, 999, 999, 5, 35, 191, 124, 82, 113, 162, 93, 2, 1.12374
28, 2, wb, catch, NA, 999, 999, 5, 35, 191, 124, 82, 113, 162, 93, 1, 0.622179
28, 2, wb, attraction, a-b-db, 5, 3, 5, 36, 195, 120, 120, 195, 117, 190, 2, 1.25252
28, 2, wb, attraction, a-b-db, 5, 3, 5, 36, 195, 120, 120, 195, 117, 190, 1, 0.609442
28, 2, wb, attraction, a-b-da, 2, 3, 5, 37, 120, 195, 193, 119, 195, 120, 2, 1.59812
28, 2, wb, attraction, a-b-da, 2, 3, 5, 37, 120, 195, 193, 119, 195, 120, 3, 1.19802
28, 2, wb, attraction, a-b-db, 2, 3, 6, 1, 119, 193, 120, 195, 195, 120, 1, 1.37037
28, 2, wb, attraction, a-b-db, 2, 3, 6, 1, 119, 193, 120, 195, 195, 120, 2, 0.676598
28, 2, wb, catch, NA, 999, 999, 6, 2, 143, 172, 127, 68, 104, 151, 2, 1.16815
28, 2, wb, catch, NA, 999, 999, 6, 2, 143, 172, 127, 68, 104, 151, 1, 0.629581
28, 2, wb, attraction, a-b-da, 14, 1, 6, 3, 60, 135, 125, 56, 135, 60, 2, 2.80546
28, 2, wb, attraction, a-b-da, 14, 1, 6, 3, 60, 135, 125, 56, 135, 60, 1, 0.802336
28, 2, wb, filler, NA, 999, 999, 6, 4, 176, 135, 114, 79, 107, 134, 2, 0.952325
28, 2, wb, filler, NA, 999, 999, 6, 4, 176, 135, 114, 79, 107, 134, 1, 0.768221
28, 2, wb, attraction, a-b-da, 2, 1, 6, 5, 135, 60, 134, 59, 60, 135, 2, 1.31877
28, 2, wb, attraction, a-b-da, 2, 1, 6, 5, 135, 60, 134, 59, 60, 135, 1, 0.657155
28, 2, wb, attraction, a-b-db, 5, 3, 6, 6, 120, 195, 195, 120, 117, 190, 2, 1.00569
28, 2, wb, attraction, a-b-db, 5, 3, 6, 6, 120, 195, 195, 120, 117, 190, 1, 0.707206
28, 2, wb, attraction, a-b-da, 9, 3, 6, 7, 195, 120, 186, 114, 120, 195, 2, 0.998013
28, 2, wb, attraction, a-b-da, 9, 3, 6, 7, 195, 120, 186, 114, 120, 195, 1, 0.564951
28, 2, wb, attraction, a-b-da, 2, 2, 6, 8, 90, 165, 163, 89, 165, 90, 2, 1.00394
28, 2, wb, attraction, a-b-da, 2, 2, 6, 8, 90, 165, 163, 89, 165, 90, 1, 0.754168
28, 2, wb, attraction, a-b-db, 9, 2, 6, 9, 86, 157, 165, 90, 90, 165, 1, 1.71623
28, 2, wb, attraction, a-b-db, 9, 2, 6, 9, 86, 157, 165, 90, 90, 165, 2, 0.55128
28, 2, wb, attraction, a-b-db, 14, 1, 6, 10, 60, 135, 135, 60, 56, 125, 3, 2.10842
28, 2, wb, attraction, a-b-db, 14, 1, 6, 10, 60, 135, 135, 60, 56, 125, 2, 0.655832
28, 2, wb, attraction, a-b-db, 14, 2, 6, 11, 83, 153, 165, 90, 90, 165, 1, 1.1728
28, 2, wb, attraction, a-b-db, 14, 2, 6, 11, 83, 153, 165, 90, 90, 165, 2, 0.611135
28, 2, wb, filler, NA, 999, 999, 6, 12, 83, 66, 137, 85, 162, 118, 1, 2.83406
28, 2, wb, filler, NA, 999, 999, 6, 12, 83, 66, 137, 85, 162, 118, 3, 0.748537
28, 2, wb, filler, NA, 999, 999, 6, 13, 88, 79, 156, 78, 140, 88, 1, 1.34316
28, 2, wb, filler, NA, 999, 999, 6, 13, 88, 79, 156, 78, 140, 88, 2, 0.737047
28, 2, wb, filler, NA, 999, 999, 6, 14, 72, 61, 107, 98, 150, 56, 1, 1.0955
28, 2, wb, filler, NA, 999, 999, 6, 14, 72, 61, 107, 98, 150, 56, 2, 0.762604
28, 2, wb, attraction, a-b-da, 5, 2, 6, 15, 165, 90, 161, 88, 90, 165, 2, 1.31344
28, 2, wb, attraction, a-b-da, 5, 2, 6, 15, 165, 90, 161, 88, 90, 165, 1, 0.709764
28, 2, wb, catch, NA, 999, 999, 6, 16, 147, 108, 62, 133, 184, 131, 2, 1.07901
28, 2, wb, catch, NA, 999, 999, 6, 16, 147, 108, 62, 133, 184, 131, 3, 0.628182
28, 2, wb, attraction, a-b-db, 2, 1, 6, 17, 59, 134, 135, 60, 60, 135, 2, 1.32704
28, 2, wb, attraction, a-b-db, 2, 1, 6, 17, 59, 134, 135, 60, 60, 135, 3, 0.704392
28, 2, wb, attraction, a-b-da, 5, 1, 6, 18, 135, 60, 60, 135, 132, 58, 2, 1.13979
28, 2, wb, attraction, a-b-da, 5, 1, 6, 18, 135, 60, 60, 135, 132, 58, 1, 0.68628
28, 2, wb, attraction, a-b-db, 5, 1, 6, 19, 135, 60, 60, 135, 58, 132, 2, 0.98237
28, 2, wb, attraction, a-b-db, 5, 1, 6, 19, 135, 60, 60, 135, 58, 132, 1, 0.621083
28, 2, wb, attraction, a-b-da, 14, 2, 6, 20, 90, 165, 153, 83, 165, 90, 2, 1.24518
28, 2, wb, attraction, a-b-da, 14, 2, 6, 20, 90, 165, 153, 83, 165, 90, 1, 0.551961
28, 2, wb, catch, NA, 999, 999, 6, 21, 107, 148, 96, 99, 172, 143, 2, 1.01581
28, 2, wb, catch, NA, 999, 999, 6, 21, 107, 148, 96, 99, 172, 143, 3, 1.16735
28, 2, wb, attraction, a-b-da, 9, 1, 6, 22, 60, 135, 135, 60, 129, 57, 3, 1.79127
28, 2, wb, attraction, a-b-da, 9, 1, 6, 22, 60, 135, 135, 60, 129, 57, 1, 0.670168
28, 2, wb, filler, NA, 999, 999, 6, 23, 191, 117, 182, 183, 83, 56, 3, 1.33536
28, 2, wb, filler, NA, 999, 999, 6, 23, 191, 117, 182, 183, 83, 56, 2, 0.54434
28, 2, wb, attraction, a-b-db, 2, 2, 6, 24, 165, 90, 89, 163, 90, 165, 3, 1.95336
28, 2, wb, attraction, a-b-db, 2, 2, 6, 24, 165, 90, 89, 163, 90, 165, 2, 0.587368
28, 2, wb, attraction, a-b-db, 5, 2, 6, 25, 165, 90, 88, 161, 90, 165, 3, 1.6503
28, 2, wb, attraction, a-b-db, 5, 2, 6, 25, 165, 90, 88, 161, 90, 165, 2, 0.718313
28, 2, wb, filler, NA, 999, 999, 6, 26, 104, 71, 63, 168, 150, 83, 1, 1.20675
28, 2, wb, filler, NA, 999, 999, 6, 26, 104, 71, 63, 168, 150, 83, 3, 0.751053
28, 2, wb, filler, NA, 999, 999, 6, 27, 143, 114, 189, 181, 145, 98, 3, 1.50407
28, 2, wb, filler, NA, 999, 999, 6, 27, 143, 114, 189, 181, 145, 98, 2, 0.601821
28, 2, wb, attraction, a-b-da, 14, 3, 6, 28, 181, 111, 120, 195, 195, 120, 1, 1.92035
28, 2, wb, attraction, a-b-da, 14, 3, 6, 28, 181, 111, 120, 195, 195, 120, 2, 0.686425
28, 2, wb, attraction, a-b-db, 9, 3, 6, 29, 120, 195, 195, 120, 114, 186, 3, 1.58039
28, 2, wb, attraction, a-b-db, 9, 3, 6, 29, 120, 195, 195, 120, 114, 186, 2, 0.55518
28, 2, wb, attraction, a-b-db, 9, 1, 6, 30, 60, 135, 57, 129, 135, 60, 2, 1.30641
28, 2, wb, attraction, a-b-db, 9, 1, 6, 30, 60, 135, 57, 129, 135, 60, 1, 0.660043
28, 2, wb, attraction, a-b-da, 5, 3, 6, 31, 190, 117, 195, 120, 120, 195, 3, 1.80807
28, 2, wb, attraction, a-b-da, 5, 3, 6, 31, 190, 117, 195, 120, 120, 195, 2, 0.6228
28, 2, wb, attraction, a-b-db, 14, 3, 6, 32, 195, 120, 120, 195, 111, 181, 3, 1.1967
28, 2, wb, attraction, a-b-db, 14, 3, 6, 32, 195, 120, 120, 195, 111, 181, 2, 0.611637
28, 2, wb, attraction, a-b-da, 9, 2, 6, 33, 165, 90, 90, 165, 157, 86, 3, 1.20223
28, 2, wb, attraction, a-b-da, 9, 2, 6, 33, 165, 90, 90, 165, 157, 86, 2, 0.53682
28, 2, wb, filler, NA, 999, 999, 6, 34, 100, 138, 93, 77, 160, 134, 2, 1.48845
28, 2, wb, filler, NA, 999, 999, 6, 34, 100, 138, 93, 77, 160, 134, 3, 1.33951
28, 2, wb, filler, NA, 999, 999, 6, 35, 82, 132, 76, 94, 97, 78, 3, 2.2135
28, 2, wb, filler, NA, 999, 999, 6, 35, 82, 132, 76, 94, 97, 78, 1, 1.25074
28, 2, wb, attraction, a-b-da, 2, 3, 6, 36, 195, 120, 193, 119, 120, 195, 2, 1.31052
28, 2, wb, attraction, a-b-da, 2, 3, 6, 36, 195, 120, 193, 119, 120, 195, 1, 0.719795
28, 2, wb, filler, NA, 999, 999, 6, 37, 75, 90, 134, 94, 56, 186, 1, 1.25702
28, 2, wb, filler, NA, 999, 999, 6, 37, 75, 90, 134, 94, 56, 186, 2, 0.66813
28, 2, wb, filler, NA, 999, 999, 7, 1, 84, 127, 102, 174, 77, 86, 3, 1.16038
28, 2, wb, filler, NA, 999, 999, 7, 1, 84, 127, 102, 174, 77, 86, 2, 0.647995
28, 2, wb, attraction, a-b-da, 5, 3, 7, 2, 120, 195, 190, 117, 195, 120, 2, 1.2774
28, 2, wb, attraction, a-b-da, 5, 3, 7, 2, 120, 195, 190, 117, 195, 120, 1, 0.559055
28, 2, wb, catch, NA, 999, 999, 7, 3, 116, 79, 123, 132, 179, 136, 1, 1.24914
28, 2, wb, catch, NA, 999, 999, 7, 3, 116, 79, 123, 132, 179, 136, 3, 0.813823
28, 2, wb, filler, NA, 999, 999, 7, 4, 140, 162, 97, 144, 137, 163, 2, 0.996987
28, 2, wb, filler, NA, 999, 999, 7, 4, 140, 162, 97, 144, 137, 163, 1, 0.666304
28, 2, wb, attraction, a-b-da, 14, 1, 7, 5, 125, 56, 135, 60, 60, 135, 2, 1.10842
28, 2, wb, attraction, a-b-da, 14, 1, 7, 5, 125, 56, 135, 60, 60, 135, 3, 1.52903
28, 2, wb, attraction, a-b-da, 2, 3, 7, 6, 193, 119, 195, 120, 120, 195, 3, 1.60887
28, 2, wb, attraction, a-b-da, 2, 3, 7, 6, 193, 119, 195, 120, 120, 195, 1, 0.757764
28, 2, wb, filler, NA, 999, 999, 7, 7, 181, 115, 75, 158, 75, 129, 3, 1.31876
28, 2, wb, filler, NA, 999, 999, 7, 7, 181, 115, 75, 158, 75, 129, 1, 0.703789
28, 2, wb, attraction, a-b-db, 14, 2, 7, 8, 165, 90, 90, 165, 83, 153, 3, 1.31436
28, 2, wb, attraction, a-b-db, 14, 2, 7, 8, 165, 90, 90, 165, 83, 153, 2, 0.644386
28, 2, wb, attraction, a-b-db, 5, 1, 7, 9, 135, 60, 58, 132, 60, 135, 3, 1.77064
28, 2, wb, attraction, a-b-db, 5, 1, 7, 9, 135, 60, 58, 132, 60, 135, 2, 0.650123
28, 2, wb, catch, NA, 999, 999, 7, 10, 159, 96, 157, 158, 97, 98, 3, 1.18144
28, 2, wb, catch, NA, 999, 999, 7, 10, 159, 96, 157, 158, 97, 98, 2, 0.636825
28, 2, wb, attraction, a-b-db, 5, 2, 7, 11, 90, 165, 88, 161, 165, 90, 2, 1.51264
28, 2, wb, attraction, a-b-db, 5, 2, 7, 11, 90, 165, 88, 161, 165, 90, 3, 0.603269
28, 2, wb, filler, NA, 999, 999, 7, 12, 123, 119, 107, 117, 89, 68, 3, 1.36066
28, 2, wb, filler, NA, 999, 999, 7, 12, 123, 119, 107, 117, 89, 68, 2, 0.672479
28, 2, wb, attraction, a-b-da, 14, 2, 7, 13, 90, 165, 153, 83, 165, 90, 2, 1.27615
28, 2, wb, attraction, a-b-da, 14, 2, 7, 13, 90, 165, 153, 83, 165, 90, 1, 0.608622
28, 2, wb, filler, NA, 999, 999, 7, 14, 60, 96, 76, 70, 70, 75, 3, 1.34457
28, 2, wb, filler, NA, 999, 999, 7, 14, 60, 96, 76, 70, 70, 75, 2, 1.4242
28, 2, wb, catch, NA, 999, 999, 7, 15, 146, 169, 122, 73, 145, 110, 2, 1.04448
28, 2, wb, catch, NA, 999, 999, 7, 15, 146, 169, 122, 73, 145, 110, 1, 0.618201
28, 2, wb, attraction, a-b-db, 9, 2, 7, 16, 90, 165, 165, 90, 86, 157, 3, 1.87005
28, 2, wb, attraction, a-b-db, 9, 2, 7, 16, 90, 165, 165, 90, 86, 157, 2, 0.604481
28, 2, wb, filler, NA, 999, 999, 7, 17, 174, 91, 192, 87, 100, 175, 1, 1.24089
28, 2, wb, filler, NA, 999, 999, 7, 17, 174, 91, 192, 87, 100, 175, 2, 0.773859
28, 2, wb, attraction, a-b-db, 2, 1, 7, 18, 59, 134, 60, 135, 135, 60, 1, 1.67525
28, 2, wb, attraction, a-b-db, 2, 1, 7, 18, 59, 134, 60, 135, 135, 60, 3, 0.552748
28, 2, wb, attraction, a-b-db, 2, 2, 7, 19, 89, 163, 165, 90, 90, 165, 2, 1.27328
28, 2, wb, attraction, a-b-db, 2, 2, 7, 19, 89, 163, 165, 90, 90, 165, 3, 0.629073
28, 2, wb, filler, NA, 999, 999, 7, 20, 182, 172, 129, 121, 64, 82, 3, 1.43316
28, 2, wb, filler, NA, 999, 999, 7, 20, 182, 172, 129, 121, 64, 82, 1, 0.616029
28, 2, wb, filler, NA, 999, 999, 7, 21, 93, 97, 81, 94, 148, 166, 2, 1.13453
28, 2, wb, filler, NA, 999, 999, 7, 21, 93, 97, 81, 94, 148, 166, 3, 0.606515
28, 2, wb, attraction, a-b-da, 2, 1, 7, 22, 60, 135, 134, 59, 135, 60, 3, 1.21175
28, 2, wb, attraction, a-b-da, 2, 1, 7, 22, 60, 135, 134, 59, 135, 60, 1, 0.626144
28, 2, wb, filler, NA, 999, 999, 7, 23, 134, 85, 106, 113, 116, 130, 2, 1.21713
28, 2, wb, filler, NA, 999, 999, 7, 23, 134, 85, 106, 113, 116, 130, 3, 0.694437
28, 2, wb, attraction, a-b-db, 9, 3, 7, 24, 120, 195, 114, 186, 195, 120, 2, 1.32114
28, 2, wb, attraction, a-b-db, 9, 3, 7, 24, 120, 195, 114, 186, 195, 120, 3, 0.600779
28, 2, wb, attraction, a-b-da, 14, 3, 7, 25, 181, 111, 195, 120, 120, 195, 1, 1.2964
28, 2, wb, attraction, a-b-da, 14, 3, 7, 25, 181, 111, 195, 120, 120, 195, 3, 0.577703
28, 2, wb, attraction, a-b-db, 5, 3, 7, 26, 120, 195, 117, 190, 195, 120, 2, 0.969995
28, 2, wb, attraction, a-b-db, 5, 3, 7, 26, 120, 195, 117, 190, 195, 120, 3, 0.578795
28, 2, wb, attraction, a-b-da, 9, 1, 7, 27, 60, 135, 135, 60, 129, 57, 1, 1.09931
28, 2, wb, attraction, a-b-da, 9, 1, 7, 27, 60, 135, 135, 60, 129, 57, 2, 0.627202
28, 2, wb, attraction, a-b-da, 9, 3, 7, 28, 186, 114, 195, 120, 120, 195, 1, 1.1465
28, 2, wb, attraction, a-b-da, 9, 3, 7, 28, 186, 114, 195, 120, 120, 195, 2, 0.604767
28, 2, wb, filler, NA, 999, 999, 7, 29, 131, 152, 179, 87, 58, 111, 3, 1.16124
28, 2, wb, filler, NA, 999, 999, 7, 29, 131, 152, 179, 87, 58, 111, 1, 0.545002
28, 2, wb, attraction, a-b-db, 9, 1, 7, 30, 57, 129, 60, 135, 135, 60, 2, 1.07278
28, 2, wb, attraction, a-b-db, 9, 1, 7, 30, 57, 129, 60, 135, 135, 60, 3, 0.598051
28, 2, wb, attraction, a-b-db, 14, 1, 7, 31, 56, 125, 60, 135, 135, 60, 2, 0.945428
28, 2, wb, attraction, a-b-db, 14, 1, 7, 31, 56, 125, 60, 135, 135, 60, 1, 0.628949
28, 2, wb, attraction, a-b-da, 9, 2, 7, 32, 157, 86, 90, 165, 165, 90, 2, 1.04253
28, 2, wb, attraction, a-b-da, 9, 2, 7, 32, 157, 86, 90, 165, 165, 90, 3, 0.582764
28, 2, wb, attraction, a-b-da, 5, 1, 7, 33, 132, 58, 135, 60, 60, 135, 1, 1.19764
28, 2, wb, attraction, a-b-da, 5, 1, 7, 33, 132, 58, 135, 60, 60, 135, 2, 0.741226
28, 2, wb, attraction, a-b-db, 14, 3, 7, 34, 111, 181, 120, 195, 195, 120, 1, 1.19613
28, 2, wb, attraction, a-b-db, 14, 3, 7, 34, 111, 181, 120, 195, 195, 120, 3, 0.613444
28, 2, wb, attraction, a-b-db, 2, 3, 7, 35, 120, 195, 119, 193, 195, 120, 2, 1.48112
28, 2, wb, attraction, a-b-db, 2, 3, 7, 35, 120, 195, 119, 193, 195, 120, 3, 0.541599
28, 2, wb, attraction, a-b-da, 2, 2, 7, 36, 90, 165, 163, 89, 165, 90, 2, 1.23536
28, 2, wb, attraction, a-b-da, 2, 2, 7, 36, 90, 165, 163, 89, 165, 90, 1, 0.579133
28, 2, wb, attraction, a-b-da, 5, 2, 7, 37, 165, 90, 161, 88, 90, 165, 2, 1.10694
28, 2, wb, attraction, a-b-da, 5, 2, 7, 37, 165, 90, 161, 88, 90, 165, 3, 0.916662
28, 2, wb, filler, NA, 999, 999, 8, 1, 96, 132, 195, 71, 64, 140, 3, 3.10287
28, 2, wb, filler, NA, 999, 999, 8, 1, 96, 132, 195, 71, 64, 140, 2, 0.794334
28, 2, wb, attraction, a-b-da, 9, 1, 8, 2, 60, 135, 129, 57, 135, 60, 2, 2.78232
28, 2, wb, attraction, a-b-da, 9, 1, 8, 2, 60, 135, 129, 57, 135, 60, 1, 0.749658
28, 2, wb, attraction, a-b-db, 2, 2, 8, 3, 89, 163, 165, 90, 90, 165, 1, 1.99574
28, 2, wb, attraction, a-b-db, 2, 2, 8, 3, 89, 163, 165, 90, 90, 165, 2, 0.683626
28, 2, wb, attraction, a-b-da, 5, 1, 8, 4, 135, 60, 132, 58, 60, 135, 2, 2.18986
28, 2, wb, attraction, a-b-da, 5, 1, 8, 4, 135, 60, 132, 58, 60, 135, 3, 0.63741
28, 2, wb, attraction, a-b-db, 2, 1, 8, 5, 135, 60, 59, 134, 60, 135, 2, 1.13748
28, 2, wb, attraction, a-b-db, 2, 1, 8, 5, 135, 60, 59, 134, 60, 135, 3, 0.964113
28, 2, wb, filler, NA, 999, 999, 8, 6, 163, 126, 176, 172, 142, 118, 3, 2.34696
28, 2, wb, filler, NA, 999, 999, 8, 6, 163, 126, 176, 172, 142, 118, 2, 0.691684
28, 2, wb, attraction, a-b-da, 14, 2, 8, 7, 90, 165, 153, 83, 165, 90, 2, 1.38145
28, 2, wb, attraction, a-b-da, 14, 2, 8, 7, 90, 165, 153, 83, 165, 90, 1, 0.733868
28, 2, wb, catch, NA, 999, 999, 8, 8, 138, 117, 121, 194, 109, 86, 2, 2.36012
28, 2, wb, catch, NA, 999, 999, 8, 8, 138, 117, 121, 194, 109, 86, 1, 2.19843
28, 2, wb, attraction, a-b-da, 9, 2, 8, 9, 90, 165, 157, 86, 165, 90, 2, 1.66756
28, 2, wb, attraction, a-b-da, 9, 2, 8, 9, 90, 165, 157, 86, 165, 90, 3, 0.655988
28, 2, wb, attraction, a-b-da, 5, 2, 8, 10, 165, 90, 90, 165, 161, 88, 2, 1.23661
28, 2, wb, attraction, a-b-da, 5, 2, 8, 10, 165, 90, 90, 165, 161, 88, 3, 0.617165
28, 2, wb, filler, NA, 999, 999, 8, 11, 68, 80, 131, 99, 188, 140, 1, 0.973253
28, 2, wb, filler, NA, 999, 999, 8, 11, 68, 80, 131, 99, 188, 140, 3, 1.75126
28, 2, wb, catch, NA, 999, 999, 8, 12, 181, 134, 124, 131, 120, 75, 3, 1.12758
28, 2, wb, catch, NA, 999, 999, 8, 12, 181, 134, 124, 131, 120, 75, 1, 0.696414
28, 2, wb, filler, NA, 999, 999, 8, 13, 57, 92, 144, 132, 162, 149, 1, 1.08233
28, 2, wb, filler, NA, 999, 999, 8, 13, 57, 92, 144, 132, 162, 149, 3, 0.70311
28, 2, wb, filler, NA, 999, 999, 8, 14, 62, 132, 156, 166, 80, 145, 1, 1.06515
28, 2, wb, filler, NA, 999, 999, 8, 14, 62, 132, 156, 166, 80, 145, 2, 0.739757
28, 2, wb, attraction, a-b-db, 5, 2, 8, 15, 90, 165, 88, 161, 165, 90, 2, 1.15635
28, 2, wb, attraction, a-b-db, 5, 2, 8, 15, 90, 165, 88, 161, 165, 90, 1, 0.604342
28, 2, wb, filler, NA, 999, 999, 8, 16, 147, 178, 149, 150, 169, 61, 3, 1.33151
28, 2, wb, filler, NA, 999, 999, 8, 16, 147, 178, 149, 150, 169, 61, 1, 1.20383
28, 2, wb, attraction, a-b-da, 2, 2, 8, 17, 165, 90, 90, 165, 163, 89, 2, 1.01929
28, 2, wb, attraction, a-b-da, 2, 2, 8, 17, 165, 90, 90, 165, 163, 89, 3, 0.881351
28, 2, wb, attraction, a-b-db, 9, 2, 8, 18, 90, 165, 86, 157, 165, 90, 2, 1.25256
28, 2, wb, attraction, a-b-db, 9, 2, 8, 18, 90, 165, 86, 157, 165, 90, 3, 0.703801
28, 2, wb, attraction, a-b-db, 5, 3, 8, 19, 117, 190, 195, 120, 120, 195, 2, 1.51336
28, 2, wb, attraction, a-b-db, 5, 3, 8, 19, 117, 190, 195, 120, 120, 195, 3, 0.555609
28, 2, wb, attraction, a-b-da, 2, 1, 8, 20, 60, 135, 134, 59, 135, 60, 2, 1.43526
28, 2, wb, attraction, a-b-da, 2, 1, 8, 20, 60, 135, 134, 59, 135, 60, 1, 0.639655
28, 2, wb, attraction, a-b-db, 5, 1, 8, 21, 60, 135, 58, 132, 135, 60, 2, 1.02959
28, 2, wb, attraction, a-b-db, 5, 1, 8, 21, 60, 135, 58, 132, 135, 60, 3, 0.690145
28, 2, wb, attraction, a-b-da, 14, 1, 8, 22, 125, 56, 60, 135, 135, 60, 2, 0.982739
28, 2, wb, attraction, a-b-da, 14, 1, 8, 22, 125, 56, 60, 135, 135, 60, 3, 0.803404
28, 2, wb, filler, NA, 999, 999, 8, 23, 56, 135, 108, 118, 126, 95, 1, 1.23441
28, 2, wb, filler, NA, 999, 999, 8, 23, 56, 135, 108, 118, 126, 95, 2, 0.577705
28, 2, wb, attraction, a-b-da, 2, 3, 8, 24, 120, 195, 193, 119, 195, 120, 2, 1.5986
28, 2, wb, attraction, a-b-da, 2, 3, 8, 24, 120, 195, 193, 119, 195, 120, 3, 0.525904
28, 2, wb, filler, NA, 999, 999, 8, 25, 72, 66, 74, 151, 126, 170, 1, 1.16628
28, 2, wb, filler, NA, 999, 999, 8, 25, 72, 66, 74, 151, 126, 170, 3, 0.678397
28, 2, wb, attraction, a-b-db, 14, 2, 8, 26, 90, 165, 165, 90, 83, 153, 2, 1.04959
28, 2, wb, attraction, a-b-db, 14, 2, 8, 26, 90, 165, 165, 90, 83, 153, 1, 0.671332
28, 2, wb, attraction, a-b-db, 2, 3, 8, 27, 195, 120, 119, 193, 120, 195, 2, 1.20261
28, 2, wb, attraction, a-b-db, 2, 3, 8, 27, 195, 120, 119, 193, 120, 195, 1, 0.603482
28, 2, wb, attraction, a-b-db, 9, 1, 8, 28, 135, 60, 57, 129, 60, 135, 3, 1.32605
28, 2, wb, attraction, a-b-db, 9, 1, 8, 28, 135, 60, 57, 129, 60, 135, 2, 0.865002
28, 2, wb, filler, NA, 999, 999, 8, 29, 124, 95, 90, 62, 133, 98, 2, 1.32467
28, 2, wb, filler, NA, 999, 999, 8, 29, 124, 95, 90, 62, 133, 98, 3, 0.606802
28, 2, wb, attraction, a-b-da, 9, 3, 8, 30, 120, 195, 186, 114, 195, 120, 2, 1.39662
28, 2, wb, attraction, a-b-da, 9, 3, 8, 30, 120, 195, 186, 114, 195, 120, 3, 0.59514
28, 2, wb, attraction, a-b-db, 9, 3, 8, 31, 195, 120, 120, 195, 114, 186, 3, 1.34439
28, 2, wb, attraction, a-b-db, 9, 3, 8, 31, 195, 120, 120, 195, 114, 186, 2, 0.593355
28, 2, wb, filler, NA, 999, 999, 8, 32, 97, 100, 187, 81, 106, 94, 1, 1.96769
28, 2, wb, filler, NA, 999, 999, 8, 32, 97, 100, 187, 81, 106, 94, 2, 1.02579
28, 2, wb, attraction, a-b-da, 5, 3, 8, 33, 120, 195, 190, 117, 195, 120, 1, 1.71832
28, 2, wb, attraction, a-b-da, 5, 3, 8, 33, 120, 195, 190, 117, 195, 120, 2, 0.54405
28, 2, wb, attraction, a-b-da, 14, 3, 8, 34, 181, 111, 195, 120, 120, 195, 1, 1.08027
28, 2, wb, attraction, a-b-da, 14, 3, 8, 34, 181, 111, 195, 120, 120, 195, 2, 0.532243
28, 2, wb, catch, NA, 999, 999, 8, 35, 93, 102, 124, 131, 192, 123, 1, 1.19818
28, 2, wb, catch, NA, 999, 999, 8, 35, 93, 102, 124, 131, 192, 123, 3, 0.570996
28, 2, wb, attraction, a-b-db, 14, 3, 8, 36, 120, 195, 111, 181, 195, 120, 2, 1.3141
28, 2, wb, attraction, a-b-db, 14, 3, 8, 36, 120, 195, 111, 181, 195, 120, 1, 1.02176
28, 2, wb, attraction, a-b-db, 14, 1, 8, 37, 56, 125, 60, 135, 135, 60, 2, 1.18417
28, 2, wb, attraction, a-b-db, 14, 1, 8, 37, 56, 125, 60, 135, 135, 60, 3, 0.632694
