sub_n, computer_n, bw_cond, effect, set, distance, diag, block_n, trial_n, h1, w1, h2, w2, h3, w3, choice, rt 
25, 2, bw, practice, NA, 999, 999, 0, 1, 59, 133, 151, 114, 63, 130, 2, 1.59991
25, 2, bw, practice, NA, 999, 999, 0, 1, 59, 133, 151, 114, 63, 130, 1, 2.03231
25, 2, bw, practice, NA, 999, 999, 0, 2, 130, 113, 148, 114, 93, 148, 2, 2.4635
25, 2, bw, practice, NA, 999, 999, 0, 2, 130, 113, 148, 114, 93, 148, 3, 0.716046
25, 2, bw, practice, NA, 999, 999, 0, 3, 104, 128, 151, 160, 176, 164, 3, 2.51286
25, 2, bw, practice, NA, 999, 999, 0, 3, 104, 128, 151, 160, 176, 164, 1, 0.699143
25, 2, bw, attraction, a-b-da, 2, 2, 1, 1, 90, 165, 163, 89, 165, 90, 3, 9.08441
25, 2, bw, attraction, a-b-da, 2, 2, 1, 1, 90, 165, 163, 89, 165, 90, 2, 1.31771
25, 2, bw, filler, NA, 999, 999, 1, 2, 87, 81, 96, 106, 70, 184, 3, 7.74208
25, 2, bw, filler, NA, 999, 999, 1, 2, 87, 81, 96, 106, 70, 184, 1, 1.3088
25, 2, bw, attraction, a-b-da, 5, 1, 1, 3, 135, 60, 132, 58, 60, 135, 1, 3.03929
25, 2, bw, attraction, a-b-da, 5, 1, 1, 3, 135, 60, 132, 58, 60, 135, 2, 1.74096
25, 2, bw, attraction, a-b-da, 14, 3, 1, 4, 195, 120, 181, 111, 120, 195, 1, 5.22932
25, 2, bw, attraction, a-b-da, 14, 3, 1, 4, 195, 120, 181, 111, 120, 195, 2, 0.770062
25, 2, bw, attraction, a-b-db, 2, 1, 1, 5, 135, 60, 60, 135, 59, 134, 1, 4.35136
25, 2, bw, attraction, a-b-db, 2, 1, 1, 5, 135, 60, 60, 135, 59, 134, 3, 1.00206
25, 2, bw, attraction, a-b-da, 9, 2, 1, 6, 157, 86, 165, 90, 90, 165, 3, 3.28787
25, 2, bw, attraction, a-b-da, 9, 2, 1, 6, 157, 86, 165, 90, 90, 165, 1, 1.60697
25, 2, bw, attraction, a-b-db, 2, 3, 1, 7, 119, 193, 120, 195, 195, 120, 3, 4.10072
25, 2, bw, attraction, a-b-db, 2, 3, 1, 7, 119, 193, 120, 195, 195, 120, 1, 0.905098
25, 2, bw, filler, NA, 999, 999, 1, 8, 75, 92, 159, 56, 61, 187, 3, 2.30583
25, 2, bw, filler, NA, 999, 999, 1, 8, 75, 92, 159, 56, 61, 187, 1, 1.34106
25, 2, bw, filler, NA, 999, 999, 1, 9, 183, 122, 182, 121, 182, 139, 3, 2.51833
25, 2, bw, filler, NA, 999, 999, 1, 9, 183, 122, 182, 121, 182, 139, 2, 0.679276
25, 2, bw, catch, NA, 999, 999, 1, 10, 171, 144, 158, 97, 83, 112, 1, 1.45148
25, 2, bw, catch, NA, 999, 999, 1, 10, 171, 144, 158, 97, 83, 112, 3, 0.743526
25, 2, bw, attraction, a-b-da, 5, 3, 1, 11, 195, 120, 120, 195, 190, 117, 3, 3.20626
25, 2, bw, attraction, a-b-da, 5, 3, 1, 11, 195, 120, 120, 195, 190, 117, 2, 5.86143
25, 2, bw, catch, NA, 999, 999, 1, 12, 126, 69, 138, 177, 124, 131, 2, 1.55078
25, 2, bw, catch, NA, 999, 999, 1, 12, 126, 69, 138, 177, 124, 131, 1, 0.944028
25, 2, bw, attraction, a-b-db, 14, 2, 1, 13, 165, 90, 83, 153, 90, 165, 1, 2.80087
25, 2, bw, attraction, a-b-db, 14, 2, 1, 13, 165, 90, 83, 153, 90, 165, 2, 0.749827
25, 2, bw, filler, NA, 999, 999, 1, 14, 170, 180, 131, 90, 116, 65, 1, 1.28767
25, 2, bw, filler, NA, 999, 999, 1, 14, 170, 180, 131, 90, 116, 65, 3, 0.690243
25, 2, bw, attraction, a-b-da, 2, 1, 1, 15, 60, 135, 135, 60, 134, 59, 3, 6.56598
25, 2, bw, attraction, a-b-da, 2, 1, 1, 15, 60, 135, 135, 60, 134, 59, 2, 1.47601
25, 2, bw, attraction, a-b-db, 14, 1, 1, 16, 60, 135, 56, 125, 135, 60, 1, 3.57313
25, 2, bw, attraction, a-b-db, 14, 1, 1, 16, 60, 135, 56, 125, 135, 60, 2, 0.605025
25, 2, bw, attraction, a-b-db, 9, 2, 1, 17, 90, 165, 86, 157, 165, 90, 1, 3.97262
25, 2, bw, attraction, a-b-db, 9, 2, 1, 17, 90, 165, 86, 157, 165, 90, 2, 3.48084
25, 2, bw, attraction, a-b-da, 14, 2, 1, 18, 90, 165, 153, 83, 165, 90, 1, 2.19647
25, 2, bw, attraction, a-b-da, 14, 2, 1, 18, 90, 165, 153, 83, 165, 90, 2, 0.836056
25, 2, bw, catch, NA, 999, 999, 1, 19, 120, 135, 75, 120, 125, 190, 3, 1.4541
25, 2, bw, catch, NA, 999, 999, 1, 19, 120, 135, 75, 120, 125, 190, 2, 0.556717
25, 2, bw, filler, NA, 999, 999, 1, 20, 118, 120, 169, 73, 69, 142, 1, 2.25252
25, 2, bw, filler, NA, 999, 999, 1, 20, 118, 120, 169, 73, 69, 142, 3, 0.975842
25, 2, bw, filler, NA, 999, 999, 1, 21, 120, 178, 143, 85, 85, 146, 1, 1.40863
25, 2, bw, filler, NA, 999, 999, 1, 21, 120, 178, 143, 85, 85, 146, 3, 0.750392
25, 2, bw, attraction, a-b-db, 2, 2, 1, 22, 90, 165, 165, 90, 89, 163, 2, 2.83717
25, 2, bw, attraction, a-b-db, 2, 2, 1, 22, 90, 165, 165, 90, 89, 163, 1, 1.16168
25, 2, bw, attraction, a-b-da, 9, 1, 1, 23, 129, 57, 60, 135, 135, 60, 2, 5.25331
25, 2, bw, attraction, a-b-da, 9, 1, 1, 23, 129, 57, 60, 135, 135, 60, 1, 0.791646
25, 2, bw, filler, NA, 999, 999, 1, 24, 92, 57, 131, 138, 99, 62, 2, 2.17351
25, 2, bw, filler, NA, 999, 999, 1, 24, 92, 57, 131, 138, 99, 62, 1, 0.53984
25, 2, bw, filler, NA, 999, 999, 1, 25, 99, 136, 94, 100, 71, 158, 1, 1.21314
25, 2, bw, filler, NA, 999, 999, 1, 25, 99, 136, 94, 100, 71, 158, 2, 1.86009
25, 2, bw, attraction, a-b-db, 5, 1, 1, 26, 60, 135, 135, 60, 58, 132, 2, 2.27122
25, 2, bw, attraction, a-b-db, 5, 1, 1, 26, 60, 135, 135, 60, 58, 132, 3, 0.72247
25, 2, bw, attraction, a-b-da, 5, 2, 1, 27, 165, 90, 90, 165, 161, 88, 2, 1.74032
25, 2, bw, attraction, a-b-da, 5, 2, 1, 27, 165, 90, 90, 165, 161, 88, 1, 0.573549
25, 2, bw, attraction, a-b-da, 14, 1, 1, 28, 60, 135, 125, 56, 135, 60, 3, 1.49036
25, 2, bw, attraction, a-b-da, 14, 1, 1, 28, 60, 135, 125, 56, 135, 60, 2, 0.559117
25, 2, bw, attraction, a-b-db, 5, 2, 1, 29, 90, 165, 165, 90, 88, 161, 1, 1.82377
25, 2, bw, attraction, a-b-db, 5, 2, 1, 29, 90, 165, 165, 90, 88, 161, 2, 0.757438
25, 2, bw, attraction, a-b-da, 2, 3, 1, 30, 193, 119, 120, 195, 195, 120, 1, 1.71017
25, 2, bw, attraction, a-b-da, 2, 3, 1, 30, 193, 119, 120, 195, 195, 120, 2, 0.695889
25, 2, bw, attraction, a-b-da, 9, 3, 1, 31, 186, 114, 195, 120, 120, 195, 3, 1.9871
25, 2, bw, attraction, a-b-da, 9, 3, 1, 31, 186, 114, 195, 120, 120, 195, 2, 0.689284
25, 2, bw, attraction, a-b-db, 14, 3, 1, 32, 120, 195, 111, 181, 195, 120, 1, 1.84281
25, 2, bw, attraction, a-b-db, 14, 3, 1, 32, 120, 195, 111, 181, 195, 120, 2, 0.640174
25, 2, bw, attraction, a-b-db, 5, 3, 1, 33, 195, 120, 120, 195, 117, 190, 3, 1.54005
25, 2, bw, attraction, a-b-db, 5, 3, 1, 33, 195, 120, 120, 195, 117, 190, 2, 0.759954
25, 2, bw, filler, NA, 999, 999, 1, 34, 138, 68, 82, 88, 184, 168, 3, 1.30996
25, 2, bw, filler, NA, 999, 999, 1, 34, 138, 68, 82, 88, 184, 168, 2, 0.649324
25, 2, bw, attraction, a-b-db, 9, 1, 1, 35, 57, 129, 60, 135, 135, 60, 2, 1.90777
25, 2, bw, attraction, a-b-db, 9, 1, 1, 35, 57, 129, 60, 135, 135, 60, 3, 0.743883
25, 2, bw, attraction, a-b-db, 9, 3, 1, 36, 120, 195, 114, 186, 195, 120, 3, 2.66347
25, 2, bw, attraction, a-b-db, 9, 3, 1, 36, 120, 195, 114, 186, 195, 120, 2, 0.642169
25, 2, bw, filler, NA, 999, 999, 1, 37, 81, 118, 126, 188, 91, 106, 2, 1.70457
25, 2, bw, filler, NA, 999, 999, 1, 37, 81, 118, 126, 188, 91, 106, 3, 0.706686
25, 2, bw, catch, NA, 999, 999, 2, 1, 140, 175, 109, 146, 127, 68, 1, 1.30895
25, 2, bw, catch, NA, 999, 999, 2, 1, 140, 175, 109, 146, 127, 68, 3, 0.709575
25, 2, bw, attraction, a-b-da, 5, 2, 2, 2, 161, 88, 165, 90, 90, 165, 3, 1.48074
25, 2, bw, attraction, a-b-da, 5, 2, 2, 2, 161, 88, 165, 90, 90, 165, 1, 1.97924
25, 2, bw, catch, NA, 999, 999, 2, 3, 171, 144, 118, 77, 159, 96, 1, 1.25061
25, 2, bw, catch, NA, 999, 999, 2, 3, 171, 144, 118, 77, 159, 96, 2, 0.687909
25, 2, bw, attraction, a-b-da, 2, 3, 2, 4, 195, 120, 193, 119, 120, 195, 3, 1.67249
25, 2, bw, attraction, a-b-da, 2, 3, 2, 4, 195, 120, 193, 119, 120, 195, 1, 0.804937
25, 2, bw, attraction, a-b-db, 2, 1, 2, 5, 59, 134, 135, 60, 60, 135, 3, 1.66747
25, 2, bw, attraction, a-b-db, 2, 1, 2, 5, 59, 134, 135, 60, 60, 135, 2, 0.6558
25, 2, bw, attraction, a-b-da, 2, 2, 2, 6, 165, 90, 163, 89, 90, 165, 1, 2.02785
25, 2, bw, attraction, a-b-da, 2, 2, 2, 6, 165, 90, 163, 89, 90, 165, 3, 1.23247
25, 2, bw, filler, NA, 999, 999, 2, 7, 171, 63, 86, 117, 67, 58, 2, 1.3969
25, 2, bw, filler, NA, 999, 999, 2, 7, 171, 63, 86, 117, 67, 58, 3, 0.548042
25, 2, bw, attraction, a-b-da, 14, 2, 2, 8, 153, 83, 165, 90, 90, 165, 3, 2.17884
25, 2, bw, attraction, a-b-da, 14, 2, 2, 8, 153, 83, 165, 90, 90, 165, 1, 0.714057
25, 2, bw, attraction, a-b-db, 14, 2, 2, 9, 83, 153, 90, 165, 165, 90, 3, 1.5234
25, 2, bw, attraction, a-b-db, 14, 2, 2, 9, 83, 153, 90, 165, 165, 90, 1, 0.677819
25, 2, bw, attraction, a-b-db, 2, 2, 2, 10, 89, 163, 90, 165, 165, 90, 3, 1.41778
25, 2, bw, attraction, a-b-db, 2, 2, 2, 10, 89, 163, 90, 165, 165, 90, 2, 1.32736
25, 2, bw, attraction, a-b-da, 5, 3, 2, 11, 190, 117, 195, 120, 120, 195, 3, 2.23966
25, 2, bw, attraction, a-b-da, 5, 3, 2, 11, 190, 117, 195, 120, 120, 195, 2, 0.844732
25, 2, bw, filler, NA, 999, 999, 2, 12, 109, 125, 135, 127, 58, 73, 2, 1.45719
25, 2, bw, filler, NA, 999, 999, 2, 12, 109, 125, 135, 127, 58, 73, 3, 0.718812
25, 2, bw, attraction, a-b-db, 9, 2, 2, 13, 165, 90, 90, 165, 86, 157, 2, 2.35962
25, 2, bw, attraction, a-b-db, 9, 2, 2, 13, 165, 90, 90, 165, 86, 157, 3, 0.673445
25, 2, bw, filler, NA, 999, 999, 2, 14, 67, 108, 65, 126, 169, 112, 3, 1.4277
25, 2, bw, filler, NA, 999, 999, 2, 14, 67, 108, 65, 126, 169, 112, 1, 0.623541
25, 2, bw, attraction, a-b-db, 5, 2, 2, 15, 88, 161, 90, 165, 165, 90, 2, 4.89334
25, 2, bw, attraction, a-b-db, 5, 2, 2, 15, 88, 161, 90, 165, 165, 90, 3, 1.34537
25, 2, bw, filler, NA, 999, 999, 2, 16, 150, 58, 132, 68, 152, 70, 2, 1.8878
25, 2, bw, filler, NA, 999, 999, 2, 16, 150, 58, 132, 68, 152, 70, 1, 2.85034
25, 2, bw, attraction, a-b-db, 9, 1, 2, 17, 135, 60, 57, 129, 60, 135, 2, 2.13382
25, 2, bw, attraction, a-b-db, 9, 1, 2, 17, 135, 60, 57, 129, 60, 135, 1, 1.1832
25, 2, bw, attraction, a-b-da, 14, 3, 2, 18, 181, 111, 120, 195, 195, 120, 2, 3.0386
25, 2, bw, attraction, a-b-da, 14, 3, 2, 18, 181, 111, 120, 195, 195, 120, 3, 0.87638
25, 2, bw, attraction, a-b-db, 14, 1, 2, 19, 60, 135, 56, 125, 135, 60, 2, 1.84629
25, 2, bw, attraction, a-b-db, 14, 1, 2, 19, 60, 135, 56, 125, 135, 60, 3, 1.24326
25, 2, bw, attraction, a-b-db, 5, 1, 2, 20, 135, 60, 58, 132, 60, 135, 2, 1.42379
25, 2, bw, attraction, a-b-db, 5, 1, 2, 20, 135, 60, 58, 132, 60, 135, 1, 0.744079
25, 2, bw, filler, NA, 999, 999, 2, 21, 81, 67, 166, 183, 172, 164, 3, 1.22186
25, 2, bw, filler, NA, 999, 999, 2, 21, 81, 67, 166, 183, 172, 164, 1, 0.845818
25, 2, bw, filler, NA, 999, 999, 2, 22, 62, 190, 150, 140, 166, 98, 2, 1.54311
25, 2, bw, filler, NA, 999, 999, 2, 22, 62, 190, 150, 140, 166, 98, 1, 0.848672
25, 2, bw, attraction, a-b-da, 14, 1, 2, 23, 60, 135, 135, 60, 125, 56, 1, 2.05285
25, 2, bw, attraction, a-b-da, 14, 1, 2, 23, 60, 135, 135, 60, 125, 56, 2, 0.583272
25, 2, bw, attraction, a-b-db, 5, 3, 2, 24, 195, 120, 117, 190, 120, 195, 2, 1.29572
25, 2, bw, attraction, a-b-db, 5, 3, 2, 24, 195, 120, 117, 190, 120, 195, 1, 0.723341
25, 2, bw, attraction, a-b-da, 2, 1, 2, 25, 134, 59, 60, 135, 135, 60, 2, 1.2452
25, 2, bw, attraction, a-b-da, 2, 1, 2, 25, 134, 59, 60, 135, 135, 60, 3, 0.584556
25, 2, bw, filler, NA, 999, 999, 2, 26, 96, 98, 171, 77, 145, 69, 2, 2.23846
25, 2, bw, filler, NA, 999, 999, 2, 26, 96, 98, 171, 77, 145, 69, 1, 0.699398
25, 2, bw, filler, NA, 999, 999, 2, 27, 115, 68, 69, 167, 132, 120, 3, 1.88596
25, 2, bw, filler, NA, 999, 999, 2, 27, 115, 68, 69, 167, 132, 120, 1, 1.19396
25, 2, bw, attraction, a-b-da, 5, 1, 2, 28, 135, 60, 60, 135, 132, 58, 2, 5.34512
25, 2, bw, attraction, a-b-da, 5, 1, 2, 28, 135, 60, 60, 135, 132, 58, 1, 0.574145
25, 2, bw, attraction, a-b-db, 9, 3, 2, 29, 195, 120, 120, 195, 114, 186, 2, 1.8384
25, 2, bw, attraction, a-b-db, 9, 3, 2, 29, 195, 120, 120, 195, 114, 186, 1, 0.651947
25, 2, bw, filler, NA, 999, 999, 2, 30, 192, 153, 100, 152, 91, 137, 1, 1.12901
25, 2, bw, filler, NA, 999, 999, 2, 30, 192, 153, 100, 152, 91, 137, 3, 0.728635
25, 2, bw, attraction, a-b-da, 9, 1, 2, 31, 135, 60, 129, 57, 60, 135, 3, 1.39576
25, 2, bw, attraction, a-b-da, 9, 1, 2, 31, 135, 60, 129, 57, 60, 135, 2, 0.639409
25, 2, bw, attraction, a-b-db, 2, 3, 2, 32, 120, 195, 195, 120, 119, 193, 3, 1.15671
25, 2, bw, attraction, a-b-db, 2, 3, 2, 32, 120, 195, 195, 120, 119, 193, 1, 0.639008
25, 2, bw, filler, NA, 999, 999, 2, 33, 116, 173, 70, 169, 121, 163, 3, 1.04207
25, 2, bw, filler, NA, 999, 999, 2, 33, 116, 173, 70, 169, 121, 163, 2, 0.680672
25, 2, bw, attraction, a-b-da, 9, 3, 2, 34, 195, 120, 186, 114, 120, 195, 3, 4.1782
25, 2, bw, attraction, a-b-da, 9, 3, 2, 34, 195, 120, 186, 114, 120, 195, 2, 0.689887
25, 2, bw, attraction, a-b-db, 14, 3, 2, 35, 120, 195, 195, 120, 111, 181, 3, 1.45219
25, 2, bw, attraction, a-b-db, 14, 3, 2, 35, 120, 195, 195, 120, 111, 181, 2, 0.808434
25, 2, bw, catch, NA, 999, 999, 2, 36, 101, 154, 121, 194, 76, 119, 2, 1.44544
25, 2, bw, catch, NA, 999, 999, 2, 36, 101, 154, 121, 194, 76, 119, 3, 0.610583
25, 2, bw, attraction, a-b-da, 9, 2, 2, 37, 157, 86, 165, 90, 90, 165, 3, 1.6084
25, 2, bw, attraction, a-b-da, 9, 2, 2, 37, 157, 86, 165, 90, 90, 165, 2, 0.671219
25, 2, bw, attraction, a-b-da, 5, 1, 3, 1, 135, 60, 132, 58, 60, 135, 3, 1.35409
25, 2, bw, attraction, a-b-da, 5, 1, 3, 1, 135, 60, 132, 58, 60, 135, 2, 0.730996
25, 2, bw, attraction, a-b-db, 2, 2, 3, 2, 165, 90, 90, 165, 89, 163, 3, 1.80405
25, 2, bw, attraction, a-b-db, 2, 2, 3, 2, 165, 90, 90, 165, 89, 163, 2, 0.739223
25, 2, bw, catch, NA, 999, 999, 3, 3, 143, 112, 169, 146, 129, 66, 2, 1.46005
25, 2, bw, catch, NA, 999, 999, 3, 3, 143, 112, 169, 146, 129, 66, 3, 0.591277
25, 2, bw, attraction, a-b-da, 14, 3, 3, 4, 120, 195, 181, 111, 195, 120, 3, 1.17315
25, 2, bw, attraction, a-b-da, 14, 3, 3, 4, 120, 195, 181, 111, 195, 120, 2, 1.31746
25, 2, bw, catch, NA, 999, 999, 3, 5, 111, 84, 167, 148, 93, 162, 2, 1.22457
25, 2, bw, catch, NA, 999, 999, 3, 5, 111, 84, 167, 148, 93, 162, 1, 0.531518
25, 2, bw, filler, NA, 999, 999, 3, 6, 147, 189, 58, 117, 88, 61, 1, 1.37274
25, 2, bw, filler, NA, 999, 999, 3, 6, 147, 189, 58, 117, 88, 61, 3, 0.710571
25, 2, bw, attraction, a-b-da, 9, 1, 3, 7, 60, 135, 129, 57, 135, 60, 3, 1.94295
25, 2, bw, attraction, a-b-da, 9, 1, 3, 7, 60, 135, 129, 57, 135, 60, 2, 3.43527
25, 2, bw, attraction, a-b-da, 14, 2, 3, 8, 153, 83, 90, 165, 165, 90, 3, 1.37274
25, 2, bw, attraction, a-b-da, 14, 2, 3, 8, 153, 83, 90, 165, 165, 90, 2, 0.741268
25, 2, bw, attraction, a-b-db, 14, 2, 3, 9, 83, 153, 165, 90, 90, 165, 3, 1.14274
25, 2, bw, attraction, a-b-db, 14, 2, 3, 9, 83, 153, 165, 90, 90, 165, 2, 1.61294
25, 2, bw, filler, NA, 999, 999, 3, 10, 118, 92, 110, 160, 130, 74, 2, 1.53129
25, 2, bw, filler, NA, 999, 999, 3, 10, 118, 92, 110, 160, 130, 74, 3, 0.774022
25, 2, bw, attraction, a-b-da, 2, 1, 3, 11, 60, 135, 134, 59, 135, 60, 3, 1.95575
25, 2, bw, attraction, a-b-da, 2, 1, 3, 11, 60, 135, 134, 59, 135, 60, 1, 0.750442
25, 2, bw, catch, NA, 999, 999, 3, 12, 178, 137, 143, 112, 83, 112, 1, 1.26889
25, 2, bw, catch, NA, 999, 999, 3, 12, 178, 137, 143, 112, 83, 112, 3, 0.633609
25, 2, bw, filler, NA, 999, 999, 3, 13, 81, 160, 152, 153, 141, 96, 2, 1.66916
25, 2, bw, filler, NA, 999, 999, 3, 13, 81, 160, 152, 153, 141, 96, 1, 0.688914
25, 2, bw, attraction, a-b-da, 2, 2, 3, 14, 165, 90, 163, 89, 90, 165, 1, 1.84329
25, 2, bw, attraction, a-b-da, 2, 2, 3, 14, 165, 90, 163, 89, 90, 165, 2, 0.736727
25, 2, bw, attraction, a-b-db, 5, 3, 3, 15, 117, 190, 120, 195, 195, 120, 1, 3.38491
25, 2, bw, attraction, a-b-db, 5, 3, 3, 15, 117, 190, 120, 195, 195, 120, 3, 1.17671
25, 2, bw, attraction, a-b-db, 5, 2, 3, 16, 165, 90, 88, 161, 90, 165, 2, 2.14296
25, 2, bw, attraction, a-b-db, 5, 2, 3, 16, 165, 90, 88, 161, 90, 165, 1, 0.624094
25, 2, bw, filler, NA, 999, 999, 3, 17, 105, 74, 153, 177, 187, 130, 2, 1.54847
25, 2, bw, filler, NA, 999, 999, 3, 17, 105, 74, 153, 177, 187, 130, 1, 0.78189
25, 2, bw, filler, NA, 999, 999, 3, 18, 158, 122, 75, 98, 193, 119, 3, 2.47671
25, 2, bw, filler, NA, 999, 999, 3, 18, 158, 122, 75, 98, 193, 119, 2, 0.752336
25, 2, bw, attraction, a-b-db, 9, 3, 3, 19, 114, 186, 120, 195, 195, 120, 2, 4.21765
25, 2, bw, attraction, a-b-db, 9, 3, 3, 19, 114, 186, 120, 195, 195, 120, 3, 0.550108
25, 2, bw, attraction, a-b-db, 14, 1, 3, 20, 135, 60, 56, 125, 60, 135, 2, 2.10993
25, 2, bw, attraction, a-b-db, 14, 1, 3, 20, 135, 60, 56, 125, 60, 135, 3, 0.806405
25, 2, bw, attraction, a-b-da, 5, 3, 3, 21, 120, 195, 190, 117, 195, 120, 3, 8.32625
25, 2, bw, attraction, a-b-da, 5, 3, 3, 21, 120, 195, 190, 117, 195, 120, 2, 0.884798
25, 2, bw, attraction, a-b-db, 5, 1, 3, 22, 60, 135, 58, 132, 135, 60, 2, 1.83861
25, 2, bw, attraction, a-b-db, 5, 1, 3, 22, 60, 135, 58, 132, 135, 60, 1, 3.99819
25, 2, bw, attraction, a-b-db, 2, 1, 3, 23, 60, 135, 135, 60, 59, 134, 2, 5.34461
25, 2, bw, attraction, a-b-db, 2, 1, 3, 23, 60, 135, 135, 60, 59, 134, 3, 0.73675
25, 2, bw, attraction, a-b-da, 9, 3, 3, 24, 186, 114, 120, 195, 195, 120, 2, 3.1594
25, 2, bw, attraction, a-b-da, 9, 3, 3, 24, 186, 114, 120, 195, 195, 120, 3, 1.40269
25, 2, bw, attraction, a-b-da, 2, 3, 3, 25, 120, 195, 195, 120, 193, 119, 1, 2.23081
25, 2, bw, attraction, a-b-da, 2, 3, 3, 25, 120, 195, 195, 120, 193, 119, 3, 2.18689
25, 2, bw, attraction, a-b-da, 5, 2, 3, 26, 90, 165, 165, 90, 161, 88, 1, 2.84948
25, 2, bw, attraction, a-b-da, 5, 2, 3, 26, 90, 165, 165, 90, 161, 88, 2, 0.824156
25, 2, bw, attraction, a-b-da, 9, 2, 3, 27, 165, 90, 157, 86, 90, 165, 3, 3.80293
25, 2, bw, attraction, a-b-da, 9, 2, 3, 27, 165, 90, 157, 86, 90, 165, 1, 0.689978
25, 2, bw, attraction, a-b-db, 9, 2, 3, 28, 165, 90, 90, 165, 86, 157, 2, 3.81183
25, 2, bw, attraction, a-b-db, 9, 2, 3, 28, 165, 90, 90, 165, 86, 157, 3, 0.944603
25, 2, bw, attraction, a-b-db, 9, 1, 3, 29, 135, 60, 57, 129, 60, 135, 1, 5.47415
25, 2, bw, attraction, a-b-db, 9, 1, 3, 29, 135, 60, 57, 129, 60, 135, 2, 0.9642
25, 2, bw, filler, NA, 999, 999, 3, 30, 185, 126, 174, 125, 91, 98, 1, 1.80532
25, 2, bw, filler, NA, 999, 999, 3, 30, 185, 126, 174, 125, 91, 98, 3, 0.602434
25, 2, bw, filler, NA, 999, 999, 3, 31, 103, 174, 164, 118, 83, 59, 2, 1.88768
25, 2, bw, filler, NA, 999, 999, 3, 31, 103, 174, 164, 118, 83, 59, 3, 0.650979
25, 2, bw, filler, NA, 999, 999, 3, 32, 57, 171, 128, 97, 85, 56, 2, 2.04804
25, 2, bw, filler, NA, 999, 999, 3, 32, 57, 171, 128, 97, 85, 56, 3, 1.02867
25, 2, bw, attraction, a-b-da, 14, 1, 3, 33, 125, 56, 135, 60, 60, 135, 2, 1.7132
25, 2, bw, attraction, a-b-da, 14, 1, 3, 33, 125, 56, 135, 60, 60, 135, 1, 0.563442
25, 2, bw, attraction, a-b-db, 14, 3, 3, 34, 111, 181, 120, 195, 195, 120, 3, 1.659
25, 2, bw, attraction, a-b-db, 14, 3, 3, 34, 111, 181, 120, 195, 195, 120, 1, 1.7024
25, 2, bw, filler, NA, 999, 999, 3, 35, 88, 147, 69, 190, 153, 80, 3, 1.78678
25, 2, bw, filler, NA, 999, 999, 3, 35, 88, 147, 69, 190, 153, 80, 1, 0.647302
25, 2, bw, attraction, a-b-db, 2, 3, 3, 36, 195, 120, 120, 195, 119, 193, 1, 4.79639
25, 2, bw, attraction, a-b-db, 2, 3, 3, 36, 195, 120, 120, 195, 119, 193, 2, 0.53013
25, 2, bw, filler, NA, 999, 999, 3, 37, 127, 147, 96, 173, 151, 175, 3, 1.17842
25, 2, bw, filler, NA, 999, 999, 3, 37, 127, 147, 96, 173, 151, 175, 1, 0.852168
25, 2, bw, attraction, a-b-db, 5, 1, 4, 1, 135, 60, 58, 132, 60, 135, 1, 2.38927
25, 2, bw, attraction, a-b-db, 5, 1, 4, 1, 135, 60, 58, 132, 60, 135, 2, 0.651897
25, 2, bw, attraction, a-b-da, 14, 3, 4, 2, 195, 120, 181, 111, 120, 195, 1, 2.47298
25, 2, bw, attraction, a-b-da, 14, 3, 4, 2, 195, 120, 181, 111, 120, 195, 2, 0.548748
25, 2, bw, catch, NA, 999, 999, 4, 3, 102, 153, 124, 71, 163, 152, 3, 1.29309
25, 2, bw, catch, NA, 999, 999, 4, 3, 102, 153, 124, 71, 163, 152, 2, 0.648876
25, 2, bw, attraction, a-b-da, 2, 2, 4, 4, 90, 165, 165, 90, 163, 89, 2, 1.2444
25, 2, bw, attraction, a-b-da, 2, 2, 4, 4, 90, 165, 165, 90, 163, 89, 1, 0.655738
25, 2, bw, attraction, a-b-db, 9, 1, 4, 5, 135, 60, 57, 129, 60, 135, 1, 2.31721
25, 2, bw, attraction, a-b-db, 9, 1, 4, 5, 135, 60, 57, 129, 60, 135, 3, 0.695416
25, 2, bw, attraction, a-b-da, 2, 1, 4, 6, 135, 60, 60, 135, 134, 59, 3, 2.10437
25, 2, bw, attraction, a-b-da, 2, 1, 4, 6, 135, 60, 60, 135, 134, 59, 2, 0.747497
25, 2, bw, filler, NA, 999, 999, 4, 7, 95, 64, 81, 161, 168, 166, 3, 1.29962
25, 2, bw, filler, NA, 999, 999, 4, 7, 95, 64, 81, 161, 168, 166, 1, 0.813637
25, 2, bw, attraction, a-b-db, 2, 2, 4, 8, 165, 90, 89, 163, 90, 165, 1, 1.30055
25, 2, bw, attraction, a-b-db, 2, 2, 4, 8, 165, 90, 89, 163, 90, 165, 3, 0.693997
25, 2, bw, attraction, a-b-da, 9, 2, 4, 9, 165, 90, 90, 165, 157, 86, 2, 1.34523
25, 2, bw, attraction, a-b-da, 9, 2, 4, 9, 165, 90, 90, 165, 157, 86, 3, 1.33738
25, 2, bw, filler, NA, 999, 999, 4, 10, 171, 150, 161, 71, 150, 194, 3, 1.4747
25, 2, bw, filler, NA, 999, 999, 4, 10, 171, 150, 161, 71, 150, 194, 2, 0.606056
25, 2, bw, attraction, a-b-da, 14, 1, 4, 11, 125, 56, 135, 60, 60, 135, 2, 1.86854
25, 2, bw, attraction, a-b-da, 14, 1, 4, 11, 125, 56, 135, 60, 60, 135, 1, 0.521242
25, 2, bw, filler, NA, 999, 999, 4, 12, 114, 183, 115, 146, 169, 173, 3, 1.24167
25, 2, bw, filler, NA, 999, 999, 4, 12, 114, 183, 115, 146, 169, 173, 2, 0.64669
25, 2, bw, catch, NA, 999, 999, 4, 13, 168, 147, 141, 114, 107, 88, 1, 1.20213
25, 2, bw, catch, NA, 999, 999, 4, 13, 168, 147, 141, 114, 107, 88, 3, 0.659587
25, 2, bw, attraction, a-b-db, 2, 1, 4, 14, 135, 60, 60, 135, 59, 134, 2, 1.87963
25, 2, bw, attraction, a-b-db, 2, 1, 4, 14, 135, 60, 60, 135, 59, 134, 1, 0.593841
25, 2, bw, attraction, a-b-db, 9, 3, 4, 15, 120, 195, 195, 120, 114, 186, 3, 4.97779
25, 2, bw, attraction, a-b-db, 9, 3, 4, 15, 120, 195, 195, 120, 114, 186, 1, 1.7829
25, 2, bw, filler, NA, 999, 999, 4, 16, 160, 58, 171, 153, 101, 92, 2, 1.41345
25, 2, bw, filler, NA, 999, 999, 4, 16, 160, 58, 171, 153, 101, 92, 1, 6.67524
25, 2, bw, filler, NA, 999, 999, 4, 17, 142, 119, 119, 129, 135, 111, 3, 1.73946
25, 2, bw, filler, NA, 999, 999, 4, 17, 142, 119, 119, 129, 135, 111, 2, 0.71688
25, 2, bw, filler, NA, 999, 999, 4, 18, 165, 169, 88, 119, 187, 97, 1, 1.47112
25, 2, bw, filler, NA, 999, 999, 4, 18, 165, 169, 88, 119, 187, 97, 2, 0.546398
25, 2, bw, catch, NA, 999, 999, 4, 19, 100, 95, 158, 157, 102, 153, 2, 1.22928
25, 2, bw, catch, NA, 999, 999, 4, 19, 100, 95, 158, 157, 102, 153, 1, 1.41933
25, 2, bw, attraction, a-b-db, 14, 3, 4, 20, 111, 181, 195, 120, 120, 195, 3, 1.09451
25, 2, bw, attraction, a-b-db, 14, 3, 4, 20, 111, 181, 195, 120, 120, 195, 2, 0.857971
25, 2, bw, filler, NA, 999, 999, 4, 21, 63, 66, 175, 170, 142, 125, 2, 1.30906
25, 2, bw, filler, NA, 999, 999, 4, 21, 63, 66, 175, 170, 142, 125, 1, 0.544329
25, 2, bw, attraction, a-b-da, 14, 2, 4, 22, 90, 165, 165, 90, 153, 83, 1, 1.92054
25, 2, bw, attraction, a-b-da, 14, 2, 4, 22, 90, 165, 165, 90, 153, 83, 3, 0.729348
25, 2, bw, attraction, a-b-da, 5, 3, 4, 23, 190, 117, 120, 195, 195, 120, 2, 2.21911
25, 2, bw, attraction, a-b-da, 5, 3, 4, 23, 190, 117, 120, 195, 195, 120, 3, 0.593004
25, 2, bw, attraction, a-b-db, 2, 3, 4, 24, 119, 193, 195, 120, 120, 195, 3, 1.52716
25, 2, bw, attraction, a-b-db, 2, 3, 4, 24, 119, 193, 195, 120, 120, 195, 2, 0.543358
25, 2, bw, attraction, a-b-da, 5, 1, 4, 25, 60, 135, 135, 60, 132, 58, 2, 1.72101
25, 2, bw, attraction, a-b-da, 5, 1, 4, 25, 60, 135, 135, 60, 132, 58, 3, 1.02751
25, 2, bw, attraction, a-b-db, 5, 3, 4, 26, 195, 120, 120, 195, 117, 190, 2, 1.70484
25, 2, bw, attraction, a-b-db, 5, 3, 4, 26, 195, 120, 120, 195, 117, 190, 1, 0.650587
25, 2, bw, filler, NA, 999, 999, 4, 27, 162, 85, 170, 114, 184, 76, 2, 1.71147
25, 2, bw, filler, NA, 999, 999, 4, 27, 162, 85, 170, 114, 184, 76, 1, 0.6802
25, 2, bw, attraction, a-b-da, 9, 3, 4, 28, 195, 120, 186, 114, 120, 195, 3, 1.71434
25, 2, bw, attraction, a-b-da, 9, 3, 4, 28, 195, 120, 186, 114, 120, 195, 2, 0.614721
25, 2, bw, attraction, a-b-da, 9, 1, 4, 29, 135, 60, 129, 57, 60, 135, 1, 1.08362
25, 2, bw, attraction, a-b-da, 9, 1, 4, 29, 135, 60, 129, 57, 60, 135, 2, 0.69504
25, 2, bw, attraction, a-b-db, 14, 1, 4, 30, 56, 125, 60, 135, 135, 60, 3, 1.14564
25, 2, bw, attraction, a-b-db, 14, 1, 4, 30, 56, 125, 60, 135, 135, 60, 2, 0.682814
25, 2, bw, attraction, a-b-db, 9, 2, 4, 31, 90, 165, 86, 157, 165, 90, 1, 1.11846
25, 2, bw, attraction, a-b-db, 9, 2, 4, 31, 90, 165, 86, 157, 165, 90, 2, 0.671776
25, 2, bw, attraction, a-b-db, 5, 2, 4, 32, 88, 161, 165, 90, 90, 165, 1, 1.0896
25, 2, bw, attraction, a-b-db, 5, 2, 4, 32, 88, 161, 165, 90, 90, 165, 2, 0.65352
25, 2, bw, attraction, a-b-db, 14, 2, 4, 33, 165, 90, 83, 153, 90, 165, 1, 1.07363
25, 2, bw, attraction, a-b-db, 14, 2, 4, 33, 165, 90, 83, 153, 90, 165, 2, 0.59874
25, 2, bw, filler, NA, 999, 999, 4, 34, 120, 187, 193, 81, 73, 167, 1, 1.23564
25, 2, bw, filler, NA, 999, 999, 4, 34, 120, 187, 193, 81, 73, 167, 3, 0.808369
25, 2, bw, attraction, a-b-da, 2, 3, 4, 35, 120, 195, 195, 120, 193, 119, 3, 3.1279
25, 2, bw, attraction, a-b-da, 2, 3, 4, 35, 120, 195, 195, 120, 193, 119, 1, 0.968815
25, 2, bw, attraction, a-b-da, 5, 2, 4, 36, 165, 90, 161, 88, 90, 165, 1, 1.3655
25, 2, bw, attraction, a-b-da, 5, 2, 4, 36, 165, 90, 161, 88, 90, 165, 2, 0.559328
25, 2, bw, filler, NA, 999, 999, 4, 37, 116, 82, 130, 127, 71, 131, 2, 1.35256
25, 2, bw, filler, NA, 999, 999, 4, 37, 116, 82, 130, 127, 71, 131, 1, 0.680876
25, 2, bw, attraction, a-b-db, 5, 1, 5, 1, 58, 132, 60, 135, 135, 60, 2, 3.0098
25, 2, bw, attraction, a-b-db, 5, 1, 5, 1, 58, 132, 60, 135, 135, 60, 3, 1.56056
25, 2, bw, filler, NA, 999, 999, 5, 2, 105, 61, 184, 190, 160, 127, 2, 1.27126
25, 2, bw, filler, NA, 999, 999, 5, 2, 105, 61, 184, 190, 160, 127, 1, 0.523114
25, 2, bw, filler, NA, 999, 999, 5, 3, 135, 100, 152, 159, 60, 183, 2, 1.14006
25, 2, bw, filler, NA, 999, 999, 5, 3, 135, 100, 152, 159, 60, 183, 1, 0.959283
25, 2, bw, attraction, a-b-da, 2, 2, 5, 4, 165, 90, 90, 165, 163, 89, 1, 1.58123
25, 2, bw, attraction, a-b-da, 2, 2, 5, 4, 165, 90, 90, 165, 163, 89, 2, 0.580887
25, 2, bw, attraction, a-b-db, 14, 1, 5, 5, 56, 125, 135, 60, 60, 135, 1, 1.20185
25, 2, bw, attraction, a-b-db, 14, 1, 5, 5, 56, 125, 135, 60, 60, 135, 2, 0.610877
25, 2, bw, attraction, a-b-db, 9, 1, 5, 6, 135, 60, 57, 129, 60, 135, 1, 1.29725
25, 2, bw, attraction, a-b-db, 9, 1, 5, 6, 135, 60, 57, 129, 60, 135, 2, 0.627066
25, 2, bw, catch, NA, 999, 999, 5, 7, 112, 83, 120, 195, 160, 95, 2, 1.33595
25, 2, bw, catch, NA, 999, 999, 5, 7, 112, 83, 120, 195, 160, 95, 1, 0.593948
25, 2, bw, attraction, a-b-da, 14, 2, 5, 8, 90, 165, 165, 90, 153, 83, 1, 1.06404
25, 2, bw, attraction, a-b-da, 14, 2, 5, 8, 90, 165, 165, 90, 153, 83, 2, 0.612206
25, 2, bw, attraction, a-b-da, 5, 2, 5, 9, 161, 88, 165, 90, 90, 165, 2, 1.06581
25, 2, bw, attraction, a-b-da, 5, 2, 5, 9, 161, 88, 165, 90, 90, 165, 3, 0.717575
25, 2, bw, attraction, a-b-da, 5, 3, 5, 10, 190, 117, 120, 195, 195, 120, 2, 1.19215
25, 2, bw, attraction, a-b-da, 5, 3, 5, 10, 190, 117, 120, 195, 195, 120, 3, 0.782652
25, 2, bw, filler, NA, 999, 999, 5, 11, 85, 133, 100, 71, 93, 98, 1, 1.77285
25, 2, bw, filler, NA, 999, 999, 5, 11, 85, 133, 100, 71, 93, 98, 2, 0.559994
25, 2, bw, attraction, a-b-db, 9, 3, 5, 12, 114, 186, 120, 195, 195, 120, 3, 1.64429
25, 2, bw, attraction, a-b-db, 9, 3, 5, 12, 114, 186, 120, 195, 195, 120, 1, 0.77011
25, 2, bw, attraction, a-b-da, 14, 1, 5, 13, 125, 56, 135, 60, 60, 135, 3, 1.64973
25, 2, bw, attraction, a-b-da, 14, 1, 5, 13, 125, 56, 135, 60, 60, 135, 1, 0.612809
25, 2, bw, catch, NA, 999, 999, 5, 14, 101, 94, 159, 156, 121, 134, 2, 1.25926
25, 2, bw, catch, NA, 999, 999, 5, 14, 101, 94, 159, 156, 121, 134, 1, 0.591395
25, 2, bw, attraction, a-b-db, 2, 2, 5, 15, 90, 165, 89, 163, 165, 90, 2, 1.63269
25, 2, bw, attraction, a-b-db, 2, 2, 5, 15, 90, 165, 89, 163, 165, 90, 3, 0.651669
25, 2, bw, attraction, a-b-da, 9, 3, 5, 16, 120, 195, 195, 120, 186, 114, 1, 1.96795
25, 2, bw, attraction, a-b-da, 9, 3, 5, 16, 120, 195, 195, 120, 186, 114, 2, 0.76892
25, 2, bw, filler, NA, 999, 999, 5, 17, 164, 117, 130, 115, 149, 89, 1, 1.35105
25, 2, bw, filler, NA, 999, 999, 5, 17, 164, 117, 130, 115, 149, 89, 2, 1.49636
25, 2, bw, attraction, a-b-db, 5, 3, 5, 18, 117, 190, 195, 120, 120, 195, 3, 1.41958
25, 2, bw, attraction, a-b-db, 5, 3, 5, 18, 117, 190, 195, 120, 120, 195, 2, 0.889146
25, 2, bw, attraction, a-b-db, 5, 2, 5, 19, 165, 90, 90, 165, 88, 161, 3, 3.58598
25, 2, bw, attraction, a-b-db, 5, 2, 5, 19, 165, 90, 90, 165, 88, 161, 1, 1.39585
25, 2, bw, attraction, a-b-db, 2, 3, 5, 20, 119, 193, 120, 195, 195, 120, 3, 1.16075
25, 2, bw, attraction, a-b-db, 2, 3, 5, 20, 119, 193, 120, 195, 195, 120, 2, 0.625591
25, 2, bw, attraction, a-b-da, 9, 2, 5, 21, 157, 86, 165, 90, 90, 165, 2, 1.453
25, 2, bw, attraction, a-b-da, 9, 2, 5, 21, 157, 86, 165, 90, 90, 165, 1, 0.666675
25, 2, bw, attraction, a-b-db, 2, 1, 5, 22, 135, 60, 60, 135, 59, 134, 3, 2.18295
25, 2, bw, attraction, a-b-db, 2, 1, 5, 22, 135, 60, 60, 135, 59, 134, 1, 1.67881
25, 2, bw, attraction, a-b-da, 9, 1, 5, 23, 129, 57, 135, 60, 60, 135, 2, 2.15963
25, 2, bw, attraction, a-b-da, 9, 1, 5, 23, 129, 57, 135, 60, 60, 135, 1, 0.5928
25, 2, bw, filler, NA, 999, 999, 5, 24, 166, 136, 67, 146, 128, 116, 1, 1.27957
25, 2, bw, filler, NA, 999, 999, 5, 24, 166, 136, 67, 146, 128, 116, 2, 0.619197
25, 2, bw, attraction, a-b-da, 14, 3, 5, 25, 181, 111, 120, 195, 195, 120, 2, 1.44803
25, 2, bw, attraction, a-b-da, 14, 3, 5, 25, 181, 111, 120, 195, 195, 120, 1, 0.638504
25, 2, bw, attraction, a-b-db, 14, 3, 5, 26, 195, 120, 111, 181, 120, 195, 1, 1.25053
25, 2, bw, attraction, a-b-db, 14, 3, 5, 26, 195, 120, 111, 181, 120, 195, 2, 0.615232
25, 2, bw, filler, NA, 999, 999, 5, 27, 100, 127, 143, 74, 84, 162, 1, 1.75509
25, 2, bw, filler, NA, 999, 999, 5, 27, 100, 127, 143, 74, 84, 162, 2, 1.40417
25, 2, bw, filler, NA, 999, 999, 5, 28, 186, 71, 95, 67, 89, 178, 3, 1.32012
25, 2, bw, filler, NA, 999, 999, 5, 28, 186, 71, 95, 67, 89, 178, 2, 0.763081
25, 2, bw, attraction, a-b-da, 5, 1, 5, 29, 132, 58, 60, 135, 135, 60, 3, 1.47609
25, 2, bw, attraction, a-b-da, 5, 1, 5, 29, 132, 58, 60, 135, 135, 60, 2, 0.575257
25, 2, bw, attraction, a-b-da, 2, 1, 5, 30, 134, 59, 135, 60, 60, 135, 1, 1.99819
25, 2, bw, attraction, a-b-da, 2, 1, 5, 30, 134, 59, 135, 60, 60, 135, 3, 0.861004
25, 2, bw, filler, NA, 999, 999, 5, 31, 104, 116, 100, 73, 149, 152, 3, 1.09648
25, 2, bw, filler, NA, 999, 999, 5, 31, 104, 116, 100, 73, 149, 152, 2, 0.58668
25, 2, bw, filler, NA, 999, 999, 5, 32, 101, 106, 129, 59, 193, 142, 3, 1.03552
25, 2, bw, filler, NA, 999, 999, 5, 32, 101, 106, 129, 59, 193, 142, 2, 0.640364
25, 2, bw, attraction, a-b-da, 2, 3, 5, 33, 120, 195, 195, 120, 193, 119, 1, 1.46891
25, 2, bw, attraction, a-b-da, 2, 3, 5, 33, 120, 195, 195, 120, 193, 119, 3, 0.616633
25, 2, bw, filler, NA, 999, 999, 5, 34, 61, 102, 139, 63, 127, 95, 3, 1.89221
25, 2, bw, filler, NA, 999, 999, 5, 34, 61, 102, 139, 63, 127, 95, 1, 1.06632
25, 2, bw, attraction, a-b-db, 9, 2, 5, 35, 165, 90, 90, 165, 86, 157, 2, 1.38865
25, 2, bw, attraction, a-b-db, 9, 2, 5, 35, 165, 90, 90, 165, 86, 157, 1, 0.797082
25, 2, bw, attraction, a-b-db, 14, 2, 5, 36, 165, 90, 83, 153, 90, 165, 2, 1.40307
25, 2, bw, attraction, a-b-db, 14, 2, 5, 36, 165, 90, 83, 153, 90, 165, 1, 0.802579
25, 2, bw, catch, NA, 999, 999, 5, 37, 129, 126, 67, 128, 134, 181, 3, 1.12687
25, 2, bw, catch, NA, 999, 999, 5, 37, 129, 126, 67, 128, 134, 181, 2, 0.736413
25, 2, bw, catch, NA, 999, 999, 6, 1, 124, 191, 128, 67, 150, 105, 1, 1.47277
25, 2, bw, catch, NA, 999, 999, 6, 1, 124, 191, 128, 67, 150, 105, 2, 0.620003
25, 2, bw, filler, NA, 999, 999, 6, 2, 162, 181, 98, 61, 110, 118, 1, 2.39402
25, 2, bw, filler, NA, 999, 999, 6, 2, 162, 181, 98, 61, 110, 118, 2, 0.601945
25, 2, bw, filler, NA, 999, 999, 6, 3, 116, 171, 91, 67, 134, 177, 3, 1.12074
25, 2, bw, filler, NA, 999, 999, 6, 3, 116, 171, 91, 67, 134, 177, 2, 0.785566
25, 2, bw, attraction, a-b-da, 14, 1, 6, 4, 125, 56, 60, 135, 135, 60, 3, 1.53639
25, 2, bw, attraction, a-b-da, 14, 1, 6, 4, 125, 56, 60, 135, 135, 60, 2, 0.67992
25, 2, bw, attraction, a-b-da, 9, 3, 6, 5, 195, 120, 186, 114, 120, 195, 3, 1.36502
25, 2, bw, attraction, a-b-da, 9, 3, 6, 5, 195, 120, 186, 114, 120, 195, 2, 0.668432
25, 2, bw, filler, NA, 999, 999, 6, 6, 102, 180, 92, 84, 78, 113, 1, 1.19965
25, 2, bw, filler, NA, 999, 999, 6, 6, 102, 180, 92, 84, 78, 113, 3, 0.734619
25, 2, bw, attraction, a-b-db, 9, 3, 6, 7, 195, 120, 120, 195, 114, 186, 1, 2.00114
25, 2, bw, attraction, a-b-db, 9, 3, 6, 7, 195, 120, 120, 195, 114, 186, 2, 0.557824
25, 2, bw, filler, NA, 999, 999, 6, 8, 177, 136, 147, 128, 66, 177, 1, 1.06134
25, 2, bw, filler, NA, 999, 999, 6, 8, 177, 136, 147, 128, 66, 177, 3, 0.746454
25, 2, bw, attraction, a-b-da, 2, 2, 6, 9, 165, 90, 163, 89, 90, 165, 2, 1.50632
25, 2, bw, attraction, a-b-da, 2, 2, 6, 9, 165, 90, 163, 89, 90, 165, 3, 0.699275
25, 2, bw, filler, NA, 999, 999, 6, 10, 166, 77, 63, 65, 88, 154, 3, 1.42253
25, 2, bw, filler, NA, 999, 999, 6, 10, 166, 77, 63, 65, 88, 154, 2, 2.326
25, 2, bw, filler, NA, 999, 999, 6, 11, 70, 114, 77, 96, 68, 192, 3, 3.78337
25, 2, bw, filler, NA, 999, 999, 6, 11, 70, 114, 77, 96, 68, 192, 2, 0.690668
25, 2, bw, filler, NA, 999, 999, 6, 12, 101, 91, 102, 192, 188, 153, 3, 1.62431
25, 2, bw, filler, NA, 999, 999, 6, 12, 101, 91, 102, 192, 188, 153, 1, 0.685991
25, 2, bw, catch, NA, 999, 999, 6, 13, 122, 133, 187, 128, 62, 133, 2, 1.19956
25, 2, bw, catch, NA, 999, 999, 6, 13, 122, 133, 187, 128, 62, 133, 3, 0.694609
25, 2, bw, filler, NA, 999, 999, 6, 14, 189, 88, 185, 128, 62, 148, 2, 1.23217
25, 2, bw, filler, NA, 999, 999, 6, 14, 189, 88, 185, 128, 62, 148, 3, 0.790514
25, 2, bw, attraction, a-b-da, 14, 3, 6, 15, 120, 195, 181, 111, 195, 120, 1, 2.58781
25, 2, bw, attraction, a-b-da, 14, 3, 6, 15, 120, 195, 181, 111, 195, 120, 2, 0.757046
25, 2, bw, attraction, a-b-db, 5, 2, 6, 16, 88, 161, 165, 90, 90, 165, 2, 1.10731
25, 2, bw, attraction, a-b-db, 5, 2, 6, 16, 88, 161, 165, 90, 90, 165, 3, 0.952181
25, 2, bw, attraction, a-b-db, 9, 2, 6, 17, 90, 165, 86, 157, 165, 90, 1, 1.07903
25, 2, bw, attraction, a-b-db, 9, 2, 6, 17, 90, 165, 86, 157, 165, 90, 3, 0.713528
25, 2, bw, attraction, a-b-da, 14, 2, 6, 18, 90, 165, 165, 90, 153, 83, 2, 1.11644
25, 2, bw, attraction, a-b-da, 14, 2, 6, 18, 90, 165, 165, 90, 153, 83, 3, 0.685678
25, 2, bw, attraction, a-b-da, 9, 1, 6, 19, 129, 57, 60, 135, 135, 60, 1, 1.26371
25, 2, bw, attraction, a-b-da, 9, 1, 6, 19, 129, 57, 60, 135, 135, 60, 2, 0.780735
25, 2, bw, attraction, a-b-da, 5, 3, 6, 20, 190, 117, 195, 120, 120, 195, 2, 1.13286
25, 2, bw, attraction, a-b-da, 5, 3, 6, 20, 190, 117, 195, 120, 120, 195, 1, 0.596807
25, 2, bw, attraction, a-b-db, 14, 3, 6, 21, 195, 120, 111, 181, 120, 195, 2, 0.932376
25, 2, bw, attraction, a-b-db, 14, 3, 6, 21, 195, 120, 111, 181, 120, 195, 1, 1.17372
25, 2, bw, attraction, a-b-db, 14, 2, 6, 22, 83, 153, 90, 165, 165, 90, 2, 2.23041
25, 2, bw, attraction, a-b-db, 14, 2, 6, 22, 83, 153, 90, 165, 165, 90, 1, 2.52228
25, 2, bw, filler, NA, 999, 999, 6, 23, 115, 175, 125, 118, 71, 78, 1, 1.3235
25, 2, bw, filler, NA, 999, 999, 6, 23, 115, 175, 125, 118, 71, 78, 3, 0.798165
25, 2, bw, filler, NA, 999, 999, 6, 24, 172, 185, 105, 101, 104, 101, 1, 1.21803
25, 2, bw, filler, NA, 999, 999, 6, 24, 172, 185, 105, 101, 104, 101, 2, 0.64887
25, 2, bw, attraction, a-b-da, 2, 3, 6, 25, 120, 195, 195, 120, 193, 119, 1, 1.75689
25, 2, bw, attraction, a-b-da, 2, 3, 6, 25, 120, 195, 195, 120, 193, 119, 3, 0.853447
25, 2, bw, attraction, a-b-da, 2, 1, 6, 26, 135, 60, 60, 135, 134, 59, 1, 2.79093
25, 2, bw, attraction, a-b-da, 2, 1, 6, 26, 135, 60, 60, 135, 134, 59, 2, 0.519688
25, 2, bw, attraction, a-b-db, 9, 1, 6, 27, 57, 129, 60, 135, 135, 60, 2, 3.85601
25, 2, bw, attraction, a-b-db, 9, 1, 6, 27, 57, 129, 60, 135, 135, 60, 3, 0.643279
25, 2, bw, catch, NA, 999, 999, 6, 28, 125, 70, 103, 152, 125, 190, 3, 1.58658
25, 2, bw, catch, NA, 999, 999, 6, 28, 125, 70, 103, 152, 125, 190, 1, 0.753322
25, 2, bw, attraction, a-b-da, 5, 1, 6, 29, 60, 135, 135, 60, 132, 58, 2, 2.80822
25, 2, bw, attraction, a-b-da, 5, 1, 6, 29, 60, 135, 135, 60, 132, 58, 1, 0.717921
25, 2, bw, attraction, a-b-db, 5, 3, 6, 30, 117, 190, 120, 195, 195, 120, 3, 1.59963
25, 2, bw, attraction, a-b-db, 5, 3, 6, 30, 117, 190, 120, 195, 195, 120, 1, 0.67166
25, 2, bw, attraction, a-b-db, 2, 1, 6, 31, 59, 134, 135, 60, 60, 135, 2, 4.68198
25, 2, bw, attraction, a-b-db, 2, 1, 6, 31, 59, 134, 135, 60, 60, 135, 3, 2.37236
25, 2, bw, attraction, a-b-db, 14, 1, 6, 32, 60, 135, 135, 60, 56, 125, 3, 1.48221
25, 2, bw, attraction, a-b-db, 14, 1, 6, 32, 60, 135, 135, 60, 56, 125, 2, 0.686549
25, 2, bw, attraction, a-b-da, 5, 2, 6, 33, 90, 165, 165, 90, 161, 88, 1, 2.57049
25, 2, bw, attraction, a-b-da, 5, 2, 6, 33, 90, 165, 165, 90, 161, 88, 2, 0.601405
25, 2, bw, attraction, a-b-db, 2, 2, 6, 34, 89, 163, 90, 165, 165, 90, 1, 1.27935
25, 2, bw, attraction, a-b-db, 2, 2, 6, 34, 89, 163, 90, 165, 165, 90, 2, 0.674435
25, 2, bw, attraction, a-b-db, 2, 3, 6, 35, 120, 195, 195, 120, 119, 193, 2, 2.30173
25, 2, bw, attraction, a-b-db, 2, 3, 6, 35, 120, 195, 195, 120, 119, 193, 1, 0.663743
25, 2, bw, attraction, a-b-db, 5, 1, 6, 36, 58, 132, 60, 135, 135, 60, 3, 1.44286
25, 2, bw, attraction, a-b-db, 5, 1, 6, 36, 58, 132, 60, 135, 135, 60, 1, 0.64811
25, 2, bw, attraction, a-b-da, 9, 2, 6, 37, 157, 86, 165, 90, 90, 165, 1, 1.71588
25, 2, bw, attraction, a-b-da, 9, 2, 6, 37, 157, 86, 165, 90, 90, 165, 3, 0.693053
25, 2, bw, attraction, a-b-db, 9, 3, 7, 1, 120, 195, 195, 120, 114, 186, 1, 1.08194
25, 2, bw, attraction, a-b-db, 9, 3, 7, 1, 120, 195, 195, 120, 114, 186, 2, 0.676223
25, 2, bw, attraction, a-b-da, 5, 2, 7, 2, 165, 90, 90, 165, 161, 88, 2, 3.58299
25, 2, bw, attraction, a-b-da, 5, 2, 7, 2, 165, 90, 90, 165, 161, 88, 1, 0.886956
25, 2, bw, attraction, a-b-db, 14, 3, 7, 3, 120, 195, 195, 120, 111, 181, 1, 1.45772
25, 2, bw, attraction, a-b-db, 14, 3, 7, 3, 120, 195, 195, 120, 111, 181, 2, 1.01446
25, 2, bw, attraction, a-b-db, 14, 2, 7, 4, 83, 153, 165, 90, 90, 165, 1, 1.41171
25, 2, bw, attraction, a-b-db, 14, 2, 7, 4, 83, 153, 165, 90, 90, 165, 2, 0.62552
25, 2, bw, attraction, a-b-db, 9, 2, 7, 5, 165, 90, 90, 165, 86, 157, 3, 3.42297
25, 2, bw, attraction, a-b-db, 9, 2, 7, 5, 165, 90, 90, 165, 86, 157, 1, 0.691945
25, 2, bw, attraction, a-b-da, 5, 1, 7, 6, 135, 60, 132, 58, 60, 135, 3, 1.48536
25, 2, bw, attraction, a-b-da, 5, 1, 7, 6, 135, 60, 132, 58, 60, 135, 2, 0.712805
25, 2, bw, filler, NA, 999, 999, 7, 7, 99, 130, 86, 172, 91, 175, 3, 1.21949
25, 2, bw, filler, NA, 999, 999, 7, 7, 99, 130, 86, 172, 91, 175, 1, 0.658017
25, 2, bw, attraction, a-b-da, 9, 2, 7, 8, 165, 90, 157, 86, 90, 165, 3, 4.28584
25, 2, bw, attraction, a-b-da, 9, 2, 7, 8, 165, 90, 157, 86, 90, 165, 2, 0.677745
25, 2, bw, attraction, a-b-da, 14, 2, 7, 9, 153, 83, 90, 165, 165, 90, 3, 1.17018
25, 2, bw, attraction, a-b-da, 14, 2, 7, 9, 153, 83, 90, 165, 165, 90, 2, 0.764719
25, 2, bw, catch, NA, 999, 999, 7, 10, 104, 151, 80, 115, 126, 189, 3, 1.22561
25, 2, bw, catch, NA, 999, 999, 7, 10, 104, 151, 80, 115, 126, 189, 2, 0.657862
25, 2, bw, filler, NA, 999, 999, 7, 11, 111, 90, 105, 165, 154, 73, 2, 1.10888
25, 2, bw, filler, NA, 999, 999, 7, 11, 111, 90, 105, 165, 154, 73, 3, 0.631954
25, 2, bw, attraction, a-b-db, 5, 1, 7, 12, 135, 60, 60, 135, 58, 132, 1, 1.09975
25, 2, bw, attraction, a-b-db, 5, 1, 7, 12, 135, 60, 60, 135, 58, 132, 3, 0.622109
25, 2, bw, attraction, a-b-db, 9, 1, 7, 13, 60, 135, 57, 129, 135, 60, 3, 1.22798
25, 2, bw, attraction, a-b-db, 9, 1, 7, 13, 60, 135, 57, 129, 135, 60, 2, 0.681315
25, 2, bw, attraction, a-b-da, 2, 3, 7, 14, 120, 195, 193, 119, 195, 120, 3, 1.09915
25, 2, bw, attraction, a-b-da, 2, 3, 7, 14, 120, 195, 193, 119, 195, 120, 2, 0.653957
25, 2, bw, catch, NA, 999, 999, 7, 15, 100, 95, 162, 153, 130, 125, 1, 2.38494
25, 2, bw, catch, NA, 999, 999, 7, 15, 100, 95, 162, 153, 130, 125, 2, 1.27598
25, 2, bw, attraction, a-b-db, 2, 1, 7, 16, 59, 134, 135, 60, 60, 135, 3, 1.70768
25, 2, bw, attraction, a-b-db, 2, 1, 7, 16, 59, 134, 135, 60, 60, 135, 1, 0.621323
25, 2, bw, filler, NA, 999, 999, 7, 17, 74, 149, 182, 122, 68, 171, 2, 0.981457
25, 2, bw, filler, NA, 999, 999, 7, 17, 74, 149, 182, 122, 68, 171, 3, 1.07516
25, 2, bw, attraction, a-b-da, 14, 1, 7, 18, 125, 56, 135, 60, 60, 135, 2, 1.71718
25, 2, bw, attraction, a-b-da, 14, 1, 7, 18, 125, 56, 135, 60, 60, 135, 3, 0.712602
25, 2, bw, attraction, a-b-da, 9, 3, 7, 19, 186, 114, 195, 120, 120, 195, 3, 1.34592
25, 2, bw, attraction, a-b-da, 9, 3, 7, 19, 186, 114, 195, 120, 120, 195, 1, 0.633642
25, 2, bw, attraction, a-b-da, 14, 3, 7, 20, 195, 120, 120, 195, 181, 111, 2, 1.23127
25, 2, bw, attraction, a-b-da, 14, 3, 7, 20, 195, 120, 120, 195, 181, 111, 3, 0.813795
25, 2, bw, attraction, a-b-da, 9, 1, 7, 21, 135, 60, 60, 135, 129, 57, 2, 1.09779
25, 2, bw, attraction, a-b-da, 9, 1, 7, 21, 135, 60, 60, 135, 129, 57, 3, 0.893085
25, 2, bw, filler, NA, 999, 999, 7, 22, 178, 67, 145, 107, 153, 177, 3, 1.33642
25, 2, bw, filler, NA, 999, 999, 7, 22, 178, 67, 145, 107, 153, 177, 1, 1.31365
25, 2, bw, catch, NA, 999, 999, 7, 23, 168, 147, 127, 68, 112, 143, 1, 1.09908
25, 2, bw, catch, NA, 999, 999, 7, 23, 168, 147, 127, 68, 112, 143, 2, 0.718304
25, 2, bw, attraction, a-b-da, 5, 3, 7, 24, 195, 120, 190, 117, 120, 195, 1, 2.61465
25, 2, bw, attraction, a-b-da, 5, 3, 7, 24, 195, 120, 190, 117, 120, 195, 3, 0.910227
25, 2, bw, filler, NA, 999, 999, 7, 25, 189, 163, 173, 90, 176, 111, 1, 1.25522
25, 2, bw, filler, NA, 999, 999, 7, 25, 189, 163, 173, 90, 176, 111, 2, 0.707705
25, 2, bw, attraction, a-b-db, 2, 2, 7, 26, 165, 90, 90, 165, 89, 163, 2, 1.35115
25, 2, bw, attraction, a-b-db, 2, 2, 7, 26, 165, 90, 90, 165, 89, 163, 1, 0.744519
25, 2, bw, filler, NA, 999, 999, 7, 27, 160, 195, 186, 140, 83, 191, 2, 1.06318
25, 2, bw, filler, NA, 999, 999, 7, 27, 160, 195, 186, 140, 83, 191, 3, 0.724023
25, 2, bw, attraction, a-b-da, 2, 2, 7, 28, 165, 90, 163, 89, 90, 165, 2, 1.00461
25, 2, bw, attraction, a-b-da, 2, 2, 7, 28, 165, 90, 163, 89, 90, 165, 3, 0.658557
25, 2, bw, attraction, a-b-db, 14, 1, 7, 29, 56, 125, 60, 135, 135, 60, 2, 1.51152
25, 2, bw, attraction, a-b-db, 14, 1, 7, 29, 56, 125, 60, 135, 135, 60, 1, 0.553931
25, 2, bw, filler, NA, 999, 999, 7, 30, 82, 57, 93, 173, 97, 173, 3, 1.76929
25, 2, bw, filler, NA, 999, 999, 7, 30, 82, 57, 93, 173, 97, 173, 1, 0.713577
25, 2, bw, filler, NA, 999, 999, 7, 31, 135, 166, 72, 149, 80, 187, 1, 1.3073
25, 2, bw, filler, NA, 999, 999, 7, 31, 135, 166, 72, 149, 80, 187, 2, 0.604496
25, 2, bw, attraction, a-b-db, 2, 3, 7, 32, 195, 120, 120, 195, 119, 193, 1, 2.37966
25, 2, bw, attraction, a-b-db, 2, 3, 7, 32, 195, 120, 120, 195, 119, 193, 2, 0.547565
25, 2, bw, attraction, a-b-db, 5, 3, 7, 33, 195, 120, 117, 190, 120, 195, 2, 1.06703
25, 2, bw, attraction, a-b-db, 5, 3, 7, 33, 195, 120, 117, 190, 120, 195, 1, 0.903016
25, 2, bw, attraction, a-b-db, 5, 2, 7, 34, 165, 90, 90, 165, 88, 161, 2, 5.13715
25, 2, bw, attraction, a-b-db, 5, 2, 7, 34, 165, 90, 90, 165, 88, 161, 1, 0.737999
25, 2, bw, attraction, a-b-da, 2, 1, 7, 35, 60, 135, 134, 59, 135, 60, 3, 1.41017
25, 2, bw, attraction, a-b-da, 2, 1, 7, 35, 60, 135, 134, 59, 135, 60, 1, 0.664598
25, 2, bw, filler, NA, 999, 999, 7, 36, 105, 195, 174, 101, 174, 67, 1, 1.61207
25, 2, bw, filler, NA, 999, 999, 7, 36, 105, 195, 174, 101, 174, 67, 3, 0.714508
25, 2, bw, filler, NA, 999, 999, 7, 37, 126, 150, 63, 173, 149, 82, 1, 1.11325
25, 2, bw, filler, NA, 999, 999, 7, 37, 126, 150, 63, 173, 149, 82, 2, 0.732349
25, 2, bw, attraction, a-b-da, 14, 3, 8, 1, 195, 120, 120, 195, 181, 111, 2, 2.3436
25, 2, bw, attraction, a-b-da, 14, 3, 8, 1, 195, 120, 120, 195, 181, 111, 1, 0.701558
25, 2, bw, filler, NA, 999, 999, 8, 2, 117, 178, 121, 163, 108, 128, 1, 1.6389
25, 2, bw, filler, NA, 999, 999, 8, 2, 117, 178, 121, 163, 108, 128, 3, 0.558488
25, 2, bw, attraction, a-b-da, 9, 1, 8, 3, 129, 57, 135, 60, 60, 135, 2, 1.47162
25, 2, bw, attraction, a-b-da, 9, 1, 8, 3, 129, 57, 135, 60, 60, 135, 3, 0.699028
25, 2, bw, filler, NA, 999, 999, 8, 4, 78, 165, 142, 108, 164, 89, 2, 1.2032
25, 2, bw, filler, NA, 999, 999, 8, 4, 78, 165, 142, 108, 164, 89, 1, 0.602872
25, 2, bw, attraction, a-b-db, 5, 2, 8, 5, 165, 90, 88, 161, 90, 165, 2, 1.04964
25, 2, bw, attraction, a-b-db, 5, 2, 8, 5, 165, 90, 88, 161, 90, 165, 1, 2.39619
25, 2, bw, attraction, a-b-da, 5, 1, 8, 6, 132, 58, 60, 135, 135, 60, 1, 2.21166
25, 2, bw, attraction, a-b-da, 5, 1, 8, 6, 132, 58, 60, 135, 135, 60, 2, 0.984398
25, 2, bw, attraction, a-b-db, 5, 3, 8, 7, 195, 120, 120, 195, 117, 190, 1, 3.62312
25, 2, bw, attraction, a-b-db, 5, 3, 8, 7, 195, 120, 120, 195, 117, 190, 2, 1.44484
25, 2, bw, filler, NA, 999, 999, 8, 8, 90, 134, 123, 68, 164, 160, 3, 1.64075
25, 2, bw, filler, NA, 999, 999, 8, 8, 90, 134, 123, 68, 164, 160, 2, 0.764097
25, 2, bw, filler, NA, 999, 999, 8, 9, 105, 121, 154, 157, 88, 115, 2, 1.29143
25, 2, bw, filler, NA, 999, 999, 8, 9, 105, 121, 154, 157, 88, 115, 3, 0.68988
25, 2, bw, attraction, a-b-db, 9, 2, 8, 10, 86, 157, 165, 90, 90, 165, 3, 1.4433
25, 2, bw, attraction, a-b-db, 9, 2, 8, 10, 86, 157, 165, 90, 90, 165, 2, 0.703474
25, 2, bw, attraction, a-b-db, 14, 1, 8, 11, 60, 135, 135, 60, 56, 125, 1, 1.92275
25, 2, bw, attraction, a-b-db, 14, 1, 8, 11, 60, 135, 135, 60, 56, 125, 3, 0.6447
25, 2, bw, catch, NA, 999, 999, 8, 12, 136, 179, 134, 121, 122, 73, 1, 1.24848
25, 2, bw, catch, NA, 999, 999, 8, 12, 136, 179, 134, 121, 122, 73, 3, 0.518292
25, 2, bw, attraction, a-b-db, 9, 3, 8, 13, 120, 195, 114, 186, 195, 120, 3, 4.00708
25, 2, bw, attraction, a-b-db, 9, 3, 8, 13, 120, 195, 114, 186, 195, 120, 2, 1.21341
25, 2, bw, filler, NA, 999, 999, 8, 14, 137, 106, 183, 116, 94, 146, 2, 1.46587
25, 2, bw, filler, NA, 999, 999, 8, 14, 137, 106, 183, 116, 94, 146, 3, 0.656088
25, 2, bw, attraction, a-b-da, 5, 3, 8, 15, 120, 195, 190, 117, 195, 120, 3, 1.35389
25, 2, bw, attraction, a-b-da, 5, 3, 8, 15, 120, 195, 190, 117, 195, 120, 2, 0.618928
25, 2, bw, attraction, a-b-db, 14, 2, 8, 16, 83, 153, 90, 165, 165, 90, 2, 1.84069
25, 2, bw, attraction, a-b-db, 14, 2, 8, 16, 83, 153, 90, 165, 165, 90, 1, 0.804698
25, 2, bw, attraction, a-b-da, 9, 3, 8, 17, 120, 195, 186, 114, 195, 120, 1, 1.69954
25, 2, bw, attraction, a-b-da, 9, 3, 8, 17, 120, 195, 186, 114, 195, 120, 3, 0.629816
25, 2, bw, catch, NA, 999, 999, 8, 18, 140, 175, 66, 129, 138, 117, 1, 1.17066
25, 2, bw, catch, NA, 999, 999, 8, 18, 140, 175, 66, 129, 138, 117, 2, 0.579754
25, 2, bw, filler, NA, 999, 999, 8, 19, 92, 158, 103, 195, 164, 181, 3, 1.17686
25, 2, bw, filler, NA, 999, 999, 8, 19, 92, 158, 103, 195, 164, 181, 1, 0.617367
25, 2, bw, attraction, a-b-da, 2, 1, 8, 20, 60, 135, 134, 59, 135, 60, 3, 1.2476
25, 2, bw, attraction, a-b-da, 2, 1, 8, 20, 60, 135, 134, 59, 135, 60, 2, 0.756558
25, 2, bw, attraction, a-b-da, 5, 2, 8, 21, 165, 90, 90, 165, 161, 88, 1, 1.23439
25, 2, bw, attraction, a-b-da, 5, 2, 8, 21, 165, 90, 90, 165, 161, 88, 2, 0.672237
25, 2, bw, attraction, a-b-da, 14, 1, 8, 22, 125, 56, 60, 135, 135, 60, 2, 2.22898
25, 2, bw, attraction, a-b-da, 14, 1, 8, 22, 125, 56, 60, 135, 135, 60, 1, 0.579682
25, 2, bw, filler, NA, 999, 999, 8, 23, 159, 104, 121, 86, 63, 163, 1, 1.23925
25, 2, bw, filler, NA, 999, 999, 8, 23, 159, 104, 121, 86, 63, 163, 3, 0.973952
25, 2, bw, filler, NA, 999, 999, 8, 24, 104, 107, 127, 126, 170, 102, 3, 2.15945
25, 2, bw, filler, NA, 999, 999, 8, 24, 104, 107, 127, 126, 170, 102, 1, 0.743327
25, 2, bw, attraction, a-b-da, 2, 2, 8, 25, 163, 89, 165, 90, 90, 165, 1, 1.31954
25, 2, bw, attraction, a-b-da, 2, 2, 8, 25, 163, 89, 165, 90, 90, 165, 3, 0.666
25, 2, bw, attraction, a-b-db, 2, 2, 8, 26, 165, 90, 90, 165, 89, 163, 1, 2.60492
25, 2, bw, attraction, a-b-db, 2, 2, 8, 26, 165, 90, 90, 165, 89, 163, 3, 1.26607
25, 2, bw, attraction, a-b-db, 14, 3, 8, 27, 111, 181, 120, 195, 195, 120, 3, 2.22713
25, 2, bw, attraction, a-b-db, 14, 3, 8, 27, 111, 181, 120, 195, 195, 120, 1, 1.97823
25, 2, bw, attraction, a-b-da, 9, 2, 8, 28, 165, 90, 157, 86, 90, 165, 3, 2.94484
25, 2, bw, attraction, a-b-da, 9, 2, 8, 28, 165, 90, 157, 86, 90, 165, 2, 0.53866
25, 2, bw, attraction, a-b-db, 9, 1, 8, 29, 60, 135, 57, 129, 135, 60, 1, 2.13064
25, 2, bw, attraction, a-b-db, 9, 1, 8, 29, 60, 135, 57, 129, 135, 60, 3, 0.563018
25, 2, bw, attraction, a-b-da, 14, 2, 8, 30, 153, 83, 165, 90, 90, 165, 3, 1.37279
25, 2, bw, attraction, a-b-da, 14, 2, 8, 30, 153, 83, 165, 90, 90, 165, 2, 0.570997
25, 2, bw, attraction, a-b-db, 2, 1, 8, 31, 59, 134, 60, 135, 135, 60, 3, 1.43542
25, 2, bw, attraction, a-b-db, 2, 1, 8, 31, 59, 134, 60, 135, 135, 60, 2, 0.68695
25, 2, bw, filler, NA, 999, 999, 8, 32, 111, 191, 169, 119, 120, 159, 1, 0.97128
25, 2, bw, filler, NA, 999, 999, 8, 32, 111, 191, 169, 119, 120, 159, 2, 0.692115
25, 2, bw, catch, NA, 999, 999, 8, 33, 156, 99, 112, 83, 190, 125, 2, 1.08635
25, 2, bw, catch, NA, 999, 999, 8, 33, 156, 99, 112, 83, 190, 125, 3, 1.36264
25, 2, bw, attraction, a-b-da, 2, 3, 8, 34, 193, 119, 195, 120, 120, 195, 1, 3.08795
25, 2, bw, attraction, a-b-da, 2, 3, 8, 34, 193, 119, 195, 120, 120, 195, 3, 0.610512
25, 2, bw, attraction, a-b-db, 5, 1, 8, 35, 58, 132, 135, 60, 60, 135, 1, 1.13796
25, 2, bw, attraction, a-b-db, 5, 1, 8, 35, 58, 132, 135, 60, 60, 135, 2, 0.682312
25, 2, bw, attraction, a-b-db, 2, 3, 8, 36, 195, 120, 120, 195, 119, 193, 1, 1.1003
25, 2, bw, attraction, a-b-db, 2, 3, 8, 36, 195, 120, 120, 195, 119, 193, 2, 0.599674
25, 2, bw, filler, NA, 999, 999, 8, 37, 144, 142, 141, 146, 183, 76, 1, 1.80603
25, 2, bw, filler, NA, 999, 999, 8, 37, 144, 142, 141, 146, 183, 76, 3, 0.80491
