sub_n, computer_n, bw_cond, effect, set, distance, diag, block_n, trial_n, h1, w1, h2, w2, h3, w3, choice, rt 
2, 2, wb, practice, NA, 999, 999, 0, 1, 149, 146, 194, 109, 71, 181, 3, 14.9326
2, 2, wb, practice, NA, 999, 999, 0, 1, 149, 146, 194, 109, 71, 181, 1, 11.6077
2, 2, wb, practice, NA, 999, 999, 0, 2, 106, 174, 96, 148, 149, 191, 2, 1.77404
2, 2, wb, practice, NA, 999, 999, 0, 2, 106, 174, 96, 148, 149, 191, 3, 2.80674
2, 2, wb, practice, NA, 999, 999, 0, 3, 114, 114, 163, 73, 170, 67, 1, 6.01526
2, 2, wb, practice, NA, 999, 999, 0, 3, 114, 114, 163, 73, 170, 67, 2, 2.28467
2, 2, wb, filler, NA, 999, 999, 1, 1, 138, 97, 109, 113, 186, 107, 2, 8.24316
2, 2, wb, filler, NA, 999, 999, 1, 1, 138, 97, 109, 113, 186, 107, 3, 2.09359
2, 2, wb, attraction, a-b-db, 2, 1, 1, 2, 59, 134, 60, 135, 135, 60, 3, 14.3294
2, 2, wb, attraction, a-b-db, 2, 1, 1, 2, 59, 134, 60, 135, 135, 60, 2, 1.93536
2, 2, wb, filler, NA, 999, 999, 1, 3, 93, 76, 81, 174, 153, 76, 1, 1.44743
2, 2, wb, filler, NA, 999, 999, 1, 3, 93, 76, 81, 174, 153, 76, 2, 1.67621
2, 2, wb, filler, NA, 999, 999, 1, 4, 88, 154, 180, 136, 148, 76, 3, 2.13498
2, 2, wb, filler, NA, 999, 999, 1, 4, 88, 154, 180, 136, 148, 76, 2, 1.26275
2, 2, wb, filler, NA, 999, 999, 1, 5, 71, 148, 143, 126, 93, 115, 1, 4.20312
2, 2, wb, filler, NA, 999, 999, 1, 5, 71, 148, 143, 126, 93, 115, 2, 1.04126
2, 2, wb, attraction, a-b-da, 9, 2, 1, 6, 90, 165, 165, 90, 157, 86, 3, 3.52486
2, 2, wb, attraction, a-b-da, 9, 2, 1, 6, 90, 165, 165, 90, 157, 86, 1, 2.65581
2, 2, wb, attraction, a-b-da, 9, 3, 1, 7, 120, 195, 195, 120, 186, 114, 3, 10.9468
2, 2, wb, attraction, a-b-da, 9, 3, 1, 7, 120, 195, 195, 120, 186, 114, 1, 1.91123
2, 2, wb, attraction, a-b-da, 5, 2, 1, 8, 161, 88, 90, 165, 165, 90, 1, 3.24291
2, 2, wb, attraction, a-b-da, 5, 2, 1, 8, 161, 88, 90, 165, 165, 90, 2, 2.46109
2, 2, wb, attraction, a-b-db, 5, 2, 1, 9, 165, 90, 90, 165, 88, 161, 1, 3.59346
2, 2, wb, attraction, a-b-db, 5, 2, 1, 9, 165, 90, 90, 165, 88, 161, 2, 1.15861
2, 2, wb, filler, NA, 999, 999, 1, 10, 116, 100, 65, 117, 63, 186, 2, 5.20734
2, 2, wb, filler, NA, 999, 999, 1, 10, 116, 100, 65, 117, 63, 186, 1, 7.293
2, 2, wb, catch, NA, 999, 999, 1, 11, 82, 113, 131, 184, 163, 92, 1, 1.79059
2, 2, wb, catch, NA, 999, 999, 1, 11, 82, 113, 131, 184, 163, 92, 2, 1.48476
2, 2, wb, attraction, a-b-da, 5, 3, 1, 12, 195, 120, 120, 195, 190, 117, 3, 2.74393
2, 2, wb, attraction, a-b-da, 5, 3, 1, 12, 195, 120, 120, 195, 190, 117, 2, 4.59249
2, 2, wb, attraction, a-b-da, 2, 2, 1, 13, 90, 165, 163, 89, 165, 90, 1, 1.67789
2, 2, wb, attraction, a-b-da, 2, 2, 1, 13, 90, 165, 163, 89, 165, 90, 3, 3.17781
2, 2, wb, attraction, a-b-db, 9, 2, 1, 14, 86, 157, 90, 165, 165, 90, 1, 1.52524
2, 2, wb, attraction, a-b-db, 9, 2, 1, 14, 86, 157, 90, 165, 165, 90, 2, 1.32203
2, 2, wb, attraction, a-b-da, 2, 1, 1, 15, 60, 135, 135, 60, 134, 59, 1, 1.44947
2, 2, wb, attraction, a-b-da, 2, 1, 1, 15, 60, 135, 135, 60, 134, 59, 3, 0.895495
2, 2, wb, attraction, a-b-da, 2, 3, 1, 16, 120, 195, 195, 120, 193, 119, 3, 3.04903
2, 2, wb, attraction, a-b-da, 2, 3, 1, 16, 120, 195, 195, 120, 193, 119, 1, 3.66922
2, 2, wb, attraction, a-b-da, 5, 1, 1, 17, 60, 135, 132, 58, 135, 60, 1, 1.66474
2, 2, wb, attraction, a-b-da, 5, 1, 1, 17, 60, 135, 132, 58, 135, 60, 2, 0.843009
2, 2, wb, attraction, a-b-db, 5, 3, 1, 18, 195, 120, 120, 195, 117, 190, 1, 1.31862
2, 2, wb, attraction, a-b-db, 5, 3, 1, 18, 195, 120, 120, 195, 117, 190, 2, 1.40178
2, 2, wb, catch, NA, 999, 999, 1, 19, 134, 121, 176, 139, 90, 105, 3, 1.32717
2, 2, wb, catch, NA, 999, 999, 1, 19, 134, 121, 176, 139, 90, 105, 2, 0.816929
2, 2, wb, catch, NA, 999, 999, 1, 20, 141, 114, 107, 88, 129, 186, 2, 1.20482
2, 2, wb, catch, NA, 999, 999, 1, 20, 141, 114, 107, 88, 129, 186, 3, 0.700019
2, 2, wb, attraction, a-b-db, 5, 1, 1, 21, 135, 60, 58, 132, 60, 135, 1, 2.44482
2, 2, wb, attraction, a-b-db, 5, 1, 1, 21, 135, 60, 58, 132, 60, 135, 3, 6.87522
2, 2, wb, attraction, a-b-da, 14, 2, 1, 22, 90, 165, 165, 90, 153, 83, 3, 2.58984
2, 2, wb, attraction, a-b-da, 14, 2, 1, 22, 90, 165, 165, 90, 153, 83, 1, 0.765038
2, 2, wb, attraction, a-b-db, 2, 2, 1, 23, 90, 165, 165, 90, 89, 163, 3, 4.88886
2, 2, wb, attraction, a-b-db, 2, 2, 1, 23, 90, 165, 165, 90, 89, 163, 1, 2.68577
2, 2, wb, filler, NA, 999, 999, 1, 24, 95, 130, 56, 169, 177, 171, 2, 2.42288
2, 2, wb, filler, NA, 999, 999, 1, 24, 95, 130, 56, 169, 177, 171, 3, 0.795736
2, 2, wb, attraction, a-b-db, 9, 3, 1, 25, 120, 195, 114, 186, 195, 120, 3, 2.50817
2, 2, wb, attraction, a-b-db, 9, 3, 1, 25, 120, 195, 114, 186, 195, 120, 1, 1.07613
2, 2, wb, attraction, a-b-db, 9, 1, 1, 26, 135, 60, 60, 135, 57, 129, 1, 1.68006
2, 2, wb, attraction, a-b-db, 9, 1, 1, 26, 135, 60, 60, 135, 57, 129, 2, 1.20317
2, 2, wb, attraction, a-b-db, 14, 3, 1, 27, 120, 195, 111, 181, 195, 120, 3, 4.77827
2, 2, wb, attraction, a-b-db, 14, 3, 1, 27, 120, 195, 111, 181, 195, 120, 1, 1.8899
2, 2, wb, attraction, a-b-db, 14, 2, 1, 28, 90, 165, 83, 153, 165, 90, 2, 4.39445
2, 2, wb, attraction, a-b-db, 14, 2, 1, 28, 90, 165, 83, 153, 165, 90, 1, 3.1057
2, 2, wb, attraction, a-b-da, 14, 1, 1, 29, 135, 60, 60, 135, 125, 56, 3, 1.68179
2, 2, wb, attraction, a-b-da, 14, 1, 1, 29, 135, 60, 60, 135, 125, 56, 1, 2.68582
2, 2, wb, filler, NA, 999, 999, 1, 30, 156, 123, 122, 61, 124, 144, 2, 1.6055
2, 2, wb, filler, NA, 999, 999, 1, 30, 156, 123, 122, 61, 124, 144, 1, 0.900977
2, 2, wb, attraction, a-b-db, 2, 3, 1, 31, 195, 120, 120, 195, 119, 193, 3, 8.77654
2, 2, wb, attraction, a-b-db, 2, 3, 1, 31, 195, 120, 120, 195, 119, 193, 2, 6.50852
2, 2, wb, filler, NA, 999, 999, 1, 32, 94, 118, 146, 160, 156, 159, 1, 1.31701
2, 2, wb, filler, NA, 999, 999, 1, 32, 94, 118, 146, 160, 156, 159, 2, 2.27274
2, 2, wb, filler, NA, 999, 999, 1, 33, 90, 87, 76, 66, 115, 166, 2, 1.69737
2, 2, wb, filler, NA, 999, 999, 1, 33, 90, 87, 76, 66, 115, 166, 3, 0.700481
2, 2, wb, attraction, a-b-db, 14, 1, 1, 34, 135, 60, 56, 125, 60, 135, 2, 5.04531
2, 2, wb, attraction, a-b-db, 14, 1, 1, 34, 135, 60, 56, 125, 60, 135, 1, 1.57105
2, 2, wb, attraction, a-b-da, 14, 3, 1, 35, 181, 111, 195, 120, 120, 195, 1, 2.17677
2, 2, wb, attraction, a-b-da, 14, 3, 1, 35, 181, 111, 195, 120, 120, 195, 2, 1.92155
2, 2, wb, filler, NA, 999, 999, 1, 36, 134, 103, 141, 95, 183, 105, 1, 1.22629
2, 2, wb, filler, NA, 999, 999, 1, 36, 134, 103, 141, 95, 183, 105, 3, 0.648186
2, 2, wb, attraction, a-b-da, 9, 1, 1, 37, 129, 57, 135, 60, 60, 135, 1, 10.5647
2, 2, wb, attraction, a-b-da, 9, 1, 1, 37, 129, 57, 135, 60, 60, 135, 3, 1.06537
2, 2, wb, attraction, a-b-db, 9, 2, 2, 1, 90, 165, 86, 157, 165, 90, 1, 1.53915
2, 2, wb, attraction, a-b-db, 9, 2, 2, 1, 90, 165, 86, 157, 165, 90, 2, 1.7597
2, 2, wb, attraction, a-b-db, 2, 2, 2, 2, 89, 163, 165, 90, 90, 165, 1, 1.14761
2, 2, wb, attraction, a-b-db, 2, 2, 2, 2, 89, 163, 165, 90, 90, 165, 3, 0.791359
2, 2, wb, attraction, a-b-da, 9, 1, 2, 3, 135, 60, 60, 135, 129, 57, 3, 1.73131
2, 2, wb, attraction, a-b-da, 9, 1, 2, 3, 135, 60, 60, 135, 129, 57, 2, 0.621551
2, 2, wb, catch, NA, 999, 999, 2, 4, 73, 122, 142, 113, 121, 194, 1, 1.60324
2, 2, wb, catch, NA, 999, 999, 2, 4, 73, 122, 142, 113, 121, 194, 3, 1.43399
2, 2, wb, catch, NA, 999, 999, 2, 5, 111, 84, 163, 92, 189, 126, 1, 1.0319
2, 2, wb, catch, NA, 999, 999, 2, 5, 111, 84, 163, 92, 189, 126, 3, 0.700004
2, 2, wb, filler, NA, 999, 999, 2, 6, 68, 97, 179, 74, 160, 90, 1, 1.09509
2, 2, wb, filler, NA, 999, 999, 2, 6, 68, 97, 179, 74, 160, 90, 3, 4.48762
2, 2, wb, attraction, a-b-da, 5, 1, 2, 7, 132, 58, 60, 135, 135, 60, 1, 1.62429
2, 2, wb, attraction, a-b-da, 5, 1, 2, 7, 132, 58, 60, 135, 135, 60, 2, 0.694906
2, 2, wb, attraction, a-b-da, 5, 2, 2, 8, 161, 88, 90, 165, 165, 90, 1, 1.16222
2, 2, wb, attraction, a-b-da, 5, 2, 2, 8, 161, 88, 90, 165, 165, 90, 2, 0.569585
2, 2, wb, attraction, a-b-da, 9, 2, 2, 9, 165, 90, 157, 86, 90, 165, 2, 2.18611
2, 2, wb, attraction, a-b-da, 9, 2, 2, 9, 165, 90, 157, 86, 90, 165, 3, 2.19333
2, 2, wb, filler, NA, 999, 999, 2, 10, 145, 102, 133, 122, 118, 84, 3, 1.27157
2, 2, wb, filler, NA, 999, 999, 2, 10, 145, 102, 133, 122, 118, 84, 2, 0.645052
2, 2, wb, filler, NA, 999, 999, 2, 11, 172, 114, 80, 103, 153, 86, 2, 1.2165
2, 2, wb, filler, NA, 999, 999, 2, 11, 172, 114, 80, 103, 153, 86, 1, 0.702732
2, 2, wb, attraction, a-b-db, 14, 1, 2, 12, 60, 135, 56, 125, 135, 60, 2, 3.31122
2, 2, wb, attraction, a-b-db, 14, 1, 2, 12, 60, 135, 56, 125, 135, 60, 1, 4.21003
2, 2, wb, attraction, a-b-da, 2, 1, 2, 13, 60, 135, 134, 59, 135, 60, 3, 3.7417
2, 2, wb, attraction, a-b-da, 2, 1, 2, 13, 60, 135, 134, 59, 135, 60, 2, 1.32708
2, 2, wb, filler, NA, 999, 999, 2, 14, 156, 134, 173, 178, 120, 144, 3, 1.38236
2, 2, wb, filler, NA, 999, 999, 2, 14, 156, 134, 173, 178, 120, 144, 2, 0.726768
2, 2, wb, attraction, a-b-db, 14, 2, 2, 15, 83, 153, 165, 90, 90, 165, 1, 1.66506
2, 2, wb, attraction, a-b-db, 14, 2, 2, 15, 83, 153, 165, 90, 90, 165, 2, 0.628576
2, 2, wb, filler, NA, 999, 999, 2, 16, 56, 181, 158, 83, 168, 163, 1, 7.15393
2, 2, wb, filler, NA, 999, 999, 2, 16, 56, 181, 158, 83, 168, 163, 3, 0.672969
2, 2, wb, filler, NA, 999, 999, 2, 17, 158, 187, 179, 152, 57, 91, 3, 1.39584
2, 2, wb, filler, NA, 999, 999, 2, 17, 158, 187, 179, 152, 57, 91, 1, 5.44311
2, 2, wb, attraction, a-b-db, 5, 2, 2, 18, 90, 165, 88, 161, 165, 90, 3, 1.91745
2, 2, wb, attraction, a-b-db, 5, 2, 2, 18, 90, 165, 88, 161, 165, 90, 2, 0.534805
2, 2, wb, filler, NA, 999, 999, 2, 19, 77, 136, 111, 100, 102, 179, 2, 1.2973
2, 2, wb, filler, NA, 999, 999, 2, 19, 77, 136, 111, 100, 102, 179, 3, 0.618833
2, 2, wb, attraction, a-b-db, 2, 3, 2, 20, 195, 120, 120, 195, 119, 193, 3, 2.94339
2, 2, wb, attraction, a-b-db, 2, 3, 2, 20, 195, 120, 120, 195, 119, 193, 2, 1.36802
2, 2, wb, attraction, a-b-db, 5, 1, 2, 21, 135, 60, 60, 135, 58, 132, 3, 1.54484
2, 2, wb, attraction, a-b-db, 5, 1, 2, 21, 135, 60, 60, 135, 58, 132, 2, 1.05668
2, 2, wb, attraction, a-b-da, 9, 3, 2, 22, 195, 120, 120, 195, 186, 114, 3, 2.00376
2, 2, wb, attraction, a-b-da, 9, 3, 2, 22, 195, 120, 120, 195, 186, 114, 2, 1.10724
2, 2, wb, attraction, a-b-da, 14, 1, 2, 23, 135, 60, 125, 56, 60, 135, 3, 1.36452
2, 2, wb, attraction, a-b-da, 14, 1, 2, 23, 135, 60, 125, 56, 60, 135, 1, 3.94866
2, 2, wb, filler, NA, 999, 999, 2, 24, 145, 61, 96, 111, 63, 175, 1, 13.2757
2, 2, wb, filler, NA, 999, 999, 2, 24, 145, 61, 96, 111, 63, 175, 3, 3.62724
2, 2, wb, attraction, a-b-db, 5, 3, 2, 25, 195, 120, 120, 195, 117, 190, 3, 2.54346
2, 2, wb, attraction, a-b-db, 5, 3, 2, 25, 195, 120, 120, 195, 117, 190, 2, 3.71338
2, 2, wb, filler, NA, 999, 999, 2, 26, 59, 111, 137, 109, 119, 125, 1, 1.1635
2, 2, wb, filler, NA, 999, 999, 2, 26, 59, 111, 137, 109, 119, 125, 2, 0.940073
2, 2, wb, attraction, a-b-db, 9, 3, 2, 27, 120, 195, 195, 120, 114, 186, 3, 2.09227
2, 2, wb, attraction, a-b-db, 9, 3, 2, 27, 120, 195, 195, 120, 114, 186, 1, 0.893732
2, 2, wb, attraction, a-b-db, 2, 1, 2, 28, 60, 135, 59, 134, 135, 60, 1, 2.00269
2, 2, wb, attraction, a-b-db, 2, 1, 2, 28, 60, 135, 59, 134, 135, 60, 2, 1.64777
2, 2, wb, attraction, a-b-da, 14, 3, 2, 29, 181, 111, 120, 195, 195, 120, 1, 1.22839
2, 2, wb, attraction, a-b-da, 14, 3, 2, 29, 181, 111, 120, 195, 195, 120, 2, 0.727978
2, 2, wb, attraction, a-b-db, 9, 1, 2, 30, 57, 129, 60, 135, 135, 60, 1, 1.79365
2, 2, wb, attraction, a-b-db, 9, 1, 2, 30, 57, 129, 60, 135, 135, 60, 2, 0.849372
2, 2, wb, attraction, a-b-da, 2, 2, 2, 31, 90, 165, 165, 90, 163, 89, 1, 1.15667
2, 2, wb, attraction, a-b-da, 2, 2, 2, 31, 90, 165, 165, 90, 163, 89, 2, 0.622089
2, 2, wb, filler, NA, 999, 999, 2, 32, 155, 92, 127, 163, 191, 193, 1, 1.37194
2, 2, wb, filler, NA, 999, 999, 2, 32, 155, 92, 127, 163, 191, 193, 3, 0.713542
2, 2, wb, attraction, a-b-db, 14, 3, 2, 33, 120, 195, 111, 181, 195, 120, 1, 1.15625
2, 2, wb, attraction, a-b-db, 14, 3, 2, 33, 120, 195, 111, 181, 195, 120, 3, 0.581843
2, 2, wb, catch, NA, 999, 999, 2, 34, 104, 151, 99, 96, 156, 159, 2, 1.34836
2, 2, wb, catch, NA, 999, 999, 2, 34, 104, 151, 99, 96, 156, 159, 3, 1.97481
2, 2, wb, attraction, a-b-da, 2, 3, 2, 35, 195, 120, 120, 195, 193, 119, 3, 1.44294
2, 2, wb, attraction, a-b-da, 2, 3, 2, 35, 195, 120, 120, 195, 193, 119, 2, 0.696594
2, 2, wb, attraction, a-b-da, 5, 3, 2, 36, 195, 120, 120, 195, 190, 117, 1, 1.22063
2, 2, wb, attraction, a-b-da, 5, 3, 2, 36, 195, 120, 120, 195, 190, 117, 2, 0.530585
2, 2, wb, attraction, a-b-da, 14, 2, 2, 37, 153, 83, 165, 90, 90, 165, 1, 1.6339
2, 2, wb, attraction, a-b-da, 14, 2, 2, 37, 153, 83, 165, 90, 90, 165, 3, 0.650376
2, 2, wb, attraction, a-b-da, 2, 2, 3, 1, 90, 165, 165, 90, 163, 89, 3, 1.9478
2, 2, wb, attraction, a-b-da, 2, 2, 3, 1, 90, 165, 165, 90, 163, 89, 2, 1.48392
2, 2, wb, filler, NA, 999, 999, 3, 2, 194, 175, 73, 146, 79, 108, 3, 1.28626
2, 2, wb, filler, NA, 999, 999, 3, 2, 194, 175, 73, 146, 79, 108, 1, 0.586718
2, 2, wb, attraction, a-b-da, 14, 3, 3, 3, 181, 111, 120, 195, 195, 120, 1, 1.2083
2, 2, wb, attraction, a-b-da, 14, 3, 3, 3, 181, 111, 120, 195, 195, 120, 3, 0.673491
2, 2, wb, attraction, a-b-db, 14, 3, 3, 4, 111, 181, 120, 195, 195, 120, 1, 1.04161
2, 2, wb, attraction, a-b-db, 14, 3, 3, 4, 111, 181, 120, 195, 195, 120, 2, 0.864073
2, 2, wb, filler, NA, 999, 999, 3, 5, 107, 170, 184, 187, 146, 176, 1, 1.27424
2, 2, wb, filler, NA, 999, 999, 3, 5, 107, 170, 184, 187, 146, 176, 2, 1.35212
2, 2, wb, attraction, a-b-db, 14, 1, 3, 6, 60, 135, 135, 60, 56, 125, 2, 1.92821
2, 2, wb, attraction, a-b-db, 14, 1, 3, 6, 60, 135, 135, 60, 56, 125, 1, 0.808427
2, 2, wb, attraction, a-b-db, 5, 2, 3, 7, 165, 90, 88, 161, 90, 165, 3, 1.61541
2, 2, wb, attraction, a-b-db, 5, 2, 3, 7, 165, 90, 88, 161, 90, 165, 1, 1.49143
2, 2, wb, attraction, a-b-da, 5, 3, 3, 8, 195, 120, 120, 195, 190, 117, 3, 1.22348
2, 2, wb, attraction, a-b-da, 5, 3, 3, 8, 195, 120, 120, 195, 190, 117, 2, 0.741909
2, 2, wb, attraction, a-b-da, 14, 2, 3, 9, 90, 165, 153, 83, 165, 90, 3, 1.37329
2, 2, wb, attraction, a-b-da, 14, 2, 3, 9, 90, 165, 153, 83, 165, 90, 1, 0.654453
2, 2, wb, filler, NA, 999, 999, 3, 10, 149, 120, 122, 184, 153, 61, 3, 2.37934
2, 2, wb, filler, NA, 999, 999, 3, 10, 149, 120, 122, 184, 153, 61, 2, 0.656155
2, 2, wb, attraction, a-b-db, 14, 2, 3, 11, 90, 165, 83, 153, 165, 90, 3, 2.01111
2, 2, wb, attraction, a-b-db, 14, 2, 3, 11, 90, 165, 83, 153, 165, 90, 1, 1.15551
2, 2, wb, attraction, a-b-db, 5, 3, 3, 12, 195, 120, 117, 190, 120, 195, 3, 1.8009
2, 2, wb, attraction, a-b-db, 5, 3, 3, 12, 195, 120, 117, 190, 120, 195, 2, 0.752601
2, 2, wb, filler, NA, 999, 999, 3, 13, 84, 88, 150, 131, 175, 61, 1, 1.34423
2, 2, wb, filler, NA, 999, 999, 3, 13, 84, 88, 150, 131, 175, 61, 2, 0.689655
2, 2, wb, attraction, a-b-db, 2, 1, 3, 14, 60, 135, 135, 60, 59, 134, 1, 3.10942
2, 2, wb, attraction, a-b-db, 2, 1, 3, 14, 60, 135, 135, 60, 59, 134, 3, 5.54901
2, 2, wb, attraction, a-b-da, 5, 1, 3, 15, 132, 58, 135, 60, 60, 135, 3, 39.7016
2, 2, wb, attraction, a-b-da, 5, 1, 3, 15, 132, 58, 135, 60, 60, 135, 1, 0.516671
2, 2, wb, catch, NA, 999, 999, 3, 16, 125, 130, 190, 125, 92, 103, 3, 1.15763
2, 2, wb, catch, NA, 999, 999, 3, 16, 125, 130, 190, 125, 92, 103, 2, 0.765087
2, 2, wb, attraction, a-b-da, 5, 2, 3, 17, 90, 165, 165, 90, 161, 88, 3, 1.56424
2, 2, wb, attraction, a-b-da, 5, 2, 3, 17, 90, 165, 165, 90, 161, 88, 2, 0.621336
2, 2, wb, filler, NA, 999, 999, 3, 18, 90, 60, 157, 135, 175, 136, 1, 1.00201
2, 2, wb, filler, NA, 999, 999, 3, 18, 90, 60, 157, 135, 175, 136, 3, 1.16123
2, 2, wb, attraction, a-b-db, 9, 1, 3, 19, 57, 129, 135, 60, 60, 135, 2, 1.30413
2, 2, wb, attraction, a-b-db, 9, 1, 3, 19, 57, 129, 135, 60, 60, 135, 1, 0.659751
2, 2, wb, filler, NA, 999, 999, 3, 20, 138, 85, 127, 169, 58, 170, 1, 2.46475
2, 2, wb, filler, NA, 999, 999, 3, 20, 138, 85, 127, 169, 58, 170, 2, 0.970966
2, 2, wb, attraction, a-b-da, 9, 3, 3, 21, 186, 114, 195, 120, 120, 195, 1, 1.6022
2, 2, wb, attraction, a-b-da, 9, 3, 3, 21, 186, 114, 195, 120, 120, 195, 2, 0.671664
2, 2, wb, attraction, a-b-da, 2, 3, 3, 22, 195, 120, 120, 195, 193, 119, 2, 1.33135
2, 2, wb, attraction, a-b-da, 2, 3, 3, 22, 195, 120, 120, 195, 193, 119, 3, 0.669499
2, 2, wb, attraction, a-b-db, 9, 2, 3, 23, 86, 157, 90, 165, 165, 90, 1, 1.05673
2, 2, wb, attraction, a-b-db, 9, 2, 3, 23, 86, 157, 90, 165, 165, 90, 2, 0.564066
2, 2, wb, filler, NA, 999, 999, 3, 24, 190, 72, 160, 97, 173, 176, 2, 1.83806
2, 2, wb, filler, NA, 999, 999, 3, 24, 190, 72, 160, 97, 173, 176, 3, 0.689649
2, 2, wb, attraction, a-b-db, 9, 3, 3, 25, 120, 195, 195, 120, 114, 186, 1, 1.15544
2, 2, wb, attraction, a-b-db, 9, 3, 3, 25, 120, 195, 195, 120, 114, 186, 3, 0.710617
2, 2, wb, attraction, a-b-da, 14, 1, 3, 26, 60, 135, 125, 56, 135, 60, 2, 1.41548
2, 2, wb, attraction, a-b-da, 14, 1, 3, 26, 60, 135, 125, 56, 135, 60, 1, 0.733603
2, 2, wb, attraction, a-b-db, 2, 2, 3, 27, 90, 165, 89, 163, 165, 90, 2, 1.1013
2, 2, wb, attraction, a-b-db, 2, 2, 3, 27, 90, 165, 89, 163, 165, 90, 3, 0.591375
2, 2, wb, filler, NA, 999, 999, 3, 28, 121, 63, 142, 180, 130, 78, 1, 1.29661
2, 2, wb, filler, NA, 999, 999, 3, 28, 121, 63, 142, 180, 130, 78, 2, 0.681521
2, 2, wb, attraction, a-b-db, 2, 3, 3, 29, 120, 195, 195, 120, 119, 193, 1, 1.01927
2, 2, wb, attraction, a-b-db, 2, 3, 3, 29, 120, 195, 195, 120, 119, 193, 2, 0.625965
2, 2, wb, attraction, a-b-da, 9, 2, 3, 30, 90, 165, 165, 90, 157, 86, 1, 1.15146
2, 2, wb, attraction, a-b-da, 9, 2, 3, 30, 90, 165, 165, 90, 157, 86, 2, 0.585225
2, 2, wb, catch, NA, 999, 999, 3, 31, 193, 122, 133, 122, 109, 86, 3, 1.28675
2, 2, wb, catch, NA, 999, 999, 3, 31, 193, 122, 133, 122, 109, 86, 1, 0.73077
2, 2, wb, filler, NA, 999, 999, 3, 32, 66, 179, 191, 134, 167, 104, 1, 6.54004
2, 2, wb, filler, NA, 999, 999, 3, 32, 66, 179, 191, 134, 167, 104, 2, 0.524875
2, 2, wb, attraction, a-b-da, 2, 1, 3, 33, 134, 59, 60, 135, 135, 60, 3, 1.34935
2, 2, wb, attraction, a-b-da, 2, 1, 3, 33, 134, 59, 60, 135, 135, 60, 2, 0.685853
2, 2, wb, attraction, a-b-da, 9, 1, 3, 34, 135, 60, 129, 57, 60, 135, 1, 1.0157
2, 2, wb, attraction, a-b-da, 9, 1, 3, 34, 135, 60, 129, 57, 60, 135, 2, 0.653685
2, 2, wb, catch, NA, 999, 999, 3, 35, 93, 102, 101, 154, 184, 131, 1, 1.04935
2, 2, wb, catch, NA, 999, 999, 3, 35, 93, 102, 101, 154, 184, 131, 3, 0.688117
2, 2, wb, attraction, a-b-db, 5, 1, 3, 36, 135, 60, 60, 135, 58, 132, 1, 1.50404
2, 2, wb, attraction, a-b-db, 5, 1, 3, 36, 135, 60, 60, 135, 58, 132, 2, 0.595973
2, 2, wb, filler, NA, 999, 999, 3, 37, 68, 83, 175, 86, 157, 102, 1, 1.14612
2, 2, wb, filler, NA, 999, 999, 3, 37, 68, 83, 175, 86, 157, 102, 3, 3.25286
2, 2, wb, attraction, a-b-da, 2, 3, 4, 1, 193, 119, 120, 195, 195, 120, 1, 1.11848
2, 2, wb, attraction, a-b-da, 2, 3, 4, 1, 193, 119, 120, 195, 195, 120, 2, 1.60859
2, 2, wb, attraction, a-b-db, 14, 1, 4, 2, 135, 60, 56, 125, 60, 135, 2, 1.21211
2, 2, wb, attraction, a-b-db, 14, 1, 4, 2, 135, 60, 56, 125, 60, 135, 1, 0.709566
2, 2, wb, filler, NA, 999, 999, 4, 3, 59, 99, 123, 127, 73, 68, 3, 1.37287
2, 2, wb, filler, NA, 999, 999, 4, 3, 59, 99, 123, 127, 73, 68, 2, 0.70288
2, 2, wb, filler, NA, 999, 999, 4, 4, 163, 84, 172, 143, 92, 147, 1, 1.21418
2, 2, wb, filler, NA, 999, 999, 4, 4, 163, 84, 172, 143, 92, 147, 2, 0.693103
2, 2, wb, catch, NA, 999, 999, 4, 5, 75, 120, 184, 131, 146, 109, 1, 1.28118
2, 2, wb, catch, NA, 999, 999, 4, 5, 75, 120, 184, 131, 146, 109, 2, 0.56495
2, 2, wb, attraction, a-b-db, 14, 2, 4, 6, 83, 153, 90, 165, 165, 90, 3, 1.14727
2, 2, wb, attraction, a-b-db, 14, 2, 4, 6, 83, 153, 90, 165, 165, 90, 2, 0.636935
2, 2, wb, attraction, a-b-da, 5, 2, 4, 7, 90, 165, 165, 90, 161, 88, 1, 1.89561
2, 2, wb, attraction, a-b-da, 5, 2, 4, 7, 90, 165, 165, 90, 161, 88, 2, 0.635322
2, 2, wb, filler, NA, 999, 999, 4, 8, 80, 97, 77, 195, 120, 165, 1, 1.30297
2, 2, wb, filler, NA, 999, 999, 4, 8, 80, 97, 77, 195, 120, 165, 3, 0.555134
2, 2, wb, catch, NA, 999, 999, 4, 9, 93, 162, 189, 126, 114, 81, 3, 3.18544
2, 2, wb, catch, NA, 999, 999, 4, 9, 93, 162, 189, 126, 114, 81, 2, 0.561436
2, 2, wb, attraction, a-b-da, 2, 1, 4, 10, 60, 135, 135, 60, 134, 59, 1, 6.88921
2, 2, wb, attraction, a-b-da, 2, 1, 4, 10, 60, 135, 135, 60, 134, 59, 2, 0.62527
2, 2, wb, attraction, a-b-da, 14, 1, 4, 11, 125, 56, 60, 135, 135, 60, 2, 1.36879
2, 2, wb, attraction, a-b-da, 14, 1, 4, 11, 125, 56, 60, 135, 135, 60, 1, 0.575457
2, 2, wb, attraction, a-b-db, 2, 3, 4, 12, 119, 193, 120, 195, 195, 120, 2, 1.61524
2, 2, wb, attraction, a-b-db, 2, 3, 4, 12, 119, 193, 120, 195, 195, 120, 1, 1.09239
2, 2, wb, attraction, a-b-da, 2, 2, 4, 13, 90, 165, 165, 90, 163, 89, 1, 1.29639
2, 2, wb, attraction, a-b-da, 2, 2, 4, 13, 90, 165, 165, 90, 163, 89, 2, 0.692914
2, 2, wb, attraction, a-b-da, 14, 2, 4, 14, 165, 90, 153, 83, 90, 165, 2, 1.4203
2, 2, wb, attraction, a-b-da, 14, 2, 4, 14, 165, 90, 153, 83, 90, 165, 3, 0.612271
2, 2, wb, filler, NA, 999, 999, 4, 15, 173, 175, 140, 129, 168, 122, 2, 4.79273
2, 2, wb, filler, NA, 999, 999, 4, 15, 173, 175, 140, 129, 168, 122, 1, 1.52816
2, 2, wb, attraction, a-b-da, 14, 3, 4, 16, 181, 111, 195, 120, 120, 195, 1, 1.20732
2, 2, wb, attraction, a-b-da, 14, 3, 4, 16, 181, 111, 195, 120, 120, 195, 3, 1.22962
2, 2, wb, catch, NA, 999, 999, 4, 17, 117, 138, 76, 119, 164, 151, 2, 1.15612
2, 2, wb, catch, NA, 999, 999, 4, 17, 117, 138, 76, 119, 164, 151, 3, 0.541545
2, 2, wb, attraction, a-b-db, 2, 2, 4, 18, 90, 165, 165, 90, 89, 163, 1, 1.34952
2, 2, wb, attraction, a-b-db, 2, 2, 4, 18, 90, 165, 165, 90, 89, 163, 2, 0.632367
2, 2, wb, attraction, a-b-da, 9, 2, 4, 19, 90, 165, 157, 86, 165, 90, 3, 1.14565
2, 2, wb, attraction, a-b-da, 9, 2, 4, 19, 90, 165, 157, 86, 165, 90, 2, 0.603548
2, 2, wb, attraction, a-b-db, 2, 1, 4, 20, 135, 60, 59, 134, 60, 135, 2, 1.08222
2, 2, wb, attraction, a-b-db, 2, 1, 4, 20, 135, 60, 59, 134, 60, 135, 1, 0.622866
2, 2, wb, attraction, a-b-da, 5, 3, 4, 21, 190, 117, 120, 195, 195, 120, 2, 0.978144
2, 2, wb, attraction, a-b-da, 5, 3, 4, 21, 190, 117, 120, 195, 195, 120, 1, 0.723758
2, 2, wb, attraction, a-b-db, 5, 3, 4, 22, 195, 120, 120, 195, 117, 190, 3, 1.27414
2, 2, wb, attraction, a-b-db, 5, 3, 4, 22, 195, 120, 120, 195, 117, 190, 2, 0.645705
2, 2, wb, attraction, a-b-db, 5, 2, 4, 23, 88, 161, 165, 90, 90, 165, 1, 1.18175
2, 2, wb, attraction, a-b-db, 5, 2, 4, 23, 88, 161, 165, 90, 90, 165, 2, 0.707182
2, 2, wb, attraction, a-b-db, 9, 3, 4, 24, 114, 186, 195, 120, 120, 195, 2, 1.00468
2, 2, wb, attraction, a-b-db, 9, 3, 4, 24, 114, 186, 195, 120, 120, 195, 3, 0.618959
2, 2, wb, attraction, a-b-db, 9, 2, 4, 25, 165, 90, 90, 165, 86, 157, 1, 1.08147
2, 2, wb, attraction, a-b-db, 9, 2, 4, 25, 165, 90, 90, 165, 86, 157, 3, 1.34061
2, 2, wb, filler, NA, 999, 999, 4, 26, 67, 71, 155, 190, 158, 136, 1, 1.22692
2, 2, wb, filler, NA, 999, 999, 4, 26, 67, 71, 155, 190, 158, 136, 2, 0.555001
2, 2, wb, attraction, a-b-da, 9, 1, 4, 27, 129, 57, 135, 60, 60, 135, 1, 1.29877
2, 2, wb, attraction, a-b-da, 9, 1, 4, 27, 129, 57, 135, 60, 60, 135, 3, 0.685664
2, 2, wb, attraction, a-b-db, 5, 1, 4, 28, 60, 135, 58, 132, 135, 60, 1, 0.92802
2, 2, wb, attraction, a-b-db, 5, 1, 4, 28, 60, 135, 58, 132, 135, 60, 3, 0.576138
2, 2, wb, attraction, a-b-da, 9, 3, 4, 29, 186, 114, 195, 120, 120, 195, 1, 1.0574
2, 2, wb, attraction, a-b-da, 9, 3, 4, 29, 186, 114, 195, 120, 120, 195, 2, 0.589474
2, 2, wb, attraction, a-b-db, 14, 3, 4, 30, 195, 120, 111, 181, 120, 195, 1, 1.2202
2, 2, wb, attraction, a-b-db, 14, 3, 4, 30, 195, 120, 111, 181, 120, 195, 3, 0.586324
2, 2, wb, attraction, a-b-db, 9, 1, 4, 31, 135, 60, 57, 129, 60, 135, 1, 1.04913
2, 2, wb, attraction, a-b-db, 9, 1, 4, 31, 135, 60, 57, 129, 60, 135, 3, 0.669719
2, 2, wb, filler, NA, 999, 999, 4, 32, 91, 173, 77, 124, 145, 143, 2, 1.01609
2, 2, wb, filler, NA, 999, 999, 4, 32, 91, 173, 77, 124, 145, 143, 3, 0.552857
2, 2, wb, attraction, a-b-da, 5, 1, 4, 33, 135, 60, 60, 135, 132, 58, 1, 0.999542
2, 2, wb, attraction, a-b-da, 5, 1, 4, 33, 135, 60, 60, 135, 132, 58, 2, 0.717829
2, 2, wb, filler, NA, 999, 999, 4, 34, 114, 114, 129, 139, 143, 80, 1, 1.35738
2, 2, wb, filler, NA, 999, 999, 4, 34, 114, 114, 129, 139, 143, 80, 2, 0.535753
2, 2, wb, filler, NA, 999, 999, 4, 35, 123, 190, 122, 139, 67, 190, 3, 2.52846
2, 2, wb, filler, NA, 999, 999, 4, 35, 123, 190, 122, 139, 67, 190, 1, 0.603431
2, 2, wb, filler, NA, 999, 999, 4, 36, 100, 98, 102, 126, 154, 159, 1, 1.27038
2, 2, wb, filler, NA, 999, 999, 4, 36, 100, 98, 102, 126, 154, 159, 3, 0.524777
2, 2, wb, filler, NA, 999, 999, 4, 37, 157, 132, 82, 120, 75, 123, 3, 1.50853
2, 2, wb, filler, NA, 999, 999, 4, 37, 157, 132, 82, 120, 75, 123, 1, 0.617093
2, 2, wb, attraction, a-b-db, 9, 1, 5, 1, 135, 60, 57, 129, 60, 135, 3, 6.94609
2, 2, wb, attraction, a-b-db, 9, 1, 5, 1, 135, 60, 57, 129, 60, 135, 1, 0.937432
2, 2, wb, attraction, a-b-da, 9, 2, 5, 2, 157, 86, 90, 165, 165, 90, 1, 2.66825
2, 2, wb, attraction, a-b-da, 9, 2, 5, 2, 157, 86, 90, 165, 165, 90, 2, 0.613537
2, 2, wb, catch, NA, 999, 999, 5, 3, 113, 142, 116, 79, 161, 154, 3, 1.80435
2, 2, wb, catch, NA, 999, 999, 5, 3, 113, 142, 116, 79, 161, 154, 2, 1.11696
2, 2, wb, filler, NA, 999, 999, 5, 4, 136, 142, 151, 110, 69, 152, 3, 1.2127
2, 2, wb, filler, NA, 999, 999, 5, 4, 136, 142, 151, 110, 69, 152, 1, 0.96187
2, 2, wb, attraction, a-b-da, 5, 2, 5, 5, 90, 165, 165, 90, 161, 88, 3, 1.27386
2, 2, wb, attraction, a-b-da, 5, 2, 5, 5, 90, 165, 165, 90, 161, 88, 2, 0.671408
2, 2, wb, filler, NA, 999, 999, 5, 6, 59, 123, 147, 156, 94, 161, 1, 1.86485
2, 2, wb, filler, NA, 999, 999, 5, 6, 59, 123, 147, 156, 94, 161, 2, 0.661181
2, 2, wb, attraction, a-b-da, 5, 3, 5, 7, 195, 120, 190, 117, 120, 195, 2, 1.27488
2, 2, wb, attraction, a-b-da, 5, 3, 5, 7, 195, 120, 190, 117, 120, 195, 1, 0.582806
2, 2, wb, catch, NA, 999, 999, 5, 8, 122, 133, 165, 150, 104, 91, 3, 1.13165
2, 2, wb, catch, NA, 999, 999, 5, 8, 122, 133, 165, 150, 104, 91, 2, 0.712219
2, 2, wb, attraction, a-b-db, 5, 2, 5, 9, 90, 165, 165, 90, 88, 161, 1, 1.03167
2, 2, wb, attraction, a-b-db, 5, 2, 5, 9, 90, 165, 165, 90, 88, 161, 2, 0.597304
2, 2, wb, filler, NA, 999, 999, 5, 10, 179, 177, 99, 106, 157, 98, 2, 1.3564
2, 2, wb, filler, NA, 999, 999, 5, 10, 179, 177, 99, 106, 157, 98, 1, 0.65343
2, 2, wb, attraction, a-b-da, 2, 2, 5, 11, 165, 90, 163, 89, 90, 165, 3, 1.28187
2, 2, wb, attraction, a-b-da, 2, 2, 5, 11, 165, 90, 163, 89, 90, 165, 2, 1.5493
2, 2, wb, filler, NA, 999, 999, 5, 12, 177, 158, 165, 180, 142, 164, 3, 1.97064
2, 2, wb, filler, NA, 999, 999, 5, 12, 177, 158, 165, 180, 142, 164, 2, 0.705885
2, 2, wb, attraction, a-b-db, 14, 2, 5, 13, 165, 90, 90, 165, 83, 153, 1, 1.20372
2, 2, wb, attraction, a-b-db, 14, 2, 5, 13, 165, 90, 90, 165, 83, 153, 2, 0.891397
2, 2, wb, filler, NA, 999, 999, 5, 14, 154, 162, 178, 81, 176, 88, 2, 3.015
2, 2, wb, filler, NA, 999, 999, 5, 14, 154, 162, 178, 81, 176, 88, 1, 0.748666
2, 2, wb, filler, NA, 999, 999, 5, 15, 175, 110, 175, 62, 174, 167, 2, 1.31681
2, 2, wb, filler, NA, 999, 999, 5, 15, 175, 110, 175, 62, 174, 167, 3, 1.75649
2, 2, wb, attraction, a-b-db, 9, 3, 5, 16, 195, 120, 114, 186, 120, 195, 1, 2.02881
2, 2, wb, attraction, a-b-db, 9, 3, 5, 16, 195, 120, 114, 186, 120, 195, 2, 0.579158
2, 2, wb, attraction, a-b-da, 14, 2, 5, 17, 165, 90, 90, 165, 153, 83, 3, 1.28426
2, 2, wb, attraction, a-b-da, 14, 2, 5, 17, 165, 90, 90, 165, 153, 83, 1, 0.646747
2, 2, wb, filler, NA, 999, 999, 5, 18, 64, 195, 72, 80, 126, 97, 2, 1.21038
2, 2, wb, filler, NA, 999, 999, 5, 18, 64, 195, 72, 80, 126, 97, 3, 0.553343
2, 2, wb, attraction, a-b-db, 2, 1, 5, 19, 60, 135, 135, 60, 59, 134, 1, 1.07308
2, 2, wb, attraction, a-b-db, 2, 1, 5, 19, 60, 135, 135, 60, 59, 134, 2, 0.55633
2, 2, wb, attraction, a-b-da, 2, 1, 5, 20, 135, 60, 60, 135, 134, 59, 1, 1.50102
2, 2, wb, attraction, a-b-da, 2, 1, 5, 20, 135, 60, 60, 135, 134, 59, 3, 0.568132
2, 2, wb, attraction, a-b-da, 9, 1, 5, 21, 135, 60, 129, 57, 60, 135, 1, 0.95828
2, 2, wb, attraction, a-b-da, 9, 1, 5, 21, 135, 60, 129, 57, 60, 135, 2, 0.623679
2, 2, wb, attraction, a-b-da, 9, 3, 5, 22, 186, 114, 195, 120, 120, 195, 2, 1.21224
2, 2, wb, attraction, a-b-da, 9, 3, 5, 22, 186, 114, 195, 120, 120, 195, 1, 0.57914
2, 2, wb, attraction, a-b-db, 14, 1, 5, 23, 60, 135, 56, 125, 135, 60, 3, 1.07465
2, 2, wb, attraction, a-b-db, 14, 1, 5, 23, 60, 135, 56, 125, 135, 60, 1, 0.80713
2, 2, wb, attraction, a-b-da, 5, 1, 5, 24, 60, 135, 132, 58, 135, 60, 2, 1.1245
2, 2, wb, attraction, a-b-da, 5, 1, 5, 24, 60, 135, 132, 58, 135, 60, 3, 0.615903
2, 2, wb, attraction, a-b-db, 2, 2, 5, 25, 90, 165, 89, 163, 165, 90, 3, 1.78812
2, 2, wb, attraction, a-b-db, 2, 2, 5, 25, 90, 165, 89, 163, 165, 90, 1, 0.58857
2, 2, wb, attraction, a-b-db, 9, 2, 5, 26, 90, 165, 165, 90, 86, 157, 2, 1.05058
2, 2, wb, attraction, a-b-db, 9, 2, 5, 26, 90, 165, 165, 90, 86, 157, 3, 0.614873
2, 2, wb, catch, NA, 999, 999, 5, 27, 110, 145, 119, 76, 188, 127, 2, 1.29987
2, 2, wb, catch, NA, 999, 999, 5, 27, 110, 145, 119, 76, 188, 127, 3, 1.63654
2, 2, wb, filler, NA, 999, 999, 5, 28, 111, 92, 60, 76, 189, 109, 2, 1.15398
2, 2, wb, filler, NA, 999, 999, 5, 28, 111, 92, 60, 76, 189, 109, 3, 0.683547
2, 2, wb, attraction, a-b-db, 5, 3, 5, 29, 117, 190, 120, 195, 195, 120, 1, 1.10966
2, 2, wb, attraction, a-b-db, 5, 3, 5, 29, 117, 190, 120, 195, 195, 120, 2, 0.680758
2, 2, wb, filler, NA, 999, 999, 5, 30, 168, 128, 99, 90, 183, 165, 2, 1.29941
2, 2, wb, filler, NA, 999, 999, 5, 30, 168, 128, 99, 90, 183, 165, 3, 0.566248
2, 2, wb, attraction, a-b-da, 2, 3, 5, 31, 193, 119, 120, 195, 195, 120, 3, 1.47793
2, 2, wb, attraction, a-b-da, 2, 3, 5, 31, 193, 119, 120, 195, 195, 120, 2, 0.681857
2, 2, wb, attraction, a-b-da, 14, 3, 5, 32, 120, 195, 181, 111, 195, 120, 1, 2.41142
2, 2, wb, attraction, a-b-da, 14, 3, 5, 32, 120, 195, 181, 111, 195, 120, 2, 0.896204
2, 2, wb, attraction, a-b-da, 14, 1, 5, 33, 125, 56, 135, 60, 60, 135, 1, 1.07476
2, 2, wb, attraction, a-b-da, 14, 1, 5, 33, 125, 56, 135, 60, 60, 135, 2, 0.663863
2, 2, wb, filler, NA, 999, 999, 5, 34, 105, 74, 171, 131, 116, 76, 1, 1.36317
2, 2, wb, filler, NA, 999, 999, 5, 34, 105, 74, 171, 131, 116, 76, 2, 0.564356
2, 2, wb, attraction, a-b-db, 5, 1, 5, 35, 60, 135, 135, 60, 58, 132, 1, 1.09139
2, 2, wb, attraction, a-b-db, 5, 1, 5, 35, 60, 135, 135, 60, 58, 132, 2, 0.574726
2, 2, wb, attraction, a-b-db, 14, 3, 5, 36, 120, 195, 111, 181, 195, 120, 3, 1.60525
2, 2, wb, attraction, a-b-db, 14, 3, 5, 36, 120, 195, 111, 181, 195, 120, 2, 0.556528
2, 2, wb, attraction, a-b-db, 2, 3, 5, 37, 195, 120, 120, 195, 119, 193, 1, 1.02953
2, 2, wb, attraction, a-b-db, 2, 3, 5, 37, 195, 120, 120, 195, 119, 193, 2, 0.564219
2, 2, wb, filler, NA, 999, 999, 6, 1, 111, 167, 85, 110, 70, 187, 2, 1.16877
2, 2, wb, filler, NA, 999, 999, 6, 1, 111, 167, 85, 110, 70, 187, 1, 0.624722
2, 2, wb, attraction, a-b-da, 14, 1, 6, 2, 125, 56, 60, 135, 135, 60, 2, 1.07665
2, 2, wb, attraction, a-b-da, 14, 1, 6, 2, 125, 56, 60, 135, 135, 60, 3, 0.577474
2, 2, wb, attraction, a-b-da, 9, 1, 6, 3, 60, 135, 135, 60, 129, 57, 1, 1.17104
2, 2, wb, attraction, a-b-da, 9, 1, 6, 3, 60, 135, 135, 60, 129, 57, 2, 0.898983
2, 2, wb, attraction, a-b-db, 5, 2, 6, 4, 90, 165, 88, 161, 165, 90, 3, 1.04443
2, 2, wb, attraction, a-b-db, 5, 2, 6, 4, 90, 165, 88, 161, 165, 90, 2, 0.561644
2, 2, wb, attraction, a-b-db, 2, 2, 6, 5, 89, 163, 165, 90, 90, 165, 1, 1.04886
2, 2, wb, attraction, a-b-db, 2, 2, 6, 5, 89, 163, 165, 90, 90, 165, 2, 1.36634
2, 2, wb, filler, NA, 999, 999, 6, 6, 92, 107, 172, 123, 91, 99, 3, 1.58764
2, 2, wb, filler, NA, 999, 999, 6, 6, 92, 107, 172, 123, 91, 99, 2, 0.627722
2, 2, wb, attraction, a-b-da, 14, 2, 6, 7, 90, 165, 165, 90, 153, 83, 2, 1.32824
2, 2, wb, attraction, a-b-da, 14, 2, 6, 7, 90, 165, 165, 90, 153, 83, 3, 1.40095
2, 2, wb, attraction, a-b-da, 2, 2, 6, 8, 165, 90, 90, 165, 163, 89, 2, 1.15044
2, 2, wb, attraction, a-b-da, 2, 2, 6, 8, 165, 90, 90, 165, 163, 89, 1, 1.02636
2, 2, wb, filler, NA, 999, 999, 6, 9, 92, 134, 160, 102, 190, 56, 3, 2.79966
2, 2, wb, filler, NA, 999, 999, 6, 9, 92, 134, 160, 102, 190, 56, 2, 1.02071
2, 2, wb, attraction, a-b-db, 9, 3, 6, 10, 195, 120, 120, 195, 114, 186, 3, 1.6808
2, 2, wb, attraction, a-b-db, 9, 3, 6, 10, 195, 120, 120, 195, 114, 186, 2, 0.51651
2, 2, wb, attraction, a-b-da, 9, 2, 6, 11, 157, 86, 165, 90, 90, 165, 3, 1.41354
2, 2, wb, attraction, a-b-da, 9, 2, 6, 11, 157, 86, 165, 90, 90, 165, 2, 0.66953
2, 2, wb, attraction, a-b-db, 14, 3, 6, 12, 111, 181, 120, 195, 195, 120, 1, 1.26305
2, 2, wb, attraction, a-b-db, 14, 3, 6, 12, 111, 181, 120, 195, 195, 120, 2, 0.579701
2, 2, wb, attraction, a-b-da, 5, 1, 6, 13, 132, 58, 135, 60, 60, 135, 1, 1.79361
2, 2, wb, attraction, a-b-da, 5, 1, 6, 13, 132, 58, 135, 60, 60, 135, 2, 0.746025
2, 2, wb, catch, NA, 999, 999, 6, 14, 132, 123, 124, 71, 195, 120, 2, 1.17058
2, 2, wb, catch, NA, 999, 999, 6, 14, 132, 123, 124, 71, 195, 120, 3, 0.650716
2, 2, wb, filler, NA, 999, 999, 6, 15, 145, 170, 160, 62, 69, 150, 3, 1.28551
2, 2, wb, filler, NA, 999, 999, 6, 15, 145, 170, 160, 62, 69, 150, 1, 0.672941
2, 2, wb, filler, NA, 999, 999, 6, 16, 109, 91, 170, 163, 172, 101, 1, 1.19656
2, 2, wb, filler, NA, 999, 999, 6, 16, 109, 91, 170, 163, 172, 101, 2, 0.71513
2, 2, wb, attraction, a-b-db, 9, 2, 6, 17, 90, 165, 165, 90, 86, 157, 3, 1.397
2, 2, wb, attraction, a-b-db, 9, 2, 6, 17, 90, 165, 165, 90, 86, 157, 1, 0.539908
2, 2, wb, attraction, a-b-da, 2, 3, 6, 18, 193, 119, 120, 195, 195, 120, 2, 1.26842
2, 2, wb, attraction, a-b-da, 2, 3, 6, 18, 193, 119, 120, 195, 195, 120, 1, 0.560039
2, 2, wb, attraction, a-b-da, 2, 1, 6, 19, 60, 135, 134, 59, 135, 60, 1, 1.19956
2, 2, wb, attraction, a-b-da, 2, 1, 6, 19, 60, 135, 134, 59, 135, 60, 2, 0.767268
2, 2, wb, attraction, a-b-db, 5, 3, 6, 20, 195, 120, 120, 195, 117, 190, 1, 1.34825
2, 2, wb, attraction, a-b-db, 5, 3, 6, 20, 195, 120, 120, 195, 117, 190, 3, 0.646992
2, 2, wb, filler, NA, 999, 999, 6, 21, 56, 60, 170, 126, 75, 124, 1, 1.12272
2, 2, wb, filler, NA, 999, 999, 6, 21, 56, 60, 170, 126, 75, 124, 2, 0.557084
2, 2, wb, attraction, a-b-db, 14, 1, 6, 22, 60, 135, 135, 60, 56, 125, 1, 1.13395
2, 2, wb, attraction, a-b-db, 14, 1, 6, 22, 60, 135, 135, 60, 56, 125, 2, 0.566632
2, 2, wb, filler, NA, 999, 999, 6, 23, 181, 168, 142, 141, 154, 155, 2, 1.17434
2, 2, wb, filler, NA, 999, 999, 6, 23, 181, 168, 142, 141, 154, 155, 1, 0.765918
2, 2, wb, attraction, a-b-db, 2, 1, 6, 24, 135, 60, 60, 135, 59, 134, 3, 1.4155
2, 2, wb, attraction, a-b-db, 2, 1, 6, 24, 135, 60, 60, 135, 59, 134, 2, 1.66911
2, 2, wb, attraction, a-b-db, 2, 3, 6, 25, 119, 193, 120, 195, 195, 120, 1, 1.24598
2, 2, wb, attraction, a-b-db, 2, 3, 6, 25, 119, 193, 120, 195, 195, 120, 2, 0.547827
2, 2, wb, attraction, a-b-db, 5, 1, 6, 26, 135, 60, 60, 135, 58, 132, 1, 1.23354
2, 2, wb, attraction, a-b-db, 5, 1, 6, 26, 135, 60, 60, 135, 58, 132, 2, 0.77677
2, 2, wb, attraction, a-b-db, 14, 2, 6, 27, 90, 165, 83, 153, 165, 90, 2, 1.93451
2, 2, wb, attraction, a-b-db, 14, 2, 6, 27, 90, 165, 83, 153, 165, 90, 1, 0.920828
2, 2, wb, filler, NA, 999, 999, 6, 28, 158, 155, 86, 96, 144, 111, 2, 1.22459
2, 2, wb, filler, NA, 999, 999, 6, 28, 158, 155, 86, 96, 144, 111, 1, 0.601298
2, 2, wb, attraction, a-b-da, 9, 3, 6, 29, 195, 120, 186, 114, 120, 195, 2, 1.30089
2, 2, wb, attraction, a-b-da, 9, 3, 6, 29, 195, 120, 186, 114, 120, 195, 1, 1.14371
2, 2, wb, attraction, a-b-da, 14, 3, 6, 30, 120, 195, 181, 111, 195, 120, 2, 1.03938
2, 2, wb, attraction, a-b-da, 14, 3, 6, 30, 120, 195, 181, 111, 195, 120, 1, 0.727435
2, 2, wb, catch, NA, 999, 999, 6, 31, 70, 125, 152, 163, 161, 94, 1, 1.43228
2, 2, wb, catch, NA, 999, 999, 6, 31, 70, 125, 152, 163, 161, 94, 2, 0.621624
2, 2, wb, attraction, a-b-da, 5, 3, 6, 32, 195, 120, 190, 117, 120, 195, 2, 1.32418
2, 2, wb, attraction, a-b-da, 5, 3, 6, 32, 195, 120, 190, 117, 120, 195, 1, 0.562487
2, 2, wb, catch, NA, 999, 999, 6, 33, 77, 118, 143, 112, 128, 187, 1, 1.26959
2, 2, wb, catch, NA, 999, 999, 6, 33, 77, 118, 143, 112, 128, 187, 3, 0.728288
2, 2, wb, filler, NA, 999, 999, 6, 34, 71, 189, 67, 129, 105, 146, 2, 1.0494
2, 2, wb, filler, NA, 999, 999, 6, 34, 71, 189, 67, 129, 105, 146, 3, 2.59912
2, 2, wb, filler, NA, 999, 999, 6, 35, 74, 119, 163, 188, 131, 80, 1, 1.14729
2, 2, wb, filler, NA, 999, 999, 6, 35, 74, 119, 163, 188, 131, 80, 2, 0.604449
2, 2, wb, attraction, a-b-db, 9, 1, 6, 36, 135, 60, 57, 129, 60, 135, 2, 1.17663
2, 2, wb, attraction, a-b-db, 9, 1, 6, 36, 135, 60, 57, 129, 60, 135, 1, 0.59523
2, 2, wb, attraction, a-b-da, 5, 2, 6, 37, 165, 90, 161, 88, 90, 165, 2, 1.00126
2, 2, wb, attraction, a-b-da, 5, 2, 6, 37, 165, 90, 161, 88, 90, 165, 1, 0.608419
2, 2, wb, attraction, a-b-db, 5, 1, 7, 1, 135, 60, 60, 135, 58, 132, 2, 1.06165
2, 2, wb, attraction, a-b-db, 5, 1, 7, 1, 135, 60, 60, 135, 58, 132, 1, 0.704905
2, 2, wb, attraction, a-b-da, 14, 3, 7, 2, 120, 195, 181, 111, 195, 120, 2, 1.11469
2, 2, wb, attraction, a-b-da, 14, 3, 7, 2, 120, 195, 181, 111, 195, 120, 1, 0.669232
2, 2, wb, filler, NA, 999, 999, 7, 3, 187, 77, 122, 140, 168, 89, 3, 1.09677
2, 2, wb, filler, NA, 999, 999, 7, 3, 187, 77, 122, 140, 168, 89, 2, 0.754376
2, 2, wb, attraction, a-b-db, 14, 2, 7, 4, 83, 153, 165, 90, 90, 165, 1, 1.22696
2, 2, wb, attraction, a-b-db, 14, 2, 7, 4, 83, 153, 165, 90, 90, 165, 2, 0.594508
2, 2, wb, attraction, a-b-da, 2, 1, 7, 5, 60, 135, 135, 60, 134, 59, 1, 1.15952
2, 2, wb, attraction, a-b-da, 2, 1, 7, 5, 60, 135, 135, 60, 134, 59, 3, 1.15329
2, 2, wb, attraction, a-b-db, 2, 1, 7, 6, 135, 60, 59, 134, 60, 135, 2, 1.02592
2, 2, wb, attraction, a-b-db, 2, 1, 7, 6, 135, 60, 59, 134, 60, 135, 1, 0.592762
2, 2, wb, attraction, a-b-da, 5, 1, 7, 7, 135, 60, 132, 58, 60, 135, 2, 1.03805
2, 2, wb, attraction, a-b-da, 5, 1, 7, 7, 135, 60, 132, 58, 60, 135, 1, 0.5702
2, 2, wb, attraction, a-b-db, 2, 3, 7, 8, 119, 193, 120, 195, 195, 120, 3, 1.41196
2, 2, wb, attraction, a-b-db, 2, 3, 7, 8, 119, 193, 120, 195, 195, 120, 2, 0.801125
2, 2, wb, attraction, a-b-db, 9, 2, 7, 9, 90, 165, 86, 157, 165, 90, 3, 1.2629
2, 2, wb, attraction, a-b-db, 9, 2, 7, 9, 90, 165, 86, 157, 165, 90, 1, 1.44956
2, 2, wb, filler, NA, 999, 999, 7, 10, 101, 59, 146, 83, 106, 158, 1, 1.42091
2, 2, wb, filler, NA, 999, 999, 7, 10, 101, 59, 146, 83, 106, 158, 3, 0.61202
2, 2, wb, filler, NA, 999, 999, 7, 11, 105, 96, 84, 118, 129, 125, 2, 1.25048
2, 2, wb, filler, NA, 999, 999, 7, 11, 105, 96, 84, 118, 129, 125, 3, 3.44772
2, 2, wb, catch, NA, 999, 999, 7, 12, 173, 142, 98, 157, 75, 120, 3, 1.44306
2, 2, wb, catch, NA, 999, 999, 7, 12, 173, 142, 98, 157, 75, 120, 1, 0.544742
2, 2, wb, filler, NA, 999, 999, 7, 13, 175, 135, 178, 60, 71, 173, 3, 1.3779
2, 2, wb, filler, NA, 999, 999, 7, 13, 175, 135, 178, 60, 71, 173, 1, 0.791404
2, 2, wb, filler, NA, 999, 999, 7, 14, 111, 83, 100, 100, 99, 157, 1, 1.33284
2, 2, wb, filler, NA, 999, 999, 7, 14, 111, 83, 100, 100, 99, 157, 3, 0.608484
2, 2, wb, attraction, a-b-db, 14, 1, 7, 15, 60, 135, 135, 60, 56, 125, 3, 1.28411
2, 2, wb, attraction, a-b-db, 14, 1, 7, 15, 60, 135, 135, 60, 56, 125, 1, 1.28131
2, 2, wb, filler, NA, 999, 999, 7, 16, 181, 153, 187, 162, 82, 147, 3, 1.16485
2, 2, wb, filler, NA, 999, 999, 7, 16, 181, 153, 187, 162, 82, 147, 2, 0.869035
2, 2, wb, attraction, a-b-da, 2, 3, 7, 17, 120, 195, 195, 120, 193, 119, 3, 1.73483
2, 2, wb, attraction, a-b-da, 2, 3, 7, 17, 120, 195, 195, 120, 193, 119, 1, 0.682356
2, 2, wb, catch, NA, 999, 999, 7, 18, 190, 125, 62, 133, 104, 151, 2, 1.06705
2, 2, wb, catch, NA, 999, 999, 7, 18, 190, 125, 62, 133, 104, 151, 1, 0.694952
2, 2, wb, attraction, a-b-da, 9, 3, 7, 19, 186, 114, 195, 120, 120, 195, 1, 1.65785
2, 2, wb, attraction, a-b-da, 9, 3, 7, 19, 186, 114, 195, 120, 120, 195, 3, 0.814573
2, 2, wb, filler, NA, 999, 999, 7, 20, 72, 58, 154, 181, 86, 183, 1, 1.26792
2, 2, wb, filler, NA, 999, 999, 7, 20, 72, 58, 154, 181, 86, 183, 2, 0.536475
2, 2, wb, attraction, a-b-da, 14, 2, 7, 21, 165, 90, 90, 165, 153, 83, 3, 1.26216
2, 2, wb, attraction, a-b-da, 14, 2, 7, 21, 165, 90, 90, 165, 153, 83, 1, 1.20321
2, 2, wb, attraction, a-b-da, 14, 1, 7, 22, 125, 56, 135, 60, 60, 135, 1, 1.20374
2, 2, wb, attraction, a-b-da, 14, 1, 7, 22, 125, 56, 135, 60, 60, 135, 2, 1.60049
2, 2, wb, attraction, a-b-db, 5, 2, 7, 23, 165, 90, 90, 165, 88, 161, 3, 1.35159
2, 2, wb, attraction, a-b-db, 5, 2, 7, 23, 165, 90, 90, 165, 88, 161, 1, 0.871312
2, 2, wb, attraction, a-b-db, 5, 3, 7, 24, 195, 120, 120, 195, 117, 190, 2, 1.1763
2, 2, wb, attraction, a-b-db, 5, 3, 7, 24, 195, 120, 120, 195, 117, 190, 1, 0.707202
2, 2, wb, filler, NA, 999, 999, 7, 25, 123, 189, 71, 98, 84, 104, 2, 1.17148
2, 2, wb, filler, NA, 999, 999, 7, 25, 123, 189, 71, 98, 84, 104, 1, 1.03747
2, 2, wb, filler, NA, 999, 999, 7, 26, 168, 123, 124, 186, 65, 122, 3, 1.74459
2, 2, wb, filler, NA, 999, 999, 7, 26, 168, 123, 124, 186, 65, 122, 2, 2.3449
2, 2, wb, attraction, a-b-da, 5, 3, 7, 27, 190, 117, 120, 195, 195, 120, 1, 1.37677
2, 2, wb, attraction, a-b-da, 5, 3, 7, 27, 190, 117, 120, 195, 195, 120, 2, 0.537712
2, 2, wb, attraction, a-b-da, 2, 2, 7, 28, 165, 90, 163, 89, 90, 165, 3, 1.52111
2, 2, wb, attraction, a-b-da, 2, 2, 7, 28, 165, 90, 163, 89, 90, 165, 1, 0.606125
2, 2, wb, attraction, a-b-da, 5, 2, 7, 29, 90, 165, 161, 88, 165, 90, 1, 1.12164
2, 2, wb, attraction, a-b-da, 5, 2, 7, 29, 90, 165, 161, 88, 165, 90, 2, 0.581348
2, 2, wb, catch, NA, 999, 999, 7, 30, 62, 133, 137, 178, 101, 154, 1, 1.20996
2, 2, wb, catch, NA, 999, 999, 7, 30, 62, 133, 137, 178, 101, 154, 2, 1.37612
2, 2, wb, attraction, a-b-da, 9, 1, 7, 31, 60, 135, 129, 57, 135, 60, 1, 1.2006
2, 2, wb, attraction, a-b-da, 9, 1, 7, 31, 60, 135, 129, 57, 135, 60, 3, 0.655621
2, 2, wb, attraction, a-b-da, 9, 2, 7, 32, 165, 90, 90, 165, 157, 86, 3, 1.23483
2, 2, wb, attraction, a-b-da, 9, 2, 7, 32, 165, 90, 90, 165, 157, 86, 1, 0.584024
2, 2, wb, attraction, a-b-db, 14, 3, 7, 33, 111, 181, 195, 120, 120, 195, 2, 1.02508
2, 2, wb, attraction, a-b-db, 14, 3, 7, 33, 111, 181, 195, 120, 120, 195, 3, 1.43068
2, 2, wb, attraction, a-b-db, 9, 3, 7, 34, 195, 120, 120, 195, 114, 186, 1, 1.11176
2, 2, wb, attraction, a-b-db, 9, 3, 7, 34, 195, 120, 120, 195, 114, 186, 2, 0.571987
2, 2, wb, filler, NA, 999, 999, 7, 35, 89, 133, 153, 126, 105, 99, 3, 1.22914
2, 2, wb, filler, NA, 999, 999, 7, 35, 89, 133, 153, 126, 105, 99, 2, 1.37559
2, 2, wb, attraction, a-b-db, 9, 1, 7, 36, 60, 135, 135, 60, 57, 129, 1, 1.19895
2, 2, wb, attraction, a-b-db, 9, 1, 7, 36, 60, 135, 135, 60, 57, 129, 2, 0.591442
2, 2, wb, attraction, a-b-db, 2, 2, 7, 37, 165, 90, 90, 165, 89, 163, 3, 1.1161
2, 2, wb, attraction, a-b-db, 2, 2, 7, 37, 165, 90, 90, 165, 89, 163, 1, 0.685793
2, 2, wb, attraction, a-b-da, 5, 3, 8, 1, 190, 117, 120, 195, 195, 120, 3, 1.23304
2, 2, wb, attraction, a-b-da, 5, 3, 8, 1, 190, 117, 120, 195, 195, 120, 2, 0.557447
2, 2, wb, attraction, a-b-da, 2, 2, 8, 2, 163, 89, 90, 165, 165, 90, 1, 1.08729
2, 2, wb, attraction, a-b-da, 2, 2, 8, 2, 163, 89, 90, 165, 165, 90, 2, 0.585338
2, 2, wb, attraction, a-b-da, 5, 1, 8, 3, 132, 58, 135, 60, 60, 135, 1, 1.36108
2, 2, wb, attraction, a-b-da, 5, 1, 8, 3, 132, 58, 135, 60, 60, 135, 2, 0.665542
2, 2, wb, attraction, a-b-da, 9, 3, 8, 4, 195, 120, 120, 195, 186, 114, 3, 1.73973
2, 2, wb, attraction, a-b-da, 9, 3, 8, 4, 195, 120, 120, 195, 186, 114, 2, 1.14079
2, 2, wb, attraction, a-b-db, 9, 3, 8, 5, 120, 195, 114, 186, 195, 120, 2, 1.12531
2, 2, wb, attraction, a-b-db, 9, 3, 8, 5, 120, 195, 114, 186, 195, 120, 1, 0.537248
2, 2, wb, attraction, a-b-db, 5, 3, 8, 6, 195, 120, 117, 190, 120, 195, 2, 0.985704
2, 2, wb, attraction, a-b-db, 5, 3, 8, 6, 195, 120, 117, 190, 120, 195, 1, 1.35885
2, 2, wb, filler, NA, 999, 999, 8, 7, 157, 62, 78, 95, 84, 87, 3, 3.34481
2, 2, wb, filler, NA, 999, 999, 8, 7, 157, 62, 78, 95, 84, 87, 1, 3.59879
2, 2, wb, attraction, a-b-db, 2, 2, 8, 8, 89, 163, 165, 90, 90, 165, 1, 1.25291
2, 2, wb, attraction, a-b-db, 2, 2, 8, 8, 89, 163, 165, 90, 90, 165, 2, 0.537116
2, 2, wb, filler, NA, 999, 999, 8, 9, 126, 149, 189, 61, 147, 61, 3, 1.8884
2, 2, wb, filler, NA, 999, 999, 8, 9, 126, 149, 189, 61, 147, 61, 1, 0.69434
2, 2, wb, attraction, a-b-da, 14, 1, 8, 10, 135, 60, 125, 56, 60, 135, 3, 1.43884
2, 2, wb, attraction, a-b-da, 14, 1, 8, 10, 135, 60, 125, 56, 60, 135, 1, 2.86095
2, 2, wb, attraction, a-b-da, 14, 2, 8, 11, 153, 83, 165, 90, 90, 165, 3, 1.33657
2, 2, wb, attraction, a-b-da, 14, 2, 8, 11, 153, 83, 165, 90, 90, 165, 2, 0.564559
2, 2, wb, attraction, a-b-da, 2, 3, 8, 12, 195, 120, 193, 119, 120, 195, 1, 1.0816
2, 2, wb, attraction, a-b-da, 2, 3, 8, 12, 195, 120, 193, 119, 120, 195, 2, 0.613369
2, 2, wb, catch, NA, 999, 999, 8, 13, 189, 126, 132, 123, 116, 79, 3, 1.06057
2, 2, wb, catch, NA, 999, 999, 8, 13, 189, 126, 132, 123, 116, 79, 1, 0.630227
2, 2, wb, attraction, a-b-db, 9, 1, 8, 14, 60, 135, 135, 60, 57, 129, 1, 1.26923
2, 2, wb, attraction, a-b-db, 9, 1, 8, 14, 60, 135, 135, 60, 57, 129, 2, 0.543542
2, 2, wb, attraction, a-b-da, 5, 2, 8, 15, 161, 88, 165, 90, 90, 165, 3, 0.977973
2, 2, wb, attraction, a-b-da, 5, 2, 8, 15, 161, 88, 165, 90, 90, 165, 1, 0.657313
2, 2, wb, filler, NA, 999, 999, 8, 16, 139, 113, 151, 165, 83, 73, 3, 1.14885
2, 2, wb, filler, NA, 999, 999, 8, 16, 139, 113, 151, 165, 83, 73, 2, 0.5661
2, 2, wb, attraction, a-b-da, 14, 3, 8, 17, 120, 195, 195, 120, 181, 111, 3, 1.11689
2, 2, wb, attraction, a-b-da, 14, 3, 8, 17, 120, 195, 195, 120, 181, 111, 2, 0.614848
2, 2, wb, attraction, a-b-da, 9, 1, 8, 18, 129, 57, 135, 60, 60, 135, 3, 1.06891
2, 2, wb, attraction, a-b-da, 9, 1, 8, 18, 129, 57, 135, 60, 60, 135, 2, 0.551748
2, 2, wb, attraction, a-b-db, 2, 3, 8, 19, 120, 195, 195, 120, 119, 193, 3, 0.982367
2, 2, wb, attraction, a-b-db, 2, 3, 8, 19, 120, 195, 195, 120, 119, 193, 2, 0.56007
2, 2, wb, attraction, a-b-db, 9, 2, 8, 20, 90, 165, 86, 157, 165, 90, 3, 1.14911
2, 2, wb, attraction, a-b-db, 9, 2, 8, 20, 90, 165, 86, 157, 165, 90, 1, 0.639749
2, 2, wb, catch, NA, 999, 999, 8, 21, 64, 131, 135, 180, 102, 153, 1, 1.37101
2, 2, wb, catch, NA, 999, 999, 8, 21, 64, 131, 135, 180, 102, 153, 2, 0.692911
2, 2, wb, attraction, a-b-db, 5, 2, 8, 22, 90, 165, 88, 161, 165, 90, 3, 1.09367
2, 2, wb, attraction, a-b-db, 5, 2, 8, 22, 90, 165, 88, 161, 165, 90, 2, 0.546235
2, 2, wb, filler, NA, 999, 999, 8, 23, 133, 189, 133, 164, 132, 183, 1, 1.13139
2, 2, wb, filler, NA, 999, 999, 8, 23, 133, 189, 133, 164, 132, 183, 2, 0.980856
2, 2, wb, attraction, a-b-db, 2, 1, 8, 24, 59, 134, 60, 135, 135, 60, 3, 1.22677
2, 2, wb, attraction, a-b-db, 2, 1, 8, 24, 59, 134, 60, 135, 135, 60, 2, 0.553515
2, 2, wb, attraction, a-b-da, 2, 1, 8, 25, 135, 60, 60, 135, 134, 59, 3, 1.20201
2, 2, wb, attraction, a-b-da, 2, 1, 8, 25, 135, 60, 60, 135, 134, 59, 2, 0.648947
2, 2, wb, attraction, a-b-db, 14, 3, 8, 26, 120, 195, 111, 181, 195, 120, 1, 2.11748
2, 2, wb, attraction, a-b-db, 14, 3, 8, 26, 120, 195, 111, 181, 195, 120, 2, 0.630415
2, 2, wb, filler, NA, 999, 999, 8, 27, 83, 116, 63, 172, 87, 108, 3, 1.6757
2, 2, wb, filler, NA, 999, 999, 8, 27, 83, 116, 63, 172, 87, 108, 2, 5.51112
2, 2, wb, attraction, a-b-db, 14, 1, 8, 28, 56, 125, 60, 135, 135, 60, 1, 1.34545
2, 2, wb, attraction, a-b-db, 14, 1, 8, 28, 56, 125, 60, 135, 135, 60, 2, 0.520161
2, 2, wb, filler, NA, 999, 999, 8, 29, 101, 174, 188, 106, 73, 57, 3, 1.25015
2, 2, wb, filler, NA, 999, 999, 8, 29, 101, 174, 188, 106, 73, 57, 2, 3.19097
2, 2, wb, filler, NA, 999, 999, 8, 30, 155, 67, 170, 97, 98, 183, 1, 1.4284
2, 2, wb, filler, NA, 999, 999, 8, 30, 155, 67, 170, 97, 98, 183, 2, 1.01141
2, 2, wb, attraction, a-b-db, 5, 1, 8, 31, 58, 132, 135, 60, 60, 135, 3, 1.17574
2, 2, wb, attraction, a-b-db, 5, 1, 8, 31, 58, 132, 135, 60, 60, 135, 2, 0.841285
2, 2, wb, attraction, a-b-da, 9, 2, 8, 32, 157, 86, 90, 165, 165, 90, 1, 1.3975
2, 2, wb, attraction, a-b-da, 9, 2, 8, 32, 157, 86, 90, 165, 165, 90, 2, 0.595295
2, 2, wb, attraction, a-b-db, 14, 2, 8, 33, 165, 90, 90, 165, 83, 153, 3, 1.40079
2, 2, wb, attraction, a-b-db, 14, 2, 8, 33, 165, 90, 90, 165, 83, 153, 1, 0.622756
2, 2, wb, filler, NA, 999, 999, 8, 34, 110, 85, 59, 111, 68, 140, 2, 1.10749
2, 2, wb, filler, NA, 999, 999, 8, 34, 110, 85, 59, 111, 68, 140, 1, 0.743747
2, 2, wb, filler, NA, 999, 999, 8, 35, 124, 138, 135, 77, 162, 116, 2, 1.78354
2, 2, wb, filler, NA, 999, 999, 8, 35, 124, 138, 135, 77, 162, 116, 1, 6.71388
2, 2, wb, filler, NA, 999, 999, 8, 36, 110, 127, 117, 72, 64, 94, 3, 1.27238
2, 2, wb, filler, NA, 999, 999, 8, 36, 110, 127, 117, 72, 64, 94, 1, 0.580136
2, 2, wb, catch, NA, 999, 999, 8, 37, 75, 120, 97, 158, 125, 190, 1, 1.19538
2, 2, wb, catch, NA, 999, 999, 8, 37, 75, 120, 97, 158, 125, 190, 3, 0.690342
