sub_n, computer_n, bw_cond, effect, set, distance, diag, block_n, trial_n, h1, w1, h2, w2, h3, w3, choice, rt 
261, 2, bw, practice, NA, 999, 999, 0, 1, 74, 93, 182, 109, 66, 164, 2, 1.85836
261, 2, bw, practice, NA, 999, 999, 0, 1, 74, 93, 182, 109, 66, 164, 1, 2.40783
261, 2, bw, practice, NA, 999, 999, 0, 2, 175, 127, 186, 167, 120, 100, 2, 1.72988
261, 2, bw, practice, NA, 999, 999, 0, 2, 175, 127, 186, 167, 120, 100, 3, 1.29079
261, 2, bw, practice, NA, 999, 999, 0, 3, 113, 75, 144, 71, 157, 171, 3, 1.58546
261, 2, bw, practice, NA, 999, 999, 0, 3, 113, 75, 144, 71, 157, 171, 2, 4.67262
261, 2, bw, filler, NA, 999, 999, 1, 1, 97, 188, 146, 72, 94, 79, 1, 1.35871
261, 2, bw, filler, NA, 999, 999, 1, 1, 97, 188, 146, 72, 94, 79, 3, 1.5669
261, 2, bw, attraction, a-b-da, 5, 1, 1, 2, 132, 58, 135, 60, 60, 135, 3, 1.93369
261, 2, bw, attraction, a-b-da, 5, 1, 1, 2, 132, 58, 135, 60, 60, 135, 1, 1.69504
261, 2, bw, attraction, a-b-da, 2, 2, 1, 3, 90, 165, 165, 90, 163, 89, 1, 1.88841
261, 2, bw, attraction, a-b-da, 2, 2, 1, 3, 90, 165, 165, 90, 163, 89, 2, 2.50724
261, 2, bw, attraction, a-b-db, 9, 1, 1, 4, 57, 129, 60, 135, 135, 60, 1, 1.8196
261, 2, bw, attraction, a-b-db, 9, 1, 1, 4, 57, 129, 60, 135, 135, 60, 2, 2.82568
261, 2, bw, filler, NA, 999, 999, 1, 5, 87, 170, 165, 130, 181, 107, 2, 1.00542
261, 2, bw, filler, NA, 999, 999, 1, 5, 87, 170, 165, 130, 181, 107, 1, 1.04374
261, 2, bw, attraction, a-b-db, 2, 2, 1, 6, 90, 165, 89, 163, 165, 90, 2, 3.74336
261, 2, bw, attraction, a-b-db, 2, 2, 1, 6, 90, 165, 89, 163, 165, 90, 3, 1.7675
261, 2, bw, filler, NA, 999, 999, 1, 7, 116, 103, 104, 63, 188, 94, 3, 1.98229
261, 2, bw, filler, NA, 999, 999, 1, 7, 116, 103, 104, 63, 188, 94, 2, 1.14166
261, 2, bw, attraction, a-b-da, 14, 1, 1, 8, 125, 56, 60, 135, 135, 60, 2, 1.35721
261, 2, bw, attraction, a-b-da, 14, 1, 1, 8, 125, 56, 60, 135, 135, 60, 3, 1.2614
261, 2, bw, filler, NA, 999, 999, 1, 9, 173, 192, 102, 183, 83, 183, 1, 2.26418
261, 2, bw, filler, NA, 999, 999, 1, 9, 173, 192, 102, 183, 83, 183, 3, 1.70022
261, 2, bw, attraction, a-b-da, 2, 1, 1, 10, 60, 135, 134, 59, 135, 60, 3, 2.69358
261, 2, bw, attraction, a-b-da, 2, 1, 1, 10, 60, 135, 134, 59, 135, 60, 2, 0.992038
261, 2, bw, attraction, a-b-db, 14, 1, 1, 11, 56, 125, 60, 135, 135, 60, 2, 2.52571
261, 2, bw, attraction, a-b-db, 14, 1, 1, 11, 56, 125, 60, 135, 135, 60, 1, 1.04683
261, 2, bw, attraction, a-b-db, 14, 3, 1, 12, 195, 120, 111, 181, 120, 195, 3, 5.28258
261, 2, bw, attraction, a-b-db, 14, 3, 1, 12, 195, 120, 111, 181, 120, 195, 2, 1.27682
261, 2, bw, attraction, a-b-db, 5, 3, 1, 13, 120, 195, 195, 120, 117, 190, 1, 1.23103
261, 2, bw, attraction, a-b-db, 5, 3, 1, 13, 120, 195, 195, 120, 117, 190, 2, 0.764751
261, 2, bw, attraction, a-b-db, 5, 1, 1, 14, 60, 135, 58, 132, 135, 60, 1, 1.93968
261, 2, bw, attraction, a-b-db, 5, 1, 1, 14, 60, 135, 58, 132, 135, 60, 2, 1.53238
261, 2, bw, filler, NA, 999, 999, 1, 15, 67, 73, 102, 168, 146, 81, 2, 0.932462
261, 2, bw, filler, NA, 999, 999, 1, 15, 67, 73, 102, 168, 146, 81, 1, 0.694193
261, 2, bw, attraction, a-b-da, 2, 3, 1, 16, 120, 195, 193, 119, 195, 120, 1, 1.86398
261, 2, bw, attraction, a-b-da, 2, 3, 1, 16, 120, 195, 193, 119, 195, 120, 2, 1.09194
261, 2, bw, attraction, a-b-db, 9, 3, 1, 17, 195, 120, 120, 195, 114, 186, 1, 3.87763
261, 2, bw, attraction, a-b-db, 9, 3, 1, 17, 195, 120, 120, 195, 114, 186, 3, 1.05641
261, 2, bw, attraction, a-b-db, 9, 2, 1, 18, 165, 90, 86, 157, 90, 165, 3, 1.62739
261, 2, bw, attraction, a-b-db, 9, 2, 1, 18, 165, 90, 86, 157, 90, 165, 2, 0.672729
261, 2, bw, filler, NA, 999, 999, 1, 19, 81, 58, 152, 124, 132, 112, 2, 1.64305
261, 2, bw, filler, NA, 999, 999, 1, 19, 81, 58, 152, 124, 132, 112, 1, 0.599856
261, 2, bw, attraction, a-b-da, 5, 2, 1, 20, 90, 165, 165, 90, 161, 88, 1, 1.02165
261, 2, bw, attraction, a-b-da, 5, 2, 1, 20, 90, 165, 165, 90, 161, 88, 2, 0.715338
261, 2, bw, filler, NA, 999, 999, 1, 21, 115, 86, 96, 104, 92, 81, 1, 2.21232
261, 2, bw, filler, NA, 999, 999, 1, 21, 115, 86, 96, 104, 92, 81, 3, 0.794304
261, 2, bw, catch, NA, 999, 999, 1, 22, 185, 130, 154, 101, 95, 100, 1, 0.776016
261, 2, bw, catch, NA, 999, 999, 1, 22, 185, 130, 154, 101, 95, 100, 3, 0.783831
261, 2, bw, filler, NA, 999, 999, 1, 23, 158, 177, 83, 63, 88, 59, 1, 0.574105
261, 2, bw, filler, NA, 999, 999, 1, 23, 158, 177, 83, 63, 88, 59, 3, 0.781913
261, 2, bw, attraction, a-b-db, 2, 1, 1, 24, 59, 134, 135, 60, 60, 135, 3, 2.03626
261, 2, bw, attraction, a-b-db, 2, 1, 1, 24, 59, 134, 135, 60, 60, 135, 1, 0.937571
261, 2, bw, attraction, a-b-da, 9, 1, 1, 25, 60, 135, 129, 57, 135, 60, 1, 0.913897
261, 2, bw, attraction, a-b-da, 9, 1, 1, 25, 60, 135, 129, 57, 135, 60, 2, 0.51625
261, 2, bw, attraction, a-b-da, 9, 2, 1, 26, 165, 90, 90, 165, 157, 86, 2, 1.05338
261, 2, bw, attraction, a-b-da, 9, 2, 1, 26, 165, 90, 90, 165, 157, 86, 3, 0.674356
261, 2, bw, attraction, a-b-da, 5, 3, 1, 27, 190, 117, 120, 195, 195, 120, 2, 1.03667
261, 2, bw, attraction, a-b-da, 5, 3, 1, 27, 190, 117, 120, 195, 195, 120, 1, 0.346468
261, 2, bw, catch, NA, 999, 999, 1, 28, 125, 190, 123, 72, 156, 99, 1, 0.842276
261, 2, bw, catch, NA, 999, 999, 1, 28, 125, 190, 123, 72, 156, 99, 2, 0.351343
261, 2, bw, attraction, a-b-db, 14, 2, 1, 29, 83, 153, 90, 165, 165, 90, 2, 0.655079
261, 2, bw, attraction, a-b-db, 14, 2, 1, 29, 83, 153, 90, 165, 165, 90, 1, 0.691459
261, 2, bw, catch, NA, 999, 999, 1, 30, 115, 80, 112, 143, 193, 122, 3, 0.781234
261, 2, bw, catch, NA, 999, 999, 1, 30, 115, 80, 112, 143, 193, 122, 1, 0.828949
261, 2, bw, filler, NA, 999, 999, 1, 31, 186, 120, 159, 105, 185, 195, 3, 0.577317
261, 2, bw, filler, NA, 999, 999, 1, 31, 186, 120, 159, 105, 185, 195, 2, 0.689051
261, 2, bw, filler, NA, 999, 999, 1, 32, 175, 116, 186, 147, 152, 59, 2, 0.92362
261, 2, bw, filler, NA, 999, 999, 1, 32, 175, 116, 186, 147, 152, 59, 3, 0.509261
261, 2, bw, attraction, a-b-da, 14, 2, 1, 33, 90, 165, 153, 83, 165, 90, 3, 1.03028
261, 2, bw, attraction, a-b-da, 14, 2, 1, 33, 90, 165, 153, 83, 165, 90, 2, 0.692066
261, 2, bw, attraction, a-b-da, 14, 3, 1, 34, 120, 195, 181, 111, 195, 120, 3, 0.805727
261, 2, bw, attraction, a-b-da, 14, 3, 1, 34, 120, 195, 181, 111, 195, 120, 2, 0.900142
261, 2, bw, attraction, a-b-da, 9, 3, 1, 35, 186, 114, 195, 120, 120, 195, 3, 1.26979
261, 2, bw, attraction, a-b-da, 9, 3, 1, 35, 186, 114, 195, 120, 120, 195, 2, 0.346034
261, 2, bw, attraction, a-b-db, 2, 3, 1, 36, 119, 193, 120, 195, 195, 120, 2, 0.641849
261, 2, bw, attraction, a-b-db, 2, 3, 1, 36, 119, 193, 120, 195, 195, 120, 1, 0.6709
261, 2, bw, attraction, a-b-db, 5, 2, 1, 37, 165, 90, 88, 161, 90, 165, 2, 0.738108
261, 2, bw, attraction, a-b-db, 5, 2, 1, 37, 165, 90, 88, 161, 90, 165, 1, 0.571045
261, 2, bw, filler, NA, 999, 999, 2, 1, 71, 73, 118, 88, 165, 169, 3, 0.570282
261, 2, bw, filler, NA, 999, 999, 2, 1, 71, 73, 118, 88, 165, 169, 1, 0.522717
261, 2, bw, filler, NA, 999, 999, 2, 2, 86, 76, 71, 118, 155, 67, 2, 1.94765
261, 2, bw, filler, NA, 999, 999, 2, 2, 86, 76, 71, 118, 155, 67, 3, 0.700463
261, 2, bw, filler, NA, 999, 999, 2, 3, 167, 131, 71, 165, 182, 125, 2, 1.12618
261, 2, bw, filler, NA, 999, 999, 2, 3, 167, 131, 71, 165, 182, 125, 1, 0.335923
261, 2, bw, filler, NA, 999, 999, 2, 4, 69, 72, 159, 104, 86, 82, 2, 2.51227
261, 2, bw, filler, NA, 999, 999, 2, 4, 69, 72, 159, 104, 86, 82, 3, 0.578101
261, 2, bw, attraction, a-b-da, 14, 3, 2, 5, 181, 111, 195, 120, 120, 195, 3, 1.88855
261, 2, bw, attraction, a-b-da, 14, 3, 2, 5, 181, 111, 195, 120, 120, 195, 2, 0.483275
261, 2, bw, attraction, a-b-db, 14, 2, 2, 6, 165, 90, 83, 153, 90, 165, 1, 5.09373
261, 2, bw, attraction, a-b-db, 14, 2, 2, 6, 165, 90, 83, 153, 90, 165, 2, 0.663428
261, 2, bw, attraction, a-b-da, 5, 2, 2, 7, 90, 165, 161, 88, 165, 90, 1, 2.05856
261, 2, bw, attraction, a-b-da, 5, 2, 2, 7, 90, 165, 161, 88, 165, 90, 2, 0.870554
261, 2, bw, attraction, a-b-da, 9, 1, 2, 8, 135, 60, 60, 135, 129, 57, 2, 1.29761
261, 2, bw, attraction, a-b-da, 9, 1, 2, 8, 135, 60, 60, 135, 129, 57, 1, 0.660451
261, 2, bw, catch, NA, 999, 999, 2, 9, 124, 71, 151, 164, 115, 140, 2, 0.719562
261, 2, bw, catch, NA, 999, 999, 2, 9, 124, 71, 151, 164, 115, 140, 1, 0.67399
261, 2, bw, catch, NA, 999, 999, 2, 10, 128, 187, 133, 122, 125, 70, 1, 0.740353
261, 2, bw, catch, NA, 999, 999, 2, 10, 128, 187, 133, 122, 125, 70, 3, 0.605423
261, 2, bw, attraction, a-b-da, 9, 2, 2, 11, 90, 165, 165, 90, 157, 86, 1, 1.69919
261, 2, bw, attraction, a-b-da, 9, 2, 2, 11, 90, 165, 165, 90, 157, 86, 3, 0.773885
261, 2, bw, attraction, a-b-da, 2, 1, 2, 12, 60, 135, 134, 59, 135, 60, 1, 1.71632
261, 2, bw, attraction, a-b-da, 2, 1, 2, 12, 60, 135, 134, 59, 135, 60, 2, 1.24639
261, 2, bw, attraction, a-b-da, 9, 3, 2, 13, 186, 114, 195, 120, 120, 195, 2, 1.08989
261, 2, bw, attraction, a-b-da, 9, 3, 2, 13, 186, 114, 195, 120, 120, 195, 3, 1.34096
261, 2, bw, attraction, a-b-da, 14, 1, 2, 14, 135, 60, 60, 135, 125, 56, 1, 2.71645
261, 2, bw, attraction, a-b-da, 14, 1, 2, 14, 135, 60, 60, 135, 125, 56, 2, 0.470305
261, 2, bw, filler, NA, 999, 999, 2, 15, 172, 170, 153, 132, 86, 66, 1, 1.43327
261, 2, bw, filler, NA, 999, 999, 2, 15, 172, 170, 153, 132, 86, 66, 3, 0.486893
261, 2, bw, attraction, a-b-db, 9, 3, 2, 16, 114, 186, 120, 195, 195, 120, 2, 1.34538
261, 2, bw, attraction, a-b-db, 9, 3, 2, 16, 114, 186, 120, 195, 195, 120, 1, 0.418164
261, 2, bw, attraction, a-b-da, 14, 2, 2, 17, 165, 90, 153, 83, 90, 165, 1, 0.895405
261, 2, bw, attraction, a-b-da, 14, 2, 2, 17, 165, 90, 153, 83, 90, 165, 3, 0.514422
261, 2, bw, attraction, a-b-db, 2, 1, 2, 18, 135, 60, 59, 134, 60, 135, 2, 0.747542
261, 2, bw, attraction, a-b-db, 2, 1, 2, 18, 135, 60, 59, 134, 60, 135, 1, 0.716626
261, 2, bw, attraction, a-b-db, 2, 3, 2, 19, 119, 193, 120, 195, 195, 120, 2, 1.20558
261, 2, bw, attraction, a-b-db, 2, 3, 2, 19, 119, 193, 120, 195, 195, 120, 3, 0.395849
261, 2, bw, attraction, a-b-da, 5, 3, 2, 20, 120, 195, 195, 120, 190, 117, 2, 1.45766
261, 2, bw, attraction, a-b-da, 5, 3, 2, 20, 120, 195, 195, 120, 190, 117, 1, 0.949991
261, 2, bw, filler, NA, 999, 999, 2, 21, 90, 59, 185, 123, 178, 163, 3, 1.87756
261, 2, bw, filler, NA, 999, 999, 2, 21, 90, 59, 185, 123, 178, 163, 1, 0.488908
261, 2, bw, attraction, a-b-db, 2, 2, 2, 22, 89, 163, 90, 165, 165, 90, 2, 2.93939
261, 2, bw, attraction, a-b-db, 2, 2, 2, 22, 89, 163, 90, 165, 165, 90, 1, 0.515751
261, 2, bw, attraction, a-b-db, 14, 1, 2, 23, 135, 60, 60, 135, 56, 125, 1, 0.900842
261, 2, bw, attraction, a-b-db, 14, 1, 2, 23, 135, 60, 60, 135, 56, 125, 2, 0.311905
261, 2, bw, catch, NA, 999, 999, 2, 24, 133, 62, 99, 156, 164, 151, 3, 0.825072
261, 2, bw, catch, NA, 999, 999, 2, 24, 133, 62, 99, 156, 164, 151, 1, 0.766786
261, 2, bw, filler, NA, 999, 999, 2, 25, 159, 119, 97, 129, 84, 167, 1, 0.741888
261, 2, bw, filler, NA, 999, 999, 2, 25, 159, 119, 97, 129, 84, 167, 2, 1.22298
261, 2, bw, attraction, a-b-db, 5, 2, 2, 26, 90, 165, 165, 90, 88, 161, 1, 0.979142
261, 2, bw, attraction, a-b-db, 5, 2, 2, 26, 90, 165, 165, 90, 88, 161, 3, 0.714784
261, 2, bw, attraction, a-b-da, 2, 2, 2, 27, 163, 89, 90, 165, 165, 90, 2, 0.643833
261, 2, bw, attraction, a-b-da, 2, 2, 2, 27, 163, 89, 90, 165, 165, 90, 1, 0.800905
261, 2, bw, attraction, a-b-da, 2, 3, 2, 28, 193, 119, 120, 195, 195, 120, 2, 0.582634
261, 2, bw, attraction, a-b-da, 2, 3, 2, 28, 193, 119, 120, 195, 195, 120, 1, 0.518384
261, 2, bw, filler, NA, 999, 999, 2, 29, 181, 73, 147, 144, 81, 105, 2, 1.1195
261, 2, bw, filler, NA, 999, 999, 2, 29, 181, 73, 147, 144, 81, 105, 3, 0.369779
261, 2, bw, attraction, a-b-db, 5, 3, 2, 30, 195, 120, 117, 190, 120, 195, 1, 0.776943
261, 2, bw, attraction, a-b-db, 5, 3, 2, 30, 195, 120, 117, 190, 120, 195, 2, 0.688747
261, 2, bw, attraction, a-b-db, 9, 1, 2, 31, 60, 135, 57, 129, 135, 60, 1, 1.21925
261, 2, bw, attraction, a-b-db, 9, 1, 2, 31, 60, 135, 57, 129, 135, 60, 3, 0.785399
261, 2, bw, attraction, a-b-db, 5, 1, 2, 32, 58, 132, 60, 135, 135, 60, 3, 2.27979
261, 2, bw, attraction, a-b-db, 5, 1, 2, 32, 58, 132, 60, 135, 135, 60, 2, 0.499098
261, 2, bw, filler, NA, 999, 999, 2, 33, 64, 96, 138, 194, 178, 110, 2, 1.03684
261, 2, bw, filler, NA, 999, 999, 2, 33, 64, 96, 138, 194, 178, 110, 1, 0.562538
261, 2, bw, filler, NA, 999, 999, 2, 34, 109, 65, 170, 144, 141, 116, 2, 0.825593
261, 2, bw, filler, NA, 999, 999, 2, 34, 109, 65, 170, 144, 141, 116, 1, 0.567425
261, 2, bw, attraction, a-b-db, 9, 2, 2, 35, 86, 157, 90, 165, 165, 90, 2, 1.17431
261, 2, bw, attraction, a-b-db, 9, 2, 2, 35, 86, 157, 90, 165, 165, 90, 1, 0.629929
261, 2, bw, attraction, a-b-db, 14, 3, 2, 36, 120, 195, 195, 120, 111, 181, 1, 0.850275
261, 2, bw, attraction, a-b-db, 14, 3, 2, 36, 120, 195, 195, 120, 111, 181, 2, 0.415366
261, 2, bw, attraction, a-b-da, 5, 1, 2, 37, 132, 58, 135, 60, 60, 135, 1, 0.836572
261, 2, bw, attraction, a-b-da, 5, 1, 2, 37, 132, 58, 135, 60, 60, 135, 2, 0.754337
261, 2, bw, catch, NA, 999, 999, 3, 1, 91, 104, 189, 126, 142, 113, 2, 1.20197
261, 2, bw, catch, NA, 999, 999, 3, 1, 91, 104, 189, 126, 142, 113, 1, 0.448852
261, 2, bw, filler, NA, 999, 999, 3, 2, 137, 184, 66, 147, 91, 153, 1, 0.556729
261, 2, bw, filler, NA, 999, 999, 3, 2, 137, 184, 66, 147, 91, 153, 2, 0.605219
261, 2, bw, attraction, a-b-db, 14, 2, 3, 3, 83, 153, 90, 165, 165, 90, 2, 0.70706
261, 2, bw, attraction, a-b-db, 14, 2, 3, 3, 83, 153, 90, 165, 165, 90, 1, 1.03749
261, 2, bw, filler, NA, 999, 999, 3, 4, 155, 78, 60, 136, 144, 150, 3, 0.769572
261, 2, bw, filler, NA, 999, 999, 3, 4, 155, 78, 60, 136, 144, 150, 2, 0.625995
261, 2, bw, attraction, a-b-db, 14, 1, 3, 5, 56, 125, 60, 135, 135, 60, 1, 0.654398
261, 2, bw, attraction, a-b-db, 14, 1, 3, 5, 56, 125, 60, 135, 135, 60, 2, 0.642964
261, 2, bw, attraction, a-b-da, 2, 2, 3, 6, 163, 89, 90, 165, 165, 90, 2, 0.614722
261, 2, bw, attraction, a-b-da, 2, 2, 3, 6, 163, 89, 90, 165, 165, 90, 1, 0.333174
261, 2, bw, attraction, a-b-da, 14, 2, 3, 7, 90, 165, 153, 83, 165, 90, 1, 1.32553
261, 2, bw, attraction, a-b-da, 14, 2, 3, 7, 90, 165, 153, 83, 165, 90, 2, 0.551183
261, 2, bw, filler, NA, 999, 999, 3, 8, 104, 113, 147, 72, 193, 143, 3, 0.606896
261, 2, bw, filler, NA, 999, 999, 3, 8, 104, 113, 147, 72, 193, 143, 2, 0.509514
261, 2, bw, attraction, a-b-da, 5, 1, 3, 9, 135, 60, 132, 58, 60, 135, 2, 0.662377
261, 2, bw, attraction, a-b-da, 5, 1, 3, 9, 135, 60, 132, 58, 60, 135, 1, 0.290839
261, 2, bw, attraction, a-b-da, 5, 2, 3, 10, 90, 165, 161, 88, 165, 90, 2, 0.748694
261, 2, bw, attraction, a-b-da, 5, 2, 3, 10, 90, 165, 161, 88, 165, 90, 1, 0.38185
261, 2, bw, attraction, a-b-da, 9, 1, 3, 11, 129, 57, 60, 135, 135, 60, 2, 0.90032
261, 2, bw, attraction, a-b-da, 9, 1, 3, 11, 129, 57, 60, 135, 135, 60, 3, 0.359333
261, 2, bw, attraction, a-b-db, 5, 2, 3, 12, 88, 161, 165, 90, 90, 165, 2, 0.5905
261, 2, bw, attraction, a-b-db, 5, 2, 3, 12, 88, 161, 165, 90, 90, 165, 1, 0.645571
261, 2, bw, attraction, a-b-da, 9, 3, 3, 13, 195, 120, 120, 195, 186, 114, 2, 0.74539
261, 2, bw, attraction, a-b-da, 9, 3, 3, 13, 195, 120, 120, 195, 186, 114, 1, 0.522364
261, 2, bw, filler, NA, 999, 999, 3, 14, 156, 154, 156, 58, 124, 147, 1, 0.739464
261, 2, bw, filler, NA, 999, 999, 3, 14, 156, 154, 156, 58, 124, 147, 2, 0.916577
261, 2, bw, attraction, a-b-db, 9, 1, 3, 15, 135, 60, 60, 135, 57, 129, 2, 1.30158
261, 2, bw, attraction, a-b-db, 9, 1, 3, 15, 135, 60, 60, 135, 57, 129, 1, 0.92053
261, 2, bw, attraction, a-b-db, 9, 3, 3, 16, 114, 186, 120, 195, 195, 120, 2, 0.793468
261, 2, bw, attraction, a-b-db, 9, 3, 3, 16, 114, 186, 120, 195, 195, 120, 1, 0.360519
261, 2, bw, catch, NA, 999, 999, 3, 17, 129, 186, 142, 113, 89, 106, 1, 0.719703
261, 2, bw, catch, NA, 999, 999, 3, 17, 129, 186, 142, 113, 89, 106, 3, 0.330158
261, 2, bw, filler, NA, 999, 999, 3, 18, 110, 84, 88, 159, 148, 104, 3, 0.746639
261, 2, bw, filler, NA, 999, 999, 3, 18, 110, 84, 88, 159, 148, 104, 1, 0.755784
261, 2, bw, filler, NA, 999, 999, 3, 19, 157, 170, 67, 99, 151, 180, 1, 1.93943
261, 2, bw, filler, NA, 999, 999, 3, 19, 157, 170, 67, 99, 151, 180, 2, 0.380085
261, 2, bw, attraction, a-b-da, 9, 2, 3, 20, 90, 165, 165, 90, 157, 86, 1, 1.44257
261, 2, bw, attraction, a-b-da, 9, 2, 3, 20, 90, 165, 165, 90, 157, 86, 3, 0.975474
261, 2, bw, catch, NA, 999, 999, 3, 21, 99, 96, 127, 188, 124, 131, 2, 0.485708
261, 2, bw, catch, NA, 999, 999, 3, 21, 99, 96, 127, 188, 124, 131, 1, 0.329515
261, 2, bw, filler, NA, 999, 999, 3, 22, 102, 81, 115, 165, 109, 62, 2, 0.458058
261, 2, bw, filler, NA, 999, 999, 3, 22, 102, 81, 115, 165, 109, 62, 1, 0.342551
261, 2, bw, filler, NA, 999, 999, 3, 23, 103, 154, 70, 131, 98, 88, 1, 0.582386
261, 2, bw, filler, NA, 999, 999, 3, 23, 103, 154, 70, 131, 98, 88, 2, 0.294197
261, 2, bw, attraction, a-b-db, 5, 1, 3, 24, 60, 135, 58, 132, 135, 60, 2, 0.744254
261, 2, bw, attraction, a-b-db, 5, 1, 3, 24, 60, 135, 58, 132, 135, 60, 1, 0.409172
261, 2, bw, attraction, a-b-da, 2, 1, 3, 25, 60, 135, 135, 60, 134, 59, 2, 0.550273
261, 2, bw, attraction, a-b-da, 2, 1, 3, 25, 60, 135, 135, 60, 134, 59, 3, 0.631405
261, 2, bw, attraction, a-b-db, 2, 2, 3, 26, 90, 165, 89, 163, 165, 90, 1, 1.1718
261, 2, bw, attraction, a-b-db, 2, 2, 3, 26, 90, 165, 89, 163, 165, 90, 3, 0.371465
261, 2, bw, attraction, a-b-db, 2, 3, 3, 27, 120, 195, 119, 193, 195, 120, 1, 0.586591
261, 2, bw, attraction, a-b-db, 2, 3, 3, 27, 120, 195, 119, 193, 195, 120, 3, 0.330552
261, 2, bw, attraction, a-b-db, 2, 1, 3, 28, 59, 134, 60, 135, 135, 60, 1, 0.875059
261, 2, bw, attraction, a-b-db, 2, 1, 3, 28, 59, 134, 60, 135, 135, 60, 3, 0.547789
261, 2, bw, attraction, a-b-db, 14, 3, 3, 29, 111, 181, 120, 195, 195, 120, 2, 0.83037
261, 2, bw, attraction, a-b-db, 14, 3, 3, 29, 111, 181, 120, 195, 195, 120, 1, 0.99609
261, 2, bw, attraction, a-b-db, 5, 3, 3, 30, 195, 120, 117, 190, 120, 195, 3, 1.76174
261, 2, bw, attraction, a-b-db, 5, 3, 3, 30, 195, 120, 117, 190, 120, 195, 2, 0.961823
261, 2, bw, filler, NA, 999, 999, 3, 31, 102, 177, 80, 58, 163, 147, 3, 0.912885
261, 2, bw, filler, NA, 999, 999, 3, 31, 102, 177, 80, 58, 163, 147, 2, 0.691074
261, 2, bw, attraction, a-b-da, 5, 3, 3, 32, 120, 195, 190, 117, 195, 120, 2, 0.732802
261, 2, bw, attraction, a-b-da, 5, 3, 3, 32, 120, 195, 190, 117, 195, 120, 1, 0.590565
261, 2, bw, attraction, a-b-da, 2, 3, 3, 33, 120, 195, 195, 120, 193, 119, 2, 0.636339
261, 2, bw, attraction, a-b-da, 2, 3, 3, 33, 120, 195, 195, 120, 193, 119, 1, 0.298096
261, 2, bw, filler, NA, 999, 999, 3, 34, 186, 168, 159, 156, 122, 72, 1, 1.41993
261, 2, bw, filler, NA, 999, 999, 3, 34, 186, 168, 159, 156, 122, 72, 3, 0.634146
261, 2, bw, attraction, a-b-da, 14, 3, 3, 35, 181, 111, 195, 120, 120, 195, 3, 0.758648
261, 2, bw, attraction, a-b-da, 14, 3, 3, 35, 181, 111, 195, 120, 120, 195, 2, 1.11099
261, 2, bw, attraction, a-b-da, 14, 1, 3, 36, 60, 135, 125, 56, 135, 60, 1, 1.17597
261, 2, bw, attraction, a-b-da, 14, 1, 3, 36, 60, 135, 125, 56, 135, 60, 2, 1.75967
261, 2, bw, attraction, a-b-db, 9, 2, 3, 37, 165, 90, 86, 157, 90, 165, 2, 1.79023
261, 2, bw, attraction, a-b-db, 9, 2, 3, 37, 165, 90, 86, 157, 90, 165, 1, 1.18901
261, 2, bw, filler, NA, 999, 999, 4, 1, 88, 160, 161, 146, 123, 119, 2, 0.571261
261, 2, bw, filler, NA, 999, 999, 4, 1, 88, 160, 161, 146, 123, 119, 1, 0.603077
261, 2, bw, attraction, a-b-da, 2, 3, 4, 2, 195, 120, 193, 119, 120, 195, 2, 2.56078
261, 2, bw, attraction, a-b-da, 2, 3, 4, 2, 195, 120, 193, 119, 120, 195, 1, 0.424636
261, 2, bw, attraction, a-b-da, 14, 1, 4, 3, 60, 135, 135, 60, 125, 56, 2, 3.12513
261, 2, bw, attraction, a-b-da, 14, 1, 4, 3, 60, 135, 135, 60, 125, 56, 1, 0.470069
261, 2, bw, filler, NA, 999, 999, 4, 4, 117, 68, 70, 117, 111, 187, 3, 1.08922
261, 2, bw, filler, NA, 999, 999, 4, 4, 117, 68, 70, 117, 111, 187, 2, 0.356138
261, 2, bw, filler, NA, 999, 999, 4, 5, 169, 157, 122, 89, 60, 161, 1, 0.531371
261, 2, bw, filler, NA, 999, 999, 4, 5, 169, 157, 122, 89, 60, 161, 2, 0.813162
261, 2, bw, attraction, a-b-db, 5, 3, 4, 6, 117, 190, 195, 120, 120, 195, 1, 0.59416
261, 2, bw, attraction, a-b-db, 5, 3, 4, 6, 117, 190, 195, 120, 120, 195, 2, 0.513287
261, 2, bw, filler, NA, 999, 999, 4, 7, 119, 157, 121, 147, 64, 157, 1, 0.538382
261, 2, bw, filler, NA, 999, 999, 4, 7, 119, 157, 121, 147, 64, 157, 3, 1.27555
261, 2, bw, filler, NA, 999, 999, 4, 8, 124, 75, 177, 191, 169, 73, 2, 0.645664
261, 2, bw, filler, NA, 999, 999, 4, 8, 124, 75, 177, 191, 169, 73, 1, 0.610831
261, 2, bw, attraction, a-b-da, 5, 1, 4, 9, 135, 60, 132, 58, 60, 135, 3, 0.831951
261, 2, bw, attraction, a-b-da, 5, 1, 4, 9, 135, 60, 132, 58, 60, 135, 2, 0.381669
261, 2, bw, attraction, a-b-da, 5, 3, 4, 10, 195, 120, 120, 195, 190, 117, 2, 0.644181
261, 2, bw, attraction, a-b-da, 5, 3, 4, 10, 195, 120, 120, 195, 190, 117, 3, 0.377261
261, 2, bw, filler, NA, 999, 999, 4, 11, 123, 133, 150, 155, 139, 169, 2, 0.391695
261, 2, bw, filler, NA, 999, 999, 4, 11, 123, 133, 150, 155, 139, 169, 3, 0.31904
261, 2, bw, attraction, a-b-db, 2, 1, 4, 12, 59, 134, 135, 60, 60, 135, 2, 0.488081
261, 2, bw, attraction, a-b-db, 2, 1, 4, 12, 59, 134, 135, 60, 60, 135, 1, 0.515219
261, 2, bw, attraction, a-b-db, 9, 3, 4, 13, 114, 186, 120, 195, 195, 120, 2, 0.572454
261, 2, bw, attraction, a-b-db, 9, 3, 4, 13, 114, 186, 120, 195, 195, 120, 3, 0.292135
261, 2, bw, attraction, a-b-da, 5, 2, 4, 14, 90, 165, 161, 88, 165, 90, 1, 0.621921
261, 2, bw, attraction, a-b-da, 5, 2, 4, 14, 90, 165, 161, 88, 165, 90, 2, 0.299704
261, 2, bw, attraction, a-b-db, 14, 3, 4, 15, 120, 195, 111, 181, 195, 120, 2, 0.901597
261, 2, bw, attraction, a-b-db, 14, 3, 4, 15, 120, 195, 111, 181, 195, 120, 3, 0.288641
261, 2, bw, attraction, a-b-db, 9, 1, 4, 16, 57, 129, 135, 60, 60, 135, 2, 0.771069
261, 2, bw, attraction, a-b-db, 9, 1, 4, 16, 57, 129, 135, 60, 60, 135, 1, 0.674959
261, 2, bw, attraction, a-b-db, 5, 1, 4, 17, 58, 132, 60, 135, 135, 60, 2, 0.917263
261, 2, bw, attraction, a-b-db, 5, 1, 4, 17, 58, 132, 60, 135, 135, 60, 1, 0.37564
261, 2, bw, filler, NA, 999, 999, 4, 18, 194, 180, 59, 79, 171, 79, 1, 0.598063
261, 2, bw, filler, NA, 999, 999, 4, 18, 194, 180, 59, 79, 171, 79, 2, 0.357242
261, 2, bw, catch, NA, 999, 999, 4, 19, 125, 130, 117, 78, 160, 155, 3, 0.724438
261, 2, bw, catch, NA, 999, 999, 4, 19, 125, 130, 117, 78, 160, 155, 2, 0.502235
261, 2, bw, attraction, a-b-da, 9, 1, 4, 20, 129, 57, 135, 60, 60, 135, 2, 0.783893
261, 2, bw, attraction, a-b-da, 9, 1, 4, 20, 129, 57, 135, 60, 60, 135, 1, 0.607679
261, 2, bw, attraction, a-b-db, 14, 2, 4, 21, 83, 153, 165, 90, 90, 165, 2, 0.74874
261, 2, bw, attraction, a-b-db, 14, 2, 4, 21, 83, 153, 165, 90, 90, 165, 3, 0.909878
261, 2, bw, attraction, a-b-da, 2, 2, 4, 22, 163, 89, 165, 90, 90, 165, 3, 0.950823
261, 2, bw, attraction, a-b-da, 2, 2, 4, 22, 163, 89, 165, 90, 90, 165, 2, 0.855805
261, 2, bw, attraction, a-b-da, 14, 3, 4, 23, 181, 111, 195, 120, 120, 195, 2, 0.723429
261, 2, bw, attraction, a-b-da, 14, 3, 4, 23, 181, 111, 195, 120, 120, 195, 1, 0.397292
261, 2, bw, catch, NA, 999, 999, 4, 24, 106, 149, 175, 140, 73, 122, 2, 0.635007
261, 2, bw, catch, NA, 999, 999, 4, 24, 106, 149, 175, 140, 73, 122, 3, 0.480892
261, 2, bw, attraction, a-b-da, 9, 2, 4, 25, 90, 165, 157, 86, 165, 90, 3, 0.90729
261, 2, bw, attraction, a-b-da, 9, 2, 4, 25, 90, 165, 157, 86, 165, 90, 1, 0.477653
261, 2, bw, filler, NA, 999, 999, 4, 26, 189, 187, 173, 122, 190, 149, 1, 1.19206
261, 2, bw, filler, NA, 999, 999, 4, 26, 189, 187, 173, 122, 190, 149, 2, 0.399085
261, 2, bw, attraction, a-b-da, 14, 2, 4, 27, 165, 90, 90, 165, 153, 83, 2, 1.42891
261, 2, bw, attraction, a-b-da, 14, 2, 4, 27, 165, 90, 90, 165, 153, 83, 1, 0.394403
261, 2, bw, filler, NA, 999, 999, 4, 28, 118, 141, 72, 141, 62, 59, 2, 0.384195
261, 2, bw, filler, NA, 999, 999, 4, 28, 118, 141, 72, 141, 62, 59, 3, 1.86407
261, 2, bw, attraction, a-b-db, 5, 2, 4, 29, 90, 165, 88, 161, 165, 90, 2, 1.45474
261, 2, bw, attraction, a-b-db, 5, 2, 4, 29, 90, 165, 88, 161, 165, 90, 3, 0.774996
261, 2, bw, attraction, a-b-da, 9, 3, 4, 30, 186, 114, 195, 120, 120, 195, 1, 0.773302
261, 2, bw, attraction, a-b-da, 9, 3, 4, 30, 186, 114, 195, 120, 120, 195, 2, 0.253067
261, 2, bw, catch, NA, 999, 999, 4, 31, 145, 170, 74, 121, 136, 119, 1, 0.440939
261, 2, bw, catch, NA, 999, 999, 4, 31, 145, 170, 74, 121, 136, 119, 2, 0.390074
261, 2, bw, attraction, a-b-da, 2, 1, 4, 32, 135, 60, 60, 135, 134, 59, 1, 0.691887
261, 2, bw, attraction, a-b-da, 2, 1, 4, 32, 135, 60, 60, 135, 134, 59, 2, 0.614938
261, 2, bw, filler, NA, 999, 999, 4, 33, 105, 103, 157, 179, 110, 56, 2, 1.22798
261, 2, bw, filler, NA, 999, 999, 4, 33, 105, 103, 157, 179, 110, 56, 3, 0.617713
261, 2, bw, attraction, a-b-db, 9, 2, 4, 34, 86, 157, 90, 165, 165, 90, 3, 0.862847
261, 2, bw, attraction, a-b-db, 9, 2, 4, 34, 86, 157, 90, 165, 165, 90, 2, 0.739195
261, 2, bw, attraction, a-b-db, 2, 3, 4, 35, 120, 195, 195, 120, 119, 193, 2, 0.723567
261, 2, bw, attraction, a-b-db, 2, 3, 4, 35, 120, 195, 195, 120, 119, 193, 1, 0.269125
261, 2, bw, attraction, a-b-db, 14, 1, 4, 36, 56, 125, 60, 135, 135, 60, 2, 3.57649
261, 2, bw, attraction, a-b-db, 14, 1, 4, 36, 56, 125, 60, 135, 135, 60, 3, 0.719286
261, 2, bw, attraction, a-b-db, 2, 2, 4, 37, 165, 90, 89, 163, 90, 165, 2, 1.41626
261, 2, bw, attraction, a-b-db, 2, 2, 4, 37, 165, 90, 89, 163, 90, 165, 3, 0.454448
261, 2, bw, attraction, a-b-db, 14, 2, 5, 1, 90, 165, 83, 153, 165, 90, 1, 2.34417
261, 2, bw, attraction, a-b-db, 14, 2, 5, 1, 90, 165, 83, 153, 165, 90, 2, 0.424791
261, 2, bw, attraction, a-b-db, 5, 3, 5, 2, 120, 195, 117, 190, 195, 120, 2, 0.797357
261, 2, bw, attraction, a-b-db, 5, 3, 5, 2, 120, 195, 117, 190, 195, 120, 1, 0.300339
261, 2, bw, attraction, a-b-db, 2, 1, 5, 3, 135, 60, 59, 134, 60, 135, 2, 1.00626
261, 2, bw, attraction, a-b-db, 2, 1, 5, 3, 135, 60, 59, 134, 60, 135, 1, 0.748579
261, 2, bw, attraction, a-b-da, 9, 1, 5, 4, 135, 60, 129, 57, 60, 135, 3, 1.6843
261, 2, bw, attraction, a-b-da, 9, 1, 5, 4, 135, 60, 129, 57, 60, 135, 2, 0.503788
261, 2, bw, filler, NA, 999, 999, 5, 5, 166, 150, 124, 175, 181, 173, 3, 1.16956
261, 2, bw, filler, NA, 999, 999, 5, 5, 166, 150, 124, 175, 181, 173, 2, 0.529787
261, 2, bw, filler, NA, 999, 999, 5, 6, 108, 122, 148, 136, 96, 177, 2, 0.546191
261, 2, bw, filler, NA, 999, 999, 5, 6, 108, 122, 148, 136, 96, 177, 1, 1.21131
261, 2, bw, filler, NA, 999, 999, 5, 7, 185, 172, 57, 151, 115, 95, 1, 0.616198
261, 2, bw, filler, NA, 999, 999, 5, 7, 185, 172, 57, 151, 115, 95, 2, 1.39067
261, 2, bw, filler, NA, 999, 999, 5, 8, 159, 167, 147, 99, 153, 145, 1, 0.628217
261, 2, bw, filler, NA, 999, 999, 5, 8, 159, 167, 147, 99, 153, 145, 2, 0.35408
261, 2, bw, attraction, a-b-da, 14, 1, 5, 9, 125, 56, 60, 135, 135, 60, 2, 0.537847
261, 2, bw, attraction, a-b-da, 14, 1, 5, 9, 125, 56, 60, 135, 135, 60, 1, 0.530968
261, 2, bw, catch, NA, 999, 999, 5, 10, 163, 152, 65, 130, 114, 141, 1, 1.02739
261, 2, bw, catch, NA, 999, 999, 5, 10, 163, 152, 65, 130, 114, 141, 2, 0.47313
261, 2, bw, attraction, a-b-da, 5, 1, 5, 11, 135, 60, 132, 58, 60, 135, 2, 0.475448
261, 2, bw, attraction, a-b-da, 5, 1, 5, 11, 135, 60, 132, 58, 60, 135, 1, 0.263264
261, 2, bw, filler, NA, 999, 999, 5, 12, 76, 155, 120, 164, 103, 186, 3, 1.67451
261, 2, bw, filler, NA, 999, 999, 5, 12, 76, 155, 120, 164, 103, 186, 1, 0.381905
261, 2, bw, catch, NA, 999, 999, 5, 13, 110, 145, 190, 125, 66, 129, 2, 0.508353
261, 2, bw, catch, NA, 999, 999, 5, 13, 110, 145, 190, 125, 66, 129, 3, 0.710913
261, 2, bw, attraction, a-b-db, 2, 2, 5, 14, 89, 163, 90, 165, 165, 90, 2, 1.72003
261, 2, bw, attraction, a-b-db, 2, 2, 5, 14, 89, 163, 90, 165, 165, 90, 3, 0.442054
261, 2, bw, filler, NA, 999, 999, 5, 15, 192, 195, 93, 64, 57, 75, 1, 0.485876
261, 2, bw, filler, NA, 999, 999, 5, 15, 192, 195, 93, 64, 57, 75, 3, 0.905892
261, 2, bw, attraction, a-b-db, 2, 3, 5, 16, 195, 120, 119, 193, 120, 195, 2, 0.683368
261, 2, bw, attraction, a-b-db, 2, 3, 5, 16, 195, 120, 119, 193, 120, 195, 1, 0.279045
261, 2, bw, attraction, a-b-db, 9, 2, 5, 17, 86, 157, 90, 165, 165, 90, 3, 1.86568
261, 2, bw, attraction, a-b-db, 9, 2, 5, 17, 86, 157, 90, 165, 165, 90, 2, 0.349683
261, 2, bw, filler, NA, 999, 999, 5, 18, 126, 158, 77, 104, 85, 182, 1, 0.557522
261, 2, bw, filler, NA, 999, 999, 5, 18, 126, 158, 77, 104, 85, 182, 2, 0.374027
261, 2, bw, attraction, a-b-da, 5, 2, 5, 19, 90, 165, 165, 90, 161, 88, 2, 0.492533
261, 2, bw, attraction, a-b-da, 5, 2, 5, 19, 90, 165, 165, 90, 161, 88, 1, 0.791669
261, 2, bw, attraction, a-b-da, 14, 2, 5, 20, 90, 165, 153, 83, 165, 90, 1, 0.837322
261, 2, bw, attraction, a-b-da, 14, 2, 5, 20, 90, 165, 153, 83, 165, 90, 2, 0.434351
261, 2, bw, attraction, a-b-db, 14, 1, 5, 21, 60, 135, 135, 60, 56, 125, 2, 0.694965
261, 2, bw, attraction, a-b-db, 14, 1, 5, 21, 60, 135, 135, 60, 56, 125, 3, 0.305973
261, 2, bw, attraction, a-b-da, 2, 3, 5, 22, 195, 120, 120, 195, 193, 119, 2, 0.467066
261, 2, bw, attraction, a-b-da, 2, 3, 5, 22, 195, 120, 120, 195, 193, 119, 3, 0.287554
261, 2, bw, attraction, a-b-db, 9, 1, 5, 23, 57, 129, 60, 135, 135, 60, 2, 0.530067
261, 2, bw, attraction, a-b-db, 9, 1, 5, 23, 57, 129, 60, 135, 135, 60, 3, 0.587895
261, 2, bw, attraction, a-b-db, 9, 3, 5, 24, 195, 120, 120, 195, 114, 186, 1, 1.07429
261, 2, bw, attraction, a-b-db, 9, 3, 5, 24, 195, 120, 120, 195, 114, 186, 3, 0.933993
261, 2, bw, attraction, a-b-db, 5, 2, 5, 25, 88, 161, 90, 165, 165, 90, 2, 0.790353
261, 2, bw, attraction, a-b-db, 5, 2, 5, 25, 88, 161, 90, 165, 165, 90, 3, 0.389404
261, 2, bw, filler, NA, 999, 999, 5, 26, 102, 191, 61, 70, 116, 184, 1, 0.691199
261, 2, bw, filler, NA, 999, 999, 5, 26, 102, 191, 61, 70, 116, 184, 2, 0.526262
261, 2, bw, attraction, a-b-da, 9, 3, 5, 27, 120, 195, 186, 114, 195, 120, 1, 1.85475
261, 2, bw, attraction, a-b-da, 9, 3, 5, 27, 120, 195, 186, 114, 195, 120, 2, 0.298866
261, 2, bw, attraction, a-b-da, 5, 3, 5, 28, 120, 195, 195, 120, 190, 117, 1, 0.508696
261, 2, bw, attraction, a-b-da, 5, 3, 5, 28, 120, 195, 195, 120, 190, 117, 2, 0.279169
261, 2, bw, attraction, a-b-da, 9, 2, 5, 29, 165, 90, 157, 86, 90, 165, 3, 0.889719
261, 2, bw, attraction, a-b-da, 9, 2, 5, 29, 165, 90, 157, 86, 90, 165, 2, 0.420649
261, 2, bw, filler, NA, 999, 999, 5, 30, 68, 153, 96, 152, 128, 75, 2, 0.593749
261, 2, bw, filler, NA, 999, 999, 5, 30, 68, 153, 96, 152, 128, 75, 1, 0.904938
261, 2, bw, attraction, a-b-db, 5, 1, 5, 31, 135, 60, 58, 132, 60, 135, 1, 0.714598
261, 2, bw, attraction, a-b-db, 5, 1, 5, 31, 135, 60, 58, 132, 60, 135, 3, 0.293032
261, 2, bw, attraction, a-b-db, 14, 3, 5, 32, 195, 120, 120, 195, 111, 181, 2, 0.526851
261, 2, bw, attraction, a-b-db, 14, 3, 5, 32, 195, 120, 120, 195, 111, 181, 1, 0.272796
261, 2, bw, attraction, a-b-da, 2, 1, 5, 33, 135, 60, 60, 135, 134, 59, 1, 0.915105
261, 2, bw, attraction, a-b-da, 2, 1, 5, 33, 135, 60, 60, 135, 134, 59, 2, 0.525502
261, 2, bw, attraction, a-b-da, 2, 2, 5, 34, 163, 89, 90, 165, 165, 90, 2, 0.605907
261, 2, bw, attraction, a-b-da, 2, 2, 5, 34, 163, 89, 90, 165, 165, 90, 1, 0.332566
261, 2, bw, catch, NA, 999, 999, 5, 35, 102, 93, 129, 126, 183, 132, 2, 1.02086
261, 2, bw, catch, NA, 999, 999, 5, 35, 102, 93, 129, 126, 183, 132, 1, 0.874533
261, 2, bw, filler, NA, 999, 999, 5, 36, 151, 108, 115, 143, 94, 158, 2, 0.356955
261, 2, bw, filler, NA, 999, 999, 5, 36, 151, 108, 115, 143, 94, 158, 1, 0.461481
261, 2, bw, attraction, a-b-da, 14, 3, 5, 37, 120, 195, 195, 120, 181, 111, 2, 0.400619
261, 2, bw, attraction, a-b-da, 14, 3, 5, 37, 120, 195, 195, 120, 181, 111, 1, 0.255793
261, 2, bw, filler, NA, 999, 999, 6, 1, 162, 58, 148, 65, 125, 144, 3, 0.635032
261, 2, bw, filler, NA, 999, 999, 6, 1, 162, 58, 148, 65, 125, 144, 1, 0.544678
261, 2, bw, catch, NA, 999, 999, 6, 2, 147, 108, 73, 122, 186, 129, 3, 0.64046
261, 2, bw, catch, NA, 999, 999, 6, 2, 147, 108, 73, 122, 186, 129, 2, 0.429606
261, 2, bw, attraction, a-b-db, 2, 3, 6, 3, 119, 193, 120, 195, 195, 120, 2, 0.586102
261, 2, bw, attraction, a-b-db, 2, 3, 6, 3, 119, 193, 120, 195, 195, 120, 3, 0.281809
261, 2, bw, attraction, a-b-da, 9, 1, 6, 4, 129, 57, 135, 60, 60, 135, 3, 0.500417
261, 2, bw, attraction, a-b-da, 9, 1, 6, 4, 129, 57, 135, 60, 60, 135, 2, 0.319576
261, 2, bw, filler, NA, 999, 999, 6, 5, 132, 189, 64, 174, 159, 65, 1, 0.656744
261, 2, bw, filler, NA, 999, 999, 6, 5, 132, 189, 64, 174, 159, 65, 2, 0.253099
261, 2, bw, attraction, a-b-db, 9, 3, 6, 6, 120, 195, 114, 186, 195, 120, 2, 0.62496
261, 2, bw, attraction, a-b-db, 9, 3, 6, 6, 120, 195, 114, 186, 195, 120, 3, 0.238727
261, 2, bw, filler, NA, 999, 999, 6, 7, 167, 192, 186, 167, 184, 79, 1, 0.555258
261, 2, bw, filler, NA, 999, 999, 6, 7, 167, 192, 186, 167, 184, 79, 3, 0.58797
261, 2, bw, attraction, a-b-da, 5, 3, 6, 8, 190, 117, 195, 120, 120, 195, 2, 0.498171
261, 2, bw, attraction, a-b-da, 5, 3, 6, 8, 190, 117, 195, 120, 120, 195, 3, 0.50136
261, 2, bw, filler, NA, 999, 999, 6, 9, 134, 89, 106, 100, 170, 191, 3, 0.591299
261, 2, bw, filler, NA, 999, 999, 6, 9, 134, 89, 106, 100, 170, 191, 2, 0.334193
261, 2, bw, attraction, a-b-da, 2, 2, 6, 10, 163, 89, 165, 90, 90, 165, 2, 0.750846
261, 2, bw, attraction, a-b-da, 2, 2, 6, 10, 163, 89, 165, 90, 90, 165, 3, 0.479863
261, 2, bw, attraction, a-b-da, 2, 3, 6, 11, 193, 119, 195, 120, 120, 195, 1, 0.842278
261, 2, bw, attraction, a-b-da, 2, 3, 6, 11, 193, 119, 195, 120, 120, 195, 3, 0.591344
261, 2, bw, attraction, a-b-da, 5, 1, 6, 12, 132, 58, 60, 135, 135, 60, 2, 0.509003
261, 2, bw, attraction, a-b-da, 5, 1, 6, 12, 132, 58, 60, 135, 135, 60, 3, 0.567561
261, 2, bw, attraction, a-b-db, 5, 1, 6, 13, 58, 132, 135, 60, 60, 135, 2, 0.718697
261, 2, bw, attraction, a-b-db, 5, 1, 6, 13, 58, 132, 135, 60, 60, 135, 3, 0.43305
261, 2, bw, attraction, a-b-db, 9, 1, 6, 14, 57, 129, 60, 135, 135, 60, 2, 0.341524
261, 2, bw, attraction, a-b-db, 9, 1, 6, 14, 57, 129, 60, 135, 135, 60, 3, 0.486802
261, 2, bw, catch, NA, 999, 999, 6, 15, 124, 131, 192, 123, 78, 117, 1, 0.92118
261, 2, bw, catch, NA, 999, 999, 6, 15, 124, 131, 192, 123, 78, 117, 3, 0.307024
261, 2, bw, attraction, a-b-db, 2, 1, 6, 16, 60, 135, 59, 134, 135, 60, 2, 0.740062
261, 2, bw, attraction, a-b-db, 2, 1, 6, 16, 60, 135, 59, 134, 135, 60, 3, 0.485242
261, 2, bw, attraction, a-b-db, 14, 1, 6, 17, 56, 125, 60, 135, 135, 60, 3, 0.951749
261, 2, bw, attraction, a-b-db, 14, 1, 6, 17, 56, 125, 60, 135, 135, 60, 2, 0.512585
261, 2, bw, attraction, a-b-da, 14, 2, 6, 18, 165, 90, 90, 165, 153, 83, 2, 1.16172
261, 2, bw, attraction, a-b-da, 14, 2, 6, 18, 165, 90, 90, 165, 153, 83, 3, 0.377972
261, 2, bw, attraction, a-b-db, 14, 3, 6, 19, 111, 181, 120, 195, 195, 120, 3, 2.4725
261, 2, bw, attraction, a-b-db, 14, 3, 6, 19, 111, 181, 120, 195, 195, 120, 2, 0.411711
261, 2, bw, attraction, a-b-db, 2, 2, 6, 20, 165, 90, 89, 163, 90, 165, 2, 1.20885
261, 2, bw, attraction, a-b-db, 2, 2, 6, 20, 165, 90, 89, 163, 90, 165, 3, 0.431037
261, 2, bw, filler, NA, 999, 999, 6, 21, 83, 176, 73, 184, 92, 130, 1, 1.56367
261, 2, bw, filler, NA, 999, 999, 6, 21, 83, 176, 73, 184, 92, 130, 3, 0.347738
261, 2, bw, attraction, a-b-da, 9, 3, 6, 22, 195, 120, 120, 195, 186, 114, 2, 0.683546
261, 2, bw, attraction, a-b-da, 9, 3, 6, 22, 195, 120, 120, 195, 186, 114, 1, 0.279286
261, 2, bw, filler, NA, 999, 999, 6, 23, 114, 59, 195, 179, 128, 146, 2, 1.00184
261, 2, bw, filler, NA, 999, 999, 6, 23, 114, 59, 195, 179, 128, 146, 1, 0.752816
261, 2, bw, attraction, a-b-db, 9, 2, 6, 24, 165, 90, 86, 157, 90, 165, 1, 0.696543
261, 2, bw, attraction, a-b-db, 9, 2, 6, 24, 165, 90, 86, 157, 90, 165, 2, 0.411622
261, 2, bw, catch, NA, 999, 999, 6, 25, 166, 149, 114, 141, 130, 65, 1, 0.680841
261, 2, bw, catch, NA, 999, 999, 6, 25, 166, 149, 114, 141, 130, 65, 3, 0.388551
261, 2, bw, filler, NA, 999, 999, 6, 26, 182, 106, 149, 76, 174, 121, 1, 0.915066
261, 2, bw, filler, NA, 999, 999, 6, 26, 182, 106, 149, 76, 174, 121, 2, 0.341366
261, 2, bw, attraction, a-b-db, 14, 2, 6, 27, 90, 165, 165, 90, 83, 153, 1, 0.533168
261, 2, bw, attraction, a-b-db, 14, 2, 6, 27, 90, 165, 165, 90, 83, 153, 2, 0.622973
261, 2, bw, attraction, a-b-da, 9, 2, 6, 28, 90, 165, 165, 90, 157, 86, 1, 0.723533
261, 2, bw, attraction, a-b-da, 9, 2, 6, 28, 90, 165, 165, 90, 157, 86, 2, 0.341278
261, 2, bw, attraction, a-b-da, 2, 1, 6, 29, 134, 59, 135, 60, 60, 135, 1, 1.46105
261, 2, bw, attraction, a-b-da, 2, 1, 6, 29, 134, 59, 135, 60, 60, 135, 2, 0.609167
261, 2, bw, filler, NA, 999, 999, 6, 30, 62, 75, 193, 68, 185, 144, 3, 1.0062
261, 2, bw, filler, NA, 999, 999, 6, 30, 62, 75, 193, 68, 185, 144, 1, 0.508575
261, 2, bw, attraction, a-b-db, 5, 3, 6, 31, 120, 195, 117, 190, 195, 120, 2, 0.477699
261, 2, bw, attraction, a-b-db, 5, 3, 6, 31, 120, 195, 117, 190, 195, 120, 3, 0.425505
261, 2, bw, attraction, a-b-da, 14, 3, 6, 32, 120, 195, 181, 111, 195, 120, 1, 0.478008
261, 2, bw, attraction, a-b-da, 14, 3, 6, 32, 120, 195, 181, 111, 195, 120, 2, 0.241819
261, 2, bw, attraction, a-b-da, 5, 2, 6, 33, 161, 88, 90, 165, 165, 90, 2, 1.19782
261, 2, bw, attraction, a-b-da, 5, 2, 6, 33, 161, 88, 90, 165, 165, 90, 1, 0.612599
261, 2, bw, filler, NA, 999, 999, 6, 34, 103, 136, 145, 177, 166, 107, 2, 0.52174
261, 2, bw, filler, NA, 999, 999, 6, 34, 103, 136, 145, 177, 166, 107, 1, 0.32361
261, 2, bw, filler, NA, 999, 999, 6, 35, 173, 120, 135, 179, 74, 73, 2, 0.539993
261, 2, bw, filler, NA, 999, 999, 6, 35, 173, 120, 135, 179, 74, 73, 3, 0.645179
261, 2, bw, attraction, a-b-da, 14, 1, 6, 36, 135, 60, 125, 56, 60, 135, 3, 0.832908
261, 2, bw, attraction, a-b-da, 14, 1, 6, 36, 135, 60, 125, 56, 60, 135, 2, 0.462737
261, 2, bw, attraction, a-b-db, 5, 2, 6, 37, 90, 165, 88, 161, 165, 90, 2, 1.05781
261, 2, bw, attraction, a-b-db, 5, 2, 6, 37, 90, 165, 88, 161, 165, 90, 3, 0.318076
261, 2, bw, attraction, a-b-da, 9, 2, 7, 1, 90, 165, 165, 90, 157, 86, 2, 1.08714
261, 2, bw, attraction, a-b-da, 9, 2, 7, 1, 90, 165, 165, 90, 157, 86, 3, 0.426933
261, 2, bw, attraction, a-b-da, 9, 1, 7, 2, 135, 60, 60, 135, 129, 57, 1, 0.879405
261, 2, bw, attraction, a-b-da, 9, 1, 7, 2, 135, 60, 60, 135, 129, 57, 2, 1.93107
261, 2, bw, attraction, a-b-da, 2, 1, 7, 3, 134, 59, 135, 60, 60, 135, 2, 2.82713
261, 2, bw, attraction, a-b-da, 2, 1, 7, 3, 134, 59, 135, 60, 60, 135, 1, 0.704207
261, 2, bw, filler, NA, 999, 999, 7, 4, 144, 135, 94, 64, 193, 163, 3, 1.10584
261, 2, bw, filler, NA, 999, 999, 7, 4, 144, 135, 94, 64, 193, 163, 2, 0.372157
261, 2, bw, attraction, a-b-da, 14, 1, 7, 5, 125, 56, 60, 135, 135, 60, 2, 0.699281
261, 2, bw, attraction, a-b-da, 14, 1, 7, 5, 125, 56, 60, 135, 135, 60, 1, 0.646377
261, 2, bw, catch, NA, 999, 999, 7, 6, 190, 125, 73, 122, 164, 91, 1, 0.59424
261, 2, bw, catch, NA, 999, 999, 7, 6, 190, 125, 73, 122, 164, 91, 2, 0.337246
261, 2, bw, attraction, a-b-db, 5, 1, 7, 7, 60, 135, 58, 132, 135, 60, 3, 0.93772
261, 2, bw, attraction, a-b-db, 5, 1, 7, 7, 60, 135, 58, 132, 135, 60, 2, 0.386747
261, 2, bw, filler, NA, 999, 999, 7, 8, 65, 190, 168, 102, 178, 126, 3, 0.825223
261, 2, bw, filler, NA, 999, 999, 7, 8, 65, 190, 168, 102, 178, 126, 2, 0.59096
261, 2, bw, attraction, a-b-db, 2, 1, 7, 9, 135, 60, 60, 135, 59, 134, 2, 1.07667
261, 2, bw, attraction, a-b-db, 2, 1, 7, 9, 135, 60, 60, 135, 59, 134, 3, 0.592431
261, 2, bw, catch, NA, 999, 999, 7, 10, 154, 101, 130, 185, 85, 110, 2, 2.57429
261, 2, bw, catch, NA, 999, 999, 7, 10, 154, 101, 130, 185, 85, 110, 3, 0.445233
261, 2, bw, attraction, a-b-da, 14, 2, 7, 11, 153, 83, 165, 90, 90, 165, 3, 1.06513
261, 2, bw, attraction, a-b-da, 14, 2, 7, 11, 153, 83, 165, 90, 90, 165, 2, 0.5575
261, 2, bw, filler, NA, 999, 999, 7, 12, 194, 65, 112, 61, 110, 114, 3, 0.548472
261, 2, bw, filler, NA, 999, 999, 7, 12, 194, 65, 112, 61, 110, 114, 2, 0.589623
261, 2, bw, attraction, a-b-db, 2, 2, 7, 13, 165, 90, 90, 165, 89, 163, 1, 0.891302
261, 2, bw, attraction, a-b-db, 2, 2, 7, 13, 165, 90, 90, 165, 89, 163, 2, 0.358422
261, 2, bw, attraction, a-b-da, 5, 1, 7, 14, 60, 135, 135, 60, 132, 58, 2, 1.42957
261, 2, bw, attraction, a-b-da, 5, 1, 7, 14, 60, 135, 135, 60, 132, 58, 3, 0.371135
261, 2, bw, filler, NA, 999, 999, 7, 15, 133, 167, 146, 192, 74, 194, 2, 0.738218
261, 2, bw, filler, NA, 999, 999, 7, 15, 133, 167, 146, 192, 74, 194, 3, 0.430303
261, 2, bw, attraction, a-b-db, 5, 2, 7, 16, 90, 165, 88, 161, 165, 90, 2, 1.11181
261, 2, bw, attraction, a-b-db, 5, 2, 7, 16, 90, 165, 88, 161, 165, 90, 3, 0.386142
261, 2, bw, attraction, a-b-da, 2, 2, 7, 17, 165, 90, 90, 165, 163, 89, 1, 1.72856
261, 2, bw, attraction, a-b-da, 2, 2, 7, 17, 165, 90, 90, 165, 163, 89, 2, 0.378024
261, 2, bw, attraction, a-b-da, 9, 3, 7, 18, 186, 114, 120, 195, 195, 120, 2, 0.680464
261, 2, bw, attraction, a-b-da, 9, 3, 7, 18, 186, 114, 120, 195, 195, 120, 3, 0.404255
261, 2, bw, attraction, a-b-db, 9, 1, 7, 19, 60, 135, 135, 60, 57, 129, 3, 0.842098
261, 2, bw, attraction, a-b-db, 9, 1, 7, 19, 60, 135, 135, 60, 57, 129, 2, 0.439232
261, 2, bw, attraction, a-b-da, 2, 3, 7, 20, 120, 195, 195, 120, 193, 119, 2, 0.531593
261, 2, bw, attraction, a-b-da, 2, 3, 7, 20, 120, 195, 195, 120, 193, 119, 3, 0.413444
261, 2, bw, filler, NA, 999, 999, 7, 21, 127, 67, 191, 105, 70, 181, 2, 0.698537
261, 2, bw, filler, NA, 999, 999, 7, 21, 127, 67, 191, 105, 70, 181, 1, 0.357689
261, 2, bw, attraction, a-b-da, 14, 3, 7, 22, 181, 111, 195, 120, 120, 195, 2, 0.484815
261, 2, bw, attraction, a-b-da, 14, 3, 7, 22, 181, 111, 195, 120, 120, 195, 1, 0.320666
261, 2, bw, attraction, a-b-da, 5, 2, 7, 23, 90, 165, 165, 90, 161, 88, 1, 0.929801
261, 2, bw, attraction, a-b-da, 5, 2, 7, 23, 90, 165, 165, 90, 161, 88, 3, 0.419502
261, 2, bw, attraction, a-b-db, 9, 2, 7, 24, 165, 90, 86, 157, 90, 165, 2, 1.01656
261, 2, bw, attraction, a-b-db, 9, 2, 7, 24, 165, 90, 86, 157, 90, 165, 3, 0.647031
261, 2, bw, attraction, a-b-db, 14, 1, 7, 25, 60, 135, 56, 125, 135, 60, 2, 0.786624
261, 2, bw, attraction, a-b-db, 14, 1, 7, 25, 60, 135, 56, 125, 135, 60, 3, 0.386442
261, 2, bw, attraction, a-b-db, 5, 3, 7, 26, 195, 120, 120, 195, 117, 190, 2, 0.536894
261, 2, bw, attraction, a-b-db, 5, 3, 7, 26, 195, 120, 120, 195, 117, 190, 1, 0.30672
261, 2, bw, attraction, a-b-db, 2, 3, 7, 27, 119, 193, 195, 120, 120, 195, 3, 1.05204
261, 2, bw, attraction, a-b-db, 2, 3, 7, 27, 119, 193, 195, 120, 120, 195, 2, 0.592862
261, 2, bw, filler, NA, 999, 999, 7, 28, 183, 146, 160, 101, 90, 184, 1, 0.974578
261, 2, bw, filler, NA, 999, 999, 7, 28, 183, 146, 160, 101, 90, 184, 3, 0.598282
261, 2, bw, filler, NA, 999, 999, 7, 29, 90, 167, 93, 174, 105, 140, 2, 0.500199
261, 2, bw, filler, NA, 999, 999, 7, 29, 90, 167, 93, 174, 105, 140, 3, 0.287364
261, 2, bw, attraction, a-b-db, 9, 3, 7, 30, 120, 195, 114, 186, 195, 120, 1, 1.23365
261, 2, bw, attraction, a-b-db, 9, 3, 7, 30, 120, 195, 114, 186, 195, 120, 3, 0.447293
261, 2, bw, filler, NA, 999, 999, 7, 31, 149, 179, 71, 186, 166, 164, 3, 0.683121
261, 2, bw, filler, NA, 999, 999, 7, 31, 149, 179, 71, 186, 166, 164, 2, 0.409925
261, 2, bw, attraction, a-b-db, 14, 2, 7, 32, 83, 153, 165, 90, 90, 165, 2, 0.603984
261, 2, bw, attraction, a-b-db, 14, 2, 7, 32, 83, 153, 165, 90, 90, 165, 3, 0.258455
261, 2, bw, filler, NA, 999, 999, 7, 33, 82, 87, 109, 163, 97, 97, 2, 0.485602
261, 2, bw, filler, NA, 999, 999, 7, 33, 82, 87, 109, 163, 97, 97, 1, 0.497609
261, 2, bw, attraction, a-b-da, 5, 3, 7, 34, 120, 195, 190, 117, 195, 120, 2, 0.739249
261, 2, bw, attraction, a-b-da, 5, 3, 7, 34, 120, 195, 190, 117, 195, 120, 1, 0.22831
261, 2, bw, attraction, a-b-db, 14, 3, 7, 35, 195, 120, 111, 181, 120, 195, 1, 0.856856
261, 2, bw, attraction, a-b-db, 14, 3, 7, 35, 195, 120, 111, 181, 120, 195, 2, 0.229378
261, 2, bw, catch, NA, 999, 999, 7, 36, 138, 177, 115, 140, 102, 93, 1, 0.68184
261, 2, bw, catch, NA, 999, 999, 7, 36, 138, 177, 115, 140, 102, 93, 3, 0.541532
261, 2, bw, filler, NA, 999, 999, 7, 37, 65, 151, 179, 162, 126, 135, 2, 0.869415
261, 2, bw, filler, NA, 999, 999, 7, 37, 65, 151, 179, 162, 126, 135, 1, 0.297657
261, 2, bw, attraction, a-b-da, 9, 1, 8, 1, 60, 135, 135, 60, 129, 57, 2, 0.859491
261, 2, bw, attraction, a-b-da, 9, 1, 8, 1, 60, 135, 135, 60, 129, 57, 3, 0.255862
261, 2, bw, attraction, a-b-db, 5, 2, 8, 2, 88, 161, 90, 165, 165, 90, 2, 0.995114
261, 2, bw, attraction, a-b-db, 5, 2, 8, 2, 88, 161, 90, 165, 165, 90, 3, 0.338135
261, 2, bw, attraction, a-b-db, 9, 3, 8, 3, 114, 186, 195, 120, 120, 195, 3, 0.818582
261, 2, bw, attraction, a-b-db, 9, 3, 8, 3, 114, 186, 195, 120, 120, 195, 2, 0.345036
261, 2, bw, attraction, a-b-db, 2, 3, 8, 4, 120, 195, 195, 120, 119, 193, 3, 0.768757
261, 2, bw, attraction, a-b-db, 2, 3, 8, 4, 120, 195, 195, 120, 119, 193, 2, 0.273178
261, 2, bw, filler, NA, 999, 999, 8, 5, 107, 61, 144, 84, 92, 166, 2, 1.32367
261, 2, bw, filler, NA, 999, 999, 8, 5, 107, 61, 144, 84, 92, 166, 1, 0.2774
261, 2, bw, attraction, a-b-da, 2, 1, 8, 6, 60, 135, 134, 59, 135, 60, 2, 0.57583
261, 2, bw, attraction, a-b-da, 2, 1, 8, 6, 60, 135, 134, 59, 135, 60, 3, 0.279646
261, 2, bw, filler, NA, 999, 999, 8, 7, 101, 86, 124, 81, 108, 93, 2, 0.474089
261, 2, bw, filler, NA, 999, 999, 8, 7, 101, 86, 124, 81, 108, 93, 3, 0.245962
261, 2, bw, filler, NA, 999, 999, 8, 8, 159, 140, 119, 154, 181, 114, 2, 0.47386
261, 2, bw, filler, NA, 999, 999, 8, 8, 159, 140, 119, 154, 181, 114, 1, 0.709651
261, 2, bw, attraction, a-b-db, 5, 3, 8, 9, 120, 195, 117, 190, 195, 120, 2, 0.870741
261, 2, bw, attraction, a-b-db, 5, 3, 8, 9, 120, 195, 117, 190, 195, 120, 3, 0.186555
261, 2, bw, attraction, a-b-db, 9, 1, 8, 10, 57, 129, 60, 135, 135, 60, 2, 0.640976
261, 2, bw, attraction, a-b-db, 9, 1, 8, 10, 57, 129, 60, 135, 135, 60, 3, 0.230044
261, 2, bw, attraction, a-b-db, 5, 1, 8, 11, 135, 60, 60, 135, 58, 132, 1, 1.05068
261, 2, bw, attraction, a-b-db, 5, 1, 8, 11, 135, 60, 60, 135, 58, 132, 2, 0.255632
261, 2, bw, attraction, a-b-da, 5, 1, 8, 12, 135, 60, 132, 58, 60, 135, 3, 0.651407
261, 2, bw, attraction, a-b-da, 5, 1, 8, 12, 135, 60, 132, 58, 60, 135, 2, 0.312569
261, 2, bw, attraction, a-b-db, 14, 2, 8, 13, 165, 90, 90, 165, 83, 153, 2, 0.881696
261, 2, bw, attraction, a-b-db, 14, 2, 8, 13, 165, 90, 90, 165, 83, 153, 3, 0.669374
261, 2, bw, attraction, a-b-da, 9, 2, 8, 14, 90, 165, 157, 86, 165, 90, 2, 0.480508
261, 2, bw, attraction, a-b-da, 9, 2, 8, 14, 90, 165, 157, 86, 165, 90, 1, 0.524287
261, 2, bw, attraction, a-b-db, 2, 1, 8, 15, 135, 60, 59, 134, 60, 135, 1, 0.780865
261, 2, bw, attraction, a-b-db, 2, 1, 8, 15, 135, 60, 59, 134, 60, 135, 2, 0.436417
261, 2, bw, filler, NA, 999, 999, 8, 16, 165, 63, 145, 166, 180, 103, 2, 0.520945
261, 2, bw, filler, NA, 999, 999, 8, 16, 165, 63, 145, 166, 180, 103, 3, 0.266726
261, 2, bw, attraction, a-b-db, 14, 3, 8, 17, 120, 195, 111, 181, 195, 120, 2, 0.685943
261, 2, bw, attraction, a-b-db, 14, 3, 8, 17, 120, 195, 111, 181, 195, 120, 3, 0.497708
261, 2, bw, attraction, a-b-da, 14, 1, 8, 18, 60, 135, 135, 60, 125, 56, 2, 0.627477
261, 2, bw, attraction, a-b-da, 14, 1, 8, 18, 60, 135, 135, 60, 125, 56, 3, 0.337265
261, 2, bw, attraction, a-b-db, 14, 1, 8, 19, 135, 60, 60, 135, 56, 125, 2, 0.473914
261, 2, bw, attraction, a-b-db, 14, 1, 8, 19, 135, 60, 60, 135, 56, 125, 3, 0.309605
261, 2, bw, filler, NA, 999, 999, 8, 20, 65, 127, 168, 134, 83, 64, 2, 0.542744
261, 2, bw, filler, NA, 999, 999, 8, 20, 65, 127, 168, 134, 83, 64, 3, 0.399912
261, 2, bw, attraction, a-b-da, 14, 2, 8, 21, 165, 90, 153, 83, 90, 165, 1, 0.733722
261, 2, bw, attraction, a-b-da, 14, 2, 8, 21, 165, 90, 153, 83, 90, 165, 3, 0.287436
261, 2, bw, filler, NA, 999, 999, 8, 22, 66, 144, 99, 141, 106, 145, 2, 0.753936
261, 2, bw, filler, NA, 999, 999, 8, 22, 66, 144, 99, 141, 106, 145, 1, 0.282332
261, 2, bw, attraction, a-b-da, 5, 2, 8, 23, 165, 90, 90, 165, 161, 88, 2, 1.189
261, 2, bw, attraction, a-b-da, 5, 2, 8, 23, 165, 90, 90, 165, 161, 88, 3, 0.347879
261, 2, bw, catch, NA, 999, 999, 8, 24, 136, 119, 90, 105, 187, 128, 3, 0.819664
261, 2, bw, catch, NA, 999, 999, 8, 24, 136, 119, 90, 105, 187, 128, 2, 0.361993
261, 2, bw, filler, NA, 999, 999, 8, 25, 181, 152, 141, 143, 173, 121, 2, 0.609225
261, 2, bw, filler, NA, 999, 999, 8, 25, 181, 152, 141, 143, 173, 121, 3, 0.431628
261, 2, bw, attraction, a-b-da, 14, 3, 8, 26, 181, 111, 120, 195, 195, 120, 2, 0.53208
261, 2, bw, attraction, a-b-da, 14, 3, 8, 26, 181, 111, 120, 195, 195, 120, 3, 0.269898
261, 2, bw, attraction, a-b-da, 9, 3, 8, 27, 195, 120, 120, 195, 186, 114, 2, 0.825123
261, 2, bw, attraction, a-b-da, 9, 3, 8, 27, 195, 120, 120, 195, 186, 114, 1, 0.342831
261, 2, bw, attraction, a-b-da, 5, 3, 8, 28, 190, 117, 120, 195, 195, 120, 2, 0.486678
261, 2, bw, attraction, a-b-da, 5, 3, 8, 28, 190, 117, 120, 195, 195, 120, 1, 0.233833
261, 2, bw, catch, NA, 999, 999, 8, 29, 102, 153, 113, 82, 124, 191, 3, 0.622421
261, 2, bw, catch, NA, 999, 999, 8, 29, 102, 153, 113, 82, 124, 191, 2, 0.596185
261, 2, bw, attraction, a-b-db, 9, 2, 8, 30, 165, 90, 86, 157, 90, 165, 3, 1.28701
261, 2, bw, attraction, a-b-db, 9, 2, 8, 30, 165, 90, 86, 157, 90, 165, 1, 0.652819
261, 2, bw, attraction, a-b-da, 2, 2, 8, 31, 90, 165, 163, 89, 165, 90, 2, 1.00849
261, 2, bw, attraction, a-b-da, 2, 2, 8, 31, 90, 165, 163, 89, 165, 90, 3, 0.358894
261, 2, bw, attraction, a-b-da, 2, 3, 8, 32, 120, 195, 193, 119, 195, 120, 2, 0.606003
261, 2, bw, attraction, a-b-da, 2, 3, 8, 32, 120, 195, 193, 119, 195, 120, 1, 1.1965
261, 2, bw, filler, NA, 999, 999, 8, 33, 186, 105, 66, 116, 193, 82, 1, 0.749231
261, 2, bw, filler, NA, 999, 999, 8, 33, 186, 105, 66, 116, 193, 82, 2, 0.891156
261, 2, bw, catch, NA, 999, 999, 8, 34, 172, 143, 116, 139, 79, 116, 1, 0.748757
261, 2, bw, catch, NA, 999, 999, 8, 34, 172, 143, 116, 139, 79, 116, 3, 0.309892
261, 2, bw, attraction, a-b-db, 2, 2, 8, 35, 165, 90, 90, 165, 89, 163, 2, 0.863042
261, 2, bw, attraction, a-b-db, 2, 2, 8, 35, 165, 90, 90, 165, 89, 163, 3, 0.347498
261, 2, bw, filler, NA, 999, 999, 8, 36, 147, 112, 167, 178, 100, 57, 2, 0.723262
261, 2, bw, filler, NA, 999, 999, 8, 36, 147, 112, 167, 178, 100, 57, 3, 0.373011
261, 2, bw, filler, NA, 999, 999, 8, 37, 145, 113, 108, 119, 58, 192, 1, 0.58761
261, 2, bw, filler, NA, 999, 999, 8, 37, 145, 113, 108, 119, 58, 192, 3, 0.466635
