sub_n, computer_n, bw_cond, effect, set, distance, diag, block_n, trial_n, h1, w1, h2, w2, h3, w3, choice, rt 
267, 2, bw, practice, NA, 999, 999, 0, 1, 77, 79, 66, 174, 72, 129, 2, 24.3199
267, 2, bw, practice, NA, 999, 999, 0, 1, 77, 79, 66, 174, 72, 129, 1, 4.92212
267, 2, bw, practice, NA, 999, 999, 0, 2, 151, 109, 156, 179, 142, 166, 2, 4.55706
267, 2, bw, practice, NA, 999, 999, 0, 2, 151, 109, 156, 179, 142, 166, 1, 2.26115
267, 2, bw, practice, NA, 999, 999, 0, 3, 84, 127, 100, 147, 142, 166, 3, 2.27779
267, 2, bw, practice, NA, 999, 999, 0, 3, 84, 127, 100, 147, 142, 166, 1, 2.19227
267, 2, bw, attraction, a-b-da, 9, 2, 1, 1, 157, 86, 165, 90, 90, 165, 3, 9.4698
267, 2, bw, attraction, a-b-da, 9, 2, 1, 1, 157, 86, 165, 90, 90, 165, 1, 5.48751
267, 2, bw, attraction, a-b-db, 5, 3, 1, 2, 117, 190, 195, 120, 120, 195, 3, 17.9925
267, 2, bw, attraction, a-b-db, 5, 3, 1, 2, 117, 190, 195, 120, 120, 195, 1, 1.2747
267, 2, bw, filler, NA, 999, 999, 1, 3, 115, 120, 114, 62, 109, 74, 1, 2.64489
267, 2, bw, filler, NA, 999, 999, 1, 3, 115, 120, 114, 62, 109, 74, 2, 3.41734
267, 2, bw, attraction, a-b-db, 2, 2, 1, 4, 89, 163, 165, 90, 90, 165, 3, 8.86164
267, 2, bw, attraction, a-b-db, 2, 2, 1, 4, 89, 163, 165, 90, 90, 165, 1, 2.15153
267, 2, bw, attraction, a-b-db, 2, 3, 1, 5, 120, 195, 119, 193, 195, 120, 1, 9.12671
267, 2, bw, attraction, a-b-db, 2, 3, 1, 5, 120, 195, 119, 193, 195, 120, 3, 2.42998
267, 2, bw, attraction, a-b-da, 14, 3, 1, 6, 181, 111, 120, 195, 195, 120, 3, 3.06575
267, 2, bw, attraction, a-b-da, 14, 3, 1, 6, 181, 111, 120, 195, 195, 120, 1, 0.821569
267, 2, bw, attraction, a-b-da, 2, 3, 1, 7, 120, 195, 193, 119, 195, 120, 2, 7.35447
267, 2, bw, attraction, a-b-da, 2, 3, 1, 7, 120, 195, 193, 119, 195, 120, 1, 2.27339
267, 2, bw, attraction, a-b-da, 5, 2, 1, 8, 165, 90, 90, 165, 161, 88, 2, 7.5713
267, 2, bw, attraction, a-b-da, 5, 2, 1, 8, 165, 90, 90, 165, 161, 88, 3, 1.6576
267, 2, bw, attraction, a-b-db, 14, 1, 1, 9, 60, 135, 56, 125, 135, 60, 1, 5.70841
267, 2, bw, attraction, a-b-db, 14, 1, 1, 9, 60, 135, 56, 125, 135, 60, 2, 1.1492
267, 2, bw, attraction, a-b-db, 9, 3, 1, 10, 114, 186, 120, 195, 195, 120, 2, 3.02079
267, 2, bw, attraction, a-b-db, 9, 3, 1, 10, 114, 186, 120, 195, 195, 120, 1, 2.64245
267, 2, bw, attraction, a-b-db, 14, 2, 1, 11, 165, 90, 90, 165, 83, 153, 2, 3.73371
267, 2, bw, attraction, a-b-db, 14, 2, 1, 11, 165, 90, 90, 165, 83, 153, 3, 0.846626
267, 2, bw, catch, NA, 999, 999, 1, 12, 136, 119, 80, 115, 182, 133, 3, 1.61012
267, 2, bw, catch, NA, 999, 999, 1, 12, 136, 119, 80, 115, 182, 133, 2, 0.832246
267, 2, bw, attraction, a-b-da, 5, 1, 1, 13, 60, 135, 135, 60, 132, 58, 1, 4.06853
267, 2, bw, attraction, a-b-da, 5, 1, 1, 13, 60, 135, 135, 60, 132, 58, 3, 0.791935
267, 2, bw, filler, NA, 999, 999, 1, 14, 110, 136, 83, 86, 72, 101, 1, 1.3576
267, 2, bw, filler, NA, 999, 999, 1, 14, 110, 136, 83, 86, 72, 101, 3, 4.39782
267, 2, bw, attraction, a-b-da, 9, 3, 1, 15, 186, 114, 120, 195, 195, 120, 2, 4.41862
267, 2, bw, attraction, a-b-da, 9, 3, 1, 15, 186, 114, 120, 195, 195, 120, 1, 0.863708
267, 2, bw, attraction, a-b-db, 5, 1, 1, 16, 58, 132, 135, 60, 60, 135, 3, 7.03471
267, 2, bw, attraction, a-b-db, 5, 1, 1, 16, 58, 132, 135, 60, 60, 135, 1, 1.08647
267, 2, bw, attraction, a-b-da, 14, 2, 1, 17, 90, 165, 165, 90, 153, 83, 1, 3.31271
267, 2, bw, attraction, a-b-da, 14, 2, 1, 17, 90, 165, 165, 90, 153, 83, 3, 0.794383
267, 2, bw, attraction, a-b-da, 2, 1, 1, 18, 135, 60, 60, 135, 134, 59, 2, 3.7841
267, 2, bw, attraction, a-b-da, 2, 1, 1, 18, 135, 60, 60, 135, 134, 59, 3, 3.1668
267, 2, bw, attraction, a-b-da, 2, 2, 1, 19, 90, 165, 163, 89, 165, 90, 1, 3.41321
267, 2, bw, attraction, a-b-da, 2, 2, 1, 19, 90, 165, 163, 89, 165, 90, 2, 5.27463
267, 2, bw, filler, NA, 999, 999, 1, 20, 80, 92, 103, 62, 147, 59, 1, 5.89165
267, 2, bw, filler, NA, 999, 999, 1, 20, 80, 92, 103, 62, 147, 59, 2, 0.789118
267, 2, bw, filler, NA, 999, 999, 1, 21, 171, 102, 91, 109, 91, 67, 1, 2.06739
267, 2, bw, filler, NA, 999, 999, 1, 21, 171, 102, 91, 109, 91, 67, 3, 0.839451
267, 2, bw, filler, NA, 999, 999, 1, 22, 126, 147, 167, 181, 123, 121, 2, 2.8271
267, 2, bw, filler, NA, 999, 999, 1, 22, 126, 147, 167, 181, 123, 121, 3, 0.896252
267, 2, bw, attraction, a-b-db, 9, 1, 1, 23, 135, 60, 57, 129, 60, 135, 3, 5.36201
267, 2, bw, attraction, a-b-db, 9, 1, 1, 23, 135, 60, 57, 129, 60, 135, 2, 0.688868
267, 2, bw, attraction, a-b-da, 14, 1, 1, 24, 135, 60, 125, 56, 60, 135, 3, 2.01922
267, 2, bw, attraction, a-b-da, 14, 1, 1, 24, 135, 60, 125, 56, 60, 135, 2, 0.689218
267, 2, bw, filler, NA, 999, 999, 1, 25, 129, 109, 97, 152, 118, 157, 3, 3.16371
267, 2, bw, filler, NA, 999, 999, 1, 25, 129, 109, 97, 152, 118, 157, 1, 1.54735
267, 2, bw, filler, NA, 999, 999, 1, 26, 77, 83, 192, 65, 160, 90, 3, 13.0267
267, 2, bw, filler, NA, 999, 999, 1, 26, 77, 83, 192, 65, 160, 90, 1, 0.516599
267, 2, bw, catch, NA, 999, 999, 1, 27, 125, 70, 194, 121, 159, 96, 2, 3.22177
267, 2, bw, catch, NA, 999, 999, 1, 27, 125, 70, 194, 121, 159, 96, 1, 0.434764
267, 2, bw, filler, NA, 999, 999, 1, 28, 87, 134, 136, 85, 194, 157, 3, 0.991255
267, 2, bw, filler, NA, 999, 999, 1, 28, 87, 134, 136, 85, 194, 157, 1, 1.28617
267, 2, bw, attraction, a-b-db, 14, 3, 1, 29, 111, 181, 195, 120, 120, 195, 2, 2.27241
267, 2, bw, attraction, a-b-db, 14, 3, 1, 29, 111, 181, 195, 120, 120, 195, 1, 0.547614
267, 2, bw, attraction, a-b-db, 2, 1, 1, 30, 60, 135, 135, 60, 59, 134, 3, 3.68343
267, 2, bw, attraction, a-b-db, 2, 1, 1, 30, 60, 135, 135, 60, 59, 134, 1, 0.678397
267, 2, bw, catch, NA, 999, 999, 1, 31, 118, 137, 118, 77, 148, 167, 3, 1.11269
267, 2, bw, catch, NA, 999, 999, 1, 31, 118, 137, 118, 77, 148, 167, 2, 1.09094
267, 2, bw, filler, NA, 999, 999, 1, 32, 88, 76, 150, 191, 166, 73, 2, 1.90054
267, 2, bw, filler, NA, 999, 999, 1, 32, 88, 76, 150, 191, 166, 73, 1, 0.791288
267, 2, bw, attraction, a-b-db, 5, 2, 1, 33, 90, 165, 88, 161, 165, 90, 3, 4.03697
267, 2, bw, attraction, a-b-db, 5, 2, 1, 33, 90, 165, 88, 161, 165, 90, 1, 1.68966
267, 2, bw, attraction, a-b-da, 9, 1, 1, 34, 135, 60, 60, 135, 129, 57, 2, 3.57113
267, 2, bw, attraction, a-b-da, 9, 1, 1, 34, 135, 60, 60, 135, 129, 57, 3, 1.35395
267, 2, bw, filler, NA, 999, 999, 1, 35, 101, 87, 142, 194, 74, 179, 2, 1.08143
267, 2, bw, filler, NA, 999, 999, 1, 35, 101, 87, 142, 194, 74, 179, 1, 2.6291
267, 2, bw, attraction, a-b-db, 9, 2, 1, 36, 90, 165, 86, 157, 165, 90, 1, 4.5449
267, 2, bw, attraction, a-b-db, 9, 2, 1, 36, 90, 165, 86, 157, 165, 90, 2, 3.58478
267, 2, bw, attraction, a-b-da, 5, 3, 1, 37, 120, 195, 190, 117, 195, 120, 2, 3.61426
267, 2, bw, attraction, a-b-da, 5, 3, 1, 37, 120, 195, 190, 117, 195, 120, 1, 2.60371
267, 2, bw, filler, NA, 999, 999, 2, 1, 189, 77, 62, 195, 171, 186, 3, 1.96095
267, 2, bw, filler, NA, 999, 999, 2, 1, 189, 77, 62, 195, 171, 186, 2, 1.78502
267, 2, bw, attraction, a-b-da, 2, 1, 2, 2, 134, 59, 135, 60, 60, 135, 2, 4.01594
267, 2, bw, attraction, a-b-da, 2, 1, 2, 2, 134, 59, 135, 60, 60, 135, 3, 0.796379
267, 2, bw, attraction, a-b-db, 2, 1, 2, 3, 59, 134, 135, 60, 60, 135, 1, 2.29813
267, 2, bw, attraction, a-b-db, 2, 1, 2, 3, 59, 134, 135, 60, 60, 135, 2, 1.27667
267, 2, bw, attraction, a-b-db, 14, 2, 2, 4, 90, 165, 165, 90, 83, 153, 1, 2.3188
267, 2, bw, attraction, a-b-db, 14, 2, 2, 4, 90, 165, 165, 90, 83, 153, 2, 1.88882
267, 2, bw, filler, NA, 999, 999, 2, 5, 146, 138, 158, 102, 189, 141, 3, 4.47487
267, 2, bw, filler, NA, 999, 999, 2, 5, 146, 138, 158, 102, 189, 141, 2, 0.597292
267, 2, bw, filler, NA, 999, 999, 2, 6, 59, 63, 159, 133, 176, 115, 2, 1.99513
267, 2, bw, filler, NA, 999, 999, 2, 6, 59, 63, 159, 133, 176, 115, 1, 0.945931
267, 2, bw, attraction, a-b-db, 5, 3, 2, 7, 117, 190, 120, 195, 195, 120, 1, 1.56143
267, 2, bw, attraction, a-b-db, 5, 3, 2, 7, 117, 190, 120, 195, 195, 120, 3, 0.497594
267, 2, bw, catch, NA, 999, 999, 2, 8, 101, 154, 94, 101, 130, 185, 3, 1.18744
267, 2, bw, catch, NA, 999, 999, 2, 8, 101, 154, 94, 101, 130, 185, 2, 1.32226
267, 2, bw, attraction, a-b-da, 2, 2, 2, 9, 163, 89, 165, 90, 90, 165, 1, 1.55518
267, 2, bw, attraction, a-b-da, 2, 2, 2, 9, 163, 89, 165, 90, 90, 165, 3, 1.8514
267, 2, bw, filler, NA, 999, 999, 2, 10, 117, 67, 105, 195, 109, 159, 2, 2.42276
267, 2, bw, filler, NA, 999, 999, 2, 10, 117, 67, 105, 195, 109, 159, 1, 0.563932
267, 2, bw, attraction, a-b-db, 5, 2, 2, 11, 165, 90, 90, 165, 88, 161, 2, 1.995
267, 2, bw, attraction, a-b-db, 5, 2, 2, 11, 165, 90, 90, 165, 88, 161, 1, 0.76973
267, 2, bw, filler, NA, 999, 999, 2, 12, 147, 59, 58, 179, 83, 152, 3, 1.64878
267, 2, bw, filler, NA, 999, 999, 2, 12, 147, 59, 58, 179, 83, 152, 2, 1.0456
267, 2, bw, attraction, a-b-db, 9, 3, 2, 13, 114, 186, 195, 120, 120, 195, 3, 1.5852
267, 2, bw, attraction, a-b-db, 9, 3, 2, 13, 114, 186, 195, 120, 120, 195, 1, 2.29668
267, 2, bw, attraction, a-b-da, 14, 1, 2, 14, 135, 60, 60, 135, 125, 56, 1, 1.34586
267, 2, bw, attraction, a-b-da, 14, 1, 2, 14, 135, 60, 60, 135, 125, 56, 3, 1.41067
267, 2, bw, attraction, a-b-db, 14, 3, 2, 15, 111, 181, 120, 195, 195, 120, 2, 1.87154
267, 2, bw, attraction, a-b-db, 14, 3, 2, 15, 111, 181, 120, 195, 195, 120, 3, 0.778945
267, 2, bw, attraction, a-b-db, 14, 1, 2, 16, 135, 60, 60, 135, 56, 125, 1, 1.08934
267, 2, bw, attraction, a-b-db, 14, 1, 2, 16, 135, 60, 60, 135, 56, 125, 3, 0.468275
267, 2, bw, catch, NA, 999, 999, 2, 17, 182, 133, 105, 90, 130, 125, 1, 1.71144
267, 2, bw, catch, NA, 999, 999, 2, 17, 182, 133, 105, 90, 130, 125, 2, 0.505535
267, 2, bw, attraction, a-b-db, 9, 1, 2, 18, 60, 135, 135, 60, 57, 129, 1, 1.07527
267, 2, bw, attraction, a-b-db, 9, 1, 2, 18, 60, 135, 135, 60, 57, 129, 3, 1.81495
267, 2, bw, attraction, a-b-da, 2, 3, 2, 19, 195, 120, 193, 119, 120, 195, 3, 2.03566
267, 2, bw, attraction, a-b-da, 2, 3, 2, 19, 195, 120, 193, 119, 120, 195, 2, 0.768959
267, 2, bw, filler, NA, 999, 999, 2, 20, 97, 90, 105, 92, 176, 129, 3, 1.16004
267, 2, bw, filler, NA, 999, 999, 2, 20, 97, 90, 105, 92, 176, 129, 1, 1.34428
267, 2, bw, attraction, a-b-db, 5, 1, 2, 21, 58, 132, 60, 135, 135, 60, 1, 1.27985
267, 2, bw, attraction, a-b-db, 5, 1, 2, 21, 58, 132, 60, 135, 135, 60, 3, 0.611431
267, 2, bw, attraction, a-b-da, 9, 1, 2, 22, 135, 60, 129, 57, 60, 135, 1, 0.968465
267, 2, bw, attraction, a-b-da, 9, 1, 2, 22, 135, 60, 129, 57, 60, 135, 3, 1.24083
267, 2, bw, attraction, a-b-db, 2, 3, 2, 23, 120, 195, 119, 193, 195, 120, 2, 2.89235
267, 2, bw, attraction, a-b-db, 2, 3, 2, 23, 120, 195, 119, 193, 195, 120, 3, 0.502707
267, 2, bw, attraction, a-b-da, 9, 2, 2, 24, 157, 86, 90, 165, 165, 90, 2, 1.63251
267, 2, bw, attraction, a-b-da, 9, 2, 2, 24, 157, 86, 90, 165, 165, 90, 3, 0.670033
267, 2, bw, attraction, a-b-db, 2, 2, 2, 25, 90, 165, 89, 163, 165, 90, 1, 2.34509
267, 2, bw, attraction, a-b-db, 2, 2, 2, 25, 90, 165, 89, 163, 165, 90, 3, 0.633603
267, 2, bw, attraction, a-b-da, 5, 1, 2, 26, 135, 60, 132, 58, 60, 135, 1, 2.28611
267, 2, bw, attraction, a-b-da, 5, 1, 2, 26, 135, 60, 132, 58, 60, 135, 3, 0.505364
267, 2, bw, attraction, a-b-da, 5, 2, 2, 27, 161, 88, 90, 165, 165, 90, 2, 2.65113
267, 2, bw, attraction, a-b-da, 5, 2, 2, 27, 161, 88, 90, 165, 165, 90, 3, 0.687656
267, 2, bw, attraction, a-b-da, 9, 3, 2, 28, 120, 195, 186, 114, 195, 120, 1, 4.11401
267, 2, bw, attraction, a-b-da, 9, 3, 2, 28, 120, 195, 186, 114, 195, 120, 2, 4.36331
267, 2, bw, attraction, a-b-da, 14, 2, 2, 29, 153, 83, 90, 165, 165, 90, 2, 2.76121
267, 2, bw, attraction, a-b-da, 14, 2, 2, 29, 153, 83, 90, 165, 165, 90, 3, 1.67305
267, 2, bw, attraction, a-b-da, 14, 3, 2, 30, 195, 120, 181, 111, 120, 195, 1, 1.79509
267, 2, bw, attraction, a-b-da, 14, 3, 2, 30, 195, 120, 181, 111, 120, 195, 2, 1.18584
267, 2, bw, filler, NA, 999, 999, 2, 31, 67, 159, 152, 91, 94, 186, 3, 1.12005
267, 2, bw, filler, NA, 999, 999, 2, 31, 67, 159, 152, 91, 94, 186, 1, 0.682515
267, 2, bw, attraction, a-b-db, 9, 2, 2, 32, 86, 157, 165, 90, 90, 165, 3, 1.66876
267, 2, bw, attraction, a-b-db, 9, 2, 2, 32, 86, 157, 165, 90, 90, 165, 2, 0.464854
267, 2, bw, filler, NA, 999, 999, 2, 33, 192, 65, 127, 156, 57, 64, 2, 1.32405
267, 2, bw, filler, NA, 999, 999, 2, 33, 192, 65, 127, 156, 57, 64, 3, 1.1017
267, 2, bw, filler, NA, 999, 999, 2, 34, 165, 68, 149, 90, 166, 180, 3, 0.903238
267, 2, bw, filler, NA, 999, 999, 2, 34, 165, 68, 149, 90, 166, 180, 1, 1.14628
267, 2, bw, catch, NA, 999, 999, 2, 35, 151, 104, 131, 184, 101, 94, 2, 3.36989
267, 2, bw, catch, NA, 999, 999, 2, 35, 151, 104, 131, 184, 101, 94, 3, 0.793482
267, 2, bw, filler, NA, 999, 999, 2, 36, 112, 159, 163, 126, 155, 58, 2, 2.81501
267, 2, bw, filler, NA, 999, 999, 2, 36, 112, 159, 163, 126, 155, 58, 3, 1.75688
267, 2, bw, attraction, a-b-da, 5, 3, 2, 37, 195, 120, 120, 195, 190, 117, 2, 2.55562
267, 2, bw, attraction, a-b-da, 5, 3, 2, 37, 195, 120, 120, 195, 190, 117, 3, 0.715417
267, 2, bw, attraction, a-b-da, 5, 3, 3, 1, 195, 120, 120, 195, 190, 117, 2, 3.73245
267, 2, bw, attraction, a-b-da, 5, 3, 3, 1, 195, 120, 120, 195, 190, 117, 3, 6.15731
267, 2, bw, attraction, a-b-db, 5, 3, 3, 2, 117, 190, 195, 120, 120, 195, 3, 1.35529
267, 2, bw, attraction, a-b-db, 5, 3, 3, 2, 117, 190, 195, 120, 120, 195, 2, 1.32353
267, 2, bw, attraction, a-b-da, 9, 1, 3, 3, 135, 60, 60, 135, 129, 57, 1, 1.05166
267, 2, bw, attraction, a-b-da, 9, 1, 3, 3, 135, 60, 60, 135, 129, 57, 3, 2.88069
267, 2, bw, attraction, a-b-db, 14, 2, 3, 4, 165, 90, 83, 153, 90, 165, 1, 1.6824
267, 2, bw, attraction, a-b-db, 14, 2, 3, 4, 165, 90, 83, 153, 90, 165, 2, 2.23778
267, 2, bw, attraction, a-b-da, 5, 2, 3, 5, 161, 88, 165, 90, 90, 165, 3, 1.94566
267, 2, bw, attraction, a-b-da, 5, 2, 3, 5, 161, 88, 165, 90, 90, 165, 1, 0.890409
267, 2, bw, attraction, a-b-db, 14, 1, 3, 6, 56, 125, 60, 135, 135, 60, 2, 2.62811
267, 2, bw, attraction, a-b-db, 14, 1, 3, 6, 56, 125, 60, 135, 135, 60, 1, 1.31329
267, 2, bw, attraction, a-b-db, 14, 3, 3, 7, 195, 120, 111, 181, 120, 195, 3, 1.07421
267, 2, bw, attraction, a-b-db, 14, 3, 3, 7, 195, 120, 111, 181, 120, 195, 2, 2.6778
267, 2, bw, attraction, a-b-da, 9, 2, 3, 8, 165, 90, 157, 86, 90, 165, 3, 1.87155
267, 2, bw, attraction, a-b-da, 9, 2, 3, 8, 165, 90, 157, 86, 90, 165, 2, 0.562903
267, 2, bw, filler, NA, 999, 999, 3, 9, 143, 105, 148, 108, 137, 151, 3, 2.62598
267, 2, bw, filler, NA, 999, 999, 3, 9, 143, 105, 148, 108, 137, 151, 2, 1.07113
267, 2, bw, filler, NA, 999, 999, 3, 10, 135, 67, 106, 108, 98, 102, 2, 3.01012
267, 2, bw, filler, NA, 999, 999, 3, 10, 135, 67, 106, 108, 98, 102, 1, 0.71176
267, 2, bw, catch, NA, 999, 999, 3, 11, 151, 164, 106, 89, 149, 106, 1, 3.08085
267, 2, bw, catch, NA, 999, 999, 3, 11, 151, 164, 106, 89, 149, 106, 2, 1.04386
267, 2, bw, attraction, a-b-da, 2, 3, 3, 12, 193, 119, 195, 120, 120, 195, 1, 2.38342
267, 2, bw, attraction, a-b-da, 2, 3, 3, 12, 193, 119, 195, 120, 120, 195, 3, 0.750702
267, 2, bw, attraction, a-b-db, 5, 2, 3, 13, 165, 90, 88, 161, 90, 165, 1, 1.56653
267, 2, bw, attraction, a-b-db, 5, 2, 3, 13, 165, 90, 88, 161, 90, 165, 3, 2.67866
267, 2, bw, attraction, a-b-da, 2, 2, 3, 14, 165, 90, 163, 89, 90, 165, 3, 2.32826
267, 2, bw, attraction, a-b-da, 2, 2, 3, 14, 165, 90, 163, 89, 90, 165, 2, 0.665619
267, 2, bw, catch, NA, 999, 999, 3, 15, 132, 63, 130, 125, 125, 190, 3, 1.5727
267, 2, bw, catch, NA, 999, 999, 3, 15, 132, 63, 130, 125, 125, 190, 1, 0.59627
267, 2, bw, attraction, a-b-db, 2, 1, 3, 16, 60, 135, 59, 134, 135, 60, 1, 1.0659
267, 2, bw, attraction, a-b-db, 2, 1, 3, 16, 60, 135, 59, 134, 135, 60, 3, 0.574244
267, 2, bw, attraction, a-b-db, 9, 1, 3, 17, 57, 129, 60, 135, 135, 60, 2, 1.33262
267, 2, bw, attraction, a-b-db, 9, 1, 3, 17, 57, 129, 60, 135, 135, 60, 3, 0.50223
267, 2, bw, attraction, a-b-da, 14, 1, 3, 18, 60, 135, 135, 60, 125, 56, 2, 2.75993
267, 2, bw, attraction, a-b-da, 14, 1, 3, 18, 60, 135, 135, 60, 125, 56, 3, 0.567796
267, 2, bw, attraction, a-b-da, 14, 3, 3, 19, 195, 120, 181, 111, 120, 195, 3, 1.89486
267, 2, bw, attraction, a-b-da, 14, 3, 3, 19, 195, 120, 181, 111, 120, 195, 2, 0.601694
267, 2, bw, catch, NA, 999, 999, 3, 20, 151, 164, 141, 114, 67, 128, 1, 0.727298
267, 2, bw, catch, NA, 999, 999, 3, 20, 151, 164, 141, 114, 67, 128, 3, 0.601067
267, 2, bw, attraction, a-b-da, 9, 3, 3, 21, 186, 114, 195, 120, 120, 195, 3, 4.92685
267, 2, bw, attraction, a-b-da, 9, 3, 3, 21, 186, 114, 195, 120, 120, 195, 1, 0.799377
267, 2, bw, filler, NA, 999, 999, 3, 22, 162, 184, 148, 160, 182, 160, 3, 0.92497
267, 2, bw, filler, NA, 999, 999, 3, 22, 162, 184, 148, 160, 182, 160, 2, 1.99054
267, 2, bw, filler, NA, 999, 999, 3, 23, 150, 159, 109, 165, 103, 106, 1, 1.50787
267, 2, bw, filler, NA, 999, 999, 3, 23, 150, 159, 109, 165, 103, 106, 3, 0.750079
267, 2, bw, attraction, a-b-db, 2, 3, 3, 24, 119, 193, 195, 120, 120, 195, 3, 1.0858
267, 2, bw, attraction, a-b-db, 2, 3, 3, 24, 119, 193, 195, 120, 120, 195, 2, 0.585462
267, 2, bw, attraction, a-b-db, 5, 1, 3, 25, 135, 60, 60, 135, 58, 132, 1, 0.999868
267, 2, bw, attraction, a-b-db, 5, 1, 3, 25, 135, 60, 60, 135, 58, 132, 3, 0.846894
267, 2, bw, filler, NA, 999, 999, 3, 26, 145, 158, 85, 76, 181, 68, 1, 0.634541
267, 2, bw, filler, NA, 999, 999, 3, 26, 145, 158, 85, 76, 181, 68, 2, 1.70434
267, 2, bw, attraction, a-b-da, 5, 1, 3, 27, 135, 60, 60, 135, 132, 58, 1, 1.36971
267, 2, bw, attraction, a-b-da, 5, 1, 3, 27, 135, 60, 60, 135, 132, 58, 3, 0.705881
267, 2, bw, filler, NA, 999, 999, 3, 28, 80, 72, 112, 84, 83, 162, 3, 0.971726
267, 2, bw, filler, NA, 999, 999, 3, 28, 80, 72, 112, 84, 83, 162, 1, 0.515269
267, 2, bw, attraction, a-b-db, 2, 2, 3, 29, 165, 90, 89, 163, 90, 165, 3, 1.38839
267, 2, bw, attraction, a-b-db, 2, 2, 3, 29, 165, 90, 89, 163, 90, 165, 1, 0.61124
267, 2, bw, filler, NA, 999, 999, 3, 30, 58, 159, 104, 115, 109, 103, 2, 1.96039
267, 2, bw, filler, NA, 999, 999, 3, 30, 58, 159, 104, 115, 109, 103, 1, 0.515089
267, 2, bw, filler, NA, 999, 999, 3, 31, 172, 134, 75, 159, 76, 137, 1, 1.25752
267, 2, bw, filler, NA, 999, 999, 3, 31, 172, 134, 75, 159, 76, 137, 3, 1.00581
267, 2, bw, attraction, a-b-da, 14, 2, 3, 32, 90, 165, 153, 83, 165, 90, 3, 1.17142
267, 2, bw, attraction, a-b-da, 14, 2, 3, 32, 90, 165, 153, 83, 165, 90, 2, 1.23498
267, 2, bw, attraction, a-b-db, 9, 3, 3, 33, 120, 195, 114, 186, 195, 120, 1, 1.89529
267, 2, bw, attraction, a-b-db, 9, 3, 3, 33, 120, 195, 114, 186, 195, 120, 3, 0.601972
267, 2, bw, filler, NA, 999, 999, 3, 34, 188, 147, 141, 74, 74, 67, 1, 0.759633
267, 2, bw, filler, NA, 999, 999, 3, 34, 188, 147, 141, 74, 74, 67, 3, 0.528118
267, 2, bw, attraction, a-b-db, 9, 2, 3, 35, 165, 90, 86, 157, 90, 165, 2, 2.76856
267, 2, bw, attraction, a-b-db, 9, 2, 3, 35, 165, 90, 86, 157, 90, 165, 1, 0.552322
267, 2, bw, filler, NA, 999, 999, 3, 36, 120, 136, 155, 106, 153, 128, 3, 1.87209
267, 2, bw, filler, NA, 999, 999, 3, 36, 120, 136, 155, 106, 153, 128, 1, 4.73146
267, 2, bw, attraction, a-b-da, 2, 1, 3, 37, 60, 135, 135, 60, 134, 59, 1, 5.37866
267, 2, bw, attraction, a-b-da, 2, 1, 3, 37, 60, 135, 135, 60, 134, 59, 3, 0.496927
267, 2, bw, attraction, a-b-da, 2, 3, 4, 1, 120, 195, 195, 120, 193, 119, 1, 1.45068
267, 2, bw, attraction, a-b-da, 2, 3, 4, 1, 120, 195, 195, 120, 193, 119, 3, 1.15962
267, 2, bw, attraction, a-b-da, 14, 3, 4, 2, 120, 195, 181, 111, 195, 120, 3, 1.40647
267, 2, bw, attraction, a-b-da, 14, 3, 4, 2, 120, 195, 181, 111, 195, 120, 2, 0.756651
267, 2, bw, attraction, a-b-da, 9, 1, 4, 3, 135, 60, 60, 135, 129, 57, 2, 1.54763
267, 2, bw, attraction, a-b-da, 9, 1, 4, 3, 135, 60, 60, 135, 129, 57, 3, 1.02049
267, 2, bw, attraction, a-b-da, 2, 1, 4, 4, 134, 59, 135, 60, 60, 135, 3, 2.34548
267, 2, bw, attraction, a-b-da, 2, 1, 4, 4, 134, 59, 135, 60, 60, 135, 2, 0.409972
267, 2, bw, attraction, a-b-db, 9, 3, 4, 5, 120, 195, 114, 186, 195, 120, 3, 2.55113
267, 2, bw, attraction, a-b-db, 9, 3, 4, 5, 120, 195, 114, 186, 195, 120, 2, 0.951779
267, 2, bw, attraction, a-b-db, 9, 1, 4, 6, 135, 60, 57, 129, 60, 135, 1, 4.8794
267, 2, bw, attraction, a-b-db, 9, 1, 4, 6, 135, 60, 57, 129, 60, 135, 2, 0.593833
267, 2, bw, filler, NA, 999, 999, 4, 7, 158, 186, 122, 82, 61, 168, 1, 1.05549
267, 2, bw, filler, NA, 999, 999, 4, 7, 158, 186, 122, 82, 61, 168, 3, 3.86782
267, 2, bw, attraction, a-b-db, 9, 2, 4, 8, 86, 157, 165, 90, 90, 165, 3, 1.38987
267, 2, bw, attraction, a-b-db, 9, 2, 4, 8, 86, 157, 165, 90, 90, 165, 1, 1.39674
267, 2, bw, attraction, a-b-da, 5, 1, 4, 9, 135, 60, 60, 135, 132, 58, 2, 1.29031
267, 2, bw, attraction, a-b-da, 5, 1, 4, 9, 135, 60, 60, 135, 132, 58, 3, 0.501199
267, 2, bw, attraction, a-b-db, 14, 2, 4, 10, 90, 165, 83, 153, 165, 90, 1, 1.80695
267, 2, bw, attraction, a-b-db, 14, 2, 4, 10, 90, 165, 83, 153, 165, 90, 3, 0.861167
267, 2, bw, filler, NA, 999, 999, 4, 11, 90, 184, 130, 61, 63, 156, 1, 0.831978
267, 2, bw, filler, NA, 999, 999, 4, 11, 90, 184, 130, 61, 63, 156, 2, 1.01381
267, 2, bw, catch, NA, 999, 999, 4, 12, 191, 124, 115, 140, 64, 131, 1, 0.962693
267, 2, bw, catch, NA, 999, 999, 4, 12, 191, 124, 115, 140, 64, 131, 3, 0.675077
267, 2, bw, attraction, a-b-da, 14, 1, 4, 13, 60, 135, 125, 56, 135, 60, 1, 1.9254
267, 2, bw, attraction, a-b-da, 14, 1, 4, 13, 60, 135, 125, 56, 135, 60, 3, 0.886894
267, 2, bw, catch, NA, 999, 999, 4, 14, 186, 129, 149, 106, 112, 83, 1, 0.729142
267, 2, bw, catch, NA, 999, 999, 4, 14, 186, 129, 149, 106, 112, 83, 3, 0.683084
267, 2, bw, attraction, a-b-db, 14, 3, 4, 15, 195, 120, 120, 195, 111, 181, 1, 1.89334
267, 2, bw, attraction, a-b-db, 14, 3, 4, 15, 195, 120, 120, 195, 111, 181, 3, 0.552007
267, 2, bw, filler, NA, 999, 999, 4, 16, 178, 171, 166, 139, 175, 108, 1, 0.80781
267, 2, bw, filler, NA, 999, 999, 4, 16, 178, 171, 166, 139, 175, 108, 3, 1.48622
267, 2, bw, attraction, a-b-da, 14, 2, 4, 17, 153, 83, 165, 90, 90, 165, 2, 1.21631
267, 2, bw, attraction, a-b-da, 14, 2, 4, 17, 153, 83, 165, 90, 90, 165, 1, 0.710698
267, 2, bw, filler, NA, 999, 999, 4, 18, 187, 134, 190, 167, 184, 152, 2, 1.26374
267, 2, bw, filler, NA, 999, 999, 4, 18, 187, 134, 190, 167, 184, 152, 1, 0.787901
267, 2, bw, attraction, a-b-db, 2, 3, 4, 19, 195, 120, 120, 195, 119, 193, 2, 1.82628
267, 2, bw, attraction, a-b-db, 2, 3, 4, 19, 195, 120, 120, 195, 119, 193, 1, 1.30381
267, 2, bw, filler, NA, 999, 999, 4, 20, 132, 122, 79, 131, 171, 120, 3, 1.84921
267, 2, bw, filler, NA, 999, 999, 4, 20, 132, 122, 79, 131, 171, 120, 2, 0.397898
267, 2, bw, attraction, a-b-da, 5, 3, 4, 21, 195, 120, 190, 117, 120, 195, 3, 3.70775
267, 2, bw, attraction, a-b-da, 5, 3, 4, 21, 195, 120, 190, 117, 120, 195, 2, 0.733311
267, 2, bw, attraction, a-b-db, 5, 2, 4, 22, 165, 90, 90, 165, 88, 161, 2, 1.0216
267, 2, bw, attraction, a-b-db, 5, 2, 4, 22, 165, 90, 90, 165, 88, 161, 1, 1.1712
267, 2, bw, attraction, a-b-da, 2, 2, 4, 23, 163, 89, 165, 90, 90, 165, 2, 1.41025
267, 2, bw, attraction, a-b-da, 2, 2, 4, 23, 163, 89, 165, 90, 90, 165, 1, 1.18432
267, 2, bw, attraction, a-b-da, 9, 2, 4, 24, 165, 90, 90, 165, 157, 86, 2, 2.02255
267, 2, bw, attraction, a-b-da, 9, 2, 4, 24, 165, 90, 90, 165, 157, 86, 3, 0.435916
267, 2, bw, filler, NA, 999, 999, 4, 25, 102, 63, 59, 138, 74, 57, 2, 6.22437
267, 2, bw, filler, NA, 999, 999, 4, 25, 102, 63, 59, 138, 74, 57, 3, 0.628419
267, 2, bw, filler, NA, 999, 999, 4, 26, 73, 123, 89, 111, 135, 140, 3, 1.17686
267, 2, bw, filler, NA, 999, 999, 4, 26, 73, 123, 89, 111, 135, 140, 1, 1.11258
267, 2, bw, attraction, a-b-da, 5, 2, 4, 27, 90, 165, 161, 88, 165, 90, 1, 1.15338
267, 2, bw, attraction, a-b-da, 5, 2, 4, 27, 90, 165, 161, 88, 165, 90, 3, 0.817644
267, 2, bw, attraction, a-b-db, 5, 1, 4, 28, 135, 60, 58, 132, 60, 135, 2, 3.70267
267, 2, bw, attraction, a-b-db, 5, 1, 4, 28, 135, 60, 58, 132, 60, 135, 1, 0.632814
267, 2, bw, catch, NA, 999, 999, 4, 29, 157, 98, 124, 191, 105, 90, 2, 3.02925
267, 2, bw, catch, NA, 999, 999, 4, 29, 157, 98, 124, 191, 105, 90, 3, 0.89029
267, 2, bw, attraction, a-b-db, 14, 1, 4, 30, 60, 135, 135, 60, 56, 125, 2, 1.13189
267, 2, bw, attraction, a-b-db, 14, 1, 4, 30, 60, 135, 135, 60, 56, 125, 3, 1.81352
267, 2, bw, filler, NA, 999, 999, 4, 31, 73, 128, 187, 71, 87, 124, 3, 2.51419
267, 2, bw, filler, NA, 999, 999, 4, 31, 73, 128, 187, 71, 87, 124, 1, 0.524034
267, 2, bw, attraction, a-b-da, 9, 3, 4, 32, 120, 195, 186, 114, 195, 120, 1, 1.66054
267, 2, bw, attraction, a-b-da, 9, 3, 4, 32, 120, 195, 186, 114, 195, 120, 2, 1.44865
267, 2, bw, attraction, a-b-db, 5, 3, 4, 33, 117, 190, 120, 195, 195, 120, 2, 11.5801
267, 2, bw, attraction, a-b-db, 5, 3, 4, 33, 117, 190, 120, 195, 195, 120, 1, 0.816551
267, 2, bw, attraction, a-b-db, 2, 1, 4, 34, 135, 60, 59, 134, 60, 135, 3, 7.68566
267, 2, bw, attraction, a-b-db, 2, 1, 4, 34, 135, 60, 59, 134, 60, 135, 1, 0.631147
267, 2, bw, attraction, a-b-db, 2, 2, 4, 35, 90, 165, 165, 90, 89, 163, 3, 2.35557
267, 2, bw, attraction, a-b-db, 2, 2, 4, 35, 90, 165, 165, 90, 89, 163, 2, 0.56354
267, 2, bw, filler, NA, 999, 999, 4, 36, 158, 110, 101, 176, 131, 148, 3, 1.90647
267, 2, bw, filler, NA, 999, 999, 4, 36, 158, 110, 101, 176, 131, 148, 1, 2.7885
267, 2, bw, filler, NA, 999, 999, 4, 37, 67, 64, 70, 167, 121, 111, 3, 0.666276
267, 2, bw, filler, NA, 999, 999, 4, 37, 67, 64, 70, 167, 121, 111, 1, 0.478701
267, 2, bw, filler, NA, 999, 999, 5, 1, 94, 178, 181, 66, 102, 110, 1, 13.8079
267, 2, bw, filler, NA, 999, 999, 5, 1, 94, 178, 181, 66, 102, 110, 2, 2.3548
267, 2, bw, attraction, a-b-db, 2, 1, 5, 2, 60, 135, 135, 60, 59, 134, 1, 2.73001
267, 2, bw, attraction, a-b-db, 2, 1, 5, 2, 60, 135, 135, 60, 59, 134, 2, 1.13118
267, 2, bw, attraction, a-b-da, 5, 1, 5, 3, 135, 60, 132, 58, 60, 135, 3, 16.3474
267, 2, bw, attraction, a-b-da, 5, 1, 5, 3, 135, 60, 132, 58, 60, 135, 2, 2.72775
267, 2, bw, filler, NA, 999, 999, 5, 4, 142, 95, 132, 181, 172, 99, 2, 2.39137
267, 2, bw, filler, NA, 999, 999, 5, 4, 142, 95, 132, 181, 172, 99, 1, 1.58992
267, 2, bw, filler, NA, 999, 999, 5, 5, 107, 102, 178, 173, 77, 107, 2, 1.07533
267, 2, bw, filler, NA, 999, 999, 5, 5, 107, 102, 178, 173, 77, 107, 3, 1.65517
267, 2, bw, filler, NA, 999, 999, 5, 6, 84, 77, 146, 91, 143, 129, 3, 0.810368
267, 2, bw, filler, NA, 999, 999, 5, 6, 84, 77, 146, 91, 143, 129, 1, 1.86482
267, 2, bw, catch, NA, 999, 999, 5, 7, 70, 125, 195, 120, 122, 133, 2, 1.42751
267, 2, bw, catch, NA, 999, 999, 5, 7, 70, 125, 195, 120, 122, 133, 1, 0.793133
267, 2, bw, attraction, a-b-db, 5, 3, 5, 8, 120, 195, 195, 120, 117, 190, 2, 1.49471
267, 2, bw, attraction, a-b-db, 5, 3, 5, 8, 120, 195, 195, 120, 117, 190, 3, 0.769601
267, 2, bw, attraction, a-b-da, 14, 3, 5, 9, 181, 111, 120, 195, 195, 120, 2, 2.64057
267, 2, bw, attraction, a-b-da, 14, 3, 5, 9, 181, 111, 120, 195, 195, 120, 1, 0.741101
267, 2, bw, filler, NA, 999, 999, 5, 10, 72, 110, 59, 66, 146, 150, 3, 0.884786
267, 2, bw, filler, NA, 999, 999, 5, 10, 72, 110, 59, 66, 146, 150, 2, 1.79252
267, 2, bw, attraction, a-b-db, 14, 2, 5, 11, 83, 153, 165, 90, 90, 165, 2, 2.20588
267, 2, bw, attraction, a-b-db, 14, 2, 5, 11, 83, 153, 165, 90, 90, 165, 1, 1.1078
267, 2, bw, attraction, a-b-db, 14, 3, 5, 12, 120, 195, 111, 181, 195, 120, 3, 4.02874
267, 2, bw, attraction, a-b-db, 14, 3, 5, 12, 120, 195, 111, 181, 195, 120, 2, 0.769413
267, 2, bw, attraction, a-b-db, 9, 1, 5, 13, 60, 135, 135, 60, 57, 129, 2, 3.44054
267, 2, bw, attraction, a-b-db, 9, 1, 5, 13, 60, 135, 135, 60, 57, 129, 3, 1.0928
267, 2, bw, attraction, a-b-da, 14, 2, 5, 14, 153, 83, 165, 90, 90, 165, 3, 1.66238
267, 2, bw, attraction, a-b-da, 14, 2, 5, 14, 153, 83, 165, 90, 90, 165, 1, 1.05843
267, 2, bw, filler, NA, 999, 999, 5, 15, 154, 108, 85, 175, 69, 119, 1, 1.3414
267, 2, bw, filler, NA, 999, 999, 5, 15, 154, 108, 85, 175, 69, 119, 3, 1.18229
267, 2, bw, catch, NA, 999, 999, 5, 16, 126, 129, 177, 138, 83, 112, 2, 1.65254
267, 2, bw, catch, NA, 999, 999, 5, 16, 126, 129, 177, 138, 83, 112, 3, 1.09735
267, 2, bw, attraction, a-b-da, 5, 2, 5, 17, 161, 88, 90, 165, 165, 90, 3, 5.1069
267, 2, bw, attraction, a-b-da, 5, 2, 5, 17, 161, 88, 90, 165, 165, 90, 2, 1.64395
267, 2, bw, catch, NA, 999, 999, 5, 18, 136, 179, 163, 92, 94, 101, 1, 0.903452
267, 2, bw, catch, NA, 999, 999, 5, 18, 136, 179, 163, 92, 94, 101, 3, 2.2104
267, 2, bw, filler, NA, 999, 999, 5, 19, 189, 156, 167, 104, 165, 123, 1, 0.918933
267, 2, bw, filler, NA, 999, 999, 5, 19, 189, 156, 167, 104, 165, 123, 2, 1.76135
267, 2, bw, attraction, a-b-da, 14, 1, 5, 20, 60, 135, 135, 60, 125, 56, 1, 4.32007
267, 2, bw, attraction, a-b-da, 14, 1, 5, 20, 60, 135, 135, 60, 125, 56, 3, 1.88132
267, 2, bw, attraction, a-b-da, 9, 2, 5, 21, 165, 90, 157, 86, 90, 165, 1, 7.6594
267, 2, bw, attraction, a-b-da, 9, 2, 5, 21, 165, 90, 157, 86, 90, 165, 2, 2.23765
267, 2, bw, attraction, a-b-db, 14, 1, 5, 22, 135, 60, 56, 125, 60, 135, 3, 4.05767
267, 2, bw, attraction, a-b-db, 14, 1, 5, 22, 135, 60, 56, 125, 60, 135, 2, 1.25304
267, 2, bw, attraction, a-b-db, 9, 2, 5, 23, 90, 165, 165, 90, 86, 157, 2, 2.34458
267, 2, bw, attraction, a-b-db, 9, 2, 5, 23, 90, 165, 165, 90, 86, 157, 3, 1.06502
267, 2, bw, attraction, a-b-db, 5, 1, 5, 24, 135, 60, 60, 135, 58, 132, 1, 6.54795
267, 2, bw, attraction, a-b-db, 5, 1, 5, 24, 135, 60, 60, 135, 58, 132, 2, 0.795193
267, 2, bw, filler, NA, 999, 999, 5, 25, 144, 134, 165, 96, 143, 114, 1, 6.88095
267, 2, bw, filler, NA, 999, 999, 5, 25, 144, 134, 165, 96, 143, 114, 2, 1.29096
267, 2, bw, attraction, a-b-db, 2, 2, 5, 26, 165, 90, 89, 163, 90, 165, 2, 2.92434
267, 2, bw, attraction, a-b-db, 2, 2, 5, 26, 165, 90, 89, 163, 90, 165, 1, 0.741281
267, 2, bw, attraction, a-b-db, 2, 3, 5, 27, 195, 120, 119, 193, 120, 195, 2, 6.69307
267, 2, bw, attraction, a-b-db, 2, 3, 5, 27, 195, 120, 119, 193, 120, 195, 3, 5.47038
267, 2, bw, attraction, a-b-db, 9, 3, 5, 28, 114, 186, 195, 120, 120, 195, 2, 3.19185
267, 2, bw, attraction, a-b-db, 9, 3, 5, 28, 114, 186, 195, 120, 120, 195, 1, 0.430115
267, 2, bw, attraction, a-b-da, 9, 1, 5, 29, 129, 57, 135, 60, 60, 135, 2, 3.4106
267, 2, bw, attraction, a-b-da, 9, 1, 5, 29, 129, 57, 135, 60, 60, 135, 1, 0.496094
267, 2, bw, attraction, a-b-db, 5, 2, 5, 30, 165, 90, 88, 161, 90, 165, 1, 5.91393
267, 2, bw, attraction, a-b-db, 5, 2, 5, 30, 165, 90, 88, 161, 90, 165, 2, 0.882724
267, 2, bw, attraction, a-b-da, 2, 2, 5, 31, 90, 165, 165, 90, 163, 89, 1, 3.56502
267, 2, bw, attraction, a-b-da, 2, 2, 5, 31, 90, 165, 165, 90, 163, 89, 3, 0.476626
267, 2, bw, attraction, a-b-da, 2, 1, 5, 32, 134, 59, 135, 60, 60, 135, 3, 9.74301
267, 2, bw, attraction, a-b-da, 2, 1, 5, 32, 134, 59, 135, 60, 60, 135, 1, 0.701296
267, 2, bw, attraction, a-b-da, 9, 3, 5, 33, 195, 120, 186, 114, 120, 195, 1, 4.02315
267, 2, bw, attraction, a-b-da, 9, 3, 5, 33, 195, 120, 186, 114, 120, 195, 2, 0.491686
267, 2, bw, filler, NA, 999, 999, 5, 34, 72, 62, 115, 141, 74, 185, 2, 1.98958
267, 2, bw, filler, NA, 999, 999, 5, 34, 72, 62, 115, 141, 74, 185, 1, 0.860217
267, 2, bw, filler, NA, 999, 999, 5, 35, 95, 62, 176, 188, 143, 165, 2, 1.48726
267, 2, bw, filler, NA, 999, 999, 5, 35, 95, 62, 176, 188, 143, 165, 1, 2.20201
267, 2, bw, attraction, a-b-da, 2, 3, 5, 36, 120, 195, 195, 120, 193, 119, 1, 7.07932
267, 2, bw, attraction, a-b-da, 2, 3, 5, 36, 120, 195, 195, 120, 193, 119, 2, 0.745106
267, 2, bw, attraction, a-b-da, 5, 3, 5, 37, 190, 117, 120, 195, 195, 120, 2, 4.43273
267, 2, bw, attraction, a-b-da, 5, 3, 5, 37, 190, 117, 120, 195, 195, 120, 3, 0.877323
267, 2, bw, attraction, a-b-db, 2, 2, 6, 1, 90, 165, 89, 163, 165, 90, 2, 5.18368
267, 2, bw, attraction, a-b-db, 2, 2, 6, 1, 90, 165, 89, 163, 165, 90, 1, 2.94203
267, 2, bw, attraction, a-b-db, 5, 2, 6, 2, 165, 90, 90, 165, 88, 161, 2, 5.36515
267, 2, bw, attraction, a-b-db, 5, 2, 6, 2, 165, 90, 90, 165, 88, 161, 1, 0.612097
267, 2, bw, attraction, a-b-db, 5, 1, 6, 3, 60, 135, 58, 132, 135, 60, 3, 4.7852
267, 2, bw, attraction, a-b-db, 5, 1, 6, 3, 60, 135, 58, 132, 135, 60, 2, 0.999666
267, 2, bw, attraction, a-b-da, 14, 2, 6, 4, 90, 165, 153, 83, 165, 90, 1, 55.9732
267, 2, bw, attraction, a-b-da, 14, 2, 6, 4, 90, 165, 153, 83, 165, 90, 2, 0.492315
267, 2, bw, attraction, a-b-db, 9, 2, 6, 5, 86, 157, 90, 165, 165, 90, 2, 3.22222
267, 2, bw, attraction, a-b-db, 9, 2, 6, 5, 86, 157, 90, 165, 165, 90, 1, 0.643097
267, 2, bw, attraction, a-b-da, 14, 3, 6, 6, 195, 120, 181, 111, 120, 195, 3, 5.0629
267, 2, bw, attraction, a-b-da, 14, 3, 6, 6, 195, 120, 181, 111, 120, 195, 2, 0.43396
267, 2, bw, attraction, a-b-db, 14, 1, 6, 7, 135, 60, 56, 125, 60, 135, 3, 3.99848
267, 2, bw, attraction, a-b-db, 14, 1, 6, 7, 135, 60, 56, 125, 60, 135, 2, 0.95649
267, 2, bw, attraction, a-b-db, 2, 1, 6, 8, 60, 135, 135, 60, 59, 134, 3, 2.76346
267, 2, bw, attraction, a-b-db, 2, 1, 6, 8, 60, 135, 135, 60, 59, 134, 2, 0.587194
267, 2, bw, catch, NA, 999, 999, 6, 9, 130, 125, 119, 76, 181, 134, 3, 2.28971
267, 2, bw, catch, NA, 999, 999, 6, 9, 130, 125, 119, 76, 181, 134, 2, 0.388375
267, 2, bw, attraction, a-b-db, 9, 1, 6, 10, 57, 129, 135, 60, 60, 135, 2, 2.05875
267, 2, bw, attraction, a-b-db, 9, 1, 6, 10, 57, 129, 135, 60, 60, 135, 1, 0.398678
267, 2, bw, filler, NA, 999, 999, 6, 11, 98, 97, 130, 128, 109, 188, 3, 5.22863
267, 2, bw, filler, NA, 999, 999, 6, 11, 98, 97, 130, 128, 109, 188, 1, 0.824919
267, 2, bw, filler, NA, 999, 999, 6, 12, 63, 188, 177, 72, 64, 81, 2, 1.45322
267, 2, bw, filler, NA, 999, 999, 6, 12, 63, 188, 177, 72, 64, 81, 3, 0.570237
267, 2, bw, attraction, a-b-da, 2, 2, 6, 13, 90, 165, 163, 89, 165, 90, 3, 6.96114
267, 2, bw, attraction, a-b-da, 2, 2, 6, 13, 90, 165, 163, 89, 165, 90, 1, 0.455591
267, 2, bw, attraction, a-b-db, 9, 3, 6, 14, 114, 186, 120, 195, 195, 120, 3, 5.60349
267, 2, bw, attraction, a-b-db, 9, 3, 6, 14, 114, 186, 120, 195, 195, 120, 1, 0.696987
267, 2, bw, catch, NA, 999, 999, 6, 15, 133, 62, 157, 158, 145, 110, 2, 1.23468
267, 2, bw, catch, NA, 999, 999, 6, 15, 133, 62, 157, 158, 145, 110, 1, 1.04831
267, 2, bw, attraction, a-b-db, 14, 3, 6, 16, 111, 181, 120, 195, 195, 120, 2, 9.06792
267, 2, bw, attraction, a-b-db, 14, 3, 6, 16, 111, 181, 120, 195, 195, 120, 1, 0.653722
267, 2, bw, attraction, a-b-db, 14, 2, 6, 17, 165, 90, 90, 165, 83, 153, 2, 2.12141
267, 2, bw, attraction, a-b-db, 14, 2, 6, 17, 165, 90, 90, 165, 83, 153, 3, 0.602805
267, 2, bw, attraction, a-b-da, 14, 1, 6, 18, 135, 60, 60, 135, 125, 56, 1, 2.1125
267, 2, bw, attraction, a-b-da, 14, 1, 6, 18, 135, 60, 60, 135, 125, 56, 3, 0.482471
267, 2, bw, attraction, a-b-db, 2, 3, 6, 19, 195, 120, 119, 193, 120, 195, 2, 4.3251
267, 2, bw, attraction, a-b-db, 2, 3, 6, 19, 195, 120, 119, 193, 120, 195, 1, 0.477543
267, 2, bw, filler, NA, 999, 999, 6, 20, 71, 177, 142, 136, 78, 170, 2, 1.40003
267, 2, bw, filler, NA, 999, 999, 6, 20, 71, 177, 142, 136, 78, 170, 3, 0.878916
267, 2, bw, filler, NA, 999, 999, 6, 21, 75, 70, 153, 68, 177, 120, 3, 0.825218
267, 2, bw, filler, NA, 999, 999, 6, 21, 75, 70, 153, 68, 177, 120, 1, 0.774993
267, 2, bw, attraction, a-b-da, 9, 2, 6, 22, 157, 86, 90, 165, 165, 90, 3, 2.53331
267, 2, bw, attraction, a-b-da, 9, 2, 6, 22, 157, 86, 90, 165, 165, 90, 2, 0.798619
267, 2, bw, attraction, a-b-da, 2, 3, 6, 23, 195, 120, 120, 195, 193, 119, 2, 5.63624
267, 2, bw, attraction, a-b-da, 2, 3, 6, 23, 195, 120, 120, 195, 193, 119, 1, 0.656396
267, 2, bw, attraction, a-b-da, 5, 1, 6, 24, 60, 135, 132, 58, 135, 60, 3, 2.69152
267, 2, bw, attraction, a-b-da, 5, 1, 6, 24, 60, 135, 132, 58, 135, 60, 2, 0.582006
267, 2, bw, filler, NA, 999, 999, 6, 25, 113, 174, 129, 113, 144, 109, 1, 1.97239
267, 2, bw, filler, NA, 999, 999, 6, 25, 113, 174, 129, 113, 144, 109, 2, 0.739739
267, 2, bw, attraction, a-b-da, 5, 2, 6, 26, 90, 165, 161, 88, 165, 90, 3, 6.09943
267, 2, bw, attraction, a-b-da, 5, 2, 6, 26, 90, 165, 161, 88, 165, 90, 2, 0.468909
267, 2, bw, attraction, a-b-db, 5, 3, 6, 27, 117, 190, 120, 195, 195, 120, 2, 7.112
267, 2, bw, attraction, a-b-db, 5, 3, 6, 27, 117, 190, 120, 195, 195, 120, 3, 0.45642
267, 2, bw, attraction, a-b-da, 2, 1, 6, 28, 135, 60, 134, 59, 60, 135, 1, 8.41966
267, 2, bw, attraction, a-b-da, 2, 1, 6, 28, 135, 60, 134, 59, 60, 135, 3, 0.567503
267, 2, bw, filler, NA, 999, 999, 6, 29, 77, 91, 190, 169, 148, 64, 2, 1.41459
267, 2, bw, filler, NA, 999, 999, 6, 29, 77, 91, 190, 169, 148, 64, 1, 3.58883
267, 2, bw, attraction, a-b-da, 9, 3, 6, 30, 195, 120, 186, 114, 120, 195, 1, 10.0983
267, 2, bw, attraction, a-b-da, 9, 3, 6, 30, 195, 120, 186, 114, 120, 195, 3, 0.76245
267, 2, bw, catch, NA, 999, 999, 6, 31, 150, 165, 163, 92, 64, 131, 1, 0.777442
267, 2, bw, catch, NA, 999, 999, 6, 31, 150, 165, 163, 92, 64, 131, 3, 0.537215
267, 2, bw, attraction, a-b-da, 5, 3, 6, 32, 195, 120, 190, 117, 120, 195, 1, 5.48167
267, 2, bw, attraction, a-b-da, 5, 3, 6, 32, 195, 120, 190, 117, 120, 195, 2, 0.643999
267, 2, bw, attraction, a-b-da, 9, 1, 6, 33, 129, 57, 60, 135, 135, 60, 2, 2.06374
267, 2, bw, attraction, a-b-da, 9, 1, 6, 33, 129, 57, 60, 135, 135, 60, 3, 0.915691
267, 2, bw, filler, NA, 999, 999, 6, 34, 77, 169, 57, 126, 77, 184, 3, 2.36471
267, 2, bw, filler, NA, 999, 999, 6, 34, 77, 169, 57, 126, 77, 184, 2, 0.740586
267, 2, bw, filler, NA, 999, 999, 6, 35, 182, 169, 84, 95, 91, 123, 1, 0.796304
267, 2, bw, filler, NA, 999, 999, 6, 35, 182, 169, 84, 95, 91, 123, 2, 0.875351
267, 2, bw, filler, NA, 999, 999, 6, 36, 56, 148, 71, 145, 83, 98, 2, 10.8697
267, 2, bw, filler, NA, 999, 999, 6, 36, 56, 148, 71, 145, 83, 98, 1, 0.830899
267, 2, bw, filler, NA, 999, 999, 6, 37, 142, 81, 170, 162, 75, 140, 2, 1.24321
267, 2, bw, filler, NA, 999, 999, 6, 37, 142, 81, 170, 162, 75, 140, 3, 0.936156
267, 2, bw, attraction, a-b-db, 14, 2, 7, 1, 165, 90, 83, 153, 90, 165, 3, 4.37645
267, 2, bw, attraction, a-b-db, 14, 2, 7, 1, 165, 90, 83, 153, 90, 165, 2, 0.455128
267, 2, bw, attraction, a-b-db, 14, 3, 7, 2, 111, 181, 195, 120, 120, 195, 3, 2.3229
267, 2, bw, attraction, a-b-db, 14, 3, 7, 2, 111, 181, 195, 120, 120, 195, 1, 0.588157
267, 2, bw, attraction, a-b-da, 14, 1, 7, 3, 135, 60, 60, 135, 125, 56, 2, 1.83451
267, 2, bw, attraction, a-b-da, 14, 1, 7, 3, 135, 60, 60, 135, 125, 56, 3, 0.57594
267, 2, bw, attraction, a-b-db, 14, 1, 7, 4, 56, 125, 135, 60, 60, 135, 3, 1.3184
267, 2, bw, attraction, a-b-db, 14, 1, 7, 4, 56, 125, 135, 60, 60, 135, 1, 0.800637
267, 2, bw, attraction, a-b-db, 9, 1, 7, 5, 57, 129, 135, 60, 60, 135, 3, 7.01425
267, 2, bw, attraction, a-b-db, 9, 1, 7, 5, 57, 129, 135, 60, 60, 135, 2, 0.418682
267, 2, bw, attraction, a-b-db, 2, 2, 7, 6, 165, 90, 89, 163, 90, 165, 3, 1.95193
267, 2, bw, attraction, a-b-db, 2, 2, 7, 6, 165, 90, 89, 163, 90, 165, 2, 0.59256
267, 2, bw, filler, NA, 999, 999, 7, 7, 98, 187, 115, 107, 115, 94, 1, 2.11039
267, 2, bw, filler, NA, 999, 999, 7, 7, 98, 187, 115, 107, 115, 94, 3, 0.928313
267, 2, bw, filler, NA, 999, 999, 7, 8, 168, 75, 59, 164, 172, 145, 3, 1.36074
267, 2, bw, filler, NA, 999, 999, 7, 8, 168, 75, 59, 164, 172, 145, 2, 0.640903
267, 2, bw, attraction, a-b-db, 9, 2, 7, 9, 90, 165, 165, 90, 86, 157, 1, 1.30872
267, 2, bw, attraction, a-b-db, 9, 2, 7, 9, 90, 165, 165, 90, 86, 157, 3, 0.526861
267, 2, bw, attraction, a-b-da, 2, 3, 7, 10, 120, 195, 193, 119, 195, 120, 1, 2.8873
267, 2, bw, attraction, a-b-da, 2, 3, 7, 10, 120, 195, 193, 119, 195, 120, 3, 0.514469
267, 2, bw, attraction, a-b-da, 2, 2, 7, 11, 163, 89, 165, 90, 90, 165, 3, 3.5394
267, 2, bw, attraction, a-b-da, 2, 2, 7, 11, 163, 89, 165, 90, 90, 165, 1, 0.803675
267, 2, bw, attraction, a-b-db, 2, 3, 7, 12, 119, 193, 195, 120, 120, 195, 1, 2.44137
267, 2, bw, attraction, a-b-db, 2, 3, 7, 12, 119, 193, 195, 120, 120, 195, 3, 2.80585
267, 2, bw, catch, NA, 999, 999, 7, 13, 133, 122, 158, 157, 90, 105, 2, 1.13897
267, 2, bw, catch, NA, 999, 999, 7, 13, 133, 122, 158, 157, 90, 105, 3, 0.587908
267, 2, bw, attraction, a-b-da, 2, 1, 7, 14, 135, 60, 134, 59, 60, 135, 3, 2.00233
267, 2, bw, attraction, a-b-da, 2, 1, 7, 14, 135, 60, 134, 59, 60, 135, 2, 0.456981
267, 2, bw, filler, NA, 999, 999, 7, 15, 105, 64, 188, 186, 151, 130, 2, 1.95619
267, 2, bw, filler, NA, 999, 999, 7, 15, 105, 64, 188, 186, 151, 130, 1, 0.700177
267, 2, bw, attraction, a-b-da, 9, 2, 7, 16, 157, 86, 90, 165, 165, 90, 2, 35.0779
267, 2, bw, attraction, a-b-da, 9, 2, 7, 16, 157, 86, 90, 165, 165, 90, 3, 2.65569
267, 2, bw, filler, NA, 999, 999, 7, 17, 62, 79, 159, 105, 160, 164, 3, 1.53075
267, 2, bw, filler, NA, 999, 999, 7, 17, 62, 79, 159, 105, 160, 164, 1, 1.08415
267, 2, bw, catch, NA, 999, 999, 7, 18, 131, 124, 127, 68, 154, 161, 3, 1.52649
267, 2, bw, catch, NA, 999, 999, 7, 18, 131, 124, 127, 68, 154, 161, 2, 1.89606
267, 2, bw, attraction, a-b-da, 5, 2, 7, 19, 161, 88, 165, 90, 90, 165, 2, 3.75333
267, 2, bw, attraction, a-b-da, 5, 2, 7, 19, 161, 88, 165, 90, 90, 165, 1, 1.69746
267, 2, bw, attraction, a-b-da, 5, 1, 7, 20, 60, 135, 135, 60, 132, 58, 2, 1.69084
267, 2, bw, attraction, a-b-da, 5, 1, 7, 20, 60, 135, 135, 60, 132, 58, 3, 1.29362
267, 2, bw, attraction, a-b-da, 14, 2, 7, 21, 165, 90, 153, 83, 90, 165, 3, 3.35914
267, 2, bw, attraction, a-b-da, 14, 2, 7, 21, 165, 90, 153, 83, 90, 165, 2, 0.950847
267, 2, bw, attraction, a-b-db, 5, 1, 7, 22, 58, 132, 135, 60, 60, 135, 3, 2.19036
267, 2, bw, attraction, a-b-db, 5, 1, 7, 22, 58, 132, 135, 60, 60, 135, 2, 1.07701
267, 2, bw, filler, NA, 999, 999, 7, 23, 92, 151, 89, 192, 115, 83, 2, 1.52739
267, 2, bw, filler, NA, 999, 999, 7, 23, 92, 151, 89, 192, 115, 83, 3, 1.57682
267, 2, bw, attraction, a-b-da, 14, 3, 7, 24, 120, 195, 181, 111, 195, 120, 3, 3.09493
267, 2, bw, attraction, a-b-da, 14, 3, 7, 24, 120, 195, 181, 111, 195, 120, 2, 0.713205
267, 2, bw, attraction, a-b-da, 9, 3, 7, 25, 120, 195, 195, 120, 186, 114, 2, 1.65829
267, 2, bw, attraction, a-b-da, 9, 3, 7, 25, 120, 195, 195, 120, 186, 114, 3, 1.40646
267, 2, bw, filler, NA, 999, 999, 7, 26, 78, 81, 177, 92, 63, 150, 2, 4.63539
267, 2, bw, filler, NA, 999, 999, 7, 26, 78, 81, 177, 92, 63, 150, 1, 0.975744
267, 2, bw, attraction, a-b-db, 9, 3, 7, 27, 195, 120, 120, 195, 114, 186, 2, 2.03021
267, 2, bw, attraction, a-b-db, 9, 3, 7, 27, 195, 120, 120, 195, 114, 186, 1, 0.571431
267, 2, bw, attraction, a-b-db, 5, 3, 7, 28, 117, 190, 195, 120, 120, 195, 3, 4.68258
267, 2, bw, attraction, a-b-db, 5, 3, 7, 28, 117, 190, 195, 120, 120, 195, 1, 0.892989
267, 2, bw, filler, NA, 999, 999, 7, 29, 129, 182, 61, 97, 117, 136, 1, 1.63863
267, 2, bw, filler, NA, 999, 999, 7, 29, 129, 182, 61, 97, 117, 136, 2, 1.78744
267, 2, bw, attraction, a-b-db, 2, 1, 7, 30, 135, 60, 60, 135, 59, 134, 3, 5.74556
267, 2, bw, attraction, a-b-db, 2, 1, 7, 30, 135, 60, 60, 135, 59, 134, 1, 1.16904
267, 2, bw, attraction, a-b-da, 5, 3, 7, 31, 190, 117, 120, 195, 195, 120, 2, 1.96005
267, 2, bw, attraction, a-b-da, 5, 3, 7, 31, 190, 117, 120, 195, 195, 120, 1, 0.703969
267, 2, bw, attraction, a-b-da, 9, 1, 7, 32, 135, 60, 129, 57, 60, 135, 2, 1.54565
267, 2, bw, attraction, a-b-da, 9, 1, 7, 32, 135, 60, 129, 57, 60, 135, 1, 0.658602
267, 2, bw, attraction, a-b-db, 5, 2, 7, 33, 88, 161, 90, 165, 165, 90, 2, 7.29361
267, 2, bw, attraction, a-b-db, 5, 2, 7, 33, 88, 161, 90, 165, 165, 90, 3, 0.686627
267, 2, bw, filler, NA, 999, 999, 7, 34, 84, 183, 166, 179, 89, 67, 2, 0.729009
267, 2, bw, filler, NA, 999, 999, 7, 34, 84, 183, 166, 179, 89, 67, 3, 0.714769
267, 2, bw, filler, NA, 999, 999, 7, 35, 177, 121, 72, 73, 70, 152, 1, 1.27581
267, 2, bw, filler, NA, 999, 999, 7, 35, 177, 121, 72, 73, 70, 152, 2, 1.60744
267, 2, bw, catch, NA, 999, 999, 7, 36, 155, 100, 143, 172, 78, 117, 2, 1.40418
267, 2, bw, catch, NA, 999, 999, 7, 36, 155, 100, 143, 172, 78, 117, 3, 3.44231
267, 2, bw, filler, NA, 999, 999, 7, 37, 186, 138, 62, 143, 121, 89, 1, 1.02117
267, 2, bw, filler, NA, 999, 999, 7, 37, 186, 138, 62, 143, 121, 89, 2, 3.36282
267, 2, bw, attraction, a-b-da, 5, 2, 8, 1, 165, 90, 90, 165, 161, 88, 2, 0.809021
267, 2, bw, attraction, a-b-da, 5, 2, 8, 1, 165, 90, 90, 165, 161, 88, 3, 0.607528
267, 2, bw, attraction, a-b-db, 14, 1, 8, 2, 56, 125, 60, 135, 135, 60, 2, 1.54855
267, 2, bw, attraction, a-b-db, 14, 1, 8, 2, 56, 125, 60, 135, 135, 60, 1, 0.461388
267, 2, bw, attraction, a-b-db, 9, 2, 8, 3, 165, 90, 86, 157, 90, 165, 2, 4.8965
267, 2, bw, attraction, a-b-db, 9, 2, 8, 3, 165, 90, 86, 157, 90, 165, 1, 0.634282
267, 2, bw, attraction, a-b-da, 5, 3, 8, 4, 120, 195, 190, 117, 195, 120, 1, 1.54273
267, 2, bw, attraction, a-b-da, 5, 3, 8, 4, 120, 195, 190, 117, 195, 120, 2, 1.83952
267, 2, bw, attraction, a-b-db, 2, 2, 8, 5, 90, 165, 165, 90, 89, 163, 3, 1.15552
267, 2, bw, attraction, a-b-db, 2, 2, 8, 5, 90, 165, 165, 90, 89, 163, 2, 0.395851
267, 2, bw, attraction, a-b-db, 5, 2, 8, 6, 165, 90, 90, 165, 88, 161, 2, 1.57769
267, 2, bw, attraction, a-b-db, 5, 2, 8, 6, 165, 90, 90, 165, 88, 161, 3, 0.441159
267, 2, bw, filler, NA, 999, 999, 8, 7, 62, 137, 170, 193, 139, 142, 2, 0.660997
267, 2, bw, filler, NA, 999, 999, 8, 7, 62, 137, 170, 193, 139, 142, 1, 0.881331
267, 2, bw, filler, NA, 999, 999, 8, 8, 87, 78, 63, 88, 97, 112, 3, 1.05167
267, 2, bw, filler, NA, 999, 999, 8, 8, 87, 78, 63, 88, 97, 112, 2, 1.42473
267, 2, bw, attraction, a-b-da, 14, 3, 8, 9, 181, 111, 195, 120, 120, 195, 3, 2.47686
267, 2, bw, attraction, a-b-da, 14, 3, 8, 9, 181, 111, 195, 120, 120, 195, 1, 0.560061
267, 2, bw, catch, NA, 999, 999, 8, 10, 189, 126, 101, 154, 117, 78, 1, 1.46306
267, 2, bw, catch, NA, 999, 999, 8, 10, 189, 126, 101, 154, 117, 78, 3, 0.611328
267, 2, bw, attraction, a-b-da, 5, 1, 8, 11, 60, 135, 132, 58, 135, 60, 1, 1.90442
267, 2, bw, attraction, a-b-da, 5, 1, 8, 11, 60, 135, 132, 58, 135, 60, 2, 1.69851
267, 2, bw, attraction, a-b-da, 2, 3, 8, 12, 120, 195, 195, 120, 193, 119, 1, 1.6838
267, 2, bw, attraction, a-b-da, 2, 3, 8, 12, 120, 195, 195, 120, 193, 119, 3, 1.4474
267, 2, bw, filler, NA, 999, 999, 8, 13, 183, 118, 137, 131, 82, 126, 1, 2.38679
267, 2, bw, filler, NA, 999, 999, 8, 13, 183, 118, 137, 131, 82, 126, 3, 1.03409
267, 2, bw, catch, NA, 999, 999, 8, 14, 125, 70, 155, 100, 190, 125, 3, 1.07848
267, 2, bw, catch, NA, 999, 999, 8, 14, 125, 70, 155, 100, 190, 125, 1, 0.553923
267, 2, bw, attraction, a-b-da, 2, 1, 8, 15, 135, 60, 60, 135, 134, 59, 1, 1.65778
267, 2, bw, attraction, a-b-da, 2, 1, 8, 15, 135, 60, 60, 135, 134, 59, 3, 0.589833
267, 2, bw, attraction, a-b-da, 14, 1, 8, 16, 60, 135, 125, 56, 135, 60, 1, 1.41964
267, 2, bw, attraction, a-b-da, 14, 1, 8, 16, 60, 135, 125, 56, 135, 60, 2, 0.745904
267, 2, bw, attraction, a-b-da, 9, 1, 8, 17, 135, 60, 129, 57, 60, 135, 3, 1.29749
267, 2, bw, attraction, a-b-da, 9, 1, 8, 17, 135, 60, 129, 57, 60, 135, 1, 0.684418
267, 2, bw, attraction, a-b-da, 9, 2, 8, 18, 165, 90, 157, 86, 90, 165, 3, 2.03882
267, 2, bw, attraction, a-b-da, 9, 2, 8, 18, 165, 90, 157, 86, 90, 165, 1, 0.787385
267, 2, bw, attraction, a-b-db, 2, 3, 8, 19, 195, 120, 120, 195, 119, 193, 2, 1.93785
267, 2, bw, attraction, a-b-db, 2, 3, 8, 19, 195, 120, 120, 195, 119, 193, 1, 0.538513
267, 2, bw, filler, NA, 999, 999, 8, 20, 120, 94, 114, 121, 112, 184, 3, 0.946905
267, 2, bw, filler, NA, 999, 999, 8, 20, 120, 94, 114, 121, 112, 184, 1, 0.771969
267, 2, bw, attraction, a-b-db, 14, 3, 8, 21, 120, 195, 111, 181, 195, 120, 1, 2.17098
267, 2, bw, attraction, a-b-db, 14, 3, 8, 21, 120, 195, 111, 181, 195, 120, 2, 1.13031
267, 2, bw, attraction, a-b-da, 9, 3, 8, 22, 186, 114, 120, 195, 195, 120, 3, 2.47454
267, 2, bw, attraction, a-b-da, 9, 3, 8, 22, 186, 114, 120, 195, 195, 120, 1, 1.01378
267, 2, bw, filler, NA, 999, 999, 8, 23, 89, 129, 113, 69, 124, 155, 3, 0.810794
267, 2, bw, filler, NA, 999, 999, 8, 23, 89, 129, 113, 69, 124, 155, 2, 0.873173
267, 2, bw, filler, NA, 999, 999, 8, 24, 64, 181, 92, 95, 57, 137, 1, 2.17942
267, 2, bw, filler, NA, 999, 999, 8, 24, 64, 181, 92, 95, 57, 137, 3, 0.498741
267, 2, bw, catch, NA, 999, 999, 8, 25, 61, 134, 135, 180, 150, 105, 2, 1.81256
267, 2, bw, catch, NA, 999, 999, 8, 25, 61, 134, 135, 180, 150, 105, 1, 0.754653
267, 2, bw, attraction, a-b-da, 14, 2, 8, 26, 165, 90, 153, 83, 90, 165, 1, 0.850251
267, 2, bw, attraction, a-b-da, 14, 2, 8, 26, 165, 90, 153, 83, 90, 165, 2, 0.727371
267, 2, bw, filler, NA, 999, 999, 8, 27, 148, 171, 58, 56, 103, 75, 1, 0.767839
267, 2, bw, filler, NA, 999, 999, 8, 27, 148, 171, 58, 56, 103, 75, 2, 0.952137
267, 2, bw, filler, NA, 999, 999, 8, 28, 135, 107, 178, 69, 58, 161, 1, 1.07979
267, 2, bw, filler, NA, 999, 999, 8, 28, 135, 107, 178, 69, 58, 161, 3, 0.95542
267, 2, bw, attraction, a-b-db, 2, 1, 8, 29, 60, 135, 59, 134, 135, 60, 1, 1.71519
267, 2, bw, attraction, a-b-db, 2, 1, 8, 29, 60, 135, 59, 134, 135, 60, 2, 1.23722
267, 2, bw, filler, NA, 999, 999, 8, 30, 155, 137, 115, 124, 140, 151, 1, 2.37739
267, 2, bw, filler, NA, 999, 999, 8, 30, 155, 137, 115, 124, 140, 151, 2, 1.64859
267, 2, bw, attraction, a-b-db, 14, 2, 8, 31, 90, 165, 83, 153, 165, 90, 1, 2.51595
267, 2, bw, attraction, a-b-db, 14, 2, 8, 31, 90, 165, 83, 153, 165, 90, 2, 1.65388
267, 2, bw, attraction, a-b-db, 5, 3, 8, 32, 195, 120, 120, 195, 117, 190, 3, 3.53738
267, 2, bw, attraction, a-b-db, 5, 3, 8, 32, 195, 120, 120, 195, 117, 190, 1, 1.50616
267, 2, bw, attraction, a-b-da, 2, 2, 8, 33, 163, 89, 165, 90, 90, 165, 3, 1.17976
267, 2, bw, attraction, a-b-da, 2, 2, 8, 33, 163, 89, 165, 90, 90, 165, 1, 0.563297
267, 2, bw, attraction, a-b-db, 5, 1, 8, 34, 58, 132, 135, 60, 60, 135, 2, 0.706345
267, 2, bw, attraction, a-b-db, 5, 1, 8, 34, 58, 132, 135, 60, 60, 135, 3, 0.652768
267, 2, bw, attraction, a-b-db, 9, 1, 8, 35, 57, 129, 60, 135, 135, 60, 2, 1.48856
267, 2, bw, attraction, a-b-db, 9, 1, 8, 35, 57, 129, 60, 135, 135, 60, 3, 0.491395
267, 2, bw, attraction, a-b-db, 9, 3, 8, 36, 120, 195, 114, 186, 195, 120, 3, 1.30914
267, 2, bw, attraction, a-b-db, 9, 3, 8, 36, 120, 195, 114, 186, 195, 120, 2, 0.431461
267, 2, bw, filler, NA, 999, 999, 8, 37, 87, 87, 133, 94, 185, 135, 3, 0.547907
267, 2, bw, filler, NA, 999, 999, 8, 37, 87, 87, 133, 94, 185, 135, 1, 0.59701
