sub_n, computer_n, bw_cond, effect, set, distance, diag, block_n, trial_n, h1, w1, h2, w2, h3, w3, choice, rt 
297, 2, bw, practice, NA, 999, 999, 0, 1, 171, 183, 133, 148, 99, 132, 1, 2.44555
297, 2, bw, practice, NA, 999, 999, 0, 1, 171, 183, 133, 148, 99, 132, 3, 1.06735
297, 2, bw, practice, NA, 999, 999, 0, 2, 66, 72, 144, 172, 122, 144, 2, 2.17822
297, 2, bw, practice, NA, 999, 999, 0, 2, 66, 72, 144, 172, 122, 144, 1, 0.844119
297, 2, bw, practice, NA, 999, 999, 0, 3, 61, 136, 148, 192, 134, 72, 2, 3.04274
297, 2, bw, practice, NA, 999, 999, 0, 3, 61, 136, 148, 192, 134, 72, 1, 1.05506
297, 2, bw, attraction, a-b-da, 5, 1, 1, 1, 132, 58, 135, 60, 60, 135, 3, 3.05176
297, 2, bw, attraction, a-b-da, 5, 1, 1, 1, 132, 58, 135, 60, 60, 135, 1, 1.32014
297, 2, bw, attraction, a-b-da, 9, 3, 1, 2, 195, 120, 120, 195, 186, 114, 2, 5.55293
297, 2, bw, attraction, a-b-da, 9, 3, 1, 2, 195, 120, 120, 195, 186, 114, 3, 0.464533
297, 2, bw, catch, NA, 999, 999, 1, 3, 155, 100, 107, 88, 161, 154, 3, 0.851648
297, 2, bw, catch, NA, 999, 999, 1, 3, 155, 100, 107, 88, 161, 154, 2, 0.328693
297, 2, bw, attraction, a-b-da, 2, 2, 1, 4, 163, 89, 165, 90, 90, 165, 3, 2.20126
297, 2, bw, attraction, a-b-da, 2, 2, 1, 4, 163, 89, 165, 90, 90, 165, 2, 1.23183
297, 2, bw, attraction, a-b-da, 2, 3, 1, 5, 193, 119, 120, 195, 195, 120, 2, 2.2522
297, 2, bw, attraction, a-b-da, 2, 3, 1, 5, 193, 119, 120, 195, 195, 120, 1, 0.664667
297, 2, bw, attraction, a-b-da, 5, 2, 1, 6, 165, 90, 161, 88, 90, 165, 3, 5.25977
297, 2, bw, attraction, a-b-da, 5, 2, 1, 6, 165, 90, 161, 88, 90, 165, 2, 0.518709
297, 2, bw, attraction, a-b-db, 5, 1, 1, 7, 58, 132, 135, 60, 60, 135, 3, 1.59187
297, 2, bw, attraction, a-b-db, 5, 1, 1, 7, 58, 132, 135, 60, 60, 135, 2, 0.590658
297, 2, bw, attraction, a-b-db, 14, 2, 1, 8, 165, 90, 90, 165, 83, 153, 2, 5.29245
297, 2, bw, attraction, a-b-db, 14, 2, 1, 8, 165, 90, 90, 165, 83, 153, 3, 1.55815
297, 2, bw, filler, NA, 999, 999, 1, 9, 131, 62, 112, 177, 154, 67, 2, 1.42878
297, 2, bw, filler, NA, 999, 999, 1, 9, 131, 62, 112, 177, 154, 67, 1, 0.602354
297, 2, bw, catch, NA, 999, 999, 1, 10, 159, 156, 115, 140, 64, 131, 1, 0.99216
297, 2, bw, catch, NA, 999, 999, 1, 10, 159, 156, 115, 140, 64, 131, 3, 0.671157
297, 2, bw, attraction, a-b-db, 5, 2, 1, 11, 90, 165, 88, 161, 165, 90, 3, 2.16223
297, 2, bw, attraction, a-b-db, 5, 2, 1, 11, 90, 165, 88, 161, 165, 90, 2, 1.43413
297, 2, bw, filler, NA, 999, 999, 1, 12, 77, 62, 113, 170, 104, 72, 2, 1.10228
297, 2, bw, filler, NA, 999, 999, 1, 12, 77, 62, 113, 170, 104, 72, 1, 0.897377
297, 2, bw, filler, NA, 999, 999, 1, 13, 151, 178, 146, 75, 150, 132, 1, 1.37886
297, 2, bw, filler, NA, 999, 999, 1, 13, 151, 178, 146, 75, 150, 132, 2, 0.890494
297, 2, bw, filler, NA, 999, 999, 1, 14, 127, 75, 56, 64, 161, 179, 3, 0.804128
297, 2, bw, filler, NA, 999, 999, 1, 14, 127, 75, 56, 64, 161, 179, 2, 0.65848
297, 2, bw, attraction, a-b-db, 2, 2, 1, 15, 165, 90, 89, 163, 90, 165, 1, 4.53354
297, 2, bw, attraction, a-b-db, 2, 2, 1, 15, 165, 90, 89, 163, 90, 165, 2, 5.95018
297, 2, bw, attraction, a-b-da, 9, 1, 1, 16, 135, 60, 129, 57, 60, 135, 3, 3.10028
297, 2, bw, attraction, a-b-da, 9, 1, 1, 16, 135, 60, 129, 57, 60, 135, 2, 0.806545
297, 2, bw, filler, NA, 999, 999, 1, 17, 188, 144, 68, 183, 170, 93, 1, 1.1876
297, 2, bw, filler, NA, 999, 999, 1, 17, 188, 144, 68, 183, 170, 93, 2, 0.266504
297, 2, bw, attraction, a-b-da, 14, 2, 1, 18, 165, 90, 153, 83, 90, 165, 3, 2.58175
297, 2, bw, attraction, a-b-da, 14, 2, 1, 18, 165, 90, 153, 83, 90, 165, 2, 0.420849
297, 2, bw, attraction, a-b-db, 14, 1, 1, 19, 135, 60, 56, 125, 60, 135, 3, 2.9861
297, 2, bw, attraction, a-b-db, 14, 1, 1, 19, 135, 60, 56, 125, 60, 135, 2, 0.393093
297, 2, bw, attraction, a-b-db, 2, 3, 1, 20, 120, 195, 195, 120, 119, 193, 1, 4.43083
297, 2, bw, attraction, a-b-db, 2, 3, 1, 20, 120, 195, 195, 120, 119, 193, 2, 0.867547
297, 2, bw, attraction, a-b-da, 2, 1, 1, 21, 60, 135, 134, 59, 135, 60, 3, 6.39054
297, 2, bw, attraction, a-b-da, 2, 1, 1, 21, 60, 135, 134, 59, 135, 60, 2, 0.331748
297, 2, bw, filler, NA, 999, 999, 1, 22, 107, 174, 72, 103, 134, 89, 1, 1.06021
297, 2, bw, filler, NA, 999, 999, 1, 22, 107, 174, 72, 103, 134, 89, 2, 0.672589
297, 2, bw, attraction, a-b-db, 14, 3, 1, 23, 111, 181, 195, 120, 120, 195, 3, 4.49961
297, 2, bw, attraction, a-b-db, 14, 3, 1, 23, 111, 181, 195, 120, 120, 195, 2, 0.269499
297, 2, bw, attraction, a-b-db, 9, 1, 1, 24, 57, 129, 135, 60, 60, 135, 1, 2.44065
297, 2, bw, attraction, a-b-db, 9, 1, 1, 24, 57, 129, 135, 60, 60, 135, 2, 0.277272
297, 2, bw, catch, NA, 999, 999, 1, 25, 189, 126, 125, 70, 131, 124, 1, 1.2398
297, 2, bw, catch, NA, 999, 999, 1, 25, 189, 126, 125, 70, 131, 124, 2, 0.268653
297, 2, bw, attraction, a-b-da, 14, 3, 1, 26, 195, 120, 181, 111, 120, 195, 3, 1.11199
297, 2, bw, attraction, a-b-da, 14, 3, 1, 26, 195, 120, 181, 111, 120, 195, 2, 1.05024
297, 2, bw, attraction, a-b-db, 9, 3, 1, 27, 114, 186, 120, 195, 195, 120, 2, 1.10188
297, 2, bw, attraction, a-b-db, 9, 3, 1, 27, 114, 186, 120, 195, 195, 120, 1, 2.40087
297, 2, bw, attraction, a-b-db, 9, 2, 1, 28, 90, 165, 165, 90, 86, 157, 1, 1.64609
297, 2, bw, attraction, a-b-db, 9, 2, 1, 28, 90, 165, 165, 90, 86, 157, 2, 0.530754
297, 2, bw, attraction, a-b-db, 5, 3, 1, 29, 195, 120, 117, 190, 120, 195, 3, 5.37144
297, 2, bw, attraction, a-b-db, 5, 3, 1, 29, 195, 120, 117, 190, 120, 195, 1, 3.02617
297, 2, bw, attraction, a-b-da, 14, 1, 1, 30, 60, 135, 125, 56, 135, 60, 1, 2.03774
297, 2, bw, attraction, a-b-da, 14, 1, 1, 30, 60, 135, 125, 56, 135, 60, 2, 0.970485
297, 2, bw, filler, NA, 999, 999, 1, 31, 111, 88, 134, 177, 162, 87, 2, 1.22548
297, 2, bw, filler, NA, 999, 999, 1, 31, 111, 88, 134, 177, 162, 87, 1, 0.48714
297, 2, bw, filler, NA, 999, 999, 1, 32, 74, 57, 181, 195, 142, 86, 2, 0.745445
297, 2, bw, filler, NA, 999, 999, 1, 32, 74, 57, 181, 195, 142, 86, 1, 0.546606
297, 2, bw, attraction, a-b-da, 9, 2, 1, 33, 157, 86, 165, 90, 90, 165, 1, 2.4505
297, 2, bw, attraction, a-b-da, 9, 2, 1, 33, 157, 86, 165, 90, 90, 165, 2, 0.302843
297, 2, bw, filler, NA, 999, 999, 1, 34, 76, 56, 56, 127, 108, 163, 3, 0.752733
297, 2, bw, filler, NA, 999, 999, 1, 34, 76, 56, 56, 127, 108, 163, 1, 0.385764
297, 2, bw, attraction, a-b-da, 5, 3, 1, 35, 195, 120, 190, 117, 120, 195, 3, 3.92845
297, 2, bw, attraction, a-b-da, 5, 3, 1, 35, 195, 120, 190, 117, 120, 195, 2, 1.22515
297, 2, bw, filler, NA, 999, 999, 1, 36, 63, 59, 167, 57, 115, 110, 3, 0.829265
297, 2, bw, filler, NA, 999, 999, 1, 36, 63, 59, 167, 57, 115, 110, 1, 1.32326
297, 2, bw, attraction, a-b-db, 2, 1, 1, 37, 59, 134, 135, 60, 60, 135, 3, 3.91524
297, 2, bw, attraction, a-b-db, 2, 1, 1, 37, 59, 134, 135, 60, 60, 135, 2, 1.02862
297, 2, bw, attraction, a-b-da, 14, 1, 2, 1, 60, 135, 125, 56, 135, 60, 1, 6.13691
297, 2, bw, attraction, a-b-da, 14, 1, 2, 1, 60, 135, 125, 56, 135, 60, 2, 0.256958
297, 2, bw, filler, NA, 999, 999, 2, 2, 193, 169, 134, 154, 111, 65, 1, 0.716138
297, 2, bw, filler, NA, 999, 999, 2, 2, 193, 169, 134, 154, 111, 65, 3, 0.47856
297, 2, bw, attraction, a-b-da, 2, 3, 2, 3, 120, 195, 193, 119, 195, 120, 3, 4.36106
297, 2, bw, attraction, a-b-da, 2, 3, 2, 3, 120, 195, 193, 119, 195, 120, 2, 0.344329
297, 2, bw, filler, NA, 999, 999, 2, 4, 123, 147, 63, 136, 96, 61, 1, 0.832065
297, 2, bw, filler, NA, 999, 999, 2, 4, 123, 147, 63, 136, 96, 61, 3, 0.477885
297, 2, bw, attraction, a-b-db, 14, 1, 2, 5, 60, 135, 56, 125, 135, 60, 1, 2.24826
297, 2, bw, attraction, a-b-db, 14, 1, 2, 5, 60, 135, 56, 125, 135, 60, 2, 0.644869
297, 2, bw, attraction, a-b-db, 9, 3, 2, 6, 195, 120, 120, 195, 114, 186, 2, 2.52069
297, 2, bw, attraction, a-b-db, 9, 3, 2, 6, 195, 120, 120, 195, 114, 186, 1, 0.386515
297, 2, bw, attraction, a-b-db, 5, 3, 2, 7, 195, 120, 120, 195, 117, 190, 2, 4.76897
297, 2, bw, attraction, a-b-db, 5, 3, 2, 7, 195, 120, 120, 195, 117, 190, 3, 3.20016
297, 2, bw, attraction, a-b-db, 2, 3, 2, 8, 120, 195, 195, 120, 119, 193, 1, 5.2131
297, 2, bw, attraction, a-b-db, 2, 3, 2, 8, 120, 195, 195, 120, 119, 193, 2, 0.202149
297, 2, bw, filler, NA, 999, 999, 2, 9, 117, 82, 190, 137, 90, 118, 2, 0.703993
297, 2, bw, filler, NA, 999, 999, 2, 9, 117, 82, 190, 137, 90, 118, 1, 0.194411
297, 2, bw, catch, NA, 999, 999, 2, 10, 98, 97, 130, 125, 140, 175, 3, 0.872315
297, 2, bw, catch, NA, 999, 999, 2, 10, 98, 97, 130, 125, 140, 175, 1, 0.195939
297, 2, bw, catch, NA, 999, 999, 2, 11, 104, 91, 188, 127, 96, 159, 2, 0.889871
297, 2, bw, catch, NA, 999, 999, 2, 11, 104, 91, 188, 127, 96, 159, 1, 0.196964
297, 2, bw, attraction, a-b-db, 9, 2, 2, 12, 165, 90, 90, 165, 86, 157, 2, 2.27471
297, 2, bw, attraction, a-b-db, 9, 2, 2, 12, 165, 90, 90, 165, 86, 157, 3, 0.966211
297, 2, bw, attraction, a-b-db, 5, 2, 2, 13, 90, 165, 165, 90, 88, 161, 3, 1.32497
297, 2, bw, attraction, a-b-db, 5, 2, 2, 13, 90, 165, 165, 90, 88, 161, 2, 0.702581
297, 2, bw, filler, NA, 999, 999, 2, 14, 87, 116, 96, 123, 160, 118, 3, 1.10427
297, 2, bw, filler, NA, 999, 999, 2, 14, 87, 116, 96, 123, 160, 118, 1, 0.506528
297, 2, bw, attraction, a-b-da, 2, 2, 2, 15, 90, 165, 165, 90, 163, 89, 1, 2.01973
297, 2, bw, attraction, a-b-da, 2, 2, 2, 15, 90, 165, 165, 90, 163, 89, 2, 0.417666
297, 2, bw, attraction, a-b-db, 2, 1, 2, 16, 59, 134, 60, 135, 135, 60, 1, 2.30283
297, 2, bw, attraction, a-b-db, 2, 1, 2, 16, 59, 134, 60, 135, 135, 60, 2, 0.241418
297, 2, bw, attraction, a-b-da, 2, 1, 2, 17, 135, 60, 134, 59, 60, 135, 3, 3.14123
297, 2, bw, attraction, a-b-da, 2, 1, 2, 17, 135, 60, 134, 59, 60, 135, 2, 0.277625
297, 2, bw, attraction, a-b-db, 5, 1, 2, 18, 135, 60, 60, 135, 58, 132, 2, 1.39216
297, 2, bw, attraction, a-b-db, 5, 1, 2, 18, 135, 60, 60, 135, 58, 132, 1, 0.326935
297, 2, bw, attraction, a-b-da, 5, 1, 2, 19, 60, 135, 135, 60, 132, 58, 1, 2.8315
297, 2, bw, attraction, a-b-da, 5, 1, 2, 19, 60, 135, 135, 60, 132, 58, 2, 0.2126
297, 2, bw, filler, NA, 999, 999, 2, 20, 166, 105, 150, 159, 150, 173, 3, 2.96984
297, 2, bw, filler, NA, 999, 999, 2, 20, 166, 105, 150, 159, 150, 173, 1, 0.385459
297, 2, bw, attraction, a-b-da, 9, 2, 2, 21, 90, 165, 157, 86, 165, 90, 1, 6.47209
297, 2, bw, attraction, a-b-da, 9, 2, 2, 21, 90, 165, 157, 86, 165, 90, 2, 1.34655
297, 2, bw, attraction, a-b-db, 9, 1, 2, 22, 60, 135, 57, 129, 135, 60, 1, 7.56232
297, 2, bw, attraction, a-b-db, 9, 1, 2, 22, 60, 135, 57, 129, 135, 60, 3, 0.488415
297, 2, bw, attraction, a-b-db, 14, 2, 2, 23, 83, 153, 90, 165, 165, 90, 2, 2.32298
297, 2, bw, attraction, a-b-db, 14, 2, 2, 23, 83, 153, 90, 165, 165, 90, 3, 0.772076
297, 2, bw, catch, NA, 999, 999, 2, 24, 117, 138, 82, 113, 162, 153, 3, 2.49923
297, 2, bw, catch, NA, 999, 999, 2, 24, 117, 138, 82, 113, 162, 153, 2, 0.533723
297, 2, bw, filler, NA, 999, 999, 2, 25, 122, 68, 106, 193, 139, 130, 3, 3.43807
297, 2, bw, filler, NA, 999, 999, 2, 25, 122, 68, 106, 193, 139, 130, 1, 1.26707
297, 2, bw, filler, NA, 999, 999, 2, 26, 186, 114, 79, 74, 136, 60, 1, 1.03786
297, 2, bw, filler, NA, 999, 999, 2, 26, 186, 114, 79, 74, 136, 60, 2, 0.450866
297, 2, bw, attraction, a-b-da, 9, 3, 2, 27, 195, 120, 120, 195, 186, 114, 2, 4.33472
297, 2, bw, attraction, a-b-da, 9, 3, 2, 27, 195, 120, 120, 195, 186, 114, 3, 0.439348
297, 2, bw, filler, NA, 999, 999, 2, 28, 186, 138, 168, 129, 108, 188, 1, 2.14713
297, 2, bw, filler, NA, 999, 999, 2, 28, 186, 138, 168, 129, 108, 188, 2, 0.395747
297, 2, bw, attraction, a-b-db, 2, 2, 2, 29, 90, 165, 165, 90, 89, 163, 1, 2.24163
297, 2, bw, attraction, a-b-db, 2, 2, 2, 29, 90, 165, 165, 90, 89, 163, 2, 0.318096
297, 2, bw, attraction, a-b-da, 9, 1, 2, 30, 135, 60, 129, 57, 60, 135, 1, 2.59937
297, 2, bw, attraction, a-b-da, 9, 1, 2, 30, 135, 60, 129, 57, 60, 135, 3, 0.629851
297, 2, bw, attraction, a-b-da, 5, 2, 2, 31, 161, 88, 165, 90, 90, 165, 3, 2.1463
297, 2, bw, attraction, a-b-da, 5, 2, 2, 31, 161, 88, 165, 90, 90, 165, 2, 0.346848
297, 2, bw, filler, NA, 999, 999, 2, 32, 175, 182, 118, 78, 97, 173, 1, 0.842658
297, 2, bw, filler, NA, 999, 999, 2, 32, 175, 182, 118, 78, 97, 173, 2, 0.351861
297, 2, bw, filler, NA, 999, 999, 2, 33, 170, 123, 131, 66, 70, 110, 1, 1.14355
297, 2, bw, filler, NA, 999, 999, 2, 33, 170, 123, 131, 66, 70, 110, 2, 0.512526
297, 2, bw, attraction, a-b-db, 14, 3, 2, 34, 111, 181, 195, 120, 120, 195, 2, 0.921617
297, 2, bw, attraction, a-b-db, 14, 3, 2, 34, 111, 181, 195, 120, 120, 195, 1, 2.15538
297, 2, bw, attraction, a-b-da, 14, 3, 2, 35, 181, 111, 120, 195, 195, 120, 2, 3.01864
297, 2, bw, attraction, a-b-da, 14, 3, 2, 35, 181, 111, 120, 195, 195, 120, 1, 0.824282
297, 2, bw, attraction, a-b-da, 14, 2, 2, 36, 153, 83, 90, 165, 165, 90, 2, 1.82074
297, 2, bw, attraction, a-b-da, 14, 2, 2, 36, 153, 83, 90, 165, 165, 90, 1, 0.722681
297, 2, bw, attraction, a-b-da, 5, 3, 2, 37, 190, 117, 120, 195, 195, 120, 2, 1.6678
297, 2, bw, attraction, a-b-da, 5, 3, 2, 37, 190, 117, 120, 195, 195, 120, 1, 0.615924
297, 2, bw, attraction, a-b-db, 2, 1, 3, 1, 59, 134, 60, 135, 135, 60, 2, 2.72497
297, 2, bw, attraction, a-b-db, 2, 1, 3, 1, 59, 134, 60, 135, 135, 60, 3, 0.446143
297, 2, bw, attraction, a-b-db, 14, 3, 3, 2, 111, 181, 195, 120, 120, 195, 1, 1.64183
297, 2, bw, attraction, a-b-db, 14, 3, 3, 2, 111, 181, 195, 120, 120, 195, 3, 0.286715
297, 2, bw, attraction, a-b-da, 9, 1, 3, 3, 129, 57, 60, 135, 135, 60, 2, 1.63322
297, 2, bw, attraction, a-b-da, 9, 1, 3, 3, 129, 57, 60, 135, 135, 60, 1, 0.398672
297, 2, bw, filler, NA, 999, 999, 3, 4, 94, 143, 140, 165, 179, 92, 2, 1.24459
297, 2, bw, filler, NA, 999, 999, 3, 4, 94, 143, 140, 165, 179, 92, 1, 0.473485
297, 2, bw, attraction, a-b-da, 9, 3, 3, 5, 186, 114, 195, 120, 120, 195, 2, 0.875941
297, 2, bw, attraction, a-b-da, 9, 3, 3, 5, 186, 114, 195, 120, 120, 195, 1, 0.319569
297, 2, bw, filler, NA, 999, 999, 3, 6, 127, 131, 168, 115, 148, 182, 3, 0.728796
297, 2, bw, filler, NA, 999, 999, 3, 6, 127, 131, 168, 115, 148, 182, 1, 0.386476
297, 2, bw, attraction, a-b-db, 5, 3, 3, 7, 120, 195, 117, 190, 195, 120, 1, 1.21703
297, 2, bw, attraction, a-b-db, 5, 3, 3, 7, 120, 195, 117, 190, 195, 120, 2, 0.231218
297, 2, bw, filler, NA, 999, 999, 3, 8, 144, 85, 141, 170, 174, 74, 2, 1.5478
297, 2, bw, filler, NA, 999, 999, 3, 8, 144, 85, 141, 170, 174, 74, 1, 0.364645
297, 2, bw, filler, NA, 999, 999, 3, 9, 168, 56, 96, 144, 188, 184, 3, 0.99573
297, 2, bw, filler, NA, 999, 999, 3, 9, 168, 56, 96, 144, 188, 184, 2, 0.370889
297, 2, bw, attraction, a-b-db, 5, 1, 3, 10, 60, 135, 58, 132, 135, 60, 2, 4.12992
297, 2, bw, attraction, a-b-db, 5, 1, 3, 10, 60, 135, 58, 132, 135, 60, 1, 1.53862
297, 2, bw, filler, NA, 999, 999, 3, 11, 104, 56, 111, 76, 76, 193, 3, 0.970699
297, 2, bw, filler, NA, 999, 999, 3, 11, 104, 56, 111, 76, 76, 193, 1, 0.578332
297, 2, bw, attraction, a-b-da, 5, 3, 3, 12, 195, 120, 120, 195, 190, 117, 2, 0.912809
297, 2, bw, attraction, a-b-da, 5, 3, 3, 12, 195, 120, 120, 195, 190, 117, 3, 0.283119
297, 2, bw, attraction, a-b-da, 14, 3, 3, 13, 120, 195, 195, 120, 181, 111, 1, 1.03783
297, 2, bw, attraction, a-b-da, 14, 3, 3, 13, 120, 195, 195, 120, 181, 111, 3, 0.54679
297, 2, bw, attraction, a-b-da, 5, 1, 3, 14, 60, 135, 135, 60, 132, 58, 1, 1.98644
297, 2, bw, attraction, a-b-da, 5, 1, 3, 14, 60, 135, 135, 60, 132, 58, 3, 0.553821
297, 2, bw, filler, NA, 999, 999, 3, 15, 74, 126, 164, 147, 190, 76, 2, 0.625686
297, 2, bw, filler, NA, 999, 999, 3, 15, 74, 126, 164, 147, 190, 76, 1, 0.40739
297, 2, bw, attraction, a-b-da, 9, 2, 3, 16, 90, 165, 165, 90, 157, 86, 1, 1.46054
297, 2, bw, attraction, a-b-da, 9, 2, 3, 16, 90, 165, 165, 90, 157, 86, 3, 0.280721
297, 2, bw, filler, NA, 999, 999, 3, 17, 131, 128, 166, 73, 146, 134, 3, 1.08321
297, 2, bw, filler, NA, 999, 999, 3, 17, 131, 128, 166, 73, 146, 134, 2, 0.686895
297, 2, bw, catch, NA, 999, 999, 3, 18, 132, 123, 63, 132, 188, 127, 3, 1.04926
297, 2, bw, catch, NA, 999, 999, 3, 18, 132, 123, 63, 132, 188, 127, 2, 0.590239
297, 2, bw, catch, NA, 999, 999, 3, 19, 79, 116, 153, 162, 104, 151, 2, 0.796001
297, 2, bw, catch, NA, 999, 999, 3, 19, 79, 116, 153, 162, 104, 151, 1, 0.315135
297, 2, bw, attraction, a-b-db, 14, 1, 3, 20, 56, 125, 60, 135, 135, 60, 3, 2.77221
297, 2, bw, attraction, a-b-db, 14, 1, 3, 20, 56, 125, 60, 135, 135, 60, 2, 0.267315
297, 2, bw, attraction, a-b-db, 14, 2, 3, 21, 90, 165, 83, 153, 165, 90, 1, 2.71849
297, 2, bw, attraction, a-b-db, 14, 2, 3, 21, 90, 165, 83, 153, 165, 90, 2, 0.592283
297, 2, bw, attraction, a-b-da, 2, 2, 3, 22, 165, 90, 163, 89, 90, 165, 3, 2.23799
297, 2, bw, attraction, a-b-da, 2, 2, 3, 22, 165, 90, 163, 89, 90, 165, 2, 0.39463
297, 2, bw, attraction, a-b-da, 5, 2, 3, 23, 165, 90, 161, 88, 90, 165, 3, 2.31252
297, 2, bw, attraction, a-b-da, 5, 2, 3, 23, 165, 90, 161, 88, 90, 165, 2, 0.554365
297, 2, bw, filler, NA, 999, 999, 3, 24, 173, 85, 144, 125, 121, 67, 2, 0.946192
297, 2, bw, filler, NA, 999, 999, 3, 24, 173, 85, 144, 125, 121, 67, 3, 0.69119
297, 2, bw, filler, NA, 999, 999, 3, 25, 185, 87, 99, 131, 60, 162, 1, 1.06891
297, 2, bw, filler, NA, 999, 999, 3, 25, 185, 87, 99, 131, 60, 162, 3, 1.58525
297, 2, bw, attraction, a-b-da, 2, 3, 3, 26, 193, 119, 120, 195, 195, 120, 3, 5.2073
297, 2, bw, attraction, a-b-da, 2, 3, 3, 26, 193, 119, 120, 195, 195, 120, 2, 0.724331
297, 2, bw, attraction, a-b-db, 2, 2, 3, 27, 90, 165, 89, 163, 165, 90, 3, 6.45276
297, 2, bw, attraction, a-b-db, 2, 2, 3, 27, 90, 165, 89, 163, 165, 90, 2, 0.327922
297, 2, bw, filler, NA, 999, 999, 3, 28, 124, 73, 160, 189, 119, 89, 2, 0.680483
297, 2, bw, filler, NA, 999, 999, 3, 28, 124, 73, 160, 189, 119, 89, 1, 2.34037
297, 2, bw, attraction, a-b-db, 9, 3, 3, 29, 120, 195, 114, 186, 195, 120, 3, 9.09147
297, 2, bw, attraction, a-b-db, 9, 3, 3, 29, 120, 195, 114, 186, 195, 120, 2, 0.339887
297, 2, bw, attraction, a-b-db, 2, 3, 3, 30, 119, 193, 120, 195, 195, 120, 1, 3.51579
297, 2, bw, attraction, a-b-db, 2, 3, 3, 30, 119, 193, 120, 195, 195, 120, 2, 0.981297
297, 2, bw, attraction, a-b-db, 9, 2, 3, 31, 90, 165, 86, 157, 165, 90, 1, 3.86767
297, 2, bw, attraction, a-b-db, 9, 2, 3, 31, 90, 165, 86, 157, 165, 90, 2, 0.98309
297, 2, bw, attraction, a-b-db, 5, 2, 3, 32, 165, 90, 90, 165, 88, 161, 1, 3.14132
297, 2, bw, attraction, a-b-db, 5, 2, 3, 32, 165, 90, 90, 165, 88, 161, 2, 1.0377
297, 2, bw, attraction, a-b-da, 14, 2, 3, 33, 153, 83, 90, 165, 165, 90, 2, 1.91391
297, 2, bw, attraction, a-b-da, 14, 2, 3, 33, 153, 83, 90, 165, 165, 90, 3, 0.244095
297, 2, bw, attraction, a-b-db, 9, 1, 3, 34, 135, 60, 57, 129, 60, 135, 1, 2.77585
297, 2, bw, attraction, a-b-db, 9, 1, 3, 34, 135, 60, 57, 129, 60, 135, 2, 0.311071
297, 2, bw, catch, NA, 999, 999, 3, 35, 155, 100, 117, 78, 131, 184, 3, 0.82416
297, 2, bw, catch, NA, 999, 999, 3, 35, 155, 100, 117, 78, 131, 184, 2, 0.365891
297, 2, bw, attraction, a-b-da, 2, 1, 3, 36, 60, 135, 134, 59, 135, 60, 3, 1.54109
297, 2, bw, attraction, a-b-da, 2, 1, 3, 36, 60, 135, 134, 59, 135, 60, 1, 0.301798
297, 2, bw, attraction, a-b-da, 14, 1, 3, 37, 125, 56, 60, 135, 135, 60, 3, 0.943656
297, 2, bw, attraction, a-b-da, 14, 1, 3, 37, 125, 56, 60, 135, 135, 60, 2, 0.264744
297, 2, bw, attraction, a-b-db, 5, 1, 4, 1, 58, 132, 135, 60, 60, 135, 3, 2.40393
297, 2, bw, attraction, a-b-db, 5, 1, 4, 1, 58, 132, 135, 60, 60, 135, 2, 0.410458
297, 2, bw, attraction, a-b-da, 2, 3, 4, 2, 120, 195, 195, 120, 193, 119, 1, 2.11163
297, 2, bw, attraction, a-b-da, 2, 3, 4, 2, 120, 195, 195, 120, 193, 119, 2, 0.225558
297, 2, bw, attraction, a-b-da, 9, 3, 4, 3, 186, 114, 195, 120, 120, 195, 3, 1.75812
297, 2, bw, attraction, a-b-da, 9, 3, 4, 3, 186, 114, 195, 120, 120, 195, 2, 0.334222
297, 2, bw, attraction, a-b-da, 2, 2, 4, 4, 90, 165, 163, 89, 165, 90, 1, 3.03873
297, 2, bw, attraction, a-b-da, 2, 2, 4, 4, 90, 165, 163, 89, 165, 90, 2, 0.243012
297, 2, bw, filler, NA, 999, 999, 4, 5, 76, 86, 65, 130, 100, 70, 2, 3.75093
297, 2, bw, filler, NA, 999, 999, 4, 5, 76, 86, 65, 130, 100, 70, 1, 0.615033
297, 2, bw, filler, NA, 999, 999, 4, 6, 121, 153, 66, 93, 59, 67, 1, 0.868102
297, 2, bw, filler, NA, 999, 999, 4, 6, 121, 153, 66, 93, 59, 67, 3, 0.360493
297, 2, bw, filler, NA, 999, 999, 4, 7, 126, 157, 94, 163, 180, 114, 3, 3.82379
297, 2, bw, filler, NA, 999, 999, 4, 7, 126, 157, 94, 163, 180, 114, 2, 0.284501
297, 2, bw, attraction, a-b-db, 5, 3, 4, 8, 195, 120, 117, 190, 120, 195, 2, 8.67907
297, 2, bw, attraction, a-b-db, 5, 3, 4, 8, 195, 120, 117, 190, 120, 195, 1, 0.392296
297, 2, bw, attraction, a-b-da, 9, 2, 4, 9, 157, 86, 165, 90, 90, 165, 3, 2.07009
297, 2, bw, attraction, a-b-da, 9, 2, 4, 9, 157, 86, 165, 90, 90, 165, 2, 0.273423
297, 2, bw, attraction, a-b-db, 9, 3, 4, 10, 195, 120, 114, 186, 120, 195, 1, 2.21194
297, 2, bw, attraction, a-b-db, 9, 3, 4, 10, 195, 120, 114, 186, 120, 195, 2, 0.449956
297, 2, bw, catch, NA, 999, 999, 4, 11, 99, 156, 184, 131, 68, 127, 2, 1.2057
297, 2, bw, catch, NA, 999, 999, 4, 11, 99, 156, 184, 131, 68, 127, 3, 0.387949
297, 2, bw, attraction, a-b-db, 2, 2, 4, 12, 165, 90, 89, 163, 90, 165, 1, 1.81039
297, 2, bw, attraction, a-b-db, 2, 2, 4, 12, 165, 90, 89, 163, 90, 165, 2, 0.480436
297, 2, bw, filler, NA, 999, 999, 4, 13, 95, 150, 121, 127, 67, 133, 2, 2.26698
297, 2, bw, filler, NA, 999, 999, 4, 13, 95, 150, 121, 127, 67, 133, 3, 0.334834
297, 2, bw, filler, NA, 999, 999, 4, 14, 116, 169, 190, 101, 61, 113, 1, 2.90337
297, 2, bw, filler, NA, 999, 999, 4, 14, 116, 169, 190, 101, 61, 113, 3, 0.505775
297, 2, bw, attraction, a-b-da, 14, 1, 4, 15, 135, 60, 125, 56, 60, 135, 3, 1.14757
297, 2, bw, attraction, a-b-da, 14, 1, 4, 15, 135, 60, 125, 56, 60, 135, 2, 0.596541
297, 2, bw, attraction, a-b-db, 2, 3, 4, 16, 195, 120, 119, 193, 120, 195, 1, 1.50636
297, 2, bw, attraction, a-b-db, 2, 3, 4, 16, 195, 120, 119, 193, 120, 195, 2, 0.460358
297, 2, bw, filler, NA, 999, 999, 4, 17, 60, 152, 156, 73, 137, 78, 3, 1.48756
297, 2, bw, filler, NA, 999, 999, 4, 17, 60, 152, 156, 73, 137, 78, 1, 0.282401
297, 2, bw, filler, NA, 999, 999, 4, 18, 159, 71, 73, 70, 101, 182, 3, 0.844932
297, 2, bw, filler, NA, 999, 999, 4, 18, 159, 71, 73, 70, 101, 182, 2, 0.249948
297, 2, bw, attraction, a-b-db, 2, 1, 4, 19, 135, 60, 60, 135, 59, 134, 1, 0.989761
297, 2, bw, attraction, a-b-db, 2, 1, 4, 19, 135, 60, 60, 135, 59, 134, 2, 0.604791
297, 2, bw, attraction, a-b-da, 9, 1, 4, 20, 60, 135, 129, 57, 135, 60, 3, 0.898579
297, 2, bw, attraction, a-b-da, 9, 1, 4, 20, 60, 135, 129, 57, 135, 60, 2, 0.325619
297, 2, bw, filler, NA, 999, 999, 4, 21, 84, 58, 80, 157, 65, 106, 2, 0.846222
297, 2, bw, filler, NA, 999, 999, 4, 21, 84, 58, 80, 157, 65, 106, 1, 0.403172
297, 2, bw, attraction, a-b-db, 9, 1, 4, 22, 57, 129, 135, 60, 60, 135, 3, 1.25705
297, 2, bw, attraction, a-b-db, 9, 1, 4, 22, 57, 129, 135, 60, 60, 135, 2, 0.269282
297, 2, bw, attraction, a-b-db, 14, 3, 4, 23, 120, 195, 195, 120, 111, 181, 1, 1.54441
297, 2, bw, attraction, a-b-db, 14, 3, 4, 23, 120, 195, 195, 120, 111, 181, 2, 0.273211
297, 2, bw, attraction, a-b-da, 14, 3, 4, 24, 195, 120, 120, 195, 181, 111, 1, 2.69178
297, 2, bw, attraction, a-b-da, 14, 3, 4, 24, 195, 120, 120, 195, 181, 111, 2, 0.254207
297, 2, bw, filler, NA, 999, 999, 4, 25, 148, 91, 152, 56, 113, 181, 3, 1.44207
297, 2, bw, filler, NA, 999, 999, 4, 25, 148, 91, 152, 56, 113, 181, 2, 0.302918
297, 2, bw, attraction, a-b-db, 5, 2, 4, 26, 90, 165, 165, 90, 88, 161, 1, 2.28874
297, 2, bw, attraction, a-b-db, 5, 2, 4, 26, 90, 165, 165, 90, 88, 161, 2, 0.259539
297, 2, bw, attraction, a-b-da, 2, 1, 4, 27, 134, 59, 135, 60, 60, 135, 3, 2.18258
297, 2, bw, attraction, a-b-da, 2, 1, 4, 27, 134, 59, 135, 60, 60, 135, 2, 0.653856
297, 2, bw, attraction, a-b-da, 14, 2, 4, 28, 153, 83, 90, 165, 165, 90, 2, 1.41759
297, 2, bw, attraction, a-b-da, 14, 2, 4, 28, 153, 83, 90, 165, 165, 90, 1, 0.287781
297, 2, bw, catch, NA, 999, 999, 4, 29, 142, 113, 103, 92, 188, 127, 3, 1.83437
297, 2, bw, catch, NA, 999, 999, 4, 29, 142, 113, 103, 92, 188, 127, 2, 0.567724
297, 2, bw, attraction, a-b-db, 14, 2, 4, 30, 83, 153, 90, 165, 165, 90, 2, 4.15095
297, 2, bw, attraction, a-b-db, 14, 2, 4, 30, 83, 153, 90, 165, 165, 90, 1, 2.71084
297, 2, bw, attraction, a-b-da, 5, 1, 4, 31, 132, 58, 60, 135, 135, 60, 3, 1.55924
297, 2, bw, attraction, a-b-da, 5, 1, 4, 31, 132, 58, 60, 135, 135, 60, 2, 0.239486
297, 2, bw, attraction, a-b-db, 9, 2, 4, 32, 86, 157, 90, 165, 165, 90, 3, 2.73125
297, 2, bw, attraction, a-b-db, 9, 2, 4, 32, 86, 157, 90, 165, 165, 90, 2, 0.228331
297, 2, bw, filler, NA, 999, 999, 4, 33, 77, 146, 69, 72, 80, 173, 3, 1.42489
297, 2, bw, filler, NA, 999, 999, 4, 33, 77, 146, 69, 72, 80, 173, 2, 0.518404
297, 2, bw, attraction, a-b-da, 5, 3, 4, 34, 195, 120, 120, 195, 190, 117, 1, 2.71951
297, 2, bw, attraction, a-b-da, 5, 3, 4, 34, 195, 120, 120, 195, 190, 117, 2, 0.233299
297, 2, bw, attraction, a-b-db, 14, 1, 4, 35, 135, 60, 60, 135, 56, 125, 1, 0.901979
297, 2, bw, attraction, a-b-db, 14, 1, 4, 35, 135, 60, 60, 135, 56, 125, 2, 0.248967
297, 2, bw, attraction, a-b-da, 5, 2, 4, 36, 161, 88, 90, 165, 165, 90, 1, 1.31678
297, 2, bw, attraction, a-b-da, 5, 2, 4, 36, 161, 88, 90, 165, 165, 90, 2, 0.239035
297, 2, bw, catch, NA, 999, 999, 4, 37, 186, 129, 102, 93, 104, 151, 1, 0.851615
297, 2, bw, catch, NA, 999, 999, 4, 37, 186, 129, 102, 93, 104, 151, 2, 0.24073
297, 2, bw, attraction, a-b-da, 2, 1, 5, 1, 134, 59, 60, 135, 135, 60, 3, 3.92305
297, 2, bw, attraction, a-b-da, 2, 1, 5, 1, 134, 59, 60, 135, 135, 60, 2, 0.707895
297, 2, bw, attraction, a-b-db, 14, 3, 5, 2, 111, 181, 195, 120, 120, 195, 3, 2.10888
297, 2, bw, attraction, a-b-db, 14, 3, 5, 2, 111, 181, 195, 120, 120, 195, 1, 1.14284
297, 2, bw, attraction, a-b-db, 5, 1, 5, 3, 135, 60, 58, 132, 60, 135, 3, 2.77444
297, 2, bw, attraction, a-b-db, 5, 1, 5, 3, 135, 60, 58, 132, 60, 135, 1, 0.629456
297, 2, bw, attraction, a-b-da, 14, 1, 5, 4, 60, 135, 135, 60, 125, 56, 1, 2.80201
297, 2, bw, attraction, a-b-da, 14, 1, 5, 4, 60, 135, 135, 60, 125, 56, 2, 0.600488
297, 2, bw, filler, NA, 999, 999, 5, 5, 155, 145, 93, 117, 159, 168, 3, 1.31017
297, 2, bw, filler, NA, 999, 999, 5, 5, 155, 145, 93, 117, 159, 168, 2, 1.03238
297, 2, bw, attraction, a-b-db, 14, 1, 5, 6, 60, 135, 56, 125, 135, 60, 1, 2.46069
297, 2, bw, attraction, a-b-db, 14, 1, 5, 6, 60, 135, 56, 125, 135, 60, 2, 0.640516
297, 2, bw, attraction, a-b-da, 5, 2, 5, 7, 90, 165, 165, 90, 161, 88, 3, 5.00428
297, 2, bw, attraction, a-b-da, 5, 2, 5, 7, 90, 165, 165, 90, 161, 88, 2, 0.321923
297, 2, bw, filler, NA, 999, 999, 5, 8, 83, 133, 156, 173, 123, 175, 2, 1.49132
297, 2, bw, filler, NA, 999, 999, 5, 8, 83, 133, 156, 173, 123, 175, 1, 0.30205
297, 2, bw, attraction, a-b-db, 2, 1, 5, 9, 59, 134, 60, 135, 135, 60, 1, 4.32787
297, 2, bw, attraction, a-b-db, 2, 1, 5, 9, 59, 134, 60, 135, 135, 60, 2, 0.496421
297, 2, bw, attraction, a-b-da, 5, 3, 5, 10, 190, 117, 120, 195, 195, 120, 2, 3.57035
297, 2, bw, attraction, a-b-da, 5, 3, 5, 10, 190, 117, 120, 195, 195, 120, 1, 0.489754
297, 2, bw, catch, NA, 999, 999, 5, 11, 101, 154, 91, 104, 137, 178, 3, 1.11561
297, 2, bw, catch, NA, 999, 999, 5, 11, 101, 154, 91, 104, 137, 178, 2, 0.22188
297, 2, bw, attraction, a-b-da, 9, 2, 5, 12, 165, 90, 157, 86, 90, 165, 3, 3.17113
297, 2, bw, attraction, a-b-da, 9, 2, 5, 12, 165, 90, 157, 86, 90, 165, 2, 0.562685
297, 2, bw, attraction, a-b-da, 9, 3, 5, 13, 120, 195, 186, 114, 195, 120, 3, 6.73798
297, 2, bw, attraction, a-b-da, 9, 3, 5, 13, 120, 195, 186, 114, 195, 120, 2, 0.281749
297, 2, bw, attraction, a-b-da, 9, 1, 5, 14, 135, 60, 60, 135, 129, 57, 1, 6.24428
297, 2, bw, attraction, a-b-da, 9, 1, 5, 14, 135, 60, 60, 135, 129, 57, 3, 0.343614
297, 2, bw, filler, NA, 999, 999, 5, 15, 85, 194, 143, 185, 121, 191, 2, 5.45542
297, 2, bw, filler, NA, 999, 999, 5, 15, 85, 194, 143, 185, 121, 191, 1, 0.730342
297, 2, bw, attraction, a-b-da, 14, 2, 5, 16, 165, 90, 90, 165, 153, 83, 1, 2.59474
297, 2, bw, attraction, a-b-da, 14, 2, 5, 16, 165, 90, 90, 165, 153, 83, 2, 0.401206
297, 2, bw, filler, NA, 999, 999, 5, 17, 102, 104, 95, 167, 85, 168, 2, 7.36728
297, 2, bw, filler, NA, 999, 999, 5, 17, 102, 104, 95, 167, 85, 168, 1, 1.40532
297, 2, bw, attraction, a-b-db, 2, 3, 5, 18, 119, 193, 195, 120, 120, 195, 3, 8.21895
297, 2, bw, attraction, a-b-db, 2, 3, 5, 18, 119, 193, 195, 120, 120, 195, 2, 1.92698
297, 2, bw, attraction, a-b-da, 14, 3, 5, 19, 181, 111, 195, 120, 120, 195, 3, 4.49503
297, 2, bw, attraction, a-b-da, 14, 3, 5, 19, 181, 111, 195, 120, 120, 195, 1, 0.824888
297, 2, bw, filler, NA, 999, 999, 5, 20, 72, 164, 170, 90, 107, 125, 3, 4.82931
297, 2, bw, filler, NA, 999, 999, 5, 20, 72, 164, 170, 90, 107, 125, 2, 0.825686
297, 2, bw, attraction, a-b-db, 9, 3, 5, 21, 120, 195, 114, 186, 195, 120, 1, 2.87009
297, 2, bw, attraction, a-b-db, 9, 3, 5, 21, 120, 195, 114, 186, 195, 120, 2, 0.865791
297, 2, bw, attraction, a-b-da, 2, 3, 5, 22, 193, 119, 195, 120, 120, 195, 2, 2.95682
297, 2, bw, attraction, a-b-da, 2, 3, 5, 22, 193, 119, 195, 120, 120, 195, 3, 0.308528
297, 2, bw, attraction, a-b-db, 9, 1, 5, 23, 135, 60, 60, 135, 57, 129, 1, 2.86164
297, 2, bw, attraction, a-b-db, 9, 1, 5, 23, 135, 60, 60, 135, 57, 129, 2, 0.961489
297, 2, bw, attraction, a-b-db, 9, 2, 5, 24, 165, 90, 86, 157, 90, 165, 1, 1.86439
297, 2, bw, attraction, a-b-db, 9, 2, 5, 24, 165, 90, 86, 157, 90, 165, 2, 0.228487
297, 2, bw, catch, NA, 999, 999, 5, 25, 140, 175, 165, 90, 135, 60, 1, 3.32105
297, 2, bw, catch, NA, 999, 999, 5, 25, 140, 175, 165, 90, 135, 60, 3, 0.489944
297, 2, bw, attraction, a-b-da, 2, 2, 5, 26, 163, 89, 90, 165, 165, 90, 3, 2.28374
297, 2, bw, attraction, a-b-da, 2, 2, 5, 26, 163, 89, 90, 165, 165, 90, 1, 1.13495
297, 2, bw, filler, NA, 999, 999, 5, 27, 111, 71, 126, 96, 119, 161, 3, 1.44715
297, 2, bw, filler, NA, 999, 999, 5, 27, 111, 71, 126, 96, 119, 161, 1, 0.356011
297, 2, bw, attraction, a-b-db, 14, 2, 5, 28, 165, 90, 83, 153, 90, 165, 3, 5.48325
297, 2, bw, attraction, a-b-db, 14, 2, 5, 28, 165, 90, 83, 153, 90, 165, 2, 0.869521
297, 2, bw, filler, NA, 999, 999, 5, 29, 86, 153, 66, 165, 63, 158, 1, 1.5205
297, 2, bw, filler, NA, 999, 999, 5, 29, 86, 153, 66, 165, 63, 158, 2, 0.602096
297, 2, bw, filler, NA, 999, 999, 5, 30, 110, 89, 103, 69, 136, 160, 3, 0.959764
297, 2, bw, filler, NA, 999, 999, 5, 30, 110, 89, 103, 69, 136, 160, 2, 0.416092
297, 2, bw, attraction, a-b-da, 5, 1, 5, 31, 132, 58, 60, 135, 135, 60, 3, 6.25346
297, 2, bw, attraction, a-b-da, 5, 1, 5, 31, 132, 58, 60, 135, 135, 60, 1, 0.656633
297, 2, bw, attraction, a-b-db, 5, 3, 5, 32, 120, 195, 117, 190, 195, 120, 1, 5.23566
297, 2, bw, attraction, a-b-db, 5, 3, 5, 32, 120, 195, 117, 190, 195, 120, 3, 0.288074
297, 2, bw, filler, NA, 999, 999, 5, 33, 62, 82, 60, 143, 74, 152, 3, 1.25057
297, 2, bw, filler, NA, 999, 999, 5, 33, 62, 82, 60, 143, 74, 152, 1, 0.847394
297, 2, bw, attraction, a-b-db, 5, 2, 5, 34, 90, 165, 88, 161, 165, 90, 1, 6.80317
297, 2, bw, attraction, a-b-db, 5, 2, 5, 34, 90, 165, 88, 161, 165, 90, 3, 0.664209
297, 2, bw, attraction, a-b-db, 2, 2, 5, 35, 90, 165, 89, 163, 165, 90, 2, 4.68334
297, 2, bw, attraction, a-b-db, 2, 2, 5, 35, 90, 165, 89, 163, 165, 90, 3, 2.52593
297, 2, bw, filler, NA, 999, 999, 5, 36, 174, 98, 74, 112, 137, 74, 1, 1.01366
297, 2, bw, filler, NA, 999, 999, 5, 36, 174, 98, 74, 112, 137, 74, 2, 0.555995
297, 2, bw, catch, NA, 999, 999, 5, 37, 66, 129, 182, 133, 117, 138, 2, 2.40385
297, 2, bw, catch, NA, 999, 999, 5, 37, 66, 129, 182, 133, 117, 138, 1, 0.385703
297, 2, bw, attraction, a-b-da, 9, 2, 6, 1, 157, 86, 165, 90, 90, 165, 3, 5.43216
297, 2, bw, attraction, a-b-da, 9, 2, 6, 1, 157, 86, 165, 90, 90, 165, 2, 0.220427
297, 2, bw, filler, NA, 999, 999, 6, 2, 155, 187, 87, 147, 56, 132, 1, 0.857632
297, 2, bw, filler, NA, 999, 999, 6, 2, 155, 187, 87, 147, 56, 132, 3, 0.390035
297, 2, bw, filler, NA, 999, 999, 6, 3, 175, 94, 64, 104, 171, 139, 3, 1.17983
297, 2, bw, filler, NA, 999, 999, 6, 3, 175, 94, 64, 104, 171, 139, 2, 0.363594
297, 2, bw, attraction, a-b-da, 14, 3, 6, 4, 181, 111, 120, 195, 195, 120, 2, 7.53063
297, 2, bw, attraction, a-b-da, 14, 3, 6, 4, 181, 111, 120, 195, 195, 120, 1, 0.338197
297, 2, bw, filler, NA, 999, 999, 6, 5, 184, 178, 142, 128, 76, 108, 1, 0.794785
297, 2, bw, filler, NA, 999, 999, 6, 5, 184, 178, 142, 128, 76, 108, 3, 0.28975
297, 2, bw, attraction, a-b-da, 5, 2, 6, 6, 90, 165, 161, 88, 165, 90, 3, 6.52362
297, 2, bw, attraction, a-b-da, 5, 2, 6, 6, 90, 165, 161, 88, 165, 90, 2, 0.227564
297, 2, bw, filler, NA, 999, 999, 6, 7, 162, 183, 61, 82, 126, 108, 1, 1.23209
297, 2, bw, filler, NA, 999, 999, 6, 7, 162, 183, 61, 82, 126, 108, 2, 0.645696
297, 2, bw, attraction, a-b-da, 9, 3, 6, 8, 195, 120, 120, 195, 186, 114, 2, 4.18544
297, 2, bw, attraction, a-b-da, 9, 3, 6, 8, 195, 120, 120, 195, 186, 114, 3, 0.496096
297, 2, bw, attraction, a-b-db, 9, 1, 6, 9, 60, 135, 57, 129, 135, 60, 3, 3.45792
297, 2, bw, attraction, a-b-db, 9, 1, 6, 9, 60, 135, 57, 129, 135, 60, 2, 0.533432
297, 2, bw, attraction, a-b-da, 2, 2, 6, 10, 90, 165, 163, 89, 165, 90, 1, 3.92604
297, 2, bw, attraction, a-b-da, 2, 2, 6, 10, 90, 165, 163, 89, 165, 90, 2, 0.310752
297, 2, bw, filler, NA, 999, 999, 6, 11, 127, 80, 75, 121, 134, 172, 3, 1.16781
297, 2, bw, filler, NA, 999, 999, 6, 11, 127, 80, 75, 121, 134, 172, 1, 3.34418
297, 2, bw, attraction, a-b-da, 5, 1, 6, 12, 60, 135, 132, 58, 135, 60, 1, 5.65493
297, 2, bw, attraction, a-b-da, 5, 1, 6, 12, 60, 135, 132, 58, 135, 60, 3, 0.450532
297, 2, bw, attraction, a-b-db, 9, 2, 6, 13, 86, 157, 165, 90, 90, 165, 3, 4.79837
297, 2, bw, attraction, a-b-db, 9, 2, 6, 13, 86, 157, 165, 90, 90, 165, 2, 1.67616
297, 2, bw, catch, NA, 999, 999, 6, 14, 90, 165, 133, 62, 169, 146, 3, 1.75828
297, 2, bw, catch, NA, 999, 999, 6, 14, 90, 165, 133, 62, 169, 146, 2, 0.382294
297, 2, bw, catch, NA, 999, 999, 6, 15, 141, 174, 63, 132, 142, 113, 1, 1.70088
297, 2, bw, catch, NA, 999, 999, 6, 15, 141, 174, 63, 132, 142, 113, 2, 0.503526
297, 2, bw, attraction, a-b-db, 14, 3, 6, 16, 120, 195, 111, 181, 195, 120, 3, 4.80934
297, 2, bw, attraction, a-b-db, 14, 3, 6, 16, 120, 195, 111, 181, 195, 120, 2, 1.3905
297, 2, bw, attraction, a-b-da, 2, 1, 6, 17, 135, 60, 60, 135, 134, 59, 1, 8.41197
297, 2, bw, attraction, a-b-da, 2, 1, 6, 17, 135, 60, 60, 135, 134, 59, 2, 0.911985
297, 2, bw, filler, NA, 999, 999, 6, 18, 138, 87, 142, 181, 107, 114, 2, 1.38491
297, 2, bw, filler, NA, 999, 999, 6, 18, 138, 87, 142, 181, 107, 114, 1, 2.24859
297, 2, bw, attraction, a-b-db, 5, 2, 6, 19, 88, 161, 90, 165, 165, 90, 1, 3.27578
297, 2, bw, attraction, a-b-db, 5, 2, 6, 19, 88, 161, 90, 165, 165, 90, 3, 0.462705
297, 2, bw, attraction, a-b-db, 9, 3, 6, 20, 195, 120, 114, 186, 120, 195, 3, 2.01795
297, 2, bw, attraction, a-b-db, 9, 3, 6, 20, 195, 120, 114, 186, 120, 195, 2, 0.231836
297, 2, bw, attraction, a-b-db, 5, 3, 6, 21, 117, 190, 120, 195, 195, 120, 3, 3.45235
297, 2, bw, attraction, a-b-db, 5, 3, 6, 21, 117, 190, 120, 195, 195, 120, 1, 0.392699
297, 2, bw, attraction, a-b-da, 14, 1, 6, 22, 60, 135, 135, 60, 125, 56, 1, 3.51844
297, 2, bw, attraction, a-b-da, 14, 1, 6, 22, 60, 135, 135, 60, 125, 56, 3, 0.807957
297, 2, bw, attraction, a-b-db, 5, 1, 6, 23, 135, 60, 58, 132, 60, 135, 3, 1.66096
297, 2, bw, attraction, a-b-db, 5, 1, 6, 23, 135, 60, 58, 132, 60, 135, 2, 0.369134
297, 2, bw, filler, NA, 999, 999, 6, 24, 163, 67, 176, 138, 101, 177, 2, 0.800248
297, 2, bw, filler, NA, 999, 999, 6, 24, 163, 67, 176, 138, 101, 177, 1, 0.263368
297, 2, bw, attraction, a-b-da, 2, 3, 6, 25, 120, 195, 195, 120, 193, 119, 1, 3.20249
297, 2, bw, attraction, a-b-da, 2, 3, 6, 25, 120, 195, 195, 120, 193, 119, 2, 0.208785
297, 2, bw, attraction, a-b-db, 2, 1, 6, 26, 135, 60, 60, 135, 59, 134, 3, 2.80603
297, 2, bw, attraction, a-b-db, 2, 1, 6, 26, 135, 60, 60, 135, 59, 134, 1, 0.955894
297, 2, bw, filler, NA, 999, 999, 6, 27, 139, 178, 75, 158, 126, 173, 1, 1.69139
297, 2, bw, filler, NA, 999, 999, 6, 27, 139, 178, 75, 158, 126, 173, 2, 0.246209
297, 2, bw, filler, NA, 999, 999, 6, 28, 141, 70, 68, 161, 90, 175, 3, 1.07411
297, 2, bw, filler, NA, 999, 999, 6, 28, 141, 70, 68, 161, 90, 175, 1, 0.837727
297, 2, bw, attraction, a-b-da, 9, 1, 6, 29, 60, 135, 135, 60, 129, 57, 3, 1.85804
297, 2, bw, attraction, a-b-da, 9, 1, 6, 29, 60, 135, 135, 60, 129, 57, 2, 0.270278
297, 2, bw, attraction, a-b-db, 14, 1, 6, 30, 135, 60, 56, 125, 60, 135, 3, 2.84947
297, 2, bw, attraction, a-b-db, 14, 1, 6, 30, 135, 60, 56, 125, 60, 135, 2, 1.22971
297, 2, bw, filler, NA, 999, 999, 6, 31, 191, 105, 60, 74, 104, 173, 3, 2.51393
297, 2, bw, filler, NA, 999, 999, 6, 31, 191, 105, 60, 74, 104, 173, 2, 0.331883
297, 2, bw, attraction, a-b-db, 14, 2, 6, 32, 83, 153, 90, 165, 165, 90, 2, 1.75637
297, 2, bw, attraction, a-b-db, 14, 2, 6, 32, 83, 153, 90, 165, 165, 90, 3, 0.340504
297, 2, bw, attraction, a-b-da, 5, 3, 6, 33, 120, 195, 190, 117, 195, 120, 1, 5.43633
297, 2, bw, attraction, a-b-da, 5, 3, 6, 33, 120, 195, 190, 117, 195, 120, 2, 0.256493
297, 2, bw, attraction, a-b-da, 14, 2, 6, 34, 90, 165, 153, 83, 165, 90, 1, 2.48366
297, 2, bw, attraction, a-b-da, 14, 2, 6, 34, 90, 165, 153, 83, 165, 90, 3, 3.49492
297, 2, bw, attraction, a-b-db, 2, 3, 6, 35, 119, 193, 195, 120, 120, 195, 3, 5.01587
297, 2, bw, attraction, a-b-db, 2, 3, 6, 35, 119, 193, 195, 120, 120, 195, 2, 0.468863
297, 2, bw, attraction, a-b-db, 2, 2, 6, 36, 90, 165, 89, 163, 165, 90, 2, 19.3839
297, 2, bw, attraction, a-b-db, 2, 2, 6, 36, 90, 165, 89, 163, 165, 90, 3, 0.585994
297, 2, bw, catch, NA, 999, 999, 6, 37, 189, 126, 102, 93, 146, 109, 1, 2.18426
297, 2, bw, catch, NA, 999, 999, 6, 37, 189, 126, 102, 93, 146, 109, 2, 0.495584
297, 2, bw, attraction, a-b-da, 9, 1, 7, 1, 135, 60, 129, 57, 60, 135, 1, 6.35347
297, 2, bw, attraction, a-b-da, 9, 1, 7, 1, 135, 60, 129, 57, 60, 135, 2, 0.304655
297, 2, bw, attraction, a-b-da, 2, 3, 7, 2, 120, 195, 195, 120, 193, 119, 1, 3.41873
297, 2, bw, attraction, a-b-da, 2, 3, 7, 2, 120, 195, 195, 120, 193, 119, 2, 0.296171
297, 2, bw, attraction, a-b-db, 2, 2, 7, 3, 165, 90, 90, 165, 89, 163, 2, 3.21803
297, 2, bw, attraction, a-b-db, 2, 2, 7, 3, 165, 90, 90, 165, 89, 163, 1, 0.575582
297, 2, bw, filler, NA, 999, 999, 7, 4, 122, 173, 195, 193, 152, 104, 2, 1.07811
297, 2, bw, filler, NA, 999, 999, 7, 4, 122, 173, 195, 193, 152, 104, 3, 0.569651
297, 2, bw, attraction, a-b-da, 2, 2, 7, 5, 90, 165, 163, 89, 165, 90, 3, 2.20877
297, 2, bw, attraction, a-b-da, 2, 2, 7, 5, 90, 165, 163, 89, 165, 90, 2, 0.278674
297, 2, bw, attraction, a-b-da, 5, 3, 7, 6, 190, 117, 195, 120, 120, 195, 3, 3.48931
297, 2, bw, attraction, a-b-da, 5, 3, 7, 6, 190, 117, 195, 120, 120, 195, 2, 2.13141
297, 2, bw, catch, NA, 999, 999, 7, 7, 143, 112, 106, 89, 158, 157, 3, 0.963364
297, 2, bw, catch, NA, 999, 999, 7, 7, 143, 112, 106, 89, 158, 157, 2, 0.243721
297, 2, bw, attraction, a-b-db, 2, 1, 7, 8, 60, 135, 59, 134, 135, 60, 1, 2.91961
297, 2, bw, attraction, a-b-db, 2, 1, 7, 8, 60, 135, 59, 134, 135, 60, 3, 1.24128
297, 2, bw, attraction, a-b-da, 5, 1, 7, 9, 60, 135, 132, 58, 135, 60, 3, 2.71695
297, 2, bw, attraction, a-b-da, 5, 1, 7, 9, 60, 135, 132, 58, 135, 60, 2, 1.13464
297, 2, bw, attraction, a-b-da, 14, 1, 7, 10, 135, 60, 60, 135, 125, 56, 2, 4.27906
297, 2, bw, attraction, a-b-da, 14, 1, 7, 10, 135, 60, 60, 135, 125, 56, 3, 0.481633
297, 2, bw, filler, NA, 999, 999, 7, 11, 154, 85, 146, 61, 78, 127, 1, 1.07594
297, 2, bw, filler, NA, 999, 999, 7, 11, 154, 85, 146, 61, 78, 127, 2, 0.63166
297, 2, bw, filler, NA, 999, 999, 7, 12, 65, 81, 150, 113, 173, 142, 3, 1.22808
297, 2, bw, filler, NA, 999, 999, 7, 12, 65, 81, 150, 113, 173, 142, 1, 0.521694
297, 2, bw, catch, NA, 999, 999, 7, 13, 150, 165, 60, 135, 142, 113, 1, 0.92274
297, 2, bw, catch, NA, 999, 999, 7, 13, 150, 165, 60, 135, 142, 113, 2, 0.428485
297, 2, bw, filler, NA, 999, 999, 7, 14, 63, 104, 62, 194, 58, 119, 2, 1.24087
297, 2, bw, filler, NA, 999, 999, 7, 14, 63, 104, 62, 194, 58, 119, 1, 0.357794
297, 2, bw, filler, NA, 999, 999, 7, 15, 105, 142, 195, 99, 188, 195, 3, 1.63702
297, 2, bw, filler, NA, 999, 999, 7, 15, 105, 142, 195, 99, 188, 195, 1, 0.402472
297, 2, bw, filler, NA, 999, 999, 7, 16, 176, 128, 96, 65, 122, 118, 1, 1.18429
297, 2, bw, filler, NA, 999, 999, 7, 16, 176, 128, 96, 65, 122, 118, 2, 0.343875
297, 2, bw, catch, NA, 999, 999, 7, 17, 123, 132, 72, 123, 172, 143, 3, 0.815725
297, 2, bw, catch, NA, 999, 999, 7, 17, 123, 132, 72, 123, 172, 143, 2, 0.502208
297, 2, bw, attraction, a-b-db, 9, 3, 7, 18, 195, 120, 120, 195, 114, 186, 1, 6.84795
297, 2, bw, attraction, a-b-db, 9, 3, 7, 18, 195, 120, 120, 195, 114, 186, 2, 0.307073
297, 2, bw, attraction, a-b-db, 9, 1, 7, 19, 135, 60, 60, 135, 57, 129, 3, 5.38839
297, 2, bw, attraction, a-b-db, 9, 1, 7, 19, 135, 60, 60, 135, 57, 129, 2, 3.28986
297, 2, bw, attraction, a-b-db, 14, 1, 7, 20, 60, 135, 135, 60, 56, 125, 1, 2.77957
297, 2, bw, attraction, a-b-db, 14, 1, 7, 20, 60, 135, 135, 60, 56, 125, 2, 0.298647
297, 2, bw, attraction, a-b-db, 5, 3, 7, 21, 120, 195, 117, 190, 195, 120, 1, 8.52437
297, 2, bw, attraction, a-b-db, 5, 3, 7, 21, 120, 195, 117, 190, 195, 120, 3, 0.451736
297, 2, bw, attraction, a-b-db, 14, 2, 7, 22, 83, 153, 165, 90, 90, 165, 3, 2.61548
297, 2, bw, attraction, a-b-db, 14, 2, 7, 22, 83, 153, 165, 90, 90, 165, 1, 2.5174
297, 2, bw, filler, NA, 999, 999, 7, 23, 106, 134, 116, 83, 90, 192, 3, 2.4538
297, 2, bw, filler, NA, 999, 999, 7, 23, 106, 134, 116, 83, 90, 192, 2, 0.674354
297, 2, bw, attraction, a-b-db, 5, 1, 7, 24, 58, 132, 135, 60, 60, 135, 1, 3.18082
297, 2, bw, attraction, a-b-db, 5, 1, 7, 24, 58, 132, 135, 60, 60, 135, 2, 0.235742
297, 2, bw, attraction, a-b-da, 5, 2, 7, 25, 90, 165, 161, 88, 165, 90, 1, 5.24039
297, 2, bw, attraction, a-b-da, 5, 2, 7, 25, 90, 165, 161, 88, 165, 90, 2, 0.235956
297, 2, bw, attraction, a-b-da, 2, 1, 7, 26, 135, 60, 134, 59, 60, 135, 1, 3.83246
297, 2, bw, attraction, a-b-da, 2, 1, 7, 26, 135, 60, 134, 59, 60, 135, 2, 0.309179
297, 2, bw, attraction, a-b-da, 14, 3, 7, 27, 181, 111, 195, 120, 120, 195, 3, 3.48649
297, 2, bw, attraction, a-b-da, 14, 3, 7, 27, 181, 111, 195, 120, 120, 195, 2, 0.313358
297, 2, bw, filler, NA, 999, 999, 7, 28, 127, 104, 175, 160, 57, 191, 2, 0.994542
297, 2, bw, filler, NA, 999, 999, 7, 28, 127, 104, 175, 160, 57, 191, 3, 4.59358
297, 2, bw, attraction, a-b-da, 14, 2, 7, 29, 165, 90, 90, 165, 153, 83, 1, 3.21395
297, 2, bw, attraction, a-b-da, 14, 2, 7, 29, 165, 90, 90, 165, 153, 83, 3, 2.59574
297, 2, bw, attraction, a-b-db, 5, 2, 7, 30, 165, 90, 90, 165, 88, 161, 3, 5.80883
297, 2, bw, attraction, a-b-db, 5, 2, 7, 30, 165, 90, 90, 165, 88, 161, 1, 3.46175
297, 2, bw, attraction, a-b-db, 14, 3, 7, 31, 195, 120, 111, 181, 120, 195, 3, 12.5998
297, 2, bw, attraction, a-b-db, 14, 3, 7, 31, 195, 120, 111, 181, 120, 195, 2, 0.7232
297, 2, bw, attraction, a-b-db, 2, 3, 7, 32, 195, 120, 120, 195, 119, 193, 3, 5.88359
297, 2, bw, attraction, a-b-db, 2, 3, 7, 32, 195, 120, 120, 195, 119, 193, 2, 0.325636
297, 2, bw, filler, NA, 999, 999, 7, 33, 97, 192, 166, 174, 186, 102, 2, 0.838108
297, 2, bw, filler, NA, 999, 999, 7, 33, 97, 192, 166, 174, 186, 102, 3, 2.3714
297, 2, bw, filler, NA, 999, 999, 7, 34, 98, 139, 62, 120, 123, 121, 3, 1.96976
297, 2, bw, filler, NA, 999, 999, 7, 34, 98, 139, 62, 120, 123, 121, 2, 0.313809
297, 2, bw, attraction, a-b-da, 9, 3, 7, 35, 120, 195, 186, 114, 195, 120, 3, 2.81905
297, 2, bw, attraction, a-b-da, 9, 3, 7, 35, 120, 195, 186, 114, 195, 120, 2, 0.840741
297, 2, bw, attraction, a-b-db, 9, 2, 7, 36, 86, 157, 90, 165, 165, 90, 2, 6.65245
297, 2, bw, attraction, a-b-db, 9, 2, 7, 36, 86, 157, 90, 165, 165, 90, 3, 0.375663
297, 2, bw, attraction, a-b-da, 9, 2, 7, 37, 90, 165, 157, 86, 165, 90, 1, 8.91012
297, 2, bw, attraction, a-b-da, 9, 2, 7, 37, 90, 165, 157, 86, 165, 90, 2, 1.47795
297, 2, bw, attraction, a-b-da, 9, 3, 8, 1, 195, 120, 120, 195, 186, 114, 2, 2.32809
297, 2, bw, attraction, a-b-da, 9, 3, 8, 1, 195, 120, 120, 195, 186, 114, 1, 0.457369
297, 2, bw, attraction, a-b-da, 14, 3, 8, 2, 195, 120, 181, 111, 120, 195, 3, 10.4605
297, 2, bw, attraction, a-b-da, 14, 3, 8, 2, 195, 120, 181, 111, 120, 195, 2, 0.453967
297, 2, bw, filler, NA, 999, 999, 8, 3, 125, 62, 186, 125, 167, 170, 3, 1.22557
297, 2, bw, filler, NA, 999, 999, 8, 3, 125, 62, 186, 125, 167, 170, 1, 0.535197
297, 2, bw, filler, NA, 999, 999, 8, 4, 170, 178, 111, 106, 58, 104, 1, 0.615657
297, 2, bw, filler, NA, 999, 999, 8, 4, 170, 178, 111, 106, 58, 104, 3, 0.438119
297, 2, bw, attraction, a-b-db, 5, 3, 8, 5, 195, 120, 120, 195, 117, 190, 2, 4.34673
297, 2, bw, attraction, a-b-db, 5, 3, 8, 5, 195, 120, 120, 195, 117, 190, 1, 0.250752
297, 2, bw, filler, NA, 999, 999, 8, 6, 133, 64, 79, 61, 122, 99, 3, 0.950441
297, 2, bw, filler, NA, 999, 999, 8, 6, 133, 64, 79, 61, 122, 99, 2, 0.295414
297, 2, bw, filler, NA, 999, 999, 8, 7, 60, 114, 181, 129, 151, 167, 3, 0.953259
297, 2, bw, filler, NA, 999, 999, 8, 7, 60, 114, 181, 129, 151, 167, 1, 0.338397
297, 2, bw, attraction, a-b-db, 5, 1, 8, 8, 135, 60, 60, 135, 58, 132, 1, 2.24279
297, 2, bw, attraction, a-b-db, 5, 1, 8, 8, 135, 60, 60, 135, 58, 132, 2, 0.551408
297, 2, bw, filler, NA, 999, 999, 8, 9, 158, 86, 126, 152, 119, 119, 2, 2.17516
297, 2, bw, filler, NA, 999, 999, 8, 9, 158, 86, 126, 152, 119, 119, 1, 0.414484
297, 2, bw, attraction, a-b-db, 2, 2, 8, 10, 165, 90, 90, 165, 89, 163, 3, 8.73157
297, 2, bw, attraction, a-b-db, 2, 2, 8, 10, 165, 90, 90, 165, 89, 163, 1, 0.562775
297, 2, bw, attraction, a-b-da, 9, 1, 8, 11, 129, 57, 135, 60, 60, 135, 3, 2.57796
297, 2, bw, attraction, a-b-da, 9, 1, 8, 11, 129, 57, 135, 60, 60, 135, 1, 0.489109
297, 2, bw, filler, NA, 999, 999, 8, 12, 78, 100, 105, 175, 92, 123, 2, 0.963582
297, 2, bw, filler, NA, 999, 999, 8, 12, 78, 100, 105, 175, 92, 123, 1, 0.267842
297, 2, bw, attraction, a-b-da, 2, 3, 8, 13, 120, 195, 193, 119, 195, 120, 1, 2.59915
297, 2, bw, attraction, a-b-da, 2, 3, 8, 13, 120, 195, 193, 119, 195, 120, 2, 1.26962
297, 2, bw, attraction, a-b-da, 5, 1, 8, 14, 60, 135, 135, 60, 132, 58, 1, 3.12851
297, 2, bw, attraction, a-b-da, 5, 1, 8, 14, 60, 135, 135, 60, 132, 58, 2, 0.249511
297, 2, bw, attraction, a-b-da, 5, 2, 8, 15, 161, 88, 165, 90, 90, 165, 3, 2.95733
297, 2, bw, attraction, a-b-da, 5, 2, 8, 15, 161, 88, 165, 90, 90, 165, 2, 0.620973
297, 2, bw, attraction, a-b-db, 14, 3, 8, 16, 120, 195, 195, 120, 111, 181, 2, 3.46612
297, 2, bw, attraction, a-b-db, 14, 3, 8, 16, 120, 195, 195, 120, 111, 181, 3, 0.269702
297, 2, bw, attraction, a-b-da, 2, 2, 8, 17, 165, 90, 163, 89, 90, 165, 3, 12.1369
297, 2, bw, attraction, a-b-da, 2, 2, 8, 17, 165, 90, 163, 89, 90, 165, 2, 0.615017
297, 2, bw, catch, NA, 999, 999, 8, 18, 119, 136, 174, 141, 99, 96, 2, 0.676252
297, 2, bw, catch, NA, 999, 999, 8, 18, 119, 136, 174, 141, 99, 96, 3, 0.495934
297, 2, bw, attraction, a-b-db, 14, 2, 8, 19, 165, 90, 90, 165, 83, 153, 3, 2.44966
297, 2, bw, attraction, a-b-db, 14, 2, 8, 19, 165, 90, 90, 165, 83, 153, 2, 0.342393
297, 2, bw, attraction, a-b-da, 9, 2, 8, 20, 90, 165, 165, 90, 157, 86, 1, 1.88607
297, 2, bw, attraction, a-b-da, 9, 2, 8, 20, 90, 165, 165, 90, 157, 86, 2, 0.52148
297, 2, bw, filler, NA, 999, 999, 8, 21, 121, 178, 155, 67, 57, 140, 1, 0.618513
297, 2, bw, filler, NA, 999, 999, 8, 21, 121, 178, 155, 67, 57, 140, 3, 1.14497
297, 2, bw, filler, NA, 999, 999, 8, 22, 173, 186, 143, 76, 88, 181, 1, 0.896602
297, 2, bw, filler, NA, 999, 999, 8, 22, 173, 186, 143, 76, 88, 181, 2, 0.387759
297, 2, bw, attraction, a-b-db, 2, 3, 8, 23, 195, 120, 120, 195, 119, 193, 2, 1.79415
297, 2, bw, attraction, a-b-db, 2, 3, 8, 23, 195, 120, 120, 195, 119, 193, 3, 4.08097
297, 2, bw, filler, NA, 999, 999, 8, 24, 110, 60, 113, 135, 120, 148, 3, 1.77024
297, 2, bw, filler, NA, 999, 999, 8, 24, 110, 60, 113, 135, 120, 148, 1, 0.538313
297, 2, bw, attraction, a-b-da, 5, 3, 8, 25, 120, 195, 195, 120, 190, 117, 1, 4.55476
297, 2, bw, attraction, a-b-da, 5, 3, 8, 25, 120, 195, 195, 120, 190, 117, 3, 1.56201
297, 2, bw, attraction, a-b-da, 14, 2, 8, 26, 90, 165, 165, 90, 153, 83, 1, 2.83268
297, 2, bw, attraction, a-b-da, 14, 2, 8, 26, 90, 165, 165, 90, 153, 83, 3, 0.533781
297, 2, bw, catch, NA, 999, 999, 8, 27, 188, 127, 87, 108, 121, 134, 1, 0.846195
297, 2, bw, catch, NA, 999, 999, 8, 27, 188, 127, 87, 108, 121, 134, 2, 0.611251
297, 2, bw, attraction, a-b-da, 14, 1, 8, 28, 135, 60, 125, 56, 60, 135, 3, 7.28849
297, 2, bw, attraction, a-b-da, 14, 1, 8, 28, 135, 60, 125, 56, 60, 135, 2, 0.265422
297, 2, bw, attraction, a-b-db, 2, 1, 8, 29, 59, 134, 135, 60, 60, 135, 3, 1.93257
297, 2, bw, attraction, a-b-db, 2, 1, 8, 29, 59, 134, 135, 60, 60, 135, 2, 0.325967
297, 2, bw, attraction, a-b-db, 9, 2, 8, 30, 90, 165, 86, 157, 165, 90, 1, 2.47845
297, 2, bw, attraction, a-b-db, 9, 2, 8, 30, 90, 165, 86, 157, 165, 90, 2, 0.809605
297, 2, bw, attraction, a-b-db, 9, 3, 8, 31, 120, 195, 114, 186, 195, 120, 3, 5.8869
297, 2, bw, attraction, a-b-db, 9, 3, 8, 31, 120, 195, 114, 186, 195, 120, 2, 0.744865
297, 2, bw, filler, NA, 999, 999, 8, 32, 179, 128, 121, 126, 188, 80, 1, 2.21657
297, 2, bw, filler, NA, 999, 999, 8, 32, 179, 128, 121, 126, 188, 80, 3, 1.89456
297, 2, bw, attraction, a-b-db, 9, 1, 8, 33, 57, 129, 60, 135, 135, 60, 2, 2.15982
297, 2, bw, attraction, a-b-db, 9, 1, 8, 33, 57, 129, 60, 135, 135, 60, 1, 0.231846
297, 2, bw, attraction, a-b-db, 14, 1, 8, 34, 56, 125, 135, 60, 60, 135, 3, 2.66851
297, 2, bw, attraction, a-b-db, 14, 1, 8, 34, 56, 125, 135, 60, 60, 135, 1, 0.232283
297, 2, bw, catch, NA, 999, 999, 8, 35, 151, 104, 193, 122, 72, 123, 2, 1.54064
297, 2, bw, catch, NA, 999, 999, 8, 35, 151, 104, 193, 122, 72, 123, 3, 0.21353
297, 2, bw, attraction, a-b-db, 5, 2, 8, 36, 88, 161, 165, 90, 90, 165, 1, 4.00267
297, 2, bw, attraction, a-b-db, 5, 2, 8, 36, 88, 161, 165, 90, 90, 165, 2, 6.67275
297, 2, bw, attraction, a-b-da, 2, 1, 8, 37, 134, 59, 135, 60, 60, 135, 2, 2.89795
297, 2, bw, attraction, a-b-da, 2, 1, 8, 37, 134, 59, 135, 60, 60, 135, 1, 1.50849
