sub_n, computer_n, bw_cond, effect, set, distance, diag, block_n, trial_n, h1, w1, h2, w2, h3, w3, choice, rt 
209, 2, bw, practice, NA, 999, 999, 0, 1, 98, 117, 62, 160, 185, 69, 1, 5.03596
209, 2, bw, practice, NA, 999, 999, 0, 1, 98, 117, 62, 160, 185, 69, 2, 2.7927
209, 2, bw, practice, NA, 999, 999, 0, 2, 185, 74, 179, 102, 117, 78, 2, 2.72454
209, 2, bw, practice, NA, 999, 999, 0, 2, 185, 74, 179, 102, 117, 78, 3, 1.83643
209, 2, bw, practice, NA, 999, 999, 0, 3, 166, 102, 175, 133, 172, 78, 2, 2.42027
209, 2, bw, practice, NA, 999, 999, 0, 3, 166, 102, 175, 133, 172, 78, 3, 1.70646
209, 2, bw, attraction, a-b-da, 14, 1, 1, 1, 60, 135, 125, 56, 135, 60, 1, 3.20516
209, 2, bw, attraction, a-b-da, 14, 1, 1, 1, 60, 135, 125, 56, 135, 60, 2, 0.986403
209, 2, bw, attraction, a-b-da, 5, 1, 1, 2, 132, 58, 60, 135, 135, 60, 2, 2.07273
209, 2, bw, attraction, a-b-da, 5, 1, 1, 2, 132, 58, 60, 135, 135, 60, 1, 0.947925
209, 2, bw, catch, NA, 999, 999, 1, 3, 108, 147, 121, 74, 172, 143, 3, 1.29161
209, 2, bw, catch, NA, 999, 999, 1, 3, 108, 147, 121, 74, 172, 143, 2, 0.686559
209, 2, bw, attraction, a-b-db, 2, 1, 1, 4, 135, 60, 60, 135, 59, 134, 3, 4.36093
209, 2, bw, attraction, a-b-db, 2, 1, 1, 4, 135, 60, 60, 135, 59, 134, 2, 1.05634
209, 2, bw, attraction, a-b-da, 14, 2, 1, 5, 165, 90, 153, 83, 90, 165, 3, 2.17915
209, 2, bw, attraction, a-b-da, 14, 2, 1, 5, 165, 90, 153, 83, 90, 165, 2, 0.5624
209, 2, bw, filler, NA, 999, 999, 1, 6, 190, 60, 149, 79, 187, 69, 2, 4.12966
209, 2, bw, filler, NA, 999, 999, 1, 6, 190, 60, 149, 79, 187, 69, 1, 1.02629
209, 2, bw, catch, NA, 999, 999, 1, 7, 124, 131, 140, 175, 78, 117, 2, 1.15848
209, 2, bw, catch, NA, 999, 999, 1, 7, 124, 131, 140, 175, 78, 117, 3, 0.438843
209, 2, bw, attraction, a-b-db, 14, 2, 1, 8, 165, 90, 90, 165, 83, 153, 2, 2.31533
209, 2, bw, attraction, a-b-db, 14, 2, 1, 8, 165, 90, 90, 165, 83, 153, 1, 0.509289
209, 2, bw, attraction, a-b-db, 5, 2, 1, 9, 90, 165, 165, 90, 88, 161, 3, 1.52631
209, 2, bw, attraction, a-b-db, 5, 2, 1, 9, 90, 165, 165, 90, 88, 161, 2, 0.759783
209, 2, bw, filler, NA, 999, 999, 1, 10, 117, 187, 159, 141, 82, 121, 2, 2.71879
209, 2, bw, filler, NA, 999, 999, 1, 10, 117, 187, 159, 141, 82, 121, 1, 1.48072
209, 2, bw, attraction, a-b-db, 2, 2, 1, 11, 90, 165, 89, 163, 165, 90, 2, 4.7308
209, 2, bw, attraction, a-b-db, 2, 2, 1, 11, 90, 165, 89, 163, 165, 90, 1, 0.947259
209, 2, bw, attraction, a-b-db, 14, 1, 1, 12, 60, 135, 56, 125, 135, 60, 3, 4.8269
209, 2, bw, attraction, a-b-db, 14, 1, 1, 12, 60, 135, 56, 125, 135, 60, 2, 0.463341
209, 2, bw, attraction, a-b-da, 5, 3, 1, 13, 195, 120, 190, 117, 120, 195, 3, 2.33861
209, 2, bw, attraction, a-b-da, 5, 3, 1, 13, 195, 120, 190, 117, 120, 195, 2, 1.67503
209, 2, bw, attraction, a-b-db, 9, 2, 1, 14, 86, 157, 90, 165, 165, 90, 2, 3.37319
209, 2, bw, attraction, a-b-db, 9, 2, 1, 14, 86, 157, 90, 165, 165, 90, 1, 0.668051
209, 2, bw, attraction, a-b-db, 2, 3, 1, 15, 195, 120, 119, 193, 120, 195, 3, 3.39919
209, 2, bw, attraction, a-b-db, 2, 3, 1, 15, 195, 120, 119, 193, 120, 195, 2, 0.533356
209, 2, bw, catch, NA, 999, 999, 1, 16, 108, 87, 128, 187, 155, 100, 2, 1.55777
209, 2, bw, catch, NA, 999, 999, 1, 16, 108, 87, 128, 187, 155, 100, 1, 0.741921
209, 2, bw, filler, NA, 999, 999, 1, 17, 156, 104, 76, 176, 104, 67, 1, 1.25362
209, 2, bw, filler, NA, 999, 999, 1, 17, 156, 104, 76, 176, 104, 67, 3, 0.865986
209, 2, bw, attraction, a-b-da, 9, 2, 1, 18, 90, 165, 165, 90, 157, 86, 1, 3.64498
209, 2, bw, attraction, a-b-da, 9, 2, 1, 18, 90, 165, 165, 90, 157, 86, 2, 0.977219
209, 2, bw, filler, NA, 999, 999, 1, 19, 69, 56, 102, 91, 56, 187, 3, 5.37554
209, 2, bw, filler, NA, 999, 999, 1, 19, 69, 56, 102, 91, 56, 187, 1, 0.813695
209, 2, bw, attraction, a-b-da, 2, 3, 1, 20, 193, 119, 195, 120, 120, 195, 1, 4.85074
209, 2, bw, attraction, a-b-da, 2, 3, 1, 20, 193, 119, 195, 120, 120, 195, 2, 0.494491
209, 2, bw, filler, NA, 999, 999, 1, 21, 156, 169, 121, 98, 154, 144, 1, 1.83229
209, 2, bw, filler, NA, 999, 999, 1, 21, 156, 169, 121, 98, 154, 144, 2, 0.909675
209, 2, bw, attraction, a-b-da, 14, 3, 1, 22, 120, 195, 195, 120, 181, 111, 2, 1.8228
209, 2, bw, attraction, a-b-da, 14, 3, 1, 22, 120, 195, 195, 120, 181, 111, 3, 0.460099
209, 2, bw, attraction, a-b-db, 14, 3, 1, 23, 195, 120, 120, 195, 111, 181, 2, 1.06323
209, 2, bw, attraction, a-b-db, 14, 3, 1, 23, 195, 120, 120, 195, 111, 181, 3, 0.891488
209, 2, bw, filler, NA, 999, 999, 1, 24, 93, 172, 108, 132, 151, 184, 3, 1.38122
209, 2, bw, filler, NA, 999, 999, 1, 24, 93, 172, 108, 132, 151, 184, 2, 0.772841
209, 2, bw, attraction, a-b-da, 2, 1, 1, 25, 60, 135, 134, 59, 135, 60, 3, 5.93117
209, 2, bw, attraction, a-b-da, 2, 1, 1, 25, 60, 135, 134, 59, 135, 60, 1, 0.611208
209, 2, bw, filler, NA, 999, 999, 1, 26, 142, 184, 83, 70, 62, 155, 1, 1.26423
209, 2, bw, filler, NA, 999, 999, 1, 26, 142, 184, 83, 70, 62, 155, 2, 0.900481
209, 2, bw, attraction, a-b-da, 5, 2, 1, 27, 165, 90, 90, 165, 161, 88, 2, 3.84627
209, 2, bw, attraction, a-b-da, 5, 2, 1, 27, 165, 90, 90, 165, 161, 88, 1, 0.650256
209, 2, bw, filler, NA, 999, 999, 1, 28, 76, 190, 126, 108, 126, 155, 3, 3.90214
209, 2, bw, filler, NA, 999, 999, 1, 28, 76, 190, 126, 108, 126, 155, 2, 0.584251
209, 2, bw, attraction, a-b-da, 2, 2, 1, 29, 165, 90, 90, 165, 163, 89, 2, 2.06262
209, 2, bw, attraction, a-b-da, 2, 2, 1, 29, 165, 90, 90, 165, 163, 89, 3, 0.506536
209, 2, bw, attraction, a-b-da, 9, 3, 1, 30, 120, 195, 186, 114, 195, 120, 1, 2.45166
209, 2, bw, attraction, a-b-da, 9, 3, 1, 30, 120, 195, 186, 114, 195, 120, 2, 0.520202
209, 2, bw, attraction, a-b-da, 9, 1, 1, 31, 60, 135, 129, 57, 135, 60, 1, 2.96135
209, 2, bw, attraction, a-b-da, 9, 1, 1, 31, 60, 135, 129, 57, 135, 60, 2, 0.481062
209, 2, bw, attraction, a-b-db, 5, 3, 1, 32, 117, 190, 195, 120, 120, 195, 3, 2.88361
209, 2, bw, attraction, a-b-db, 5, 3, 1, 32, 117, 190, 195, 120, 120, 195, 2, 0.566601
209, 2, bw, filler, NA, 999, 999, 1, 33, 143, 56, 70, 128, 127, 166, 3, 0.90161
209, 2, bw, filler, NA, 999, 999, 1, 33, 143, 56, 70, 128, 127, 166, 1, 1.59263
209, 2, bw, filler, NA, 999, 999, 1, 34, 155, 85, 153, 76, 94, 166, 3, 1.8141
209, 2, bw, filler, NA, 999, 999, 1, 34, 155, 85, 153, 76, 94, 166, 2, 0.668185
209, 2, bw, attraction, a-b-db, 9, 3, 1, 35, 195, 120, 114, 186, 120, 195, 1, 1.50328
209, 2, bw, attraction, a-b-db, 9, 3, 1, 35, 195, 120, 114, 186, 120, 195, 2, 0.546072
209, 2, bw, attraction, a-b-db, 9, 1, 1, 36, 60, 135, 57, 129, 135, 60, 1, 1.18604
209, 2, bw, attraction, a-b-db, 9, 1, 1, 36, 60, 135, 57, 129, 135, 60, 2, 0.449459
209, 2, bw, attraction, a-b-db, 5, 1, 1, 37, 60, 135, 58, 132, 135, 60, 1, 1.64532
209, 2, bw, attraction, a-b-db, 5, 1, 1, 37, 60, 135, 58, 132, 135, 60, 3, 0.714077
209, 2, bw, attraction, a-b-da, 9, 2, 2, 1, 90, 165, 157, 86, 165, 90, 1, 1.09911
209, 2, bw, attraction, a-b-da, 9, 2, 2, 1, 90, 165, 157, 86, 165, 90, 2, 0.52629
209, 2, bw, filler, NA, 999, 999, 2, 2, 162, 153, 151, 124, 62, 64, 1, 1.17458
209, 2, bw, filler, NA, 999, 999, 2, 2, 162, 153, 151, 124, 62, 64, 3, 0.614174
209, 2, bw, attraction, a-b-db, 9, 1, 2, 3, 57, 129, 135, 60, 60, 135, 3, 1.11533
209, 2, bw, attraction, a-b-db, 9, 1, 2, 3, 57, 129, 135, 60, 60, 135, 1, 0.997542
209, 2, bw, attraction, a-b-db, 14, 2, 2, 4, 90, 165, 83, 153, 165, 90, 1, 3.11511
209, 2, bw, attraction, a-b-db, 14, 2, 2, 4, 90, 165, 83, 153, 165, 90, 2, 0.540837
209, 2, bw, filler, NA, 999, 999, 2, 5, 81, 138, 89, 128, 192, 82, 3, 2.51659
209, 2, bw, filler, NA, 999, 999, 2, 5, 81, 138, 89, 128, 192, 82, 1, 1.2465
209, 2, bw, catch, NA, 999, 999, 2, 6, 144, 171, 107, 148, 123, 72, 1, 0.882082
209, 2, bw, catch, NA, 999, 999, 2, 6, 144, 171, 107, 148, 123, 72, 3, 1.25367
209, 2, bw, attraction, a-b-da, 5, 3, 2, 7, 195, 120, 120, 195, 190, 117, 2, 4.96123
209, 2, bw, attraction, a-b-da, 5, 3, 2, 7, 195, 120, 120, 195, 190, 117, 1, 0.840341
209, 2, bw, filler, NA, 999, 999, 2, 8, 91, 174, 151, 186, 157, 98, 2, 0.900196
209, 2, bw, filler, NA, 999, 999, 2, 8, 91, 174, 151, 186, 157, 98, 3, 1.22305
209, 2, bw, filler, NA, 999, 999, 2, 9, 130, 99, 106, 87, 143, 149, 3, 1.69928
209, 2, bw, filler, NA, 999, 999, 2, 9, 130, 99, 106, 87, 143, 149, 2, 0.734043
209, 2, bw, attraction, a-b-da, 2, 1, 2, 10, 134, 59, 135, 60, 60, 135, 3, 1.07037
209, 2, bw, attraction, a-b-da, 2, 1, 2, 10, 134, 59, 135, 60, 60, 135, 1, 0.658822
209, 2, bw, catch, NA, 999, 999, 2, 11, 69, 126, 170, 145, 152, 103, 2, 0.51792
209, 2, bw, catch, NA, 999, 999, 2, 11, 69, 126, 170, 145, 152, 103, 1, 0.536242
209, 2, bw, filler, NA, 999, 999, 2, 12, 70, 97, 119, 117, 149, 139, 3, 0.94473
209, 2, bw, filler, NA, 999, 999, 2, 12, 70, 97, 119, 117, 149, 139, 1, 0.609697
209, 2, bw, attraction, a-b-da, 14, 1, 2, 13, 135, 60, 60, 135, 125, 56, 2, 0.95889
209, 2, bw, attraction, a-b-da, 14, 1, 2, 13, 135, 60, 60, 135, 125, 56, 3, 0.209968
209, 2, bw, attraction, a-b-db, 2, 2, 2, 14, 165, 90, 89, 163, 90, 165, 2, 3.06041
209, 2, bw, attraction, a-b-db, 2, 2, 2, 14, 165, 90, 89, 163, 90, 165, 1, 1.64011
209, 2, bw, filler, NA, 999, 999, 2, 15, 66, 139, 63, 121, 75, 193, 3, 1.2755
209, 2, bw, filler, NA, 999, 999, 2, 15, 66, 139, 63, 121, 75, 193, 2, 0.607051
209, 2, bw, attraction, a-b-db, 9, 3, 2, 16, 114, 186, 195, 120, 120, 195, 2, 2.26813
209, 2, bw, attraction, a-b-db, 9, 3, 2, 16, 114, 186, 195, 120, 120, 195, 1, 0.856158
209, 2, bw, attraction, a-b-da, 14, 3, 2, 17, 181, 111, 120, 195, 195, 120, 2, 1.3791
209, 2, bw, attraction, a-b-da, 14, 3, 2, 17, 181, 111, 120, 195, 195, 120, 1, 0.522519
209, 2, bw, attraction, a-b-da, 5, 2, 2, 18, 161, 88, 90, 165, 165, 90, 2, 1.67566
209, 2, bw, attraction, a-b-da, 5, 2, 2, 18, 161, 88, 90, 165, 165, 90, 1, 0.671156
209, 2, bw, attraction, a-b-db, 2, 3, 2, 19, 195, 120, 119, 193, 120, 195, 3, 4.78621
209, 2, bw, attraction, a-b-db, 2, 3, 2, 19, 195, 120, 119, 193, 120, 195, 1, 0.632699
209, 2, bw, attraction, a-b-db, 5, 3, 2, 20, 117, 190, 120, 195, 195, 120, 2, 2.06906
209, 2, bw, attraction, a-b-db, 5, 3, 2, 20, 117, 190, 120, 195, 195, 120, 3, 0.457179
209, 2, bw, attraction, a-b-db, 14, 3, 2, 21, 120, 195, 111, 181, 195, 120, 1, 3.67617
209, 2, bw, attraction, a-b-db, 14, 3, 2, 21, 120, 195, 111, 181, 195, 120, 2, 0.423031
209, 2, bw, attraction, a-b-da, 5, 1, 2, 22, 132, 58, 60, 135, 135, 60, 2, 1.19551
209, 2, bw, attraction, a-b-da, 5, 1, 2, 22, 132, 58, 60, 135, 135, 60, 3, 0.706559
209, 2, bw, attraction, a-b-db, 14, 1, 2, 23, 60, 135, 56, 125, 135, 60, 1, 0.883495
209, 2, bw, attraction, a-b-db, 14, 1, 2, 23, 60, 135, 56, 125, 135, 60, 2, 0.607181
209, 2, bw, attraction, a-b-da, 2, 3, 2, 24, 120, 195, 193, 119, 195, 120, 1, 1.7163
209, 2, bw, attraction, a-b-da, 2, 3, 2, 24, 120, 195, 193, 119, 195, 120, 2, 0.382347
209, 2, bw, attraction, a-b-da, 9, 3, 2, 25, 186, 114, 120, 195, 195, 120, 1, 5.20493
209, 2, bw, attraction, a-b-da, 9, 3, 2, 25, 186, 114, 120, 195, 195, 120, 2, 1.01858
209, 2, bw, filler, NA, 999, 999, 2, 26, 101, 64, 165, 74, 146, 130, 3, 1.67957
209, 2, bw, filler, NA, 999, 999, 2, 26, 101, 64, 165, 74, 146, 130, 1, 0.467031
209, 2, bw, attraction, a-b-db, 5, 1, 2, 27, 58, 132, 60, 135, 135, 60, 1, 1.34206
209, 2, bw, attraction, a-b-db, 5, 1, 2, 27, 58, 132, 60, 135, 135, 60, 3, 0.839076
209, 2, bw, attraction, a-b-db, 2, 1, 2, 28, 60, 135, 135, 60, 59, 134, 1, 1.42741
209, 2, bw, attraction, a-b-db, 2, 1, 2, 28, 60, 135, 135, 60, 59, 134, 2, 0.512892
209, 2, bw, attraction, a-b-da, 9, 1, 2, 29, 135, 60, 60, 135, 129, 57, 2, 1.80206
209, 2, bw, attraction, a-b-da, 9, 1, 2, 29, 135, 60, 60, 135, 129, 57, 1, 0.584767
209, 2, bw, filler, NA, 999, 999, 2, 30, 186, 77, 74, 115, 189, 178, 3, 0.863207
209, 2, bw, filler, NA, 999, 999, 2, 30, 186, 77, 74, 115, 189, 178, 2, 0.435482
209, 2, bw, attraction, a-b-db, 5, 2, 2, 31, 90, 165, 88, 161, 165, 90, 2, 1.67195
209, 2, bw, attraction, a-b-db, 5, 2, 2, 31, 90, 165, 88, 161, 165, 90, 3, 1.77944
209, 2, bw, attraction, a-b-db, 9, 2, 2, 32, 86, 157, 165, 90, 90, 165, 3, 1.94571
209, 2, bw, attraction, a-b-db, 9, 2, 2, 32, 86, 157, 165, 90, 90, 165, 2, 2.3223
209, 2, bw, filler, NA, 999, 999, 2, 33, 112, 170, 110, 103, 108, 141, 1, 1.21074
209, 2, bw, filler, NA, 999, 999, 2, 33, 112, 170, 110, 103, 108, 141, 2, 0.56099
209, 2, bw, catch, NA, 999, 999, 2, 34, 75, 120, 148, 167, 138, 117, 2, 0.776068
209, 2, bw, catch, NA, 999, 999, 2, 34, 75, 120, 148, 167, 138, 117, 1, 0.383806
209, 2, bw, filler, NA, 999, 999, 2, 35, 105, 79, 59, 76, 116, 170, 3, 0.638334
209, 2, bw, filler, NA, 999, 999, 2, 35, 105, 79, 59, 76, 116, 170, 2, 0.571527
209, 2, bw, attraction, a-b-da, 14, 2, 2, 36, 165, 90, 153, 83, 90, 165, 3, 3.99459
209, 2, bw, attraction, a-b-da, 14, 2, 2, 36, 165, 90, 153, 83, 90, 165, 2, 0.568668
209, 2, bw, attraction, a-b-da, 2, 2, 2, 37, 163, 89, 165, 90, 90, 165, 3, 3.38378
209, 2, bw, attraction, a-b-da, 2, 2, 2, 37, 163, 89, 165, 90, 90, 165, 1, 0.582625
209, 2, bw, attraction, a-b-da, 9, 3, 3, 1, 120, 195, 186, 114, 195, 120, 3, 3.93304
209, 2, bw, attraction, a-b-da, 9, 3, 3, 1, 120, 195, 186, 114, 195, 120, 2, 0.837801
209, 2, bw, filler, NA, 999, 999, 3, 2, 77, 117, 140, 125, 186, 134, 3, 1.13017
209, 2, bw, filler, NA, 999, 999, 3, 2, 77, 117, 140, 125, 186, 134, 1, 0.491753
209, 2, bw, attraction, a-b-db, 14, 3, 3, 3, 111, 181, 120, 195, 195, 120, 2, 1.0776
209, 2, bw, attraction, a-b-db, 14, 3, 3, 3, 111, 181, 120, 195, 195, 120, 1, 0.49721
209, 2, bw, attraction, a-b-db, 2, 1, 3, 4, 59, 134, 135, 60, 60, 135, 1, 1.66708
209, 2, bw, attraction, a-b-db, 2, 1, 3, 4, 59, 134, 135, 60, 60, 135, 2, 0.439043
209, 2, bw, filler, NA, 999, 999, 3, 5, 109, 158, 190, 173, 104, 188, 2, 1.0036
209, 2, bw, filler, NA, 999, 999, 3, 5, 109, 158, 190, 173, 104, 188, 1, 0.762542
209, 2, bw, attraction, a-b-db, 14, 2, 3, 6, 83, 153, 165, 90, 90, 165, 3, 1.80965
209, 2, bw, attraction, a-b-db, 14, 2, 3, 6, 83, 153, 165, 90, 90, 165, 2, 2.31177
209, 2, bw, attraction, a-b-da, 5, 3, 3, 7, 195, 120, 120, 195, 190, 117, 2, 2.55214
209, 2, bw, attraction, a-b-da, 5, 3, 3, 7, 195, 120, 120, 195, 190, 117, 3, 0.824689
209, 2, bw, attraction, a-b-da, 14, 3, 3, 8, 195, 120, 181, 111, 120, 195, 3, 3.27711
209, 2, bw, attraction, a-b-da, 14, 3, 3, 8, 195, 120, 181, 111, 120, 195, 1, 1.36798
209, 2, bw, attraction, a-b-da, 5, 2, 3, 9, 161, 88, 90, 165, 165, 90, 3, 3.09499
209, 2, bw, attraction, a-b-da, 5, 2, 3, 9, 161, 88, 90, 165, 165, 90, 1, 0.649195
209, 2, bw, catch, NA, 999, 999, 3, 10, 149, 166, 107, 148, 104, 91, 1, 0.740965
209, 2, bw, catch, NA, 999, 999, 3, 10, 149, 166, 107, 148, 104, 91, 3, 0.726104
209, 2, bw, attraction, a-b-da, 14, 1, 3, 11, 60, 135, 135, 60, 125, 56, 1, 1.28635
209, 2, bw, attraction, a-b-da, 14, 1, 3, 11, 60, 135, 135, 60, 125, 56, 3, 0.649919
209, 2, bw, attraction, a-b-da, 9, 1, 3, 12, 129, 57, 135, 60, 60, 135, 3, 3.30186
209, 2, bw, attraction, a-b-da, 9, 1, 3, 12, 129, 57, 135, 60, 60, 135, 2, 0.632085
209, 2, bw, attraction, a-b-db, 5, 2, 3, 13, 165, 90, 90, 165, 88, 161, 1, 1.86844
209, 2, bw, attraction, a-b-db, 5, 2, 3, 13, 165, 90, 90, 165, 88, 161, 3, 1.24053
209, 2, bw, attraction, a-b-da, 2, 2, 3, 14, 163, 89, 165, 90, 90, 165, 3, 2.02798
209, 2, bw, attraction, a-b-da, 2, 2, 3, 14, 163, 89, 165, 90, 90, 165, 1, 1.04137
209, 2, bw, filler, NA, 999, 999, 3, 15, 146, 191, 150, 153, 128, 191, 1, 1.70094
209, 2, bw, filler, NA, 999, 999, 3, 15, 146, 191, 150, 153, 128, 191, 2, 0.439874
209, 2, bw, filler, NA, 999, 999, 3, 16, 190, 142, 186, 59, 79, 124, 1, 1.8595
209, 2, bw, filler, NA, 999, 999, 3, 16, 190, 142, 186, 59, 79, 124, 3, 1.93566
209, 2, bw, catch, NA, 999, 999, 3, 17, 154, 161, 66, 129, 164, 91, 1, 0.735527
209, 2, bw, catch, NA, 999, 999, 3, 17, 154, 161, 66, 129, 164, 91, 2, 0.59333
209, 2, bw, attraction, a-b-db, 5, 3, 3, 18, 117, 190, 120, 195, 195, 120, 2, 2.28724
209, 2, bw, attraction, a-b-db, 5, 3, 3, 18, 117, 190, 120, 195, 195, 120, 1, 1.91435
209, 2, bw, attraction, a-b-db, 9, 3, 3, 19, 114, 186, 120, 195, 195, 120, 2, 2.79518
209, 2, bw, attraction, a-b-db, 9, 3, 3, 19, 114, 186, 120, 195, 195, 120, 1, 0.57756
209, 2, bw, filler, NA, 999, 999, 3, 20, 74, 172, 148, 58, 82, 103, 1, 1.44781
209, 2, bw, filler, NA, 999, 999, 3, 20, 74, 172, 148, 58, 82, 103, 2, 2.63681
209, 2, bw, attraction, a-b-db, 14, 1, 3, 21, 135, 60, 56, 125, 60, 135, 3, 1.15254
209, 2, bw, attraction, a-b-db, 14, 1, 3, 21, 135, 60, 56, 125, 60, 135, 2, 1.16146
209, 2, bw, attraction, a-b-db, 5, 1, 3, 22, 60, 135, 135, 60, 58, 132, 2, 1.70441
209, 2, bw, attraction, a-b-db, 5, 1, 3, 22, 60, 135, 135, 60, 58, 132, 1, 1.13059
209, 2, bw, attraction, a-b-db, 2, 3, 3, 23, 195, 120, 120, 195, 119, 193, 2, 2.94691
209, 2, bw, attraction, a-b-db, 2, 3, 3, 23, 195, 120, 120, 195, 119, 193, 3, 0.403156
209, 2, bw, filler, NA, 999, 999, 3, 24, 140, 154, 67, 61, 179, 115, 1, 1.77707
209, 2, bw, filler, NA, 999, 999, 3, 24, 140, 154, 67, 61, 179, 115, 2, 0.480525
209, 2, bw, catch, NA, 999, 999, 3, 25, 132, 123, 87, 108, 159, 156, 3, 1.43483
209, 2, bw, catch, NA, 999, 999, 3, 25, 132, 123, 87, 108, 159, 156, 2, 1.18434
209, 2, bw, attraction, a-b-da, 2, 1, 3, 26, 135, 60, 134, 59, 60, 135, 3, 2.19065
209, 2, bw, attraction, a-b-da, 2, 1, 3, 26, 135, 60, 134, 59, 60, 135, 2, 0.645203
209, 2, bw, attraction, a-b-da, 5, 1, 3, 27, 135, 60, 132, 58, 60, 135, 3, 1.37707
209, 2, bw, attraction, a-b-da, 5, 1, 3, 27, 135, 60, 132, 58, 60, 135, 2, 0.536514
209, 2, bw, filler, NA, 999, 999, 3, 28, 65, 119, 137, 163, 192, 114, 3, 3.07295
209, 2, bw, filler, NA, 999, 999, 3, 28, 65, 119, 137, 163, 192, 114, 1, 0.86788
209, 2, bw, filler, NA, 999, 999, 3, 29, 161, 181, 177, 68, 122, 145, 1, 1.71891
209, 2, bw, filler, NA, 999, 999, 3, 29, 161, 181, 177, 68, 122, 145, 2, 1.22501
209, 2, bw, attraction, a-b-da, 9, 2, 3, 30, 165, 90, 90, 165, 157, 86, 1, 1.50929
209, 2, bw, attraction, a-b-da, 9, 2, 3, 30, 165, 90, 90, 165, 157, 86, 3, 0.623595
209, 2, bw, filler, NA, 999, 999, 3, 31, 142, 160, 147, 173, 139, 88, 2, 2.04386
209, 2, bw, filler, NA, 999, 999, 3, 31, 142, 160, 147, 173, 139, 88, 3, 0.640481
209, 2, bw, attraction, a-b-db, 9, 2, 3, 32, 86, 157, 165, 90, 90, 165, 3, 4.4603
209, 2, bw, attraction, a-b-db, 9, 2, 3, 32, 86, 157, 165, 90, 90, 165, 1, 0.559449
209, 2, bw, attraction, a-b-db, 2, 2, 3, 33, 90, 165, 165, 90, 89, 163, 3, 5.87077
209, 2, bw, attraction, a-b-db, 2, 2, 3, 33, 90, 165, 165, 90, 89, 163, 2, 0.729423
209, 2, bw, filler, NA, 999, 999, 3, 34, 158, 61, 97, 162, 128, 69, 2, 1.8898
209, 2, bw, filler, NA, 999, 999, 3, 34, 158, 61, 97, 162, 128, 69, 3, 1.25258
209, 2, bw, attraction, a-b-db, 9, 1, 3, 35, 135, 60, 57, 129, 60, 135, 3, 1.89603
209, 2, bw, attraction, a-b-db, 9, 1, 3, 35, 135, 60, 57, 129, 60, 135, 2, 0.474802
209, 2, bw, attraction, a-b-da, 2, 3, 3, 36, 195, 120, 193, 119, 120, 195, 3, 5.42926
209, 2, bw, attraction, a-b-da, 2, 3, 3, 36, 195, 120, 193, 119, 120, 195, 2, 0.513447
209, 2, bw, attraction, a-b-da, 14, 2, 3, 37, 90, 165, 165, 90, 153, 83, 1, 2.6267
209, 2, bw, attraction, a-b-da, 14, 2, 3, 37, 90, 165, 165, 90, 153, 83, 3, 0.847849
209, 2, bw, attraction, a-b-db, 9, 3, 4, 1, 195, 120, 114, 186, 120, 195, 1, 4.89152
209, 2, bw, attraction, a-b-db, 9, 3, 4, 1, 195, 120, 114, 186, 120, 195, 2, 1.04529
209, 2, bw, filler, NA, 999, 999, 4, 2, 175, 79, 185, 143, 72, 187, 2, 1.23291
209, 2, bw, filler, NA, 999, 999, 4, 2, 175, 79, 185, 143, 72, 187, 1, 1.10247
209, 2, bw, catch, NA, 999, 999, 4, 3, 113, 82, 144, 111, 173, 142, 3, 1.21605
209, 2, bw, catch, NA, 999, 999, 4, 3, 113, 82, 144, 111, 173, 142, 1, 0.654469
209, 2, bw, attraction, a-b-db, 9, 2, 4, 4, 165, 90, 86, 157, 90, 165, 2, 4.38605
209, 2, bw, attraction, a-b-db, 9, 2, 4, 4, 165, 90, 86, 157, 90, 165, 1, 0.888674
209, 2, bw, attraction, a-b-da, 14, 1, 4, 5, 125, 56, 135, 60, 60, 135, 2, 2.747
209, 2, bw, attraction, a-b-da, 14, 1, 4, 5, 125, 56, 135, 60, 60, 135, 1, 0.67551
209, 2, bw, attraction, a-b-db, 2, 3, 4, 6, 120, 195, 119, 193, 195, 120, 1, 3.13395
209, 2, bw, attraction, a-b-db, 2, 3, 4, 6, 120, 195, 119, 193, 195, 120, 3, 1.73496
209, 2, bw, filler, NA, 999, 999, 4, 7, 119, 158, 109, 142, 128, 75, 1, 1.18286
209, 2, bw, filler, NA, 999, 999, 4, 7, 119, 158, 109, 142, 128, 75, 3, 1.03053
209, 2, bw, attraction, a-b-da, 9, 3, 4, 8, 120, 195, 186, 114, 195, 120, 1, 3.33877
209, 2, bw, attraction, a-b-da, 9, 3, 4, 8, 120, 195, 186, 114, 195, 120, 2, 0.570967
209, 2, bw, attraction, a-b-db, 2, 2, 4, 9, 90, 165, 89, 163, 165, 90, 1, 3.6821
209, 2, bw, attraction, a-b-db, 2, 2, 4, 9, 90, 165, 89, 163, 165, 90, 3, 0.972943
209, 2, bw, catch, NA, 999, 999, 4, 10, 95, 100, 186, 129, 103, 152, 2, 1.62736
209, 2, bw, catch, NA, 999, 999, 4, 10, 95, 100, 186, 129, 103, 152, 1, 0.384714
209, 2, bw, filler, NA, 999, 999, 4, 11, 136, 184, 98, 77, 190, 168, 3, 1.27925
209, 2, bw, filler, NA, 999, 999, 4, 11, 136, 184, 98, 77, 190, 168, 2, 0.642879
209, 2, bw, filler, NA, 999, 999, 4, 12, 79, 167, 176, 190, 167, 113, 2, 0.670657
209, 2, bw, filler, NA, 999, 999, 4, 12, 79, 167, 176, 190, 167, 113, 1, 0.650257
209, 2, bw, attraction, a-b-da, 9, 1, 4, 13, 135, 60, 60, 135, 129, 57, 2, 1.35801
209, 2, bw, attraction, a-b-da, 9, 1, 4, 13, 135, 60, 60, 135, 129, 57, 1, 0.862236
209, 2, bw, catch, NA, 999, 999, 4, 14, 124, 71, 125, 130, 174, 141, 3, 1.32119
209, 2, bw, catch, NA, 999, 999, 4, 14, 124, 71, 125, 130, 174, 141, 1, 0.610801
209, 2, bw, attraction, a-b-db, 5, 2, 4, 15, 88, 161, 90, 165, 165, 90, 2, 2.37604
209, 2, bw, attraction, a-b-db, 5, 2, 4, 15, 88, 161, 90, 165, 165, 90, 1, 1.64721
209, 2, bw, attraction, a-b-da, 2, 1, 4, 16, 60, 135, 135, 60, 134, 59, 1, 1.44256
209, 2, bw, attraction, a-b-da, 2, 1, 4, 16, 60, 135, 135, 60, 134, 59, 2, 0.799377
209, 2, bw, attraction, a-b-db, 14, 1, 4, 17, 56, 125, 135, 60, 60, 135, 3, 1.96515
209, 2, bw, attraction, a-b-db, 14, 1, 4, 17, 56, 125, 135, 60, 60, 135, 1, 0.813238
209, 2, bw, filler, NA, 999, 999, 4, 18, 76, 183, 174, 184, 145, 72, 2, 1.05813
209, 2, bw, filler, NA, 999, 999, 4, 18, 76, 183, 174, 184, 145, 72, 3, 0.598472
209, 2, bw, filler, NA, 999, 999, 4, 19, 73, 90, 131, 172, 138, 120, 2, 1.18826
209, 2, bw, filler, NA, 999, 999, 4, 19, 73, 90, 131, 172, 138, 120, 1, 0.731177
209, 2, bw, attraction, a-b-da, 9, 2, 4, 20, 90, 165, 157, 86, 165, 90, 1, 1.39545
209, 2, bw, attraction, a-b-da, 9, 2, 4, 20, 90, 165, 157, 86, 165, 90, 2, 0.650311
209, 2, bw, attraction, a-b-da, 5, 1, 4, 21, 135, 60, 60, 135, 132, 58, 2, 1.27014
209, 2, bw, attraction, a-b-da, 5, 1, 4, 21, 135, 60, 60, 135, 132, 58, 3, 0.785714
209, 2, bw, attraction, a-b-da, 14, 2, 4, 22, 165, 90, 90, 165, 153, 83, 2, 2.2482
209, 2, bw, attraction, a-b-da, 14, 2, 4, 22, 165, 90, 90, 165, 153, 83, 3, 0.71685
209, 2, bw, filler, NA, 999, 999, 4, 23, 110, 73, 173, 185, 162, 73, 2, 0.92576
209, 2, bw, filler, NA, 999, 999, 4, 23, 110, 73, 173, 185, 162, 73, 1, 0.703394
209, 2, bw, attraction, a-b-db, 5, 3, 4, 24, 117, 190, 195, 120, 120, 195, 1, 2.13707
209, 2, bw, attraction, a-b-db, 5, 3, 4, 24, 117, 190, 195, 120, 120, 195, 2, 0.458415
209, 2, bw, attraction, a-b-da, 2, 2, 4, 25, 163, 89, 165, 90, 90, 165, 3, 2.89361
209, 2, bw, attraction, a-b-da, 2, 2, 4, 25, 163, 89, 165, 90, 90, 165, 2, 0.599946
209, 2, bw, attraction, a-b-da, 5, 3, 4, 26, 190, 117, 120, 195, 195, 120, 2, 2.86174
209, 2, bw, attraction, a-b-da, 5, 3, 4, 26, 190, 117, 120, 195, 195, 120, 1, 0.505508
209, 2, bw, attraction, a-b-db, 2, 1, 4, 27, 59, 134, 60, 135, 135, 60, 2, 2.29129
209, 2, bw, attraction, a-b-db, 2, 1, 4, 27, 59, 134, 60, 135, 135, 60, 3, 1.52579
209, 2, bw, filler, NA, 999, 999, 4, 28, 118, 156, 142, 94, 171, 68, 1, 1.38202
209, 2, bw, filler, NA, 999, 999, 4, 28, 118, 156, 142, 94, 171, 68, 3, 2.25359
209, 2, bw, attraction, a-b-db, 5, 1, 4, 29, 58, 132, 60, 135, 135, 60, 2, 1.19273
209, 2, bw, attraction, a-b-db, 5, 1, 4, 29, 58, 132, 60, 135, 135, 60, 3, 0.423658
209, 2, bw, attraction, a-b-da, 2, 3, 4, 30, 120, 195, 195, 120, 193, 119, 1, 2.13221
209, 2, bw, attraction, a-b-da, 2, 3, 4, 30, 120, 195, 195, 120, 193, 119, 2, 0.605538
209, 2, bw, filler, NA, 999, 999, 4, 31, 122, 100, 70, 143, 117, 72, 1, 1.97936
209, 2, bw, filler, NA, 999, 999, 4, 31, 122, 100, 70, 143, 117, 72, 3, 0.80276
209, 2, bw, attraction, a-b-da, 5, 2, 4, 32, 90, 165, 161, 88, 165, 90, 1, 2.20026
209, 2, bw, attraction, a-b-da, 5, 2, 4, 32, 90, 165, 161, 88, 165, 90, 2, 0.398873
209, 2, bw, attraction, a-b-db, 14, 3, 4, 33, 111, 181, 120, 195, 195, 120, 2, 1.78865
209, 2, bw, attraction, a-b-db, 14, 3, 4, 33, 111, 181, 120, 195, 195, 120, 1, 0.539414
209, 2, bw, attraction, a-b-db, 9, 1, 4, 34, 135, 60, 60, 135, 57, 129, 2, 2.09922
209, 2, bw, attraction, a-b-db, 9, 1, 4, 34, 135, 60, 60, 135, 57, 129, 1, 0.789832
209, 2, bw, filler, NA, 999, 999, 4, 35, 171, 135, 187, 130, 83, 190, 2, 2.17953
209, 2, bw, filler, NA, 999, 999, 4, 35, 171, 135, 187, 130, 83, 190, 3, 0.394858
209, 2, bw, attraction, a-b-da, 14, 3, 4, 36, 195, 120, 120, 195, 181, 111, 2, 2.02458
209, 2, bw, attraction, a-b-da, 14, 3, 4, 36, 195, 120, 120, 195, 181, 111, 3, 0.917982
209, 2, bw, attraction, a-b-db, 14, 2, 4, 37, 90, 165, 83, 153, 165, 90, 1, 1.17493
209, 2, bw, attraction, a-b-db, 14, 2, 4, 37, 90, 165, 83, 153, 165, 90, 2, 0.422554
209, 2, bw, attraction, a-b-db, 14, 2, 5, 1, 165, 90, 90, 165, 83, 153, 2, 2.48966
209, 2, bw, attraction, a-b-db, 14, 2, 5, 1, 165, 90, 90, 165, 83, 153, 3, 0.636208
209, 2, bw, filler, NA, 999, 999, 5, 2, 102, 117, 101, 84, 173, 110, 3, 1.51255
209, 2, bw, filler, NA, 999, 999, 5, 2, 102, 117, 101, 84, 173, 110, 2, 0.370798
209, 2, bw, attraction, a-b-da, 5, 3, 5, 3, 120, 195, 190, 117, 195, 120, 1, 2.04199
209, 2, bw, attraction, a-b-da, 5, 3, 5, 3, 120, 195, 190, 117, 195, 120, 2, 0.36661
209, 2, bw, attraction, a-b-da, 9, 2, 5, 4, 90, 165, 165, 90, 157, 86, 1, 1.86178
209, 2, bw, attraction, a-b-da, 9, 2, 5, 4, 90, 165, 165, 90, 157, 86, 2, 0.417869
209, 2, bw, attraction, a-b-da, 2, 1, 5, 5, 134, 59, 60, 135, 135, 60, 2, 1.39097
209, 2, bw, attraction, a-b-da, 2, 1, 5, 5, 134, 59, 60, 135, 135, 60, 1, 0.725887
209, 2, bw, attraction, a-b-db, 14, 3, 5, 6, 120, 195, 195, 120, 111, 181, 1, 1.67035
209, 2, bw, attraction, a-b-db, 14, 3, 5, 6, 120, 195, 195, 120, 111, 181, 2, 0.425919
209, 2, bw, filler, NA, 999, 999, 5, 7, 135, 189, 123, 92, 151, 93, 1, 1.03821
209, 2, bw, filler, NA, 999, 999, 5, 7, 135, 189, 123, 92, 151, 93, 2, 0.491229
209, 2, bw, attraction, a-b-db, 2, 3, 5, 8, 195, 120, 120, 195, 119, 193, 2, 1.68488
209, 2, bw, attraction, a-b-db, 2, 3, 5, 8, 195, 120, 120, 195, 119, 193, 3, 0.504423
209, 2, bw, filler, NA, 999, 999, 5, 9, 84, 134, 109, 121, 58, 109, 2, 0.89816
209, 2, bw, filler, NA, 999, 999, 5, 9, 84, 134, 109, 121, 58, 109, 3, 0.41313
209, 2, bw, attraction, a-b-da, 5, 1, 5, 10, 132, 58, 60, 135, 135, 60, 2, 3.22634
209, 2, bw, attraction, a-b-da, 5, 1, 5, 10, 132, 58, 60, 135, 135, 60, 1, 0.431436
209, 2, bw, attraction, a-b-db, 14, 1, 5, 11, 135, 60, 60, 135, 56, 125, 2, 1.50784
209, 2, bw, attraction, a-b-db, 14, 1, 5, 11, 135, 60, 60, 135, 56, 125, 3, 0.877955
209, 2, bw, attraction, a-b-db, 9, 1, 5, 12, 60, 135, 57, 129, 135, 60, 1, 1.60834
209, 2, bw, attraction, a-b-db, 9, 1, 5, 12, 60, 135, 57, 129, 135, 60, 2, 0.53442
209, 2, bw, attraction, a-b-da, 9, 1, 5, 13, 60, 135, 129, 57, 135, 60, 3, 2.75899
209, 2, bw, attraction, a-b-da, 9, 1, 5, 13, 60, 135, 129, 57, 135, 60, 2, 0.734691
209, 2, bw, attraction, a-b-da, 2, 3, 5, 14, 195, 120, 120, 195, 193, 119, 1, 2.74297
209, 2, bw, attraction, a-b-da, 2, 3, 5, 14, 195, 120, 120, 195, 193, 119, 3, 0.831495
209, 2, bw, filler, NA, 999, 999, 5, 15, 126, 87, 169, 75, 94, 134, 2, 1.41987
209, 2, bw, filler, NA, 999, 999, 5, 15, 126, 87, 169, 75, 94, 134, 1, 3.60199
209, 2, bw, attraction, a-b-da, 14, 3, 5, 16, 195, 120, 120, 195, 181, 111, 2, 2.31896
209, 2, bw, attraction, a-b-da, 14, 3, 5, 16, 195, 120, 120, 195, 181, 111, 3, 0.640724
209, 2, bw, filler, NA, 999, 999, 5, 17, 127, 109, 117, 73, 131, 72, 1, 1.10846
209, 2, bw, filler, NA, 999, 999, 5, 17, 127, 109, 117, 73, 131, 72, 2, 0.49488
209, 2, bw, attraction, a-b-db, 2, 2, 5, 18, 90, 165, 89, 163, 165, 90, 1, 3.56064
209, 2, bw, attraction, a-b-db, 2, 2, 5, 18, 90, 165, 89, 163, 165, 90, 2, 0.656109
209, 2, bw, filler, NA, 999, 999, 5, 19, 73, 71, 107, 167, 57, 121, 2, 0.69916
209, 2, bw, filler, NA, 999, 999, 5, 19, 73, 71, 107, 167, 57, 121, 1, 0.646247
209, 2, bw, catch, NA, 999, 999, 5, 20, 87, 108, 153, 102, 172, 143, 3, 2.19405
209, 2, bw, catch, NA, 999, 999, 5, 20, 87, 108, 153, 102, 172, 143, 1, 0.424604
209, 2, bw, attraction, a-b-db, 5, 3, 5, 21, 120, 195, 195, 120, 117, 190, 1, 1.43707
209, 2, bw, attraction, a-b-db, 5, 3, 5, 21, 120, 195, 195, 120, 117, 190, 2, 1.04998
209, 2, bw, attraction, a-b-da, 5, 2, 5, 22, 90, 165, 161, 88, 165, 90, 3, 1.87757
209, 2, bw, attraction, a-b-da, 5, 2, 5, 22, 90, 165, 161, 88, 165, 90, 2, 0.417058
209, 2, bw, attraction, a-b-da, 14, 1, 5, 23, 125, 56, 135, 60, 60, 135, 2, 1.17404
209, 2, bw, attraction, a-b-da, 14, 1, 5, 23, 125, 56, 135, 60, 60, 135, 1, 0.693644
209, 2, bw, attraction, a-b-da, 14, 2, 5, 24, 153, 83, 165, 90, 90, 165, 3, 1.34339
209, 2, bw, attraction, a-b-da, 14, 2, 5, 24, 153, 83, 165, 90, 90, 165, 1, 0.736275
209, 2, bw, attraction, a-b-db, 5, 1, 5, 25, 60, 135, 58, 132, 135, 60, 2, 1.46464
209, 2, bw, attraction, a-b-db, 5, 1, 5, 25, 60, 135, 58, 132, 135, 60, 3, 0.660884
209, 2, bw, catch, NA, 999, 999, 5, 26, 146, 109, 181, 134, 71, 124, 2, 2.13588
209, 2, bw, catch, NA, 999, 999, 5, 26, 146, 109, 181, 134, 71, 124, 3, 0.617213
209, 2, bw, attraction, a-b-db, 2, 1, 5, 27, 59, 134, 60, 135, 135, 60, 2, 0.950313
209, 2, bw, attraction, a-b-db, 2, 1, 5, 27, 59, 134, 60, 135, 135, 60, 3, 2.03136
209, 2, bw, attraction, a-b-da, 2, 2, 5, 28, 163, 89, 90, 165, 165, 90, 2, 3.89141
209, 2, bw, attraction, a-b-da, 2, 2, 5, 28, 163, 89, 90, 165, 165, 90, 1, 0.565377
209, 2, bw, filler, NA, 999, 999, 5, 29, 146, 108, 178, 99, 181, 118, 3, 1.32457
209, 2, bw, filler, NA, 999, 999, 5, 29, 146, 108, 178, 99, 181, 118, 1, 0.933982
209, 2, bw, filler, NA, 999, 999, 5, 30, 191, 97, 64, 74, 92, 109, 1, 1.22243
209, 2, bw, filler, NA, 999, 999, 5, 30, 191, 97, 64, 74, 92, 109, 2, 0.587914
209, 2, bw, attraction, a-b-db, 9, 3, 5, 31, 195, 120, 114, 186, 120, 195, 1, 1.41039
209, 2, bw, attraction, a-b-db, 9, 3, 5, 31, 195, 120, 114, 186, 120, 195, 2, 1.00057
209, 2, bw, filler, NA, 999, 999, 5, 32, 67, 134, 105, 115, 142, 173, 3, 1.08623
209, 2, bw, filler, NA, 999, 999, 5, 32, 67, 134, 105, 115, 142, 173, 1, 1.21784
209, 2, bw, attraction, a-b-db, 9, 2, 5, 33, 86, 157, 90, 165, 165, 90, 2, 1.92666
209, 2, bw, attraction, a-b-db, 9, 2, 5, 33, 86, 157, 90, 165, 165, 90, 1, 1.71208
209, 2, bw, attraction, a-b-da, 9, 3, 5, 34, 195, 120, 120, 195, 186, 114, 2, 1.25681
209, 2, bw, attraction, a-b-da, 9, 3, 5, 34, 195, 120, 120, 195, 186, 114, 1, 1.1971
209, 2, bw, attraction, a-b-db, 5, 2, 5, 35, 88, 161, 165, 90, 90, 165, 3, 1.45868
209, 2, bw, attraction, a-b-db, 5, 2, 5, 35, 88, 161, 165, 90, 90, 165, 2, 0.662843
209, 2, bw, filler, NA, 999, 999, 5, 36, 57, 109, 120, 167, 72, 73, 2, 1.06594
209, 2, bw, filler, NA, 999, 999, 5, 36, 57, 109, 120, 167, 72, 73, 3, 0.654223
209, 2, bw, catch, NA, 999, 999, 5, 37, 104, 151, 135, 60, 186, 129, 3, 0.841954
209, 2, bw, catch, NA, 999, 999, 5, 37, 104, 151, 135, 60, 186, 129, 2, 0.790984
209, 2, bw, attraction, a-b-da, 5, 3, 6, 1, 120, 195, 195, 120, 190, 117, 1, 0.96471
209, 2, bw, attraction, a-b-da, 5, 3, 6, 1, 120, 195, 195, 120, 190, 117, 3, 1.24506
209, 2, bw, attraction, a-b-da, 9, 2, 6, 2, 157, 86, 165, 90, 90, 165, 3, 1.28857
209, 2, bw, attraction, a-b-da, 9, 2, 6, 2, 157, 86, 165, 90, 90, 165, 1, 0.5395
209, 2, bw, catch, NA, 999, 999, 6, 3, 141, 114, 145, 170, 71, 124, 2, 0.643224
209, 2, bw, catch, NA, 999, 999, 6, 3, 141, 114, 145, 170, 71, 124, 3, 0.440352
209, 2, bw, attraction, a-b-db, 2, 2, 6, 4, 90, 165, 165, 90, 89, 163, 3, 1.12414
209, 2, bw, attraction, a-b-db, 2, 2, 6, 4, 90, 165, 165, 90, 89, 163, 2, 0.653767
209, 2, bw, attraction, a-b-da, 2, 3, 6, 5, 120, 195, 195, 120, 193, 119, 1, 1.15357
209, 2, bw, attraction, a-b-da, 2, 3, 6, 5, 120, 195, 195, 120, 193, 119, 2, 0.633738
209, 2, bw, attraction, a-b-da, 2, 1, 6, 6, 60, 135, 134, 59, 135, 60, 1, 1.10211
209, 2, bw, attraction, a-b-da, 2, 1, 6, 6, 60, 135, 134, 59, 135, 60, 2, 0.513258
209, 2, bw, attraction, a-b-da, 5, 2, 6, 7, 165, 90, 90, 165, 161, 88, 2, 0.986347
209, 2, bw, attraction, a-b-da, 5, 2, 6, 7, 165, 90, 90, 165, 161, 88, 1, 0.953915
209, 2, bw, attraction, a-b-da, 9, 1, 6, 8, 129, 57, 135, 60, 60, 135, 3, 1.2736
209, 2, bw, attraction, a-b-da, 9, 1, 6, 8, 129, 57, 135, 60, 60, 135, 1, 0.549095
209, 2, bw, attraction, a-b-da, 14, 1, 6, 9, 60, 135, 125, 56, 135, 60, 1, 1.21288
209, 2, bw, attraction, a-b-da, 14, 1, 6, 9, 60, 135, 125, 56, 135, 60, 2, 1.09918
209, 2, bw, catch, NA, 999, 999, 6, 10, 142, 173, 102, 93, 129, 126, 1, 0.756758
209, 2, bw, catch, NA, 999, 999, 6, 10, 142, 173, 102, 93, 129, 126, 2, 0.74121
209, 2, bw, filler, NA, 999, 999, 6, 11, 88, 129, 102, 178, 89, 185, 2, 0.676812
209, 2, bw, filler, NA, 999, 999, 6, 11, 88, 129, 102, 178, 89, 185, 1, 0.504679
209, 2, bw, attraction, a-b-da, 5, 1, 6, 12, 135, 60, 60, 135, 132, 58, 2, 0.746524
209, 2, bw, attraction, a-b-da, 5, 1, 6, 12, 135, 60, 60, 135, 132, 58, 3, 2.38746
209, 2, bw, attraction, a-b-da, 14, 3, 6, 13, 181, 111, 120, 195, 195, 120, 2, 1.9774
209, 2, bw, attraction, a-b-da, 14, 3, 6, 13, 181, 111, 120, 195, 195, 120, 1, 0.544757
209, 2, bw, filler, NA, 999, 999, 6, 14, 135, 133, 95, 74, 70, 93, 1, 0.776542
209, 2, bw, filler, NA, 999, 999, 6, 14, 135, 133, 95, 74, 70, 93, 3, 2.40026
209, 2, bw, attraction, a-b-da, 9, 3, 6, 15, 120, 195, 195, 120, 186, 114, 1, 3.34941
209, 2, bw, attraction, a-b-da, 9, 3, 6, 15, 120, 195, 195, 120, 186, 114, 3, 0.925801
209, 2, bw, attraction, a-b-db, 2, 3, 6, 16, 119, 193, 195, 120, 120, 195, 1, 1.6941
209, 2, bw, attraction, a-b-db, 2, 3, 6, 16, 119, 193, 195, 120, 120, 195, 2, 0.888743
209, 2, bw, attraction, a-b-db, 14, 3, 6, 17, 111, 181, 195, 120, 120, 195, 3, 1.91511
209, 2, bw, attraction, a-b-db, 14, 3, 6, 17, 111, 181, 195, 120, 120, 195, 1, 3.47715
209, 2, bw, filler, NA, 999, 999, 6, 18, 122, 176, 138, 121, 169, 153, 3, 1.79866
209, 2, bw, filler, NA, 999, 999, 6, 18, 122, 176, 138, 121, 169, 153, 2, 0.685521
209, 2, bw, attraction, a-b-db, 5, 2, 6, 19, 90, 165, 88, 161, 165, 90, 1, 1.35998
209, 2, bw, attraction, a-b-db, 5, 2, 6, 19, 90, 165, 88, 161, 165, 90, 3, 0.928164
209, 2, bw, attraction, a-b-db, 9, 2, 6, 20, 165, 90, 90, 165, 86, 157, 2, 2.19242
209, 2, bw, attraction, a-b-db, 9, 2, 6, 20, 165, 90, 90, 165, 86, 157, 3, 0.574972
209, 2, bw, attraction, a-b-db, 9, 1, 6, 21, 60, 135, 135, 60, 57, 129, 1, 1.65351
209, 2, bw, attraction, a-b-db, 9, 1, 6, 21, 60, 135, 135, 60, 57, 129, 2, 0.794244
209, 2, bw, filler, NA, 999, 999, 6, 22, 190, 180, 124, 108, 59, 161, 1, 0.615847
209, 2, bw, filler, NA, 999, 999, 6, 22, 190, 180, 124, 108, 59, 161, 3, 0.838348
209, 2, bw, filler, NA, 999, 999, 6, 23, 80, 136, 122, 65, 186, 130, 3, 0.930779
209, 2, bw, filler, NA, 999, 999, 6, 23, 80, 136, 122, 65, 186, 130, 2, 1.22835
209, 2, bw, catch, NA, 999, 999, 6, 24, 61, 134, 154, 161, 136, 119, 2, 1.4166
209, 2, bw, catch, NA, 999, 999, 6, 24, 61, 134, 154, 161, 136, 119, 1, 0.574757
209, 2, bw, attraction, a-b-db, 2, 1, 6, 25, 59, 134, 60, 135, 135, 60, 1, 1.74911
209, 2, bw, attraction, a-b-db, 2, 1, 6, 25, 59, 134, 60, 135, 135, 60, 3, 1.32595
209, 2, bw, attraction, a-b-db, 5, 3, 6, 26, 117, 190, 195, 120, 120, 195, 3, 2.11023
209, 2, bw, attraction, a-b-db, 5, 3, 6, 26, 117, 190, 195, 120, 120, 195, 2, 1.15218
209, 2, bw, attraction, a-b-db, 14, 2, 6, 27, 83, 153, 90, 165, 165, 90, 2, 1.73578
209, 2, bw, attraction, a-b-db, 14, 2, 6, 27, 83, 153, 90, 165, 165, 90, 1, 0.481149
209, 2, bw, filler, NA, 999, 999, 6, 28, 177, 182, 76, 187, 78, 83, 1, 0.771821
209, 2, bw, filler, NA, 999, 999, 6, 28, 177, 182, 76, 187, 78, 83, 3, 0.843461
209, 2, bw, filler, NA, 999, 999, 6, 29, 184, 61, 185, 184, 69, 93, 2, 0.558966
209, 2, bw, filler, NA, 999, 999, 6, 29, 184, 61, 185, 184, 69, 93, 3, 0.775495
209, 2, bw, filler, NA, 999, 999, 6, 30, 82, 125, 182, 72, 79, 172, 3, 3.53391
209, 2, bw, filler, NA, 999, 999, 6, 30, 82, 125, 182, 72, 79, 172, 2, 3.11073
209, 2, bw, attraction, a-b-db, 9, 3, 6, 31, 195, 120, 120, 195, 114, 186, 2, 3.18301
209, 2, bw, attraction, a-b-db, 9, 3, 6, 31, 195, 120, 120, 195, 114, 186, 3, 1.00603
209, 2, bw, filler, NA, 999, 999, 6, 32, 179, 57, 159, 60, 172, 158, 3, 0.930885
209, 2, bw, filler, NA, 999, 999, 6, 32, 179, 57, 159, 60, 172, 158, 2, 0.812597
209, 2, bw, attraction, a-b-db, 5, 1, 6, 33, 60, 135, 135, 60, 58, 132, 3, 5.76184
209, 2, bw, attraction, a-b-db, 5, 1, 6, 33, 60, 135, 135, 60, 58, 132, 2, 0.488626
209, 2, bw, attraction, a-b-db, 14, 1, 6, 34, 60, 135, 56, 125, 135, 60, 1, 1.18704
209, 2, bw, attraction, a-b-db, 14, 1, 6, 34, 60, 135, 56, 125, 135, 60, 2, 0.71466
209, 2, bw, filler, NA, 999, 999, 6, 35, 81, 145, 102, 104, 100, 121, 3, 2.23558
209, 2, bw, filler, NA, 999, 999, 6, 35, 81, 145, 102, 104, 100, 121, 2, 0.769034
209, 2, bw, attraction, a-b-da, 14, 2, 6, 36, 90, 165, 153, 83, 165, 90, 1, 1.35196
209, 2, bw, attraction, a-b-da, 14, 2, 6, 36, 90, 165, 153, 83, 165, 90, 2, 0.632892
209, 2, bw, attraction, a-b-da, 2, 2, 6, 37, 165, 90, 90, 165, 163, 89, 2, 1.66115
209, 2, bw, attraction, a-b-da, 2, 2, 6, 37, 165, 90, 90, 165, 163, 89, 1, 0.585313
209, 2, bw, attraction, a-b-db, 5, 3, 7, 1, 195, 120, 120, 195, 117, 190, 1, 4.73576
209, 2, bw, attraction, a-b-db, 5, 3, 7, 1, 195, 120, 120, 195, 117, 190, 3, 0.488346
209, 2, bw, filler, NA, 999, 999, 7, 2, 63, 156, 111, 189, 107, 106, 2, 1.44277
209, 2, bw, filler, NA, 999, 999, 7, 2, 63, 156, 111, 189, 107, 106, 1, 1.07168
209, 2, bw, filler, NA, 999, 999, 7, 3, 64, 174, 136, 132, 155, 91, 2, 1.6105
209, 2, bw, filler, NA, 999, 999, 7, 3, 64, 174, 136, 132, 155, 91, 1, 0.616643
209, 2, bw, attraction, a-b-da, 5, 1, 7, 4, 132, 58, 60, 135, 135, 60, 2, 2.12568
209, 2, bw, attraction, a-b-da, 5, 1, 7, 4, 132, 58, 60, 135, 135, 60, 3, 0.431038
209, 2, bw, attraction, a-b-db, 5, 1, 7, 5, 135, 60, 60, 135, 58, 132, 2, 1.48354
209, 2, bw, attraction, a-b-db, 5, 1, 7, 5, 135, 60, 60, 135, 58, 132, 1, 1.85504
209, 2, bw, attraction, a-b-db, 14, 3, 7, 6, 195, 120, 111, 181, 120, 195, 1, 1.61042
209, 2, bw, attraction, a-b-db, 14, 3, 7, 6, 195, 120, 111, 181, 120, 195, 2, 0.760502
209, 2, bw, attraction, a-b-db, 9, 1, 7, 7, 135, 60, 60, 135, 57, 129, 2, 1.23958
209, 2, bw, attraction, a-b-db, 9, 1, 7, 7, 135, 60, 60, 135, 57, 129, 3, 0.932469
209, 2, bw, attraction, a-b-da, 14, 1, 7, 8, 135, 60, 60, 135, 125, 56, 2, 1.22885
209, 2, bw, attraction, a-b-da, 14, 1, 7, 8, 135, 60, 60, 135, 125, 56, 3, 1.01838
209, 2, bw, filler, NA, 999, 999, 7, 9, 152, 166, 192, 133, 168, 158, 2, 5.63136
209, 2, bw, filler, NA, 999, 999, 7, 9, 152, 166, 192, 133, 168, 158, 1, 0.419506
209, 2, bw, attraction, a-b-db, 9, 3, 7, 10, 120, 195, 114, 186, 195, 120, 1, 2.26468
209, 2, bw, attraction, a-b-db, 9, 3, 7, 10, 120, 195, 114, 186, 195, 120, 2, 0.404596
209, 2, bw, attraction, a-b-db, 2, 3, 7, 11, 119, 193, 120, 195, 195, 120, 1, 2.84254
209, 2, bw, attraction, a-b-db, 2, 3, 7, 11, 119, 193, 120, 195, 195, 120, 2, 0.542899
209, 2, bw, attraction, a-b-da, 2, 1, 7, 12, 60, 135, 134, 59, 135, 60, 1, 1.32664
209, 2, bw, attraction, a-b-da, 2, 1, 7, 12, 60, 135, 134, 59, 135, 60, 2, 0.640214
209, 2, bw, filler, NA, 999, 999, 7, 13, 85, 184, 111, 137, 166, 175, 3, 1.01994
209, 2, bw, filler, NA, 999, 999, 7, 13, 85, 184, 111, 137, 166, 175, 2, 0.689646
209, 2, bw, filler, NA, 999, 999, 7, 14, 138, 126, 116, 181, 193, 82, 2, 1.95537
209, 2, bw, filler, NA, 999, 999, 7, 14, 138, 126, 116, 181, 193, 82, 1, 0.65138
209, 2, bw, filler, NA, 999, 999, 7, 15, 119, 118, 161, 142, 84, 190, 2, 1.23107
209, 2, bw, filler, NA, 999, 999, 7, 15, 119, 118, 161, 142, 84, 190, 1, 0.668669
209, 2, bw, attraction, a-b-da, 5, 3, 7, 16, 195, 120, 120, 195, 190, 117, 2, 1.97582
209, 2, bw, attraction, a-b-da, 5, 3, 7, 16, 195, 120, 120, 195, 190, 117, 3, 0.511158
209, 2, bw, catch, NA, 999, 999, 7, 17, 162, 153, 84, 111, 106, 149, 1, 0.824216
209, 2, bw, catch, NA, 999, 999, 7, 17, 162, 153, 84, 111, 106, 149, 2, 0.405908
209, 2, bw, filler, NA, 999, 999, 7, 18, 114, 151, 185, 183, 64, 142, 2, 0.763757
209, 2, bw, filler, NA, 999, 999, 7, 18, 114, 151, 185, 183, 64, 142, 3, 0.876304
209, 2, bw, attraction, a-b-db, 9, 2, 7, 19, 90, 165, 86, 157, 165, 90, 1, 1.61449
209, 2, bw, attraction, a-b-db, 9, 2, 7, 19, 90, 165, 86, 157, 165, 90, 2, 0.620674
209, 2, bw, attraction, a-b-da, 5, 2, 7, 20, 165, 90, 161, 88, 90, 165, 3, 1.35362
209, 2, bw, attraction, a-b-da, 5, 2, 7, 20, 165, 90, 161, 88, 90, 165, 1, 0.602602
209, 2, bw, attraction, a-b-db, 14, 1, 7, 21, 60, 135, 56, 125, 135, 60, 1, 1.18427
209, 2, bw, attraction, a-b-db, 14, 1, 7, 21, 60, 135, 56, 125, 135, 60, 2, 0.488099
209, 2, bw, attraction, a-b-da, 14, 2, 7, 22, 165, 90, 153, 83, 90, 165, 1, 1.14638
209, 2, bw, attraction, a-b-da, 14, 2, 7, 22, 165, 90, 153, 83, 90, 165, 2, 0.603362
209, 2, bw, attraction, a-b-db, 2, 2, 7, 23, 89, 163, 165, 90, 90, 165, 1, 2.6252
209, 2, bw, attraction, a-b-db, 2, 2, 7, 23, 89, 163, 165, 90, 90, 165, 2, 0.494325
209, 2, bw, attraction, a-b-da, 9, 2, 7, 24, 165, 90, 157, 86, 90, 165, 1, 1.11211
209, 2, bw, attraction, a-b-da, 9, 2, 7, 24, 165, 90, 157, 86, 90, 165, 2, 0.4424
209, 2, bw, filler, NA, 999, 999, 7, 25, 147, 188, 121, 133, 92, 136, 1, 0.774038
209, 2, bw, filler, NA, 999, 999, 7, 25, 147, 188, 121, 133, 92, 136, 3, 1.46997
209, 2, bw, filler, NA, 999, 999, 7, 26, 99, 77, 178, 176, 165, 103, 2, 0.71259
209, 2, bw, filler, NA, 999, 999, 7, 26, 99, 77, 178, 176, 165, 103, 1, 0.571151
209, 2, bw, attraction, a-b-da, 14, 3, 7, 27, 120, 195, 195, 120, 181, 111, 1, 1.60213
209, 2, bw, attraction, a-b-da, 14, 3, 7, 27, 120, 195, 195, 120, 181, 111, 3, 0.689025
209, 2, bw, attraction, a-b-da, 2, 3, 7, 28, 193, 119, 120, 195, 195, 120, 2, 1.81136
209, 2, bw, attraction, a-b-da, 2, 3, 7, 28, 193, 119, 120, 195, 195, 120, 1, 0.369468
209, 2, bw, attraction, a-b-da, 9, 1, 7, 29, 135, 60, 60, 135, 129, 57, 2, 1.36059
209, 2, bw, attraction, a-b-da, 9, 1, 7, 29, 135, 60, 60, 135, 129, 57, 1, 0.664859
209, 2, bw, attraction, a-b-db, 2, 1, 7, 30, 135, 60, 60, 135, 59, 134, 2, 1.05192
209, 2, bw, attraction, a-b-db, 2, 1, 7, 30, 135, 60, 60, 135, 59, 134, 1, 0.816999
209, 2, bw, attraction, a-b-da, 2, 2, 7, 31, 165, 90, 163, 89, 90, 165, 3, 1.59002
209, 2, bw, attraction, a-b-da, 2, 2, 7, 31, 165, 90, 163, 89, 90, 165, 2, 0.516802
209, 2, bw, catch, NA, 999, 999, 7, 32, 138, 177, 105, 150, 126, 69, 1, 0.717836
209, 2, bw, catch, NA, 999, 999, 7, 32, 138, 177, 105, 150, 126, 69, 3, 0.760214
209, 2, bw, attraction, a-b-da, 9, 3, 7, 33, 195, 120, 186, 114, 120, 195, 3, 2.75933
209, 2, bw, attraction, a-b-da, 9, 3, 7, 33, 195, 120, 186, 114, 120, 195, 2, 0.559174
209, 2, bw, attraction, a-b-db, 5, 2, 7, 34, 165, 90, 90, 165, 88, 161, 2, 5.97422
209, 2, bw, attraction, a-b-db, 5, 2, 7, 34, 165, 90, 90, 165, 88, 161, 1, 0.828425
209, 2, bw, filler, NA, 999, 999, 7, 35, 107, 111, 178, 171, 129, 117, 2, 1.08068
209, 2, bw, filler, NA, 999, 999, 7, 35, 107, 111, 178, 171, 129, 117, 1, 0.532254
209, 2, bw, attraction, a-b-db, 14, 2, 7, 36, 165, 90, 83, 153, 90, 165, 3, 1.9407
209, 2, bw, attraction, a-b-db, 14, 2, 7, 36, 165, 90, 83, 153, 90, 165, 2, 0.717416
209, 2, bw, catch, NA, 999, 999, 7, 37, 146, 109, 154, 161, 95, 100, 2, 0.934417
209, 2, bw, catch, NA, 999, 999, 7, 37, 146, 109, 154, 161, 95, 100, 3, 0.656197
209, 2, bw, filler, NA, 999, 999, 8, 1, 84, 162, 174, 121, 138, 76, 2, 0.97931
209, 2, bw, filler, NA, 999, 999, 8, 1, 84, 162, 174, 121, 138, 76, 3, 1.04294
209, 2, bw, filler, NA, 999, 999, 8, 2, 116, 134, 160, 164, 186, 157, 3, 1.19845
209, 2, bw, filler, NA, 999, 999, 8, 2, 116, 134, 160, 164, 186, 157, 1, 0.469417
209, 2, bw, catch, NA, 999, 999, 8, 3, 183, 132, 148, 107, 104, 91, 1, 0.760497
209, 2, bw, catch, NA, 999, 999, 8, 3, 183, 132, 148, 107, 104, 91, 3, 0.448895
209, 2, bw, attraction, a-b-db, 5, 3, 8, 4, 117, 190, 120, 195, 195, 120, 2, 1.45273
209, 2, bw, attraction, a-b-db, 5, 3, 8, 4, 117, 190, 120, 195, 195, 120, 1, 0.457591
209, 2, bw, attraction, a-b-db, 2, 2, 8, 5, 165, 90, 90, 165, 89, 163, 2, 3.6207
209, 2, bw, attraction, a-b-db, 2, 2, 8, 5, 165, 90, 90, 165, 89, 163, 1, 0.722331
209, 2, bw, attraction, a-b-da, 14, 1, 8, 6, 135, 60, 125, 56, 60, 135, 3, 2.34745
209, 2, bw, attraction, a-b-da, 14, 1, 8, 6, 135, 60, 125, 56, 60, 135, 2, 0.707875
209, 2, bw, attraction, a-b-db, 14, 2, 8, 7, 165, 90, 83, 153, 90, 165, 3, 1.18105
209, 2, bw, attraction, a-b-db, 14, 2, 8, 7, 165, 90, 83, 153, 90, 165, 2, 0.55659
209, 2, bw, filler, NA, 999, 999, 8, 8, 180, 166, 87, 58, 83, 141, 1, 0.715644
209, 2, bw, filler, NA, 999, 999, 8, 8, 180, 166, 87, 58, 83, 141, 2, 1.02202
209, 2, bw, attraction, a-b-da, 2, 3, 8, 9, 193, 119, 120, 195, 195, 120, 2, 1.56299
209, 2, bw, attraction, a-b-da, 2, 3, 8, 9, 193, 119, 120, 195, 195, 120, 1, 0.411273
209, 2, bw, attraction, a-b-da, 9, 1, 8, 10, 129, 57, 135, 60, 60, 135, 2, 1.92037
209, 2, bw, attraction, a-b-da, 9, 1, 8, 10, 129, 57, 135, 60, 60, 135, 1, 0.441682
209, 2, bw, attraction, a-b-db, 2, 3, 8, 11, 119, 193, 195, 120, 120, 195, 3, 2.11748
209, 2, bw, attraction, a-b-db, 2, 3, 8, 11, 119, 193, 195, 120, 120, 195, 1, 0.519373
209, 2, bw, attraction, a-b-da, 5, 2, 8, 12, 90, 165, 165, 90, 161, 88, 1, 4.04061
209, 2, bw, attraction, a-b-da, 5, 2, 8, 12, 90, 165, 165, 90, 161, 88, 3, 0.876574
209, 2, bw, filler, NA, 999, 999, 8, 13, 191, 148, 173, 159, 176, 123, 1, 1.98297
209, 2, bw, filler, NA, 999, 999, 8, 13, 191, 148, 173, 159, 176, 123, 3, 0.42229
209, 2, bw, attraction, a-b-db, 5, 2, 8, 14, 90, 165, 88, 161, 165, 90, 2, 2.61151
209, 2, bw, attraction, a-b-db, 5, 2, 8, 14, 90, 165, 88, 161, 165, 90, 3, 0.841278
209, 2, bw, filler, NA, 999, 999, 8, 15, 169, 115, 151, 89, 110, 162, 1, 1.18088
209, 2, bw, filler, NA, 999, 999, 8, 15, 169, 115, 151, 89, 110, 162, 2, 1.06857
209, 2, bw, attraction, a-b-da, 5, 1, 8, 16, 135, 60, 132, 58, 60, 135, 3, 2.0155
209, 2, bw, attraction, a-b-da, 5, 1, 8, 16, 135, 60, 132, 58, 60, 135, 2, 0.46151
209, 2, bw, filler, NA, 999, 999, 8, 17, 80, 92, 151, 72, 102, 160, 3, 0.872706
209, 2, bw, filler, NA, 999, 999, 8, 17, 80, 92, 151, 72, 102, 160, 1, 1.4924
209, 2, bw, attraction, a-b-db, 5, 1, 8, 18, 135, 60, 58, 132, 60, 135, 3, 2.94188
209, 2, bw, attraction, a-b-db, 5, 1, 8, 18, 135, 60, 58, 132, 60, 135, 2, 0.582256
209, 2, bw, attraction, a-b-db, 14, 1, 8, 19, 56, 125, 60, 135, 135, 60, 2, 7.90066
209, 2, bw, attraction, a-b-db, 14, 1, 8, 19, 56, 125, 60, 135, 135, 60, 1, 0.98147
209, 2, bw, attraction, a-b-db, 9, 1, 8, 20, 60, 135, 135, 60, 57, 129, 3, 5.53985
209, 2, bw, attraction, a-b-db, 9, 1, 8, 20, 60, 135, 135, 60, 57, 129, 2, 1.4354
209, 2, bw, filler, NA, 999, 999, 8, 21, 119, 101, 147, 182, 90, 170, 2, 1.56754
209, 2, bw, filler, NA, 999, 999, 8, 21, 119, 101, 147, 182, 90, 170, 1, 0.439726
209, 2, bw, attraction, a-b-da, 14, 3, 8, 22, 120, 195, 181, 111, 195, 120, 1, 3.68343
209, 2, bw, attraction, a-b-da, 14, 3, 8, 22, 120, 195, 181, 111, 195, 120, 2, 0.45435
209, 2, bw, attraction, a-b-db, 2, 1, 8, 23, 60, 135, 135, 60, 59, 134, 1, 4.05807
209, 2, bw, attraction, a-b-db, 2, 1, 8, 23, 60, 135, 135, 60, 59, 134, 2, 0.61338
209, 2, bw, filler, NA, 999, 999, 8, 24, 95, 173, 129, 60, 93, 179, 1, 4.73847
209, 2, bw, filler, NA, 999, 999, 8, 24, 95, 173, 129, 60, 93, 179, 2, 0.618268
209, 2, bw, filler, NA, 999, 999, 8, 25, 158, 169, 76, 134, 116, 172, 1, 0.919329
209, 2, bw, filler, NA, 999, 999, 8, 25, 158, 169, 76, 134, 116, 172, 2, 0.473742
209, 2, bw, attraction, a-b-db, 14, 3, 8, 26, 111, 181, 195, 120, 120, 195, 3, 2.28415
209, 2, bw, attraction, a-b-db, 14, 3, 8, 26, 111, 181, 195, 120, 120, 195, 1, 0.615628
209, 2, bw, attraction, a-b-da, 2, 1, 8, 27, 134, 59, 135, 60, 60, 135, 2, 2.31652
209, 2, bw, attraction, a-b-da, 2, 1, 8, 27, 134, 59, 135, 60, 60, 135, 1, 0.542479
209, 2, bw, attraction, a-b-db, 9, 3, 8, 28, 114, 186, 195, 120, 120, 195, 3, 1.28622
209, 2, bw, attraction, a-b-db, 9, 3, 8, 28, 114, 186, 195, 120, 120, 195, 1, 0.409967
209, 2, bw, attraction, a-b-da, 14, 2, 8, 29, 165, 90, 90, 165, 153, 83, 2, 2.50299
209, 2, bw, attraction, a-b-da, 14, 2, 8, 29, 165, 90, 90, 165, 153, 83, 3, 0.449515
209, 2, bw, catch, NA, 999, 999, 8, 30, 124, 131, 192, 123, 103, 92, 2, 1.93339
209, 2, bw, catch, NA, 999, 999, 8, 30, 124, 131, 192, 123, 103, 92, 3, 0.566658
209, 2, bw, attraction, a-b-da, 2, 2, 8, 31, 90, 165, 165, 90, 163, 89, 1, 1.55776
209, 2, bw, attraction, a-b-da, 2, 2, 8, 31, 90, 165, 165, 90, 163, 89, 3, 1.09395
209, 2, bw, filler, NA, 999, 999, 8, 32, 66, 152, 124, 82, 61, 125, 1, 1.83956
209, 2, bw, filler, NA, 999, 999, 8, 32, 66, 152, 124, 82, 61, 125, 3, 0.524195
209, 2, bw, attraction, a-b-da, 5, 3, 8, 33, 120, 195, 190, 117, 195, 120, 1, 3.12472
209, 2, bw, attraction, a-b-da, 5, 3, 8, 33, 120, 195, 190, 117, 195, 120, 2, 0.933678
209, 2, bw, catch, NA, 999, 999, 8, 34, 115, 80, 135, 180, 113, 142, 2, 0.966014
209, 2, bw, catch, NA, 999, 999, 8, 34, 115, 80, 135, 180, 113, 142, 1, 0.390404
209, 2, bw, attraction, a-b-db, 9, 2, 8, 35, 86, 157, 165, 90, 90, 165, 3, 1.63625
209, 2, bw, attraction, a-b-db, 9, 2, 8, 35, 86, 157, 165, 90, 90, 165, 2, 0.881669
209, 2, bw, attraction, a-b-da, 9, 3, 8, 36, 120, 195, 186, 114, 195, 120, 1, 1.588
209, 2, bw, attraction, a-b-da, 9, 3, 8, 36, 120, 195, 186, 114, 195, 120, 2, 0.666727
209, 2, bw, attraction, a-b-da, 9, 2, 8, 37, 90, 165, 165, 90, 157, 86, 1, 2.27787
209, 2, bw, attraction, a-b-da, 9, 2, 8, 37, 90, 165, 165, 90, 157, 86, 3, 2.62516
