sub_n, computer_n, bw_cond, effect, set, distance, diag, block_n, trial_n, h1, w1, h2, w2, h3, w3, choice, rt 
299, 2, bw, practice, NA, 999, 999, 0, 1, 112, 70, 69, 163, 88, 176, 3, 3.54402
299, 2, bw, practice, NA, 999, 999, 0, 1, 112, 70, 69, 163, 88, 176, 1, 3.35277
299, 2, bw, practice, NA, 999, 999, 0, 2, 168, 158, 126, 107, 71, 168, 1, 2.49922
299, 2, bw, practice, NA, 999, 999, 0, 2, 168, 158, 126, 107, 71, 168, 3, 10.3269
299, 2, bw, practice, NA, 999, 999, 0, 3, 113, 130, 92, 56, 105, 181, 3, 6.37741
299, 2, bw, practice, NA, 999, 999, 0, 3, 113, 130, 92, 56, 105, 181, 2, 1.57621
299, 2, bw, filler, NA, 999, 999, 1, 1, 140, 102, 126, 106, 153, 65, 1, 9.4583
299, 2, bw, filler, NA, 999, 999, 1, 1, 140, 102, 126, 106, 153, 65, 3, 4.02805
299, 2, bw, attraction, a-b-db, 14, 3, 1, 2, 120, 195, 195, 120, 111, 181, 1, 5.5753
299, 2, bw, attraction, a-b-db, 14, 3, 1, 2, 120, 195, 195, 120, 111, 181, 3, 1.79753
299, 2, bw, attraction, a-b-db, 5, 3, 1, 3, 117, 190, 195, 120, 120, 195, 3, 16.1629
299, 2, bw, attraction, a-b-db, 5, 3, 1, 3, 117, 190, 195, 120, 120, 195, 1, 2.39857
299, 2, bw, attraction, a-b-da, 5, 2, 1, 4, 165, 90, 90, 165, 161, 88, 1, 5.90762
299, 2, bw, attraction, a-b-da, 5, 2, 1, 4, 165, 90, 90, 165, 161, 88, 3, 4.7006
299, 2, bw, attraction, a-b-db, 14, 2, 1, 5, 90, 165, 165, 90, 83, 153, 1, 7.94098
299, 2, bw, attraction, a-b-db, 14, 2, 1, 5, 90, 165, 165, 90, 83, 153, 3, 0.915808
299, 2, bw, filler, NA, 999, 999, 1, 6, 61, 104, 142, 176, 92, 57, 2, 2.96483
299, 2, bw, filler, NA, 999, 999, 1, 6, 61, 104, 142, 176, 92, 57, 3, 1.44446
299, 2, bw, filler, NA, 999, 999, 1, 7, 158, 65, 89, 100, 85, 73, 1, 4.57603
299, 2, bw, filler, NA, 999, 999, 1, 7, 158, 65, 89, 100, 85, 73, 3, 0.886568
299, 2, bw, attraction, a-b-db, 2, 3, 1, 8, 119, 193, 120, 195, 195, 120, 2, 6.88891
299, 2, bw, attraction, a-b-db, 2, 3, 1, 8, 119, 193, 120, 195, 195, 120, 3, 1.46611
299, 2, bw, filler, NA, 999, 999, 1, 9, 71, 121, 142, 69, 157, 78, 3, 2.74079
299, 2, bw, filler, NA, 999, 999, 1, 9, 71, 121, 142, 69, 157, 78, 1, 0.757413
299, 2, bw, catch, NA, 999, 999, 1, 10, 116, 139, 134, 181, 74, 121, 2, 1.39647
299, 2, bw, catch, NA, 999, 999, 1, 10, 116, 139, 134, 181, 74, 121, 3, 0.723194
299, 2, bw, attraction, a-b-db, 9, 3, 1, 11, 195, 120, 120, 195, 114, 186, 1, 3.4676
299, 2, bw, attraction, a-b-db, 9, 3, 1, 11, 195, 120, 120, 195, 114, 186, 3, 0.759164
299, 2, bw, attraction, a-b-da, 2, 1, 1, 12, 134, 59, 135, 60, 60, 135, 2, 4.95016
299, 2, bw, attraction, a-b-da, 2, 1, 1, 12, 134, 59, 135, 60, 60, 135, 3, 0.885939
299, 2, bw, attraction, a-b-db, 9, 2, 1, 13, 90, 165, 165, 90, 86, 157, 1, 3.94427
299, 2, bw, attraction, a-b-db, 9, 2, 1, 13, 90, 165, 165, 90, 86, 157, 3, 0.640433
299, 2, bw, catch, NA, 999, 999, 1, 14, 117, 78, 153, 102, 185, 130, 3, 1.10813
299, 2, bw, catch, NA, 999, 999, 1, 14, 117, 78, 153, 102, 185, 130, 1, 1.15034
299, 2, bw, filler, NA, 999, 999, 1, 15, 81, 183, 57, 136, 68, 124, 1, 1.20592
299, 2, bw, filler, NA, 999, 999, 1, 15, 81, 183, 57, 136, 68, 124, 2, 1.89221
299, 2, bw, attraction, a-b-db, 14, 1, 1, 16, 60, 135, 135, 60, 56, 125, 1, 2.19748
299, 2, bw, attraction, a-b-db, 14, 1, 1, 16, 60, 135, 135, 60, 56, 125, 3, 1.49212
299, 2, bw, filler, NA, 999, 999, 1, 17, 170, 141, 110, 158, 119, 106, 1, 3.68563
299, 2, bw, filler, NA, 999, 999, 1, 17, 170, 141, 110, 158, 119, 106, 3, 0.968451
299, 2, bw, attraction, a-b-da, 9, 1, 1, 18, 60, 135, 129, 57, 135, 60, 3, 2.02354
299, 2, bw, attraction, a-b-da, 9, 1, 1, 18, 60, 135, 129, 57, 135, 60, 2, 2.91691
299, 2, bw, attraction, a-b-da, 2, 2, 1, 19, 165, 90, 90, 165, 163, 89, 2, 15.0051
299, 2, bw, attraction, a-b-da, 2, 2, 1, 19, 165, 90, 90, 165, 163, 89, 3, 0.65571
299, 2, bw, filler, NA, 999, 999, 1, 20, 63, 90, 185, 89, 156, 89, 2, 1.25145
299, 2, bw, filler, NA, 999, 999, 1, 20, 63, 90, 185, 89, 156, 89, 1, 0.864339
299, 2, bw, attraction, a-b-da, 2, 3, 1, 21, 120, 195, 195, 120, 193, 119, 1, 10.0274
299, 2, bw, attraction, a-b-da, 2, 3, 1, 21, 120, 195, 195, 120, 193, 119, 3, 0.750228
299, 2, bw, filler, NA, 999, 999, 1, 22, 87, 178, 152, 153, 59, 170, 2, 0.942108
299, 2, bw, filler, NA, 999, 999, 1, 22, 87, 178, 152, 153, 59, 170, 3, 0.742975
299, 2, bw, filler, NA, 999, 999, 1, 23, 167, 161, 66, 164, 110, 95, 1, 0.638678
299, 2, bw, filler, NA, 999, 999, 1, 23, 167, 161, 66, 164, 110, 95, 3, 0.595911
299, 2, bw, attraction, a-b-da, 14, 3, 1, 24, 120, 195, 195, 120, 181, 111, 1, 2.71344
299, 2, bw, attraction, a-b-da, 14, 3, 1, 24, 120, 195, 195, 120, 181, 111, 3, 0.587365
299, 2, bw, attraction, a-b-db, 5, 1, 1, 25, 60, 135, 135, 60, 58, 132, 2, 2.9697
299, 2, bw, attraction, a-b-db, 5, 1, 1, 25, 60, 135, 135, 60, 58, 132, 3, 0.55352
299, 2, bw, attraction, a-b-db, 5, 2, 1, 26, 90, 165, 88, 161, 165, 90, 1, 7.29738
299, 2, bw, attraction, a-b-db, 5, 2, 1, 26, 90, 165, 88, 161, 165, 90, 2, 1.61827
299, 2, bw, attraction, a-b-da, 14, 1, 1, 27, 60, 135, 135, 60, 125, 56, 1, 4.95104
299, 2, bw, attraction, a-b-da, 14, 1, 1, 27, 60, 135, 135, 60, 125, 56, 3, 0.438827
299, 2, bw, attraction, a-b-da, 5, 1, 1, 28, 132, 58, 60, 135, 135, 60, 2, 2.52323
299, 2, bw, attraction, a-b-da, 5, 1, 1, 28, 132, 58, 60, 135, 135, 60, 3, 2.7644
299, 2, bw, attraction, a-b-db, 2, 1, 1, 29, 60, 135, 135, 60, 59, 134, 1, 10.8269
299, 2, bw, attraction, a-b-db, 2, 1, 1, 29, 60, 135, 135, 60, 59, 134, 3, 0.701407
299, 2, bw, attraction, a-b-da, 14, 2, 1, 30, 165, 90, 153, 83, 90, 165, 3, 8.63914
299, 2, bw, attraction, a-b-da, 14, 2, 1, 30, 165, 90, 153, 83, 90, 165, 2, 0.466468
299, 2, bw, attraction, a-b-da, 9, 2, 1, 31, 90, 165, 157, 86, 165, 90, 1, 2.34151
299, 2, bw, attraction, a-b-da, 9, 2, 1, 31, 90, 165, 157, 86, 165, 90, 2, 0.390259
299, 2, bw, attraction, a-b-db, 2, 2, 1, 32, 89, 163, 90, 165, 165, 90, 1, 11.036
299, 2, bw, attraction, a-b-db, 2, 2, 1, 32, 89, 163, 90, 165, 165, 90, 2, 2.37452
299, 2, bw, attraction, a-b-db, 9, 1, 1, 33, 60, 135, 57, 129, 135, 60, 1, 2.06828
299, 2, bw, attraction, a-b-db, 9, 1, 1, 33, 60, 135, 57, 129, 135, 60, 2, 1.42442
299, 2, bw, catch, NA, 999, 999, 1, 34, 106, 149, 185, 130, 102, 93, 2, 0.924481
299, 2, bw, catch, NA, 999, 999, 1, 34, 106, 149, 185, 130, 102, 93, 3, 0.534171
299, 2, bw, attraction, a-b-da, 9, 3, 1, 35, 120, 195, 195, 120, 186, 114, 1, 4.7508
299, 2, bw, attraction, a-b-da, 9, 3, 1, 35, 120, 195, 195, 120, 186, 114, 3, 0.966523
299, 2, bw, attraction, a-b-da, 5, 3, 1, 36, 190, 117, 120, 195, 195, 120, 2, 3.42138
299, 2, bw, attraction, a-b-da, 5, 3, 1, 36, 190, 117, 120, 195, 195, 120, 3, 1.27445
299, 2, bw, filler, NA, 999, 999, 1, 37, 57, 95, 175, 131, 57, 127, 2, 0.948588
299, 2, bw, filler, NA, 999, 999, 1, 37, 57, 95, 175, 131, 57, 127, 1, 0.837672
299, 2, bw, attraction, a-b-db, 9, 2, 2, 1, 90, 165, 86, 157, 165, 90, 1, 1.80987
299, 2, bw, attraction, a-b-db, 9, 2, 2, 1, 90, 165, 86, 157, 165, 90, 3, 0.431992
299, 2, bw, attraction, a-b-da, 9, 1, 2, 2, 135, 60, 129, 57, 60, 135, 1, 2.09244
299, 2, bw, attraction, a-b-da, 9, 1, 2, 2, 135, 60, 129, 57, 60, 135, 3, 0.639217
299, 2, bw, attraction, a-b-da, 5, 2, 2, 3, 90, 165, 161, 88, 165, 90, 1, 0.70758
299, 2, bw, attraction, a-b-da, 5, 2, 2, 3, 90, 165, 161, 88, 165, 90, 3, 0.325942
299, 2, bw, attraction, a-b-db, 14, 1, 2, 4, 60, 135, 135, 60, 56, 125, 1, 0.710449
299, 2, bw, attraction, a-b-db, 14, 1, 2, 4, 60, 135, 135, 60, 56, 125, 3, 0.464896
299, 2, bw, attraction, a-b-da, 9, 3, 2, 5, 186, 114, 195, 120, 120, 195, 1, 0.708007
299, 2, bw, attraction, a-b-da, 9, 3, 2, 5, 186, 114, 195, 120, 120, 195, 3, 0.326416
299, 2, bw, filler, NA, 999, 999, 2, 6, 87, 76, 79, 91, 72, 81, 2, 1.86289
299, 2, bw, filler, NA, 999, 999, 2, 6, 87, 76, 79, 91, 72, 81, 3, 1.22698
299, 2, bw, filler, NA, 999, 999, 2, 7, 72, 117, 127, 171, 74, 182, 2, 0.815154
299, 2, bw, filler, NA, 999, 999, 2, 7, 72, 117, 127, 171, 74, 182, 1, 0.82153
299, 2, bw, filler, NA, 999, 999, 2, 8, 171, 163, 59, 169, 88, 79, 1, 0.770526
299, 2, bw, filler, NA, 999, 999, 2, 8, 171, 163, 59, 169, 88, 79, 3, 0.491151
299, 2, bw, filler, NA, 999, 999, 2, 9, 157, 138, 63, 156, 115, 114, 1, 0.636827
299, 2, bw, filler, NA, 999, 999, 2, 9, 157, 138, 63, 156, 115, 114, 2, 2.04186
299, 2, bw, filler, NA, 999, 999, 2, 10, 177, 111, 144, 189, 141, 187, 2, 6.49318
299, 2, bw, filler, NA, 999, 999, 2, 10, 177, 111, 144, 189, 141, 187, 1, 0.598453
299, 2, bw, attraction, a-b-db, 14, 2, 2, 11, 165, 90, 90, 165, 83, 153, 2, 1.86819
299, 2, bw, attraction, a-b-db, 14, 2, 2, 11, 165, 90, 90, 165, 83, 153, 3, 0.336274
299, 2, bw, filler, NA, 999, 999, 2, 12, 87, 88, 91, 175, 138, 195, 3, 0.824787
299, 2, bw, filler, NA, 999, 999, 2, 12, 87, 88, 91, 175, 138, 195, 1, 0.446617
299, 2, bw, attraction, a-b-da, 2, 1, 2, 13, 60, 135, 135, 60, 134, 59, 3, 3.81839
299, 2, bw, attraction, a-b-da, 2, 1, 2, 13, 60, 135, 135, 60, 134, 59, 1, 0.487698
299, 2, bw, catch, NA, 999, 999, 2, 14, 167, 148, 100, 95, 138, 117, 1, 0.794158
299, 2, bw, catch, NA, 999, 999, 2, 14, 167, 148, 100, 95, 138, 117, 2, 0.441195
299, 2, bw, attraction, a-b-db, 2, 1, 2, 15, 59, 134, 135, 60, 60, 135, 1, 0.85312
299, 2, bw, attraction, a-b-db, 2, 1, 2, 15, 59, 134, 135, 60, 60, 135, 3, 0.274216
299, 2, bw, filler, NA, 999, 999, 2, 16, 127, 128, 123, 155, 146, 70, 1, 0.540679
299, 2, bw, filler, NA, 999, 999, 2, 16, 127, 128, 123, 155, 146, 70, 3, 1.39788
299, 2, bw, attraction, a-b-db, 2, 2, 2, 17, 90, 165, 89, 163, 165, 90, 1, 1.44327
299, 2, bw, attraction, a-b-db, 2, 2, 2, 17, 90, 165, 89, 163, 165, 90, 3, 1.02416
299, 2, bw, attraction, a-b-da, 2, 2, 2, 18, 90, 165, 165, 90, 163, 89, 1, 0.644423
299, 2, bw, attraction, a-b-da, 2, 2, 2, 18, 90, 165, 165, 90, 163, 89, 3, 0.36951
299, 2, bw, attraction, a-b-da, 14, 3, 2, 19, 120, 195, 195, 120, 181, 111, 2, 1.93675
299, 2, bw, attraction, a-b-da, 14, 3, 2, 19, 120, 195, 195, 120, 181, 111, 3, 0.39405
299, 2, bw, attraction, a-b-db, 2, 3, 2, 20, 120, 195, 195, 120, 119, 193, 1, 0.663886
299, 2, bw, attraction, a-b-db, 2, 3, 2, 20, 120, 195, 195, 120, 119, 193, 3, 0.412352
299, 2, bw, attraction, a-b-da, 9, 2, 2, 21, 90, 165, 157, 86, 165, 90, 1, 1.49742
299, 2, bw, attraction, a-b-da, 9, 2, 2, 21, 90, 165, 157, 86, 165, 90, 3, 0.436327
299, 2, bw, attraction, a-b-da, 5, 1, 2, 22, 132, 58, 60, 135, 135, 60, 1, 3.36088
299, 2, bw, attraction, a-b-da, 5, 1, 2, 22, 132, 58, 60, 135, 135, 60, 2, 0.472311
299, 2, bw, attraction, a-b-db, 14, 3, 2, 23, 111, 181, 120, 195, 195, 120, 2, 5.82746
299, 2, bw, attraction, a-b-db, 14, 3, 2, 23, 111, 181, 120, 195, 195, 120, 1, 0.927555
299, 2, bw, catch, NA, 999, 999, 2, 24, 126, 129, 122, 193, 129, 66, 2, 0.799946
299, 2, bw, catch, NA, 999, 999, 2, 24, 126, 129, 122, 193, 129, 66, 3, 0.390985
299, 2, bw, attraction, a-b-db, 5, 1, 2, 25, 135, 60, 60, 135, 58, 132, 1, 4.1888
299, 2, bw, attraction, a-b-db, 5, 1, 2, 25, 135, 60, 60, 135, 58, 132, 3, 1.32286
299, 2, bw, attraction, a-b-db, 5, 2, 2, 26, 88, 161, 165, 90, 90, 165, 2, 4.71497
299, 2, bw, attraction, a-b-db, 5, 2, 2, 26, 88, 161, 165, 90, 90, 165, 1, 0.636158
299, 2, bw, attraction, a-b-db, 5, 3, 2, 27, 117, 190, 195, 120, 120, 195, 1, 1.89651
299, 2, bw, attraction, a-b-db, 5, 3, 2, 27, 117, 190, 195, 120, 120, 195, 3, 0.323352
299, 2, bw, filler, NA, 999, 999, 2, 28, 149, 131, 152, 120, 109, 141, 2, 3.46787
299, 2, bw, filler, NA, 999, 999, 2, 28, 149, 131, 152, 120, 109, 141, 3, 0.335343
299, 2, bw, filler, NA, 999, 999, 2, 29, 120, 68, 172, 146, 57, 183, 2, 0.887836
299, 2, bw, filler, NA, 999, 999, 2, 29, 120, 68, 172, 146, 57, 183, 1, 0.51493
299, 2, bw, attraction, a-b-db, 9, 3, 2, 30, 120, 195, 114, 186, 195, 120, 1, 5.05992
299, 2, bw, attraction, a-b-db, 9, 3, 2, 30, 120, 195, 114, 186, 195, 120, 2, 0.919225
299, 2, bw, attraction, a-b-db, 9, 1, 2, 31, 57, 129, 135, 60, 60, 135, 1, 1.08796
299, 2, bw, attraction, a-b-db, 9, 1, 2, 31, 57, 129, 135, 60, 60, 135, 3, 0.267098
299, 2, bw, filler, NA, 999, 999, 2, 32, 140, 166, 134, 72, 163, 159, 3, 6.51016
299, 2, bw, filler, NA, 999, 999, 2, 32, 140, 166, 134, 72, 163, 159, 2, 0.470947
299, 2, bw, attraction, a-b-da, 2, 3, 2, 33, 195, 120, 120, 195, 193, 119, 2, 1.74588
299, 2, bw, attraction, a-b-da, 2, 3, 2, 33, 195, 120, 120, 195, 193, 119, 3, 2.06673
299, 2, bw, attraction, a-b-da, 14, 2, 2, 34, 90, 165, 153, 83, 165, 90, 1, 1.0613
299, 2, bw, attraction, a-b-da, 14, 2, 2, 34, 90, 165, 153, 83, 165, 90, 3, 0.713734
299, 2, bw, attraction, a-b-da, 5, 3, 2, 35, 190, 117, 195, 120, 120, 195, 3, 7.06665
299, 2, bw, attraction, a-b-da, 5, 3, 2, 35, 190, 117, 195, 120, 120, 195, 1, 0.653099
299, 2, bw, catch, NA, 999, 999, 2, 36, 118, 77, 188, 127, 150, 105, 2, 0.944821
299, 2, bw, catch, NA, 999, 999, 2, 36, 118, 77, 188, 127, 150, 105, 1, 0.409848
299, 2, bw, attraction, a-b-da, 14, 1, 2, 37, 60, 135, 135, 60, 125, 56, 1, 1.43899
299, 2, bw, attraction, a-b-da, 14, 1, 2, 37, 60, 135, 135, 60, 125, 56, 3, 0.563856
299, 2, bw, attraction, a-b-db, 5, 2, 3, 1, 165, 90, 88, 161, 90, 165, 1, 4.21092
299, 2, bw, attraction, a-b-db, 5, 2, 3, 1, 165, 90, 88, 161, 90, 165, 3, 0.432255
299, 2, bw, attraction, a-b-db, 9, 3, 3, 2, 114, 186, 120, 195, 195, 120, 2, 1.08479
299, 2, bw, attraction, a-b-db, 9, 3, 3, 2, 114, 186, 120, 195, 195, 120, 3, 0.60046
299, 2, bw, attraction, a-b-db, 5, 3, 3, 3, 117, 190, 195, 120, 120, 195, 2, 2.38225
299, 2, bw, attraction, a-b-db, 5, 3, 3, 3, 117, 190, 195, 120, 120, 195, 1, 0.629424
299, 2, bw, attraction, a-b-db, 2, 3, 3, 4, 120, 195, 119, 193, 195, 120, 1, 1.1138
299, 2, bw, attraction, a-b-db, 2, 3, 3, 4, 120, 195, 119, 193, 195, 120, 3, 0.452164
299, 2, bw, attraction, a-b-da, 5, 1, 3, 5, 135, 60, 132, 58, 60, 135, 1, 0.575851
299, 2, bw, attraction, a-b-da, 5, 1, 3, 5, 135, 60, 132, 58, 60, 135, 3, 0.295645
299, 2, bw, filler, NA, 999, 999, 3, 6, 79, 78, 110, 120, 87, 169, 2, 1.14553
299, 2, bw, filler, NA, 999, 999, 3, 6, 79, 78, 110, 120, 87, 169, 1, 0.378567
299, 2, bw, attraction, a-b-db, 14, 2, 3, 7, 90, 165, 165, 90, 83, 153, 1, 0.776956
299, 2, bw, attraction, a-b-db, 14, 2, 3, 7, 90, 165, 165, 90, 83, 153, 3, 0.26476
299, 2, bw, attraction, a-b-db, 14, 1, 3, 8, 135, 60, 56, 125, 60, 135, 1, 0.475935
299, 2, bw, attraction, a-b-db, 14, 1, 3, 8, 135, 60, 56, 125, 60, 135, 3, 0.687876
299, 2, bw, filler, NA, 999, 999, 3, 9, 120, 137, 134, 129, 72, 153, 2, 0.658163
299, 2, bw, filler, NA, 999, 999, 3, 9, 120, 137, 134, 129, 72, 153, 3, 1.53455
299, 2, bw, attraction, a-b-db, 9, 1, 3, 10, 60, 135, 135, 60, 57, 129, 1, 0.742813
299, 2, bw, attraction, a-b-db, 9, 1, 3, 10, 60, 135, 135, 60, 57, 129, 3, 0.279829
299, 2, bw, catch, NA, 999, 999, 3, 11, 123, 132, 171, 144, 104, 91, 2, 0.682279
299, 2, bw, catch, NA, 999, 999, 3, 11, 123, 132, 171, 144, 104, 91, 3, 0.510014
299, 2, bw, filler, NA, 999, 999, 3, 12, 183, 60, 123, 87, 59, 183, 1, 3.28714
299, 2, bw, filler, NA, 999, 999, 3, 12, 183, 60, 123, 87, 59, 183, 2, 0.345391
299, 2, bw, attraction, a-b-da, 5, 2, 3, 13, 90, 165, 165, 90, 161, 88, 1, 0.857228
299, 2, bw, attraction, a-b-da, 5, 2, 3, 13, 90, 165, 165, 90, 161, 88, 3, 0.341572
299, 2, bw, attraction, a-b-da, 14, 2, 3, 14, 153, 83, 90, 165, 165, 90, 1, 0.773373
299, 2, bw, attraction, a-b-da, 14, 2, 3, 14, 153, 83, 90, 165, 165, 90, 3, 0.493182
299, 2, bw, attraction, a-b-da, 9, 2, 3, 15, 90, 165, 157, 86, 165, 90, 1, 0.870914
299, 2, bw, attraction, a-b-da, 9, 2, 3, 15, 90, 165, 157, 86, 165, 90, 3, 0.954651
299, 2, bw, attraction, a-b-da, 2, 2, 3, 16, 90, 165, 163, 89, 165, 90, 1, 0.650281
299, 2, bw, attraction, a-b-da, 2, 2, 3, 16, 90, 165, 163, 89, 165, 90, 3, 0.54339
299, 2, bw, attraction, a-b-da, 9, 3, 3, 17, 186, 114, 120, 195, 195, 120, 2, 2.44717
299, 2, bw, attraction, a-b-da, 9, 3, 3, 17, 186, 114, 120, 195, 195, 120, 1, 0.699699
299, 2, bw, filler, NA, 999, 999, 3, 18, 77, 122, 111, 74, 61, 74, 1, 0.941411
299, 2, bw, filler, NA, 999, 999, 3, 18, 77, 122, 111, 74, 61, 74, 3, 0.654465
299, 2, bw, catch, NA, 999, 999, 3, 19, 77, 118, 184, 131, 91, 164, 2, 0.946335
299, 2, bw, catch, NA, 999, 999, 3, 19, 77, 118, 184, 131, 91, 164, 1, 0.387407
299, 2, bw, filler, NA, 999, 999, 3, 20, 107, 174, 97, 109, 137, 162, 3, 1.80174
299, 2, bw, filler, NA, 999, 999, 3, 20, 107, 174, 97, 109, 137, 162, 2, 0.400503
299, 2, bw, attraction, a-b-db, 5, 1, 3, 21, 58, 132, 60, 135, 135, 60, 1, 3.17426
299, 2, bw, attraction, a-b-db, 5, 1, 3, 21, 58, 132, 60, 135, 135, 60, 2, 0.325733
299, 2, bw, attraction, a-b-db, 9, 2, 3, 22, 86, 157, 165, 90, 90, 165, 1, 0.837691
299, 2, bw, attraction, a-b-db, 9, 2, 3, 22, 86, 157, 165, 90, 90, 165, 3, 0.74675
299, 2, bw, filler, NA, 999, 999, 3, 23, 137, 89, 129, 184, 148, 133, 2, 0.978461
299, 2, bw, filler, NA, 999, 999, 3, 23, 137, 89, 129, 184, 148, 133, 1, 0.330183
299, 2, bw, attraction, a-b-db, 2, 1, 3, 24, 60, 135, 135, 60, 59, 134, 1, 5.21869
299, 2, bw, attraction, a-b-db, 2, 1, 3, 24, 60, 135, 135, 60, 59, 134, 3, 0.447865
299, 2, bw, catch, NA, 999, 999, 3, 25, 161, 94, 187, 128, 96, 99, 2, 0.947505
299, 2, bw, catch, NA, 999, 999, 3, 25, 161, 94, 187, 128, 96, 99, 3, 0.308493
299, 2, bw, filler, NA, 999, 999, 3, 26, 141, 115, 166, 177, 108, 193, 2, 0.733655
299, 2, bw, filler, NA, 999, 999, 3, 26, 141, 115, 166, 177, 108, 193, 1, 0.527402
299, 2, bw, filler, NA, 999, 999, 3, 27, 58, 134, 108, 90, 62, 71, 2, 9.87183
299, 2, bw, filler, NA, 999, 999, 3, 27, 58, 134, 108, 90, 62, 71, 3, 0.409449
299, 2, bw, filler, NA, 999, 999, 3, 28, 189, 118, 160, 166, 73, 140, 2, 0.726572
299, 2, bw, filler, NA, 999, 999, 3, 28, 189, 118, 160, 166, 73, 140, 3, 0.304281
299, 2, bw, attraction, a-b-da, 9, 1, 3, 29, 60, 135, 135, 60, 129, 57, 1, 6.91419
299, 2, bw, attraction, a-b-da, 9, 1, 3, 29, 60, 135, 135, 60, 129, 57, 3, 0.97069
299, 2, bw, attraction, a-b-db, 2, 2, 3, 30, 165, 90, 89, 163, 90, 165, 1, 1.60162
299, 2, bw, attraction, a-b-db, 2, 2, 3, 30, 165, 90, 89, 163, 90, 165, 3, 0.472603
299, 2, bw, attraction, a-b-da, 2, 1, 3, 31, 135, 60, 60, 135, 134, 59, 2, 4.25089
299, 2, bw, attraction, a-b-da, 2, 1, 3, 31, 135, 60, 60, 135, 134, 59, 3, 0.254874
299, 2, bw, attraction, a-b-da, 14, 3, 3, 32, 181, 111, 120, 195, 195, 120, 2, 0.994718
299, 2, bw, attraction, a-b-da, 14, 3, 3, 32, 181, 111, 120, 195, 195, 120, 1, 0.273667
299, 2, bw, attraction, a-b-da, 5, 3, 3, 33, 190, 117, 195, 120, 120, 195, 3, 2.73227
299, 2, bw, attraction, a-b-da, 5, 3, 3, 33, 190, 117, 195, 120, 120, 195, 1, 0.901396
299, 2, bw, attraction, a-b-db, 14, 3, 3, 34, 120, 195, 111, 181, 195, 120, 1, 1.67097
299, 2, bw, attraction, a-b-db, 14, 3, 3, 34, 120, 195, 111, 181, 195, 120, 2, 0.594566
299, 2, bw, attraction, a-b-da, 14, 1, 3, 35, 60, 135, 135, 60, 125, 56, 2, 1.54424
299, 2, bw, attraction, a-b-da, 14, 1, 3, 35, 60, 135, 135, 60, 125, 56, 3, 0.825072
299, 2, bw, attraction, a-b-da, 2, 3, 3, 36, 120, 195, 193, 119, 195, 120, 1, 0.917457
299, 2, bw, attraction, a-b-da, 2, 3, 3, 36, 120, 195, 193, 119, 195, 120, 3, 0.383683
299, 2, bw, filler, NA, 999, 999, 3, 37, 95, 96, 82, 60, 166, 91, 3, 1.39817
299, 2, bw, filler, NA, 999, 999, 3, 37, 95, 96, 82, 60, 166, 91, 1, 0.341088
299, 2, bw, attraction, a-b-db, 9, 3, 4, 1, 114, 186, 195, 120, 120, 195, 1, 0.668955
299, 2, bw, attraction, a-b-db, 9, 3, 4, 1, 114, 186, 195, 120, 120, 195, 3, 0.31348
299, 2, bw, attraction, a-b-da, 9, 1, 4, 2, 135, 60, 129, 57, 60, 135, 3, 0.858511
299, 2, bw, attraction, a-b-da, 9, 1, 4, 2, 135, 60, 129, 57, 60, 135, 1, 0.378652
299, 2, bw, catch, NA, 999, 999, 4, 3, 132, 63, 97, 158, 177, 138, 2, 0.949338
299, 2, bw, catch, NA, 999, 999, 4, 3, 132, 63, 97, 158, 177, 138, 1, 0.398426
299, 2, bw, attraction, a-b-da, 9, 2, 4, 4, 90, 165, 157, 86, 165, 90, 1, 0.668355
299, 2, bw, attraction, a-b-da, 9, 2, 4, 4, 90, 165, 157, 86, 165, 90, 3, 0.536674
299, 2, bw, attraction, a-b-da, 5, 3, 4, 5, 195, 120, 120, 195, 190, 117, 2, 0.801044
299, 2, bw, attraction, a-b-da, 5, 3, 4, 5, 195, 120, 120, 195, 190, 117, 3, 0.456219
299, 2, bw, attraction, a-b-db, 5, 2, 4, 6, 88, 161, 90, 165, 165, 90, 1, 1.05129
299, 2, bw, attraction, a-b-db, 5, 2, 4, 6, 88, 161, 90, 165, 165, 90, 3, 0.304412
299, 2, bw, catch, NA, 999, 999, 4, 7, 164, 91, 71, 124, 136, 179, 3, 0.786092
299, 2, bw, catch, NA, 999, 999, 4, 7, 164, 91, 71, 124, 136, 179, 2, 0.433805
299, 2, bw, filler, NA, 999, 999, 4, 8, 106, 120, 101, 59, 160, 165, 3, 1.3104
299, 2, bw, filler, NA, 999, 999, 4, 8, 106, 120, 101, 59, 160, 165, 2, 0.656648
299, 2, bw, filler, NA, 999, 999, 4, 9, 96, 140, 153, 130, 96, 111, 2, 0.627631
299, 2, bw, filler, NA, 999, 999, 4, 9, 96, 140, 153, 130, 96, 111, 3, 0.345429
299, 2, bw, attraction, a-b-da, 14, 3, 4, 10, 195, 120, 120, 195, 181, 111, 1, 0.529366
299, 2, bw, attraction, a-b-da, 14, 3, 4, 10, 195, 120, 120, 195, 181, 111, 3, 0.579082
299, 2, bw, catch, NA, 999, 999, 4, 11, 130, 185, 122, 73, 104, 151, 1, 0.833475
299, 2, bw, catch, NA, 999, 999, 4, 11, 130, 185, 122, 73, 104, 151, 2, 0.788663
299, 2, bw, attraction, a-b-da, 2, 2, 4, 12, 165, 90, 90, 165, 163, 89, 2, 1.22151
299, 2, bw, attraction, a-b-da, 2, 2, 4, 12, 165, 90, 90, 165, 163, 89, 3, 0.251125
299, 2, bw, attraction, a-b-da, 2, 3, 4, 13, 195, 120, 193, 119, 120, 195, 1, 0.774918
299, 2, bw, attraction, a-b-da, 2, 3, 4, 13, 195, 120, 193, 119, 120, 195, 3, 0.214669
299, 2, bw, filler, NA, 999, 999, 4, 14, 93, 188, 157, 78, 101, 189, 1, 0.411901
299, 2, bw, filler, NA, 999, 999, 4, 14, 93, 188, 157, 78, 101, 189, 2, 0.602488
299, 2, bw, filler, NA, 999, 999, 4, 15, 116, 64, 138, 167, 147, 78, 2, 0.504289
299, 2, bw, filler, NA, 999, 999, 4, 15, 116, 64, 138, 167, 147, 78, 1, 0.762719
299, 2, bw, attraction, a-b-db, 9, 1, 4, 16, 135, 60, 57, 129, 60, 135, 1, 1.60974
299, 2, bw, attraction, a-b-db, 9, 1, 4, 16, 135, 60, 57, 129, 60, 135, 3, 0.367879
299, 2, bw, attraction, a-b-db, 2, 1, 4, 17, 59, 134, 135, 60, 60, 135, 1, 0.438978
299, 2, bw, attraction, a-b-db, 2, 1, 4, 17, 59, 134, 135, 60, 60, 135, 2, 0.252172
299, 2, bw, filler, NA, 999, 999, 4, 18, 75, 145, 147, 90, 146, 155, 3, 0.632029
299, 2, bw, filler, NA, 999, 999, 4, 18, 75, 145, 147, 90, 146, 155, 1, 0.41381
299, 2, bw, attraction, a-b-db, 2, 2, 4, 19, 89, 163, 90, 165, 165, 90, 2, 0.610979
299, 2, bw, attraction, a-b-db, 2, 2, 4, 19, 89, 163, 90, 165, 165, 90, 1, 0.40139
299, 2, bw, attraction, a-b-da, 5, 1, 4, 20, 132, 58, 135, 60, 60, 135, 2, 0.655161
299, 2, bw, attraction, a-b-da, 5, 1, 4, 20, 132, 58, 135, 60, 60, 135, 1, 0.547638
299, 2, bw, attraction, a-b-da, 2, 1, 4, 21, 135, 60, 134, 59, 60, 135, 1, 0.915399
299, 2, bw, attraction, a-b-da, 2, 1, 4, 21, 135, 60, 134, 59, 60, 135, 2, 0.501739
299, 2, bw, filler, NA, 999, 999, 4, 22, 153, 132, 72, 179, 101, 172, 1, 0.591604
299, 2, bw, filler, NA, 999, 999, 4, 22, 153, 132, 72, 179, 101, 172, 2, 1.13472
299, 2, bw, attraction, a-b-db, 2, 3, 4, 23, 195, 120, 119, 193, 120, 195, 3, 4.62296
299, 2, bw, attraction, a-b-db, 2, 3, 4, 23, 195, 120, 119, 193, 120, 195, 1, 0.587447
299, 2, bw, attraction, a-b-db, 14, 2, 4, 24, 165, 90, 83, 153, 90, 165, 3, 1.06599
299, 2, bw, attraction, a-b-db, 14, 2, 4, 24, 165, 90, 83, 153, 90, 165, 1, 0.638318
299, 2, bw, filler, NA, 999, 999, 4, 25, 112, 104, 72, 179, 132, 71, 2, 10.3228
299, 2, bw, filler, NA, 999, 999, 4, 25, 112, 104, 72, 179, 132, 71, 3, 1.05002
299, 2, bw, attraction, a-b-db, 14, 1, 4, 26, 60, 135, 135, 60, 56, 125, 1, 0.853656
299, 2, bw, attraction, a-b-db, 14, 1, 4, 26, 60, 135, 135, 60, 56, 125, 2, 0.450688
299, 2, bw, filler, NA, 999, 999, 4, 27, 175, 68, 98, 140, 122, 143, 3, 1.26249
299, 2, bw, filler, NA, 999, 999, 4, 27, 175, 68, 98, 140, 122, 143, 2, 0.554812
299, 2, bw, attraction, a-b-db, 5, 3, 4, 28, 117, 190, 120, 195, 195, 120, 2, 1.06658
299, 2, bw, attraction, a-b-db, 5, 3, 4, 28, 117, 190, 120, 195, 195, 120, 1, 1.77494
299, 2, bw, attraction, a-b-db, 14, 3, 4, 29, 195, 120, 111, 181, 120, 195, 2, 0.836972
299, 2, bw, attraction, a-b-db, 14, 3, 4, 29, 195, 120, 111, 181, 120, 195, 1, 0.257906
299, 2, bw, attraction, a-b-da, 5, 2, 4, 30, 161, 88, 90, 165, 165, 90, 2, 0.941095
299, 2, bw, attraction, a-b-da, 5, 2, 4, 30, 161, 88, 90, 165, 165, 90, 1, 0.678133
299, 2, bw, attraction, a-b-da, 14, 1, 4, 31, 135, 60, 125, 56, 60, 135, 1, 0.760537
299, 2, bw, attraction, a-b-da, 14, 1, 4, 31, 135, 60, 125, 56, 60, 135, 2, 0.974105
299, 2, bw, attraction, a-b-da, 14, 2, 4, 32, 153, 83, 165, 90, 90, 165, 1, 0.463228
299, 2, bw, attraction, a-b-da, 14, 2, 4, 32, 153, 83, 165, 90, 90, 165, 3, 0.27576
299, 2, bw, attraction, a-b-db, 5, 1, 4, 33, 58, 132, 135, 60, 60, 135, 3, 0.454379
299, 2, bw, attraction, a-b-db, 5, 1, 4, 33, 58, 132, 135, 60, 60, 135, 1, 0.626781
299, 2, bw, filler, NA, 999, 999, 4, 34, 93, 78, 189, 163, 102, 93, 2, 0.335141
299, 2, bw, filler, NA, 999, 999, 4, 34, 93, 78, 189, 163, 102, 93, 1, 1.04911
299, 2, bw, filler, NA, 999, 999, 4, 35, 128, 116, 155, 123, 179, 185, 3, 0.52456
299, 2, bw, filler, NA, 999, 999, 4, 35, 128, 116, 155, 123, 179, 185, 1, 0.502584
299, 2, bw, attraction, a-b-db, 9, 2, 4, 36, 86, 157, 165, 90, 90, 165, 2, 1.7042
299, 2, bw, attraction, a-b-db, 9, 2, 4, 36, 86, 157, 165, 90, 90, 165, 3, 0.290466
299, 2, bw, attraction, a-b-da, 9, 3, 4, 37, 186, 114, 120, 195, 195, 120, 1, 1.06012
299, 2, bw, attraction, a-b-da, 9, 3, 4, 37, 186, 114, 120, 195, 195, 120, 3, 0.656719
299, 2, bw, attraction, a-b-da, 5, 2, 5, 1, 161, 88, 90, 165, 165, 90, 1, 3.82614
299, 2, bw, attraction, a-b-da, 5, 2, 5, 1, 161, 88, 90, 165, 165, 90, 2, 0.31898
299, 2, bw, attraction, a-b-da, 2, 2, 5, 2, 90, 165, 165, 90, 163, 89, 1, 0.728092
299, 2, bw, attraction, a-b-da, 2, 2, 5, 2, 90, 165, 165, 90, 163, 89, 2, 0.27385
299, 2, bw, attraction, a-b-db, 2, 1, 5, 3, 59, 134, 135, 60, 60, 135, 1, 0.756338
299, 2, bw, attraction, a-b-db, 2, 1, 5, 3, 59, 134, 135, 60, 60, 135, 2, 0.300783
299, 2, bw, filler, NA, 999, 999, 5, 4, 56, 119, 191, 170, 126, 104, 2, 0.558586
299, 2, bw, filler, NA, 999, 999, 5, 4, 56, 119, 191, 170, 126, 104, 1, 0.295087
299, 2, bw, attraction, a-b-db, 9, 2, 5, 5, 90, 165, 86, 157, 165, 90, 1, 0.800874
299, 2, bw, attraction, a-b-db, 9, 2, 5, 5, 90, 165, 86, 157, 165, 90, 3, 0.543976
299, 2, bw, filler, NA, 999, 999, 5, 6, 124, 70, 121, 128, 125, 97, 2, 1.10378
299, 2, bw, filler, NA, 999, 999, 5, 6, 124, 70, 121, 128, 125, 97, 1, 0.394044
299, 2, bw, attraction, a-b-da, 2, 3, 5, 7, 193, 119, 195, 120, 120, 195, 1, 1.4639
299, 2, bw, attraction, a-b-da, 2, 3, 5, 7, 193, 119, 195, 120, 120, 195, 3, 0.268055
299, 2, bw, filler, NA, 999, 999, 5, 8, 126, 115, 184, 113, 97, 190, 1, 0.519241
299, 2, bw, filler, NA, 999, 999, 5, 8, 126, 115, 184, 113, 97, 190, 3, 1.88983
299, 2, bw, attraction, a-b-db, 9, 1, 5, 9, 60, 135, 135, 60, 57, 129, 1, 0.643799
299, 2, bw, attraction, a-b-db, 9, 1, 5, 9, 60, 135, 135, 60, 57, 129, 2, 0.248957
299, 2, bw, attraction, a-b-da, 9, 3, 5, 10, 186, 114, 195, 120, 120, 195, 3, 0.956731
299, 2, bw, attraction, a-b-da, 9, 3, 5, 10, 186, 114, 195, 120, 120, 195, 1, 0.645072
299, 2, bw, filler, NA, 999, 999, 5, 11, 85, 184, 107, 63, 192, 180, 3, 0.632753
299, 2, bw, filler, NA, 999, 999, 5, 11, 85, 184, 107, 63, 192, 180, 2, 0.374588
299, 2, bw, attraction, a-b-db, 2, 3, 5, 12, 119, 193, 195, 120, 120, 195, 2, 1.02111
299, 2, bw, attraction, a-b-db, 2, 3, 5, 12, 119, 193, 195, 120, 120, 195, 1, 1.40273
299, 2, bw, attraction, a-b-da, 2, 1, 5, 13, 135, 60, 60, 135, 134, 59, 1, 1.29623
299, 2, bw, attraction, a-b-da, 2, 1, 5, 13, 135, 60, 60, 135, 134, 59, 2, 0.635213
299, 2, bw, attraction, a-b-db, 5, 2, 5, 14, 90, 165, 165, 90, 88, 161, 1, 3.91156
299, 2, bw, attraction, a-b-db, 5, 2, 5, 14, 90, 165, 165, 90, 88, 161, 2, 0.256988
299, 2, bw, attraction, a-b-da, 9, 2, 5, 15, 165, 90, 157, 86, 90, 165, 2, 1.34818
299, 2, bw, attraction, a-b-da, 9, 2, 5, 15, 165, 90, 157, 86, 90, 165, 3, 0.309083
299, 2, bw, filler, NA, 999, 999, 5, 16, 79, 125, 81, 79, 138, 86, 1, 0.74223
299, 2, bw, filler, NA, 999, 999, 5, 16, 79, 125, 81, 79, 138, 86, 2, 0.919273
299, 2, bw, catch, NA, 999, 999, 5, 17, 105, 150, 133, 62, 145, 170, 3, 0.904214
299, 2, bw, catch, NA, 999, 999, 5, 17, 105, 150, 133, 62, 145, 170, 2, 0.650631
299, 2, bw, attraction, a-b-db, 14, 1, 5, 18, 135, 60, 60, 135, 56, 125, 1, 3.14241
299, 2, bw, attraction, a-b-db, 14, 1, 5, 18, 135, 60, 60, 135, 56, 125, 2, 0.302712
299, 2, bw, filler, NA, 999, 999, 5, 19, 65, 183, 68, 194, 123, 73, 2, 2.18453
299, 2, bw, filler, NA, 999, 999, 5, 19, 65, 183, 68, 194, 123, 73, 3, 1.016
299, 2, bw, attraction, a-b-db, 9, 3, 5, 20, 114, 186, 120, 195, 195, 120, 2, 1.05271
299, 2, bw, attraction, a-b-db, 9, 3, 5, 20, 114, 186, 120, 195, 195, 120, 1, 0.745762
299, 2, bw, filler, NA, 999, 999, 5, 21, 148, 141, 145, 127, 189, 159, 3, 0.705581
299, 2, bw, filler, NA, 999, 999, 5, 21, 148, 141, 145, 127, 189, 159, 2, 0.539906
299, 2, bw, catch, NA, 999, 999, 5, 22, 137, 118, 64, 131, 137, 178, 3, 0.62773
299, 2, bw, catch, NA, 999, 999, 5, 22, 137, 118, 64, 131, 137, 178, 2, 0.697479
299, 2, bw, catch, NA, 999, 999, 5, 23, 169, 146, 80, 115, 107, 148, 1, 0.59515
299, 2, bw, catch, NA, 999, 999, 5, 23, 169, 146, 80, 115, 107, 148, 2, 0.610282
299, 2, bw, attraction, a-b-da, 5, 1, 5, 24, 60, 135, 132, 58, 135, 60, 3, 2.8314
299, 2, bw, attraction, a-b-da, 5, 1, 5, 24, 60, 135, 132, 58, 135, 60, 1, 0.620516
299, 2, bw, attraction, a-b-da, 14, 2, 5, 25, 165, 90, 153, 83, 90, 165, 1, 1.37758
299, 2, bw, attraction, a-b-da, 14, 2, 5, 25, 165, 90, 153, 83, 90, 165, 3, 0.585157
299, 2, bw, attraction, a-b-db, 14, 3, 5, 26, 120, 195, 111, 181, 195, 120, 1, 1.40742
299, 2, bw, attraction, a-b-db, 14, 3, 5, 26, 120, 195, 111, 181, 195, 120, 2, 0.541746
299, 2, bw, attraction, a-b-db, 2, 2, 5, 27, 90, 165, 89, 163, 165, 90, 1, 1.79762
299, 2, bw, attraction, a-b-db, 2, 2, 5, 27, 90, 165, 89, 163, 165, 90, 2, 0.420196
299, 2, bw, attraction, a-b-da, 14, 3, 5, 28, 120, 195, 195, 120, 181, 111, 1, 2.15333
299, 2, bw, attraction, a-b-da, 14, 3, 5, 28, 120, 195, 195, 120, 181, 111, 3, 0.514037
299, 2, bw, attraction, a-b-db, 5, 1, 5, 29, 58, 132, 60, 135, 135, 60, 1, 0.907089
299, 2, bw, attraction, a-b-db, 5, 1, 5, 29, 58, 132, 60, 135, 135, 60, 3, 0.757447
299, 2, bw, attraction, a-b-db, 14, 2, 5, 30, 165, 90, 83, 153, 90, 165, 2, 1.23648
299, 2, bw, attraction, a-b-db, 14, 2, 5, 30, 165, 90, 83, 153, 90, 165, 1, 0.53
299, 2, bw, attraction, a-b-da, 5, 3, 5, 31, 195, 120, 120, 195, 190, 117, 2, 0.802641
299, 2, bw, attraction, a-b-da, 5, 3, 5, 31, 195, 120, 120, 195, 190, 117, 3, 0.401717
299, 2, bw, attraction, a-b-db, 5, 3, 5, 32, 117, 190, 120, 195, 195, 120, 2, 1.02344
299, 2, bw, attraction, a-b-db, 5, 3, 5, 32, 117, 190, 120, 195, 195, 120, 3, 1.1011
299, 2, bw, attraction, a-b-da, 9, 1, 5, 33, 135, 60, 60, 135, 129, 57, 1, 1.01467
299, 2, bw, attraction, a-b-da, 9, 1, 5, 33, 135, 60, 60, 135, 129, 57, 2, 0.58899
299, 2, bw, filler, NA, 999, 999, 5, 34, 56, 124, 71, 167, 81, 70, 2, 0.619374
299, 2, bw, filler, NA, 999, 999, 5, 34, 56, 124, 71, 167, 81, 70, 3, 0.593806
299, 2, bw, attraction, a-b-da, 14, 1, 5, 35, 125, 56, 135, 60, 60, 135, 1, 1.38363
299, 2, bw, attraction, a-b-da, 14, 1, 5, 35, 125, 56, 135, 60, 60, 135, 3, 0.775118
299, 2, bw, filler, NA, 999, 999, 5, 36, 72, 113, 191, 95, 86, 191, 2, 0.589498
299, 2, bw, filler, NA, 999, 999, 5, 36, 72, 113, 191, 95, 86, 191, 1, 1.71668
299, 2, bw, filler, NA, 999, 999, 5, 37, 95, 192, 171, 110, 94, 94, 1, 0.613336
299, 2, bw, filler, NA, 999, 999, 5, 37, 95, 192, 171, 110, 94, 94, 3, 0.331827
299, 2, bw, attraction, a-b-da, 14, 2, 6, 1, 165, 90, 90, 165, 153, 83, 1, 0.836311
299, 2, bw, attraction, a-b-da, 14, 2, 6, 1, 165, 90, 90, 165, 153, 83, 2, 0.306095
299, 2, bw, attraction, a-b-da, 9, 2, 6, 2, 165, 90, 157, 86, 90, 165, 1, 0.835244
299, 2, bw, attraction, a-b-da, 9, 2, 6, 2, 165, 90, 157, 86, 90, 165, 2, 0.296959
299, 2, bw, attraction, a-b-da, 2, 1, 6, 3, 60, 135, 134, 59, 135, 60, 2, 0.610783
299, 2, bw, attraction, a-b-da, 2, 1, 6, 3, 60, 135, 134, 59, 135, 60, 1, 0.305256
299, 2, bw, filler, NA, 999, 999, 6, 4, 153, 59, 184, 149, 56, 82, 2, 0.579108
299, 2, bw, filler, NA, 999, 999, 6, 4, 153, 59, 184, 149, 56, 82, 3, 0.322909
299, 2, bw, filler, NA, 999, 999, 6, 5, 164, 194, 143, 141, 69, 182, 1, 0.515333
299, 2, bw, filler, NA, 999, 999, 6, 5, 164, 194, 143, 141, 69, 182, 3, 0.613835
299, 2, bw, attraction, a-b-db, 9, 3, 6, 6, 120, 195, 195, 120, 114, 186, 2, 1.16302
299, 2, bw, attraction, a-b-db, 9, 3, 6, 6, 120, 195, 195, 120, 114, 186, 3, 0.587243
299, 2, bw, attraction, a-b-da, 2, 3, 6, 7, 120, 195, 195, 120, 193, 119, 1, 0.753647
299, 2, bw, attraction, a-b-da, 2, 3, 6, 7, 120, 195, 195, 120, 193, 119, 2, 1.01068
299, 2, bw, attraction, a-b-da, 5, 1, 6, 8, 132, 58, 60, 135, 135, 60, 1, 1.98374
299, 2, bw, attraction, a-b-da, 5, 1, 6, 8, 132, 58, 60, 135, 135, 60, 2, 0.343037
299, 2, bw, attraction, a-b-db, 5, 3, 6, 9, 117, 190, 120, 195, 195, 120, 2, 1.43089
299, 2, bw, attraction, a-b-db, 5, 3, 6, 9, 117, 190, 120, 195, 195, 120, 1, 0.332598
299, 2, bw, filler, NA, 999, 999, 6, 10, 65, 153, 109, 64, 182, 177, 3, 0.564881
299, 2, bw, filler, NA, 999, 999, 6, 10, 65, 153, 109, 64, 182, 177, 2, 0.613487
299, 2, bw, attraction, a-b-db, 14, 1, 6, 11, 135, 60, 56, 125, 60, 135, 1, 2.89042
299, 2, bw, attraction, a-b-db, 14, 1, 6, 11, 135, 60, 56, 125, 60, 135, 2, 0.636822
299, 2, bw, filler, NA, 999, 999, 6, 12, 108, 159, 164, 85, 133, 92, 1, 0.873305
299, 2, bw, filler, NA, 999, 999, 6, 12, 108, 159, 164, 85, 133, 92, 3, 0.533007
299, 2, bw, catch, NA, 999, 999, 6, 13, 186, 129, 68, 127, 93, 162, 1, 0.725384
299, 2, bw, catch, NA, 999, 999, 6, 13, 186, 129, 68, 127, 93, 162, 2, 0.359164
299, 2, bw, filler, NA, 999, 999, 6, 14, 151, 90, 69, 151, 189, 158, 3, 0.702248
299, 2, bw, filler, NA, 999, 999, 6, 14, 151, 90, 69, 151, 189, 158, 2, 0.577371
299, 2, bw, attraction, a-b-da, 5, 3, 6, 15, 190, 117, 120, 195, 195, 120, 2, 3.1038
299, 2, bw, attraction, a-b-da, 5, 3, 6, 15, 190, 117, 120, 195, 195, 120, 1, 0.314127
299, 2, bw, attraction, a-b-db, 5, 2, 6, 16, 165, 90, 88, 161, 90, 165, 2, 4.06735
299, 2, bw, attraction, a-b-db, 5, 2, 6, 16, 165, 90, 88, 161, 90, 165, 1, 0.566876
299, 2, bw, attraction, a-b-da, 14, 3, 6, 17, 120, 195, 195, 120, 181, 111, 1, 0.749848
299, 2, bw, attraction, a-b-da, 14, 3, 6, 17, 120, 195, 195, 120, 181, 111, 3, 0.366939
299, 2, bw, attraction, a-b-da, 5, 2, 6, 18, 165, 90, 161, 88, 90, 165, 1, 0.574031
299, 2, bw, attraction, a-b-da, 5, 2, 6, 18, 165, 90, 161, 88, 90, 165, 3, 0.381869
299, 2, bw, attraction, a-b-db, 2, 3, 6, 19, 195, 120, 120, 195, 119, 193, 2, 0.692284
299, 2, bw, attraction, a-b-db, 2, 3, 6, 19, 195, 120, 120, 195, 119, 193, 1, 0.903584
299, 2, bw, attraction, a-b-da, 14, 1, 6, 20, 125, 56, 60, 135, 135, 60, 2, 1.90506
299, 2, bw, attraction, a-b-da, 14, 1, 6, 20, 125, 56, 60, 135, 135, 60, 1, 0.571125
299, 2, bw, attraction, a-b-db, 14, 2, 6, 21, 83, 153, 90, 165, 165, 90, 2, 0.730365
299, 2, bw, attraction, a-b-db, 14, 2, 6, 21, 83, 153, 90, 165, 165, 90, 1, 0.347928
299, 2, bw, filler, NA, 999, 999, 6, 22, 165, 126, 92, 183, 124, 70, 1, 0.595794
299, 2, bw, filler, NA, 999, 999, 6, 22, 165, 126, 92, 183, 124, 70, 3, 0.418918
299, 2, bw, attraction, a-b-db, 14, 3, 6, 23, 120, 195, 111, 181, 195, 120, 1, 0.744059
299, 2, bw, attraction, a-b-db, 14, 3, 6, 23, 120, 195, 111, 181, 195, 120, 2, 0.265108
299, 2, bw, attraction, a-b-da, 2, 2, 6, 24, 90, 165, 163, 89, 165, 90, 1, 2.98833
299, 2, bw, attraction, a-b-da, 2, 2, 6, 24, 90, 165, 163, 89, 165, 90, 2, 0.474732
299, 2, bw, attraction, a-b-da, 9, 3, 6, 25, 186, 114, 195, 120, 120, 195, 3, 1.7892
299, 2, bw, attraction, a-b-da, 9, 3, 6, 25, 186, 114, 195, 120, 120, 195, 1, 0.355869
299, 2, bw, attraction, a-b-db, 5, 1, 6, 26, 58, 132, 60, 135, 135, 60, 3, 3.38719
299, 2, bw, attraction, a-b-db, 5, 1, 6, 26, 58, 132, 60, 135, 135, 60, 2, 0.514136
299, 2, bw, catch, NA, 999, 999, 6, 27, 97, 98, 149, 106, 186, 129, 3, 1.15506
299, 2, bw, catch, NA, 999, 999, 6, 27, 97, 98, 149, 106, 186, 129, 1, 0.315363
299, 2, bw, attraction, a-b-db, 2, 2, 6, 28, 89, 163, 90, 165, 165, 90, 1, 1.12451
299, 2, bw, attraction, a-b-db, 2, 2, 6, 28, 89, 163, 90, 165, 165, 90, 2, 0.534208
299, 2, bw, attraction, a-b-da, 9, 1, 6, 29, 60, 135, 135, 60, 129, 57, 2, 1.36662
299, 2, bw, attraction, a-b-da, 9, 1, 6, 29, 60, 135, 135, 60, 129, 57, 3, 0.390844
299, 2, bw, attraction, a-b-db, 2, 1, 6, 30, 59, 134, 135, 60, 60, 135, 1, 1.18074
299, 2, bw, attraction, a-b-db, 2, 1, 6, 30, 59, 134, 135, 60, 60, 135, 3, 0.412294
299, 2, bw, attraction, a-b-db, 9, 2, 6, 31, 165, 90, 90, 165, 86, 157, 1, 2.68143
299, 2, bw, attraction, a-b-db, 9, 2, 6, 31, 165, 90, 90, 165, 86, 157, 2, 0.348581
299, 2, bw, attraction, a-b-db, 9, 1, 6, 32, 60, 135, 135, 60, 57, 129, 1, 1.24435
299, 2, bw, attraction, a-b-db, 9, 1, 6, 32, 60, 135, 135, 60, 57, 129, 3, 0.489312
299, 2, bw, filler, NA, 999, 999, 6, 33, 195, 178, 188, 123, 150, 177, 1, 0.675019
299, 2, bw, filler, NA, 999, 999, 6, 33, 195, 178, 188, 123, 150, 177, 2, 3.00681
299, 2, bw, filler, NA, 999, 999, 6, 34, 78, 107, 59, 67, 73, 120, 3, 1.66734
299, 2, bw, filler, NA, 999, 999, 6, 34, 78, 107, 59, 67, 73, 120, 2, 0.455307
299, 2, bw, filler, NA, 999, 999, 6, 35, 184, 82, 167, 62, 64, 108, 1, 2.91507
299, 2, bw, filler, NA, 999, 999, 6, 35, 184, 82, 167, 62, 64, 108, 3, 0.396968
299, 2, bw, catch, NA, 999, 999, 6, 36, 108, 87, 110, 145, 157, 158, 3, 1.00267
299, 2, bw, catch, NA, 999, 999, 6, 36, 108, 87, 110, 145, 157, 158, 1, 0.353577
299, 2, bw, filler, NA, 999, 999, 6, 37, 178, 92, 155, 182, 151, 89, 2, 0.761415
299, 2, bw, filler, NA, 999, 999, 6, 37, 178, 92, 155, 182, 151, 89, 3, 0.577959
299, 2, bw, attraction, a-b-da, 5, 3, 7, 1, 190, 117, 120, 195, 195, 120, 1, 1.54435
299, 2, bw, attraction, a-b-da, 5, 3, 7, 1, 190, 117, 120, 195, 195, 120, 2, 0.297096
299, 2, bw, attraction, a-b-db, 9, 2, 7, 2, 165, 90, 86, 157, 90, 165, 1, 5.54694
299, 2, bw, attraction, a-b-db, 9, 2, 7, 2, 165, 90, 86, 157, 90, 165, 2, 0.762494
299, 2, bw, attraction, a-b-db, 5, 3, 7, 3, 117, 190, 120, 195, 195, 120, 2, 1.2176
299, 2, bw, attraction, a-b-db, 5, 3, 7, 3, 117, 190, 120, 195, 195, 120, 1, 1.49589
299, 2, bw, attraction, a-b-db, 14, 1, 7, 4, 135, 60, 56, 125, 60, 135, 1, 2.38545
299, 2, bw, attraction, a-b-db, 14, 1, 7, 4, 135, 60, 56, 125, 60, 135, 2, 0.488528
299, 2, bw, attraction, a-b-db, 9, 3, 7, 5, 195, 120, 120, 195, 114, 186, 2, 1.43495
299, 2, bw, attraction, a-b-db, 9, 3, 7, 5, 195, 120, 120, 195, 114, 186, 3, 0.976516
299, 2, bw, attraction, a-b-db, 2, 3, 7, 6, 120, 195, 195, 120, 119, 193, 1, 1.75877
299, 2, bw, attraction, a-b-db, 2, 3, 7, 6, 120, 195, 195, 120, 119, 193, 3, 2.18288
299, 2, bw, attraction, a-b-da, 14, 1, 7, 7, 60, 135, 135, 60, 125, 56, 1, 1.30878
299, 2, bw, attraction, a-b-da, 14, 1, 7, 7, 60, 135, 135, 60, 125, 56, 3, 0.48706
299, 2, bw, attraction, a-b-db, 2, 2, 7, 8, 165, 90, 89, 163, 90, 165, 1, 7.72951
299, 2, bw, attraction, a-b-db, 2, 2, 7, 8, 165, 90, 89, 163, 90, 165, 2, 0.545071
299, 2, bw, attraction, a-b-da, 9, 3, 7, 9, 195, 120, 120, 195, 186, 114, 2, 1.22501
299, 2, bw, attraction, a-b-da, 9, 3, 7, 9, 195, 120, 120, 195, 186, 114, 3, 0.598553
299, 2, bw, filler, NA, 999, 999, 7, 10, 142, 119, 155, 186, 119, 77, 2, 0.820172
299, 2, bw, filler, NA, 999, 999, 7, 10, 142, 119, 155, 186, 119, 77, 3, 0.394635
299, 2, bw, filler, NA, 999, 999, 7, 11, 60, 81, 165, 179, 118, 56, 2, 0.968344
299, 2, bw, filler, NA, 999, 999, 7, 11, 60, 81, 165, 179, 118, 56, 1, 0.61676
299, 2, bw, filler, NA, 999, 999, 7, 12, 155, 113, 95, 78, 164, 80, 1, 0.797741
299, 2, bw, filler, NA, 999, 999, 7, 12, 155, 113, 95, 78, 164, 80, 2, 0.804873
299, 2, bw, attraction, a-b-db, 14, 3, 7, 13, 120, 195, 111, 181, 195, 120, 1, 6.04262
299, 2, bw, attraction, a-b-db, 14, 3, 7, 13, 120, 195, 111, 181, 195, 120, 2, 0.501941
299, 2, bw, attraction, a-b-db, 5, 2, 7, 14, 165, 90, 90, 165, 88, 161, 1, 6.37587
299, 2, bw, attraction, a-b-db, 5, 2, 7, 14, 165, 90, 90, 165, 88, 161, 3, 0.685799
299, 2, bw, filler, NA, 999, 999, 7, 15, 166, 105, 126, 60, 117, 167, 1, 0.62412
299, 2, bw, filler, NA, 999, 999, 7, 15, 166, 105, 126, 60, 117, 167, 2, 1.12599
299, 2, bw, catch, NA, 999, 999, 7, 16, 180, 135, 139, 116, 100, 95, 1, 1.21415
299, 2, bw, catch, NA, 999, 999, 7, 16, 180, 135, 139, 116, 100, 95, 3, 0.828445
299, 2, bw, attraction, a-b-da, 2, 1, 7, 17, 60, 135, 135, 60, 134, 59, 3, 2.26482
299, 2, bw, attraction, a-b-da, 2, 1, 7, 17, 60, 135, 135, 60, 134, 59, 1, 0.548844
299, 2, bw, attraction, a-b-da, 5, 1, 7, 18, 132, 58, 60, 135, 135, 60, 3, 1.15651
299, 2, bw, attraction, a-b-da, 5, 1, 7, 18, 132, 58, 60, 135, 135, 60, 2, 0.500781
299, 2, bw, attraction, a-b-da, 9, 2, 7, 19, 157, 86, 165, 90, 90, 165, 3, 1.51063
299, 2, bw, attraction, a-b-da, 9, 2, 7, 19, 157, 86, 165, 90, 90, 165, 1, 0.59284
299, 2, bw, attraction, a-b-db, 9, 1, 7, 20, 135, 60, 60, 135, 57, 129, 1, 1.91052
299, 2, bw, attraction, a-b-db, 9, 1, 7, 20, 135, 60, 60, 135, 57, 129, 3, 0.368491
299, 2, bw, filler, NA, 999, 999, 7, 21, 119, 121, 180, 64, 162, 192, 3, 0.89565
299, 2, bw, filler, NA, 999, 999, 7, 21, 119, 121, 180, 64, 162, 192, 2, 1.47468
299, 2, bw, attraction, a-b-da, 9, 1, 7, 22, 60, 135, 135, 60, 129, 57, 1, 1.46081
299, 2, bw, attraction, a-b-da, 9, 1, 7, 22, 60, 135, 135, 60, 129, 57, 2, 0.713146
299, 2, bw, filler, NA, 999, 999, 7, 23, 122, 186, 58, 59, 71, 68, 1, 0.74609
299, 2, bw, filler, NA, 999, 999, 7, 23, 122, 186, 58, 59, 71, 68, 2, 0.587187
299, 2, bw, attraction, a-b-db, 14, 2, 7, 24, 165, 90, 83, 153, 90, 165, 1, 3.60963
299, 2, bw, attraction, a-b-db, 14, 2, 7, 24, 165, 90, 83, 153, 90, 165, 2, 1.3751
299, 2, bw, catch, NA, 999, 999, 7, 25, 135, 180, 83, 112, 152, 103, 1, 0.789409
299, 2, bw, catch, NA, 999, 999, 7, 25, 135, 180, 83, 112, 152, 103, 2, 0.548337
299, 2, bw, attraction, a-b-da, 2, 2, 7, 26, 90, 165, 165, 90, 163, 89, 2, 1.03605
299, 2, bw, attraction, a-b-da, 2, 2, 7, 26, 90, 165, 165, 90, 163, 89, 3, 0.617816
299, 2, bw, attraction, a-b-da, 14, 3, 7, 27, 120, 195, 195, 120, 181, 111, 1, 2.55078
299, 2, bw, attraction, a-b-da, 14, 3, 7, 27, 120, 195, 195, 120, 181, 111, 3, 0.415349
299, 2, bw, attraction, a-b-da, 2, 3, 7, 28, 193, 119, 195, 120, 120, 195, 3, 1.02843
299, 2, bw, attraction, a-b-da, 2, 3, 7, 28, 193, 119, 195, 120, 120, 195, 1, 0.474158
299, 2, bw, attraction, a-b-db, 5, 1, 7, 29, 58, 132, 135, 60, 60, 135, 3, 1.67659
299, 2, bw, attraction, a-b-db, 5, 1, 7, 29, 58, 132, 135, 60, 60, 135, 2, 0.392061
299, 2, bw, filler, NA, 999, 999, 7, 30, 119, 148, 108, 112, 75, 128, 1, 0.965832
299, 2, bw, filler, NA, 999, 999, 7, 30, 119, 148, 108, 112, 75, 128, 3, 1.37437
299, 2, bw, attraction, a-b-db, 2, 1, 7, 31, 135, 60, 60, 135, 59, 134, 3, 3.83644
299, 2, bw, attraction, a-b-db, 2, 1, 7, 31, 135, 60, 60, 135, 59, 134, 1, 0.801173
299, 2, bw, catch, NA, 999, 999, 7, 32, 113, 142, 152, 163, 132, 63, 2, 0.710801
299, 2, bw, catch, NA, 999, 999, 7, 32, 113, 142, 152, 163, 132, 63, 1, 0.585387
299, 2, bw, filler, NA, 999, 999, 7, 33, 175, 133, 82, 120, 125, 80, 1, 1.15172
299, 2, bw, filler, NA, 999, 999, 7, 33, 175, 133, 82, 120, 125, 80, 2, 3.56079
299, 2, bw, filler, NA, 999, 999, 7, 34, 125, 84, 185, 129, 102, 187, 2, 0.710755
299, 2, bw, filler, NA, 999, 999, 7, 34, 125, 84, 185, 129, 102, 187, 1, 0.43335
299, 2, bw, attraction, a-b-da, 5, 2, 7, 35, 165, 90, 90, 165, 161, 88, 1, 1.87761
299, 2, bw, attraction, a-b-da, 5, 2, 7, 35, 165, 90, 90, 165, 161, 88, 2, 4.56907
299, 2, bw, attraction, a-b-da, 14, 2, 7, 36, 153, 83, 165, 90, 90, 165, 2, 3.95905
299, 2, bw, attraction, a-b-da, 14, 2, 7, 36, 153, 83, 165, 90, 90, 165, 1, 0.5423
299, 2, bw, filler, NA, 999, 999, 7, 37, 138, 163, 113, 111, 132, 180, 3, 14.0541
299, 2, bw, filler, NA, 999, 999, 7, 37, 138, 163, 113, 111, 132, 180, 2, 0.430948
299, 2, bw, filler, NA, 999, 999, 8, 1, 116, 130, 151, 66, 122, 144, 3, 3.60362
299, 2, bw, filler, NA, 999, 999, 8, 1, 116, 130, 151, 66, 122, 144, 2, 1.39368
299, 2, bw, attraction, a-b-db, 14, 2, 8, 2, 90, 165, 165, 90, 83, 153, 1, 3.10315
299, 2, bw, attraction, a-b-db, 14, 2, 8, 2, 90, 165, 165, 90, 83, 153, 3, 0.401556
299, 2, bw, attraction, a-b-db, 14, 1, 8, 3, 135, 60, 56, 125, 60, 135, 1, 1.80737
299, 2, bw, attraction, a-b-db, 14, 1, 8, 3, 135, 60, 56, 125, 60, 135, 2, 0.541378
299, 2, bw, filler, NA, 999, 999, 8, 4, 92, 161, 139, 156, 64, 133, 2, 0.741314
299, 2, bw, filler, NA, 999, 999, 8, 4, 92, 161, 139, 156, 64, 133, 3, 0.590257
299, 2, bw, attraction, a-b-db, 9, 1, 8, 5, 135, 60, 57, 129, 60, 135, 3, 4.00402
299, 2, bw, attraction, a-b-db, 9, 1, 8, 5, 135, 60, 57, 129, 60, 135, 2, 0.450095
299, 2, bw, attraction, a-b-db, 14, 3, 8, 6, 111, 181, 195, 120, 120, 195, 3, 1.31788
299, 2, bw, attraction, a-b-db, 14, 3, 8, 6, 111, 181, 195, 120, 120, 195, 1, 0.82416
299, 2, bw, filler, NA, 999, 999, 8, 7, 172, 175, 150, 72, 168, 83, 1, 1.35646
299, 2, bw, filler, NA, 999, 999, 8, 7, 172, 175, 150, 72, 168, 83, 2, 0.348625
299, 2, bw, catch, NA, 999, 999, 8, 8, 117, 138, 193, 122, 94, 101, 2, 2.40454
299, 2, bw, catch, NA, 999, 999, 8, 8, 117, 138, 193, 122, 94, 101, 3, 0.627071
299, 2, bw, attraction, a-b-da, 2, 2, 8, 9, 163, 89, 90, 165, 165, 90, 2, 2.74345
299, 2, bw, attraction, a-b-da, 2, 2, 8, 9, 163, 89, 90, 165, 165, 90, 1, 0.479883
299, 2, bw, filler, NA, 999, 999, 8, 10, 127, 158, 134, 125, 151, 105, 1, 1.05828
299, 2, bw, filler, NA, 999, 999, 8, 10, 127, 158, 134, 125, 151, 105, 2, 0.318708
299, 2, bw, attraction, a-b-da, 9, 2, 8, 11, 157, 86, 90, 165, 165, 90, 2, 1.00783
299, 2, bw, attraction, a-b-da, 9, 2, 8, 11, 157, 86, 90, 165, 165, 90, 3, 0.526263
299, 2, bw, attraction, a-b-db, 2, 3, 8, 12, 120, 195, 195, 120, 119, 193, 1, 1.4946
299, 2, bw, attraction, a-b-db, 2, 3, 8, 12, 120, 195, 195, 120, 119, 193, 2, 0.3854
299, 2, bw, attraction, a-b-db, 5, 2, 8, 13, 165, 90, 88, 161, 90, 165, 1, 0.583905
299, 2, bw, attraction, a-b-db, 5, 2, 8, 13, 165, 90, 88, 161, 90, 165, 2, 0.527689
299, 2, bw, attraction, a-b-db, 9, 3, 8, 14, 195, 120, 120, 195, 114, 186, 3, 1.50415
299, 2, bw, attraction, a-b-db, 9, 3, 8, 14, 195, 120, 120, 195, 114, 186, 1, 0.354296
299, 2, bw, attraction, a-b-da, 5, 1, 8, 15, 135, 60, 60, 135, 132, 58, 3, 0.946163
299, 2, bw, attraction, a-b-da, 5, 1, 8, 15, 135, 60, 60, 135, 132, 58, 2, 0.315219
299, 2, bw, attraction, a-b-da, 14, 1, 8, 16, 60, 135, 135, 60, 125, 56, 3, 0.852381
299, 2, bw, attraction, a-b-da, 14, 1, 8, 16, 60, 135, 135, 60, 125, 56, 2, 0.329337
299, 2, bw, attraction, a-b-db, 5, 1, 8, 17, 60, 135, 58, 132, 135, 60, 2, 0.809905
299, 2, bw, attraction, a-b-db, 5, 1, 8, 17, 60, 135, 58, 132, 135, 60, 3, 0.27227
299, 2, bw, attraction, a-b-da, 5, 2, 8, 18, 90, 165, 161, 88, 165, 90, 1, 0.539457
299, 2, bw, attraction, a-b-da, 5, 2, 8, 18, 90, 165, 161, 88, 165, 90, 2, 0.236583
299, 2, bw, attraction, a-b-da, 2, 1, 8, 19, 135, 60, 60, 135, 134, 59, 1, 1.31309
299, 2, bw, attraction, a-b-da, 2, 1, 8, 19, 135, 60, 60, 135, 134, 59, 2, 0.267393
299, 2, bw, attraction, a-b-da, 9, 3, 8, 20, 195, 120, 120, 195, 186, 114, 2, 0.814556
299, 2, bw, attraction, a-b-da, 9, 3, 8, 20, 195, 120, 120, 195, 186, 114, 3, 0.356986
299, 2, bw, attraction, a-b-db, 9, 2, 8, 21, 86, 157, 165, 90, 90, 165, 3, 0.876078
299, 2, bw, attraction, a-b-db, 9, 2, 8, 21, 86, 157, 165, 90, 90, 165, 2, 0.311801
299, 2, bw, filler, NA, 999, 999, 8, 22, 87, 98, 89, 164, 77, 122, 2, 0.488959
299, 2, bw, filler, NA, 999, 999, 8, 22, 87, 98, 89, 164, 77, 122, 1, 0.276125
299, 2, bw, attraction, a-b-da, 14, 2, 8, 23, 165, 90, 153, 83, 90, 165, 1, 0.81459
299, 2, bw, attraction, a-b-da, 14, 2, 8, 23, 165, 90, 153, 83, 90, 165, 2, 0.3172
299, 2, bw, filler, NA, 999, 999, 8, 24, 133, 85, 168, 95, 186, 165, 3, 0.782241
299, 2, bw, filler, NA, 999, 999, 8, 24, 133, 85, 168, 95, 186, 165, 1, 0.309993
299, 2, bw, catch, NA, 999, 999, 8, 25, 163, 152, 159, 96, 112, 83, 1, 0.623102
299, 2, bw, catch, NA, 999, 999, 8, 25, 163, 152, 159, 96, 112, 83, 3, 0.580868
299, 2, bw, attraction, a-b-db, 2, 1, 8, 26, 59, 134, 135, 60, 60, 135, 1, 0.683349
299, 2, bw, attraction, a-b-db, 2, 1, 8, 26, 59, 134, 135, 60, 60, 135, 3, 0.327159
299, 2, bw, catch, NA, 999, 999, 8, 27, 157, 98, 74, 121, 171, 144, 3, 1.18368
299, 2, bw, catch, NA, 999, 999, 8, 27, 157, 98, 74, 121, 171, 144, 2, 0.271238
299, 2, bw, attraction, a-b-da, 2, 3, 8, 28, 120, 195, 193, 119, 195, 120, 2, 1.03444
299, 2, bw, attraction, a-b-da, 2, 3, 8, 28, 120, 195, 193, 119, 195, 120, 3, 0.320097
299, 2, bw, attraction, a-b-da, 14, 3, 8, 29, 120, 195, 195, 120, 181, 111, 1, 0.657315
299, 2, bw, attraction, a-b-da, 14, 3, 8, 29, 120, 195, 195, 120, 181, 111, 2, 0.285627
299, 2, bw, attraction, a-b-db, 2, 2, 8, 30, 89, 163, 165, 90, 90, 165, 1, 2.2162
299, 2, bw, attraction, a-b-db, 2, 2, 8, 30, 89, 163, 165, 90, 90, 165, 3, 0.622082
299, 2, bw, filler, NA, 999, 999, 8, 31, 144, 99, 186, 167, 190, 86, 2, 0.531204
299, 2, bw, filler, NA, 999, 999, 8, 31, 144, 99, 186, 167, 190, 86, 1, 0.285029
299, 2, bw, filler, NA, 999, 999, 8, 32, 79, 156, 152, 84, 120, 148, 3, 0.839583
299, 2, bw, filler, NA, 999, 999, 8, 32, 79, 156, 152, 84, 120, 148, 1, 0.332724
299, 2, bw, attraction, a-b-da, 5, 3, 8, 33, 190, 117, 120, 195, 195, 120, 2, 0.621091
299, 2, bw, attraction, a-b-da, 5, 3, 8, 33, 190, 117, 120, 195, 195, 120, 3, 0.258884
299, 2, bw, attraction, a-b-da, 9, 1, 8, 34, 129, 57, 60, 135, 135, 60, 2, 1.14204
299, 2, bw, attraction, a-b-da, 9, 1, 8, 34, 129, 57, 60, 135, 135, 60, 1, 0.223024
299, 2, bw, attraction, a-b-db, 5, 3, 8, 35, 117, 190, 195, 120, 120, 195, 1, 1.25948
299, 2, bw, attraction, a-b-db, 5, 3, 8, 35, 117, 190, 195, 120, 120, 195, 2, 0.207736
299, 2, bw, filler, NA, 999, 999, 8, 36, 117, 189, 84, 117, 133, 167, 3, 0.669028
299, 2, bw, filler, NA, 999, 999, 8, 36, 117, 189, 84, 117, 133, 167, 2, 0.961428
299, 2, bw, filler, NA, 999, 999, 8, 37, 160, 134, 176, 161, 109, 134, 2, 0.520383
299, 2, bw, filler, NA, 999, 999, 8, 37, 160, 134, 176, 161, 109, 134, 3, 0.506177
