sub_n, computer_n, bw_cond, effect, set, distance, diag, block_n, trial_n, h1, w1, h2, w2, h3, w3, choice, rt 
279, 2, bw, practice, NA, 999, 999, 0, 1, 91, 193, 167, 118, 137, 70, 2, 4.63359
279, 2, bw, practice, NA, 999, 999, 0, 1, 91, 193, 167, 118, 137, 70, 3, 2.90287
279, 2, bw, practice, NA, 999, 999, 0, 2, 146, 151, 188, 174, 92, 147, 2, 6.89246
279, 2, bw, practice, NA, 999, 999, 0, 2, 146, 151, 188, 174, 92, 147, 3, 2.19107
279, 2, bw, practice, NA, 999, 999, 0, 3, 180, 74, 78, 190, 192, 100, 3, 3.34321
279, 2, bw, practice, NA, 999, 999, 0, 3, 180, 74, 78, 190, 192, 100, 1, 2.12745
279, 2, bw, filler, NA, 999, 999, 1, 1, 166, 147, 143, 131, 96, 136, 1, 3.34082
279, 2, bw, filler, NA, 999, 999, 1, 1, 166, 147, 143, 131, 96, 136, 3, 1.48522
279, 2, bw, attraction, a-b-db, 5, 3, 1, 2, 195, 120, 120, 195, 117, 190, 2, 8.50326
279, 2, bw, attraction, a-b-db, 5, 3, 1, 2, 195, 120, 120, 195, 117, 190, 3, 9.56807
279, 2, bw, filler, NA, 999, 999, 1, 3, 194, 85, 77, 65, 174, 59, 1, 3.07618
279, 2, bw, filler, NA, 999, 999, 1, 3, 194, 85, 77, 65, 174, 59, 2, 1.79929
279, 2, bw, attraction, a-b-db, 5, 1, 1, 4, 135, 60, 60, 135, 58, 132, 2, 6.46853
279, 2, bw, attraction, a-b-db, 5, 1, 1, 4, 135, 60, 60, 135, 58, 132, 1, 11.0633
279, 2, bw, attraction, a-b-db, 5, 2, 1, 5, 88, 161, 90, 165, 165, 90, 2, 10.1431
279, 2, bw, attraction, a-b-db, 5, 2, 1, 5, 88, 161, 90, 165, 165, 90, 3, 0.781236
279, 2, bw, filler, NA, 999, 999, 1, 6, 172, 69, 102, 161, 131, 59, 2, 9.22751
279, 2, bw, filler, NA, 999, 999, 1, 6, 172, 69, 102, 161, 131, 59, 3, 1.28664
279, 2, bw, filler, NA, 999, 999, 1, 7, 58, 177, 113, 134, 165, 83, 2, 7.85688
279, 2, bw, filler, NA, 999, 999, 1, 7, 58, 177, 113, 134, 165, 83, 1, 0.691067
279, 2, bw, filler, NA, 999, 999, 1, 8, 163, 148, 125, 79, 122, 173, 1, 1.81287
279, 2, bw, filler, NA, 999, 999, 1, 8, 163, 148, 125, 79, 122, 173, 2, 0.83498
279, 2, bw, attraction, a-b-db, 2, 1, 1, 9, 60, 135, 59, 134, 135, 60, 3, 7.98323
279, 2, bw, attraction, a-b-db, 2, 1, 1, 9, 60, 135, 59, 134, 135, 60, 2, 0.780673
279, 2, bw, attraction, a-b-da, 5, 3, 1, 10, 195, 120, 190, 117, 120, 195, 3, 4.82718
279, 2, bw, attraction, a-b-da, 5, 3, 1, 10, 195, 120, 190, 117, 120, 195, 2, 1.31953
279, 2, bw, attraction, a-b-da, 2, 1, 1, 11, 135, 60, 134, 59, 60, 135, 3, 2.46438
279, 2, bw, attraction, a-b-da, 2, 1, 1, 11, 135, 60, 134, 59, 60, 135, 2, 3.54617
279, 2, bw, filler, NA, 999, 999, 1, 12, 162, 157, 155, 84, 69, 89, 1, 2.07501
279, 2, bw, filler, NA, 999, 999, 1, 12, 162, 157, 155, 84, 69, 89, 3, 0.774353
279, 2, bw, attraction, a-b-da, 14, 1, 1, 13, 125, 56, 135, 60, 60, 135, 3, 3.61281
279, 2, bw, attraction, a-b-da, 14, 1, 1, 13, 125, 56, 135, 60, 60, 135, 1, 0.810257
279, 2, bw, catch, NA, 999, 999, 1, 14, 100, 155, 97, 98, 173, 142, 3, 1.63926
279, 2, bw, catch, NA, 999, 999, 1, 14, 100, 155, 97, 98, 173, 142, 2, 0.516074
279, 2, bw, attraction, a-b-db, 14, 3, 1, 15, 120, 195, 111, 181, 195, 120, 1, 3.26113
279, 2, bw, attraction, a-b-db, 14, 3, 1, 15, 120, 195, 111, 181, 195, 120, 2, 2.98495
279, 2, bw, attraction, a-b-da, 2, 3, 1, 16, 195, 120, 120, 195, 193, 119, 2, 25.6785
279, 2, bw, attraction, a-b-da, 2, 3, 1, 16, 195, 120, 120, 195, 193, 119, 1, 2.13839
279, 2, bw, attraction, a-b-db, 14, 2, 1, 17, 83, 153, 90, 165, 165, 90, 2, 2.33838
279, 2, bw, attraction, a-b-db, 14, 2, 1, 17, 83, 153, 90, 165, 165, 90, 1, 1.73101
279, 2, bw, attraction, a-b-da, 9, 2, 1, 18, 90, 165, 165, 90, 157, 86, 1, 6.09897
279, 2, bw, attraction, a-b-da, 9, 2, 1, 18, 90, 165, 165, 90, 157, 86, 3, 0.484381
279, 2, bw, filler, NA, 999, 999, 1, 19, 68, 76, 57, 187, 181, 131, 3, 2.99881
279, 2, bw, filler, NA, 999, 999, 1, 19, 68, 76, 57, 187, 181, 131, 1, 0.773218
279, 2, bw, attraction, a-b-da, 9, 3, 1, 20, 120, 195, 186, 114, 195, 120, 1, 3.21954
279, 2, bw, attraction, a-b-da, 9, 3, 1, 20, 120, 195, 186, 114, 195, 120, 2, 0.641247
279, 2, bw, filler, NA, 999, 999, 1, 21, 161, 57, 163, 189, 157, 124, 2, 1.92488
279, 2, bw, filler, NA, 999, 999, 1, 21, 161, 57, 163, 189, 157, 124, 1, 0.622336
279, 2, bw, attraction, a-b-db, 2, 2, 1, 22, 89, 163, 165, 90, 90, 165, 3, 2.78754
279, 2, bw, attraction, a-b-db, 2, 2, 1, 22, 89, 163, 165, 90, 90, 165, 2, 3.40205
279, 2, bw, attraction, a-b-db, 9, 1, 1, 23, 57, 129, 60, 135, 135, 60, 2, 17.0388
279, 2, bw, attraction, a-b-db, 9, 1, 1, 23, 57, 129, 60, 135, 135, 60, 1, 0.487387
279, 2, bw, attraction, a-b-db, 2, 3, 1, 24, 195, 120, 119, 193, 120, 195, 3, 5.03388
279, 2, bw, attraction, a-b-db, 2, 3, 1, 24, 195, 120, 119, 193, 120, 195, 1, 5.50222
279, 2, bw, catch, NA, 999, 999, 1, 25, 150, 105, 62, 133, 141, 174, 3, 1.47049
279, 2, bw, catch, NA, 999, 999, 1, 25, 150, 105, 62, 133, 141, 174, 2, 0.626023
279, 2, bw, attraction, a-b-da, 9, 1, 1, 26, 129, 57, 135, 60, 60, 135, 3, 5.87039
279, 2, bw, attraction, a-b-da, 9, 1, 1, 26, 129, 57, 135, 60, 60, 135, 1, 0.505247
279, 2, bw, attraction, a-b-db, 9, 2, 1, 27, 90, 165, 165, 90, 86, 157, 2, 5.587
279, 2, bw, attraction, a-b-db, 9, 2, 1, 27, 90, 165, 165, 90, 86, 157, 3, 0.417242
279, 2, bw, attraction, a-b-da, 2, 2, 1, 28, 90, 165, 163, 89, 165, 90, 1, 3.13433
279, 2, bw, attraction, a-b-da, 2, 2, 1, 28, 90, 165, 163, 89, 165, 90, 2, 2.44736
279, 2, bw, attraction, a-b-da, 14, 3, 1, 29, 195, 120, 181, 111, 120, 195, 3, 7.66658
279, 2, bw, attraction, a-b-da, 14, 3, 1, 29, 195, 120, 181, 111, 120, 195, 2, 1.28493
279, 2, bw, filler, NA, 999, 999, 1, 30, 149, 76, 172, 111, 163, 67, 2, 1.51098
279, 2, bw, filler, NA, 999, 999, 1, 30, 149, 76, 172, 111, 163, 67, 1, 19.8492
279, 2, bw, attraction, a-b-da, 5, 1, 1, 31, 132, 58, 135, 60, 60, 135, 3, 1.80688
279, 2, bw, attraction, a-b-da, 5, 1, 1, 31, 132, 58, 135, 60, 60, 135, 2, 1.38899
279, 2, bw, attraction, a-b-da, 5, 2, 1, 32, 165, 90, 90, 165, 161, 88, 2, 2.98708
279, 2, bw, attraction, a-b-da, 5, 2, 1, 32, 165, 90, 90, 165, 161, 88, 3, 1.74623
279, 2, bw, attraction, a-b-da, 14, 2, 1, 33, 153, 83, 90, 165, 165, 90, 2, 6.95356
279, 2, bw, attraction, a-b-da, 14, 2, 1, 33, 153, 83, 90, 165, 165, 90, 1, 4.32874
279, 2, bw, filler, NA, 999, 999, 1, 34, 134, 165, 144, 68, 138, 149, 1, 2.03991
279, 2, bw, filler, NA, 999, 999, 1, 34, 134, 165, 144, 68, 138, 149, 2, 3.35663
279, 2, bw, attraction, a-b-db, 9, 3, 1, 35, 195, 120, 114, 186, 120, 195, 1, 1.89968
279, 2, bw, attraction, a-b-db, 9, 3, 1, 35, 195, 120, 114, 186, 120, 195, 3, 2.27824
279, 2, bw, catch, NA, 999, 999, 1, 36, 151, 104, 98, 97, 123, 192, 3, 2.11211
279, 2, bw, catch, NA, 999, 999, 1, 36, 151, 104, 98, 97, 123, 192, 2, 0.698067
279, 2, bw, attraction, a-b-db, 14, 1, 1, 37, 56, 125, 60, 135, 135, 60, 2, 3.14791
279, 2, bw, attraction, a-b-db, 14, 1, 1, 37, 56, 125, 60, 135, 135, 60, 1, 2.14826
279, 2, bw, filler, NA, 999, 999, 2, 1, 158, 106, 64, 86, 109, 102, 1, 1.00341
279, 2, bw, filler, NA, 999, 999, 2, 1, 158, 106, 64, 86, 109, 102, 2, 0.385763
279, 2, bw, attraction, a-b-da, 14, 2, 2, 2, 165, 90, 153, 83, 90, 165, 3, 10.4883
279, 2, bw, attraction, a-b-da, 14, 2, 2, 2, 165, 90, 153, 83, 90, 165, 2, 0.529152
279, 2, bw, attraction, a-b-db, 2, 1, 2, 3, 135, 60, 60, 135, 59, 134, 2, 12.7694
279, 2, bw, attraction, a-b-db, 2, 1, 2, 3, 135, 60, 60, 135, 59, 134, 1, 0.766042
279, 2, bw, attraction, a-b-db, 2, 2, 2, 4, 89, 163, 90, 165, 165, 90, 2, 8.27726
279, 2, bw, attraction, a-b-db, 2, 2, 2, 4, 89, 163, 90, 165, 165, 90, 3, 0.590476
279, 2, bw, attraction, a-b-db, 9, 2, 2, 5, 90, 165, 165, 90, 86, 157, 1, 3.97223
279, 2, bw, attraction, a-b-db, 9, 2, 2, 5, 90, 165, 165, 90, 86, 157, 2, 0.899019
279, 2, bw, attraction, a-b-da, 2, 2, 2, 6, 163, 89, 165, 90, 90, 165, 3, 2.09261
279, 2, bw, attraction, a-b-da, 2, 2, 2, 6, 163, 89, 165, 90, 90, 165, 2, 0.72719
279, 2, bw, filler, NA, 999, 999, 2, 7, 70, 140, 79, 77, 107, 172, 3, 1.23969
279, 2, bw, filler, NA, 999, 999, 2, 7, 70, 140, 79, 77, 107, 172, 2, 3.31658
279, 2, bw, catch, NA, 999, 999, 2, 8, 128, 67, 167, 148, 101, 154, 2, 1.25279
279, 2, bw, catch, NA, 999, 999, 2, 8, 128, 67, 167, 148, 101, 154, 1, 1.46572
279, 2, bw, filler, NA, 999, 999, 2, 9, 182, 156, 186, 86, 85, 75, 1, 2.37251
279, 2, bw, filler, NA, 999, 999, 2, 9, 182, 156, 186, 86, 85, 75, 3, 1.09181
279, 2, bw, attraction, a-b-da, 14, 1, 2, 10, 125, 56, 135, 60, 60, 135, 3, 3.58131
279, 2, bw, attraction, a-b-da, 14, 1, 2, 10, 125, 56, 135, 60, 60, 135, 1, 0.812237
279, 2, bw, attraction, a-b-da, 9, 2, 2, 11, 90, 165, 157, 86, 165, 90, 1, 3.06522
279, 2, bw, attraction, a-b-da, 9, 2, 2, 11, 90, 165, 157, 86, 165, 90, 2, 0.412933
279, 2, bw, attraction, a-b-da, 9, 3, 2, 12, 186, 114, 195, 120, 120, 195, 3, 1.74624
279, 2, bw, attraction, a-b-da, 9, 3, 2, 12, 186, 114, 195, 120, 120, 195, 2, 0.618877
279, 2, bw, filler, NA, 999, 999, 2, 13, 151, 120, 133, 178, 124, 130, 2, 1.2958
279, 2, bw, filler, NA, 999, 999, 2, 13, 151, 120, 133, 178, 124, 130, 3, 0.986772
279, 2, bw, catch, NA, 999, 999, 2, 14, 117, 78, 163, 152, 127, 128, 2, 0.897071
279, 2, bw, catch, NA, 999, 999, 2, 14, 117, 78, 163, 152, 127, 128, 1, 0.468123
279, 2, bw, filler, NA, 999, 999, 2, 15, 75, 149, 122, 195, 153, 79, 2, 1.3673
279, 2, bw, filler, NA, 999, 999, 2, 15, 75, 149, 122, 195, 153, 79, 1, 0.479535
279, 2, bw, attraction, a-b-da, 5, 1, 2, 16, 60, 135, 135, 60, 132, 58, 3, 3.31399
279, 2, bw, attraction, a-b-da, 5, 1, 2, 16, 60, 135, 135, 60, 132, 58, 1, 3.61159
279, 2, bw, attraction, a-b-db, 5, 1, 2, 17, 58, 132, 60, 135, 135, 60, 2, 1.75967
279, 2, bw, attraction, a-b-db, 5, 1, 2, 17, 58, 132, 60, 135, 135, 60, 1, 0.743783
279, 2, bw, attraction, a-b-db, 5, 2, 2, 18, 165, 90, 90, 165, 88, 161, 2, 3.12758
279, 2, bw, attraction, a-b-db, 5, 2, 2, 18, 165, 90, 90, 165, 88, 161, 3, 1.35245
279, 2, bw, attraction, a-b-db, 14, 3, 2, 19, 111, 181, 120, 195, 195, 120, 3, 8.45604
279, 2, bw, attraction, a-b-db, 14, 3, 2, 19, 111, 181, 120, 195, 195, 120, 1, 1.36994
279, 2, bw, attraction, a-b-db, 5, 3, 2, 20, 120, 195, 195, 120, 117, 190, 1, 3.16088
279, 2, bw, attraction, a-b-db, 5, 3, 2, 20, 120, 195, 195, 120, 117, 190, 3, 0.320495
279, 2, bw, filler, NA, 999, 999, 2, 21, 179, 140, 174, 144, 113, 114, 2, 2.93766
279, 2, bw, filler, NA, 999, 999, 2, 21, 179, 140, 174, 144, 113, 114, 3, 0.43423
279, 2, bw, attraction, a-b-da, 9, 1, 2, 22, 129, 57, 60, 135, 135, 60, 3, 2.20655
279, 2, bw, attraction, a-b-da, 9, 1, 2, 22, 129, 57, 60, 135, 135, 60, 2, 1.40449
279, 2, bw, attraction, a-b-da, 2, 3, 2, 23, 195, 120, 120, 195, 193, 119, 2, 4.52198
279, 2, bw, attraction, a-b-da, 2, 3, 2, 23, 195, 120, 120, 195, 193, 119, 3, 1.61861
279, 2, bw, filler, NA, 999, 999, 2, 24, 73, 134, 180, 62, 190, 76, 3, 2.20733
279, 2, bw, filler, NA, 999, 999, 2, 24, 73, 134, 180, 62, 190, 76, 1, 0.50941
279, 2, bw, attraction, a-b-db, 14, 2, 2, 25, 90, 165, 83, 153, 165, 90, 3, 5.35037
279, 2, bw, attraction, a-b-db, 14, 2, 2, 25, 90, 165, 83, 153, 165, 90, 2, 0.814014
279, 2, bw, attraction, a-b-db, 2, 3, 2, 26, 195, 120, 119, 193, 120, 195, 1, 14.5711
279, 2, bw, attraction, a-b-db, 2, 3, 2, 26, 195, 120, 119, 193, 120, 195, 2, 1.49519
279, 2, bw, attraction, a-b-db, 9, 1, 2, 27, 57, 129, 135, 60, 60, 135, 3, 1.76864
279, 2, bw, attraction, a-b-db, 9, 1, 2, 27, 57, 129, 135, 60, 60, 135, 2, 2.20863
279, 2, bw, attraction, a-b-da, 2, 1, 2, 28, 135, 60, 134, 59, 60, 135, 3, 5.13335
279, 2, bw, attraction, a-b-da, 2, 1, 2, 28, 135, 60, 134, 59, 60, 135, 2, 3.76579
279, 2, bw, filler, NA, 999, 999, 2, 29, 155, 84, 164, 59, 188, 108, 3, 1.61173
279, 2, bw, filler, NA, 999, 999, 2, 29, 155, 84, 164, 59, 188, 108, 2, 0.961879
279, 2, bw, attraction, a-b-da, 5, 2, 2, 30, 90, 165, 161, 88, 165, 90, 1, 4.97695
279, 2, bw, attraction, a-b-da, 5, 2, 2, 30, 90, 165, 161, 88, 165, 90, 2, 0.51127
279, 2, bw, attraction, a-b-da, 14, 3, 2, 31, 181, 111, 195, 120, 120, 195, 3, 4.92842
279, 2, bw, attraction, a-b-da, 14, 3, 2, 31, 181, 111, 195, 120, 120, 195, 1, 0.608805
279, 2, bw, catch, NA, 999, 999, 2, 32, 105, 150, 189, 126, 99, 96, 2, 0.997867
279, 2, bw, catch, NA, 999, 999, 2, 32, 105, 150, 189, 126, 99, 96, 3, 0.500895
279, 2, bw, attraction, a-b-db, 9, 3, 2, 33, 114, 186, 120, 195, 195, 120, 2, 3.16676
279, 2, bw, attraction, a-b-db, 9, 3, 2, 33, 114, 186, 120, 195, 195, 120, 3, 1.37433
279, 2, bw, filler, NA, 999, 999, 2, 34, 148, 150, 111, 191, 128, 183, 1, 12.0765
279, 2, bw, filler, NA, 999, 999, 2, 34, 148, 150, 111, 191, 128, 183, 3, 1.09268
279, 2, bw, attraction, a-b-db, 14, 1, 2, 35, 135, 60, 56, 125, 60, 135, 1, 1.45426
279, 2, bw, attraction, a-b-db, 14, 1, 2, 35, 135, 60, 56, 125, 60, 135, 2, 0.77063
279, 2, bw, attraction, a-b-da, 5, 3, 2, 36, 120, 195, 195, 120, 190, 117, 1, 1.85744
279, 2, bw, attraction, a-b-da, 5, 3, 2, 36, 120, 195, 195, 120, 190, 117, 3, 0.677604
279, 2, bw, filler, NA, 999, 999, 2, 37, 154, 88, 66, 166, 173, 118, 3, 1.32811
279, 2, bw, filler, NA, 999, 999, 2, 37, 154, 88, 66, 166, 173, 118, 1, 4.22557
279, 2, bw, attraction, a-b-db, 14, 3, 3, 1, 120, 195, 111, 181, 195, 120, 1, 3.69278
279, 2, bw, attraction, a-b-db, 14, 3, 3, 1, 120, 195, 111, 181, 195, 120, 2, 2.01502
279, 2, bw, attraction, a-b-db, 14, 1, 3, 2, 60, 135, 135, 60, 56, 125, 2, 10.4278
279, 2, bw, attraction, a-b-db, 14, 1, 3, 2, 60, 135, 135, 60, 56, 125, 3, 0.246402
279, 2, bw, attraction, a-b-db, 14, 2, 3, 3, 165, 90, 83, 153, 90, 165, 1, 4.3222
279, 2, bw, attraction, a-b-db, 14, 2, 3, 3, 165, 90, 83, 153, 90, 165, 2, 0.354815
279, 2, bw, filler, NA, 999, 999, 3, 4, 91, 161, 63, 158, 119, 150, 3, 1.4188
279, 2, bw, filler, NA, 999, 999, 3, 4, 91, 161, 63, 158, 119, 150, 2, 0.528863
279, 2, bw, attraction, a-b-db, 5, 1, 3, 5, 58, 132, 135, 60, 60, 135, 3, 2.61721
279, 2, bw, attraction, a-b-db, 5, 1, 3, 5, 58, 132, 135, 60, 60, 135, 1, 0.839116
279, 2, bw, attraction, a-b-db, 2, 1, 3, 6, 135, 60, 59, 134, 60, 135, 1, 4.03552
279, 2, bw, attraction, a-b-db, 2, 1, 3, 6, 135, 60, 59, 134, 60, 135, 2, 0.416231
279, 2, bw, attraction, a-b-da, 14, 3, 3, 7, 181, 111, 195, 120, 120, 195, 3, 3.30131
279, 2, bw, attraction, a-b-da, 14, 3, 3, 7, 181, 111, 195, 120, 120, 195, 1, 1.75158
279, 2, bw, attraction, a-b-da, 5, 3, 3, 8, 190, 117, 195, 120, 120, 195, 1, 5.56707
279, 2, bw, attraction, a-b-da, 5, 3, 3, 8, 190, 117, 195, 120, 120, 195, 3, 7.42191
279, 2, bw, filler, NA, 999, 999, 3, 9, 172, 80, 195, 79, 93, 157, 2, 3.81685
279, 2, bw, filler, NA, 999, 999, 3, 9, 172, 80, 195, 79, 93, 157, 1, 0.830291
279, 2, bw, attraction, a-b-da, 2, 2, 3, 10, 165, 90, 163, 89, 90, 165, 3, 2.71464
279, 2, bw, attraction, a-b-da, 2, 2, 3, 10, 165, 90, 163, 89, 90, 165, 2, 0.916419
279, 2, bw, catch, NA, 999, 999, 3, 11, 137, 178, 144, 111, 94, 101, 1, 1.14937
279, 2, bw, catch, NA, 999, 999, 3, 11, 137, 178, 144, 111, 94, 101, 3, 0.550351
279, 2, bw, attraction, a-b-da, 2, 3, 3, 12, 120, 195, 195, 120, 193, 119, 1, 4.59014
279, 2, bw, attraction, a-b-da, 2, 3, 3, 12, 120, 195, 195, 120, 193, 119, 2, 0.692028
279, 2, bw, attraction, a-b-db, 2, 3, 3, 13, 120, 195, 195, 120, 119, 193, 2, 4.52571
279, 2, bw, attraction, a-b-db, 2, 3, 3, 13, 120, 195, 195, 120, 119, 193, 1, 1.87036
279, 2, bw, attraction, a-b-da, 9, 2, 3, 14, 157, 86, 90, 165, 165, 90, 3, 7.32901
279, 2, bw, attraction, a-b-da, 9, 2, 3, 14, 157, 86, 90, 165, 165, 90, 1, 0.392712
279, 2, bw, filler, NA, 999, 999, 3, 15, 166, 57, 81, 156, 195, 113, 3, 2.9744
279, 2, bw, filler, NA, 999, 999, 3, 15, 166, 57, 81, 156, 195, 113, 1, 0.68556
279, 2, bw, attraction, a-b-da, 9, 3, 3, 16, 195, 120, 120, 195, 186, 114, 1, 1.82403
279, 2, bw, attraction, a-b-da, 9, 3, 3, 16, 195, 120, 120, 195, 186, 114, 3, 0.549332
279, 2, bw, attraction, a-b-db, 9, 2, 3, 17, 90, 165, 86, 157, 165, 90, 3, 2.93304
279, 2, bw, attraction, a-b-db, 9, 2, 3, 17, 90, 165, 86, 157, 165, 90, 2, 0.438279
279, 2, bw, attraction, a-b-da, 9, 1, 3, 18, 129, 57, 135, 60, 60, 135, 3, 3.66677
279, 2, bw, attraction, a-b-da, 9, 1, 3, 18, 129, 57, 135, 60, 60, 135, 1, 0.574207
279, 2, bw, attraction, a-b-da, 14, 2, 3, 19, 153, 83, 90, 165, 165, 90, 2, 2.90854
279, 2, bw, attraction, a-b-da, 14, 2, 3, 19, 153, 83, 90, 165, 165, 90, 1, 0.422268
279, 2, bw, filler, NA, 999, 999, 3, 20, 108, 122, 186, 87, 101, 123, 2, 8.58741
279, 2, bw, filler, NA, 999, 999, 3, 20, 108, 122, 186, 87, 101, 123, 3, 0.632763
279, 2, bw, attraction, a-b-db, 2, 2, 3, 21, 90, 165, 89, 163, 165, 90, 3, 4.5411
279, 2, bw, attraction, a-b-db, 2, 2, 3, 21, 90, 165, 89, 163, 165, 90, 2, 0.300989
279, 2, bw, attraction, a-b-db, 9, 3, 3, 22, 120, 195, 114, 186, 195, 120, 1, 1.76683
279, 2, bw, attraction, a-b-db, 9, 3, 3, 22, 120, 195, 114, 186, 195, 120, 2, 0.351072
279, 2, bw, attraction, a-b-da, 5, 1, 3, 23, 135, 60, 132, 58, 60, 135, 3, 2.56684
279, 2, bw, attraction, a-b-da, 5, 1, 3, 23, 135, 60, 132, 58, 60, 135, 2, 0.310563
279, 2, bw, filler, NA, 999, 999, 3, 24, 120, 181, 131, 106, 135, 156, 1, 1.79977
279, 2, bw, filler, NA, 999, 999, 3, 24, 120, 181, 131, 106, 135, 156, 2, 0.414531
279, 2, bw, filler, NA, 999, 999, 3, 25, 119, 77, 121, 107, 77, 190, 3, 3.72369
279, 2, bw, filler, NA, 999, 999, 3, 25, 119, 77, 121, 107, 77, 190, 1, 0.484495
279, 2, bw, catch, NA, 999, 999, 3, 26, 179, 136, 97, 158, 97, 98, 1, 2.65493
279, 2, bw, catch, NA, 999, 999, 3, 26, 179, 136, 97, 158, 97, 98, 3, 0.386791
279, 2, bw, attraction, a-b-db, 9, 1, 3, 27, 135, 60, 57, 129, 60, 135, 3, 2.92934
279, 2, bw, attraction, a-b-db, 9, 1, 3, 27, 135, 60, 57, 129, 60, 135, 2, 0.290289
279, 2, bw, attraction, a-b-da, 2, 1, 3, 28, 135, 60, 60, 135, 134, 59, 3, 2.02023
279, 2, bw, attraction, a-b-da, 2, 1, 3, 28, 135, 60, 60, 135, 134, 59, 1, 3.03358
279, 2, bw, filler, NA, 999, 999, 3, 29, 79, 89, 189, 90, 103, 157, 3, 2.10918
279, 2, bw, filler, NA, 999, 999, 3, 29, 79, 89, 189, 90, 103, 157, 1, 2.11916
279, 2, bw, attraction, a-b-da, 5, 2, 3, 30, 161, 88, 90, 165, 165, 90, 2, 3.73582
279, 2, bw, attraction, a-b-da, 5, 2, 3, 30, 161, 88, 90, 165, 165, 90, 1, 0.360669
279, 2, bw, catch, NA, 999, 999, 3, 31, 142, 173, 145, 110, 131, 64, 1, 1.67167
279, 2, bw, catch, NA, 999, 999, 3, 31, 142, 173, 145, 110, 131, 64, 3, 0.435221
279, 2, bw, filler, NA, 999, 999, 3, 32, 57, 134, 106, 135, 127, 130, 3, 1.29567
279, 2, bw, filler, NA, 999, 999, 3, 32, 57, 134, 106, 135, 127, 130, 1, 0.554542
279, 2, bw, filler, NA, 999, 999, 3, 33, 164, 122, 149, 91, 179, 189, 3, 1.21832
279, 2, bw, filler, NA, 999, 999, 3, 33, 164, 122, 149, 91, 179, 189, 2, 0.712743
279, 2, bw, attraction, a-b-db, 5, 3, 3, 34, 120, 195, 195, 120, 117, 190, 1, 5.64958
279, 2, bw, attraction, a-b-db, 5, 3, 3, 34, 120, 195, 195, 120, 117, 190, 3, 1.02922
279, 2, bw, filler, NA, 999, 999, 3, 35, 121, 128, 168, 144, 58, 148, 2, 1.09745
279, 2, bw, filler, NA, 999, 999, 3, 35, 121, 128, 168, 144, 58, 148, 3, 0.372408
279, 2, bw, attraction, a-b-da, 14, 1, 3, 36, 125, 56, 135, 60, 60, 135, 3, 1.46757
279, 2, bw, attraction, a-b-da, 14, 1, 3, 36, 125, 56, 135, 60, 60, 135, 1, 0.9518
279, 2, bw, attraction, a-b-db, 5, 2, 3, 37, 90, 165, 165, 90, 88, 161, 2, 11.7674
279, 2, bw, attraction, a-b-db, 5, 2, 3, 37, 90, 165, 165, 90, 88, 161, 3, 2.01228
279, 2, bw, filler, NA, 999, 999, 4, 1, 71, 71, 71, 82, 174, 129, 3, 2.51302
279, 2, bw, filler, NA, 999, 999, 4, 1, 71, 71, 71, 82, 174, 129, 1, 1.44283
279, 2, bw, attraction, a-b-db, 14, 3, 4, 2, 120, 195, 195, 120, 111, 181, 1, 5.59039
279, 2, bw, attraction, a-b-db, 14, 3, 4, 2, 120, 195, 195, 120, 111, 181, 3, 7.772
279, 2, bw, filler, NA, 999, 999, 4, 3, 160, 192, 165, 143, 115, 129, 1, 1.22478
279, 2, bw, filler, NA, 999, 999, 4, 3, 160, 192, 165, 143, 115, 129, 3, 0.774393
279, 2, bw, filler, NA, 999, 999, 4, 4, 57, 155, 125, 179, 181, 148, 3, 4.36488
279, 2, bw, filler, NA, 999, 999, 4, 4, 57, 155, 125, 179, 181, 148, 1, 0.756011
279, 2, bw, catch, NA, 999, 999, 4, 5, 135, 120, 126, 69, 187, 128, 3, 1.13916
279, 2, bw, catch, NA, 999, 999, 4, 5, 135, 120, 126, 69, 187, 128, 2, 0.499964
279, 2, bw, attraction, a-b-da, 2, 2, 4, 6, 163, 89, 165, 90, 90, 165, 3, 2.52565
279, 2, bw, attraction, a-b-da, 2, 2, 4, 6, 163, 89, 165, 90, 90, 165, 2, 0.878945
279, 2, bw, attraction, a-b-db, 9, 3, 4, 7, 120, 195, 195, 120, 114, 186, 2, 5.50529
279, 2, bw, attraction, a-b-db, 9, 3, 4, 7, 120, 195, 195, 120, 114, 186, 3, 0.370206
279, 2, bw, filler, NA, 999, 999, 4, 8, 93, 98, 103, 58, 107, 128, 3, 1.15336
279, 2, bw, filler, NA, 999, 999, 4, 8, 93, 98, 103, 58, 107, 128, 2, 0.378275
279, 2, bw, attraction, a-b-da, 2, 1, 4, 9, 134, 59, 60, 135, 135, 60, 3, 2.3369
279, 2, bw, attraction, a-b-da, 2, 1, 4, 9, 134, 59, 60, 135, 135, 60, 2, 0.498114
279, 2, bw, attraction, a-b-da, 9, 1, 4, 10, 60, 135, 135, 60, 129, 57, 1, 3.65976
279, 2, bw, attraction, a-b-da, 9, 1, 4, 10, 60, 135, 135, 60, 129, 57, 3, 0.799277
279, 2, bw, attraction, a-b-db, 5, 2, 4, 11, 165, 90, 88, 161, 90, 165, 1, 4.78101
279, 2, bw, attraction, a-b-db, 5, 2, 4, 11, 165, 90, 88, 161, 90, 165, 3, 0.491528
279, 2, bw, attraction, a-b-db, 14, 2, 4, 12, 90, 165, 165, 90, 83, 153, 2, 5.69328
279, 2, bw, attraction, a-b-db, 14, 2, 4, 12, 90, 165, 165, 90, 83, 153, 3, 0.534826
279, 2, bw, filler, NA, 999, 999, 4, 13, 177, 124, 151, 71, 81, 60, 1, 0.767276
279, 2, bw, filler, NA, 999, 999, 4, 13, 177, 124, 151, 71, 81, 60, 3, 0.823665
279, 2, bw, attraction, a-b-db, 2, 1, 4, 14, 135, 60, 59, 134, 60, 135, 2, 3.09199
279, 2, bw, attraction, a-b-db, 2, 1, 4, 14, 135, 60, 59, 134, 60, 135, 1, 0.614336
279, 2, bw, attraction, a-b-db, 5, 1, 4, 15, 58, 132, 60, 135, 135, 60, 3, 1.43541
279, 2, bw, attraction, a-b-db, 5, 1, 4, 15, 58, 132, 60, 135, 135, 60, 2, 0.472995
279, 2, bw, filler, NA, 999, 999, 4, 16, 94, 128, 95, 171, 186, 161, 3, 0.683368
279, 2, bw, filler, NA, 999, 999, 4, 16, 94, 128, 95, 171, 186, 161, 1, 0.511161
279, 2, bw, attraction, a-b-da, 5, 3, 4, 17, 195, 120, 190, 117, 120, 195, 3, 2.66431
279, 2, bw, attraction, a-b-da, 5, 3, 4, 17, 195, 120, 190, 117, 120, 195, 2, 0.396119
279, 2, bw, attraction, a-b-da, 14, 1, 4, 18, 60, 135, 135, 60, 125, 56, 2, 1.59389
279, 2, bw, attraction, a-b-da, 14, 1, 4, 18, 60, 135, 135, 60, 125, 56, 3, 0.632703
279, 2, bw, filler, NA, 999, 999, 4, 19, 73, 111, 154, 114, 167, 152, 3, 3.10918
279, 2, bw, filler, NA, 999, 999, 4, 19, 73, 111, 154, 114, 167, 152, 1, 1.94282
279, 2, bw, filler, NA, 999, 999, 4, 20, 183, 87, 125, 145, 70, 94, 2, 7.58213
279, 2, bw, filler, NA, 999, 999, 4, 20, 183, 87, 125, 145, 70, 94, 3, 0.763719
279, 2, bw, attraction, a-b-da, 14, 3, 4, 21, 195, 120, 181, 111, 120, 195, 3, 1.68279
279, 2, bw, attraction, a-b-da, 14, 3, 4, 21, 195, 120, 181, 111, 120, 195, 2, 0.462317
279, 2, bw, attraction, a-b-db, 9, 2, 4, 22, 86, 157, 90, 165, 165, 90, 3, 1.46532
279, 2, bw, attraction, a-b-db, 9, 2, 4, 22, 86, 157, 90, 165, 165, 90, 2, 0.317435
279, 2, bw, attraction, a-b-db, 9, 1, 4, 23, 57, 129, 135, 60, 60, 135, 3, 2.63872
279, 2, bw, attraction, a-b-db, 9, 1, 4, 23, 57, 129, 135, 60, 60, 135, 1, 0.299179
279, 2, bw, attraction, a-b-db, 2, 3, 4, 24, 195, 120, 120, 195, 119, 193, 1, 4.58109
279, 2, bw, attraction, a-b-db, 2, 3, 4, 24, 195, 120, 120, 195, 119, 193, 3, 0.491522
279, 2, bw, attraction, a-b-da, 5, 1, 4, 25, 135, 60, 132, 58, 60, 135, 3, 1.14934
279, 2, bw, attraction, a-b-da, 5, 1, 4, 25, 135, 60, 132, 58, 60, 135, 1, 0.414279
279, 2, bw, catch, NA, 999, 999, 4, 26, 151, 164, 123, 72, 139, 116, 1, 0.763389
279, 2, bw, catch, NA, 999, 999, 4, 26, 151, 164, 123, 72, 139, 116, 2, 0.33983
279, 2, bw, attraction, a-b-db, 5, 3, 4, 27, 117, 190, 195, 120, 120, 195, 3, 3.54771
279, 2, bw, attraction, a-b-db, 5, 3, 4, 27, 117, 190, 195, 120, 120, 195, 2, 0.667919
279, 2, bw, filler, NA, 999, 999, 4, 28, 116, 68, 65, 144, 168, 86, 3, 1.31096
279, 2, bw, filler, NA, 999, 999, 4, 28, 116, 68, 65, 144, 168, 86, 1, 0.513147
279, 2, bw, attraction, a-b-da, 9, 2, 4, 29, 157, 86, 165, 90, 90, 165, 3, 2.01031
279, 2, bw, attraction, a-b-da, 9, 2, 4, 29, 157, 86, 165, 90, 90, 165, 1, 0.5843
279, 2, bw, attraction, a-b-db, 2, 2, 4, 30, 89, 163, 90, 165, 165, 90, 1, 2.71869
279, 2, bw, attraction, a-b-db, 2, 2, 4, 30, 89, 163, 90, 165, 165, 90, 3, 0.376577
279, 2, bw, attraction, a-b-da, 9, 3, 4, 31, 120, 195, 186, 114, 195, 120, 1, 1.21498
279, 2, bw, attraction, a-b-da, 9, 3, 4, 31, 120, 195, 186, 114, 195, 120, 2, 0.613292
279, 2, bw, attraction, a-b-da, 5, 2, 4, 32, 90, 165, 161, 88, 165, 90, 1, 2.89027
279, 2, bw, attraction, a-b-da, 5, 2, 4, 32, 90, 165, 161, 88, 165, 90, 2, 0.564743
279, 2, bw, attraction, a-b-da, 2, 3, 4, 33, 195, 120, 193, 119, 120, 195, 3, 2.82789
279, 2, bw, attraction, a-b-da, 2, 3, 4, 33, 195, 120, 193, 119, 120, 195, 2, 1.12097
279, 2, bw, catch, NA, 999, 999, 4, 34, 129, 66, 158, 157, 110, 145, 2, 1.16187
279, 2, bw, catch, NA, 999, 999, 4, 34, 129, 66, 158, 157, 110, 145, 1, 0.490097
279, 2, bw, attraction, a-b-db, 14, 1, 4, 35, 135, 60, 60, 135, 56, 125, 2, 2.58792
279, 2, bw, attraction, a-b-db, 14, 1, 4, 35, 135, 60, 60, 135, 56, 125, 3, 0.746432
279, 2, bw, attraction, a-b-da, 14, 2, 4, 36, 165, 90, 153, 83, 90, 165, 3, 2.46624
279, 2, bw, attraction, a-b-da, 14, 2, 4, 36, 165, 90, 153, 83, 90, 165, 2, 1.87016
279, 2, bw, filler, NA, 999, 999, 4, 37, 170, 120, 102, 154, 103, 167, 1, 2.44875
279, 2, bw, filler, NA, 999, 999, 4, 37, 170, 120, 102, 154, 103, 167, 2, 0.269296
279, 2, bw, filler, NA, 999, 999, 5, 1, 171, 110, 107, 107, 141, 144, 3, 13.5431
279, 2, bw, filler, NA, 999, 999, 5, 1, 171, 110, 107, 107, 141, 144, 2, 0.42813
279, 2, bw, filler, NA, 999, 999, 5, 2, 157, 116, 78, 99, 178, 142, 3, 1.05658
279, 2, bw, filler, NA, 999, 999, 5, 2, 157, 116, 78, 99, 178, 142, 2, 0.740896
279, 2, bw, attraction, a-b-db, 14, 1, 5, 3, 56, 125, 135, 60, 60, 135, 3, 1.69263
279, 2, bw, attraction, a-b-db, 14, 1, 5, 3, 56, 125, 135, 60, 60, 135, 1, 1.63143
279, 2, bw, catch, NA, 999, 999, 5, 4, 106, 149, 177, 138, 68, 127, 2, 1.0515
279, 2, bw, catch, NA, 999, 999, 5, 4, 106, 149, 177, 138, 68, 127, 3, 0.448546
279, 2, bw, filler, NA, 999, 999, 5, 5, 115, 167, 113, 149, 94, 145, 1, 1.70023
279, 2, bw, filler, NA, 999, 999, 5, 5, 115, 167, 113, 149, 94, 145, 3, 0.399104
279, 2, bw, attraction, a-b-db, 9, 1, 5, 6, 60, 135, 135, 60, 57, 129, 1, 7.04486
279, 2, bw, attraction, a-b-db, 9, 1, 5, 6, 60, 135, 135, 60, 57, 129, 3, 0.919991
279, 2, bw, filler, NA, 999, 999, 5, 7, 71, 128, 57, 192, 84, 124, 3, 8.33701
279, 2, bw, filler, NA, 999, 999, 5, 7, 71, 128, 57, 192, 84, 124, 1, 0.58438
279, 2, bw, catch, NA, 999, 999, 5, 8, 86, 109, 135, 120, 132, 183, 3, 0.814708
279, 2, bw, catch, NA, 999, 999, 5, 8, 86, 109, 135, 120, 132, 183, 1, 0.637253
279, 2, bw, attraction, a-b-db, 5, 1, 5, 9, 58, 132, 60, 135, 135, 60, 3, 1.51363
279, 2, bw, attraction, a-b-db, 5, 1, 5, 9, 58, 132, 60, 135, 135, 60, 1, 0.411702
279, 2, bw, filler, NA, 999, 999, 5, 10, 89, 120, 194, 157, 133, 123, 2, 1.38489
279, 2, bw, filler, NA, 999, 999, 5, 10, 89, 120, 194, 157, 133, 123, 1, 0.632397
279, 2, bw, attraction, a-b-db, 5, 3, 5, 11, 120, 195, 117, 190, 195, 120, 2, 4.4128
279, 2, bw, attraction, a-b-db, 5, 3, 5, 11, 120, 195, 117, 190, 195, 120, 1, 0.282148
279, 2, bw, attraction, a-b-da, 5, 1, 5, 12, 132, 58, 135, 60, 60, 135, 3, 1.77264
279, 2, bw, attraction, a-b-da, 5, 1, 5, 12, 132, 58, 135, 60, 60, 135, 1, 0.684071
279, 2, bw, attraction, a-b-db, 2, 2, 5, 13, 89, 163, 90, 165, 165, 90, 1, 1.36645
279, 2, bw, attraction, a-b-db, 2, 2, 5, 13, 89, 163, 90, 165, 165, 90, 3, 0.670653
279, 2, bw, filler, NA, 999, 999, 5, 14, 64, 173, 171, 100, 87, 140, 2, 1.09772
279, 2, bw, filler, NA, 999, 999, 5, 14, 64, 173, 171, 100, 87, 140, 1, 0.684625
279, 2, bw, filler, NA, 999, 999, 5, 15, 118, 138, 127, 150, 63, 88, 2, 1.335
279, 2, bw, filler, NA, 999, 999, 5, 15, 118, 138, 127, 150, 63, 88, 3, 0.424805
279, 2, bw, attraction, a-b-da, 2, 3, 5, 16, 120, 195, 193, 119, 195, 120, 1, 1.6691
279, 2, bw, attraction, a-b-da, 2, 3, 5, 16, 120, 195, 193, 119, 195, 120, 3, 0.713228
279, 2, bw, attraction, a-b-da, 5, 2, 5, 17, 90, 165, 161, 88, 165, 90, 1, 2.14629
279, 2, bw, attraction, a-b-da, 5, 2, 5, 17, 90, 165, 161, 88, 165, 90, 2, 0.250859
279, 2, bw, attraction, a-b-db, 2, 3, 5, 18, 195, 120, 120, 195, 119, 193, 2, 2.27082
279, 2, bw, attraction, a-b-db, 2, 3, 5, 18, 195, 120, 120, 195, 119, 193, 1, 1.4101
279, 2, bw, attraction, a-b-db, 9, 2, 5, 19, 90, 165, 86, 157, 165, 90, 3, 9.63088
279, 2, bw, attraction, a-b-db, 9, 2, 5, 19, 90, 165, 86, 157, 165, 90, 2, 0.489829
279, 2, bw, attraction, a-b-da, 14, 3, 5, 20, 195, 120, 181, 111, 120, 195, 3, 1.92359
279, 2, bw, attraction, a-b-da, 14, 3, 5, 20, 195, 120, 181, 111, 120, 195, 2, 0.349087
279, 2, bw, attraction, a-b-da, 2, 2, 5, 21, 165, 90, 90, 165, 163, 89, 3, 1.2608
279, 2, bw, attraction, a-b-da, 2, 2, 5, 21, 165, 90, 90, 165, 163, 89, 1, 0.52905
279, 2, bw, attraction, a-b-da, 14, 2, 5, 22, 153, 83, 165, 90, 90, 165, 3, 2.84157
279, 2, bw, attraction, a-b-da, 14, 2, 5, 22, 153, 83, 165, 90, 90, 165, 1, 1.12593
279, 2, bw, attraction, a-b-db, 9, 3, 5, 23, 120, 195, 195, 120, 114, 186, 2, 3.71019
279, 2, bw, attraction, a-b-db, 9, 3, 5, 23, 120, 195, 195, 120, 114, 186, 3, 0.382495
279, 2, bw, attraction, a-b-da, 14, 1, 5, 24, 60, 135, 125, 56, 135, 60, 3, 1.67811
279, 2, bw, attraction, a-b-da, 14, 1, 5, 24, 60, 135, 125, 56, 135, 60, 2, 0.753607
279, 2, bw, attraction, a-b-da, 9, 2, 5, 25, 165, 90, 90, 165, 157, 86, 2, 6.45728
279, 2, bw, attraction, a-b-da, 9, 2, 5, 25, 165, 90, 90, 165, 157, 86, 3, 1.22004
279, 2, bw, filler, NA, 999, 999, 5, 26, 162, 95, 58, 89, 165, 146, 3, 1.02482
279, 2, bw, filler, NA, 999, 999, 5, 26, 162, 95, 58, 89, 165, 146, 2, 0.502458
279, 2, bw, filler, NA, 999, 999, 5, 27, 83, 157, 82, 189, 84, 122, 2, 0.712182
279, 2, bw, filler, NA, 999, 999, 5, 27, 83, 157, 82, 189, 84, 122, 3, 0.330639
279, 2, bw, attraction, a-b-db, 14, 3, 5, 28, 111, 181, 120, 195, 195, 120, 3, 1.9552
279, 2, bw, attraction, a-b-db, 14, 3, 5, 28, 111, 181, 120, 195, 195, 120, 1, 0.555299
279, 2, bw, attraction, a-b-da, 9, 1, 5, 29, 135, 60, 129, 57, 60, 135, 1, 1.69899
279, 2, bw, attraction, a-b-da, 9, 1, 5, 29, 135, 60, 129, 57, 60, 135, 2, 0.349715
279, 2, bw, attraction, a-b-da, 9, 3, 5, 30, 195, 120, 120, 195, 186, 114, 1, 5.23756
279, 2, bw, attraction, a-b-da, 9, 3, 5, 30, 195, 120, 120, 195, 186, 114, 3, 0.233928
279, 2, bw, attraction, a-b-db, 2, 1, 5, 31, 60, 135, 135, 60, 59, 134, 2, 3.05448
279, 2, bw, attraction, a-b-db, 2, 1, 5, 31, 60, 135, 135, 60, 59, 134, 3, 0.242717
279, 2, bw, catch, NA, 999, 999, 5, 32, 120, 135, 61, 134, 170, 145, 3, 0.958678
279, 2, bw, catch, NA, 999, 999, 5, 32, 120, 135, 61, 134, 170, 145, 2, 0.318996
279, 2, bw, attraction, a-b-da, 2, 1, 5, 33, 135, 60, 134, 59, 60, 135, 3, 1.57046
279, 2, bw, attraction, a-b-da, 2, 1, 5, 33, 135, 60, 134, 59, 60, 135, 2, 0.431712
279, 2, bw, attraction, a-b-da, 5, 3, 5, 34, 195, 120, 120, 195, 190, 117, 2, 4.14009
279, 2, bw, attraction, a-b-da, 5, 3, 5, 34, 195, 120, 120, 195, 190, 117, 3, 0.396299
279, 2, bw, filler, NA, 999, 999, 5, 35, 117, 98, 122, 189, 79, 183, 2, 1.37796
279, 2, bw, filler, NA, 999, 999, 5, 35, 117, 98, 122, 189, 79, 183, 1, 0.841402
279, 2, bw, attraction, a-b-db, 14, 2, 5, 36, 90, 165, 165, 90, 83, 153, 2, 2.57322
279, 2, bw, attraction, a-b-db, 14, 2, 5, 36, 90, 165, 165, 90, 83, 153, 3, 0.50035
279, 2, bw, attraction, a-b-db, 5, 2, 5, 37, 90, 165, 88, 161, 165, 90, 3, 1.17429
279, 2, bw, attraction, a-b-db, 5, 2, 5, 37, 90, 165, 88, 161, 165, 90, 2, 0.845856
279, 2, bw, attraction, a-b-da, 14, 2, 6, 1, 90, 165, 165, 90, 153, 83, 2, 1.42541
279, 2, bw, attraction, a-b-da, 14, 2, 6, 1, 90, 165, 165, 90, 153, 83, 3, 0.390956
279, 2, bw, filler, NA, 999, 999, 6, 2, 95, 87, 87, 91, 94, 158, 3, 0.972785
279, 2, bw, filler, NA, 999, 999, 6, 2, 95, 87, 87, 91, 94, 158, 2, 0.364425
279, 2, bw, attraction, a-b-db, 9, 3, 6, 3, 195, 120, 120, 195, 114, 186, 1, 8.22771
279, 2, bw, attraction, a-b-db, 9, 3, 6, 3, 195, 120, 120, 195, 114, 186, 3, 0.86302
279, 2, bw, attraction, a-b-db, 14, 2, 6, 4, 83, 153, 165, 90, 90, 165, 3, 1.56996
279, 2, bw, attraction, a-b-db, 14, 2, 6, 4, 83, 153, 165, 90, 90, 165, 2, 0.322134
279, 2, bw, attraction, a-b-da, 9, 2, 6, 5, 165, 90, 90, 165, 157, 86, 2, 1.28338
279, 2, bw, attraction, a-b-da, 9, 2, 6, 5, 165, 90, 90, 165, 157, 86, 1, 0.654882
279, 2, bw, attraction, a-b-db, 9, 2, 6, 6, 165, 90, 86, 157, 90, 165, 3, 1.36264
279, 2, bw, attraction, a-b-db, 9, 2, 6, 6, 165, 90, 86, 157, 90, 165, 2, 0.330969
279, 2, bw, attraction, a-b-da, 9, 1, 6, 7, 129, 57, 135, 60, 60, 135, 3, 2.17941
279, 2, bw, attraction, a-b-da, 9, 1, 6, 7, 129, 57, 135, 60, 60, 135, 2, 1.06666
279, 2, bw, attraction, a-b-da, 14, 3, 6, 8, 195, 120, 120, 195, 181, 111, 1, 1.76561
279, 2, bw, attraction, a-b-da, 14, 3, 6, 8, 195, 120, 120, 195, 181, 111, 3, 0.357664
279, 2, bw, catch, NA, 999, 999, 6, 9, 109, 146, 122, 73, 168, 147, 3, 0.932809
279, 2, bw, catch, NA, 999, 999, 6, 9, 109, 146, 122, 73, 168, 147, 2, 0.35054
279, 2, bw, attraction, a-b-da, 2, 1, 6, 10, 60, 135, 134, 59, 135, 60, 2, 1.76636
279, 2, bw, attraction, a-b-da, 2, 1, 6, 10, 60, 135, 134, 59, 135, 60, 1, 1.97444
279, 2, bw, catch, NA, 999, 999, 6, 11, 194, 121, 85, 110, 116, 139, 1, 1.02838
279, 2, bw, catch, NA, 999, 999, 6, 11, 194, 121, 85, 110, 116, 139, 2, 0.706101
279, 2, bw, attraction, a-b-da, 5, 3, 6, 12, 120, 195, 195, 120, 190, 117, 1, 3.68302
279, 2, bw, attraction, a-b-da, 5, 3, 6, 12, 120, 195, 195, 120, 190, 117, 3, 0.318014
279, 2, bw, attraction, a-b-db, 5, 2, 6, 13, 90, 165, 88, 161, 165, 90, 1, 2.3192
279, 2, bw, attraction, a-b-db, 5, 2, 6, 13, 90, 165, 88, 161, 165, 90, 3, 0.489049
279, 2, bw, filler, NA, 999, 999, 6, 14, 165, 128, 147, 90, 104, 124, 1, 1.4195
279, 2, bw, filler, NA, 999, 999, 6, 14, 165, 128, 147, 90, 104, 124, 3, 0.865806
279, 2, bw, attraction, a-b-da, 5, 1, 6, 15, 132, 58, 135, 60, 60, 135, 3, 2.69272
279, 2, bw, attraction, a-b-da, 5, 1, 6, 15, 132, 58, 135, 60, 60, 135, 1, 0.311177
279, 2, bw, attraction, a-b-db, 5, 3, 6, 16, 195, 120, 120, 195, 117, 190, 1, 9.21634
279, 2, bw, attraction, a-b-db, 5, 3, 6, 16, 195, 120, 120, 195, 117, 190, 2, 0.324099
279, 2, bw, catch, NA, 999, 999, 6, 17, 121, 74, 112, 143, 165, 150, 3, 1.13264
279, 2, bw, catch, NA, 999, 999, 6, 17, 121, 74, 112, 143, 165, 150, 1, 0.494385
279, 2, bw, filler, NA, 999, 999, 6, 18, 135, 74, 122, 117, 193, 77, 2, 9.14402
279, 2, bw, filler, NA, 999, 999, 6, 18, 135, 74, 122, 117, 193, 77, 1, 0.518504
279, 2, bw, attraction, a-b-da, 2, 2, 6, 19, 90, 165, 163, 89, 165, 90, 2, 3.15954
279, 2, bw, attraction, a-b-da, 2, 2, 6, 19, 90, 165, 163, 89, 165, 90, 3, 0.207207
279, 2, bw, filler, NA, 999, 999, 6, 20, 195, 161, 194, 64, 59, 181, 1, 0.948471
279, 2, bw, filler, NA, 999, 999, 6, 20, 195, 161, 194, 64, 59, 181, 3, 0.349459
279, 2, bw, attraction, a-b-db, 14, 1, 6, 21, 60, 135, 56, 125, 135, 60, 3, 1.40535
279, 2, bw, attraction, a-b-db, 14, 1, 6, 21, 60, 135, 56, 125, 135, 60, 2, 0.315525
279, 2, bw, attraction, a-b-db, 2, 1, 6, 22, 135, 60, 59, 134, 60, 135, 2, 1.59668
279, 2, bw, attraction, a-b-db, 2, 1, 6, 22, 135, 60, 59, 134, 60, 135, 3, 0.715516
279, 2, bw, attraction, a-b-db, 2, 2, 6, 23, 89, 163, 165, 90, 90, 165, 3, 2.18055
279, 2, bw, attraction, a-b-db, 2, 2, 6, 23, 89, 163, 165, 90, 90, 165, 2, 0.499838
279, 2, bw, attraction, a-b-db, 14, 3, 6, 24, 120, 195, 195, 120, 111, 181, 1, 2.32551
279, 2, bw, attraction, a-b-db, 14, 3, 6, 24, 120, 195, 195, 120, 111, 181, 2, 0.182873
279, 2, bw, filler, NA, 999, 999, 6, 25, 91, 84, 149, 78, 144, 180, 3, 0.837391
279, 2, bw, filler, NA, 999, 999, 6, 25, 91, 84, 149, 78, 144, 180, 1, 0.506406
279, 2, bw, filler, NA, 999, 999, 6, 26, 163, 58, 122, 100, 69, 131, 2, 5.41957
279, 2, bw, filler, NA, 999, 999, 6, 26, 163, 58, 122, 100, 69, 131, 3, 0.464522
279, 2, bw, attraction, a-b-da, 5, 2, 6, 27, 165, 90, 90, 165, 161, 88, 2, 2.01966
279, 2, bw, attraction, a-b-da, 5, 2, 6, 27, 165, 90, 90, 165, 161, 88, 3, 0.553627
279, 2, bw, attraction, a-b-da, 2, 3, 6, 28, 195, 120, 193, 119, 120, 195, 1, 1.24141
279, 2, bw, attraction, a-b-da, 2, 3, 6, 28, 195, 120, 193, 119, 120, 195, 3, 0.422367
279, 2, bw, filler, NA, 999, 999, 6, 29, 135, 180, 84, 180, 112, 75, 1, 0.691509
279, 2, bw, filler, NA, 999, 999, 6, 29, 135, 180, 84, 180, 112, 75, 3, 0.310553
279, 2, bw, filler, NA, 999, 999, 6, 30, 78, 133, 168, 183, 102, 155, 2, 1.65582
279, 2, bw, filler, NA, 999, 999, 6, 30, 78, 133, 168, 183, 102, 155, 1, 0.411928
279, 2, bw, filler, NA, 999, 999, 6, 31, 159, 132, 126, 128, 76, 86, 1, 1.0491
279, 2, bw, filler, NA, 999, 999, 6, 31, 159, 132, 126, 128, 76, 86, 3, 0.398118
279, 2, bw, attraction, a-b-da, 9, 3, 6, 32, 186, 114, 195, 120, 120, 195, 3, 1.1879
279, 2, bw, attraction, a-b-da, 9, 3, 6, 32, 186, 114, 195, 120, 120, 195, 2, 0.346781
279, 2, bw, attraction, a-b-db, 9, 1, 6, 33, 60, 135, 135, 60, 57, 129, 2, 2.39453
279, 2, bw, attraction, a-b-db, 9, 1, 6, 33, 60, 135, 135, 60, 57, 129, 3, 0.617134
279, 2, bw, filler, NA, 999, 999, 6, 34, 123, 63, 172, 114, 103, 175, 2, 1.67824
279, 2, bw, filler, NA, 999, 999, 6, 34, 123, 63, 172, 114, 103, 175, 1, 0.433652
279, 2, bw, attraction, a-b-db, 5, 1, 6, 35, 60, 135, 135, 60, 58, 132, 2, 2.0861
279, 2, bw, attraction, a-b-db, 5, 1, 6, 35, 60, 135, 135, 60, 58, 132, 1, 0.641476
279, 2, bw, attraction, a-b-da, 14, 1, 6, 36, 135, 60, 125, 56, 60, 135, 1, 1.58124
279, 2, bw, attraction, a-b-da, 14, 1, 6, 36, 135, 60, 125, 56, 60, 135, 2, 1.42068
279, 2, bw, attraction, a-b-db, 2, 3, 6, 37, 195, 120, 119, 193, 120, 195, 2, 2.68953
279, 2, bw, attraction, a-b-db, 2, 3, 6, 37, 195, 120, 119, 193, 120, 195, 3, 0.228013
279, 2, bw, attraction, a-b-db, 2, 1, 7, 1, 135, 60, 60, 135, 59, 134, 1, 2.91254
279, 2, bw, attraction, a-b-db, 2, 1, 7, 1, 135, 60, 60, 135, 59, 134, 3, 0.618312
279, 2, bw, attraction, a-b-db, 5, 1, 7, 2, 60, 135, 58, 132, 135, 60, 3, 1.23938
279, 2, bw, attraction, a-b-db, 5, 1, 7, 2, 60, 135, 58, 132, 135, 60, 1, 0.324226
279, 2, bw, attraction, a-b-db, 14, 3, 7, 3, 195, 120, 120, 195, 111, 181, 1, 1.29268
279, 2, bw, attraction, a-b-db, 14, 3, 7, 3, 195, 120, 120, 195, 111, 181, 3, 0.255682
279, 2, bw, attraction, a-b-da, 9, 1, 7, 4, 60, 135, 135, 60, 129, 57, 3, 7.52359
279, 2, bw, attraction, a-b-da, 9, 1, 7, 4, 60, 135, 135, 60, 129, 57, 2, 1.17916
279, 2, bw, attraction, a-b-db, 5, 2, 7, 5, 165, 90, 90, 165, 88, 161, 1, 2.28136
279, 2, bw, attraction, a-b-db, 5, 2, 7, 5, 165, 90, 90, 165, 88, 161, 3, 0.30862
279, 2, bw, attraction, a-b-db, 9, 2, 7, 6, 90, 165, 86, 157, 165, 90, 1, 1.23782
279, 2, bw, attraction, a-b-db, 9, 2, 7, 6, 90, 165, 86, 157, 165, 90, 2, 0.234662
279, 2, bw, filler, NA, 999, 999, 7, 7, 97, 120, 140, 168, 188, 135, 2, 7.72724
279, 2, bw, filler, NA, 999, 999, 7, 7, 97, 120, 140, 168, 188, 135, 1, 0.63094
279, 2, bw, attraction, a-b-db, 2, 2, 7, 8, 165, 90, 89, 163, 90, 165, 1, 1.93926
279, 2, bw, attraction, a-b-db, 2, 2, 7, 8, 165, 90, 89, 163, 90, 165, 2, 0.827919
279, 2, bw, filler, NA, 999, 999, 7, 9, 75, 120, 168, 66, 60, 144, 2, 0.784291
279, 2, bw, filler, NA, 999, 999, 7, 9, 75, 120, 168, 66, 60, 144, 1, 1.09602
279, 2, bw, catch, NA, 999, 999, 7, 10, 190, 125, 88, 107, 159, 96, 1, 0.929599
279, 2, bw, catch, NA, 999, 999, 7, 10, 190, 125, 88, 107, 159, 96, 2, 0.411297
279, 2, bw, filler, NA, 999, 999, 7, 11, 56, 191, 189, 74, 119, 103, 2, 6.95244
279, 2, bw, filler, NA, 999, 999, 7, 11, 56, 191, 189, 74, 119, 103, 1, 0.383559
279, 2, bw, attraction, a-b-da, 14, 1, 7, 12, 60, 135, 125, 56, 135, 60, 1, 1.50201
279, 2, bw, attraction, a-b-da, 14, 1, 7, 12, 60, 135, 125, 56, 135, 60, 2, 0.248872
279, 2, bw, attraction, a-b-db, 14, 2, 7, 13, 83, 153, 165, 90, 90, 165, 3, 0.964804
279, 2, bw, attraction, a-b-db, 14, 2, 7, 13, 83, 153, 165, 90, 90, 165, 1, 0.517149
279, 2, bw, attraction, a-b-db, 9, 3, 7, 14, 114, 186, 195, 120, 120, 195, 3, 2.99028
279, 2, bw, attraction, a-b-db, 9, 3, 7, 14, 114, 186, 195, 120, 120, 195, 1, 0.236725
279, 2, bw, attraction, a-b-da, 2, 1, 7, 15, 60, 135, 135, 60, 134, 59, 1, 2.91312
279, 2, bw, attraction, a-b-da, 2, 1, 7, 15, 60, 135, 135, 60, 134, 59, 2, 0.274827
279, 2, bw, attraction, a-b-da, 5, 3, 7, 16, 190, 117, 120, 195, 195, 120, 1, 1.58939
279, 2, bw, attraction, a-b-da, 5, 3, 7, 16, 190, 117, 120, 195, 195, 120, 3, 1.26823
279, 2, bw, filler, NA, 999, 999, 7, 17, 81, 81, 92, 97, 81, 82, 2, 0.927067
279, 2, bw, filler, NA, 999, 999, 7, 17, 81, 81, 92, 97, 81, 82, 1, 1.00876
279, 2, bw, attraction, a-b-da, 5, 1, 7, 18, 60, 135, 135, 60, 132, 58, 1, 1.50169
279, 2, bw, attraction, a-b-da, 5, 1, 7, 18, 60, 135, 135, 60, 132, 58, 2, 0.976522
279, 2, bw, filler, NA, 999, 999, 7, 19, 131, 84, 150, 84, 94, 178, 3, 1.91886
279, 2, bw, filler, NA, 999, 999, 7, 19, 131, 84, 150, 84, 94, 178, 1, 0.408893
279, 2, bw, catch, NA, 999, 999, 7, 20, 162, 153, 95, 160, 61, 134, 1, 0.830154
279, 2, bw, catch, NA, 999, 999, 7, 20, 162, 153, 95, 160, 61, 134, 3, 0.411795
279, 2, bw, catch, NA, 999, 999, 7, 21, 72, 123, 145, 170, 163, 92, 2, 0.992835
279, 2, bw, catch, NA, 999, 999, 7, 21, 72, 123, 145, 170, 163, 92, 1, 0.311994
279, 2, bw, attraction, a-b-db, 14, 1, 7, 22, 56, 125, 60, 135, 135, 60, 3, 1.57723
279, 2, bw, attraction, a-b-db, 14, 1, 7, 22, 56, 125, 60, 135, 135, 60, 1, 0.544569
279, 2, bw, attraction, a-b-da, 9, 3, 7, 23, 186, 114, 195, 120, 120, 195, 3, 1.30435
279, 2, bw, attraction, a-b-da, 9, 3, 7, 23, 186, 114, 195, 120, 120, 195, 2, 0.410658
279, 2, bw, filler, NA, 999, 999, 7, 24, 177, 142, 120, 114, 91, 143, 1, 1.26373
279, 2, bw, filler, NA, 999, 999, 7, 24, 177, 142, 120, 114, 91, 143, 3, 0.331991
279, 2, bw, attraction, a-b-da, 2, 3, 7, 25, 195, 120, 193, 119, 120, 195, 3, 1.38048
279, 2, bw, attraction, a-b-da, 2, 3, 7, 25, 195, 120, 193, 119, 120, 195, 2, 0.379877
279, 2, bw, attraction, a-b-da, 5, 2, 7, 26, 90, 165, 161, 88, 165, 90, 1, 2.78647
279, 2, bw, attraction, a-b-da, 5, 2, 7, 26, 90, 165, 161, 88, 165, 90, 2, 0.217554
279, 2, bw, attraction, a-b-da, 9, 2, 7, 27, 90, 165, 157, 86, 165, 90, 1, 1.43877
279, 2, bw, attraction, a-b-da, 9, 2, 7, 27, 90, 165, 157, 86, 165, 90, 2, 0.259643
279, 2, bw, attraction, a-b-da, 14, 2, 7, 28, 165, 90, 90, 165, 153, 83, 2, 1.39079
279, 2, bw, attraction, a-b-da, 14, 2, 7, 28, 165, 90, 90, 165, 153, 83, 3, 0.253667
279, 2, bw, filler, NA, 999, 999, 7, 29, 142, 87, 81, 116, 76, 64, 1, 1.24152
279, 2, bw, filler, NA, 999, 999, 7, 29, 142, 87, 81, 116, 76, 64, 3, 0.598464
279, 2, bw, attraction, a-b-db, 5, 3, 7, 30, 117, 190, 120, 195, 195, 120, 2, 3.70822
279, 2, bw, attraction, a-b-db, 5, 3, 7, 30, 117, 190, 120, 195, 195, 120, 3, 0.269828
279, 2, bw, attraction, a-b-da, 14, 3, 7, 31, 120, 195, 195, 120, 181, 111, 1, 3.84092
279, 2, bw, attraction, a-b-da, 14, 3, 7, 31, 120, 195, 195, 120, 181, 111, 3, 0.604986
279, 2, bw, filler, NA, 999, 999, 7, 32, 148, 73, 122, 133, 141, 58, 2, 2.2107
279, 2, bw, filler, NA, 999, 999, 7, 32, 148, 73, 122, 133, 141, 58, 3, 0.480655
279, 2, bw, attraction, a-b-da, 2, 2, 7, 33, 165, 90, 90, 165, 163, 89, 2, 1.95517
279, 2, bw, attraction, a-b-da, 2, 2, 7, 33, 165, 90, 90, 165, 163, 89, 3, 0.571136
279, 2, bw, filler, NA, 999, 999, 7, 34, 56, 103, 162, 105, 124, 61, 2, 0.834275
279, 2, bw, filler, NA, 999, 999, 7, 34, 56, 103, 162, 105, 124, 61, 3, 0.376003
279, 2, bw, filler, NA, 999, 999, 7, 35, 179, 111, 130, 99, 60, 59, 1, 0.670503
279, 2, bw, filler, NA, 999, 999, 7, 35, 179, 111, 130, 99, 60, 59, 3, 0.299091
279, 2, bw, attraction, a-b-db, 2, 3, 7, 36, 195, 120, 119, 193, 120, 195, 1, 2.33281
279, 2, bw, attraction, a-b-db, 2, 3, 7, 36, 195, 120, 119, 193, 120, 195, 3, 0.342
279, 2, bw, attraction, a-b-db, 9, 1, 7, 37, 57, 129, 135, 60, 60, 135, 2, 1.74986
279, 2, bw, attraction, a-b-db, 9, 1, 7, 37, 57, 129, 135, 60, 60, 135, 1, 0.414641
279, 2, bw, filler, NA, 999, 999, 8, 1, 173, 178, 190, 167, 57, 61, 1, 1.66789
279, 2, bw, filler, NA, 999, 999, 8, 1, 173, 178, 190, 167, 57, 61, 3, 0.44793
279, 2, bw, attraction, a-b-da, 2, 2, 8, 2, 163, 89, 90, 165, 165, 90, 3, 2.57179
279, 2, bw, attraction, a-b-da, 2, 2, 8, 2, 163, 89, 90, 165, 165, 90, 2, 1.77896
279, 2, bw, attraction, a-b-db, 14, 3, 8, 3, 111, 181, 120, 195, 195, 120, 2, 1.55289
279, 2, bw, attraction, a-b-db, 14, 3, 8, 3, 111, 181, 120, 195, 195, 120, 1, 0.457655
279, 2, bw, filler, NA, 999, 999, 8, 4, 122, 153, 137, 94, 112, 127, 1, 1.42889
279, 2, bw, filler, NA, 999, 999, 8, 4, 122, 153, 137, 94, 112, 127, 2, 0.298355
279, 2, bw, attraction, a-b-db, 2, 3, 8, 5, 120, 195, 195, 120, 119, 193, 3, 2.58825
279, 2, bw, attraction, a-b-db, 2, 3, 8, 5, 120, 195, 195, 120, 119, 193, 2, 0.258769
279, 2, bw, filler, NA, 999, 999, 8, 6, 76, 67, 63, 137, 106, 175, 3, 0.821855
279, 2, bw, filler, NA, 999, 999, 8, 6, 76, 67, 63, 137, 106, 175, 1, 0.523743
279, 2, bw, attraction, a-b-db, 2, 1, 8, 7, 135, 60, 60, 135, 59, 134, 1, 1.83606
279, 2, bw, attraction, a-b-db, 2, 1, 8, 7, 135, 60, 60, 135, 59, 134, 3, 0.385448
279, 2, bw, attraction, a-b-da, 9, 2, 8, 8, 165, 90, 90, 165, 157, 86, 2, 1.67997
279, 2, bw, attraction, a-b-da, 9, 2, 8, 8, 165, 90, 90, 165, 157, 86, 1, 0.235525
279, 2, bw, attraction, a-b-da, 9, 3, 8, 9, 120, 195, 195, 120, 186, 114, 1, 2.11992
279, 2, bw, attraction, a-b-da, 9, 3, 8, 9, 120, 195, 195, 120, 186, 114, 2, 2.79393
279, 2, bw, attraction, a-b-da, 5, 3, 8, 10, 190, 117, 195, 120, 120, 195, 3, 2.21498
279, 2, bw, attraction, a-b-da, 5, 3, 8, 10, 190, 117, 195, 120, 120, 195, 2, 0.428959
279, 2, bw, attraction, a-b-db, 2, 2, 8, 11, 89, 163, 90, 165, 165, 90, 3, 5.50554
279, 2, bw, attraction, a-b-db, 2, 2, 8, 11, 89, 163, 90, 165, 165, 90, 1, 0.530305
279, 2, bw, filler, NA, 999, 999, 8, 12, 176, 119, 147, 158, 189, 59, 2, 3.15478
279, 2, bw, filler, NA, 999, 999, 8, 12, 176, 119, 147, 158, 189, 59, 3, 0.306627
279, 2, bw, attraction, a-b-db, 14, 1, 8, 13, 56, 125, 60, 135, 135, 60, 3, 1.13157
279, 2, bw, attraction, a-b-db, 14, 1, 8, 13, 56, 125, 60, 135, 135, 60, 1, 0.37326
279, 2, bw, attraction, a-b-db, 9, 3, 8, 14, 120, 195, 195, 120, 114, 186, 1, 1.77169
279, 2, bw, attraction, a-b-db, 9, 3, 8, 14, 120, 195, 195, 120, 114, 186, 3, 0.611118
279, 2, bw, attraction, a-b-da, 14, 3, 8, 15, 195, 120, 181, 111, 120, 195, 1, 2.05616
279, 2, bw, attraction, a-b-da, 14, 3, 8, 15, 195, 120, 181, 111, 120, 195, 2, 0.220197
279, 2, bw, attraction, a-b-db, 14, 2, 8, 16, 83, 153, 165, 90, 90, 165, 3, 0.969556
279, 2, bw, attraction, a-b-db, 14, 2, 8, 16, 83, 153, 165, 90, 90, 165, 1, 0.289766
279, 2, bw, catch, NA, 999, 999, 8, 17, 98, 97, 158, 97, 131, 184, 3, 1.06773
279, 2, bw, catch, NA, 999, 999, 8, 17, 98, 97, 158, 97, 131, 184, 1, 0.239868
279, 2, bw, attraction, a-b-da, 2, 1, 8, 18, 135, 60, 134, 59, 60, 135, 1, 6.37984
279, 2, bw, attraction, a-b-da, 2, 1, 8, 18, 135, 60, 134, 59, 60, 135, 3, 0.249828
279, 2, bw, attraction, a-b-da, 14, 2, 8, 19, 165, 90, 90, 165, 153, 83, 2, 2.61379
279, 2, bw, attraction, a-b-da, 14, 2, 8, 19, 165, 90, 90, 165, 153, 83, 3, 0.683438
279, 2, bw, attraction, a-b-da, 5, 2, 8, 20, 161, 88, 90, 165, 165, 90, 2, 1.93385
279, 2, bw, attraction, a-b-da, 5, 2, 8, 20, 161, 88, 90, 165, 165, 90, 1, 0.279323
279, 2, bw, attraction, a-b-da, 5, 1, 8, 21, 60, 135, 132, 58, 135, 60, 1, 2.63371
279, 2, bw, attraction, a-b-da, 5, 1, 8, 21, 60, 135, 132, 58, 135, 60, 2, 1.75084
279, 2, bw, attraction, a-b-da, 2, 3, 8, 22, 120, 195, 195, 120, 193, 119, 1, 1.76639
279, 2, bw, attraction, a-b-da, 2, 3, 8, 22, 120, 195, 195, 120, 193, 119, 3, 0.262398
279, 2, bw, catch, NA, 999, 999, 8, 23, 126, 69, 149, 106, 148, 167, 3, 1.04158
279, 2, bw, catch, NA, 999, 999, 8, 23, 126, 69, 149, 106, 148, 167, 1, 0.454532
279, 2, bw, filler, NA, 999, 999, 8, 24, 174, 71, 118, 128, 152, 184, 3, 0.850337
279, 2, bw, filler, NA, 999, 999, 8, 24, 174, 71, 118, 128, 152, 184, 2, 1.54336
279, 2, bw, attraction, a-b-db, 9, 2, 8, 25, 165, 90, 90, 165, 86, 157, 2, 2.97488
279, 2, bw, attraction, a-b-db, 9, 2, 8, 25, 165, 90, 90, 165, 86, 157, 3, 0.285893
279, 2, bw, filler, NA, 999, 999, 8, 26, 100, 81, 134, 134, 108, 59, 2, 0.784443
279, 2, bw, filler, NA, 999, 999, 8, 26, 100, 81, 134, 134, 108, 59, 3, 3.07212
279, 2, bw, attraction, a-b-db, 5, 1, 8, 27, 58, 132, 60, 135, 135, 60, 3, 1.2345
279, 2, bw, attraction, a-b-db, 5, 1, 8, 27, 58, 132, 60, 135, 135, 60, 1, 0.328044
279, 2, bw, filler, NA, 999, 999, 8, 28, 74, 173, 151, 180, 105, 106, 2, 2.00056
279, 2, bw, filler, NA, 999, 999, 8, 28, 74, 173, 151, 180, 105, 106, 3, 0.359237
279, 2, bw, attraction, a-b-da, 14, 1, 8, 29, 60, 135, 125, 56, 135, 60, 3, 1.14239
279, 2, bw, attraction, a-b-da, 14, 1, 8, 29, 60, 135, 125, 56, 135, 60, 2, 0.311373
279, 2, bw, filler, NA, 999, 999, 8, 30, 68, 81, 122, 125, 191, 67, 2, 1.44061
279, 2, bw, filler, NA, 999, 999, 8, 30, 68, 81, 122, 125, 191, 67, 1, 0.321972
279, 2, bw, attraction, a-b-da, 9, 1, 8, 31, 60, 135, 135, 60, 129, 57, 2, 1.6539
279, 2, bw, attraction, a-b-da, 9, 1, 8, 31, 60, 135, 135, 60, 129, 57, 1, 0.322661
279, 2, bw, filler, NA, 999, 999, 8, 32, 91, 101, 195, 138, 92, 189, 2, 1.7313
279, 2, bw, filler, NA, 999, 999, 8, 32, 91, 101, 195, 138, 92, 189, 1, 0.284604
279, 2, bw, filler, NA, 999, 999, 8, 33, 162, 72, 116, 56, 183, 112, 3, 1.09509
279, 2, bw, filler, NA, 999, 999, 8, 33, 162, 72, 116, 56, 183, 112, 2, 0.346125
279, 2, bw, attraction, a-b-db, 9, 1, 8, 34, 60, 135, 57, 129, 135, 60, 3, 1.16193
279, 2, bw, attraction, a-b-db, 9, 1, 8, 34, 60, 135, 57, 129, 135, 60, 2, 0.354233
279, 2, bw, attraction, a-b-db, 5, 2, 8, 35, 90, 165, 165, 90, 88, 161, 1, 1.32205
279, 2, bw, attraction, a-b-db, 5, 2, 8, 35, 90, 165, 165, 90, 88, 161, 2, 0.411614
279, 2, bw, attraction, a-b-db, 5, 3, 8, 36, 120, 195, 117, 190, 195, 120, 1, 1.56873
279, 2, bw, attraction, a-b-db, 5, 3, 8, 36, 120, 195, 117, 190, 195, 120, 2, 0.408991
279, 2, bw, catch, NA, 999, 999, 8, 37, 150, 105, 189, 126, 86, 109, 2, 1.51817
279, 2, bw, catch, NA, 999, 999, 8, 37, 150, 105, 189, 126, 86, 109, 3, 0.4322
