sub_n, computer_n, bw_cond, effect, set, distance, diag, block_n, trial_n, h1, w1, h2, w2, h3, w3, choice, rt 
253, 2, bw, practice, NA, 999, 999, 0, 1, 158, 62, 112, 131, 190, 183, 3, 8.7447
253, 2, bw, practice, NA, 999, 999, 0, 1, 158, 62, 112, 131, 190, 183, 2, 18.2218
253, 2, bw, practice, NA, 999, 999, 0, 2, 85, 92, 97, 154, 64, 76, 2, 3.96262
253, 2, bw, practice, NA, 999, 999, 0, 2, 85, 92, 97, 154, 64, 76, 3, 2.24167
253, 2, bw, practice, NA, 999, 999, 0, 3, 157, 143, 74, 186, 172, 187, 3, 2.97008
253, 2, bw, practice, NA, 999, 999, 0, 3, 157, 143, 74, 186, 172, 187, 2, 6.75686
253, 2, bw, filler, NA, 999, 999, 1, 1, 134, 115, 110, 194, 133, 181, 3, 8.89525
253, 2, bw, filler, NA, 999, 999, 1, 1, 134, 115, 110, 194, 133, 181, 1, 13.2797
253, 2, bw, attraction, a-b-da, 2, 2, 1, 2, 90, 165, 163, 89, 165, 90, 1, 9.90216
253, 2, bw, attraction, a-b-da, 2, 2, 1, 2, 90, 165, 163, 89, 165, 90, 2, 1.89452
253, 2, bw, attraction, a-b-db, 5, 1, 1, 3, 135, 60, 60, 135, 58, 132, 1, 5.92789
253, 2, bw, attraction, a-b-db, 5, 1, 1, 3, 135, 60, 60, 135, 58, 132, 3, 3.95188
253, 2, bw, attraction, a-b-db, 9, 2, 1, 4, 165, 90, 90, 165, 86, 157, 2, 2.96657
253, 2, bw, attraction, a-b-db, 9, 2, 1, 4, 165, 90, 90, 165, 86, 157, 3, 39.8543
253, 2, bw, catch, NA, 999, 999, 1, 5, 79, 116, 110, 145, 126, 189, 3, 2.06983
253, 2, bw, catch, NA, 999, 999, 1, 5, 79, 116, 110, 145, 126, 189, 1, 1.68182
253, 2, bw, filler, NA, 999, 999, 1, 6, 155, 73, 114, 92, 176, 65, 3, 4.57188
253, 2, bw, filler, NA, 999, 999, 1, 6, 155, 73, 114, 92, 176, 65, 2, 2.73051
253, 2, bw, attraction, a-b-db, 14, 1, 1, 7, 60, 135, 135, 60, 56, 125, 2, 15.4582
253, 2, bw, attraction, a-b-db, 14, 1, 1, 7, 60, 135, 135, 60, 56, 125, 3, 1.72276
253, 2, bw, attraction, a-b-db, 5, 2, 1, 8, 165, 90, 88, 161, 90, 165, 2, 6.41869
253, 2, bw, attraction, a-b-db, 5, 2, 1, 8, 165, 90, 88, 161, 90, 165, 3, 0.575402
253, 2, bw, filler, NA, 999, 999, 1, 9, 134, 68, 61, 151, 103, 107, 3, 10.2218
253, 2, bw, filler, NA, 999, 999, 1, 9, 134, 68, 61, 151, 103, 107, 2, 3.71327
253, 2, bw, attraction, a-b-da, 5, 2, 1, 10, 161, 88, 90, 165, 165, 90, 2, 3.52952
253, 2, bw, attraction, a-b-da, 5, 2, 1, 10, 161, 88, 90, 165, 165, 90, 1, 1.66628
253, 2, bw, filler, NA, 999, 999, 1, 11, 164, 68, 170, 189, 161, 134, 2, 2.07691
253, 2, bw, filler, NA, 999, 999, 1, 11, 164, 68, 170, 189, 161, 134, 1, 1.7763
253, 2, bw, attraction, a-b-db, 2, 1, 1, 12, 60, 135, 135, 60, 59, 134, 1, 18.6063
253, 2, bw, attraction, a-b-db, 2, 1, 1, 12, 60, 135, 135, 60, 59, 134, 3, 0.75984
253, 2, bw, attraction, a-b-da, 14, 2, 1, 13, 165, 90, 90, 165, 153, 83, 2, 3.99898
253, 2, bw, attraction, a-b-da, 14, 2, 1, 13, 165, 90, 90, 165, 153, 83, 3, 1.20515
253, 2, bw, attraction, a-b-db, 5, 3, 1, 14, 117, 190, 120, 195, 195, 120, 2, 11.9064
253, 2, bw, attraction, a-b-db, 5, 3, 1, 14, 117, 190, 120, 195, 195, 120, 1, 4.69003
253, 2, bw, attraction, a-b-db, 9, 1, 1, 15, 60, 135, 135, 60, 57, 129, 1, 6.24327
253, 2, bw, attraction, a-b-db, 9, 1, 1, 15, 60, 135, 135, 60, 57, 129, 3, 0.926688
253, 2, bw, attraction, a-b-da, 2, 3, 1, 16, 120, 195, 193, 119, 195, 120, 2, 5.22295
253, 2, bw, attraction, a-b-da, 2, 3, 1, 16, 120, 195, 193, 119, 195, 120, 3, 1.05923
253, 2, bw, attraction, a-b-da, 5, 3, 1, 17, 120, 195, 195, 120, 190, 117, 1, 4.99833
253, 2, bw, attraction, a-b-da, 5, 3, 1, 17, 120, 195, 195, 120, 190, 117, 3, 0.651936
253, 2, bw, attraction, a-b-da, 9, 3, 1, 18, 120, 195, 186, 114, 195, 120, 1, 5.57567
253, 2, bw, attraction, a-b-da, 9, 3, 1, 18, 120, 195, 186, 114, 195, 120, 2, 1.48599
253, 2, bw, attraction, a-b-db, 14, 2, 1, 19, 165, 90, 83, 153, 90, 165, 1, 8.20003
253, 2, bw, attraction, a-b-db, 14, 2, 1, 19, 165, 90, 83, 153, 90, 165, 2, 1.75682
253, 2, bw, filler, NA, 999, 999, 1, 20, 85, 130, 146, 152, 182, 141, 3, 6.67559
253, 2, bw, filler, NA, 999, 999, 1, 20, 85, 130, 146, 152, 182, 141, 1, 0.925467
253, 2, bw, catch, NA, 999, 999, 1, 21, 128, 127, 150, 165, 124, 71, 2, 1.99772
253, 2, bw, catch, NA, 999, 999, 1, 21, 128, 127, 150, 165, 124, 71, 3, 0.684487
253, 2, bw, filler, NA, 999, 999, 1, 22, 110, 98, 182, 93, 193, 96, 3, 15.7828
253, 2, bw, filler, NA, 999, 999, 1, 22, 110, 98, 182, 93, 193, 96, 1, 0.833959
253, 2, bw, attraction, a-b-da, 5, 1, 1, 23, 135, 60, 60, 135, 132, 58, 1, 16.4141
253, 2, bw, attraction, a-b-da, 5, 1, 1, 23, 135, 60, 60, 135, 132, 58, 2, 0.663728
253, 2, bw, attraction, a-b-db, 2, 2, 1, 24, 165, 90, 90, 165, 89, 163, 2, 3.57079
253, 2, bw, attraction, a-b-db, 2, 2, 1, 24, 165, 90, 90, 165, 89, 163, 1, 0.394339
253, 2, bw, attraction, a-b-db, 2, 3, 1, 25, 195, 120, 119, 193, 120, 195, 2, 29.8482
253, 2, bw, attraction, a-b-db, 2, 3, 1, 25, 195, 120, 119, 193, 120, 195, 1, 0.532083
253, 2, bw, attraction, a-b-da, 9, 2, 1, 26, 90, 165, 157, 86, 165, 90, 1, 29.6287
253, 2, bw, attraction, a-b-da, 9, 2, 1, 26, 90, 165, 157, 86, 165, 90, 2, 0.705884
253, 2, bw, attraction, a-b-da, 9, 1, 1, 27, 135, 60, 129, 57, 60, 135, 1, 5.34766
253, 2, bw, attraction, a-b-da, 9, 1, 1, 27, 135, 60, 129, 57, 60, 135, 3, 0.403219
253, 2, bw, attraction, a-b-db, 9, 3, 1, 28, 195, 120, 120, 195, 114, 186, 2, 1.98505
253, 2, bw, attraction, a-b-db, 9, 3, 1, 28, 195, 120, 120, 195, 114, 186, 1, 2.37655
253, 2, bw, filler, NA, 999, 999, 1, 29, 71, 79, 112, 120, 73, 80, 2, 1.65433
253, 2, bw, filler, NA, 999, 999, 1, 29, 71, 79, 112, 120, 73, 80, 3, 2.49847
253, 2, bw, attraction, a-b-da, 2, 1, 1, 30, 135, 60, 60, 135, 134, 59, 2, 5.09168
253, 2, bw, attraction, a-b-da, 2, 1, 1, 30, 135, 60, 60, 135, 134, 59, 3, 1.2694
253, 2, bw, filler, NA, 999, 999, 1, 31, 117, 94, 90, 170, 166, 123, 3, 1.85627
253, 2, bw, filler, NA, 999, 999, 1, 31, 117, 94, 90, 170, 166, 123, 1, 0.484221
253, 2, bw, filler, NA, 999, 999, 1, 32, 71, 126, 67, 187, 100, 87, 2, 6.04666
253, 2, bw, filler, NA, 999, 999, 1, 32, 71, 126, 67, 187, 100, 87, 3, 1.81015
253, 2, bw, attraction, a-b-da, 14, 1, 1, 33, 125, 56, 60, 135, 135, 60, 3, 18.6708
253, 2, bw, attraction, a-b-da, 14, 1, 1, 33, 125, 56, 60, 135, 135, 60, 2, 1.3576
253, 2, bw, attraction, a-b-db, 14, 3, 1, 34, 111, 181, 120, 195, 195, 120, 2, 3.30857
253, 2, bw, attraction, a-b-db, 14, 3, 1, 34, 111, 181, 120, 195, 195, 120, 3, 0.574133
253, 2, bw, catch, NA, 999, 999, 1, 35, 95, 160, 170, 145, 91, 104, 2, 1.13247
253, 2, bw, catch, NA, 999, 999, 1, 35, 95, 160, 170, 145, 91, 104, 3, 0.550155
253, 2, bw, attraction, a-b-da, 14, 3, 1, 36, 120, 195, 195, 120, 181, 111, 1, 2.08588
253, 2, bw, attraction, a-b-da, 14, 3, 1, 36, 120, 195, 195, 120, 181, 111, 3, 0.537238
253, 2, bw, filler, NA, 999, 999, 1, 37, 164, 135, 70, 81, 138, 128, 1, 1.11362
253, 2, bw, filler, NA, 999, 999, 1, 37, 164, 135, 70, 81, 138, 128, 2, 0.524101
253, 2, bw, attraction, a-b-db, 5, 2, 2, 1, 165, 90, 88, 161, 90, 165, 1, 4.5084
253, 2, bw, attraction, a-b-db, 5, 2, 2, 1, 165, 90, 88, 161, 90, 165, 3, 1.31758
253, 2, bw, attraction, a-b-db, 5, 1, 2, 2, 60, 135, 58, 132, 135, 60, 3, 1.81449
253, 2, bw, attraction, a-b-db, 5, 1, 2, 2, 60, 135, 58, 132, 135, 60, 2, 0.860522
253, 2, bw, attraction, a-b-db, 5, 3, 2, 3, 117, 190, 120, 195, 195, 120, 2, 6.10372
253, 2, bw, attraction, a-b-db, 5, 3, 2, 3, 117, 190, 120, 195, 195, 120, 1, 0.880949
253, 2, bw, catch, NA, 999, 999, 2, 4, 153, 162, 70, 125, 145, 110, 1, 7.37142
253, 2, bw, catch, NA, 999, 999, 2, 4, 153, 162, 70, 125, 145, 110, 2, 0.633737
253, 2, bw, attraction, a-b-db, 2, 1, 2, 5, 59, 134, 135, 60, 60, 135, 2, 2.06207
253, 2, bw, attraction, a-b-db, 2, 1, 2, 5, 59, 134, 135, 60, 60, 135, 3, 0.746042
253, 2, bw, attraction, a-b-da, 2, 2, 2, 6, 90, 165, 163, 89, 165, 90, 1, 4.2738
253, 2, bw, attraction, a-b-da, 2, 2, 2, 6, 90, 165, 163, 89, 165, 90, 2, 13.6284
253, 2, bw, attraction, a-b-da, 9, 1, 2, 7, 129, 57, 135, 60, 60, 135, 3, 7.37277
253, 2, bw, attraction, a-b-da, 9, 1, 2, 7, 129, 57, 135, 60, 60, 135, 1, 0.906416
253, 2, bw, filler, NA, 999, 999, 2, 8, 133, 76, 162, 114, 173, 127, 3, 1.24346
253, 2, bw, filler, NA, 999, 999, 2, 8, 133, 76, 162, 114, 173, 127, 1, 0.52026
253, 2, bw, attraction, a-b-da, 9, 2, 2, 9, 157, 86, 165, 90, 90, 165, 3, 10.5055
253, 2, bw, attraction, a-b-da, 9, 2, 2, 9, 157, 86, 165, 90, 90, 165, 2, 0.825459
253, 2, bw, attraction, a-b-da, 14, 1, 2, 10, 135, 60, 60, 135, 125, 56, 1, 20.4378
253, 2, bw, attraction, a-b-da, 14, 1, 2, 10, 135, 60, 60, 135, 125, 56, 3, 0.741571
253, 2, bw, filler, NA, 999, 999, 2, 11, 88, 98, 68, 133, 103, 62, 1, 3.87714
253, 2, bw, filler, NA, 999, 999, 2, 11, 88, 98, 68, 133, 103, 62, 3, 0.671959
253, 2, bw, filler, NA, 999, 999, 2, 12, 185, 99, 132, 161, 136, 146, 2, 1.66699
253, 2, bw, filler, NA, 999, 999, 2, 12, 185, 99, 132, 161, 136, 146, 1, 1.69513
253, 2, bw, attraction, a-b-da, 14, 2, 2, 13, 165, 90, 153, 83, 90, 165, 3, 2.82439
253, 2, bw, attraction, a-b-da, 14, 2, 2, 13, 165, 90, 153, 83, 90, 165, 2, 0.733475
253, 2, bw, attraction, a-b-da, 9, 3, 2, 14, 186, 114, 120, 195, 195, 120, 2, 2.78998
253, 2, bw, attraction, a-b-da, 9, 3, 2, 14, 186, 114, 120, 195, 195, 120, 1, 1.04437
253, 2, bw, attraction, a-b-db, 2, 3, 2, 15, 120, 195, 195, 120, 119, 193, 1, 22.1201
253, 2, bw, attraction, a-b-db, 2, 3, 2, 15, 120, 195, 195, 120, 119, 193, 2, 0.531724
253, 2, bw, filler, NA, 999, 999, 2, 16, 58, 195, 70, 141, 191, 73, 3, 1.6841
253, 2, bw, filler, NA, 999, 999, 2, 16, 58, 195, 70, 141, 191, 73, 2, 0.49571
253, 2, bw, attraction, a-b-db, 2, 2, 2, 17, 90, 165, 89, 163, 165, 90, 3, 34.4095
253, 2, bw, attraction, a-b-db, 2, 2, 2, 17, 90, 165, 89, 163, 165, 90, 2, 0.461988
253, 2, bw, attraction, a-b-da, 5, 1, 2, 18, 132, 58, 135, 60, 60, 135, 2, 2.14507
253, 2, bw, attraction, a-b-da, 5, 1, 2, 18, 132, 58, 135, 60, 60, 135, 1, 0.561694
253, 2, bw, attraction, a-b-da, 5, 3, 2, 19, 190, 117, 120, 195, 195, 120, 2, 1.81683
253, 2, bw, attraction, a-b-da, 5, 3, 2, 19, 190, 117, 120, 195, 195, 120, 1, 0.806939
253, 2, bw, attraction, a-b-db, 9, 1, 2, 20, 57, 129, 135, 60, 60, 135, 3, 2.83593
253, 2, bw, attraction, a-b-db, 9, 1, 2, 20, 57, 129, 135, 60, 60, 135, 1, 0.561003
253, 2, bw, attraction, a-b-da, 2, 1, 2, 21, 135, 60, 134, 59, 60, 135, 3, 2.35222
253, 2, bw, attraction, a-b-da, 2, 1, 2, 21, 135, 60, 134, 59, 60, 135, 2, 0.736775
253, 2, bw, attraction, a-b-db, 14, 3, 2, 22, 120, 195, 111, 181, 195, 120, 1, 1.32905
253, 2, bw, attraction, a-b-db, 14, 3, 2, 22, 120, 195, 111, 181, 195, 120, 2, 0.874686
253, 2, bw, attraction, a-b-da, 5, 2, 2, 23, 161, 88, 165, 90, 90, 165, 3, 4.23693
253, 2, bw, attraction, a-b-da, 5, 2, 2, 23, 161, 88, 165, 90, 90, 165, 1, 0.921645
253, 2, bw, catch, NA, 999, 999, 2, 24, 70, 125, 102, 153, 192, 123, 3, 5.53064
253, 2, bw, catch, NA, 999, 999, 2, 24, 70, 125, 102, 153, 192, 123, 1, 0.754808
253, 2, bw, filler, NA, 999, 999, 2, 25, 140, 64, 80, 178, 137, 80, 2, 2.03448
253, 2, bw, filler, NA, 999, 999, 2, 25, 140, 64, 80, 178, 137, 80, 1, 2.40785
253, 2, bw, filler, NA, 999, 999, 2, 26, 100, 73, 71, 97, 160, 117, 3, 12.9004
253, 2, bw, filler, NA, 999, 999, 2, 26, 100, 73, 71, 97, 160, 117, 2, 1.43563
253, 2, bw, attraction, a-b-db, 9, 2, 2, 27, 165, 90, 90, 165, 86, 157, 1, 9.72791
253, 2, bw, attraction, a-b-db, 9, 2, 2, 27, 165, 90, 90, 165, 86, 157, 3, 0.406829
253, 2, bw, attraction, a-b-da, 14, 3, 2, 28, 181, 111, 195, 120, 120, 195, 2, 1.34
253, 2, bw, attraction, a-b-da, 14, 3, 2, 28, 181, 111, 195, 120, 120, 195, 1, 2.2287
253, 2, bw, filler, NA, 999, 999, 2, 29, 91, 93, 131, 127, 168, 108, 2, 2.13675
253, 2, bw, filler, NA, 999, 999, 2, 29, 91, 93, 131, 127, 168, 108, 1, 0.442048
253, 2, bw, catch, NA, 999, 999, 2, 30, 146, 109, 105, 90, 195, 120, 3, 1.30978
253, 2, bw, catch, NA, 999, 999, 2, 30, 146, 109, 105, 90, 195, 120, 2, 0.344025
253, 2, bw, attraction, a-b-db, 14, 1, 2, 31, 60, 135, 135, 60, 56, 125, 2, 3.13596
253, 2, bw, attraction, a-b-db, 14, 1, 2, 31, 60, 135, 135, 60, 56, 125, 3, 0.368855
253, 2, bw, filler, NA, 999, 999, 2, 32, 98, 72, 161, 179, 178, 122, 2, 11.7281
253, 2, bw, filler, NA, 999, 999, 2, 32, 98, 72, 161, 179, 178, 122, 1, 0.622309
253, 2, bw, attraction, a-b-db, 14, 2, 2, 33, 83, 153, 90, 165, 165, 90, 1, 3.38736
253, 2, bw, attraction, a-b-db, 14, 2, 2, 33, 83, 153, 90, 165, 165, 90, 2, 1.01834
253, 2, bw, filler, NA, 999, 999, 2, 34, 103, 170, 109, 72, 99, 89, 1, 0.887361
253, 2, bw, filler, NA, 999, 999, 2, 34, 103, 170, 109, 72, 99, 89, 2, 0.610506
253, 2, bw, filler, NA, 999, 999, 2, 35, 129, 92, 162, 103, 110, 129, 2, 2.08741
253, 2, bw, filler, NA, 999, 999, 2, 35, 129, 92, 162, 103, 110, 129, 1, 0.386701
253, 2, bw, attraction, a-b-db, 9, 3, 2, 36, 114, 186, 120, 195, 195, 120, 3, 11.3932
253, 2, bw, attraction, a-b-db, 9, 3, 2, 36, 114, 186, 120, 195, 195, 120, 1, 0.42088
253, 2, bw, attraction, a-b-da, 2, 3, 2, 37, 193, 119, 195, 120, 120, 195, 2, 3.37809
253, 2, bw, attraction, a-b-da, 2, 3, 2, 37, 193, 119, 195, 120, 120, 195, 3, 0.72919
253, 2, bw, attraction, a-b-db, 9, 2, 3, 1, 165, 90, 90, 165, 86, 157, 2, 3.17738
253, 2, bw, attraction, a-b-db, 9, 2, 3, 1, 165, 90, 90, 165, 86, 157, 3, 0.680451
253, 2, bw, attraction, a-b-da, 14, 3, 3, 2, 120, 195, 195, 120, 181, 111, 1, 1.56288
253, 2, bw, attraction, a-b-da, 14, 3, 3, 2, 120, 195, 195, 120, 181, 111, 3, 15.779
253, 2, bw, filler, NA, 999, 999, 3, 3, 140, 89, 108, 157, 136, 156, 3, 1.58862
253, 2, bw, filler, NA, 999, 999, 3, 3, 140, 89, 108, 157, 136, 156, 1, 0.867432
253, 2, bw, attraction, a-b-da, 5, 1, 3, 4, 60, 135, 135, 60, 132, 58, 2, 2.67041
253, 2, bw, attraction, a-b-da, 5, 1, 3, 4, 60, 135, 135, 60, 132, 58, 3, 1.92221
253, 2, bw, attraction, a-b-da, 5, 2, 3, 5, 161, 88, 165, 90, 90, 165, 3, 2.2189
253, 2, bw, attraction, a-b-da, 5, 2, 3, 5, 161, 88, 165, 90, 90, 165, 2, 1.04096
253, 2, bw, attraction, a-b-db, 5, 2, 3, 6, 90, 165, 88, 161, 165, 90, 1, 4.06848
253, 2, bw, attraction, a-b-db, 5, 2, 3, 6, 90, 165, 88, 161, 165, 90, 3, 0.535814
253, 2, bw, filler, NA, 999, 999, 3, 7, 61, 172, 119, 110, 151, 79, 2, 9.81623
253, 2, bw, filler, NA, 999, 999, 3, 7, 61, 172, 119, 110, 151, 79, 1, 2.59578
253, 2, bw, filler, NA, 999, 999, 3, 8, 158, 104, 162, 163, 66, 163, 2, 1.13706
253, 2, bw, filler, NA, 999, 999, 3, 8, 158, 104, 162, 163, 66, 163, 3, 0.802623
253, 2, bw, catch, NA, 999, 999, 3, 9, 161, 94, 183, 132, 68, 127, 2, 1.40028
253, 2, bw, catch, NA, 999, 999, 3, 9, 161, 94, 183, 132, 68, 127, 3, 0.263237
253, 2, bw, attraction, a-b-da, 14, 2, 3, 10, 90, 165, 153, 83, 165, 90, 1, 1.7305
253, 2, bw, attraction, a-b-da, 14, 2, 3, 10, 90, 165, 153, 83, 165, 90, 2, 0.523833
253, 2, bw, attraction, a-b-db, 9, 3, 3, 11, 195, 120, 120, 195, 114, 186, 1, 3.48033
253, 2, bw, attraction, a-b-db, 9, 3, 3, 11, 195, 120, 120, 195, 114, 186, 2, 0.407222
253, 2, bw, attraction, a-b-db, 2, 1, 3, 12, 135, 60, 59, 134, 60, 135, 1, 7.98829
253, 2, bw, attraction, a-b-db, 2, 1, 3, 12, 135, 60, 59, 134, 60, 135, 2, 0.985727
253, 2, bw, attraction, a-b-da, 5, 3, 3, 13, 190, 117, 195, 120, 120, 195, 2, 3.12012
253, 2, bw, attraction, a-b-da, 5, 3, 3, 13, 190, 117, 195, 120, 120, 195, 1, 0.809746
253, 2, bw, attraction, a-b-db, 2, 3, 3, 14, 195, 120, 120, 195, 119, 193, 2, 1.65475
253, 2, bw, attraction, a-b-db, 2, 3, 3, 14, 195, 120, 120, 195, 119, 193, 1, 0.282858
253, 2, bw, attraction, a-b-da, 2, 2, 3, 15, 163, 89, 90, 165, 165, 90, 2, 9.48534
253, 2, bw, attraction, a-b-da, 2, 2, 3, 15, 163, 89, 90, 165, 165, 90, 1, 0.830374
253, 2, bw, filler, NA, 999, 999, 3, 16, 64, 59, 120, 77, 58, 119, 2, 1.7709
253, 2, bw, filler, NA, 999, 999, 3, 16, 64, 59, 120, 77, 58, 119, 1, 0.60284
253, 2, bw, attraction, a-b-db, 14, 2, 3, 17, 90, 165, 165, 90, 83, 153, 1, 2.25658
253, 2, bw, attraction, a-b-db, 14, 2, 3, 17, 90, 165, 165, 90, 83, 153, 3, 0.636466
253, 2, bw, attraction, a-b-db, 5, 1, 3, 18, 58, 132, 135, 60, 60, 135, 2, 30.113
253, 2, bw, attraction, a-b-db, 5, 1, 3, 18, 58, 132, 135, 60, 60, 135, 3, 0.44278
253, 2, bw, attraction, a-b-da, 9, 1, 3, 19, 135, 60, 129, 57, 60, 135, 3, 1.66258
253, 2, bw, attraction, a-b-da, 9, 1, 3, 19, 135, 60, 129, 57, 60, 135, 2, 0.754685
253, 2, bw, attraction, a-b-da, 9, 3, 3, 20, 186, 114, 120, 195, 195, 120, 2, 2.78646
253, 2, bw, attraction, a-b-da, 9, 3, 3, 20, 186, 114, 120, 195, 195, 120, 3, 0.337627
253, 2, bw, attraction, a-b-db, 14, 3, 3, 21, 120, 195, 195, 120, 111, 181, 1, 2.35407
253, 2, bw, attraction, a-b-db, 14, 3, 3, 21, 120, 195, 195, 120, 111, 181, 3, 0.61798
253, 2, bw, filler, NA, 999, 999, 3, 22, 137, 144, 92, 109, 109, 62, 1, 1.02306
253, 2, bw, filler, NA, 999, 999, 3, 22, 137, 144, 92, 109, 109, 62, 3, 0.620718
253, 2, bw, attraction, a-b-db, 5, 3, 3, 23, 195, 120, 117, 190, 120, 195, 1, 1.92984
253, 2, bw, attraction, a-b-db, 5, 3, 3, 23, 195, 120, 117, 190, 120, 195, 3, 0.291186
253, 2, bw, attraction, a-b-da, 2, 1, 3, 24, 60, 135, 134, 59, 135, 60, 1, 2.645
253, 2, bw, attraction, a-b-da, 2, 1, 3, 24, 60, 135, 134, 59, 135, 60, 2, 1.00151
253, 2, bw, attraction, a-b-db, 9, 1, 3, 25, 60, 135, 57, 129, 135, 60, 3, 13.823
253, 2, bw, attraction, a-b-db, 9, 1, 3, 25, 60, 135, 57, 129, 135, 60, 2, 0.673413
253, 2, bw, catch, NA, 999, 999, 3, 26, 117, 78, 111, 144, 131, 184, 3, 0.867816
253, 2, bw, catch, NA, 999, 999, 3, 26, 117, 78, 111, 144, 131, 184, 1, 0.392143
253, 2, bw, filler, NA, 999, 999, 3, 27, 182, 89, 104, 66, 148, 84, 1, 5.37403
253, 2, bw, filler, NA, 999, 999, 3, 27, 182, 89, 104, 66, 148, 84, 2, 0.548295
253, 2, bw, attraction, a-b-da, 14, 1, 3, 28, 60, 135, 135, 60, 125, 56, 2, 6.91612
253, 2, bw, attraction, a-b-da, 14, 1, 3, 28, 60, 135, 135, 60, 125, 56, 3, 0.844659
253, 2, bw, attraction, a-b-da, 9, 2, 3, 29, 165, 90, 157, 86, 90, 165, 1, 1.26425
253, 2, bw, attraction, a-b-da, 9, 2, 3, 29, 165, 90, 157, 86, 90, 165, 2, 0.964622
253, 2, bw, catch, NA, 999, 999, 3, 30, 77, 118, 120, 195, 104, 151, 2, 0.796872
253, 2, bw, catch, NA, 999, 999, 3, 30, 77, 118, 120, 195, 104, 151, 1, 0.474531
253, 2, bw, attraction, a-b-da, 2, 3, 3, 31, 120, 195, 195, 120, 193, 119, 1, 1.89299
253, 2, bw, attraction, a-b-da, 2, 3, 3, 31, 120, 195, 195, 120, 193, 119, 3, 0.447761
253, 2, bw, filler, NA, 999, 999, 3, 32, 166, 147, 133, 192, 97, 97, 1, 2.10747
253, 2, bw, filler, NA, 999, 999, 3, 32, 166, 147, 133, 192, 97, 97, 3, 0.893416
253, 2, bw, filler, NA, 999, 999, 3, 33, 153, 160, 148, 135, 146, 173, 1, 2.20709
253, 2, bw, filler, NA, 999, 999, 3, 33, 153, 160, 148, 135, 146, 173, 2, 0.397045
253, 2, bw, attraction, a-b-db, 14, 1, 3, 34, 56, 125, 135, 60, 60, 135, 2, 1.97894
253, 2, bw, attraction, a-b-db, 14, 1, 3, 34, 56, 125, 135, 60, 60, 135, 1, 0.354202
253, 2, bw, filler, NA, 999, 999, 3, 35, 172, 174, 195, 89, 147, 173, 1, 1.78606
253, 2, bw, filler, NA, 999, 999, 3, 35, 172, 174, 195, 89, 147, 173, 2, 0.617445
253, 2, bw, attraction, a-b-db, 2, 2, 3, 36, 90, 165, 89, 163, 165, 90, 1, 4.02257
253, 2, bw, attraction, a-b-db, 2, 2, 3, 36, 90, 165, 89, 163, 165, 90, 3, 0.835276
253, 2, bw, filler, NA, 999, 999, 3, 37, 144, 97, 156, 147, 97, 57, 2, 17.6797
253, 2, bw, filler, NA, 999, 999, 3, 37, 144, 97, 156, 147, 97, 57, 3, 1.10532
253, 2, bw, attraction, a-b-db, 5, 3, 4, 1, 117, 190, 120, 195, 195, 120, 2, 1.59174
253, 2, bw, attraction, a-b-db, 5, 3, 4, 1, 117, 190, 120, 195, 195, 120, 3, 1.15062
253, 2, bw, attraction, a-b-da, 2, 2, 4, 2, 165, 90, 90, 165, 163, 89, 1, 2.34207
253, 2, bw, attraction, a-b-da, 2, 2, 4, 2, 165, 90, 90, 165, 163, 89, 2, 0.542682
253, 2, bw, attraction, a-b-da, 2, 3, 4, 3, 195, 120, 120, 195, 193, 119, 2, 2.99035
253, 2, bw, attraction, a-b-da, 2, 3, 4, 3, 195, 120, 120, 195, 193, 119, 3, 0.372801
253, 2, bw, attraction, a-b-da, 2, 1, 4, 4, 135, 60, 60, 135, 134, 59, 3, 6.39543
253, 2, bw, attraction, a-b-da, 2, 1, 4, 4, 135, 60, 60, 135, 134, 59, 2, 0.352617
253, 2, bw, catch, NA, 999, 999, 4, 5, 127, 128, 129, 186, 63, 132, 2, 0.880353
253, 2, bw, catch, NA, 999, 999, 4, 5, 127, 128, 129, 186, 63, 132, 3, 0.476112
253, 2, bw, attraction, a-b-da, 14, 3, 4, 6, 120, 195, 195, 120, 181, 111, 1, 1.08656
253, 2, bw, attraction, a-b-da, 14, 3, 4, 6, 120, 195, 195, 120, 181, 111, 3, 0.39427
253, 2, bw, filler, NA, 999, 999, 4, 7, 93, 109, 131, 72, 177, 171, 3, 0.98399
253, 2, bw, filler, NA, 999, 999, 4, 7, 93, 109, 131, 72, 177, 171, 1, 0.607673
253, 2, bw, attraction, a-b-da, 5, 2, 4, 8, 161, 88, 90, 165, 165, 90, 2, 1.74077
253, 2, bw, attraction, a-b-da, 5, 2, 4, 8, 161, 88, 90, 165, 165, 90, 1, 0.180952
253, 2, bw, attraction, a-b-da, 9, 1, 4, 9, 60, 135, 129, 57, 135, 60, 1, 3.0921
253, 2, bw, attraction, a-b-da, 9, 1, 4, 9, 60, 135, 129, 57, 135, 60, 2, 0.350456
253, 2, bw, attraction, a-b-db, 14, 3, 4, 10, 111, 181, 120, 195, 195, 120, 2, 5.54233
253, 2, bw, attraction, a-b-db, 14, 3, 4, 10, 111, 181, 120, 195, 195, 120, 1, 0.557758
253, 2, bw, catch, NA, 999, 999, 4, 11, 99, 96, 102, 153, 171, 144, 3, 0.86891
253, 2, bw, catch, NA, 999, 999, 4, 11, 99, 96, 102, 153, 171, 144, 1, 0.40126
253, 2, bw, attraction, a-b-db, 2, 2, 4, 12, 90, 165, 165, 90, 89, 163, 1, 1.66307
253, 2, bw, attraction, a-b-db, 2, 2, 4, 12, 90, 165, 165, 90, 89, 163, 2, 0.339299
253, 2, bw, attraction, a-b-da, 14, 2, 4, 13, 90, 165, 153, 83, 165, 90, 3, 2.08308
253, 2, bw, attraction, a-b-da, 14, 2, 4, 13, 90, 165, 153, 83, 165, 90, 2, 1.29439
253, 2, bw, filler, NA, 999, 999, 4, 14, 117, 91, 108, 138, 70, 169, 2, 1.66404
253, 2, bw, filler, NA, 999, 999, 4, 14, 117, 91, 108, 138, 70, 169, 1, 0.876149
253, 2, bw, attraction, a-b-db, 9, 3, 4, 15, 114, 186, 195, 120, 120, 195, 3, 5.47844
253, 2, bw, attraction, a-b-db, 9, 3, 4, 15, 114, 186, 195, 120, 120, 195, 1, 0.592791
253, 2, bw, filler, NA, 999, 999, 4, 16, 110, 169, 156, 120, 185, 102, 3, 2.35848
253, 2, bw, filler, NA, 999, 999, 4, 16, 110, 169, 156, 120, 185, 102, 2, 0.630265
253, 2, bw, attraction, a-b-da, 9, 3, 4, 17, 186, 114, 120, 195, 195, 120, 2, 2.21875
253, 2, bw, attraction, a-b-da, 9, 3, 4, 17, 186, 114, 120, 195, 195, 120, 1, 0.432703
253, 2, bw, filler, NA, 999, 999, 4, 18, 93, 144, 134, 78, 113, 176, 3, 0.981229
253, 2, bw, filler, NA, 999, 999, 4, 18, 93, 144, 134, 78, 113, 176, 2, 0.388748
253, 2, bw, attraction, a-b-da, 14, 1, 4, 19, 135, 60, 125, 56, 60, 135, 3, 3.99525
253, 2, bw, attraction, a-b-da, 14, 1, 4, 19, 135, 60, 125, 56, 60, 135, 2, 0.545344
253, 2, bw, filler, NA, 999, 999, 4, 20, 178, 153, 132, 169, 95, 88, 1, 1.45728
253, 2, bw, filler, NA, 999, 999, 4, 20, 178, 153, 132, 169, 95, 88, 3, 0.701266
253, 2, bw, filler, NA, 999, 999, 4, 21, 192, 61, 171, 189, 80, 83, 2, 0.951053
253, 2, bw, filler, NA, 999, 999, 4, 21, 192, 61, 171, 189, 80, 83, 3, 0.816131
253, 2, bw, attraction, a-b-da, 5, 3, 4, 22, 120, 195, 190, 117, 195, 120, 3, 2.08512
253, 2, bw, attraction, a-b-da, 5, 3, 4, 22, 120, 195, 190, 117, 195, 120, 2, 0.480363
253, 2, bw, filler, NA, 999, 999, 4, 23, 125, 144, 181, 80, 80, 185, 1, 1.45886
253, 2, bw, filler, NA, 999, 999, 4, 23, 125, 144, 181, 80, 80, 185, 3, 0.390982
253, 2, bw, filler, NA, 999, 999, 4, 24, 103, 191, 171, 146, 91, 146, 2, 1.17282
253, 2, bw, filler, NA, 999, 999, 4, 24, 103, 191, 171, 146, 91, 146, 3, 0.676413
253, 2, bw, attraction, a-b-db, 9, 2, 4, 25, 86, 157, 90, 165, 165, 90, 2, 5.95091
253, 2, bw, attraction, a-b-db, 9, 2, 4, 25, 86, 157, 90, 165, 165, 90, 1, 0.542266
253, 2, bw, attraction, a-b-db, 14, 2, 4, 26, 165, 90, 83, 153, 90, 165, 1, 1.77413
253, 2, bw, attraction, a-b-db, 14, 2, 4, 26, 165, 90, 83, 153, 90, 165, 3, 0.46951
253, 2, bw, attraction, a-b-db, 2, 1, 4, 27, 135, 60, 59, 134, 60, 135, 1, 2.68861
253, 2, bw, attraction, a-b-db, 2, 1, 4, 27, 135, 60, 59, 134, 60, 135, 2, 0.555103
253, 2, bw, attraction, a-b-da, 5, 1, 4, 28, 135, 60, 132, 58, 60, 135, 1, 2.25092
253, 2, bw, attraction, a-b-da, 5, 1, 4, 28, 135, 60, 132, 58, 60, 135, 2, 0.479446
253, 2, bw, attraction, a-b-da, 9, 2, 4, 29, 90, 165, 157, 86, 165, 90, 3, 1.162
253, 2, bw, attraction, a-b-da, 9, 2, 4, 29, 90, 165, 157, 86, 165, 90, 2, 0.642179
253, 2, bw, filler, NA, 999, 999, 4, 30, 172, 118, 136, 190, 143, 180, 2, 1.51796
253, 2, bw, filler, NA, 999, 999, 4, 30, 172, 118, 136, 190, 143, 180, 3, 1.01614
253, 2, bw, attraction, a-b-db, 2, 3, 4, 31, 119, 193, 120, 195, 195, 120, 2, 1.86903
253, 2, bw, attraction, a-b-db, 2, 3, 4, 31, 119, 193, 120, 195, 195, 120, 3, 0.377214
253, 2, bw, attraction, a-b-db, 14, 1, 4, 32, 135, 60, 56, 125, 60, 135, 1, 5.58355
253, 2, bw, attraction, a-b-db, 14, 1, 4, 32, 135, 60, 56, 125, 60, 135, 2, 0.365829
253, 2, bw, filler, NA, 999, 999, 4, 33, 185, 161, 77, 156, 67, 103, 1, 1.26096
253, 2, bw, filler, NA, 999, 999, 4, 33, 185, 161, 77, 156, 67, 103, 3, 0.489194
253, 2, bw, catch, NA, 999, 999, 4, 34, 107, 88, 150, 165, 116, 139, 2, 1.05172
253, 2, bw, catch, NA, 999, 999, 4, 34, 107, 88, 150, 165, 116, 139, 1, 0.400661
253, 2, bw, attraction, a-b-db, 9, 1, 4, 35, 135, 60, 60, 135, 57, 129, 2, 8.78251
253, 2, bw, attraction, a-b-db, 9, 1, 4, 35, 135, 60, 60, 135, 57, 129, 3, 0.571692
253, 2, bw, attraction, a-b-db, 5, 1, 4, 36, 135, 60, 58, 132, 60, 135, 3, 3.40286
253, 2, bw, attraction, a-b-db, 5, 1, 4, 36, 135, 60, 58, 132, 60, 135, 2, 0.536999
253, 2, bw, attraction, a-b-db, 5, 2, 4, 37, 90, 165, 165, 90, 88, 161, 3, 2.24168
253, 2, bw, attraction, a-b-db, 5, 2, 4, 37, 90, 165, 165, 90, 88, 161, 2, 0.550192
253, 2, bw, catch, NA, 999, 999, 5, 1, 126, 189, 64, 131, 158, 97, 1, 12.4206
253, 2, bw, catch, NA, 999, 999, 5, 1, 126, 189, 64, 131, 158, 97, 2, 0.311228
253, 2, bw, attraction, a-b-db, 2, 3, 5, 2, 120, 195, 119, 193, 195, 120, 3, 3.03245
253, 2, bw, attraction, a-b-db, 2, 3, 5, 2, 120, 195, 119, 193, 195, 120, 2, 0.38947
253, 2, bw, filler, NA, 999, 999, 5, 3, 57, 115, 144, 152, 130, 115, 2, 0.995288
253, 2, bw, filler, NA, 999, 999, 5, 3, 57, 115, 144, 152, 130, 115, 1, 0.378227
253, 2, bw, filler, NA, 999, 999, 5, 4, 167, 154, 68, 79, 173, 178, 3, 0.864744
253, 2, bw, filler, NA, 999, 999, 5, 4, 167, 154, 68, 79, 173, 178, 2, 0.773185
253, 2, bw, catch, NA, 999, 999, 5, 5, 121, 194, 97, 158, 129, 66, 1, 2.36347
253, 2, bw, catch, NA, 999, 999, 5, 5, 121, 194, 97, 158, 129, 66, 3, 2.52335
253, 2, bw, attraction, a-b-da, 2, 3, 5, 6, 193, 119, 120, 195, 195, 120, 2, 13.1392
253, 2, bw, attraction, a-b-da, 2, 3, 5, 6, 193, 119, 120, 195, 195, 120, 1, 1.49712
253, 2, bw, attraction, a-b-da, 2, 1, 5, 7, 135, 60, 134, 59, 60, 135, 2, 3.21051
253, 2, bw, attraction, a-b-da, 2, 1, 5, 7, 135, 60, 134, 59, 60, 135, 3, 0.696211
253, 2, bw, attraction, a-b-da, 2, 2, 5, 8, 163, 89, 165, 90, 90, 165, 3, 2.58596
253, 2, bw, attraction, a-b-da, 2, 2, 5, 8, 163, 89, 165, 90, 90, 165, 2, 0.68127
253, 2, bw, filler, NA, 999, 999, 5, 9, 93, 136, 70, 69, 88, 127, 1, 5.26747
253, 2, bw, filler, NA, 999, 999, 5, 9, 93, 136, 70, 69, 88, 127, 2, 0.37446
253, 2, bw, attraction, a-b-db, 14, 3, 5, 10, 120, 195, 111, 181, 195, 120, 1, 2.60492
253, 2, bw, attraction, a-b-db, 14, 3, 5, 10, 120, 195, 111, 181, 195, 120, 2, 0.85092
253, 2, bw, filler, NA, 999, 999, 5, 11, 81, 91, 134, 166, 191, 179, 3, 1.04649
253, 2, bw, filler, NA, 999, 999, 5, 11, 81, 91, 134, 166, 191, 179, 1, 1.55546
253, 2, bw, attraction, a-b-da, 14, 1, 5, 12, 135, 60, 125, 56, 60, 135, 1, 12.5069
253, 2, bw, attraction, a-b-da, 14, 1, 5, 12, 135, 60, 125, 56, 60, 135, 2, 0.826329
253, 2, bw, catch, NA, 999, 999, 5, 13, 129, 66, 102, 153, 156, 159, 3, 1.19069
253, 2, bw, catch, NA, 999, 999, 5, 13, 129, 66, 102, 153, 156, 159, 1, 1.25362
253, 2, bw, attraction, a-b-da, 5, 2, 5, 14, 165, 90, 90, 165, 161, 88, 2, 1.87314
253, 2, bw, attraction, a-b-da, 5, 2, 5, 14, 165, 90, 90, 165, 161, 88, 3, 2.14865
253, 2, bw, attraction, a-b-db, 2, 1, 5, 15, 59, 134, 135, 60, 60, 135, 2, 14.2918
253, 2, bw, attraction, a-b-db, 2, 1, 5, 15, 59, 134, 135, 60, 60, 135, 3, 1.09137
253, 2, bw, attraction, a-b-db, 2, 2, 5, 16, 90, 165, 89, 163, 165, 90, 3, 11.9889
253, 2, bw, attraction, a-b-db, 2, 2, 5, 16, 90, 165, 89, 163, 165, 90, 2, 0.465128
253, 2, bw, attraction, a-b-db, 9, 1, 5, 17, 57, 129, 135, 60, 60, 135, 2, 7.62823
253, 2, bw, attraction, a-b-db, 9, 1, 5, 17, 57, 129, 135, 60, 60, 135, 1, 0.887942
253, 2, bw, filler, NA, 999, 999, 5, 18, 74, 86, 190, 63, 86, 177, 3, 12.3302
253, 2, bw, filler, NA, 999, 999, 5, 18, 74, 86, 190, 63, 86, 177, 1, 0.528404
253, 2, bw, filler, NA, 999, 999, 5, 19, 158, 176, 122, 75, 124, 165, 1, 1.1687
253, 2, bw, filler, NA, 999, 999, 5, 19, 158, 176, 122, 75, 124, 165, 2, 0.432955
253, 2, bw, attraction, a-b-da, 9, 2, 5, 20, 90, 165, 157, 86, 165, 90, 3, 36.5655
253, 2, bw, attraction, a-b-da, 9, 2, 5, 20, 90, 165, 157, 86, 165, 90, 2, 0.787431
253, 2, bw, attraction, a-b-db, 14, 2, 5, 21, 83, 153, 165, 90, 90, 165, 3, 2.76972
253, 2, bw, attraction, a-b-db, 14, 2, 5, 21, 83, 153, 165, 90, 90, 165, 1, 0.67368
253, 2, bw, filler, NA, 999, 999, 5, 22, 84, 160, 90, 70, 72, 188, 1, 1.30794
253, 2, bw, filler, NA, 999, 999, 5, 22, 84, 160, 90, 70, 72, 188, 2, 0.742176
253, 2, bw, filler, NA, 999, 999, 5, 23, 80, 142, 105, 156, 191, 193, 3, 0.925803
253, 2, bw, filler, NA, 999, 999, 5, 23, 80, 142, 105, 156, 191, 193, 1, 0.679564
253, 2, bw, attraction, a-b-db, 9, 2, 5, 24, 86, 157, 165, 90, 90, 165, 3, 5.20191
253, 2, bw, attraction, a-b-db, 9, 2, 5, 24, 86, 157, 165, 90, 90, 165, 1, 0.487584
253, 2, bw, attraction, a-b-db, 5, 3, 5, 25, 120, 195, 195, 120, 117, 190, 1, 3.50613
253, 2, bw, attraction, a-b-db, 5, 3, 5, 25, 120, 195, 195, 120, 117, 190, 3, 0.539633
253, 2, bw, attraction, a-b-db, 5, 1, 5, 26, 135, 60, 60, 135, 58, 132, 2, 7.53939
253, 2, bw, attraction, a-b-db, 5, 1, 5, 26, 135, 60, 60, 135, 58, 132, 3, 0.635087
253, 2, bw, filler, NA, 999, 999, 5, 27, 173, 130, 147, 181, 125, 100, 2, 1.70345
253, 2, bw, filler, NA, 999, 999, 5, 27, 173, 130, 147, 181, 125, 100, 3, 0.433523
253, 2, bw, attraction, a-b-da, 5, 1, 5, 28, 132, 58, 135, 60, 60, 135, 3, 3.11804
253, 2, bw, attraction, a-b-da, 5, 1, 5, 28, 132, 58, 135, 60, 60, 135, 1, 1.88768
253, 2, bw, attraction, a-b-db, 9, 3, 5, 29, 195, 120, 120, 195, 114, 186, 2, 3.36174
253, 2, bw, attraction, a-b-db, 9, 3, 5, 29, 195, 120, 120, 195, 114, 186, 3, 0.489465
253, 2, bw, attraction, a-b-db, 5, 2, 5, 30, 88, 161, 90, 165, 165, 90, 3, 25.7872
253, 2, bw, attraction, a-b-db, 5, 2, 5, 30, 88, 161, 90, 165, 165, 90, 1, 1.53901
253, 2, bw, attraction, a-b-da, 14, 3, 5, 31, 120, 195, 195, 120, 181, 111, 1, 3.38723
253, 2, bw, attraction, a-b-da, 14, 3, 5, 31, 120, 195, 195, 120, 181, 111, 3, 0.73801
253, 2, bw, attraction, a-b-da, 14, 2, 5, 32, 165, 90, 90, 165, 153, 83, 2, 3.29841
253, 2, bw, attraction, a-b-da, 14, 2, 5, 32, 165, 90, 90, 165, 153, 83, 3, 0.812749
253, 2, bw, attraction, a-b-da, 9, 3, 5, 33, 120, 195, 186, 114, 195, 120, 3, 1.20981
253, 2, bw, attraction, a-b-da, 9, 3, 5, 33, 120, 195, 186, 114, 195, 120, 2, 0.863992
253, 2, bw, attraction, a-b-db, 14, 1, 5, 34, 135, 60, 60, 135, 56, 125, 1, 1.98706
253, 2, bw, attraction, a-b-db, 14, 1, 5, 34, 135, 60, 60, 135, 56, 125, 3, 0.522279
253, 2, bw, attraction, a-b-da, 5, 3, 5, 35, 195, 120, 120, 195, 190, 117, 2, 1.48343
253, 2, bw, attraction, a-b-da, 5, 3, 5, 35, 195, 120, 120, 195, 190, 117, 3, 0.406915
253, 2, bw, attraction, a-b-da, 9, 1, 5, 36, 135, 60, 60, 135, 129, 57, 1, 3.48405
253, 2, bw, attraction, a-b-da, 9, 1, 5, 36, 135, 60, 60, 135, 129, 57, 3, 0.454989
253, 2, bw, filler, NA, 999, 999, 5, 37, 104, 167, 153, 71, 119, 162, 3, 1.58675
253, 2, bw, filler, NA, 999, 999, 5, 37, 104, 167, 153, 71, 119, 162, 2, 1.74638
253, 2, bw, attraction, a-b-da, 2, 2, 6, 1, 163, 89, 90, 165, 165, 90, 1, 5.19369
253, 2, bw, attraction, a-b-da, 2, 2, 6, 1, 163, 89, 90, 165, 165, 90, 3, 1.27943
253, 2, bw, attraction, a-b-db, 5, 1, 6, 2, 60, 135, 135, 60, 58, 132, 1, 2.64164
253, 2, bw, attraction, a-b-db, 5, 1, 6, 2, 60, 135, 135, 60, 58, 132, 3, 0.446166
253, 2, bw, filler, NA, 999, 999, 6, 3, 56, 167, 61, 145, 182, 94, 3, 9.47377
253, 2, bw, filler, NA, 999, 999, 6, 3, 56, 167, 61, 145, 182, 94, 2, 0.699477
253, 2, bw, filler, NA, 999, 999, 6, 4, 61, 153, 79, 113, 172, 75, 3, 2.25326
253, 2, bw, filler, NA, 999, 999, 6, 4, 61, 153, 79, 113, 172, 75, 2, 0.569898
253, 2, bw, catch, NA, 999, 999, 6, 5, 132, 63, 119, 136, 190, 125, 3, 1.92093
253, 2, bw, catch, NA, 999, 999, 6, 5, 132, 63, 119, 136, 190, 125, 1, 0.690994
253, 2, bw, attraction, a-b-db, 9, 2, 6, 6, 86, 157, 90, 165, 165, 90, 2, 11.4527
253, 2, bw, attraction, a-b-db, 9, 2, 6, 6, 86, 157, 90, 165, 165, 90, 1, 0.806423
253, 2, bw, attraction, a-b-db, 14, 2, 6, 7, 165, 90, 83, 153, 90, 165, 3, 3.99554
253, 2, bw, attraction, a-b-db, 14, 2, 6, 7, 165, 90, 83, 153, 90, 165, 2, 0.571446
253, 2, bw, attraction, a-b-db, 5, 3, 6, 8, 120, 195, 117, 190, 195, 120, 1, 3.15282
253, 2, bw, attraction, a-b-db, 5, 3, 6, 8, 120, 195, 117, 190, 195, 120, 2, 0.993071
253, 2, bw, attraction, a-b-db, 14, 3, 6, 9, 111, 181, 120, 195, 195, 120, 2, 1.26252
253, 2, bw, attraction, a-b-db, 14, 3, 6, 9, 111, 181, 120, 195, 195, 120, 1, 0.93073
253, 2, bw, filler, NA, 999, 999, 6, 10, 91, 58, 163, 83, 174, 108, 3, 1.8833
253, 2, bw, filler, NA, 999, 999, 6, 10, 91, 58, 163, 83, 174, 108, 1, 0.606508
253, 2, bw, filler, NA, 999, 999, 6, 11, 127, 60, 76, 184, 172, 113, 3, 1.53172
253, 2, bw, filler, NA, 999, 999, 6, 11, 127, 60, 76, 184, 172, 113, 1, 0.485087
253, 2, bw, attraction, a-b-db, 9, 3, 6, 12, 120, 195, 114, 186, 195, 120, 1, 5.31959
253, 2, bw, attraction, a-b-db, 9, 3, 6, 12, 120, 195, 114, 186, 195, 120, 2, 0.53653
253, 2, bw, attraction, a-b-da, 14, 1, 6, 13, 135, 60, 125, 56, 60, 135, 1, 9.35301
253, 2, bw, attraction, a-b-da, 14, 1, 6, 13, 135, 60, 125, 56, 60, 135, 2, 0.63946
253, 2, bw, attraction, a-b-da, 9, 2, 6, 14, 157, 86, 165, 90, 90, 165, 2, 7.88315
253, 2, bw, attraction, a-b-da, 9, 2, 6, 14, 157, 86, 165, 90, 90, 165, 1, 0.380603
253, 2, bw, attraction, a-b-da, 9, 1, 6, 15, 129, 57, 135, 60, 60, 135, 3, 17.9632
253, 2, bw, attraction, a-b-da, 9, 1, 6, 15, 129, 57, 135, 60, 60, 135, 2, 0.7182
253, 2, bw, attraction, a-b-db, 2, 2, 6, 16, 89, 163, 165, 90, 90, 165, 2, 7.03118
253, 2, bw, attraction, a-b-db, 2, 2, 6, 16, 89, 163, 165, 90, 90, 165, 3, 0.227004
253, 2, bw, catch, NA, 999, 999, 6, 17, 125, 190, 93, 102, 92, 163, 1, 1.48752
253, 2, bw, catch, NA, 999, 999, 6, 17, 125, 190, 93, 102, 92, 163, 2, 0.714292
253, 2, bw, attraction, a-b-da, 2, 1, 6, 18, 135, 60, 134, 59, 60, 135, 3, 8.56337
253, 2, bw, attraction, a-b-da, 2, 1, 6, 18, 135, 60, 134, 59, 60, 135, 2, 0.489365
253, 2, bw, attraction, a-b-da, 2, 3, 6, 19, 195, 120, 193, 119, 120, 195, 3, 19.7071
253, 2, bw, attraction, a-b-da, 2, 3, 6, 19, 195, 120, 193, 119, 120, 195, 2, 0.640378
253, 2, bw, filler, NA, 999, 999, 6, 20, 138, 147, 56, 150, 140, 134, 1, 3.15608
253, 2, bw, filler, NA, 999, 999, 6, 20, 138, 147, 56, 150, 140, 134, 2, 0.547665
253, 2, bw, attraction, a-b-da, 5, 2, 6, 21, 90, 165, 161, 88, 165, 90, 3, 54.5235
253, 2, bw, attraction, a-b-da, 5, 2, 6, 21, 90, 165, 161, 88, 165, 90, 2, 0.576747
253, 2, bw, attraction, a-b-db, 14, 1, 6, 22, 135, 60, 56, 125, 60, 135, 3, 2.25949
253, 2, bw, attraction, a-b-db, 14, 1, 6, 22, 135, 60, 56, 125, 60, 135, 2, 0.623389
253, 2, bw, filler, NA, 999, 999, 6, 23, 154, 72, 185, 63, 95, 101, 2, 1.49191
253, 2, bw, filler, NA, 999, 999, 6, 23, 154, 72, 185, 63, 95, 101, 3, 2.96675
253, 2, bw, attraction, a-b-da, 9, 3, 6, 24, 186, 114, 195, 120, 120, 195, 3, 1.82911
253, 2, bw, attraction, a-b-da, 9, 3, 6, 24, 186, 114, 195, 120, 120, 195, 2, 0.394442
253, 2, bw, attraction, a-b-db, 2, 1, 6, 25, 59, 134, 135, 60, 60, 135, 3, 6.75224
253, 2, bw, attraction, a-b-db, 2, 1, 6, 25, 59, 134, 135, 60, 60, 135, 1, 0.43937
253, 2, bw, attraction, a-b-da, 14, 2, 6, 26, 153, 83, 90, 165, 165, 90, 2, 1.86721
253, 2, bw, attraction, a-b-da, 14, 2, 6, 26, 153, 83, 90, 165, 165, 90, 1, 0.303287
253, 2, bw, attraction, a-b-db, 2, 3, 6, 27, 120, 195, 195, 120, 119, 193, 3, 0.993179
253, 2, bw, attraction, a-b-db, 2, 3, 6, 27, 120, 195, 195, 120, 119, 193, 2, 0.432161
253, 2, bw, filler, NA, 999, 999, 6, 28, 182, 111, 178, 83, 142, 121, 1, 2.01256
253, 2, bw, filler, NA, 999, 999, 6, 28, 182, 111, 178, 83, 142, 121, 3, 4.57871
253, 2, bw, filler, NA, 999, 999, 6, 29, 145, 182, 60, 62, 86, 74, 1, 11.0078
253, 2, bw, filler, NA, 999, 999, 6, 29, 145, 182, 60, 62, 86, 74, 2, 0.587132
253, 2, bw, filler, NA, 999, 999, 6, 30, 78, 172, 64, 56, 112, 187, 3, 1.01745
253, 2, bw, filler, NA, 999, 999, 6, 30, 78, 172, 64, 56, 112, 187, 2, 0.479859
253, 2, bw, filler, NA, 999, 999, 6, 31, 125, 172, 67, 125, 110, 89, 1, 4.17017
253, 2, bw, filler, NA, 999, 999, 6, 31, 125, 172, 67, 125, 110, 89, 3, 1.3536
253, 2, bw, attraction, a-b-db, 5, 2, 6, 32, 90, 165, 88, 161, 165, 90, 1, 2.18498
253, 2, bw, attraction, a-b-db, 5, 2, 6, 32, 90, 165, 88, 161, 165, 90, 2, 0.720227
253, 2, bw, attraction, a-b-da, 5, 1, 6, 33, 60, 135, 132, 58, 135, 60, 3, 1.98552
253, 2, bw, attraction, a-b-da, 5, 1, 6, 33, 60, 135, 132, 58, 135, 60, 2, 0.824741
253, 2, bw, attraction, a-b-da, 14, 3, 6, 34, 120, 195, 181, 111, 195, 120, 3, 2.95708
253, 2, bw, attraction, a-b-da, 14, 3, 6, 34, 120, 195, 181, 111, 195, 120, 2, 0.540834
253, 2, bw, catch, NA, 999, 999, 6, 35, 137, 178, 139, 116, 121, 74, 1, 0.948692
253, 2, bw, catch, NA, 999, 999, 6, 35, 137, 178, 139, 116, 121, 74, 3, 0.78171
253, 2, bw, attraction, a-b-db, 9, 1, 6, 36, 57, 129, 60, 135, 135, 60, 3, 1.36396
253, 2, bw, attraction, a-b-db, 9, 1, 6, 36, 57, 129, 60, 135, 135, 60, 1, 0.380164
253, 2, bw, attraction, a-b-da, 5, 3, 6, 37, 190, 117, 120, 195, 195, 120, 2, 3.89081
253, 2, bw, attraction, a-b-da, 5, 3, 6, 37, 190, 117, 120, 195, 195, 120, 1, 0.160826
253, 2, bw, attraction, a-b-da, 14, 1, 7, 1, 135, 60, 60, 135, 125, 56, 1, 4.21202
253, 2, bw, attraction, a-b-da, 14, 1, 7, 1, 135, 60, 60, 135, 125, 56, 3, 0.761346
253, 2, bw, attraction, a-b-da, 2, 3, 7, 2, 193, 119, 120, 195, 195, 120, 2, 2.83237
253, 2, bw, attraction, a-b-da, 2, 3, 7, 2, 193, 119, 120, 195, 195, 120, 1, 0.357405
253, 2, bw, filler, NA, 999, 999, 7, 3, 137, 192, 100, 154, 185, 96, 1, 1.06056
253, 2, bw, filler, NA, 999, 999, 7, 3, 137, 192, 100, 154, 185, 96, 2, 0.464911
253, 2, bw, filler, NA, 999, 999, 7, 4, 78, 183, 155, 91, 102, 61, 2, 1.00401
253, 2, bw, filler, NA, 999, 999, 7, 4, 78, 183, 155, 91, 102, 61, 3, 0.482317
253, 2, bw, attraction, a-b-db, 14, 1, 7, 5, 135, 60, 56, 125, 60, 135, 3, 2.53281
253, 2, bw, attraction, a-b-db, 14, 1, 7, 5, 135, 60, 56, 125, 60, 135, 2, 0.702021
253, 2, bw, attraction, a-b-db, 5, 1, 7, 6, 135, 60, 60, 135, 58, 132, 2, 3.19174
253, 2, bw, attraction, a-b-db, 5, 1, 7, 6, 135, 60, 60, 135, 58, 132, 3, 0.845995
253, 2, bw, attraction, a-b-db, 14, 2, 7, 7, 90, 165, 165, 90, 83, 153, 2, 1.88172
253, 2, bw, attraction, a-b-db, 14, 2, 7, 7, 90, 165, 165, 90, 83, 153, 3, 0.381172
253, 2, bw, filler, NA, 999, 999, 7, 8, 161, 136, 116, 78, 194, 156, 3, 1.08366
253, 2, bw, filler, NA, 999, 999, 7, 8, 161, 136, 116, 78, 194, 156, 2, 0.359173
253, 2, bw, attraction, a-b-da, 5, 3, 7, 9, 190, 117, 120, 195, 195, 120, 2, 1.45434
253, 2, bw, attraction, a-b-da, 5, 3, 7, 9, 190, 117, 120, 195, 195, 120, 1, 0.68256
253, 2, bw, filler, NA, 999, 999, 7, 10, 91, 84, 127, 159, 111, 92, 2, 5.42897
253, 2, bw, filler, NA, 999, 999, 7, 10, 91, 84, 127, 159, 111, 92, 1, 0.921324
253, 2, bw, attraction, a-b-db, 2, 2, 7, 11, 90, 165, 165, 90, 89, 163, 1, 3.15421
253, 2, bw, attraction, a-b-db, 2, 2, 7, 11, 90, 165, 165, 90, 89, 163, 2, 0.426615
253, 2, bw, catch, NA, 999, 999, 7, 12, 118, 77, 146, 109, 173, 142, 3, 0.951003
253, 2, bw, catch, NA, 999, 999, 7, 12, 118, 77, 146, 109, 173, 142, 1, 0.503997
253, 2, bw, filler, NA, 999, 999, 7, 13, 126, 129, 90, 61, 170, 95, 3, 10.3635
253, 2, bw, filler, NA, 999, 999, 7, 13, 126, 129, 90, 61, 170, 95, 2, 0.687187
253, 2, bw, catch, NA, 999, 999, 7, 14, 108, 87, 133, 182, 95, 160, 2, 0.969542
253, 2, bw, catch, NA, 999, 999, 7, 14, 108, 87, 133, 182, 95, 160, 1, 0.561885
253, 2, bw, attraction, a-b-da, 2, 2, 7, 15, 90, 165, 165, 90, 163, 89, 3, 1.82522
253, 2, bw, attraction, a-b-da, 2, 2, 7, 15, 90, 165, 165, 90, 163, 89, 2, 0.542516
253, 2, bw, filler, NA, 999, 999, 7, 16, 195, 189, 188, 90, 163, 140, 1, 0.942168
253, 2, bw, filler, NA, 999, 999, 7, 16, 195, 189, 188, 90, 163, 140, 3, 1.2793
253, 2, bw, attraction, a-b-db, 14, 3, 7, 17, 120, 195, 195, 120, 111, 181, 1, 2.23343
253, 2, bw, attraction, a-b-db, 14, 3, 7, 17, 120, 195, 195, 120, 111, 181, 3, 13.6067
253, 2, bw, attraction, a-b-db, 9, 2, 7, 18, 90, 165, 165, 90, 86, 157, 2, 12.2644
253, 2, bw, attraction, a-b-db, 9, 2, 7, 18, 90, 165, 165, 90, 86, 157, 3, 0.505153
253, 2, bw, attraction, a-b-db, 9, 1, 7, 19, 60, 135, 57, 129, 135, 60, 3, 46.547
253, 2, bw, attraction, a-b-db, 9, 1, 7, 19, 60, 135, 57, 129, 135, 60, 2, 0.382453
253, 2, bw, attraction, a-b-db, 5, 3, 7, 20, 117, 190, 195, 120, 120, 195, 1, 15.0289
253, 2, bw, attraction, a-b-db, 5, 3, 7, 20, 117, 190, 195, 120, 120, 195, 2, 1.33412
253, 2, bw, attraction, a-b-da, 5, 2, 7, 21, 165, 90, 161, 88, 90, 165, 3, 11.4304
253, 2, bw, attraction, a-b-da, 5, 2, 7, 21, 165, 90, 161, 88, 90, 165, 2, 0.400738
253, 2, bw, attraction, a-b-da, 5, 1, 7, 22, 132, 58, 60, 135, 135, 60, 3, 3.38264
253, 2, bw, attraction, a-b-da, 5, 1, 7, 22, 132, 58, 60, 135, 135, 60, 1, 0.437569
253, 2, bw, attraction, a-b-db, 9, 3, 7, 23, 120, 195, 114, 186, 195, 120, 3, 3.77798
253, 2, bw, attraction, a-b-db, 9, 3, 7, 23, 120, 195, 114, 186, 195, 120, 2, 0.328766
253, 2, bw, attraction, a-b-da, 9, 3, 7, 24, 186, 114, 120, 195, 195, 120, 2, 6.63328
253, 2, bw, attraction, a-b-da, 9, 3, 7, 24, 186, 114, 120, 195, 195, 120, 1, 0.461119
253, 2, bw, attraction, a-b-da, 9, 1, 7, 25, 60, 135, 135, 60, 129, 57, 2, 2.5443
253, 2, bw, attraction, a-b-da, 9, 1, 7, 25, 60, 135, 135, 60, 129, 57, 3, 0.528867
253, 2, bw, attraction, a-b-da, 14, 3, 7, 26, 195, 120, 181, 111, 120, 195, 3, 1.42542
253, 2, bw, attraction, a-b-da, 14, 3, 7, 26, 195, 120, 181, 111, 120, 195, 2, 0.406869
253, 2, bw, attraction, a-b-da, 2, 1, 7, 27, 134, 59, 60, 135, 135, 60, 1, 5.2119
253, 2, bw, attraction, a-b-da, 2, 1, 7, 27, 134, 59, 60, 135, 135, 60, 3, 0.721004
253, 2, bw, attraction, a-b-da, 9, 2, 7, 28, 157, 86, 165, 90, 90, 165, 3, 30.29
253, 2, bw, attraction, a-b-da, 9, 2, 7, 28, 157, 86, 165, 90, 90, 165, 2, 0.580504
253, 2, bw, filler, NA, 999, 999, 7, 29, 105, 66, 161, 77, 164, 90, 3, 30.483
253, 2, bw, filler, NA, 999, 999, 7, 29, 105, 66, 161, 77, 164, 90, 1, 0.66937
253, 2, bw, filler, NA, 999, 999, 7, 30, 188, 111, 85, 113, 114, 88, 1, 0.872438
253, 2, bw, filler, NA, 999, 999, 7, 30, 188, 111, 85, 113, 114, 88, 3, 1.50823
253, 2, bw, attraction, a-b-db, 2, 3, 7, 31, 120, 195, 195, 120, 119, 193, 1, 1.805
253, 2, bw, attraction, a-b-db, 2, 3, 7, 31, 120, 195, 195, 120, 119, 193, 2, 0.659047
253, 2, bw, attraction, a-b-db, 5, 2, 7, 32, 165, 90, 90, 165, 88, 161, 2, 1.66201
253, 2, bw, attraction, a-b-db, 5, 2, 7, 32, 165, 90, 90, 165, 88, 161, 3, 0.354168
253, 2, bw, catch, NA, 999, 999, 7, 33, 130, 65, 186, 129, 110, 145, 2, 0.938052
253, 2, bw, catch, NA, 999, 999, 7, 33, 130, 65, 186, 129, 110, 145, 1, 0.451041
253, 2, bw, attraction, a-b-da, 14, 2, 7, 34, 153, 83, 90, 165, 165, 90, 2, 1.95091
253, 2, bw, attraction, a-b-da, 14, 2, 7, 34, 153, 83, 90, 165, 165, 90, 1, 0.335572
253, 2, bw, filler, NA, 999, 999, 7, 35, 86, 138, 134, 86, 116, 177, 3, 4.3841
253, 2, bw, filler, NA, 999, 999, 7, 35, 86, 138, 134, 86, 116, 177, 2, 0.894699
253, 2, bw, filler, NA, 999, 999, 7, 36, 92, 163, 108, 111, 144, 85, 1, 2.36043
253, 2, bw, filler, NA, 999, 999, 7, 36, 92, 163, 108, 111, 144, 85, 2, 2.16829
253, 2, bw, attraction, a-b-db, 2, 1, 7, 37, 135, 60, 59, 134, 60, 135, 1, 5.289
253, 2, bw, attraction, a-b-db, 2, 1, 7, 37, 135, 60, 59, 134, 60, 135, 3, 5.86465
253, 2, bw, catch, NA, 999, 999, 8, 1, 106, 149, 130, 185, 94, 101, 2, 0.946076
253, 2, bw, catch, NA, 999, 999, 8, 1, 106, 149, 130, 185, 94, 101, 3, 0.698936
253, 2, bw, attraction, a-b-da, 5, 3, 8, 2, 120, 195, 190, 117, 195, 120, 3, 1.3806
253, 2, bw, attraction, a-b-da, 5, 3, 8, 2, 120, 195, 190, 117, 195, 120, 2, 0.892179
253, 2, bw, attraction, a-b-db, 9, 2, 8, 3, 165, 90, 90, 165, 86, 157, 3, 5.32588
253, 2, bw, attraction, a-b-db, 9, 2, 8, 3, 165, 90, 90, 165, 86, 157, 2, 0.806155
253, 2, bw, filler, NA, 999, 999, 8, 4, 134, 115, 63, 73, 165, 185, 3, 0.643784
253, 2, bw, filler, NA, 999, 999, 8, 4, 134, 115, 63, 73, 165, 185, 2, 0.489013
253, 2, bw, filler, NA, 999, 999, 8, 5, 117, 120, 112, 143, 90, 58, 2, 0.955447
253, 2, bw, filler, NA, 999, 999, 8, 5, 117, 120, 112, 143, 90, 58, 3, 0.707768
253, 2, bw, attraction, a-b-db, 5, 3, 8, 6, 117, 190, 120, 195, 195, 120, 2, 2.43681
253, 2, bw, attraction, a-b-db, 5, 3, 8, 6, 117, 190, 120, 195, 195, 120, 1, 1.09814
253, 2, bw, attraction, a-b-db, 5, 2, 8, 7, 88, 161, 165, 90, 90, 165, 3, 25.8836
253, 2, bw, attraction, a-b-db, 5, 2, 8, 7, 88, 161, 165, 90, 90, 165, 1, 0.399611
253, 2, bw, attraction, a-b-da, 14, 3, 8, 8, 120, 195, 181, 111, 195, 120, 1, 1.32528
253, 2, bw, attraction, a-b-da, 14, 3, 8, 8, 120, 195, 181, 111, 195, 120, 2, 0.350825
253, 2, bw, attraction, a-b-db, 2, 1, 8, 9, 135, 60, 59, 134, 60, 135, 1, 22.5987
253, 2, bw, attraction, a-b-db, 2, 1, 8, 9, 135, 60, 59, 134, 60, 135, 2, 0.367024
253, 2, bw, attraction, a-b-db, 14, 1, 8, 10, 60, 135, 56, 125, 135, 60, 3, 19.3741
253, 2, bw, attraction, a-b-db, 14, 1, 8, 10, 60, 135, 56, 125, 135, 60, 2, 0.400697
253, 2, bw, attraction, a-b-da, 9, 2, 8, 11, 157, 86, 165, 90, 90, 165, 3, 2.52653
253, 2, bw, attraction, a-b-da, 9, 2, 8, 11, 157, 86, 165, 90, 90, 165, 2, 0.679765
253, 2, bw, attraction, a-b-da, 9, 1, 8, 12, 129, 57, 60, 135, 135, 60, 2, 15.1221
253, 2, bw, attraction, a-b-da, 9, 1, 8, 12, 129, 57, 60, 135, 135, 60, 1, 1.43208
253, 2, bw, attraction, a-b-db, 9, 3, 8, 13, 195, 120, 120, 195, 114, 186, 2, 3.13221
253, 2, bw, attraction, a-b-db, 9, 3, 8, 13, 195, 120, 120, 195, 114, 186, 3, 0.317278
253, 2, bw, attraction, a-b-da, 2, 3, 8, 14, 193, 119, 195, 120, 120, 195, 3, 1.64647
253, 2, bw, attraction, a-b-da, 2, 3, 8, 14, 193, 119, 195, 120, 120, 195, 2, 0.98737
253, 2, bw, attraction, a-b-db, 9, 1, 8, 15, 135, 60, 60, 135, 57, 129, 3, 3.66544
253, 2, bw, attraction, a-b-db, 9, 1, 8, 15, 135, 60, 60, 135, 57, 129, 2, 2.02901
253, 2, bw, attraction, a-b-da, 2, 2, 8, 16, 165, 90, 163, 89, 90, 165, 3, 1.50503
253, 2, bw, attraction, a-b-da, 2, 2, 8, 16, 165, 90, 163, 89, 90, 165, 2, 0.307115
253, 2, bw, filler, NA, 999, 999, 8, 17, 147, 89, 93, 174, 56, 90, 2, 0.884264
253, 2, bw, filler, NA, 999, 999, 8, 17, 147, 89, 93, 174, 56, 90, 3, 0.271939
253, 2, bw, catch, NA, 999, 999, 8, 18, 115, 140, 82, 113, 176, 139, 3, 8.59523
253, 2, bw, catch, NA, 999, 999, 8, 18, 115, 140, 82, 113, 176, 139, 2, 2.05586
253, 2, bw, attraction, a-b-db, 14, 3, 8, 19, 111, 181, 120, 195, 195, 120, 2, 2.03505
253, 2, bw, attraction, a-b-db, 14, 3, 8, 19, 111, 181, 120, 195, 195, 120, 1, 1.20057
253, 2, bw, filler, NA, 999, 999, 8, 20, 63, 158, 143, 144, 109, 76, 2, 5.92608
253, 2, bw, filler, NA, 999, 999, 8, 20, 63, 158, 143, 144, 109, 76, 3, 0.468313
253, 2, bw, catch, NA, 999, 999, 8, 21, 77, 118, 117, 138, 130, 185, 3, 0.705255
253, 2, bw, catch, NA, 999, 999, 8, 21, 77, 118, 117, 138, 130, 185, 1, 0.523626
253, 2, bw, filler, NA, 999, 999, 8, 22, 64, 183, 61, 134, 152, 159, 3, 0.596133
253, 2, bw, filler, NA, 999, 999, 8, 22, 64, 183, 61, 134, 152, 159, 2, 0.507272
253, 2, bw, attraction, a-b-da, 5, 2, 8, 23, 161, 88, 165, 90, 90, 165, 3, 2.58029
253, 2, bw, attraction, a-b-da, 5, 2, 8, 23, 161, 88, 165, 90, 90, 165, 2, 0.875462
253, 2, bw, attraction, a-b-da, 14, 2, 8, 24, 153, 83, 90, 165, 165, 90, 2, 2.76584
253, 2, bw, attraction, a-b-da, 14, 2, 8, 24, 153, 83, 90, 165, 165, 90, 1, 0.349594
253, 2, bw, attraction, a-b-db, 5, 1, 8, 25, 135, 60, 58, 132, 60, 135, 3, 2.75743
253, 2, bw, attraction, a-b-db, 5, 1, 8, 25, 135, 60, 58, 132, 60, 135, 2, 0.428404
253, 2, bw, attraction, a-b-db, 2, 2, 8, 26, 165, 90, 89, 163, 90, 165, 3, 3.66576
253, 2, bw, attraction, a-b-db, 2, 2, 8, 26, 165, 90, 89, 163, 90, 165, 1, 1.34934
253, 2, bw, attraction, a-b-db, 2, 3, 8, 27, 195, 120, 120, 195, 119, 193, 2, 4.33273
253, 2, bw, attraction, a-b-db, 2, 3, 8, 27, 195, 120, 120, 195, 119, 193, 3, 0.261437
253, 2, bw, filler, NA, 999, 999, 8, 28, 100, 124, 119, 98, 153, 192, 3, 0.792541
253, 2, bw, filler, NA, 999, 999, 8, 28, 100, 124, 119, 98, 153, 192, 2, 0.671568
253, 2, bw, filler, NA, 999, 999, 8, 29, 77, 173, 181, 123, 109, 66, 2, 5.17877
253, 2, bw, filler, NA, 999, 999, 8, 29, 77, 173, 181, 123, 109, 66, 3, 0.441033
253, 2, bw, filler, NA, 999, 999, 8, 30, 116, 84, 64, 113, 64, 145, 1, 4.10887
253, 2, bw, filler, NA, 999, 999, 8, 30, 116, 84, 64, 113, 64, 145, 2, 0.406226
253, 2, bw, attraction, a-b-da, 5, 1, 8, 31, 132, 58, 135, 60, 60, 135, 2, 2.97133
253, 2, bw, attraction, a-b-da, 5, 1, 8, 31, 132, 58, 135, 60, 60, 135, 1, 0.442265
253, 2, bw, filler, NA, 999, 999, 8, 32, 183, 56, 72, 110, 171, 61, 3, 1.67031
253, 2, bw, filler, NA, 999, 999, 8, 32, 183, 56, 72, 110, 171, 61, 2, 0.738212
253, 2, bw, attraction, a-b-da, 2, 1, 8, 33, 60, 135, 134, 59, 135, 60, 1, 1.47463
253, 2, bw, attraction, a-b-da, 2, 1, 8, 33, 60, 135, 134, 59, 135, 60, 3, 2.03819
253, 2, bw, attraction, a-b-da, 14, 1, 8, 34, 135, 60, 125, 56, 60, 135, 3, 4.47413
253, 2, bw, attraction, a-b-da, 14, 1, 8, 34, 135, 60, 125, 56, 60, 135, 2, 0.436669
253, 2, bw, filler, NA, 999, 999, 8, 35, 93, 146, 99, 78, 158, 107, 3, 6.98529
253, 2, bw, filler, NA, 999, 999, 8, 35, 93, 146, 99, 78, 158, 107, 2, 0.510985
253, 2, bw, attraction, a-b-db, 14, 2, 8, 36, 90, 165, 165, 90, 83, 153, 1, 4.42407
253, 2, bw, attraction, a-b-db, 14, 2, 8, 36, 90, 165, 165, 90, 83, 153, 3, 0.316665
253, 2, bw, attraction, a-b-da, 9, 3, 8, 37, 195, 120, 186, 114, 120, 195, 3, 5.63782
253, 2, bw, attraction, a-b-da, 9, 3, 8, 37, 195, 120, 186, 114, 120, 195, 2, 0.673507
