sub_n, computer_n, bw_cond, effect, set, distance, diag, block_n, trial_n, h1, w1, h2, w2, h3, w3, choice, rt 
264, 2, wb, practice, NA, 999, 999, 0, 1, 193, 123, 151, 126, 157, 81, 3, 3.93715
264, 2, wb, practice, NA, 999, 999, 0, 1, 193, 123, 151, 126, 157, 81, 1, 2.70637
264, 2, wb, practice, NA, 999, 999, 0, 2, 164, 118, 147, 119, 89, 136, 3, 1.83824
264, 2, wb, practice, NA, 999, 999, 0, 2, 164, 118, 147, 119, 89, 136, 1, 2.10244
264, 2, wb, practice, NA, 999, 999, 0, 3, 142, 145, 88, 107, 184, 112, 2, 2.14566
264, 2, wb, practice, NA, 999, 999, 0, 3, 142, 145, 88, 107, 184, 112, 3, 2.79444
264, 2, wb, attraction, a-b-db, 2, 2, 1, 1, 89, 163, 90, 165, 165, 90, 3, 4.36907
264, 2, wb, attraction, a-b-db, 2, 2, 1, 1, 89, 163, 90, 165, 165, 90, 2, 1.33633
264, 2, wb, filler, NA, 999, 999, 1, 2, 164, 160, 173, 88, 120, 80, 3, 13.0404
264, 2, wb, filler, NA, 999, 999, 1, 2, 164, 160, 173, 88, 120, 80, 1, 0.450381
264, 2, wb, filler, NA, 999, 999, 1, 3, 129, 164, 150, 127, 114, 175, 2, 2.80624
264, 2, wb, filler, NA, 999, 999, 1, 3, 129, 164, 150, 127, 114, 175, 1, 1.09206
264, 2, wb, attraction, a-b-da, 2, 2, 1, 4, 90, 165, 165, 90, 163, 89, 1, 1.10154
264, 2, wb, attraction, a-b-da, 2, 2, 1, 4, 90, 165, 165, 90, 163, 89, 3, 0.936709
264, 2, wb, attraction, a-b-da, 9, 2, 1, 5, 90, 165, 157, 86, 165, 90, 3, 2.64084
264, 2, wb, attraction, a-b-da, 9, 2, 1, 5, 90, 165, 157, 86, 165, 90, 1, 1.02128
264, 2, wb, filler, NA, 999, 999, 1, 6, 127, 128, 166, 173, 171, 115, 1, 1.96218
264, 2, wb, filler, NA, 999, 999, 1, 6, 127, 128, 166, 173, 171, 115, 2, 0.554265
264, 2, wb, attraction, a-b-db, 14, 2, 1, 7, 165, 90, 83, 153, 90, 165, 1, 3.75411
264, 2, wb, attraction, a-b-db, 14, 2, 1, 7, 165, 90, 83, 153, 90, 165, 3, 1.87426
264, 2, wb, attraction, a-b-da, 5, 1, 1, 8, 60, 135, 132, 58, 135, 60, 2, 3.60422
264, 2, wb, attraction, a-b-da, 5, 1, 1, 8, 60, 135, 132, 58, 135, 60, 1, 1.73043
264, 2, wb, attraction, a-b-da, 2, 3, 1, 9, 120, 195, 195, 120, 193, 119, 3, 2.25847
264, 2, wb, attraction, a-b-da, 2, 3, 1, 9, 120, 195, 195, 120, 193, 119, 1, 0.366311
264, 2, wb, attraction, a-b-db, 9, 1, 1, 10, 135, 60, 57, 129, 60, 135, 1, 2.31759
264, 2, wb, attraction, a-b-db, 9, 1, 1, 10, 135, 60, 57, 129, 60, 135, 3, 1.42345
264, 2, wb, attraction, a-b-da, 9, 1, 1, 11, 135, 60, 60, 135, 129, 57, 3, 2.53157
264, 2, wb, attraction, a-b-da, 9, 1, 1, 11, 135, 60, 60, 135, 129, 57, 2, 1.06883
264, 2, wb, attraction, a-b-db, 2, 3, 1, 12, 195, 120, 120, 195, 119, 193, 1, 4.19172
264, 2, wb, attraction, a-b-db, 2, 3, 1, 12, 195, 120, 120, 195, 119, 193, 3, 0.41376
264, 2, wb, attraction, a-b-db, 5, 2, 1, 13, 90, 165, 88, 161, 165, 90, 3, 1.50686
264, 2, wb, attraction, a-b-db, 5, 2, 1, 13, 90, 165, 88, 161, 165, 90, 1, 0.365023
264, 2, wb, attraction, a-b-db, 5, 3, 1, 14, 195, 120, 120, 195, 117, 190, 1, 1.10832
264, 2, wb, attraction, a-b-db, 5, 3, 1, 14, 195, 120, 120, 195, 117, 190, 2, 0.718607
264, 2, wb, catch, NA, 999, 999, 1, 15, 152, 103, 65, 130, 182, 133, 2, 1.06359
264, 2, wb, catch, NA, 999, 999, 1, 15, 152, 103, 65, 130, 182, 133, 3, 0.803989
264, 2, wb, catch, NA, 999, 999, 1, 16, 165, 150, 147, 108, 103, 92, 3, 1.53758
264, 2, wb, catch, NA, 999, 999, 1, 16, 165, 150, 147, 108, 103, 92, 1, 0.394374
264, 2, wb, filler, NA, 999, 999, 1, 17, 85, 154, 163, 109, 119, 114, 1, 5.38413
264, 2, wb, filler, NA, 999, 999, 1, 17, 85, 154, 163, 109, 119, 114, 3, 2.6625
264, 2, wb, attraction, a-b-da, 14, 3, 1, 18, 181, 111, 120, 195, 195, 120, 1, 1.85697
264, 2, wb, attraction, a-b-da, 14, 3, 1, 18, 181, 111, 120, 195, 195, 120, 2, 0.46099
264, 2, wb, catch, NA, 999, 999, 1, 19, 95, 100, 172, 143, 113, 142, 1, 0.928157
264, 2, wb, catch, NA, 999, 999, 1, 19, 95, 100, 172, 143, 113, 142, 2, 1.30582
264, 2, wb, attraction, a-b-db, 14, 3, 1, 20, 111, 181, 195, 120, 120, 195, 1, 2.06752
264, 2, wb, attraction, a-b-db, 14, 3, 1, 20, 111, 181, 195, 120, 120, 195, 3, 0.751382
264, 2, wb, attraction, a-b-db, 5, 1, 1, 21, 135, 60, 60, 135, 58, 132, 1, 3.23109
264, 2, wb, attraction, a-b-db, 5, 1, 1, 21, 135, 60, 60, 135, 58, 132, 2, 0.851965
264, 2, wb, filler, NA, 999, 999, 1, 22, 91, 151, 174, 114, 175, 191, 1, 0.599685
264, 2, wb, filler, NA, 999, 999, 1, 22, 91, 151, 174, 114, 175, 191, 3, 0.614848
264, 2, wb, filler, NA, 999, 999, 1, 23, 57, 128, 132, 156, 146, 98, 1, 0.659842
264, 2, wb, filler, NA, 999, 999, 1, 23, 57, 128, 132, 156, 146, 98, 2, 1.48027
264, 2, wb, attraction, a-b-db, 9, 2, 1, 24, 86, 157, 165, 90, 90, 165, 2, 1.5066
264, 2, wb, attraction, a-b-db, 9, 2, 1, 24, 86, 157, 165, 90, 90, 165, 3, 1.15674
264, 2, wb, filler, NA, 999, 999, 1, 25, 193, 157, 109, 92, 74, 84, 3, 1.12349
264, 2, wb, filler, NA, 999, 999, 1, 25, 193, 157, 109, 92, 74, 84, 1, 0.541126
264, 2, wb, attraction, a-b-da, 9, 3, 1, 26, 120, 195, 186, 114, 195, 120, 2, 2.34891
264, 2, wb, attraction, a-b-da, 9, 3, 1, 26, 120, 195, 186, 114, 195, 120, 1, 1.13345
264, 2, wb, attraction, a-b-da, 5, 3, 1, 27, 195, 120, 190, 117, 120, 195, 3, 0.685763
264, 2, wb, attraction, a-b-da, 5, 3, 1, 27, 195, 120, 190, 117, 120, 195, 2, 0.969547
264, 2, wb, attraction, a-b-da, 14, 1, 1, 28, 125, 56, 135, 60, 60, 135, 1, 2.06464
264, 2, wb, attraction, a-b-da, 14, 1, 1, 28, 125, 56, 135, 60, 60, 135, 2, 0.740439
264, 2, wb, attraction, a-b-da, 2, 1, 1, 29, 134, 59, 60, 135, 135, 60, 3, 2.80423
264, 2, wb, attraction, a-b-da, 2, 1, 1, 29, 134, 59, 60, 135, 135, 60, 2, 0.521933
264, 2, wb, filler, NA, 999, 999, 1, 30, 86, 190, 119, 68, 173, 166, 2, 1.29103
264, 2, wb, filler, NA, 999, 999, 1, 30, 86, 190, 119, 68, 173, 166, 3, 0.294083
264, 2, wb, attraction, a-b-da, 5, 2, 1, 31, 161, 88, 165, 90, 90, 165, 2, 2.11182
264, 2, wb, attraction, a-b-da, 5, 2, 1, 31, 161, 88, 165, 90, 90, 165, 3, 0.353765
264, 2, wb, attraction, a-b-db, 2, 1, 1, 32, 135, 60, 60, 135, 59, 134, 1, 1.60157
264, 2, wb, attraction, a-b-db, 2, 1, 1, 32, 135, 60, 60, 135, 59, 134, 2, 0.432404
264, 2, wb, attraction, a-b-db, 9, 3, 1, 33, 120, 195, 114, 186, 195, 120, 3, 2.62896
264, 2, wb, attraction, a-b-db, 9, 3, 1, 33, 120, 195, 114, 186, 195, 120, 1, 0.770137
264, 2, wb, filler, NA, 999, 999, 1, 34, 114, 122, 111, 83, 57, 74, 3, 0.649134
264, 2, wb, filler, NA, 999, 999, 1, 34, 114, 122, 111, 83, 57, 74, 1, 0.830194
264, 2, wb, attraction, a-b-da, 14, 2, 1, 35, 90, 165, 153, 83, 165, 90, 2, 1.1306
264, 2, wb, attraction, a-b-da, 14, 2, 1, 35, 90, 165, 153, 83, 165, 90, 3, 0.644362
264, 2, wb, filler, NA, 999, 999, 1, 36, 121, 185, 175, 99, 116, 170, 2, 0.975973
264, 2, wb, filler, NA, 999, 999, 1, 36, 121, 185, 175, 99, 116, 170, 1, 1.13555
264, 2, wb, attraction, a-b-db, 14, 1, 1, 37, 56, 125, 60, 135, 135, 60, 1, 0.983926
264, 2, wb, attraction, a-b-db, 14, 1, 1, 37, 56, 125, 60, 135, 135, 60, 2, 0.415509
264, 2, wb, attraction, a-b-db, 5, 1, 2, 1, 135, 60, 60, 135, 58, 132, 1, 0.604643
264, 2, wb, attraction, a-b-db, 5, 1, 2, 1, 135, 60, 60, 135, 58, 132, 2, 0.571108
264, 2, wb, attraction, a-b-da, 14, 3, 2, 2, 120, 195, 195, 120, 181, 111, 3, 1.05828
264, 2, wb, attraction, a-b-da, 14, 3, 2, 2, 120, 195, 195, 120, 181, 111, 1, 0.566604
264, 2, wb, attraction, a-b-da, 9, 3, 2, 3, 186, 114, 120, 195, 195, 120, 3, 2.57376
264, 2, wb, attraction, a-b-da, 9, 3, 2, 3, 186, 114, 120, 195, 195, 120, 2, 0.876902
264, 2, wb, filler, NA, 999, 999, 2, 4, 70, 138, 88, 73, 166, 187, 2, 0.999071
264, 2, wb, filler, NA, 999, 999, 2, 4, 70, 138, 88, 73, 166, 187, 3, 0.286136
264, 2, wb, filler, NA, 999, 999, 2, 5, 119, 134, 101, 156, 115, 91, 3, 0.896628
264, 2, wb, filler, NA, 999, 999, 2, 5, 119, 134, 101, 156, 115, 91, 1, 0.379653
264, 2, wb, attraction, a-b-db, 9, 3, 2, 6, 114, 186, 195, 120, 120, 195, 2, 1.06618
264, 2, wb, attraction, a-b-db, 9, 3, 2, 6, 114, 186, 195, 120, 120, 195, 3, 0.606483
264, 2, wb, filler, NA, 999, 999, 2, 7, 158, 70, 165, 134, 99, 57, 3, 0.739531
264, 2, wb, filler, NA, 999, 999, 2, 7, 158, 70, 165, 134, 99, 57, 2, 0.300768
264, 2, wb, catch, NA, 999, 999, 2, 8, 116, 79, 127, 188, 95, 160, 1, 0.726409
264, 2, wb, catch, NA, 999, 999, 2, 8, 116, 79, 127, 188, 95, 160, 2, 1.12815
264, 2, wb, attraction, a-b-db, 14, 3, 2, 9, 120, 195, 195, 120, 111, 181, 2, 1.27254
264, 2, wb, attraction, a-b-db, 14, 3, 2, 9, 120, 195, 195, 120, 111, 181, 1, 0.252011
264, 2, wb, attraction, a-b-da, 14, 2, 2, 10, 153, 83, 165, 90, 90, 165, 1, 0.607847
264, 2, wb, attraction, a-b-da, 14, 2, 2, 10, 153, 83, 165, 90, 90, 165, 2, 0.382325
264, 2, wb, attraction, a-b-db, 5, 2, 2, 11, 90, 165, 88, 161, 165, 90, 3, 1.82893
264, 2, wb, attraction, a-b-db, 5, 2, 2, 11, 90, 165, 88, 161, 165, 90, 1, 1.4183
264, 2, wb, filler, NA, 999, 999, 2, 12, 95, 110, 95, 88, 94, 136, 2, 1.00707
264, 2, wb, filler, NA, 999, 999, 2, 12, 95, 110, 95, 88, 94, 136, 3, 0.445325
264, 2, wb, attraction, a-b-da, 5, 1, 2, 13, 60, 135, 132, 58, 135, 60, 1, 1.40115
264, 2, wb, attraction, a-b-da, 5, 1, 2, 13, 60, 135, 132, 58, 135, 60, 2, 0.407989
264, 2, wb, attraction, a-b-db, 2, 1, 2, 14, 135, 60, 60, 135, 59, 134, 1, 0.805264
264, 2, wb, attraction, a-b-db, 2, 1, 2, 14, 135, 60, 60, 135, 59, 134, 2, 0.563663
264, 2, wb, filler, NA, 999, 999, 2, 15, 167, 100, 108, 74, 69, 158, 2, 5.70673
264, 2, wb, filler, NA, 999, 999, 2, 15, 167, 100, 108, 74, 69, 158, 1, 0.25947
264, 2, wb, attraction, a-b-db, 14, 2, 2, 16, 165, 90, 83, 153, 90, 165, 2, 1.43875
264, 2, wb, attraction, a-b-db, 14, 2, 2, 16, 165, 90, 83, 153, 90, 165, 3, 0.667609
264, 2, wb, filler, NA, 999, 999, 2, 17, 66, 191, 157, 131, 67, 92, 3, 1.03083
264, 2, wb, filler, NA, 999, 999, 2, 17, 66, 191, 157, 131, 67, 92, 2, 0.316303
264, 2, wb, attraction, a-b-da, 5, 3, 2, 18, 190, 117, 120, 195, 195, 120, 1, 1.5576
264, 2, wb, attraction, a-b-da, 5, 3, 2, 18, 190, 117, 120, 195, 195, 120, 2, 0.725664
264, 2, wb, filler, NA, 999, 999, 2, 19, 187, 129, 160, 65, 171, 80, 2, 2.56603
264, 2, wb, filler, NA, 999, 999, 2, 19, 187, 129, 160, 65, 171, 80, 1, 0.317843
264, 2, wb, attraction, a-b-da, 2, 2, 2, 20, 90, 165, 163, 89, 165, 90, 3, 3.14302
264, 2, wb, attraction, a-b-da, 2, 2, 2, 20, 90, 165, 163, 89, 165, 90, 2, 0.695287
264, 2, wb, attraction, a-b-da, 9, 1, 2, 21, 60, 135, 135, 60, 129, 57, 3, 2.64906
264, 2, wb, attraction, a-b-da, 9, 1, 2, 21, 60, 135, 135, 60, 129, 57, 1, 1.45358
264, 2, wb, attraction, a-b-da, 2, 1, 2, 22, 60, 135, 134, 59, 135, 60, 1, 0.9851
264, 2, wb, attraction, a-b-da, 2, 1, 2, 22, 60, 135, 134, 59, 135, 60, 2, 0.288654
264, 2, wb, attraction, a-b-da, 2, 3, 2, 23, 195, 120, 193, 119, 120, 195, 1, 2.57123
264, 2, wb, attraction, a-b-da, 2, 3, 2, 23, 195, 120, 193, 119, 120, 195, 3, 0.658425
264, 2, wb, catch, NA, 999, 999, 2, 24, 91, 104, 167, 148, 110, 145, 1, 2.58148
264, 2, wb, catch, NA, 999, 999, 2, 24, 91, 104, 167, 148, 110, 145, 2, 0.500638
264, 2, wb, attraction, a-b-da, 14, 1, 2, 25, 60, 135, 135, 60, 125, 56, 3, 2.59852
264, 2, wb, attraction, a-b-da, 14, 1, 2, 25, 60, 135, 135, 60, 125, 56, 1, 1.20485
264, 2, wb, filler, NA, 999, 999, 2, 26, 89, 88, 177, 181, 80, 171, 1, 0.562425
264, 2, wb, filler, NA, 999, 999, 2, 26, 89, 88, 177, 181, 80, 171, 2, 0.362876
264, 2, wb, filler, NA, 999, 999, 2, 27, 119, 181, 104, 62, 128, 135, 2, 1.11412
264, 2, wb, filler, NA, 999, 999, 2, 27, 119, 181, 104, 62, 128, 135, 1, 0.428411
264, 2, wb, attraction, a-b-db, 2, 2, 2, 28, 165, 90, 90, 165, 89, 163, 1, 1.08889
264, 2, wb, attraction, a-b-db, 2, 2, 2, 28, 165, 90, 90, 165, 89, 163, 2, 0.539854
264, 2, wb, attraction, a-b-db, 9, 1, 2, 29, 135, 60, 60, 135, 57, 129, 1, 1.30758
264, 2, wb, attraction, a-b-db, 9, 1, 2, 29, 135, 60, 60, 135, 57, 129, 2, 0.957817
264, 2, wb, attraction, a-b-db, 9, 2, 2, 30, 165, 90, 86, 157, 90, 165, 1, 1.36473
264, 2, wb, attraction, a-b-db, 9, 2, 2, 30, 165, 90, 86, 157, 90, 165, 3, 1.09305
264, 2, wb, filler, NA, 999, 999, 2, 31, 126, 145, 165, 61, 133, 70, 2, 0.862573
264, 2, wb, filler, NA, 999, 999, 2, 31, 126, 145, 165, 61, 133, 70, 1, 0.30695
264, 2, wb, catch, NA, 999, 999, 2, 32, 82, 113, 157, 158, 92, 163, 1, 0.804216
264, 2, wb, catch, NA, 999, 999, 2, 32, 82, 113, 157, 158, 92, 163, 2, 0.282561
264, 2, wb, attraction, a-b-db, 14, 1, 2, 33, 135, 60, 56, 125, 60, 135, 2, 2.20511
264, 2, wb, attraction, a-b-db, 14, 1, 2, 33, 135, 60, 56, 125, 60, 135, 3, 0.947076
264, 2, wb, attraction, a-b-da, 5, 2, 2, 34, 90, 165, 161, 88, 165, 90, 3, 1.97868
264, 2, wb, attraction, a-b-da, 5, 2, 2, 34, 90, 165, 161, 88, 165, 90, 1, 0.562036
264, 2, wb, attraction, a-b-db, 5, 3, 2, 35, 195, 120, 120, 195, 117, 190, 1, 2.2971
264, 2, wb, attraction, a-b-db, 5, 3, 2, 35, 195, 120, 120, 195, 117, 190, 2, 0.507713
264, 2, wb, attraction, a-b-db, 2, 3, 2, 36, 195, 120, 119, 193, 120, 195, 1, 1.50102
264, 2, wb, attraction, a-b-db, 2, 3, 2, 36, 195, 120, 119, 193, 120, 195, 2, 0.311693
264, 2, wb, attraction, a-b-da, 9, 2, 2, 37, 90, 165, 157, 86, 165, 90, 1, 0.832959
264, 2, wb, attraction, a-b-da, 9, 2, 2, 37, 90, 165, 157, 86, 165, 90, 2, 0.614535
264, 2, wb, filler, NA, 999, 999, 3, 1, 154, 117, 178, 77, 85, 192, 2, 0.707613
264, 2, wb, filler, NA, 999, 999, 3, 1, 154, 117, 178, 77, 85, 192, 1, 0.246168
264, 2, wb, attraction, a-b-db, 5, 2, 3, 2, 90, 165, 88, 161, 165, 90, 3, 1.73791
264, 2, wb, attraction, a-b-db, 5, 2, 3, 2, 90, 165, 88, 161, 165, 90, 1, 0.546708
264, 2, wb, attraction, a-b-db, 2, 1, 3, 3, 59, 134, 135, 60, 60, 135, 2, 0.690427
264, 2, wb, attraction, a-b-db, 2, 1, 3, 3, 59, 134, 135, 60, 60, 135, 3, 0.325701
264, 2, wb, attraction, a-b-da, 5, 3, 3, 4, 120, 195, 195, 120, 190, 117, 3, 0.870137
264, 2, wb, attraction, a-b-da, 5, 3, 3, 4, 120, 195, 195, 120, 190, 117, 1, 0.674403
264, 2, wb, filler, NA, 999, 999, 3, 5, 163, 179, 165, 102, 186, 181, 2, 0.844831
264, 2, wb, filler, NA, 999, 999, 3, 5, 163, 179, 165, 102, 186, 181, 3, 0.426166
264, 2, wb, attraction, a-b-db, 2, 2, 3, 6, 90, 165, 165, 90, 89, 163, 2, 0.686343
264, 2, wb, attraction, a-b-db, 2, 2, 3, 6, 90, 165, 165, 90, 89, 163, 1, 0.217419
264, 2, wb, attraction, a-b-da, 9, 2, 3, 7, 165, 90, 90, 165, 157, 86, 3, 0.590624
264, 2, wb, attraction, a-b-da, 9, 2, 3, 7, 165, 90, 90, 165, 157, 86, 2, 0.229775
264, 2, wb, attraction, a-b-da, 9, 1, 3, 8, 129, 57, 60, 135, 135, 60, 1, 0.866273
264, 2, wb, attraction, a-b-da, 9, 1, 3, 8, 129, 57, 60, 135, 135, 60, 2, 0.958694
264, 2, wb, attraction, a-b-da, 5, 2, 3, 9, 165, 90, 90, 165, 161, 88, 1, 0.693734
264, 2, wb, attraction, a-b-da, 5, 2, 3, 9, 165, 90, 90, 165, 161, 88, 2, 0.240693
264, 2, wb, attraction, a-b-da, 14, 1, 3, 10, 125, 56, 60, 135, 135, 60, 1, 2.77267
264, 2, wb, attraction, a-b-da, 14, 1, 3, 10, 125, 56, 60, 135, 135, 60, 3, 0.771733
264, 2, wb, attraction, a-b-da, 9, 3, 3, 11, 186, 114, 120, 195, 195, 120, 1, 1.6108
264, 2, wb, attraction, a-b-da, 9, 3, 3, 11, 186, 114, 120, 195, 195, 120, 3, 0.512974
264, 2, wb, attraction, a-b-db, 2, 3, 3, 12, 120, 195, 195, 120, 119, 193, 2, 1.30591
264, 2, wb, attraction, a-b-db, 2, 3, 3, 12, 120, 195, 195, 120, 119, 193, 1, 0.404165
264, 2, wb, filler, NA, 999, 999, 3, 13, 142, 83, 76, 130, 128, 147, 2, 0.922022
264, 2, wb, filler, NA, 999, 999, 3, 13, 142, 83, 76, 130, 128, 147, 3, 0.92388
264, 2, wb, attraction, a-b-db, 14, 2, 3, 14, 165, 90, 90, 165, 83, 153, 2, 0.724048
264, 2, wb, attraction, a-b-db, 14, 2, 3, 14, 165, 90, 90, 165, 83, 153, 1, 0.709795
264, 2, wb, attraction, a-b-db, 9, 2, 3, 15, 86, 157, 90, 165, 165, 90, 2, 0.406774
264, 2, wb, attraction, a-b-db, 9, 2, 3, 15, 86, 157, 90, 165, 165, 90, 3, 0.389408
264, 2, wb, attraction, a-b-da, 2, 1, 3, 16, 134, 59, 135, 60, 60, 135, 1, 0.803134
264, 2, wb, attraction, a-b-da, 2, 1, 3, 16, 134, 59, 135, 60, 60, 135, 2, 0.386328
264, 2, wb, attraction, a-b-db, 9, 1, 3, 17, 60, 135, 57, 129, 135, 60, 2, 0.720715
264, 2, wb, attraction, a-b-db, 9, 1, 3, 17, 60, 135, 57, 129, 135, 60, 3, 0.418452
264, 2, wb, catch, NA, 999, 999, 3, 18, 95, 160, 189, 126, 117, 78, 3, 1.02352
264, 2, wb, catch, NA, 999, 999, 3, 18, 95, 160, 189, 126, 117, 78, 2, 0.34929
264, 2, wb, filler, NA, 999, 999, 3, 19, 104, 151, 190, 95, 116, 125, 2, 0.981039
264, 2, wb, filler, NA, 999, 999, 3, 19, 104, 151, 190, 95, 116, 125, 1, 0.92488
264, 2, wb, filler, NA, 999, 999, 3, 20, 117, 57, 107, 181, 159, 144, 1, 1.1171
264, 2, wb, filler, NA, 999, 999, 3, 20, 117, 57, 107, 181, 159, 144, 3, 0.319351
264, 2, wb, attraction, a-b-db, 5, 1, 3, 21, 58, 132, 135, 60, 60, 135, 2, 0.768458
264, 2, wb, attraction, a-b-db, 5, 1, 3, 21, 58, 132, 135, 60, 60, 135, 3, 0.296936
264, 2, wb, filler, NA, 999, 999, 3, 22, 150, 192, 65, 84, 72, 101, 2, 0.690845
264, 2, wb, filler, NA, 999, 999, 3, 22, 150, 192, 65, 84, 72, 101, 1, 0.509799
264, 2, wb, filler, NA, 999, 999, 3, 23, 136, 151, 192, 143, 159, 175, 1, 2.047
264, 2, wb, filler, NA, 999, 999, 3, 23, 136, 151, 192, 143, 159, 175, 3, 0.523611
264, 2, wb, filler, NA, 999, 999, 3, 24, 60, 183, 133, 137, 140, 73, 1, 0.692042
264, 2, wb, filler, NA, 999, 999, 3, 24, 60, 183, 133, 137, 140, 73, 2, 0.215147
264, 2, wb, attraction, a-b-da, 14, 2, 3, 25, 165, 90, 153, 83, 90, 165, 1, 0.628394
264, 2, wb, attraction, a-b-da, 14, 2, 3, 25, 165, 90, 153, 83, 90, 165, 3, 0.242185
264, 2, wb, attraction, a-b-db, 9, 3, 3, 26, 114, 186, 195, 120, 120, 195, 2, 0.822043
264, 2, wb, attraction, a-b-db, 9, 3, 3, 26, 114, 186, 195, 120, 120, 195, 3, 0.323759
264, 2, wb, catch, NA, 999, 999, 3, 27, 135, 60, 126, 129, 169, 146, 1, 0.7482
264, 2, wb, catch, NA, 999, 999, 3, 27, 135, 60, 126, 129, 169, 146, 3, 0.317384
264, 2, wb, filler, NA, 999, 999, 3, 28, 131, 90, 161, 101, 72, 128, 3, 1.09455
264, 2, wb, filler, NA, 999, 999, 3, 28, 131, 90, 161, 101, 72, 128, 2, 0.569459
264, 2, wb, attraction, a-b-da, 14, 3, 3, 29, 195, 120, 181, 111, 120, 195, 1, 0.808519
264, 2, wb, attraction, a-b-da, 14, 3, 3, 29, 195, 120, 181, 111, 120, 195, 3, 0.398922
264, 2, wb, attraction, a-b-db, 5, 3, 3, 30, 120, 195, 195, 120, 117, 190, 1, 0.636733
264, 2, wb, attraction, a-b-db, 5, 3, 3, 30, 120, 195, 195, 120, 117, 190, 3, 0.354499
264, 2, wb, attraction, a-b-da, 2, 2, 3, 31, 163, 89, 165, 90, 90, 165, 1, 0.378294
264, 2, wb, attraction, a-b-da, 2, 2, 3, 31, 163, 89, 165, 90, 90, 165, 3, 0.466222
264, 2, wb, catch, NA, 999, 999, 3, 32, 71, 124, 192, 123, 110, 145, 1, 0.477311
264, 2, wb, catch, NA, 999, 999, 3, 32, 71, 124, 192, 123, 110, 145, 2, 0.618131
264, 2, wb, attraction, a-b-da, 2, 3, 3, 33, 195, 120, 193, 119, 120, 195, 1, 1.03028
264, 2, wb, attraction, a-b-da, 2, 3, 3, 33, 195, 120, 193, 119, 120, 195, 3, 1.03599
264, 2, wb, attraction, a-b-db, 14, 1, 3, 34, 135, 60, 56, 125, 60, 135, 2, 0.776189
264, 2, wb, attraction, a-b-db, 14, 1, 3, 34, 135, 60, 56, 125, 60, 135, 1, 0.247905
264, 2, wb, filler, NA, 999, 999, 3, 35, 169, 72, 174, 89, 81, 74, 3, 0.69975
264, 2, wb, filler, NA, 999, 999, 3, 35, 169, 72, 174, 89, 81, 74, 2, 0.254891
264, 2, wb, attraction, a-b-da, 5, 1, 3, 36, 132, 58, 60, 135, 135, 60, 1, 1.23475
264, 2, wb, attraction, a-b-da, 5, 1, 3, 36, 132, 58, 60, 135, 135, 60, 2, 0.760339
264, 2, wb, attraction, a-b-db, 14, 3, 3, 37, 111, 181, 120, 195, 195, 120, 1, 2.19135
264, 2, wb, attraction, a-b-db, 14, 3, 3, 37, 111, 181, 120, 195, 195, 120, 3, 0.246015
264, 2, wb, attraction, a-b-db, 14, 1, 4, 1, 135, 60, 56, 125, 60, 135, 2, 0.929846
264, 2, wb, attraction, a-b-db, 14, 1, 4, 1, 135, 60, 56, 125, 60, 135, 1, 1.68352
264, 2, wb, filler, NA, 999, 999, 4, 2, 181, 81, 164, 142, 145, 134, 1, 0.997577
264, 2, wb, filler, NA, 999, 999, 4, 2, 181, 81, 164, 142, 145, 134, 2, 0.316581
264, 2, wb, attraction, a-b-da, 2, 3, 4, 3, 193, 119, 120, 195, 195, 120, 1, 0.909728
264, 2, wb, attraction, a-b-da, 2, 3, 4, 3, 193, 119, 120, 195, 195, 120, 2, 1.33614
264, 2, wb, filler, NA, 999, 999, 4, 4, 83, 103, 114, 106, 138, 101, 1, 1.18433
264, 2, wb, filler, NA, 999, 999, 4, 4, 83, 103, 114, 106, 138, 101, 3, 0.52792
264, 2, wb, filler, NA, 999, 999, 4, 5, 195, 65, 67, 94, 66, 144, 2, 0.696375
264, 2, wb, filler, NA, 999, 999, 4, 5, 195, 65, 67, 94, 66, 144, 1, 0.299614
264, 2, wb, catch, NA, 999, 999, 4, 6, 122, 133, 163, 152, 91, 104, 3, 0.821392
264, 2, wb, catch, NA, 999, 999, 4, 6, 122, 133, 163, 152, 91, 104, 2, 0.211038
264, 2, wb, filler, NA, 999, 999, 4, 7, 84, 160, 85, 81, 167, 106, 2, 0.616205
264, 2, wb, filler, NA, 999, 999, 4, 7, 84, 160, 85, 81, 167, 106, 3, 0.246699
264, 2, wb, catch, NA, 999, 999, 4, 8, 82, 113, 144, 111, 122, 193, 1, 0.586642
264, 2, wb, catch, NA, 999, 999, 4, 8, 82, 113, 144, 111, 122, 193, 3, 0.402312
264, 2, wb, attraction, a-b-db, 14, 3, 4, 9, 111, 181, 120, 195, 195, 120, 1, 0.640106
264, 2, wb, attraction, a-b-db, 14, 3, 4, 9, 111, 181, 120, 195, 195, 120, 2, 0.461277
264, 2, wb, attraction, a-b-db, 9, 2, 4, 10, 165, 90, 90, 165, 86, 157, 1, 0.512364
264, 2, wb, attraction, a-b-db, 9, 2, 4, 10, 165, 90, 90, 165, 86, 157, 2, 0.578843
264, 2, wb, attraction, a-b-da, 14, 3, 4, 11, 120, 195, 181, 111, 195, 120, 1, 0.68927
264, 2, wb, attraction, a-b-da, 14, 3, 4, 11, 120, 195, 181, 111, 195, 120, 2, 0.740383
264, 2, wb, attraction, a-b-da, 5, 2, 4, 12, 165, 90, 90, 165, 161, 88, 3, 0.660095
264, 2, wb, attraction, a-b-da, 5, 2, 4, 12, 165, 90, 90, 165, 161, 88, 2, 0.304545
264, 2, wb, attraction, a-b-db, 2, 2, 4, 13, 90, 165, 89, 163, 165, 90, 2, 1.12239
264, 2, wb, attraction, a-b-db, 2, 2, 4, 13, 90, 165, 89, 163, 165, 90, 1, 0.571967
264, 2, wb, attraction, a-b-da, 9, 2, 4, 14, 165, 90, 157, 86, 90, 165, 3, 0.467097
264, 2, wb, attraction, a-b-da, 9, 2, 4, 14, 165, 90, 157, 86, 90, 165, 2, 0.503615
264, 2, wb, attraction, a-b-da, 9, 1, 4, 15, 135, 60, 60, 135, 129, 57, 3, 0.785303
264, 2, wb, attraction, a-b-da, 9, 1, 4, 15, 135, 60, 60, 135, 129, 57, 2, 0.321081
264, 2, wb, filler, NA, 999, 999, 4, 16, 96, 112, 195, 119, 95, 115, 1, 0.410362
264, 2, wb, filler, NA, 999, 999, 4, 16, 96, 112, 195, 119, 95, 115, 2, 0.27283
264, 2, wb, attraction, a-b-da, 5, 3, 4, 17, 190, 117, 195, 120, 120, 195, 1, 0.659288
264, 2, wb, attraction, a-b-da, 5, 3, 4, 17, 190, 117, 195, 120, 120, 195, 2, 0.287736
264, 2, wb, catch, NA, 999, 999, 4, 18, 77, 118, 131, 124, 183, 132, 1, 0.498257
264, 2, wb, catch, NA, 999, 999, 4, 18, 77, 118, 131, 124, 183, 132, 2, 0.20543
264, 2, wb, attraction, a-b-db, 14, 2, 4, 19, 90, 165, 165, 90, 83, 153, 1, 0.507268
264, 2, wb, attraction, a-b-db, 14, 2, 4, 19, 90, 165, 165, 90, 83, 153, 2, 0.245792
264, 2, wb, attraction, a-b-da, 14, 2, 4, 20, 165, 90, 153, 83, 90, 165, 1, 0.76162
264, 2, wb, attraction, a-b-da, 14, 2, 4, 20, 165, 90, 153, 83, 90, 165, 2, 0.498038
264, 2, wb, attraction, a-b-da, 14, 1, 4, 21, 125, 56, 135, 60, 60, 135, 3, 0.579809
264, 2, wb, attraction, a-b-da, 14, 1, 4, 21, 125, 56, 135, 60, 60, 135, 2, 0.307614
264, 2, wb, filler, NA, 999, 999, 4, 22, 137, 66, 174, 67, 122, 130, 1, 2.03678
264, 2, wb, filler, NA, 999, 999, 4, 22, 137, 66, 174, 67, 122, 130, 3, 0.210095
264, 2, wb, filler, NA, 999, 999, 4, 23, 187, 136, 170, 102, 165, 182, 3, 0.759278
264, 2, wb, filler, NA, 999, 999, 4, 23, 187, 136, 170, 102, 165, 182, 2, 0.215739
264, 2, wb, attraction, a-b-db, 5, 2, 4, 24, 90, 165, 165, 90, 88, 161, 1, 0.604952
264, 2, wb, attraction, a-b-db, 5, 2, 4, 24, 90, 165, 165, 90, 88, 161, 2, 0.299383
264, 2, wb, attraction, a-b-db, 5, 3, 4, 25, 117, 190, 120, 195, 195, 120, 3, 0.741357
264, 2, wb, attraction, a-b-db, 5, 3, 4, 25, 117, 190, 120, 195, 195, 120, 2, 0.174451
264, 2, wb, attraction, a-b-db, 5, 1, 4, 26, 60, 135, 135, 60, 58, 132, 1, 1.18093
264, 2, wb, attraction, a-b-db, 5, 1, 4, 26, 60, 135, 135, 60, 58, 132, 2, 0.540565
264, 2, wb, attraction, a-b-db, 2, 3, 4, 27, 120, 195, 195, 120, 119, 193, 1, 0.492224
264, 2, wb, attraction, a-b-db, 2, 3, 4, 27, 120, 195, 195, 120, 119, 193, 2, 0.231451
264, 2, wb, attraction, a-b-da, 2, 1, 4, 28, 60, 135, 134, 59, 135, 60, 1, 0.499887
264, 2, wb, attraction, a-b-da, 2, 1, 4, 28, 60, 135, 134, 59, 135, 60, 2, 0.279075
264, 2, wb, attraction, a-b-da, 2, 2, 4, 29, 90, 165, 165, 90, 163, 89, 3, 0.849599
264, 2, wb, attraction, a-b-da, 2, 2, 4, 29, 90, 165, 165, 90, 163, 89, 2, 1.31063
264, 2, wb, attraction, a-b-db, 2, 1, 4, 30, 60, 135, 135, 60, 59, 134, 3, 1.07144
264, 2, wb, attraction, a-b-db, 2, 1, 4, 30, 60, 135, 135, 60, 59, 134, 2, 0.459097
264, 2, wb, filler, NA, 999, 999, 4, 31, 59, 86, 193, 142, 114, 166, 1, 0.686245
264, 2, wb, filler, NA, 999, 999, 4, 31, 59, 86, 193, 142, 114, 166, 2, 0.249974
264, 2, wb, attraction, a-b-da, 5, 1, 4, 32, 132, 58, 60, 135, 135, 60, 1, 1.50988
264, 2, wb, attraction, a-b-da, 5, 1, 4, 32, 132, 58, 60, 135, 135, 60, 2, 0.240144
264, 2, wb, filler, NA, 999, 999, 4, 33, 194, 164, 81, 103, 106, 90, 2, 1.17985
264, 2, wb, filler, NA, 999, 999, 4, 33, 194, 164, 81, 103, 106, 90, 1, 0.251549
264, 2, wb, attraction, a-b-da, 9, 3, 4, 34, 195, 120, 120, 195, 186, 114, 1, 1.51943
264, 2, wb, attraction, a-b-da, 9, 3, 4, 34, 195, 120, 120, 195, 186, 114, 2, 0.545572
264, 2, wb, filler, NA, 999, 999, 4, 35, 89, 87, 195, 70, 180, 144, 1, 0.497324
264, 2, wb, filler, NA, 999, 999, 4, 35, 89, 87, 195, 70, 180, 144, 3, 0.284486
264, 2, wb, attraction, a-b-db, 9, 1, 4, 36, 60, 135, 135, 60, 57, 129, 1, 1.69502
264, 2, wb, attraction, a-b-db, 9, 1, 4, 36, 60, 135, 135, 60, 57, 129, 2, 0.281758
264, 2, wb, attraction, a-b-db, 9, 3, 4, 37, 195, 120, 120, 195, 114, 186, 1, 1.47631
264, 2, wb, attraction, a-b-db, 9, 3, 4, 37, 195, 120, 120, 195, 114, 186, 2, 0.62385
264, 2, wb, filler, NA, 999, 999, 5, 1, 87, 172, 129, 192, 101, 135, 1, 56.5629
264, 2, wb, filler, NA, 999, 999, 5, 1, 87, 172, 129, 192, 101, 135, 2, 0.354582
264, 2, wb, attraction, a-b-db, 5, 1, 5, 2, 60, 135, 58, 132, 135, 60, 1, 1.42627
264, 2, wb, attraction, a-b-db, 5, 1, 5, 2, 60, 135, 58, 132, 135, 60, 3, 0.511861
264, 2, wb, filler, NA, 999, 999, 5, 3, 131, 176, 57, 173, 150, 191, 2, 0.65693
264, 2, wb, filler, NA, 999, 999, 5, 3, 131, 176, 57, 173, 150, 191, 3, 0.213344
264, 2, wb, attraction, a-b-da, 5, 1, 5, 4, 132, 58, 135, 60, 60, 135, 1, 1.05056
264, 2, wb, attraction, a-b-da, 5, 1, 5, 4, 132, 58, 135, 60, 60, 135, 3, 1.47963
264, 2, wb, attraction, a-b-db, 2, 1, 5, 5, 60, 135, 59, 134, 135, 60, 3, 1.41769
264, 2, wb, attraction, a-b-db, 2, 1, 5, 5, 60, 135, 59, 134, 135, 60, 2, 0.392004
264, 2, wb, filler, NA, 999, 999, 5, 6, 120, 102, 176, 164, 66, 73, 3, 0.56576
264, 2, wb, filler, NA, 999, 999, 5, 6, 120, 102, 176, 164, 66, 73, 2, 0.270146
264, 2, wb, attraction, a-b-db, 5, 3, 5, 7, 195, 120, 117, 190, 120, 195, 1, 0.817434
264, 2, wb, attraction, a-b-db, 5, 3, 5, 7, 195, 120, 117, 190, 120, 195, 2, 0.527791
264, 2, wb, catch, NA, 999, 999, 5, 8, 108, 87, 171, 144, 104, 151, 1, 0.512278
264, 2, wb, catch, NA, 999, 999, 5, 8, 108, 87, 171, 144, 104, 151, 2, 0.322801
264, 2, wb, attraction, a-b-da, 2, 3, 5, 9, 195, 120, 193, 119, 120, 195, 1, 1.02717
264, 2, wb, attraction, a-b-da, 2, 3, 5, 9, 195, 120, 193, 119, 120, 195, 3, 0.832907
264, 2, wb, filler, NA, 999, 999, 5, 10, 71, 79, 180, 118, 141, 96, 1, 0.493294
264, 2, wb, filler, NA, 999, 999, 5, 10, 71, 79, 180, 118, 141, 96, 2, 0.256442
264, 2, wb, attraction, a-b-da, 2, 2, 5, 11, 163, 89, 90, 165, 165, 90, 3, 0.763589
264, 2, wb, attraction, a-b-da, 2, 2, 5, 11, 163, 89, 90, 165, 165, 90, 2, 0.339972
264, 2, wb, attraction, a-b-da, 5, 2, 5, 12, 165, 90, 161, 88, 90, 165, 1, 0.619756
264, 2, wb, attraction, a-b-da, 5, 2, 5, 12, 165, 90, 161, 88, 90, 165, 2, 0.37819
264, 2, wb, attraction, a-b-db, 14, 1, 5, 13, 56, 125, 60, 135, 135, 60, 1, 0.536681
264, 2, wb, attraction, a-b-db, 14, 1, 5, 13, 56, 125, 60, 135, 135, 60, 2, 0.354615
264, 2, wb, catch, NA, 999, 999, 5, 14, 117, 138, 176, 139, 73, 122, 3, 0.706389
264, 2, wb, catch, NA, 999, 999, 5, 14, 117, 138, 176, 139, 73, 122, 2, 0.252792
264, 2, wb, attraction, a-b-da, 9, 3, 5, 15, 186, 114, 120, 195, 195, 120, 3, 0.600672
264, 2, wb, attraction, a-b-da, 9, 3, 5, 15, 186, 114, 120, 195, 195, 120, 2, 0.255722
264, 2, wb, attraction, a-b-da, 9, 2, 5, 16, 157, 86, 165, 90, 90, 165, 1, 0.515587
264, 2, wb, attraction, a-b-da, 9, 2, 5, 16, 157, 86, 165, 90, 90, 165, 3, 0.286082
264, 2, wb, attraction, a-b-da, 2, 1, 5, 17, 135, 60, 60, 135, 134, 59, 1, 0.528588
264, 2, wb, attraction, a-b-da, 2, 1, 5, 17, 135, 60, 60, 135, 134, 59, 2, 0.282404
264, 2, wb, attraction, a-b-da, 14, 3, 5, 18, 120, 195, 195, 120, 181, 111, 3, 0.445039
264, 2, wb, attraction, a-b-da, 14, 3, 5, 18, 120, 195, 195, 120, 181, 111, 2, 0.786124
264, 2, wb, attraction, a-b-da, 5, 3, 5, 19, 120, 195, 195, 120, 190, 117, 1, 0.776466
264, 2, wb, attraction, a-b-da, 5, 3, 5, 19, 120, 195, 195, 120, 190, 117, 2, 0.320201
264, 2, wb, filler, NA, 999, 999, 5, 20, 121, 193, 112, 124, 134, 142, 2, 0.657415
264, 2, wb, filler, NA, 999, 999, 5, 20, 121, 193, 112, 124, 134, 142, 1, 0.293839
264, 2, wb, attraction, a-b-db, 2, 2, 5, 21, 165, 90, 89, 163, 90, 165, 1, 0.655647
264, 2, wb, attraction, a-b-db, 2, 2, 5, 21, 165, 90, 89, 163, 90, 165, 2, 0.244097
264, 2, wb, filler, NA, 999, 999, 5, 22, 74, 119, 87, 101, 99, 58, 3, 1.05596
264, 2, wb, filler, NA, 999, 999, 5, 22, 74, 119, 87, 101, 99, 58, 2, 0.436222
264, 2, wb, attraction, a-b-db, 9, 2, 5, 23, 86, 157, 165, 90, 90, 165, 3, 0.624689
264, 2, wb, attraction, a-b-db, 9, 2, 5, 23, 86, 157, 165, 90, 90, 165, 2, 0.230498
264, 2, wb, attraction, a-b-da, 14, 1, 5, 24, 125, 56, 135, 60, 60, 135, 1, 0.859107
264, 2, wb, attraction, a-b-da, 14, 1, 5, 24, 125, 56, 135, 60, 60, 135, 2, 0.327656
264, 2, wb, filler, NA, 999, 999, 5, 25, 58, 172, 89, 175, 189, 64, 1, 0.504039
264, 2, wb, filler, NA, 999, 999, 5, 25, 58, 172, 89, 175, 189, 64, 2, 0.258423
264, 2, wb, attraction, a-b-db, 9, 1, 5, 26, 135, 60, 57, 129, 60, 135, 1, 0.5416
264, 2, wb, attraction, a-b-db, 9, 1, 5, 26, 135, 60, 57, 129, 60, 135, 2, 0.470791
264, 2, wb, filler, NA, 999, 999, 5, 27, 151, 59, 172, 113, 156, 59, 1, 0.489868
264, 2, wb, filler, NA, 999, 999, 5, 27, 151, 59, 172, 113, 156, 59, 2, 0.229162
264, 2, wb, attraction, a-b-da, 14, 2, 5, 28, 90, 165, 165, 90, 153, 83, 3, 1.92157
264, 2, wb, attraction, a-b-da, 14, 2, 5, 28, 90, 165, 165, 90, 153, 83, 2, 0.202918
264, 2, wb, attraction, a-b-db, 5, 2, 5, 29, 165, 90, 90, 165, 88, 161, 1, 0.673062
264, 2, wb, attraction, a-b-db, 5, 2, 5, 29, 165, 90, 90, 165, 88, 161, 2, 0.244657
264, 2, wb, attraction, a-b-db, 9, 3, 5, 30, 195, 120, 120, 195, 114, 186, 1, 0.888575
264, 2, wb, attraction, a-b-db, 9, 3, 5, 30, 195, 120, 120, 195, 114, 186, 2, 0.267458
264, 2, wb, filler, NA, 999, 999, 5, 31, 105, 101, 100, 112, 73, 73, 3, 1.15867
264, 2, wb, filler, NA, 999, 999, 5, 31, 105, 101, 100, 112, 73, 73, 2, 0.734961
264, 2, wb, filler, NA, 999, 999, 5, 32, 117, 134, 186, 150, 123, 87, 3, 0.599323
264, 2, wb, filler, NA, 999, 999, 5, 32, 117, 134, 186, 150, 123, 87, 2, 0.214536
264, 2, wb, catch, NA, 999, 999, 5, 33, 95, 160, 96, 99, 152, 163, 2, 0.691619
264, 2, wb, catch, NA, 999, 999, 5, 33, 95, 160, 96, 99, 152, 163, 3, 0.278708
264, 2, wb, attraction, a-b-da, 9, 1, 5, 34, 135, 60, 60, 135, 129, 57, 2, 0.905316
264, 2, wb, attraction, a-b-da, 9, 1, 5, 34, 135, 60, 60, 135, 129, 57, 1, 1.65966
264, 2, wb, attraction, a-b-db, 14, 3, 5, 35, 111, 181, 195, 120, 120, 195, 2, 0.838363
264, 2, wb, attraction, a-b-db, 14, 3, 5, 35, 111, 181, 195, 120, 120, 195, 3, 0.627393
264, 2, wb, attraction, a-b-db, 2, 3, 5, 36, 120, 195, 119, 193, 195, 120, 1, 0.9359
264, 2, wb, attraction, a-b-db, 2, 3, 5, 36, 120, 195, 119, 193, 195, 120, 2, 0.449655
264, 2, wb, attraction, a-b-db, 14, 2, 5, 37, 165, 90, 83, 153, 90, 165, 1, 2.93337
264, 2, wb, attraction, a-b-db, 14, 2, 5, 37, 165, 90, 83, 153, 90, 165, 3, 0.294386
264, 2, wb, attraction, a-b-db, 2, 2, 6, 1, 89, 163, 90, 165, 165, 90, 2, 1.13617
264, 2, wb, attraction, a-b-db, 2, 2, 6, 1, 89, 163, 90, 165, 165, 90, 3, 0.233852
264, 2, wb, attraction, a-b-da, 2, 2, 6, 2, 90, 165, 165, 90, 163, 89, 1, 0.430309
264, 2, wb, attraction, a-b-da, 2, 2, 6, 2, 90, 165, 165, 90, 163, 89, 3, 0.404218
264, 2, wb, attraction, a-b-da, 2, 1, 6, 3, 135, 60, 134, 59, 60, 135, 1, 0.625998
264, 2, wb, attraction, a-b-da, 2, 1, 6, 3, 135, 60, 134, 59, 60, 135, 2, 0.663817
264, 2, wb, attraction, a-b-db, 5, 3, 6, 4, 117, 190, 195, 120, 120, 195, 1, 0.715004
264, 2, wb, attraction, a-b-db, 5, 3, 6, 4, 117, 190, 195, 120, 120, 195, 2, 0.261279
264, 2, wb, filler, NA, 999, 999, 6, 5, 79, 164, 80, 189, 98, 140, 2, 0.720476
264, 2, wb, filler, NA, 999, 999, 6, 5, 79, 164, 80, 189, 98, 140, 3, 0.546945
264, 2, wb, filler, NA, 999, 999, 6, 6, 171, 82, 97, 101, 166, 159, 1, 0.426733
264, 2, wb, filler, NA, 999, 999, 6, 6, 171, 82, 97, 101, 166, 159, 3, 0.688545
264, 2, wb, attraction, a-b-da, 5, 3, 6, 7, 190, 117, 195, 120, 120, 195, 3, 1.37888
264, 2, wb, attraction, a-b-da, 5, 3, 6, 7, 190, 117, 195, 120, 120, 195, 2, 0.37044
264, 2, wb, attraction, a-b-da, 5, 1, 6, 8, 60, 135, 135, 60, 132, 58, 3, 1.31358
264, 2, wb, attraction, a-b-da, 5, 1, 6, 8, 60, 135, 135, 60, 132, 58, 2, 0.371794
264, 2, wb, attraction, a-b-db, 9, 3, 6, 9, 195, 120, 114, 186, 120, 195, 2, 2.49895
264, 2, wb, attraction, a-b-db, 9, 3, 6, 9, 195, 120, 114, 186, 120, 195, 3, 0.333637
264, 2, wb, attraction, a-b-db, 9, 2, 6, 10, 90, 165, 165, 90, 86, 157, 2, 1.54996
264, 2, wb, attraction, a-b-db, 9, 2, 6, 10, 90, 165, 165, 90, 86, 157, 1, 0.518813
264, 2, wb, catch, NA, 999, 999, 6, 11, 68, 127, 138, 117, 141, 174, 1, 0.735896
264, 2, wb, catch, NA, 999, 999, 6, 11, 68, 127, 138, 117, 141, 174, 3, 0.545745
264, 2, wb, attraction, a-b-db, 5, 1, 6, 12, 58, 132, 60, 135, 135, 60, 1, 1.43353
264, 2, wb, attraction, a-b-db, 5, 1, 6, 12, 58, 132, 60, 135, 135, 60, 2, 0.471066
264, 2, wb, attraction, a-b-db, 14, 2, 6, 13, 90, 165, 165, 90, 83, 153, 1, 0.698192
264, 2, wb, attraction, a-b-db, 14, 2, 6, 13, 90, 165, 165, 90, 83, 153, 3, 2.42137
264, 2, wb, filler, NA, 999, 999, 6, 14, 177, 88, 194, 90, 178, 96, 3, 1.89789
264, 2, wb, filler, NA, 999, 999, 6, 14, 177, 88, 194, 90, 178, 96, 2, 0.500503
264, 2, wb, filler, NA, 999, 999, 6, 15, 121, 155, 143, 93, 158, 86, 2, 1.45426
264, 2, wb, filler, NA, 999, 999, 6, 15, 121, 155, 143, 93, 158, 86, 1, 0.25044
264, 2, wb, attraction, a-b-db, 14, 3, 6, 16, 195, 120, 111, 181, 120, 195, 2, 2.88639
264, 2, wb, attraction, a-b-db, 14, 3, 6, 16, 195, 120, 111, 181, 120, 195, 3, 0.345521
264, 2, wb, catch, NA, 999, 999, 6, 17, 178, 137, 115, 140, 132, 63, 3, 0.8813
264, 2, wb, catch, NA, 999, 999, 6, 17, 178, 137, 115, 140, 132, 63, 1, 1.32491
264, 2, wb, attraction, a-b-da, 14, 3, 6, 18, 120, 195, 181, 111, 195, 120, 2, 0.877028
264, 2, wb, attraction, a-b-da, 14, 3, 6, 18, 120, 195, 181, 111, 195, 120, 1, 1.01678
264, 2, wb, attraction, a-b-db, 14, 1, 6, 19, 135, 60, 56, 125, 60, 135, 2, 0.89377
264, 2, wb, attraction, a-b-db, 14, 1, 6, 19, 135, 60, 56, 125, 60, 135, 1, 0.592761
264, 2, wb, filler, NA, 999, 999, 6, 20, 180, 175, 78, 157, 146, 86, 2, 0.734715
264, 2, wb, filler, NA, 999, 999, 6, 20, 180, 175, 78, 157, 146, 86, 1, 1.6884
264, 2, wb, attraction, a-b-db, 9, 1, 6, 21, 57, 129, 60, 135, 135, 60, 3, 1.81041
264, 2, wb, attraction, a-b-db, 9, 1, 6, 21, 57, 129, 60, 135, 135, 60, 2, 0.432445
264, 2, wb, filler, NA, 999, 999, 6, 22, 143, 114, 120, 89, 187, 121, 2, 0.708881
264, 2, wb, filler, NA, 999, 999, 6, 22, 143, 114, 120, 89, 187, 121, 3, 0.583333
264, 2, wb, attraction, a-b-da, 5, 2, 6, 23, 161, 88, 90, 165, 165, 90, 1, 1.0617
264, 2, wb, attraction, a-b-da, 5, 2, 6, 23, 161, 88, 90, 165, 165, 90, 2, 0.274062
264, 2, wb, attraction, a-b-db, 5, 2, 6, 24, 90, 165, 165, 90, 88, 161, 2, 1.22854
264, 2, wb, attraction, a-b-db, 5, 2, 6, 24, 90, 165, 165, 90, 88, 161, 1, 0.55431
264, 2, wb, attraction, a-b-da, 14, 2, 6, 25, 90, 165, 165, 90, 153, 83, 2, 1.69004
264, 2, wb, attraction, a-b-da, 14, 2, 6, 25, 90, 165, 165, 90, 153, 83, 1, 0.332775
264, 2, wb, filler, NA, 999, 999, 6, 26, 99, 141, 178, 145, 176, 129, 1, 1.07728
264, 2, wb, filler, NA, 999, 999, 6, 26, 99, 141, 178, 145, 176, 129, 2, 0.264993
264, 2, wb, attraction, a-b-db, 2, 1, 6, 27, 60, 135, 135, 60, 59, 134, 2, 1.852
264, 2, wb, attraction, a-b-db, 2, 1, 6, 27, 60, 135, 135, 60, 59, 134, 1, 0.728799
264, 2, wb, attraction, a-b-da, 2, 3, 6, 28, 120, 195, 193, 119, 195, 120, 1, 1.32908
264, 2, wb, attraction, a-b-da, 2, 3, 6, 28, 120, 195, 193, 119, 195, 120, 3, 0.682652
264, 2, wb, attraction, a-b-da, 9, 1, 6, 29, 60, 135, 129, 57, 135, 60, 1, 0.789189
264, 2, wb, attraction, a-b-da, 9, 1, 6, 29, 60, 135, 129, 57, 135, 60, 3, 1.5242
264, 2, wb, attraction, a-b-db, 2, 3, 6, 30, 120, 195, 119, 193, 195, 120, 2, 3.66035
264, 2, wb, attraction, a-b-db, 2, 3, 6, 30, 120, 195, 119, 193, 195, 120, 3, 0.343748
264, 2, wb, filler, NA, 999, 999, 6, 31, 69, 109, 79, 135, 88, 126, 1, 0.983618
264, 2, wb, filler, NA, 999, 999, 6, 31, 69, 109, 79, 135, 88, 126, 3, 0.439244
264, 2, wb, filler, NA, 999, 999, 6, 32, 128, 60, 190, 111, 175, 64, 1, 0.755733
264, 2, wb, filler, NA, 999, 999, 6, 32, 128, 60, 190, 111, 175, 64, 2, 0.43612
264, 2, wb, attraction, a-b-da, 9, 3, 6, 33, 186, 114, 120, 195, 195, 120, 1, 1.63267
264, 2, wb, attraction, a-b-da, 9, 3, 6, 33, 186, 114, 120, 195, 195, 120, 2, 0.990128
264, 2, wb, attraction, a-b-da, 9, 2, 6, 34, 90, 165, 157, 86, 165, 90, 2, 2.16379
264, 2, wb, attraction, a-b-da, 9, 2, 6, 34, 90, 165, 157, 86, 165, 90, 1, 0.787875
264, 2, wb, catch, NA, 999, 999, 6, 35, 186, 129, 93, 162, 122, 73, 3, 0.618072
264, 2, wb, catch, NA, 999, 999, 6, 35, 186, 129, 93, 162, 122, 73, 2, 0.272517
264, 2, wb, filler, NA, 999, 999, 6, 36, 65, 98, 109, 88, 78, 84, 1, 1.52367
264, 2, wb, filler, NA, 999, 999, 6, 36, 65, 98, 109, 88, 78, 84, 2, 0.533123
264, 2, wb, attraction, a-b-da, 14, 1, 6, 37, 125, 56, 135, 60, 60, 135, 1, 0.853573
264, 2, wb, attraction, a-b-da, 14, 1, 6, 37, 125, 56, 135, 60, 60, 135, 3, 0.778084
264, 2, wb, attraction, a-b-db, 2, 3, 7, 1, 119, 193, 120, 195, 195, 120, 3, 1.6484
264, 2, wb, attraction, a-b-db, 2, 3, 7, 1, 119, 193, 120, 195, 195, 120, 1, 0.557152
264, 2, wb, filler, NA, 999, 999, 7, 2, 66, 133, 152, 159, 165, 75, 1, 0.804375
264, 2, wb, filler, NA, 999, 999, 7, 2, 66, 133, 152, 159, 165, 75, 2, 0.290765
264, 2, wb, attraction, a-b-db, 5, 3, 7, 3, 117, 190, 195, 120, 120, 195, 2, 3.20453
264, 2, wb, attraction, a-b-db, 5, 3, 7, 3, 117, 190, 195, 120, 120, 195, 3, 0.61013
264, 2, wb, attraction, a-b-da, 2, 1, 7, 4, 135, 60, 60, 135, 134, 59, 3, 2.48726
264, 2, wb, attraction, a-b-da, 2, 1, 7, 4, 135, 60, 60, 135, 134, 59, 2, 0.345808
264, 2, wb, attraction, a-b-db, 2, 1, 7, 5, 135, 60, 60, 135, 59, 134, 1, 0.705553
264, 2, wb, attraction, a-b-db, 2, 1, 7, 5, 135, 60, 60, 135, 59, 134, 2, 0.404022
264, 2, wb, attraction, a-b-da, 14, 2, 7, 6, 153, 83, 90, 165, 165, 90, 1, 0.93786
264, 2, wb, attraction, a-b-da, 14, 2, 7, 6, 153, 83, 90, 165, 165, 90, 2, 0.642872
264, 2, wb, filler, NA, 999, 999, 7, 7, 128, 81, 85, 92, 86, 79, 3, 1.51867
264, 2, wb, filler, NA, 999, 999, 7, 7, 128, 81, 85, 92, 86, 79, 1, 0.424814
264, 2, wb, filler, NA, 999, 999, 7, 8, 90, 154, 103, 79, 97, 192, 2, 0.717341
264, 2, wb, filler, NA, 999, 999, 7, 8, 90, 154, 103, 79, 97, 192, 3, 0.543647
264, 2, wb, catch, NA, 999, 999, 7, 9, 175, 140, 142, 113, 73, 122, 3, 1.27935
264, 2, wb, catch, NA, 999, 999, 7, 9, 175, 140, 142, 113, 73, 122, 1, 0.274929
264, 2, wb, attraction, a-b-da, 9, 2, 7, 10, 90, 165, 157, 86, 165, 90, 2, 0.741482
264, 2, wb, attraction, a-b-da, 9, 2, 7, 10, 90, 165, 157, 86, 165, 90, 3, 0.254544
264, 2, wb, attraction, a-b-da, 14, 3, 7, 11, 181, 111, 195, 120, 120, 195, 1, 0.682366
264, 2, wb, attraction, a-b-da, 14, 3, 7, 11, 181, 111, 195, 120, 120, 195, 3, 0.398283
264, 2, wb, attraction, a-b-db, 14, 1, 7, 12, 56, 125, 135, 60, 60, 135, 1, 0.667969
264, 2, wb, attraction, a-b-db, 14, 1, 7, 12, 56, 125, 135, 60, 60, 135, 3, 0.5844
264, 2, wb, attraction, a-b-db, 14, 2, 7, 13, 90, 165, 165, 90, 83, 153, 3, 1.11883
264, 2, wb, attraction, a-b-db, 14, 2, 7, 13, 90, 165, 165, 90, 83, 153, 1, 0.473168
264, 2, wb, attraction, a-b-da, 2, 2, 7, 14, 165, 90, 163, 89, 90, 165, 1, 0.651575
264, 2, wb, attraction, a-b-da, 2, 2, 7, 14, 165, 90, 163, 89, 90, 165, 2, 0.496727
264, 2, wb, attraction, a-b-da, 5, 1, 7, 15, 60, 135, 132, 58, 135, 60, 2, 0.834538
264, 2, wb, attraction, a-b-da, 5, 1, 7, 15, 60, 135, 132, 58, 135, 60, 1, 0.592221
264, 2, wb, attraction, a-b-da, 9, 3, 7, 16, 195, 120, 186, 114, 120, 195, 2, 0.965951
264, 2, wb, attraction, a-b-da, 9, 3, 7, 16, 195, 120, 186, 114, 120, 195, 3, 0.238388
264, 2, wb, attraction, a-b-db, 9, 1, 7, 17, 57, 129, 60, 135, 135, 60, 3, 0.858841
264, 2, wb, attraction, a-b-db, 9, 1, 7, 17, 57, 129, 60, 135, 135, 60, 2, 0.471189
264, 2, wb, catch, NA, 999, 999, 7, 18, 154, 161, 133, 122, 76, 119, 3, 0.586481
264, 2, wb, catch, NA, 999, 999, 7, 18, 154, 161, 133, 122, 76, 119, 1, 0.45818
264, 2, wb, filler, NA, 999, 999, 7, 19, 164, 86, 102, 87, 68, 186, 2, 0.693248
264, 2, wb, filler, NA, 999, 999, 7, 19, 164, 86, 102, 87, 68, 186, 1, 0.43231
264, 2, wb, filler, NA, 999, 999, 7, 20, 83, 179, 92, 140, 75, 191, 2, 0.676752
264, 2, wb, filler, NA, 999, 999, 7, 20, 83, 179, 92, 140, 75, 191, 1, 0.624566
264, 2, wb, attraction, a-b-db, 14, 3, 7, 21, 120, 195, 111, 181, 195, 120, 3, 1.01303
264, 2, wb, attraction, a-b-db, 14, 3, 7, 21, 120, 195, 111, 181, 195, 120, 1, 0.459357
264, 2, wb, filler, NA, 999, 999, 7, 22, 91, 113, 133, 101, 147, 154, 1, 0.814461
264, 2, wb, filler, NA, 999, 999, 7, 22, 91, 113, 133, 101, 147, 154, 3, 0.548861
264, 2, wb, attraction, a-b-da, 14, 1, 7, 23, 60, 135, 125, 56, 135, 60, 1, 0.556671
264, 2, wb, attraction, a-b-da, 14, 1, 7, 23, 60, 135, 125, 56, 135, 60, 3, 1.17305
264, 2, wb, filler, NA, 999, 999, 7, 24, 149, 111, 157, 95, 107, 72, 3, 0.691398
264, 2, wb, filler, NA, 999, 999, 7, 24, 149, 111, 157, 95, 107, 72, 1, 0.270366
264, 2, wb, attraction, a-b-da, 5, 3, 7, 25, 120, 195, 195, 120, 190, 117, 3, 0.921628
264, 2, wb, attraction, a-b-da, 5, 3, 7, 25, 120, 195, 195, 120, 190, 117, 1, 0.347201
264, 2, wb, attraction, a-b-db, 9, 3, 7, 26, 120, 195, 114, 186, 195, 120, 3, 0.627105
264, 2, wb, attraction, a-b-db, 9, 3, 7, 26, 120, 195, 114, 186, 195, 120, 1, 0.272919
264, 2, wb, attraction, a-b-db, 5, 2, 7, 27, 88, 161, 90, 165, 165, 90, 3, 0.59543
264, 2, wb, attraction, a-b-db, 5, 2, 7, 27, 88, 161, 90, 165, 165, 90, 1, 0.818558
264, 2, wb, filler, NA, 999, 999, 7, 28, 150, 77, 67, 112, 76, 77, 3, 0.647591
264, 2, wb, filler, NA, 999, 999, 7, 28, 150, 77, 67, 112, 76, 77, 1, 0.300649
264, 2, wb, attraction, a-b-da, 5, 2, 7, 29, 161, 88, 165, 90, 90, 165, 3, 2.27854
264, 2, wb, attraction, a-b-da, 5, 2, 7, 29, 161, 88, 165, 90, 90, 165, 1, 0.689822
264, 2, wb, catch, NA, 999, 999, 7, 30, 157, 98, 157, 158, 71, 124, 3, 0.87563
264, 2, wb, catch, NA, 999, 999, 7, 30, 157, 98, 157, 158, 71, 124, 2, 0.463212
264, 2, wb, attraction, a-b-da, 2, 3, 7, 31, 193, 119, 195, 120, 120, 195, 1, 1.78624
264, 2, wb, attraction, a-b-da, 2, 3, 7, 31, 193, 119, 195, 120, 120, 195, 3, 0.281766
264, 2, wb, filler, NA, 999, 999, 7, 32, 175, 89, 148, 102, 144, 162, 1, 1.04424
264, 2, wb, filler, NA, 999, 999, 7, 32, 175, 89, 148, 102, 144, 162, 3, 0.281276
264, 2, wb, attraction, a-b-da, 9, 1, 7, 33, 135, 60, 129, 57, 60, 135, 1, 0.955678
264, 2, wb, attraction, a-b-da, 9, 1, 7, 33, 135, 60, 129, 57, 60, 135, 3, 0.5401
264, 2, wb, attraction, a-b-db, 5, 1, 7, 34, 60, 135, 135, 60, 58, 132, 1, 0.547918
264, 2, wb, attraction, a-b-db, 5, 1, 7, 34, 60, 135, 135, 60, 58, 132, 3, 0.316948
264, 2, wb, attraction, a-b-db, 9, 2, 7, 35, 165, 90, 86, 157, 90, 165, 1, 0.566141
264, 2, wb, attraction, a-b-db, 9, 2, 7, 35, 165, 90, 86, 157, 90, 165, 2, 0.542612
264, 2, wb, filler, NA, 999, 999, 7, 36, 92, 125, 170, 157, 108, 184, 1, 0.470468
264, 2, wb, filler, NA, 999, 999, 7, 36, 92, 125, 170, 157, 108, 184, 2, 0.378195
264, 2, wb, attraction, a-b-db, 2, 2, 7, 37, 89, 163, 90, 165, 165, 90, 1, 0.640858
264, 2, wb, attraction, a-b-db, 2, 2, 7, 37, 89, 163, 90, 165, 165, 90, 2, 0.709811
264, 2, wb, attraction, a-b-da, 2, 1, 8, 1, 60, 135, 135, 60, 134, 59, 1, 0.5588
264, 2, wb, attraction, a-b-da, 2, 1, 8, 1, 60, 135, 135, 60, 134, 59, 3, 1.15938
264, 2, wb, attraction, a-b-db, 2, 3, 8, 2, 120, 195, 119, 193, 195, 120, 1, 1.11027
264, 2, wb, attraction, a-b-db, 2, 3, 8, 2, 120, 195, 119, 193, 195, 120, 3, 0.440561
264, 2, wb, attraction, a-b-db, 2, 1, 8, 3, 60, 135, 59, 134, 135, 60, 3, 1.38031
264, 2, wb, attraction, a-b-db, 2, 1, 8, 3, 60, 135, 59, 134, 135, 60, 1, 0.291883
264, 2, wb, filler, NA, 999, 999, 8, 4, 111, 73, 195, 112, 137, 135, 1, 0.653711
264, 2, wb, filler, NA, 999, 999, 8, 4, 111, 73, 195, 112, 137, 135, 2, 0.954263
264, 2, wb, attraction, a-b-da, 5, 3, 8, 5, 190, 117, 120, 195, 195, 120, 1, 0.529824
264, 2, wb, attraction, a-b-da, 5, 3, 8, 5, 190, 117, 120, 195, 195, 120, 2, 0.41964
264, 2, wb, attraction, a-b-db, 5, 1, 8, 6, 60, 135, 135, 60, 58, 132, 1, 0.624782
264, 2, wb, attraction, a-b-db, 5, 1, 8, 6, 60, 135, 135, 60, 58, 132, 2, 0.246636
264, 2, wb, filler, NA, 999, 999, 8, 7, 169, 89, 99, 111, 105, 150, 1, 0.854122
264, 2, wb, filler, NA, 999, 999, 8, 7, 169, 89, 99, 111, 105, 150, 2, 0.214865
264, 2, wb, catch, NA, 999, 999, 8, 8, 174, 141, 122, 133, 67, 128, 3, 0.92393
264, 2, wb, catch, NA, 999, 999, 8, 8, 174, 141, 122, 133, 67, 128, 1, 0.325702
264, 2, wb, attraction, a-b-db, 9, 1, 8, 9, 60, 135, 57, 129, 135, 60, 2, 2.1182
264, 2, wb, attraction, a-b-db, 9, 1, 8, 9, 60, 135, 57, 129, 135, 60, 3, 0.512254
264, 2, wb, catch, NA, 999, 999, 8, 10, 103, 92, 134, 181, 162, 93, 1, 0.601261
264, 2, wb, catch, NA, 999, 999, 8, 10, 103, 92, 134, 181, 162, 93, 2, 0.632342
264, 2, wb, attraction, a-b-da, 9, 1, 8, 11, 135, 60, 129, 57, 60, 135, 1, 0.684772
264, 2, wb, attraction, a-b-da, 9, 1, 8, 11, 135, 60, 129, 57, 60, 135, 2, 0.384489
264, 2, wb, attraction, a-b-db, 9, 2, 8, 12, 165, 90, 86, 157, 90, 165, 1, 1.223
264, 2, wb, attraction, a-b-db, 9, 2, 8, 12, 165, 90, 86, 157, 90, 165, 3, 1.49266
264, 2, wb, attraction, a-b-db, 9, 3, 8, 13, 114, 186, 195, 120, 120, 195, 2, 1.70212
264, 2, wb, attraction, a-b-db, 9, 3, 8, 13, 114, 186, 195, 120, 120, 195, 1, 0.584925
264, 2, wb, attraction, a-b-da, 14, 1, 8, 14, 125, 56, 60, 135, 135, 60, 1, 1.0313
264, 2, wb, attraction, a-b-da, 14, 1, 8, 14, 125, 56, 60, 135, 135, 60, 2, 0.540933
264, 2, wb, filler, NA, 999, 999, 8, 15, 167, 151, 72, 104, 97, 138, 2, 0.916677
264, 2, wb, filler, NA, 999, 999, 8, 15, 167, 151, 72, 104, 97, 138, 1, 0.263236
264, 2, wb, attraction, a-b-db, 14, 3, 8, 16, 195, 120, 120, 195, 111, 181, 1, 1.81033
264, 2, wb, attraction, a-b-db, 14, 3, 8, 16, 195, 120, 120, 195, 111, 181, 2, 0.288395
264, 2, wb, filler, NA, 999, 999, 8, 17, 180, 140, 102, 88, 108, 142, 2, 0.762844
264, 2, wb, filler, NA, 999, 999, 8, 17, 180, 140, 102, 88, 108, 142, 1, 0.251249
264, 2, wb, attraction, a-b-da, 14, 3, 8, 18, 120, 195, 195, 120, 181, 111, 3, 1.19118
264, 2, wb, attraction, a-b-da, 14, 3, 8, 18, 120, 195, 195, 120, 181, 111, 1, 1.21412
264, 2, wb, attraction, a-b-da, 2, 3, 8, 19, 120, 195, 195, 120, 193, 119, 1, 0.746962
264, 2, wb, attraction, a-b-da, 2, 3, 8, 19, 120, 195, 195, 120, 193, 119, 3, 0.755998
264, 2, wb, filler, NA, 999, 999, 8, 20, 188, 137, 167, 76, 116, 177, 2, 0.875732
264, 2, wb, filler, NA, 999, 999, 8, 20, 188, 137, 167, 76, 116, 177, 1, 0.743416
264, 2, wb, filler, NA, 999, 999, 8, 21, 129, 190, 154, 90, 158, 187, 2, 0.599289
264, 2, wb, filler, NA, 999, 999, 8, 21, 129, 190, 154, 90, 158, 187, 3, 0.5263
264, 2, wb, attraction, a-b-da, 14, 2, 8, 22, 90, 165, 153, 83, 165, 90, 2, 0.950666
264, 2, wb, attraction, a-b-da, 14, 2, 8, 22, 90, 165, 153, 83, 165, 90, 1, 0.783725
264, 2, wb, attraction, a-b-da, 2, 2, 8, 23, 163, 89, 90, 165, 165, 90, 2, 1.15009
264, 2, wb, attraction, a-b-da, 2, 2, 8, 23, 163, 89, 90, 165, 165, 90, 3, 0.687148
264, 2, wb, attraction, a-b-da, 5, 1, 8, 24, 132, 58, 60, 135, 135, 60, 2, 1.00943
264, 2, wb, attraction, a-b-da, 5, 1, 8, 24, 132, 58, 60, 135, 135, 60, 1, 0.487699
264, 2, wb, attraction, a-b-db, 14, 2, 8, 25, 83, 153, 90, 165, 165, 90, 3, 1.6504
264, 2, wb, attraction, a-b-db, 14, 2, 8, 25, 83, 153, 90, 165, 165, 90, 2, 0.358978
264, 2, wb, filler, NA, 999, 999, 8, 26, 122, 172, 142, 124, 66, 185, 3, 0.694155
264, 2, wb, filler, NA, 999, 999, 8, 26, 122, 172, 142, 124, 66, 185, 1, 0.281266
264, 2, wb, attraction, a-b-da, 9, 3, 8, 27, 120, 195, 195, 120, 186, 114, 3, 1.51579
264, 2, wb, attraction, a-b-da, 9, 3, 8, 27, 120, 195, 195, 120, 186, 114, 1, 0.653888
264, 2, wb, attraction, a-b-db, 5, 2, 8, 28, 90, 165, 165, 90, 88, 161, 3, 4.16968
264, 2, wb, attraction, a-b-db, 5, 2, 8, 28, 90, 165, 165, 90, 88, 161, 2, 0.312988
264, 2, wb, attraction, a-b-db, 5, 3, 8, 29, 117, 190, 195, 120, 120, 195, 2, 1.08221
264, 2, wb, attraction, a-b-db, 5, 3, 8, 29, 117, 190, 195, 120, 120, 195, 3, 0.301819
264, 2, wb, attraction, a-b-da, 5, 2, 8, 30, 165, 90, 90, 165, 161, 88, 2, 0.639621
264, 2, wb, attraction, a-b-da, 5, 2, 8, 30, 165, 90, 90, 165, 161, 88, 1, 0.500751
264, 2, wb, attraction, a-b-da, 9, 2, 8, 31, 165, 90, 157, 86, 90, 165, 2, 0.654518
264, 2, wb, attraction, a-b-da, 9, 2, 8, 31, 165, 90, 157, 86, 90, 165, 3, 1.03517
264, 2, wb, attraction, a-b-db, 14, 1, 8, 32, 60, 135, 135, 60, 56, 125, 2, 0.791306
264, 2, wb, attraction, a-b-db, 14, 1, 8, 32, 60, 135, 135, 60, 56, 125, 1, 0.270286
264, 2, wb, filler, NA, 999, 999, 8, 33, 125, 170, 64, 89, 103, 151, 2, 1.10547
264, 2, wb, filler, NA, 999, 999, 8, 33, 125, 170, 64, 89, 103, 151, 1, 0.211829
264, 2, wb, catch, NA, 999, 999, 8, 34, 108, 147, 165, 150, 91, 104, 3, 0.832977
264, 2, wb, catch, NA, 999, 999, 8, 34, 108, 147, 165, 150, 91, 104, 2, 0.198767
264, 2, wb, filler, NA, 999, 999, 8, 35, 97, 179, 56, 120, 65, 88, 3, 1.60461
264, 2, wb, filler, NA, 999, 999, 8, 35, 97, 179, 56, 120, 65, 88, 1, 0.282771
264, 2, wb, attraction, a-b-db, 2, 2, 8, 36, 165, 90, 90, 165, 89, 163, 1, 0.997308
264, 2, wb, attraction, a-b-db, 2, 2, 8, 36, 165, 90, 90, 165, 89, 163, 2, 0.3243
264, 2, wb, filler, NA, 999, 999, 8, 37, 179, 147, 166, 79, 59, 74, 3, 0.500911
264, 2, wb, filler, NA, 999, 999, 8, 37, 179, 147, 166, 79, 59, 74, 1, 0.248021
