sub_n, computer_n, bw_cond, effect, set, distance, diag, block_n, trial_n, h1, w1, h2, w2, h3, w3, choice, rt 
21, 2, bw, practice, NA, 999, 999, 0, 1, 176, 86, 77, 113, 131, 170, 3, 3.22538
21, 2, bw, practice, NA, 999, 999, 0, 1, 176, 86, 77, 113, 131, 170, 2, 2.20485
21, 2, bw, practice, NA, 999, 999, 0, 2, 187, 174, 170, 138, 71, 60, 1, 1.89594
21, 2, bw, practice, NA, 999, 999, 0, 2, 187, 174, 170, 138, 71, 60, 3, 1.1322
21, 2, bw, practice, NA, 999, 999, 0, 3, 78, 141, 82, 102, 186, 80, 3, 4.11971
21, 2, bw, practice, NA, 999, 999, 0, 3, 78, 141, 82, 102, 186, 80, 2, 1.58647
21, 2, bw, filler, NA, 999, 999, 1, 1, 130, 115, 112, 111, 67, 98, 1, 1.94732
21, 2, bw, filler, NA, 999, 999, 1, 1, 130, 115, 112, 111, 67, 98, 3, 1.43428
21, 2, bw, filler, NA, 999, 999, 1, 2, 101, 140, 138, 63, 112, 144, 3, 2.44607
21, 2, bw, filler, NA, 999, 999, 1, 2, 101, 140, 138, 63, 112, 144, 2, 1.65169
21, 2, bw, attraction, a-b-da, 2, 2, 1, 3, 90, 165, 163, 89, 165, 90, 1, 8.36012
21, 2, bw, attraction, a-b-da, 2, 2, 1, 3, 90, 165, 163, 89, 165, 90, 3, 3.01382
21, 2, bw, filler, NA, 999, 999, 1, 4, 115, 68, 70, 173, 180, 92, 3, 2.41097
21, 2, bw, filler, NA, 999, 999, 1, 4, 115, 68, 70, 173, 180, 92, 1, 0.968759
21, 2, bw, attraction, a-b-db, 14, 2, 1, 5, 83, 153, 90, 165, 165, 90, 2, 2.61704
21, 2, bw, attraction, a-b-db, 14, 2, 1, 5, 83, 153, 90, 165, 165, 90, 1, 0.878916
21, 2, bw, filler, NA, 999, 999, 1, 6, 120, 101, 139, 84, 111, 138, 3, 2.27152
21, 2, bw, filler, NA, 999, 999, 1, 6, 120, 101, 139, 84, 111, 138, 2, 2.9083
21, 2, bw, filler, NA, 999, 999, 1, 7, 187, 76, 66, 71, 74, 183, 3, 6.58886
21, 2, bw, filler, NA, 999, 999, 1, 7, 187, 76, 66, 71, 74, 183, 2, 0.914299
21, 2, bw, attraction, a-b-db, 14, 1, 1, 8, 135, 60, 56, 125, 60, 135, 3, 4.81199
21, 2, bw, attraction, a-b-db, 14, 1, 1, 8, 135, 60, 56, 125, 60, 135, 2, 5.37037
21, 2, bw, attraction, a-b-da, 2, 3, 1, 9, 195, 120, 193, 119, 120, 195, 3, 10.6555
21, 2, bw, attraction, a-b-da, 2, 3, 1, 9, 195, 120, 193, 119, 120, 195, 1, 3.4308
21, 2, bw, filler, NA, 999, 999, 1, 10, 138, 81, 153, 140, 188, 101, 2, 3.61501
21, 2, bw, filler, NA, 999, 999, 1, 10, 138, 81, 153, 140, 188, 101, 1, 1.31318
21, 2, bw, attraction, a-b-db, 9, 2, 1, 11, 90, 165, 86, 157, 165, 90, 1, 3.53969
21, 2, bw, attraction, a-b-db, 9, 2, 1, 11, 90, 165, 86, 157, 165, 90, 3, 4.05356
21, 2, bw, attraction, a-b-da, 2, 1, 1, 12, 60, 135, 135, 60, 134, 59, 1, 3.77603
21, 2, bw, attraction, a-b-da, 2, 1, 1, 12, 60, 135, 135, 60, 134, 59, 3, 2.15822
21, 2, bw, attraction, a-b-da, 9, 2, 1, 13, 90, 165, 165, 90, 157, 86, 1, 6.46397
21, 2, bw, attraction, a-b-da, 9, 2, 1, 13, 90, 165, 165, 90, 157, 86, 3, 2.21574
21, 2, bw, attraction, a-b-da, 5, 3, 1, 14, 120, 195, 190, 117, 195, 120, 3, 11.3902
21, 2, bw, attraction, a-b-da, 5, 3, 1, 14, 120, 195, 190, 117, 195, 120, 2, 1.68988
21, 2, bw, attraction, a-b-da, 9, 1, 1, 15, 135, 60, 129, 57, 60, 135, 3, 3.05981
21, 2, bw, attraction, a-b-da, 9, 1, 1, 15, 135, 60, 129, 57, 60, 135, 2, 0.888355
21, 2, bw, attraction, a-b-db, 2, 1, 1, 16, 59, 134, 135, 60, 60, 135, 3, 2.44203
21, 2, bw, attraction, a-b-db, 2, 1, 1, 16, 59, 134, 135, 60, 60, 135, 2, 1.31228
21, 2, bw, catch, NA, 999, 999, 1, 17, 108, 87, 170, 145, 92, 163, 2, 2.20146
21, 2, bw, catch, NA, 999, 999, 1, 17, 108, 87, 170, 145, 92, 163, 1, 1.14617
21, 2, bw, filler, NA, 999, 999, 1, 18, 98, 79, 87, 96, 181, 71, 3, 4.85459
21, 2, bw, filler, NA, 999, 999, 1, 18, 98, 79, 87, 96, 181, 71, 2, 0.763688
21, 2, bw, attraction, a-b-db, 9, 3, 1, 19, 195, 120, 120, 195, 114, 186, 2, 5.6925
21, 2, bw, attraction, a-b-db, 9, 3, 1, 19, 195, 120, 120, 195, 114, 186, 1, 3.77313
21, 2, bw, attraction, a-b-db, 9, 1, 1, 20, 60, 135, 135, 60, 57, 129, 1, 2.60416
21, 2, bw, attraction, a-b-db, 9, 1, 1, 20, 60, 135, 135, 60, 57, 129, 2, 9.0254
21, 2, bw, filler, NA, 999, 999, 1, 21, 79, 130, 150, 73, 66, 100, 1, 1.81336
21, 2, bw, filler, NA, 999, 999, 1, 21, 79, 130, 150, 73, 66, 100, 3, 0.939563
21, 2, bw, attraction, a-b-db, 2, 2, 1, 22, 90, 165, 89, 163, 165, 90, 2, 2.90549
21, 2, bw, attraction, a-b-db, 2, 2, 1, 22, 90, 165, 89, 163, 165, 90, 3, 4.33471
21, 2, bw, attraction, a-b-db, 5, 3, 1, 23, 195, 120, 120, 195, 117, 190, 2, 4.58185
21, 2, bw, attraction, a-b-db, 5, 3, 1, 23, 195, 120, 120, 195, 117, 190, 3, 2.21916
21, 2, bw, attraction, a-b-db, 2, 3, 1, 24, 120, 195, 119, 193, 195, 120, 1, 2.38303
21, 2, bw, attraction, a-b-db, 2, 3, 1, 24, 120, 195, 119, 193, 195, 120, 2, 4.71133
21, 2, bw, attraction, a-b-da, 14, 1, 1, 25, 135, 60, 125, 56, 60, 135, 3, 13.4803
21, 2, bw, attraction, a-b-da, 14, 1, 1, 25, 135, 60, 125, 56, 60, 135, 2, 0.744027
21, 2, bw, attraction, a-b-db, 5, 2, 1, 26, 88, 161, 165, 90, 90, 165, 3, 8.38391
21, 2, bw, attraction, a-b-db, 5, 2, 1, 26, 88, 161, 165, 90, 90, 165, 2, 3.01243
21, 2, bw, attraction, a-b-da, 9, 3, 1, 27, 186, 114, 120, 195, 195, 120, 2, 5.73045
21, 2, bw, attraction, a-b-da, 9, 3, 1, 27, 186, 114, 120, 195, 195, 120, 3, 0.850955
21, 2, bw, filler, NA, 999, 999, 1, 28, 148, 151, 118, 103, 137, 119, 1, 1.66021
21, 2, bw, filler, NA, 999, 999, 1, 28, 148, 151, 118, 103, 137, 119, 2, 0.739683
21, 2, bw, attraction, a-b-da, 14, 2, 1, 29, 153, 83, 90, 165, 165, 90, 2, 3.24114
21, 2, bw, attraction, a-b-da, 14, 2, 1, 29, 153, 83, 90, 165, 165, 90, 1, 0.99983
21, 2, bw, catch, NA, 999, 999, 1, 30, 156, 99, 86, 109, 128, 187, 3, 1.76466
21, 2, bw, catch, NA, 999, 999, 1, 30, 156, 99, 86, 109, 128, 187, 2, 0.765384
21, 2, bw, attraction, a-b-db, 5, 1, 1, 31, 135, 60, 60, 135, 58, 132, 2, 24.8038
21, 2, bw, attraction, a-b-db, 5, 1, 1, 31, 135, 60, 60, 135, 58, 132, 3, 1.5318
21, 2, bw, attraction, a-b-da, 5, 1, 1, 32, 135, 60, 132, 58, 60, 135, 1, 3.88348
21, 2, bw, attraction, a-b-da, 5, 1, 1, 32, 135, 60, 132, 58, 60, 135, 2, 0.750304
21, 2, bw, catch, NA, 999, 999, 1, 33, 61, 134, 143, 172, 105, 150, 2, 1.97423
21, 2, bw, catch, NA, 999, 999, 1, 33, 61, 134, 143, 172, 105, 150, 3, 0.797832
21, 2, bw, attraction, a-b-db, 14, 3, 1, 34, 111, 181, 195, 120, 120, 195, 3, 2.73094
21, 2, bw, attraction, a-b-db, 14, 3, 1, 34, 111, 181, 195, 120, 120, 195, 1, 1.9808
21, 2, bw, attraction, a-b-da, 5, 2, 1, 35, 165, 90, 161, 88, 90, 165, 3, 2.48302
21, 2, bw, attraction, a-b-da, 5, 2, 1, 35, 165, 90, 161, 88, 90, 165, 2, 0.786024
21, 2, bw, filler, NA, 999, 999, 1, 36, 86, 144, 69, 109, 185, 129, 3, 1.55861
21, 2, bw, filler, NA, 999, 999, 1, 36, 86, 144, 69, 109, 185, 129, 2, 0.781491
21, 2, bw, attraction, a-b-da, 14, 3, 1, 37, 120, 195, 181, 111, 195, 120, 1, 16.6202
21, 2, bw, attraction, a-b-da, 14, 3, 1, 37, 120, 195, 181, 111, 195, 120, 2, 0.765073
21, 2, bw, attraction, a-b-da, 14, 2, 2, 1, 153, 83, 165, 90, 90, 165, 3, 7.00716
21, 2, bw, attraction, a-b-da, 14, 2, 2, 1, 153, 83, 165, 90, 90, 165, 1, 0.706474
21, 2, bw, attraction, a-b-db, 5, 1, 2, 2, 60, 135, 58, 132, 135, 60, 1, 2.14044
21, 2, bw, attraction, a-b-db, 5, 1, 2, 2, 60, 135, 58, 132, 135, 60, 3, 1.62858
21, 2, bw, catch, NA, 999, 999, 2, 3, 92, 103, 180, 135, 102, 153, 2, 1.55524
21, 2, bw, catch, NA, 999, 999, 2, 3, 92, 103, 180, 135, 102, 153, 1, 0.913488
21, 2, bw, attraction, a-b-db, 2, 1, 2, 4, 135, 60, 59, 134, 60, 135, 3, 1.85909
21, 2, bw, attraction, a-b-db, 2, 1, 2, 4, 135, 60, 59, 134, 60, 135, 2, 1.78509
21, 2, bw, catch, NA, 999, 999, 2, 5, 91, 104, 138, 177, 126, 129, 2, 1.29512
21, 2, bw, catch, NA, 999, 999, 2, 5, 91, 104, 138, 177, 126, 129, 1, 0.643759
21, 2, bw, filler, NA, 999, 999, 2, 6, 127, 127, 195, 92, 182, 178, 3, 1.58256
21, 2, bw, filler, NA, 999, 999, 2, 6, 127, 127, 195, 92, 182, 178, 1, 1.43766
21, 2, bw, attraction, a-b-db, 9, 2, 2, 7, 86, 157, 90, 165, 165, 90, 2, 3.89879
21, 2, bw, attraction, a-b-db, 9, 2, 2, 7, 86, 157, 90, 165, 165, 90, 1, 0.692625
21, 2, bw, attraction, a-b-da, 9, 3, 2, 8, 186, 114, 195, 120, 120, 195, 3, 3.48606
21, 2, bw, attraction, a-b-da, 9, 3, 2, 8, 186, 114, 195, 120, 120, 195, 2, 2.17001
21, 2, bw, attraction, a-b-db, 5, 2, 2, 9, 88, 161, 90, 165, 165, 90, 2, 1.9934
21, 2, bw, attraction, a-b-db, 5, 2, 2, 9, 88, 161, 90, 165, 165, 90, 1, 0.928787
21, 2, bw, attraction, a-b-da, 2, 3, 2, 10, 120, 195, 193, 119, 195, 120, 3, 6.50391
21, 2, bw, attraction, a-b-da, 2, 3, 2, 10, 120, 195, 193, 119, 195, 120, 2, 1.62415
21, 2, bw, attraction, a-b-da, 5, 1, 2, 11, 135, 60, 132, 58, 60, 135, 3, 1.98302
21, 2, bw, attraction, a-b-da, 5, 1, 2, 11, 135, 60, 132, 58, 60, 135, 2, 1.46972
21, 2, bw, attraction, a-b-db, 14, 3, 2, 12, 195, 120, 111, 181, 120, 195, 3, 7.12129
21, 2, bw, attraction, a-b-db, 14, 3, 2, 12, 195, 120, 111, 181, 120, 195, 2, 1.40903
21, 2, bw, filler, NA, 999, 999, 2, 13, 79, 63, 100, 157, 131, 58, 2, 1.60583
21, 2, bw, filler, NA, 999, 999, 2, 13, 79, 63, 100, 157, 131, 58, 1, 1.34095
21, 2, bw, filler, NA, 999, 999, 2, 14, 172, 67, 127, 90, 149, 136, 3, 3.79857
21, 2, bw, filler, NA, 999, 999, 2, 14, 172, 67, 127, 90, 149, 136, 1, 4.59642
21, 2, bw, filler, NA, 999, 999, 2, 15, 165, 95, 143, 156, 61, 56, 2, 2.15188
21, 2, bw, filler, NA, 999, 999, 2, 15, 165, 95, 143, 156, 61, 56, 3, 1.62725
21, 2, bw, attraction, a-b-db, 2, 3, 2, 16, 195, 120, 119, 193, 120, 195, 3, 4.87964
21, 2, bw, attraction, a-b-db, 2, 3, 2, 16, 195, 120, 119, 193, 120, 195, 2, 1.30584
21, 2, bw, attraction, a-b-db, 2, 2, 2, 17, 165, 90, 89, 163, 90, 165, 3, 21.4905
21, 2, bw, attraction, a-b-db, 2, 2, 2, 17, 165, 90, 89, 163, 90, 165, 1, 2.66328
21, 2, bw, attraction, a-b-da, 5, 3, 2, 18, 195, 120, 190, 117, 120, 195, 3, 3.41087
21, 2, bw, attraction, a-b-da, 5, 3, 2, 18, 195, 120, 190, 117, 120, 195, 2, 1.52764
21, 2, bw, filler, NA, 999, 999, 2, 19, 160, 155, 162, 112, 64, 60, 1, 2.00045
21, 2, bw, filler, NA, 999, 999, 2, 19, 160, 155, 162, 112, 64, 60, 3, 0.70521
21, 2, bw, attraction, a-b-da, 14, 3, 2, 20, 181, 111, 195, 120, 120, 195, 3, 1.72279
21, 2, bw, attraction, a-b-da, 14, 3, 2, 20, 181, 111, 195, 120, 120, 195, 1, 14.5154
21, 2, bw, catch, NA, 999, 999, 2, 21, 156, 99, 125, 190, 129, 66, 2, 1.22485
21, 2, bw, catch, NA, 999, 999, 2, 21, 156, 99, 125, 190, 129, 66, 3, 1.09638
21, 2, bw, attraction, a-b-da, 14, 1, 2, 22, 125, 56, 60, 135, 135, 60, 2, 3.98552
21, 2, bw, attraction, a-b-da, 14, 1, 2, 22, 125, 56, 60, 135, 135, 60, 1, 1.10389
21, 2, bw, attraction, a-b-db, 5, 3, 2, 23, 120, 195, 195, 120, 117, 190, 3, 12.0271
21, 2, bw, attraction, a-b-db, 5, 3, 2, 23, 120, 195, 195, 120, 117, 190, 2, 1.62303
21, 2, bw, filler, NA, 999, 999, 2, 24, 148, 184, 62, 120, 180, 96, 1, 1.77965
21, 2, bw, filler, NA, 999, 999, 2, 24, 148, 184, 62, 120, 180, 96, 2, 0.689365
21, 2, bw, filler, NA, 999, 999, 2, 25, 140, 100, 82, 96, 135, 144, 3, 1.95642
21, 2, bw, filler, NA, 999, 999, 2, 25, 140, 100, 82, 96, 135, 144, 2, 0.722859
21, 2, bw, attraction, a-b-da, 2, 2, 2, 26, 90, 165, 165, 90, 163, 89, 1, 3.21339
21, 2, bw, attraction, a-b-da, 2, 2, 2, 26, 90, 165, 165, 90, 163, 89, 2, 5.01045
21, 2, bw, attraction, a-b-db, 9, 1, 2, 27, 60, 135, 57, 129, 135, 60, 1, 5.87793
21, 2, bw, attraction, a-b-db, 9, 1, 2, 27, 60, 135, 57, 129, 135, 60, 2, 1.13861
21, 2, bw, attraction, a-b-db, 14, 1, 2, 28, 56, 125, 135, 60, 60, 135, 3, 1.66471
21, 2, bw, attraction, a-b-db, 14, 1, 2, 28, 56, 125, 135, 60, 60, 135, 2, 1.24863
21, 2, bw, attraction, a-b-db, 9, 3, 2, 29, 120, 195, 114, 186, 195, 120, 1, 14.2655
21, 2, bw, attraction, a-b-db, 9, 3, 2, 29, 120, 195, 114, 186, 195, 120, 2, 0.659556
21, 2, bw, attraction, a-b-da, 5, 2, 2, 30, 90, 165, 165, 90, 161, 88, 1, 3.0789
21, 2, bw, attraction, a-b-da, 5, 2, 2, 30, 90, 165, 165, 90, 161, 88, 2, 1.30613
21, 2, bw, filler, NA, 999, 999, 2, 31, 71, 103, 144, 164, 143, 190, 3, 1.32519
21, 2, bw, filler, NA, 999, 999, 2, 31, 71, 103, 144, 164, 143, 190, 1, 0.790961
21, 2, bw, attraction, a-b-da, 9, 2, 2, 32, 165, 90, 90, 165, 157, 86, 3, 3.49939
21, 2, bw, attraction, a-b-da, 9, 2, 2, 32, 165, 90, 90, 165, 157, 86, 2, 5.73401
21, 2, bw, filler, NA, 999, 999, 2, 33, 78, 89, 88, 157, 111, 116, 2, 8.89218
21, 2, bw, filler, NA, 999, 999, 2, 33, 78, 89, 88, 157, 111, 116, 1, 0.885342
21, 2, bw, attraction, a-b-da, 2, 1, 2, 34, 135, 60, 134, 59, 60, 135, 3, 1.97708
21, 2, bw, attraction, a-b-da, 2, 1, 2, 34, 135, 60, 134, 59, 60, 135, 2, 1.35312
21, 2, bw, filler, NA, 999, 999, 2, 35, 97, 162, 182, 75, 154, 179, 3, 1.33674
21, 2, bw, filler, NA, 999, 999, 2, 35, 97, 162, 182, 75, 154, 179, 2, 1.66704
21, 2, bw, attraction, a-b-da, 9, 1, 2, 36, 135, 60, 129, 57, 60, 135, 3, 2.08527
21, 2, bw, attraction, a-b-da, 9, 1, 2, 36, 135, 60, 129, 57, 60, 135, 2, 1.15967
21, 2, bw, attraction, a-b-db, 14, 2, 2, 37, 83, 153, 90, 165, 165, 90, 2, 3.72888
21, 2, bw, attraction, a-b-db, 14, 2, 2, 37, 83, 153, 90, 165, 165, 90, 1, 2.6142
21, 2, bw, attraction, a-b-db, 2, 2, 3, 1, 90, 165, 165, 90, 89, 163, 1, 6.13952
21, 2, bw, attraction, a-b-db, 2, 2, 3, 1, 90, 165, 165, 90, 89, 163, 2, 0.935616
21, 2, bw, attraction, a-b-db, 14, 1, 3, 2, 135, 60, 60, 135, 56, 125, 3, 10.8456
21, 2, bw, attraction, a-b-db, 14, 1, 3, 2, 135, 60, 60, 135, 56, 125, 2, 1.1203
21, 2, bw, filler, NA, 999, 999, 3, 3, 166, 111, 192, 115, 84, 88, 2, 2.16031
21, 2, bw, filler, NA, 999, 999, 3, 3, 166, 111, 192, 115, 84, 88, 3, 0.731488
21, 2, bw, attraction, a-b-db, 2, 1, 3, 4, 59, 134, 135, 60, 60, 135, 3, 1.45747
21, 2, bw, attraction, a-b-db, 2, 1, 3, 4, 59, 134, 135, 60, 60, 135, 2, 0.719563
21, 2, bw, attraction, a-b-db, 9, 2, 3, 5, 90, 165, 86, 157, 165, 90, 1, 1.68752
21, 2, bw, attraction, a-b-db, 9, 2, 3, 5, 90, 165, 86, 157, 165, 90, 2, 2.82847
21, 2, bw, attraction, a-b-da, 14, 3, 3, 6, 120, 195, 195, 120, 181, 111, 1, 1.91215
21, 2, bw, attraction, a-b-da, 14, 3, 3, 6, 120, 195, 195, 120, 181, 111, 3, 2.72991
21, 2, bw, attraction, a-b-da, 5, 1, 3, 7, 135, 60, 60, 135, 132, 58, 3, 6.41946
21, 2, bw, attraction, a-b-da, 5, 1, 3, 7, 135, 60, 60, 135, 132, 58, 2, 2.90275
21, 2, bw, filler, NA, 999, 999, 3, 8, 139, 145, 122, 113, 107, 122, 1, 5.12894
21, 2, bw, filler, NA, 999, 999, 3, 8, 139, 145, 122, 113, 107, 122, 3, 1.90569
21, 2, bw, attraction, a-b-da, 14, 1, 3, 9, 125, 56, 135, 60, 60, 135, 3, 1.91505
21, 2, bw, attraction, a-b-da, 14, 1, 3, 9, 125, 56, 135, 60, 60, 135, 2, 0.788004
21, 2, bw, filler, NA, 999, 999, 3, 10, 139, 188, 63, 87, 89, 137, 1, 1.13721
21, 2, bw, filler, NA, 999, 999, 3, 10, 139, 188, 63, 87, 89, 137, 2, 0.772224
21, 2, bw, attraction, a-b-db, 14, 2, 3, 11, 165, 90, 83, 153, 90, 165, 3, 1.41052
21, 2, bw, attraction, a-b-db, 14, 2, 3, 11, 165, 90, 83, 153, 90, 165, 1, 0.760821
21, 2, bw, attraction, a-b-db, 5, 3, 3, 12, 120, 195, 117, 190, 195, 120, 1, 1.39283
21, 2, bw, attraction, a-b-db, 5, 3, 3, 12, 120, 195, 117, 190, 195, 120, 3, 0.881797
21, 2, bw, attraction, a-b-da, 5, 2, 3, 13, 165, 90, 90, 165, 161, 88, 3, 2.49043
21, 2, bw, attraction, a-b-da, 5, 2, 3, 13, 165, 90, 90, 165, 161, 88, 2, 0.750392
21, 2, bw, attraction, a-b-db, 9, 3, 3, 14, 195, 120, 114, 186, 120, 195, 3, 1.62331
21, 2, bw, attraction, a-b-db, 9, 3, 3, 14, 195, 120, 114, 186, 120, 195, 2, 1.29323
21, 2, bw, attraction, a-b-da, 5, 3, 3, 15, 120, 195, 190, 117, 195, 120, 3, 1.99925
21, 2, bw, attraction, a-b-da, 5, 3, 3, 15, 120, 195, 190, 117, 195, 120, 2, 1.42115
21, 2, bw, filler, NA, 999, 999, 3, 16, 143, 126, 190, 170, 127, 88, 2, 1.7848
21, 2, bw, filler, NA, 999, 999, 3, 16, 143, 126, 190, 170, 127, 88, 3, 1.19293
21, 2, bw, attraction, a-b-db, 2, 3, 3, 17, 195, 120, 119, 193, 120, 195, 3, 1.56053
21, 2, bw, attraction, a-b-db, 2, 3, 3, 17, 195, 120, 119, 193, 120, 195, 1, 6.31187
21, 2, bw, attraction, a-b-db, 14, 3, 3, 18, 120, 195, 111, 181, 195, 120, 1, 1.37743
21, 2, bw, attraction, a-b-db, 14, 3, 3, 18, 120, 195, 111, 181, 195, 120, 2, 0.545931
21, 2, bw, attraction, a-b-da, 2, 3, 3, 19, 193, 119, 195, 120, 120, 195, 3, 1.82675
21, 2, bw, attraction, a-b-da, 2, 3, 3, 19, 193, 119, 195, 120, 120, 195, 2, 1.19763
21, 2, bw, filler, NA, 999, 999, 3, 20, 149, 129, 152, 84, 166, 170, 3, 1.1267
21, 2, bw, filler, NA, 999, 999, 3, 20, 149, 129, 152, 84, 166, 170, 2, 0.981838
21, 2, bw, attraction, a-b-da, 9, 1, 3, 21, 60, 135, 129, 57, 135, 60, 1, 1.4045
21, 2, bw, attraction, a-b-da, 9, 1, 3, 21, 60, 135, 129, 57, 135, 60, 2, 0.997648
21, 2, bw, attraction, a-b-da, 2, 1, 3, 22, 60, 135, 135, 60, 134, 59, 1, 1.34715
21, 2, bw, attraction, a-b-da, 2, 1, 3, 22, 60, 135, 135, 60, 134, 59, 2, 0.557263
21, 2, bw, attraction, a-b-da, 14, 2, 3, 23, 153, 83, 165, 90, 90, 165, 3, 1.10684
21, 2, bw, attraction, a-b-da, 14, 2, 3, 23, 153, 83, 165, 90, 90, 165, 2, 1.43781
21, 2, bw, catch, NA, 999, 999, 3, 24, 186, 129, 134, 121, 67, 128, 1, 1.55289
21, 2, bw, catch, NA, 999, 999, 3, 24, 186, 129, 134, 121, 67, 128, 3, 1.04255
21, 2, bw, filler, NA, 999, 999, 3, 25, 174, 103, 111, 137, 60, 113, 1, 1.83238
21, 2, bw, filler, NA, 999, 999, 3, 25, 174, 103, 111, 137, 60, 113, 3, 0.668791
21, 2, bw, filler, NA, 999, 999, 3, 26, 142, 180, 90, 120, 153, 85, 1, 1.51297
21, 2, bw, filler, NA, 999, 999, 3, 26, 142, 180, 90, 120, 153, 85, 2, 1.65019
21, 2, bw, filler, NA, 999, 999, 3, 27, 130, 145, 113, 138, 58, 154, 1, 1.39779
21, 2, bw, filler, NA, 999, 999, 3, 27, 130, 145, 113, 138, 58, 154, 3, 1.10745
21, 2, bw, catch, NA, 999, 999, 3, 28, 96, 159, 114, 81, 192, 123, 3, 2.04597
21, 2, bw, catch, NA, 999, 999, 3, 28, 96, 159, 114, 81, 192, 123, 2, 0.723035
21, 2, bw, filler, NA, 999, 999, 3, 29, 85, 177, 81, 160, 121, 148, 3, 2.76375
21, 2, bw, filler, NA, 999, 999, 3, 29, 85, 177, 81, 160, 121, 148, 2, 3.28408
21, 2, bw, attraction, a-b-da, 9, 3, 3, 30, 195, 120, 120, 195, 186, 114, 1, 2.49993
21, 2, bw, attraction, a-b-da, 9, 3, 3, 30, 195, 120, 120, 195, 186, 114, 3, 3.33623
21, 2, bw, attraction, a-b-db, 5, 1, 3, 31, 60, 135, 135, 60, 58, 132, 1, 1.91769
21, 2, bw, attraction, a-b-db, 5, 1, 3, 31, 60, 135, 135, 60, 58, 132, 3, 0.873905
21, 2, bw, catch, NA, 999, 999, 3, 32, 103, 152, 136, 179, 102, 93, 2, 1.49381
21, 2, bw, catch, NA, 999, 999, 3, 32, 103, 152, 136, 179, 102, 93, 3, 0.783756
21, 2, bw, attraction, a-b-da, 9, 2, 3, 33, 90, 165, 165, 90, 157, 86, 1, 1.277
21, 2, bw, attraction, a-b-da, 9, 2, 3, 33, 90, 165, 165, 90, 157, 86, 2, 0.617814
21, 2, bw, attraction, a-b-db, 9, 1, 3, 34, 57, 129, 60, 135, 135, 60, 2, 3.06239
21, 2, bw, attraction, a-b-db, 9, 1, 3, 34, 57, 129, 60, 135, 135, 60, 1, 0.875653
21, 2, bw, attraction, a-b-da, 2, 2, 3, 35, 163, 89, 90, 165, 165, 90, 2, 1.62024
21, 2, bw, attraction, a-b-da, 2, 2, 3, 35, 163, 89, 90, 165, 165, 90, 3, 1.46016
21, 2, bw, filler, NA, 999, 999, 3, 36, 63, 178, 58, 139, 180, 164, 3, 1.67762
21, 2, bw, filler, NA, 999, 999, 3, 36, 63, 178, 58, 139, 180, 164, 2, 0.809111
21, 2, bw, attraction, a-b-db, 5, 2, 3, 37, 90, 165, 88, 161, 165, 90, 1, 2.08784
21, 2, bw, attraction, a-b-db, 5, 2, 3, 37, 90, 165, 88, 161, 165, 90, 2, 5.53163
21, 2, bw, filler, NA, 999, 999, 4, 1, 62, 184, 82, 191, 91, 178, 3, 1.51398
21, 2, bw, filler, NA, 999, 999, 4, 1, 62, 184, 82, 191, 91, 178, 1, 0.939856
21, 2, bw, attraction, a-b-db, 2, 1, 4, 2, 135, 60, 59, 134, 60, 135, 3, 4.07557
21, 2, bw, attraction, a-b-db, 2, 1, 4, 2, 135, 60, 59, 134, 60, 135, 1, 1.02479
21, 2, bw, filler, NA, 999, 999, 4, 3, 140, 95, 189, 107, 186, 169, 3, 1.89266
21, 2, bw, filler, NA, 999, 999, 4, 3, 140, 95, 189, 107, 186, 169, 1, 0.67975
21, 2, bw, attraction, a-b-da, 5, 3, 4, 4, 195, 120, 190, 117, 120, 195, 3, 1.99675
21, 2, bw, attraction, a-b-da, 5, 3, 4, 4, 195, 120, 190, 117, 120, 195, 2, 0.681489
21, 2, bw, attraction, a-b-da, 9, 2, 4, 5, 165, 90, 90, 165, 157, 86, 1, 4.19605
21, 2, bw, attraction, a-b-da, 9, 2, 4, 5, 165, 90, 90, 165, 157, 86, 3, 0.944616
21, 2, bw, attraction, a-b-db, 2, 3, 4, 6, 195, 120, 120, 195, 119, 193, 2, 4.84891
21, 2, bw, attraction, a-b-db, 2, 3, 4, 6, 195, 120, 120, 195, 119, 193, 3, 0.573299
21, 2, bw, attraction, a-b-da, 5, 2, 4, 7, 161, 88, 165, 90, 90, 165, 3, 14.3101
21, 2, bw, attraction, a-b-da, 5, 2, 4, 7, 161, 88, 165, 90, 90, 165, 2, 0.940465
21, 2, bw, filler, NA, 999, 999, 4, 8, 105, 144, 101, 134, 103, 123, 1, 2.64632
21, 2, bw, filler, NA, 999, 999, 4, 8, 105, 144, 101, 134, 103, 123, 3, 1.84013
21, 2, bw, attraction, a-b-db, 9, 3, 4, 9, 114, 186, 195, 120, 120, 195, 3, 1.7648
21, 2, bw, attraction, a-b-db, 9, 3, 4, 9, 114, 186, 195, 120, 120, 195, 2, 3.29407
21, 2, bw, filler, NA, 999, 999, 4, 10, 154, 123, 85, 181, 67, 164, 1, 1.75282
21, 2, bw, filler, NA, 999, 999, 4, 10, 154, 123, 85, 181, 67, 164, 3, 0.686859
21, 2, bw, attraction, a-b-da, 9, 3, 4, 11, 186, 114, 195, 120, 120, 195, 3, 2.24228
21, 2, bw, attraction, a-b-da, 9, 3, 4, 11, 186, 114, 195, 120, 120, 195, 2, 1.07203
21, 2, bw, attraction, a-b-da, 5, 1, 4, 12, 132, 58, 60, 135, 135, 60, 2, 4.48287
21, 2, bw, attraction, a-b-da, 5, 1, 4, 12, 132, 58, 60, 135, 135, 60, 3, 1.09229
21, 2, bw, filler, NA, 999, 999, 4, 13, 89, 57, 65, 133, 70, 149, 3, 1.95895
21, 2, bw, filler, NA, 999, 999, 4, 13, 89, 57, 65, 133, 70, 149, 1, 0.82352
21, 2, bw, attraction, a-b-da, 14, 3, 4, 14, 195, 120, 120, 195, 181, 111, 1, 3.26126
21, 2, bw, attraction, a-b-da, 14, 3, 4, 14, 195, 120, 120, 195, 181, 111, 3, 0.777534
21, 2, bw, attraction, a-b-db, 14, 2, 4, 15, 83, 153, 165, 90, 90, 165, 3, 3.12012
21, 2, bw, attraction, a-b-db, 14, 2, 4, 15, 83, 153, 165, 90, 90, 165, 1, 0.793089
21, 2, bw, attraction, a-b-db, 9, 1, 4, 16, 135, 60, 57, 129, 60, 135, 3, 2.32631
21, 2, bw, attraction, a-b-db, 9, 1, 4, 16, 135, 60, 57, 129, 60, 135, 2, 0.713623
21, 2, bw, attraction, a-b-db, 5, 2, 4, 17, 165, 90, 90, 165, 88, 161, 2, 5.70837
21, 2, bw, attraction, a-b-db, 5, 2, 4, 17, 165, 90, 90, 165, 88, 161, 3, 1.13453
21, 2, bw, attraction, a-b-db, 9, 2, 4, 18, 86, 157, 90, 165, 165, 90, 2, 2.7819
21, 2, bw, attraction, a-b-db, 9, 2, 4, 18, 86, 157, 90, 165, 165, 90, 3, 0.659108
21, 2, bw, attraction, a-b-da, 14, 1, 4, 19, 135, 60, 125, 56, 60, 135, 3, 2.6322
21, 2, bw, attraction, a-b-da, 14, 1, 4, 19, 135, 60, 125, 56, 60, 135, 2, 1.26802
21, 2, bw, catch, NA, 999, 999, 4, 20, 175, 140, 102, 153, 73, 122, 1, 1.4891
21, 2, bw, catch, NA, 999, 999, 4, 20, 175, 140, 102, 153, 73, 122, 3, 1.17977
21, 2, bw, attraction, a-b-db, 14, 1, 4, 21, 135, 60, 60, 135, 56, 125, 3, 1.99609
21, 2, bw, attraction, a-b-db, 14, 1, 4, 21, 135, 60, 60, 135, 56, 125, 1, 3.09017
21, 2, bw, attraction, a-b-da, 14, 2, 4, 22, 90, 165, 165, 90, 153, 83, 1, 1.79601
21, 2, bw, attraction, a-b-da, 14, 2, 4, 22, 90, 165, 165, 90, 153, 83, 3, 0.689878
21, 2, bw, attraction, a-b-da, 2, 3, 4, 23, 120, 195, 195, 120, 193, 119, 3, 4.15445
21, 2, bw, attraction, a-b-da, 2, 3, 4, 23, 120, 195, 195, 120, 193, 119, 1, 1.38741
21, 2, bw, attraction, a-b-da, 2, 1, 4, 24, 134, 59, 135, 60, 60, 135, 3, 2.16118
21, 2, bw, attraction, a-b-da, 2, 1, 4, 24, 134, 59, 135, 60, 60, 135, 2, 0.722871
21, 2, bw, attraction, a-b-da, 9, 1, 4, 25, 135, 60, 60, 135, 129, 57, 1, 1.79694
21, 2, bw, attraction, a-b-da, 9, 1, 4, 25, 135, 60, 60, 135, 129, 57, 3, 0.771024
21, 2, bw, catch, NA, 999, 999, 4, 26, 130, 65, 170, 145, 152, 103, 2, 1.89967
21, 2, bw, catch, NA, 999, 999, 4, 26, 130, 65, 170, 145, 152, 103, 1, 1.18055
21, 2, bw, filler, NA, 999, 999, 4, 27, 185, 186, 149, 134, 133, 132, 1, 1.2043
21, 2, bw, filler, NA, 999, 999, 4, 27, 185, 186, 149, 134, 133, 132, 3, 2.06
21, 2, bw, attraction, a-b-da, 2, 2, 4, 28, 165, 90, 163, 89, 90, 165, 3, 1.62407
21, 2, bw, attraction, a-b-da, 2, 2, 4, 28, 165, 90, 163, 89, 90, 165, 2, 0.949444
21, 2, bw, filler, NA, 999, 999, 4, 29, 71, 133, 58, 195, 127, 188, 3, 1.44366
21, 2, bw, filler, NA, 999, 999, 4, 29, 71, 133, 58, 195, 127, 188, 1, 1.063
21, 2, bw, attraction, a-b-db, 2, 2, 4, 30, 90, 165, 89, 163, 165, 90, 1, 3.78782
21, 2, bw, attraction, a-b-db, 2, 2, 4, 30, 90, 165, 89, 163, 165, 90, 3, 2.90759
21, 2, bw, filler, NA, 999, 999, 4, 31, 165, 135, 178, 68, 58, 107, 1, 1.47057
21, 2, bw, filler, NA, 999, 999, 4, 31, 165, 135, 178, 68, 58, 107, 3, 0.792709
21, 2, bw, filler, NA, 999, 999, 4, 32, 127, 176, 165, 81, 96, 72, 1, 1.38385
21, 2, bw, filler, NA, 999, 999, 4, 32, 127, 176, 165, 81, 96, 72, 3, 0.876526
21, 2, bw, attraction, a-b-db, 14, 3, 4, 33, 195, 120, 111, 181, 120, 195, 3, 8.24098
21, 2, bw, attraction, a-b-db, 14, 3, 4, 33, 195, 120, 111, 181, 120, 195, 2, 0.66811
21, 2, bw, filler, NA, 999, 999, 4, 34, 122, 161, 144, 79, 71, 68, 1, 1.59879
21, 2, bw, filler, NA, 999, 999, 4, 34, 122, 161, 144, 79, 71, 68, 3, 0.990089
21, 2, bw, attraction, a-b-db, 5, 1, 4, 35, 135, 60, 58, 132, 60, 135, 3, 1.93299
21, 2, bw, attraction, a-b-db, 5, 1, 4, 35, 135, 60, 58, 132, 60, 135, 1, 2.05269
21, 2, bw, catch, NA, 999, 999, 4, 36, 126, 129, 123, 72, 165, 150, 3, 1.6723
21, 2, bw, catch, NA, 999, 999, 4, 36, 126, 129, 123, 72, 165, 150, 2, 1.48599
21, 2, bw, attraction, a-b-db, 5, 3, 4, 37, 195, 120, 117, 190, 120, 195, 3, 3.05492
21, 2, bw, attraction, a-b-db, 5, 3, 4, 37, 195, 120, 117, 190, 120, 195, 1, 0.724059
21, 2, bw, filler, NA, 999, 999, 5, 1, 141, 179, 57, 98, 80, 71, 1, 3.96498
21, 2, bw, filler, NA, 999, 999, 5, 1, 141, 179, 57, 98, 80, 71, 3, 0.995396
21, 2, bw, attraction, a-b-db, 2, 3, 5, 2, 120, 195, 195, 120, 119, 193, 3, 1.73655
21, 2, bw, attraction, a-b-db, 2, 3, 5, 2, 120, 195, 195, 120, 119, 193, 2, 2.93693
21, 2, bw, attraction, a-b-da, 9, 2, 5, 3, 165, 90, 90, 165, 157, 86, 1, 1.843
21, 2, bw, attraction, a-b-da, 9, 2, 5, 3, 165, 90, 90, 165, 157, 86, 3, 0.950629
21, 2, bw, filler, NA, 999, 999, 5, 4, 164, 83, 163, 92, 154, 83, 1, 1.76741
21, 2, bw, filler, NA, 999, 999, 5, 4, 164, 83, 163, 92, 154, 83, 3, 0.632537
21, 2, bw, filler, NA, 999, 999, 5, 5, 74, 115, 111, 88, 129, 176, 3, 1.49149
21, 2, bw, filler, NA, 999, 999, 5, 5, 74, 115, 111, 88, 129, 176, 1, 0.687092
21, 2, bw, attraction, a-b-da, 5, 1, 5, 6, 60, 135, 132, 58, 135, 60, 1, 2.53674
21, 2, bw, attraction, a-b-da, 5, 1, 5, 6, 60, 135, 132, 58, 135, 60, 3, 0.771536
21, 2, bw, attraction, a-b-da, 14, 1, 5, 7, 135, 60, 125, 56, 60, 135, 3, 1.97127
21, 2, bw, attraction, a-b-da, 14, 1, 5, 7, 135, 60, 125, 56, 60, 135, 2, 1.21115
21, 2, bw, filler, NA, 999, 999, 5, 8, 158, 159, 65, 187, 107, 173, 1, 1.57614
21, 2, bw, filler, NA, 999, 999, 5, 8, 158, 159, 65, 187, 107, 173, 2, 0.768205
21, 2, bw, attraction, a-b-da, 9, 1, 5, 9, 60, 135, 129, 57, 135, 60, 1, 3.30388
21, 2, bw, attraction, a-b-da, 9, 1, 5, 9, 60, 135, 129, 57, 135, 60, 2, 0.753415
21, 2, bw, attraction, a-b-da, 5, 3, 5, 10, 120, 195, 190, 117, 195, 120, 1, 1.52104
21, 2, bw, attraction, a-b-da, 5, 3, 5, 10, 120, 195, 190, 117, 195, 120, 2, 0.777561
21, 2, bw, attraction, a-b-db, 5, 1, 5, 11, 135, 60, 58, 132, 60, 135, 3, 1.60388
21, 2, bw, attraction, a-b-db, 5, 1, 5, 11, 135, 60, 58, 132, 60, 135, 1, 1.6012
21, 2, bw, filler, NA, 999, 999, 5, 12, 132, 137, 112, 183, 189, 91, 2, 2.39762
21, 2, bw, filler, NA, 999, 999, 5, 12, 132, 137, 112, 183, 189, 91, 3, 3.66985
21, 2, bw, attraction, a-b-db, 2, 1, 5, 13, 60, 135, 135, 60, 59, 134, 3, 1.91111
21, 2, bw, attraction, a-b-db, 2, 1, 5, 13, 60, 135, 135, 60, 59, 134, 1, 1.18558
21, 2, bw, attraction, a-b-db, 9, 1, 5, 14, 57, 129, 135, 60, 60, 135, 3, 2.60899
21, 2, bw, attraction, a-b-db, 9, 1, 5, 14, 57, 129, 135, 60, 60, 135, 2, 0.518324
21, 2, bw, attraction, a-b-da, 2, 1, 5, 15, 60, 135, 134, 59, 135, 60, 1, 1.90382
21, 2, bw, attraction, a-b-da, 2, 1, 5, 15, 60, 135, 134, 59, 135, 60, 2, 1.58659
21, 2, bw, attraction, a-b-da, 5, 2, 5, 16, 161, 88, 165, 90, 90, 165, 1, 4.19884
21, 2, bw, attraction, a-b-da, 5, 2, 5, 16, 161, 88, 165, 90, 90, 165, 2, 1.00669
21, 2, bw, attraction, a-b-da, 14, 2, 5, 17, 153, 83, 165, 90, 90, 165, 2, 3.3716
21, 2, bw, attraction, a-b-da, 14, 2, 5, 17, 153, 83, 165, 90, 90, 165, 1, 0.579024
21, 2, bw, filler, NA, 999, 999, 5, 18, 148, 160, 142, 157, 67, 120, 1, 2.79256
21, 2, bw, filler, NA, 999, 999, 5, 18, 148, 160, 142, 157, 67, 120, 3, 0.841403
21, 2, bw, catch, NA, 999, 999, 5, 19, 182, 133, 127, 128, 89, 106, 1, 1.22335
21, 2, bw, catch, NA, 999, 999, 5, 19, 182, 133, 127, 128, 89, 106, 3, 0.733356
21, 2, bw, attraction, a-b-da, 9, 3, 5, 20, 186, 114, 120, 195, 195, 120, 3, 2.41094
21, 2, bw, attraction, a-b-da, 9, 3, 5, 20, 186, 114, 120, 195, 195, 120, 1, 0.691389
21, 2, bw, attraction, a-b-db, 14, 3, 5, 21, 120, 195, 195, 120, 111, 181, 1, 5.45242
21, 2, bw, attraction, a-b-db, 14, 3, 5, 21, 120, 195, 195, 120, 111, 181, 3, 0.703541
21, 2, bw, attraction, a-b-db, 14, 2, 5, 22, 83, 153, 90, 165, 165, 90, 2, 2.05709
21, 2, bw, attraction, a-b-db, 14, 2, 5, 22, 83, 153, 90, 165, 165, 90, 1, 0.831216
21, 2, bw, attraction, a-b-da, 2, 2, 5, 23, 163, 89, 165, 90, 90, 165, 2, 3.71481
21, 2, bw, attraction, a-b-da, 2, 2, 5, 23, 163, 89, 165, 90, 90, 165, 1, 0.823233
21, 2, bw, attraction, a-b-da, 14, 3, 5, 24, 181, 111, 195, 120, 120, 195, 3, 1.41762
21, 2, bw, attraction, a-b-da, 14, 3, 5, 24, 181, 111, 195, 120, 120, 195, 1, 0.672125
21, 2, bw, attraction, a-b-db, 9, 3, 5, 25, 120, 195, 195, 120, 114, 186, 1, 1.47495
21, 2, bw, attraction, a-b-db, 9, 3, 5, 25, 120, 195, 195, 120, 114, 186, 3, 0.903511
21, 2, bw, filler, NA, 999, 999, 5, 26, 92, 60, 84, 131, 110, 112, 3, 1.78512
21, 2, bw, filler, NA, 999, 999, 5, 26, 92, 60, 84, 131, 110, 112, 1, 0.704534
21, 2, bw, filler, NA, 999, 999, 5, 27, 71, 87, 173, 172, 161, 62, 2, 2.02793
21, 2, bw, filler, NA, 999, 999, 5, 27, 71, 87, 173, 172, 161, 62, 1, 0.967827
21, 2, bw, filler, NA, 999, 999, 5, 28, 162, 99, 195, 159, 110, 181, 2, 1.56744
21, 2, bw, filler, NA, 999, 999, 5, 28, 162, 99, 195, 159, 110, 181, 3, 0.886767
21, 2, bw, attraction, a-b-db, 9, 2, 5, 29, 165, 90, 90, 165, 86, 157, 2, 1.83402
21, 2, bw, attraction, a-b-db, 9, 2, 5, 29, 165, 90, 90, 165, 86, 157, 3, 0.580943
21, 2, bw, attraction, a-b-db, 5, 3, 5, 30, 120, 195, 117, 190, 195, 120, 2, 1.38982
21, 2, bw, attraction, a-b-db, 5, 3, 5, 30, 120, 195, 117, 190, 195, 120, 1, 2.73371
21, 2, bw, attraction, a-b-db, 5, 2, 5, 31, 90, 165, 88, 161, 165, 90, 2, 2.89932
21, 2, bw, attraction, a-b-db, 5, 2, 5, 31, 90, 165, 88, 161, 165, 90, 1, 2.95118
21, 2, bw, catch, NA, 999, 999, 5, 32, 179, 136, 123, 132, 92, 103, 1, 1.34204
21, 2, bw, catch, NA, 999, 999, 5, 32, 179, 136, 123, 132, 92, 103, 3, 0.765732
21, 2, bw, attraction, a-b-db, 14, 1, 5, 33, 60, 135, 56, 125, 135, 60, 2, 1.55001
21, 2, bw, attraction, a-b-db, 14, 1, 5, 33, 60, 135, 56, 125, 135, 60, 3, 0.918651
21, 2, bw, filler, NA, 999, 999, 5, 34, 174, 160, 192, 128, 106, 186, 1, 2.13664
21, 2, bw, filler, NA, 999, 999, 5, 34, 174, 160, 192, 128, 106, 186, 3, 1.13779
21, 2, bw, catch, NA, 999, 999, 5, 35, 96, 99, 147, 168, 90, 165, 2, 2.03436
21, 2, bw, catch, NA, 999, 999, 5, 35, 96, 99, 147, 168, 90, 165, 1, 1.22198
21, 2, bw, attraction, a-b-db, 2, 2, 5, 36, 165, 90, 89, 163, 90, 165, 3, 1.91439
21, 2, bw, attraction, a-b-db, 2, 2, 5, 36, 165, 90, 89, 163, 90, 165, 2, 0.651815
21, 2, bw, attraction, a-b-da, 2, 3, 5, 37, 195, 120, 120, 195, 193, 119, 1, 2.28908
21, 2, bw, attraction, a-b-da, 2, 3, 5, 37, 195, 120, 120, 195, 193, 119, 3, 0.772352
21, 2, bw, attraction, a-b-da, 5, 1, 6, 1, 60, 135, 132, 58, 135, 60, 1, 1.38015
21, 2, bw, attraction, a-b-da, 5, 1, 6, 1, 60, 135, 132, 58, 135, 60, 2, 0.746529
21, 2, bw, attraction, a-b-db, 14, 2, 6, 2, 90, 165, 83, 153, 165, 90, 1, 1.64323
21, 2, bw, attraction, a-b-db, 14, 2, 6, 2, 90, 165, 83, 153, 165, 90, 2, 0.736587
21, 2, bw, filler, NA, 999, 999, 6, 3, 69, 138, 57, 153, 147, 93, 3, 1.84264
21, 2, bw, filler, NA, 999, 999, 6, 3, 69, 138, 57, 153, 147, 93, 2, 0.865139
21, 2, bw, attraction, a-b-da, 5, 2, 6, 4, 90, 165, 165, 90, 161, 88, 1, 1.22744
21, 2, bw, attraction, a-b-da, 5, 2, 6, 4, 90, 165, 165, 90, 161, 88, 2, 1.22438
21, 2, bw, filler, NA, 999, 999, 6, 5, 166, 59, 88, 109, 168, 131, 3, 1.42085
21, 2, bw, filler, NA, 999, 999, 6, 5, 166, 59, 88, 109, 168, 131, 2, 1.31519
21, 2, bw, filler, NA, 999, 999, 6, 6, 175, 96, 108, 109, 173, 131, 3, 1.4193
21, 2, bw, filler, NA, 999, 999, 6, 6, 175, 96, 108, 109, 173, 131, 2, 3.84108
21, 2, bw, filler, NA, 999, 999, 6, 7, 159, 101, 75, 99, 92, 169, 1, 1.42174
21, 2, bw, filler, NA, 999, 999, 6, 7, 159, 101, 75, 99, 92, 169, 2, 0.8584
21, 2, bw, attraction, a-b-da, 9, 1, 6, 8, 129, 57, 135, 60, 60, 135, 3, 1.60801
21, 2, bw, attraction, a-b-da, 9, 1, 6, 8, 129, 57, 135, 60, 60, 135, 2, 0.725194
21, 2, bw, catch, NA, 999, 999, 6, 9, 80, 115, 94, 161, 167, 148, 3, 1.63119
21, 2, bw, catch, NA, 999, 999, 6, 9, 80, 115, 94, 161, 167, 148, 1, 0.738735
21, 2, bw, filler, NA, 999, 999, 6, 10, 171, 158, 135, 167, 183, 57, 1, 1.25393
21, 2, bw, filler, NA, 999, 999, 6, 10, 171, 158, 135, 167, 183, 57, 3, 0.992815
21, 2, bw, attraction, a-b-db, 14, 3, 6, 11, 120, 195, 195, 120, 111, 181, 1, 1.67191
21, 2, bw, attraction, a-b-db, 14, 3, 6, 11, 120, 195, 195, 120, 111, 181, 3, 0.700256
21, 2, bw, attraction, a-b-db, 2, 2, 6, 12, 89, 163, 90, 165, 165, 90, 2, 2.04686
21, 2, bw, attraction, a-b-db, 2, 2, 6, 12, 89, 163, 90, 165, 165, 90, 1, 1.10581
21, 2, bw, attraction, a-b-db, 9, 1, 6, 13, 60, 135, 57, 129, 135, 60, 1, 1.7246
21, 2, bw, attraction, a-b-db, 9, 1, 6, 13, 60, 135, 57, 129, 135, 60, 2, 0.622972
21, 2, bw, attraction, a-b-da, 9, 3, 6, 14, 186, 114, 195, 120, 120, 195, 2, 5.28271
21, 2, bw, attraction, a-b-da, 9, 3, 6, 14, 186, 114, 195, 120, 120, 195, 1, 0.76488
21, 2, bw, attraction, a-b-db, 9, 3, 6, 15, 114, 186, 195, 120, 120, 195, 3, 1.85287
21, 2, bw, attraction, a-b-db, 9, 3, 6, 15, 114, 186, 195, 120, 120, 195, 1, 1.05901
21, 2, bw, attraction, a-b-db, 14, 1, 6, 16, 56, 125, 135, 60, 60, 135, 3, 2.40482
21, 2, bw, attraction, a-b-db, 14, 1, 6, 16, 56, 125, 135, 60, 60, 135, 1, 1.1554
21, 2, bw, attraction, a-b-da, 2, 3, 6, 17, 195, 120, 120, 195, 193, 119, 1, 6.83706
21, 2, bw, attraction, a-b-da, 2, 3, 6, 17, 195, 120, 120, 195, 193, 119, 3, 0.703348
21, 2, bw, filler, NA, 999, 999, 6, 18, 124, 171, 137, 82, 82, 114, 1, 1.41769
21, 2, bw, filler, NA, 999, 999, 6, 18, 124, 171, 137, 82, 82, 114, 3, 0.694733
21, 2, bw, catch, NA, 999, 999, 6, 19, 71, 124, 165, 90, 121, 194, 3, 1.33104
21, 2, bw, catch, NA, 999, 999, 6, 19, 71, 124, 165, 90, 121, 194, 1, 0.786236
21, 2, bw, attraction, a-b-da, 5, 3, 6, 20, 195, 120, 120, 195, 190, 117, 1, 1.68144
21, 2, bw, attraction, a-b-da, 5, 3, 6, 20, 195, 120, 120, 195, 190, 117, 3, 0.821709
21, 2, bw, attraction, a-b-db, 2, 3, 6, 21, 195, 120, 120, 195, 119, 193, 2, 1.73691
21, 2, bw, attraction, a-b-db, 2, 3, 6, 21, 195, 120, 120, 195, 119, 193, 3, 0.768954
21, 2, bw, attraction, a-b-da, 14, 1, 6, 22, 60, 135, 125, 56, 135, 60, 1, 1.60307
21, 2, bw, attraction, a-b-da, 14, 1, 6, 22, 60, 135, 125, 56, 135, 60, 2, 1.95392
21, 2, bw, filler, NA, 999, 999, 6, 23, 186, 80, 165, 62, 173, 163, 3, 1.34478
21, 2, bw, filler, NA, 999, 999, 6, 23, 186, 80, 165, 62, 173, 163, 2, 1.05065
21, 2, bw, attraction, a-b-db, 9, 2, 6, 24, 165, 90, 86, 157, 90, 165, 2, 2.62117
21, 2, bw, attraction, a-b-db, 9, 2, 6, 24, 165, 90, 86, 157, 90, 165, 3, 1.46629
21, 2, bw, attraction, a-b-db, 5, 1, 6, 25, 60, 135, 58, 132, 135, 60, 1, 1.3894
21, 2, bw, attraction, a-b-db, 5, 1, 6, 25, 60, 135, 58, 132, 135, 60, 2, 0.675959
21, 2, bw, attraction, a-b-da, 2, 2, 6, 26, 163, 89, 90, 165, 165, 90, 1, 4.40797
21, 2, bw, attraction, a-b-da, 2, 2, 6, 26, 163, 89, 90, 165, 165, 90, 3, 0.694817
21, 2, bw, attraction, a-b-da, 14, 2, 6, 27, 153, 83, 90, 165, 165, 90, 3, 2.17556
21, 2, bw, attraction, a-b-da, 14, 2, 6, 27, 153, 83, 90, 165, 165, 90, 1, 0.671669
21, 2, bw, attraction, a-b-da, 14, 3, 6, 28, 120, 195, 195, 120, 181, 111, 2, 1.55415
21, 2, bw, attraction, a-b-da, 14, 3, 6, 28, 120, 195, 195, 120, 181, 111, 3, 0.52533
21, 2, bw, catch, NA, 999, 999, 6, 29, 130, 65, 141, 174, 140, 115, 2, 1.15863
21, 2, bw, catch, NA, 999, 999, 6, 29, 130, 65, 141, 174, 140, 115, 1, 0.638173
21, 2, bw, filler, NA, 999, 999, 6, 30, 145, 172, 90, 126, 75, 137, 1, 1.45994
21, 2, bw, filler, NA, 999, 999, 6, 30, 145, 172, 90, 126, 75, 137, 2, 2.38407
21, 2, bw, attraction, a-b-db, 5, 3, 6, 31, 117, 190, 120, 195, 195, 120, 2, 1.79739
21, 2, bw, attraction, a-b-db, 5, 3, 6, 31, 117, 190, 120, 195, 195, 120, 1, 0.764884
21, 2, bw, attraction, a-b-db, 2, 1, 6, 32, 60, 135, 135, 60, 59, 134, 3, 1.37305
21, 2, bw, attraction, a-b-db, 2, 1, 6, 32, 60, 135, 135, 60, 59, 134, 1, 0.596092
21, 2, bw, attraction, a-b-da, 2, 1, 6, 33, 135, 60, 60, 135, 134, 59, 2, 3.00123
21, 2, bw, attraction, a-b-da, 2, 1, 6, 33, 135, 60, 60, 135, 134, 59, 1, 1.36114
21, 2, bw, filler, NA, 999, 999, 6, 34, 60, 76, 149, 192, 117, 73, 2, 1.59816
21, 2, bw, filler, NA, 999, 999, 6, 34, 60, 76, 149, 192, 117, 73, 1, 0.80013
21, 2, bw, attraction, a-b-db, 5, 2, 6, 35, 90, 165, 165, 90, 88, 161, 1, 1.9166
21, 2, bw, attraction, a-b-db, 5, 2, 6, 35, 90, 165, 165, 90, 88, 161, 3, 0.600027
21, 2, bw, attraction, a-b-da, 9, 2, 6, 36, 165, 90, 157, 86, 90, 165, 1, 3.01289
21, 2, bw, attraction, a-b-da, 9, 2, 6, 36, 165, 90, 157, 86, 90, 165, 2, 0.562456
21, 2, bw, filler, NA, 999, 999, 6, 37, 68, 103, 83, 150, 169, 184, 3, 1.19992
21, 2, bw, filler, NA, 999, 999, 6, 37, 68, 103, 83, 150, 169, 184, 1, 0.6723
21, 2, bw, attraction, a-b-da, 14, 2, 7, 1, 153, 83, 165, 90, 90, 165, 3, 1.81244
21, 2, bw, attraction, a-b-da, 14, 2, 7, 1, 153, 83, 165, 90, 90, 165, 2, 1.21887
21, 2, bw, attraction, a-b-da, 5, 3, 7, 2, 120, 195, 190, 117, 195, 120, 3, 2.90449
21, 2, bw, attraction, a-b-da, 5, 3, 7, 2, 120, 195, 190, 117, 195, 120, 2, 0.592993
21, 2, bw, attraction, a-b-da, 5, 1, 7, 3, 132, 58, 60, 135, 135, 60, 2, 3.18238
21, 2, bw, attraction, a-b-da, 5, 1, 7, 3, 132, 58, 60, 135, 135, 60, 1, 0.893623
21, 2, bw, attraction, a-b-db, 14, 2, 7, 4, 83, 153, 90, 165, 165, 90, 2, 2.14584
21, 2, bw, attraction, a-b-db, 14, 2, 7, 4, 83, 153, 90, 165, 165, 90, 1, 0.914462
21, 2, bw, filler, NA, 999, 999, 7, 5, 116, 155, 171, 119, 155, 89, 2, 2.84819
21, 2, bw, filler, NA, 999, 999, 7, 5, 116, 155, 171, 119, 155, 89, 3, 0.806295
21, 2, bw, attraction, a-b-db, 2, 3, 7, 6, 120, 195, 195, 120, 119, 193, 3, 4.92279
21, 2, bw, attraction, a-b-db, 2, 3, 7, 6, 120, 195, 195, 120, 119, 193, 1, 0.900931
21, 2, bw, attraction, a-b-db, 5, 2, 7, 7, 90, 165, 88, 161, 165, 90, 2, 1.6154
21, 2, bw, attraction, a-b-db, 5, 2, 7, 7, 90, 165, 88, 161, 165, 90, 1, 0.574897
21, 2, bw, filler, NA, 999, 999, 7, 8, 99, 136, 84, 182, 122, 151, 3, 1.4116
21, 2, bw, filler, NA, 999, 999, 7, 8, 99, 136, 84, 182, 122, 151, 1, 0.674478
21, 2, bw, attraction, a-b-da, 2, 1, 7, 9, 60, 135, 134, 59, 135, 60, 3, 4.06891
21, 2, bw, attraction, a-b-da, 2, 1, 7, 9, 60, 135, 134, 59, 135, 60, 2, 0.83151
21, 2, bw, filler, NA, 999, 999, 7, 10, 116, 189, 183, 195, 70, 79, 2, 1.62107
21, 2, bw, filler, NA, 999, 999, 7, 10, 116, 189, 183, 195, 70, 79, 3, 0.701403
21, 2, bw, attraction, a-b-db, 9, 3, 7, 11, 114, 186, 195, 120, 120, 195, 3, 1.8684
21, 2, bw, attraction, a-b-db, 9, 3, 7, 11, 114, 186, 195, 120, 120, 195, 1, 1.09138
21, 2, bw, attraction, a-b-da, 2, 3, 7, 12, 195, 120, 193, 119, 120, 195, 3, 1.92324
21, 2, bw, attraction, a-b-da, 2, 3, 7, 12, 195, 120, 193, 119, 120, 195, 2, 1.23833
21, 2, bw, filler, NA, 999, 999, 7, 13, 57, 65, 100, 100, 65, 107, 2, 2.1372
21, 2, bw, filler, NA, 999, 999, 7, 13, 57, 65, 100, 100, 65, 107, 1, 1.39619
21, 2, bw, attraction, a-b-da, 9, 1, 7, 14, 60, 135, 129, 57, 135, 60, 1, 1.55323
21, 2, bw, attraction, a-b-da, 9, 1, 7, 14, 60, 135, 129, 57, 135, 60, 2, 0.810357
21, 2, bw, attraction, a-b-db, 14, 3, 7, 15, 120, 195, 111, 181, 195, 120, 1, 1.65581
21, 2, bw, attraction, a-b-db, 14, 3, 7, 15, 120, 195, 111, 181, 195, 120, 2, 0.644352
21, 2, bw, filler, NA, 999, 999, 7, 16, 109, 115, 169, 66, 57, 192, 1, 2.03148
21, 2, bw, filler, NA, 999, 999, 7, 16, 109, 115, 169, 66, 57, 192, 3, 1.19121
21, 2, bw, attraction, a-b-db, 14, 1, 7, 17, 60, 135, 56, 125, 135, 60, 1, 1.81331
21, 2, bw, attraction, a-b-db, 14, 1, 7, 17, 60, 135, 56, 125, 135, 60, 2, 0.707494
21, 2, bw, attraction, a-b-da, 5, 2, 7, 18, 161, 88, 165, 90, 90, 165, 3, 2.55682
21, 2, bw, attraction, a-b-da, 5, 2, 7, 18, 161, 88, 165, 90, 90, 165, 2, 1.07606
21, 2, bw, attraction, a-b-da, 9, 2, 7, 19, 90, 165, 165, 90, 157, 86, 1, 1.47117
21, 2, bw, attraction, a-b-da, 9, 2, 7, 19, 90, 165, 165, 90, 157, 86, 3, 0.708655
21, 2, bw, attraction, a-b-db, 9, 1, 7, 20, 60, 135, 57, 129, 135, 60, 1, 1.4689
21, 2, bw, attraction, a-b-db, 9, 1, 7, 20, 60, 135, 57, 129, 135, 60, 2, 0.683164
21, 2, bw, attraction, a-b-da, 9, 3, 7, 21, 195, 120, 120, 195, 186, 114, 1, 1.67006
21, 2, bw, attraction, a-b-da, 9, 3, 7, 21, 195, 120, 120, 195, 186, 114, 3, 0.706953
21, 2, bw, attraction, a-b-db, 5, 3, 7, 22, 195, 120, 120, 195, 117, 190, 2, 2.31343
21, 2, bw, attraction, a-b-db, 5, 3, 7, 22, 195, 120, 120, 195, 117, 190, 3, 0.724783
21, 2, bw, attraction, a-b-da, 14, 1, 7, 23, 125, 56, 135, 60, 60, 135, 3, 4.18864
21, 2, bw, attraction, a-b-da, 14, 1, 7, 23, 125, 56, 135, 60, 60, 135, 2, 0.724036
21, 2, bw, attraction, a-b-db, 2, 1, 7, 24, 60, 135, 59, 134, 135, 60, 1, 2.23884
21, 2, bw, attraction, a-b-db, 2, 1, 7, 24, 60, 135, 59, 134, 135, 60, 2, 1.099
21, 2, bw, filler, NA, 999, 999, 7, 25, 158, 193, 171, 110, 145, 146, 1, 1.43379
21, 2, bw, filler, NA, 999, 999, 7, 25, 158, 193, 171, 110, 145, 146, 3, 0.618257
21, 2, bw, attraction, a-b-db, 2, 2, 7, 26, 165, 90, 89, 163, 90, 165, 3, 3.12734
21, 2, bw, attraction, a-b-db, 2, 2, 7, 26, 165, 90, 89, 163, 90, 165, 1, 3.56862
21, 2, bw, attraction, a-b-da, 14, 3, 7, 27, 120, 195, 181, 111, 195, 120, 1, 1.46247
21, 2, bw, attraction, a-b-da, 14, 3, 7, 27, 120, 195, 181, 111, 195, 120, 2, 0.803031
21, 2, bw, filler, NA, 999, 999, 7, 28, 158, 60, 77, 195, 130, 80, 2, 1.85697
21, 2, bw, filler, NA, 999, 999, 7, 28, 158, 60, 77, 195, 130, 80, 3, 0.812443
21, 2, bw, attraction, a-b-db, 9, 2, 7, 29, 165, 90, 90, 165, 86, 157, 2, 2.16112
21, 2, bw, attraction, a-b-db, 9, 2, 7, 29, 165, 90, 90, 165, 86, 157, 3, 0.690899
21, 2, bw, filler, NA, 999, 999, 7, 30, 85, 123, 159, 145, 143, 57, 2, 1.21356
21, 2, bw, filler, NA, 999, 999, 7, 30, 85, 123, 159, 145, 143, 57, 3, 3.95459
21, 2, bw, filler, NA, 999, 999, 7, 31, 119, 78, 69, 110, 167, 107, 3, 2.04294
21, 2, bw, filler, NA, 999, 999, 7, 31, 119, 78, 69, 110, 167, 107, 2, 1.08737
21, 2, bw, attraction, a-b-da, 2, 2, 7, 32, 90, 165, 165, 90, 163, 89, 1, 1.94485
21, 2, bw, attraction, a-b-da, 2, 2, 7, 32, 90, 165, 165, 90, 163, 89, 2, 0.676628
21, 2, bw, attraction, a-b-db, 5, 1, 7, 33, 135, 60, 58, 132, 60, 135, 3, 1.86349
21, 2, bw, attraction, a-b-db, 5, 1, 7, 33, 135, 60, 58, 132, 60, 135, 2, 0.94732
21, 2, bw, catch, NA, 999, 999, 7, 34, 83, 112, 154, 161, 155, 100, 2, 1.26441
21, 2, bw, catch, NA, 999, 999, 7, 34, 83, 112, 154, 161, 155, 100, 1, 1.22281
21, 2, bw, catch, NA, 999, 999, 7, 35, 126, 189, 78, 117, 151, 104, 1, 1.62027
21, 2, bw, catch, NA, 999, 999, 7, 35, 126, 189, 78, 117, 151, 104, 2, 0.682497
21, 2, bw, filler, NA, 999, 999, 7, 36, 63, 141, 180, 175, 179, 150, 2, 1.34724
21, 2, bw, filler, NA, 999, 999, 7, 36, 63, 141, 180, 175, 179, 150, 1, 1.51619
21, 2, bw, catch, NA, 999, 999, 7, 37, 121, 74, 128, 187, 106, 149, 2, 1.67864
21, 2, bw, catch, NA, 999, 999, 7, 37, 121, 74, 128, 187, 106, 149, 3, 1.35344
21, 2, bw, attraction, a-b-da, 9, 1, 8, 1, 129, 57, 135, 60, 60, 135, 1, 1.56875
21, 2, bw, attraction, a-b-da, 9, 1, 8, 1, 129, 57, 135, 60, 60, 135, 2, 0.735136
21, 2, bw, filler, NA, 999, 999, 8, 2, 115, 141, 86, 195, 151, 63, 2, 2.21713
21, 2, bw, filler, NA, 999, 999, 8, 2, 115, 141, 86, 195, 151, 63, 3, 1.01441
21, 2, bw, attraction, a-b-db, 5, 3, 8, 3, 117, 190, 195, 120, 120, 195, 3, 5.46798
21, 2, bw, attraction, a-b-db, 5, 3, 8, 3, 117, 190, 195, 120, 120, 195, 2, 0.709554
21, 2, bw, filler, NA, 999, 999, 8, 4, 169, 128, 182, 65, 85, 172, 1, 1.47363
21, 2, bw, filler, NA, 999, 999, 8, 4, 169, 128, 182, 65, 85, 172, 3, 3.0291
21, 2, bw, attraction, a-b-db, 2, 1, 8, 5, 60, 135, 135, 60, 59, 134, 1, 1.5221
21, 2, bw, attraction, a-b-db, 2, 1, 8, 5, 60, 135, 135, 60, 59, 134, 3, 0.789348
21, 2, bw, filler, NA, 999, 999, 8, 6, 161, 56, 97, 114, 148, 113, 3, 1.72739
21, 2, bw, filler, NA, 999, 999, 8, 6, 161, 56, 97, 114, 148, 113, 1, 0.627303
21, 2, bw, filler, NA, 999, 999, 8, 7, 138, 111, 133, 123, 148, 194, 3, 1.5926
21, 2, bw, filler, NA, 999, 999, 8, 7, 138, 111, 133, 123, 148, 194, 2, 0.872601
21, 2, bw, catch, NA, 999, 999, 8, 8, 153, 162, 123, 72, 108, 147, 1, 1.47585
21, 2, bw, catch, NA, 999, 999, 8, 8, 153, 162, 123, 72, 108, 147, 2, 0.598485
21, 2, bw, attraction, a-b-db, 14, 1, 8, 9, 60, 135, 56, 125, 135, 60, 1, 1.7487
21, 2, bw, attraction, a-b-db, 14, 1, 8, 9, 60, 135, 56, 125, 135, 60, 2, 0.629918
21, 2, bw, attraction, a-b-db, 14, 3, 8, 10, 111, 181, 195, 120, 120, 195, 3, 2.53284
21, 2, bw, attraction, a-b-db, 14, 3, 8, 10, 111, 181, 195, 120, 120, 195, 1, 0.540597
21, 2, bw, attraction, a-b-da, 2, 3, 8, 11, 195, 120, 120, 195, 193, 119, 1, 2.89986
21, 2, bw, attraction, a-b-da, 2, 3, 8, 11, 195, 120, 120, 195, 193, 119, 3, 2.1198
21, 2, bw, attraction, a-b-da, 5, 1, 8, 12, 60, 135, 132, 58, 135, 60, 1, 2.07902
21, 2, bw, attraction, a-b-da, 5, 1, 8, 12, 60, 135, 132, 58, 135, 60, 2, 0.762578
21, 2, bw, filler, NA, 999, 999, 8, 13, 181, 131, 185, 99, 170, 162, 3, 2.89875
21, 2, bw, filler, NA, 999, 999, 8, 13, 181, 131, 185, 99, 170, 162, 2, 0.670174
21, 2, bw, attraction, a-b-da, 2, 1, 8, 14, 135, 60, 60, 135, 134, 59, 1, 3.71185
21, 2, bw, attraction, a-b-da, 2, 1, 8, 14, 135, 60, 60, 135, 134, 59, 3, 0.745114
21, 2, bw, attraction, a-b-da, 9, 3, 8, 15, 195, 120, 120, 195, 186, 114, 1, 1.63406
21, 2, bw, attraction, a-b-da, 9, 3, 8, 15, 195, 120, 120, 195, 186, 114, 3, 0.568671
21, 2, bw, attraction, a-b-da, 2, 2, 8, 16, 90, 165, 165, 90, 163, 89, 1, 6.92705
21, 2, bw, attraction, a-b-da, 2, 2, 8, 16, 90, 165, 165, 90, 163, 89, 2, 0.958758
21, 2, bw, attraction, a-b-da, 5, 3, 8, 17, 120, 195, 195, 120, 190, 117, 1, 1.17659
21, 2, bw, attraction, a-b-da, 5, 3, 8, 17, 120, 195, 195, 120, 190, 117, 2, 0.59131
21, 2, bw, filler, NA, 999, 999, 8, 18, 166, 188, 124, 117, 165, 143, 1, 1.34363
21, 2, bw, filler, NA, 999, 999, 8, 18, 166, 188, 124, 117, 165, 143, 2, 0.600798
21, 2, bw, attraction, a-b-da, 14, 2, 8, 19, 165, 90, 153, 83, 90, 165, 3, 1.3586
21, 2, bw, attraction, a-b-da, 14, 2, 8, 19, 165, 90, 153, 83, 90, 165, 2, 2.62338
21, 2, bw, filler, NA, 999, 999, 8, 20, 177, 169, 62, 70, 124, 169, 1, 1.63525
21, 2, bw, filler, NA, 999, 999, 8, 20, 177, 169, 62, 70, 124, 169, 2, 0.600856
21, 2, bw, catch, NA, 999, 999, 8, 21, 101, 154, 108, 87, 160, 155, 3, 1.33412
21, 2, bw, catch, NA, 999, 999, 8, 21, 101, 154, 108, 87, 160, 155, 2, 0.726835
21, 2, bw, attraction, a-b-db, 14, 2, 8, 22, 165, 90, 90, 165, 83, 153, 2, 1.81673
21, 2, bw, attraction, a-b-db, 14, 2, 8, 22, 165, 90, 90, 165, 83, 153, 3, 0.702453
21, 2, bw, attraction, a-b-da, 9, 2, 8, 23, 165, 90, 157, 86, 90, 165, 2, 5.64865
21, 2, bw, attraction, a-b-da, 9, 2, 8, 23, 165, 90, 157, 86, 90, 165, 3, 1.77853
21, 2, bw, filler, NA, 999, 999, 8, 24, 102, 104, 137, 56, 176, 170, 3, 1.24206
21, 2, bw, filler, NA, 999, 999, 8, 24, 102, 104, 137, 56, 176, 170, 1, 0.695771
21, 2, bw, attraction, a-b-db, 5, 1, 8, 25, 60, 135, 58, 132, 135, 60, 1, 1.33798
21, 2, bw, attraction, a-b-db, 5, 1, 8, 25, 60, 135, 58, 132, 135, 60, 2, 0.707701
21, 2, bw, attraction, a-b-db, 5, 2, 8, 26, 88, 161, 90, 165, 165, 90, 1, 1.23822
21, 2, bw, attraction, a-b-db, 5, 2, 8, 26, 88, 161, 90, 165, 165, 90, 2, 0.595717
21, 2, bw, attraction, a-b-db, 2, 2, 8, 27, 90, 165, 165, 90, 89, 163, 3, 2.10508
21, 2, bw, attraction, a-b-db, 2, 2, 8, 27, 90, 165, 165, 90, 89, 163, 2, 1.07694
21, 2, bw, attraction, a-b-db, 2, 3, 8, 28, 195, 120, 120, 195, 119, 193, 3, 2.57508
21, 2, bw, attraction, a-b-db, 2, 3, 8, 28, 195, 120, 120, 195, 119, 193, 2, 0.584261
21, 2, bw, attraction, a-b-da, 5, 2, 8, 29, 161, 88, 165, 90, 90, 165, 1, 3.35639
21, 2, bw, attraction, a-b-da, 5, 2, 8, 29, 161, 88, 165, 90, 90, 165, 2, 0.725364
21, 2, bw, filler, NA, 999, 999, 8, 30, 161, 82, 174, 190, 93, 176, 2, 1.27894
21, 2, bw, filler, NA, 999, 999, 8, 30, 161, 82, 174, 190, 93, 176, 1, 0.945992
21, 2, bw, catch, NA, 999, 999, 8, 31, 77, 118, 130, 125, 182, 133, 3, 2.25194
21, 2, bw, catch, NA, 999, 999, 8, 31, 77, 118, 130, 125, 182, 133, 1, 1.58311
21, 2, bw, attraction, a-b-db, 9, 3, 8, 32, 114, 186, 120, 195, 195, 120, 1, 2.26158
21, 2, bw, attraction, a-b-db, 9, 3, 8, 32, 114, 186, 120, 195, 195, 120, 2, 2.81142
21, 2, bw, attraction, a-b-da, 14, 1, 8, 33, 135, 60, 125, 56, 60, 135, 1, 4.85471
21, 2, bw, attraction, a-b-da, 14, 1, 8, 33, 135, 60, 125, 56, 60, 135, 2, 0.73927
21, 2, bw, attraction, a-b-db, 9, 1, 8, 34, 135, 60, 57, 129, 60, 135, 3, 2.66613
21, 2, bw, attraction, a-b-db, 9, 1, 8, 34, 135, 60, 57, 129, 60, 135, 2, 1.43772
21, 2, bw, attraction, a-b-db, 9, 2, 8, 35, 90, 165, 165, 90, 86, 157, 3, 1.81858
21, 2, bw, attraction, a-b-db, 9, 2, 8, 35, 90, 165, 165, 90, 86, 157, 1, 0.800602
21, 2, bw, attraction, a-b-da, 14, 3, 8, 36, 195, 120, 120, 195, 181, 111, 2, 1.75895
21, 2, bw, attraction, a-b-da, 14, 3, 8, 36, 195, 120, 120, 195, 181, 111, 3, 2.73375
21, 2, bw, filler, NA, 999, 999, 8, 37, 175, 130, 182, 106, 171, 167, 3, 4.95171
21, 2, bw, filler, NA, 999, 999, 8, 37, 175, 130, 182, 106, 171, 167, 2, 1.20006
