sub_n, computer_n, bw_cond, effect, set, distance, diag, block_n, trial_n, h1, w1, h2, w2, h3, w3, choice, rt 
213, 2, bw, practice, NA, 999, 999, 0, 1, 157, 142, 186, 70, 178, 101, 1, 3.39681
213, 2, bw, practice, NA, 999, 999, 0, 1, 157, 142, 186, 70, 178, 101, 2, 2.04301
213, 2, bw, practice, NA, 999, 999, 0, 2, 142, 162, 114, 99, 151, 165, 3, 3.8988
213, 2, bw, practice, NA, 999, 999, 0, 2, 142, 162, 114, 99, 151, 165, 2, 2.51654
213, 2, bw, practice, NA, 999, 999, 0, 3, 116, 59, 70, 142, 177, 187, 3, 2.12911
213, 2, bw, practice, NA, 999, 999, 0, 3, 116, 59, 70, 142, 177, 187, 1, 1.37927
213, 2, bw, filler, NA, 999, 999, 1, 1, 99, 82, 110, 174, 143, 172, 3, 2.02037
213, 2, bw, filler, NA, 999, 999, 1, 1, 99, 82, 110, 174, 143, 172, 1, 2.53853
213, 2, bw, filler, NA, 999, 999, 1, 2, 62, 101, 86, 183, 150, 154, 3, 1.39422
213, 2, bw, filler, NA, 999, 999, 1, 2, 62, 101, 86, 183, 150, 154, 1, 2.60904
213, 2, bw, attraction, a-b-db, 2, 3, 1, 3, 119, 193, 195, 120, 120, 195, 3, 4.63759
213, 2, bw, attraction, a-b-db, 2, 3, 1, 3, 119, 193, 195, 120, 120, 195, 2, 1.42615
213, 2, bw, attraction, a-b-db, 14, 3, 1, 4, 195, 120, 111, 181, 120, 195, 3, 3.15027
213, 2, bw, attraction, a-b-db, 14, 3, 1, 4, 195, 120, 111, 181, 120, 195, 2, 0.878517
213, 2, bw, filler, NA, 999, 999, 1, 5, 133, 176, 92, 89, 93, 76, 1, 1.38495
213, 2, bw, filler, NA, 999, 999, 1, 5, 133, 176, 92, 89, 93, 76, 3, 1.40848
213, 2, bw, catch, NA, 999, 999, 1, 6, 146, 169, 98, 97, 131, 124, 1, 1.64525
213, 2, bw, catch, NA, 999, 999, 1, 6, 146, 169, 98, 97, 131, 124, 2, 1.65812
213, 2, bw, attraction, a-b-da, 14, 3, 1, 7, 120, 195, 195, 120, 181, 111, 1, 3.34885
213, 2, bw, attraction, a-b-da, 14, 3, 1, 7, 120, 195, 195, 120, 181, 111, 3, 0.973088
213, 2, bw, attraction, a-b-db, 9, 1, 1, 8, 135, 60, 60, 135, 57, 129, 2, 2.33136
213, 2, bw, attraction, a-b-db, 9, 1, 1, 8, 135, 60, 60, 135, 57, 129, 3, 1.36464
213, 2, bw, filler, NA, 999, 999, 1, 9, 184, 139, 165, 157, 120, 112, 2, 1.60346
213, 2, bw, filler, NA, 999, 999, 1, 9, 184, 139, 165, 157, 120, 112, 3, 1.75426
213, 2, bw, attraction, a-b-db, 14, 2, 1, 10, 90, 165, 165, 90, 83, 153, 1, 1.68172
213, 2, bw, attraction, a-b-db, 14, 2, 1, 10, 90, 165, 165, 90, 83, 153, 3, 1.47723
213, 2, bw, attraction, a-b-da, 9, 3, 1, 11, 120, 195, 186, 114, 195, 120, 1, 3.78332
213, 2, bw, attraction, a-b-da, 9, 3, 1, 11, 120, 195, 186, 114, 195, 120, 2, 1.56612
213, 2, bw, attraction, a-b-da, 5, 3, 1, 12, 190, 117, 195, 120, 120, 195, 3, 2.11681
213, 2, bw, attraction, a-b-da, 5, 3, 1, 12, 190, 117, 195, 120, 120, 195, 1, 1.44684
213, 2, bw, attraction, a-b-db, 2, 2, 1, 13, 90, 165, 165, 90, 89, 163, 1, 3.0183
213, 2, bw, attraction, a-b-db, 2, 2, 1, 13, 90, 165, 165, 90, 89, 163, 2, 1.17612
213, 2, bw, filler, NA, 999, 999, 1, 14, 84, 97, 184, 171, 149, 132, 2, 2.09429
213, 2, bw, filler, NA, 999, 999, 1, 14, 84, 97, 184, 171, 149, 132, 1, 1.22491
213, 2, bw, attraction, a-b-da, 9, 1, 1, 15, 135, 60, 60, 135, 129, 57, 2, 3.36521
213, 2, bw, attraction, a-b-da, 9, 1, 1, 15, 135, 60, 60, 135, 129, 57, 3, 0.97269
213, 2, bw, filler, NA, 999, 999, 1, 16, 174, 185, 71, 115, 101, 110, 1, 0.835793
213, 2, bw, filler, NA, 999, 999, 1, 16, 174, 185, 71, 115, 101, 110, 2, 1.58542
213, 2, bw, attraction, a-b-da, 2, 1, 1, 17, 134, 59, 60, 135, 135, 60, 2, 3.91956
213, 2, bw, attraction, a-b-da, 2, 1, 1, 17, 134, 59, 60, 135, 135, 60, 1, 1.19291
213, 2, bw, attraction, a-b-da, 14, 2, 1, 18, 153, 83, 90, 165, 165, 90, 2, 9.6545
213, 2, bw, attraction, a-b-da, 14, 2, 1, 18, 153, 83, 90, 165, 165, 90, 1, 1.40082
213, 2, bw, attraction, a-b-db, 9, 2, 1, 19, 165, 90, 90, 165, 86, 157, 2, 4.73445
213, 2, bw, attraction, a-b-db, 9, 2, 1, 19, 165, 90, 90, 165, 86, 157, 3, 1.71091
213, 2, bw, attraction, a-b-db, 5, 2, 1, 20, 165, 90, 88, 161, 90, 165, 3, 3.28762
213, 2, bw, attraction, a-b-db, 5, 2, 1, 20, 165, 90, 88, 161, 90, 165, 1, 1.90585
213, 2, bw, attraction, a-b-da, 9, 2, 1, 21, 165, 90, 157, 86, 90, 165, 1, 2.11515
213, 2, bw, attraction, a-b-da, 9, 2, 1, 21, 165, 90, 157, 86, 90, 165, 2, 0.661277
213, 2, bw, attraction, a-b-da, 5, 2, 1, 22, 90, 165, 161, 88, 165, 90, 1, 3.12028
213, 2, bw, attraction, a-b-da, 5, 2, 1, 22, 90, 165, 161, 88, 165, 90, 2, 1.57787
213, 2, bw, filler, NA, 999, 999, 1, 23, 102, 168, 113, 171, 103, 164, 2, 1.25602
213, 2, bw, filler, NA, 999, 999, 1, 23, 102, 168, 113, 171, 103, 164, 1, 1.78821
213, 2, bw, attraction, a-b-da, 5, 1, 1, 24, 132, 58, 60, 135, 135, 60, 2, 3.20245
213, 2, bw, attraction, a-b-da, 5, 1, 1, 24, 132, 58, 60, 135, 135, 60, 1, 2.38467
213, 2, bw, attraction, a-b-db, 9, 3, 1, 25, 120, 195, 195, 120, 114, 186, 2, 3.94252
213, 2, bw, attraction, a-b-db, 9, 3, 1, 25, 120, 195, 195, 120, 114, 186, 3, 0.718529
213, 2, bw, attraction, a-b-db, 14, 1, 1, 26, 135, 60, 56, 125, 60, 135, 2, 2.23157
213, 2, bw, attraction, a-b-db, 14, 1, 1, 26, 135, 60, 56, 125, 60, 135, 1, 0.716856
213, 2, bw, attraction, a-b-db, 2, 1, 1, 27, 59, 134, 135, 60, 60, 135, 3, 1.82196
213, 2, bw, attraction, a-b-db, 2, 1, 1, 27, 59, 134, 135, 60, 60, 135, 2, 2.12331
213, 2, bw, catch, NA, 999, 999, 1, 28, 146, 109, 82, 113, 146, 169, 3, 1.06728
213, 2, bw, catch, NA, 999, 999, 1, 28, 146, 109, 82, 113, 146, 169, 2, 0.887545
213, 2, bw, attraction, a-b-da, 2, 3, 1, 29, 195, 120, 193, 119, 120, 195, 3, 2.60993
213, 2, bw, attraction, a-b-da, 2, 3, 1, 29, 195, 120, 193, 119, 120, 195, 2, 0.535721
213, 2, bw, attraction, a-b-da, 14, 1, 1, 30, 135, 60, 125, 56, 60, 135, 3, 2.57617
213, 2, bw, attraction, a-b-da, 14, 1, 1, 30, 135, 60, 125, 56, 60, 135, 2, 1.20739
213, 2, bw, attraction, a-b-da, 2, 2, 1, 31, 165, 90, 163, 89, 90, 165, 1, 3.92426
213, 2, bw, attraction, a-b-da, 2, 2, 1, 31, 165, 90, 163, 89, 90, 165, 2, 0.636922
213, 2, bw, attraction, a-b-db, 5, 3, 1, 32, 117, 190, 120, 195, 195, 120, 2, 2.56138
213, 2, bw, attraction, a-b-db, 5, 3, 1, 32, 117, 190, 120, 195, 195, 120, 3, 1.00138
213, 2, bw, filler, NA, 999, 999, 1, 33, 132, 142, 114, 117, 154, 162, 3, 1.9588
213, 2, bw, filler, NA, 999, 999, 1, 33, 132, 142, 114, 117, 154, 162, 2, 0.806849
213, 2, bw, attraction, a-b-db, 5, 1, 1, 34, 60, 135, 58, 132, 135, 60, 1, 2.59596
213, 2, bw, attraction, a-b-db, 5, 1, 1, 34, 60, 135, 58, 132, 135, 60, 3, 0.802455
213, 2, bw, catch, NA, 999, 999, 1, 35, 106, 89, 186, 129, 161, 94, 2, 1.04014
213, 2, bw, catch, NA, 999, 999, 1, 35, 106, 89, 186, 129, 161, 94, 1, 1.30905
213, 2, bw, filler, NA, 999, 999, 1, 36, 170, 100, 180, 170, 156, 136, 2, 0.966093
213, 2, bw, filler, NA, 999, 999, 1, 36, 170, 100, 180, 170, 156, 136, 1, 0.902302
213, 2, bw, filler, NA, 999, 999, 1, 37, 150, 137, 155, 132, 151, 102, 1, 2.16795
213, 2, bw, filler, NA, 999, 999, 1, 37, 150, 137, 155, 132, 151, 102, 3, 0.703894
213, 2, bw, filler, NA, 999, 999, 2, 1, 177, 67, 99, 149, 181, 131, 3, 1.13766
213, 2, bw, filler, NA, 999, 999, 2, 1, 177, 67, 99, 149, 181, 131, 1, 0.882582
213, 2, bw, attraction, a-b-da, 5, 3, 2, 2, 195, 120, 190, 117, 120, 195, 3, 3.10101
213, 2, bw, attraction, a-b-da, 5, 3, 2, 2, 195, 120, 190, 117, 120, 195, 2, 1.35928
213, 2, bw, attraction, a-b-db, 5, 2, 2, 3, 88, 161, 90, 165, 165, 90, 2, 4.03015
213, 2, bw, attraction, a-b-db, 5, 2, 2, 3, 88, 161, 90, 165, 165, 90, 3, 0.44283
213, 2, bw, attraction, a-b-db, 9, 1, 2, 4, 135, 60, 60, 135, 57, 129, 2, 3.56679
213, 2, bw, attraction, a-b-db, 9, 1, 2, 4, 135, 60, 60, 135, 57, 129, 3, 0.902158
213, 2, bw, attraction, a-b-db, 2, 2, 2, 5, 90, 165, 165, 90, 89, 163, 3, 4.27183
213, 2, bw, attraction, a-b-db, 2, 2, 2, 5, 90, 165, 165, 90, 89, 163, 2, 0.938409
213, 2, bw, attraction, a-b-db, 2, 3, 2, 6, 120, 195, 195, 120, 119, 193, 1, 1.88276
213, 2, bw, attraction, a-b-db, 2, 3, 2, 6, 120, 195, 195, 120, 119, 193, 3, 0.534242
213, 2, bw, attraction, a-b-da, 14, 1, 2, 7, 125, 56, 135, 60, 60, 135, 3, 2.12657
213, 2, bw, attraction, a-b-da, 14, 1, 2, 7, 125, 56, 135, 60, 60, 135, 1, 1.0239
213, 2, bw, attraction, a-b-da, 2, 1, 2, 8, 60, 135, 135, 60, 134, 59, 2, 2.1163
213, 2, bw, attraction, a-b-da, 2, 1, 2, 8, 60, 135, 135, 60, 134, 59, 1, 1.40166
213, 2, bw, attraction, a-b-db, 5, 1, 2, 9, 60, 135, 58, 132, 135, 60, 2, 3.06772
213, 2, bw, attraction, a-b-db, 5, 1, 2, 9, 60, 135, 58, 132, 135, 60, 3, 0.519387
213, 2, bw, attraction, a-b-da, 9, 1, 2, 10, 129, 57, 135, 60, 60, 135, 3, 4.88047
213, 2, bw, attraction, a-b-da, 9, 1, 2, 10, 129, 57, 135, 60, 60, 135, 1, 0.946901
213, 2, bw, catch, NA, 999, 999, 2, 11, 142, 173, 92, 163, 65, 130, 1, 1.30656
213, 2, bw, catch, NA, 999, 999, 2, 11, 142, 173, 92, 163, 65, 130, 3, 0.556736
213, 2, bw, filler, NA, 999, 999, 2, 12, 84, 75, 96, 83, 105, 88, 3, 1.35595
213, 2, bw, filler, NA, 999, 999, 2, 12, 84, 75, 96, 83, 105, 88, 1, 0.972086
213, 2, bw, catch, NA, 999, 999, 2, 13, 123, 72, 193, 122, 137, 118, 2, 0.699049
213, 2, bw, catch, NA, 999, 999, 2, 13, 123, 72, 193, 122, 137, 118, 1, 1.03813
213, 2, bw, attraction, a-b-da, 9, 2, 2, 14, 157, 86, 165, 90, 90, 165, 3, 1.73044
213, 2, bw, attraction, a-b-da, 9, 2, 2, 14, 157, 86, 165, 90, 90, 165, 1, 1.01982
213, 2, bw, filler, NA, 999, 999, 2, 15, 167, 168, 114, 174, 185, 115, 1, 1.4569
213, 2, bw, filler, NA, 999, 999, 2, 15, 167, 168, 114, 174, 185, 115, 3, 0.725046
213, 2, bw, filler, NA, 999, 999, 2, 16, 194, 106, 68, 193, 189, 165, 3, 1.54136
213, 2, bw, filler, NA, 999, 999, 2, 16, 194, 106, 68, 193, 189, 165, 2, 0.742263
213, 2, bw, attraction, a-b-da, 14, 2, 2, 17, 153, 83, 165, 90, 90, 165, 3, 4.3739
213, 2, bw, attraction, a-b-da, 14, 2, 2, 17, 153, 83, 165, 90, 90, 165, 1, 0.588662
213, 2, bw, attraction, a-b-db, 14, 1, 2, 18, 135, 60, 60, 135, 56, 125, 2, 4.74701
213, 2, bw, attraction, a-b-db, 14, 1, 2, 18, 135, 60, 60, 135, 56, 125, 1, 0.482754
213, 2, bw, attraction, a-b-db, 5, 3, 2, 19, 117, 190, 195, 120, 120, 195, 3, 2.22122
213, 2, bw, attraction, a-b-db, 5, 3, 2, 19, 117, 190, 195, 120, 120, 195, 1, 1.57866
213, 2, bw, filler, NA, 999, 999, 2, 20, 111, 76, 141, 116, 193, 71, 2, 2.75258
213, 2, bw, filler, NA, 999, 999, 2, 20, 111, 76, 141, 116, 193, 71, 1, 2.61705
213, 2, bw, filler, NA, 999, 999, 2, 21, 101, 170, 148, 95, 131, 144, 3, 4.2777
213, 2, bw, filler, NA, 999, 999, 2, 21, 101, 170, 148, 95, 131, 144, 2, 1.52016
213, 2, bw, attraction, a-b-da, 14, 3, 2, 22, 181, 111, 120, 195, 195, 120, 2, 4.19311
213, 2, bw, attraction, a-b-da, 14, 3, 2, 22, 181, 111, 120, 195, 195, 120, 1, 0.894985
213, 2, bw, attraction, a-b-da, 5, 1, 2, 23, 135, 60, 60, 135, 132, 58, 2, 5.31273
213, 2, bw, attraction, a-b-da, 5, 1, 2, 23, 135, 60, 60, 135, 132, 58, 3, 0.649617
213, 2, bw, attraction, a-b-db, 14, 3, 2, 24, 120, 195, 111, 181, 195, 120, 1, 3.94932
213, 2, bw, attraction, a-b-db, 14, 3, 2, 24, 120, 195, 111, 181, 195, 120, 3, 0.565529
213, 2, bw, filler, NA, 999, 999, 2, 25, 88, 142, 183, 97, 183, 111, 3, 2.32451
213, 2, bw, filler, NA, 999, 999, 2, 25, 88, 142, 183, 97, 183, 111, 1, 0.733787
213, 2, bw, attraction, a-b-db, 14, 2, 2, 26, 83, 153, 90, 165, 165, 90, 2, 3.31015
213, 2, bw, attraction, a-b-db, 14, 2, 2, 26, 83, 153, 90, 165, 165, 90, 1, 0.927886
213, 2, bw, attraction, a-b-da, 5, 2, 2, 27, 161, 88, 165, 90, 90, 165, 3, 2.29606
213, 2, bw, attraction, a-b-da, 5, 2, 2, 27, 161, 88, 165, 90, 90, 165, 1, 4.38659
213, 2, bw, attraction, a-b-db, 9, 3, 2, 28, 114, 186, 120, 195, 195, 120, 2, 1.68792
213, 2, bw, attraction, a-b-db, 9, 3, 2, 28, 114, 186, 120, 195, 195, 120, 1, 0.50668
213, 2, bw, attraction, a-b-db, 2, 1, 2, 29, 135, 60, 60, 135, 59, 134, 2, 2.09188
213, 2, bw, attraction, a-b-db, 2, 1, 2, 29, 135, 60, 60, 135, 59, 134, 1, 0.638398
213, 2, bw, attraction, a-b-da, 2, 2, 2, 30, 90, 165, 165, 90, 163, 89, 1, 1.25879
213, 2, bw, attraction, a-b-da, 2, 2, 2, 30, 90, 165, 165, 90, 163, 89, 2, 0.895206
213, 2, bw, attraction, a-b-da, 9, 3, 2, 31, 195, 120, 186, 114, 120, 195, 3, 2.36081
213, 2, bw, attraction, a-b-da, 9, 3, 2, 31, 195, 120, 186, 114, 120, 195, 2, 0.656657
213, 2, bw, attraction, a-b-da, 2, 3, 2, 32, 195, 120, 193, 119, 120, 195, 3, 2.17181
213, 2, bw, attraction, a-b-da, 2, 3, 2, 32, 195, 120, 193, 119, 120, 195, 1, 1.45903
213, 2, bw, filler, NA, 999, 999, 2, 33, 178, 79, 122, 189, 64, 73, 2, 1.32586
213, 2, bw, filler, NA, 999, 999, 2, 33, 178, 79, 122, 189, 64, 73, 3, 0.775366
213, 2, bw, catch, NA, 999, 999, 2, 34, 126, 189, 160, 95, 67, 128, 1, 0.909698
213, 2, bw, catch, NA, 999, 999, 2, 34, 126, 189, 160, 95, 67, 128, 3, 0.656088
213, 2, bw, attraction, a-b-db, 9, 2, 2, 35, 86, 157, 165, 90, 90, 165, 3, 2.01914
213, 2, bw, attraction, a-b-db, 9, 2, 2, 35, 86, 157, 165, 90, 90, 165, 1, 0.833171
213, 2, bw, filler, NA, 999, 999, 2, 36, 163, 141, 99, 90, 171, 82, 1, 1.0135
213, 2, bw, filler, NA, 999, 999, 2, 36, 163, 141, 99, 90, 171, 82, 2, 5.24382
213, 2, bw, filler, NA, 999, 999, 2, 37, 149, 88, 98, 192, 82, 86, 2, 1.20614
213, 2, bw, filler, NA, 999, 999, 2, 37, 149, 88, 98, 192, 82, 86, 3, 0.876453
213, 2, bw, attraction, a-b-da, 2, 3, 3, 1, 120, 195, 193, 119, 195, 120, 1, 2.46277
213, 2, bw, attraction, a-b-da, 2, 3, 3, 1, 120, 195, 193, 119, 195, 120, 2, 0.754675
213, 2, bw, attraction, a-b-da, 5, 2, 3, 2, 165, 90, 90, 165, 161, 88, 2, 2.91424
213, 2, bw, attraction, a-b-da, 5, 2, 3, 2, 165, 90, 90, 165, 161, 88, 3, 0.62016
213, 2, bw, filler, NA, 999, 999, 3, 3, 115, 130, 180, 69, 169, 141, 3, 1.93719
213, 2, bw, filler, NA, 999, 999, 3, 3, 115, 130, 180, 69, 169, 141, 2, 3.00996
213, 2, bw, filler, NA, 999, 999, 3, 4, 69, 163, 107, 106, 111, 165, 3, 1.73418
213, 2, bw, filler, NA, 999, 999, 3, 4, 69, 163, 107, 106, 111, 165, 1, 0.591679
213, 2, bw, attraction, a-b-db, 14, 2, 3, 5, 165, 90, 83, 153, 90, 165, 3, 1.82937
213, 2, bw, attraction, a-b-db, 14, 2, 3, 5, 165, 90, 83, 153, 90, 165, 2, 3.29878
213, 2, bw, filler, NA, 999, 999, 3, 6, 174, 62, 136, 189, 109, 81, 2, 1.44371
213, 2, bw, filler, NA, 999, 999, 3, 6, 174, 62, 136, 189, 109, 81, 1, 1.21654
213, 2, bw, attraction, a-b-da, 5, 1, 3, 7, 135, 60, 132, 58, 60, 135, 3, 5.7175
213, 2, bw, attraction, a-b-da, 5, 1, 3, 7, 135, 60, 132, 58, 60, 135, 2, 0.894217
213, 2, bw, attraction, a-b-db, 5, 3, 3, 8, 120, 195, 117, 190, 195, 120, 2, 4.74402
213, 2, bw, attraction, a-b-db, 5, 3, 3, 8, 120, 195, 117, 190, 195, 120, 3, 0.71981
213, 2, bw, filler, NA, 999, 999, 3, 9, 79, 82, 115, 193, 119, 171, 2, 1.07286
213, 2, bw, filler, NA, 999, 999, 3, 9, 79, 82, 115, 193, 119, 171, 1, 0.732451
213, 2, bw, attraction, a-b-db, 14, 1, 3, 10, 135, 60, 56, 125, 60, 135, 1, 2.13289
213, 2, bw, attraction, a-b-db, 14, 1, 3, 10, 135, 60, 56, 125, 60, 135, 3, 1.2781
213, 2, bw, attraction, a-b-da, 2, 2, 3, 11, 90, 165, 165, 90, 163, 89, 1, 2.30443
213, 2, bw, attraction, a-b-da, 2, 2, 3, 11, 90, 165, 165, 90, 163, 89, 2, 1.29828
213, 2, bw, filler, NA, 999, 999, 3, 12, 191, 104, 140, 172, 123, 104, 2, 1.27585
213, 2, bw, filler, NA, 999, 999, 3, 12, 191, 104, 140, 172, 123, 104, 3, 0.839348
213, 2, bw, attraction, a-b-db, 9, 1, 3, 13, 57, 129, 60, 135, 135, 60, 2, 1.31569
213, 2, bw, attraction, a-b-db, 9, 1, 3, 13, 57, 129, 60, 135, 135, 60, 1, 0.837955
213, 2, bw, attraction, a-b-db, 14, 3, 3, 14, 111, 181, 195, 120, 120, 195, 3, 2.30624
213, 2, bw, attraction, a-b-db, 14, 3, 3, 14, 111, 181, 195, 120, 120, 195, 1, 0.516273
213, 2, bw, filler, NA, 999, 999, 3, 15, 83, 127, 85, 85, 117, 80, 1, 2.52537
213, 2, bw, filler, NA, 999, 999, 3, 15, 83, 127, 85, 85, 117, 80, 2, 0.454601
213, 2, bw, attraction, a-b-da, 14, 1, 3, 16, 125, 56, 60, 135, 135, 60, 2, 2.07436
213, 2, bw, attraction, a-b-da, 14, 1, 3, 16, 125, 56, 60, 135, 135, 60, 1, 0.461819
213, 2, bw, attraction, a-b-db, 2, 2, 3, 17, 89, 163, 165, 90, 90, 165, 3, 2.72075
213, 2, bw, attraction, a-b-db, 2, 2, 3, 17, 89, 163, 165, 90, 90, 165, 1, 0.513869
213, 2, bw, attraction, a-b-da, 9, 1, 3, 18, 135, 60, 60, 135, 129, 57, 2, 2.40297
213, 2, bw, attraction, a-b-da, 9, 1, 3, 18, 135, 60, 60, 135, 129, 57, 3, 3.72979
213, 2, bw, attraction, a-b-da, 5, 3, 3, 19, 190, 117, 195, 120, 120, 195, 3, 2.59311
213, 2, bw, attraction, a-b-da, 5, 3, 3, 19, 190, 117, 195, 120, 120, 195, 1, 2.1515
213, 2, bw, filler, NA, 999, 999, 3, 20, 67, 141, 60, 156, 143, 191, 3, 1.87876
213, 2, bw, filler, NA, 999, 999, 3, 20, 67, 141, 60, 156, 143, 191, 1, 1.0582
213, 2, bw, attraction, a-b-db, 2, 1, 3, 21, 60, 135, 135, 60, 59, 134, 2, 2.04514
213, 2, bw, attraction, a-b-db, 2, 1, 3, 21, 60, 135, 135, 60, 59, 134, 1, 1.08186
213, 2, bw, attraction, a-b-da, 14, 3, 3, 22, 195, 120, 181, 111, 120, 195, 1, 1.4521
213, 2, bw, attraction, a-b-da, 14, 3, 3, 22, 195, 120, 181, 111, 120, 195, 2, 0.856882
213, 2, bw, attraction, a-b-da, 2, 1, 3, 23, 134, 59, 135, 60, 60, 135, 3, 3.04393
213, 2, bw, attraction, a-b-da, 2, 1, 3, 23, 134, 59, 135, 60, 60, 135, 2, 1.12829
213, 2, bw, catch, NA, 999, 999, 3, 24, 85, 110, 144, 171, 126, 129, 2, 2.01643
213, 2, bw, catch, NA, 999, 999, 3, 24, 85, 110, 144, 171, 126, 129, 1, 0.942583
213, 2, bw, filler, NA, 999, 999, 3, 25, 71, 68, 95, 190, 176, 134, 3, 0.974121
213, 2, bw, filler, NA, 999, 999, 3, 25, 71, 68, 95, 190, 176, 134, 1, 0.845716
213, 2, bw, attraction, a-b-db, 5, 1, 3, 26, 60, 135, 135, 60, 58, 132, 2, 1.38561
213, 2, bw, attraction, a-b-db, 5, 1, 3, 26, 60, 135, 135, 60, 58, 132, 3, 0.737113
213, 2, bw, filler, NA, 999, 999, 3, 27, 165, 56, 108, 119, 120, 170, 3, 0.9534
213, 2, bw, filler, NA, 999, 999, 3, 27, 165, 56, 108, 119, 120, 170, 1, 1.44251
213, 2, bw, attraction, a-b-db, 9, 2, 3, 28, 165, 90, 90, 165, 86, 157, 2, 2.2459
213, 2, bw, attraction, a-b-db, 9, 2, 3, 28, 165, 90, 90, 165, 86, 157, 1, 1.03458
213, 2, bw, catch, NA, 999, 999, 3, 29, 107, 148, 97, 98, 147, 168, 3, 1.03884
213, 2, bw, catch, NA, 999, 999, 3, 29, 107, 148, 97, 98, 147, 168, 2, 0.531816
213, 2, bw, attraction, a-b-da, 14, 2, 3, 30, 153, 83, 90, 165, 165, 90, 2, 1.72433
213, 2, bw, attraction, a-b-da, 14, 2, 3, 30, 153, 83, 90, 165, 165, 90, 1, 0.605693
213, 2, bw, filler, NA, 999, 999, 3, 31, 64, 160, 65, 140, 134, 190, 3, 1.34741
213, 2, bw, filler, NA, 999, 999, 3, 31, 64, 160, 65, 140, 134, 190, 2, 0.65244
213, 2, bw, attraction, a-b-da, 9, 2, 3, 32, 165, 90, 157, 86, 90, 165, 3, 1.84813
213, 2, bw, attraction, a-b-da, 9, 2, 3, 32, 165, 90, 157, 86, 90, 165, 2, 0.732759
213, 2, bw, attraction, a-b-db, 5, 2, 3, 33, 88, 161, 165, 90, 90, 165, 1, 2.70123
213, 2, bw, attraction, a-b-db, 5, 2, 3, 33, 88, 161, 165, 90, 90, 165, 2, 0.663733
213, 2, bw, attraction, a-b-da, 9, 3, 3, 34, 120, 195, 186, 114, 195, 120, 1, 2.83469
213, 2, bw, attraction, a-b-da, 9, 3, 3, 34, 120, 195, 186, 114, 195, 120, 2, 0.791923
213, 2, bw, attraction, a-b-db, 9, 3, 3, 35, 120, 195, 114, 186, 195, 120, 1, 2.16583
213, 2, bw, attraction, a-b-db, 9, 3, 3, 35, 120, 195, 114, 186, 195, 120, 3, 0.669551
213, 2, bw, attraction, a-b-db, 2, 3, 3, 36, 120, 195, 195, 120, 119, 193, 1, 1.64049
213, 2, bw, attraction, a-b-db, 2, 3, 3, 36, 120, 195, 195, 120, 119, 193, 2, 0.469301
213, 2, bw, catch, NA, 999, 999, 3, 37, 179, 136, 92, 163, 73, 122, 1, 1.12843
213, 2, bw, catch, NA, 999, 999, 3, 37, 179, 136, 92, 163, 73, 122, 3, 0.514102
213, 2, bw, filler, NA, 999, 999, 4, 1, 136, 113, 78, 113, 121, 164, 3, 0.899194
213, 2, bw, filler, NA, 999, 999, 4, 1, 136, 113, 78, 113, 121, 164, 2, 0.686316
213, 2, bw, catch, NA, 999, 999, 4, 2, 119, 76, 112, 143, 129, 186, 3, 0.792596
213, 2, bw, catch, NA, 999, 999, 4, 2, 119, 76, 112, 143, 129, 186, 1, 1.14375
213, 2, bw, attraction, a-b-da, 2, 3, 4, 3, 193, 119, 195, 120, 120, 195, 3, 1.4152
213, 2, bw, attraction, a-b-da, 2, 3, 4, 3, 193, 119, 195, 120, 120, 195, 2, 0.669402
213, 2, bw, attraction, a-b-da, 2, 1, 4, 4, 134, 59, 135, 60, 60, 135, 3, 2.47252
213, 2, bw, attraction, a-b-da, 2, 1, 4, 4, 134, 59, 135, 60, 60, 135, 2, 0.827641
213, 2, bw, attraction, a-b-da, 9, 3, 4, 5, 186, 114, 120, 195, 195, 120, 2, 2.09616
213, 2, bw, attraction, a-b-da, 9, 3, 4, 5, 186, 114, 120, 195, 195, 120, 1, 2.01075
213, 2, bw, filler, NA, 999, 999, 4, 6, 62, 189, 163, 119, 106, 129, 2, 0.903431
213, 2, bw, filler, NA, 999, 999, 4, 6, 62, 189, 163, 119, 106, 129, 1, 0.99435
213, 2, bw, attraction, a-b-db, 9, 3, 4, 7, 195, 120, 114, 186, 120, 195, 2, 1.63997
213, 2, bw, attraction, a-b-db, 9, 3, 4, 7, 195, 120, 114, 186, 120, 195, 3, 0.540741
213, 2, bw, attraction, a-b-db, 2, 1, 4, 8, 135, 60, 60, 135, 59, 134, 2, 1.46048
213, 2, bw, attraction, a-b-db, 2, 1, 4, 8, 135, 60, 60, 135, 59, 134, 1, 0.712739
213, 2, bw, attraction, a-b-db, 14, 2, 4, 9, 83, 153, 165, 90, 90, 165, 3, 1.37772
213, 2, bw, attraction, a-b-db, 14, 2, 4, 9, 83, 153, 165, 90, 90, 165, 1, 0.49733
213, 2, bw, attraction, a-b-db, 5, 2, 4, 10, 165, 90, 88, 161, 90, 165, 3, 1.29921
213, 2, bw, attraction, a-b-db, 5, 2, 4, 10, 165, 90, 88, 161, 90, 165, 1, 0.478061
213, 2, bw, filler, NA, 999, 999, 4, 11, 167, 73, 79, 64, 96, 63, 1, 1.20049
213, 2, bw, filler, NA, 999, 999, 4, 11, 167, 73, 79, 64, 96, 63, 2, 0.551373
213, 2, bw, attraction, a-b-da, 2, 2, 4, 12, 163, 89, 165, 90, 90, 165, 3, 3.42326
213, 2, bw, attraction, a-b-da, 2, 2, 4, 12, 163, 89, 165, 90, 90, 165, 2, 0.468196
213, 2, bw, filler, NA, 999, 999, 4, 13, 185, 153, 71, 163, 70, 129, 1, 0.663336
213, 2, bw, filler, NA, 999, 999, 4, 13, 185, 153, 71, 163, 70, 129, 3, 0.57986
213, 2, bw, attraction, a-b-db, 2, 2, 4, 14, 89, 163, 90, 165, 165, 90, 2, 1.34609
213, 2, bw, attraction, a-b-db, 2, 2, 4, 14, 89, 163, 90, 165, 165, 90, 3, 1.90708
213, 2, bw, attraction, a-b-db, 9, 1, 4, 15, 60, 135, 135, 60, 57, 129, 1, 2.26774
213, 2, bw, attraction, a-b-db, 9, 1, 4, 15, 60, 135, 135, 60, 57, 129, 2, 0.447631
213, 2, bw, attraction, a-b-db, 2, 3, 4, 16, 119, 193, 195, 120, 120, 195, 1, 1.49936
213, 2, bw, attraction, a-b-db, 2, 3, 4, 16, 119, 193, 195, 120, 120, 195, 2, 1.59822
213, 2, bw, filler, NA, 999, 999, 4, 17, 104, 161, 176, 177, 150, 77, 2, 0.715667
213, 2, bw, filler, NA, 999, 999, 4, 17, 104, 161, 176, 177, 150, 77, 3, 0.686026
213, 2, bw, filler, NA, 999, 999, 4, 18, 151, 68, 59, 188, 117, 174, 3, 1.02437
213, 2, bw, filler, NA, 999, 999, 4, 18, 151, 68, 59, 188, 117, 174, 1, 1.37409
213, 2, bw, filler, NA, 999, 999, 4, 19, 122, 184, 159, 77, 98, 175, 1, 1.24423
213, 2, bw, filler, NA, 999, 999, 4, 19, 122, 184, 159, 77, 98, 175, 2, 0.881164
213, 2, bw, attraction, a-b-da, 9, 1, 4, 20, 60, 135, 135, 60, 129, 57, 1, 2.77157
213, 2, bw, attraction, a-b-da, 9, 1, 4, 20, 60, 135, 135, 60, 129, 57, 3, 0.610637
213, 2, bw, filler, NA, 999, 999, 4, 21, 184, 71, 146, 143, 166, 92, 2, 1.21577
213, 2, bw, filler, NA, 999, 999, 4, 21, 184, 71, 146, 143, 166, 92, 3, 2.18207
213, 2, bw, filler, NA, 999, 999, 4, 22, 73, 187, 61, 90, 138, 186, 3, 0.724087
213, 2, bw, filler, NA, 999, 999, 4, 22, 73, 187, 61, 90, 138, 186, 2, 0.533711
213, 2, bw, attraction, a-b-da, 5, 1, 4, 23, 60, 135, 132, 58, 135, 60, 1, 2.76622
213, 2, bw, attraction, a-b-da, 5, 1, 4, 23, 60, 135, 132, 58, 135, 60, 2, 1.60601
213, 2, bw, attraction, a-b-db, 9, 2, 4, 24, 86, 157, 90, 165, 165, 90, 2, 0.971272
213, 2, bw, attraction, a-b-db, 9, 2, 4, 24, 86, 157, 90, 165, 165, 90, 1, 0.770928
213, 2, bw, attraction, a-b-da, 9, 2, 4, 25, 165, 90, 90, 165, 157, 86, 2, 1.81811
213, 2, bw, attraction, a-b-da, 9, 2, 4, 25, 165, 90, 90, 165, 157, 86, 3, 1.04818
213, 2, bw, catch, NA, 999, 999, 4, 26, 115, 80, 130, 185, 123, 132, 2, 0.611854
213, 2, bw, catch, NA, 999, 999, 4, 26, 115, 80, 130, 185, 123, 132, 1, 0.7062
213, 2, bw, attraction, a-b-db, 5, 1, 4, 27, 58, 132, 135, 60, 60, 135, 3, 1.10724
213, 2, bw, attraction, a-b-db, 5, 1, 4, 27, 58, 132, 135, 60, 60, 135, 1, 0.509488
213, 2, bw, catch, NA, 999, 999, 4, 28, 129, 66, 126, 189, 126, 129, 2, 0.670624
213, 2, bw, catch, NA, 999, 999, 4, 28, 129, 66, 126, 189, 126, 129, 1, 1.29844
213, 2, bw, filler, NA, 999, 999, 4, 29, 123, 167, 116, 65, 92, 190, 1, 0.979876
213, 2, bw, filler, NA, 999, 999, 4, 29, 123, 167, 116, 65, 92, 190, 2, 0.443547
213, 2, bw, attraction, a-b-da, 14, 3, 4, 30, 181, 111, 120, 195, 195, 120, 2, 0.911519
213, 2, bw, attraction, a-b-da, 14, 3, 4, 30, 181, 111, 120, 195, 195, 120, 1, 0.889771
213, 2, bw, attraction, a-b-da, 14, 1, 4, 31, 125, 56, 135, 60, 60, 135, 3, 1.93131
213, 2, bw, attraction, a-b-da, 14, 1, 4, 31, 125, 56, 135, 60, 60, 135, 1, 0.532937
213, 2, bw, attraction, a-b-da, 5, 2, 4, 32, 161, 88, 90, 165, 165, 90, 2, 1.7252
213, 2, bw, attraction, a-b-da, 5, 2, 4, 32, 161, 88, 90, 165, 165, 90, 1, 0.782626
213, 2, bw, attraction, a-b-db, 14, 1, 4, 33, 135, 60, 60, 135, 56, 125, 2, 1.60506
213, 2, bw, attraction, a-b-db, 14, 1, 4, 33, 135, 60, 60, 135, 56, 125, 3, 0.595199
213, 2, bw, attraction, a-b-da, 5, 3, 4, 34, 190, 117, 195, 120, 120, 195, 3, 2.19294
213, 2, bw, attraction, a-b-da, 5, 3, 4, 34, 190, 117, 195, 120, 120, 195, 2, 1.02351
213, 2, bw, attraction, a-b-db, 5, 3, 4, 35, 117, 190, 195, 120, 120, 195, 3, 1.35583
213, 2, bw, attraction, a-b-db, 5, 3, 4, 35, 117, 190, 195, 120, 120, 195, 2, 1.48424
213, 2, bw, attraction, a-b-da, 14, 2, 4, 36, 153, 83, 90, 165, 165, 90, 2, 1.85417
213, 2, bw, attraction, a-b-da, 14, 2, 4, 36, 153, 83, 90, 165, 165, 90, 1, 0.458865
213, 2, bw, attraction, a-b-db, 14, 3, 4, 37, 120, 195, 195, 120, 111, 181, 1, 1.99804
213, 2, bw, attraction, a-b-db, 14, 3, 4, 37, 120, 195, 195, 120, 111, 181, 2, 0.892714
213, 2, bw, catch, NA, 999, 999, 5, 1, 183, 132, 126, 69, 161, 94, 1, 2.67692
213, 2, bw, catch, NA, 999, 999, 5, 1, 183, 132, 126, 69, 161, 94, 2, 1.47207
213, 2, bw, filler, NA, 999, 999, 5, 2, 189, 68, 110, 157, 61, 156, 2, 1.58704
213, 2, bw, filler, NA, 999, 999, 5, 2, 189, 68, 110, 157, 61, 156, 3, 1.89844
213, 2, bw, attraction, a-b-db, 2, 1, 5, 3, 59, 134, 60, 135, 135, 60, 2, 1.45992
213, 2, bw, attraction, a-b-db, 2, 1, 5, 3, 59, 134, 60, 135, 135, 60, 3, 2.20798
213, 2, bw, attraction, a-b-db, 9, 3, 5, 4, 114, 186, 195, 120, 120, 195, 3, 2.22045
213, 2, bw, attraction, a-b-db, 9, 3, 5, 4, 114, 186, 195, 120, 120, 195, 2, 1.12249
213, 2, bw, attraction, a-b-db, 2, 2, 5, 5, 89, 163, 90, 165, 165, 90, 2, 1.15541
213, 2, bw, attraction, a-b-db, 2, 2, 5, 5, 89, 163, 90, 165, 165, 90, 3, 1.27565
213, 2, bw, attraction, a-b-db, 9, 2, 5, 6, 90, 165, 165, 90, 86, 157, 1, 1.28605
213, 2, bw, attraction, a-b-db, 9, 2, 5, 6, 90, 165, 165, 90, 86, 157, 3, 1.63355
213, 2, bw, attraction, a-b-da, 5, 2, 5, 7, 161, 88, 165, 90, 90, 165, 3, 2.67756
213, 2, bw, attraction, a-b-da, 5, 2, 5, 7, 161, 88, 165, 90, 90, 165, 2, 0.512896
213, 2, bw, attraction, a-b-db, 5, 3, 5, 8, 195, 120, 120, 195, 117, 190, 2, 1.08174
213, 2, bw, attraction, a-b-db, 5, 3, 5, 8, 195, 120, 120, 195, 117, 190, 3, 1.34941
213, 2, bw, attraction, a-b-da, 9, 2, 5, 9, 165, 90, 157, 86, 90, 165, 1, 1.96495
213, 2, bw, attraction, a-b-da, 9, 2, 5, 9, 165, 90, 157, 86, 90, 165, 2, 1.36498
213, 2, bw, attraction, a-b-db, 14, 2, 5, 10, 83, 153, 90, 165, 165, 90, 2, 1.95586
213, 2, bw, attraction, a-b-db, 14, 2, 5, 10, 83, 153, 90, 165, 165, 90, 1, 0.835919
213, 2, bw, filler, NA, 999, 999, 5, 11, 98, 73, 107, 63, 138, 157, 3, 1.52028
213, 2, bw, filler, NA, 999, 999, 5, 11, 98, 73, 107, 63, 138, 157, 2, 1.07394
213, 2, bw, attraction, a-b-db, 5, 2, 5, 12, 90, 165, 165, 90, 88, 161, 1, 1.88398
213, 2, bw, attraction, a-b-db, 5, 2, 5, 12, 90, 165, 165, 90, 88, 161, 2, 1.37539
213, 2, bw, attraction, a-b-da, 9, 1, 5, 13, 129, 57, 60, 135, 135, 60, 2, 1.1416
213, 2, bw, attraction, a-b-da, 9, 1, 5, 13, 129, 57, 60, 135, 135, 60, 1, 1.24652
213, 2, bw, filler, NA, 999, 999, 5, 14, 183, 152, 106, 137, 77, 145, 1, 1.47403
213, 2, bw, filler, NA, 999, 999, 5, 14, 183, 152, 106, 137, 77, 145, 3, 1.81356
213, 2, bw, filler, NA, 999, 999, 5, 15, 130, 81, 165, 148, 129, 177, 2, 3.15445
213, 2, bw, filler, NA, 999, 999, 5, 15, 130, 81, 165, 148, 129, 177, 1, 0.714006
213, 2, bw, attraction, a-b-db, 2, 3, 5, 16, 120, 195, 119, 193, 195, 120, 2, 1.643
213, 2, bw, attraction, a-b-db, 2, 3, 5, 16, 120, 195, 119, 193, 195, 120, 3, 0.663779
213, 2, bw, attraction, a-b-da, 2, 2, 5, 17, 163, 89, 90, 165, 165, 90, 1, 1.87485
213, 2, bw, attraction, a-b-da, 2, 2, 5, 17, 163, 89, 90, 165, 165, 90, 3, 0.510281
213, 2, bw, filler, NA, 999, 999, 5, 18, 101, 122, 113, 81, 160, 80, 1, 1.40728
213, 2, bw, filler, NA, 999, 999, 5, 18, 101, 122, 113, 81, 160, 80, 3, 0.645539
213, 2, bw, attraction, a-b-da, 14, 1, 5, 19, 60, 135, 125, 56, 135, 60, 3, 2.56931
213, 2, bw, attraction, a-b-da, 14, 1, 5, 19, 60, 135, 125, 56, 135, 60, 2, 0.985065
213, 2, bw, attraction, a-b-da, 14, 3, 5, 20, 195, 120, 120, 195, 181, 111, 2, 1.45542
213, 2, bw, attraction, a-b-da, 14, 3, 5, 20, 195, 120, 120, 195, 181, 111, 3, 0.539669
213, 2, bw, attraction, a-b-db, 9, 1, 5, 21, 60, 135, 57, 129, 135, 60, 1, 2.71551
213, 2, bw, attraction, a-b-db, 9, 1, 5, 21, 60, 135, 57, 129, 135, 60, 3, 2.55722
213, 2, bw, attraction, a-b-da, 9, 3, 5, 22, 186, 114, 195, 120, 120, 195, 3, 1.74762
213, 2, bw, attraction, a-b-da, 9, 3, 5, 22, 186, 114, 195, 120, 120, 195, 1, 0.86851
213, 2, bw, attraction, a-b-db, 14, 1, 5, 23, 135, 60, 60, 135, 56, 125, 2, 1.18335
213, 2, bw, attraction, a-b-db, 14, 1, 5, 23, 135, 60, 60, 135, 56, 125, 3, 1.08699
213, 2, bw, attraction, a-b-da, 5, 3, 5, 24, 120, 195, 190, 117, 195, 120, 1, 1.78527
213, 2, bw, attraction, a-b-da, 5, 3, 5, 24, 120, 195, 190, 117, 195, 120, 3, 1.23271
213, 2, bw, filler, NA, 999, 999, 5, 25, 171, 131, 146, 190, 125, 155, 2, 1.78897
213, 2, bw, filler, NA, 999, 999, 5, 25, 171, 131, 146, 190, 125, 155, 3, 0.88365
213, 2, bw, attraction, a-b-da, 2, 1, 5, 26, 134, 59, 60, 135, 135, 60, 2, 2.88594
213, 2, bw, attraction, a-b-da, 2, 1, 5, 26, 134, 59, 60, 135, 135, 60, 3, 0.497157
213, 2, bw, attraction, a-b-db, 14, 3, 5, 27, 120, 195, 195, 120, 111, 181, 1, 2.25884
213, 2, bw, attraction, a-b-db, 14, 3, 5, 27, 120, 195, 195, 120, 111, 181, 3, 1.45487
213, 2, bw, attraction, a-b-db, 5, 1, 5, 28, 60, 135, 58, 132, 135, 60, 2, 2.09026
213, 2, bw, attraction, a-b-db, 5, 1, 5, 28, 60, 135, 58, 132, 135, 60, 3, 0.668949
213, 2, bw, attraction, a-b-da, 2, 3, 5, 29, 193, 119, 195, 120, 120, 195, 3, 1.62393
213, 2, bw, attraction, a-b-da, 2, 3, 5, 29, 193, 119, 195, 120, 120, 195, 2, 0.813443
213, 2, bw, attraction, a-b-da, 5, 1, 5, 30, 60, 135, 132, 58, 135, 60, 1, 3.88245
213, 2, bw, attraction, a-b-da, 5, 1, 5, 30, 60, 135, 132, 58, 135, 60, 2, 0.885262
213, 2, bw, filler, NA, 999, 999, 5, 31, 183, 142, 61, 151, 119, 92, 1, 1.10355
213, 2, bw, filler, NA, 999, 999, 5, 31, 183, 142, 61, 151, 119, 92, 2, 1.21788
213, 2, bw, filler, NA, 999, 999, 5, 32, 96, 150, 142, 155, 192, 102, 2, 0.80674
213, 2, bw, filler, NA, 999, 999, 5, 32, 96, 150, 142, 155, 192, 102, 1, 0.701145
213, 2, bw, catch, NA, 999, 999, 5, 33, 174, 141, 109, 146, 128, 67, 1, 1.27095
213, 2, bw, catch, NA, 999, 999, 5, 33, 174, 141, 109, 146, 128, 67, 3, 1.28256
213, 2, bw, catch, NA, 999, 999, 5, 34, 116, 139, 101, 94, 130, 185, 3, 0.844711
213, 2, bw, catch, NA, 999, 999, 5, 34, 116, 139, 101, 94, 130, 185, 2, 0.809745
213, 2, bw, filler, NA, 999, 999, 5, 35, 186, 126, 187, 134, 140, 146, 2, 1.92668
213, 2, bw, filler, NA, 999, 999, 5, 35, 186, 126, 187, 134, 140, 146, 3, 1.00809
213, 2, bw, filler, NA, 999, 999, 5, 36, 111, 188, 118, 104, 176, 129, 3, 3.07706
213, 2, bw, filler, NA, 999, 999, 5, 36, 111, 188, 118, 104, 176, 129, 2, 1.32011
213, 2, bw, attraction, a-b-da, 14, 2, 5, 37, 165, 90, 90, 165, 153, 83, 2, 2.64095
213, 2, bw, attraction, a-b-da, 14, 2, 5, 37, 165, 90, 90, 165, 153, 83, 3, 0.693444
213, 2, bw, filler, NA, 999, 999, 6, 1, 146, 123, 164, 128, 82, 157, 2, 1.88715
213, 2, bw, filler, NA, 999, 999, 6, 1, 146, 123, 164, 128, 82, 157, 3, 0.714541
213, 2, bw, filler, NA, 999, 999, 6, 2, 157, 191, 129, 119, 70, 125, 1, 1.06749
213, 2, bw, filler, NA, 999, 999, 6, 2, 157, 191, 129, 119, 70, 125, 3, 1.09593
213, 2, bw, catch, NA, 999, 999, 6, 3, 98, 157, 175, 140, 91, 104, 2, 1.4335
213, 2, bw, catch, NA, 999, 999, 6, 3, 98, 157, 175, 140, 91, 104, 3, 0.567011
213, 2, bw, attraction, a-b-db, 2, 2, 6, 4, 165, 90, 90, 165, 89, 163, 2, 3.23014
213, 2, bw, attraction, a-b-db, 2, 2, 6, 4, 165, 90, 90, 165, 89, 163, 1, 0.642988
213, 2, bw, attraction, a-b-da, 14, 2, 6, 5, 165, 90, 90, 165, 153, 83, 2, 1.06285
213, 2, bw, attraction, a-b-da, 14, 2, 6, 5, 165, 90, 90, 165, 153, 83, 3, 1.79526
213, 2, bw, attraction, a-b-da, 2, 3, 6, 6, 195, 120, 120, 195, 193, 119, 2, 1.19265
213, 2, bw, attraction, a-b-da, 2, 3, 6, 6, 195, 120, 120, 195, 193, 119, 3, 1.22342
213, 2, bw, attraction, a-b-db, 9, 1, 6, 7, 60, 135, 57, 129, 135, 60, 1, 1.17159
213, 2, bw, attraction, a-b-db, 9, 1, 6, 7, 60, 135, 57, 129, 135, 60, 3, 0.931291
213, 2, bw, attraction, a-b-db, 5, 1, 6, 8, 58, 132, 60, 135, 135, 60, 2, 0.947525
213, 2, bw, attraction, a-b-db, 5, 1, 6, 8, 58, 132, 60, 135, 135, 60, 1, 0.684601
213, 2, bw, filler, NA, 999, 999, 6, 9, 78, 111, 153, 194, 105, 60, 2, 0.670968
213, 2, bw, filler, NA, 999, 999, 6, 9, 78, 111, 153, 194, 105, 60, 3, 1.64266
213, 2, bw, attraction, a-b-da, 9, 1, 6, 10, 129, 57, 135, 60, 60, 135, 3, 1.68617
213, 2, bw, attraction, a-b-da, 9, 1, 6, 10, 129, 57, 135, 60, 60, 135, 1, 1.96178
213, 2, bw, filler, NA, 999, 999, 6, 11, 97, 194, 77, 66, 145, 155, 3, 4.20845
213, 2, bw, filler, NA, 999, 999, 6, 11, 97, 194, 77, 66, 145, 155, 2, 0.805589
213, 2, bw, attraction, a-b-db, 2, 3, 6, 12, 195, 120, 120, 195, 119, 193, 2, 1.61129
213, 2, bw, attraction, a-b-db, 2, 3, 6, 12, 195, 120, 120, 195, 119, 193, 1, 2.4014
213, 2, bw, attraction, a-b-db, 9, 2, 6, 13, 165, 90, 86, 157, 90, 165, 2, 3.55072
213, 2, bw, attraction, a-b-db, 9, 2, 6, 13, 165, 90, 86, 157, 90, 165, 1, 0.798807
213, 2, bw, attraction, a-b-da, 14, 1, 6, 14, 60, 135, 125, 56, 135, 60, 1, 1.47644
213, 2, bw, attraction, a-b-da, 14, 1, 6, 14, 60, 135, 125, 56, 135, 60, 2, 0.608033
213, 2, bw, filler, NA, 999, 999, 6, 15, 87, 115, 159, 155, 129, 142, 2, 0.661182
213, 2, bw, filler, NA, 999, 999, 6, 15, 87, 115, 159, 155, 129, 142, 1, 0.641456
213, 2, bw, catch, NA, 999, 999, 6, 16, 150, 105, 195, 120, 134, 61, 2, 0.565297
213, 2, bw, catch, NA, 999, 999, 6, 16, 150, 105, 195, 120, 134, 61, 3, 0.42172
213, 2, bw, attraction, a-b-da, 2, 2, 6, 17, 165, 90, 163, 89, 90, 165, 3, 1.00299
213, 2, bw, attraction, a-b-da, 2, 2, 6, 17, 165, 90, 163, 89, 90, 165, 1, 0.577833
213, 2, bw, attraction, a-b-db, 5, 3, 6, 18, 117, 190, 120, 195, 195, 120, 2, 0.800336
213, 2, bw, attraction, a-b-db, 5, 3, 6, 18, 117, 190, 120, 195, 195, 120, 1, 0.775458
213, 2, bw, attraction, a-b-db, 5, 2, 6, 19, 165, 90, 88, 161, 90, 165, 3, 1.94169
213, 2, bw, attraction, a-b-db, 5, 2, 6, 19, 165, 90, 88, 161, 90, 165, 1, 1.24639
213, 2, bw, attraction, a-b-db, 9, 3, 6, 20, 195, 120, 114, 186, 120, 195, 3, 2.11397
213, 2, bw, attraction, a-b-db, 9, 3, 6, 20, 195, 120, 114, 186, 120, 195, 1, 0.844055
213, 2, bw, attraction, a-b-db, 14, 2, 6, 21, 90, 165, 83, 153, 165, 90, 1, 2.07956
213, 2, bw, attraction, a-b-db, 14, 2, 6, 21, 90, 165, 83, 153, 165, 90, 3, 0.866915
213, 2, bw, filler, NA, 999, 999, 6, 22, 185, 81, 156, 148, 116, 102, 2, 1.0219
213, 2, bw, filler, NA, 999, 999, 6, 22, 185, 81, 156, 148, 116, 102, 1, 3.9318
213, 2, bw, attraction, a-b-da, 5, 3, 6, 23, 120, 195, 190, 117, 195, 120, 1, 3.93094
213, 2, bw, attraction, a-b-da, 5, 3, 6, 23, 120, 195, 190, 117, 195, 120, 2, 0.707865
213, 2, bw, filler, NA, 999, 999, 6, 24, 93, 114, 116, 174, 99, 71, 2, 1.01282
213, 2, bw, filler, NA, 999, 999, 6, 24, 93, 114, 116, 174, 99, 71, 3, 1.13924
213, 2, bw, attraction, a-b-db, 2, 1, 6, 25, 59, 134, 135, 60, 60, 135, 3, 1.93932
213, 2, bw, attraction, a-b-db, 2, 1, 6, 25, 59, 134, 135, 60, 60, 135, 1, 0.69209
213, 2, bw, attraction, a-b-db, 14, 1, 6, 26, 60, 135, 56, 125, 135, 60, 1, 3.06978
213, 2, bw, attraction, a-b-db, 14, 1, 6, 26, 60, 135, 56, 125, 135, 60, 2, 1.28946
213, 2, bw, catch, NA, 999, 999, 6, 27, 117, 138, 167, 148, 113, 82, 2, 1.13091
213, 2, bw, catch, NA, 999, 999, 6, 27, 117, 138, 167, 148, 113, 82, 3, 0.836602
213, 2, bw, attraction, a-b-da, 5, 1, 6, 28, 135, 60, 60, 135, 132, 58, 2, 3.33705
213, 2, bw, attraction, a-b-da, 5, 1, 6, 28, 135, 60, 60, 135, 132, 58, 3, 1.36126
213, 2, bw, attraction, a-b-da, 9, 2, 6, 29, 157, 86, 165, 90, 90, 165, 3, 1.44009
213, 2, bw, attraction, a-b-da, 9, 2, 6, 29, 157, 86, 165, 90, 90, 165, 1, 0.796924
213, 2, bw, filler, NA, 999, 999, 6, 30, 59, 128, 87, 130, 139, 190, 3, 0.834728
213, 2, bw, filler, NA, 999, 999, 6, 30, 59, 128, 87, 130, 139, 190, 1, 0.832452
213, 2, bw, attraction, a-b-da, 14, 3, 6, 31, 120, 195, 181, 111, 195, 120, 1, 1.5806
213, 2, bw, attraction, a-b-da, 14, 3, 6, 31, 120, 195, 181, 111, 195, 120, 2, 0.676188
213, 2, bw, attraction, a-b-db, 14, 3, 6, 32, 111, 181, 195, 120, 120, 195, 2, 1.26258
213, 2, bw, attraction, a-b-db, 14, 3, 6, 32, 111, 181, 195, 120, 120, 195, 1, 0.506923
213, 2, bw, attraction, a-b-da, 5, 2, 6, 33, 165, 90, 90, 165, 161, 88, 2, 1.39598
213, 2, bw, attraction, a-b-da, 5, 2, 6, 33, 165, 90, 90, 165, 161, 88, 3, 0.58685
213, 2, bw, filler, NA, 999, 999, 6, 34, 156, 94, 160, 86, 102, 82, 1, 1.4652
213, 2, bw, filler, NA, 999, 999, 6, 34, 156, 94, 160, 86, 102, 82, 3, 0.637427
213, 2, bw, attraction, a-b-da, 2, 1, 6, 35, 135, 60, 60, 135, 134, 59, 2, 3.5939
213, 2, bw, attraction, a-b-da, 2, 1, 6, 35, 135, 60, 60, 135, 134, 59, 3, 0.592064
213, 2, bw, attraction, a-b-da, 9, 3, 6, 36, 120, 195, 186, 114, 195, 120, 1, 3.84575
213, 2, bw, attraction, a-b-da, 9, 3, 6, 36, 120, 195, 186, 114, 195, 120, 2, 1.11395
213, 2, bw, filler, NA, 999, 999, 6, 37, 80, 145, 136, 83, 154, 115, 3, 1.65087
213, 2, bw, filler, NA, 999, 999, 6, 37, 80, 145, 136, 83, 154, 115, 2, 1.35963
213, 2, bw, attraction, a-b-da, 2, 1, 7, 1, 60, 135, 135, 60, 134, 59, 1, 5.66239
213, 2, bw, attraction, a-b-da, 2, 1, 7, 1, 60, 135, 135, 60, 134, 59, 3, 0.81721
213, 2, bw, attraction, a-b-da, 5, 3, 7, 2, 190, 117, 195, 120, 120, 195, 3, 1.68629
213, 2, bw, attraction, a-b-da, 5, 3, 7, 2, 190, 117, 195, 120, 120, 195, 2, 1.35377
213, 2, bw, filler, NA, 999, 999, 7, 3, 76, 66, 178, 94, 136, 188, 3, 0.849235
213, 2, bw, filler, NA, 999, 999, 7, 3, 76, 66, 178, 94, 136, 188, 1, 0.886416
213, 2, bw, catch, NA, 999, 999, 7, 4, 119, 76, 149, 106, 182, 133, 3, 0.800592
213, 2, bw, catch, NA, 999, 999, 7, 4, 119, 76, 149, 106, 182, 133, 1, 0.767763
213, 2, bw, attraction, a-b-db, 9, 2, 7, 5, 165, 90, 86, 157, 90, 165, 3, 5.16682
213, 2, bw, attraction, a-b-db, 9, 2, 7, 5, 165, 90, 86, 157, 90, 165, 1, 0.653797
213, 2, bw, attraction, a-b-da, 14, 3, 7, 6, 195, 120, 181, 111, 120, 195, 1, 1.56948
213, 2, bw, attraction, a-b-da, 14, 3, 7, 6, 195, 120, 181, 111, 120, 195, 2, 0.473598
213, 2, bw, filler, NA, 999, 999, 7, 7, 131, 125, 143, 175, 62, 195, 2, 0.852133
213, 2, bw, filler, NA, 999, 999, 7, 7, 131, 125, 143, 175, 62, 195, 3, 1.33723
213, 2, bw, attraction, a-b-da, 9, 2, 7, 8, 157, 86, 165, 90, 90, 165, 2, 1.29745
213, 2, bw, attraction, a-b-da, 9, 2, 7, 8, 157, 86, 165, 90, 90, 165, 1, 1.62025
213, 2, bw, filler, NA, 999, 999, 7, 9, 96, 93, 72, 184, 152, 173, 3, 0.993061
213, 2, bw, filler, NA, 999, 999, 7, 9, 96, 93, 72, 184, 152, 173, 1, 0.768239
213, 2, bw, attraction, a-b-db, 9, 1, 7, 10, 57, 129, 135, 60, 60, 135, 3, 3.84718
213, 2, bw, attraction, a-b-db, 9, 1, 7, 10, 57, 129, 135, 60, 60, 135, 2, 0.715095
213, 2, bw, attraction, a-b-db, 9, 3, 7, 11, 120, 195, 195, 120, 114, 186, 1, 2.92417
213, 2, bw, attraction, a-b-db, 9, 3, 7, 11, 120, 195, 195, 120, 114, 186, 3, 0.58128
213, 2, bw, attraction, a-b-db, 2, 3, 7, 12, 119, 193, 120, 195, 195, 120, 2, 1.57977
213, 2, bw, attraction, a-b-db, 2, 3, 7, 12, 119, 193, 120, 195, 195, 120, 3, 1.12326
213, 2, bw, catch, NA, 999, 999, 7, 13, 118, 77, 161, 154, 122, 133, 2, 0.883486
213, 2, bw, catch, NA, 999, 999, 7, 13, 118, 77, 161, 154, 122, 133, 1, 0.607174
213, 2, bw, catch, NA, 999, 999, 7, 14, 153, 162, 121, 74, 154, 101, 1, 0.988167
213, 2, bw, catch, NA, 999, 999, 7, 14, 153, 162, 121, 74, 154, 101, 2, 1.2512
213, 2, bw, attraction, a-b-da, 14, 1, 7, 15, 135, 60, 60, 135, 125, 56, 2, 1.88672
213, 2, bw, attraction, a-b-da, 14, 1, 7, 15, 135, 60, 60, 135, 125, 56, 3, 0.610088
213, 2, bw, attraction, a-b-db, 5, 3, 7, 16, 117, 190, 120, 195, 195, 120, 2, 1.67926
213, 2, bw, attraction, a-b-db, 5, 3, 7, 16, 117, 190, 120, 195, 195, 120, 1, 0.562858
213, 2, bw, attraction, a-b-da, 9, 1, 7, 17, 135, 60, 60, 135, 129, 57, 2, 1.58579
213, 2, bw, attraction, a-b-da, 9, 1, 7, 17, 135, 60, 60, 135, 129, 57, 3, 1.27325
213, 2, bw, attraction, a-b-db, 14, 2, 7, 18, 83, 153, 165, 90, 90, 165, 2, 2.04349
213, 2, bw, attraction, a-b-db, 14, 2, 7, 18, 83, 153, 165, 90, 90, 165, 1, 0.488154
213, 2, bw, attraction, a-b-db, 5, 1, 7, 19, 60, 135, 58, 132, 135, 60, 2, 1.69862
213, 2, bw, attraction, a-b-db, 5, 1, 7, 19, 60, 135, 58, 132, 135, 60, 1, 0.613311
213, 2, bw, filler, NA, 999, 999, 7, 20, 142, 82, 173, 98, 118, 56, 2, 0.802438
213, 2, bw, filler, NA, 999, 999, 7, 20, 142, 82, 173, 98, 118, 56, 3, 0.993608
213, 2, bw, attraction, a-b-da, 2, 3, 7, 21, 193, 119, 120, 195, 195, 120, 2, 1.42317
213, 2, bw, attraction, a-b-da, 2, 3, 7, 21, 193, 119, 120, 195, 195, 120, 3, 0.476753
213, 2, bw, attraction, a-b-da, 2, 2, 7, 22, 163, 89, 165, 90, 90, 165, 3, 1.45531
213, 2, bw, attraction, a-b-da, 2, 2, 7, 22, 163, 89, 165, 90, 90, 165, 1, 0.883286
213, 2, bw, attraction, a-b-da, 5, 1, 7, 23, 60, 135, 135, 60, 132, 58, 1, 1.83761
213, 2, bw, attraction, a-b-da, 5, 1, 7, 23, 60, 135, 135, 60, 132, 58, 3, 0.650324
213, 2, bw, attraction, a-b-db, 2, 2, 7, 24, 165, 90, 90, 165, 89, 163, 3, 1.6942
213, 2, bw, attraction, a-b-db, 2, 2, 7, 24, 165, 90, 90, 165, 89, 163, 1, 1.21683
213, 2, bw, filler, NA, 999, 999, 7, 25, 186, 160, 89, 154, 113, 194, 1, 1.02976
213, 2, bw, filler, NA, 999, 999, 7, 25, 186, 160, 89, 154, 113, 194, 2, 1.48343
213, 2, bw, attraction, a-b-db, 5, 2, 7, 26, 165, 90, 90, 165, 88, 161, 2, 2.09354
213, 2, bw, attraction, a-b-db, 5, 2, 7, 26, 165, 90, 90, 165, 88, 161, 1, 1.74429
213, 2, bw, filler, NA, 999, 999, 7, 27, 101, 139, 179, 174, 127, 66, 2, 0.967594
213, 2, bw, filler, NA, 999, 999, 7, 27, 101, 139, 179, 174, 127, 66, 3, 1.16801
213, 2, bw, attraction, a-b-db, 2, 1, 7, 28, 135, 60, 59, 134, 60, 135, 3, 1.63892
213, 2, bw, attraction, a-b-db, 2, 1, 7, 28, 135, 60, 59, 134, 60, 135, 1, 0.747682
213, 2, bw, attraction, a-b-db, 14, 3, 7, 29, 195, 120, 120, 195, 111, 181, 2, 1.94745
213, 2, bw, attraction, a-b-db, 14, 3, 7, 29, 195, 120, 120, 195, 111, 181, 3, 0.460103
213, 2, bw, attraction, a-b-db, 14, 1, 7, 30, 60, 135, 56, 125, 135, 60, 1, 1.63122
213, 2, bw, attraction, a-b-db, 14, 1, 7, 30, 60, 135, 56, 125, 135, 60, 2, 1.38074
213, 2, bw, filler, NA, 999, 999, 7, 31, 192, 137, 79, 79, 60, 63, 1, 0.770785
213, 2, bw, filler, NA, 999, 999, 7, 31, 192, 137, 79, 79, 60, 63, 3, 1.83465
213, 2, bw, filler, NA, 999, 999, 7, 32, 117, 182, 154, 88, 114, 98, 1, 0.982735
213, 2, bw, filler, NA, 999, 999, 7, 32, 117, 182, 154, 88, 114, 98, 3, 0.886301
213, 2, bw, filler, NA, 999, 999, 7, 33, 113, 165, 178, 137, 134, 128, 2, 1.27262
213, 2, bw, filler, NA, 999, 999, 7, 33, 113, 165, 178, 137, 134, 128, 3, 2.89224
213, 2, bw, attraction, a-b-da, 9, 3, 7, 34, 120, 195, 195, 120, 186, 114, 1, 1.5892
213, 2, bw, attraction, a-b-da, 9, 3, 7, 34, 120, 195, 195, 120, 186, 114, 3, 0.692024
213, 2, bw, filler, NA, 999, 999, 7, 35, 80, 146, 98, 81, 104, 100, 3, 1.46984
213, 2, bw, filler, NA, 999, 999, 7, 35, 80, 146, 98, 81, 104, 100, 2, 1.44997
213, 2, bw, attraction, a-b-da, 14, 2, 7, 36, 90, 165, 165, 90, 153, 83, 2, 1.22146
213, 2, bw, attraction, a-b-da, 14, 2, 7, 36, 90, 165, 165, 90, 153, 83, 3, 0.730976
213, 2, bw, attraction, a-b-da, 5, 2, 7, 37, 161, 88, 165, 90, 90, 165, 2, 1.21144
213, 2, bw, attraction, a-b-da, 5, 2, 7, 37, 161, 88, 165, 90, 90, 165, 1, 0.697613
213, 2, bw, attraction, a-b-db, 2, 3, 8, 1, 120, 195, 195, 120, 119, 193, 2, 2.72347
213, 2, bw, attraction, a-b-db, 2, 3, 8, 1, 120, 195, 195, 120, 119, 193, 1, 0.508518
213, 2, bw, attraction, a-b-da, 2, 1, 8, 2, 60, 135, 135, 60, 134, 59, 2, 2.05365
213, 2, bw, attraction, a-b-da, 2, 1, 8, 2, 60, 135, 135, 60, 134, 59, 1, 0.498272
213, 2, bw, catch, NA, 999, 999, 8, 3, 131, 64, 108, 147, 180, 135, 3, 0.772062
213, 2, bw, catch, NA, 999, 999, 8, 3, 131, 64, 108, 147, 180, 135, 1, 1.13976
213, 2, bw, filler, NA, 999, 999, 8, 4, 147, 178, 164, 56, 58, 69, 1, 0.963394
213, 2, bw, filler, NA, 999, 999, 8, 4, 147, 178, 164, 56, 58, 69, 3, 0.787759
213, 2, bw, attraction, a-b-db, 14, 1, 8, 5, 56, 125, 135, 60, 60, 135, 3, 1.57018
213, 2, bw, attraction, a-b-db, 14, 1, 8, 5, 56, 125, 135, 60, 60, 135, 1, 0.433538
213, 2, bw, attraction, a-b-db, 2, 1, 8, 6, 135, 60, 60, 135, 59, 134, 2, 2.36601
213, 2, bw, attraction, a-b-db, 2, 1, 8, 6, 135, 60, 60, 135, 59, 134, 1, 0.566048
213, 2, bw, filler, NA, 999, 999, 8, 7, 115, 69, 150, 162, 107, 157, 2, 0.949082
213, 2, bw, filler, NA, 999, 999, 8, 7, 115, 69, 150, 162, 107, 157, 1, 0.742045
213, 2, bw, attraction, a-b-db, 9, 1, 8, 8, 60, 135, 57, 129, 135, 60, 1, 1.27777
213, 2, bw, attraction, a-b-db, 9, 1, 8, 8, 60, 135, 57, 129, 135, 60, 3, 0.473537
213, 2, bw, attraction, a-b-db, 5, 2, 8, 9, 88, 161, 90, 165, 165, 90, 2, 1.97176
213, 2, bw, attraction, a-b-db, 5, 2, 8, 9, 88, 161, 90, 165, 165, 90, 3, 0.451127
213, 2, bw, attraction, a-b-da, 5, 3, 8, 10, 195, 120, 190, 117, 120, 195, 3, 0.990941
213, 2, bw, attraction, a-b-da, 5, 3, 8, 10, 195, 120, 190, 117, 120, 195, 2, 0.413908
213, 2, bw, attraction, a-b-da, 5, 2, 8, 11, 165, 90, 161, 88, 90, 165, 2, 1.15506
213, 2, bw, attraction, a-b-da, 5, 2, 8, 11, 165, 90, 161, 88, 90, 165, 1, 0.41934
213, 2, bw, attraction, a-b-da, 14, 1, 8, 12, 60, 135, 135, 60, 125, 56, 2, 1.01651
213, 2, bw, attraction, a-b-da, 14, 1, 8, 12, 60, 135, 135, 60, 125, 56, 3, 1.2468
213, 2, bw, attraction, a-b-da, 9, 2, 8, 13, 165, 90, 157, 86, 90, 165, 1, 1.65839
213, 2, bw, attraction, a-b-da, 9, 2, 8, 13, 165, 90, 157, 86, 90, 165, 2, 1.03849
213, 2, bw, attraction, a-b-db, 9, 3, 8, 14, 120, 195, 195, 120, 114, 186, 1, 1.69072
213, 2, bw, attraction, a-b-db, 9, 3, 8, 14, 120, 195, 195, 120, 114, 186, 3, 1.01358
213, 2, bw, attraction, a-b-da, 9, 3, 8, 15, 195, 120, 120, 195, 186, 114, 2, 2.17862
213, 2, bw, attraction, a-b-da, 9, 3, 8, 15, 195, 120, 120, 195, 186, 114, 3, 0.465798
213, 2, bw, attraction, a-b-db, 9, 2, 8, 16, 90, 165, 165, 90, 86, 157, 2, 1.16491
213, 2, bw, attraction, a-b-db, 9, 2, 8, 16, 90, 165, 165, 90, 86, 157, 3, 0.733323
213, 2, bw, attraction, a-b-da, 2, 3, 8, 17, 120, 195, 195, 120, 193, 119, 3, 0.853695
213, 2, bw, attraction, a-b-da, 2, 3, 8, 17, 120, 195, 195, 120, 193, 119, 2, 2.05007
213, 2, bw, attraction, a-b-db, 14, 2, 8, 18, 83, 153, 165, 90, 90, 165, 3, 1.30928
213, 2, bw, attraction, a-b-db, 14, 2, 8, 18, 83, 153, 165, 90, 90, 165, 1, 0.831535
213, 2, bw, catch, NA, 999, 999, 8, 19, 74, 121, 163, 152, 120, 135, 2, 0.82794
213, 2, bw, catch, NA, 999, 999, 8, 19, 74, 121, 163, 152, 120, 135, 1, 0.657437
213, 2, bw, catch, NA, 999, 999, 8, 20, 127, 128, 104, 91, 146, 169, 3, 0.932636
213, 2, bw, catch, NA, 999, 999, 8, 20, 127, 128, 104, 91, 146, 169, 2, 0.646319
213, 2, bw, attraction, a-b-da, 2, 2, 8, 21, 90, 165, 165, 90, 163, 89, 2, 1.59412
213, 2, bw, attraction, a-b-da, 2, 2, 8, 21, 90, 165, 165, 90, 163, 89, 3, 1.33688
213, 2, bw, attraction, a-b-da, 9, 1, 8, 22, 135, 60, 60, 135, 129, 57, 2, 2.83305
213, 2, bw, attraction, a-b-da, 9, 1, 8, 22, 135, 60, 60, 135, 129, 57, 3, 0.958192
213, 2, bw, filler, NA, 999, 999, 8, 23, 177, 189, 108, 176, 164, 76, 1, 0.757258
213, 2, bw, filler, NA, 999, 999, 8, 23, 177, 189, 108, 176, 164, 76, 3, 0.877645
213, 2, bw, filler, NA, 999, 999, 8, 24, 115, 133, 92, 59, 98, 87, 1, 0.81584
213, 2, bw, filler, NA, 999, 999, 8, 24, 115, 133, 92, 59, 98, 87, 2, 0.798318
213, 2, bw, filler, NA, 999, 999, 8, 25, 68, 79, 142, 179, 98, 76, 2, 0.683847
213, 2, bw, filler, NA, 999, 999, 8, 25, 68, 79, 142, 179, 98, 76, 1, 0.687658
213, 2, bw, attraction, a-b-db, 5, 1, 8, 26, 135, 60, 60, 135, 58, 132, 2, 3.38603
213, 2, bw, attraction, a-b-db, 5, 1, 8, 26, 135, 60, 60, 135, 58, 132, 1, 0.408995
213, 2, bw, filler, NA, 999, 999, 8, 27, 140, 79, 111, 145, 189, 167, 3, 0.974103
213, 2, bw, filler, NA, 999, 999, 8, 27, 140, 79, 111, 145, 189, 167, 1, 0.845802
213, 2, bw, filler, NA, 999, 999, 8, 28, 155, 147, 76, 142, 144, 179, 3, 2.44941
213, 2, bw, filler, NA, 999, 999, 8, 28, 155, 147, 76, 142, 144, 179, 2, 0.526011
213, 2, bw, filler, NA, 999, 999, 8, 29, 180, 144, 169, 100, 105, 119, 1, 0.870393
213, 2, bw, filler, NA, 999, 999, 8, 29, 180, 144, 169, 100, 105, 119, 3, 0.491009
213, 2, bw, attraction, a-b-db, 2, 2, 8, 30, 89, 163, 90, 165, 165, 90, 2, 0.996597
213, 2, bw, attraction, a-b-db, 2, 2, 8, 30, 89, 163, 90, 165, 165, 90, 1, 0.459585
213, 2, bw, attraction, a-b-da, 5, 1, 8, 31, 135, 60, 60, 135, 132, 58, 2, 1.39079
213, 2, bw, attraction, a-b-da, 5, 1, 8, 31, 135, 60, 60, 135, 132, 58, 3, 0.373688
213, 2, bw, attraction, a-b-db, 14, 3, 8, 32, 111, 181, 120, 195, 195, 120, 2, 1.53209
213, 2, bw, attraction, a-b-db, 14, 3, 8, 32, 111, 181, 120, 195, 195, 120, 3, 0.813548
213, 2, bw, attraction, a-b-da, 14, 2, 8, 33, 165, 90, 90, 165, 153, 83, 2, 0.938663
213, 2, bw, attraction, a-b-da, 14, 2, 8, 33, 165, 90, 90, 165, 153, 83, 3, 0.5477
213, 2, bw, attraction, a-b-db, 5, 3, 8, 34, 120, 195, 195, 120, 117, 190, 3, 2.22743
213, 2, bw, attraction, a-b-db, 5, 3, 8, 34, 120, 195, 195, 120, 117, 190, 2, 0.736627
213, 2, bw, attraction, a-b-da, 14, 3, 8, 35, 120, 195, 195, 120, 181, 111, 1, 1.82498
213, 2, bw, attraction, a-b-da, 14, 3, 8, 35, 120, 195, 195, 120, 181, 111, 3, 1.41455
213, 2, bw, filler, NA, 999, 999, 8, 36, 117, 163, 118, 133, 105, 94, 1, 0.731229
213, 2, bw, filler, NA, 999, 999, 8, 36, 117, 163, 118, 133, 105, 94, 3, 0.724989
213, 2, bw, filler, NA, 999, 999, 8, 37, 112, 193, 82, 79, 128, 136, 3, 0.837343
213, 2, bw, filler, NA, 999, 999, 8, 37, 112, 193, 82, 79, 128, 136, 2, 0.986444
