sub_n, computer_n, bw_cond, effect, set, distance, diag, block_n, trial_n, h1, w1, h2, w2, h3, w3, choice, rt 
295, 2, bw, practice, NA, 999, 999, 0, 1, 71, 100, 104, 100, 119, 117, 3, 2.31381
295, 2, bw, practice, NA, 999, 999, 0, 1, 71, 100, 104, 100, 119, 117, 1, 4.91477
295, 2, bw, practice, NA, 999, 999, 0, 2, 111, 60, 135, 149, 71, 76, 2, 1.48164
295, 2, bw, practice, NA, 999, 999, 0, 2, 111, 60, 135, 149, 71, 76, 3, 1.86935
295, 2, bw, practice, NA, 999, 999, 0, 3, 90, 146, 71, 174, 193, 181, 3, 1.61133
295, 2, bw, practice, NA, 999, 999, 0, 3, 90, 146, 71, 174, 193, 181, 2, 0.905036
295, 2, bw, attraction, a-b-da, 14, 2, 1, 1, 153, 83, 165, 90, 90, 165, 3, 2.63646
295, 2, bw, attraction, a-b-da, 14, 2, 1, 1, 153, 83, 165, 90, 90, 165, 1, 0.937618
295, 2, bw, attraction, a-b-db, 5, 1, 1, 2, 135, 60, 58, 132, 60, 135, 3, 1.71396
295, 2, bw, attraction, a-b-db, 5, 1, 1, 2, 135, 60, 58, 132, 60, 135, 1, 0.675997
295, 2, bw, attraction, a-b-da, 9, 1, 1, 3, 129, 57, 60, 135, 135, 60, 3, 0.998362
295, 2, bw, attraction, a-b-da, 9, 1, 1, 3, 129, 57, 60, 135, 135, 60, 1, 1.20535
295, 2, bw, attraction, a-b-db, 2, 1, 1, 4, 59, 134, 60, 135, 135, 60, 1, 1.24295
295, 2, bw, attraction, a-b-db, 2, 1, 1, 4, 59, 134, 60, 135, 135, 60, 3, 0.887861
295, 2, bw, attraction, a-b-db, 9, 1, 1, 5, 60, 135, 135, 60, 57, 129, 1, 0.80217
295, 2, bw, attraction, a-b-db, 9, 1, 1, 5, 60, 135, 135, 60, 57, 129, 2, 0.433251
295, 2, bw, attraction, a-b-da, 14, 3, 1, 6, 195, 120, 120, 195, 181, 111, 1, 0.637757
295, 2, bw, attraction, a-b-da, 14, 3, 1, 6, 195, 120, 120, 195, 181, 111, 3, 0.419007
295, 2, bw, attraction, a-b-db, 5, 2, 1, 7, 165, 90, 90, 165, 88, 161, 1, 1.30398
295, 2, bw, attraction, a-b-db, 5, 2, 1, 7, 165, 90, 90, 165, 88, 161, 3, 0.714921
295, 2, bw, attraction, a-b-db, 2, 2, 1, 8, 89, 163, 165, 90, 90, 165, 1, 0.635942
295, 2, bw, attraction, a-b-db, 2, 2, 1, 8, 89, 163, 165, 90, 90, 165, 3, 0.353797
295, 2, bw, filler, NA, 999, 999, 1, 9, 150, 127, 77, 167, 81, 179, 1, 0.393568
295, 2, bw, filler, NA, 999, 999, 1, 9, 150, 127, 77, 167, 81, 179, 2, 0.920724
295, 2, bw, filler, NA, 999, 999, 1, 10, 156, 124, 79, 192, 101, 132, 1, 1.04974
295, 2, bw, filler, NA, 999, 999, 1, 10, 156, 124, 79, 192, 101, 132, 3, 0.742726
295, 2, bw, filler, NA, 999, 999, 1, 11, 146, 108, 186, 129, 58, 139, 2, 1.07052
295, 2, bw, filler, NA, 999, 999, 1, 11, 146, 108, 186, 129, 58, 139, 3, 0.658049
295, 2, bw, catch, NA, 999, 999, 1, 12, 166, 149, 91, 104, 110, 145, 1, 0.661069
295, 2, bw, catch, NA, 999, 999, 1, 12, 166, 149, 91, 104, 110, 145, 2, 0.633576
295, 2, bw, attraction, a-b-da, 5, 2, 1, 13, 90, 165, 165, 90, 161, 88, 1, 1.57398
295, 2, bw, attraction, a-b-da, 5, 2, 1, 13, 90, 165, 165, 90, 161, 88, 3, 0.573506
295, 2, bw, attraction, a-b-da, 9, 2, 1, 14, 165, 90, 90, 165, 157, 86, 2, 1.90789
295, 2, bw, attraction, a-b-da, 9, 2, 1, 14, 165, 90, 90, 165, 157, 86, 3, 0.525919
295, 2, bw, catch, NA, 999, 999, 1, 15, 83, 112, 133, 122, 180, 135, 3, 1.01434
295, 2, bw, catch, NA, 999, 999, 1, 15, 83, 112, 133, 122, 180, 135, 1, 0.444709
295, 2, bw, filler, NA, 999, 999, 1, 16, 139, 194, 163, 103, 112, 135, 1, 0.848462
295, 2, bw, filler, NA, 999, 999, 1, 16, 139, 194, 163, 103, 112, 135, 3, 0.389591
295, 2, bw, filler, NA, 999, 999, 1, 17, 122, 89, 122, 154, 79, 97, 2, 0.905272
295, 2, bw, filler, NA, 999, 999, 1, 17, 122, 89, 122, 154, 79, 97, 3, 0.341801
295, 2, bw, attraction, a-b-db, 14, 2, 1, 18, 165, 90, 83, 153, 90, 165, 1, 1.6935
295, 2, bw, attraction, a-b-db, 14, 2, 1, 18, 165, 90, 83, 153, 90, 165, 2, 0.360299
295, 2, bw, attraction, a-b-da, 2, 3, 1, 19, 195, 120, 193, 119, 120, 195, 3, 1.29554
295, 2, bw, attraction, a-b-da, 2, 3, 1, 19, 195, 120, 193, 119, 120, 195, 2, 0.994425
295, 2, bw, filler, NA, 999, 999, 1, 20, 135, 62, 138, 137, 58, 129, 2, 1.06394
295, 2, bw, filler, NA, 999, 999, 1, 20, 135, 62, 138, 137, 58, 129, 3, 0.43645
295, 2, bw, attraction, a-b-da, 5, 1, 1, 21, 135, 60, 132, 58, 60, 135, 1, 1.3928
295, 2, bw, attraction, a-b-da, 5, 1, 1, 21, 135, 60, 132, 58, 60, 135, 3, 0.511717
295, 2, bw, filler, NA, 999, 999, 1, 22, 141, 99, 162, 128, 63, 175, 2, 1.12079
295, 2, bw, filler, NA, 999, 999, 1, 22, 141, 99, 162, 128, 63, 175, 3, 0.362347
295, 2, bw, attraction, a-b-db, 14, 1, 1, 23, 56, 125, 135, 60, 60, 135, 1, 0.8095
295, 2, bw, attraction, a-b-db, 14, 1, 1, 23, 56, 125, 135, 60, 60, 135, 3, 0.328042
295, 2, bw, catch, NA, 999, 999, 1, 24, 119, 76, 144, 171, 160, 95, 2, 0.688406
295, 2, bw, catch, NA, 999, 999, 1, 24, 119, 76, 144, 171, 160, 95, 1, 1.05949
295, 2, bw, attraction, a-b-da, 14, 1, 1, 25, 60, 135, 125, 56, 135, 60, 1, 1.59053
295, 2, bw, attraction, a-b-da, 14, 1, 1, 25, 60, 135, 125, 56, 135, 60, 3, 0.589306
295, 2, bw, attraction, a-b-da, 5, 3, 1, 26, 120, 195, 190, 117, 195, 120, 1, 1.81098
295, 2, bw, attraction, a-b-da, 5, 3, 1, 26, 120, 195, 190, 117, 195, 120, 3, 0.37713
295, 2, bw, attraction, a-b-db, 5, 3, 1, 27, 195, 120, 120, 195, 117, 190, 2, 1.4076
295, 2, bw, attraction, a-b-db, 5, 3, 1, 27, 195, 120, 120, 195, 117, 190, 3, 0.421824
295, 2, bw, attraction, a-b-da, 2, 2, 1, 28, 90, 165, 165, 90, 163, 89, 1, 0.506893
295, 2, bw, attraction, a-b-da, 2, 2, 1, 28, 90, 165, 165, 90, 163, 89, 2, 0.285382
295, 2, bw, attraction, a-b-da, 2, 1, 1, 29, 134, 59, 135, 60, 60, 135, 1, 0.455908
295, 2, bw, attraction, a-b-da, 2, 1, 1, 29, 134, 59, 135, 60, 60, 135, 2, 0.364429
295, 2, bw, filler, NA, 999, 999, 1, 30, 90, 110, 168, 122, 193, 146, 3, 0.467714
295, 2, bw, filler, NA, 999, 999, 1, 30, 90, 110, 168, 122, 193, 146, 1, 0.384085
295, 2, bw, filler, NA, 999, 999, 1, 31, 166, 156, 176, 120, 130, 100, 1, 0.75853
295, 2, bw, filler, NA, 999, 999, 1, 31, 166, 156, 176, 120, 130, 100, 3, 0.406963
295, 2, bw, attraction, a-b-db, 9, 2, 1, 32, 165, 90, 86, 157, 90, 165, 1, 0.700079
295, 2, bw, attraction, a-b-db, 9, 2, 1, 32, 165, 90, 86, 157, 90, 165, 2, 0.623249
295, 2, bw, filler, NA, 999, 999, 1, 33, 99, 124, 138, 183, 194, 63, 2, 0.907572
295, 2, bw, filler, NA, 999, 999, 1, 33, 99, 124, 138, 183, 194, 63, 1, 0.645961
295, 2, bw, attraction, a-b-db, 2, 3, 1, 34, 195, 120, 119, 193, 120, 195, 3, 1.40176
295, 2, bw, attraction, a-b-db, 2, 3, 1, 34, 195, 120, 119, 193, 120, 195, 2, 0.712646
295, 2, bw, attraction, a-b-db, 14, 3, 1, 35, 111, 181, 195, 120, 120, 195, 3, 0.897701
295, 2, bw, attraction, a-b-db, 14, 3, 1, 35, 111, 181, 195, 120, 120, 195, 1, 0.316676
295, 2, bw, attraction, a-b-db, 9, 3, 1, 36, 195, 120, 120, 195, 114, 186, 3, 1.11786
295, 2, bw, attraction, a-b-db, 9, 3, 1, 36, 195, 120, 120, 195, 114, 186, 1, 0.424175
295, 2, bw, attraction, a-b-da, 9, 3, 1, 37, 120, 195, 186, 114, 195, 120, 1, 1.05259
295, 2, bw, attraction, a-b-da, 9, 3, 1, 37, 120, 195, 186, 114, 195, 120, 3, 0.313578
295, 2, bw, attraction, a-b-da, 2, 3, 2, 1, 193, 119, 195, 120, 120, 195, 1, 0.890854
295, 2, bw, attraction, a-b-da, 2, 3, 2, 1, 193, 119, 195, 120, 120, 195, 3, 0.317909
295, 2, bw, attraction, a-b-da, 2, 2, 2, 2, 90, 165, 163, 89, 165, 90, 1, 0.67113
295, 2, bw, attraction, a-b-da, 2, 2, 2, 2, 90, 165, 163, 89, 165, 90, 3, 0.298782
295, 2, bw, attraction, a-b-da, 9, 1, 2, 3, 135, 60, 129, 57, 60, 135, 3, 0.796606
295, 2, bw, attraction, a-b-da, 9, 1, 2, 3, 135, 60, 129, 57, 60, 135, 1, 0.491609
295, 2, bw, attraction, a-b-da, 9, 2, 2, 4, 165, 90, 90, 165, 157, 86, 2, 0.677483
295, 2, bw, attraction, a-b-da, 9, 2, 2, 4, 165, 90, 90, 165, 157, 86, 3, 0.364944
295, 2, bw, filler, NA, 999, 999, 2, 5, 163, 118, 193, 136, 64, 137, 2, 0.408333
295, 2, bw, filler, NA, 999, 999, 2, 5, 163, 118, 193, 136, 64, 137, 3, 0.574843
295, 2, bw, attraction, a-b-db, 9, 3, 2, 6, 114, 186, 120, 195, 195, 120, 2, 0.365372
295, 2, bw, attraction, a-b-db, 9, 3, 2, 6, 114, 186, 120, 195, 195, 120, 3, 0.381858
295, 2, bw, filler, NA, 999, 999, 2, 7, 108, 133, 139, 172, 87, 152, 1, 0.580299
295, 2, bw, filler, NA, 999, 999, 2, 7, 108, 133, 139, 172, 87, 152, 2, 0.28407
295, 2, bw, catch, NA, 999, 999, 2, 8, 139, 116, 70, 125, 127, 188, 1, 0.230587
295, 2, bw, catch, NA, 999, 999, 2, 8, 139, 116, 70, 125, 127, 188, 2, 0.324677
295, 2, bw, attraction, a-b-db, 14, 1, 2, 9, 135, 60, 56, 125, 60, 135, 1, 0.637024
295, 2, bw, attraction, a-b-db, 14, 1, 2, 9, 135, 60, 56, 125, 60, 135, 2, 0.394222
295, 2, bw, filler, NA, 999, 999, 2, 10, 125, 179, 133, 91, 150, 110, 1, 0.431986
295, 2, bw, filler, NA, 999, 999, 2, 10, 125, 179, 133, 91, 150, 110, 2, 0.437745
295, 2, bw, attraction, a-b-da, 14, 3, 2, 11, 181, 111, 195, 120, 120, 195, 1, 0.482211
295, 2, bw, attraction, a-b-da, 14, 3, 2, 11, 181, 111, 195, 120, 120, 195, 2, 0.318208
295, 2, bw, attraction, a-b-da, 5, 1, 2, 12, 135, 60, 132, 58, 60, 135, 1, 0.367215
295, 2, bw, attraction, a-b-da, 5, 1, 2, 12, 135, 60, 132, 58, 60, 135, 3, 0.647856
295, 2, bw, attraction, a-b-db, 2, 1, 2, 13, 60, 135, 59, 134, 135, 60, 1, 0.483744
295, 2, bw, attraction, a-b-db, 2, 1, 2, 13, 60, 135, 59, 134, 135, 60, 2, 0.415421
295, 2, bw, filler, NA, 999, 999, 2, 14, 60, 185, 58, 178, 157, 78, 2, 0.428466
295, 2, bw, filler, NA, 999, 999, 2, 14, 60, 185, 58, 178, 157, 78, 3, 0.45031
295, 2, bw, attraction, a-b-db, 14, 2, 2, 15, 165, 90, 83, 153, 90, 165, 2, 0.294102
295, 2, bw, attraction, a-b-db, 14, 2, 2, 15, 165, 90, 83, 153, 90, 165, 3, 0.353358
295, 2, bw, attraction, a-b-db, 2, 2, 2, 16, 89, 163, 90, 165, 165, 90, 2, 0.233265
295, 2, bw, attraction, a-b-db, 2, 2, 2, 16, 89, 163, 90, 165, 165, 90, 3, 0.319036
295, 2, bw, attraction, a-b-da, 2, 1, 2, 17, 60, 135, 135, 60, 134, 59, 2, 0.544274
295, 2, bw, attraction, a-b-da, 2, 1, 2, 17, 60, 135, 135, 60, 134, 59, 3, 0.305452
295, 2, bw, attraction, a-b-da, 9, 3, 2, 18, 195, 120, 186, 114, 120, 195, 3, 0.667292
295, 2, bw, attraction, a-b-da, 9, 3, 2, 18, 195, 120, 186, 114, 120, 195, 2, 0.311751
295, 2, bw, attraction, a-b-db, 5, 3, 2, 19, 120, 195, 117, 190, 195, 120, 3, 0.312823
295, 2, bw, attraction, a-b-db, 5, 3, 2, 19, 120, 195, 117, 190, 195, 120, 2, 0.355402
295, 2, bw, filler, NA, 999, 999, 2, 20, 174, 153, 104, 147, 163, 93, 1, 0.651257
295, 2, bw, filler, NA, 999, 999, 2, 20, 174, 153, 104, 147, 163, 93, 3, 0.408484
295, 2, bw, attraction, a-b-db, 9, 2, 2, 21, 86, 157, 90, 165, 165, 90, 2, 1.33352
295, 2, bw, attraction, a-b-db, 9, 2, 2, 21, 86, 157, 90, 165, 165, 90, 1, 0.263085
295, 2, bw, filler, NA, 999, 999, 2, 22, 122, 177, 58, 149, 175, 194, 3, 0.434322
295, 2, bw, filler, NA, 999, 999, 2, 22, 122, 177, 58, 149, 175, 194, 2, 0.360043
295, 2, bw, filler, NA, 999, 999, 2, 23, 142, 158, 94, 168, 147, 112, 1, 0.471199
295, 2, bw, filler, NA, 999, 999, 2, 23, 142, 158, 94, 168, 147, 112, 2, 0.387062
295, 2, bw, filler, NA, 999, 999, 2, 24, 116, 180, 86, 195, 62, 165, 1, 0.257479
295, 2, bw, filler, NA, 999, 999, 2, 24, 116, 180, 86, 195, 62, 165, 2, 0.286116
295, 2, bw, attraction, a-b-db, 5, 1, 2, 25, 58, 132, 135, 60, 60, 135, 1, 0.695359
295, 2, bw, attraction, a-b-db, 5, 1, 2, 25, 58, 132, 135, 60, 60, 135, 2, 0.483749
295, 2, bw, attraction, a-b-da, 14, 1, 2, 26, 135, 60, 60, 135, 125, 56, 2, 2.91025
295, 2, bw, attraction, a-b-da, 14, 1, 2, 26, 135, 60, 60, 135, 125, 56, 3, 0.13302
295, 2, bw, attraction, a-b-da, 5, 3, 2, 27, 195, 120, 190, 117, 120, 195, 1, 0.552436
295, 2, bw, attraction, a-b-da, 5, 3, 2, 27, 195, 120, 190, 117, 120, 195, 2, 0.369673
295, 2, bw, catch, NA, 999, 999, 2, 28, 165, 150, 113, 82, 121, 134, 1, 0.304734
295, 2, bw, catch, NA, 999, 999, 2, 28, 165, 150, 113, 82, 121, 134, 2, 0.3313
295, 2, bw, catch, NA, 999, 999, 2, 29, 144, 171, 122, 133, 131, 64, 1, 0.40387
295, 2, bw, catch, NA, 999, 999, 2, 29, 144, 171, 122, 133, 131, 64, 2, 0.266327
295, 2, bw, filler, NA, 999, 999, 2, 30, 110, 99, 147, 132, 82, 187, 2, 0.653507
295, 2, bw, filler, NA, 999, 999, 2, 30, 110, 99, 147, 132, 82, 187, 1, 0.489933
295, 2, bw, attraction, a-b-db, 2, 3, 2, 31, 195, 120, 119, 193, 120, 195, 1, 1.17969
295, 2, bw, attraction, a-b-db, 2, 3, 2, 31, 195, 120, 119, 193, 120, 195, 3, 0.299338
295, 2, bw, attraction, a-b-da, 14, 2, 2, 32, 165, 90, 90, 165, 153, 83, 2, 0.637185
295, 2, bw, attraction, a-b-da, 14, 2, 2, 32, 165, 90, 90, 165, 153, 83, 3, 0.0953043
295, 2, bw, attraction, a-b-db, 14, 3, 2, 33, 111, 181, 120, 195, 195, 120, 2, 0.50813
295, 2, bw, attraction, a-b-db, 14, 3, 2, 33, 111, 181, 120, 195, 195, 120, 3, 0.318758
295, 2, bw, filler, NA, 999, 999, 2, 34, 61, 71, 180, 173, 147, 168, 2, 0.519924
295, 2, bw, filler, NA, 999, 999, 2, 34, 61, 71, 180, 173, 147, 168, 1, 0.418334
295, 2, bw, attraction, a-b-db, 9, 1, 2, 35, 135, 60, 60, 135, 57, 129, 1, 0.863432
295, 2, bw, attraction, a-b-db, 9, 1, 2, 35, 135, 60, 60, 135, 57, 129, 2, 0.283839
295, 2, bw, attraction, a-b-da, 5, 2, 2, 36, 90, 165, 161, 88, 165, 90, 3, 0.702462
295, 2, bw, attraction, a-b-da, 5, 2, 2, 36, 90, 165, 161, 88, 165, 90, 1, 0.505424
295, 2, bw, attraction, a-b-db, 5, 2, 2, 37, 165, 90, 90, 165, 88, 161, 1, 0.571246
295, 2, bw, attraction, a-b-db, 5, 2, 2, 37, 165, 90, 90, 165, 88, 161, 2, 0.235202
295, 2, bw, attraction, a-b-da, 5, 2, 3, 1, 90, 165, 165, 90, 161, 88, 2, 0.575571
295, 2, bw, attraction, a-b-da, 5, 2, 3, 1, 90, 165, 165, 90, 161, 88, 1, 0.591283
295, 2, bw, catch, NA, 999, 999, 3, 2, 162, 153, 104, 91, 134, 121, 1, 0.701038
295, 2, bw, catch, NA, 999, 999, 3, 2, 162, 153, 104, 91, 134, 121, 2, 0.296187
295, 2, bw, attraction, a-b-da, 14, 2, 3, 3, 90, 165, 153, 83, 165, 90, 3, 0.650172
295, 2, bw, attraction, a-b-da, 14, 2, 3, 3, 90, 165, 153, 83, 165, 90, 1, 0.327248
295, 2, bw, attraction, a-b-db, 5, 1, 3, 4, 60, 135, 58, 132, 135, 60, 1, 0.575649
295, 2, bw, attraction, a-b-db, 5, 1, 3, 4, 60, 135, 58, 132, 135, 60, 2, 0.38423
295, 2, bw, attraction, a-b-db, 2, 3, 3, 5, 119, 193, 195, 120, 120, 195, 1, 0.381952
295, 2, bw, attraction, a-b-db, 2, 3, 3, 5, 119, 193, 195, 120, 120, 195, 2, 0.26982
295, 2, bw, attraction, a-b-db, 14, 1, 3, 6, 60, 135, 135, 60, 56, 125, 1, 0.632974
295, 2, bw, attraction, a-b-db, 14, 1, 3, 6, 60, 135, 135, 60, 56, 125, 2, 0.334817
295, 2, bw, attraction, a-b-da, 9, 2, 3, 7, 157, 86, 165, 90, 90, 165, 1, 0.423352
295, 2, bw, attraction, a-b-da, 9, 2, 3, 7, 157, 86, 165, 90, 90, 165, 2, 0.581083
295, 2, bw, filler, NA, 999, 999, 3, 8, 191, 140, 169, 109, 159, 158, 1, 0.475545
295, 2, bw, filler, NA, 999, 999, 3, 8, 191, 140, 169, 109, 159, 158, 3, 0.4954
295, 2, bw, attraction, a-b-da, 5, 1, 3, 9, 135, 60, 60, 135, 132, 58, 1, 0.537159
295, 2, bw, attraction, a-b-da, 5, 1, 3, 9, 135, 60, 60, 135, 132, 58, 2, 0.546986
295, 2, bw, filler, NA, 999, 999, 3, 10, 146, 127, 97, 131, 148, 138, 1, 0.21874
295, 2, bw, filler, NA, 999, 999, 3, 10, 146, 127, 97, 131, 148, 138, 2, 0.345381
295, 2, bw, filler, NA, 999, 999, 3, 11, 91, 80, 79, 152, 186, 94, 1, 0.401279
295, 2, bw, filler, NA, 999, 999, 3, 11, 91, 80, 79, 152, 186, 94, 2, 0.336379
295, 2, bw, filler, NA, 999, 999, 3, 12, 148, 92, 140, 160, 172, 57, 1, 0.232916
295, 2, bw, filler, NA, 999, 999, 3, 12, 148, 92, 140, 160, 172, 57, 2, 0.326851
295, 2, bw, attraction, a-b-db, 14, 2, 3, 13, 165, 90, 90, 165, 83, 153, 1, 0.215241
295, 2, bw, attraction, a-b-db, 14, 2, 3, 13, 165, 90, 90, 165, 83, 153, 2, 0.309786
295, 2, bw, attraction, a-b-db, 14, 3, 3, 14, 195, 120, 120, 195, 111, 181, 2, 0.967049
295, 2, bw, attraction, a-b-db, 14, 3, 3, 14, 195, 120, 120, 195, 111, 181, 3, 0.239334
295, 2, bw, catch, NA, 999, 999, 3, 15, 122, 133, 84, 111, 182, 133, 2, 0.211248
295, 2, bw, catch, NA, 999, 999, 3, 15, 122, 133, 84, 111, 182, 133, 3, 0.289787
295, 2, bw, attraction, a-b-da, 2, 3, 3, 16, 120, 195, 195, 120, 193, 119, 2, 0.187651
295, 2, bw, attraction, a-b-da, 2, 3, 3, 16, 120, 195, 195, 120, 193, 119, 3, 0.778975
295, 2, bw, attraction, a-b-da, 9, 3, 3, 17, 186, 114, 120, 195, 195, 120, 2, 0.537197
295, 2, bw, attraction, a-b-da, 9, 3, 3, 17, 186, 114, 120, 195, 195, 120, 3, 0.426429
295, 2, bw, attraction, a-b-db, 2, 1, 3, 18, 60, 135, 59, 134, 135, 60, 2, 0.254875
295, 2, bw, attraction, a-b-db, 2, 1, 3, 18, 60, 135, 59, 134, 135, 60, 3, 0.403342
295, 2, bw, filler, NA, 999, 999, 3, 19, 129, 102, 133, 81, 107, 193, 2, 0.326534
295, 2, bw, filler, NA, 999, 999, 3, 19, 129, 102, 133, 81, 107, 193, 3, 0.667098
295, 2, bw, filler, NA, 999, 999, 3, 20, 89, 176, 154, 145, 98, 76, 2, 0.318149
295, 2, bw, filler, NA, 999, 999, 3, 20, 89, 176, 154, 145, 98, 76, 3, 0.632693
295, 2, bw, attraction, a-b-da, 2, 1, 3, 21, 135, 60, 60, 135, 134, 59, 2, 0.413067
295, 2, bw, attraction, a-b-da, 2, 1, 3, 21, 135, 60, 60, 135, 134, 59, 3, 0.403706
295, 2, bw, attraction, a-b-da, 5, 3, 3, 22, 120, 195, 190, 117, 195, 120, 2, 0.7134
295, 2, bw, attraction, a-b-da, 5, 3, 3, 22, 120, 195, 190, 117, 195, 120, 3, 0.243804
295, 2, bw, attraction, a-b-db, 5, 2, 3, 23, 90, 165, 165, 90, 88, 161, 2, 0.76787
295, 2, bw, attraction, a-b-db, 5, 2, 3, 23, 90, 165, 165, 90, 88, 161, 3, 0.712063
295, 2, bw, attraction, a-b-db, 9, 1, 3, 24, 60, 135, 135, 60, 57, 129, 2, 0.761247
295, 2, bw, attraction, a-b-db, 9, 1, 3, 24, 60, 135, 135, 60, 57, 129, 1, 0.681585
295, 2, bw, attraction, a-b-db, 2, 2, 3, 25, 89, 163, 90, 165, 165, 90, 2, 0.499985
295, 2, bw, attraction, a-b-db, 2, 2, 3, 25, 89, 163, 90, 165, 165, 90, 3, 0.327236
295, 2, bw, filler, NA, 999, 999, 3, 26, 164, 129, 75, 109, 81, 181, 2, 0.303581
295, 2, bw, filler, NA, 999, 999, 3, 26, 164, 129, 75, 109, 81, 181, 3, 0.282136
295, 2, bw, filler, NA, 999, 999, 3, 27, 67, 106, 175, 65, 168, 168, 2, 0.420633
295, 2, bw, filler, NA, 999, 999, 3, 27, 67, 106, 175, 65, 168, 168, 3, 0.258515
295, 2, bw, catch, NA, 999, 999, 3, 28, 80, 115, 133, 182, 130, 125, 2, 0.2937
295, 2, bw, catch, NA, 999, 999, 3, 28, 80, 115, 133, 182, 130, 125, 3, 0.624909
295, 2, bw, filler, NA, 999, 999, 3, 29, 183, 194, 99, 91, 142, 143, 2, 0.597304
295, 2, bw, filler, NA, 999, 999, 3, 29, 183, 194, 99, 91, 142, 143, 3, 0.396455
295, 2, bw, attraction, a-b-da, 2, 2, 3, 30, 90, 165, 165, 90, 163, 89, 2, 0.418211
295, 2, bw, attraction, a-b-da, 2, 2, 3, 30, 90, 165, 165, 90, 163, 89, 3, 0.280738
295, 2, bw, attraction, a-b-db, 9, 2, 3, 31, 90, 165, 86, 157, 165, 90, 2, 0.499246
295, 2, bw, attraction, a-b-db, 9, 2, 3, 31, 90, 165, 86, 157, 165, 90, 3, 0.47854
295, 2, bw, attraction, a-b-db, 5, 3, 3, 32, 195, 120, 120, 195, 117, 190, 2, 0.312968
295, 2, bw, attraction, a-b-db, 5, 3, 3, 32, 195, 120, 120, 195, 117, 190, 3, 0.707566
295, 2, bw, attraction, a-b-da, 14, 3, 3, 33, 120, 195, 195, 120, 181, 111, 2, 0.380464
295, 2, bw, attraction, a-b-da, 14, 3, 3, 33, 120, 195, 195, 120, 181, 111, 3, 0.324361
295, 2, bw, filler, NA, 999, 999, 3, 34, 183, 105, 160, 157, 169, 83, 2, 0.196831
295, 2, bw, filler, NA, 999, 999, 3, 34, 183, 105, 160, 157, 169, 83, 1, 0.484193
295, 2, bw, attraction, a-b-db, 9, 3, 3, 35, 195, 120, 114, 186, 120, 195, 2, 0.582518
295, 2, bw, attraction, a-b-db, 9, 3, 3, 35, 195, 120, 114, 186, 120, 195, 3, 0.30235
295, 2, bw, attraction, a-b-da, 14, 1, 3, 36, 60, 135, 135, 60, 125, 56, 2, 0.280148
295, 2, bw, attraction, a-b-da, 14, 1, 3, 36, 60, 135, 135, 60, 125, 56, 3, 0.636161
295, 2, bw, attraction, a-b-da, 9, 1, 3, 37, 135, 60, 60, 135, 129, 57, 2, 0.65649
295, 2, bw, attraction, a-b-da, 9, 1, 3, 37, 135, 60, 60, 135, 129, 57, 3, 0.452947
295, 2, bw, filler, NA, 999, 999, 4, 1, 176, 182, 133, 158, 91, 61, 2, 0.344723
295, 2, bw, filler, NA, 999, 999, 4, 1, 176, 182, 133, 158, 91, 61, 1, 0.465959
295, 2, bw, filler, NA, 999, 999, 4, 2, 111, 89, 80, 100, 139, 121, 3, 0.629097
295, 2, bw, filler, NA, 999, 999, 4, 2, 111, 89, 80, 100, 139, 121, 2, 0.850811
295, 2, bw, filler, NA, 999, 999, 4, 3, 165, 72, 172, 68, 191, 167, 3, 0.382449
295, 2, bw, filler, NA, 999, 999, 4, 3, 165, 72, 172, 68, 191, 167, 2, 0.558346
295, 2, bw, attraction, a-b-da, 9, 3, 4, 4, 186, 114, 195, 120, 120, 195, 2, 1.10947
295, 2, bw, attraction, a-b-da, 9, 3, 4, 4, 186, 114, 195, 120, 120, 195, 3, 0.343865
295, 2, bw, attraction, a-b-db, 14, 1, 4, 5, 60, 135, 135, 60, 56, 125, 2, 0.519711
295, 2, bw, attraction, a-b-db, 14, 1, 4, 5, 60, 135, 135, 60, 56, 125, 1, 0.506113
295, 2, bw, filler, NA, 999, 999, 4, 6, 154, 165, 138, 121, 75, 62, 1, 0.603153
295, 2, bw, filler, NA, 999, 999, 4, 6, 154, 165, 138, 121, 75, 62, 3, 0.41836
295, 2, bw, attraction, a-b-db, 9, 1, 4, 7, 135, 60, 57, 129, 60, 135, 3, 0.607492
295, 2, bw, attraction, a-b-db, 9, 1, 4, 7, 135, 60, 57, 129, 60, 135, 2, 0.533953
295, 2, bw, filler, NA, 999, 999, 4, 8, 144, 161, 94, 85, 158, 163, 3, 0.998297
295, 2, bw, filler, NA, 999, 999, 4, 8, 144, 161, 94, 85, 158, 163, 2, 0.429313
295, 2, bw, attraction, a-b-db, 2, 2, 4, 9, 165, 90, 89, 163, 90, 165, 2, 0.729799
295, 2, bw, attraction, a-b-db, 2, 2, 4, 9, 165, 90, 89, 163, 90, 165, 3, 0.243581
295, 2, bw, attraction, a-b-db, 2, 1, 4, 10, 135, 60, 60, 135, 59, 134, 2, 0.959465
295, 2, bw, attraction, a-b-db, 2, 1, 4, 10, 135, 60, 60, 135, 59, 134, 3, 0.295859
295, 2, bw, filler, NA, 999, 999, 4, 11, 96, 60, 104, 102, 62, 188, 2, 1.96961
295, 2, bw, filler, NA, 999, 999, 4, 11, 96, 60, 104, 102, 62, 188, 1, 0.625695
295, 2, bw, filler, NA, 999, 999, 4, 12, 57, 194, 166, 84, 125, 175, 3, 0.5661
295, 2, bw, filler, NA, 999, 999, 4, 12, 57, 194, 166, 84, 125, 175, 1, 0.438478
295, 2, bw, attraction, a-b-da, 2, 1, 4, 13, 135, 60, 134, 59, 60, 135, 1, 0.658938
295, 2, bw, attraction, a-b-da, 2, 1, 4, 13, 135, 60, 134, 59, 60, 135, 2, 0.543518
295, 2, bw, attraction, a-b-da, 9, 2, 4, 14, 165, 90, 157, 86, 90, 165, 1, 0.48719
295, 2, bw, attraction, a-b-da, 9, 2, 4, 14, 165, 90, 157, 86, 90, 165, 2, 0.282589
295, 2, bw, attraction, a-b-db, 5, 2, 4, 15, 165, 90, 90, 165, 88, 161, 1, 0.356912
295, 2, bw, attraction, a-b-db, 5, 2, 4, 15, 165, 90, 90, 165, 88, 161, 2, 0.317534
295, 2, bw, attraction, a-b-da, 2, 2, 4, 16, 163, 89, 90, 165, 165, 90, 1, 0.406549
295, 2, bw, attraction, a-b-da, 2, 2, 4, 16, 163, 89, 90, 165, 165, 90, 2, 0.269091
295, 2, bw, catch, NA, 999, 999, 4, 17, 87, 108, 125, 130, 167, 148, 3, 0.608264
295, 2, bw, catch, NA, 999, 999, 4, 17, 87, 108, 125, 130, 167, 148, 2, 0.270755
295, 2, bw, catch, NA, 999, 999, 4, 18, 102, 153, 103, 92, 147, 168, 3, 0.457937
295, 2, bw, catch, NA, 999, 999, 4, 18, 102, 153, 103, 92, 147, 168, 2, 0.394557
295, 2, bw, attraction, a-b-da, 9, 1, 4, 19, 60, 135, 135, 60, 129, 57, 3, 0.54821
295, 2, bw, attraction, a-b-da, 9, 1, 4, 19, 60, 135, 135, 60, 129, 57, 2, 0.341348
295, 2, bw, attraction, a-b-db, 9, 3, 4, 20, 114, 186, 120, 195, 195, 120, 2, 1.03716
295, 2, bw, attraction, a-b-db, 9, 3, 4, 20, 114, 186, 120, 195, 195, 120, 3, 0.394139
295, 2, bw, attraction, a-b-db, 14, 2, 4, 21, 165, 90, 83, 153, 90, 165, 2, 0.919954
295, 2, bw, attraction, a-b-db, 14, 2, 4, 21, 165, 90, 83, 153, 90, 165, 1, 0.20157
295, 2, bw, catch, NA, 999, 999, 4, 22, 73, 122, 144, 111, 128, 187, 3, 0.687557
295, 2, bw, catch, NA, 999, 999, 4, 22, 73, 122, 144, 111, 128, 187, 2, 0.274775
295, 2, bw, attraction, a-b-da, 14, 3, 4, 23, 195, 120, 181, 111, 120, 195, 1, 0.629134
295, 2, bw, attraction, a-b-da, 14, 3, 4, 23, 195, 120, 181, 111, 120, 195, 2, 0.258977
295, 2, bw, filler, NA, 999, 999, 4, 24, 64, 174, 167, 191, 142, 57, 2, 0.454195
295, 2, bw, filler, NA, 999, 999, 4, 24, 64, 174, 167, 191, 142, 57, 3, 0.450679
295, 2, bw, filler, NA, 999, 999, 4, 25, 157, 76, 86, 63, 67, 194, 3, 0.87047
295, 2, bw, filler, NA, 999, 999, 4, 25, 157, 76, 86, 63, 67, 194, 2, 0.554761
295, 2, bw, attraction, a-b-da, 5, 2, 4, 26, 161, 88, 90, 165, 165, 90, 3, 0.810579
295, 2, bw, attraction, a-b-da, 5, 2, 4, 26, 161, 88, 90, 165, 165, 90, 2, 0.288912
295, 2, bw, attraction, a-b-da, 5, 1, 4, 27, 60, 135, 135, 60, 132, 58, 2, 0.427494
295, 2, bw, attraction, a-b-da, 5, 1, 4, 27, 60, 135, 135, 60, 132, 58, 3, 0.289479
295, 2, bw, attraction, a-b-da, 14, 2, 4, 28, 165, 90, 153, 83, 90, 165, 2, 0.331118
295, 2, bw, attraction, a-b-da, 14, 2, 4, 28, 165, 90, 153, 83, 90, 165, 3, 0.261097
295, 2, bw, attraction, a-b-db, 14, 3, 4, 29, 195, 120, 120, 195, 111, 181, 2, 0.352216
295, 2, bw, attraction, a-b-db, 14, 3, 4, 29, 195, 120, 120, 195, 111, 181, 3, 0.329424
295, 2, bw, attraction, a-b-db, 5, 1, 4, 30, 58, 132, 135, 60, 60, 135, 2, 0.670016
295, 2, bw, attraction, a-b-db, 5, 1, 4, 30, 58, 132, 135, 60, 60, 135, 3, 0.269629
295, 2, bw, attraction, a-b-da, 14, 1, 4, 31, 125, 56, 135, 60, 60, 135, 2, 0.320854
295, 2, bw, attraction, a-b-da, 14, 1, 4, 31, 125, 56, 135, 60, 60, 135, 3, 0.30684
295, 2, bw, attraction, a-b-da, 2, 3, 4, 32, 193, 119, 120, 195, 195, 120, 2, 0.419957
295, 2, bw, attraction, a-b-da, 2, 3, 4, 32, 193, 119, 120, 195, 195, 120, 3, 0.330447
295, 2, bw, attraction, a-b-db, 2, 3, 4, 33, 119, 193, 195, 120, 120, 195, 2, 0.386975
295, 2, bw, attraction, a-b-db, 2, 3, 4, 33, 119, 193, 195, 120, 120, 195, 3, 0.242082
295, 2, bw, filler, NA, 999, 999, 4, 34, 142, 139, 96, 143, 180, 104, 2, 0.229999
295, 2, bw, filler, NA, 999, 999, 4, 34, 142, 139, 96, 143, 180, 104, 3, 0.275863
295, 2, bw, attraction, a-b-db, 5, 3, 4, 35, 195, 120, 117, 190, 120, 195, 1, 0.630409
295, 2, bw, attraction, a-b-db, 5, 3, 4, 35, 195, 120, 117, 190, 120, 195, 2, 0.284176
295, 2, bw, attraction, a-b-da, 5, 3, 4, 36, 195, 120, 120, 195, 190, 117, 1, 0.454712
295, 2, bw, attraction, a-b-da, 5, 3, 4, 36, 195, 120, 120, 195, 190, 117, 2, 0.291138
295, 2, bw, attraction, a-b-db, 9, 2, 4, 37, 165, 90, 90, 165, 86, 157, 1, 0.973032
295, 2, bw, attraction, a-b-db, 9, 2, 4, 37, 165, 90, 90, 165, 86, 157, 2, 0.392971
295, 2, bw, attraction, a-b-da, 5, 3, 5, 1, 120, 195, 190, 117, 195, 120, 1, 1.84133
295, 2, bw, attraction, a-b-da, 5, 3, 5, 1, 120, 195, 190, 117, 195, 120, 2, 0.342083
295, 2, bw, filler, NA, 999, 999, 5, 2, 92, 183, 69, 102, 80, 126, 1, 0.349659
295, 2, bw, filler, NA, 999, 999, 5, 2, 92, 183, 69, 102, 80, 126, 2, 0.382037
295, 2, bw, filler, NA, 999, 999, 5, 3, 87, 194, 195, 100, 130, 91, 1, 0.957461
295, 2, bw, filler, NA, 999, 999, 5, 3, 87, 194, 195, 100, 130, 91, 2, 0.405049
295, 2, bw, filler, NA, 999, 999, 5, 4, 169, 88, 129, 106, 65, 134, 1, 0.363549
295, 2, bw, filler, NA, 999, 999, 5, 4, 169, 88, 129, 106, 65, 134, 2, 0.684103
295, 2, bw, attraction, a-b-da, 2, 1, 5, 5, 60, 135, 135, 60, 134, 59, 1, 0.542508
295, 2, bw, attraction, a-b-da, 2, 1, 5, 5, 60, 135, 135, 60, 134, 59, 2, 0.319619
295, 2, bw, attraction, a-b-db, 9, 2, 5, 6, 86, 157, 165, 90, 90, 165, 1, 0.304769
295, 2, bw, attraction, a-b-db, 9, 2, 5, 6, 86, 157, 165, 90, 90, 165, 2, 0.291267
295, 2, bw, filler, NA, 999, 999, 5, 7, 160, 113, 195, 95, 118, 67, 1, 0.413158
295, 2, bw, filler, NA, 999, 999, 5, 7, 160, 113, 195, 95, 118, 67, 2, 0.563682
295, 2, bw, attraction, a-b-db, 2, 1, 5, 8, 60, 135, 135, 60, 59, 134, 1, 0.458766
295, 2, bw, attraction, a-b-db, 2, 1, 5, 8, 60, 135, 135, 60, 59, 134, 2, 0.511304
295, 2, bw, filler, NA, 999, 999, 5, 9, 158, 158, 146, 152, 166, 191, 1, 0.344456
295, 2, bw, filler, NA, 999, 999, 5, 9, 158, 158, 146, 152, 166, 191, 2, 0.273613
295, 2, bw, attraction, a-b-da, 9, 1, 5, 10, 135, 60, 60, 135, 129, 57, 1, 0.516191
295, 2, bw, attraction, a-b-da, 9, 1, 5, 10, 135, 60, 60, 135, 129, 57, 2, 0.574591
295, 2, bw, filler, NA, 999, 999, 5, 11, 173, 153, 165, 195, 178, 112, 1, 0.43694
295, 2, bw, filler, NA, 999, 999, 5, 11, 173, 153, 165, 195, 178, 112, 2, 0.242383
295, 2, bw, attraction, a-b-da, 14, 2, 5, 12, 153, 83, 165, 90, 90, 165, 1, 0.317971
295, 2, bw, attraction, a-b-da, 14, 2, 5, 12, 153, 83, 165, 90, 90, 165, 2, 0.640598
295, 2, bw, attraction, a-b-da, 14, 1, 5, 13, 125, 56, 60, 135, 135, 60, 1, 0.460308
295, 2, bw, attraction, a-b-da, 14, 1, 5, 13, 125, 56, 60, 135, 135, 60, 2, 0.280982
295, 2, bw, catch, NA, 999, 999, 5, 14, 139, 176, 147, 108, 94, 101, 1, 0.323322
295, 2, bw, catch, NA, 999, 999, 5, 14, 139, 176, 147, 108, 94, 101, 2, 0.565226
295, 2, bw, filler, NA, 999, 999, 5, 15, 180, 87, 117, 67, 173, 88, 1, 0.308285
295, 2, bw, filler, NA, 999, 999, 5, 15, 180, 87, 117, 67, 173, 88, 2, 0.614891
295, 2, bw, attraction, a-b-db, 14, 1, 5, 16, 135, 60, 60, 135, 56, 125, 1, 0.651917
295, 2, bw, attraction, a-b-db, 14, 1, 5, 16, 135, 60, 60, 135, 56, 125, 2, 0.289032
295, 2, bw, attraction, a-b-db, 5, 3, 5, 17, 117, 190, 195, 120, 120, 195, 2, 0.611606
295, 2, bw, attraction, a-b-db, 5, 3, 5, 17, 117, 190, 195, 120, 120, 195, 1, 0.258174
295, 2, bw, catch, NA, 999, 999, 5, 18, 175, 140, 74, 121, 93, 162, 1, 0.719592
295, 2, bw, catch, NA, 999, 999, 5, 18, 175, 140, 74, 121, 93, 162, 2, 0.510995
295, 2, bw, attraction, a-b-db, 9, 1, 5, 19, 60, 135, 57, 129, 135, 60, 2, 0.456151
295, 2, bw, attraction, a-b-db, 9, 1, 5, 19, 60, 135, 57, 129, 135, 60, 3, 0.466432
295, 2, bw, attraction, a-b-db, 5, 1, 5, 20, 58, 132, 60, 135, 135, 60, 2, 0.407731
295, 2, bw, attraction, a-b-db, 5, 1, 5, 20, 58, 132, 60, 135, 135, 60, 3, 0.51023
295, 2, bw, filler, NA, 999, 999, 5, 21, 127, 193, 107, 157, 169, 91, 1, 0.943274
295, 2, bw, filler, NA, 999, 999, 5, 21, 127, 193, 107, 157, 169, 91, 2, 0.27229
295, 2, bw, attraction, a-b-db, 2, 2, 5, 22, 89, 163, 90, 165, 165, 90, 2, 0.507492
295, 2, bw, attraction, a-b-db, 2, 2, 5, 22, 89, 163, 90, 165, 165, 90, 3, 0.302003
295, 2, bw, attraction, a-b-da, 9, 3, 5, 23, 120, 195, 195, 120, 186, 114, 2, 0.503821
295, 2, bw, attraction, a-b-da, 9, 3, 5, 23, 120, 195, 195, 120, 186, 114, 1, 0.730324
295, 2, bw, catch, NA, 999, 999, 5, 24, 132, 63, 108, 147, 190, 125, 3, 0.626687
295, 2, bw, catch, NA, 999, 999, 5, 24, 132, 63, 108, 147, 190, 125, 1, 0.744498
295, 2, bw, attraction, a-b-da, 5, 1, 5, 25, 60, 135, 135, 60, 132, 58, 3, 0.600167
295, 2, bw, attraction, a-b-da, 5, 1, 5, 25, 60, 135, 135, 60, 132, 58, 1, 0.487317
295, 2, bw, attraction, a-b-da, 9, 2, 5, 26, 157, 86, 90, 165, 165, 90, 3, 0.553947
295, 2, bw, attraction, a-b-da, 9, 2, 5, 26, 157, 86, 90, 165, 165, 90, 2, 0.458236
295, 2, bw, filler, NA, 999, 999, 5, 27, 145, 122, 106, 87, 82, 71, 1, 0.621381
295, 2, bw, filler, NA, 999, 999, 5, 27, 145, 122, 106, 87, 82, 71, 3, 0.459159
295, 2, bw, attraction, a-b-db, 5, 2, 5, 28, 88, 161, 165, 90, 90, 165, 1, 1.00623
295, 2, bw, attraction, a-b-db, 5, 2, 5, 28, 88, 161, 165, 90, 90, 165, 2, 0.500546
295, 2, bw, attraction, a-b-da, 14, 3, 5, 29, 195, 120, 181, 111, 120, 195, 1, 0.406361
295, 2, bw, attraction, a-b-da, 14, 3, 5, 29, 195, 120, 181, 111, 120, 195, 2, 0.260893
295, 2, bw, attraction, a-b-da, 2, 3, 5, 30, 195, 120, 120, 195, 193, 119, 2, 0.880109
295, 2, bw, attraction, a-b-da, 2, 3, 5, 30, 195, 120, 120, 195, 193, 119, 1, 0.603741
295, 2, bw, filler, NA, 999, 999, 5, 31, 107, 68, 159, 191, 145, 189, 2, 0.409505
295, 2, bw, filler, NA, 999, 999, 5, 31, 107, 68, 159, 191, 145, 189, 1, 0.776041
295, 2, bw, attraction, a-b-da, 2, 2, 5, 32, 165, 90, 163, 89, 90, 165, 1, 0.750431
295, 2, bw, attraction, a-b-da, 2, 2, 5, 32, 165, 90, 163, 89, 90, 165, 2, 0.311549
295, 2, bw, attraction, a-b-db, 14, 2, 5, 33, 165, 90, 90, 165, 83, 153, 1, 0.344665
295, 2, bw, attraction, a-b-db, 14, 2, 5, 33, 165, 90, 90, 165, 83, 153, 2, 0.321882
295, 2, bw, attraction, a-b-db, 9, 3, 5, 34, 120, 195, 195, 120, 114, 186, 1, 0.323109
295, 2, bw, attraction, a-b-db, 9, 3, 5, 34, 120, 195, 195, 120, 114, 186, 2, 0.324934
295, 2, bw, attraction, a-b-db, 2, 3, 5, 35, 119, 193, 195, 120, 120, 195, 1, 0.357403
295, 2, bw, attraction, a-b-db, 2, 3, 5, 35, 119, 193, 195, 120, 120, 195, 2, 0.25396
295, 2, bw, attraction, a-b-da, 5, 2, 5, 36, 90, 165, 161, 88, 165, 90, 1, 0.305764
295, 2, bw, attraction, a-b-da, 5, 2, 5, 36, 90, 165, 161, 88, 165, 90, 2, 0.612355
295, 2, bw, attraction, a-b-db, 14, 3, 5, 37, 195, 120, 120, 195, 111, 181, 1, 0.478663
295, 2, bw, attraction, a-b-db, 14, 3, 5, 37, 195, 120, 120, 195, 111, 181, 2, 0.373204
295, 2, bw, attraction, a-b-da, 14, 3, 6, 1, 120, 195, 195, 120, 181, 111, 1, 0.355671
295, 2, bw, attraction, a-b-da, 14, 3, 6, 1, 120, 195, 195, 120, 181, 111, 2, 0.268239
295, 2, bw, filler, NA, 999, 999, 6, 2, 143, 71, 85, 175, 91, 97, 2, 0.999444
295, 2, bw, filler, NA, 999, 999, 6, 2, 143, 71, 85, 175, 91, 97, 1, 0.462536
295, 2, bw, attraction, a-b-da, 14, 1, 6, 3, 135, 60, 60, 135, 125, 56, 1, 0.729588
295, 2, bw, attraction, a-b-da, 14, 1, 6, 3, 135, 60, 60, 135, 125, 56, 2, 0.339358
295, 2, bw, filler, NA, 999, 999, 6, 4, 111, 182, 195, 162, 120, 185, 2, 0.779179
295, 2, bw, filler, NA, 999, 999, 6, 4, 111, 182, 195, 162, 120, 185, 1, 0.378891
295, 2, bw, filler, NA, 999, 999, 6, 5, 121, 66, 127, 155, 107, 169, 2, 0.44939
295, 2, bw, filler, NA, 999, 999, 6, 5, 121, 66, 127, 155, 107, 169, 1, 0.622495
295, 2, bw, filler, NA, 999, 999, 6, 6, 75, 121, 129, 98, 105, 169, 3, 0.411637
295, 2, bw, filler, NA, 999, 999, 6, 6, 75, 121, 129, 98, 105, 169, 1, 0.474118
295, 2, bw, attraction, a-b-db, 9, 2, 6, 7, 86, 157, 165, 90, 90, 165, 2, 0.836687
295, 2, bw, attraction, a-b-db, 9, 2, 6, 7, 86, 157, 165, 90, 90, 165, 1, 0.306329
295, 2, bw, attraction, a-b-da, 14, 2, 6, 8, 153, 83, 165, 90, 90, 165, 2, 0.411587
295, 2, bw, attraction, a-b-da, 14, 2, 6, 8, 153, 83, 165, 90, 90, 165, 1, 0.298002
295, 2, bw, filler, NA, 999, 999, 6, 9, 132, 127, 86, 78, 131, 110, 1, 0.707965
295, 2, bw, filler, NA, 999, 999, 6, 9, 132, 127, 86, 78, 131, 110, 2, 0.238362
295, 2, bw, attraction, a-b-da, 2, 1, 6, 10, 134, 59, 60, 135, 135, 60, 2, 0.722785
295, 2, bw, attraction, a-b-da, 2, 1, 6, 10, 134, 59, 60, 135, 135, 60, 1, 0.556546
295, 2, bw, attraction, a-b-da, 5, 3, 6, 11, 120, 195, 190, 117, 195, 120, 2, 0.69974
295, 2, bw, attraction, a-b-da, 5, 3, 6, 11, 120, 195, 190, 117, 195, 120, 1, 0.238848
295, 2, bw, catch, NA, 999, 999, 6, 12, 120, 135, 68, 127, 160, 155, 3, 1.05926
295, 2, bw, catch, NA, 999, 999, 6, 12, 120, 135, 68, 127, 160, 155, 2, 0.31957
295, 2, bw, attraction, a-b-da, 9, 1, 6, 13, 129, 57, 135, 60, 60, 135, 1, 0.544735
295, 2, bw, attraction, a-b-da, 9, 1, 6, 13, 129, 57, 135, 60, 60, 135, 2, 0.417925
295, 2, bw, attraction, a-b-da, 5, 1, 6, 14, 60, 135, 132, 58, 135, 60, 2, 0.735027
295, 2, bw, attraction, a-b-da, 5, 1, 6, 14, 60, 135, 132, 58, 135, 60, 1, 0.13739
295, 2, bw, attraction, a-b-db, 5, 3, 6, 15, 120, 195, 117, 190, 195, 120, 2, 0.873244
295, 2, bw, attraction, a-b-db, 5, 3, 6, 15, 120, 195, 117, 190, 195, 120, 3, 0.325056
295, 2, bw, filler, NA, 999, 999, 6, 16, 107, 171, 174, 190, 148, 195, 2, 0.453529
295, 2, bw, filler, NA, 999, 999, 6, 16, 107, 171, 174, 190, 148, 195, 1, 0.298677
295, 2, bw, filler, NA, 999, 999, 6, 17, 68, 117, 168, 61, 61, 175, 2, 0.484545
295, 2, bw, filler, NA, 999, 999, 6, 17, 68, 117, 168, 61, 61, 175, 1, 0.360538
295, 2, bw, attraction, a-b-db, 5, 1, 6, 18, 135, 60, 58, 132, 60, 135, 2, 0.647626
295, 2, bw, attraction, a-b-db, 5, 1, 6, 18, 135, 60, 58, 132, 60, 135, 1, 0.428653
295, 2, bw, attraction, a-b-db, 14, 1, 6, 19, 56, 125, 135, 60, 60, 135, 2, 0.521073
295, 2, bw, attraction, a-b-db, 14, 1, 6, 19, 56, 125, 135, 60, 60, 135, 1, 0.171641
295, 2, bw, attraction, a-b-db, 2, 1, 6, 20, 135, 60, 59, 134, 60, 135, 2, 0.426195
295, 2, bw, attraction, a-b-db, 2, 1, 6, 20, 135, 60, 59, 134, 60, 135, 1, 0.335997
295, 2, bw, catch, NA, 999, 999, 6, 21, 150, 165, 127, 128, 86, 109, 1, 0.664502
295, 2, bw, catch, NA, 999, 999, 6, 21, 150, 165, 127, 128, 86, 109, 2, 0.276893
295, 2, bw, attraction, a-b-da, 9, 2, 6, 22, 165, 90, 157, 86, 90, 165, 1, 0.391438
295, 2, bw, attraction, a-b-da, 9, 2, 6, 22, 165, 90, 157, 86, 90, 165, 2, 0.294621
295, 2, bw, attraction, a-b-da, 2, 2, 6, 23, 165, 90, 163, 89, 90, 165, 1, 0.400517
295, 2, bw, attraction, a-b-da, 2, 2, 6, 23, 165, 90, 163, 89, 90, 165, 2, 0.311581
295, 2, bw, attraction, a-b-db, 2, 3, 6, 24, 195, 120, 120, 195, 119, 193, 1, 0.448866
295, 2, bw, attraction, a-b-db, 2, 3, 6, 24, 195, 120, 120, 195, 119, 193, 2, 0.27007
295, 2, bw, attraction, a-b-db, 2, 2, 6, 25, 90, 165, 165, 90, 89, 163, 1, 0.40122
295, 2, bw, attraction, a-b-db, 2, 2, 6, 25, 90, 165, 165, 90, 89, 163, 2, 0.272433
295, 2, bw, attraction, a-b-db, 14, 3, 6, 26, 195, 120, 120, 195, 111, 181, 1, 0.355572
295, 2, bw, attraction, a-b-db, 14, 3, 6, 26, 195, 120, 120, 195, 111, 181, 2, 0.260147
295, 2, bw, attraction, a-b-db, 14, 2, 6, 27, 165, 90, 83, 153, 90, 165, 1, 0.303317
295, 2, bw, attraction, a-b-db, 14, 2, 6, 27, 165, 90, 83, 153, 90, 165, 2, 0.305879
295, 2, bw, attraction, a-b-da, 5, 2, 6, 28, 161, 88, 165, 90, 90, 165, 1, 0.235001
295, 2, bw, attraction, a-b-da, 5, 2, 6, 28, 161, 88, 165, 90, 90, 165, 2, 0.545066
295, 2, bw, filler, NA, 999, 999, 6, 29, 127, 113, 128, 79, 190, 184, 1, 0.456797
295, 2, bw, filler, NA, 999, 999, 6, 29, 127, 113, 128, 79, 190, 184, 3, 0.565181
295, 2, bw, attraction, a-b-db, 5, 2, 6, 30, 88, 161, 165, 90, 90, 165, 1, 0.700258
295, 2, bw, attraction, a-b-db, 5, 2, 6, 30, 88, 161, 165, 90, 90, 165, 2, 0.56735
295, 2, bw, attraction, a-b-da, 2, 3, 6, 31, 195, 120, 193, 119, 120, 195, 1, 0.35845
295, 2, bw, attraction, a-b-da, 2, 3, 6, 31, 195, 120, 193, 119, 120, 195, 2, 0.23102
295, 2, bw, attraction, a-b-da, 9, 3, 6, 32, 186, 114, 120, 195, 195, 120, 1, 0.547659
295, 2, bw, attraction, a-b-da, 9, 3, 6, 32, 186, 114, 120, 195, 195, 120, 2, 0.236787
295, 2, bw, catch, NA, 999, 999, 6, 33, 134, 61, 112, 143, 187, 128, 1, 0.441289
295, 2, bw, catch, NA, 999, 999, 6, 33, 134, 61, 112, 143, 187, 128, 2, 0.270358
295, 2, bw, attraction, a-b-db, 9, 3, 6, 34, 120, 195, 195, 120, 114, 186, 1, 0.369651
295, 2, bw, attraction, a-b-db, 9, 3, 6, 34, 120, 195, 195, 120, 114, 186, 2, 0.281469
295, 2, bw, filler, NA, 999, 999, 6, 35, 156, 73, 181, 178, 98, 151, 3, 0.323943
295, 2, bw, filler, NA, 999, 999, 6, 35, 156, 73, 181, 178, 98, 151, 2, 0.605824
295, 2, bw, filler, NA, 999, 999, 6, 36, 145, 105, 157, 128, 184, 88, 2, 0.395554
295, 2, bw, filler, NA, 999, 999, 6, 36, 145, 105, 157, 128, 184, 88, 3, 0.442902
295, 2, bw, attraction, a-b-db, 9, 1, 6, 37, 60, 135, 135, 60, 57, 129, 2, 0.718663
295, 2, bw, attraction, a-b-db, 9, 1, 6, 37, 60, 135, 135, 60, 57, 129, 3, 0.40907
295, 2, bw, attraction, a-b-db, 14, 3, 7, 1, 111, 181, 195, 120, 120, 195, 2, 0.414214
295, 2, bw, attraction, a-b-db, 14, 3, 7, 1, 111, 181, 195, 120, 120, 195, 3, 0.228747
295, 2, bw, attraction, a-b-da, 2, 2, 7, 2, 165, 90, 90, 165, 163, 89, 2, 0.449198
295, 2, bw, attraction, a-b-da, 2, 2, 7, 2, 165, 90, 90, 165, 163, 89, 3, 0.278382
295, 2, bw, attraction, a-b-da, 2, 3, 7, 3, 193, 119, 120, 195, 195, 120, 2, 0.400973
295, 2, bw, attraction, a-b-da, 2, 3, 7, 3, 193, 119, 120, 195, 195, 120, 3, 0.272017
295, 2, bw, attraction, a-b-da, 14, 3, 7, 4, 181, 111, 120, 195, 195, 120, 2, 0.363261
295, 2, bw, attraction, a-b-da, 14, 3, 7, 4, 181, 111, 120, 195, 195, 120, 3, 0.259751
295, 2, bw, attraction, a-b-db, 5, 1, 7, 5, 135, 60, 60, 135, 58, 132, 1, 0.81148
295, 2, bw, attraction, a-b-db, 5, 1, 7, 5, 135, 60, 60, 135, 58, 132, 2, 0.525316
295, 2, bw, filler, NA, 999, 999, 7, 6, 94, 89, 95, 142, 135, 86, 2, 0.597713
295, 2, bw, filler, NA, 999, 999, 7, 6, 94, 89, 95, 142, 135, 86, 1, 0.143718
295, 2, bw, catch, NA, 999, 999, 7, 7, 83, 112, 118, 137, 192, 123, 2, 0.548786
295, 2, bw, catch, NA, 999, 999, 7, 7, 83, 112, 118, 137, 192, 123, 1, 0.437923
295, 2, bw, attraction, a-b-da, 9, 2, 7, 8, 157, 86, 165, 90, 90, 165, 2, 0.482532
295, 2, bw, attraction, a-b-da, 9, 2, 7, 8, 157, 86, 165, 90, 90, 165, 1, 0.286247
295, 2, bw, attraction, a-b-db, 2, 3, 7, 9, 119, 193, 195, 120, 120, 195, 2, 0.840799
295, 2, bw, attraction, a-b-db, 2, 3, 7, 9, 119, 193, 195, 120, 120, 195, 1, 0.173744
295, 2, bw, attraction, a-b-db, 9, 2, 7, 10, 90, 165, 165, 90, 86, 157, 2, 0.452295
295, 2, bw, attraction, a-b-db, 9, 2, 7, 10, 90, 165, 165, 90, 86, 157, 1, 0.281459
295, 2, bw, attraction, a-b-da, 2, 1, 7, 11, 60, 135, 134, 59, 135, 60, 2, 1.17205
295, 2, bw, attraction, a-b-da, 2, 1, 7, 11, 60, 135, 134, 59, 135, 60, 1, 0.379629
295, 2, bw, attraction, a-b-da, 5, 2, 7, 12, 161, 88, 90, 165, 165, 90, 2, 0.402069
295, 2, bw, attraction, a-b-da, 5, 2, 7, 12, 161, 88, 90, 165, 165, 90, 1, 0.377259
295, 2, bw, filler, NA, 999, 999, 7, 13, 119, 98, 173, 106, 71, 65, 2, 0.879718
295, 2, bw, filler, NA, 999, 999, 7, 13, 119, 98, 173, 106, 71, 65, 3, 0.515516
295, 2, bw, attraction, a-b-db, 9, 1, 7, 14, 57, 129, 60, 135, 135, 60, 2, 0.468584
295, 2, bw, attraction, a-b-db, 9, 1, 7, 14, 57, 129, 60, 135, 135, 60, 3, 0.441124
295, 2, bw, filler, NA, 999, 999, 7, 15, 133, 179, 141, 98, 73, 98, 2, 0.276904
295, 2, bw, filler, NA, 999, 999, 7, 15, 133, 179, 141, 98, 73, 98, 3, 0.272784
295, 2, bw, attraction, a-b-da, 9, 3, 7, 16, 195, 120, 120, 195, 186, 114, 2, 0.371263
295, 2, bw, attraction, a-b-da, 9, 3, 7, 16, 195, 120, 120, 195, 186, 114, 3, 0.275167
295, 2, bw, attraction, a-b-db, 14, 2, 7, 17, 90, 165, 165, 90, 83, 153, 2, 1.18162
295, 2, bw, attraction, a-b-db, 14, 2, 7, 17, 90, 165, 165, 90, 83, 153, 3, 0.253294
295, 2, bw, attraction, a-b-da, 9, 1, 7, 18, 135, 60, 60, 135, 129, 57, 2, 0.313211
295, 2, bw, attraction, a-b-da, 9, 1, 7, 18, 135, 60, 60, 135, 129, 57, 3, 0.299654
295, 2, bw, attraction, a-b-db, 9, 3, 7, 19, 114, 186, 120, 195, 195, 120, 2, 0.413556
295, 2, bw, attraction, a-b-db, 9, 3, 7, 19, 114, 186, 120, 195, 195, 120, 3, 0.284178
295, 2, bw, attraction, a-b-da, 14, 2, 7, 20, 90, 165, 153, 83, 165, 90, 2, 0.246682
295, 2, bw, attraction, a-b-da, 14, 2, 7, 20, 90, 165, 153, 83, 165, 90, 3, 0.331916
295, 2, bw, filler, NA, 999, 999, 7, 21, 100, 135, 184, 106, 106, 195, 2, 0.660539
295, 2, bw, filler, NA, 999, 999, 7, 21, 100, 135, 184, 106, 106, 195, 3, 0.672748
295, 2, bw, filler, NA, 999, 999, 7, 22, 95, 124, 191, 110, 59, 157, 2, 0.387246
295, 2, bw, filler, NA, 999, 999, 7, 22, 95, 124, 191, 110, 59, 157, 3, 0.826358
295, 2, bw, filler, NA, 999, 999, 7, 23, 142, 143, 191, 156, 161, 87, 2, 1.36676
295, 2, bw, filler, NA, 999, 999, 7, 23, 142, 143, 191, 156, 161, 87, 3, 0.446924
295, 2, bw, filler, NA, 999, 999, 7, 24, 140, 101, 171, 100, 182, 166, 2, 0.258744
295, 2, bw, filler, NA, 999, 999, 7, 24, 140, 101, 171, 100, 182, 166, 3, 0.431236
295, 2, bw, filler, NA, 999, 999, 7, 25, 61, 145, 158, 146, 193, 62, 2, 0.507713
295, 2, bw, filler, NA, 999, 999, 7, 25, 61, 145, 158, 146, 193, 62, 3, 0.510304
295, 2, bw, catch, NA, 999, 999, 7, 26, 104, 151, 152, 163, 117, 78, 2, 0.191314
295, 2, bw, catch, NA, 999, 999, 7, 26, 104, 151, 152, 163, 117, 78, 3, 0.566533
295, 2, bw, filler, NA, 999, 999, 7, 27, 179, 121, 178, 140, 169, 91, 1, 1.02166
295, 2, bw, filler, NA, 999, 999, 7, 27, 179, 121, 178, 140, 169, 91, 2, 0.411298
295, 2, bw, attraction, a-b-db, 5, 2, 7, 28, 165, 90, 88, 161, 90, 165, 1, 0.624488
295, 2, bw, attraction, a-b-db, 5, 2, 7, 28, 165, 90, 88, 161, 90, 165, 2, 0.350305
295, 2, bw, attraction, a-b-db, 2, 1, 7, 29, 135, 60, 60, 135, 59, 134, 1, 0.59004
295, 2, bw, attraction, a-b-db, 2, 1, 7, 29, 135, 60, 60, 135, 59, 134, 2, 0.549136
295, 2, bw, attraction, a-b-db, 5, 3, 7, 30, 120, 195, 117, 190, 195, 120, 1, 0.380922
295, 2, bw, attraction, a-b-db, 5, 3, 7, 30, 120, 195, 117, 190, 195, 120, 2, 0.340763
295, 2, bw, attraction, a-b-db, 2, 2, 7, 31, 90, 165, 89, 163, 165, 90, 1, 0.364743
295, 2, bw, attraction, a-b-db, 2, 2, 7, 31, 90, 165, 89, 163, 165, 90, 2, 0.26929
295, 2, bw, catch, NA, 999, 999, 7, 32, 111, 144, 84, 111, 127, 188, 1, 0.400352
295, 2, bw, catch, NA, 999, 999, 7, 32, 111, 144, 84, 111, 127, 188, 2, 0.407602
295, 2, bw, attraction, a-b-db, 14, 1, 7, 33, 60, 135, 56, 125, 135, 60, 1, 0.756713
295, 2, bw, attraction, a-b-db, 14, 1, 7, 33, 60, 135, 56, 125, 135, 60, 3, 0.573128
295, 2, bw, attraction, a-b-da, 14, 1, 7, 34, 60, 135, 135, 60, 125, 56, 2, 0.795604
295, 2, bw, attraction, a-b-da, 14, 1, 7, 34, 60, 135, 135, 60, 125, 56, 3, 0.42664
295, 2, bw, filler, NA, 999, 999, 7, 35, 67, 158, 105, 165, 139, 83, 2, 0.287002
295, 2, bw, filler, NA, 999, 999, 7, 35, 67, 158, 105, 165, 139, 83, 3, 0.45029
295, 2, bw, attraction, a-b-da, 5, 1, 7, 36, 60, 135, 132, 58, 135, 60, 2, 0.550074
295, 2, bw, attraction, a-b-da, 5, 1, 7, 36, 60, 135, 132, 58, 135, 60, 3, 0.431238
295, 2, bw, attraction, a-b-da, 5, 3, 7, 37, 195, 120, 190, 117, 120, 195, 2, 0.323636
295, 2, bw, attraction, a-b-da, 5, 3, 7, 37, 195, 120, 190, 117, 120, 195, 3, 0.381547
295, 2, bw, attraction, a-b-db, 9, 3, 8, 1, 195, 120, 120, 195, 114, 186, 1, 0.443979
295, 2, bw, attraction, a-b-db, 9, 3, 8, 1, 195, 120, 120, 195, 114, 186, 2, 0.281312
295, 2, bw, filler, NA, 999, 999, 8, 2, 150, 169, 152, 98, 78, 186, 1, 0.315684
295, 2, bw, filler, NA, 999, 999, 8, 2, 150, 169, 152, 98, 78, 186, 2, 0.38588
295, 2, bw, attraction, a-b-db, 5, 2, 8, 3, 90, 165, 165, 90, 88, 161, 1, 0.644719
295, 2, bw, attraction, a-b-db, 5, 2, 8, 3, 90, 165, 165, 90, 88, 161, 2, 0.377811
295, 2, bw, filler, NA, 999, 999, 8, 4, 167, 141, 92, 92, 77, 100, 1, 0.424281
295, 2, bw, filler, NA, 999, 999, 8, 4, 167, 141, 92, 92, 77, 100, 2, 0.390131
295, 2, bw, attraction, a-b-da, 5, 2, 8, 5, 90, 165, 161, 88, 165, 90, 1, 0.403955
295, 2, bw, attraction, a-b-da, 5, 2, 8, 5, 90, 165, 161, 88, 165, 90, 2, 0.458479
295, 2, bw, filler, NA, 999, 999, 8, 6, 113, 63, 134, 100, 84, 68, 1, 0.565786
295, 2, bw, filler, NA, 999, 999, 8, 6, 113, 63, 134, 100, 84, 68, 2, 0.558233
295, 2, bw, attraction, a-b-db, 9, 1, 8, 7, 60, 135, 57, 129, 135, 60, 1, 0.397245
295, 2, bw, attraction, a-b-db, 9, 1, 8, 7, 60, 135, 57, 129, 135, 60, 2, 0.716406
295, 2, bw, filler, NA, 999, 999, 8, 8, 93, 61, 80, 81, 191, 169, 3, 0.749588
295, 2, bw, filler, NA, 999, 999, 8, 8, 93, 61, 80, 81, 191, 169, 1, 0.430437
295, 2, bw, attraction, a-b-db, 2, 1, 8, 9, 135, 60, 60, 135, 59, 134, 1, 0.898965
295, 2, bw, attraction, a-b-db, 2, 1, 8, 9, 135, 60, 60, 135, 59, 134, 2, 0.661999
295, 2, bw, filler, NA, 999, 999, 8, 10, 174, 97, 178, 108, 73, 68, 2, 0.817078
295, 2, bw, filler, NA, 999, 999, 8, 10, 174, 97, 178, 108, 73, 68, 3, 0.36757
295, 2, bw, filler, NA, 999, 999, 8, 11, 163, 75, 188, 191, 167, 162, 2, 0.286586
295, 2, bw, filler, NA, 999, 999, 8, 11, 163, 75, 188, 191, 167, 162, 3, 0.290613
295, 2, bw, attraction, a-b-db, 2, 2, 8, 12, 165, 90, 90, 165, 89, 163, 1, 0.388469
295, 2, bw, attraction, a-b-db, 2, 2, 8, 12, 165, 90, 90, 165, 89, 163, 2, 0.315559
295, 2, bw, attraction, a-b-da, 2, 1, 8, 13, 134, 59, 60, 135, 135, 60, 1, 0.644706
295, 2, bw, attraction, a-b-da, 2, 1, 8, 13, 134, 59, 60, 135, 135, 60, 2, 0.369915
295, 2, bw, catch, NA, 999, 999, 8, 14, 113, 82, 148, 107, 190, 125, 1, 0.37695
295, 2, bw, catch, NA, 999, 999, 8, 14, 113, 82, 148, 107, 190, 125, 3, 0.416813
295, 2, bw, filler, NA, 999, 999, 8, 15, 111, 68, 154, 89, 157, 175, 3, 0.629974
295, 2, bw, filler, NA, 999, 999, 8, 15, 111, 68, 154, 89, 157, 175, 1, 0.851775
295, 2, bw, attraction, a-b-db, 2, 3, 8, 16, 195, 120, 120, 195, 119, 193, 1, 0.711395
295, 2, bw, attraction, a-b-db, 2, 3, 8, 16, 195, 120, 120, 195, 119, 193, 3, 0.297983
295, 2, bw, attraction, a-b-da, 14, 3, 8, 17, 181, 111, 120, 195, 195, 120, 3, 0.571713
295, 2, bw, attraction, a-b-da, 14, 3, 8, 17, 181, 111, 120, 195, 195, 120, 1, 0.387397
295, 2, bw, attraction, a-b-da, 2, 3, 8, 18, 193, 119, 120, 195, 195, 120, 1, 0.618063
295, 2, bw, attraction, a-b-da, 2, 3, 8, 18, 193, 119, 120, 195, 195, 120, 3, 0.464526
295, 2, bw, attraction, a-b-db, 9, 2, 8, 19, 90, 165, 86, 157, 165, 90, 1, 0.619531
295, 2, bw, attraction, a-b-db, 9, 2, 8, 19, 90, 165, 86, 157, 165, 90, 3, 0.481986
295, 2, bw, attraction, a-b-db, 5, 3, 8, 20, 195, 120, 117, 190, 120, 195, 1, 0.460424
295, 2, bw, attraction, a-b-db, 5, 3, 8, 20, 195, 120, 117, 190, 120, 195, 3, 0.368962
295, 2, bw, attraction, a-b-da, 9, 3, 8, 21, 120, 195, 195, 120, 186, 114, 2, 0.816079
295, 2, bw, attraction, a-b-da, 9, 3, 8, 21, 120, 195, 195, 120, 186, 114, 3, 0.590617
295, 2, bw, attraction, a-b-da, 2, 2, 8, 22, 163, 89, 90, 165, 165, 90, 2, 0.396255
295, 2, bw, attraction, a-b-da, 2, 2, 8, 22, 163, 89, 90, 165, 165, 90, 3, 0.347469
295, 2, bw, attraction, a-b-db, 14, 1, 8, 23, 60, 135, 56, 125, 135, 60, 2, 0.339237
295, 2, bw, attraction, a-b-db, 14, 1, 8, 23, 60, 135, 56, 125, 135, 60, 3, 0.94856
295, 2, bw, filler, NA, 999, 999, 8, 24, 91, 164, 143, 160, 113, 81, 2, 0.276099
295, 2, bw, filler, NA, 999, 999, 8, 24, 91, 164, 143, 160, 113, 81, 3, 0.375968
295, 2, bw, attraction, a-b-db, 14, 3, 8, 25, 120, 195, 195, 120, 111, 181, 2, 0.374627
295, 2, bw, attraction, a-b-db, 14, 3, 8, 25, 120, 195, 195, 120, 111, 181, 3, 0.278526
295, 2, bw, attraction, a-b-da, 5, 1, 8, 26, 60, 135, 135, 60, 132, 58, 2, 0.416903
295, 2, bw, attraction, a-b-da, 5, 1, 8, 26, 60, 135, 135, 60, 132, 58, 3, 0.415413
295, 2, bw, filler, NA, 999, 999, 8, 27, 91, 61, 112, 132, 140, 98, 2, 0.396517
295, 2, bw, filler, NA, 999, 999, 8, 27, 91, 61, 112, 132, 140, 98, 3, 0.363661
295, 2, bw, attraction, a-b-da, 14, 2, 8, 28, 153, 83, 165, 90, 90, 165, 2, 1.22696
295, 2, bw, attraction, a-b-da, 14, 2, 8, 28, 153, 83, 165, 90, 90, 165, 3, 0.336495
295, 2, bw, filler, NA, 999, 999, 8, 29, 108, 127, 121, 186, 78, 188, 2, 0.248959
295, 2, bw, filler, NA, 999, 999, 8, 29, 108, 127, 121, 186, 78, 188, 3, 0.462243
295, 2, bw, catch, NA, 999, 999, 8, 30, 187, 128, 85, 110, 117, 138, 2, 0.529311
295, 2, bw, catch, NA, 999, 999, 8, 30, 187, 128, 85, 110, 117, 138, 1, 0.515135
295, 2, bw, attraction, a-b-da, 5, 3, 8, 31, 120, 195, 195, 120, 190, 117, 3, 0.676205
295, 2, bw, attraction, a-b-da, 5, 3, 8, 31, 120, 195, 195, 120, 190, 117, 1, 0.239936
295, 2, bw, attraction, a-b-db, 14, 2, 8, 32, 83, 153, 165, 90, 90, 165, 1, 0.53994
295, 2, bw, attraction, a-b-db, 14, 2, 8, 32, 83, 153, 165, 90, 90, 165, 2, 0.277055
295, 2, bw, attraction, a-b-da, 14, 1, 8, 33, 125, 56, 135, 60, 60, 135, 1, 0.303519
295, 2, bw, attraction, a-b-da, 14, 1, 8, 33, 125, 56, 135, 60, 60, 135, 2, 0.570734
295, 2, bw, attraction, a-b-db, 5, 1, 8, 34, 60, 135, 58, 132, 135, 60, 1, 0.641904
295, 2, bw, attraction, a-b-db, 5, 1, 8, 34, 60, 135, 58, 132, 135, 60, 2, 0.278849
295, 2, bw, attraction, a-b-da, 9, 1, 8, 35, 135, 60, 129, 57, 60, 135, 1, 0.353552
295, 2, bw, attraction, a-b-da, 9, 1, 8, 35, 135, 60, 129, 57, 60, 135, 2, 0.882615
295, 2, bw, catch, NA, 999, 999, 8, 36, 142, 173, 134, 61, 145, 110, 1, 0.348911
295, 2, bw, catch, NA, 999, 999, 8, 36, 142, 173, 134, 61, 145, 110, 2, 0.310151
295, 2, bw, attraction, a-b-da, 9, 2, 8, 37, 165, 90, 90, 165, 157, 86, 1, 0.423445
295, 2, bw, attraction, a-b-da, 9, 2, 8, 37, 165, 90, 90, 165, 157, 86, 2, 0.253211
