sub_n, computer_n, bw_cond, effect, set, distance, diag, block_n, trial_n, h1, w1, h2, w2, h3, w3, choice, rt 
344, 2, wb, practice, NA, 999, 999, 0, 1, 187, 123, 117, 80, 62, 59, 3, 2.33563
344, 2, wb, practice, NA, 999, 999, 0, 1, 187, 123, 117, 80, 62, 59, 1, 2.49765
344, 2, wb, practice, NA, 999, 999, 0, 2, 163, 179, 61, 191, 64, 80, 3, 1.96632
344, 2, wb, practice, NA, 999, 999, 0, 2, 163, 179, 61, 191, 64, 80, 1, 2.61375
344, 2, wb, practice, NA, 999, 999, 0, 3, 137, 96, 61, 66, 165, 161, 2, 1.8002
344, 2, wb, practice, NA, 999, 999, 0, 3, 137, 96, 61, 66, 165, 161, 3, 1.9256
344, 2, wb, filler, NA, 999, 999, 1, 1, 62, 105, 82, 118, 132, 114, 1, 1.51812
344, 2, wb, filler, NA, 999, 999, 1, 1, 62, 105, 82, 118, 132, 114, 3, 0.952178
344, 2, wb, attraction, a-b-db, 5, 2, 1, 2, 165, 90, 88, 161, 90, 165, 2, 9.38381
344, 2, wb, attraction, a-b-db, 5, 2, 1, 2, 165, 90, 88, 161, 90, 165, 1, 2.42883
344, 2, wb, attraction, a-b-db, 2, 1, 1, 3, 59, 134, 135, 60, 60, 135, 1, 1.41665
344, 2, wb, attraction, a-b-db, 2, 1, 1, 3, 59, 134, 135, 60, 60, 135, 2, 2.69494
344, 2, wb, filler, NA, 999, 999, 1, 4, 101, 173, 70, 100, 191, 69, 2, 1.19193
344, 2, wb, filler, NA, 999, 999, 1, 4, 101, 173, 70, 100, 191, 69, 1, 1.87098
344, 2, wb, attraction, a-b-da, 14, 2, 1, 5, 153, 83, 165, 90, 90, 165, 1, 4.1936
344, 2, wb, attraction, a-b-da, 14, 2, 1, 5, 153, 83, 165, 90, 90, 165, 2, 1.3676
344, 2, wb, attraction, a-b-db, 5, 3, 1, 6, 195, 120, 120, 195, 117, 190, 3, 2.37453
344, 2, wb, attraction, a-b-db, 5, 3, 1, 6, 195, 120, 120, 195, 117, 190, 1, 1.16568
344, 2, wb, attraction, a-b-db, 14, 1, 1, 7, 60, 135, 56, 125, 135, 60, 2, 0.900599
344, 2, wb, attraction, a-b-db, 14, 1, 1, 7, 60, 135, 56, 125, 135, 60, 3, 1.98367
344, 2, wb, attraction, a-b-da, 5, 3, 1, 8, 195, 120, 120, 195, 190, 117, 2, 3.00563
344, 2, wb, attraction, a-b-da, 5, 3, 1, 8, 195, 120, 120, 195, 190, 117, 3, 2.62729
344, 2, wb, attraction, a-b-db, 2, 3, 1, 9, 120, 195, 195, 120, 119, 193, 1, 14.2552
344, 2, wb, attraction, a-b-db, 2, 3, 1, 9, 120, 195, 195, 120, 119, 193, 2, 1.86391
344, 2, wb, attraction, a-b-da, 9, 1, 1, 10, 60, 135, 135, 60, 129, 57, 1, 1.12263
344, 2, wb, attraction, a-b-da, 9, 1, 1, 10, 60, 135, 135, 60, 129, 57, 3, 1.05234
344, 2, wb, filler, NA, 999, 999, 1, 11, 147, 157, 168, 146, 64, 103, 3, 1.01588
344, 2, wb, filler, NA, 999, 999, 1, 11, 147, 157, 168, 146, 64, 103, 2, 1.19022
344, 2, wb, attraction, a-b-da, 5, 2, 1, 12, 161, 88, 165, 90, 90, 165, 1, 2.13984
344, 2, wb, attraction, a-b-da, 5, 2, 1, 12, 161, 88, 165, 90, 90, 165, 3, 0.700495
344, 2, wb, attraction, a-b-db, 9, 3, 1, 13, 195, 120, 114, 186, 120, 195, 2, 3.45417
344, 2, wb, attraction, a-b-db, 9, 3, 1, 13, 195, 120, 114, 186, 120, 195, 1, 0.985811
344, 2, wb, attraction, a-b-db, 5, 1, 1, 14, 135, 60, 60, 135, 58, 132, 2, 2.47995
344, 2, wb, attraction, a-b-db, 5, 1, 1, 14, 135, 60, 60, 135, 58, 132, 1, 0.827218
344, 2, wb, attraction, a-b-da, 2, 3, 1, 15, 120, 195, 193, 119, 195, 120, 1, 2.5196
344, 2, wb, attraction, a-b-da, 2, 3, 1, 15, 120, 195, 193, 119, 195, 120, 3, 1.22546
344, 2, wb, catch, NA, 999, 999, 1, 16, 104, 91, 124, 131, 190, 125, 1, 1.31765
344, 2, wb, catch, NA, 999, 999, 1, 16, 104, 91, 124, 131, 190, 125, 3, 1.07991
344, 2, wb, attraction, a-b-da, 9, 2, 1, 17, 157, 86, 90, 165, 165, 90, 2, 4.50635
344, 2, wb, attraction, a-b-da, 9, 2, 1, 17, 157, 86, 90, 165, 165, 90, 3, 0.907408
344, 2, wb, filler, NA, 999, 999, 1, 18, 62, 90, 143, 68, 183, 101, 1, 1.68428
344, 2, wb, filler, NA, 999, 999, 1, 18, 62, 90, 143, 68, 183, 101, 3, 1.08781
344, 2, wb, filler, NA, 999, 999, 1, 19, 141, 182, 77, 70, 57, 172, 2, 0.842177
344, 2, wb, filler, NA, 999, 999, 1, 19, 141, 182, 77, 70, 57, 172, 1, 1.47912
344, 2, wb, filler, NA, 999, 999, 1, 20, 125, 161, 195, 88, 180, 153, 1, 1.08122
344, 2, wb, filler, NA, 999, 999, 1, 20, 125, 161, 195, 88, 180, 153, 3, 0.724934
344, 2, wb, catch, NA, 999, 999, 1, 21, 127, 68, 154, 161, 124, 131, 1, 1.26124
344, 2, wb, catch, NA, 999, 999, 1, 21, 127, 68, 154, 161, 124, 131, 2, 1.00156
344, 2, wb, filler, NA, 999, 999, 1, 22, 175, 66, 127, 93, 109, 157, 2, 2.19911
344, 2, wb, filler, NA, 999, 999, 1, 22, 175, 66, 127, 93, 109, 157, 3, 0.997932
344, 2, wb, attraction, a-b-db, 14, 3, 1, 23, 111, 181, 195, 120, 120, 195, 1, 3.41161
344, 2, wb, attraction, a-b-db, 14, 3, 1, 23, 111, 181, 195, 120, 120, 195, 3, 0.841003
344, 2, wb, attraction, a-b-db, 9, 2, 1, 24, 90, 165, 86, 157, 165, 90, 2, 0.868673
344, 2, wb, attraction, a-b-db, 9, 2, 1, 24, 90, 165, 86, 157, 165, 90, 3, 1.1611
344, 2, wb, filler, NA, 999, 999, 1, 25, 84, 159, 189, 176, 139, 183, 1, 0.79994
344, 2, wb, filler, NA, 999, 999, 1, 25, 84, 159, 189, 176, 139, 183, 2, 1.23905
344, 2, wb, attraction, a-b-da, 2, 1, 1, 26, 60, 135, 135, 60, 134, 59, 1, 2.15516
344, 2, wb, attraction, a-b-da, 2, 1, 1, 26, 60, 135, 135, 60, 134, 59, 3, 1.20314
344, 2, wb, attraction, a-b-db, 9, 1, 1, 27, 135, 60, 57, 129, 60, 135, 2, 1.26468
344, 2, wb, attraction, a-b-db, 9, 1, 1, 27, 135, 60, 57, 129, 60, 135, 1, 1.013
344, 2, wb, catch, NA, 999, 999, 1, 28, 153, 102, 174, 141, 126, 69, 3, 1.44193
344, 2, wb, catch, NA, 999, 999, 1, 28, 153, 102, 174, 141, 126, 69, 2, 0.726846
344, 2, wb, attraction, a-b-da, 14, 1, 1, 29, 60, 135, 135, 60, 125, 56, 1, 0.951148
344, 2, wb, attraction, a-b-da, 14, 1, 1, 29, 60, 135, 135, 60, 125, 56, 2, 1.74415
344, 2, wb, attraction, a-b-db, 14, 2, 1, 30, 90, 165, 83, 153, 165, 90, 2, 1.5436
344, 2, wb, attraction, a-b-db, 14, 2, 1, 30, 90, 165, 83, 153, 165, 90, 3, 1.26436
344, 2, wb, attraction, a-b-da, 9, 3, 1, 31, 195, 120, 186, 114, 120, 195, 2, 2.87538
344, 2, wb, attraction, a-b-da, 9, 3, 1, 31, 195, 120, 186, 114, 120, 195, 3, 1.01432
344, 2, wb, attraction, a-b-da, 2, 2, 1, 32, 163, 89, 165, 90, 90, 165, 3, 2.41945
344, 2, wb, attraction, a-b-da, 2, 2, 1, 32, 163, 89, 165, 90, 90, 165, 2, 1.04915
344, 2, wb, attraction, a-b-db, 2, 2, 1, 33, 165, 90, 89, 163, 90, 165, 2, 1.48485
344, 2, wb, attraction, a-b-db, 2, 2, 1, 33, 165, 90, 89, 163, 90, 165, 3, 0.984283
344, 2, wb, filler, NA, 999, 999, 1, 34, 186, 80, 104, 59, 97, 133, 2, 0.838639
344, 2, wb, filler, NA, 999, 999, 1, 34, 186, 80, 104, 59, 97, 133, 1, 0.859694
344, 2, wb, filler, NA, 999, 999, 1, 35, 151, 95, 178, 160, 189, 160, 1, 1.38265
344, 2, wb, filler, NA, 999, 999, 1, 35, 151, 95, 178, 160, 189, 160, 3, 1.03822
344, 2, wb, attraction, a-b-da, 5, 1, 1, 36, 132, 58, 135, 60, 60, 135, 3, 5.09854
344, 2, wb, attraction, a-b-da, 5, 1, 1, 36, 132, 58, 135, 60, 60, 135, 2, 0.684278
344, 2, wb, attraction, a-b-da, 14, 3, 1, 37, 181, 111, 195, 120, 120, 195, 1, 1.39866
344, 2, wb, attraction, a-b-da, 14, 3, 1, 37, 181, 111, 195, 120, 120, 195, 2, 1.10946
344, 2, wb, filler, NA, 999, 999, 2, 1, 154, 129, 163, 81, 186, 172, 2, 1.15032
344, 2, wb, filler, NA, 999, 999, 2, 1, 154, 129, 163, 81, 186, 172, 3, 0.823447
344, 2, wb, catch, NA, 999, 999, 2, 2, 142, 113, 137, 178, 123, 72, 3, 1.05964
344, 2, wb, catch, NA, 999, 999, 2, 2, 142, 113, 137, 178, 123, 72, 2, 0.583964
344, 2, wb, filler, NA, 999, 999, 2, 3, 77, 159, 160, 194, 176, 144, 1, 1.06255
344, 2, wb, filler, NA, 999, 999, 2, 3, 77, 159, 160, 194, 176, 144, 2, 2.00275
344, 2, wb, attraction, a-b-db, 2, 1, 2, 4, 60, 135, 135, 60, 59, 134, 3, 4.34405
344, 2, wb, attraction, a-b-db, 2, 1, 2, 4, 60, 135, 135, 60, 59, 134, 2, 1.70409
344, 2, wb, attraction, a-b-da, 5, 1, 2, 5, 132, 58, 135, 60, 60, 135, 3, 1.80143
344, 2, wb, attraction, a-b-da, 5, 1, 2, 5, 132, 58, 135, 60, 60, 135, 2, 1.36022
344, 2, wb, attraction, a-b-da, 2, 2, 2, 6, 165, 90, 163, 89, 90, 165, 3, 3.423
344, 2, wb, attraction, a-b-da, 2, 2, 2, 6, 165, 90, 163, 89, 90, 165, 2, 2.75595
344, 2, wb, filler, NA, 999, 999, 2, 7, 193, 163, 127, 78, 87, 182, 2, 4.15502
344, 2, wb, filler, NA, 999, 999, 2, 7, 193, 163, 127, 78, 87, 182, 1, 0.970996
344, 2, wb, attraction, a-b-db, 5, 3, 2, 8, 117, 190, 195, 120, 120, 195, 1, 6.65002
344, 2, wb, attraction, a-b-db, 5, 3, 2, 8, 117, 190, 195, 120, 120, 195, 3, 1.50125
344, 2, wb, filler, NA, 999, 999, 2, 9, 138, 113, 75, 163, 61, 182, 2, 1.52666
344, 2, wb, filler, NA, 999, 999, 2, 9, 138, 113, 75, 163, 61, 182, 1, 3.53616
344, 2, wb, attraction, a-b-da, 2, 3, 2, 10, 120, 195, 195, 120, 193, 119, 1, 2.99963
344, 2, wb, attraction, a-b-da, 2, 3, 2, 10, 120, 195, 195, 120, 193, 119, 3, 1.878
344, 2, wb, attraction, a-b-db, 9, 2, 2, 11, 165, 90, 90, 165, 86, 157, 3, 2.29615
344, 2, wb, attraction, a-b-db, 9, 2, 2, 11, 165, 90, 90, 165, 86, 157, 1, 1.37069
344, 2, wb, attraction, a-b-db, 14, 3, 2, 12, 120, 195, 111, 181, 195, 120, 2, 1.6095
344, 2, wb, attraction, a-b-db, 14, 3, 2, 12, 120, 195, 111, 181, 195, 120, 1, 1.24785
344, 2, wb, filler, NA, 999, 999, 2, 13, 68, 100, 93, 157, 60, 64, 3, 0.923226
344, 2, wb, filler, NA, 999, 999, 2, 13, 68, 100, 93, 157, 60, 64, 2, 0.845112
344, 2, wb, attraction, a-b-db, 14, 1, 2, 14, 60, 135, 56, 125, 135, 60, 2, 1.22461
344, 2, wb, attraction, a-b-db, 14, 1, 2, 14, 60, 135, 56, 125, 135, 60, 3, 0.926134
344, 2, wb, attraction, a-b-da, 9, 1, 2, 15, 60, 135, 129, 57, 135, 60, 1, 1.27845
344, 2, wb, attraction, a-b-da, 9, 1, 2, 15, 60, 135, 129, 57, 135, 60, 3, 1.24223
344, 2, wb, attraction, a-b-db, 2, 3, 2, 16, 120, 195, 119, 193, 195, 120, 1, 3.76559
344, 2, wb, attraction, a-b-db, 2, 3, 2, 16, 120, 195, 119, 193, 195, 120, 3, 0.981072
344, 2, wb, attraction, a-b-db, 9, 1, 2, 17, 135, 60, 60, 135, 57, 129, 2, 1.81151
344, 2, wb, attraction, a-b-db, 9, 1, 2, 17, 135, 60, 60, 135, 57, 129, 3, 1.58556
344, 2, wb, attraction, a-b-da, 2, 1, 2, 18, 135, 60, 60, 135, 134, 59, 2, 2.39953
344, 2, wb, attraction, a-b-da, 2, 1, 2, 18, 135, 60, 60, 135, 134, 59, 3, 1.60615
344, 2, wb, attraction, a-b-da, 14, 2, 2, 19, 153, 83, 90, 165, 165, 90, 2, 6.38765
344, 2, wb, attraction, a-b-da, 14, 2, 2, 19, 153, 83, 90, 165, 165, 90, 3, 0.953643
344, 2, wb, attraction, a-b-db, 5, 1, 2, 20, 60, 135, 58, 132, 135, 60, 2, 1.38513
344, 2, wb, attraction, a-b-db, 5, 1, 2, 20, 60, 135, 58, 132, 135, 60, 1, 2.13668
344, 2, wb, filler, NA, 999, 999, 2, 21, 91, 184, 104, 129, 133, 88, 2, 1.68069
344, 2, wb, filler, NA, 999, 999, 2, 21, 91, 184, 104, 129, 133, 88, 1, 1.1961
344, 2, wb, catch, NA, 999, 999, 2, 22, 104, 151, 168, 147, 98, 97, 3, 1.32973
344, 2, wb, catch, NA, 999, 999, 2, 22, 104, 151, 168, 147, 98, 97, 2, 1.09926
344, 2, wb, filler, NA, 999, 999, 2, 23, 66, 114, 155, 150, 71, 107, 1, 1.66075
344, 2, wb, filler, NA, 999, 999, 2, 23, 66, 114, 155, 150, 71, 107, 2, 1.06493
344, 2, wb, catch, NA, 999, 999, 2, 24, 95, 160, 72, 123, 140, 175, 2, 2.58809
344, 2, wb, catch, NA, 999, 999, 2, 24, 95, 160, 72, 123, 140, 175, 3, 0.866389
344, 2, wb, attraction, a-b-da, 5, 3, 2, 25, 120, 195, 195, 120, 190, 117, 1, 2.74142
344, 2, wb, attraction, a-b-da, 5, 3, 2, 25, 120, 195, 195, 120, 190, 117, 2, 1.64582
344, 2, wb, attraction, a-b-da, 9, 3, 2, 26, 195, 120, 120, 195, 186, 114, 3, 3.5773
344, 2, wb, attraction, a-b-da, 9, 3, 2, 26, 195, 120, 120, 195, 186, 114, 2, 3.24816
344, 2, wb, attraction, a-b-da, 5, 2, 2, 27, 90, 165, 165, 90, 161, 88, 3, 5.36325
344, 2, wb, attraction, a-b-da, 5, 2, 2, 27, 90, 165, 165, 90, 161, 88, 1, 5.59408
344, 2, wb, attraction, a-b-da, 14, 1, 2, 28, 135, 60, 60, 135, 125, 56, 3, 10.1503
344, 2, wb, attraction, a-b-da, 14, 1, 2, 28, 135, 60, 60, 135, 125, 56, 2, 1.08433
344, 2, wb, attraction, a-b-db, 9, 3, 2, 29, 195, 120, 114, 186, 120, 195, 2, 8.94273
344, 2, wb, attraction, a-b-db, 9, 3, 2, 29, 195, 120, 114, 186, 120, 195, 3, 1.58132
344, 2, wb, filler, NA, 999, 999, 2, 30, 133, 70, 70, 121, 84, 90, 3, 3.61924
344, 2, wb, filler, NA, 999, 999, 2, 30, 133, 70, 70, 121, 84, 90, 1, 0.808691
344, 2, wb, attraction, a-b-da, 9, 2, 2, 31, 157, 86, 165, 90, 90, 165, 3, 6.39782
344, 2, wb, attraction, a-b-da, 9, 2, 2, 31, 157, 86, 165, 90, 90, 165, 2, 0.795013
344, 2, wb, attraction, a-b-db, 2, 2, 2, 32, 90, 165, 165, 90, 89, 163, 3, 1.9288
344, 2, wb, attraction, a-b-db, 2, 2, 2, 32, 90, 165, 165, 90, 89, 163, 2, 0.914326
344, 2, wb, attraction, a-b-db, 5, 2, 2, 33, 165, 90, 88, 161, 90, 165, 2, 2.62715
344, 2, wb, attraction, a-b-db, 5, 2, 2, 33, 165, 90, 88, 161, 90, 165, 3, 1.08038
344, 2, wb, filler, NA, 999, 999, 2, 34, 69, 58, 67, 114, 184, 140, 1, 1.30664
344, 2, wb, filler, NA, 999, 999, 2, 34, 69, 58, 67, 114, 184, 140, 3, 1.20481
344, 2, wb, filler, NA, 999, 999, 2, 35, 159, 75, 178, 156, 97, 59, 3, 1.39436
344, 2, wb, filler, NA, 999, 999, 2, 35, 159, 75, 178, 156, 97, 59, 2, 0.47328
344, 2, wb, attraction, a-b-da, 14, 3, 2, 36, 195, 120, 120, 195, 181, 111, 2, 3.08369
344, 2, wb, attraction, a-b-da, 14, 3, 2, 36, 195, 120, 120, 195, 181, 111, 3, 2.79878
344, 2, wb, attraction, a-b-db, 14, 2, 2, 37, 165, 90, 90, 165, 83, 153, 3, 1.47577
344, 2, wb, attraction, a-b-db, 14, 2, 2, 37, 165, 90, 90, 165, 83, 153, 1, 2.07928
344, 2, wb, attraction, a-b-db, 5, 2, 3, 1, 90, 165, 88, 161, 165, 90, 2, 3.63321
344, 2, wb, attraction, a-b-db, 5, 2, 3, 1, 90, 165, 88, 161, 165, 90, 1, 0.862121
344, 2, wb, filler, NA, 999, 999, 3, 2, 182, 117, 92, 179, 60, 141, 3, 0.817054
344, 2, wb, filler, NA, 999, 999, 3, 2, 182, 117, 92, 179, 60, 141, 1, 1.14358
344, 2, wb, attraction, a-b-da, 2, 3, 3, 3, 193, 119, 195, 120, 120, 195, 3, 9.33515
344, 2, wb, attraction, a-b-da, 2, 3, 3, 3, 193, 119, 195, 120, 120, 195, 2, 0.798054
344, 2, wb, catch, NA, 999, 999, 3, 4, 129, 126, 161, 154, 104, 91, 3, 0.891794
344, 2, wb, catch, NA, 999, 999, 3, 4, 129, 126, 161, 154, 104, 91, 2, 0.590808
344, 2, wb, attraction, a-b-da, 9, 3, 3, 5, 186, 114, 195, 120, 120, 195, 3, 2.0206
344, 2, wb, attraction, a-b-da, 9, 3, 3, 5, 186, 114, 195, 120, 120, 195, 2, 0.73789
344, 2, wb, filler, NA, 999, 999, 3, 6, 62, 139, 103, 125, 125, 120, 1, 1.36236
344, 2, wb, filler, NA, 999, 999, 3, 6, 62, 139, 103, 125, 125, 120, 3, 1.59462
344, 2, wb, attraction, a-b-da, 2, 2, 3, 7, 163, 89, 90, 165, 165, 90, 1, 2.10392
344, 2, wb, attraction, a-b-da, 2, 2, 3, 7, 163, 89, 90, 165, 165, 90, 2, 0.954603
344, 2, wb, attraction, a-b-da, 5, 1, 3, 8, 132, 58, 135, 60, 60, 135, 3, 3.3462
344, 2, wb, attraction, a-b-da, 5, 1, 3, 8, 132, 58, 135, 60, 60, 135, 2, 0.594441
344, 2, wb, attraction, a-b-db, 9, 2, 3, 9, 90, 165, 86, 157, 165, 90, 1, 2.15229
344, 2, wb, attraction, a-b-db, 9, 2, 3, 9, 90, 165, 86, 157, 165, 90, 3, 1.55299
344, 2, wb, attraction, a-b-db, 5, 1, 3, 10, 60, 135, 58, 132, 135, 60, 2, 0.9364
344, 2, wb, attraction, a-b-db, 5, 1, 3, 10, 60, 135, 58, 132, 135, 60, 3, 2.47405
344, 2, wb, attraction, a-b-da, 5, 3, 3, 11, 190, 117, 195, 120, 120, 195, 3, 1.49189
344, 2, wb, attraction, a-b-da, 5, 3, 3, 11, 190, 117, 195, 120, 120, 195, 2, 0.654748
344, 2, wb, filler, NA, 999, 999, 3, 12, 149, 134, 163, 140, 186, 80, 3, 1.53839
344, 2, wb, filler, NA, 999, 999, 3, 12, 149, 134, 163, 140, 186, 80, 2, 0.947301
344, 2, wb, attraction, a-b-db, 2, 2, 3, 13, 90, 165, 165, 90, 89, 163, 2, 1.63485
344, 2, wb, attraction, a-b-db, 2, 2, 3, 13, 90, 165, 165, 90, 89, 163, 3, 1.25644
344, 2, wb, attraction, a-b-da, 9, 1, 3, 14, 129, 57, 135, 60, 60, 135, 1, 1.36318
344, 2, wb, attraction, a-b-da, 9, 1, 3, 14, 129, 57, 135, 60, 60, 135, 3, 1.09147
344, 2, wb, filler, NA, 999, 999, 3, 15, 105, 93, 170, 80, 60, 166, 1, 1.34916
344, 2, wb, filler, NA, 999, 999, 3, 15, 105, 93, 170, 80, 60, 166, 2, 0.589982
344, 2, wb, attraction, a-b-da, 14, 1, 3, 16, 135, 60, 60, 135, 125, 56, 3, 2.24381
344, 2, wb, attraction, a-b-da, 14, 1, 3, 16, 135, 60, 60, 135, 125, 56, 2, 0.720447
344, 2, wb, filler, NA, 999, 999, 3, 17, 97, 191, 96, 71, 169, 182, 2, 1.01731
344, 2, wb, filler, NA, 999, 999, 3, 17, 97, 191, 96, 71, 169, 182, 3, 0.959713
344, 2, wb, attraction, a-b-da, 9, 2, 3, 18, 90, 165, 157, 86, 165, 90, 3, 1.73477
344, 2, wb, attraction, a-b-da, 9, 2, 3, 18, 90, 165, 157, 86, 165, 90, 2, 0.664111
344, 2, wb, catch, NA, 999, 999, 3, 19, 116, 79, 124, 191, 112, 143, 1, 0.915227
344, 2, wb, catch, NA, 999, 999, 3, 19, 116, 79, 124, 191, 112, 143, 2, 0.66153
344, 2, wb, filler, NA, 999, 999, 3, 20, 133, 138, 142, 60, 94, 127, 3, 2.92855
344, 2, wb, filler, NA, 999, 999, 3, 20, 133, 138, 142, 60, 94, 127, 1, 1.02566
344, 2, wb, attraction, a-b-db, 14, 1, 3, 21, 60, 135, 135, 60, 56, 125, 2, 1.64592
344, 2, wb, attraction, a-b-db, 14, 1, 3, 21, 60, 135, 135, 60, 56, 125, 1, 1.15475
344, 2, wb, attraction, a-b-db, 9, 3, 3, 22, 195, 120, 120, 195, 114, 186, 2, 2.92234
344, 2, wb, attraction, a-b-db, 9, 3, 3, 22, 195, 120, 120, 195, 114, 186, 1, 1.35549
344, 2, wb, attraction, a-b-da, 14, 2, 3, 23, 153, 83, 90, 165, 165, 90, 1, 1.7708
344, 2, wb, attraction, a-b-da, 14, 2, 3, 23, 153, 83, 90, 165, 165, 90, 2, 0.890273
344, 2, wb, attraction, a-b-db, 14, 2, 3, 24, 90, 165, 83, 153, 165, 90, 2, 1.79601
344, 2, wb, attraction, a-b-db, 14, 2, 3, 24, 90, 165, 83, 153, 165, 90, 3, 1.32272
344, 2, wb, filler, NA, 999, 999, 3, 25, 129, 74, 59, 168, 144, 165, 1, 2.20365
344, 2, wb, filler, NA, 999, 999, 3, 25, 129, 74, 59, 168, 144, 165, 3, 0.946137
344, 2, wb, attraction, a-b-db, 9, 1, 3, 26, 135, 60, 57, 129, 60, 135, 2, 1.09797
344, 2, wb, attraction, a-b-db, 9, 1, 3, 26, 135, 60, 57, 129, 60, 135, 3, 0.676743
344, 2, wb, filler, NA, 999, 999, 3, 27, 178, 115, 173, 151, 82, 65, 3, 0.911196
344, 2, wb, filler, NA, 999, 999, 3, 27, 178, 115, 173, 151, 82, 65, 2, 0.673608
344, 2, wb, attraction, a-b-da, 2, 1, 3, 28, 134, 59, 135, 60, 60, 135, 3, 1.34788
344, 2, wb, attraction, a-b-da, 2, 1, 3, 28, 134, 59, 135, 60, 60, 135, 2, 0.620775
344, 2, wb, attraction, a-b-da, 5, 2, 3, 29, 165, 90, 90, 165, 161, 88, 3, 2.14593
344, 2, wb, attraction, a-b-da, 5, 2, 3, 29, 165, 90, 90, 165, 161, 88, 2, 0.682713
344, 2, wb, filler, NA, 999, 999, 3, 30, 130, 188, 186, 141, 70, 150, 3, 0.652954
344, 2, wb, filler, NA, 999, 999, 3, 30, 130, 188, 186, 141, 70, 150, 2, 0.609993
344, 2, wb, filler, NA, 999, 999, 3, 31, 118, 115, 93, 117, 68, 149, 3, 1.86316
344, 2, wb, filler, NA, 999, 999, 3, 31, 118, 115, 93, 117, 68, 149, 1, 0.963245
344, 2, wb, attraction, a-b-db, 5, 3, 3, 32, 195, 120, 120, 195, 117, 190, 2, 1.25017
344, 2, wb, attraction, a-b-db, 5, 3, 3, 32, 195, 120, 120, 195, 117, 190, 3, 1.09508
344, 2, wb, catch, NA, 999, 999, 3, 33, 150, 105, 162, 153, 99, 96, 3, 0.776696
344, 2, wb, catch, NA, 999, 999, 3, 33, 150, 105, 162, 153, 99, 96, 2, 0.824447
344, 2, wb, attraction, a-b-db, 14, 3, 3, 34, 120, 195, 195, 120, 111, 181, 3, 1.91679
344, 2, wb, attraction, a-b-db, 14, 3, 3, 34, 120, 195, 195, 120, 111, 181, 2, 0.630803
344, 2, wb, attraction, a-b-da, 14, 3, 3, 35, 120, 195, 195, 120, 181, 111, 3, 6.13927
344, 2, wb, attraction, a-b-da, 14, 3, 3, 35, 120, 195, 195, 120, 181, 111, 2, 0.778566
344, 2, wb, attraction, a-b-db, 2, 1, 3, 36, 60, 135, 135, 60, 59, 134, 2, 0.848939
344, 2, wb, attraction, a-b-db, 2, 1, 3, 36, 60, 135, 135, 60, 59, 134, 1, 0.950105
344, 2, wb, attraction, a-b-db, 2, 3, 3, 37, 119, 193, 120, 195, 195, 120, 1, 1.39768
344, 2, wb, attraction, a-b-db, 2, 3, 3, 37, 119, 193, 120, 195, 195, 120, 3, 0.708642
344, 2, wb, filler, NA, 999, 999, 4, 1, 194, 137, 191, 121, 105, 140, 3, 0.78166
344, 2, wb, filler, NA, 999, 999, 4, 1, 194, 137, 191, 121, 105, 140, 2, 0.893285
344, 2, wb, filler, NA, 999, 999, 4, 2, 185, 154, 110, 118, 65, 159, 3, 0.806979
344, 2, wb, filler, NA, 999, 999, 4, 2, 185, 154, 110, 118, 65, 159, 1, 0.717319
344, 2, wb, attraction, a-b-db, 14, 3, 4, 3, 195, 120, 120, 195, 111, 181, 1, 1.23842
344, 2, wb, attraction, a-b-db, 14, 3, 4, 3, 195, 120, 120, 195, 111, 181, 2, 0.955356
344, 2, wb, attraction, a-b-da, 9, 2, 4, 4, 90, 165, 157, 86, 165, 90, 2, 1.12296
344, 2, wb, attraction, a-b-da, 9, 2, 4, 4, 90, 165, 157, 86, 165, 90, 3, 1.01262
344, 2, wb, attraction, a-b-db, 5, 2, 4, 5, 90, 165, 88, 161, 165, 90, 2, 1.48147
344, 2, wb, attraction, a-b-db, 5, 2, 4, 5, 90, 165, 88, 161, 165, 90, 3, 0.901146
344, 2, wb, attraction, a-b-db, 5, 1, 4, 6, 135, 60, 60, 135, 58, 132, 2, 1.71072
344, 2, wb, attraction, a-b-db, 5, 1, 4, 6, 135, 60, 60, 135, 58, 132, 1, 1.10479
344, 2, wb, attraction, a-b-db, 9, 1, 4, 7, 57, 129, 60, 135, 135, 60, 2, 0.85838
344, 2, wb, attraction, a-b-db, 9, 1, 4, 7, 57, 129, 60, 135, 135, 60, 3, 1.24693
344, 2, wb, attraction, a-b-da, 5, 1, 4, 8, 132, 58, 135, 60, 60, 135, 1, 1.97836
344, 2, wb, attraction, a-b-da, 5, 1, 4, 8, 132, 58, 135, 60, 60, 135, 3, 0.54577
344, 2, wb, attraction, a-b-da, 2, 3, 4, 9, 120, 195, 193, 119, 195, 120, 1, 5.61747
344, 2, wb, attraction, a-b-da, 2, 3, 4, 9, 120, 195, 193, 119, 195, 120, 2, 0.766385
344, 2, wb, attraction, a-b-da, 2, 1, 4, 10, 134, 59, 60, 135, 135, 60, 2, 1.00535
344, 2, wb, attraction, a-b-da, 2, 1, 4, 10, 134, 59, 60, 135, 135, 60, 3, 2.85971
344, 2, wb, attraction, a-b-da, 5, 2, 4, 11, 165, 90, 161, 88, 90, 165, 3, 8.0621
344, 2, wb, attraction, a-b-da, 5, 2, 4, 11, 165, 90, 161, 88, 90, 165, 1, 0.912167
344, 2, wb, filler, NA, 999, 999, 4, 12, 82, 84, 190, 190, 96, 192, 1, 0.929119
344, 2, wb, filler, NA, 999, 999, 4, 12, 82, 84, 190, 190, 96, 192, 2, 0.530838
344, 2, wb, attraction, a-b-db, 2, 2, 4, 13, 165, 90, 89, 163, 90, 165, 2, 3.0194
344, 2, wb, attraction, a-b-db, 2, 2, 4, 13, 165, 90, 89, 163, 90, 165, 1, 1.11297
344, 2, wb, catch, NA, 999, 999, 4, 14, 91, 164, 66, 129, 158, 157, 2, 1.08995
344, 2, wb, catch, NA, 999, 999, 4, 14, 91, 164, 66, 129, 158, 157, 3, 0.548867
344, 2, wb, filler, NA, 999, 999, 4, 15, 110, 194, 153, 178, 171, 126, 3, 4.55666
344, 2, wb, filler, NA, 999, 999, 4, 15, 110, 194, 153, 178, 171, 126, 2, 0.707913
344, 2, wb, attraction, a-b-da, 2, 2, 4, 16, 163, 89, 90, 165, 165, 90, 1, 0.876935
344, 2, wb, attraction, a-b-da, 2, 2, 4, 16, 163, 89, 90, 165, 165, 90, 3, 1.69674
344, 2, wb, filler, NA, 999, 999, 4, 17, 79, 92, 92, 60, 95, 180, 2, 1.55406
344, 2, wb, filler, NA, 999, 999, 4, 17, 79, 92, 92, 60, 95, 180, 3, 0.842319
344, 2, wb, filler, NA, 999, 999, 4, 18, 179, 182, 85, 98, 94, 105, 2, 1.8699
344, 2, wb, filler, NA, 999, 999, 4, 18, 179, 182, 85, 98, 94, 105, 1, 0.705896
344, 2, wb, attraction, a-b-da, 14, 2, 4, 19, 165, 90, 90, 165, 153, 83, 3, 3.07562
344, 2, wb, attraction, a-b-da, 14, 2, 4, 19, 165, 90, 90, 165, 153, 83, 1, 0.77462
344, 2, wb, catch, NA, 999, 999, 4, 20, 112, 143, 76, 119, 170, 145, 2, 1.19706
344, 2, wb, catch, NA, 999, 999, 4, 20, 112, 143, 76, 119, 170, 145, 3, 0.603968
344, 2, wb, attraction, a-b-da, 9, 1, 4, 21, 60, 135, 129, 57, 135, 60, 2, 1.31378
344, 2, wb, attraction, a-b-da, 9, 1, 4, 21, 60, 135, 129, 57, 135, 60, 3, 1.21999
344, 2, wb, attraction, a-b-db, 5, 3, 4, 22, 117, 190, 195, 120, 120, 195, 1, 7.20887
344, 2, wb, attraction, a-b-db, 5, 3, 4, 22, 117, 190, 195, 120, 120, 195, 2, 1.42931
344, 2, wb, catch, NA, 999, 999, 4, 23, 148, 107, 108, 87, 138, 177, 2, 0.793482
344, 2, wb, catch, NA, 999, 999, 4, 23, 148, 107, 108, 87, 138, 177, 3, 0.888467
344, 2, wb, attraction, a-b-db, 9, 3, 4, 24, 120, 195, 114, 186, 195, 120, 2, 2.49089
344, 2, wb, attraction, a-b-db, 9, 3, 4, 24, 120, 195, 114, 186, 195, 120, 3, 0.869345
344, 2, wb, attraction, a-b-da, 14, 3, 4, 25, 181, 111, 195, 120, 120, 195, 3, 5.66436
344, 2, wb, attraction, a-b-da, 14, 3, 4, 25, 181, 111, 195, 120, 120, 195, 2, 0.603153
344, 2, wb, filler, NA, 999, 999, 4, 26, 83, 86, 59, 60, 144, 132, 2, 1.25689
344, 2, wb, filler, NA, 999, 999, 4, 26, 83, 86, 59, 60, 144, 132, 3, 0.565179
344, 2, wb, attraction, a-b-da, 5, 3, 4, 27, 190, 117, 120, 195, 195, 120, 3, 1.54827
344, 2, wb, attraction, a-b-da, 5, 3, 4, 27, 190, 117, 120, 195, 195, 120, 2, 0.701135
344, 2, wb, attraction, a-b-da, 9, 3, 4, 28, 195, 120, 186, 114, 120, 195, 3, 3.0389
344, 2, wb, attraction, a-b-da, 9, 3, 4, 28, 195, 120, 186, 114, 120, 195, 1, 0.891304
344, 2, wb, attraction, a-b-db, 2, 3, 4, 29, 120, 195, 195, 120, 119, 193, 3, 1.38086
344, 2, wb, attraction, a-b-db, 2, 3, 4, 29, 120, 195, 195, 120, 119, 193, 1, 1.20445
344, 2, wb, filler, NA, 999, 999, 4, 30, 98, 111, 190, 128, 67, 193, 1, 0.897936
344, 2, wb, filler, NA, 999, 999, 4, 30, 98, 111, 190, 128, 67, 193, 2, 0.828983
344, 2, wb, attraction, a-b-da, 14, 1, 4, 31, 135, 60, 60, 135, 125, 56, 3, 3.28938
344, 2, wb, attraction, a-b-da, 14, 1, 4, 31, 135, 60, 60, 135, 125, 56, 1, 1.44371
344, 2, wb, attraction, a-b-db, 14, 1, 4, 32, 56, 125, 135, 60, 60, 135, 3, 13.9351
344, 2, wb, attraction, a-b-db, 14, 1, 4, 32, 56, 125, 135, 60, 60, 135, 2, 0.836709
344, 2, wb, filler, NA, 999, 999, 4, 33, 105, 178, 161, 174, 90, 95, 3, 0.873031
344, 2, wb, filler, NA, 999, 999, 4, 33, 105, 178, 161, 174, 90, 95, 2, 0.644714
344, 2, wb, attraction, a-b-db, 2, 1, 4, 34, 135, 60, 60, 135, 59, 134, 3, 4.74462
344, 2, wb, attraction, a-b-db, 2, 1, 4, 34, 135, 60, 60, 135, 59, 134, 2, 0.640347
344, 2, wb, attraction, a-b-db, 9, 2, 4, 35, 90, 165, 165, 90, 86, 157, 3, 5.78006
344, 2, wb, attraction, a-b-db, 9, 2, 4, 35, 90, 165, 165, 90, 86, 157, 1, 0.458164
344, 2, wb, filler, NA, 999, 999, 4, 36, 119, 78, 160, 166, 82, 135, 3, 1.45334
344, 2, wb, filler, NA, 999, 999, 4, 36, 119, 78, 160, 166, 82, 135, 2, 0.330165
344, 2, wb, attraction, a-b-db, 14, 2, 4, 37, 90, 165, 83, 153, 165, 90, 2, 1.76277
344, 2, wb, attraction, a-b-db, 14, 2, 4, 37, 90, 165, 83, 153, 165, 90, 3, 0.570839
344, 2, wb, filler, NA, 999, 999, 5, 1, 114, 130, 164, 100, 107, 195, 1, 3.18386
344, 2, wb, filler, NA, 999, 999, 5, 1, 114, 130, 164, 100, 107, 195, 3, 0.606884
344, 2, wb, attraction, a-b-da, 14, 3, 5, 2, 181, 111, 195, 120, 120, 195, 1, 2.48404
344, 2, wb, attraction, a-b-da, 14, 3, 5, 2, 181, 111, 195, 120, 120, 195, 3, 0.543145
344, 2, wb, attraction, a-b-db, 5, 2, 5, 3, 165, 90, 90, 165, 88, 161, 3, 2.31093
344, 2, wb, attraction, a-b-db, 5, 2, 5, 3, 165, 90, 90, 165, 88, 161, 1, 0.792798
344, 2, wb, attraction, a-b-da, 9, 1, 5, 4, 135, 60, 129, 57, 60, 135, 2, 0.878605
344, 2, wb, attraction, a-b-da, 9, 1, 5, 4, 135, 60, 129, 57, 60, 135, 3, 0.570168
344, 2, wb, catch, NA, 999, 999, 5, 5, 155, 160, 90, 105, 110, 145, 2, 0.673319
344, 2, wb, catch, NA, 999, 999, 5, 5, 155, 160, 90, 105, 110, 145, 1, 0.492994
344, 2, wb, attraction, a-b-db, 5, 3, 5, 6, 195, 120, 120, 195, 117, 190, 3, 1.02288
344, 2, wb, attraction, a-b-db, 5, 3, 5, 6, 195, 120, 120, 195, 117, 190, 2, 0.5485
344, 2, wb, attraction, a-b-da, 2, 3, 5, 7, 120, 195, 193, 119, 195, 120, 1, 1.7484
344, 2, wb, attraction, a-b-da, 2, 3, 5, 7, 120, 195, 193, 119, 195, 120, 3, 0.493093
344, 2, wb, filler, NA, 999, 999, 5, 8, 79, 166, 125, 133, 65, 121, 3, 0.990789
344, 2, wb, filler, NA, 999, 999, 5, 8, 79, 166, 125, 133, 65, 121, 2, 0.621787
344, 2, wb, attraction, a-b-db, 9, 1, 5, 9, 57, 129, 135, 60, 60, 135, 1, 1.13094
344, 2, wb, attraction, a-b-db, 9, 1, 5, 9, 57, 129, 135, 60, 60, 135, 2, 1.03649
344, 2, wb, filler, NA, 999, 999, 5, 10, 121, 144, 123, 143, 191, 153, 1, 0.944858
344, 2, wb, filler, NA, 999, 999, 5, 10, 121, 144, 123, 143, 191, 153, 3, 0.481818
344, 2, wb, attraction, a-b-da, 14, 2, 5, 11, 153, 83, 90, 165, 165, 90, 1, 1.97226
344, 2, wb, attraction, a-b-da, 14, 2, 5, 11, 153, 83, 90, 165, 165, 90, 2, 0.507657
344, 2, wb, attraction, a-b-da, 9, 3, 5, 12, 195, 120, 120, 195, 186, 114, 2, 2.02877
344, 2, wb, attraction, a-b-da, 9, 3, 5, 12, 195, 120, 120, 195, 186, 114, 3, 0.402104
344, 2, wb, filler, NA, 999, 999, 5, 13, 191, 116, 106, 185, 157, 118, 2, 0.679867
344, 2, wb, filler, NA, 999, 999, 5, 13, 191, 116, 106, 185, 157, 118, 1, 0.379611
344, 2, wb, attraction, a-b-da, 9, 2, 5, 14, 157, 86, 165, 90, 90, 165, 2, 1.01012
344, 2, wb, attraction, a-b-da, 9, 2, 5, 14, 157, 86, 165, 90, 90, 165, 3, 0.560469
344, 2, wb, attraction, a-b-db, 14, 2, 5, 15, 165, 90, 83, 153, 90, 165, 2, 0.575563
344, 2, wb, attraction, a-b-db, 14, 2, 5, 15, 165, 90, 83, 153, 90, 165, 3, 0.551356
344, 2, wb, filler, NA, 999, 999, 5, 16, 183, 72, 139, 75, 67, 75, 3, 0.639204
344, 2, wb, filler, NA, 999, 999, 5, 16, 183, 72, 139, 75, 67, 75, 1, 0.676325
344, 2, wb, attraction, a-b-da, 2, 2, 5, 17, 165, 90, 90, 165, 163, 89, 1, 1.25462
344, 2, wb, attraction, a-b-da, 2, 2, 5, 17, 165, 90, 90, 165, 163, 89, 2, 0.46686
344, 2, wb, attraction, a-b-da, 2, 1, 5, 18, 60, 135, 134, 59, 135, 60, 2, 1.10996
344, 2, wb, attraction, a-b-da, 2, 1, 5, 18, 60, 135, 134, 59, 135, 60, 3, 0.904303
344, 2, wb, attraction, a-b-db, 14, 3, 5, 19, 195, 120, 120, 195, 111, 181, 3, 1.43391
344, 2, wb, attraction, a-b-db, 14, 3, 5, 19, 195, 120, 120, 195, 111, 181, 2, 0.655505
344, 2, wb, filler, NA, 999, 999, 5, 20, 77, 141, 110, 110, 116, 163, 2, 1.72317
344, 2, wb, filler, NA, 999, 999, 5, 20, 77, 141, 110, 110, 116, 163, 3, 0.764694
344, 2, wb, attraction, a-b-db, 2, 3, 5, 21, 120, 195, 195, 120, 119, 193, 1, 1.77172
344, 2, wb, attraction, a-b-db, 2, 3, 5, 21, 120, 195, 195, 120, 119, 193, 2, 0.411212
344, 2, wb, filler, NA, 999, 999, 5, 22, 159, 109, 176, 180, 161, 161, 1, 0.84819
344, 2, wb, filler, NA, 999, 999, 5, 22, 159, 109, 176, 180, 161, 161, 2, 0.533263
344, 2, wb, attraction, a-b-db, 5, 1, 5, 23, 60, 135, 135, 60, 58, 132, 2, 0.725796
344, 2, wb, attraction, a-b-db, 5, 1, 5, 23, 60, 135, 135, 60, 58, 132, 3, 0.503456
344, 2, wb, filler, NA, 999, 999, 5, 24, 106, 173, 141, 84, 57, 186, 2, 1.80928
344, 2, wb, filler, NA, 999, 999, 5, 24, 106, 173, 141, 84, 57, 186, 1, 0.303357
344, 2, wb, catch, NA, 999, 999, 5, 25, 121, 74, 91, 164, 123, 192, 1, 0.833181
344, 2, wb, catch, NA, 999, 999, 5, 25, 121, 74, 91, 164, 123, 192, 3, 0.342933
344, 2, wb, attraction, a-b-db, 2, 2, 5, 26, 90, 165, 165, 90, 89, 163, 3, 2.14274
344, 2, wb, attraction, a-b-db, 2, 2, 5, 26, 90, 165, 165, 90, 89, 163, 2, 1.05535
344, 2, wb, attraction, a-b-db, 9, 2, 5, 27, 165, 90, 86, 157, 90, 165, 3, 2.883
344, 2, wb, attraction, a-b-db, 9, 2, 5, 27, 165, 90, 86, 157, 90, 165, 1, 0.534065
344, 2, wb, catch, NA, 999, 999, 5, 28, 62, 133, 149, 166, 120, 135, 1, 0.742553
344, 2, wb, catch, NA, 999, 999, 5, 28, 62, 133, 149, 166, 120, 135, 2, 0.335607
344, 2, wb, attraction, a-b-db, 9, 3, 5, 29, 195, 120, 120, 195, 114, 186, 3, 1.20008
344, 2, wb, attraction, a-b-db, 9, 3, 5, 29, 195, 120, 120, 195, 114, 186, 2, 0.415026
344, 2, wb, attraction, a-b-da, 5, 1, 5, 30, 132, 58, 135, 60, 60, 135, 3, 1.25215
344, 2, wb, attraction, a-b-da, 5, 1, 5, 30, 132, 58, 135, 60, 60, 135, 2, 0.505077
344, 2, wb, filler, NA, 999, 999, 5, 31, 166, 124, 125, 82, 133, 163, 2, 1.01084
344, 2, wb, filler, NA, 999, 999, 5, 31, 166, 124, 125, 82, 133, 163, 3, 0.321172
344, 2, wb, filler, NA, 999, 999, 5, 32, 116, 161, 169, 59, 134, 80, 3, 1.57831
344, 2, wb, filler, NA, 999, 999, 5, 32, 116, 161, 169, 59, 134, 80, 1, 0.361871
344, 2, wb, attraction, a-b-da, 14, 1, 5, 33, 60, 135, 135, 60, 125, 56, 3, 0.689069
344, 2, wb, attraction, a-b-da, 14, 1, 5, 33, 60, 135, 135, 60, 125, 56, 2, 0.78009
344, 2, wb, attraction, a-b-db, 14, 1, 5, 34, 135, 60, 60, 135, 56, 125, 3, 0.706509
344, 2, wb, attraction, a-b-db, 14, 1, 5, 34, 135, 60, 60, 135, 56, 125, 1, 1.00491
344, 2, wb, attraction, a-b-da, 5, 3, 5, 35, 195, 120, 120, 195, 190, 117, 3, 1.10663
344, 2, wb, attraction, a-b-da, 5, 3, 5, 35, 195, 120, 120, 195, 190, 117, 2, 0.308878
344, 2, wb, attraction, a-b-db, 2, 1, 5, 36, 59, 134, 60, 135, 135, 60, 3, 0.82199
344, 2, wb, attraction, a-b-db, 2, 1, 5, 36, 59, 134, 60, 135, 135, 60, 2, 0.355668
344, 2, wb, attraction, a-b-da, 5, 2, 5, 37, 165, 90, 90, 165, 161, 88, 3, 0.947617
344, 2, wb, attraction, a-b-da, 5, 2, 5, 37, 165, 90, 90, 165, 161, 88, 2, 0.388493
344, 2, wb, attraction, a-b-db, 2, 1, 6, 1, 60, 135, 59, 134, 135, 60, 2, 1.05101
344, 2, wb, attraction, a-b-db, 2, 1, 6, 1, 60, 135, 59, 134, 135, 60, 3, 0.680043
344, 2, wb, attraction, a-b-db, 5, 2, 6, 2, 165, 90, 90, 165, 88, 161, 2, 1.17038
344, 2, wb, attraction, a-b-db, 5, 2, 6, 2, 165, 90, 90, 165, 88, 161, 3, 0.457982
344, 2, wb, filler, NA, 999, 999, 6, 3, 85, 160, 116, 96, 137, 189, 2, 0.741145
344, 2, wb, filler, NA, 999, 999, 6, 3, 85, 160, 116, 96, 137, 189, 3, 0.454168
344, 2, wb, attraction, a-b-db, 2, 2, 6, 4, 89, 163, 165, 90, 90, 165, 3, 1.32193
344, 2, wb, attraction, a-b-db, 2, 2, 6, 4, 89, 163, 165, 90, 90, 165, 2, 0.595795
344, 2, wb, attraction, a-b-da, 14, 1, 6, 5, 60, 135, 135, 60, 125, 56, 1, 2.63331
344, 2, wb, attraction, a-b-da, 14, 1, 6, 5, 60, 135, 135, 60, 125, 56, 2, 0.782483
344, 2, wb, attraction, a-b-db, 14, 1, 6, 6, 135, 60, 56, 125, 60, 135, 2, 1.74879
344, 2, wb, attraction, a-b-db, 14, 1, 6, 6, 135, 60, 56, 125, 60, 135, 3, 0.685668
344, 2, wb, attraction, a-b-db, 9, 3, 6, 7, 120, 195, 195, 120, 114, 186, 3, 2.08802
344, 2, wb, attraction, a-b-db, 9, 3, 6, 7, 120, 195, 195, 120, 114, 186, 2, 1.01065
344, 2, wb, filler, NA, 999, 999, 6, 8, 58, 61, 67, 188, 172, 185, 1, 0.783561
344, 2, wb, filler, NA, 999, 999, 6, 8, 58, 61, 67, 188, 172, 185, 3, 0.463338
344, 2, wb, attraction, a-b-db, 9, 2, 6, 9, 86, 157, 165, 90, 90, 165, 1, 1.01038
344, 2, wb, attraction, a-b-db, 9, 2, 6, 9, 86, 157, 165, 90, 90, 165, 2, 0.544806
344, 2, wb, filler, NA, 999, 999, 6, 10, 165, 153, 186, 106, 79, 176, 3, 1.49669
344, 2, wb, filler, NA, 999, 999, 6, 10, 165, 153, 186, 106, 79, 176, 1, 0.40351
344, 2, wb, attraction, a-b-da, 14, 2, 6, 11, 153, 83, 90, 165, 165, 90, 1, 0.897129
344, 2, wb, attraction, a-b-da, 14, 2, 6, 11, 153, 83, 90, 165, 165, 90, 3, 1.02034
344, 2, wb, catch, NA, 999, 999, 6, 12, 103, 152, 82, 113, 144, 171, 2, 0.673204
344, 2, wb, catch, NA, 999, 999, 6, 12, 103, 152, 82, 113, 144, 171, 3, 0.308996
344, 2, wb, attraction, a-b-da, 2, 3, 6, 13, 195, 120, 120, 195, 193, 119, 2, 1.88612
344, 2, wb, attraction, a-b-da, 2, 3, 6, 13, 195, 120, 120, 195, 193, 119, 3, 0.465465
344, 2, wb, attraction, a-b-da, 9, 1, 6, 14, 135, 60, 129, 57, 60, 135, 2, 0.69259
344, 2, wb, attraction, a-b-da, 9, 1, 6, 14, 135, 60, 129, 57, 60, 135, 1, 0.567837
344, 2, wb, attraction, a-b-da, 5, 2, 6, 15, 161, 88, 90, 165, 165, 90, 1, 2.19085
344, 2, wb, attraction, a-b-da, 5, 2, 6, 15, 161, 88, 90, 165, 165, 90, 3, 1.7575
344, 2, wb, catch, NA, 999, 999, 6, 16, 103, 152, 134, 61, 186, 129, 2, 0.628146
344, 2, wb, catch, NA, 999, 999, 6, 16, 103, 152, 134, 61, 186, 129, 3, 0.313981
344, 2, wb, filler, NA, 999, 999, 6, 17, 71, 73, 92, 185, 167, 195, 1, 0.61113
344, 2, wb, filler, NA, 999, 999, 6, 17, 71, 73, 92, 185, 167, 195, 3, 0.777564
344, 2, wb, attraction, a-b-db, 14, 2, 6, 18, 83, 153, 165, 90, 90, 165, 1, 1.32788
344, 2, wb, attraction, a-b-db, 14, 2, 6, 18, 83, 153, 165, 90, 90, 165, 2, 0.401548
344, 2, wb, filler, NA, 999, 999, 6, 19, 158, 111, 152, 137, 145, 73, 3, 0.863419
344, 2, wb, filler, NA, 999, 999, 6, 19, 158, 111, 152, 137, 145, 73, 2, 0.443628
344, 2, wb, filler, NA, 999, 999, 6, 20, 108, 172, 78, 112, 98, 112, 2, 0.615468
344, 2, wb, filler, NA, 999, 999, 6, 20, 108, 172, 78, 112, 98, 112, 1, 0.389931
344, 2, wb, attraction, a-b-db, 2, 3, 6, 21, 119, 193, 120, 195, 195, 120, 1, 2.67577
344, 2, wb, attraction, a-b-db, 2, 3, 6, 21, 119, 193, 120, 195, 195, 120, 3, 0.502894
344, 2, wb, attraction, a-b-da, 9, 3, 6, 22, 120, 195, 186, 114, 195, 120, 1, 8.2167
344, 2, wb, attraction, a-b-da, 9, 3, 6, 22, 120, 195, 186, 114, 195, 120, 3, 0.692762
344, 2, wb, filler, NA, 999, 999, 6, 23, 137, 68, 170, 172, 189, 150, 1, 1.0944
344, 2, wb, filler, NA, 999, 999, 6, 23, 137, 68, 170, 172, 189, 150, 3, 0.601474
344, 2, wb, attraction, a-b-da, 2, 1, 6, 24, 60, 135, 134, 59, 135, 60, 1, 1.07918
344, 2, wb, attraction, a-b-da, 2, 1, 6, 24, 60, 135, 134, 59, 135, 60, 2, 1.40286
344, 2, wb, attraction, a-b-da, 14, 3, 6, 25, 195, 120, 120, 195, 181, 111, 2, 5.20033
344, 2, wb, attraction, a-b-da, 14, 3, 6, 25, 195, 120, 120, 195, 181, 111, 1, 0.781975
344, 2, wb, filler, NA, 999, 999, 6, 26, 71, 172, 180, 179, 117, 64, 3, 1.54036
344, 2, wb, filler, NA, 999, 999, 6, 26, 71, 172, 180, 179, 117, 64, 2, 0.493271
344, 2, wb, attraction, a-b-da, 9, 2, 6, 27, 165, 90, 90, 165, 157, 86, 2, 2.93507
344, 2, wb, attraction, a-b-da, 9, 2, 6, 27, 165, 90, 90, 165, 157, 86, 1, 0.792025
344, 2, wb, attraction, a-b-db, 5, 1, 6, 28, 58, 132, 60, 135, 135, 60, 2, 1.34173
344, 2, wb, attraction, a-b-db, 5, 1, 6, 28, 58, 132, 60, 135, 135, 60, 1, 0.470573
344, 2, wb, attraction, a-b-da, 2, 2, 6, 29, 165, 90, 163, 89, 90, 165, 1, 2.20983
344, 2, wb, attraction, a-b-da, 2, 2, 6, 29, 165, 90, 163, 89, 90, 165, 2, 0.863653
344, 2, wb, catch, NA, 999, 999, 6, 30, 122, 193, 98, 157, 97, 98, 3, 0.778705
344, 2, wb, catch, NA, 999, 999, 6, 30, 122, 193, 98, 157, 97, 98, 1, 0.410413
344, 2, wb, attraction, a-b-da, 5, 1, 6, 31, 60, 135, 135, 60, 132, 58, 1, 2.03159
344, 2, wb, attraction, a-b-da, 5, 1, 6, 31, 60, 135, 135, 60, 132, 58, 2, 0.540963
344, 2, wb, filler, NA, 999, 999, 6, 32, 178, 172, 106, 111, 62, 178, 2, 1.81278
344, 2, wb, filler, NA, 999, 999, 6, 32, 178, 172, 106, 111, 62, 178, 1, 0.426715
344, 2, wb, attraction, a-b-db, 5, 3, 6, 33, 195, 120, 117, 190, 120, 195, 2, 6.83927
344, 2, wb, attraction, a-b-db, 5, 3, 6, 33, 195, 120, 117, 190, 120, 195, 1, 0.370416
344, 2, wb, attraction, a-b-db, 14, 3, 6, 34, 111, 181, 120, 195, 195, 120, 1, 1.92952
344, 2, wb, attraction, a-b-db, 14, 3, 6, 34, 111, 181, 120, 195, 195, 120, 3, 0.547077
344, 2, wb, attraction, a-b-db, 9, 1, 6, 35, 57, 129, 135, 60, 60, 135, 1, 1.61878
344, 2, wb, attraction, a-b-db, 9, 1, 6, 35, 57, 129, 135, 60, 60, 135, 2, 0.560795
344, 2, wb, filler, NA, 999, 999, 6, 36, 71, 102, 163, 139, 146, 116, 1, 0.759889
344, 2, wb, filler, NA, 999, 999, 6, 36, 71, 102, 163, 139, 146, 116, 2, 0.368312
344, 2, wb, attraction, a-b-da, 5, 3, 6, 37, 190, 117, 120, 195, 195, 120, 1, 1.16749
344, 2, wb, attraction, a-b-da, 5, 3, 6, 37, 190, 117, 120, 195, 195, 120, 2, 0.415928
344, 2, wb, filler, NA, 999, 999, 7, 1, 67, 124, 71, 179, 93, 111, 1, 0.876894
344, 2, wb, filler, NA, 999, 999, 7, 1, 67, 124, 71, 179, 93, 111, 2, 0.448608
344, 2, wb, attraction, a-b-da, 5, 3, 7, 2, 120, 195, 190, 117, 195, 120, 1, 1.5324
344, 2, wb, attraction, a-b-da, 5, 3, 7, 2, 120, 195, 190, 117, 195, 120, 2, 0.869985
344, 2, wb, attraction, a-b-db, 5, 1, 7, 3, 60, 135, 58, 132, 135, 60, 1, 0.70497
344, 2, wb, attraction, a-b-db, 5, 1, 7, 3, 60, 135, 58, 132, 135, 60, 2, 0.675309
344, 2, wb, catch, NA, 999, 999, 7, 4, 149, 106, 77, 118, 172, 143, 2, 1.05368
344, 2, wb, catch, NA, 999, 999, 7, 4, 149, 106, 77, 118, 172, 143, 3, 0.490014
344, 2, wb, attraction, a-b-da, 2, 3, 7, 5, 195, 120, 193, 119, 120, 195, 1, 1.66775
344, 2, wb, attraction, a-b-da, 2, 3, 7, 5, 195, 120, 193, 119, 120, 195, 2, 1.15994
344, 2, wb, attraction, a-b-db, 5, 3, 7, 6, 195, 120, 120, 195, 117, 190, 3, 2.27095
344, 2, wb, attraction, a-b-db, 5, 3, 7, 6, 195, 120, 120, 195, 117, 190, 1, 0.450094
344, 2, wb, catch, NA, 999, 999, 7, 7, 148, 167, 105, 150, 106, 89, 3, 0.829865
344, 2, wb, catch, NA, 999, 999, 7, 7, 148, 167, 105, 150, 106, 89, 1, 0.835603
344, 2, wb, attraction, a-b-db, 9, 3, 7, 8, 114, 186, 195, 120, 120, 195, 1, 2.35999
344, 2, wb, attraction, a-b-db, 9, 3, 7, 8, 114, 186, 195, 120, 120, 195, 3, 0.367859
344, 2, wb, attraction, a-b-da, 9, 1, 7, 9, 60, 135, 135, 60, 129, 57, 3, 1.44701
344, 2, wb, attraction, a-b-da, 9, 1, 7, 9, 60, 135, 135, 60, 129, 57, 1, 0.427942
344, 2, wb, attraction, a-b-da, 5, 2, 7, 10, 161, 88, 90, 165, 165, 90, 2, 1.65636
344, 2, wb, attraction, a-b-da, 5, 2, 7, 10, 161, 88, 90, 165, 165, 90, 1, 0.580488
344, 2, wb, filler, NA, 999, 999, 7, 11, 99, 167, 90, 73, 96, 85, 2, 1.26688
344, 2, wb, filler, NA, 999, 999, 7, 11, 99, 167, 90, 73, 96, 85, 3, 1.11912
344, 2, wb, attraction, a-b-db, 14, 1, 7, 12, 60, 135, 135, 60, 56, 125, 1, 0.816086
344, 2, wb, attraction, a-b-db, 14, 1, 7, 12, 60, 135, 135, 60, 56, 125, 2, 1.55046
344, 2, wb, filler, NA, 999, 999, 7, 13, 100, 75, 128, 56, 112, 186, 1, 3.42992
344, 2, wb, filler, NA, 999, 999, 7, 13, 100, 75, 128, 56, 112, 186, 3, 0.458821
344, 2, wb, attraction, a-b-db, 9, 2, 7, 14, 86, 157, 165, 90, 90, 165, 1, 4.48616
344, 2, wb, attraction, a-b-db, 9, 2, 7, 14, 86, 157, 165, 90, 90, 165, 3, 0.584558
344, 2, wb, attraction, a-b-da, 14, 1, 7, 15, 125, 56, 60, 135, 135, 60, 1, 0.758924
344, 2, wb, attraction, a-b-da, 14, 1, 7, 15, 125, 56, 60, 135, 135, 60, 3, 0.591378
344, 2, wb, catch, NA, 999, 999, 7, 16, 164, 91, 122, 193, 93, 102, 3, 1.50913
344, 2, wb, catch, NA, 999, 999, 7, 16, 164, 91, 122, 193, 93, 102, 2, 0.511304
344, 2, wb, attraction, a-b-db, 9, 1, 7, 17, 135, 60, 60, 135, 57, 129, 3, 1.7204
344, 2, wb, attraction, a-b-db, 9, 1, 7, 17, 135, 60, 60, 135, 57, 129, 2, 0.473821
344, 2, wb, filler, NA, 999, 999, 7, 18, 75, 104, 147, 160, 170, 109, 1, 0.788205
344, 2, wb, filler, NA, 999, 999, 7, 18, 75, 104, 147, 160, 170, 109, 2, 0.467371
344, 2, wb, filler, NA, 999, 999, 7, 19, 165, 68, 165, 117, 58, 123, 3, 2.27045
344, 2, wb, filler, NA, 999, 999, 7, 19, 165, 68, 165, 117, 58, 123, 2, 0.769814
344, 2, wb, attraction, a-b-da, 14, 2, 7, 20, 153, 83, 165, 90, 90, 165, 3, 3.96079
344, 2, wb, attraction, a-b-da, 14, 2, 7, 20, 153, 83, 165, 90, 90, 165, 2, 0.440269
344, 2, wb, attraction, a-b-db, 2, 2, 7, 21, 89, 163, 90, 165, 165, 90, 1, 1.15597
344, 2, wb, attraction, a-b-db, 2, 2, 7, 21, 89, 163, 90, 165, 165, 90, 2, 0.452415
344, 2, wb, attraction, a-b-db, 14, 2, 7, 22, 83, 153, 165, 90, 90, 165, 1, 1.00806
344, 2, wb, attraction, a-b-db, 14, 2, 7, 22, 83, 153, 165, 90, 90, 165, 2, 0.806504
344, 2, wb, filler, NA, 999, 999, 7, 23, 98, 185, 113, 171, 193, 77, 1, 2.37943
344, 2, wb, filler, NA, 999, 999, 7, 23, 98, 185, 113, 171, 193, 77, 3, 0.682772
344, 2, wb, attraction, a-b-db, 5, 2, 7, 24, 90, 165, 165, 90, 88, 161, 1, 0.885032
344, 2, wb, attraction, a-b-db, 5, 2, 7, 24, 90, 165, 165, 90, 88, 161, 2, 0.768834
344, 2, wb, attraction, a-b-db, 2, 3, 7, 25, 119, 193, 195, 120, 120, 195, 2, 1.27178
344, 2, wb, attraction, a-b-db, 2, 3, 7, 25, 119, 193, 195, 120, 120, 195, 1, 0.739346
344, 2, wb, attraction, a-b-da, 14, 3, 7, 26, 120, 195, 181, 111, 195, 120, 1, 1.33173
344, 2, wb, attraction, a-b-da, 14, 3, 7, 26, 120, 195, 181, 111, 195, 120, 2, 1.20528
344, 2, wb, filler, NA, 999, 999, 7, 27, 104, 149, 70, 68, 149, 105, 2, 0.674825
344, 2, wb, filler, NA, 999, 999, 7, 27, 104, 149, 70, 68, 149, 105, 3, 2.81466
344, 2, wb, attraction, a-b-da, 9, 3, 7, 28, 120, 195, 195, 120, 186, 114, 3, 3.13904
344, 2, wb, attraction, a-b-da, 9, 3, 7, 28, 120, 195, 195, 120, 186, 114, 2, 0.82733
344, 2, wb, filler, NA, 999, 999, 7, 29, 102, 101, 165, 114, 193, 70, 1, 0.975648
344, 2, wb, filler, NA, 999, 999, 7, 29, 102, 101, 165, 114, 193, 70, 2, 0.471321
344, 2, wb, filler, NA, 999, 999, 7, 30, 194, 194, 157, 189, 74, 151, 3, 0.754455
344, 2, wb, filler, NA, 999, 999, 7, 30, 194, 194, 157, 189, 74, 151, 1, 1.55494
344, 2, wb, attraction, a-b-da, 2, 1, 7, 31, 60, 135, 135, 60, 134, 59, 1, 1.7063
344, 2, wb, attraction, a-b-da, 2, 1, 7, 31, 60, 135, 135, 60, 134, 59, 3, 1.14839
344, 2, wb, attraction, a-b-db, 2, 1, 7, 32, 135, 60, 59, 134, 60, 135, 2, 0.931961
344, 2, wb, attraction, a-b-db, 2, 1, 7, 32, 135, 60, 59, 134, 60, 135, 1, 1.44572
344, 2, wb, filler, NA, 999, 999, 7, 33, 153, 88, 122, 171, 141, 147, 1, 4.74525
344, 2, wb, filler, NA, 999, 999, 7, 33, 153, 88, 122, 171, 141, 147, 2, 1.041
344, 2, wb, attraction, a-b-da, 2, 2, 7, 34, 165, 90, 90, 165, 163, 89, 1, 1.14064
344, 2, wb, attraction, a-b-da, 2, 2, 7, 34, 165, 90, 90, 165, 163, 89, 2, 0.517771
344, 2, wb, attraction, a-b-da, 9, 2, 7, 35, 157, 86, 90, 165, 165, 90, 1, 1.04674
344, 2, wb, attraction, a-b-da, 9, 2, 7, 35, 157, 86, 90, 165, 165, 90, 2, 0.395672
344, 2, wb, attraction, a-b-da, 5, 1, 7, 36, 132, 58, 60, 135, 135, 60, 1, 0.857537
344, 2, wb, attraction, a-b-da, 5, 1, 7, 36, 132, 58, 60, 135, 135, 60, 2, 0.525873
344, 2, wb, attraction, a-b-db, 14, 3, 7, 37, 120, 195, 111, 181, 195, 120, 1, 2.25433
344, 2, wb, attraction, a-b-db, 14, 3, 7, 37, 120, 195, 111, 181, 195, 120, 3, 0.706258
344, 2, wb, attraction, a-b-db, 14, 1, 8, 1, 135, 60, 56, 125, 60, 135, 2, 0.883272
344, 2, wb, attraction, a-b-db, 14, 1, 8, 1, 135, 60, 56, 125, 60, 135, 1, 0.734942
344, 2, wb, filler, NA, 999, 999, 8, 2, 93, 105, 191, 104, 128, 154, 1, 0.911343
344, 2, wb, filler, NA, 999, 999, 8, 2, 93, 105, 191, 104, 128, 154, 2, 0.385766
344, 2, wb, attraction, a-b-da, 14, 3, 8, 3, 181, 111, 120, 195, 195, 120, 1, 1.0002
344, 2, wb, attraction, a-b-da, 14, 3, 8, 3, 181, 111, 120, 195, 195, 120, 2, 0.639238
344, 2, wb, attraction, a-b-db, 2, 3, 8, 4, 195, 120, 120, 195, 119, 193, 1, 0.883577
344, 2, wb, attraction, a-b-db, 2, 3, 8, 4, 195, 120, 120, 195, 119, 193, 2, 0.463337
344, 2, wb, filler, NA, 999, 999, 8, 5, 134, 159, 97, 176, 135, 123, 1, 0.834413
344, 2, wb, filler, NA, 999, 999, 8, 5, 134, 159, 97, 176, 135, 123, 2, 0.504135
344, 2, wb, attraction, a-b-db, 2, 2, 8, 6, 90, 165, 89, 163, 165, 90, 1, 1.04986
344, 2, wb, attraction, a-b-db, 2, 2, 8, 6, 90, 165, 89, 163, 165, 90, 3, 0.630898
344, 2, wb, attraction, a-b-da, 2, 2, 8, 7, 90, 165, 165, 90, 163, 89, 1, 0.763306
344, 2, wb, attraction, a-b-da, 2, 2, 8, 7, 90, 165, 165, 90, 163, 89, 2, 0.635754
344, 2, wb, attraction, a-b-db, 5, 1, 8, 8, 135, 60, 60, 135, 58, 132, 1, 0.928199
344, 2, wb, attraction, a-b-db, 5, 1, 8, 8, 135, 60, 60, 135, 58, 132, 2, 0.481861
344, 2, wb, filler, NA, 999, 999, 8, 9, 137, 151, 151, 103, 74, 64, 3, 1.10026
344, 2, wb, filler, NA, 999, 999, 8, 9, 137, 151, 151, 103, 74, 64, 1, 0.73529
344, 2, wb, filler, NA, 999, 999, 8, 10, 94, 115, 103, 56, 188, 99, 2, 1.80761
344, 2, wb, filler, NA, 999, 999, 8, 10, 94, 115, 103, 56, 188, 99, 3, 0.45371
344, 2, wb, attraction, a-b-da, 5, 1, 8, 11, 135, 60, 60, 135, 132, 58, 2, 0.833515
344, 2, wb, attraction, a-b-da, 5, 1, 8, 11, 135, 60, 60, 135, 132, 58, 1, 0.703179
344, 2, wb, attraction, a-b-da, 2, 3, 8, 12, 195, 120, 120, 195, 193, 119, 2, 1.79302
344, 2, wb, attraction, a-b-da, 2, 3, 8, 12, 195, 120, 120, 195, 193, 119, 1, 0.551776
344, 2, wb, filler, NA, 999, 999, 8, 13, 71, 191, 168, 98, 117, 194, 2, 2.38342
344, 2, wb, filler, NA, 999, 999, 8, 13, 71, 191, 168, 98, 117, 194, 3, 1.25471
344, 2, wb, attraction, a-b-db, 5, 3, 8, 14, 120, 195, 195, 120, 117, 190, 2, 1.09016
344, 2, wb, attraction, a-b-db, 5, 3, 8, 14, 120, 195, 195, 120, 117, 190, 3, 0.565159
344, 2, wb, attraction, a-b-da, 14, 2, 8, 15, 165, 90, 153, 83, 90, 165, 3, 2.39635
344, 2, wb, attraction, a-b-da, 14, 2, 8, 15, 165, 90, 153, 83, 90, 165, 1, 0.482853
344, 2, wb, attraction, a-b-da, 14, 1, 8, 16, 135, 60, 60, 135, 125, 56, 2, 1.63733
344, 2, wb, attraction, a-b-da, 14, 1, 8, 16, 135, 60, 60, 135, 125, 56, 3, 0.634818
344, 2, wb, attraction, a-b-db, 14, 3, 8, 17, 111, 181, 195, 120, 120, 195, 1, 1.04713
344, 2, wb, attraction, a-b-db, 14, 3, 8, 17, 111, 181, 195, 120, 120, 195, 2, 0.436109
344, 2, wb, attraction, a-b-db, 5, 2, 8, 18, 88, 161, 165, 90, 90, 165, 1, 4.89661
344, 2, wb, attraction, a-b-db, 5, 2, 8, 18, 88, 161, 165, 90, 90, 165, 2, 1.18651
344, 2, wb, filler, NA, 999, 999, 8, 19, 95, 77, 164, 98, 135, 101, 1, 0.864688
344, 2, wb, filler, NA, 999, 999, 8, 19, 95, 77, 164, 98, 135, 101, 2, 0.924993
344, 2, wb, attraction, a-b-db, 14, 2, 8, 20, 165, 90, 90, 165, 83, 153, 2, 1.94937
344, 2, wb, attraction, a-b-db, 14, 2, 8, 20, 165, 90, 90, 165, 83, 153, 1, 1.03006
344, 2, wb, attraction, a-b-db, 2, 1, 8, 21, 59, 134, 135, 60, 60, 135, 2, 0.922293
344, 2, wb, attraction, a-b-db, 2, 1, 8, 21, 59, 134, 135, 60, 60, 135, 3, 1.44405
344, 2, wb, filler, NA, 999, 999, 8, 22, 74, 179, 167, 121, 143, 188, 1, 0.839518
344, 2, wb, filler, NA, 999, 999, 8, 22, 74, 179, 167, 121, 143, 188, 3, 0.620616
344, 2, wb, catch, NA, 999, 999, 8, 23, 110, 145, 182, 133, 135, 60, 3, 1.27366
344, 2, wb, catch, NA, 999, 999, 8, 23, 110, 145, 182, 133, 135, 60, 2, 0.413227
344, 2, wb, filler, NA, 999, 999, 8, 24, 152, 110, 147, 76, 163, 95, 2, 2.56241
344, 2, wb, filler, NA, 999, 999, 8, 24, 152, 110, 147, 76, 163, 95, 3, 1.41816
344, 2, wb, catch, NA, 999, 999, 8, 25, 87, 108, 162, 153, 144, 111, 1, 1.35893
344, 2, wb, catch, NA, 999, 999, 8, 25, 87, 108, 162, 153, 144, 111, 2, 0.815271
344, 2, wb, attraction, a-b-da, 5, 3, 8, 26, 195, 120, 190, 117, 120, 195, 3, 1.75618
344, 2, wb, attraction, a-b-da, 5, 3, 8, 26, 195, 120, 190, 117, 120, 195, 2, 0.596303
344, 2, wb, filler, NA, 999, 999, 8, 27, 184, 103, 103, 133, 169, 123, 2, 0.922091
344, 2, wb, filler, NA, 999, 999, 8, 27, 184, 103, 103, 133, 169, 123, 3, 1.09986
344, 2, wb, filler, NA, 999, 999, 8, 28, 84, 188, 137, 186, 92, 66, 3, 1.00543
344, 2, wb, filler, NA, 999, 999, 8, 28, 84, 188, 137, 186, 92, 66, 2, 0.475873
344, 2, wb, catch, NA, 999, 999, 8, 29, 104, 91, 163, 152, 103, 152, 1, 0.758214
344, 2, wb, catch, NA, 999, 999, 8, 29, 104, 91, 163, 152, 103, 152, 2, 0.470567
344, 2, wb, attraction, a-b-da, 9, 1, 8, 30, 135, 60, 129, 57, 60, 135, 2, 0.745632
344, 2, wb, attraction, a-b-da, 9, 1, 8, 30, 135, 60, 129, 57, 60, 135, 1, 0.626743
344, 2, wb, attraction, a-b-db, 9, 3, 8, 31, 120, 195, 114, 186, 195, 120, 2, 17.6312
344, 2, wb, attraction, a-b-db, 9, 3, 8, 31, 120, 195, 114, 186, 195, 120, 3, 0.615616
344, 2, wb, attraction, a-b-db, 9, 1, 8, 32, 60, 135, 135, 60, 57, 129, 2, 0.972787
344, 2, wb, attraction, a-b-db, 9, 1, 8, 32, 60, 135, 135, 60, 57, 129, 1, 0.74038
344, 2, wb, attraction, a-b-da, 9, 3, 8, 33, 186, 114, 195, 120, 120, 195, 3, 2.31619
344, 2, wb, attraction, a-b-da, 9, 3, 8, 33, 186, 114, 195, 120, 120, 195, 2, 3.70207
344, 2, wb, attraction, a-b-db, 9, 2, 8, 34, 90, 165, 86, 157, 165, 90, 2, 1.23082
344, 2, wb, attraction, a-b-db, 9, 2, 8, 34, 90, 165, 86, 157, 165, 90, 3, 0.964395
344, 2, wb, attraction, a-b-da, 9, 2, 8, 35, 90, 165, 165, 90, 157, 86, 3, 2.33137
344, 2, wb, attraction, a-b-da, 9, 2, 8, 35, 90, 165, 165, 90, 157, 86, 1, 0.772625
344, 2, wb, attraction, a-b-da, 5, 2, 8, 36, 161, 88, 90, 165, 165, 90, 1, 2.67569
344, 2, wb, attraction, a-b-da, 5, 2, 8, 36, 161, 88, 90, 165, 165, 90, 3, 0.966721
344, 2, wb, attraction, a-b-da, 2, 1, 8, 37, 135, 60, 134, 59, 60, 135, 2, 0.861683
344, 2, wb, attraction, a-b-da, 2, 1, 8, 37, 135, 60, 134, 59, 60, 135, 3, 1.01813
