sub_n, computer_n, bw_cond, effect, set, distance, diag, block_n, trial_n, h1, w1, h2, w2, h3, w3, choice, rt 
360, 2, wb, practice, NA, 999, 999, 0, 1, 159, 113, 110, 136, 72, 189, 2, 15.6658
360, 2, wb, practice, NA, 999, 999, 0, 1, 159, 113, 110, 136, 72, 189, 1, 23.5355
360, 2, wb, practice, NA, 999, 999, 0, 2, 187, 158, 132, 189, 166, 132, 3, 18.5513
360, 2, wb, practice, NA, 999, 999, 0, 2, 187, 158, 132, 189, 166, 132, 1, 1.859
360, 2, wb, practice, NA, 999, 999, 0, 3, 93, 87, 128, 177, 113, 93, 1, 34.2487
360, 2, wb, practice, NA, 999, 999, 0, 3, 93, 87, 128, 177, 113, 93, 2, 2.18084
360, 2, wb, attraction, a-b-da, 14, 1, 1, 1, 135, 60, 60, 135, 125, 56, 2, 47.7245
360, 2, wb, attraction, a-b-da, 14, 1, 1, 1, 135, 60, 60, 135, 125, 56, 1, 0.840147
360, 2, wb, attraction, a-b-da, 5, 1, 1, 2, 132, 58, 60, 135, 135, 60, 2, 4.13981
360, 2, wb, attraction, a-b-da, 5, 1, 1, 2, 132, 58, 60, 135, 135, 60, 1, 0.963831
360, 2, wb, attraction, a-b-db, 14, 2, 1, 3, 83, 153, 165, 90, 90, 165, 1, 2.53085
360, 2, wb, attraction, a-b-db, 14, 2, 1, 3, 83, 153, 165, 90, 90, 165, 3, 9.33211
360, 2, wb, catch, NA, 999, 999, 1, 4, 145, 170, 162, 93, 63, 132, 3, 2.18571
360, 2, wb, catch, NA, 999, 999, 1, 4, 145, 170, 162, 93, 63, 132, 1, 1.44911
360, 2, wb, attraction, a-b-da, 2, 3, 1, 5, 193, 119, 195, 120, 120, 195, 1, 71.9725
360, 2, wb, attraction, a-b-da, 2, 3, 1, 5, 193, 119, 195, 120, 120, 195, 3, 1.08732
360, 2, wb, attraction, a-b-db, 14, 1, 1, 6, 60, 135, 135, 60, 56, 125, 3, 26.4016
360, 2, wb, attraction, a-b-db, 14, 1, 1, 6, 60, 135, 135, 60, 56, 125, 1, 0.872593
360, 2, wb, attraction, a-b-db, 9, 3, 1, 7, 120, 195, 195, 120, 114, 186, 3, 1.87567
360, 2, wb, attraction, a-b-db, 9, 3, 1, 7, 120, 195, 195, 120, 114, 186, 2, 13.279
360, 2, wb, attraction, a-b-db, 2, 1, 1, 8, 60, 135, 59, 134, 135, 60, 2, 9.02146
360, 2, wb, attraction, a-b-db, 2, 1, 1, 8, 60, 135, 59, 134, 135, 60, 1, 0.601362
360, 2, wb, filler, NA, 999, 999, 1, 9, 160, 147, 57, 105, 62, 86, 3, 1.94305
360, 2, wb, filler, NA, 999, 999, 1, 9, 160, 147, 57, 105, 62, 86, 1, 1.55976
360, 2, wb, attraction, a-b-db, 9, 2, 1, 10, 90, 165, 86, 157, 165, 90, 3, 2.11866
360, 2, wb, attraction, a-b-db, 9, 2, 1, 10, 90, 165, 86, 157, 165, 90, 2, 5.2405
360, 2, wb, filler, NA, 999, 999, 1, 11, 171, 151, 139, 113, 140, 74, 3, 2.06749
360, 2, wb, filler, NA, 999, 999, 1, 11, 171, 151, 139, 113, 140, 74, 1, 1.11152
360, 2, wb, attraction, a-b-db, 5, 2, 1, 12, 88, 161, 165, 90, 90, 165, 1, 8.99255
360, 2, wb, attraction, a-b-db, 5, 2, 1, 12, 88, 161, 165, 90, 90, 165, 2, 0.676976
360, 2, wb, attraction, a-b-db, 5, 3, 1, 13, 120, 195, 195, 120, 117, 190, 3, 2.11935
360, 2, wb, attraction, a-b-db, 5, 3, 1, 13, 120, 195, 195, 120, 117, 190, 2, 0.633229
360, 2, wb, filler, NA, 999, 999, 1, 14, 63, 171, 119, 87, 67, 105, 3, 1.43766
360, 2, wb, filler, NA, 999, 999, 1, 14, 63, 171, 119, 87, 67, 105, 1, 1.17061
360, 2, wb, attraction, a-b-db, 2, 3, 1, 15, 119, 193, 120, 195, 195, 120, 2, 7.01747
360, 2, wb, attraction, a-b-db, 2, 3, 1, 15, 119, 193, 120, 195, 195, 120, 3, 1.63003
360, 2, wb, filler, NA, 999, 999, 1, 16, 194, 97, 158, 160, 153, 149, 1, 33.3461
360, 2, wb, filler, NA, 999, 999, 1, 16, 194, 97, 158, 160, 153, 149, 3, 0.681583
360, 2, wb, attraction, a-b-da, 14, 3, 1, 17, 181, 111, 195, 120, 120, 195, 3, 3.26016
360, 2, wb, attraction, a-b-da, 14, 3, 1, 17, 181, 111, 195, 120, 120, 195, 2, 2.65572
360, 2, wb, attraction, a-b-da, 2, 1, 1, 18, 60, 135, 134, 59, 135, 60, 1, 2.07474
360, 2, wb, attraction, a-b-da, 2, 1, 1, 18, 60, 135, 134, 59, 135, 60, 3, 3.70208
360, 2, wb, attraction, a-b-da, 2, 2, 1, 19, 165, 90, 163, 89, 90, 165, 3, 2.20676
360, 2, wb, attraction, a-b-da, 2, 2, 1, 19, 165, 90, 163, 89, 90, 165, 2, 1.56494
360, 2, wb, attraction, a-b-da, 9, 3, 1, 20, 186, 114, 195, 120, 120, 195, 3, 1.9556
360, 2, wb, attraction, a-b-da, 9, 3, 1, 20, 186, 114, 195, 120, 120, 195, 2, 0.803572
360, 2, wb, filler, NA, 999, 999, 1, 21, 159, 182, 69, 158, 66, 118, 3, 3.46521
360, 2, wb, filler, NA, 999, 999, 1, 21, 159, 182, 69, 158, 66, 118, 1, 1.18884
360, 2, wb, attraction, a-b-db, 9, 1, 1, 22, 60, 135, 57, 129, 135, 60, 2, 2.16307
360, 2, wb, attraction, a-b-db, 9, 1, 1, 22, 60, 135, 57, 129, 135, 60, 3, 2.88308
360, 2, wb, attraction, a-b-da, 5, 3, 1, 23, 120, 195, 190, 117, 195, 120, 3, 29.7328
360, 2, wb, attraction, a-b-da, 5, 3, 1, 23, 120, 195, 190, 117, 195, 120, 1, 0.70937
360, 2, wb, attraction, a-b-da, 5, 2, 1, 24, 165, 90, 90, 165, 161, 88, 3, 3.35058
360, 2, wb, attraction, a-b-da, 5, 2, 1, 24, 165, 90, 90, 165, 161, 88, 2, 1.11889
360, 2, wb, attraction, a-b-db, 2, 2, 1, 25, 89, 163, 90, 165, 165, 90, 3, 0.9036
360, 2, wb, attraction, a-b-db, 2, 2, 1, 25, 89, 163, 90, 165, 165, 90, 2, 1.01003
360, 2, wb, filler, NA, 999, 999, 1, 26, 169, 107, 171, 164, 93, 183, 1, 4.48713
360, 2, wb, filler, NA, 999, 999, 1, 26, 169, 107, 171, 164, 93, 183, 2, 0.745642
360, 2, wb, catch, NA, 999, 999, 1, 27, 190, 125, 91, 164, 133, 62, 3, 1.10524
360, 2, wb, catch, NA, 999, 999, 1, 27, 190, 125, 91, 164, 133, 62, 1, 0.843516
360, 2, wb, filler, NA, 999, 999, 1, 28, 66, 140, 180, 166, 132, 184, 1, 0.991166
360, 2, wb, filler, NA, 999, 999, 1, 28, 66, 140, 180, 166, 132, 184, 2, 0.750228
360, 2, wb, filler, NA, 999, 999, 1, 29, 127, 113, 149, 181, 100, 65, 3, 2.23796
360, 2, wb, filler, NA, 999, 999, 1, 29, 127, 113, 149, 181, 100, 65, 2, 0.570686
360, 2, wb, attraction, a-b-db, 14, 3, 1, 30, 120, 195, 195, 120, 111, 181, 3, 2.30566
360, 2, wb, attraction, a-b-db, 14, 3, 1, 30, 120, 195, 195, 120, 111, 181, 2, 19.8516
360, 2, wb, attraction, a-b-da, 9, 1, 1, 31, 60, 135, 129, 57, 135, 60, 2, 49.3133
360, 2, wb, attraction, a-b-da, 9, 1, 1, 31, 60, 135, 129, 57, 135, 60, 1, 0.645224
360, 2, wb, filler, NA, 999, 999, 1, 32, 71, 109, 69, 97, 167, 133, 2, 4.79295
360, 2, wb, filler, NA, 999, 999, 1, 32, 71, 109, 69, 97, 167, 133, 3, 0.774715
360, 2, wb, attraction, a-b-da, 14, 2, 1, 33, 90, 165, 165, 90, 153, 83, 1, 21.8853
360, 2, wb, attraction, a-b-da, 14, 2, 1, 33, 90, 165, 165, 90, 153, 83, 2, 1.13036
360, 2, wb, catch, NA, 999, 999, 1, 34, 141, 114, 193, 122, 63, 132, 3, 2.17852
360, 2, wb, catch, NA, 999, 999, 1, 34, 141, 114, 193, 122, 63, 132, 2, 1.64985
360, 2, wb, attraction, a-b-da, 9, 2, 1, 35, 165, 90, 90, 165, 157, 86, 3, 7.48524
360, 2, wb, attraction, a-b-da, 9, 2, 1, 35, 165, 90, 90, 165, 157, 86, 2, 0.806843
360, 2, wb, filler, NA, 999, 999, 1, 36, 56, 114, 168, 89, 194, 123, 1, 1.3318
360, 2, wb, filler, NA, 999, 999, 1, 36, 56, 114, 168, 89, 194, 123, 3, 1.2934
360, 2, wb, attraction, a-b-db, 5, 1, 1, 37, 60, 135, 58, 132, 135, 60, 3, 32.799
360, 2, wb, attraction, a-b-db, 5, 1, 1, 37, 60, 135, 58, 132, 135, 60, 2, 0.875919
360, 2, wb, attraction, a-b-db, 14, 1, 2, 1, 135, 60, 60, 135, 56, 125, 1, 7.71837
360, 2, wb, attraction, a-b-db, 14, 1, 2, 1, 135, 60, 60, 135, 56, 125, 2, 0.75855
360, 2, wb, attraction, a-b-da, 5, 1, 2, 2, 135, 60, 60, 135, 132, 58, 3, 1.33366
360, 2, wb, attraction, a-b-da, 5, 1, 2, 2, 135, 60, 60, 135, 132, 58, 2, 0.503092
360, 2, wb, catch, NA, 999, 999, 2, 3, 111, 144, 152, 163, 66, 129, 3, 2.93698
360, 2, wb, catch, NA, 999, 999, 2, 3, 111, 144, 152, 163, 66, 129, 2, 0.593336
360, 2, wb, attraction, a-b-da, 2, 2, 2, 4, 163, 89, 90, 165, 165, 90, 3, 3.74315
360, 2, wb, attraction, a-b-da, 2, 2, 2, 4, 163, 89, 90, 165, 165, 90, 2, 0.695237
360, 2, wb, filler, NA, 999, 999, 2, 5, 180, 61, 123, 114, 163, 181, 1, 1.2649
360, 2, wb, filler, NA, 999, 999, 2, 5, 180, 61, 123, 114, 163, 181, 3, 1.04522
360, 2, wb, filler, NA, 999, 999, 2, 6, 161, 167, 195, 117, 95, 109, 3, 1.32078
360, 2, wb, filler, NA, 999, 999, 2, 6, 161, 167, 195, 117, 95, 109, 1, 10.6983
360, 2, wb, filler, NA, 999, 999, 2, 7, 130, 88, 125, 77, 120, 59, 3, 63.1772
360, 2, wb, filler, NA, 999, 999, 2, 7, 130, 88, 125, 77, 120, 59, 1, 4.75783
360, 2, wb, filler, NA, 999, 999, 2, 8, 75, 176, 90, 78, 189, 145, 2, 1.70046
360, 2, wb, filler, NA, 999, 999, 2, 8, 75, 176, 90, 78, 189, 145, 3, 1.12715
360, 2, wb, attraction, a-b-da, 9, 3, 2, 9, 120, 195, 186, 114, 195, 120, 2, 55.8954
360, 2, wb, attraction, a-b-da, 9, 3, 2, 9, 120, 195, 186, 114, 195, 120, 1, 1.32984
360, 2, wb, attraction, a-b-db, 5, 1, 2, 10, 135, 60, 60, 135, 58, 132, 1, 1.61803
360, 2, wb, attraction, a-b-db, 5, 1, 2, 10, 135, 60, 60, 135, 58, 132, 2, 1.17619
360, 2, wb, attraction, a-b-db, 2, 2, 2, 11, 90, 165, 89, 163, 165, 90, 3, 0.830552
360, 2, wb, attraction, a-b-db, 2, 2, 2, 11, 90, 165, 89, 163, 165, 90, 2, 0.948198
360, 2, wb, attraction, a-b-da, 2, 1, 2, 12, 134, 59, 60, 135, 135, 60, 3, 0.955748
360, 2, wb, attraction, a-b-da, 2, 1, 2, 12, 134, 59, 60, 135, 135, 60, 2, 0.588217
360, 2, wb, filler, NA, 999, 999, 2, 13, 116, 101, 105, 99, 92, 119, 3, 1.33863
360, 2, wb, filler, NA, 999, 999, 2, 13, 116, 101, 105, 99, 92, 119, 1, 1.37141
360, 2, wb, attraction, a-b-da, 2, 3, 2, 14, 193, 119, 195, 120, 120, 195, 2, 5.01841
360, 2, wb, attraction, a-b-da, 2, 3, 2, 14, 193, 119, 195, 120, 120, 195, 3, 1.19936
360, 2, wb, attraction, a-b-da, 9, 1, 2, 15, 129, 57, 135, 60, 60, 135, 1, 30.9089
360, 2, wb, attraction, a-b-da, 9, 1, 2, 15, 129, 57, 135, 60, 60, 135, 3, 0.926633
360, 2, wb, attraction, a-b-da, 5, 3, 2, 16, 190, 117, 195, 120, 120, 195, 1, 2.99897
360, 2, wb, attraction, a-b-da, 5, 3, 2, 16, 190, 117, 195, 120, 120, 195, 3, 1.80544
360, 2, wb, attraction, a-b-da, 9, 2, 2, 17, 157, 86, 165, 90, 90, 165, 1, 1.36276
360, 2, wb, attraction, a-b-da, 9, 2, 2, 17, 157, 86, 165, 90, 90, 165, 3, 0.986767
360, 2, wb, attraction, a-b-db, 2, 3, 2, 18, 120, 195, 195, 120, 119, 193, 2, 40.1533
360, 2, wb, attraction, a-b-db, 2, 3, 2, 18, 120, 195, 195, 120, 119, 193, 3, 0.685902
360, 2, wb, filler, NA, 999, 999, 2, 19, 86, 75, 138, 174, 173, 138, 1, 1.05635
360, 2, wb, filler, NA, 999, 999, 2, 19, 86, 75, 138, 174, 173, 138, 2, 0.892632
360, 2, wb, attraction, a-b-da, 14, 3, 2, 20, 181, 111, 195, 120, 120, 195, 1, 1.71832
360, 2, wb, attraction, a-b-da, 14, 3, 2, 20, 181, 111, 195, 120, 120, 195, 3, 0.544369
360, 2, wb, attraction, a-b-db, 9, 2, 2, 21, 165, 90, 86, 157, 90, 165, 1, 1.04013
360, 2, wb, attraction, a-b-db, 9, 2, 2, 21, 165, 90, 86, 157, 90, 165, 3, 0.733172
360, 2, wb, attraction, a-b-da, 5, 2, 2, 22, 161, 88, 165, 90, 90, 165, 1, 1.01346
360, 2, wb, attraction, a-b-da, 5, 2, 2, 22, 161, 88, 165, 90, 90, 165, 2, 0.651807
360, 2, wb, attraction, a-b-db, 5, 3, 2, 23, 195, 120, 117, 190, 120, 195, 1, 1.19959
360, 2, wb, attraction, a-b-db, 5, 3, 2, 23, 195, 120, 117, 190, 120, 195, 2, 0.574551
360, 2, wb, catch, NA, 999, 999, 2, 24, 131, 184, 95, 160, 101, 94, 3, 1.62899
360, 2, wb, catch, NA, 999, 999, 2, 24, 131, 184, 95, 160, 101, 94, 1, 0.530588
360, 2, wb, filler, NA, 999, 999, 2, 25, 148, 171, 74, 147, 81, 81, 3, 0.490821
360, 2, wb, filler, NA, 999, 999, 2, 25, 148, 171, 74, 147, 81, 81, 1, 0.533939
360, 2, wb, attraction, a-b-db, 9, 1, 2, 26, 60, 135, 57, 129, 135, 60, 1, 0.958522
360, 2, wb, attraction, a-b-db, 9, 1, 2, 26, 60, 135, 57, 129, 135, 60, 3, 0.606867
360, 2, wb, filler, NA, 999, 999, 2, 27, 107, 144, 164, 175, 107, 137, 1, 6.2759
360, 2, wb, filler, NA, 999, 999, 2, 27, 107, 144, 164, 175, 107, 137, 2, 1.60589
360, 2, wb, attraction, a-b-db, 2, 1, 2, 28, 135, 60, 60, 135, 59, 134, 1, 1.30741
360, 2, wb, attraction, a-b-db, 2, 1, 2, 28, 135, 60, 60, 135, 59, 134, 2, 1.51758
360, 2, wb, attraction, a-b-da, 14, 1, 2, 29, 60, 135, 135, 60, 125, 56, 3, 19.8464
360, 2, wb, attraction, a-b-da, 14, 1, 2, 29, 60, 135, 135, 60, 125, 56, 1, 1.4295
360, 2, wb, filler, NA, 999, 999, 2, 30, 129, 87, 192, 91, 60, 133, 1, 8.24173
360, 2, wb, filler, NA, 999, 999, 2, 30, 129, 87, 192, 91, 60, 133, 2, 1.01234
360, 2, wb, attraction, a-b-db, 5, 2, 2, 31, 90, 165, 88, 161, 165, 90, 3, 3.10528
360, 2, wb, attraction, a-b-db, 5, 2, 2, 31, 90, 165, 88, 161, 165, 90, 2, 0.954913
360, 2, wb, attraction, a-b-db, 9, 3, 2, 32, 114, 186, 195, 120, 120, 195, 1, 76.6426
360, 2, wb, attraction, a-b-db, 9, 3, 2, 32, 114, 186, 195, 120, 120, 195, 3, 1.71329
360, 2, wb, filler, NA, 999, 999, 2, 33, 82, 90, 182, 79, 126, 129, 1, 14.9461
360, 2, wb, filler, NA, 999, 999, 2, 33, 82, 90, 182, 79, 126, 129, 3, 0.822757
360, 2, wb, attraction, a-b-db, 14, 3, 2, 34, 120, 195, 195, 120, 111, 181, 2, 1.98773
360, 2, wb, attraction, a-b-db, 14, 3, 2, 34, 120, 195, 195, 120, 111, 181, 1, 1.65044
360, 2, wb, attraction, a-b-da, 14, 2, 2, 35, 90, 165, 165, 90, 153, 83, 3, 1.8939
360, 2, wb, attraction, a-b-da, 14, 2, 2, 35, 90, 165, 165, 90, 153, 83, 1, 22.0565
360, 2, wb, attraction, a-b-db, 14, 2, 2, 36, 83, 153, 90, 165, 165, 90, 1, 13.1576
360, 2, wb, attraction, a-b-db, 14, 2, 2, 36, 83, 153, 90, 165, 165, 90, 3, 1.37834
360, 2, wb, catch, NA, 999, 999, 2, 37, 146, 169, 128, 67, 148, 107, 2, 1.40033
360, 2, wb, catch, NA, 999, 999, 2, 37, 146, 169, 128, 67, 148, 107, 1, 0.639205
360, 2, wb, attraction, a-b-db, 5, 1, 3, 1, 60, 135, 58, 132, 135, 60, 1, 1.37957
360, 2, wb, attraction, a-b-db, 5, 1, 3, 1, 60, 135, 58, 132, 135, 60, 3, 1.99562
360, 2, wb, filler, NA, 999, 999, 3, 2, 120, 112, 152, 176, 162, 186, 1, 12.6565
360, 2, wb, filler, NA, 999, 999, 3, 2, 120, 112, 152, 176, 162, 186, 3, 20.6258
360, 2, wb, catch, NA, 999, 999, 3, 3, 119, 136, 103, 92, 183, 132, 2, 1.12058
360, 2, wb, catch, NA, 999, 999, 3, 3, 119, 136, 103, 92, 183, 132, 3, 0.81838
360, 2, wb, catch, NA, 999, 999, 3, 4, 143, 172, 115, 80, 137, 118, 2, 19.6233
360, 2, wb, catch, NA, 999, 999, 3, 4, 143, 172, 115, 80, 137, 118, 1, 0.735723
360, 2, wb, attraction, a-b-da, 5, 1, 3, 5, 135, 60, 132, 58, 60, 135, 2, 14.3122
360, 2, wb, attraction, a-b-da, 5, 1, 3, 5, 135, 60, 132, 58, 60, 135, 3, 0.822312
360, 2, wb, filler, NA, 999, 999, 3, 6, 64, 157, 60, 172, 118, 133, 2, 17.8913
360, 2, wb, filler, NA, 999, 999, 3, 6, 64, 157, 60, 172, 118, 133, 3, 1.20186
360, 2, wb, attraction, a-b-da, 14, 1, 3, 7, 60, 135, 125, 56, 135, 60, 2, 12.9353
360, 2, wb, attraction, a-b-da, 14, 1, 3, 7, 60, 135, 125, 56, 135, 60, 1, 0.621162
360, 2, wb, filler, NA, 999, 999, 3, 8, 120, 154, 94, 187, 179, 141, 1, 49.6504
360, 2, wb, filler, NA, 999, 999, 3, 8, 120, 154, 94, 187, 179, 141, 3, 0.744772
360, 2, wb, attraction, a-b-db, 5, 3, 3, 9, 117, 190, 195, 120, 120, 195, 2, 95.6005
360, 2, wb, attraction, a-b-db, 5, 3, 3, 9, 117, 190, 195, 120, 120, 195, 3, 1.14661
360, 2, wb, filler, NA, 999, 999, 3, 10, 128, 96, 163, 151, 118, 62, 3, 0.954099
360, 2, wb, filler, NA, 999, 999, 3, 10, 128, 96, 163, 151, 118, 62, 2, 30.3625
360, 2, wb, attraction, a-b-da, 9, 3, 3, 11, 195, 120, 186, 114, 120, 195, 2, 29.041
360, 2, wb, attraction, a-b-da, 9, 3, 3, 11, 195, 120, 186, 114, 120, 195, 3, 1.50184
360, 2, wb, attraction, a-b-da, 14, 2, 3, 12, 165, 90, 90, 165, 153, 83, 3, 1.90338
360, 2, wb, attraction, a-b-da, 14, 2, 3, 12, 165, 90, 90, 165, 153, 83, 2, 0.77735
360, 2, wb, filler, NA, 999, 999, 3, 13, 184, 165, 71, 61, 172, 180, 2, 1.9037
360, 2, wb, filler, NA, 999, 999, 3, 13, 184, 165, 71, 61, 172, 180, 3, 1.23451
360, 2, wb, filler, NA, 999, 999, 3, 14, 65, 125, 159, 182, 108, 66, 3, 13.4787
360, 2, wb, filler, NA, 999, 999, 3, 14, 65, 125, 159, 182, 108, 66, 2, 0.87842
360, 2, wb, filler, NA, 999, 999, 3, 15, 67, 156, 194, 159, 64, 151, 1, 36.2089
360, 2, wb, filler, NA, 999, 999, 3, 15, 67, 156, 194, 159, 64, 151, 2, 0.876962
360, 2, wb, attraction, a-b-db, 2, 2, 3, 16, 89, 163, 90, 165, 165, 90, 3, 15.0233
360, 2, wb, attraction, a-b-db, 2, 2, 3, 16, 89, 163, 90, 165, 165, 90, 2, 0.689085
360, 2, wb, filler, NA, 999, 999, 3, 17, 95, 108, 135, 98, 119, 168, 1, 36.8195
360, 2, wb, filler, NA, 999, 999, 3, 17, 95, 108, 135, 98, 119, 168, 3, 0.886573
360, 2, wb, attraction, a-b-da, 14, 3, 3, 18, 120, 195, 195, 120, 181, 111, 3, 2.07295
360, 2, wb, attraction, a-b-da, 14, 3, 3, 18, 120, 195, 195, 120, 181, 111, 1, 0.708229
360, 2, wb, attraction, a-b-da, 2, 2, 3, 19, 90, 165, 163, 89, 165, 90, 3, 2.34938
360, 2, wb, attraction, a-b-da, 2, 2, 3, 19, 90, 165, 163, 89, 165, 90, 1, 20.278
360, 2, wb, attraction, a-b-db, 9, 2, 3, 20, 165, 90, 86, 157, 90, 165, 1, 5.67474
360, 2, wb, attraction, a-b-db, 9, 2, 3, 20, 165, 90, 86, 157, 90, 165, 3, 1.05302
360, 2, wb, attraction, a-b-db, 2, 1, 3, 21, 59, 134, 135, 60, 60, 135, 2, 22.1687
360, 2, wb, attraction, a-b-db, 2, 1, 3, 21, 59, 134, 135, 60, 60, 135, 3, 0.906413
360, 2, wb, attraction, a-b-db, 9, 3, 3, 22, 114, 186, 120, 195, 195, 120, 2, 0.379468
360, 2, wb, attraction, a-b-db, 9, 3, 3, 22, 114, 186, 120, 195, 195, 120, 3, 4.67529
360, 2, wb, attraction, a-b-da, 5, 2, 3, 23, 161, 88, 165, 90, 90, 165, 1, 2.11634
360, 2, wb, attraction, a-b-da, 5, 2, 3, 23, 161, 88, 165, 90, 90, 165, 3, 0.662328
360, 2, wb, attraction, a-b-da, 2, 1, 3, 24, 135, 60, 134, 59, 60, 135, 1, 0.849354
360, 2, wb, attraction, a-b-da, 2, 1, 3, 24, 135, 60, 134, 59, 60, 135, 3, 0.678483
360, 2, wb, catch, NA, 999, 999, 3, 25, 142, 113, 190, 125, 82, 113, 3, 1.93684
360, 2, wb, catch, NA, 999, 999, 3, 25, 142, 113, 190, 125, 82, 113, 2, 0.722177
360, 2, wb, attraction, a-b-da, 2, 3, 3, 26, 120, 195, 195, 120, 193, 119, 3, 1.80328
360, 2, wb, attraction, a-b-da, 2, 3, 3, 26, 120, 195, 195, 120, 193, 119, 1, 1.25798
360, 2, wb, filler, NA, 999, 999, 3, 27, 56, 95, 102, 88, 129, 89, 1, 6.66885
360, 2, wb, filler, NA, 999, 999, 3, 27, 56, 95, 102, 88, 129, 89, 3, 26.9755
360, 2, wb, filler, NA, 999, 999, 3, 28, 141, 123, 59, 150, 85, 185, 2, 1.96617
360, 2, wb, filler, NA, 999, 999, 3, 28, 141, 123, 59, 150, 85, 185, 1, 1.24651
360, 2, wb, attraction, a-b-db, 5, 2, 3, 29, 90, 165, 88, 161, 165, 90, 3, 1.31386
360, 2, wb, attraction, a-b-db, 5, 2, 3, 29, 90, 165, 88, 161, 165, 90, 2, 1.14012
360, 2, wb, attraction, a-b-db, 14, 2, 3, 30, 165, 90, 83, 153, 90, 165, 1, 1.09961
360, 2, wb, attraction, a-b-db, 14, 2, 3, 30, 165, 90, 83, 153, 90, 165, 3, 0.950619
360, 2, wb, attraction, a-b-da, 5, 3, 3, 31, 195, 120, 190, 117, 120, 195, 3, 46.8143
360, 2, wb, attraction, a-b-da, 5, 3, 3, 31, 195, 120, 190, 117, 120, 195, 2, 0.54288
360, 2, wb, attraction, a-b-db, 9, 1, 3, 32, 57, 129, 60, 135, 135, 60, 3, 0.854688
360, 2, wb, attraction, a-b-db, 9, 1, 3, 32, 57, 129, 60, 135, 135, 60, 2, 0.467063
360, 2, wb, attraction, a-b-da, 9, 2, 3, 33, 90, 165, 157, 86, 165, 90, 3, 0.510141
360, 2, wb, attraction, a-b-da, 9, 2, 3, 33, 90, 165, 157, 86, 165, 90, 2, 0.44084
360, 2, wb, attraction, a-b-db, 14, 1, 3, 34, 56, 125, 135, 60, 60, 135, 3, 0.660458
360, 2, wb, attraction, a-b-db, 14, 1, 3, 34, 56, 125, 135, 60, 60, 135, 2, 1.36894
360, 2, wb, attraction, a-b-db, 14, 3, 3, 35, 111, 181, 195, 120, 120, 195, 2, 2.51177
360, 2, wb, attraction, a-b-db, 14, 3, 3, 35, 111, 181, 195, 120, 120, 195, 3, 0.905606
360, 2, wb, attraction, a-b-db, 2, 3, 3, 36, 120, 195, 119, 193, 195, 120, 3, 1.2352
360, 2, wb, attraction, a-b-db, 2, 3, 3, 36, 120, 195, 119, 193, 195, 120, 2, 0.464853
360, 2, wb, attraction, a-b-da, 9, 1, 3, 37, 60, 135, 135, 60, 129, 57, 3, 0.947985
360, 2, wb, attraction, a-b-da, 9, 1, 3, 37, 60, 135, 135, 60, 129, 57, 1, 0.501169
360, 2, wb, attraction, a-b-db, 9, 1, 4, 1, 60, 135, 135, 60, 57, 129, 2, 1.4788
360, 2, wb, attraction, a-b-db, 9, 1, 4, 1, 60, 135, 135, 60, 57, 129, 1, 0.52231
360, 2, wb, attraction, a-b-db, 2, 3, 4, 2, 120, 195, 119, 193, 195, 120, 3, 0.603445
360, 2, wb, attraction, a-b-db, 2, 3, 4, 2, 120, 195, 119, 193, 195, 120, 2, 0.466472
360, 2, wb, filler, NA, 999, 999, 4, 3, 119, 125, 138, 94, 125, 118, 3, 0.757672
360, 2, wb, filler, NA, 999, 999, 4, 3, 119, 125, 138, 94, 125, 118, 1, 1.99828
360, 2, wb, attraction, a-b-db, 5, 1, 4, 4, 135, 60, 58, 132, 60, 135, 2, 2.33134
360, 2, wb, attraction, a-b-db, 5, 1, 4, 4, 135, 60, 58, 132, 60, 135, 1, 2.12458
360, 2, wb, filler, NA, 999, 999, 4, 5, 56, 134, 119, 145, 195, 162, 1, 0.916536
360, 2, wb, filler, NA, 999, 999, 4, 5, 56, 134, 119, 145, 195, 162, 3, 0.71094
360, 2, wb, attraction, a-b-da, 5, 1, 4, 6, 132, 58, 60, 135, 135, 60, 3, 23.024
360, 2, wb, attraction, a-b-da, 5, 1, 4, 6, 132, 58, 60, 135, 135, 60, 2, 0.735395
360, 2, wb, attraction, a-b-da, 2, 3, 4, 7, 120, 195, 195, 120, 193, 119, 2, 9.87979
360, 2, wb, attraction, a-b-da, 2, 3, 4, 7, 120, 195, 195, 120, 193, 119, 1, 1.09667
360, 2, wb, attraction, a-b-db, 14, 3, 4, 8, 111, 181, 195, 120, 120, 195, 2, 3.17826
360, 2, wb, attraction, a-b-db, 14, 3, 4, 8, 111, 181, 195, 120, 120, 195, 1, 0.465361
360, 2, wb, attraction, a-b-da, 9, 2, 4, 9, 165, 90, 157, 86, 90, 165, 2, 1.45245
360, 2, wb, attraction, a-b-da, 9, 2, 4, 9, 165, 90, 157, 86, 90, 165, 3, 0.88124
360, 2, wb, attraction, a-b-db, 5, 3, 4, 10, 120, 195, 117, 190, 195, 120, 3, 2.00355
360, 2, wb, attraction, a-b-db, 5, 3, 4, 10, 120, 195, 117, 190, 195, 120, 2, 0.674191
360, 2, wb, attraction, a-b-db, 2, 1, 4, 11, 59, 134, 135, 60, 60, 135, 2, 1.18083
360, 2, wb, attraction, a-b-db, 2, 1, 4, 11, 59, 134, 135, 60, 60, 135, 3, 2.58827
360, 2, wb, attraction, a-b-da, 2, 2, 4, 12, 163, 89, 90, 165, 165, 90, 1, 8.2181
360, 2, wb, attraction, a-b-da, 2, 2, 4, 12, 163, 89, 90, 165, 165, 90, 2, 0.526193
360, 2, wb, attraction, a-b-db, 2, 2, 4, 13, 89, 163, 165, 90, 90, 165, 2, 3.81457
360, 2, wb, attraction, a-b-db, 2, 2, 4, 13, 89, 163, 165, 90, 90, 165, 3, 0.716036
360, 2, wb, catch, NA, 999, 999, 4, 14, 131, 64, 127, 188, 105, 150, 1, 1.2051
360, 2, wb, catch, NA, 999, 999, 4, 14, 131, 64, 127, 188, 105, 150, 2, 0.563447
360, 2, wb, attraction, a-b-da, 2, 1, 4, 15, 60, 135, 134, 59, 135, 60, 3, 0.970554
360, 2, wb, attraction, a-b-da, 2, 1, 4, 15, 60, 135, 134, 59, 135, 60, 2, 1.52278
360, 2, wb, attraction, a-b-da, 9, 3, 4, 16, 120, 195, 186, 114, 195, 120, 3, 2.48354
360, 2, wb, attraction, a-b-da, 9, 3, 4, 16, 120, 195, 186, 114, 195, 120, 1, 0.614732
360, 2, wb, attraction, a-b-da, 14, 3, 4, 17, 195, 120, 120, 195, 181, 111, 1, 1.77984
360, 2, wb, attraction, a-b-da, 14, 3, 4, 17, 195, 120, 120, 195, 181, 111, 2, 0.467388
360, 2, wb, filler, NA, 999, 999, 4, 18, 116, 117, 149, 172, 143, 114, 1, 1.29435
360, 2, wb, filler, NA, 999, 999, 4, 18, 116, 117, 149, 172, 143, 114, 2, 0.817294
360, 2, wb, attraction, a-b-da, 14, 2, 4, 19, 153, 83, 90, 165, 165, 90, 1, 1.19827
360, 2, wb, attraction, a-b-da, 14, 2, 4, 19, 153, 83, 90, 165, 165, 90, 2, 0.780887
360, 2, wb, filler, NA, 999, 999, 4, 20, 59, 142, 111, 180, 56, 100, 1, 1.25955
360, 2, wb, filler, NA, 999, 999, 4, 20, 59, 142, 111, 180, 56, 100, 2, 0.752098
360, 2, wb, attraction, a-b-db, 9, 2, 4, 21, 90, 165, 86, 157, 165, 90, 3, 1.23955
360, 2, wb, attraction, a-b-db, 9, 2, 4, 21, 90, 165, 86, 157, 165, 90, 1, 5.75649
360, 2, wb, attraction, a-b-db, 9, 3, 4, 22, 120, 195, 114, 186, 195, 120, 3, 13.5947
360, 2, wb, attraction, a-b-db, 9, 3, 4, 22, 120, 195, 114, 186, 195, 120, 2, 0.765774
360, 2, wb, attraction, a-b-da, 9, 1, 4, 23, 135, 60, 129, 57, 60, 135, 2, 0.916741
360, 2, wb, attraction, a-b-da, 9, 1, 4, 23, 135, 60, 129, 57, 60, 135, 1, 2.80716
360, 2, wb, filler, NA, 999, 999, 4, 24, 174, 120, 189, 148, 135, 119, 3, 0.964176
360, 2, wb, filler, NA, 999, 999, 4, 24, 174, 120, 189, 148, 135, 119, 2, 0.476495
360, 2, wb, attraction, a-b-db, 14, 1, 4, 25, 60, 135, 135, 60, 56, 125, 2, 1.37491
360, 2, wb, attraction, a-b-db, 14, 1, 4, 25, 60, 135, 135, 60, 56, 125, 3, 3.32657
360, 2, wb, attraction, a-b-db, 5, 2, 4, 26, 90, 165, 88, 161, 165, 90, 3, 11.6621
360, 2, wb, attraction, a-b-db, 5, 2, 4, 26, 90, 165, 88, 161, 165, 90, 2, 0.863158
360, 2, wb, attraction, a-b-da, 5, 3, 4, 27, 195, 120, 120, 195, 190, 117, 3, 6.08208
360, 2, wb, attraction, a-b-da, 5, 3, 4, 27, 195, 120, 120, 195, 190, 117, 2, 0.955361
360, 2, wb, filler, NA, 999, 999, 4, 28, 74, 170, 69, 174, 126, 174, 2, 1.93177
360, 2, wb, filler, NA, 999, 999, 4, 28, 74, 170, 69, 174, 126, 174, 3, 0.821297
360, 2, wb, filler, NA, 999, 999, 4, 29, 167, 123, 143, 61, 108, 89, 2, 0.930183
360, 2, wb, filler, NA, 999, 999, 4, 29, 167, 123, 143, 61, 108, 89, 1, 0.539792
360, 2, wb, attraction, a-b-db, 14, 2, 4, 30, 165, 90, 90, 165, 83, 153, 2, 12.7476
360, 2, wb, attraction, a-b-db, 14, 2, 4, 30, 165, 90, 90, 165, 83, 153, 1, 2.64098
360, 2, wb, catch, NA, 999, 999, 4, 31, 132, 123, 97, 98, 124, 191, 2, 0.788091
360, 2, wb, catch, NA, 999, 999, 4, 31, 132, 123, 97, 98, 124, 191, 3, 0.54718
360, 2, wb, filler, NA, 999, 999, 4, 32, 144, 97, 164, 132, 143, 89, 3, 2.07496
360, 2, wb, filler, NA, 999, 999, 4, 32, 144, 97, 164, 132, 143, 89, 2, 0.766289
360, 2, wb, filler, NA, 999, 999, 4, 33, 176, 142, 134, 56, 171, 101, 2, 0.71724
360, 2, wb, filler, NA, 999, 999, 4, 33, 176, 142, 134, 56, 171, 101, 1, 1.07173
360, 2, wb, catch, NA, 999, 999, 4, 34, 135, 60, 183, 132, 165, 90, 1, 1.20509
360, 2, wb, catch, NA, 999, 999, 4, 34, 135, 60, 183, 132, 165, 90, 2, 0.560846
360, 2, wb, filler, NA, 999, 999, 4, 35, 160, 57, 135, 163, 57, 180, 1, 0.895982
360, 2, wb, filler, NA, 999, 999, 4, 35, 160, 57, 135, 163, 57, 180, 2, 0.690989
360, 2, wb, attraction, a-b-da, 5, 2, 4, 36, 161, 88, 90, 165, 165, 90, 3, 0.980711
360, 2, wb, attraction, a-b-da, 5, 2, 4, 36, 161, 88, 90, 165, 165, 90, 2, 0.508452
360, 2, wb, attraction, a-b-da, 14, 1, 4, 37, 135, 60, 60, 135, 125, 56, 2, 2.62953
360, 2, wb, attraction, a-b-da, 14, 1, 4, 37, 135, 60, 60, 135, 125, 56, 3, 2.02672
360, 2, wb, attraction, a-b-da, 9, 3, 5, 1, 186, 114, 120, 195, 195, 120, 1, 5.91732
360, 2, wb, attraction, a-b-da, 9, 3, 5, 1, 186, 114, 120, 195, 195, 120, 2, 0.694179
360, 2, wb, filler, NA, 999, 999, 5, 2, 64, 134, 176, 190, 183, 160, 1, 0.735775
360, 2, wb, filler, NA, 999, 999, 5, 2, 64, 134, 176, 190, 183, 160, 2, 0.433555
360, 2, wb, filler, NA, 999, 999, 5, 3, 150, 191, 109, 158, 120, 108, 3, 1.96601
360, 2, wb, filler, NA, 999, 999, 5, 3, 150, 191, 109, 158, 120, 108, 1, 0.709974
360, 2, wb, filler, NA, 999, 999, 5, 4, 151, 140, 86, 161, 139, 99, 3, 1.76707
360, 2, wb, filler, NA, 999, 999, 5, 4, 151, 140, 86, 161, 139, 99, 1, 2.67132
360, 2, wb, filler, NA, 999, 999, 5, 5, 180, 189, 163, 191, 195, 73, 3, 0.929627
360, 2, wb, filler, NA, 999, 999, 5, 5, 180, 189, 163, 191, 195, 73, 2, 0.53126
360, 2, wb, filler, NA, 999, 999, 5, 6, 158, 122, 118, 137, 81, 131, 3, 0.779674
360, 2, wb, filler, NA, 999, 999, 5, 6, 158, 122, 118, 137, 81, 131, 2, 1.45943
360, 2, wb, filler, NA, 999, 999, 5, 7, 101, 95, 79, 129, 156, 80, 3, 1.12627
360, 2, wb, filler, NA, 999, 999, 5, 7, 101, 95, 79, 129, 156, 80, 2, 1.50396
360, 2, wb, attraction, a-b-db, 5, 3, 5, 8, 195, 120, 120, 195, 117, 190, 2, 8.39331
360, 2, wb, attraction, a-b-db, 5, 3, 5, 8, 195, 120, 120, 195, 117, 190, 3, 1.86204
360, 2, wb, attraction, a-b-db, 2, 2, 5, 9, 89, 163, 90, 165, 165, 90, 3, 3.52876
360, 2, wb, attraction, a-b-db, 2, 2, 5, 9, 89, 163, 90, 165, 165, 90, 2, 0.457578
360, 2, wb, attraction, a-b-da, 14, 1, 5, 10, 135, 60, 60, 135, 125, 56, 3, 1.62873
360, 2, wb, attraction, a-b-da, 14, 1, 5, 10, 135, 60, 60, 135, 125, 56, 2, 0.690238
360, 2, wb, attraction, a-b-db, 2, 3, 5, 11, 119, 193, 195, 120, 120, 195, 2, 29.58
360, 2, wb, attraction, a-b-db, 2, 3, 5, 11, 119, 193, 195, 120, 120, 195, 1, 1.00329
360, 2, wb, attraction, a-b-db, 9, 2, 5, 12, 90, 165, 86, 157, 165, 90, 3, 1.32899
360, 2, wb, attraction, a-b-db, 9, 2, 5, 12, 90, 165, 86, 157, 165, 90, 2, 0.386583
360, 2, wb, attraction, a-b-db, 14, 3, 5, 13, 111, 181, 120, 195, 195, 120, 3, 2.70503
360, 2, wb, attraction, a-b-db, 14, 3, 5, 13, 111, 181, 120, 195, 195, 120, 2, 0.594792
360, 2, wb, attraction, a-b-da, 5, 3, 5, 14, 120, 195, 195, 120, 190, 117, 3, 1.71262
360, 2, wb, attraction, a-b-da, 5, 3, 5, 14, 120, 195, 195, 120, 190, 117, 1, 0.394667
360, 2, wb, attraction, a-b-db, 14, 2, 5, 15, 165, 90, 90, 165, 83, 153, 1, 1.07248
360, 2, wb, attraction, a-b-db, 14, 2, 5, 15, 165, 90, 90, 165, 83, 153, 2, 0.412066
360, 2, wb, attraction, a-b-da, 9, 1, 5, 16, 60, 135, 135, 60, 129, 57, 3, 1.48121
360, 2, wb, attraction, a-b-da, 9, 1, 5, 16, 60, 135, 135, 60, 129, 57, 2, 4.88485
360, 2, wb, attraction, a-b-da, 5, 1, 5, 17, 132, 58, 135, 60, 60, 135, 3, 1.93387
360, 2, wb, attraction, a-b-da, 5, 1, 5, 17, 132, 58, 135, 60, 60, 135, 2, 0.490309
360, 2, wb, catch, NA, 999, 999, 5, 18, 131, 184, 150, 105, 98, 97, 3, 0.857045
360, 2, wb, catch, NA, 999, 999, 5, 18, 131, 184, 150, 105, 98, 97, 1, 0.605363
360, 2, wb, filler, NA, 999, 999, 5, 19, 169, 67, 132, 108, 92, 88, 3, 0.811216
360, 2, wb, filler, NA, 999, 999, 5, 19, 169, 67, 132, 108, 92, 88, 2, 0.529517
360, 2, wb, catch, NA, 999, 999, 5, 20, 104, 91, 172, 143, 106, 149, 1, 0.930004
360, 2, wb, catch, NA, 999, 999, 5, 20, 104, 91, 172, 143, 106, 149, 2, 8.87562
360, 2, wb, attraction, a-b-da, 2, 2, 5, 21, 165, 90, 90, 165, 163, 89, 1, 1.08346
360, 2, wb, attraction, a-b-da, 2, 2, 5, 21, 165, 90, 90, 165, 163, 89, 2, 1.12713
360, 2, wb, filler, NA, 999, 999, 5, 22, 92, 74, 146, 103, 133, 127, 1, 0.519341
360, 2, wb, filler, NA, 999, 999, 5, 22, 92, 74, 146, 103, 133, 127, 2, 0.657877
360, 2, wb, attraction, a-b-db, 2, 1, 5, 23, 60, 135, 59, 134, 135, 60, 3, 2.12487
360, 2, wb, attraction, a-b-db, 2, 1, 5, 23, 60, 135, 59, 134, 135, 60, 2, 1.11823
360, 2, wb, attraction, a-b-db, 5, 2, 5, 24, 90, 165, 88, 161, 165, 90, 3, 0.623248
360, 2, wb, attraction, a-b-db, 5, 2, 5, 24, 90, 165, 88, 161, 165, 90, 2, 0.468913
360, 2, wb, attraction, a-b-db, 9, 3, 5, 25, 195, 120, 114, 186, 120, 195, 1, 2.16003
360, 2, wb, attraction, a-b-db, 9, 3, 5, 25, 195, 120, 114, 186, 120, 195, 2, 0.792023
360, 2, wb, attraction, a-b-da, 2, 3, 5, 26, 193, 119, 120, 195, 195, 120, 1, 0.677747
360, 2, wb, attraction, a-b-da, 2, 3, 5, 26, 193, 119, 120, 195, 195, 120, 2, 2.62547
360, 2, wb, filler, NA, 999, 999, 5, 27, 158, 168, 153, 186, 133, 92, 3, 0.701279
360, 2, wb, filler, NA, 999, 999, 5, 27, 158, 168, 153, 186, 133, 92, 2, 0.632288
360, 2, wb, catch, NA, 999, 999, 5, 28, 67, 128, 133, 122, 181, 134, 1, 0.972737
360, 2, wb, catch, NA, 999, 999, 5, 28, 67, 128, 133, 122, 181, 134, 3, 0.508403
360, 2, wb, attraction, a-b-da, 14, 3, 5, 29, 120, 195, 181, 111, 195, 120, 2, 4.60556
360, 2, wb, attraction, a-b-da, 14, 3, 5, 29, 120, 195, 181, 111, 195, 120, 1, 1.60271
360, 2, wb, attraction, a-b-db, 14, 1, 5, 30, 56, 125, 135, 60, 60, 135, 2, 1.20025
360, 2, wb, attraction, a-b-db, 14, 1, 5, 30, 56, 125, 135, 60, 60, 135, 3, 0.631133
360, 2, wb, attraction, a-b-db, 9, 1, 5, 31, 135, 60, 60, 135, 57, 129, 1, 2.97164
360, 2, wb, attraction, a-b-db, 9, 1, 5, 31, 135, 60, 60, 135, 57, 129, 2, 0.506545
360, 2, wb, attraction, a-b-da, 14, 2, 5, 32, 153, 83, 90, 165, 165, 90, 1, 3.18776
360, 2, wb, attraction, a-b-da, 14, 2, 5, 32, 153, 83, 90, 165, 165, 90, 2, 0.889993
360, 2, wb, attraction, a-b-da, 2, 1, 5, 33, 134, 59, 60, 135, 135, 60, 1, 0.875666
360, 2, wb, attraction, a-b-da, 2, 1, 5, 33, 134, 59, 60, 135, 135, 60, 2, 2.4235
360, 2, wb, attraction, a-b-da, 9, 2, 5, 34, 157, 86, 90, 165, 165, 90, 1, 8.78719
360, 2, wb, attraction, a-b-da, 9, 2, 5, 34, 157, 86, 90, 165, 165, 90, 2, 0.632373
360, 2, wb, filler, NA, 999, 999, 5, 35, 174, 92, 67, 69, 171, 171, 2, 1.0288
360, 2, wb, filler, NA, 999, 999, 5, 35, 174, 92, 67, 69, 171, 171, 3, 0.434478
360, 2, wb, attraction, a-b-da, 5, 2, 5, 36, 161, 88, 165, 90, 90, 165, 1, 0.775011
360, 2, wb, attraction, a-b-da, 5, 2, 5, 36, 161, 88, 165, 90, 90, 165, 3, 1.15075
360, 2, wb, attraction, a-b-db, 5, 1, 5, 37, 135, 60, 60, 135, 58, 132, 1, 0.966421
360, 2, wb, attraction, a-b-db, 5, 1, 5, 37, 135, 60, 60, 135, 58, 132, 2, 1.35065
360, 2, wb, attraction, a-b-da, 2, 1, 6, 1, 135, 60, 60, 135, 134, 59, 3, 1.23015
360, 2, wb, attraction, a-b-da, 2, 1, 6, 1, 135, 60, 60, 135, 134, 59, 2, 11.4699
360, 2, wb, filler, NA, 999, 999, 6, 2, 56, 81, 176, 94, 89, 166, 1, 0.795387
360, 2, wb, filler, NA, 999, 999, 6, 2, 56, 81, 176, 94, 89, 166, 2, 10.6106
360, 2, wb, filler, NA, 999, 999, 6, 3, 117, 56, 104, 144, 123, 62, 1, 1.09259
360, 2, wb, filler, NA, 999, 999, 6, 3, 117, 56, 104, 144, 123, 62, 2, 16.4315
360, 2, wb, attraction, a-b-da, 9, 3, 6, 4, 120, 195, 186, 114, 195, 120, 2, 2.34293
360, 2, wb, attraction, a-b-da, 9, 3, 6, 4, 120, 195, 186, 114, 195, 120, 1, 0.823501
360, 2, wb, attraction, a-b-db, 14, 2, 6, 5, 83, 153, 165, 90, 90, 165, 2, 1.04397
360, 2, wb, attraction, a-b-db, 14, 2, 6, 5, 83, 153, 165, 90, 90, 165, 3, 23.617
360, 2, wb, attraction, a-b-da, 5, 2, 6, 6, 161, 88, 165, 90, 90, 165, 1, 2.20672
360, 2, wb, attraction, a-b-da, 5, 2, 6, 6, 161, 88, 165, 90, 90, 165, 3, 0.908632
360, 2, wb, filler, NA, 999, 999, 6, 7, 148, 102, 103, 168, 133, 147, 1, 19.6856
360, 2, wb, filler, NA, 999, 999, 6, 7, 148, 102, 103, 168, 133, 147, 2, 0.769397
360, 2, wb, attraction, a-b-db, 2, 2, 6, 8, 90, 165, 89, 163, 165, 90, 3, 0.842548
360, 2, wb, attraction, a-b-db, 2, 2, 6, 8, 90, 165, 89, 163, 165, 90, 2, 8.28758
360, 2, wb, filler, NA, 999, 999, 6, 9, 190, 65, 97, 137, 163, 62, 3, 4.64773
360, 2, wb, filler, NA, 999, 999, 6, 9, 190, 65, 97, 137, 163, 62, 2, 0.475361
360, 2, wb, attraction, a-b-db, 9, 3, 6, 10, 114, 186, 120, 195, 195, 120, 3, 1.85399
360, 2, wb, attraction, a-b-db, 9, 3, 6, 10, 114, 186, 120, 195, 195, 120, 2, 0.817937
360, 2, wb, filler, NA, 999, 999, 6, 11, 195, 166, 63, 107, 179, 176, 2, 1.51894
360, 2, wb, filler, NA, 999, 999, 6, 11, 195, 166, 63, 107, 179, 176, 1, 2.16913
360, 2, wb, attraction, a-b-da, 5, 1, 6, 12, 132, 58, 60, 135, 135, 60, 1, 41.7787
360, 2, wb, attraction, a-b-da, 5, 1, 6, 12, 132, 58, 60, 135, 135, 60, 2, 1.29925
360, 2, wb, attraction, a-b-da, 5, 3, 6, 13, 195, 120, 120, 195, 190, 117, 3, 1.2609
360, 2, wb, attraction, a-b-da, 5, 3, 6, 13, 195, 120, 120, 195, 190, 117, 2, 0.561161
360, 2, wb, attraction, a-b-db, 2, 1, 6, 14, 59, 134, 135, 60, 60, 135, 2, 0.848266
360, 2, wb, attraction, a-b-db, 2, 1, 6, 14, 59, 134, 135, 60, 60, 135, 1, 1.34919
360, 2, wb, catch, NA, 999, 999, 6, 15, 195, 120, 152, 103, 65, 130, 3, 26.9967
360, 2, wb, catch, NA, 999, 999, 6, 15, 195, 120, 152, 103, 65, 130, 1, 0.691597
360, 2, wb, attraction, a-b-db, 9, 1, 6, 16, 60, 135, 135, 60, 57, 129, 2, 1.37327
360, 2, wb, attraction, a-b-db, 9, 1, 6, 16, 60, 135, 135, 60, 57, 129, 3, 0.844883
360, 2, wb, filler, NA, 999, 999, 6, 17, 175, 113, 91, 184, 191, 90, 3, 31.4806
360, 2, wb, filler, NA, 999, 999, 6, 17, 175, 113, 91, 184, 191, 90, 2, 0.691404
360, 2, wb, attraction, a-b-db, 9, 2, 6, 18, 90, 165, 86, 157, 165, 90, 3, 0.741199
360, 2, wb, attraction, a-b-db, 9, 2, 6, 18, 90, 165, 86, 157, 165, 90, 2, 0.918105
360, 2, wb, attraction, a-b-da, 9, 2, 6, 19, 165, 90, 90, 165, 157, 86, 3, 0.703084
360, 2, wb, attraction, a-b-da, 9, 2, 6, 19, 165, 90, 90, 165, 157, 86, 2, 0.45753
360, 2, wb, filler, NA, 999, 999, 6, 20, 57, 104, 122, 194, 98, 133, 1, 1.16461
360, 2, wb, filler, NA, 999, 999, 6, 20, 57, 104, 122, 194, 98, 133, 2, 0.500889
360, 2, wb, attraction, a-b-db, 5, 3, 6, 21, 120, 195, 117, 190, 195, 120, 3, 3.26283
360, 2, wb, attraction, a-b-db, 5, 3, 6, 21, 120, 195, 117, 190, 195, 120, 2, 0.554334
360, 2, wb, attraction, a-b-db, 14, 1, 6, 22, 135, 60, 60, 135, 56, 125, 3, 1.38617
360, 2, wb, attraction, a-b-db, 14, 1, 6, 22, 135, 60, 60, 135, 56, 125, 2, 0.769734
360, 2, wb, filler, NA, 999, 999, 6, 23, 149, 84, 80, 155, 191, 163, 1, 0.856647
360, 2, wb, filler, NA, 999, 999, 6, 23, 149, 84, 80, 155, 191, 163, 3, 0.613119
360, 2, wb, attraction, a-b-da, 9, 1, 6, 24, 129, 57, 135, 60, 60, 135, 1, 1.09819
360, 2, wb, attraction, a-b-da, 9, 1, 6, 24, 129, 57, 135, 60, 60, 135, 3, 1.63712
360, 2, wb, filler, NA, 999, 999, 6, 25, 76, 86, 72, 131, 119, 183, 1, 1.32126
360, 2, wb, filler, NA, 999, 999, 6, 25, 76, 86, 72, 131, 119, 183, 3, 0.474796
360, 2, wb, attraction, a-b-db, 14, 3, 6, 26, 195, 120, 120, 195, 111, 181, 1, 2.62919
360, 2, wb, attraction, a-b-db, 14, 3, 6, 26, 195, 120, 120, 195, 111, 181, 2, 0.650499
360, 2, wb, attraction, a-b-da, 14, 3, 6, 27, 195, 120, 181, 111, 120, 195, 2, 7.79813
360, 2, wb, attraction, a-b-da, 14, 3, 6, 27, 195, 120, 181, 111, 120, 195, 3, 0.546366
360, 2, wb, attraction, a-b-db, 2, 3, 6, 28, 119, 193, 195, 120, 120, 195, 2, 1.17076
360, 2, wb, attraction, a-b-db, 2, 3, 6, 28, 119, 193, 195, 120, 120, 195, 3, 0.714399
360, 2, wb, attraction, a-b-da, 14, 2, 6, 29, 165, 90, 153, 83, 90, 165, 2, 0.683537
360, 2, wb, attraction, a-b-da, 14, 2, 6, 29, 165, 90, 153, 83, 90, 165, 3, 0.543202
360, 2, wb, attraction, a-b-db, 5, 1, 6, 30, 58, 132, 60, 135, 135, 60, 3, 1.39095
360, 2, wb, attraction, a-b-db, 5, 1, 6, 30, 58, 132, 60, 135, 135, 60, 2, 0.58995
360, 2, wb, attraction, a-b-da, 2, 2, 6, 31, 90, 165, 163, 89, 165, 90, 3, 0.659606
360, 2, wb, attraction, a-b-da, 2, 2, 6, 31, 90, 165, 163, 89, 165, 90, 1, 0.520075
360, 2, wb, attraction, a-b-db, 5, 2, 6, 32, 90, 165, 88, 161, 165, 90, 3, 0.64123
360, 2, wb, attraction, a-b-db, 5, 2, 6, 32, 90, 165, 88, 161, 165, 90, 2, 0.334259
360, 2, wb, attraction, a-b-da, 14, 1, 6, 33, 125, 56, 135, 60, 60, 135, 2, 1.91871
360, 2, wb, attraction, a-b-da, 14, 1, 6, 33, 125, 56, 135, 60, 60, 135, 3, 0.103979
360, 2, wb, attraction, a-b-da, 2, 3, 6, 34, 193, 119, 120, 195, 195, 120, 3, 1.17866
360, 2, wb, attraction, a-b-da, 2, 3, 6, 34, 193, 119, 120, 195, 195, 120, 2, 0.370257
360, 2, wb, filler, NA, 999, 999, 6, 35, 90, 135, 177, 61, 79, 91, 3, 1.68951
360, 2, wb, filler, NA, 999, 999, 6, 35, 90, 135, 177, 61, 79, 91, 1, 1.3482
360, 2, wb, catch, NA, 999, 999, 6, 36, 132, 123, 100, 95, 135, 180, 2, 0.97968
360, 2, wb, catch, NA, 999, 999, 6, 36, 132, 123, 100, 95, 135, 180, 3, 0.475486
360, 2, wb, catch, NA, 999, 999, 6, 37, 136, 119, 160, 155, 89, 106, 3, 0.685856
360, 2, wb, catch, NA, 999, 999, 6, 37, 136, 119, 160, 155, 89, 106, 2, 0.457796
360, 2, wb, filler, NA, 999, 999, 7, 1, 140, 175, 66, 168, 139, 157, 2, 1.69279
360, 2, wb, filler, NA, 999, 999, 7, 1, 140, 175, 66, 168, 139, 157, 3, 0.599596
360, 2, wb, catch, NA, 999, 999, 7, 2, 153, 102, 153, 162, 108, 87, 2, 1.5014
360, 2, wb, catch, NA, 999, 999, 7, 2, 153, 102, 153, 162, 108, 87, 3, 2.99207
360, 2, wb, attraction, a-b-db, 2, 1, 7, 3, 59, 134, 60, 135, 135, 60, 3, 3.96397
360, 2, wb, attraction, a-b-db, 2, 1, 7, 3, 59, 134, 60, 135, 135, 60, 2, 0.956483
360, 2, wb, attraction, a-b-da, 14, 3, 7, 4, 181, 111, 195, 120, 120, 195, 1, 1.37953
360, 2, wb, attraction, a-b-da, 14, 3, 7, 4, 181, 111, 195, 120, 120, 195, 3, 0.563141
360, 2, wb, attraction, a-b-db, 14, 2, 7, 5, 165, 90, 83, 153, 90, 165, 1, 0.690107
360, 2, wb, attraction, a-b-db, 14, 2, 7, 5, 165, 90, 83, 153, 90, 165, 3, 0.557275
360, 2, wb, attraction, a-b-db, 2, 3, 7, 6, 195, 120, 120, 195, 119, 193, 1, 0.66038
360, 2, wb, attraction, a-b-db, 2, 3, 7, 6, 195, 120, 120, 195, 119, 193, 2, 0.416821
360, 2, wb, attraction, a-b-da, 5, 3, 7, 7, 120, 195, 190, 117, 195, 120, 3, 0.645963
360, 2, wb, attraction, a-b-da, 5, 3, 7, 7, 120, 195, 190, 117, 195, 120, 1, 0.475167
360, 2, wb, filler, NA, 999, 999, 7, 8, 88, 64, 158, 195, 139, 131, 1, 1.14953
360, 2, wb, filler, NA, 999, 999, 7, 8, 88, 64, 158, 195, 139, 131, 2, 0.382516
360, 2, wb, filler, NA, 999, 999, 7, 9, 184, 74, 124, 109, 99, 169, 1, 0.780889
360, 2, wb, filler, NA, 999, 999, 7, 9, 184, 74, 124, 109, 99, 169, 3, 0.468657
360, 2, wb, filler, NA, 999, 999, 7, 10, 128, 178, 65, 69, 156, 119, 2, 1.06383
360, 2, wb, filler, NA, 999, 999, 7, 10, 128, 178, 65, 69, 156, 119, 1, 0.364102
360, 2, wb, filler, NA, 999, 999, 7, 11, 63, 77, 118, 98, 71, 57, 1, 1.52334
360, 2, wb, filler, NA, 999, 999, 7, 11, 63, 77, 118, 98, 71, 57, 2, 0.34869
360, 2, wb, filler, NA, 999, 999, 7, 12, 166, 71, 78, 133, 72, 145, 1, 0.916537
360, 2, wb, filler, NA, 999, 999, 7, 12, 166, 71, 78, 133, 72, 145, 2, 3.79909
360, 2, wb, catch, NA, 999, 999, 7, 13, 88, 107, 157, 158, 141, 114, 1, 1.05979
360, 2, wb, catch, NA, 999, 999, 7, 13, 88, 107, 157, 158, 141, 114, 2, 0.648047
360, 2, wb, attraction, a-b-db, 2, 2, 7, 14, 165, 90, 90, 165, 89, 163, 1, 13.6998
360, 2, wb, attraction, a-b-db, 2, 2, 7, 14, 165, 90, 90, 165, 89, 163, 2, 0.466742
360, 2, wb, attraction, a-b-db, 14, 1, 7, 15, 135, 60, 60, 135, 56, 125, 1, 0.525868
360, 2, wb, attraction, a-b-db, 14, 1, 7, 15, 135, 60, 60, 135, 56, 125, 2, 0.471729
360, 2, wb, attraction, a-b-da, 5, 1, 7, 16, 132, 58, 60, 135, 135, 60, 1, 0.698653
360, 2, wb, attraction, a-b-da, 5, 1, 7, 16, 132, 58, 60, 135, 135, 60, 3, 0.509857
360, 2, wb, filler, NA, 999, 999, 7, 17, 130, 70, 140, 147, 60, 167, 1, 0.827262
360, 2, wb, filler, NA, 999, 999, 7, 17, 130, 70, 140, 147, 60, 167, 2, 0.30877
360, 2, wb, attraction, a-b-db, 5, 3, 7, 18, 195, 120, 120, 195, 117, 190, 1, 0.725924
360, 2, wb, attraction, a-b-db, 5, 3, 7, 18, 195, 120, 120, 195, 117, 190, 2, 0.791812
360, 2, wb, attraction, a-b-da, 14, 2, 7, 19, 90, 165, 153, 83, 165, 90, 3, 0.709447
360, 2, wb, attraction, a-b-da, 14, 2, 7, 19, 90, 165, 153, 83, 165, 90, 1, 0.415751
360, 2, wb, attraction, a-b-da, 9, 1, 7, 20, 60, 135, 135, 60, 129, 57, 3, 0.492874
360, 2, wb, attraction, a-b-da, 9, 1, 7, 20, 60, 135, 135, 60, 129, 57, 1, 0.408009
360, 2, wb, attraction, a-b-da, 9, 3, 7, 21, 120, 195, 195, 120, 186, 114, 3, 0.909285
360, 2, wb, attraction, a-b-da, 9, 3, 7, 21, 120, 195, 195, 120, 186, 114, 2, 0.351592
360, 2, wb, attraction, a-b-db, 5, 2, 7, 22, 165, 90, 90, 165, 88, 161, 1, 0.583381
360, 2, wb, attraction, a-b-db, 5, 2, 7, 22, 165, 90, 90, 165, 88, 161, 2, 0.431209
360, 2, wb, attraction, a-b-db, 9, 2, 7, 23, 165, 90, 90, 165, 86, 157, 1, 0.484152
360, 2, wb, attraction, a-b-db, 9, 2, 7, 23, 165, 90, 90, 165, 86, 157, 2, 0.60686
360, 2, wb, catch, NA, 999, 999, 7, 24, 132, 183, 92, 103, 115, 140, 2, 1.27584
360, 2, wb, catch, NA, 999, 999, 7, 24, 132, 183, 92, 103, 115, 140, 1, 0.30362
360, 2, wb, attraction, a-b-da, 2, 1, 7, 25, 134, 59, 60, 135, 135, 60, 3, 0.433293
360, 2, wb, attraction, a-b-da, 2, 1, 7, 25, 134, 59, 60, 135, 135, 60, 2, 0.351195
360, 2, wb, attraction, a-b-da, 2, 3, 7, 26, 195, 120, 193, 119, 120, 195, 1, 0.39897
360, 2, wb, attraction, a-b-da, 2, 3, 7, 26, 195, 120, 193, 119, 120, 195, 3, 0.614161
360, 2, wb, filler, NA, 999, 999, 7, 27, 142, 112, 167, 138, 171, 88, 3, 0.84327
360, 2, wb, filler, NA, 999, 999, 7, 27, 142, 112, 167, 138, 171, 88, 2, 0.6083
360, 2, wb, attraction, a-b-da, 14, 1, 7, 28, 60, 135, 135, 60, 125, 56, 3, 0.661364
360, 2, wb, attraction, a-b-da, 14, 1, 7, 28, 60, 135, 135, 60, 125, 56, 1, 1.03379
360, 2, wb, filler, NA, 999, 999, 7, 29, 149, 158, 84, 97, 163, 103, 2, 0.99818
360, 2, wb, filler, NA, 999, 999, 7, 29, 149, 158, 84, 97, 163, 103, 1, 0.341207
360, 2, wb, attraction, a-b-da, 2, 2, 7, 30, 90, 165, 165, 90, 163, 89, 3, 0.636984
360, 2, wb, attraction, a-b-da, 2, 2, 7, 30, 90, 165, 165, 90, 163, 89, 2, 0.553999
360, 2, wb, attraction, a-b-db, 9, 1, 7, 31, 135, 60, 57, 129, 60, 135, 2, 0.810044
360, 2, wb, attraction, a-b-db, 9, 1, 7, 31, 135, 60, 57, 129, 60, 135, 1, 0.448244
360, 2, wb, filler, NA, 999, 999, 7, 32, 175, 75, 85, 151, 180, 71, 1, 0.708865
360, 2, wb, filler, NA, 999, 999, 7, 32, 175, 75, 85, 151, 180, 71, 2, 0.270423
360, 2, wb, attraction, a-b-db, 5, 1, 7, 33, 135, 60, 58, 132, 60, 135, 1, 0.313576
360, 2, wb, attraction, a-b-db, 5, 1, 7, 33, 135, 60, 58, 132, 60, 135, 2, 0.532205
360, 2, wb, attraction, a-b-da, 5, 2, 7, 34, 165, 90, 90, 165, 161, 88, 1, 0.284539
360, 2, wb, attraction, a-b-da, 5, 2, 7, 34, 165, 90, 90, 165, 161, 88, 2, 0.432512
360, 2, wb, attraction, a-b-db, 14, 3, 7, 35, 111, 181, 120, 195, 195, 120, 3, 0.812998
360, 2, wb, attraction, a-b-db, 14, 3, 7, 35, 111, 181, 120, 195, 195, 120, 2, 0.467397
360, 2, wb, attraction, a-b-db, 9, 3, 7, 36, 120, 195, 114, 186, 195, 120, 3, 0.838441
360, 2, wb, attraction, a-b-db, 9, 3, 7, 36, 120, 195, 114, 186, 195, 120, 2, 0.739516
360, 2, wb, attraction, a-b-da, 9, 2, 7, 37, 157, 86, 90, 165, 165, 90, 3, 0.923219
360, 2, wb, attraction, a-b-da, 9, 2, 7, 37, 157, 86, 90, 165, 165, 90, 2, 0.109828
360, 2, wb, attraction, a-b-db, 14, 1, 8, 1, 60, 135, 56, 125, 135, 60, 3, 1.13414
360, 2, wb, attraction, a-b-db, 14, 1, 8, 1, 60, 135, 56, 125, 135, 60, 1, 0.351698
360, 2, wb, attraction, a-b-da, 5, 1, 8, 2, 132, 58, 135, 60, 60, 135, 1, 0.871603
360, 2, wb, attraction, a-b-da, 5, 1, 8, 2, 132, 58, 135, 60, 60, 135, 2, 0.363218
360, 2, wb, filler, NA, 999, 999, 8, 3, 161, 73, 137, 122, 142, 106, 1, 0.402445
360, 2, wb, filler, NA, 999, 999, 8, 3, 161, 73, 137, 122, 142, 106, 2, 0.313689
360, 2, wb, filler, NA, 999, 999, 8, 4, 180, 94, 145, 185, 78, 147, 1, 0.418792
360, 2, wb, filler, NA, 999, 999, 8, 4, 180, 94, 145, 185, 78, 147, 2, 0.297325
360, 2, wb, catch, NA, 999, 999, 8, 5, 121, 134, 115, 80, 145, 170, 2, 1.06722
360, 2, wb, catch, NA, 999, 999, 8, 5, 121, 134, 115, 80, 145, 170, 3, 0.551591
360, 2, wb, attraction, a-b-da, 9, 1, 8, 6, 60, 135, 129, 57, 135, 60, 2, 0.423243
360, 2, wb, attraction, a-b-da, 9, 1, 8, 6, 60, 135, 129, 57, 135, 60, 3, 0.637154
360, 2, wb, attraction, a-b-da, 14, 1, 8, 7, 60, 135, 125, 56, 135, 60, 2, 0.52158
360, 2, wb, attraction, a-b-da, 14, 1, 8, 7, 60, 135, 125, 56, 135, 60, 1, 0.41133
360, 2, wb, catch, NA, 999, 999, 8, 8, 92, 163, 104, 91, 139, 176, 3, 0.58447
360, 2, wb, catch, NA, 999, 999, 8, 8, 92, 163, 104, 91, 139, 176, 2, 0.496271
360, 2, wb, filler, NA, 999, 999, 8, 9, 170, 96, 129, 74, 114, 90, 2, 0.924298
360, 2, wb, filler, NA, 999, 999, 8, 9, 170, 96, 129, 74, 114, 90, 1, 0.347716
360, 2, wb, attraction, a-b-db, 2, 2, 8, 10, 90, 165, 89, 163, 165, 90, 1, 1.02795
360, 2, wb, attraction, a-b-db, 2, 2, 8, 10, 90, 165, 89, 163, 165, 90, 2, 0.873117
360, 2, wb, filler, NA, 999, 999, 8, 11, 178, 137, 189, 86, 188, 192, 2, 0.811508
360, 2, wb, filler, NA, 999, 999, 8, 11, 178, 137, 189, 86, 188, 192, 3, 0.4339
360, 2, wb, filler, NA, 999, 999, 8, 12, 171, 165, 164, 154, 61, 131, 2, 0.278404
360, 2, wb, filler, NA, 999, 999, 8, 12, 171, 165, 164, 154, 61, 131, 3, 1.05036
360, 2, wb, attraction, a-b-db, 5, 1, 8, 13, 135, 60, 60, 135, 58, 132, 3, 2.7419
360, 2, wb, attraction, a-b-db, 5, 1, 8, 13, 135, 60, 60, 135, 58, 132, 2, 1.07832
360, 2, wb, attraction, a-b-db, 2, 3, 8, 14, 195, 120, 120, 195, 119, 193, 2, 1.55254
360, 2, wb, attraction, a-b-db, 2, 3, 8, 14, 195, 120, 120, 195, 119, 193, 3, 0.39347
360, 2, wb, attraction, a-b-da, 5, 3, 8, 15, 190, 117, 195, 120, 120, 195, 2, 1.28724
360, 2, wb, attraction, a-b-da, 5, 3, 8, 15, 190, 117, 195, 120, 120, 195, 3, 0.362753
360, 2, wb, attraction, a-b-da, 5, 2, 8, 16, 161, 88, 165, 90, 90, 165, 2, 0.449884
360, 2, wb, attraction, a-b-da, 5, 2, 8, 16, 161, 88, 165, 90, 90, 165, 3, 0.375147
360, 2, wb, attraction, a-b-da, 14, 2, 8, 17, 90, 165, 165, 90, 153, 83, 2, 0.485638
360, 2, wb, attraction, a-b-da, 14, 2, 8, 17, 90, 165, 165, 90, 153, 83, 3, 0.433425
360, 2, wb, catch, NA, 999, 999, 8, 18, 162, 153, 91, 104, 94, 161, 2, 0.573951
360, 2, wb, catch, NA, 999, 999, 8, 18, 162, 153, 91, 104, 94, 161, 3, 0.509693
360, 2, wb, attraction, a-b-da, 14, 3, 8, 19, 181, 111, 120, 195, 195, 120, 3, 0.982896
360, 2, wb, attraction, a-b-da, 14, 3, 8, 19, 181, 111, 120, 195, 195, 120, 2, 0.534036
360, 2, wb, filler, NA, 999, 999, 8, 20, 87, 168, 124, 95, 106, 132, 2, 1.95899
360, 2, wb, filler, NA, 999, 999, 8, 20, 87, 168, 124, 95, 106, 132, 1, 0.417162
360, 2, wb, attraction, a-b-da, 9, 3, 8, 21, 120, 195, 195, 120, 186, 114, 2, 1.3002
360, 2, wb, attraction, a-b-da, 9, 3, 8, 21, 120, 195, 195, 120, 186, 114, 1, 0.45506
360, 2, wb, attraction, a-b-db, 9, 2, 8, 22, 90, 165, 86, 157, 165, 90, 3, 0.938794
360, 2, wb, attraction, a-b-db, 9, 2, 8, 22, 90, 165, 86, 157, 165, 90, 1, 0.923964
360, 2, wb, attraction, a-b-da, 9, 2, 8, 23, 157, 86, 90, 165, 165, 90, 2, 2.86017
360, 2, wb, attraction, a-b-da, 9, 2, 8, 23, 157, 86, 90, 165, 165, 90, 3, 0.719944
360, 2, wb, attraction, a-b-db, 2, 1, 8, 24, 60, 135, 59, 134, 135, 60, 3, 2.00898
360, 2, wb, attraction, a-b-db, 2, 1, 8, 24, 60, 135, 59, 134, 135, 60, 2, 0.38294
360, 2, wb, attraction, a-b-db, 9, 3, 8, 25, 120, 195, 114, 186, 195, 120, 3, 0.59741
360, 2, wb, attraction, a-b-db, 9, 3, 8, 25, 120, 195, 114, 186, 195, 120, 2, 0.292511
360, 2, wb, attraction, a-b-db, 5, 2, 8, 26, 88, 161, 165, 90, 90, 165, 3, 0.774417
360, 2, wb, attraction, a-b-db, 5, 2, 8, 26, 88, 161, 165, 90, 90, 165, 2, 0.366107
360, 2, wb, filler, NA, 999, 999, 8, 27, 124, 65, 115, 57, 167, 172, 1, 0.74929
360, 2, wb, filler, NA, 999, 999, 8, 27, 124, 65, 115, 57, 167, 172, 3, 0.486387
360, 2, wb, attraction, a-b-db, 9, 1, 8, 28, 60, 135, 135, 60, 57, 129, 1, 0.552864
360, 2, wb, attraction, a-b-db, 9, 1, 8, 28, 60, 135, 135, 60, 57, 129, 2, 0.481955
360, 2, wb, attraction, a-b-da, 2, 1, 8, 29, 134, 59, 135, 60, 60, 135, 1, 0.7565
360, 2, wb, attraction, a-b-da, 2, 1, 8, 29, 134, 59, 135, 60, 60, 135, 2, 0.388788
360, 2, wb, attraction, a-b-db, 14, 2, 8, 30, 83, 153, 165, 90, 90, 165, 3, 0.355336
360, 2, wb, attraction, a-b-db, 14, 2, 8, 30, 83, 153, 165, 90, 90, 165, 2, 0.379863
360, 2, wb, attraction, a-b-db, 5, 3, 8, 31, 117, 190, 195, 120, 120, 195, 1, 0.354349
360, 2, wb, attraction, a-b-db, 5, 3, 8, 31, 117, 190, 195, 120, 120, 195, 2, 0.370836
360, 2, wb, attraction, a-b-da, 2, 3, 8, 32, 193, 119, 195, 120, 120, 195, 2, 0.802109
360, 2, wb, attraction, a-b-da, 2, 3, 8, 32, 193, 119, 195, 120, 120, 195, 3, 0.665174
360, 2, wb, filler, NA, 999, 999, 8, 33, 68, 75, 160, 80, 187, 178, 1, 0.924228
360, 2, wb, filler, NA, 999, 999, 8, 33, 68, 75, 160, 80, 187, 178, 3, 0.405973
360, 2, wb, attraction, a-b-db, 14, 3, 8, 34, 111, 181, 120, 195, 195, 120, 3, 0.811111
360, 2, wb, attraction, a-b-db, 14, 3, 8, 34, 111, 181, 120, 195, 195, 120, 2, 0.353361
360, 2, wb, filler, NA, 999, 999, 8, 35, 72, 123, 89, 77, 75, 122, 1, 0.593196
360, 2, wb, filler, NA, 999, 999, 8, 35, 72, 123, 89, 77, 75, 122, 3, 0.744271
360, 2, wb, filler, NA, 999, 999, 8, 36, 151, 74, 107, 189, 110, 126, 1, 0.832007
360, 2, wb, filler, NA, 999, 999, 8, 36, 151, 74, 107, 189, 110, 126, 2, 0.669712
360, 2, wb, attraction, a-b-da, 2, 2, 8, 37, 163, 89, 90, 165, 165, 90, 1, 0.976871
360, 2, wb, attraction, a-b-da, 2, 2, 8, 37, 163, 89, 90, 165, 165, 90, 2, 0.680499
