sub_n, computer_n, bw_cond, effect, set, distance, diag, block_n, trial_n, h1, w1, h2, w2, h3, w3, choice, rt 
326, 2, wb, practice, NA, 999, 999, 0, 1, 71, 186, 98, 129, 79, 181, 1, 9.0876
326, 2, wb, practice, NA, 999, 999, 0, 1, 71, 186, 98, 129, 79, 181, 2, 3.35195
326, 2, wb, practice, NA, 999, 999, 0, 2, 162, 167, 157, 79, 95, 89, 3, 5.59525
326, 2, wb, practice, NA, 999, 999, 0, 2, 162, 167, 157, 79, 95, 89, 1, 1.88036
326, 2, wb, practice, NA, 999, 999, 0, 3, 145, 62, 72, 97, 148, 157, 1, 2.55292
326, 2, wb, practice, NA, 999, 999, 0, 3, 145, 62, 72, 97, 148, 157, 3, 1.3111
326, 2, wb, attraction, a-b-da, 14, 2, 1, 1, 153, 83, 90, 165, 165, 90, 1, 3.22138
326, 2, wb, attraction, a-b-da, 14, 2, 1, 1, 153, 83, 90, 165, 165, 90, 2, 2.25038
326, 2, wb, filler, NA, 999, 999, 1, 2, 98, 169, 153, 70, 56, 191, 3, 2.81361
326, 2, wb, filler, NA, 999, 999, 1, 2, 98, 169, 153, 70, 56, 191, 1, 1.28349
326, 2, wb, filler, NA, 999, 999, 1, 3, 193, 128, 152, 90, 158, 70, 3, 2.54978
326, 2, wb, filler, NA, 999, 999, 1, 3, 193, 128, 152, 90, 158, 70, 1, 1.90208
326, 2, wb, attraction, a-b-da, 2, 2, 1, 4, 165, 90, 90, 165, 163, 89, 1, 2.11144
326, 2, wb, attraction, a-b-da, 2, 2, 1, 4, 165, 90, 90, 165, 163, 89, 2, 0.857478
326, 2, wb, attraction, a-b-db, 14, 1, 1, 5, 60, 135, 135, 60, 56, 125, 3, 1.32446
326, 2, wb, attraction, a-b-db, 14, 1, 1, 5, 60, 135, 135, 60, 56, 125, 1, 1.36605
326, 2, wb, filler, NA, 999, 999, 1, 6, 92, 191, 56, 178, 100, 192, 2, 0.964861
326, 2, wb, filler, NA, 999, 999, 1, 6, 92, 191, 56, 178, 100, 192, 1, 1.6452
326, 2, wb, filler, NA, 999, 999, 1, 7, 149, 124, 174, 56, 132, 163, 2, 1.92861
326, 2, wb, filler, NA, 999, 999, 1, 7, 149, 124, 174, 56, 132, 163, 1, 0.489984
326, 2, wb, attraction, a-b-da, 5, 2, 1, 8, 161, 88, 165, 90, 90, 165, 1, 3.86782
326, 2, wb, attraction, a-b-da, 5, 2, 1, 8, 161, 88, 165, 90, 90, 165, 3, 1.25533
326, 2, wb, attraction, a-b-db, 14, 2, 1, 9, 90, 165, 83, 153, 165, 90, 3, 3.23473
326, 2, wb, attraction, a-b-db, 14, 2, 1, 9, 90, 165, 83, 153, 165, 90, 1, 0.863727
326, 2, wb, catch, NA, 999, 999, 1, 10, 108, 87, 164, 151, 154, 101, 1, 1.12271
326, 2, wb, catch, NA, 999, 999, 1, 10, 108, 87, 164, 151, 154, 101, 2, 0.452361
326, 2, wb, attraction, a-b-da, 14, 3, 1, 11, 181, 111, 195, 120, 120, 195, 1, 3.87221
326, 2, wb, attraction, a-b-da, 14, 3, 1, 11, 181, 111, 195, 120, 120, 195, 3, 1.64293
326, 2, wb, attraction, a-b-db, 5, 3, 1, 12, 120, 195, 117, 190, 195, 120, 1, 4.43043
326, 2, wb, attraction, a-b-db, 5, 3, 1, 12, 120, 195, 117, 190, 195, 120, 3, 0.83654
326, 2, wb, filler, NA, 999, 999, 1, 13, 187, 102, 149, 95, 113, 173, 2, 6.17528
326, 2, wb, filler, NA, 999, 999, 1, 13, 187, 102, 149, 95, 113, 173, 3, 2.24536
326, 2, wb, attraction, a-b-db, 9, 2, 1, 14, 86, 157, 165, 90, 90, 165, 2, 1.68063
326, 2, wb, attraction, a-b-db, 9, 2, 1, 14, 86, 157, 165, 90, 90, 165, 3, 1.5481
326, 2, wb, filler, NA, 999, 999, 1, 15, 178, 100, 174, 193, 78, 153, 3, 1.24346
326, 2, wb, filler, NA, 999, 999, 1, 15, 178, 100, 174, 193, 78, 153, 2, 0.424357
326, 2, wb, catch, NA, 999, 999, 1, 16, 146, 169, 130, 125, 61, 134, 3, 0.972827
326, 2, wb, catch, NA, 999, 999, 1, 16, 146, 169, 130, 125, 61, 134, 1, 0.812569
326, 2, wb, attraction, a-b-da, 9, 3, 1, 17, 186, 114, 195, 120, 120, 195, 1, 0.969488
326, 2, wb, attraction, a-b-da, 9, 3, 1, 17, 186, 114, 195, 120, 120, 195, 3, 1.25784
326, 2, wb, attraction, a-b-db, 2, 3, 1, 18, 120, 195, 119, 193, 195, 120, 3, 2.19686
326, 2, wb, attraction, a-b-db, 2, 3, 1, 18, 120, 195, 119, 193, 195, 120, 2, 0.93934
326, 2, wb, attraction, a-b-da, 9, 1, 1, 19, 60, 135, 129, 57, 135, 60, 2, 1.89167
326, 2, wb, attraction, a-b-da, 9, 1, 1, 19, 60, 135, 129, 57, 135, 60, 1, 1.66234
326, 2, wb, filler, NA, 999, 999, 1, 20, 71, 119, 74, 170, 124, 180, 1, 3.48121
326, 2, wb, filler, NA, 999, 999, 1, 20, 71, 119, 74, 170, 124, 180, 3, 0.796174
326, 2, wb, attraction, a-b-db, 14, 3, 1, 21, 111, 181, 195, 120, 120, 195, 2, 4.03391
326, 2, wb, attraction, a-b-db, 14, 3, 1, 21, 111, 181, 195, 120, 120, 195, 3, 1.17447
326, 2, wb, attraction, a-b-da, 2, 3, 1, 22, 195, 120, 120, 195, 193, 119, 3, 1.85268
326, 2, wb, attraction, a-b-da, 2, 3, 1, 22, 195, 120, 120, 195, 193, 119, 2, 0.79346
326, 2, wb, attraction, a-b-db, 9, 3, 1, 23, 195, 120, 114, 186, 120, 195, 1, 1.06315
326, 2, wb, attraction, a-b-db, 9, 3, 1, 23, 195, 120, 114, 186, 120, 195, 3, 1.25141
326, 2, wb, attraction, a-b-da, 5, 1, 1, 24, 135, 60, 132, 58, 60, 135, 2, 1.36695
326, 2, wb, attraction, a-b-da, 5, 1, 1, 24, 135, 60, 132, 58, 60, 135, 3, 0.943167
326, 2, wb, attraction, a-b-db, 2, 1, 1, 25, 59, 134, 60, 135, 135, 60, 3, 0.774782
326, 2, wb, attraction, a-b-db, 2, 1, 1, 25, 59, 134, 60, 135, 135, 60, 2, 1.18254
326, 2, wb, attraction, a-b-da, 5, 3, 1, 26, 190, 117, 120, 195, 195, 120, 3, 1.87675
326, 2, wb, attraction, a-b-da, 5, 3, 1, 26, 190, 117, 120, 195, 195, 120, 2, 0.576246
326, 2, wb, attraction, a-b-da, 14, 1, 1, 27, 135, 60, 60, 135, 125, 56, 3, 1.05472
326, 2, wb, attraction, a-b-da, 14, 1, 1, 27, 135, 60, 60, 135, 125, 56, 2, 0.81091
326, 2, wb, attraction, a-b-db, 2, 2, 1, 28, 165, 90, 89, 163, 90, 165, 1, 0.99198
326, 2, wb, attraction, a-b-db, 2, 2, 1, 28, 165, 90, 89, 163, 90, 165, 2, 1.08692
326, 2, wb, catch, NA, 999, 999, 1, 29, 115, 140, 121, 194, 60, 135, 3, 0.713211
326, 2, wb, catch, NA, 999, 999, 1, 29, 115, 140, 121, 194, 60, 135, 2, 1.41968
326, 2, wb, attraction, a-b-da, 2, 1, 1, 30, 135, 60, 60, 135, 134, 59, 3, 1.1365
326, 2, wb, attraction, a-b-da, 2, 1, 1, 30, 135, 60, 60, 135, 134, 59, 2, 2.64222
326, 2, wb, attraction, a-b-db, 5, 2, 1, 31, 88, 161, 90, 165, 165, 90, 3, 2.35727
326, 2, wb, attraction, a-b-db, 5, 2, 1, 31, 88, 161, 90, 165, 165, 90, 2, 2.17313
326, 2, wb, attraction, a-b-da, 9, 2, 1, 32, 157, 86, 165, 90, 90, 165, 1, 3.02706
326, 2, wb, attraction, a-b-da, 9, 2, 1, 32, 157, 86, 165, 90, 90, 165, 3, 0.808027
326, 2, wb, filler, NA, 999, 999, 1, 33, 159, 188, 78, 87, 164, 121, 2, 5.42919
326, 2, wb, filler, NA, 999, 999, 1, 33, 159, 188, 78, 87, 164, 121, 1, 0.94541
326, 2, wb, filler, NA, 999, 999, 1, 34, 166, 76, 81, 175, 166, 82, 1, 2.20899
326, 2, wb, filler, NA, 999, 999, 1, 34, 166, 76, 81, 175, 166, 82, 2, 1.04709
326, 2, wb, attraction, a-b-db, 5, 1, 1, 35, 135, 60, 58, 132, 60, 135, 1, 1.69868
326, 2, wb, attraction, a-b-db, 5, 1, 1, 35, 135, 60, 58, 132, 60, 135, 2, 1.03734
326, 2, wb, filler, NA, 999, 999, 1, 36, 144, 190, 86, 89, 111, 79, 3, 7.06571
326, 2, wb, filler, NA, 999, 999, 1, 36, 144, 190, 86, 89, 111, 79, 1, 4.63625
326, 2, wb, attraction, a-b-db, 9, 1, 1, 37, 60, 135, 135, 60, 57, 129, 2, 2.02323
326, 2, wb, attraction, a-b-db, 9, 1, 1, 37, 60, 135, 135, 60, 57, 129, 1, 1.59652
326, 2, wb, filler, NA, 999, 999, 2, 1, 73, 144, 140, 175, 115, 133, 1, 1.87392
326, 2, wb, filler, NA, 999, 999, 2, 1, 73, 144, 140, 175, 115, 133, 2, 5.2774
326, 2, wb, attraction, a-b-da, 9, 3, 2, 2, 186, 114, 120, 195, 195, 120, 1, 1.79035
326, 2, wb, attraction, a-b-da, 9, 3, 2, 2, 186, 114, 120, 195, 195, 120, 2, 1.10924
326, 2, wb, attraction, a-b-da, 2, 2, 2, 3, 163, 89, 90, 165, 165, 90, 1, 1.39007
326, 2, wb, attraction, a-b-da, 2, 2, 2, 3, 163, 89, 90, 165, 165, 90, 2, 1.02886
326, 2, wb, attraction, a-b-da, 2, 1, 2, 4, 134, 59, 60, 135, 135, 60, 1, 1.52929
326, 2, wb, attraction, a-b-da, 2, 1, 2, 4, 134, 59, 60, 135, 135, 60, 2, 1.39474
326, 2, wb, filler, NA, 999, 999, 2, 5, 180, 145, 59, 97, 175, 178, 2, 2.64818
326, 2, wb, filler, NA, 999, 999, 2, 5, 180, 145, 59, 97, 175, 178, 3, 1.59693
326, 2, wb, attraction, a-b-db, 5, 1, 2, 6, 58, 132, 135, 60, 60, 135, 2, 3.08206
326, 2, wb, attraction, a-b-db, 5, 1, 2, 6, 58, 132, 135, 60, 60, 135, 1, 1.46912
326, 2, wb, attraction, a-b-db, 2, 1, 2, 7, 59, 134, 60, 135, 135, 60, 3, 1.85594
326, 2, wb, attraction, a-b-db, 2, 1, 2, 7, 59, 134, 60, 135, 135, 60, 2, 2.00406
326, 2, wb, filler, NA, 999, 999, 2, 8, 101, 87, 84, 141, 94, 60, 3, 1.49725
326, 2, wb, filler, NA, 999, 999, 2, 8, 101, 87, 84, 141, 94, 60, 2, 5.30821
326, 2, wb, attraction, a-b-da, 9, 1, 2, 9, 60, 135, 135, 60, 129, 57, 3, 11.1238
326, 2, wb, attraction, a-b-da, 9, 1, 2, 9, 60, 135, 135, 60, 129, 57, 1, 1.16221
326, 2, wb, attraction, a-b-db, 9, 3, 2, 10, 120, 195, 195, 120, 114, 186, 2, 4.47321
326, 2, wb, attraction, a-b-db, 9, 3, 2, 10, 120, 195, 195, 120, 114, 186, 1, 1.36384
326, 2, wb, attraction, a-b-db, 14, 1, 2, 11, 60, 135, 56, 125, 135, 60, 2, 2.14659
326, 2, wb, attraction, a-b-db, 14, 1, 2, 11, 60, 135, 56, 125, 135, 60, 1, 8.36322
326, 2, wb, catch, NA, 999, 999, 2, 12, 107, 148, 179, 136, 106, 89, 3, 1.72811
326, 2, wb, catch, NA, 999, 999, 2, 12, 107, 148, 179, 136, 106, 89, 2, 0.817536
326, 2, wb, filler, NA, 999, 999, 2, 13, 185, 65, 181, 172, 105, 94, 1, 1.14233
326, 2, wb, filler, NA, 999, 999, 2, 13, 185, 65, 181, 172, 105, 94, 2, 0.991251
326, 2, wb, attraction, a-b-da, 2, 3, 2, 14, 195, 120, 120, 195, 193, 119, 3, 6.06094
326, 2, wb, attraction, a-b-da, 2, 3, 2, 14, 195, 120, 120, 195, 193, 119, 2, 1.45564
326, 2, wb, attraction, a-b-db, 14, 3, 2, 15, 111, 181, 120, 195, 195, 120, 3, 10.2192
326, 2, wb, attraction, a-b-db, 14, 3, 2, 15, 111, 181, 120, 195, 195, 120, 2, 1.70262
326, 2, wb, attraction, a-b-db, 9, 2, 2, 16, 86, 157, 90, 165, 165, 90, 3, 2.84807
326, 2, wb, attraction, a-b-db, 9, 2, 2, 16, 86, 157, 90, 165, 165, 90, 1, 1.02839
326, 2, wb, attraction, a-b-db, 5, 2, 2, 17, 90, 165, 88, 161, 165, 90, 3, 1.59278
326, 2, wb, attraction, a-b-db, 5, 2, 2, 17, 90, 165, 88, 161, 165, 90, 2, 1.30366
326, 2, wb, attraction, a-b-db, 2, 3, 2, 18, 195, 120, 120, 195, 119, 193, 1, 2.54496
326, 2, wb, attraction, a-b-db, 2, 3, 2, 18, 195, 120, 120, 195, 119, 193, 2, 0.473496
326, 2, wb, attraction, a-b-da, 5, 2, 2, 19, 165, 90, 161, 88, 90, 165, 1, 5.77211
326, 2, wb, attraction, a-b-da, 5, 2, 2, 19, 165, 90, 161, 88, 90, 165, 3, 1.68291
326, 2, wb, filler, NA, 999, 999, 2, 20, 66, 77, 173, 83, 74, 92, 2, 2.90093
326, 2, wb, filler, NA, 999, 999, 2, 20, 66, 77, 173, 83, 74, 92, 3, 5.51945
326, 2, wb, filler, NA, 999, 999, 2, 21, 175, 108, 78, 166, 174, 125, 2, 13.7349
326, 2, wb, filler, NA, 999, 999, 2, 21, 175, 108, 78, 166, 174, 125, 3, 0.564565
326, 2, wb, attraction, a-b-da, 5, 3, 2, 22, 195, 120, 120, 195, 190, 117, 3, 4.24364
326, 2, wb, attraction, a-b-da, 5, 3, 2, 22, 195, 120, 120, 195, 190, 117, 2, 0.959638
326, 2, wb, filler, NA, 999, 999, 2, 23, 84, 195, 161, 182, 160, 172, 1, 2.18278
326, 2, wb, filler, NA, 999, 999, 2, 23, 84, 195, 161, 182, 160, 172, 2, 1.79003
326, 2, wb, attraction, a-b-db, 5, 3, 2, 24, 117, 190, 120, 195, 195, 120, 3, 3.47535
326, 2, wb, attraction, a-b-db, 5, 3, 2, 24, 117, 190, 120, 195, 195, 120, 2, 0.710339
326, 2, wb, attraction, a-b-da, 5, 1, 2, 25, 135, 60, 132, 58, 60, 135, 2, 2.48723
326, 2, wb, attraction, a-b-da, 5, 1, 2, 25, 135, 60, 132, 58, 60, 135, 3, 1.39388
326, 2, wb, filler, NA, 999, 999, 2, 26, 63, 110, 153, 93, 162, 72, 1, 1.67125
326, 2, wb, filler, NA, 999, 999, 2, 26, 63, 110, 153, 93, 162, 72, 2, 1.14671
326, 2, wb, filler, NA, 999, 999, 2, 27, 153, 68, 185, 106, 170, 92, 1, 1.85829
326, 2, wb, filler, NA, 999, 999, 2, 27, 153, 68, 185, 106, 170, 92, 2, 0.614358
326, 2, wb, attraction, a-b-db, 14, 2, 2, 28, 90, 165, 83, 153, 165, 90, 2, 2.3555
326, 2, wb, attraction, a-b-db, 14, 2, 2, 28, 90, 165, 83, 153, 165, 90, 1, 1.22733
326, 2, wb, attraction, a-b-da, 9, 2, 2, 29, 90, 165, 157, 86, 165, 90, 2, 28.5277
326, 2, wb, attraction, a-b-da, 9, 2, 2, 29, 90, 165, 157, 86, 165, 90, 1, 0.641315
326, 2, wb, catch, NA, 999, 999, 2, 30, 90, 165, 108, 87, 162, 153, 2, 0.645068
326, 2, wb, catch, NA, 999, 999, 2, 30, 90, 165, 108, 87, 162, 153, 3, 0.922164
326, 2, wb, attraction, a-b-da, 14, 2, 2, 31, 165, 90, 90, 165, 153, 83, 3, 1.17918
326, 2, wb, attraction, a-b-da, 14, 2, 2, 31, 165, 90, 90, 165, 153, 83, 2, 0.402708
326, 2, wb, attraction, a-b-da, 14, 3, 2, 32, 120, 195, 195, 120, 181, 111, 3, 1.41666
326, 2, wb, attraction, a-b-da, 14, 3, 2, 32, 120, 195, 195, 120, 181, 111, 1, 1.11084
326, 2, wb, attraction, a-b-da, 14, 1, 2, 33, 125, 56, 135, 60, 60, 135, 1, 0.999645
326, 2, wb, attraction, a-b-da, 14, 1, 2, 33, 125, 56, 135, 60, 60, 135, 3, 1.30271
326, 2, wb, attraction, a-b-db, 9, 1, 2, 34, 57, 129, 135, 60, 60, 135, 2, 2.73629
326, 2, wb, attraction, a-b-db, 9, 1, 2, 34, 57, 129, 135, 60, 60, 135, 3, 0.969385
326, 2, wb, catch, NA, 999, 999, 2, 35, 120, 75, 136, 119, 164, 151, 1, 0.848257
326, 2, wb, catch, NA, 999, 999, 2, 35, 120, 75, 136, 119, 164, 151, 3, 0.493407
326, 2, wb, attraction, a-b-db, 2, 2, 2, 36, 165, 90, 89, 163, 90, 165, 1, 4.56711
326, 2, wb, attraction, a-b-db, 2, 2, 2, 36, 165, 90, 89, 163, 90, 165, 3, 3.72639
326, 2, wb, filler, NA, 999, 999, 2, 37, 94, 152, 60, 97, 102, 88, 2, 21.3716
326, 2, wb, filler, NA, 999, 999, 2, 37, 94, 152, 60, 97, 102, 88, 1, 0.455676
326, 2, wb, attraction, a-b-da, 2, 2, 3, 1, 90, 165, 165, 90, 163, 89, 2, 2.09954
326, 2, wb, attraction, a-b-da, 2, 2, 3, 1, 90, 165, 165, 90, 163, 89, 1, 0.71821
326, 2, wb, filler, NA, 999, 999, 3, 2, 122, 102, 91, 109, 101, 194, 2, 2.54328
326, 2, wb, filler, NA, 999, 999, 3, 2, 122, 102, 91, 109, 101, 194, 3, 0.879797
326, 2, wb, attraction, a-b-db, 9, 3, 3, 3, 114, 186, 195, 120, 120, 195, 1, 4.28214
326, 2, wb, attraction, a-b-db, 9, 3, 3, 3, 114, 186, 195, 120, 120, 195, 3, 1.24476
326, 2, wb, filler, NA, 999, 999, 3, 4, 110, 189, 132, 137, 195, 113, 3, 2.65639
326, 2, wb, filler, NA, 999, 999, 3, 4, 110, 189, 132, 137, 195, 113, 1, 2.95617
326, 2, wb, filler, NA, 999, 999, 3, 5, 58, 70, 172, 185, 109, 84, 1, 2.49117
326, 2, wb, filler, NA, 999, 999, 3, 5, 58, 70, 172, 185, 109, 84, 2, 0.725852
326, 2, wb, filler, NA, 999, 999, 3, 6, 120, 57, 122, 171, 124, 73, 1, 2.806
326, 2, wb, filler, NA, 999, 999, 3, 6, 120, 57, 122, 171, 124, 73, 2, 0.403751
326, 2, wb, filler, NA, 999, 999, 3, 7, 162, 191, 73, 69, 56, 113, 2, 2.76964
326, 2, wb, filler, NA, 999, 999, 3, 7, 162, 191, 73, 69, 56, 113, 1, 0.425343
326, 2, wb, attraction, a-b-db, 5, 3, 3, 8, 120, 195, 195, 120, 117, 190, 2, 17.014
326, 2, wb, attraction, a-b-db, 5, 3, 3, 8, 120, 195, 195, 120, 117, 190, 1, 0.815171
326, 2, wb, attraction, a-b-db, 14, 2, 3, 9, 165, 90, 83, 153, 90, 165, 2, 1.13235
326, 2, wb, attraction, a-b-db, 14, 2, 3, 9, 165, 90, 83, 153, 90, 165, 1, 1.42188
326, 2, wb, attraction, a-b-da, 2, 1, 3, 10, 60, 135, 135, 60, 134, 59, 3, 3.29065
326, 2, wb, attraction, a-b-da, 2, 1, 3, 10, 60, 135, 135, 60, 134, 59, 1, 0.588921
326, 2, wb, attraction, a-b-db, 9, 2, 3, 11, 90, 165, 165, 90, 86, 157, 2, 3.45937
326, 2, wb, attraction, a-b-db, 9, 2, 3, 11, 90, 165, 165, 90, 86, 157, 1, 0.758904
326, 2, wb, attraction, a-b-da, 14, 1, 3, 12, 60, 135, 135, 60, 125, 56, 2, 1.59793
326, 2, wb, attraction, a-b-da, 14, 1, 3, 12, 60, 135, 135, 60, 125, 56, 1, 0.460766
326, 2, wb, filler, NA, 999, 999, 3, 13, 177, 80, 179, 79, 117, 184, 2, 7.85602
326, 2, wb, filler, NA, 999, 999, 3, 13, 177, 80, 179, 79, 117, 184, 3, 0.866078
326, 2, wb, filler, NA, 999, 999, 3, 14, 130, 164, 127, 194, 69, 76, 3, 2.00514
326, 2, wb, filler, NA, 999, 999, 3, 14, 130, 164, 127, 194, 69, 76, 2, 1.067
326, 2, wb, attraction, a-b-db, 5, 1, 3, 15, 135, 60, 60, 135, 58, 132, 1, 2.05403
326, 2, wb, attraction, a-b-db, 5, 1, 3, 15, 135, 60, 60, 135, 58, 132, 2, 0.850071
326, 2, wb, attraction, a-b-da, 9, 2, 3, 16, 157, 86, 165, 90, 90, 165, 1, 1.91777
326, 2, wb, attraction, a-b-da, 9, 2, 3, 16, 157, 86, 165, 90, 90, 165, 3, 1.13575
326, 2, wb, attraction, a-b-db, 9, 1, 3, 17, 60, 135, 135, 60, 57, 129, 2, 4.24809
326, 2, wb, attraction, a-b-db, 9, 1, 3, 17, 60, 135, 135, 60, 57, 129, 1, 0.779946
326, 2, wb, filler, NA, 999, 999, 3, 18, 181, 58, 61, 177, 168, 58, 2, 2.68227
326, 2, wb, filler, NA, 999, 999, 3, 18, 181, 58, 61, 177, 168, 58, 1, 3.14958
326, 2, wb, attraction, a-b-db, 2, 2, 3, 19, 90, 165, 89, 163, 165, 90, 3, 10.2684
326, 2, wb, attraction, a-b-db, 2, 2, 3, 19, 90, 165, 89, 163, 165, 90, 2, 0.757835
326, 2, wb, catch, NA, 999, 999, 3, 20, 188, 127, 94, 161, 98, 97, 3, 1.36485
326, 2, wb, catch, NA, 999, 999, 3, 20, 188, 127, 94, 161, 98, 97, 1, 0.589045
326, 2, wb, attraction, a-b-da, 9, 3, 3, 21, 186, 114, 195, 120, 120, 195, 1, 1.03569
326, 2, wb, attraction, a-b-da, 9, 3, 3, 21, 186, 114, 195, 120, 120, 195, 3, 0.441247
326, 2, wb, attraction, a-b-da, 2, 3, 3, 22, 120, 195, 195, 120, 193, 119, 3, 2.68501
326, 2, wb, attraction, a-b-da, 2, 3, 3, 22, 120, 195, 195, 120, 193, 119, 1, 0.392154
326, 2, wb, attraction, a-b-da, 14, 3, 3, 23, 120, 195, 195, 120, 181, 111, 3, 0.885965
326, 2, wb, attraction, a-b-da, 14, 3, 3, 23, 120, 195, 195, 120, 181, 111, 1, 0.417698
326, 2, wb, filler, NA, 999, 999, 3, 24, 195, 126, 145, 134, 147, 112, 3, 0.918809
326, 2, wb, filler, NA, 999, 999, 3, 24, 195, 126, 145, 134, 147, 112, 1, 1.31314
326, 2, wb, attraction, a-b-da, 5, 2, 3, 25, 161, 88, 90, 165, 165, 90, 1, 1.04995
326, 2, wb, attraction, a-b-da, 5, 2, 3, 25, 161, 88, 90, 165, 165, 90, 2, 0.85494
326, 2, wb, filler, NA, 999, 999, 3, 26, 190, 190, 71, 121, 156, 87, 2, 1.5067
326, 2, wb, filler, NA, 999, 999, 3, 26, 190, 190, 71, 121, 156, 87, 1, 0.356847
326, 2, wb, catch, NA, 999, 999, 3, 27, 140, 175, 137, 118, 134, 61, 3, 1.16398
326, 2, wb, catch, NA, 999, 999, 3, 27, 140, 175, 137, 118, 134, 61, 1, 0.41244
326, 2, wb, attraction, a-b-da, 5, 1, 3, 28, 60, 135, 132, 58, 135, 60, 1, 0.729369
326, 2, wb, attraction, a-b-da, 5, 1, 3, 28, 60, 135, 132, 58, 135, 60, 3, 2.52319
326, 2, wb, attraction, a-b-da, 14, 2, 3, 29, 165, 90, 90, 165, 153, 83, 1, 1.05095
326, 2, wb, attraction, a-b-da, 14, 2, 3, 29, 165, 90, 90, 165, 153, 83, 2, 0.431908
326, 2, wb, attraction, a-b-db, 2, 1, 3, 30, 135, 60, 60, 135, 59, 134, 3, 1.74842
326, 2, wb, attraction, a-b-db, 2, 1, 3, 30, 135, 60, 60, 135, 59, 134, 2, 1.12519
326, 2, wb, attraction, a-b-db, 14, 3, 3, 31, 111, 181, 120, 195, 195, 120, 3, 3.70143
326, 2, wb, attraction, a-b-db, 14, 3, 3, 31, 111, 181, 120, 195, 195, 120, 2, 0.711675
326, 2, wb, catch, NA, 999, 999, 3, 32, 123, 192, 165, 90, 106, 89, 3, 1.04077
326, 2, wb, catch, NA, 999, 999, 3, 32, 123, 192, 165, 90, 106, 89, 1, 0.501649
326, 2, wb, attraction, a-b-da, 5, 3, 3, 33, 120, 195, 195, 120, 190, 117, 3, 1.75145
326, 2, wb, attraction, a-b-da, 5, 3, 3, 33, 120, 195, 195, 120, 190, 117, 1, 0.544175
326, 2, wb, attraction, a-b-db, 14, 1, 3, 34, 135, 60, 56, 125, 60, 135, 2, 3.44791
326, 2, wb, attraction, a-b-db, 14, 1, 3, 34, 135, 60, 56, 125, 60, 135, 3, 0.804139
326, 2, wb, attraction, a-b-db, 2, 3, 3, 35, 120, 195, 119, 193, 195, 120, 3, 44.962
326, 2, wb, attraction, a-b-db, 2, 3, 3, 35, 120, 195, 119, 193, 195, 120, 1, 0.757281
326, 2, wb, attraction, a-b-db, 5, 2, 3, 36, 88, 161, 165, 90, 90, 165, 2, 1.53219
326, 2, wb, attraction, a-b-db, 5, 2, 3, 36, 88, 161, 165, 90, 90, 165, 1, 0.741786
326, 2, wb, attraction, a-b-da, 9, 1, 3, 37, 60, 135, 129, 57, 135, 60, 2, 0.885384
326, 2, wb, attraction, a-b-da, 9, 1, 3, 37, 60, 135, 129, 57, 135, 60, 1, 0.433149
326, 2, wb, attraction, a-b-da, 9, 3, 4, 1, 120, 195, 195, 120, 186, 114, 3, 1.22959
326, 2, wb, attraction, a-b-da, 9, 3, 4, 1, 120, 195, 195, 120, 186, 114, 1, 0.427236
326, 2, wb, filler, NA, 999, 999, 4, 2, 59, 75, 81, 62, 186, 119, 1, 1.98352
326, 2, wb, filler, NA, 999, 999, 4, 2, 59, 75, 81, 62, 186, 119, 3, 0.406957
326, 2, wb, attraction, a-b-db, 9, 3, 4, 3, 195, 120, 114, 186, 120, 195, 1, 0.964096
326, 2, wb, attraction, a-b-db, 9, 3, 4, 3, 195, 120, 114, 186, 120, 195, 2, 0.332521
326, 2, wb, filler, NA, 999, 999, 4, 4, 69, 68, 107, 130, 190, 148, 1, 0.61294
326, 2, wb, filler, NA, 999, 999, 4, 4, 69, 68, 107, 130, 190, 148, 3, 0.331382
326, 2, wb, catch, NA, 999, 999, 4, 5, 112, 83, 140, 175, 120, 135, 1, 0.555938
326, 2, wb, catch, NA, 999, 999, 4, 5, 112, 83, 140, 175, 120, 135, 2, 0.492371
326, 2, wb, attraction, a-b-db, 14, 3, 4, 6, 195, 120, 111, 181, 120, 195, 2, 1.25424
326, 2, wb, attraction, a-b-db, 14, 3, 4, 6, 195, 120, 111, 181, 120, 195, 1, 0.378369
326, 2, wb, catch, NA, 999, 999, 4, 7, 142, 113, 152, 163, 121, 74, 3, 1.23286
326, 2, wb, catch, NA, 999, 999, 4, 7, 142, 113, 152, 163, 121, 74, 2, 0.374495
326, 2, wb, filler, NA, 999, 999, 4, 8, 68, 185, 179, 72, 95, 94, 3, 2.35719
326, 2, wb, filler, NA, 999, 999, 4, 8, 68, 185, 179, 72, 95, 94, 1, 0.980828
326, 2, wb, filler, NA, 999, 999, 4, 9, 74, 174, 168, 60, 136, 86, 2, 0.811101
326, 2, wb, filler, NA, 999, 999, 4, 9, 74, 174, 168, 60, 136, 86, 1, 0.681619
326, 2, wb, attraction, a-b-da, 2, 3, 4, 10, 195, 120, 193, 119, 120, 195, 1, 0.667941
326, 2, wb, attraction, a-b-da, 2, 3, 4, 10, 195, 120, 193, 119, 120, 195, 3, 0.43251
326, 2, wb, filler, NA, 999, 999, 4, 11, 62, 142, 72, 143, 112, 78, 1, 0.44483
326, 2, wb, filler, NA, 999, 999, 4, 11, 62, 142, 72, 143, 112, 78, 3, 0.54614
326, 2, wb, attraction, a-b-da, 14, 2, 4, 12, 90, 165, 165, 90, 153, 83, 3, 1.26579
326, 2, wb, attraction, a-b-da, 14, 2, 4, 12, 90, 165, 165, 90, 153, 83, 1, 0.358039
326, 2, wb, attraction, a-b-da, 14, 1, 4, 13, 60, 135, 125, 56, 135, 60, 2, 0.749151
326, 2, wb, attraction, a-b-da, 14, 1, 4, 13, 60, 135, 125, 56, 135, 60, 1, 0.638321
326, 2, wb, filler, NA, 999, 999, 4, 14, 86, 61, 126, 187, 137, 131, 1, 0.618626
326, 2, wb, filler, NA, 999, 999, 4, 14, 86, 61, 126, 187, 137, 131, 2, 0.321095
326, 2, wb, attraction, a-b-da, 5, 2, 4, 15, 161, 88, 90, 165, 165, 90, 2, 0.962611
326, 2, wb, attraction, a-b-da, 5, 2, 4, 15, 161, 88, 90, 165, 165, 90, 1, 0.866615
326, 2, wb, attraction, a-b-db, 9, 1, 4, 16, 57, 129, 60, 135, 135, 60, 3, 1.39768
326, 2, wb, attraction, a-b-db, 9, 1, 4, 16, 57, 129, 60, 135, 135, 60, 2, 0.34048
326, 2, wb, filler, NA, 999, 999, 4, 17, 187, 82, 109, 72, 142, 132, 2, 0.836335
326, 2, wb, filler, NA, 999, 999, 4, 17, 187, 82, 109, 72, 142, 132, 3, 0.322047
326, 2, wb, attraction, a-b-da, 2, 2, 4, 18, 90, 165, 165, 90, 163, 89, 3, 1.94717
326, 2, wb, attraction, a-b-da, 2, 2, 4, 18, 90, 165, 165, 90, 163, 89, 1, 0.563998
326, 2, wb, attraction, a-b-da, 9, 1, 4, 19, 135, 60, 60, 135, 129, 57, 3, 1.06708
326, 2, wb, attraction, a-b-da, 9, 1, 4, 19, 135, 60, 60, 135, 129, 57, 2, 0.615394
326, 2, wb, attraction, a-b-da, 14, 3, 4, 20, 120, 195, 195, 120, 181, 111, 3, 1.17249
326, 2, wb, attraction, a-b-da, 14, 3, 4, 20, 120, 195, 195, 120, 181, 111, 2, 0.908101
326, 2, wb, attraction, a-b-db, 9, 2, 4, 21, 165, 90, 86, 157, 90, 165, 2, 1.19705
326, 2, wb, attraction, a-b-db, 9, 2, 4, 21, 165, 90, 86, 157, 90, 165, 3, 1.05198
326, 2, wb, attraction, a-b-db, 14, 1, 4, 22, 135, 60, 56, 125, 60, 135, 1, 0.775511
326, 2, wb, attraction, a-b-db, 14, 1, 4, 22, 135, 60, 56, 125, 60, 135, 3, 0.80732
326, 2, wb, attraction, a-b-db, 14, 2, 4, 23, 165, 90, 90, 165, 83, 153, 1, 0.78831
326, 2, wb, attraction, a-b-db, 14, 2, 4, 23, 165, 90, 90, 165, 83, 153, 2, 0.379442
326, 2, wb, attraction, a-b-da, 2, 1, 4, 24, 135, 60, 134, 59, 60, 135, 2, 0.69786
326, 2, wb, attraction, a-b-da, 2, 1, 4, 24, 135, 60, 134, 59, 60, 135, 3, 0.509064
326, 2, wb, catch, NA, 999, 999, 4, 25, 157, 158, 101, 94, 93, 162, 2, 0.710042
326, 2, wb, catch, NA, 999, 999, 4, 25, 157, 158, 101, 94, 93, 162, 1, 0.288488
326, 2, wb, attraction, a-b-da, 9, 2, 4, 26, 157, 86, 165, 90, 90, 165, 2, 0.58699
326, 2, wb, attraction, a-b-da, 9, 2, 4, 26, 157, 86, 165, 90, 90, 165, 3, 0.274737
326, 2, wb, attraction, a-b-da, 5, 3, 4, 27, 195, 120, 190, 117, 120, 195, 2, 0.685237
326, 2, wb, attraction, a-b-da, 5, 3, 4, 27, 195, 120, 190, 117, 120, 195, 3, 0.321059
326, 2, wb, attraction, a-b-db, 2, 2, 4, 28, 165, 90, 89, 163, 90, 165, 2, 0.458255
326, 2, wb, attraction, a-b-db, 2, 2, 4, 28, 165, 90, 89, 163, 90, 165, 1, 0.390724
326, 2, wb, attraction, a-b-db, 5, 2, 4, 29, 90, 165, 88, 161, 165, 90, 2, 0.796548
326, 2, wb, attraction, a-b-db, 5, 2, 4, 29, 90, 165, 88, 161, 165, 90, 3, 0.315617
326, 2, wb, filler, NA, 999, 999, 4, 30, 102, 95, 150, 123, 74, 92, 3, 0.892875
326, 2, wb, filler, NA, 999, 999, 4, 30, 102, 95, 150, 123, 74, 92, 2, 0.263825
326, 2, wb, attraction, a-b-db, 5, 1, 4, 31, 135, 60, 58, 132, 60, 135, 1, 0.931011
326, 2, wb, attraction, a-b-db, 5, 1, 4, 31, 135, 60, 58, 132, 60, 135, 3, 0.852734
326, 2, wb, attraction, a-b-da, 5, 1, 4, 32, 60, 135, 135, 60, 132, 58, 2, 0.63239
326, 2, wb, attraction, a-b-da, 5, 1, 4, 32, 60, 135, 135, 60, 132, 58, 1, 0.910137
326, 2, wb, attraction, a-b-db, 5, 3, 4, 33, 195, 120, 120, 195, 117, 190, 1, 0.719101
326, 2, wb, attraction, a-b-db, 5, 3, 4, 33, 195, 120, 120, 195, 117, 190, 2, 0.601552
326, 2, wb, filler, NA, 999, 999, 4, 34, 137, 163, 192, 72, 114, 170, 2, 0.97527
326, 2, wb, filler, NA, 999, 999, 4, 34, 137, 163, 192, 72, 114, 170, 1, 0.34302
326, 2, wb, attraction, a-b-db, 2, 3, 4, 35, 119, 193, 120, 195, 195, 120, 3, 0.694824
326, 2, wb, attraction, a-b-db, 2, 3, 4, 35, 119, 193, 120, 195, 195, 120, 2, 0.369939
326, 2, wb, attraction, a-b-db, 2, 1, 4, 36, 60, 135, 59, 134, 135, 60, 3, 0.601029
326, 2, wb, attraction, a-b-db, 2, 1, 4, 36, 60, 135, 59, 134, 135, 60, 1, 0.41619
326, 2, wb, filler, NA, 999, 999, 4, 37, 96, 104, 195, 110, 125, 191, 1, 0.629302
326, 2, wb, filler, NA, 999, 999, 4, 37, 96, 104, 195, 110, 125, 191, 3, 0.347097
326, 2, wb, attraction, a-b-db, 5, 2, 5, 1, 90, 165, 88, 161, 165, 90, 3, 2.85758
326, 2, wb, attraction, a-b-db, 5, 2, 5, 1, 90, 165, 88, 161, 165, 90, 2, 0.821274
326, 2, wb, attraction, a-b-db, 14, 2, 5, 2, 165, 90, 90, 165, 83, 153, 3, 1.46635
326, 2, wb, attraction, a-b-db, 14, 2, 5, 2, 165, 90, 90, 165, 83, 153, 1, 1.67869
326, 2, wb, attraction, a-b-db, 2, 3, 5, 3, 120, 195, 195, 120, 119, 193, 3, 0.944619
326, 2, wb, attraction, a-b-db, 2, 3, 5, 3, 120, 195, 195, 120, 119, 193, 1, 1.27363
326, 2, wb, attraction, a-b-da, 2, 2, 5, 4, 165, 90, 90, 165, 163, 89, 3, 0.771801
326, 2, wb, attraction, a-b-da, 2, 2, 5, 4, 165, 90, 90, 165, 163, 89, 2, 0.627486
326, 2, wb, filler, NA, 999, 999, 5, 5, 99, 124, 144, 57, 108, 147, 2, 0.855936
326, 2, wb, filler, NA, 999, 999, 5, 5, 99, 124, 144, 57, 108, 147, 3, 1.02837
326, 2, wb, attraction, a-b-db, 14, 3, 5, 6, 120, 195, 111, 181, 195, 120, 3, 1.42471
326, 2, wb, attraction, a-b-db, 14, 3, 5, 6, 120, 195, 111, 181, 195, 120, 1, 0.398133
326, 2, wb, attraction, a-b-da, 5, 2, 5, 7, 161, 88, 90, 165, 165, 90, 2, 1.62802
326, 2, wb, attraction, a-b-da, 5, 2, 5, 7, 161, 88, 90, 165, 165, 90, 1, 0.521455
326, 2, wb, attraction, a-b-db, 5, 3, 5, 8, 195, 120, 117, 190, 120, 195, 2, 3.85849
326, 2, wb, attraction, a-b-db, 5, 3, 5, 8, 195, 120, 117, 190, 120, 195, 1, 0.653973
326, 2, wb, filler, NA, 999, 999, 5, 9, 59, 101, 104, 91, 182, 177, 1, 0.745665
326, 2, wb, filler, NA, 999, 999, 5, 9, 59, 101, 104, 91, 182, 177, 3, 0.282826
326, 2, wb, attraction, a-b-da, 9, 3, 5, 10, 186, 114, 120, 195, 195, 120, 3, 0.829244
326, 2, wb, attraction, a-b-da, 9, 3, 5, 10, 186, 114, 120, 195, 195, 120, 2, 0.627015
326, 2, wb, filler, NA, 999, 999, 5, 11, 56, 88, 154, 99, 89, 131, 1, 0.919483
326, 2, wb, filler, NA, 999, 999, 5, 11, 56, 88, 154, 99, 89, 131, 2, 0.36984
326, 2, wb, attraction, a-b-db, 9, 2, 5, 12, 90, 165, 86, 157, 165, 90, 3, 1.00893
326, 2, wb, attraction, a-b-db, 9, 2, 5, 12, 90, 165, 86, 157, 165, 90, 1, 0.343247
326, 2, wb, attraction, a-b-da, 9, 1, 5, 13, 60, 135, 129, 57, 135, 60, 2, 0.863087
326, 2, wb, attraction, a-b-da, 9, 1, 5, 13, 60, 135, 129, 57, 135, 60, 1, 0.395439
326, 2, wb, attraction, a-b-da, 14, 2, 5, 14, 165, 90, 153, 83, 90, 165, 2, 0.481223
326, 2, wb, attraction, a-b-da, 14, 2, 5, 14, 165, 90, 153, 83, 90, 165, 3, 0.597178
326, 2, wb, attraction, a-b-db, 5, 1, 5, 15, 58, 132, 60, 135, 135, 60, 2, 0.602978
326, 2, wb, attraction, a-b-db, 5, 1, 5, 15, 58, 132, 60, 135, 135, 60, 3, 0.657973
326, 2, wb, catch, NA, 999, 999, 5, 16, 117, 78, 160, 95, 189, 126, 1, 0.733026
326, 2, wb, catch, NA, 999, 999, 5, 16, 117, 78, 160, 95, 189, 126, 3, 0.366897
326, 2, wb, attraction, a-b-da, 2, 1, 5, 17, 60, 135, 135, 60, 134, 59, 1, 0.597888
326, 2, wb, attraction, a-b-da, 2, 1, 5, 17, 60, 135, 135, 60, 134, 59, 3, 0.413122
326, 2, wb, attraction, a-b-db, 2, 2, 5, 18, 90, 165, 89, 163, 165, 90, 1, 0.530155
326, 2, wb, attraction, a-b-db, 2, 2, 5, 18, 90, 165, 89, 163, 165, 90, 3, 0.924065
326, 2, wb, attraction, a-b-db, 9, 3, 5, 19, 195, 120, 120, 195, 114, 186, 1, 1.34845
326, 2, wb, attraction, a-b-db, 9, 3, 5, 19, 195, 120, 120, 195, 114, 186, 2, 0.373201
326, 2, wb, attraction, a-b-da, 14, 1, 5, 20, 135, 60, 60, 135, 125, 56, 3, 0.707795
326, 2, wb, attraction, a-b-da, 14, 1, 5, 20, 135, 60, 60, 135, 125, 56, 2, 0.894213
326, 2, wb, filler, NA, 999, 999, 5, 21, 180, 186, 106, 90, 183, 91, 2, 0.6878
326, 2, wb, filler, NA, 999, 999, 5, 21, 180, 186, 106, 90, 183, 91, 1, 0.650857
326, 2, wb, attraction, a-b-db, 9, 1, 5, 22, 60, 135, 57, 129, 135, 60, 3, 0.822594
326, 2, wb, attraction, a-b-db, 9, 1, 5, 22, 60, 135, 57, 129, 135, 60, 1, 0.436451
326, 2, wb, filler, NA, 999, 999, 5, 23, 161, 64, 60, 155, 130, 132, 2, 1.99275
326, 2, wb, filler, NA, 999, 999, 5, 23, 161, 64, 60, 155, 130, 132, 3, 0.327587
326, 2, wb, filler, NA, 999, 999, 5, 24, 175, 115, 89, 111, 86, 159, 2, 1.30399
326, 2, wb, filler, NA, 999, 999, 5, 24, 175, 115, 89, 111, 86, 159, 1, 0.34627
326, 2, wb, attraction, a-b-da, 9, 2, 5, 25, 157, 86, 165, 90, 90, 165, 2, 1.26623
326, 2, wb, attraction, a-b-da, 9, 2, 5, 25, 157, 86, 165, 90, 90, 165, 3, 0.382308
326, 2, wb, filler, NA, 999, 999, 5, 26, 127, 92, 91, 102, 107, 57, 3, 0.820756
326, 2, wb, filler, NA, 999, 999, 5, 26, 127, 92, 91, 102, 107, 57, 1, 0.378477
326, 2, wb, filler, NA, 999, 999, 5, 27, 167, 87, 186, 149, 160, 77, 3, 0.784955
326, 2, wb, filler, NA, 999, 999, 5, 27, 167, 87, 186, 149, 160, 77, 2, 0.344716
326, 2, wb, attraction, a-b-db, 2, 1, 5, 28, 59, 134, 60, 135, 135, 60, 3, 1.32054
326, 2, wb, attraction, a-b-db, 2, 1, 5, 28, 59, 134, 60, 135, 135, 60, 1, 0.522125
326, 2, wb, catch, NA, 999, 999, 5, 29, 131, 184, 112, 83, 162, 93, 2, 1.31525
326, 2, wb, catch, NA, 999, 999, 5, 29, 131, 184, 112, 83, 162, 93, 1, 0.333514
326, 2, wb, filler, NA, 999, 999, 5, 30, 114, 129, 65, 63, 120, 155, 2, 1.06998
326, 2, wb, filler, NA, 999, 999, 5, 30, 114, 129, 65, 63, 120, 155, 3, 0.314305
326, 2, wb, attraction, a-b-db, 14, 1, 5, 31, 135, 60, 56, 125, 60, 135, 2, 1.91545
326, 2, wb, attraction, a-b-db, 14, 1, 5, 31, 135, 60, 56, 125, 60, 135, 1, 0.749446
326, 2, wb, attraction, a-b-da, 14, 3, 5, 32, 195, 120, 181, 111, 120, 195, 2, 1.35723
326, 2, wb, attraction, a-b-da, 14, 3, 5, 32, 195, 120, 181, 111, 120, 195, 3, 0.365446
326, 2, wb, catch, NA, 999, 999, 5, 33, 72, 123, 97, 158, 167, 148, 1, 0.668575
326, 2, wb, catch, NA, 999, 999, 5, 33, 72, 123, 97, 158, 167, 148, 3, 0.825176
326, 2, wb, filler, NA, 999, 999, 5, 34, 65, 179, 63, 150, 156, 147, 2, 0.989307
326, 2, wb, filler, NA, 999, 999, 5, 34, 65, 179, 63, 150, 156, 147, 3, 0.604341
326, 2, wb, attraction, a-b-da, 5, 1, 5, 35, 60, 135, 135, 60, 132, 58, 3, 2.61813
326, 2, wb, attraction, a-b-da, 5, 1, 5, 35, 60, 135, 135, 60, 132, 58, 1, 0.871875
326, 2, wb, attraction, a-b-da, 2, 3, 5, 36, 120, 195, 195, 120, 193, 119, 1, 1.7629
326, 2, wb, attraction, a-b-da, 2, 3, 5, 36, 120, 195, 195, 120, 193, 119, 2, 0.331062
326, 2, wb, attraction, a-b-da, 5, 3, 5, 37, 120, 195, 190, 117, 195, 120, 1, 1.02756
326, 2, wb, attraction, a-b-da, 5, 3, 5, 37, 120, 195, 190, 117, 195, 120, 2, 0.505212
326, 2, wb, filler, NA, 999, 999, 6, 1, 56, 59, 188, 162, 182, 101, 1, 0.698961
326, 2, wb, filler, NA, 999, 999, 6, 1, 56, 59, 188, 162, 182, 101, 2, 0.446036
326, 2, wb, attraction, a-b-da, 9, 3, 6, 2, 120, 195, 186, 114, 195, 120, 2, 1.4259
326, 2, wb, attraction, a-b-da, 9, 3, 6, 2, 120, 195, 186, 114, 195, 120, 1, 0.543523
326, 2, wb, attraction, a-b-da, 2, 3, 6, 3, 193, 119, 120, 195, 195, 120, 1, 1.90311
326, 2, wb, attraction, a-b-da, 2, 3, 6, 3, 193, 119, 120, 195, 195, 120, 2, 0.921865
326, 2, wb, filler, NA, 999, 999, 6, 4, 102, 77, 153, 128, 123, 180, 1, 0.722902
326, 2, wb, filler, NA, 999, 999, 6, 4, 102, 77, 153, 128, 123, 180, 2, 0.636658
326, 2, wb, attraction, a-b-db, 2, 2, 6, 5, 165, 90, 90, 165, 89, 163, 1, 0.897091
326, 2, wb, attraction, a-b-db, 2, 2, 6, 5, 165, 90, 90, 165, 89, 163, 2, 0.756076
326, 2, wb, catch, NA, 999, 999, 6, 6, 111, 144, 83, 112, 176, 139, 2, 0.58711
326, 2, wb, catch, NA, 999, 999, 6, 6, 111, 144, 83, 112, 176, 139, 3, 0.826905
326, 2, wb, attraction, a-b-da, 2, 1, 6, 7, 134, 59, 60, 135, 135, 60, 1, 0.81516
326, 2, wb, attraction, a-b-da, 2, 1, 6, 7, 134, 59, 60, 135, 135, 60, 2, 0.621581
326, 2, wb, attraction, a-b-db, 5, 1, 6, 8, 58, 132, 135, 60, 60, 135, 2, 0.714646
326, 2, wb, attraction, a-b-db, 5, 1, 6, 8, 58, 132, 135, 60, 60, 135, 3, 0.541109
326, 2, wb, filler, NA, 999, 999, 6, 9, 177, 59, 124, 117, 86, 160, 1, 1.42885
326, 2, wb, filler, NA, 999, 999, 6, 9, 177, 59, 124, 117, 86, 160, 2, 0.298335
326, 2, wb, filler, NA, 999, 999, 6, 10, 72, 155, 165, 145, 158, 117, 1, 0.732399
326, 2, wb, filler, NA, 999, 999, 6, 10, 72, 155, 165, 145, 158, 117, 2, 0.621994
326, 2, wb, attraction, a-b-db, 5, 3, 6, 11, 117, 190, 120, 195, 195, 120, 3, 1.81115
326, 2, wb, attraction, a-b-db, 5, 3, 6, 11, 117, 190, 120, 195, 195, 120, 1, 0.561276
326, 2, wb, attraction, a-b-da, 14, 1, 6, 12, 125, 56, 60, 135, 135, 60, 2, 1.8003
326, 2, wb, attraction, a-b-da, 14, 1, 6, 12, 125, 56, 60, 135, 135, 60, 3, 0.758979
326, 2, wb, filler, NA, 999, 999, 6, 13, 168, 174, 144, 113, 64, 156, 3, 0.68611
326, 2, wb, filler, NA, 999, 999, 6, 13, 168, 174, 144, 113, 64, 156, 1, 0.585713
326, 2, wb, attraction, a-b-db, 14, 2, 6, 14, 90, 165, 83, 153, 165, 90, 3, 0.624167
326, 2, wb, attraction, a-b-db, 14, 2, 6, 14, 90, 165, 83, 153, 165, 90, 1, 1.30202
326, 2, wb, attraction, a-b-da, 2, 2, 6, 15, 163, 89, 90, 165, 165, 90, 3, 1.23163
326, 2, wb, attraction, a-b-da, 2, 2, 6, 15, 163, 89, 90, 165, 165, 90, 2, 0.477116
326, 2, wb, filler, NA, 999, 999, 6, 16, 154, 112, 64, 112, 153, 124, 2, 0.591572
326, 2, wb, filler, NA, 999, 999, 6, 16, 154, 112, 64, 112, 153, 124, 1, 0.686838
326, 2, wb, attraction, a-b-db, 9, 3, 6, 17, 195, 120, 120, 195, 114, 186, 1, 1.1611
326, 2, wb, attraction, a-b-db, 9, 3, 6, 17, 195, 120, 120, 195, 114, 186, 2, 0.76141
326, 2, wb, filler, NA, 999, 999, 6, 18, 155, 167, 88, 118, 120, 173, 2, 1.00037
326, 2, wb, filler, NA, 999, 999, 6, 18, 155, 167, 88, 118, 120, 173, 1, 0.631424
326, 2, wb, attraction, a-b-da, 9, 2, 6, 19, 90, 165, 157, 86, 165, 90, 2, 1.93183
326, 2, wb, attraction, a-b-da, 9, 2, 6, 19, 90, 165, 157, 86, 165, 90, 1, 0.685273
326, 2, wb, filler, NA, 999, 999, 6, 20, 132, 149, 71, 160, 72, 85, 3, 1.23956
326, 2, wb, filler, NA, 999, 999, 6, 20, 132, 149, 71, 160, 72, 85, 1, 0.900524
326, 2, wb, catch, NA, 999, 999, 6, 21, 157, 158, 112, 143, 89, 106, 3, 0.598174
326, 2, wb, catch, NA, 999, 999, 6, 21, 157, 158, 112, 143, 89, 106, 1, 0.709342
326, 2, wb, filler, NA, 999, 999, 6, 22, 136, 119, 92, 157, 61, 110, 3, 0.406336
326, 2, wb, filler, NA, 999, 999, 6, 22, 136, 119, 92, 157, 61, 110, 1, 0.372832
326, 2, wb, attraction, a-b-db, 9, 1, 6, 23, 57, 129, 135, 60, 60, 135, 2, 0.963477
326, 2, wb, attraction, a-b-db, 9, 1, 6, 23, 57, 129, 135, 60, 60, 135, 3, 0.691726
326, 2, wb, attraction, a-b-da, 9, 1, 6, 24, 135, 60, 60, 135, 129, 57, 3, 0.773469
326, 2, wb, attraction, a-b-da, 9, 1, 6, 24, 135, 60, 60, 135, 129, 57, 2, 0.39729
326, 2, wb, attraction, a-b-db, 9, 2, 6, 25, 165, 90, 90, 165, 86, 157, 3, 0.538926
326, 2, wb, attraction, a-b-db, 9, 2, 6, 25, 165, 90, 90, 165, 86, 157, 1, 0.484151
326, 2, wb, attraction, a-b-db, 5, 2, 6, 26, 88, 161, 90, 165, 165, 90, 3, 0.742521
326, 2, wb, attraction, a-b-db, 5, 2, 6, 26, 88, 161, 90, 165, 165, 90, 2, 0.35158
326, 2, wb, attraction, a-b-da, 14, 2, 6, 27, 90, 165, 165, 90, 153, 83, 3, 0.519439
326, 2, wb, attraction, a-b-da, 14, 2, 6, 27, 90, 165, 165, 90, 153, 83, 2, 0.353983
326, 2, wb, filler, NA, 999, 999, 6, 28, 76, 114, 140, 71, 156, 123, 2, 0.95377
326, 2, wb, filler, NA, 999, 999, 6, 28, 76, 114, 140, 71, 156, 123, 3, 0.394122
326, 2, wb, attraction, a-b-da, 14, 3, 6, 29, 120, 195, 181, 111, 195, 120, 2, 0.511838
326, 2, wb, attraction, a-b-da, 14, 3, 6, 29, 120, 195, 181, 111, 195, 120, 1, 0.746381
326, 2, wb, attraction, a-b-db, 14, 1, 6, 30, 56, 125, 135, 60, 60, 135, 2, 0.73014
326, 2, wb, attraction, a-b-db, 14, 1, 6, 30, 56, 125, 135, 60, 60, 135, 3, 0.41987
326, 2, wb, attraction, a-b-da, 5, 2, 6, 31, 90, 165, 161, 88, 165, 90, 2, 0.424987
326, 2, wb, attraction, a-b-da, 5, 2, 6, 31, 90, 165, 161, 88, 165, 90, 1, 0.382801
326, 2, wb, catch, NA, 999, 999, 6, 32, 100, 95, 126, 189, 130, 125, 1, 0.869285
326, 2, wb, catch, NA, 999, 999, 6, 32, 100, 95, 126, 189, 130, 125, 2, 0.313775
326, 2, wb, attraction, a-b-da, 5, 1, 6, 33, 60, 135, 132, 58, 135, 60, 1, 0.82684
326, 2, wb, attraction, a-b-da, 5, 1, 6, 33, 60, 135, 132, 58, 135, 60, 2, 0.664577
326, 2, wb, attraction, a-b-db, 14, 3, 6, 34, 111, 181, 120, 195, 195, 120, 1, 0.619672
326, 2, wb, attraction, a-b-db, 14, 3, 6, 34, 111, 181, 120, 195, 195, 120, 2, 0.27408
326, 2, wb, attraction, a-b-da, 5, 3, 6, 35, 195, 120, 120, 195, 190, 117, 3, 0.620598
326, 2, wb, attraction, a-b-da, 5, 3, 6, 35, 195, 120, 120, 195, 190, 117, 2, 0.306408
326, 2, wb, attraction, a-b-db, 2, 3, 6, 36, 120, 195, 119, 193, 195, 120, 3, 0.643563
326, 2, wb, attraction, a-b-db, 2, 3, 6, 36, 120, 195, 119, 193, 195, 120, 2, 0.272691
326, 2, wb, attraction, a-b-db, 2, 1, 6, 37, 59, 134, 135, 60, 60, 135, 2, 0.667185
326, 2, wb, attraction, a-b-db, 2, 1, 6, 37, 59, 134, 135, 60, 60, 135, 3, 0.271591
326, 2, wb, attraction, a-b-da, 9, 3, 7, 1, 120, 195, 186, 114, 195, 120, 2, 0.427
326, 2, wb, attraction, a-b-da, 9, 3, 7, 1, 120, 195, 186, 114, 195, 120, 3, 0.673202
326, 2, wb, attraction, a-b-da, 14, 1, 7, 2, 135, 60, 125, 56, 60, 135, 2, 0.882984
326, 2, wb, attraction, a-b-da, 14, 1, 7, 2, 135, 60, 125, 56, 60, 135, 1, 0.358721
326, 2, wb, attraction, a-b-db, 14, 1, 7, 3, 60, 135, 135, 60, 56, 125, 2, 0.749912
326, 2, wb, attraction, a-b-db, 14, 1, 7, 3, 60, 135, 135, 60, 56, 125, 1, 0.494995
326, 2, wb, filler, NA, 999, 999, 7, 4, 109, 152, 137, 58, 146, 136, 2, 0.560726
326, 2, wb, filler, NA, 999, 999, 7, 4, 109, 152, 137, 58, 146, 136, 3, 0.473175
326, 2, wb, attraction, a-b-da, 14, 2, 7, 5, 90, 165, 153, 83, 165, 90, 2, 0.539783
326, 2, wb, attraction, a-b-da, 14, 2, 7, 5, 90, 165, 153, 83, 165, 90, 3, 0.380934
326, 2, wb, filler, NA, 999, 999, 7, 6, 183, 65, 141, 147, 158, 74, 2, 0.522847
326, 2, wb, filler, NA, 999, 999, 7, 6, 183, 65, 141, 147, 158, 74, 1, 0.605126
326, 2, wb, attraction, a-b-db, 14, 2, 7, 7, 90, 165, 83, 153, 165, 90, 2, 2.33883
326, 2, wb, attraction, a-b-db, 14, 2, 7, 7, 90, 165, 83, 153, 165, 90, 3, 0.723451
326, 2, wb, filler, NA, 999, 999, 7, 8, 168, 180, 166, 124, 115, 145, 2, 0.531781
326, 2, wb, filler, NA, 999, 999, 7, 8, 168, 180, 166, 124, 115, 145, 1, 0.325608
326, 2, wb, attraction, a-b-da, 5, 1, 7, 9, 132, 58, 60, 135, 135, 60, 3, 0.694138
326, 2, wb, attraction, a-b-da, 5, 1, 7, 9, 132, 58, 60, 135, 135, 60, 2, 0.329252
326, 2, wb, attraction, a-b-da, 5, 2, 7, 10, 161, 88, 165, 90, 90, 165, 1, 0.537808
326, 2, wb, attraction, a-b-da, 5, 2, 7, 10, 161, 88, 165, 90, 90, 165, 2, 0.346889
326, 2, wb, attraction, a-b-db, 9, 2, 7, 11, 90, 165, 165, 90, 86, 157, 3, 0.60273
326, 2, wb, attraction, a-b-db, 9, 2, 7, 11, 90, 165, 165, 90, 86, 157, 2, 0.313796
326, 2, wb, attraction, a-b-db, 5, 2, 7, 12, 165, 90, 90, 165, 88, 161, 1, 0.619055
326, 2, wb, attraction, a-b-db, 5, 2, 7, 12, 165, 90, 90, 165, 88, 161, 2, 0.305465
326, 2, wb, attraction, a-b-db, 2, 3, 7, 13, 195, 120, 119, 193, 120, 195, 1, 0.459331
326, 2, wb, attraction, a-b-db, 2, 3, 7, 13, 195, 120, 119, 193, 120, 195, 2, 0.31981
326, 2, wb, catch, NA, 999, 999, 7, 14, 182, 133, 96, 159, 122, 73, 3, 0.696968
326, 2, wb, catch, NA, 999, 999, 7, 14, 182, 133, 96, 159, 122, 73, 1, 0.292031
326, 2, wb, filler, NA, 999, 999, 7, 15, 177, 168, 114, 170, 152, 186, 2, 0.678
326, 2, wb, filler, NA, 999, 999, 7, 15, 177, 168, 114, 170, 152, 186, 3, 0.241764
326, 2, wb, attraction, a-b-db, 5, 1, 7, 16, 58, 132, 135, 60, 60, 135, 2, 0.573559
326, 2, wb, attraction, a-b-db, 5, 1, 7, 16, 58, 132, 135, 60, 60, 135, 1, 0.517352
326, 2, wb, attraction, a-b-db, 2, 1, 7, 17, 60, 135, 135, 60, 59, 134, 2, 0.566396
326, 2, wb, attraction, a-b-db, 2, 1, 7, 17, 60, 135, 135, 60, 59, 134, 1, 0.390896
326, 2, wb, attraction, a-b-da, 2, 2, 7, 18, 90, 165, 163, 89, 165, 90, 2, 0.523746
326, 2, wb, attraction, a-b-da, 2, 2, 7, 18, 90, 165, 163, 89, 165, 90, 1, 0.230499
326, 2, wb, filler, NA, 999, 999, 7, 19, 127, 152, 129, 181, 98, 123, 2, 0.339014
326, 2, wb, filler, NA, 999, 999, 7, 19, 127, 152, 129, 181, 98, 123, 3, 1.6684
326, 2, wb, attraction, a-b-da, 14, 3, 7, 20, 120, 195, 181, 111, 195, 120, 2, 1.99902
326, 2, wb, attraction, a-b-da, 14, 3, 7, 20, 120, 195, 181, 111, 195, 120, 1, 0.2697
326, 2, wb, catch, NA, 999, 999, 7, 21, 72, 123, 191, 124, 140, 115, 1, 0.905013
326, 2, wb, catch, NA, 999, 999, 7, 21, 72, 123, 191, 124, 140, 115, 2, 0.435263
326, 2, wb, attraction, a-b-db, 5, 3, 7, 22, 117, 190, 120, 195, 195, 120, 3, 1.43175
326, 2, wb, attraction, a-b-db, 5, 3, 7, 22, 117, 190, 120, 195, 195, 120, 2, 0.461281
326, 2, wb, filler, NA, 999, 999, 7, 23, 109, 152, 86, 94, 181, 130, 2, 0.856397
326, 2, wb, filler, NA, 999, 999, 7, 23, 109, 152, 86, 94, 181, 130, 3, 0.508761
326, 2, wb, attraction, a-b-db, 14, 3, 7, 24, 120, 195, 195, 120, 111, 181, 3, 1.24588
326, 2, wb, attraction, a-b-db, 14, 3, 7, 24, 120, 195, 195, 120, 111, 181, 1, 0.522799
326, 2, wb, attraction, a-b-da, 2, 1, 7, 25, 135, 60, 134, 59, 60, 135, 2, 3.17132
326, 2, wb, attraction, a-b-da, 2, 1, 7, 25, 135, 60, 134, 59, 60, 135, 3, 0.362224
326, 2, wb, attraction, a-b-da, 5, 3, 7, 26, 190, 117, 120, 195, 195, 120, 1, 2.4974
326, 2, wb, attraction, a-b-da, 5, 3, 7, 26, 190, 117, 120, 195, 195, 120, 2, 2.0039
326, 2, wb, filler, NA, 999, 999, 7, 27, 152, 147, 126, 78, 181, 147, 2, 1.36916
326, 2, wb, filler, NA, 999, 999, 7, 27, 152, 147, 126, 78, 181, 147, 3, 0.649501
326, 2, wb, attraction, a-b-da, 9, 1, 7, 28, 135, 60, 129, 57, 60, 135, 2, 1.36514
326, 2, wb, attraction, a-b-da, 9, 1, 7, 28, 135, 60, 129, 57, 60, 135, 3, 0.629328
326, 2, wb, attraction, a-b-da, 2, 3, 7, 29, 193, 119, 195, 120, 120, 195, 2, 0.745838
326, 2, wb, attraction, a-b-da, 2, 3, 7, 29, 193, 119, 195, 120, 120, 195, 3, 0.354955
326, 2, wb, attraction, a-b-db, 9, 3, 7, 30, 120, 195, 114, 186, 195, 120, 3, 1.1547
326, 2, wb, attraction, a-b-db, 9, 3, 7, 30, 120, 195, 114, 186, 195, 120, 1, 0.314969
326, 2, wb, filler, NA, 999, 999, 7, 31, 162, 185, 60, 162, 76, 174, 2, 0.676171
326, 2, wb, filler, NA, 999, 999, 7, 31, 162, 185, 60, 162, 76, 174, 1, 0.303934
326, 2, wb, catch, NA, 999, 999, 7, 32, 115, 80, 97, 158, 148, 167, 1, 0.609704
326, 2, wb, catch, NA, 999, 999, 7, 32, 115, 80, 97, 158, 148, 167, 3, 0.288201
326, 2, wb, attraction, a-b-da, 9, 2, 7, 33, 165, 90, 90, 165, 157, 86, 1, 0.570729
326, 2, wb, attraction, a-b-da, 9, 2, 7, 33, 165, 90, 90, 165, 157, 86, 2, 0.378469
326, 2, wb, attraction, a-b-db, 9, 1, 7, 34, 60, 135, 135, 60, 57, 129, 2, 0.88893
326, 2, wb, attraction, a-b-db, 9, 1, 7, 34, 60, 135, 135, 60, 57, 129, 1, 0.499954
326, 2, wb, attraction, a-b-db, 2, 2, 7, 35, 165, 90, 89, 163, 90, 165, 2, 0.413762
326, 2, wb, attraction, a-b-db, 2, 2, 7, 35, 165, 90, 89, 163, 90, 165, 1, 0.436342
326, 2, wb, filler, NA, 999, 999, 7, 36, 128, 154, 149, 122, 97, 148, 2, 0.640791
326, 2, wb, filler, NA, 999, 999, 7, 36, 128, 154, 149, 122, 97, 148, 3, 0.30191
326, 2, wb, filler, NA, 999, 999, 7, 37, 125, 151, 182, 187, 65, 103, 3, 0.655704
326, 2, wb, filler, NA, 999, 999, 7, 37, 125, 151, 182, 187, 65, 103, 2, 0.61216
326, 2, wb, attraction, a-b-da, 5, 1, 8, 1, 132, 58, 135, 60, 60, 135, 3, 0.585255
326, 2, wb, attraction, a-b-da, 5, 1, 8, 1, 132, 58, 135, 60, 60, 135, 2, 0.361099
326, 2, wb, filler, NA, 999, 999, 8, 2, 99, 88, 88, 153, 66, 179, 3, 0.6723
326, 2, wb, filler, NA, 999, 999, 8, 2, 99, 88, 88, 153, 66, 179, 1, 0.579991
326, 2, wb, attraction, a-b-da, 5, 3, 8, 3, 120, 195, 190, 117, 195, 120, 3, 1.22641
326, 2, wb, attraction, a-b-da, 5, 3, 8, 3, 120, 195, 190, 117, 195, 120, 2, 0.351955
326, 2, wb, attraction, a-b-db, 5, 1, 8, 4, 60, 135, 58, 132, 135, 60, 3, 0.671823
326, 2, wb, attraction, a-b-db, 5, 1, 8, 4, 60, 135, 58, 132, 135, 60, 1, 0.459671
326, 2, wb, filler, NA, 999, 999, 8, 5, 74, 63, 103, 116, 134, 95, 1, 0.614728
326, 2, wb, filler, NA, 999, 999, 8, 5, 74, 63, 103, 116, 134, 95, 2, 0.389205
326, 2, wb, filler, NA, 999, 999, 8, 6, 190, 150, 141, 140, 121, 133, 3, 0.635016
326, 2, wb, filler, NA, 999, 999, 8, 6, 190, 150, 141, 140, 121, 133, 1, 0.384785
326, 2, wb, attraction, a-b-da, 9, 3, 8, 7, 120, 195, 195, 120, 186, 114, 2, 0.751252
326, 2, wb, attraction, a-b-da, 9, 3, 8, 7, 120, 195, 195, 120, 186, 114, 3, 0.312335
326, 2, wb, attraction, a-b-da, 2, 2, 8, 8, 163, 89, 90, 165, 165, 90, 1, 0.641486
326, 2, wb, attraction, a-b-da, 2, 2, 8, 8, 163, 89, 90, 165, 165, 90, 2, 0.438633
326, 2, wb, attraction, a-b-db, 9, 2, 8, 9, 86, 157, 165, 90, 90, 165, 1, 0.643031
326, 2, wb, attraction, a-b-db, 9, 2, 8, 9, 86, 157, 165, 90, 90, 165, 3, 0.552245
326, 2, wb, filler, NA, 999, 999, 8, 10, 116, 165, 95, 101, 165, 125, 2, 0.576066
326, 2, wb, filler, NA, 999, 999, 8, 10, 116, 165, 95, 101, 165, 125, 1, 0.815732
326, 2, wb, attraction, a-b-db, 5, 2, 8, 11, 165, 90, 90, 165, 88, 161, 1, 0.828772
326, 2, wb, attraction, a-b-db, 5, 2, 8, 11, 165, 90, 90, 165, 88, 161, 2, 0.338524
326, 2, wb, filler, NA, 999, 999, 8, 12, 93, 96, 118, 142, 97, 137, 1, 0.867076
326, 2, wb, filler, NA, 999, 999, 8, 12, 93, 96, 118, 142, 97, 137, 2, 0.32743
326, 2, wb, attraction, a-b-da, 2, 3, 8, 13, 120, 195, 193, 119, 195, 120, 3, 0.575887
326, 2, wb, attraction, a-b-da, 2, 3, 8, 13, 120, 195, 193, 119, 195, 120, 2, 0.775669
326, 2, wb, attraction, a-b-db, 9, 1, 8, 14, 135, 60, 60, 135, 57, 129, 1, 1.96601
326, 2, wb, attraction, a-b-db, 9, 1, 8, 14, 135, 60, 60, 135, 57, 129, 2, 0.390032
326, 2, wb, attraction, a-b-db, 5, 3, 8, 15, 195, 120, 117, 190, 120, 195, 1, 0.62783
326, 2, wb, attraction, a-b-db, 5, 3, 8, 15, 195, 120, 117, 190, 120, 195, 3, 0.505781
326, 2, wb, attraction, a-b-db, 14, 3, 8, 16, 111, 181, 120, 195, 195, 120, 1, 0.523524
326, 2, wb, attraction, a-b-db, 14, 3, 8, 16, 111, 181, 120, 195, 195, 120, 2, 0.53319
326, 2, wb, attraction, a-b-da, 9, 2, 8, 17, 90, 165, 165, 90, 157, 86, 3, 0.933656
326, 2, wb, attraction, a-b-da, 9, 2, 8, 17, 90, 165, 165, 90, 157, 86, 1, 0.359361
326, 2, wb, attraction, a-b-db, 14, 2, 8, 18, 83, 153, 90, 165, 165, 90, 3, 0.726553
326, 2, wb, attraction, a-b-db, 14, 2, 8, 18, 83, 153, 90, 165, 165, 90, 2, 0.360288
326, 2, wb, filler, NA, 999, 999, 8, 19, 185, 150, 61, 113, 108, 182, 2, 0.511361
326, 2, wb, filler, NA, 999, 999, 8, 19, 185, 150, 61, 113, 108, 182, 1, 0.361895
326, 2, wb, attraction, a-b-db, 2, 2, 8, 20, 90, 165, 89, 163, 165, 90, 3, 0.64104
326, 2, wb, attraction, a-b-db, 2, 2, 8, 20, 90, 165, 89, 163, 165, 90, 1, 0.390123
326, 2, wb, filler, NA, 999, 999, 8, 21, 102, 102, 120, 183, 118, 192, 1, 0.499988
326, 2, wb, filler, NA, 999, 999, 8, 21, 102, 102, 120, 183, 118, 192, 2, 0.8151
326, 2, wb, attraction, a-b-da, 14, 2, 8, 22, 165, 90, 90, 165, 153, 83, 1, 0.542168
326, 2, wb, attraction, a-b-da, 14, 2, 8, 22, 165, 90, 90, 165, 153, 83, 2, 0.453309
326, 2, wb, attraction, a-b-da, 14, 3, 8, 23, 195, 120, 120, 195, 181, 111, 1, 0.513056
326, 2, wb, attraction, a-b-da, 14, 3, 8, 23, 195, 120, 120, 195, 181, 111, 2, 0.347521
326, 2, wb, catch, NA, 999, 999, 8, 24, 192, 123, 123, 132, 81, 114, 3, 0.70738
326, 2, wb, catch, NA, 999, 999, 8, 24, 192, 123, 123, 132, 81, 114, 1, 0.36579
326, 2, wb, attraction, a-b-da, 14, 1, 8, 25, 60, 135, 125, 56, 135, 60, 1, 0.748939
326, 2, wb, attraction, a-b-da, 14, 1, 8, 25, 60, 135, 125, 56, 135, 60, 3, 0.638137
326, 2, wb, catch, NA, 999, 999, 8, 26, 101, 94, 138, 117, 137, 178, 1, 0.586458
326, 2, wb, catch, NA, 999, 999, 8, 26, 101, 94, 138, 117, 137, 178, 3, 0.36237
326, 2, wb, attraction, a-b-db, 9, 3, 8, 27, 114, 186, 120, 195, 195, 120, 1, 0.337338
326, 2, wb, attraction, a-b-db, 9, 3, 8, 27, 114, 186, 120, 195, 195, 120, 3, 0.562604
326, 2, wb, attraction, a-b-db, 14, 1, 8, 28, 56, 125, 60, 135, 135, 60, 1, 0.52165
326, 2, wb, attraction, a-b-db, 14, 1, 8, 28, 56, 125, 60, 135, 135, 60, 3, 0.595542
326, 2, wb, attraction, a-b-db, 2, 1, 8, 29, 60, 135, 135, 60, 59, 134, 2, 0.633191
326, 2, wb, attraction, a-b-db, 2, 1, 8, 29, 60, 135, 135, 60, 59, 134, 1, 0.415088
326, 2, wb, catch, NA, 999, 999, 8, 30, 125, 130, 92, 103, 129, 186, 2, 1.0602
326, 2, wb, catch, NA, 999, 999, 8, 30, 125, 130, 92, 103, 129, 186, 3, 0.672651
326, 2, wb, filler, NA, 999, 999, 8, 31, 173, 127, 182, 192, 187, 98, 3, 0.90692
326, 2, wb, filler, NA, 999, 999, 8, 31, 173, 127, 182, 192, 187, 98, 2, 0.701312
326, 2, wb, attraction, a-b-db, 2, 3, 8, 32, 195, 120, 119, 193, 120, 195, 3, 0.511024
326, 2, wb, attraction, a-b-db, 2, 3, 8, 32, 195, 120, 119, 193, 120, 195, 2, 0.64942
326, 2, wb, filler, NA, 999, 999, 8, 33, 104, 188, 194, 154, 175, 176, 1, 0.635359
326, 2, wb, filler, NA, 999, 999, 8, 33, 104, 188, 194, 154, 175, 176, 2, 0.498308
326, 2, wb, attraction, a-b-da, 2, 1, 8, 34, 60, 135, 134, 59, 135, 60, 3, 0.852054
326, 2, wb, attraction, a-b-da, 2, 1, 8, 34, 60, 135, 134, 59, 135, 60, 1, 0.425125
326, 2, wb, attraction, a-b-da, 5, 2, 8, 35, 90, 165, 165, 90, 161, 88, 3, 0.421602
326, 2, wb, attraction, a-b-da, 5, 2, 8, 35, 90, 165, 165, 90, 161, 88, 2, 0.323616
326, 2, wb, filler, NA, 999, 999, 8, 36, 150, 141, 127, 137, 170, 182, 2, 0.764057
326, 2, wb, filler, NA, 999, 999, 8, 36, 150, 141, 127, 137, 170, 182, 1, 0.316385
326, 2, wb, attraction, a-b-da, 9, 1, 8, 37, 60, 135, 129, 57, 135, 60, 2, 0.725585
326, 2, wb, attraction, a-b-da, 9, 1, 8, 37, 60, 135, 129, 57, 135, 60, 1, 0.287284
