sub_n, computer_n, bw_cond, effect, set, distance, diag, block_n, trial_n, h1, w1, h2, w2, h3, w3, choice, rt 
348, 2, wb, practice, NA, 999, 999, 0, 1, 137, 152, 68, 165, 156, 148, 2, 5.7013
348, 2, wb, practice, NA, 999, 999, 0, 1, 137, 152, 68, 165, 156, 148, 3, 3.23971
348, 2, wb, practice, NA, 999, 999, 0, 2, 147, 57, 83, 168, 147, 193, 1, 1.76796
348, 2, wb, practice, NA, 999, 999, 0, 2, 147, 57, 83, 168, 147, 193, 3, 1.29632
348, 2, wb, practice, NA, 999, 999, 0, 3, 101, 183, 171, 177, 168, 104, 3, 11.8854
348, 2, wb, practice, NA, 999, 999, 0, 3, 101, 183, 171, 177, 168, 104, 2, 1.08006
348, 2, wb, attraction, a-b-db, 2, 3, 1, 1, 120, 195, 119, 193, 195, 120, 3, 13.0205
348, 2, wb, attraction, a-b-db, 2, 3, 1, 1, 120, 195, 119, 193, 195, 120, 2, 2.21504
348, 2, wb, catch, NA, 999, 999, 1, 2, 158, 97, 121, 74, 194, 121, 2, 1.32358
348, 2, wb, catch, NA, 999, 999, 1, 2, 158, 97, 121, 74, 194, 121, 3, 0.581285
348, 2, wb, filler, NA, 999, 999, 1, 3, 128, 174, 66, 79, 154, 188, 2, 0.747499
348, 2, wb, filler, NA, 999, 999, 1, 3, 128, 174, 66, 79, 154, 188, 3, 3.17283
348, 2, wb, filler, NA, 999, 999, 1, 4, 174, 113, 69, 114, 90, 84, 2, 4.89898
348, 2, wb, filler, NA, 999, 999, 1, 4, 174, 113, 69, 114, 90, 84, 1, 1.46069
348, 2, wb, attraction, a-b-da, 9, 3, 1, 5, 120, 195, 195, 120, 186, 114, 3, 4.46352
348, 2, wb, attraction, a-b-da, 9, 3, 1, 5, 120, 195, 195, 120, 186, 114, 1, 0.522877
348, 2, wb, filler, NA, 999, 999, 1, 6, 178, 118, 105, 123, 122, 130, 2, 2.08334
348, 2, wb, filler, NA, 999, 999, 1, 6, 178, 118, 105, 123, 122, 130, 1, 0.638458
348, 2, wb, attraction, a-b-da, 2, 3, 1, 7, 195, 120, 120, 195, 193, 119, 1, 3.3629
348, 2, wb, attraction, a-b-da, 2, 3, 1, 7, 195, 120, 120, 195, 193, 119, 2, 0.866525
348, 2, wb, attraction, a-b-db, 2, 1, 1, 8, 60, 135, 135, 60, 59, 134, 3, 8.17349
348, 2, wb, attraction, a-b-db, 2, 1, 1, 8, 60, 135, 135, 60, 59, 134, 1, 0.747507
348, 2, wb, attraction, a-b-da, 5, 1, 1, 9, 132, 58, 60, 135, 135, 60, 1, 3.60332
348, 2, wb, attraction, a-b-da, 5, 1, 1, 9, 132, 58, 60, 135, 135, 60, 2, 1.19353
348, 2, wb, attraction, a-b-da, 5, 3, 1, 10, 120, 195, 195, 120, 190, 117, 3, 2.1512
348, 2, wb, attraction, a-b-da, 5, 3, 1, 10, 120, 195, 195, 120, 190, 117, 1, 0.463647
348, 2, wb, filler, NA, 999, 999, 1, 11, 95, 74, 80, 165, 61, 114, 3, 6.93079
348, 2, wb, filler, NA, 999, 999, 1, 11, 95, 74, 80, 165, 61, 114, 2, 0.55463
348, 2, wb, attraction, a-b-db, 14, 2, 1, 12, 90, 165, 165, 90, 83, 153, 3, 1.44237
348, 2, wb, attraction, a-b-db, 14, 2, 1, 12, 90, 165, 165, 90, 83, 153, 1, 0.663303
348, 2, wb, attraction, a-b-da, 2, 1, 1, 13, 134, 59, 60, 135, 135, 60, 1, 1.89034
348, 2, wb, attraction, a-b-da, 2, 1, 1, 13, 134, 59, 60, 135, 135, 60, 2, 0.917235
348, 2, wb, attraction, a-b-da, 5, 2, 1, 14, 165, 90, 161, 88, 90, 165, 1, 3.01401
348, 2, wb, attraction, a-b-da, 5, 2, 1, 14, 165, 90, 161, 88, 90, 165, 3, 0.619698
348, 2, wb, attraction, a-b-db, 14, 1, 1, 15, 56, 125, 60, 135, 135, 60, 1, 1.54482
348, 2, wb, attraction, a-b-db, 14, 1, 1, 15, 56, 125, 60, 135, 135, 60, 2, 0.577583
348, 2, wb, attraction, a-b-db, 9, 1, 1, 16, 135, 60, 57, 129, 60, 135, 1, 2.48022
348, 2, wb, attraction, a-b-db, 9, 1, 1, 16, 135, 60, 57, 129, 60, 135, 2, 0.64327
348, 2, wb, attraction, a-b-db, 14, 3, 1, 17, 195, 120, 120, 195, 111, 181, 3, 1.34302
348, 2, wb, attraction, a-b-db, 14, 3, 1, 17, 195, 120, 120, 195, 111, 181, 1, 0.951866
348, 2, wb, attraction, a-b-db, 2, 2, 1, 18, 165, 90, 90, 165, 89, 163, 1, 2.15154
348, 2, wb, attraction, a-b-db, 2, 2, 1, 18, 165, 90, 90, 165, 89, 163, 2, 0.464181
348, 2, wb, catch, NA, 999, 999, 1, 19, 102, 93, 179, 136, 119, 136, 1, 0.819228
348, 2, wb, catch, NA, 999, 999, 1, 19, 102, 93, 179, 136, 119, 136, 2, 0.513734
348, 2, wb, attraction, a-b-da, 9, 2, 1, 20, 165, 90, 157, 86, 90, 165, 1, 3.12275
348, 2, wb, attraction, a-b-da, 9, 2, 1, 20, 165, 90, 157, 86, 90, 165, 3, 1.4759
348, 2, wb, filler, NA, 999, 999, 1, 21, 85, 109, 135, 192, 123, 106, 1, 0.966003
348, 2, wb, filler, NA, 999, 999, 1, 21, 85, 109, 135, 192, 123, 106, 2, 0.606223
348, 2, wb, attraction, a-b-da, 14, 2, 1, 22, 90, 165, 153, 83, 165, 90, 3, 1.21126
348, 2, wb, attraction, a-b-da, 14, 2, 1, 22, 90, 165, 153, 83, 165, 90, 1, 0.505584
348, 2, wb, attraction, a-b-db, 5, 2, 1, 23, 90, 165, 88, 161, 165, 90, 3, 6.05943
348, 2, wb, attraction, a-b-db, 5, 2, 1, 23, 90, 165, 88, 161, 165, 90, 1, 0.470154
348, 2, wb, filler, NA, 999, 999, 1, 24, 91, 98, 80, 113, 122, 108, 1, 1.7453
348, 2, wb, filler, NA, 999, 999, 1, 24, 91, 98, 80, 113, 122, 108, 3, 0.46606
348, 2, wb, attraction, a-b-da, 14, 3, 1, 25, 195, 120, 181, 111, 120, 195, 1, 3.30913
348, 2, wb, attraction, a-b-da, 14, 3, 1, 25, 195, 120, 181, 111, 120, 195, 3, 0.34278
348, 2, wb, attraction, a-b-db, 9, 2, 1, 26, 165, 90, 86, 157, 90, 165, 1, 2.1666
348, 2, wb, attraction, a-b-db, 9, 2, 1, 26, 165, 90, 86, 157, 90, 165, 2, 0.974548
348, 2, wb, filler, NA, 999, 999, 1, 27, 100, 71, 64, 189, 95, 183, 1, 1.67689
348, 2, wb, filler, NA, 999, 999, 1, 27, 100, 71, 64, 189, 95, 183, 3, 0.536264
348, 2, wb, filler, NA, 999, 999, 1, 28, 152, 165, 145, 83, 84, 149, 3, 1.53684
348, 2, wb, filler, NA, 999, 999, 1, 28, 152, 165, 145, 83, 84, 149, 1, 0.490223
348, 2, wb, attraction, a-b-db, 5, 1, 1, 29, 58, 132, 60, 135, 135, 60, 1, 3.01209
348, 2, wb, attraction, a-b-db, 5, 1, 1, 29, 58, 132, 60, 135, 135, 60, 3, 0.56969
348, 2, wb, filler, NA, 999, 999, 1, 30, 85, 98, 87, 140, 161, 108, 1, 1.30485
348, 2, wb, filler, NA, 999, 999, 1, 30, 85, 98, 87, 140, 161, 108, 3, 0.30722
348, 2, wb, filler, NA, 999, 999, 1, 31, 125, 78, 123, 105, 98, 126, 1, 3.17247
348, 2, wb, filler, NA, 999, 999, 1, 31, 125, 78, 123, 105, 98, 126, 2, 0.915194
348, 2, wb, attraction, a-b-da, 2, 2, 1, 32, 90, 165, 163, 89, 165, 90, 1, 1.74826
348, 2, wb, attraction, a-b-da, 2, 2, 1, 32, 90, 165, 163, 89, 165, 90, 3, 0.724948
348, 2, wb, attraction, a-b-db, 5, 3, 1, 33, 120, 195, 117, 190, 195, 120, 1, 2.28535
348, 2, wb, attraction, a-b-db, 5, 3, 1, 33, 120, 195, 117, 190, 195, 120, 3, 0.504673
348, 2, wb, attraction, a-b-da, 14, 1, 1, 34, 125, 56, 60, 135, 135, 60, 1, 1.61847
348, 2, wb, attraction, a-b-da, 14, 1, 1, 34, 125, 56, 60, 135, 135, 60, 2, 0.512583
348, 2, wb, attraction, a-b-db, 9, 3, 1, 35, 114, 186, 195, 120, 120, 195, 1, 1.94563
348, 2, wb, attraction, a-b-db, 9, 3, 1, 35, 114, 186, 195, 120, 120, 195, 2, 0.426444
348, 2, wb, catch, NA, 999, 999, 1, 36, 157, 158, 125, 130, 76, 119, 3, 2.49483
348, 2, wb, catch, NA, 999, 999, 1, 36, 157, 158, 125, 130, 76, 119, 1, 1.04946
348, 2, wb, attraction, a-b-da, 9, 1, 1, 37, 60, 135, 129, 57, 135, 60, 1, 0.837052
348, 2, wb, attraction, a-b-da, 9, 1, 1, 37, 60, 135, 129, 57, 135, 60, 3, 0.482043
348, 2, wb, attraction, a-b-da, 9, 2, 2, 1, 165, 90, 90, 165, 157, 86, 1, 1.94842
348, 2, wb, attraction, a-b-da, 9, 2, 2, 1, 165, 90, 90, 165, 157, 86, 2, 0.493166
348, 2, wb, attraction, a-b-da, 5, 3, 2, 2, 195, 120, 120, 195, 190, 117, 1, 1.05491
348, 2, wb, attraction, a-b-da, 5, 3, 2, 2, 195, 120, 120, 195, 190, 117, 2, 0.435414
348, 2, wb, filler, NA, 999, 999, 2, 3, 161, 120, 111, 103, 174, 128, 2, 0.871662
348, 2, wb, filler, NA, 999, 999, 2, 3, 161, 120, 111, 103, 174, 128, 3, 0.531457
348, 2, wb, attraction, a-b-db, 5, 1, 2, 4, 60, 135, 135, 60, 58, 132, 1, 0.811773
348, 2, wb, attraction, a-b-db, 5, 1, 2, 4, 60, 135, 135, 60, 58, 132, 2, 0.850363
348, 2, wb, attraction, a-b-db, 9, 2, 2, 5, 165, 90, 90, 165, 86, 157, 1, 3.37388
348, 2, wb, attraction, a-b-db, 9, 2, 2, 5, 165, 90, 90, 165, 86, 157, 2, 0.276941
348, 2, wb, filler, NA, 999, 999, 2, 6, 171, 59, 164, 73, 158, 143, 1, 1.75141
348, 2, wb, filler, NA, 999, 999, 2, 6, 171, 59, 164, 73, 158, 143, 3, 0.336078
348, 2, wb, filler, NA, 999, 999, 2, 7, 189, 72, 146, 96, 150, 195, 1, 1.40064
348, 2, wb, filler, NA, 999, 999, 2, 7, 189, 72, 146, 96, 150, 195, 3, 0.271568
348, 2, wb, attraction, a-b-da, 9, 1, 2, 8, 135, 60, 129, 57, 60, 135, 1, 1.25883
348, 2, wb, attraction, a-b-da, 9, 1, 2, 8, 135, 60, 129, 57, 60, 135, 3, 0.4629
348, 2, wb, attraction, a-b-db, 2, 2, 2, 9, 90, 165, 165, 90, 89, 163, 3, 0.978119
348, 2, wb, attraction, a-b-db, 2, 2, 2, 9, 90, 165, 165, 90, 89, 163, 2, 0.353827
348, 2, wb, filler, NA, 999, 999, 2, 10, 121, 67, 80, 148, 193, 146, 1, 0.585592
348, 2, wb, filler, NA, 999, 999, 2, 10, 121, 67, 80, 148, 193, 146, 3, 0.305426
348, 2, wb, attraction, a-b-db, 2, 1, 2, 11, 59, 134, 60, 135, 135, 60, 1, 1.83523
348, 2, wb, attraction, a-b-db, 2, 1, 2, 11, 59, 134, 60, 135, 135, 60, 3, 0.416588
348, 2, wb, attraction, a-b-da, 14, 3, 2, 12, 195, 120, 181, 111, 120, 195, 2, 2.22174
348, 2, wb, attraction, a-b-da, 14, 3, 2, 12, 195, 120, 181, 111, 120, 195, 3, 0.74714
348, 2, wb, attraction, a-b-db, 5, 2, 2, 13, 165, 90, 90, 165, 88, 161, 1, 0.906669
348, 2, wb, attraction, a-b-db, 5, 2, 2, 13, 165, 90, 90, 165, 88, 161, 2, 0.469129
348, 2, wb, attraction, a-b-da, 5, 1, 2, 14, 60, 135, 135, 60, 132, 58, 3, 0.744207
348, 2, wb, attraction, a-b-da, 5, 1, 2, 14, 60, 135, 135, 60, 132, 58, 1, 1.79342
348, 2, wb, catch, NA, 999, 999, 2, 15, 176, 139, 132, 123, 64, 131, 3, 1.62276
348, 2, wb, catch, NA, 999, 999, 2, 15, 176, 139, 132, 123, 64, 131, 1, 0.492113
348, 2, wb, attraction, a-b-db, 14, 1, 2, 16, 60, 135, 135, 60, 56, 125, 3, 1.13392
348, 2, wb, attraction, a-b-db, 14, 1, 2, 16, 60, 135, 135, 60, 56, 125, 2, 0.895531
348, 2, wb, attraction, a-b-da, 2, 1, 2, 17, 135, 60, 60, 135, 134, 59, 1, 0.881302
348, 2, wb, attraction, a-b-da, 2, 1, 2, 17, 135, 60, 60, 135, 134, 59, 2, 0.340847
348, 2, wb, catch, NA, 999, 999, 2, 18, 154, 161, 109, 146, 126, 69, 3, 1.22086
348, 2, wb, catch, NA, 999, 999, 2, 18, 154, 161, 109, 146, 126, 69, 1, 0.474321
348, 2, wb, attraction, a-b-db, 14, 2, 2, 19, 83, 153, 165, 90, 90, 165, 1, 2.17279
348, 2, wb, attraction, a-b-db, 14, 2, 2, 19, 83, 153, 165, 90, 90, 165, 3, 0.332135
348, 2, wb, attraction, a-b-da, 14, 2, 2, 20, 90, 165, 165, 90, 153, 83, 3, 1.56459
348, 2, wb, attraction, a-b-da, 14, 2, 2, 20, 90, 165, 165, 90, 153, 83, 1, 0.340735
348, 2, wb, attraction, a-b-db, 2, 3, 2, 21, 195, 120, 119, 193, 120, 195, 2, 4.02866
348, 2, wb, attraction, a-b-db, 2, 3, 2, 21, 195, 120, 119, 193, 120, 195, 1, 0.409344
348, 2, wb, filler, NA, 999, 999, 2, 22, 84, 194, 90, 160, 108, 77, 3, 1.08658
348, 2, wb, filler, NA, 999, 999, 2, 22, 84, 194, 90, 160, 108, 77, 1, 0.746081
348, 2, wb, attraction, a-b-da, 9, 3, 2, 23, 186, 114, 120, 195, 195, 120, 1, 2.0578
348, 2, wb, attraction, a-b-da, 9, 3, 2, 23, 186, 114, 120, 195, 195, 120, 2, 0.525709
348, 2, wb, catch, NA, 999, 999, 2, 24, 120, 195, 116, 139, 131, 64, 3, 0.766326
348, 2, wb, catch, NA, 999, 999, 2, 24, 120, 195, 116, 139, 131, 64, 1, 0.454569
348, 2, wb, filler, NA, 999, 999, 2, 25, 100, 101, 58, 146, 98, 98, 3, 1.96241
348, 2, wb, filler, NA, 999, 999, 2, 25, 100, 101, 58, 146, 98, 98, 1, 7.49045
348, 2, wb, attraction, a-b-da, 2, 2, 2, 26, 90, 165, 163, 89, 165, 90, 1, 2.73865
348, 2, wb, attraction, a-b-da, 2, 2, 2, 26, 90, 165, 163, 89, 165, 90, 3, 0.579272
348, 2, wb, attraction, a-b-db, 9, 3, 2, 27, 120, 195, 195, 120, 114, 186, 2, 1.28962
348, 2, wb, attraction, a-b-db, 9, 3, 2, 27, 120, 195, 195, 120, 114, 186, 3, 0.708539
348, 2, wb, attraction, a-b-da, 5, 2, 2, 28, 161, 88, 90, 165, 165, 90, 1, 1.6855
348, 2, wb, attraction, a-b-da, 5, 2, 2, 28, 161, 88, 90, 165, 165, 90, 2, 0.473145
348, 2, wb, attraction, a-b-da, 14, 1, 2, 29, 135, 60, 125, 56, 60, 135, 1, 3.24353
348, 2, wb, attraction, a-b-da, 14, 1, 2, 29, 135, 60, 125, 56, 60, 135, 3, 0.727837
348, 2, wb, attraction, a-b-db, 5, 3, 2, 30, 195, 120, 120, 195, 117, 190, 1, 6.47209
348, 2, wb, attraction, a-b-db, 5, 3, 2, 30, 195, 120, 120, 195, 117, 190, 3, 0.418894
348, 2, wb, filler, NA, 999, 999, 2, 31, 176, 117, 159, 125, 158, 187, 1, 2.15186
348, 2, wb, filler, NA, 999, 999, 2, 31, 176, 117, 159, 125, 158, 187, 3, 0.800558
348, 2, wb, attraction, a-b-db, 9, 1, 2, 32, 135, 60, 57, 129, 60, 135, 2, 1.87036
348, 2, wb, attraction, a-b-db, 9, 1, 2, 32, 135, 60, 57, 129, 60, 135, 3, 1.39368
348, 2, wb, attraction, a-b-da, 2, 3, 2, 33, 195, 120, 193, 119, 120, 195, 2, 4.25511
348, 2, wb, attraction, a-b-da, 2, 3, 2, 33, 195, 120, 193, 119, 120, 195, 3, 0.394437
348, 2, wb, attraction, a-b-db, 14, 3, 2, 34, 120, 195, 111, 181, 195, 120, 2, 2.64023
348, 2, wb, attraction, a-b-db, 14, 3, 2, 34, 120, 195, 111, 181, 195, 120, 3, 3.89272
348, 2, wb, filler, NA, 999, 999, 2, 35, 191, 69, 100, 60, 99, 77, 2, 1.09369
348, 2, wb, filler, NA, 999, 999, 2, 35, 191, 69, 100, 60, 99, 77, 1, 0.632391
348, 2, wb, filler, NA, 999, 999, 2, 36, 167, 184, 76, 91, 145, 181, 2, 0.788907
348, 2, wb, filler, NA, 999, 999, 2, 36, 167, 184, 76, 91, 145, 181, 1, 1.13179
348, 2, wb, filler, NA, 999, 999, 2, 37, 98, 113, 179, 163, 187, 84, 1, 1.6841
348, 2, wb, filler, NA, 999, 999, 2, 37, 98, 113, 179, 163, 187, 84, 2, 0.575515
348, 2, wb, filler, NA, 999, 999, 3, 1, 140, 65, 76, 193, 118, 89, 1, 3.51793
348, 2, wb, filler, NA, 999, 999, 3, 1, 140, 65, 76, 193, 118, 89, 2, 1.76751
348, 2, wb, attraction, a-b-da, 14, 1, 3, 2, 60, 135, 125, 56, 135, 60, 3, 1.07027
348, 2, wb, attraction, a-b-da, 14, 1, 3, 2, 60, 135, 125, 56, 135, 60, 1, 0.961861
348, 2, wb, filler, NA, 999, 999, 3, 3, 109, 90, 166, 180, 66, 166, 1, 1.39289
348, 2, wb, filler, NA, 999, 999, 3, 3, 109, 90, 166, 180, 66, 166, 2, 0.279857
348, 2, wb, attraction, a-b-db, 9, 1, 3, 4, 57, 129, 60, 135, 135, 60, 1, 1.55428
348, 2, wb, attraction, a-b-db, 9, 1, 3, 4, 57, 129, 60, 135, 135, 60, 2, 1.41851
348, 2, wb, attraction, a-b-da, 9, 2, 3, 5, 90, 165, 165, 90, 157, 86, 3, 0.759238
348, 2, wb, attraction, a-b-da, 9, 2, 3, 5, 90, 165, 165, 90, 157, 86, 2, 0.343568
348, 2, wb, catch, NA, 999, 999, 3, 6, 140, 175, 149, 106, 76, 119, 3, 1.07159
348, 2, wb, catch, NA, 999, 999, 3, 6, 140, 175, 149, 106, 76, 119, 1, 0.435112
348, 2, wb, attraction, a-b-db, 5, 1, 3, 7, 60, 135, 58, 132, 135, 60, 1, 0.823604
348, 2, wb, attraction, a-b-db, 5, 1, 3, 7, 60, 135, 58, 132, 135, 60, 2, 0.565292
348, 2, wb, attraction, a-b-db, 14, 2, 3, 8, 90, 165, 83, 153, 165, 90, 3, 2.11639
348, 2, wb, attraction, a-b-db, 14, 2, 3, 8, 90, 165, 83, 153, 165, 90, 1, 0.366323
348, 2, wb, attraction, a-b-da, 5, 1, 3, 9, 135, 60, 132, 58, 60, 135, 1, 1.37348
348, 2, wb, attraction, a-b-da, 5, 1, 3, 9, 135, 60, 132, 58, 60, 135, 2, 1.029
348, 2, wb, attraction, a-b-da, 5, 3, 3, 10, 120, 195, 195, 120, 190, 117, 2, 3.45744
348, 2, wb, attraction, a-b-da, 5, 3, 3, 10, 120, 195, 195, 120, 190, 117, 1, 0.276884
348, 2, wb, filler, NA, 999, 999, 3, 11, 122, 137, 69, 71, 85, 167, 2, 0.719385
348, 2, wb, filler, NA, 999, 999, 3, 11, 122, 137, 69, 71, 85, 167, 1, 0.785976
348, 2, wb, attraction, a-b-da, 2, 1, 3, 12, 135, 60, 134, 59, 60, 135, 3, 3.44828
348, 2, wb, attraction, a-b-da, 2, 1, 3, 12, 135, 60, 134, 59, 60, 135, 2, 1.66041
348, 2, wb, catch, NA, 999, 999, 3, 13, 153, 102, 98, 97, 188, 127, 2, 0.943203
348, 2, wb, catch, NA, 999, 999, 3, 13, 153, 102, 98, 97, 188, 127, 3, 0.400143
348, 2, wb, attraction, a-b-db, 14, 1, 3, 14, 135, 60, 56, 125, 60, 135, 2, 1.7981
348, 2, wb, attraction, a-b-db, 14, 1, 3, 14, 135, 60, 56, 125, 60, 135, 1, 0.812776
348, 2, wb, attraction, a-b-db, 2, 3, 3, 15, 195, 120, 119, 193, 120, 195, 2, 2.04194
348, 2, wb, attraction, a-b-db, 2, 3, 3, 15, 195, 120, 119, 193, 120, 195, 1, 0.470472
348, 2, wb, attraction, a-b-da, 14, 2, 3, 16, 90, 165, 165, 90, 153, 83, 3, 0.913595
348, 2, wb, attraction, a-b-da, 14, 2, 3, 16, 90, 165, 165, 90, 153, 83, 2, 0.572036
348, 2, wb, filler, NA, 999, 999, 3, 17, 142, 60, 163, 116, 58, 93, 3, 1.37908
348, 2, wb, filler, NA, 999, 999, 3, 17, 142, 60, 163, 116, 58, 93, 2, 0.666614
348, 2, wb, attraction, a-b-da, 14, 3, 3, 18, 195, 120, 181, 111, 120, 195, 2, 1.45373
348, 2, wb, attraction, a-b-da, 14, 3, 3, 18, 195, 120, 181, 111, 120, 195, 3, 0.553822
348, 2, wb, attraction, a-b-db, 5, 3, 3, 19, 120, 195, 195, 120, 117, 190, 2, 1.79364
348, 2, wb, attraction, a-b-db, 5, 3, 3, 19, 120, 195, 195, 120, 117, 190, 1, 0.488335
348, 2, wb, filler, NA, 999, 999, 3, 20, 91, 166, 68, 148, 180, 69, 2, 1.00288
348, 2, wb, filler, NA, 999, 999, 3, 20, 91, 166, 68, 148, 180, 69, 1, 0.777821
348, 2, wb, attraction, a-b-da, 2, 3, 3, 21, 120, 195, 195, 120, 193, 119, 2, 1.46421
348, 2, wb, attraction, a-b-da, 2, 3, 3, 21, 120, 195, 195, 120, 193, 119, 1, 0.724389
348, 2, wb, attraction, a-b-db, 2, 2, 3, 22, 165, 90, 90, 165, 89, 163, 1, 1.65268
348, 2, wb, attraction, a-b-db, 2, 2, 3, 22, 165, 90, 90, 165, 89, 163, 2, 0.373794
348, 2, wb, attraction, a-b-db, 9, 3, 3, 23, 114, 186, 120, 195, 195, 120, 1, 3.24812
348, 2, wb, attraction, a-b-db, 9, 3, 3, 23, 114, 186, 120, 195, 195, 120, 3, 0.732293
348, 2, wb, attraction, a-b-da, 9, 3, 3, 24, 120, 195, 186, 114, 195, 120, 2, 0.764787
348, 2, wb, attraction, a-b-da, 9, 3, 3, 24, 120, 195, 186, 114, 195, 120, 1, 0.885057
348, 2, wb, filler, NA, 999, 999, 3, 25, 72, 149, 182, 152, 66, 182, 1, 0.695349
348, 2, wb, filler, NA, 999, 999, 3, 25, 72, 149, 182, 152, 66, 182, 2, 0.490576
348, 2, wb, attraction, a-b-da, 5, 2, 3, 26, 161, 88, 90, 165, 165, 90, 1, 3.64434
348, 2, wb, attraction, a-b-da, 5, 2, 3, 26, 161, 88, 90, 165, 165, 90, 2, 0.384457
348, 2, wb, attraction, a-b-da, 9, 1, 3, 27, 135, 60, 129, 57, 60, 135, 2, 1.07105
348, 2, wb, attraction, a-b-da, 9, 1, 3, 27, 135, 60, 129, 57, 60, 135, 3, 0.97066
348, 2, wb, attraction, a-b-db, 5, 2, 3, 28, 165, 90, 88, 161, 90, 165, 1, 1.16948
348, 2, wb, attraction, a-b-db, 5, 2, 3, 28, 165, 90, 88, 161, 90, 165, 3, 0.673836
348, 2, wb, attraction, a-b-db, 9, 2, 3, 29, 165, 90, 86, 157, 90, 165, 2, 0.500386
348, 2, wb, attraction, a-b-db, 9, 2, 3, 29, 165, 90, 86, 157, 90, 165, 3, 1.4074
348, 2, wb, attraction, a-b-db, 14, 3, 3, 30, 120, 195, 111, 181, 195, 120, 2, 0.556198
348, 2, wb, attraction, a-b-db, 14, 3, 3, 30, 120, 195, 111, 181, 195, 120, 1, 0.388848
348, 2, wb, filler, NA, 999, 999, 3, 31, 165, 106, 82, 92, 142, 129, 2, 0.53923
348, 2, wb, filler, NA, 999, 999, 3, 31, 165, 106, 82, 92, 142, 129, 1, 0.540354
348, 2, wb, attraction, a-b-da, 2, 2, 3, 32, 163, 89, 90, 165, 165, 90, 2, 0.996051
348, 2, wb, attraction, a-b-da, 2, 2, 3, 32, 163, 89, 90, 165, 165, 90, 3, 1.85909
348, 2, wb, filler, NA, 999, 999, 3, 33, 163, 148, 88, 129, 170, 154, 2, 0.621942
348, 2, wb, filler, NA, 999, 999, 3, 33, 163, 148, 88, 129, 170, 154, 3, 3.10756
348, 2, wb, filler, NA, 999, 999, 3, 34, 190, 120, 115, 58, 191, 72, 2, 0.667849
348, 2, wb, filler, NA, 999, 999, 3, 34, 190, 120, 115, 58, 191, 72, 1, 0.480381
348, 2, wb, attraction, a-b-db, 2, 1, 3, 35, 60, 135, 59, 134, 135, 60, 1, 1.29881
348, 2, wb, attraction, a-b-db, 2, 1, 3, 35, 60, 135, 59, 134, 135, 60, 2, 1.20565
348, 2, wb, filler, NA, 999, 999, 3, 36, 90, 195, 107, 176, 77, 99, 3, 0.699147
348, 2, wb, filler, NA, 999, 999, 3, 36, 90, 195, 107, 176, 77, 99, 2, 0.542313
348, 2, wb, catch, NA, 999, 999, 3, 37, 105, 150, 187, 128, 74, 121, 3, 1.76605
348, 2, wb, catch, NA, 999, 999, 3, 37, 105, 150, 187, 128, 74, 121, 2, 0.574364
348, 2, wb, attraction, a-b-da, 9, 1, 4, 1, 60, 135, 135, 60, 129, 57, 1, 0.836631
348, 2, wb, attraction, a-b-da, 9, 1, 4, 1, 60, 135, 135, 60, 129, 57, 2, 0.530368
348, 2, wb, filler, NA, 999, 999, 4, 2, 160, 183, 75, 171, 181, 80, 2, 0.970747
348, 2, wb, filler, NA, 999, 999, 4, 2, 160, 183, 75, 171, 181, 80, 1, 0.634446
348, 2, wb, attraction, a-b-db, 5, 2, 4, 3, 165, 90, 90, 165, 88, 161, 2, 0.982856
348, 2, wb, attraction, a-b-db, 5, 2, 4, 3, 165, 90, 90, 165, 88, 161, 1, 0.526426
348, 2, wb, filler, NA, 999, 999, 4, 4, 176, 103, 171, 156, 119, 100, 3, 0.671045
348, 2, wb, filler, NA, 999, 999, 4, 4, 176, 103, 171, 156, 119, 100, 2, 0.666673
348, 2, wb, attraction, a-b-db, 2, 1, 4, 5, 59, 134, 60, 135, 135, 60, 2, 0.973886
348, 2, wb, attraction, a-b-db, 2, 1, 4, 5, 59, 134, 60, 135, 135, 60, 1, 1.06942
348, 2, wb, catch, NA, 999, 999, 4, 6, 121, 134, 90, 105, 156, 159, 2, 1.14437
348, 2, wb, catch, NA, 999, 999, 4, 6, 121, 134, 90, 105, 156, 159, 3, 0.385391
348, 2, wb, attraction, a-b-db, 5, 1, 4, 7, 60, 135, 58, 132, 135, 60, 2, 0.647878
348, 2, wb, attraction, a-b-db, 5, 1, 4, 7, 60, 135, 58, 132, 135, 60, 1, 0.62894
348, 2, wb, filler, NA, 999, 999, 4, 8, 167, 169, 88, 73, 177, 115, 2, 0.449323
348, 2, wb, filler, NA, 999, 999, 4, 8, 167, 169, 88, 73, 177, 115, 1, 0.390433
348, 2, wb, filler, NA, 999, 999, 4, 9, 119, 76, 165, 189, 66, 61, 3, 1.02835
348, 2, wb, filler, NA, 999, 999, 4, 9, 119, 76, 165, 189, 66, 61, 2, 0.353995
348, 2, wb, attraction, a-b-da, 9, 2, 4, 10, 90, 165, 157, 86, 165, 90, 2, 0.657759
348, 2, wb, attraction, a-b-da, 9, 2, 4, 10, 90, 165, 157, 86, 165, 90, 1, 0.302181
348, 2, wb, attraction, a-b-db, 2, 2, 4, 11, 165, 90, 90, 165, 89, 163, 2, 1.04006
348, 2, wb, attraction, a-b-db, 2, 2, 4, 11, 165, 90, 90, 165, 89, 163, 1, 0.661079
348, 2, wb, catch, NA, 999, 999, 4, 12, 114, 81, 94, 161, 183, 132, 1, 0.544271
348, 2, wb, catch, NA, 999, 999, 4, 12, 114, 81, 94, 161, 183, 132, 3, 0.697222
348, 2, wb, attraction, a-b-da, 14, 3, 4, 13, 195, 120, 120, 195, 181, 111, 2, 0.866926
348, 2, wb, attraction, a-b-da, 14, 3, 4, 13, 195, 120, 120, 195, 181, 111, 1, 0.599441
348, 2, wb, filler, NA, 999, 999, 4, 14, 132, 136, 129, 96, 168, 118, 2, 0.997028
348, 2, wb, filler, NA, 999, 999, 4, 14, 132, 136, 129, 96, 168, 118, 1, 1.66008
348, 2, wb, attraction, a-b-db, 2, 3, 4, 15, 119, 193, 120, 195, 195, 120, 1, 2.79084
348, 2, wb, attraction, a-b-db, 2, 3, 4, 15, 119, 193, 120, 195, 195, 120, 3, 0.597301
348, 2, wb, attraction, a-b-da, 2, 3, 4, 16, 195, 120, 193, 119, 120, 195, 2, 1.57103
348, 2, wb, attraction, a-b-da, 2, 3, 4, 16, 195, 120, 193, 119, 120, 195, 3, 0.282492
348, 2, wb, attraction, a-b-da, 5, 3, 4, 17, 195, 120, 120, 195, 190, 117, 2, 0.637016
348, 2, wb, attraction, a-b-da, 5, 3, 4, 17, 195, 120, 120, 195, 190, 117, 1, 0.570847
348, 2, wb, filler, NA, 999, 999, 4, 18, 74, 170, 62, 145, 62, 108, 3, 1.97791
348, 2, wb, filler, NA, 999, 999, 4, 18, 74, 170, 62, 145, 62, 108, 1, 0.617367
348, 2, wb, attraction, a-b-db, 14, 3, 4, 19, 120, 195, 111, 181, 195, 120, 2, 1.1423
348, 2, wb, attraction, a-b-db, 14, 3, 4, 19, 120, 195, 111, 181, 195, 120, 1, 0.799418
348, 2, wb, attraction, a-b-db, 9, 3, 4, 20, 195, 120, 114, 186, 120, 195, 2, 1.045
348, 2, wb, attraction, a-b-db, 9, 3, 4, 20, 195, 120, 114, 186, 120, 195, 3, 0.337983
348, 2, wb, attraction, a-b-da, 14, 1, 4, 21, 60, 135, 135, 60, 125, 56, 2, 0.898461
348, 2, wb, attraction, a-b-da, 14, 1, 4, 21, 60, 135, 135, 60, 125, 56, 1, 0.581582
348, 2, wb, filler, NA, 999, 999, 4, 22, 73, 191, 191, 77, 142, 74, 2, 1.38001
348, 2, wb, filler, NA, 999, 999, 4, 22, 73, 191, 191, 77, 142, 74, 3, 0.579507
348, 2, wb, filler, NA, 999, 999, 4, 23, 90, 149, 64, 146, 145, 96, 2, 0.721931
348, 2, wb, filler, NA, 999, 999, 4, 23, 90, 149, 64, 146, 145, 96, 1, 0.467756
348, 2, wb, attraction, a-b-da, 5, 2, 4, 24, 165, 90, 90, 165, 161, 88, 2, 0.910819
348, 2, wb, attraction, a-b-da, 5, 2, 4, 24, 165, 90, 90, 165, 161, 88, 1, 1.33715
348, 2, wb, catch, NA, 999, 999, 4, 25, 124, 71, 136, 179, 119, 136, 1, 0.665312
348, 2, wb, catch, NA, 999, 999, 4, 25, 124, 71, 136, 179, 119, 136, 2, 0.421762
348, 2, wb, attraction, a-b-db, 9, 1, 4, 26, 57, 129, 135, 60, 60, 135, 2, 0.682916
348, 2, wb, attraction, a-b-db, 9, 1, 4, 26, 57, 129, 135, 60, 60, 135, 3, 0.358621
348, 2, wb, attraction, a-b-da, 2, 2, 4, 27, 165, 90, 90, 165, 163, 89, 2, 0.565812
348, 2, wb, attraction, a-b-da, 2, 2, 4, 27, 165, 90, 90, 165, 163, 89, 1, 0.646307
348, 2, wb, filler, NA, 999, 999, 4, 28, 127, 120, 179, 100, 168, 127, 2, 2.01818
348, 2, wb, filler, NA, 999, 999, 4, 28, 127, 120, 179, 100, 168, 127, 3, 0.575992
348, 2, wb, attraction, a-b-da, 5, 1, 4, 29, 60, 135, 132, 58, 135, 60, 1, 1.20647
348, 2, wb, attraction, a-b-da, 5, 1, 4, 29, 60, 135, 132, 58, 135, 60, 2, 0.444856
348, 2, wb, attraction, a-b-db, 14, 1, 4, 30, 60, 135, 135, 60, 56, 125, 3, 1.79257
348, 2, wb, attraction, a-b-db, 14, 1, 4, 30, 60, 135, 135, 60, 56, 125, 1, 1.67127
348, 2, wb, attraction, a-b-db, 5, 3, 4, 31, 195, 120, 117, 190, 120, 195, 2, 0.897995
348, 2, wb, attraction, a-b-db, 5, 3, 4, 31, 195, 120, 117, 190, 120, 195, 3, 1.74911
348, 2, wb, attraction, a-b-db, 14, 2, 4, 32, 90, 165, 165, 90, 83, 153, 3, 1.26049
348, 2, wb, attraction, a-b-db, 14, 2, 4, 32, 90, 165, 165, 90, 83, 153, 1, 0.760642
348, 2, wb, attraction, a-b-da, 9, 3, 4, 33, 186, 114, 120, 195, 195, 120, 1, 2.00767
348, 2, wb, attraction, a-b-da, 9, 3, 4, 33, 186, 114, 120, 195, 195, 120, 3, 0.629716
348, 2, wb, attraction, a-b-db, 9, 2, 4, 34, 86, 157, 90, 165, 165, 90, 3, 1.5061
348, 2, wb, attraction, a-b-db, 9, 2, 4, 34, 86, 157, 90, 165, 165, 90, 1, 1.03632
348, 2, wb, attraction, a-b-da, 14, 2, 4, 35, 90, 165, 165, 90, 153, 83, 1, 1.36868
348, 2, wb, attraction, a-b-da, 14, 2, 4, 35, 90, 165, 165, 90, 153, 83, 2, 1.66482
348, 2, wb, filler, NA, 999, 999, 4, 36, 73, 118, 175, 104, 138, 180, 1, 0.843565
348, 2, wb, filler, NA, 999, 999, 4, 36, 73, 118, 175, 104, 138, 180, 3, 0.320556
348, 2, wb, attraction, a-b-da, 2, 1, 4, 37, 134, 59, 135, 60, 60, 135, 3, 0.77776
348, 2, wb, attraction, a-b-da, 2, 1, 4, 37, 134, 59, 135, 60, 60, 135, 1, 0.489499
348, 2, wb, attraction, a-b-da, 5, 3, 5, 1, 195, 120, 190, 117, 120, 195, 1, 4.06604
348, 2, wb, attraction, a-b-da, 5, 3, 5, 1, 195, 120, 190, 117, 120, 195, 2, 1.38932
348, 2, wb, filler, NA, 999, 999, 5, 2, 168, 193, 84, 115, 59, 186, 2, 1.2836
348, 2, wb, filler, NA, 999, 999, 5, 2, 168, 193, 84, 115, 59, 186, 1, 0.599083
348, 2, wb, filler, NA, 999, 999, 5, 3, 60, 121, 110, 170, 180, 176, 1, 0.788754
348, 2, wb, filler, NA, 999, 999, 5, 3, 60, 121, 110, 170, 180, 176, 3, 0.531806
348, 2, wb, attraction, a-b-db, 9, 1, 5, 4, 135, 60, 57, 129, 60, 135, 2, 0.764273
348, 2, wb, attraction, a-b-db, 9, 1, 5, 4, 135, 60, 57, 129, 60, 135, 1, 0.420715
348, 2, wb, attraction, a-b-da, 2, 1, 5, 5, 134, 59, 135, 60, 60, 135, 1, 1.95392
348, 2, wb, attraction, a-b-da, 2, 1, 5, 5, 134, 59, 135, 60, 60, 135, 3, 0.442625
348, 2, wb, attraction, a-b-da, 14, 2, 5, 6, 153, 83, 165, 90, 90, 165, 1, 0.902354
348, 2, wb, attraction, a-b-da, 14, 2, 5, 6, 153, 83, 165, 90, 90, 165, 2, 0.521398
348, 2, wb, filler, NA, 999, 999, 5, 7, 120, 82, 158, 140, 118, 178, 1, 0.706498
348, 2, wb, filler, NA, 999, 999, 5, 7, 120, 82, 158, 140, 118, 178, 2, 0.476871
348, 2, wb, filler, NA, 999, 999, 5, 8, 156, 154, 86, 86, 106, 67, 2, 0.767344
348, 2, wb, filler, NA, 999, 999, 5, 8, 156, 154, 86, 86, 106, 67, 3, 1.53582
348, 2, wb, attraction, a-b-da, 14, 3, 5, 9, 195, 120, 120, 195, 181, 111, 1, 2.59998
348, 2, wb, attraction, a-b-da, 14, 3, 5, 9, 195, 120, 120, 195, 181, 111, 2, 0.494406
348, 2, wb, attraction, a-b-db, 2, 3, 5, 10, 120, 195, 119, 193, 195, 120, 2, 1.75212
348, 2, wb, attraction, a-b-db, 2, 3, 5, 10, 120, 195, 119, 193, 195, 120, 1, 0.824968
348, 2, wb, attraction, a-b-da, 9, 3, 5, 11, 120, 195, 186, 114, 195, 120, 2, 1.6133
348, 2, wb, attraction, a-b-da, 9, 3, 5, 11, 120, 195, 186, 114, 195, 120, 1, 0.355551
348, 2, wb, attraction, a-b-da, 5, 1, 5, 12, 60, 135, 132, 58, 135, 60, 3, 4.37129
348, 2, wb, attraction, a-b-da, 5, 1, 5, 12, 60, 135, 132, 58, 135, 60, 1, 0.554504
348, 2, wb, attraction, a-b-da, 2, 2, 5, 13, 90, 165, 163, 89, 165, 90, 3, 1.92242
348, 2, wb, attraction, a-b-da, 2, 2, 5, 13, 90, 165, 163, 89, 165, 90, 1, 0.307781
348, 2, wb, catch, NA, 999, 999, 5, 14, 122, 133, 127, 188, 103, 92, 3, 0.676829
348, 2, wb, catch, NA, 999, 999, 5, 14, 122, 133, 127, 188, 103, 92, 2, 0.464556
348, 2, wb, filler, NA, 999, 999, 5, 15, 163, 174, 83, 94, 137, 61, 2, 0.811715
348, 2, wb, filler, NA, 999, 999, 5, 15, 163, 174, 83, 94, 137, 61, 1, 0.394128
348, 2, wb, attraction, a-b-db, 9, 3, 5, 16, 114, 186, 120, 195, 195, 120, 2, 0.640017
348, 2, wb, attraction, a-b-db, 9, 3, 5, 16, 114, 186, 120, 195, 195, 120, 3, 0.301012
348, 2, wb, attraction, a-b-db, 5, 1, 5, 17, 58, 132, 60, 135, 135, 60, 3, 2.34295
348, 2, wb, attraction, a-b-db, 5, 1, 5, 17, 58, 132, 60, 135, 135, 60, 2, 0.375392
348, 2, wb, attraction, a-b-db, 5, 3, 5, 18, 120, 195, 195, 120, 117, 190, 3, 1.57401
348, 2, wb, attraction, a-b-db, 5, 3, 5, 18, 120, 195, 195, 120, 117, 190, 1, 0.637505
348, 2, wb, catch, NA, 999, 999, 5, 19, 131, 184, 96, 99, 157, 98, 2, 0.721866
348, 2, wb, catch, NA, 999, 999, 5, 19, 131, 184, 96, 99, 157, 98, 1, 0.283576
348, 2, wb, attraction, a-b-da, 9, 2, 5, 20, 157, 86, 90, 165, 165, 90, 1, 1.67816
348, 2, wb, attraction, a-b-da, 9, 2, 5, 20, 157, 86, 90, 165, 165, 90, 2, 0.353502
348, 2, wb, attraction, a-b-db, 14, 3, 5, 21, 195, 120, 111, 181, 120, 195, 2, 2.4814
348, 2, wb, attraction, a-b-db, 14, 3, 5, 21, 195, 120, 111, 181, 120, 195, 3, 1.63668
348, 2, wb, filler, NA, 999, 999, 5, 22, 92, 179, 96, 66, 125, 88, 2, 1.98469
348, 2, wb, filler, NA, 999, 999, 5, 22, 92, 179, 96, 66, 125, 88, 1, 0.512025
348, 2, wb, attraction, a-b-db, 5, 2, 5, 23, 88, 161, 90, 165, 165, 90, 2, 2.16931
348, 2, wb, attraction, a-b-db, 5, 2, 5, 23, 88, 161, 90, 165, 165, 90, 3, 5.55317
348, 2, wb, attraction, a-b-db, 2, 1, 5, 24, 135, 60, 60, 135, 59, 134, 1, 1.76736
348, 2, wb, attraction, a-b-db, 2, 1, 5, 24, 135, 60, 60, 135, 59, 134, 2, 0.439402
348, 2, wb, filler, NA, 999, 999, 5, 25, 129, 149, 179, 98, 88, 190, 2, 6.70732
348, 2, wb, filler, NA, 999, 999, 5, 25, 129, 149, 179, 98, 88, 190, 1, 0.307715
348, 2, wb, attraction, a-b-da, 5, 2, 5, 26, 165, 90, 90, 165, 161, 88, 2, 0.972977
348, 2, wb, attraction, a-b-da, 5, 2, 5, 26, 165, 90, 90, 165, 161, 88, 1, 0.380643
348, 2, wb, attraction, a-b-db, 2, 2, 5, 27, 89, 163, 90, 165, 165, 90, 1, 1.21128
348, 2, wb, attraction, a-b-db, 2, 2, 5, 27, 89, 163, 90, 165, 165, 90, 2, 0.897343
348, 2, wb, attraction, a-b-db, 14, 2, 5, 28, 90, 165, 83, 153, 165, 90, 3, 1.4351
348, 2, wb, attraction, a-b-db, 14, 2, 5, 28, 90, 165, 83, 153, 165, 90, 2, 0.40061
348, 2, wb, catch, NA, 999, 999, 5, 29, 125, 70, 109, 146, 156, 159, 1, 0.742381
348, 2, wb, catch, NA, 999, 999, 5, 29, 125, 70, 109, 146, 156, 159, 3, 0.495517
348, 2, wb, attraction, a-b-da, 14, 1, 5, 30, 135, 60, 125, 56, 60, 135, 2, 2.43326
348, 2, wb, attraction, a-b-da, 14, 1, 5, 30, 135, 60, 125, 56, 60, 135, 3, 9.94251
348, 2, wb, attraction, a-b-da, 2, 3, 5, 31, 195, 120, 193, 119, 120, 195, 2, 1.644
348, 2, wb, attraction, a-b-da, 2, 3, 5, 31, 195, 120, 193, 119, 120, 195, 3, 0.456708
348, 2, wb, filler, NA, 999, 999, 5, 32, 121, 127, 128, 129, 66, 130, 3, 0.963876
348, 2, wb, filler, NA, 999, 999, 5, 32, 121, 127, 128, 129, 66, 130, 2, 0.612236
348, 2, wb, attraction, a-b-db, 14, 1, 5, 33, 60, 135, 56, 125, 135, 60, 2, 0.705258
348, 2, wb, attraction, a-b-db, 14, 1, 5, 33, 60, 135, 56, 125, 135, 60, 3, 0.683685
348, 2, wb, filler, NA, 999, 999, 5, 34, 130, 184, 100, 76, 123, 165, 2, 0.622099
348, 2, wb, filler, NA, 999, 999, 5, 34, 130, 184, 100, 76, 123, 165, 1, 0.331899
348, 2, wb, attraction, a-b-da, 9, 1, 5, 35, 129, 57, 60, 135, 135, 60, 1, 1.49237
348, 2, wb, attraction, a-b-da, 9, 1, 5, 35, 129, 57, 60, 135, 135, 60, 2, 0.799247
348, 2, wb, filler, NA, 999, 999, 5, 36, 112, 76, 127, 61, 146, 90, 2, 3.70892
348, 2, wb, filler, NA, 999, 999, 5, 36, 112, 76, 127, 61, 146, 90, 3, 0.302435
348, 2, wb, attraction, a-b-db, 9, 2, 5, 37, 86, 157, 165, 90, 90, 165, 2, 3.13627
348, 2, wb, attraction, a-b-db, 9, 2, 5, 37, 86, 157, 165, 90, 90, 165, 3, 0.609294
348, 2, wb, attraction, a-b-db, 5, 1, 6, 1, 60, 135, 135, 60, 58, 132, 3, 2.07033
348, 2, wb, attraction, a-b-db, 5, 1, 6, 1, 60, 135, 135, 60, 58, 132, 2, 0.330315
348, 2, wb, filler, NA, 999, 999, 6, 2, 146, 130, 86, 57, 169, 67, 2, 0.96289
348, 2, wb, filler, NA, 999, 999, 6, 2, 146, 130, 86, 57, 169, 67, 1, 0.499181
348, 2, wb, attraction, a-b-da, 14, 1, 6, 3, 60, 135, 125, 56, 135, 60, 1, 2.91699
348, 2, wb, attraction, a-b-da, 14, 1, 6, 3, 60, 135, 125, 56, 135, 60, 2, 0.366771
348, 2, wb, attraction, a-b-da, 2, 2, 6, 4, 90, 165, 163, 89, 165, 90, 1, 2.08583
348, 2, wb, attraction, a-b-da, 2, 2, 6, 4, 90, 165, 163, 89, 165, 90, 2, 0.897158
348, 2, wb, filler, NA, 999, 999, 6, 5, 90, 75, 72, 81, 114, 142, 2, 2.22689
348, 2, wb, filler, NA, 999, 999, 6, 5, 90, 75, 72, 81, 114, 142, 3, 0.320123
348, 2, wb, attraction, a-b-db, 9, 2, 6, 6, 165, 90, 86, 157, 90, 165, 2, 4.16941
348, 2, wb, attraction, a-b-db, 9, 2, 6, 6, 165, 90, 86, 157, 90, 165, 3, 1.14463
348, 2, wb, filler, NA, 999, 999, 6, 7, 92, 147, 154, 124, 185, 150, 1, 1.89618
348, 2, wb, filler, NA, 999, 999, 6, 7, 92, 147, 154, 124, 185, 150, 3, 0.338835
348, 2, wb, attraction, a-b-db, 2, 3, 6, 8, 195, 120, 120, 195, 119, 193, 1, 5.46744
348, 2, wb, attraction, a-b-db, 2, 3, 6, 8, 195, 120, 120, 195, 119, 193, 2, 0.814526
348, 2, wb, attraction, a-b-da, 9, 3, 6, 9, 120, 195, 195, 120, 186, 114, 3, 2.86733
348, 2, wb, attraction, a-b-da, 9, 3, 6, 9, 120, 195, 195, 120, 186, 114, 1, 0.583142
348, 2, wb, filler, NA, 999, 999, 6, 10, 178, 176, 95, 77, 73, 150, 2, 0.949711
348, 2, wb, filler, NA, 999, 999, 6, 10, 178, 176, 95, 77, 73, 150, 1, 0.446584
348, 2, wb, filler, NA, 999, 999, 6, 11, 147, 109, 87, 193, 56, 138, 3, 1.23443
348, 2, wb, filler, NA, 999, 999, 6, 11, 147, 109, 87, 193, 56, 138, 2, 0.823987
348, 2, wb, attraction, a-b-da, 9, 1, 6, 12, 60, 135, 129, 57, 135, 60, 1, 0.90029
348, 2, wb, attraction, a-b-da, 9, 1, 6, 12, 60, 135, 129, 57, 135, 60, 2, 0.53545
348, 2, wb, catch, NA, 999, 999, 6, 13, 145, 170, 97, 158, 121, 74, 3, 1.65578
348, 2, wb, catch, NA, 999, 999, 6, 13, 145, 170, 97, 158, 121, 74, 1, 0.307915
348, 2, wb, attraction, a-b-db, 14, 2, 6, 14, 165, 90, 90, 165, 83, 153, 2, 3.19702
348, 2, wb, attraction, a-b-db, 14, 2, 6, 14, 165, 90, 90, 165, 83, 153, 1, 0.371324
348, 2, wb, filler, NA, 999, 999, 6, 15, 122, 103, 118, 64, 83, 168, 2, 0.754603
348, 2, wb, filler, NA, 999, 999, 6, 15, 122, 103, 118, 64, 83, 168, 3, 4.15504
348, 2, wb, filler, NA, 999, 999, 6, 16, 169, 129, 189, 188, 135, 73, 3, 1.61763
348, 2, wb, filler, NA, 999, 999, 6, 16, 169, 129, 189, 188, 135, 73, 2, 0.303675
348, 2, wb, attraction, a-b-db, 14, 1, 6, 17, 60, 135, 56, 125, 135, 60, 2, 1.83351
348, 2, wb, attraction, a-b-db, 14, 1, 6, 17, 60, 135, 56, 125, 135, 60, 1, 0.311054
348, 2, wb, attraction, a-b-da, 2, 1, 6, 18, 135, 60, 60, 135, 134, 59, 2, 1.00814
348, 2, wb, attraction, a-b-da, 2, 1, 6, 18, 135, 60, 60, 135, 134, 59, 1, 0.614458
348, 2, wb, filler, NA, 999, 999, 6, 19, 97, 184, 148, 171, 162, 126, 1, 3.9875
348, 2, wb, filler, NA, 999, 999, 6, 19, 97, 184, 148, 171, 162, 126, 2, 0.522281
348, 2, wb, attraction, a-b-db, 5, 3, 6, 20, 120, 195, 195, 120, 117, 190, 2, 1.10751
348, 2, wb, attraction, a-b-db, 5, 3, 6, 20, 120, 195, 195, 120, 117, 190, 1, 0.637697
348, 2, wb, attraction, a-b-db, 9, 3, 6, 21, 195, 120, 120, 195, 114, 186, 2, 3.03413
348, 2, wb, attraction, a-b-db, 9, 3, 6, 21, 195, 120, 120, 195, 114, 186, 1, 0.47911
348, 2, wb, attraction, a-b-da, 5, 3, 6, 22, 120, 195, 195, 120, 190, 117, 2, 3.91365
348, 2, wb, attraction, a-b-da, 5, 3, 6, 22, 120, 195, 195, 120, 190, 117, 1, 0.714919
348, 2, wb, attraction, a-b-db, 2, 2, 6, 23, 165, 90, 89, 163, 90, 165, 1, 1.70001
348, 2, wb, attraction, a-b-db, 2, 2, 6, 23, 165, 90, 89, 163, 90, 165, 2, 0.550738
348, 2, wb, attraction, a-b-db, 5, 2, 6, 24, 165, 90, 88, 161, 90, 165, 2, 1.67057
348, 2, wb, attraction, a-b-db, 5, 2, 6, 24, 165, 90, 88, 161, 90, 165, 3, 1.00207
348, 2, wb, attraction, a-b-da, 5, 1, 6, 25, 135, 60, 60, 135, 132, 58, 3, 3.87172
348, 2, wb, attraction, a-b-da, 5, 1, 6, 25, 135, 60, 60, 135, 132, 58, 2, 0.314371
348, 2, wb, filler, NA, 999, 999, 6, 26, 165, 163, 178, 71, 106, 167, 2, 1.52357
348, 2, wb, filler, NA, 999, 999, 6, 26, 165, 163, 178, 71, 106, 167, 1, 0.357082
348, 2, wb, attraction, a-b-da, 5, 2, 6, 27, 90, 165, 161, 88, 165, 90, 1, 2.26031
348, 2, wb, attraction, a-b-da, 5, 2, 6, 27, 90, 165, 161, 88, 165, 90, 2, 0.232182
348, 2, wb, attraction, a-b-da, 9, 2, 6, 28, 165, 90, 157, 86, 90, 165, 2, 1.7088
348, 2, wb, attraction, a-b-da, 9, 2, 6, 28, 165, 90, 157, 86, 90, 165, 1, 0.430967
348, 2, wb, catch, NA, 999, 999, 6, 29, 61, 134, 171, 144, 128, 127, 1, 1.30728
348, 2, wb, catch, NA, 999, 999, 6, 29, 61, 134, 171, 144, 128, 127, 2, 0.397666
348, 2, wb, attraction, a-b-db, 2, 1, 6, 30, 60, 135, 135, 60, 59, 134, 2, 0.81136
348, 2, wb, attraction, a-b-db, 2, 1, 6, 30, 60, 135, 135, 60, 59, 134, 1, 0.76176
348, 2, wb, attraction, a-b-db, 14, 3, 6, 31, 120, 195, 195, 120, 111, 181, 3, 2.84877
348, 2, wb, attraction, a-b-db, 14, 3, 6, 31, 120, 195, 195, 120, 111, 181, 1, 0.469187
348, 2, wb, filler, NA, 999, 999, 6, 32, 171, 170, 171, 153, 150, 100, 3, 1.07238
348, 2, wb, filler, NA, 999, 999, 6, 32, 171, 170, 171, 153, 150, 100, 1, 0.347933
348, 2, wb, attraction, a-b-da, 2, 3, 6, 33, 195, 120, 120, 195, 193, 119, 2, 1.42792
348, 2, wb, attraction, a-b-da, 2, 3, 6, 33, 195, 120, 120, 195, 193, 119, 1, 0.3533
348, 2, wb, catch, NA, 999, 999, 6, 34, 134, 181, 146, 109, 123, 72, 3, 0.841108
348, 2, wb, catch, NA, 999, 999, 6, 34, 134, 181, 146, 109, 123, 72, 1, 0.558136
348, 2, wb, attraction, a-b-da, 14, 3, 6, 35, 181, 111, 195, 120, 120, 195, 1, 4.94936
348, 2, wb, attraction, a-b-da, 14, 3, 6, 35, 181, 111, 195, 120, 120, 195, 3, 0.285014
348, 2, wb, attraction, a-b-da, 14, 2, 6, 36, 90, 165, 165, 90, 153, 83, 3, 1.9676
348, 2, wb, attraction, a-b-da, 14, 2, 6, 36, 90, 165, 165, 90, 153, 83, 1, 0.295703
348, 2, wb, attraction, a-b-db, 9, 1, 6, 37, 60, 135, 135, 60, 57, 129, 2, 6.14543
348, 2, wb, attraction, a-b-db, 9, 1, 6, 37, 60, 135, 135, 60, 57, 129, 1, 0.880777
348, 2, wb, attraction, a-b-db, 9, 1, 7, 1, 135, 60, 57, 129, 60, 135, 2, 1.51514
348, 2, wb, attraction, a-b-db, 9, 1, 7, 1, 135, 60, 57, 129, 60, 135, 3, 1.0453
348, 2, wb, attraction, a-b-db, 14, 1, 7, 2, 135, 60, 56, 125, 60, 135, 2, 1.8089
348, 2, wb, attraction, a-b-db, 14, 1, 7, 2, 135, 60, 56, 125, 60, 135, 3, 0.486966
348, 2, wb, attraction, a-b-da, 5, 3, 7, 3, 120, 195, 190, 117, 195, 120, 2, 1.24162
348, 2, wb, attraction, a-b-da, 5, 3, 7, 3, 120, 195, 190, 117, 195, 120, 3, 4.0785
348, 2, wb, attraction, a-b-db, 14, 2, 7, 4, 83, 153, 90, 165, 165, 90, 1, 5.2318
348, 2, wb, attraction, a-b-db, 14, 2, 7, 4, 83, 153, 90, 165, 165, 90, 3, 0.54009
348, 2, wb, attraction, a-b-da, 14, 3, 7, 5, 195, 120, 181, 111, 120, 195, 2, 1.33991
348, 2, wb, attraction, a-b-da, 14, 3, 7, 5, 195, 120, 181, 111, 120, 195, 3, 0.716703
348, 2, wb, filler, NA, 999, 999, 7, 6, 62, 91, 139, 129, 100, 67, 1, 1.11771
348, 2, wb, filler, NA, 999, 999, 7, 6, 62, 91, 139, 129, 100, 67, 2, 0.344062
348, 2, wb, filler, NA, 999, 999, 7, 7, 105, 129, 158, 63, 93, 183, 2, 1.53609
348, 2, wb, filler, NA, 999, 999, 7, 7, 105, 129, 158, 63, 93, 183, 3, 1.50551
348, 2, wb, attraction, a-b-db, 2, 1, 7, 8, 60, 135, 135, 60, 59, 134, 1, 3.57084
348, 2, wb, attraction, a-b-db, 2, 1, 7, 8, 60, 135, 135, 60, 59, 134, 2, 0.265796
348, 2, wb, attraction, a-b-db, 5, 3, 7, 9, 120, 195, 195, 120, 117, 190, 2, 0.892931
348, 2, wb, attraction, a-b-db, 5, 3, 7, 9, 120, 195, 195, 120, 117, 190, 1, 0.527929
348, 2, wb, attraction, a-b-db, 9, 3, 7, 10, 120, 195, 195, 120, 114, 186, 2, 2.15236
348, 2, wb, attraction, a-b-db, 9, 3, 7, 10, 120, 195, 195, 120, 114, 186, 1, 0.336965
348, 2, wb, attraction, a-b-db, 5, 1, 7, 11, 58, 132, 60, 135, 135, 60, 1, 1.08957
348, 2, wb, attraction, a-b-db, 5, 1, 7, 11, 58, 132, 60, 135, 135, 60, 2, 0.66052
348, 2, wb, attraction, a-b-da, 2, 1, 7, 12, 60, 135, 135, 60, 134, 59, 2, 0.535516
348, 2, wb, attraction, a-b-da, 2, 1, 7, 12, 60, 135, 135, 60, 134, 59, 1, 0.777309
348, 2, wb, filler, NA, 999, 999, 7, 13, 58, 97, 77, 116, 161, 195, 1, 1.50373
348, 2, wb, filler, NA, 999, 999, 7, 13, 58, 97, 77, 116, 161, 195, 3, 0.658608
348, 2, wb, filler, NA, 999, 999, 7, 14, 189, 107, 112, 192, 138, 116, 3, 3.13362
348, 2, wb, filler, NA, 999, 999, 7, 14, 189, 107, 112, 192, 138, 116, 2, 0.326591
348, 2, wb, attraction, a-b-da, 5, 2, 7, 15, 90, 165, 165, 90, 161, 88, 2, 2.00714
348, 2, wb, attraction, a-b-da, 5, 2, 7, 15, 90, 165, 165, 90, 161, 88, 3, 0.421124
348, 2, wb, attraction, a-b-db, 9, 2, 7, 16, 90, 165, 86, 157, 165, 90, 1, 1.49824
348, 2, wb, attraction, a-b-db, 9, 2, 7, 16, 90, 165, 86, 157, 165, 90, 3, 0.917092
348, 2, wb, attraction, a-b-db, 2, 2, 7, 17, 165, 90, 90, 165, 89, 163, 1, 1.62212
348, 2, wb, attraction, a-b-db, 2, 2, 7, 17, 165, 90, 90, 165, 89, 163, 2, 0.371563
348, 2, wb, attraction, a-b-da, 2, 2, 7, 18, 163, 89, 90, 165, 165, 90, 1, 3.34676
348, 2, wb, attraction, a-b-da, 2, 2, 7, 18, 163, 89, 90, 165, 165, 90, 2, 0.827013
348, 2, wb, attraction, a-b-da, 14, 1, 7, 19, 135, 60, 60, 135, 125, 56, 2, 0.863396
348, 2, wb, attraction, a-b-da, 14, 1, 7, 19, 135, 60, 60, 135, 125, 56, 1, 0.619697
348, 2, wb, attraction, a-b-da, 9, 2, 7, 20, 165, 90, 90, 165, 157, 86, 3, 1.95291
348, 2, wb, attraction, a-b-da, 9, 2, 7, 20, 165, 90, 90, 165, 157, 86, 2, 0.545449
348, 2, wb, catch, NA, 999, 999, 7, 21, 119, 76, 131, 184, 132, 123, 1, 0.865232
348, 2, wb, catch, NA, 999, 999, 7, 21, 119, 76, 131, 184, 132, 123, 2, 0.36562
348, 2, wb, attraction, a-b-da, 2, 3, 7, 22, 193, 119, 120, 195, 195, 120, 3, 2.46083
348, 2, wb, attraction, a-b-da, 2, 3, 7, 22, 193, 119, 120, 195, 195, 120, 2, 0.640726
348, 2, wb, catch, NA, 999, 999, 7, 23, 128, 187, 97, 158, 119, 76, 3, 0.948453
348, 2, wb, catch, NA, 999, 999, 7, 23, 128, 187, 97, 158, 119, 76, 1, 0.525562
348, 2, wb, filler, NA, 999, 999, 7, 24, 111, 134, 82, 134, 84, 148, 2, 0.949941
348, 2, wb, filler, NA, 999, 999, 7, 24, 111, 134, 82, 134, 84, 148, 1, 0.486979
348, 2, wb, filler, NA, 999, 999, 7, 25, 127, 148, 113, 58, 115, 73, 2, 0.913397
348, 2, wb, filler, NA, 999, 999, 7, 25, 127, 148, 113, 58, 115, 73, 1, 0.491704
348, 2, wb, filler, NA, 999, 999, 7, 26, 63, 187, 180, 87, 107, 60, 3, 1.06152
348, 2, wb, filler, NA, 999, 999, 7, 26, 63, 187, 180, 87, 107, 60, 2, 0.585736
348, 2, wb, attraction, a-b-db, 5, 2, 7, 27, 165, 90, 90, 165, 88, 161, 1, 3.40828
348, 2, wb, attraction, a-b-db, 5, 2, 7, 27, 165, 90, 90, 165, 88, 161, 2, 0.389732
348, 2, wb, attraction, a-b-da, 9, 1, 7, 28, 60, 135, 135, 60, 129, 57, 1, 2.91562
348, 2, wb, attraction, a-b-da, 9, 1, 7, 28, 60, 135, 135, 60, 129, 57, 2, 0.637382
348, 2, wb, attraction, a-b-db, 14, 3, 7, 29, 111, 181, 195, 120, 120, 195, 2, 1.2178
348, 2, wb, attraction, a-b-db, 14, 3, 7, 29, 111, 181, 195, 120, 120, 195, 3, 0.552014
348, 2, wb, filler, NA, 999, 999, 7, 30, 65, 103, 105, 180, 123, 133, 1, 0.767768
348, 2, wb, filler, NA, 999, 999, 7, 30, 65, 103, 105, 180, 123, 133, 3, 0.632159
348, 2, wb, attraction, a-b-da, 14, 2, 7, 31, 165, 90, 153, 83, 90, 165, 2, 2.44464
348, 2, wb, attraction, a-b-da, 14, 2, 7, 31, 165, 90, 153, 83, 90, 165, 3, 0.689126
348, 2, wb, filler, NA, 999, 999, 7, 32, 67, 166, 163, 158, 158, 56, 3, 1.03563
348, 2, wb, filler, NA, 999, 999, 7, 32, 67, 166, 163, 158, 158, 56, 2, 0.305141
348, 2, wb, catch, NA, 999, 999, 7, 33, 149, 166, 119, 76, 146, 109, 2, 0.55495
348, 2, wb, catch, NA, 999, 999, 7, 33, 149, 166, 119, 76, 146, 109, 1, 0.339476
348, 2, wb, attraction, a-b-da, 5, 1, 7, 34, 60, 135, 132, 58, 135, 60, 1, 1.76347
348, 2, wb, attraction, a-b-da, 5, 1, 7, 34, 60, 135, 132, 58, 135, 60, 2, 2.38746
348, 2, wb, filler, NA, 999, 999, 7, 35, 184, 126, 107, 62, 72, 130, 2, 0.6332
348, 2, wb, filler, NA, 999, 999, 7, 35, 184, 126, 107, 62, 72, 130, 1, 0.350995
348, 2, wb, attraction, a-b-db, 2, 3, 7, 36, 120, 195, 195, 120, 119, 193, 2, 1.10283
348, 2, wb, attraction, a-b-db, 2, 3, 7, 36, 120, 195, 195, 120, 119, 193, 1, 0.770046
348, 2, wb, attraction, a-b-da, 9, 3, 7, 37, 195, 120, 186, 114, 120, 195, 2, 6.20109
348, 2, wb, attraction, a-b-da, 9, 3, 7, 37, 195, 120, 186, 114, 120, 195, 3, 0.502415
348, 2, wb, filler, NA, 999, 999, 8, 1, 142, 143, 171, 104, 62, 167, 3, 0.896103
348, 2, wb, filler, NA, 999, 999, 8, 1, 142, 143, 171, 104, 62, 167, 1, 0.611072
348, 2, wb, filler, NA, 999, 999, 8, 2, 184, 86, 99, 129, 141, 126, 2, 5.92823
348, 2, wb, filler, NA, 999, 999, 8, 2, 184, 86, 99, 129, 141, 126, 3, 0.43234
348, 2, wb, catch, NA, 999, 999, 8, 3, 160, 155, 74, 121, 97, 158, 2, 0.772798
348, 2, wb, catch, NA, 999, 999, 8, 3, 160, 155, 74, 121, 97, 158, 1, 0.356516
348, 2, wb, filler, NA, 999, 999, 8, 4, 127, 159, 179, 79, 175, 157, 2, 1.29171
348, 2, wb, filler, NA, 999, 999, 8, 4, 127, 159, 179, 79, 175, 157, 3, 0.502558
348, 2, wb, attraction, a-b-db, 2, 3, 8, 5, 120, 195, 195, 120, 119, 193, 2, 13.8563
348, 2, wb, attraction, a-b-db, 2, 3, 8, 5, 120, 195, 195, 120, 119, 193, 1, 4.3933
348, 2, wb, attraction, a-b-da, 5, 1, 8, 6, 132, 58, 135, 60, 60, 135, 1, 3.05393
348, 2, wb, attraction, a-b-da, 5, 1, 8, 6, 132, 58, 135, 60, 60, 135, 3, 0.370209
348, 2, wb, attraction, a-b-db, 14, 3, 8, 7, 111, 181, 120, 195, 195, 120, 1, 1.36149
348, 2, wb, attraction, a-b-db, 14, 3, 8, 7, 111, 181, 120, 195, 195, 120, 2, 1.2496
348, 2, wb, filler, NA, 999, 999, 8, 8, 134, 119, 129, 162, 96, 103, 3, 0.757149
348, 2, wb, filler, NA, 999, 999, 8, 8, 134, 119, 129, 162, 96, 103, 2, 1.50965
348, 2, wb, attraction, a-b-da, 2, 1, 8, 9, 60, 135, 134, 59, 135, 60, 2, 1.00641
348, 2, wb, attraction, a-b-da, 2, 1, 8, 9, 60, 135, 134, 59, 135, 60, 1, 0.660693
348, 2, wb, attraction, a-b-db, 5, 1, 8, 10, 135, 60, 58, 132, 60, 135, 1, 2.44778
348, 2, wb, attraction, a-b-db, 5, 1, 8, 10, 135, 60, 58, 132, 60, 135, 2, 0.596274
348, 2, wb, attraction, a-b-da, 2, 2, 8, 11, 163, 89, 165, 90, 90, 165, 2, 1.15411
348, 2, wb, attraction, a-b-da, 2, 2, 8, 11, 163, 89, 165, 90, 90, 165, 3, 0.610347
348, 2, wb, attraction, a-b-da, 14, 2, 8, 12, 165, 90, 153, 83, 90, 165, 2, 0.671509
348, 2, wb, attraction, a-b-da, 14, 2, 8, 12, 165, 90, 153, 83, 90, 165, 1, 0.563194
348, 2, wb, filler, NA, 999, 999, 8, 13, 82, 142, 80, 59, 114, 154, 2, 0.546277
348, 2, wb, filler, NA, 999, 999, 8, 13, 82, 142, 80, 59, 114, 154, 3, 0.539417
348, 2, wb, filler, NA, 999, 999, 8, 14, 153, 138, 124, 128, 135, 180, 2, 2.13196
348, 2, wb, filler, NA, 999, 999, 8, 14, 153, 138, 124, 128, 135, 180, 3, 1.66918
348, 2, wb, attraction, a-b-da, 5, 3, 8, 15, 120, 195, 190, 117, 195, 120, 2, 0.97592
348, 2, wb, attraction, a-b-da, 5, 3, 8, 15, 120, 195, 190, 117, 195, 120, 1, 0.895567
348, 2, wb, attraction, a-b-da, 9, 2, 8, 16, 157, 86, 165, 90, 90, 165, 1, 0.785236
348, 2, wb, attraction, a-b-da, 9, 2, 8, 16, 157, 86, 165, 90, 90, 165, 2, 0.505091
348, 2, wb, filler, NA, 999, 999, 8, 17, 161, 136, 168, 91, 157, 143, 2, 1.0747
348, 2, wb, filler, NA, 999, 999, 8, 17, 161, 136, 168, 91, 157, 143, 3, 1.37441
348, 2, wb, attraction, a-b-da, 9, 1, 8, 18, 135, 60, 129, 57, 60, 135, 2, 0.71653
348, 2, wb, attraction, a-b-da, 9, 1, 8, 18, 135, 60, 129, 57, 60, 135, 3, 0.806951
348, 2, wb, filler, NA, 999, 999, 8, 19, 102, 103, 70, 193, 185, 131, 1, 2.55603
348, 2, wb, filler, NA, 999, 999, 8, 19, 102, 103, 70, 193, 185, 131, 3, 2.3719
348, 2, wb, attraction, a-b-da, 9, 3, 8, 20, 195, 120, 186, 114, 120, 195, 2, 0.658449
348, 2, wb, attraction, a-b-da, 9, 3, 8, 20, 195, 120, 186, 114, 120, 195, 3, 0.734842
348, 2, wb, attraction, a-b-da, 14, 1, 8, 21, 60, 135, 125, 56, 135, 60, 2, 1.34329
348, 2, wb, attraction, a-b-da, 14, 1, 8, 21, 60, 135, 125, 56, 135, 60, 1, 0.60008
348, 2, wb, attraction, a-b-db, 2, 1, 8, 22, 59, 134, 135, 60, 60, 135, 2, 0.677905
348, 2, wb, attraction, a-b-db, 2, 1, 8, 22, 59, 134, 135, 60, 60, 135, 3, 0.433555
348, 2, wb, attraction, a-b-db, 14, 1, 8, 23, 60, 135, 56, 125, 135, 60, 2, 0.518105
348, 2, wb, attraction, a-b-db, 14, 1, 8, 23, 60, 135, 56, 125, 135, 60, 1, 1.37661
348, 2, wb, attraction, a-b-db, 2, 2, 8, 24, 90, 165, 89, 163, 165, 90, 2, 0.798792
348, 2, wb, attraction, a-b-db, 2, 2, 8, 24, 90, 165, 89, 163, 165, 90, 3, 1.05386
348, 2, wb, attraction, a-b-da, 5, 2, 8, 25, 90, 165, 161, 88, 165, 90, 2, 1.41744
348, 2, wb, attraction, a-b-da, 5, 2, 8, 25, 90, 165, 161, 88, 165, 90, 1, 0.34361
348, 2, wb, attraction, a-b-da, 14, 3, 8, 26, 181, 111, 195, 120, 120, 195, 1, 1.91152
348, 2, wb, attraction, a-b-da, 14, 3, 8, 26, 181, 111, 195, 120, 120, 195, 3, 0.369624
348, 2, wb, filler, NA, 999, 999, 8, 27, 153, 145, 60, 120, 90, 72, 2, 0.968621
348, 2, wb, filler, NA, 999, 999, 8, 27, 153, 145, 60, 120, 90, 72, 1, 0.529092
348, 2, wb, attraction, a-b-db, 9, 1, 8, 28, 57, 129, 60, 135, 135, 60, 2, 1.14551
348, 2, wb, attraction, a-b-db, 9, 1, 8, 28, 57, 129, 60, 135, 135, 60, 3, 0.52238
348, 2, wb, catch, NA, 999, 999, 8, 29, 129, 186, 146, 109, 102, 93, 3, 1.13948
348, 2, wb, catch, NA, 999, 999, 8, 29, 129, 186, 146, 109, 102, 93, 1, 0.388404
348, 2, wb, attraction, a-b-da, 2, 3, 8, 30, 120, 195, 195, 120, 193, 119, 1, 1.20292
348, 2, wb, attraction, a-b-da, 2, 3, 8, 30, 120, 195, 195, 120, 193, 119, 2, 1.57784
348, 2, wb, catch, NA, 999, 999, 8, 31, 117, 78, 165, 150, 133, 122, 1, 0.951956
348, 2, wb, catch, NA, 999, 999, 8, 31, 117, 78, 165, 150, 133, 122, 2, 0.536915
348, 2, wb, filler, NA, 999, 999, 8, 32, 143, 63, 100, 65, 145, 68, 2, 0.801331
348, 2, wb, filler, NA, 999, 999, 8, 32, 143, 63, 100, 65, 145, 68, 3, 1.56053
348, 2, wb, attraction, a-b-db, 14, 2, 8, 33, 83, 153, 165, 90, 90, 165, 1, 1.31924
348, 2, wb, attraction, a-b-db, 14, 2, 8, 33, 83, 153, 165, 90, 90, 165, 3, 0.833605
348, 2, wb, attraction, a-b-db, 5, 3, 8, 34, 195, 120, 120, 195, 117, 190, 2, 5.55785
348, 2, wb, attraction, a-b-db, 5, 3, 8, 34, 195, 120, 120, 195, 117, 190, 3, 3.66077
348, 2, wb, attraction, a-b-db, 5, 2, 8, 35, 88, 161, 165, 90, 90, 165, 2, 3.22302
348, 2, wb, attraction, a-b-db, 5, 2, 8, 35, 88, 161, 165, 90, 90, 165, 3, 0.467762
348, 2, wb, attraction, a-b-db, 9, 2, 8, 36, 90, 165, 165, 90, 86, 157, 3, 2.25497
348, 2, wb, attraction, a-b-db, 9, 2, 8, 36, 90, 165, 165, 90, 86, 157, 2, 0.642892
348, 2, wb, attraction, a-b-db, 9, 3, 8, 37, 195, 120, 114, 186, 120, 195, 2, 2.43873
348, 2, wb, attraction, a-b-db, 9, 3, 8, 37, 195, 120, 114, 186, 120, 195, 1, 0.363164
