sub_n, computer_n, bw_cond, effect, set, distance, diag, block_n, trial_n, h1, w1, h2, w2, h3, w3, choice, rt 
38, 2, wb, practice, NA, 999, 999, 0, 1, 155, 145, 156, 128, 180, 91, 3, 9.9315
38, 2, wb, practice, NA, 999, 999, 0, 1, 155, 145, 156, 128, 180, 91, 1, 3.9224
38, 2, wb, practice, NA, 999, 999, 0, 2, 158, 107, 164, 57, 94, 125, 2, 5.20106
38, 2, wb, practice, NA, 999, 999, 0, 2, 158, 107, 164, 57, 94, 125, 1, 1.91995
38, 2, wb, practice, NA, 999, 999, 0, 3, 109, 66, 65, 144, 80, 191, 1, 3.52512
38, 2, wb, practice, NA, 999, 999, 0, 3, 109, 66, 65, 144, 80, 191, 3, 1.87555
38, 2, wb, filler, NA, 999, 999, 1, 1, 150, 176, 99, 91, 145, 101, 2, 1.38898
38, 2, wb, filler, NA, 999, 999, 1, 1, 150, 176, 99, 91, 145, 101, 1, 1.38783
38, 2, wb, attraction, a-b-da, 5, 1, 1, 2, 135, 60, 60, 135, 132, 58, 2, 5.14617
38, 2, wb, attraction, a-b-da, 5, 1, 1, 2, 135, 60, 60, 135, 132, 58, 1, 2.4497
38, 2, wb, attraction, a-b-db, 14, 2, 1, 3, 90, 165, 165, 90, 83, 153, 3, 4.6769
38, 2, wb, attraction, a-b-db, 14, 2, 1, 3, 90, 165, 165, 90, 83, 153, 1, 1.16737
38, 2, wb, attraction, a-b-db, 14, 3, 1, 4, 111, 181, 120, 195, 195, 120, 1, 6.42246
38, 2, wb, attraction, a-b-db, 14, 3, 1, 4, 111, 181, 120, 195, 195, 120, 2, 1.18701
38, 2, wb, attraction, a-b-da, 2, 2, 1, 5, 90, 165, 165, 90, 163, 89, 2, 2.77718
38, 2, wb, attraction, a-b-da, 2, 2, 1, 5, 90, 165, 165, 90, 163, 89, 1, 1.99243
38, 2, wb, filler, NA, 999, 999, 1, 6, 77, 182, 108, 57, 179, 165, 2, 1.87773
38, 2, wb, filler, NA, 999, 999, 1, 6, 77, 182, 108, 57, 179, 165, 3, 1.08913
38, 2, wb, attraction, a-b-da, 9, 3, 1, 7, 120, 195, 186, 114, 195, 120, 2, 1.97128
38, 2, wb, attraction, a-b-da, 9, 3, 1, 7, 120, 195, 186, 114, 195, 120, 1, 1.16262
38, 2, wb, attraction, a-b-da, 2, 1, 1, 8, 134, 59, 60, 135, 135, 60, 1, 7.00164
38, 2, wb, attraction, a-b-da, 2, 1, 1, 8, 134, 59, 60, 135, 135, 60, 3, 0.726616
38, 2, wb, catch, NA, 999, 999, 1, 9, 177, 138, 97, 98, 153, 102, 2, 1.47111
38, 2, wb, catch, NA, 999, 999, 1, 9, 177, 138, 97, 98, 153, 102, 1, 2.82658
38, 2, wb, attraction, a-b-db, 9, 2, 1, 10, 86, 157, 165, 90, 90, 165, 1, 3.09431
38, 2, wb, attraction, a-b-db, 9, 2, 1, 10, 86, 157, 165, 90, 90, 165, 3, 0.552618
38, 2, wb, attraction, a-b-da, 2, 3, 1, 11, 195, 120, 120, 195, 193, 119, 3, 4.49639
38, 2, wb, attraction, a-b-da, 2, 3, 1, 11, 195, 120, 120, 195, 193, 119, 2, 4.04247
38, 2, wb, attraction, a-b-da, 5, 3, 1, 12, 195, 120, 190, 117, 120, 195, 2, 2.48509
38, 2, wb, attraction, a-b-da, 5, 3, 1, 12, 195, 120, 190, 117, 120, 195, 1, 3.64822
38, 2, wb, attraction, a-b-da, 14, 2, 1, 13, 165, 90, 153, 83, 90, 165, 2, 2.25903
38, 2, wb, attraction, a-b-da, 14, 2, 1, 13, 165, 90, 153, 83, 90, 165, 1, 2.94296
38, 2, wb, attraction, a-b-da, 9, 1, 1, 14, 135, 60, 60, 135, 129, 57, 2, 1.68605
38, 2, wb, attraction, a-b-da, 9, 1, 1, 14, 135, 60, 60, 135, 129, 57, 1, 0.865344
38, 2, wb, filler, NA, 999, 999, 1, 15, 114, 179, 68, 141, 74, 70, 3, 1.05241
38, 2, wb, filler, NA, 999, 999, 1, 15, 114, 179, 68, 141, 74, 70, 1, 0.665418
38, 2, wb, attraction, a-b-db, 9, 3, 1, 16, 114, 186, 195, 120, 120, 195, 1, 2.41243
38, 2, wb, attraction, a-b-db, 9, 3, 1, 16, 114, 186, 195, 120, 120, 195, 3, 0.370367
38, 2, wb, attraction, a-b-da, 5, 2, 1, 17, 161, 88, 90, 165, 165, 90, 2, 3.44153
38, 2, wb, attraction, a-b-da, 5, 2, 1, 17, 161, 88, 90, 165, 165, 90, 3, 1.91764
38, 2, wb, attraction, a-b-db, 2, 1, 1, 18, 60, 135, 59, 134, 135, 60, 3, 4.61433
38, 2, wb, attraction, a-b-db, 2, 1, 1, 18, 60, 135, 59, 134, 135, 60, 1, 0.955502
38, 2, wb, filler, NA, 999, 999, 1, 19, 178, 121, 110, 151, 155, 189, 2, 2.71522
38, 2, wb, filler, NA, 999, 999, 1, 19, 178, 121, 110, 151, 155, 189, 3, 0.94906
38, 2, wb, filler, NA, 999, 999, 1, 20, 140, 107, 188, 78, 81, 177, 3, 4.98885
38, 2, wb, filler, NA, 999, 999, 1, 20, 140, 107, 188, 78, 81, 177, 2, 2.93843
38, 2, wb, attraction, a-b-da, 9, 2, 1, 21, 157, 86, 90, 165, 165, 90, 1, 4.76209
38, 2, wb, attraction, a-b-da, 9, 2, 1, 21, 157, 86, 90, 165, 165, 90, 2, 1.40933
38, 2, wb, filler, NA, 999, 999, 1, 22, 68, 146, 178, 85, 89, 78, 3, 1.39809
38, 2, wb, filler, NA, 999, 999, 1, 22, 68, 146, 178, 85, 89, 78, 2, 1.20505
38, 2, wb, filler, NA, 999, 999, 1, 23, 118, 195, 105, 63, 86, 161, 2, 0.978503
38, 2, wb, filler, NA, 999, 999, 1, 23, 118, 195, 105, 63, 86, 161, 1, 0.850183
38, 2, wb, attraction, a-b-db, 2, 3, 1, 24, 119, 193, 120, 195, 195, 120, 2, 1.67791
38, 2, wb, attraction, a-b-db, 2, 3, 1, 24, 119, 193, 120, 195, 195, 120, 3, 2.81741
38, 2, wb, attraction, a-b-db, 9, 1, 1, 25, 57, 129, 135, 60, 60, 135, 2, 2.42172
38, 2, wb, attraction, a-b-db, 9, 1, 1, 25, 57, 129, 135, 60, 60, 135, 3, 0.59499
38, 2, wb, attraction, a-b-db, 5, 3, 1, 26, 117, 190, 195, 120, 120, 195, 2, 2.56074
38, 2, wb, attraction, a-b-db, 5, 3, 1, 26, 117, 190, 195, 120, 120, 195, 3, 0.656493
38, 2, wb, catch, NA, 999, 999, 1, 27, 121, 134, 168, 147, 100, 95, 3, 0.787543
38, 2, wb, catch, NA, 999, 999, 1, 27, 121, 134, 168, 147, 100, 95, 2, 0.570624
38, 2, wb, attraction, a-b-db, 14, 1, 1, 28, 60, 135, 56, 125, 135, 60, 2, 2.3698
38, 2, wb, attraction, a-b-db, 14, 1, 1, 28, 60, 135, 56, 125, 135, 60, 1, 1.84961
38, 2, wb, attraction, a-b-db, 2, 2, 1, 29, 89, 163, 165, 90, 90, 165, 2, 1.42898
38, 2, wb, attraction, a-b-db, 2, 2, 1, 29, 89, 163, 165, 90, 90, 165, 1, 0.330508
38, 2, wb, filler, NA, 999, 999, 1, 30, 167, 112, 152, 80, 170, 100, 2, 1.53101
38, 2, wb, filler, NA, 999, 999, 1, 30, 167, 112, 152, 80, 170, 100, 1, 0.468571
38, 2, wb, filler, NA, 999, 999, 1, 31, 184, 82, 169, 146, 89, 71, 3, 0.967666
38, 2, wb, filler, NA, 999, 999, 1, 31, 184, 82, 169, 146, 89, 71, 2, 0.583955
38, 2, wb, catch, NA, 999, 999, 1, 32, 79, 116, 130, 185, 161, 94, 1, 1.20645
38, 2, wb, catch, NA, 999, 999, 1, 32, 79, 116, 130, 185, 161, 94, 2, 0.404705
38, 2, wb, attraction, a-b-db, 5, 1, 1, 33, 60, 135, 135, 60, 58, 132, 2, 3.39453
38, 2, wb, attraction, a-b-db, 5, 1, 1, 33, 60, 135, 135, 60, 58, 132, 1, 0.520742
38, 2, wb, attraction, a-b-da, 14, 3, 1, 34, 195, 120, 120, 195, 181, 111, 3, 2.05004
38, 2, wb, attraction, a-b-da, 14, 3, 1, 34, 195, 120, 120, 195, 181, 111, 1, 0.278527
38, 2, wb, attraction, a-b-da, 14, 1, 1, 35, 60, 135, 125, 56, 135, 60, 2, 1.04906
38, 2, wb, attraction, a-b-da, 14, 1, 1, 35, 60, 135, 125, 56, 135, 60, 1, 1.12606
38, 2, wb, attraction, a-b-db, 5, 2, 1, 36, 165, 90, 90, 165, 88, 161, 2, 3.70243
38, 2, wb, attraction, a-b-db, 5, 2, 1, 36, 165, 90, 90, 165, 88, 161, 1, 0.376456
38, 2, wb, filler, NA, 999, 999, 1, 37, 132, 167, 142, 57, 164, 149, 2, 1.14295
38, 2, wb, filler, NA, 999, 999, 1, 37, 132, 167, 142, 57, 164, 149, 3, 0.391853
38, 2, wb, attraction, a-b-db, 2, 1, 2, 1, 60, 135, 135, 60, 59, 134, 2, 1.8617
38, 2, wb, attraction, a-b-db, 2, 1, 2, 1, 60, 135, 135, 60, 59, 134, 3, 0.609762
38, 2, wb, attraction, a-b-da, 9, 3, 2, 2, 186, 114, 195, 120, 120, 195, 2, 2.36688
38, 2, wb, attraction, a-b-da, 9, 3, 2, 2, 186, 114, 195, 120, 120, 195, 3, 0.822707
38, 2, wb, attraction, a-b-db, 9, 2, 2, 3, 90, 165, 165, 90, 86, 157, 3, 4.21112
38, 2, wb, attraction, a-b-db, 9, 2, 2, 3, 90, 165, 165, 90, 86, 157, 1, 2.82458
38, 2, wb, catch, NA, 999, 999, 2, 4, 134, 61, 122, 193, 90, 165, 1, 1.06019
38, 2, wb, catch, NA, 999, 999, 2, 4, 134, 61, 122, 193, 90, 165, 2, 0.616498
38, 2, wb, attraction, a-b-db, 14, 3, 2, 5, 195, 120, 111, 181, 120, 195, 2, 2.44564
38, 2, wb, attraction, a-b-db, 14, 3, 2, 5, 195, 120, 111, 181, 120, 195, 3, 2.73007
38, 2, wb, filler, NA, 999, 999, 2, 6, 129, 133, 62, 145, 84, 157, 2, 0.833847
38, 2, wb, filler, NA, 999, 999, 2, 6, 129, 133, 62, 145, 84, 157, 1, 1.63964
38, 2, wb, attraction, a-b-db, 2, 2, 2, 7, 165, 90, 89, 163, 90, 165, 2, 2.05096
38, 2, wb, attraction, a-b-db, 2, 2, 2, 7, 165, 90, 89, 163, 90, 165, 3, 0.983716
38, 2, wb, filler, NA, 999, 999, 2, 8, 157, 93, 79, 120, 113, 126, 2, 0.877884
38, 2, wb, filler, NA, 999, 999, 2, 8, 157, 93, 79, 120, 113, 126, 3, 0.867153
38, 2, wb, attraction, a-b-db, 5, 3, 2, 9, 117, 190, 120, 195, 195, 120, 1, 4.17257
38, 2, wb, attraction, a-b-db, 5, 3, 2, 9, 117, 190, 120, 195, 195, 120, 2, 1.28326
38, 2, wb, filler, NA, 999, 999, 2, 10, 61, 120, 97, 146, 177, 184, 1, 0.733448
38, 2, wb, filler, NA, 999, 999, 2, 10, 61, 120, 97, 146, 177, 184, 3, 0.607227
38, 2, wb, attraction, a-b-db, 14, 1, 2, 11, 56, 125, 135, 60, 60, 135, 2, 6.03641
38, 2, wb, attraction, a-b-db, 14, 1, 2, 11, 56, 125, 135, 60, 60, 135, 3, 0.648477
38, 2, wb, attraction, a-b-da, 5, 2, 2, 12, 165, 90, 90, 165, 161, 88, 3, 8.29221
38, 2, wb, attraction, a-b-da, 5, 2, 2, 12, 165, 90, 90, 165, 161, 88, 2, 1.19688
38, 2, wb, attraction, a-b-db, 2, 3, 2, 13, 195, 120, 120, 195, 119, 193, 1, 3.76245
38, 2, wb, attraction, a-b-db, 2, 3, 2, 13, 195, 120, 120, 195, 119, 193, 3, 1.22601
38, 2, wb, filler, NA, 999, 999, 2, 14, 170, 101, 109, 164, 106, 181, 1, 2.71017
38, 2, wb, filler, NA, 999, 999, 2, 14, 170, 101, 109, 164, 106, 181, 3, 1.03996
38, 2, wb, filler, NA, 999, 999, 2, 15, 194, 155, 67, 152, 165, 195, 2, 1.17961
38, 2, wb, filler, NA, 999, 999, 2, 15, 194, 155, 67, 152, 165, 195, 1, 0.507133
38, 2, wb, attraction, a-b-db, 5, 2, 2, 16, 165, 90, 88, 161, 90, 165, 2, 1.46843
38, 2, wb, attraction, a-b-db, 5, 2, 2, 16, 165, 90, 88, 161, 90, 165, 3, 2.4965
38, 2, wb, attraction, a-b-da, 2, 1, 2, 17, 60, 135, 135, 60, 134, 59, 2, 2.24161
38, 2, wb, attraction, a-b-da, 2, 1, 2, 17, 60, 135, 135, 60, 134, 59, 1, 0.358312
38, 2, wb, attraction, a-b-db, 9, 3, 2, 18, 114, 186, 120, 195, 195, 120, 2, 2.5333
38, 2, wb, attraction, a-b-db, 9, 3, 2, 18, 114, 186, 120, 195, 195, 120, 3, 0.646541
38, 2, wb, attraction, a-b-da, 14, 1, 2, 19, 125, 56, 135, 60, 60, 135, 1, 2.49829
38, 2, wb, attraction, a-b-da, 14, 1, 2, 19, 125, 56, 135, 60, 60, 135, 3, 0.396783
38, 2, wb, filler, NA, 999, 999, 2, 20, 171, 80, 185, 138, 70, 119, 3, 1.69065
38, 2, wb, filler, NA, 999, 999, 2, 20, 171, 80, 185, 138, 70, 119, 2, 0.341378
38, 2, wb, attraction, a-b-da, 9, 1, 2, 21, 129, 57, 60, 135, 135, 60, 3, 3.41328
38, 2, wb, attraction, a-b-da, 9, 1, 2, 21, 129, 57, 60, 135, 135, 60, 2, 0.826832
38, 2, wb, attraction, a-b-da, 5, 3, 2, 22, 120, 195, 190, 117, 195, 120, 1, 2.36724
38, 2, wb, attraction, a-b-da, 5, 3, 2, 22, 120, 195, 190, 117, 195, 120, 2, 1.17511
38, 2, wb, filler, NA, 999, 999, 2, 23, 73, 79, 82, 146, 191, 143, 1, 1.55723
38, 2, wb, filler, NA, 999, 999, 2, 23, 73, 79, 82, 146, 191, 143, 3, 0.309448
38, 2, wb, attraction, a-b-da, 14, 3, 2, 24, 195, 120, 181, 111, 120, 195, 2, 1.61467
38, 2, wb, attraction, a-b-da, 14, 3, 2, 24, 195, 120, 181, 111, 120, 195, 1, 0.564725
38, 2, wb, filler, NA, 999, 999, 2, 25, 98, 58, 89, 186, 170, 169, 1, 0.97989
38, 2, wb, filler, NA, 999, 999, 2, 25, 98, 58, 89, 186, 170, 169, 3, 0.459577
38, 2, wb, attraction, a-b-da, 2, 2, 2, 26, 165, 90, 90, 165, 163, 89, 3, 1.84674
38, 2, wb, attraction, a-b-da, 2, 2, 2, 26, 165, 90, 90, 165, 163, 89, 2, 0.635472
38, 2, wb, attraction, a-b-db, 14, 2, 2, 27, 83, 153, 90, 165, 165, 90, 1, 1.55179
38, 2, wb, attraction, a-b-db, 14, 2, 2, 27, 83, 153, 90, 165, 165, 90, 2, 0.424586
38, 2, wb, catch, NA, 999, 999, 2, 28, 93, 102, 182, 133, 158, 97, 1, 0.757141
38, 2, wb, catch, NA, 999, 999, 2, 28, 93, 102, 182, 133, 158, 97, 2, 0.405593
38, 2, wb, attraction, a-b-da, 9, 2, 2, 29, 90, 165, 157, 86, 165, 90, 2, 1.7073
38, 2, wb, attraction, a-b-da, 9, 2, 2, 29, 90, 165, 157, 86, 165, 90, 1, 0.293469
38, 2, wb, filler, NA, 999, 999, 2, 30, 164, 139, 160, 100, 174, 114, 2, 2.15132
38, 2, wb, filler, NA, 999, 999, 2, 30, 164, 139, 160, 100, 174, 114, 1, 0.311915
38, 2, wb, catch, NA, 999, 999, 2, 31, 150, 165, 150, 105, 69, 126, 3, 1.11315
38, 2, wb, catch, NA, 999, 999, 2, 31, 150, 165, 150, 105, 69, 126, 1, 0.347312
38, 2, wb, attraction, a-b-da, 5, 1, 2, 32, 60, 135, 135, 60, 132, 58, 3, 2.31525
38, 2, wb, attraction, a-b-da, 5, 1, 2, 32, 60, 135, 135, 60, 132, 58, 1, 0.501099
38, 2, wb, attraction, a-b-db, 5, 1, 2, 33, 135, 60, 58, 132, 60, 135, 1, 1.53492
38, 2, wb, attraction, a-b-db, 5, 1, 2, 33, 135, 60, 58, 132, 60, 135, 3, 0.39241
38, 2, wb, attraction, a-b-da, 2, 3, 2, 34, 195, 120, 193, 119, 120, 195, 2, 2.32628
38, 2, wb, attraction, a-b-da, 2, 3, 2, 34, 195, 120, 193, 119, 120, 195, 3, 0.271463
38, 2, wb, attraction, a-b-db, 9, 1, 2, 35, 135, 60, 57, 129, 60, 135, 2, 2.81071
38, 2, wb, attraction, a-b-db, 9, 1, 2, 35, 135, 60, 57, 129, 60, 135, 1, 0.624463
38, 2, wb, attraction, a-b-da, 14, 2, 2, 36, 165, 90, 153, 83, 90, 165, 2, 2.87691
38, 2, wb, attraction, a-b-da, 14, 2, 2, 36, 165, 90, 153, 83, 90, 165, 3, 0.271921
38, 2, wb, filler, NA, 999, 999, 2, 37, 159, 74, 57, 166, 129, 108, 3, 3.26711
38, 2, wb, filler, NA, 999, 999, 2, 37, 159, 74, 57, 166, 129, 108, 1, 1.44672
38, 2, wb, attraction, a-b-da, 14, 2, 3, 1, 165, 90, 90, 165, 153, 83, 3, 2.79424
38, 2, wb, attraction, a-b-da, 14, 2, 3, 1, 165, 90, 90, 165, 153, 83, 2, 0.592622
38, 2, wb, filler, NA, 999, 999, 3, 2, 88, 80, 128, 170, 86, 165, 1, 1.03853
38, 2, wb, filler, NA, 999, 999, 3, 2, 88, 80, 128, 170, 86, 165, 2, 0.38735
38, 2, wb, attraction, a-b-db, 5, 1, 3, 3, 60, 135, 58, 132, 135, 60, 2, 4.04189
38, 2, wb, attraction, a-b-db, 5, 1, 3, 3, 60, 135, 58, 132, 135, 60, 3, 2.01396
38, 2, wb, attraction, a-b-db, 5, 2, 3, 4, 165, 90, 90, 165, 88, 161, 3, 1.57062
38, 2, wb, attraction, a-b-db, 5, 2, 3, 4, 165, 90, 90, 165, 88, 161, 2, 2.37812
38, 2, wb, attraction, a-b-db, 14, 2, 3, 5, 165, 90, 83, 153, 90, 165, 3, 1.78386
38, 2, wb, attraction, a-b-db, 14, 2, 3, 5, 165, 90, 83, 153, 90, 165, 2, 0.215278
38, 2, wb, attraction, a-b-db, 14, 3, 3, 6, 195, 120, 120, 195, 111, 181, 3, 2.09259
38, 2, wb, attraction, a-b-db, 14, 3, 3, 6, 195, 120, 120, 195, 111, 181, 2, 2.48715
38, 2, wb, catch, NA, 999, 999, 3, 7, 195, 120, 60, 135, 119, 136, 2, 1.06499
38, 2, wb, catch, NA, 999, 999, 3, 7, 195, 120, 60, 135, 119, 136, 1, 1.02134
38, 2, wb, attraction, a-b-db, 2, 2, 3, 8, 165, 90, 89, 163, 90, 165, 2, 6.52227
38, 2, wb, attraction, a-b-db, 2, 2, 3, 8, 165, 90, 89, 163, 90, 165, 3, 0.786211
38, 2, wb, attraction, a-b-db, 2, 1, 3, 9, 60, 135, 135, 60, 59, 134, 2, 2.5846
38, 2, wb, attraction, a-b-db, 2, 1, 3, 9, 60, 135, 135, 60, 59, 134, 3, 0.703848
38, 2, wb, attraction, a-b-db, 14, 1, 3, 10, 135, 60, 60, 135, 56, 125, 3, 6.65751
38, 2, wb, attraction, a-b-db, 14, 1, 3, 10, 135, 60, 60, 135, 56, 125, 1, 0.963996
38, 2, wb, attraction, a-b-db, 5, 3, 3, 11, 117, 190, 120, 195, 195, 120, 2, 7.027
38, 2, wb, attraction, a-b-db, 5, 3, 3, 11, 117, 190, 120, 195, 195, 120, 3, 1.14281
38, 2, wb, attraction, a-b-da, 5, 1, 3, 12, 135, 60, 60, 135, 132, 58, 3, 1.81438
38, 2, wb, attraction, a-b-da, 5, 1, 3, 12, 135, 60, 60, 135, 132, 58, 1, 0.396472
38, 2, wb, filler, NA, 999, 999, 3, 13, 66, 141, 181, 144, 167, 124, 1, 1.76228
38, 2, wb, filler, NA, 999, 999, 3, 13, 66, 141, 181, 144, 167, 124, 2, 0.394391
38, 2, wb, attraction, a-b-da, 5, 2, 3, 14, 165, 90, 90, 165, 161, 88, 3, 2.10414
38, 2, wb, attraction, a-b-da, 5, 2, 3, 14, 165, 90, 90, 165, 161, 88, 2, 0.586183
38, 2, wb, attraction, a-b-da, 5, 3, 3, 15, 190, 117, 195, 120, 120, 195, 3, 2.92058
38, 2, wb, attraction, a-b-da, 5, 3, 3, 15, 190, 117, 195, 120, 120, 195, 2, 4.2736
38, 2, wb, filler, NA, 999, 999, 3, 16, 91, 86, 99, 83, 70, 80, 3, 1.3316
38, 2, wb, filler, NA, 999, 999, 3, 16, 91, 86, 99, 83, 70, 80, 1, 1.8371
38, 2, wb, attraction, a-b-db, 2, 3, 3, 17, 195, 120, 120, 195, 119, 193, 1, 5.78525
38, 2, wb, attraction, a-b-db, 2, 3, 3, 17, 195, 120, 120, 195, 119, 193, 2, 1.63133
38, 2, wb, attraction, a-b-db, 9, 2, 3, 18, 90, 165, 165, 90, 86, 157, 2, 2.27538
38, 2, wb, attraction, a-b-db, 9, 2, 3, 18, 90, 165, 165, 90, 86, 157, 3, 0.998704
38, 2, wb, filler, NA, 999, 999, 3, 19, 189, 129, 164, 130, 156, 185, 2, 5.5483
38, 2, wb, filler, NA, 999, 999, 3, 19, 189, 129, 164, 130, 156, 185, 3, 0.347891
38, 2, wb, attraction, a-b-da, 2, 1, 3, 20, 135, 60, 60, 135, 134, 59, 2, 8.46779
38, 2, wb, attraction, a-b-da, 2, 1, 3, 20, 135, 60, 60, 135, 134, 59, 1, 1.68569
38, 2, wb, filler, NA, 999, 999, 3, 21, 176, 142, 186, 188, 105, 58, 3, 1.04786
38, 2, wb, filler, NA, 999, 999, 3, 21, 176, 142, 186, 188, 105, 58, 2, 0.356856
38, 2, wb, filler, NA, 999, 999, 3, 22, 155, 96, 189, 72, 158, 73, 3, 2.85196
38, 2, wb, filler, NA, 999, 999, 3, 22, 155, 96, 189, 72, 158, 73, 1, 0.480406
38, 2, wb, attraction, a-b-da, 9, 1, 3, 23, 60, 135, 135, 60, 129, 57, 2, 6.56278
38, 2, wb, attraction, a-b-da, 9, 1, 3, 23, 60, 135, 135, 60, 129, 57, 1, 0.769373
38, 2, wb, catch, NA, 999, 999, 3, 24, 121, 194, 117, 78, 147, 108, 2, 1.04037
38, 2, wb, catch, NA, 999, 999, 3, 24, 121, 194, 117, 78, 147, 108, 1, 0.277411
38, 2, wb, attraction, a-b-da, 2, 2, 3, 25, 165, 90, 90, 165, 163, 89, 2, 1.73588
38, 2, wb, attraction, a-b-da, 2, 2, 3, 25, 165, 90, 90, 165, 163, 89, 1, 0.793498
38, 2, wb, attraction, a-b-db, 9, 3, 3, 26, 120, 195, 195, 120, 114, 186, 2, 1.51101
38, 2, wb, attraction, a-b-db, 9, 3, 3, 26, 120, 195, 195, 120, 114, 186, 3, 0.249185
38, 2, wb, attraction, a-b-da, 14, 3, 3, 27, 181, 111, 195, 120, 120, 195, 1, 3.63714
38, 2, wb, attraction, a-b-da, 14, 3, 3, 27, 181, 111, 195, 120, 120, 195, 3, 0.377979
38, 2, wb, catch, NA, 999, 999, 3, 28, 129, 186, 77, 118, 106, 149, 2, 0.752435
38, 2, wb, catch, NA, 999, 999, 3, 28, 129, 186, 77, 118, 106, 149, 1, 0.281518
38, 2, wb, attraction, a-b-da, 2, 3, 3, 29, 120, 195, 193, 119, 195, 120, 1, 2.60404
38, 2, wb, attraction, a-b-da, 2, 3, 3, 29, 120, 195, 193, 119, 195, 120, 3, 0.242482
38, 2, wb, attraction, a-b-da, 14, 1, 3, 30, 125, 56, 60, 135, 135, 60, 2, 1.88638
38, 2, wb, attraction, a-b-da, 14, 1, 3, 30, 125, 56, 60, 135, 135, 60, 1, 0.849046
38, 2, wb, filler, NA, 999, 999, 3, 31, 149, 172, 70, 69, 132, 83, 2, 0.644827
38, 2, wb, filler, NA, 999, 999, 3, 31, 149, 172, 70, 69, 132, 83, 1, 0.265947
38, 2, wb, filler, NA, 999, 999, 3, 32, 141, 172, 114, 93, 141, 79, 2, 1.189
38, 2, wb, filler, NA, 999, 999, 3, 32, 141, 172, 114, 93, 141, 79, 1, 0.276001
38, 2, wb, filler, NA, 999, 999, 3, 33, 186, 118, 67, 189, 177, 117, 2, 5.13456
38, 2, wb, filler, NA, 999, 999, 3, 33, 186, 118, 67, 189, 177, 117, 1, 0.270843
38, 2, wb, attraction, a-b-da, 9, 2, 3, 34, 90, 165, 157, 86, 165, 90, 2, 1.98605
38, 2, wb, attraction, a-b-da, 9, 2, 3, 34, 90, 165, 157, 86, 165, 90, 1, 0.321444
38, 2, wb, attraction, a-b-da, 9, 3, 3, 35, 186, 114, 120, 195, 195, 120, 2, 7.85856
38, 2, wb, attraction, a-b-da, 9, 3, 3, 35, 186, 114, 120, 195, 195, 120, 3, 2.46876
38, 2, wb, attraction, a-b-db, 9, 1, 3, 36, 57, 129, 135, 60, 60, 135, 2, 1.77526
38, 2, wb, attraction, a-b-db, 9, 1, 3, 36, 57, 129, 135, 60, 60, 135, 3, 0.758708
38, 2, wb, filler, NA, 999, 999, 3, 37, 99, 122, 86, 124, 142, 183, 2, 0.909743
38, 2, wb, filler, NA, 999, 999, 3, 37, 99, 122, 86, 124, 142, 183, 3, 0.216071
38, 2, wb, attraction, a-b-da, 9, 2, 4, 1, 90, 165, 157, 86, 165, 90, 2, 2.75729
38, 2, wb, attraction, a-b-da, 9, 2, 4, 1, 90, 165, 157, 86, 165, 90, 1, 0.781051
38, 2, wb, attraction, a-b-da, 14, 1, 4, 2, 135, 60, 125, 56, 60, 135, 2, 1.67545
38, 2, wb, attraction, a-b-da, 14, 1, 4, 2, 135, 60, 125, 56, 60, 135, 3, 0.702907
38, 2, wb, catch, NA, 999, 999, 4, 3, 160, 155, 101, 154, 127, 68, 1, 1.7686
38, 2, wb, catch, NA, 999, 999, 4, 3, 160, 155, 101, 154, 127, 68, 2, 2.32877
38, 2, wb, attraction, a-b-db, 5, 1, 4, 4, 58, 132, 135, 60, 60, 135, 2, 5.73656
38, 2, wb, attraction, a-b-db, 5, 1, 4, 4, 58, 132, 135, 60, 60, 135, 1, 0.864775
38, 2, wb, attraction, a-b-db, 14, 1, 4, 5, 135, 60, 60, 135, 56, 125, 3, 1.89973
38, 2, wb, attraction, a-b-db, 14, 1, 4, 5, 135, 60, 60, 135, 56, 125, 2, 0.518461
38, 2, wb, filler, NA, 999, 999, 4, 6, 105, 91, 142, 185, 187, 176, 1, 1.20756
38, 2, wb, filler, NA, 999, 999, 4, 6, 105, 91, 142, 185, 187, 176, 3, 0.725935
38, 2, wb, attraction, a-b-da, 14, 3, 4, 7, 120, 195, 181, 111, 195, 120, 2, 1.60625
38, 2, wb, attraction, a-b-da, 14, 3, 4, 7, 120, 195, 181, 111, 195, 120, 1, 0.692402
38, 2, wb, attraction, a-b-db, 14, 3, 4, 8, 120, 195, 195, 120, 111, 181, 2, 2.12606
38, 2, wb, attraction, a-b-db, 14, 3, 4, 8, 120, 195, 195, 120, 111, 181, 1, 0.679361
38, 2, wb, attraction, a-b-da, 2, 3, 4, 9, 195, 120, 120, 195, 193, 119, 2, 2.46581
38, 2, wb, attraction, a-b-da, 2, 3, 4, 9, 195, 120, 120, 195, 193, 119, 1, 1.1817
38, 2, wb, attraction, a-b-db, 2, 3, 4, 10, 119, 193, 195, 120, 120, 195, 2, 2.35597
38, 2, wb, attraction, a-b-db, 2, 3, 4, 10, 119, 193, 195, 120, 120, 195, 3, 0.235859
38, 2, wb, attraction, a-b-da, 5, 1, 4, 11, 135, 60, 132, 58, 60, 135, 2, 5.71234
38, 2, wb, attraction, a-b-da, 5, 1, 4, 11, 135, 60, 132, 58, 60, 135, 1, 0.401161
38, 2, wb, catch, NA, 999, 999, 4, 12, 144, 171, 104, 151, 60, 135, 3, 2.71109
38, 2, wb, catch, NA, 999, 999, 4, 12, 144, 171, 104, 151, 60, 135, 1, 0.624796
38, 2, wb, filler, NA, 999, 999, 4, 13, 62, 71, 169, 129, 145, 191, 1, 1.02128
38, 2, wb, filler, NA, 999, 999, 4, 13, 62, 71, 169, 129, 145, 191, 3, 0.282837
38, 2, wb, filler, NA, 999, 999, 4, 14, 64, 99, 181, 133, 90, 115, 1, 0.869372
38, 2, wb, filler, NA, 999, 999, 4, 14, 64, 99, 181, 133, 90, 115, 2, 0.56991
38, 2, wb, filler, NA, 999, 999, 4, 15, 113, 84, 161, 146, 186, 76, 3, 3.18491
38, 2, wb, filler, NA, 999, 999, 4, 15, 113, 84, 161, 146, 186, 76, 2, 0.415816
38, 2, wb, attraction, a-b-db, 2, 2, 4, 16, 89, 163, 90, 165, 165, 90, 3, 1.94895
38, 2, wb, attraction, a-b-db, 2, 2, 4, 16, 89, 163, 90, 165, 165, 90, 1, 0.725688
38, 2, wb, attraction, a-b-db, 9, 1, 4, 17, 57, 129, 60, 135, 135, 60, 2, 5.79004
38, 2, wb, attraction, a-b-db, 9, 1, 4, 17, 57, 129, 60, 135, 135, 60, 1, 0.755601
38, 2, wb, attraction, a-b-da, 14, 2, 4, 18, 165, 90, 90, 165, 153, 83, 3, 3.85931
38, 2, wb, attraction, a-b-da, 14, 2, 4, 18, 165, 90, 90, 165, 153, 83, 1, 1.02267
38, 2, wb, attraction, a-b-db, 5, 2, 4, 19, 165, 90, 88, 161, 90, 165, 2, 2.60372
38, 2, wb, attraction, a-b-db, 5, 2, 4, 19, 165, 90, 88, 161, 90, 165, 1, 0.362225
38, 2, wb, attraction, a-b-da, 5, 3, 4, 20, 190, 117, 120, 195, 195, 120, 2, 4.80942
38, 2, wb, attraction, a-b-da, 5, 3, 4, 20, 190, 117, 120, 195, 195, 120, 1, 0.270813
38, 2, wb, attraction, a-b-db, 9, 2, 4, 21, 86, 157, 90, 165, 165, 90, 3, 4.69764
38, 2, wb, attraction, a-b-db, 9, 2, 4, 21, 86, 157, 90, 165, 165, 90, 1, 0.523494
38, 2, wb, attraction, a-b-da, 9, 1, 4, 22, 60, 135, 129, 57, 135, 60, 2, 1.84389
38, 2, wb, attraction, a-b-da, 9, 1, 4, 22, 60, 135, 129, 57, 135, 60, 3, 0.576686
38, 2, wb, attraction, a-b-da, 9, 3, 4, 23, 186, 114, 120, 195, 195, 120, 3, 2.0231
38, 2, wb, attraction, a-b-da, 9, 3, 4, 23, 186, 114, 120, 195, 195, 120, 1, 0.300417
38, 2, wb, attraction, a-b-da, 2, 1, 4, 24, 134, 59, 135, 60, 60, 135, 2, 3.57436
38, 2, wb, attraction, a-b-da, 2, 1, 4, 24, 134, 59, 135, 60, 60, 135, 3, 0.509134
38, 2, wb, attraction, a-b-db, 2, 1, 4, 25, 59, 134, 60, 135, 135, 60, 3, 3.71829
38, 2, wb, attraction, a-b-db, 2, 1, 4, 25, 59, 134, 60, 135, 135, 60, 1, 0.439663
38, 2, wb, attraction, a-b-db, 14, 2, 4, 26, 165, 90, 83, 153, 90, 165, 2, 5.14756
38, 2, wb, attraction, a-b-db, 14, 2, 4, 26, 165, 90, 83, 153, 90, 165, 3, 0.883172
38, 2, wb, filler, NA, 999, 999, 4, 27, 91, 127, 135, 166, 191, 74, 1, 2.78167
38, 2, wb, filler, NA, 999, 999, 4, 27, 91, 127, 135, 166, 191, 74, 2, 0.45279
38, 2, wb, filler, NA, 999, 999, 4, 28, 76, 144, 136, 63, 60, 74, 3, 0.776498
38, 2, wb, filler, NA, 999, 999, 4, 28, 76, 144, 136, 63, 60, 74, 1, 0.448202
38, 2, wb, attraction, a-b-da, 2, 2, 4, 29, 90, 165, 165, 90, 163, 89, 2, 7.00405
38, 2, wb, attraction, a-b-da, 2, 2, 4, 29, 90, 165, 165, 90, 163, 89, 1, 0.673083
38, 2, wb, filler, NA, 999, 999, 4, 30, 132, 134, 178, 57, 162, 123, 2, 2.12351
38, 2, wb, filler, NA, 999, 999, 4, 30, 132, 134, 178, 57, 162, 123, 3, 2.15679
38, 2, wb, filler, NA, 999, 999, 4, 31, 106, 74, 97, 134, 71, 84, 3, 1.40352
38, 2, wb, filler, NA, 999, 999, 4, 31, 106, 74, 97, 134, 71, 84, 2, 0.354244
38, 2, wb, attraction, a-b-da, 5, 2, 4, 32, 161, 88, 90, 165, 165, 90, 1, 2.10607
38, 2, wb, attraction, a-b-da, 5, 2, 4, 32, 161, 88, 90, 165, 165, 90, 3, 0.772145
38, 2, wb, filler, NA, 999, 999, 4, 33, 193, 162, 182, 107, 168, 62, 3, 1.17115
38, 2, wb, filler, NA, 999, 999, 4, 33, 193, 162, 182, 107, 168, 62, 1, 0.370688
38, 2, wb, catch, NA, 999, 999, 4, 34, 100, 95, 106, 149, 151, 164, 1, 0.849907
38, 2, wb, catch, NA, 999, 999, 4, 34, 100, 95, 106, 149, 151, 164, 3, 0.358912
38, 2, wb, attraction, a-b-db, 9, 3, 4, 35, 195, 120, 114, 186, 120, 195, 2, 5.24605
38, 2, wb, attraction, a-b-db, 9, 3, 4, 35, 195, 120, 114, 186, 120, 195, 1, 0.385719
38, 2, wb, attraction, a-b-db, 5, 3, 4, 36, 120, 195, 117, 190, 195, 120, 3, 2.34427
38, 2, wb, attraction, a-b-db, 5, 3, 4, 36, 120, 195, 117, 190, 195, 120, 1, 0.312932
38, 2, wb, filler, NA, 999, 999, 4, 37, 66, 184, 75, 79, 153, 147, 2, 0.738086
38, 2, wb, filler, NA, 999, 999, 4, 37, 66, 184, 75, 79, 153, 147, 3, 0.235147
38, 2, wb, attraction, a-b-db, 5, 1, 5, 1, 60, 135, 135, 60, 58, 132, 2, 3.11828
38, 2, wb, attraction, a-b-db, 5, 1, 5, 1, 60, 135, 135, 60, 58, 132, 3, 0.487947
38, 2, wb, attraction, a-b-db, 2, 2, 5, 2, 89, 163, 165, 90, 90, 165, 2, 1.38646
38, 2, wb, attraction, a-b-db, 2, 2, 5, 2, 89, 163, 165, 90, 90, 165, 3, 0.649914
38, 2, wb, filler, NA, 999, 999, 5, 3, 147, 148, 180, 146, 192, 85, 3, 1.11765
38, 2, wb, filler, NA, 999, 999, 5, 3, 147, 148, 180, 146, 192, 85, 2, 0.256052
38, 2, wb, attraction, a-b-db, 14, 1, 5, 4, 60, 135, 56, 125, 135, 60, 2, 0.867164
38, 2, wb, attraction, a-b-db, 14, 1, 5, 4, 60, 135, 56, 125, 135, 60, 3, 1.75153
38, 2, wb, attraction, a-b-da, 14, 2, 5, 5, 153, 83, 90, 165, 165, 90, 1, 1.07885
38, 2, wb, attraction, a-b-da, 14, 2, 5, 5, 153, 83, 90, 165, 165, 90, 2, 0.394588
38, 2, wb, attraction, a-b-db, 9, 3, 5, 6, 120, 195, 114, 186, 195, 120, 2, 1.54431
38, 2, wb, attraction, a-b-db, 9, 3, 5, 6, 120, 195, 114, 186, 195, 120, 1, 0.257194
38, 2, wb, attraction, a-b-da, 9, 2, 5, 7, 90, 165, 157, 86, 165, 90, 2, 1.86038
38, 2, wb, attraction, a-b-da, 9, 2, 5, 7, 90, 165, 157, 86, 165, 90, 3, 0.224468
38, 2, wb, attraction, a-b-da, 9, 3, 5, 8, 186, 114, 195, 120, 120, 195, 1, 1.73292
38, 2, wb, attraction, a-b-da, 9, 3, 5, 8, 186, 114, 195, 120, 120, 195, 3, 0.350377
38, 2, wb, attraction, a-b-db, 5, 2, 5, 9, 165, 90, 90, 165, 88, 161, 1, 0.894185
38, 2, wb, attraction, a-b-db, 5, 2, 5, 9, 165, 90, 90, 165, 88, 161, 2, 0.553264
38, 2, wb, attraction, a-b-db, 2, 1, 5, 10, 135, 60, 59, 134, 60, 135, 2, 1.82515
38, 2, wb, attraction, a-b-db, 2, 1, 5, 10, 135, 60, 59, 134, 60, 135, 1, 0.910433
38, 2, wb, catch, NA, 999, 999, 5, 11, 102, 93, 156, 99, 151, 164, 1, 0.839414
38, 2, wb, catch, NA, 999, 999, 5, 11, 102, 93, 156, 99, 151, 164, 3, 0.236542
38, 2, wb, catch, NA, 999, 999, 5, 12, 146, 169, 109, 86, 126, 129, 2, 0.584977
38, 2, wb, catch, NA, 999, 999, 5, 12, 146, 169, 109, 86, 126, 129, 1, 0.272761
38, 2, wb, attraction, a-b-da, 14, 1, 5, 13, 60, 135, 125, 56, 135, 60, 3, 1.3073
38, 2, wb, attraction, a-b-da, 14, 1, 5, 13, 60, 135, 125, 56, 135, 60, 1, 0.741661
38, 2, wb, attraction, a-b-db, 14, 3, 5, 14, 195, 120, 120, 195, 111, 181, 3, 1.24525
38, 2, wb, attraction, a-b-db, 14, 3, 5, 14, 195, 120, 120, 195, 111, 181, 2, 0.562189
38, 2, wb, filler, NA, 999, 999, 5, 15, 95, 159, 161, 97, 66, 100, 3, 0.561272
38, 2, wb, filler, NA, 999, 999, 5, 15, 95, 159, 161, 97, 66, 100, 1, 0.337731
38, 2, wb, filler, NA, 999, 999, 5, 16, 115, 124, 182, 111, 186, 117, 2, 4.6583
38, 2, wb, filler, NA, 999, 999, 5, 16, 115, 124, 182, 111, 186, 117, 3, 2.37354
38, 2, wb, attraction, a-b-db, 2, 3, 5, 17, 120, 195, 119, 193, 195, 120, 3, 1.04333
38, 2, wb, attraction, a-b-db, 2, 3, 5, 17, 120, 195, 119, 193, 195, 120, 1, 0.368224
38, 2, wb, filler, NA, 999, 999, 5, 18, 132, 182, 74, 70, 86, 166, 2, 1.18334
38, 2, wb, filler, NA, 999, 999, 5, 18, 132, 182, 74, 70, 86, 166, 1, 0.214953
38, 2, wb, attraction, a-b-da, 5, 1, 5, 19, 132, 58, 135, 60, 60, 135, 3, 1.96422
38, 2, wb, attraction, a-b-da, 5, 1, 5, 19, 132, 58, 135, 60, 60, 135, 1, 0.612207
38, 2, wb, attraction, a-b-db, 9, 2, 5, 20, 86, 157, 90, 165, 165, 90, 2, 6.04929
38, 2, wb, attraction, a-b-db, 9, 2, 5, 20, 86, 157, 90, 165, 165, 90, 1, 0.236678
38, 2, wb, filler, NA, 999, 999, 5, 21, 56, 125, 115, 150, 137, 95, 1, 0.681277
38, 2, wb, filler, NA, 999, 999, 5, 21, 56, 125, 115, 150, 137, 95, 2, 0.317097
38, 2, wb, catch, NA, 999, 999, 5, 22, 110, 85, 128, 187, 153, 102, 1, 0.622192
38, 2, wb, catch, NA, 999, 999, 5, 22, 110, 85, 128, 187, 153, 102, 2, 0.259962
38, 2, wb, attraction, a-b-db, 14, 2, 5, 23, 165, 90, 83, 153, 90, 165, 2, 2.92731
38, 2, wb, attraction, a-b-db, 14, 2, 5, 23, 165, 90, 83, 153, 90, 165, 3, 0.352405
38, 2, wb, filler, NA, 999, 999, 5, 24, 174, 104, 184, 127, 184, 147, 1, 1.20807
38, 2, wb, filler, NA, 999, 999, 5, 24, 174, 104, 184, 127, 184, 147, 3, 0.430387
38, 2, wb, filler, NA, 999, 999, 5, 25, 57, 88, 194, 56, 155, 100, 1, 2.01876
38, 2, wb, filler, NA, 999, 999, 5, 25, 57, 88, 194, 56, 155, 100, 3, 0.63277
38, 2, wb, attraction, a-b-db, 5, 3, 5, 26, 195, 120, 117, 190, 120, 195, 2, 1.58929
38, 2, wb, attraction, a-b-db, 5, 3, 5, 26, 195, 120, 117, 190, 120, 195, 1, 1.3322
38, 2, wb, filler, NA, 999, 999, 5, 27, 116, 119, 79, 192, 104, 129, 3, 3.75639
38, 2, wb, filler, NA, 999, 999, 5, 27, 116, 119, 79, 192, 104, 129, 1, 0.747742
38, 2, wb, attraction, a-b-da, 2, 2, 5, 28, 90, 165, 163, 89, 165, 90, 2, 1.57937
38, 2, wb, attraction, a-b-da, 2, 2, 5, 28, 90, 165, 163, 89, 165, 90, 1, 0.226904
38, 2, wb, attraction, a-b-da, 2, 1, 5, 29, 135, 60, 134, 59, 60, 135, 2, 2.34341
38, 2, wb, attraction, a-b-da, 2, 1, 5, 29, 135, 60, 134, 59, 60, 135, 3, 0.552045
38, 2, wb, attraction, a-b-da, 5, 3, 5, 30, 195, 120, 190, 117, 120, 195, 2, 1.3679
38, 2, wb, attraction, a-b-da, 5, 3, 5, 30, 195, 120, 190, 117, 120, 195, 3, 0.272018
38, 2, wb, attraction, a-b-da, 14, 3, 5, 31, 195, 120, 181, 111, 120, 195, 2, 0.859269
38, 2, wb, attraction, a-b-da, 14, 3, 5, 31, 195, 120, 181, 111, 120, 195, 3, 0.231515
38, 2, wb, attraction, a-b-da, 2, 3, 5, 32, 193, 119, 120, 195, 195, 120, 2, 2.63628
38, 2, wb, attraction, a-b-da, 2, 3, 5, 32, 193, 119, 120, 195, 195, 120, 3, 1.07322
38, 2, wb, attraction, a-b-da, 9, 1, 5, 33, 60, 135, 129, 57, 135, 60, 2, 1.36353
38, 2, wb, attraction, a-b-da, 9, 1, 5, 33, 60, 135, 129, 57, 135, 60, 3, 0.331681
38, 2, wb, attraction, a-b-da, 5, 2, 5, 34, 90, 165, 161, 88, 165, 90, 2, 2.10025
38, 2, wb, attraction, a-b-da, 5, 2, 5, 34, 90, 165, 161, 88, 165, 90, 1, 0.89483
38, 2, wb, filler, NA, 999, 999, 5, 35, 94, 72, 99, 179, 185, 89, 1, 0.672509
38, 2, wb, filler, NA, 999, 999, 5, 35, 94, 72, 99, 179, 185, 89, 2, 0.276328
38, 2, wb, attraction, a-b-db, 9, 1, 5, 36, 135, 60, 60, 135, 57, 129, 1, 4.56676
38, 2, wb, attraction, a-b-db, 9, 1, 5, 36, 135, 60, 60, 135, 57, 129, 2, 0.246022
38, 2, wb, filler, NA, 999, 999, 5, 37, 126, 118, 69, 145, 193, 78, 2, 2.06589
38, 2, wb, filler, NA, 999, 999, 5, 37, 126, 118, 69, 145, 193, 78, 3, 0.253872
38, 2, wb, attraction, a-b-da, 9, 3, 6, 1, 186, 114, 195, 120, 120, 195, 3, 2.15381
38, 2, wb, attraction, a-b-da, 9, 3, 6, 1, 186, 114, 195, 120, 120, 195, 1, 0.233761
38, 2, wb, filler, NA, 999, 999, 6, 2, 177, 134, 84, 62, 75, 115, 2, 0.550242
38, 2, wb, filler, NA, 999, 999, 6, 2, 177, 134, 84, 62, 75, 115, 1, 0.199505
38, 2, wb, filler, NA, 999, 999, 6, 3, 120, 128, 140, 192, 107, 107, 3, 0.933213
38, 2, wb, filler, NA, 999, 999, 6, 3, 120, 128, 140, 192, 107, 107, 2, 0.198929
38, 2, wb, attraction, a-b-da, 9, 1, 6, 4, 60, 135, 129, 57, 135, 60, 2, 1.42886
38, 2, wb, attraction, a-b-da, 9, 1, 6, 4, 60, 135, 129, 57, 135, 60, 1, 0.250347
38, 2, wb, attraction, a-b-db, 5, 2, 6, 5, 165, 90, 90, 165, 88, 161, 3, 3.62233
38, 2, wb, attraction, a-b-db, 5, 2, 6, 5, 165, 90, 90, 165, 88, 161, 2, 0.211167
38, 2, wb, attraction, a-b-da, 2, 2, 6, 6, 163, 89, 90, 165, 165, 90, 1, 3.54422
38, 2, wb, attraction, a-b-da, 2, 2, 6, 6, 163, 89, 90, 165, 165, 90, 2, 0.192394
38, 2, wb, attraction, a-b-db, 14, 2, 6, 7, 90, 165, 165, 90, 83, 153, 2, 2.59058
38, 2, wb, attraction, a-b-db, 14, 2, 6, 7, 90, 165, 165, 90, 83, 153, 1, 0.284892
38, 2, wb, catch, NA, 999, 999, 6, 8, 98, 157, 130, 185, 88, 107, 3, 0.967396
38, 2, wb, catch, NA, 999, 999, 6, 8, 98, 157, 130, 185, 88, 107, 2, 0.239708
38, 2, wb, attraction, a-b-db, 5, 1, 6, 9, 135, 60, 58, 132, 60, 135, 2, 2.34758
38, 2, wb, attraction, a-b-db, 5, 1, 6, 9, 135, 60, 58, 132, 60, 135, 1, 0.580128
38, 2, wb, attraction, a-b-db, 9, 3, 6, 10, 114, 186, 195, 120, 120, 195, 2, 1.05864
38, 2, wb, attraction, a-b-db, 9, 3, 6, 10, 114, 186, 195, 120, 120, 195, 3, 0.214813
38, 2, wb, attraction, a-b-da, 5, 3, 6, 11, 120, 195, 190, 117, 195, 120, 2, 1.30819
38, 2, wb, attraction, a-b-da, 5, 3, 6, 11, 120, 195, 190, 117, 195, 120, 1, 0.550278
38, 2, wb, attraction, a-b-db, 2, 2, 6, 12, 165, 90, 89, 163, 90, 165, 2, 2.83015
38, 2, wb, attraction, a-b-db, 2, 2, 6, 12, 165, 90, 89, 163, 90, 165, 1, 2.23512
38, 2, wb, attraction, a-b-da, 14, 2, 6, 13, 153, 83, 90, 165, 165, 90, 2, 3.39118
38, 2, wb, attraction, a-b-da, 14, 2, 6, 13, 153, 83, 90, 165, 165, 90, 3, 0.453323
38, 2, wb, catch, NA, 999, 999, 6, 14, 183, 132, 94, 101, 130, 125, 2, 0.593103
38, 2, wb, catch, NA, 999, 999, 6, 14, 183, 132, 94, 101, 130, 125, 1, 0.376225
38, 2, wb, filler, NA, 999, 999, 6, 15, 173, 179, 194, 83, 169, 74, 3, 2.8948
38, 2, wb, filler, NA, 999, 999, 6, 15, 173, 179, 194, 83, 169, 74, 1, 0.273156
38, 2, wb, attraction, a-b-db, 14, 1, 6, 16, 60, 135, 56, 125, 135, 60, 2, 2.35565
38, 2, wb, attraction, a-b-db, 14, 1, 6, 16, 60, 135, 56, 125, 135, 60, 1, 1.13958
38, 2, wb, attraction, a-b-db, 9, 2, 6, 17, 165, 90, 86, 157, 90, 165, 2, 1.17916
38, 2, wb, attraction, a-b-db, 9, 2, 6, 17, 165, 90, 86, 157, 90, 165, 1, 0.2748
38, 2, wb, attraction, a-b-db, 5, 3, 6, 18, 117, 190, 195, 120, 120, 195, 2, 1.87745
38, 2, wb, attraction, a-b-db, 5, 3, 6, 18, 117, 190, 195, 120, 120, 195, 3, 0.288692
38, 2, wb, attraction, a-b-db, 2, 1, 6, 19, 59, 134, 135, 60, 60, 135, 2, 2.08325
38, 2, wb, attraction, a-b-db, 2, 1, 6, 19, 59, 134, 135, 60, 60, 135, 1, 0.414494
38, 2, wb, filler, NA, 999, 999, 6, 20, 187, 131, 123, 188, 162, 110, 2, 0.827656
38, 2, wb, filler, NA, 999, 999, 6, 20, 187, 131, 123, 188, 162, 110, 1, 0.305435
38, 2, wb, filler, NA, 999, 999, 6, 21, 136, 158, 173, 155, 77, 127, 3, 0.987167
38, 2, wb, filler, NA, 999, 999, 6, 21, 136, 158, 173, 155, 77, 127, 2, 0.266826
38, 2, wb, attraction, a-b-da, 5, 2, 6, 22, 161, 88, 90, 165, 165, 90, 2, 2.3181
38, 2, wb, attraction, a-b-da, 5, 2, 6, 22, 161, 88, 90, 165, 165, 90, 3, 0.336013
38, 2, wb, filler, NA, 999, 999, 6, 23, 161, 69, 125, 181, 159, 171, 1, 2.08056
38, 2, wb, filler, NA, 999, 999, 6, 23, 161, 69, 125, 181, 159, 171, 3, 0.89192
38, 2, wb, attraction, a-b-da, 2, 1, 6, 24, 134, 59, 60, 135, 135, 60, 2, 0.917433
38, 2, wb, attraction, a-b-da, 2, 1, 6, 24, 134, 59, 60, 135, 135, 60, 1, 0.607853
38, 2, wb, attraction, a-b-db, 14, 3, 6, 25, 195, 120, 120, 195, 111, 181, 3, 1.09291
38, 2, wb, attraction, a-b-db, 14, 3, 6, 25, 195, 120, 120, 195, 111, 181, 1, 0.55192
38, 2, wb, attraction, a-b-da, 14, 1, 6, 26, 135, 60, 125, 56, 60, 135, 2, 5.06363
38, 2, wb, attraction, a-b-da, 14, 1, 6, 26, 135, 60, 125, 56, 60, 135, 1, 0.274671
38, 2, wb, attraction, a-b-da, 5, 1, 6, 27, 60, 135, 132, 58, 135, 60, 2, 0.965287
38, 2, wb, attraction, a-b-da, 5, 1, 6, 27, 60, 135, 132, 58, 135, 60, 3, 0.221646
38, 2, wb, catch, NA, 999, 999, 6, 28, 173, 142, 124, 71, 92, 163, 2, 0.602791
38, 2, wb, catch, NA, 999, 999, 6, 28, 173, 142, 124, 71, 92, 163, 1, 0.249921
38, 2, wb, filler, NA, 999, 999, 6, 29, 186, 161, 177, 156, 98, 135, 3, 0.773694
38, 2, wb, filler, NA, 999, 999, 6, 29, 186, 161, 177, 156, 98, 135, 1, 1.11749
38, 2, wb, attraction, a-b-da, 9, 2, 6, 30, 90, 165, 157, 86, 165, 90, 2, 2.18236
38, 2, wb, attraction, a-b-da, 9, 2, 6, 30, 90, 165, 157, 86, 165, 90, 3, 0.581685
38, 2, wb, attraction, a-b-da, 14, 3, 6, 31, 181, 111, 195, 120, 120, 195, 2, 1.10823
38, 2, wb, attraction, a-b-da, 14, 3, 6, 31, 181, 111, 195, 120, 120, 195, 1, 0.566416
38, 2, wb, filler, NA, 999, 999, 6, 32, 141, 158, 186, 65, 73, 90, 3, 0.589575
38, 2, wb, filler, NA, 999, 999, 6, 32, 141, 158, 186, 65, 73, 90, 1, 0.364671
38, 2, wb, attraction, a-b-db, 2, 3, 6, 33, 120, 195, 119, 193, 195, 120, 3, 1.50782
38, 2, wb, attraction, a-b-db, 2, 3, 6, 33, 120, 195, 119, 193, 195, 120, 1, 0.998003
38, 2, wb, attraction, a-b-db, 9, 1, 6, 34, 57, 129, 135, 60, 60, 135, 2, 1.8677
38, 2, wb, attraction, a-b-db, 9, 1, 6, 34, 57, 129, 135, 60, 60, 135, 3, 0.35969
38, 2, wb, filler, NA, 999, 999, 6, 35, 112, 123, 76, 156, 131, 124, 2, 4.87879
38, 2, wb, filler, NA, 999, 999, 6, 35, 112, 123, 76, 156, 131, 124, 3, 0.681275
38, 2, wb, attraction, a-b-da, 2, 3, 6, 36, 193, 119, 195, 120, 120, 195, 2, 2.92386
38, 2, wb, attraction, a-b-da, 2, 3, 6, 36, 193, 119, 195, 120, 120, 195, 1, 0.300668
38, 2, wb, filler, NA, 999, 999, 6, 37, 133, 133, 110, 114, 57, 173, 2, 2.36658
38, 2, wb, filler, NA, 999, 999, 6, 37, 133, 133, 110, 114, 57, 173, 1, 0.614443
38, 2, wb, attraction, a-b-db, 9, 3, 7, 1, 120, 195, 114, 186, 195, 120, 2, 3.53954
38, 2, wb, attraction, a-b-db, 9, 3, 7, 1, 120, 195, 114, 186, 195, 120, 1, 0.819794
38, 2, wb, filler, NA, 999, 999, 7, 2, 130, 130, 61, 142, 115, 162, 2, 0.816773
38, 2, wb, filler, NA, 999, 999, 7, 2, 130, 130, 61, 142, 115, 162, 1, 3.28731
38, 2, wb, filler, NA, 999, 999, 7, 3, 56, 64, 100, 130, 117, 171, 1, 0.656818
38, 2, wb, filler, NA, 999, 999, 7, 3, 56, 64, 100, 130, 117, 171, 3, 0.253257
38, 2, wb, attraction, a-b-db, 2, 2, 7, 4, 89, 163, 165, 90, 90, 165, 2, 0.689143
38, 2, wb, attraction, a-b-db, 2, 2, 7, 4, 89, 163, 165, 90, 90, 165, 1, 0.324127
38, 2, wb, attraction, a-b-db, 14, 1, 7, 5, 60, 135, 56, 125, 135, 60, 2, 1.18865
38, 2, wb, attraction, a-b-db, 14, 1, 7, 5, 60, 135, 56, 125, 135, 60, 1, 0.531637
38, 2, wb, attraction, a-b-db, 2, 1, 7, 6, 59, 134, 60, 135, 135, 60, 2, 1.57211
38, 2, wb, attraction, a-b-db, 2, 1, 7, 6, 59, 134, 60, 135, 135, 60, 1, 0.307512
38, 2, wb, attraction, a-b-db, 9, 1, 7, 7, 135, 60, 60, 135, 57, 129, 2, 1.83664
38, 2, wb, attraction, a-b-db, 9, 1, 7, 7, 135, 60, 60, 135, 57, 129, 3, 0.346064
38, 2, wb, catch, NA, 999, 999, 7, 8, 151, 164, 89, 106, 127, 128, 2, 0.737871
38, 2, wb, catch, NA, 999, 999, 7, 8, 151, 164, 89, 106, 127, 128, 1, 0.194978
38, 2, wb, filler, NA, 999, 999, 7, 9, 79, 186, 167, 156, 188, 128, 1, 1.42477
38, 2, wb, filler, NA, 999, 999, 7, 9, 79, 186, 167, 156, 188, 128, 2, 0.414356
38, 2, wb, attraction, a-b-db, 5, 2, 7, 10, 88, 161, 90, 165, 165, 90, 2, 4.82756
38, 2, wb, attraction, a-b-db, 5, 2, 7, 10, 88, 161, 90, 165, 165, 90, 3, 0.311992
38, 2, wb, attraction, a-b-db, 5, 1, 7, 11, 60, 135, 135, 60, 58, 132, 2, 0.673119
38, 2, wb, attraction, a-b-db, 5, 1, 7, 11, 60, 135, 135, 60, 58, 132, 3, 0.38888
38, 2, wb, filler, NA, 999, 999, 7, 12, 117, 89, 123, 133, 147, 127, 1, 0.899374
38, 2, wb, filler, NA, 999, 999, 7, 12, 117, 89, 123, 133, 147, 127, 3, 0.358397
38, 2, wb, attraction, a-b-da, 9, 3, 7, 13, 195, 120, 120, 195, 186, 114, 3, 2.31765
38, 2, wb, attraction, a-b-da, 9, 3, 7, 13, 195, 120, 120, 195, 186, 114, 1, 0.567469
38, 2, wb, attraction, a-b-da, 2, 2, 7, 14, 90, 165, 165, 90, 163, 89, 2, 3.35063
38, 2, wb, attraction, a-b-da, 2, 2, 7, 14, 90, 165, 165, 90, 163, 89, 1, 0.775003
38, 2, wb, attraction, a-b-da, 14, 3, 7, 15, 120, 195, 195, 120, 181, 111, 3, 3.10938
38, 2, wb, attraction, a-b-da, 14, 3, 7, 15, 120, 195, 195, 120, 181, 111, 2, 0.310923
38, 2, wb, filler, NA, 999, 999, 7, 16, 174, 57, 130, 76, 170, 111, 2, 1.18409
38, 2, wb, filler, NA, 999, 999, 7, 16, 174, 57, 130, 76, 170, 111, 3, 0.239717
38, 2, wb, filler, NA, 999, 999, 7, 17, 194, 114, 91, 110, 119, 146, 2, 0.995529
38, 2, wb, filler, NA, 999, 999, 7, 17, 194, 114, 91, 110, 119, 146, 1, 0.986554
38, 2, wb, attraction, a-b-da, 5, 3, 7, 18, 190, 117, 195, 120, 120, 195, 3, 8.40891
38, 2, wb, attraction, a-b-da, 5, 3, 7, 18, 190, 117, 195, 120, 120, 195, 1, 0.772869
38, 2, wb, attraction, a-b-da, 14, 2, 7, 19, 153, 83, 165, 90, 90, 165, 2, 1.83533
38, 2, wb, attraction, a-b-da, 14, 2, 7, 19, 153, 83, 165, 90, 90, 165, 3, 1.7848
38, 2, wb, filler, NA, 999, 999, 7, 20, 165, 75, 122, 131, 148, 179, 1, 0.990682
38, 2, wb, filler, NA, 999, 999, 7, 20, 165, 75, 122, 131, 148, 179, 3, 0.75768
38, 2, wb, attraction, a-b-db, 14, 2, 7, 21, 90, 165, 165, 90, 83, 153, 2, 1.82885
38, 2, wb, attraction, a-b-db, 14, 2, 7, 21, 90, 165, 165, 90, 83, 153, 1, 0.282087
38, 2, wb, filler, NA, 999, 999, 7, 22, 123, 152, 161, 142, 125, 172, 1, 5.72467
38, 2, wb, filler, NA, 999, 999, 7, 22, 123, 152, 161, 142, 125, 172, 3, 1.30087
38, 2, wb, attraction, a-b-db, 2, 3, 7, 23, 120, 195, 195, 120, 119, 193, 2, 5.0784
38, 2, wb, attraction, a-b-db, 2, 3, 7, 23, 120, 195, 195, 120, 119, 193, 3, 0.83274
38, 2, wb, catch, NA, 999, 999, 7, 24, 101, 154, 128, 187, 72, 123, 3, 0.829111
38, 2, wb, catch, NA, 999, 999, 7, 24, 101, 154, 128, 187, 72, 123, 2, 0.266789
38, 2, wb, filler, NA, 999, 999, 7, 25, 88, 154, 138, 167, 164, 118, 1, 0.718076
38, 2, wb, filler, NA, 999, 999, 7, 25, 88, 154, 138, 167, 164, 118, 2, 0.32039
38, 2, wb, attraction, a-b-da, 9, 1, 7, 26, 129, 57, 60, 135, 135, 60, 2, 2.57764
38, 2, wb, attraction, a-b-da, 9, 1, 7, 26, 129, 57, 60, 135, 135, 60, 3, 0.424747
38, 2, wb, attraction, a-b-da, 2, 1, 7, 27, 134, 59, 135, 60, 60, 135, 2, 1.63728
38, 2, wb, attraction, a-b-da, 2, 1, 7, 27, 134, 59, 135, 60, 60, 135, 3, 0.274026
38, 2, wb, attraction, a-b-da, 2, 3, 7, 28, 193, 119, 120, 195, 195, 120, 2, 1.02046
38, 2, wb, attraction, a-b-da, 2, 3, 7, 28, 193, 119, 120, 195, 195, 120, 1, 0.378831
38, 2, wb, attraction, a-b-da, 5, 2, 7, 29, 90, 165, 161, 88, 165, 90, 2, 1.20131
38, 2, wb, attraction, a-b-da, 5, 2, 7, 29, 90, 165, 161, 88, 165, 90, 1, 1.18425
38, 2, wb, attraction, a-b-db, 9, 2, 7, 30, 165, 90, 90, 165, 86, 157, 3, 2.35058
38, 2, wb, attraction, a-b-db, 9, 2, 7, 30, 165, 90, 90, 165, 86, 157, 2, 0.551185
38, 2, wb, attraction, a-b-db, 5, 3, 7, 31, 195, 120, 120, 195, 117, 190, 3, 2.81484
38, 2, wb, attraction, a-b-db, 5, 3, 7, 31, 195, 120, 120, 195, 117, 190, 1, 1.02856
38, 2, wb, attraction, a-b-da, 9, 2, 7, 32, 165, 90, 90, 165, 157, 86, 2, 0.816917
38, 2, wb, attraction, a-b-da, 9, 2, 7, 32, 165, 90, 90, 165, 157, 86, 3, 0.271286
38, 2, wb, filler, NA, 999, 999, 7, 33, 106, 98, 149, 187, 76, 182, 1, 0.810438
38, 2, wb, filler, NA, 999, 999, 7, 33, 106, 98, 149, 187, 76, 182, 2, 0.24889
38, 2, wb, attraction, a-b-db, 14, 3, 7, 34, 195, 120, 111, 181, 120, 195, 2, 0.868741
38, 2, wb, attraction, a-b-db, 14, 3, 7, 34, 195, 120, 111, 181, 120, 195, 1, 0.217127
38, 2, wb, attraction, a-b-da, 5, 1, 7, 35, 132, 58, 60, 135, 135, 60, 2, 0.734258
38, 2, wb, attraction, a-b-da, 5, 1, 7, 35, 132, 58, 60, 135, 135, 60, 1, 0.944091
38, 2, wb, attraction, a-b-da, 14, 1, 7, 36, 125, 56, 60, 135, 135, 60, 2, 1.91972
38, 2, wb, attraction, a-b-da, 14, 1, 7, 36, 125, 56, 60, 135, 135, 60, 1, 0.537731
38, 2, wb, catch, NA, 999, 999, 7, 37, 137, 118, 91, 104, 139, 176, 3, 0.850126
38, 2, wb, catch, NA, 999, 999, 7, 37, 137, 118, 91, 104, 139, 176, 1, 1.67925
38, 2, wb, attraction, a-b-da, 5, 1, 8, 1, 60, 135, 135, 60, 132, 58, 2, 1.16134
38, 2, wb, attraction, a-b-da, 5, 1, 8, 1, 60, 135, 135, 60, 132, 58, 1, 0.881563
38, 2, wb, attraction, a-b-da, 2, 1, 8, 2, 135, 60, 134, 59, 60, 135, 3, 0.948075
38, 2, wb, attraction, a-b-da, 2, 1, 8, 2, 135, 60, 134, 59, 60, 135, 2, 1.07692
38, 2, wb, attraction, a-b-db, 2, 2, 8, 3, 89, 163, 90, 165, 165, 90, 2, 5.95934
38, 2, wb, attraction, a-b-db, 2, 2, 8, 3, 89, 163, 90, 165, 165, 90, 1, 0.686019
38, 2, wb, catch, NA, 999, 999, 8, 4, 165, 150, 81, 114, 91, 164, 2, 0.608408
38, 2, wb, catch, NA, 999, 999, 8, 4, 165, 150, 81, 114, 91, 164, 1, 0.294834
38, 2, wb, filler, NA, 999, 999, 8, 5, 136, 168, 167, 73, 83, 165, 2, 1.92072
38, 2, wb, filler, NA, 999, 999, 8, 5, 136, 168, 167, 73, 83, 165, 1, 0.234118
38, 2, wb, filler, NA, 999, 999, 8, 6, 175, 126, 83, 99, 164, 119, 2, 0.518561
38, 2, wb, filler, NA, 999, 999, 8, 6, 175, 126, 83, 99, 164, 119, 1, 0.809056
38, 2, wb, attraction, a-b-da, 14, 3, 8, 7, 195, 120, 181, 111, 120, 195, 2, 1.87807
38, 2, wb, attraction, a-b-da, 14, 3, 8, 7, 195, 120, 181, 111, 120, 195, 1, 0.217406
38, 2, wb, attraction, a-b-db, 14, 1, 8, 8, 135, 60, 60, 135, 56, 125, 1, 3.01488
38, 2, wb, attraction, a-b-db, 14, 1, 8, 8, 135, 60, 60, 135, 56, 125, 2, 0.412439
38, 2, wb, attraction, a-b-db, 5, 2, 8, 9, 88, 161, 165, 90, 90, 165, 2, 1.75366
38, 2, wb, attraction, a-b-db, 5, 2, 8, 9, 88, 161, 165, 90, 90, 165, 3, 0.881607
38, 2, wb, attraction, a-b-db, 14, 2, 8, 10, 90, 165, 83, 153, 165, 90, 2, 2.516
38, 2, wb, attraction, a-b-db, 14, 2, 8, 10, 90, 165, 83, 153, 165, 90, 1, 0.309756
38, 2, wb, attraction, a-b-da, 5, 3, 8, 11, 195, 120, 190, 117, 120, 195, 2, 1.79895
38, 2, wb, attraction, a-b-da, 5, 3, 8, 11, 195, 120, 190, 117, 120, 195, 1, 0.237692
38, 2, wb, filler, NA, 999, 999, 8, 12, 103, 175, 141, 150, 73, 68, 3, 0.850311
38, 2, wb, filler, NA, 999, 999, 8, 12, 103, 175, 141, 150, 73, 68, 2, 0.271305
38, 2, wb, attraction, a-b-da, 2, 2, 8, 13, 163, 89, 90, 165, 165, 90, 2, 2.5945
38, 2, wb, attraction, a-b-da, 2, 2, 8, 13, 163, 89, 90, 165, 165, 90, 1, 0.265002
38, 2, wb, attraction, a-b-da, 9, 1, 8, 14, 129, 57, 60, 135, 135, 60, 2, 2.24427
38, 2, wb, attraction, a-b-da, 9, 1, 8, 14, 129, 57, 60, 135, 135, 60, 1, 0.824789
38, 2, wb, filler, NA, 999, 999, 8, 15, 171, 164, 187, 113, 183, 91, 3, 1.46926
38, 2, wb, filler, NA, 999, 999, 8, 15, 171, 164, 187, 113, 183, 91, 2, 1.84131
38, 2, wb, attraction, a-b-db, 14, 3, 8, 16, 111, 181, 195, 120, 120, 195, 2, 2.04472
38, 2, wb, attraction, a-b-db, 14, 3, 8, 16, 111, 181, 195, 120, 120, 195, 3, 0.369419
38, 2, wb, filler, NA, 999, 999, 8, 17, 177, 160, 170, 97, 117, 152, 2, 0.800527
38, 2, wb, filler, NA, 999, 999, 8, 17, 177, 160, 170, 97, 117, 152, 1, 0.255524
38, 2, wb, attraction, a-b-db, 5, 1, 8, 18, 135, 60, 60, 135, 58, 132, 1, 1.27547
38, 2, wb, attraction, a-b-db, 5, 1, 8, 18, 135, 60, 60, 135, 58, 132, 2, 0.743037
38, 2, wb, filler, NA, 999, 999, 8, 19, 143, 114, 89, 81, 170, 94, 2, 1.03066
38, 2, wb, filler, NA, 999, 999, 8, 19, 143, 114, 89, 81, 170, 94, 1, 1.07638
38, 2, wb, attraction, a-b-db, 9, 2, 8, 20, 165, 90, 90, 165, 86, 157, 3, 1.27878
38, 2, wb, attraction, a-b-db, 9, 2, 8, 20, 165, 90, 90, 165, 86, 157, 2, 1.22626
38, 2, wb, filler, NA, 999, 999, 8, 21, 72, 153, 105, 94, 134, 87, 2, 0.758368
38, 2, wb, filler, NA, 999, 999, 8, 21, 72, 153, 105, 94, 134, 87, 3, 1.51096
38, 2, wb, catch, NA, 999, 999, 8, 22, 110, 145, 115, 80, 172, 143, 2, 0.855662
38, 2, wb, catch, NA, 999, 999, 8, 22, 110, 145, 115, 80, 172, 143, 3, 0.347966
38, 2, wb, attraction, a-b-db, 2, 1, 8, 23, 59, 134, 60, 135, 135, 60, 2, 4.85183
38, 2, wb, attraction, a-b-db, 2, 1, 8, 23, 59, 134, 60, 135, 135, 60, 3, 0.351578
38, 2, wb, attraction, a-b-db, 5, 3, 8, 24, 120, 195, 117, 190, 195, 120, 3, 1.5036
38, 2, wb, attraction, a-b-db, 5, 3, 8, 24, 120, 195, 117, 190, 195, 120, 2, 0.418299
38, 2, wb, filler, NA, 999, 999, 8, 25, 143, 59, 78, 111, 100, 100, 2, 0.999517
38, 2, wb, filler, NA, 999, 999, 8, 25, 143, 59, 78, 111, 100, 100, 3, 0.630421
38, 2, wb, attraction, a-b-da, 2, 3, 8, 26, 120, 195, 195, 120, 193, 119, 2, 1.29887
38, 2, wb, attraction, a-b-da, 2, 3, 8, 26, 120, 195, 195, 120, 193, 119, 3, 0.285751
38, 2, wb, attraction, a-b-db, 9, 3, 8, 27, 114, 186, 195, 120, 120, 195, 2, 1.76823
38, 2, wb, attraction, a-b-db, 9, 3, 8, 27, 114, 186, 195, 120, 120, 195, 3, 0.352443
38, 2, wb, attraction, a-b-da, 14, 2, 8, 28, 90, 165, 165, 90, 153, 83, 3, 1.62423
38, 2, wb, attraction, a-b-da, 14, 2, 8, 28, 90, 165, 165, 90, 153, 83, 2, 0.677709
38, 2, wb, attraction, a-b-db, 9, 1, 8, 29, 60, 135, 57, 129, 135, 60, 2, 1.60807
38, 2, wb, attraction, a-b-db, 9, 1, 8, 29, 60, 135, 57, 129, 135, 60, 3, 0.398143
38, 2, wb, attraction, a-b-da, 9, 2, 8, 30, 165, 90, 90, 165, 157, 86, 3, 2.86023
38, 2, wb, attraction, a-b-da, 9, 2, 8, 30, 165, 90, 90, 165, 157, 86, 2, 0.335772
38, 2, wb, filler, NA, 999, 999, 8, 31, 139, 71, 78, 168, 67, 109, 3, 0.624233
38, 2, wb, filler, NA, 999, 999, 8, 31, 139, 71, 78, 168, 67, 109, 2, 0.294032
38, 2, wb, attraction, a-b-da, 14, 1, 8, 32, 60, 135, 125, 56, 135, 60, 2, 1.08792
38, 2, wb, attraction, a-b-da, 14, 1, 8, 32, 60, 135, 125, 56, 135, 60, 3, 0.354871
38, 2, wb, attraction, a-b-db, 2, 3, 8, 33, 120, 195, 119, 193, 195, 120, 2, 1.7067
38, 2, wb, attraction, a-b-db, 2, 3, 8, 33, 120, 195, 119, 193, 195, 120, 3, 0.348818
38, 2, wb, filler, NA, 999, 999, 8, 34, 100, 182, 83, 153, 105, 187, 2, 0.524612
38, 2, wb, filler, NA, 999, 999, 8, 34, 100, 182, 83, 153, 105, 187, 3, 0.750409
38, 2, wb, catch, NA, 999, 999, 8, 35, 101, 154, 60, 135, 140, 175, 2, 0.566072
38, 2, wb, catch, NA, 999, 999, 8, 35, 101, 154, 60, 135, 140, 175, 3, 0.310612
38, 2, wb, attraction, a-b-da, 5, 2, 8, 36, 90, 165, 165, 90, 161, 88, 2, 1.18378
38, 2, wb, attraction, a-b-da, 5, 2, 8, 36, 90, 165, 165, 90, 161, 88, 1, 0.287412
38, 2, wb, attraction, a-b-da, 9, 3, 8, 37, 186, 114, 195, 120, 120, 195, 1, 2.78583
38, 2, wb, attraction, a-b-da, 9, 3, 8, 37, 186, 114, 195, 120, 120, 195, 3, 0.256974
