sub_n, computer_n, bw_cond, effect, set, distance, diag, block_n, trial_n, h1, w1, h2, w2, h3, w3, choice, rt 
379, 2, bw, practice, NA, 999, 999, 0, 1, 95, 106, 66, 180, 109, 140, 2, 5.61336
379, 2, bw, practice, NA, 999, 999, 0, 1, 95, 106, 66, 180, 109, 140, 1, 1.83445
379, 2, bw, practice, NA, 999, 999, 0, 2, 164, 78, 88, 160, 159, 124, 3, 3.52224
379, 2, bw, practice, NA, 999, 999, 0, 2, 164, 78, 88, 160, 159, 124, 1, 1.65157
379, 2, bw, practice, NA, 999, 999, 0, 3, 194, 159, 177, 191, 146, 183, 2, 2.04586
379, 2, bw, practice, NA, 999, 999, 0, 3, 194, 159, 177, 191, 146, 183, 3, 1.51342
379, 2, bw, attraction, a-b-db, 5, 3, 1, 1, 195, 120, 117, 190, 120, 195, 2, 11.9554
379, 2, bw, attraction, a-b-db, 5, 3, 1, 1, 195, 120, 117, 190, 120, 195, 1, 2.13702
379, 2, bw, filler, NA, 999, 999, 1, 2, 126, 124, 100, 176, 161, 114, 2, 6.47288
379, 2, bw, filler, NA, 999, 999, 1, 2, 126, 124, 100, 176, 161, 114, 1, 4.28296
379, 2, bw, attraction, a-b-da, 5, 3, 1, 3, 190, 117, 195, 120, 120, 195, 3, 4.62817
379, 2, bw, attraction, a-b-da, 5, 3, 1, 3, 190, 117, 195, 120, 120, 195, 2, 3.64074
379, 2, bw, attraction, a-b-db, 5, 2, 1, 4, 165, 90, 90, 165, 88, 161, 2, 4.54743
379, 2, bw, attraction, a-b-db, 5, 2, 1, 4, 165, 90, 90, 165, 88, 161, 1, 2.13931
379, 2, bw, filler, NA, 999, 999, 1, 5, 127, 123, 178, 62, 183, 103, 3, 2.37143
379, 2, bw, filler, NA, 999, 999, 1, 5, 127, 123, 178, 62, 183, 103, 2, 0.578592
379, 2, bw, attraction, a-b-da, 14, 2, 1, 6, 90, 165, 153, 83, 165, 90, 1, 7.6969
379, 2, bw, attraction, a-b-da, 14, 2, 1, 6, 90, 165, 153, 83, 165, 90, 2, 1.48988
379, 2, bw, catch, NA, 999, 999, 1, 7, 91, 164, 82, 113, 154, 161, 3, 4.0434
379, 2, bw, catch, NA, 999, 999, 1, 7, 91, 164, 82, 113, 154, 161, 2, 0.991345
379, 2, bw, filler, NA, 999, 999, 1, 8, 158, 174, 67, 86, 145, 156, 1, 1.67696
379, 2, bw, filler, NA, 999, 999, 1, 8, 158, 174, 67, 86, 145, 156, 2, 0.472399
379, 2, bw, attraction, a-b-da, 9, 3, 1, 9, 120, 195, 186, 114, 195, 120, 1, 5.58765
379, 2, bw, attraction, a-b-da, 9, 3, 1, 9, 120, 195, 186, 114, 195, 120, 2, 3.28189
379, 2, bw, filler, NA, 999, 999, 1, 10, 121, 178, 107, 130, 102, 62, 1, 2.00349
379, 2, bw, filler, NA, 999, 999, 1, 10, 121, 178, 107, 130, 102, 62, 3, 1.61011
379, 2, bw, catch, NA, 999, 999, 1, 11, 178, 137, 104, 91, 92, 163, 1, 1.89492
379, 2, bw, catch, NA, 999, 999, 1, 11, 178, 137, 104, 91, 92, 163, 2, 1.91358
379, 2, bw, attraction, a-b-db, 9, 3, 1, 12, 195, 120, 120, 195, 114, 186, 2, 3.91429
379, 2, bw, attraction, a-b-db, 9, 3, 1, 12, 195, 120, 120, 195, 114, 186, 3, 9.17165
379, 2, bw, attraction, a-b-da, 9, 1, 1, 13, 135, 60, 60, 135, 129, 57, 2, 12.04
379, 2, bw, attraction, a-b-da, 9, 1, 1, 13, 135, 60, 60, 135, 129, 57, 3, 8.62631
379, 2, bw, attraction, a-b-da, 2, 2, 1, 14, 163, 89, 90, 165, 165, 90, 2, 1.57222
379, 2, bw, attraction, a-b-da, 2, 2, 1, 14, 163, 89, 90, 165, 165, 90, 1, 3.55569
379, 2, bw, attraction, a-b-db, 14, 1, 1, 15, 60, 135, 56, 125, 135, 60, 1, 5.53048
379, 2, bw, attraction, a-b-db, 14, 1, 1, 15, 60, 135, 56, 125, 135, 60, 3, 1.40278
379, 2, bw, attraction, a-b-db, 2, 1, 1, 16, 59, 134, 135, 60, 60, 135, 1, 3.83221
379, 2, bw, attraction, a-b-db, 2, 1, 1, 16, 59, 134, 135, 60, 60, 135, 2, 6.11721
379, 2, bw, catch, NA, 999, 999, 1, 17, 161, 154, 121, 134, 111, 84, 1, 1.65237
379, 2, bw, catch, NA, 999, 999, 1, 17, 161, 154, 121, 134, 111, 84, 3, 0.921241
379, 2, bw, attraction, a-b-da, 14, 3, 1, 18, 181, 111, 195, 120, 120, 195, 3, 3.40222
379, 2, bw, attraction, a-b-da, 14, 3, 1, 18, 181, 111, 195, 120, 120, 195, 1, 3.91241
379, 2, bw, filler, NA, 999, 999, 1, 19, 62, 133, 57, 110, 114, 159, 3, 1.98453
379, 2, bw, filler, NA, 999, 999, 1, 19, 62, 133, 57, 110, 114, 159, 2, 0.623823
379, 2, bw, attraction, a-b-da, 5, 1, 1, 20, 132, 58, 135, 60, 60, 135, 3, 10.2362
379, 2, bw, attraction, a-b-da, 5, 1, 1, 20, 132, 58, 135, 60, 60, 135, 1, 1.19105
379, 2, bw, attraction, a-b-da, 9, 2, 1, 21, 90, 165, 157, 86, 165, 90, 1, 2.21261
379, 2, bw, attraction, a-b-da, 9, 2, 1, 21, 90, 165, 157, 86, 165, 90, 2, 1.90646
379, 2, bw, filler, NA, 999, 999, 1, 22, 87, 177, 79, 59, 69, 166, 1, 1.40317
379, 2, bw, filler, NA, 999, 999, 1, 22, 87, 177, 79, 59, 69, 166, 2, 1.0101
379, 2, bw, attraction, a-b-db, 2, 2, 1, 23, 89, 163, 90, 165, 165, 90, 2, 4.25494
379, 2, bw, attraction, a-b-db, 2, 2, 1, 23, 89, 163, 90, 165, 165, 90, 3, 3.92297
379, 2, bw, attraction, a-b-da, 14, 1, 1, 24, 60, 135, 135, 60, 125, 56, 1, 4.25907
379, 2, bw, attraction, a-b-da, 14, 1, 1, 24, 60, 135, 135, 60, 125, 56, 3, 1.23037
379, 2, bw, attraction, a-b-da, 5, 2, 1, 25, 161, 88, 165, 90, 90, 165, 3, 20.2186
379, 2, bw, attraction, a-b-da, 5, 2, 1, 25, 161, 88, 165, 90, 90, 165, 2, 2.25097
379, 2, bw, attraction, a-b-db, 2, 3, 1, 26, 195, 120, 119, 193, 120, 195, 2, 13.8221
379, 2, bw, attraction, a-b-db, 2, 3, 1, 26, 195, 120, 119, 193, 120, 195, 1, 10.5205
379, 2, bw, filler, NA, 999, 999, 1, 27, 101, 129, 122, 93, 165, 191, 3, 1.65441
379, 2, bw, filler, NA, 999, 999, 1, 27, 101, 129, 122, 93, 165, 191, 2, 1.66665
379, 2, bw, filler, NA, 999, 999, 1, 28, 103, 81, 189, 113, 157, 163, 3, 2.42136
379, 2, bw, filler, NA, 999, 999, 1, 28, 103, 81, 189, 113, 157, 163, 1, 1.14675
379, 2, bw, attraction, a-b-db, 14, 3, 1, 29, 120, 195, 111, 181, 195, 120, 1, 2.44219
379, 2, bw, attraction, a-b-db, 14, 3, 1, 29, 120, 195, 111, 181, 195, 120, 2, 1.0467
379, 2, bw, attraction, a-b-db, 14, 2, 1, 30, 165, 90, 83, 153, 90, 165, 1, 8.58622
379, 2, bw, attraction, a-b-db, 14, 2, 1, 30, 165, 90, 83, 153, 90, 165, 2, 0.311632
379, 2, bw, attraction, a-b-db, 5, 1, 1, 31, 60, 135, 58, 132, 135, 60, 3, 20.1447
379, 2, bw, attraction, a-b-db, 5, 1, 1, 31, 60, 135, 58, 132, 135, 60, 2, 3.61181
379, 2, bw, attraction, a-b-db, 9, 1, 1, 32, 60, 135, 57, 129, 135, 60, 2, 1.99993
379, 2, bw, attraction, a-b-db, 9, 1, 1, 32, 60, 135, 57, 129, 135, 60, 3, 0.878616
379, 2, bw, filler, NA, 999, 999, 1, 33, 136, 131, 157, 153, 62, 141, 2, 1.15289
379, 2, bw, filler, NA, 999, 999, 1, 33, 136, 131, 157, 153, 62, 141, 3, 0.529854
379, 2, bw, filler, NA, 999, 999, 1, 34, 162, 91, 67, 89, 70, 175, 1, 1.61032
379, 2, bw, filler, NA, 999, 999, 1, 34, 162, 91, 67, 89, 70, 175, 2, 0.608366
379, 2, bw, attraction, a-b-db, 9, 2, 1, 35, 90, 165, 86, 157, 165, 90, 1, 2.58951
379, 2, bw, attraction, a-b-db, 9, 2, 1, 35, 90, 165, 86, 157, 165, 90, 2, 2.32403
379, 2, bw, attraction, a-b-da, 2, 3, 1, 36, 193, 119, 195, 120, 120, 195, 3, 19.7159
379, 2, bw, attraction, a-b-da, 2, 3, 1, 36, 193, 119, 195, 120, 120, 195, 2, 2.06439
379, 2, bw, attraction, a-b-da, 2, 1, 1, 37, 134, 59, 60, 135, 135, 60, 2, 3.3232
379, 2, bw, attraction, a-b-da, 2, 1, 1, 37, 134, 59, 60, 135, 135, 60, 1, 1.11595
379, 2, bw, filler, NA, 999, 999, 2, 1, 157, 120, 194, 59, 94, 141, 1, 1.3969
379, 2, bw, filler, NA, 999, 999, 2, 1, 157, 120, 194, 59, 94, 141, 2, 0.643705
379, 2, bw, filler, NA, 999, 999, 2, 2, 87, 188, 99, 156, 107, 174, 3, 1.74358
379, 2, bw, filler, NA, 999, 999, 2, 2, 87, 188, 99, 156, 107, 174, 1, 1.30434
379, 2, bw, attraction, a-b-da, 9, 3, 2, 3, 195, 120, 120, 195, 186, 114, 2, 0.889767
379, 2, bw, attraction, a-b-da, 9, 3, 2, 3, 195, 120, 120, 195, 186, 114, 1, 2.53284
379, 2, bw, attraction, a-b-db, 2, 2, 2, 4, 89, 163, 90, 165, 165, 90, 2, 2.08454
379, 2, bw, attraction, a-b-db, 2, 2, 2, 4, 89, 163, 90, 165, 165, 90, 1, 7.43196
379, 2, bw, attraction, a-b-db, 2, 1, 2, 5, 60, 135, 135, 60, 59, 134, 3, 4.88222
379, 2, bw, attraction, a-b-db, 2, 1, 2, 5, 60, 135, 135, 60, 59, 134, 2, 2.47668
379, 2, bw, attraction, a-b-da, 5, 3, 2, 6, 120, 195, 190, 117, 195, 120, 1, 1.84646
379, 2, bw, attraction, a-b-da, 5, 3, 2, 6, 120, 195, 190, 117, 195, 120, 2, 2.89129
379, 2, bw, attraction, a-b-da, 9, 2, 2, 7, 165, 90, 157, 86, 90, 165, 3, 3.79625
379, 2, bw, attraction, a-b-da, 9, 2, 2, 7, 165, 90, 157, 86, 90, 165, 2, 0.450358
379, 2, bw, attraction, a-b-da, 5, 1, 2, 8, 132, 58, 60, 135, 135, 60, 2, 1.82216
379, 2, bw, attraction, a-b-da, 5, 1, 2, 8, 132, 58, 60, 135, 135, 60, 3, 1.09959
379, 2, bw, attraction, a-b-da, 14, 2, 2, 9, 90, 165, 165, 90, 153, 83, 1, 1.6292
379, 2, bw, attraction, a-b-da, 14, 2, 2, 9, 90, 165, 165, 90, 153, 83, 3, 0.666599
379, 2, bw, attraction, a-b-db, 2, 3, 2, 10, 120, 195, 195, 120, 119, 193, 3, 5.66183
379, 2, bw, attraction, a-b-db, 2, 3, 2, 10, 120, 195, 195, 120, 119, 193, 1, 0.824603
379, 2, bw, filler, NA, 999, 999, 2, 11, 123, 63, 109, 173, 138, 59, 2, 1.9249
379, 2, bw, filler, NA, 999, 999, 2, 11, 123, 63, 109, 173, 138, 59, 1, 1.38231
379, 2, bw, filler, NA, 999, 999, 2, 12, 125, 92, 126, 147, 90, 123, 2, 1.48449
379, 2, bw, filler, NA, 999, 999, 2, 12, 125, 92, 126, 147, 90, 123, 3, 1.25609
379, 2, bw, attraction, a-b-da, 2, 2, 2, 13, 90, 165, 165, 90, 163, 89, 2, 2.88363
379, 2, bw, attraction, a-b-da, 2, 2, 2, 13, 90, 165, 165, 90, 163, 89, 3, 1.15062
379, 2, bw, attraction, a-b-db, 14, 1, 2, 14, 135, 60, 56, 125, 60, 135, 3, 17.3502
379, 2, bw, attraction, a-b-db, 14, 1, 2, 14, 135, 60, 56, 125, 60, 135, 1, 0.906089
379, 2, bw, catch, NA, 999, 999, 2, 15, 116, 139, 133, 62, 192, 123, 3, 3.25105
379, 2, bw, catch, NA, 999, 999, 2, 15, 116, 139, 133, 62, 192, 123, 2, 1.15936
379, 2, bw, attraction, a-b-db, 9, 2, 2, 16, 165, 90, 90, 165, 86, 157, 2, 8.02225
379, 2, bw, attraction, a-b-db, 9, 2, 2, 16, 165, 90, 90, 165, 86, 157, 3, 6.0738
379, 2, bw, filler, NA, 999, 999, 2, 17, 194, 127, 189, 140, 178, 61, 2, 1.38714
379, 2, bw, filler, NA, 999, 999, 2, 17, 194, 127, 189, 140, 178, 61, 3, 0.738042
379, 2, bw, filler, NA, 999, 999, 2, 18, 124, 195, 61, 112, 56, 66, 1, 1.04233
379, 2, bw, filler, NA, 999, 999, 2, 18, 124, 195, 61, 112, 56, 66, 3, 0.799395
379, 2, bw, filler, NA, 999, 999, 2, 19, 108, 191, 77, 176, 85, 78, 1, 1.38114
379, 2, bw, filler, NA, 999, 999, 2, 19, 108, 191, 77, 176, 85, 78, 3, 0.564584
379, 2, bw, catch, NA, 999, 999, 2, 20, 177, 138, 81, 114, 156, 99, 1, 1.86771
379, 2, bw, catch, NA, 999, 999, 2, 20, 177, 138, 81, 114, 156, 99, 2, 0.783782
379, 2, bw, attraction, a-b-da, 14, 3, 2, 21, 120, 195, 195, 120, 181, 111, 1, 10.0381
379, 2, bw, attraction, a-b-da, 14, 3, 2, 21, 120, 195, 195, 120, 181, 111, 3, 0.504878
379, 2, bw, filler, NA, 999, 999, 2, 22, 154, 92, 64, 178, 146, 192, 3, 0.898816
379, 2, bw, filler, NA, 999, 999, 2, 22, 154, 92, 64, 178, 146, 192, 2, 0.429737
379, 2, bw, attraction, a-b-db, 5, 2, 2, 23, 90, 165, 88, 161, 165, 90, 1, 2.61818
379, 2, bw, attraction, a-b-db, 5, 2, 2, 23, 90, 165, 88, 161, 165, 90, 2, 1.45609
379, 2, bw, attraction, a-b-db, 5, 1, 2, 24, 58, 132, 60, 135, 135, 60, 2, 2.15562
379, 2, bw, attraction, a-b-db, 5, 1, 2, 24, 58, 132, 60, 135, 135, 60, 1, 0.395526
379, 2, bw, attraction, a-b-db, 9, 1, 2, 25, 60, 135, 57, 129, 135, 60, 1, 9.29735
379, 2, bw, attraction, a-b-db, 9, 1, 2, 25, 60, 135, 57, 129, 135, 60, 2, 1.42575
379, 2, bw, attraction, a-b-da, 2, 3, 2, 26, 120, 195, 193, 119, 195, 120, 1, 3.54189
379, 2, bw, attraction, a-b-da, 2, 3, 2, 26, 120, 195, 193, 119, 195, 120, 2, 1.56627
379, 2, bw, attraction, a-b-da, 9, 1, 2, 27, 135, 60, 129, 57, 60, 135, 3, 7.74085
379, 2, bw, attraction, a-b-da, 9, 1, 2, 27, 135, 60, 129, 57, 60, 135, 2, 0.387748
379, 2, bw, attraction, a-b-da, 5, 2, 2, 28, 90, 165, 165, 90, 161, 88, 1, 2.69028
379, 2, bw, attraction, a-b-da, 5, 2, 2, 28, 90, 165, 165, 90, 161, 88, 2, 1.9328
379, 2, bw, attraction, a-b-db, 5, 3, 2, 29, 117, 190, 120, 195, 195, 120, 2, 7.53276
379, 2, bw, attraction, a-b-db, 5, 3, 2, 29, 117, 190, 120, 195, 195, 120, 1, 1.84437
379, 2, bw, filler, NA, 999, 999, 2, 30, 184, 97, 75, 70, 105, 126, 1, 1.35983
379, 2, bw, filler, NA, 999, 999, 2, 30, 184, 97, 75, 70, 105, 126, 2, 1.24793
379, 2, bw, attraction, a-b-db, 14, 3, 2, 31, 195, 120, 111, 181, 120, 195, 3, 5.41964
379, 2, bw, attraction, a-b-db, 14, 3, 2, 31, 195, 120, 111, 181, 120, 195, 2, 0.488437
379, 2, bw, attraction, a-b-da, 2, 1, 2, 32, 134, 59, 135, 60, 60, 135, 3, 7.59505
379, 2, bw, attraction, a-b-da, 2, 1, 2, 32, 134, 59, 135, 60, 60, 135, 1, 0.679818
379, 2, bw, attraction, a-b-db, 14, 2, 2, 33, 83, 153, 90, 165, 165, 90, 2, 2.05818
379, 2, bw, attraction, a-b-db, 14, 2, 2, 33, 83, 153, 90, 165, 165, 90, 1, 1.19021
379, 2, bw, catch, NA, 999, 999, 2, 34, 163, 152, 160, 95, 131, 64, 1, 1.45973
379, 2, bw, catch, NA, 999, 999, 2, 34, 163, 152, 160, 95, 131, 64, 3, 0.935923
379, 2, bw, filler, NA, 999, 999, 2, 35, 122, 70, 130, 91, 178, 143, 3, 1.70433
379, 2, bw, filler, NA, 999, 999, 2, 35, 122, 70, 130, 91, 178, 143, 1, 0.762358
379, 2, bw, attraction, a-b-da, 14, 1, 2, 36, 60, 135, 125, 56, 135, 60, 1, 7.11342
379, 2, bw, attraction, a-b-da, 14, 1, 2, 36, 60, 135, 125, 56, 135, 60, 2, 0.657817
379, 2, bw, attraction, a-b-db, 9, 3, 2, 37, 114, 186, 195, 120, 120, 195, 3, 2.75691
379, 2, bw, attraction, a-b-db, 9, 3, 2, 37, 114, 186, 195, 120, 120, 195, 1, 1.15669
379, 2, bw, attraction, a-b-da, 9, 2, 3, 1, 157, 86, 90, 165, 165, 90, 3, 2.52373
379, 2, bw, attraction, a-b-da, 9, 2, 3, 1, 157, 86, 90, 165, 165, 90, 1, 0.692785
379, 2, bw, attraction, a-b-db, 9, 3, 3, 2, 120, 195, 195, 120, 114, 186, 1, 4.25448
379, 2, bw, attraction, a-b-db, 9, 3, 3, 2, 120, 195, 195, 120, 114, 186, 3, 0.498434
379, 2, bw, catch, NA, 999, 999, 3, 3, 108, 147, 114, 81, 160, 155, 3, 0.980233
379, 2, bw, catch, NA, 999, 999, 3, 3, 108, 147, 114, 81, 160, 155, 2, 0.459908
379, 2, bw, filler, NA, 999, 999, 3, 4, 188, 76, 128, 68, 73, 84, 1, 1.13497
379, 2, bw, filler, NA, 999, 999, 3, 4, 188, 76, 128, 68, 73, 84, 3, 0.51271
379, 2, bw, attraction, a-b-da, 14, 3, 3, 5, 181, 111, 120, 195, 195, 120, 3, 1.72981
379, 2, bw, attraction, a-b-da, 14, 3, 3, 5, 181, 111, 120, 195, 195, 120, 1, 0.691351
379, 2, bw, filler, NA, 999, 999, 3, 6, 98, 56, 159, 110, 129, 98, 2, 1.12489
379, 2, bw, filler, NA, 999, 999, 3, 6, 98, 56, 159, 110, 129, 98, 1, 0.606558
379, 2, bw, filler, NA, 999, 999, 3, 7, 71, 170, 161, 68, 157, 131, 3, 1.09963
379, 2, bw, filler, NA, 999, 999, 3, 7, 71, 170, 161, 68, 157, 131, 1, 2.41457
379, 2, bw, attraction, a-b-db, 14, 3, 3, 8, 195, 120, 111, 181, 120, 195, 3, 4.99515
379, 2, bw, attraction, a-b-db, 14, 3, 3, 8, 195, 120, 111, 181, 120, 195, 2, 0.776869
379, 2, bw, catch, NA, 999, 999, 3, 9, 192, 123, 99, 156, 90, 105, 1, 1.23918
379, 2, bw, catch, NA, 999, 999, 3, 9, 192, 123, 99, 156, 90, 105, 3, 0.5321
379, 2, bw, attraction, a-b-db, 9, 2, 3, 10, 90, 165, 165, 90, 86, 157, 1, 4.0607
379, 2, bw, attraction, a-b-db, 9, 2, 3, 10, 90, 165, 165, 90, 86, 157, 3, 0.583922
379, 2, bw, filler, NA, 999, 999, 3, 11, 191, 187, 116, 86, 145, 118, 1, 1.19046
379, 2, bw, filler, NA, 999, 999, 3, 11, 191, 187, 116, 86, 145, 118, 2, 1.00546
379, 2, bw, attraction, a-b-da, 5, 3, 3, 12, 195, 120, 120, 195, 190, 117, 2, 21.043
379, 2, bw, attraction, a-b-da, 5, 3, 3, 12, 195, 120, 120, 195, 190, 117, 3, 1.45039
379, 2, bw, attraction, a-b-db, 9, 1, 3, 13, 135, 60, 57, 129, 60, 135, 3, 3.30983
379, 2, bw, attraction, a-b-db, 9, 1, 3, 13, 135, 60, 57, 129, 60, 135, 1, 0.559422
379, 2, bw, attraction, a-b-da, 5, 2, 3, 14, 90, 165, 165, 90, 161, 88, 2, 2.83858
379, 2, bw, attraction, a-b-da, 5, 2, 3, 14, 90, 165, 165, 90, 161, 88, 1, 2.94696
379, 2, bw, attraction, a-b-db, 2, 3, 3, 15, 120, 195, 119, 193, 195, 120, 2, 1.82604
379, 2, bw, attraction, a-b-db, 2, 3, 3, 15, 120, 195, 119, 193, 195, 120, 1, 1.26339
379, 2, bw, filler, NA, 999, 999, 3, 16, 180, 142, 156, 116, 144, 93, 1, 1.02626
379, 2, bw, filler, NA, 999, 999, 3, 16, 180, 142, 156, 116, 144, 93, 3, 0.791882
379, 2, bw, attraction, a-b-da, 9, 3, 3, 17, 186, 114, 195, 120, 120, 195, 3, 1.15759
379, 2, bw, attraction, a-b-da, 9, 3, 3, 17, 186, 114, 195, 120, 120, 195, 1, 0.73389
379, 2, bw, attraction, a-b-db, 2, 2, 3, 18, 90, 165, 89, 163, 165, 90, 2, 2.2543
379, 2, bw, attraction, a-b-db, 2, 2, 3, 18, 90, 165, 89, 163, 165, 90, 1, 1.23417
379, 2, bw, filler, NA, 999, 999, 3, 19, 57, 114, 103, 100, 147, 138, 3, 0.766415
379, 2, bw, filler, NA, 999, 999, 3, 19, 57, 114, 103, 100, 147, 138, 1, 0.590841
379, 2, bw, attraction, a-b-da, 2, 2, 3, 20, 165, 90, 163, 89, 90, 165, 3, 1.78857
379, 2, bw, attraction, a-b-da, 2, 2, 3, 20, 165, 90, 163, 89, 90, 165, 2, 6.28333
379, 2, bw, attraction, a-b-db, 2, 1, 3, 21, 59, 134, 60, 135, 135, 60, 3, 3.89999
379, 2, bw, attraction, a-b-db, 2, 1, 3, 21, 59, 134, 60, 135, 135, 60, 1, 1.28189
379, 2, bw, filler, NA, 999, 999, 3, 22, 147, 173, 92, 102, 94, 57, 1, 1.53624
379, 2, bw, filler, NA, 999, 999, 3, 22, 147, 173, 92, 102, 94, 57, 3, 0.545788
379, 2, bw, attraction, a-b-da, 5, 1, 3, 23, 132, 58, 60, 135, 135, 60, 3, 4.40959
379, 2, bw, attraction, a-b-da, 5, 1, 3, 23, 132, 58, 60, 135, 135, 60, 2, 1.27889
379, 2, bw, catch, NA, 999, 999, 3, 24, 78, 117, 97, 158, 191, 124, 3, 0.824926
379, 2, bw, catch, NA, 999, 999, 3, 24, 78, 117, 97, 158, 191, 124, 1, 0.358711
379, 2, bw, attraction, a-b-db, 14, 1, 3, 25, 135, 60, 56, 125, 60, 135, 3, 3.29393
379, 2, bw, attraction, a-b-db, 14, 1, 3, 25, 135, 60, 56, 125, 60, 135, 2, 1.46427
379, 2, bw, attraction, a-b-da, 14, 1, 3, 26, 125, 56, 135, 60, 60, 135, 3, 4.43501
379, 2, bw, attraction, a-b-da, 14, 1, 3, 26, 125, 56, 135, 60, 60, 135, 1, 1.27962
379, 2, bw, attraction, a-b-da, 2, 1, 3, 27, 60, 135, 135, 60, 134, 59, 1, 4.36981
379, 2, bw, attraction, a-b-da, 2, 1, 3, 27, 60, 135, 135, 60, 134, 59, 2, 0.633072
379, 2, bw, attraction, a-b-da, 2, 3, 3, 28, 120, 195, 195, 120, 193, 119, 1, 2.04556
379, 2, bw, attraction, a-b-da, 2, 3, 3, 28, 120, 195, 195, 120, 193, 119, 2, 2.8182
379, 2, bw, attraction, a-b-da, 9, 1, 3, 29, 60, 135, 135, 60, 129, 57, 1, 2.91053
379, 2, bw, attraction, a-b-da, 9, 1, 3, 29, 60, 135, 135, 60, 129, 57, 3, 2.48025
379, 2, bw, attraction, a-b-da, 14, 2, 3, 30, 153, 83, 90, 165, 165, 90, 2, 1.69004
379, 2, bw, attraction, a-b-da, 14, 2, 3, 30, 153, 83, 90, 165, 165, 90, 1, 1.08494
379, 2, bw, filler, NA, 999, 999, 3, 31, 65, 184, 135, 168, 160, 97, 2, 0.887136
379, 2, bw, filler, NA, 999, 999, 3, 31, 65, 184, 135, 168, 160, 97, 1, 0.538901
379, 2, bw, attraction, a-b-db, 5, 3, 3, 32, 120, 195, 195, 120, 117, 190, 1, 3.23528
379, 2, bw, attraction, a-b-db, 5, 3, 3, 32, 120, 195, 195, 120, 117, 190, 3, 0.920272
379, 2, bw, attraction, a-b-db, 5, 2, 3, 33, 90, 165, 165, 90, 88, 161, 1, 2.65726
379, 2, bw, attraction, a-b-db, 5, 2, 3, 33, 90, 165, 165, 90, 88, 161, 2, 0.453022
379, 2, bw, filler, NA, 999, 999, 3, 34, 124, 136, 137, 167, 147, 91, 2, 0.91282
379, 2, bw, filler, NA, 999, 999, 3, 34, 124, 136, 137, 167, 147, 91, 3, 0.715225
379, 2, bw, filler, NA, 999, 999, 3, 35, 175, 108, 195, 176, 106, 173, 2, 0.844175
379, 2, bw, filler, NA, 999, 999, 3, 35, 175, 108, 195, 176, 106, 173, 1, 0.417257
379, 2, bw, attraction, a-b-db, 5, 1, 3, 36, 58, 132, 60, 135, 135, 60, 3, 4.5024
379, 2, bw, attraction, a-b-db, 5, 1, 3, 36, 58, 132, 60, 135, 135, 60, 1, 0.336305
379, 2, bw, attraction, a-b-db, 14, 2, 3, 37, 90, 165, 83, 153, 165, 90, 1, 2.36881
379, 2, bw, attraction, a-b-db, 14, 2, 3, 37, 90, 165, 83, 153, 165, 90, 2, 0.864689
379, 2, bw, attraction, a-b-da, 5, 3, 4, 1, 190, 117, 195, 120, 120, 195, 2, 2.83578
379, 2, bw, attraction, a-b-da, 5, 3, 4, 1, 190, 117, 195, 120, 120, 195, 3, 1.45692
379, 2, bw, filler, NA, 999, 999, 4, 2, 125, 61, 69, 115, 70, 108, 2, 2.44371
379, 2, bw, filler, NA, 999, 999, 4, 2, 125, 61, 69, 115, 70, 108, 3, 2.32818
379, 2, bw, attraction, a-b-da, 14, 2, 4, 3, 153, 83, 90, 165, 165, 90, 2, 4.15213
379, 2, bw, attraction, a-b-da, 14, 2, 4, 3, 153, 83, 90, 165, 165, 90, 1, 0.360107
379, 2, bw, attraction, a-b-da, 14, 3, 4, 4, 181, 111, 195, 120, 120, 195, 3, 1.4873
379, 2, bw, attraction, a-b-da, 14, 3, 4, 4, 181, 111, 195, 120, 120, 195, 1, 1.05804
379, 2, bw, filler, NA, 999, 999, 4, 5, 133, 140, 121, 73, 192, 173, 3, 0.781021
379, 2, bw, filler, NA, 999, 999, 4, 5, 133, 140, 121, 73, 192, 173, 2, 0.780693
379, 2, bw, attraction, a-b-da, 2, 1, 4, 6, 134, 59, 60, 135, 135, 60, 2, 3.33114
379, 2, bw, attraction, a-b-da, 2, 1, 4, 6, 134, 59, 60, 135, 135, 60, 1, 0.772027
379, 2, bw, filler, NA, 999, 999, 4, 7, 189, 134, 192, 149, 90, 62, 2, 1.195
379, 2, bw, filler, NA, 999, 999, 4, 7, 189, 134, 192, 149, 90, 62, 3, 0.713977
379, 2, bw, attraction, a-b-da, 9, 3, 4, 8, 186, 114, 120, 195, 195, 120, 2, 2.85912
379, 2, bw, attraction, a-b-da, 9, 3, 4, 8, 186, 114, 120, 195, 195, 120, 1, 0.48675
379, 2, bw, attraction, a-b-da, 2, 3, 4, 9, 120, 195, 193, 119, 195, 120, 1, 2.00929
379, 2, bw, attraction, a-b-da, 2, 3, 4, 9, 120, 195, 193, 119, 195, 120, 2, 0.903425
379, 2, bw, attraction, a-b-db, 5, 3, 4, 10, 117, 190, 195, 120, 120, 195, 3, 3.76899
379, 2, bw, attraction, a-b-db, 5, 3, 4, 10, 117, 190, 195, 120, 120, 195, 1, 0.73638
379, 2, bw, attraction, a-b-db, 2, 1, 4, 11, 59, 134, 60, 135, 135, 60, 2, 2.72079
379, 2, bw, attraction, a-b-db, 2, 1, 4, 11, 59, 134, 60, 135, 135, 60, 1, 0.58588
379, 2, bw, attraction, a-b-db, 5, 1, 4, 12, 60, 135, 135, 60, 58, 132, 3, 2.9444
379, 2, bw, attraction, a-b-db, 5, 1, 4, 12, 60, 135, 135, 60, 58, 132, 2, 1.00075
379, 2, bw, attraction, a-b-db, 2, 2, 4, 13, 89, 163, 90, 165, 165, 90, 2, 2.83042
379, 2, bw, attraction, a-b-db, 2, 2, 4, 13, 89, 163, 90, 165, 165, 90, 1, 0.467444
379, 2, bw, catch, NA, 999, 999, 4, 14, 173, 142, 105, 150, 115, 80, 1, 1.55859
379, 2, bw, catch, NA, 999, 999, 4, 14, 173, 142, 105, 150, 115, 80, 3, 0.734746
379, 2, bw, attraction, a-b-db, 14, 2, 4, 15, 83, 153, 90, 165, 165, 90, 2, 2.55119
379, 2, bw, attraction, a-b-db, 14, 2, 4, 15, 83, 153, 90, 165, 165, 90, 1, 0.575535
379, 2, bw, filler, NA, 999, 999, 4, 16, 67, 118, 103, 86, 174, 138, 3, 1.11002
379, 2, bw, filler, NA, 999, 999, 4, 16, 67, 118, 103, 86, 174, 138, 1, 1.39233
379, 2, bw, attraction, a-b-da, 9, 2, 4, 17, 165, 90, 90, 165, 157, 86, 2, 2.38994
379, 2, bw, attraction, a-b-da, 9, 2, 4, 17, 165, 90, 90, 165, 157, 86, 3, 2.56452
379, 2, bw, attraction, a-b-db, 9, 3, 4, 18, 114, 186, 120, 195, 195, 120, 2, 3.18695
379, 2, bw, attraction, a-b-db, 9, 3, 4, 18, 114, 186, 120, 195, 195, 120, 3, 0.457879
379, 2, bw, filler, NA, 999, 999, 4, 19, 130, 177, 194, 148, 111, 103, 2, 0.940969
379, 2, bw, filler, NA, 999, 999, 4, 19, 130, 177, 194, 148, 111, 103, 3, 0.645994
379, 2, bw, attraction, a-b-da, 9, 1, 4, 20, 129, 57, 135, 60, 60, 135, 3, 4.51384
379, 2, bw, attraction, a-b-da, 9, 1, 4, 20, 129, 57, 135, 60, 60, 135, 1, 3.35511
379, 2, bw, attraction, a-b-da, 2, 2, 4, 21, 165, 90, 163, 89, 90, 165, 3, 4.18591
379, 2, bw, attraction, a-b-da, 2, 2, 4, 21, 165, 90, 163, 89, 90, 165, 2, 2.52861
379, 2, bw, catch, NA, 999, 999, 4, 22, 130, 125, 91, 104, 177, 138, 3, 0.776239
379, 2, bw, catch, NA, 999, 999, 4, 22, 130, 125, 91, 104, 177, 138, 2, 0.752014
379, 2, bw, attraction, a-b-db, 9, 2, 4, 23, 90, 165, 86, 157, 165, 90, 1, 9.31179
379, 2, bw, attraction, a-b-db, 9, 2, 4, 23, 90, 165, 86, 157, 165, 90, 2, 1.05545
379, 2, bw, attraction, a-b-db, 14, 3, 4, 24, 111, 181, 195, 120, 120, 195, 2, 2.56304
379, 2, bw, attraction, a-b-db, 14, 3, 4, 24, 111, 181, 195, 120, 120, 195, 1, 0.434912
379, 2, bw, attraction, a-b-db, 5, 2, 4, 25, 165, 90, 90, 165, 88, 161, 2, 1.99947
379, 2, bw, attraction, a-b-db, 5, 2, 4, 25, 165, 90, 90, 165, 88, 161, 3, 1.85412
379, 2, bw, attraction, a-b-db, 2, 3, 4, 26, 120, 195, 119, 193, 195, 120, 2, 9.90555
379, 2, bw, attraction, a-b-db, 2, 3, 4, 26, 120, 195, 119, 193, 195, 120, 1, 0.393689
379, 2, bw, catch, NA, 999, 999, 4, 27, 74, 121, 135, 120, 169, 146, 3, 0.839464
379, 2, bw, catch, NA, 999, 999, 4, 27, 74, 121, 135, 120, 169, 146, 1, 0.3565
379, 2, bw, filler, NA, 999, 999, 4, 28, 133, 94, 158, 145, 84, 63, 2, 0.827754
379, 2, bw, filler, NA, 999, 999, 4, 28, 133, 94, 158, 145, 84, 63, 3, 0.450323
379, 2, bw, attraction, a-b-da, 14, 1, 4, 29, 60, 135, 125, 56, 135, 60, 1, 3.54933
379, 2, bw, attraction, a-b-da, 14, 1, 4, 29, 60, 135, 125, 56, 135, 60, 2, 0.373408
379, 2, bw, filler, NA, 999, 999, 4, 30, 60, 143, 113, 153, 147, 146, 3, 0.859865
379, 2, bw, filler, NA, 999, 999, 4, 30, 60, 143, 113, 153, 147, 146, 1, 0.280278
379, 2, bw, filler, NA, 999, 999, 4, 31, 170, 81, 87, 128, 176, 186, 3, 0.770802
379, 2, bw, filler, NA, 999, 999, 4, 31, 170, 81, 87, 128, 176, 186, 2, 2.05058
379, 2, bw, attraction, a-b-da, 5, 1, 4, 32, 60, 135, 132, 58, 135, 60, 1, 15.5898
379, 2, bw, attraction, a-b-da, 5, 1, 4, 32, 60, 135, 132, 58, 135, 60, 2, 1.35297
379, 2, bw, attraction, a-b-db, 14, 1, 4, 33, 135, 60, 56, 125, 60, 135, 3, 4.9765
379, 2, bw, attraction, a-b-db, 14, 1, 4, 33, 135, 60, 56, 125, 60, 135, 2, 0.766837
379, 2, bw, filler, NA, 999, 999, 4, 34, 119, 57, 194, 68, 151, 167, 3, 1.00606
379, 2, bw, filler, NA, 999, 999, 4, 34, 119, 57, 194, 68, 151, 167, 1, 1.82027
379, 2, bw, attraction, a-b-da, 5, 2, 4, 35, 165, 90, 90, 165, 161, 88, 2, 1.241
379, 2, bw, attraction, a-b-da, 5, 2, 4, 35, 165, 90, 90, 165, 161, 88, 3, 3.77389
379, 2, bw, filler, NA, 999, 999, 4, 36, 154, 129, 69, 84, 152, 175, 3, 1.04401
379, 2, bw, filler, NA, 999, 999, 4, 36, 154, 129, 69, 84, 152, 175, 2, 0.968902
379, 2, bw, attraction, a-b-db, 9, 1, 4, 37, 135, 60, 60, 135, 57, 129, 2, 1.49594
379, 2, bw, attraction, a-b-db, 9, 1, 4, 37, 135, 60, 60, 135, 57, 129, 3, 1.44278
379, 2, bw, attraction, a-b-db, 5, 3, 5, 1, 195, 120, 117, 190, 120, 195, 2, 25.0608
379, 2, bw, attraction, a-b-db, 5, 3, 5, 1, 195, 120, 117, 190, 120, 195, 1, 2.43443
379, 2, bw, attraction, a-b-da, 2, 2, 5, 2, 165, 90, 90, 165, 163, 89, 2, 3.43823
379, 2, bw, attraction, a-b-da, 2, 2, 5, 2, 165, 90, 90, 165, 163, 89, 3, 3.03538
379, 2, bw, attraction, a-b-db, 5, 2, 5, 3, 165, 90, 90, 165, 88, 161, 2, 3.18283
379, 2, bw, attraction, a-b-db, 5, 2, 5, 3, 165, 90, 90, 165, 88, 161, 3, 4.19777
379, 2, bw, filler, NA, 999, 999, 5, 4, 65, 146, 153, 150, 121, 106, 2, 2.08236
379, 2, bw, filler, NA, 999, 999, 5, 4, 65, 146, 153, 150, 121, 106, 1, 2.65366
379, 2, bw, attraction, a-b-da, 2, 3, 5, 5, 195, 120, 193, 119, 120, 195, 3, 3.95281
379, 2, bw, attraction, a-b-da, 2, 3, 5, 5, 195, 120, 193, 119, 120, 195, 2, 3.03304
379, 2, bw, attraction, a-b-da, 5, 3, 5, 6, 195, 120, 190, 117, 120, 195, 3, 3.30851
379, 2, bw, attraction, a-b-da, 5, 3, 5, 6, 195, 120, 190, 117, 120, 195, 2, 2.6623
379, 2, bw, attraction, a-b-db, 9, 2, 5, 7, 90, 165, 165, 90, 86, 157, 1, 2.8647
379, 2, bw, attraction, a-b-db, 9, 2, 5, 7, 90, 165, 165, 90, 86, 157, 3, 3.29244
379, 2, bw, filler, NA, 999, 999, 5, 8, 162, 129, 63, 155, 60, 170, 1, 7.14128
379, 2, bw, filler, NA, 999, 999, 5, 8, 162, 129, 63, 155, 60, 170, 3, 3.18045
379, 2, bw, attraction, a-b-da, 5, 2, 5, 9, 165, 90, 161, 88, 90, 165, 2, 4.87393
379, 2, bw, attraction, a-b-da, 5, 2, 5, 9, 165, 90, 161, 88, 90, 165, 1, 2.33238
379, 2, bw, attraction, a-b-db, 2, 2, 5, 10, 89, 163, 165, 90, 90, 165, 3, 2.64437
379, 2, bw, attraction, a-b-db, 2, 2, 5, 10, 89, 163, 165, 90, 90, 165, 2, 2.47279
379, 2, bw, filler, NA, 999, 999, 5, 11, 63, 176, 68, 58, 139, 169, 3, 1.70729
379, 2, bw, filler, NA, 999, 999, 5, 11, 63, 176, 68, 58, 139, 169, 2, 1.82141
379, 2, bw, attraction, a-b-da, 14, 1, 5, 12, 135, 60, 60, 135, 125, 56, 2, 3.33807
379, 2, bw, attraction, a-b-da, 14, 1, 5, 12, 135, 60, 60, 135, 125, 56, 3, 2.27432
379, 2, bw, attraction, a-b-da, 5, 1, 5, 13, 60, 135, 135, 60, 132, 58, 1, 4.74033
379, 2, bw, attraction, a-b-da, 5, 1, 5, 13, 60, 135, 135, 60, 132, 58, 3, 1.91601
379, 2, bw, attraction, a-b-da, 2, 1, 5, 14, 134, 59, 60, 135, 135, 60, 2, 2.34876
379, 2, bw, attraction, a-b-da, 2, 1, 5, 14, 134, 59, 60, 135, 135, 60, 1, 2.8373
379, 2, bw, filler, NA, 999, 999, 5, 15, 156, 86, 170, 141, 169, 159, 2, 2.09702
379, 2, bw, filler, NA, 999, 999, 5, 15, 156, 86, 170, 141, 169, 159, 1, 1.63585
379, 2, bw, attraction, a-b-db, 14, 3, 5, 16, 195, 120, 120, 195, 111, 181, 2, 6.57592
379, 2, bw, attraction, a-b-db, 14, 3, 5, 16, 195, 120, 120, 195, 111, 181, 3, 2.5337
379, 2, bw, attraction, a-b-db, 14, 2, 5, 17, 165, 90, 90, 165, 83, 153, 2, 5.66945
379, 2, bw, attraction, a-b-db, 14, 2, 5, 17, 165, 90, 90, 165, 83, 153, 3, 2.08035
379, 2, bw, attraction, a-b-db, 5, 1, 5, 18, 60, 135, 135, 60, 58, 132, 1, 3.68227
379, 2, bw, attraction, a-b-db, 5, 1, 5, 18, 60, 135, 135, 60, 58, 132, 2, 1.74132
379, 2, bw, filler, NA, 999, 999, 5, 19, 121, 129, 108, 93, 98, 170, 1, 1.50051
379, 2, bw, filler, NA, 999, 999, 5, 19, 121, 129, 108, 93, 98, 170, 2, 1.72752
379, 2, bw, filler, NA, 999, 999, 5, 20, 122, 181, 177, 60, 184, 99, 1, 1.24743
379, 2, bw, filler, NA, 999, 999, 5, 20, 122, 181, 177, 60, 184, 99, 2, 2.40434
379, 2, bw, catch, NA, 999, 999, 5, 21, 148, 167, 102, 93, 128, 127, 1, 1.46553
379, 2, bw, catch, NA, 999, 999, 5, 21, 148, 167, 102, 93, 128, 127, 2, 2.02178
379, 2, bw, attraction, a-b-da, 14, 2, 5, 22, 90, 165, 165, 90, 153, 83, 1, 1.37846
379, 2, bw, attraction, a-b-da, 14, 2, 5, 22, 90, 165, 165, 90, 153, 83, 3, 1.322
379, 2, bw, attraction, a-b-db, 2, 1, 5, 23, 59, 134, 60, 135, 135, 60, 1, 7.97874
379, 2, bw, attraction, a-b-db, 2, 1, 5, 23, 59, 134, 60, 135, 135, 60, 2, 1.85624
379, 2, bw, filler, NA, 999, 999, 5, 24, 56, 181, 121, 93, 164, 152, 3, 2.09964
379, 2, bw, filler, NA, 999, 999, 5, 24, 56, 181, 121, 93, 164, 152, 1, 3.17514
379, 2, bw, filler, NA, 999, 999, 5, 25, 114, 81, 95, 68, 112, 92, 1, 4.31585
379, 2, bw, filler, NA, 999, 999, 5, 25, 114, 81, 95, 68, 112, 92, 2, 1.24533
379, 2, bw, attraction, a-b-db, 14, 1, 5, 26, 56, 125, 60, 135, 135, 60, 2, 1.7207
379, 2, bw, attraction, a-b-db, 14, 1, 5, 26, 56, 125, 60, 135, 135, 60, 1, 1.21018
379, 2, bw, attraction, a-b-db, 9, 3, 5, 27, 114, 186, 195, 120, 120, 195, 3, 3.85512
379, 2, bw, attraction, a-b-db, 9, 3, 5, 27, 114, 186, 195, 120, 120, 195, 1, 2.74654
379, 2, bw, attraction, a-b-da, 9, 1, 5, 28, 60, 135, 129, 57, 135, 60, 3, 4.28173
379, 2, bw, attraction, a-b-da, 9, 1, 5, 28, 60, 135, 129, 57, 135, 60, 2, 1.42823
379, 2, bw, catch, NA, 999, 999, 5, 29, 99, 96, 156, 99, 131, 184, 3, 1.76847
379, 2, bw, catch, NA, 999, 999, 5, 29, 99, 96, 156, 99, 131, 184, 1, 1.87258
379, 2, bw, attraction, a-b-db, 2, 3, 5, 30, 120, 195, 195, 120, 119, 193, 1, 4.66718
379, 2, bw, attraction, a-b-db, 2, 3, 5, 30, 120, 195, 195, 120, 119, 193, 3, 5.36632
379, 2, bw, catch, NA, 999, 999, 5, 31, 127, 68, 164, 91, 191, 124, 3, 1.55615
379, 2, bw, catch, NA, 999, 999, 5, 31, 127, 68, 164, 91, 191, 124, 1, 1.09205
379, 2, bw, attraction, a-b-db, 9, 1, 5, 32, 135, 60, 60, 135, 57, 129, 3, 6.01377
379, 2, bw, attraction, a-b-db, 9, 1, 5, 32, 135, 60, 60, 135, 57, 129, 1, 1.65044
379, 2, bw, filler, NA, 999, 999, 5, 33, 172, 65, 121, 137, 133, 92, 2, 2.38192
379, 2, bw, filler, NA, 999, 999, 5, 33, 172, 65, 121, 137, 133, 92, 1, 2.77327
379, 2, bw, attraction, a-b-da, 9, 2, 5, 34, 165, 90, 157, 86, 90, 165, 3, 4.12286
379, 2, bw, attraction, a-b-da, 9, 2, 5, 34, 165, 90, 157, 86, 90, 165, 2, 1.3636
379, 2, bw, attraction, a-b-da, 14, 3, 5, 35, 181, 111, 195, 120, 120, 195, 3, 16.9304
379, 2, bw, attraction, a-b-da, 14, 3, 5, 35, 181, 111, 195, 120, 120, 195, 1, 2.31924
379, 2, bw, filler, NA, 999, 999, 5, 36, 168, 73, 77, 156, 156, 61, 2, 2.23965
379, 2, bw, filler, NA, 999, 999, 5, 36, 168, 73, 77, 156, 156, 61, 3, 1.6844
379, 2, bw, attraction, a-b-da, 9, 3, 5, 37, 195, 120, 120, 195, 186, 114, 2, 2.7265
379, 2, bw, attraction, a-b-da, 9, 3, 5, 37, 195, 120, 120, 195, 186, 114, 3, 1.85554
379, 2, bw, filler, NA, 999, 999, 6, 1, 170, 112, 160, 88, 144, 118, 1, 1.4268
379, 2, bw, filler, NA, 999, 999, 6, 1, 170, 112, 160, 88, 144, 118, 2, 1.59235
379, 2, bw, filler, NA, 999, 999, 6, 2, 180, 178, 88, 103, 113, 105, 1, 1.18184
379, 2, bw, filler, NA, 999, 999, 6, 2, 180, 178, 88, 103, 113, 105, 2, 1.99733
379, 2, bw, catch, NA, 999, 999, 6, 3, 137, 118, 81, 114, 151, 164, 3, 1.21063
379, 2, bw, catch, NA, 999, 999, 6, 3, 137, 118, 81, 114, 151, 164, 2, 1.61695
379, 2, bw, attraction, a-b-da, 5, 3, 6, 4, 195, 120, 120, 195, 190, 117, 1, 3.50164
379, 2, bw, attraction, a-b-da, 5, 3, 6, 4, 195, 120, 120, 195, 190, 117, 3, 3.07999
379, 2, bw, attraction, a-b-da, 2, 3, 6, 5, 193, 119, 120, 195, 195, 120, 3, 5.22562
379, 2, bw, attraction, a-b-da, 2, 3, 6, 5, 193, 119, 120, 195, 195, 120, 1, 0.733896
379, 2, bw, attraction, a-b-da, 9, 2, 6, 6, 165, 90, 90, 165, 157, 86, 1, 5.34232
379, 2, bw, attraction, a-b-da, 9, 2, 6, 6, 165, 90, 90, 165, 157, 86, 3, 1.52589
379, 2, bw, attraction, a-b-da, 2, 1, 6, 7, 135, 60, 60, 135, 134, 59, 2, 4.71004
379, 2, bw, attraction, a-b-da, 2, 1, 6, 7, 135, 60, 60, 135, 134, 59, 3, 1.92729
379, 2, bw, attraction, a-b-da, 9, 1, 6, 8, 60, 135, 129, 57, 135, 60, 1, 42.3752
379, 2, bw, attraction, a-b-da, 9, 1, 6, 8, 60, 135, 129, 57, 135, 60, 2, 0.738625
379, 2, bw, attraction, a-b-db, 2, 3, 6, 9, 119, 193, 195, 120, 120, 195, 1, 6.77907
379, 2, bw, attraction, a-b-db, 2, 3, 6, 9, 119, 193, 195, 120, 120, 195, 2, 2.3129
379, 2, bw, attraction, a-b-db, 5, 2, 6, 10, 165, 90, 90, 165, 88, 161, 2, 2.66546
379, 2, bw, attraction, a-b-db, 5, 2, 6, 10, 165, 90, 90, 165, 88, 161, 3, 1.14919
379, 2, bw, attraction, a-b-da, 14, 2, 6, 11, 165, 90, 153, 83, 90, 165, 3, 2.51679
379, 2, bw, attraction, a-b-da, 14, 2, 6, 11, 165, 90, 153, 83, 90, 165, 2, 1.45481
379, 2, bw, attraction, a-b-db, 14, 2, 6, 12, 83, 153, 90, 165, 165, 90, 2, 1.72215
379, 2, bw, attraction, a-b-db, 14, 2, 6, 12, 83, 153, 90, 165, 165, 90, 1, 0.979534
379, 2, bw, filler, NA, 999, 999, 6, 13, 159, 180, 131, 80, 155, 154, 1, 0.923927
379, 2, bw, filler, NA, 999, 999, 6, 13, 159, 180, 131, 80, 155, 154, 2, 0.683516
379, 2, bw, attraction, a-b-da, 5, 1, 6, 14, 60, 135, 135, 60, 132, 58, 1, 3.17408
379, 2, bw, attraction, a-b-da, 5, 1, 6, 14, 60, 135, 135, 60, 132, 58, 3, 1.18089
379, 2, bw, attraction, a-b-db, 14, 1, 6, 15, 60, 135, 56, 125, 135, 60, 1, 2.22713
379, 2, bw, attraction, a-b-db, 14, 1, 6, 15, 60, 135, 56, 125, 135, 60, 2, 1.63253
379, 2, bw, filler, NA, 999, 999, 6, 16, 117, 128, 177, 69, 166, 74, 1, 4.67667
379, 2, bw, filler, NA, 999, 999, 6, 16, 117, 128, 177, 69, 166, 74, 3, 0.767057
379, 2, bw, attraction, a-b-db, 9, 2, 6, 17, 165, 90, 90, 165, 86, 157, 2, 2.95822
379, 2, bw, attraction, a-b-db, 9, 2, 6, 17, 165, 90, 90, 165, 86, 157, 3, 2.61385
379, 2, bw, attraction, a-b-db, 5, 1, 6, 18, 135, 60, 58, 132, 60, 135, 2, 19.5623
379, 2, bw, attraction, a-b-db, 5, 1, 6, 18, 135, 60, 58, 132, 60, 135, 3, 0.476738
379, 2, bw, filler, NA, 999, 999, 6, 19, 115, 133, 112, 60, 185, 89, 1, 1.00725
379, 2, bw, filler, NA, 999, 999, 6, 19, 115, 133, 112, 60, 185, 89, 2, 0.581599
379, 2, bw, filler, NA, 999, 999, 6, 20, 131, 78, 119, 141, 138, 79, 2, 1.21998
379, 2, bw, filler, NA, 999, 999, 6, 20, 131, 78, 119, 141, 138, 79, 1, 2.25034
379, 2, bw, attraction, a-b-db, 9, 3, 6, 21, 195, 120, 114, 186, 120, 195, 3, 6.82151
379, 2, bw, attraction, a-b-db, 9, 3, 6, 21, 195, 120, 114, 186, 120, 195, 2, 0.577336
379, 2, bw, attraction, a-b-da, 14, 1, 6, 22, 125, 56, 60, 135, 135, 60, 2, 1.43175
379, 2, bw, attraction, a-b-da, 14, 1, 6, 22, 125, 56, 60, 135, 135, 60, 1, 0.437221
379, 2, bw, filler, NA, 999, 999, 6, 23, 141, 155, 106, 164, 164, 106, 1, 3.76178
379, 2, bw, filler, NA, 999, 999, 6, 23, 141, 155, 106, 164, 164, 106, 3, 0.713376
379, 2, bw, attraction, a-b-db, 9, 1, 6, 24, 135, 60, 60, 135, 57, 129, 2, 2.19434
379, 2, bw, attraction, a-b-db, 9, 1, 6, 24, 135, 60, 60, 135, 57, 129, 3, 0.616869
379, 2, bw, attraction, a-b-db, 14, 3, 6, 25, 111, 181, 195, 120, 120, 195, 3, 1.75801
379, 2, bw, attraction, a-b-db, 14, 3, 6, 25, 111, 181, 195, 120, 120, 195, 1, 0.374011
379, 2, bw, attraction, a-b-db, 2, 1, 6, 26, 135, 60, 60, 135, 59, 134, 2, 2.44458
379, 2, bw, attraction, a-b-db, 2, 1, 6, 26, 135, 60, 60, 135, 59, 134, 3, 0.505105
379, 2, bw, attraction, a-b-da, 5, 2, 6, 27, 165, 90, 161, 88, 90, 165, 3, 2.34692
379, 2, bw, attraction, a-b-da, 5, 2, 6, 27, 165, 90, 161, 88, 90, 165, 2, 1.2835
379, 2, bw, filler, NA, 999, 999, 6, 28, 107, 189, 142, 189, 177, 65, 2, 1.10984
379, 2, bw, filler, NA, 999, 999, 6, 28, 107, 189, 142, 189, 177, 65, 3, 0.871959
379, 2, bw, attraction, a-b-da, 2, 2, 6, 29, 90, 165, 163, 89, 165, 90, 3, 10.987
379, 2, bw, attraction, a-b-da, 2, 2, 6, 29, 90, 165, 163, 89, 165, 90, 1, 1.2155
379, 2, bw, attraction, a-b-db, 5, 3, 6, 30, 117, 190, 195, 120, 120, 195, 2, 2.16441
379, 2, bw, attraction, a-b-db, 5, 3, 6, 30, 117, 190, 195, 120, 120, 195, 1, 0.732402
379, 2, bw, filler, NA, 999, 999, 6, 31, 100, 90, 77, 151, 82, 137, 2, 13.2368
379, 2, bw, filler, NA, 999, 999, 6, 31, 100, 90, 77, 151, 82, 137, 1, 0.374531
379, 2, bw, attraction, a-b-db, 2, 2, 6, 32, 89, 163, 165, 90, 90, 165, 3, 20.6371
379, 2, bw, attraction, a-b-db, 2, 2, 6, 32, 89, 163, 165, 90, 90, 165, 1, 0.844528
379, 2, bw, attraction, a-b-da, 9, 3, 6, 33, 195, 120, 186, 114, 120, 195, 3, 1.9443
379, 2, bw, attraction, a-b-da, 9, 3, 6, 33, 195, 120, 186, 114, 120, 195, 2, 1.38508
379, 2, bw, catch, NA, 999, 999, 6, 34, 127, 68, 159, 156, 122, 133, 2, 0.887189
379, 2, bw, catch, NA, 999, 999, 6, 34, 127, 68, 159, 156, 122, 133, 1, 0.754316
379, 2, bw, attraction, a-b-da, 14, 3, 6, 35, 181, 111, 195, 120, 120, 195, 3, 23.562
379, 2, bw, attraction, a-b-da, 14, 3, 6, 35, 181, 111, 195, 120, 120, 195, 1, 1.82721
379, 2, bw, filler, NA, 999, 999, 6, 36, 188, 121, 78, 115, 72, 128, 1, 2.08732
379, 2, bw, filler, NA, 999, 999, 6, 36, 188, 121, 78, 115, 72, 128, 3, 1.19454
379, 2, bw, catch, NA, 999, 999, 6, 37, 122, 133, 79, 116, 169, 146, 3, 1.42422
379, 2, bw, catch, NA, 999, 999, 6, 37, 122, 133, 79, 116, 169, 146, 2, 1.90182
379, 2, bw, attraction, a-b-da, 2, 3, 7, 1, 193, 119, 120, 195, 195, 120, 2, 4.31908
379, 2, bw, attraction, a-b-da, 2, 3, 7, 1, 193, 119, 120, 195, 195, 120, 3, 2.63236
379, 2, bw, filler, NA, 999, 999, 7, 2, 143, 59, 141, 111, 83, 91, 2, 1.62807
379, 2, bw, filler, NA, 999, 999, 7, 2, 143, 59, 141, 111, 83, 91, 3, 2.05753
379, 2, bw, attraction, a-b-da, 9, 1, 7, 3, 129, 57, 135, 60, 60, 135, 3, 2.78025
379, 2, bw, attraction, a-b-da, 9, 1, 7, 3, 129, 57, 135, 60, 60, 135, 1, 1.36327
379, 2, bw, attraction, a-b-da, 14, 1, 7, 4, 135, 60, 125, 56, 60, 135, 1, 3.0662
379, 2, bw, attraction, a-b-da, 14, 1, 7, 4, 135, 60, 125, 56, 60, 135, 2, 1.91792
379, 2, bw, attraction, a-b-db, 9, 2, 7, 5, 90, 165, 165, 90, 86, 157, 1, 3.79053
379, 2, bw, attraction, a-b-db, 9, 2, 7, 5, 90, 165, 165, 90, 86, 157, 3, 1.58056
379, 2, bw, attraction, a-b-da, 9, 3, 7, 6, 186, 114, 120, 195, 195, 120, 2, 1.93877
379, 2, bw, attraction, a-b-da, 9, 3, 7, 6, 186, 114, 120, 195, 195, 120, 1, 2.05146
379, 2, bw, filler, NA, 999, 999, 7, 7, 87, 117, 119, 89, 162, 104, 3, 2.40677
379, 2, bw, filler, NA, 999, 999, 7, 7, 87, 117, 119, 89, 162, 104, 1, 1.76456
379, 2, bw, filler, NA, 999, 999, 7, 8, 142, 192, 56, 173, 183, 154, 1, 4.62742
379, 2, bw, filler, NA, 999, 999, 7, 8, 142, 192, 56, 173, 183, 154, 2, 0.791861
379, 2, bw, attraction, a-b-db, 5, 3, 7, 9, 117, 190, 120, 195, 195, 120, 2, 30.2696
379, 2, bw, attraction, a-b-db, 5, 3, 7, 9, 117, 190, 120, 195, 195, 120, 1, 1.48875
379, 2, bw, attraction, a-b-da, 5, 3, 7, 10, 120, 195, 195, 120, 190, 117, 2, 3.29093
379, 2, bw, attraction, a-b-da, 5, 3, 7, 10, 120, 195, 195, 120, 190, 117, 3, 2.33321
379, 2, bw, attraction, a-b-db, 5, 1, 7, 11, 60, 135, 135, 60, 58, 132, 1, 1.77307
379, 2, bw, attraction, a-b-db, 5, 1, 7, 11, 60, 135, 135, 60, 58, 132, 2, 0.988442
379, 2, bw, attraction, a-b-db, 9, 1, 7, 12, 57, 129, 135, 60, 60, 135, 3, 1.54679
379, 2, bw, attraction, a-b-db, 9, 1, 7, 12, 57, 129, 135, 60, 60, 135, 1, 1.08359
379, 2, bw, attraction, a-b-db, 14, 1, 7, 13, 135, 60, 56, 125, 60, 135, 3, 2.15789
379, 2, bw, attraction, a-b-db, 14, 1, 7, 13, 135, 60, 56, 125, 60, 135, 2, 1.18996
379, 2, bw, attraction, a-b-da, 9, 2, 7, 14, 165, 90, 157, 86, 90, 165, 3, 2.92337
379, 2, bw, attraction, a-b-da, 9, 2, 7, 14, 165, 90, 157, 86, 90, 165, 2, 1.22861
379, 2, bw, attraction, a-b-db, 14, 3, 7, 15, 120, 195, 195, 120, 111, 181, 1, 7.52872
379, 2, bw, attraction, a-b-db, 14, 3, 7, 15, 120, 195, 195, 120, 111, 181, 3, 2.04845
379, 2, bw, filler, NA, 999, 999, 7, 16, 57, 143, 142, 94, 85, 173, 2, 2.00361
379, 2, bw, filler, NA, 999, 999, 7, 16, 57, 143, 142, 94, 85, 173, 1, 1.00952
379, 2, bw, catch, NA, 999, 999, 7, 17, 81, 114, 193, 122, 99, 156, 2, 0.990533
379, 2, bw, catch, NA, 999, 999, 7, 17, 81, 114, 193, 122, 99, 156, 1, 0.549537
379, 2, bw, attraction, a-b-db, 2, 3, 7, 18, 120, 195, 195, 120, 119, 193, 3, 3.21332
379, 2, bw, attraction, a-b-db, 2, 3, 7, 18, 120, 195, 195, 120, 119, 193, 2, 1.21898
379, 2, bw, attraction, a-b-da, 5, 1, 7, 19, 60, 135, 135, 60, 132, 58, 1, 4.16797
379, 2, bw, attraction, a-b-da, 5, 1, 7, 19, 60, 135, 135, 60, 132, 58, 3, 0.527293
379, 2, bw, attraction, a-b-da, 2, 1, 7, 20, 134, 59, 60, 135, 135, 60, 2, 2.19974
379, 2, bw, attraction, a-b-da, 2, 1, 7, 20, 134, 59, 60, 135, 135, 60, 1, 0.558271
379, 2, bw, attraction, a-b-db, 5, 2, 7, 21, 90, 165, 88, 161, 165, 90, 2, 2.16536
379, 2, bw, attraction, a-b-db, 5, 2, 7, 21, 90, 165, 88, 161, 165, 90, 1, 2.30929
379, 2, bw, attraction, a-b-da, 2, 2, 7, 22, 90, 165, 163, 89, 165, 90, 1, 4.02978
379, 2, bw, attraction, a-b-da, 2, 2, 7, 22, 90, 165, 163, 89, 165, 90, 2, 1.48252
379, 2, bw, filler, NA, 999, 999, 7, 23, 131, 61, 153, 66, 121, 67, 2, 1.95668
379, 2, bw, filler, NA, 999, 999, 7, 23, 131, 61, 153, 66, 121, 67, 1, 2.14085
379, 2, bw, attraction, a-b-db, 2, 1, 7, 24, 60, 135, 59, 134, 135, 60, 2, 1.6761
379, 2, bw, attraction, a-b-db, 2, 1, 7, 24, 60, 135, 59, 134, 135, 60, 3, 3.9755
379, 2, bw, catch, NA, 999, 999, 7, 25, 124, 71, 165, 90, 138, 177, 3, 0.908796
379, 2, bw, catch, NA, 999, 999, 7, 25, 124, 71, 165, 90, 138, 177, 1, 0.463158
379, 2, bw, filler, NA, 999, 999, 7, 26, 102, 78, 170, 117, 149, 152, 3, 14.7543
379, 2, bw, filler, NA, 999, 999, 7, 26, 102, 78, 170, 117, 149, 152, 1, 0.598957
379, 2, bw, attraction, a-b-da, 14, 3, 7, 27, 120, 195, 195, 120, 181, 111, 1, 3.01276
379, 2, bw, attraction, a-b-da, 14, 3, 7, 27, 120, 195, 195, 120, 181, 111, 3, 0.770421
379, 2, bw, attraction, a-b-db, 2, 2, 7, 28, 89, 163, 165, 90, 90, 165, 3, 3.12952
379, 2, bw, attraction, a-b-db, 2, 2, 7, 28, 89, 163, 165, 90, 90, 165, 2, 0.674604
379, 2, bw, catch, NA, 999, 999, 7, 29, 101, 94, 153, 102, 148, 167, 3, 0.788823
379, 2, bw, catch, NA, 999, 999, 7, 29, 101, 94, 153, 102, 148, 167, 1, 0.77188
379, 2, bw, attraction, a-b-da, 5, 2, 7, 30, 165, 90, 161, 88, 90, 165, 3, 16.619
379, 2, bw, attraction, a-b-da, 5, 2, 7, 30, 165, 90, 161, 88, 90, 165, 1, 1.70859
379, 2, bw, attraction, a-b-db, 9, 3, 7, 31, 195, 120, 120, 195, 114, 186, 2, 1.70932
379, 2, bw, attraction, a-b-db, 9, 3, 7, 31, 195, 120, 120, 195, 114, 186, 3, 1.62327
379, 2, bw, attraction, a-b-db, 14, 2, 7, 32, 83, 153, 90, 165, 165, 90, 2, 1.42743
379, 2, bw, attraction, a-b-db, 14, 2, 7, 32, 83, 153, 90, 165, 165, 90, 1, 1.48899
379, 2, bw, attraction, a-b-da, 14, 2, 7, 33, 90, 165, 165, 90, 153, 83, 1, 1.31502
379, 2, bw, attraction, a-b-da, 14, 2, 7, 33, 90, 165, 165, 90, 153, 83, 3, 1.50131
379, 2, bw, filler, NA, 999, 999, 7, 34, 186, 103, 95, 70, 157, 73, 1, 1.20668
379, 2, bw, filler, NA, 999, 999, 7, 34, 186, 103, 95, 70, 157, 73, 2, 1.52498
379, 2, bw, filler, NA, 999, 999, 7, 35, 169, 172, 90, 56, 190, 161, 3, 1.47728
379, 2, bw, filler, NA, 999, 999, 7, 35, 169, 172, 90, 56, 190, 161, 2, 1.44055
379, 2, bw, filler, NA, 999, 999, 7, 36, 84, 183, 102, 61, 119, 108, 1, 1.54813
379, 2, bw, filler, NA, 999, 999, 7, 36, 84, 183, 102, 61, 119, 108, 2, 1.57308
379, 2, bw, filler, NA, 999, 999, 7, 37, 66, 89, 69, 85, 174, 149, 3, 1.46703
379, 2, bw, filler, NA, 999, 999, 7, 37, 66, 89, 69, 85, 174, 149, 1, 1.77535
379, 2, bw, attraction, a-b-da, 9, 3, 8, 1, 186, 114, 195, 120, 120, 195, 2, 1.46137
379, 2, bw, attraction, a-b-da, 9, 3, 8, 1, 186, 114, 195, 120, 120, 195, 1, 3.79347
379, 2, bw, attraction, a-b-db, 5, 3, 8, 2, 195, 120, 120, 195, 117, 190, 2, 10.1182
379, 2, bw, attraction, a-b-db, 5, 3, 8, 2, 195, 120, 120, 195, 117, 190, 3, 0.413631
379, 2, bw, attraction, a-b-da, 9, 2, 8, 3, 165, 90, 90, 165, 157, 86, 2, 4.24296
379, 2, bw, attraction, a-b-da, 9, 2, 8, 3, 165, 90, 90, 165, 157, 86, 3, 1.33494
379, 2, bw, filler, NA, 999, 999, 8, 4, 181, 114, 121, 79, 162, 161, 3, 2.48705
379, 2, bw, filler, NA, 999, 999, 8, 4, 181, 114, 121, 79, 162, 161, 2, 1.29017
379, 2, bw, attraction, a-b-da, 2, 1, 8, 5, 134, 59, 135, 60, 60, 135, 3, 4.50778
379, 2, bw, attraction, a-b-da, 2, 1, 8, 5, 134, 59, 135, 60, 60, 135, 1, 1.51701
379, 2, bw, attraction, a-b-db, 5, 1, 8, 6, 60, 135, 58, 132, 135, 60, 1, 3.3419
379, 2, bw, attraction, a-b-db, 5, 1, 8, 6, 60, 135, 58, 132, 135, 60, 3, 0.901982
379, 2, bw, catch, NA, 999, 999, 8, 7, 121, 74, 123, 192, 149, 106, 2, 0.895718
379, 2, bw, catch, NA, 999, 999, 8, 7, 121, 74, 123, 192, 149, 106, 1, 0.466674
379, 2, bw, filler, NA, 999, 999, 8, 8, 194, 174, 160, 137, 83, 65, 1, 0.877856
379, 2, bw, filler, NA, 999, 999, 8, 8, 194, 174, 160, 137, 83, 65, 3, 0.785677
379, 2, bw, attraction, a-b-da, 14, 2, 8, 9, 165, 90, 90, 165, 153, 83, 2, 2.09589
379, 2, bw, attraction, a-b-da, 14, 2, 8, 9, 165, 90, 90, 165, 153, 83, 3, 0.826532
379, 2, bw, attraction, a-b-db, 9, 1, 8, 10, 60, 135, 57, 129, 135, 60, 1, 2.34297
379, 2, bw, attraction, a-b-db, 9, 1, 8, 10, 60, 135, 57, 129, 135, 60, 2, 0.639484
379, 2, bw, filler, NA, 999, 999, 8, 11, 112, 160, 102, 159, 128, 70, 1, 2.81123
379, 2, bw, filler, NA, 999, 999, 8, 11, 112, 160, 102, 159, 128, 70, 3, 0.945007
379, 2, bw, attraction, a-b-db, 2, 1, 8, 12, 59, 134, 60, 135, 135, 60, 2, 2.78466
379, 2, bw, attraction, a-b-db, 2, 1, 8, 12, 59, 134, 60, 135, 135, 60, 1, 1.10366
379, 2, bw, filler, NA, 999, 999, 8, 13, 142, 169, 189, 143, 172, 142, 2, 5.64938
379, 2, bw, filler, NA, 999, 999, 8, 13, 142, 169, 189, 143, 172, 142, 1, 0.308877
379, 2, bw, attraction, a-b-db, 14, 1, 8, 14, 56, 125, 60, 135, 135, 60, 2, 1.11801
379, 2, bw, attraction, a-b-db, 14, 1, 8, 14, 56, 125, 60, 135, 135, 60, 1, 1.07237
379, 2, bw, attraction, a-b-da, 2, 3, 8, 15, 195, 120, 120, 195, 193, 119, 2, 18.5074
379, 2, bw, attraction, a-b-da, 2, 3, 8, 15, 195, 120, 120, 195, 193, 119, 3, 1.46478
379, 2, bw, filler, NA, 999, 999, 8, 16, 122, 92, 171, 98, 90, 87, 2, 1.13974
379, 2, bw, filler, NA, 999, 999, 8, 16, 122, 92, 171, 98, 90, 87, 3, 0.676575
379, 2, bw, filler, NA, 999, 999, 8, 17, 85, 191, 75, 146, 195, 152, 3, 0.670992
379, 2, bw, filler, NA, 999, 999, 8, 17, 85, 191, 75, 146, 195, 152, 2, 0.538671
379, 2, bw, catch, NA, 999, 999, 8, 18, 131, 64, 155, 100, 121, 194, 3, 0.819138
379, 2, bw, catch, NA, 999, 999, 8, 18, 131, 64, 155, 100, 121, 194, 1, 0.625523
379, 2, bw, attraction, a-b-db, 9, 3, 8, 19, 195, 120, 120, 195, 114, 186, 1, 1.95003
379, 2, bw, attraction, a-b-db, 9, 3, 8, 19, 195, 120, 120, 195, 114, 186, 3, 0.494668
379, 2, bw, filler, NA, 999, 999, 8, 20, 149, 71, 154, 154, 130, 92, 2, 0.648437
379, 2, bw, filler, NA, 999, 999, 8, 20, 149, 71, 154, 154, 130, 92, 1, 0.925623
379, 2, bw, attraction, a-b-db, 5, 2, 8, 21, 88, 161, 165, 90, 90, 165, 3, 1.30984
379, 2, bw, attraction, a-b-db, 5, 2, 8, 21, 88, 161, 165, 90, 90, 165, 1, 0.640136
379, 2, bw, attraction, a-b-db, 9, 2, 8, 22, 86, 157, 165, 90, 90, 165, 3, 1.13991
379, 2, bw, attraction, a-b-db, 9, 2, 8, 22, 86, 157, 165, 90, 90, 165, 1, 0.548893
379, 2, bw, attraction, a-b-da, 5, 1, 8, 23, 132, 58, 60, 135, 135, 60, 3, 5.18874
379, 2, bw, attraction, a-b-da, 5, 1, 8, 23, 132, 58, 60, 135, 135, 60, 1, 0.682352
379, 2, bw, attraction, a-b-da, 14, 3, 8, 24, 181, 111, 195, 120, 120, 195, 3, 5.11681
379, 2, bw, attraction, a-b-da, 14, 3, 8, 24, 181, 111, 195, 120, 120, 195, 1, 1.10971
379, 2, bw, filler, NA, 999, 999, 8, 25, 75, 112, 192, 99, 149, 112, 2, 1.89472
379, 2, bw, filler, NA, 999, 999, 8, 25, 75, 112, 192, 99, 149, 112, 1, 0.369374
379, 2, bw, attraction, a-b-da, 5, 3, 8, 26, 120, 195, 195, 120, 190, 117, 2, 1.45651
379, 2, bw, attraction, a-b-da, 5, 3, 8, 26, 120, 195, 195, 120, 190, 117, 1, 1.06068
379, 2, bw, attraction, a-b-da, 14, 1, 8, 27, 135, 60, 125, 56, 60, 135, 1, 3.53566
379, 2, bw, attraction, a-b-da, 14, 1, 8, 27, 135, 60, 125, 56, 60, 135, 2, 0.384513
379, 2, bw, attraction, a-b-db, 2, 2, 8, 28, 165, 90, 89, 163, 90, 165, 2, 6.80694
379, 2, bw, attraction, a-b-db, 2, 2, 8, 28, 165, 90, 89, 163, 90, 165, 3, 0.595526
379, 2, bw, attraction, a-b-db, 2, 3, 8, 29, 195, 120, 119, 193, 120, 195, 2, 4.43325
379, 2, bw, attraction, a-b-db, 2, 3, 8, 29, 195, 120, 119, 193, 120, 195, 3, 0.869858
379, 2, bw, attraction, a-b-da, 2, 2, 8, 30, 90, 165, 165, 90, 163, 89, 3, 4.21687
379, 2, bw, attraction, a-b-da, 2, 2, 8, 30, 90, 165, 165, 90, 163, 89, 2, 0.470117
379, 2, bw, attraction, a-b-da, 5, 2, 8, 31, 90, 165, 161, 88, 165, 90, 3, 2.06527
379, 2, bw, attraction, a-b-da, 5, 2, 8, 31, 90, 165, 161, 88, 165, 90, 2, 0.597258
379, 2, bw, filler, NA, 999, 999, 8, 32, 124, 182, 132, 72, 111, 59, 1, 0.50707
379, 2, bw, filler, NA, 999, 999, 8, 32, 124, 182, 132, 72, 111, 59, 3, 0.597551
379, 2, bw, attraction, a-b-db, 14, 3, 8, 33, 195, 120, 111, 181, 120, 195, 3, 2.76336
379, 2, bw, attraction, a-b-db, 14, 3, 8, 33, 195, 120, 111, 181, 120, 195, 2, 1.33901
379, 2, bw, catch, NA, 999, 999, 8, 34, 157, 158, 76, 119, 118, 137, 1, 0.907297
379, 2, bw, catch, NA, 999, 999, 8, 34, 157, 158, 76, 119, 118, 137, 2, 0.453672
379, 2, bw, filler, NA, 999, 999, 8, 35, 81, 163, 194, 151, 58, 182, 2, 0.809358
379, 2, bw, filler, NA, 999, 999, 8, 35, 81, 163, 194, 151, 58, 182, 3, 0.591777
379, 2, bw, attraction, a-b-db, 14, 2, 8, 36, 83, 153, 165, 90, 90, 165, 3, 1.21353
379, 2, bw, attraction, a-b-db, 14, 2, 8, 36, 83, 153, 165, 90, 90, 165, 1, 0.47596
379, 2, bw, attraction, a-b-da, 9, 1, 8, 37, 60, 135, 129, 57, 135, 60, 1, 2.64626
379, 2, bw, attraction, a-b-da, 9, 1, 8, 37, 60, 135, 129, 57, 135, 60, 2, 0.706887
