sub_n, computer_n, bw_cond, effect, set, distance, diag, block_n, trial_n, h1, w1, h2, w2, h3, w3, choice, rt 
308, 2, wb, practice, NA, 999, 999, 0, 1, 120, 150, 171, 75, 78, 79, 3, 3.65585
308, 2, wb, practice, NA, 999, 999, 0, 1, 120, 150, 171, 75, 78, 79, 1, 4.39742
308, 2, wb, practice, NA, 999, 999, 0, 2, 156, 182, 95, 101, 75, 148, 2, 8.41226
308, 2, wb, practice, NA, 999, 999, 0, 2, 156, 182, 95, 101, 75, 148, 3, 6.79289
308, 2, wb, practice, NA, 999, 999, 0, 3, 163, 118, 65, 155, 60, 90, 3, 3.71251
308, 2, wb, practice, NA, 999, 999, 0, 3, 163, 118, 65, 155, 60, 90, 1, 3.72303
308, 2, wb, attraction, a-b-db, 14, 2, 1, 1, 165, 90, 83, 153, 90, 165, 2, 4.65756
308, 2, wb, attraction, a-b-db, 14, 2, 1, 1, 165, 90, 83, 153, 90, 165, 1, 5.73268
308, 2, wb, catch, NA, 999, 999, 1, 2, 93, 102, 134, 121, 149, 166, 1, 2.39544
308, 2, wb, catch, NA, 999, 999, 1, 2, 93, 102, 134, 121, 149, 166, 3, 1.62605
308, 2, wb, attraction, a-b-da, 14, 2, 1, 3, 165, 90, 153, 83, 90, 165, 2, 5.09408
308, 2, wb, attraction, a-b-da, 14, 2, 1, 3, 165, 90, 153, 83, 90, 165, 1, 3.20774
308, 2, wb, attraction, a-b-da, 14, 3, 1, 4, 195, 120, 120, 195, 181, 111, 3, 4.94809
308, 2, wb, attraction, a-b-da, 14, 3, 1, 4, 195, 120, 120, 195, 181, 111, 2, 5.53185
308, 2, wb, catch, NA, 999, 999, 1, 5, 171, 144, 95, 160, 62, 133, 3, 1.5148
308, 2, wb, catch, NA, 999, 999, 1, 5, 171, 144, 95, 160, 62, 133, 1, 1.10091
308, 2, wb, attraction, a-b-db, 9, 1, 1, 6, 60, 135, 135, 60, 57, 129, 3, 3.39847
308, 2, wb, attraction, a-b-db, 9, 1, 1, 6, 60, 135, 135, 60, 57, 129, 2, 1.74069
308, 2, wb, attraction, a-b-da, 2, 1, 1, 7, 60, 135, 134, 59, 135, 60, 2, 2.26817
308, 2, wb, attraction, a-b-da, 2, 1, 1, 7, 60, 135, 134, 59, 135, 60, 3, 1.72011
308, 2, wb, attraction, a-b-db, 5, 1, 1, 8, 58, 132, 135, 60, 60, 135, 1, 3.66471
308, 2, wb, attraction, a-b-db, 5, 1, 1, 8, 58, 132, 135, 60, 60, 135, 2, 2.89242
308, 2, wb, attraction, a-b-da, 5, 1, 1, 9, 132, 58, 60, 135, 135, 60, 2, 2.3413
308, 2, wb, attraction, a-b-da, 5, 1, 1, 9, 132, 58, 60, 135, 135, 60, 3, 2.58991
308, 2, wb, filler, NA, 999, 999, 1, 10, 178, 79, 152, 158, 96, 128, 3, 4.27568
308, 2, wb, filler, NA, 999, 999, 1, 10, 178, 79, 152, 158, 96, 128, 2, 3.38241
308, 2, wb, attraction, a-b-da, 9, 1, 1, 11, 135, 60, 129, 57, 60, 135, 3, 1.66791
308, 2, wb, attraction, a-b-da, 9, 1, 1, 11, 135, 60, 129, 57, 60, 135, 1, 3.36001
308, 2, wb, attraction, a-b-db, 2, 3, 1, 12, 120, 195, 119, 193, 195, 120, 2, 1.90234
308, 2, wb, attraction, a-b-db, 2, 3, 1, 12, 120, 195, 119, 193, 195, 120, 3, 1.05697
308, 2, wb, attraction, a-b-da, 5, 2, 1, 13, 90, 165, 161, 88, 165, 90, 2, 1.00392
308, 2, wb, attraction, a-b-da, 5, 2, 1, 13, 90, 165, 161, 88, 165, 90, 1, 0.530178
308, 2, wb, filler, NA, 999, 999, 1, 14, 112, 96, 132, 64, 142, 97, 2, 1.21867
308, 2, wb, filler, NA, 999, 999, 1, 14, 112, 96, 132, 64, 142, 97, 3, 1.06495
308, 2, wb, filler, NA, 999, 999, 1, 15, 166, 180, 148, 70, 171, 154, 2, 0.835786
308, 2, wb, filler, NA, 999, 999, 1, 15, 166, 180, 148, 70, 171, 154, 1, 1.89763
308, 2, wb, filler, NA, 999, 999, 1, 16, 108, 181, 121, 109, 146, 142, 2, 1.0029
308, 2, wb, filler, NA, 999, 999, 1, 16, 108, 181, 121, 109, 146, 142, 3, 1.65007
308, 2, wb, attraction, a-b-da, 2, 2, 1, 17, 163, 89, 165, 90, 90, 165, 3, 1.11738
308, 2, wb, attraction, a-b-da, 2, 2, 1, 17, 163, 89, 165, 90, 90, 165, 1, 0.855613
308, 2, wb, attraction, a-b-db, 14, 1, 1, 18, 135, 60, 56, 125, 60, 135, 2, 1.35534
308, 2, wb, attraction, a-b-db, 14, 1, 1, 18, 135, 60, 56, 125, 60, 135, 1, 1.22753
308, 2, wb, attraction, a-b-da, 5, 3, 1, 19, 190, 117, 195, 120, 120, 195, 3, 1.35975
308, 2, wb, attraction, a-b-da, 5, 3, 1, 19, 190, 117, 195, 120, 120, 195, 2, 1.78389
308, 2, wb, attraction, a-b-db, 9, 3, 1, 20, 114, 186, 195, 120, 120, 195, 3, 1.88603
308, 2, wb, attraction, a-b-db, 9, 3, 1, 20, 114, 186, 195, 120, 120, 195, 2, 0.697393
308, 2, wb, attraction, a-b-db, 9, 2, 1, 21, 86, 157, 90, 165, 165, 90, 2, 1.21121
308, 2, wb, attraction, a-b-db, 9, 2, 1, 21, 86, 157, 90, 165, 165, 90, 3, 2.56951
308, 2, wb, filler, NA, 999, 999, 1, 22, 107, 140, 84, 62, 132, 186, 2, 0.8479
308, 2, wb, filler, NA, 999, 999, 1, 22, 107, 140, 84, 62, 132, 186, 3, 0.660868
308, 2, wb, filler, NA, 999, 999, 1, 23, 195, 176, 121, 98, 142, 117, 3, 0.944066
308, 2, wb, filler, NA, 999, 999, 1, 23, 195, 176, 121, 98, 142, 117, 2, 0.857064
308, 2, wb, attraction, a-b-db, 2, 2, 1, 24, 90, 165, 89, 163, 165, 90, 2, 1.08396
308, 2, wb, attraction, a-b-db, 2, 2, 1, 24, 90, 165, 89, 163, 165, 90, 3, 0.983657
308, 2, wb, attraction, a-b-db, 5, 2, 1, 25, 88, 161, 165, 90, 90, 165, 2, 5.45399
308, 2, wb, attraction, a-b-db, 5, 2, 1, 25, 88, 161, 165, 90, 90, 165, 3, 1.36946
308, 2, wb, attraction, a-b-db, 14, 3, 1, 26, 120, 195, 195, 120, 111, 181, 2, 1.13636
308, 2, wb, attraction, a-b-db, 14, 3, 1, 26, 120, 195, 195, 120, 111, 181, 3, 0.633976
308, 2, wb, filler, NA, 999, 999, 1, 27, 125, 115, 184, 163, 157, 173, 1, 1.50233
308, 2, wb, filler, NA, 999, 999, 1, 27, 125, 115, 184, 163, 157, 173, 2, 2.1132
308, 2, wb, catch, NA, 999, 999, 1, 28, 141, 174, 117, 138, 124, 71, 3, 1.53778
308, 2, wb, catch, NA, 999, 999, 1, 28, 141, 174, 117, 138, 124, 71, 1, 0.826649
308, 2, wb, attraction, a-b-da, 9, 3, 1, 29, 120, 195, 186, 114, 195, 120, 2, 1.47915
308, 2, wb, attraction, a-b-da, 9, 3, 1, 29, 120, 195, 186, 114, 195, 120, 3, 1.09061
308, 2, wb, attraction, a-b-da, 14, 1, 1, 30, 125, 56, 135, 60, 60, 135, 1, 1.41208
308, 2, wb, attraction, a-b-da, 14, 1, 1, 30, 125, 56, 135, 60, 60, 135, 2, 1.4344
308, 2, wb, attraction, a-b-db, 5, 3, 1, 31, 195, 120, 117, 190, 120, 195, 3, 1.26257
308, 2, wb, attraction, a-b-db, 5, 3, 1, 31, 195, 120, 117, 190, 120, 195, 1, 1.50194
308, 2, wb, filler, NA, 999, 999, 1, 32, 63, 146, 129, 86, 60, 152, 2, 3.06815
308, 2, wb, filler, NA, 999, 999, 1, 32, 63, 146, 129, 86, 60, 152, 1, 0.879854
308, 2, wb, attraction, a-b-db, 2, 1, 1, 33, 60, 135, 59, 134, 135, 60, 2, 1.53018
308, 2, wb, attraction, a-b-db, 2, 1, 1, 33, 60, 135, 59, 134, 135, 60, 3, 0.875699
308, 2, wb, filler, NA, 999, 999, 1, 34, 106, 89, 93, 146, 152, 93, 1, 1.214
308, 2, wb, filler, NA, 999, 999, 1, 34, 106, 89, 93, 146, 152, 93, 3, 1.01228
308, 2, wb, attraction, a-b-da, 2, 3, 1, 35, 120, 195, 195, 120, 193, 119, 1, 2.22525
308, 2, wb, attraction, a-b-da, 2, 3, 1, 35, 120, 195, 195, 120, 193, 119, 3, 0.646524
308, 2, wb, filler, NA, 999, 999, 1, 36, 135, 137, 60, 151, 132, 120, 2, 0.826299
308, 2, wb, filler, NA, 999, 999, 1, 36, 135, 137, 60, 151, 132, 120, 1, 1.22399
308, 2, wb, attraction, a-b-da, 9, 2, 1, 37, 90, 165, 157, 86, 165, 90, 2, 1.18835
308, 2, wb, attraction, a-b-da, 9, 2, 1, 37, 90, 165, 157, 86, 165, 90, 3, 0.891183
308, 2, wb, filler, NA, 999, 999, 2, 1, 151, 63, 85, 195, 167, 121, 1, 1.05281
308, 2, wb, filler, NA, 999, 999, 2, 1, 151, 63, 85, 195, 167, 121, 3, 0.737802
308, 2, wb, attraction, a-b-da, 14, 1, 2, 2, 60, 135, 125, 56, 135, 60, 2, 0.866142
308, 2, wb, attraction, a-b-da, 14, 1, 2, 2, 60, 135, 125, 56, 135, 60, 3, 1.19867
308, 2, wb, filler, NA, 999, 999, 2, 3, 170, 120, 71, 88, 153, 98, 2, 0.75611
308, 2, wb, filler, NA, 999, 999, 2, 3, 170, 120, 71, 88, 153, 98, 1, 0.868479
308, 2, wb, filler, NA, 999, 999, 2, 4, 66, 92, 194, 153, 158, 91, 1, 1.05551
308, 2, wb, filler, NA, 999, 999, 2, 4, 66, 92, 194, 153, 158, 91, 2, 0.507983
308, 2, wb, attraction, a-b-da, 2, 2, 2, 5, 90, 165, 165, 90, 163, 89, 1, 0.916951
308, 2, wb, attraction, a-b-da, 2, 2, 2, 5, 90, 165, 165, 90, 163, 89, 3, 0.815318
308, 2, wb, filler, NA, 999, 999, 2, 6, 110, 161, 160, 56, 145, 134, 2, 0.844227
308, 2, wb, filler, NA, 999, 999, 2, 6, 110, 161, 160, 56, 145, 134, 3, 1.35342
308, 2, wb, attraction, a-b-db, 14, 2, 2, 7, 83, 153, 90, 165, 165, 90, 1, 1.35336
308, 2, wb, attraction, a-b-db, 14, 2, 2, 7, 83, 153, 90, 165, 165, 90, 3, 0.673106
308, 2, wb, filler, NA, 999, 999, 2, 8, 134, 96, 80, 111, 76, 61, 3, 1.11546
308, 2, wb, filler, NA, 999, 999, 2, 8, 134, 96, 80, 111, 76, 61, 1, 1.30975
308, 2, wb, catch, NA, 999, 999, 2, 9, 68, 127, 93, 162, 162, 153, 1, 0.990639
308, 2, wb, catch, NA, 999, 999, 2, 9, 68, 127, 93, 162, 162, 153, 3, 0.501657
308, 2, wb, attraction, a-b-db, 2, 3, 2, 10, 120, 195, 119, 193, 195, 120, 1, 1.1754
308, 2, wb, attraction, a-b-db, 2, 3, 2, 10, 120, 195, 119, 193, 195, 120, 3, 0.794248
308, 2, wb, attraction, a-b-da, 14, 2, 2, 11, 90, 165, 153, 83, 165, 90, 2, 0.868768
308, 2, wb, attraction, a-b-da, 14, 2, 2, 11, 90, 165, 153, 83, 165, 90, 3, 0.945161
308, 2, wb, filler, NA, 999, 999, 2, 12, 134, 87, 130, 156, 56, 182, 3, 1.06477
308, 2, wb, filler, NA, 999, 999, 2, 12, 134, 87, 130, 156, 56, 182, 1, 1.02117
308, 2, wb, attraction, a-b-da, 9, 3, 2, 13, 195, 120, 120, 195, 186, 114, 2, 0.917373
308, 2, wb, attraction, a-b-da, 9, 3, 2, 13, 195, 120, 120, 195, 186, 114, 3, 0.510697
308, 2, wb, attraction, a-b-da, 5, 2, 2, 14, 90, 165, 161, 88, 165, 90, 3, 0.965488
308, 2, wb, attraction, a-b-da, 5, 2, 2, 14, 90, 165, 161, 88, 165, 90, 2, 0.701876
308, 2, wb, attraction, a-b-da, 2, 1, 2, 15, 135, 60, 134, 59, 60, 135, 3, 0.991594
308, 2, wb, attraction, a-b-da, 2, 1, 2, 15, 135, 60, 134, 59, 60, 135, 2, 0.66256
308, 2, wb, attraction, a-b-db, 2, 1, 2, 16, 60, 135, 59, 134, 135, 60, 3, 2.10558
308, 2, wb, attraction, a-b-db, 2, 1, 2, 16, 60, 135, 59, 134, 135, 60, 1, 0.859565
308, 2, wb, attraction, a-b-da, 9, 1, 2, 17, 129, 57, 135, 60, 60, 135, 3, 1.30254
308, 2, wb, attraction, a-b-da, 9, 1, 2, 17, 129, 57, 135, 60, 60, 135, 2, 0.873464
308, 2, wb, catch, NA, 999, 999, 2, 18, 104, 151, 107, 88, 152, 163, 2, 0.963915
308, 2, wb, catch, NA, 999, 999, 2, 18, 104, 151, 107, 88, 152, 163, 3, 0.564158
308, 2, wb, attraction, a-b-db, 9, 3, 2, 19, 195, 120, 114, 186, 120, 195, 3, 1.45929
308, 2, wb, attraction, a-b-db, 9, 3, 2, 19, 195, 120, 114, 186, 120, 195, 1, 0.623438
308, 2, wb, attraction, a-b-db, 14, 3, 2, 20, 195, 120, 120, 195, 111, 181, 2, 0.867815
308, 2, wb, attraction, a-b-db, 14, 3, 2, 20, 195, 120, 120, 195, 111, 181, 1, 0.568169
308, 2, wb, filler, NA, 999, 999, 2, 21, 180, 129, 80, 189, 177, 146, 2, 2.96745
308, 2, wb, filler, NA, 999, 999, 2, 21, 180, 129, 80, 189, 177, 146, 3, 0.55106
308, 2, wb, catch, NA, 999, 999, 2, 22, 121, 194, 96, 159, 101, 94, 3, 1.46279
308, 2, wb, catch, NA, 999, 999, 2, 22, 121, 194, 96, 159, 101, 94, 1, 0.74699
308, 2, wb, attraction, a-b-db, 9, 2, 2, 23, 165, 90, 86, 157, 90, 165, 2, 4.58667
308, 2, wb, attraction, a-b-db, 9, 2, 2, 23, 165, 90, 86, 157, 90, 165, 1, 0.4812
308, 2, wb, attraction, a-b-db, 5, 3, 2, 24, 120, 195, 195, 120, 117, 190, 3, 1.19563
308, 2, wb, attraction, a-b-db, 5, 3, 2, 24, 120, 195, 195, 120, 117, 190, 2, 0.410586
308, 2, wb, attraction, a-b-da, 14, 3, 2, 25, 120, 195, 181, 111, 195, 120, 2, 0.903753
308, 2, wb, attraction, a-b-da, 14, 3, 2, 25, 120, 195, 181, 111, 195, 120, 3, 0.34677
308, 2, wb, attraction, a-b-db, 5, 2, 2, 26, 88, 161, 165, 90, 90, 165, 3, 1.22664
308, 2, wb, attraction, a-b-db, 5, 2, 2, 26, 88, 161, 165, 90, 90, 165, 2, 0.608288
308, 2, wb, filler, NA, 999, 999, 2, 27, 191, 109, 176, 159, 143, 71, 3, 0.701307
308, 2, wb, filler, NA, 999, 999, 2, 27, 191, 109, 176, 159, 143, 71, 2, 0.456447
308, 2, wb, filler, NA, 999, 999, 2, 28, 169, 64, 65, 189, 100, 89, 3, 0.579496
308, 2, wb, filler, NA, 999, 999, 2, 28, 169, 64, 65, 189, 100, 89, 2, 0.699299
308, 2, wb, attraction, a-b-db, 2, 2, 2, 29, 90, 165, 165, 90, 89, 163, 3, 0.99703
308, 2, wb, attraction, a-b-db, 2, 2, 2, 29, 90, 165, 165, 90, 89, 163, 2, 0.396021
308, 2, wb, attraction, a-b-da, 5, 3, 2, 30, 190, 117, 120, 195, 195, 120, 3, 1.15387
308, 2, wb, attraction, a-b-da, 5, 3, 2, 30, 190, 117, 120, 195, 195, 120, 2, 0.450181
308, 2, wb, attraction, a-b-da, 2, 3, 2, 31, 193, 119, 195, 120, 120, 195, 3, 0.677958
308, 2, wb, attraction, a-b-da, 2, 3, 2, 31, 193, 119, 195, 120, 120, 195, 2, 0.785733
308, 2, wb, attraction, a-b-db, 9, 1, 2, 32, 57, 129, 135, 60, 60, 135, 3, 0.720147
308, 2, wb, attraction, a-b-db, 9, 1, 2, 32, 57, 129, 135, 60, 60, 135, 2, 0.546458
308, 2, wb, attraction, a-b-da, 5, 1, 2, 33, 132, 58, 135, 60, 60, 135, 3, 0.602233
308, 2, wb, attraction, a-b-da, 5, 1, 2, 33, 132, 58, 135, 60, 60, 135, 2, 0.729353
308, 2, wb, attraction, a-b-db, 14, 1, 2, 34, 60, 135, 135, 60, 56, 125, 3, 0.625752
308, 2, wb, attraction, a-b-db, 14, 1, 2, 34, 60, 135, 135, 60, 56, 125, 2, 0.399623
308, 2, wb, attraction, a-b-da, 9, 2, 2, 35, 90, 165, 157, 86, 165, 90, 3, 0.61334
308, 2, wb, attraction, a-b-da, 9, 2, 2, 35, 90, 165, 157, 86, 165, 90, 1, 0.779793
308, 2, wb, filler, NA, 999, 999, 2, 36, 130, 163, 57, 163, 106, 127, 3, 0.602139
308, 2, wb, filler, NA, 999, 999, 2, 36, 130, 163, 57, 163, 106, 127, 1, 1.36923
308, 2, wb, attraction, a-b-db, 5, 1, 2, 37, 58, 132, 60, 135, 135, 60, 2, 1.25603
308, 2, wb, attraction, a-b-db, 5, 1, 2, 37, 58, 132, 60, 135, 135, 60, 3, 0.476408
308, 2, wb, attraction, a-b-db, 14, 1, 3, 1, 60, 135, 135, 60, 56, 125, 3, 0.846799
308, 2, wb, attraction, a-b-db, 14, 1, 3, 1, 60, 135, 135, 60, 56, 125, 1, 0.483796
308, 2, wb, filler, NA, 999, 999, 3, 2, 181, 159, 107, 145, 169, 109, 2, 0.574282
308, 2, wb, filler, NA, 999, 999, 3, 2, 181, 159, 107, 145, 169, 109, 1, 0.558111
308, 2, wb, attraction, a-b-da, 14, 3, 3, 3, 181, 111, 195, 120, 120, 195, 2, 0.949283
308, 2, wb, attraction, a-b-da, 14, 3, 3, 3, 181, 111, 195, 120, 120, 195, 1, 0.750179
308, 2, wb, filler, NA, 999, 999, 3, 4, 172, 120, 113, 138, 193, 74, 2, 0.781905
308, 2, wb, filler, NA, 999, 999, 3, 4, 172, 120, 113, 138, 193, 74, 1, 0.86172
308, 2, wb, attraction, a-b-da, 9, 2, 3, 5, 90, 165, 157, 86, 165, 90, 2, 0.688677
308, 2, wb, attraction, a-b-da, 9, 2, 3, 5, 90, 165, 157, 86, 165, 90, 3, 0.363819
308, 2, wb, attraction, a-b-da, 2, 2, 3, 6, 163, 89, 90, 165, 165, 90, 2, 0.778955
308, 2, wb, attraction, a-b-da, 2, 2, 3, 6, 163, 89, 90, 165, 165, 90, 1, 0.362629
308, 2, wb, attraction, a-b-db, 9, 3, 3, 7, 120, 195, 114, 186, 195, 120, 2, 0.465865
308, 2, wb, attraction, a-b-db, 9, 3, 3, 7, 120, 195, 114, 186, 195, 120, 3, 0.678313
308, 2, wb, attraction, a-b-db, 5, 1, 3, 8, 58, 132, 60, 135, 135, 60, 2, 0.472708
308, 2, wb, attraction, a-b-db, 5, 1, 3, 8, 58, 132, 60, 135, 135, 60, 3, 0.844637
308, 2, wb, attraction, a-b-da, 5, 1, 3, 9, 135, 60, 132, 58, 60, 135, 2, 0.680104
308, 2, wb, attraction, a-b-da, 5, 1, 3, 9, 135, 60, 132, 58, 60, 135, 1, 0.683937
308, 2, wb, attraction, a-b-da, 2, 1, 3, 10, 134, 59, 135, 60, 60, 135, 2, 0.678334
308, 2, wb, attraction, a-b-da, 2, 1, 3, 10, 134, 59, 135, 60, 60, 135, 1, 0.67406
308, 2, wb, filler, NA, 999, 999, 3, 11, 154, 186, 56, 72, 125, 155, 2, 0.596421
308, 2, wb, filler, NA, 999, 999, 3, 11, 154, 186, 56, 72, 125, 155, 1, 0.443688
308, 2, wb, attraction, a-b-da, 5, 2, 3, 12, 161, 88, 90, 165, 165, 90, 2, 1.15145
308, 2, wb, attraction, a-b-da, 5, 2, 3, 12, 161, 88, 90, 165, 165, 90, 1, 0.520486
308, 2, wb, attraction, a-b-da, 9, 3, 3, 13, 186, 114, 120, 195, 195, 120, 2, 1.80146
308, 2, wb, attraction, a-b-da, 9, 3, 3, 13, 186, 114, 120, 195, 195, 120, 3, 0.392237
308, 2, wb, attraction, a-b-db, 2, 1, 3, 14, 135, 60, 60, 135, 59, 134, 2, 0.934084
308, 2, wb, attraction, a-b-db, 2, 1, 3, 14, 135, 60, 60, 135, 59, 134, 1, 0.599757
308, 2, wb, attraction, a-b-db, 14, 3, 3, 15, 111, 181, 120, 195, 195, 120, 2, 0.357578
308, 2, wb, attraction, a-b-db, 14, 3, 3, 15, 111, 181, 120, 195, 195, 120, 3, 0.454019
308, 2, wb, attraction, a-b-db, 2, 3, 3, 16, 119, 193, 120, 195, 195, 120, 2, 0.753852
308, 2, wb, attraction, a-b-db, 2, 3, 3, 16, 119, 193, 120, 195, 195, 120, 3, 0.522216
308, 2, wb, attraction, a-b-db, 5, 3, 3, 17, 120, 195, 117, 190, 195, 120, 2, 0.443352
308, 2, wb, attraction, a-b-db, 5, 3, 3, 17, 120, 195, 117, 190, 195, 120, 3, 0.776501
308, 2, wb, filler, NA, 999, 999, 3, 18, 111, 177, 87, 167, 177, 105, 2, 0.55097
308, 2, wb, filler, NA, 999, 999, 3, 18, 111, 177, 87, 167, 177, 105, 3, 0.536105
308, 2, wb, attraction, a-b-da, 5, 3, 3, 19, 120, 195, 195, 120, 190, 117, 1, 1.26439
308, 2, wb, attraction, a-b-da, 5, 3, 3, 19, 120, 195, 195, 120, 190, 117, 2, 0.348646
308, 2, wb, filler, NA, 999, 999, 3, 20, 97, 157, 157, 157, 194, 76, 3, 0.820521
308, 2, wb, filler, NA, 999, 999, 3, 20, 97, 157, 157, 157, 194, 76, 2, 0.658958
308, 2, wb, catch, NA, 999, 999, 3, 21, 84, 111, 125, 130, 140, 175, 3, 0.50995
308, 2, wb, catch, NA, 999, 999, 3, 21, 84, 111, 125, 130, 140, 175, 2, 3.66445
308, 2, wb, attraction, a-b-db, 14, 2, 3, 22, 83, 153, 165, 90, 90, 165, 2, 1.24258
308, 2, wb, attraction, a-b-db, 14, 2, 3, 22, 83, 153, 165, 90, 90, 165, 3, 0.639527
308, 2, wb, attraction, a-b-da, 2, 3, 3, 23, 195, 120, 193, 119, 120, 195, 3, 0.755241
308, 2, wb, attraction, a-b-da, 2, 3, 3, 23, 195, 120, 193, 119, 120, 195, 2, 0.640119
308, 2, wb, filler, NA, 999, 999, 3, 24, 114, 141, 129, 170, 154, 107, 2, 0.679289
308, 2, wb, filler, NA, 999, 999, 3, 24, 114, 141, 129, 170, 154, 107, 3, 0.451134
308, 2, wb, attraction, a-b-da, 14, 1, 3, 25, 135, 60, 60, 135, 125, 56, 2, 0.58292
308, 2, wb, attraction, a-b-da, 14, 1, 3, 25, 135, 60, 60, 135, 125, 56, 3, 0.462738
308, 2, wb, attraction, a-b-da, 14, 2, 3, 26, 153, 83, 165, 90, 90, 165, 2, 0.561871
308, 2, wb, attraction, a-b-da, 14, 2, 3, 26, 153, 83, 165, 90, 90, 165, 3, 0.402359
308, 2, wb, catch, NA, 999, 999, 3, 27, 144, 171, 133, 62, 158, 97, 2, 0.928222
308, 2, wb, catch, NA, 999, 999, 3, 27, 144, 171, 133, 62, 158, 97, 3, 0.401805
308, 2, wb, filler, NA, 999, 999, 3, 28, 121, 70, 187, 121, 152, 133, 2, 0.423617
308, 2, wb, filler, NA, 999, 999, 3, 28, 121, 70, 187, 121, 152, 133, 1, 0.765505
308, 2, wb, attraction, a-b-db, 2, 2, 3, 29, 90, 165, 165, 90, 89, 163, 2, 0.700514
308, 2, wb, attraction, a-b-db, 2, 2, 3, 29, 90, 165, 165, 90, 89, 163, 1, 0.463619
308, 2, wb, filler, NA, 999, 999, 3, 30, 80, 184, 164, 78, 69, 173, 2, 0.45878
308, 2, wb, filler, NA, 999, 999, 3, 30, 80, 184, 164, 78, 69, 173, 1, 0.439389
308, 2, wb, filler, NA, 999, 999, 3, 31, 171, 84, 62, 163, 71, 74, 3, 0.611182
308, 2, wb, filler, NA, 999, 999, 3, 31, 171, 84, 62, 163, 71, 74, 2, 0.377429
308, 2, wb, attraction, a-b-db, 9, 1, 3, 32, 57, 129, 135, 60, 60, 135, 2, 0.63189
308, 2, wb, attraction, a-b-db, 9, 1, 3, 32, 57, 129, 135, 60, 60, 135, 3, 0.413755
308, 2, wb, attraction, a-b-db, 5, 2, 3, 33, 88, 161, 165, 90, 90, 165, 2, 0.554867
308, 2, wb, attraction, a-b-db, 5, 2, 3, 33, 88, 161, 165, 90, 90, 165, 3, 0.363308
308, 2, wb, filler, NA, 999, 999, 3, 34, 112, 140, 88, 188, 173, 135, 1, 1.08255
308, 2, wb, filler, NA, 999, 999, 3, 34, 112, 140, 88, 188, 173, 135, 2, 0.446113
308, 2, wb, attraction, a-b-db, 9, 2, 3, 35, 86, 157, 165, 90, 90, 165, 3, 0.729931
308, 2, wb, attraction, a-b-db, 9, 2, 3, 35, 86, 157, 165, 90, 90, 165, 2, 0.355708
308, 2, wb, catch, NA, 999, 999, 3, 36, 132, 123, 142, 173, 135, 60, 3, 0.587525
308, 2, wb, catch, NA, 999, 999, 3, 36, 132, 123, 142, 173, 135, 60, 2, 0.578722
308, 2, wb, attraction, a-b-da, 9, 1, 3, 37, 60, 135, 135, 60, 129, 57, 2, 1.1052
308, 2, wb, attraction, a-b-da, 9, 1, 3, 37, 60, 135, 135, 60, 129, 57, 3, 0.475323
308, 2, wb, attraction, a-b-db, 2, 3, 4, 1, 195, 120, 119, 193, 120, 195, 3, 0.853836
308, 2, wb, attraction, a-b-db, 2, 3, 4, 1, 195, 120, 119, 193, 120, 195, 1, 0.754233
308, 2, wb, attraction, a-b-da, 9, 3, 4, 2, 195, 120, 120, 195, 186, 114, 3, 0.40182
308, 2, wb, attraction, a-b-da, 9, 3, 4, 2, 195, 120, 120, 195, 186, 114, 2, 0.505204
308, 2, wb, filler, NA, 999, 999, 4, 3, 57, 177, 65, 155, 160, 116, 2, 1.69087
308, 2, wb, filler, NA, 999, 999, 4, 3, 57, 177, 65, 155, 160, 116, 3, 0.461642
308, 2, wb, attraction, a-b-da, 2, 1, 4, 4, 60, 135, 134, 59, 135, 60, 2, 1.25675
308, 2, wb, attraction, a-b-da, 2, 1, 4, 4, 60, 135, 134, 59, 135, 60, 3, 0.676981
308, 2, wb, attraction, a-b-db, 5, 3, 4, 5, 195, 120, 120, 195, 117, 190, 2, 0.471395
308, 2, wb, attraction, a-b-db, 5, 3, 4, 5, 195, 120, 120, 195, 117, 190, 3, 0.379226
308, 2, wb, attraction, a-b-da, 9, 1, 4, 6, 135, 60, 129, 57, 60, 135, 2, 12.1698
308, 2, wb, attraction, a-b-da, 9, 1, 4, 6, 135, 60, 129, 57, 60, 135, 3, 0.494542
308, 2, wb, attraction, a-b-db, 9, 1, 4, 7, 135, 60, 60, 135, 57, 129, 2, 0.984354
308, 2, wb, attraction, a-b-db, 9, 1, 4, 7, 135, 60, 60, 135, 57, 129, 3, 0.872003
308, 2, wb, filler, NA, 999, 999, 4, 8, 62, 164, 164, 138, 192, 160, 2, 0.995031
308, 2, wb, filler, NA, 999, 999, 4, 8, 62, 164, 164, 138, 192, 160, 3, 1.56207
308, 2, wb, attraction, a-b-db, 2, 2, 4, 9, 89, 163, 90, 165, 165, 90, 1, 2.83281
308, 2, wb, attraction, a-b-db, 2, 2, 4, 9, 89, 163, 90, 165, 165, 90, 3, 1.78197
308, 2, wb, attraction, a-b-da, 14, 2, 4, 10, 165, 90, 90, 165, 153, 83, 2, 1.25195
308, 2, wb, attraction, a-b-da, 14, 2, 4, 10, 165, 90, 90, 165, 153, 83, 1, 0.528821
308, 2, wb, filler, NA, 999, 999, 4, 11, 142, 88, 65, 56, 162, 73, 2, 0.825297
308, 2, wb, filler, NA, 999, 999, 4, 11, 142, 88, 65, 56, 162, 73, 3, 0.839019
308, 2, wb, attraction, a-b-da, 14, 3, 4, 12, 195, 120, 120, 195, 181, 111, 3, 1.06739
308, 2, wb, attraction, a-b-da, 14, 3, 4, 12, 195, 120, 120, 195, 181, 111, 2, 0.487813
308, 2, wb, attraction, a-b-da, 5, 1, 4, 13, 135, 60, 132, 58, 60, 135, 2, 0.938141
308, 2, wb, attraction, a-b-da, 5, 1, 4, 13, 135, 60, 132, 58, 60, 135, 1, 0.587138
308, 2, wb, catch, NA, 999, 999, 4, 14, 115, 80, 124, 191, 152, 103, 1, 0.825545
308, 2, wb, catch, NA, 999, 999, 4, 14, 115, 80, 124, 191, 152, 103, 2, 0.599404
308, 2, wb, attraction, a-b-da, 2, 2, 4, 15, 163, 89, 165, 90, 90, 165, 3, 2.11706
308, 2, wb, attraction, a-b-da, 2, 2, 4, 15, 163, 89, 165, 90, 90, 165, 2, 0.590959
308, 2, wb, filler, NA, 999, 999, 4, 16, 82, 127, 130, 135, 65, 69, 3, 0.484806
308, 2, wb, filler, NA, 999, 999, 4, 16, 82, 127, 130, 135, 65, 69, 2, 0.536709
308, 2, wb, filler, NA, 999, 999, 4, 17, 70, 71, 165, 121, 169, 72, 1, 0.865076
308, 2, wb, filler, NA, 999, 999, 4, 17, 70, 71, 165, 121, 169, 72, 2, 0.669547
308, 2, wb, catch, NA, 999, 999, 4, 18, 185, 130, 92, 163, 121, 74, 3, 0.656543
308, 2, wb, catch, NA, 999, 999, 4, 18, 185, 130, 92, 163, 121, 74, 1, 0.797399
308, 2, wb, attraction, a-b-db, 14, 2, 4, 19, 90, 165, 165, 90, 83, 153, 2, 0.690531
308, 2, wb, attraction, a-b-db, 14, 2, 4, 19, 90, 165, 165, 90, 83, 153, 1, 0.549712
308, 2, wb, filler, NA, 999, 999, 4, 20, 85, 99, 156, 79, 92, 100, 1, 1.07755
308, 2, wb, filler, NA, 999, 999, 4, 20, 85, 99, 156, 79, 92, 100, 2, 1.25721
308, 2, wb, attraction, a-b-da, 5, 2, 4, 21, 90, 165, 161, 88, 165, 90, 1, 0.876038
308, 2, wb, attraction, a-b-da, 5, 2, 4, 21, 90, 165, 161, 88, 165, 90, 3, 0.575657
308, 2, wb, attraction, a-b-db, 2, 1, 4, 22, 135, 60, 60, 135, 59, 134, 2, 0.814054
308, 2, wb, attraction, a-b-db, 2, 1, 4, 22, 135, 60, 60, 135, 59, 134, 1, 1.06062
308, 2, wb, filler, NA, 999, 999, 4, 23, 162, 140, 113, 157, 86, 79, 3, 0.80742
308, 2, wb, filler, NA, 999, 999, 4, 23, 162, 140, 113, 157, 86, 79, 1, 0.773814
308, 2, wb, catch, NA, 999, 999, 4, 24, 103, 152, 82, 113, 122, 193, 2, 0.580151
308, 2, wb, catch, NA, 999, 999, 4, 24, 103, 152, 82, 113, 122, 193, 3, 0.435981
308, 2, wb, attraction, a-b-da, 2, 3, 4, 25, 120, 195, 193, 119, 195, 120, 1, 0.880444
308, 2, wb, attraction, a-b-da, 2, 3, 4, 25, 120, 195, 193, 119, 195, 120, 3, 0.40418
308, 2, wb, attraction, a-b-db, 9, 2, 4, 26, 86, 157, 90, 165, 165, 90, 1, 0.689942
308, 2, wb, attraction, a-b-db, 9, 2, 4, 26, 86, 157, 90, 165, 165, 90, 3, 0.4851
308, 2, wb, attraction, a-b-db, 9, 3, 4, 27, 114, 186, 120, 195, 195, 120, 2, 0.823539
308, 2, wb, attraction, a-b-db, 9, 3, 4, 27, 114, 186, 120, 195, 195, 120, 3, 0.477245
308, 2, wb, attraction, a-b-db, 14, 1, 4, 28, 135, 60, 60, 135, 56, 125, 3, 1.07168
308, 2, wb, attraction, a-b-db, 14, 1, 4, 28, 135, 60, 60, 135, 56, 125, 1, 0.555365
308, 2, wb, attraction, a-b-da, 5, 3, 4, 29, 120, 195, 190, 117, 195, 120, 2, 0.555112
308, 2, wb, attraction, a-b-da, 5, 3, 4, 29, 120, 195, 190, 117, 195, 120, 3, 0.387594
308, 2, wb, attraction, a-b-db, 14, 3, 4, 30, 111, 181, 195, 120, 120, 195, 2, 0.665983
308, 2, wb, attraction, a-b-db, 14, 3, 4, 30, 111, 181, 195, 120, 120, 195, 3, 0.454466
308, 2, wb, attraction, a-b-db, 5, 2, 4, 31, 90, 165, 165, 90, 88, 161, 1, 0.522364
308, 2, wb, attraction, a-b-db, 5, 2, 4, 31, 90, 165, 165, 90, 88, 161, 3, 0.380184
308, 2, wb, filler, NA, 999, 999, 4, 32, 180, 182, 105, 191, 75, 138, 2, 0.322568
308, 2, wb, filler, NA, 999, 999, 4, 32, 180, 182, 105, 191, 75, 138, 1, 0.82851
308, 2, wb, filler, NA, 999, 999, 4, 33, 66, 122, 163, 159, 58, 149, 1, 0.9849
308, 2, wb, filler, NA, 999, 999, 4, 33, 66, 122, 163, 159, 58, 149, 3, 0.472476
308, 2, wb, attraction, a-b-da, 14, 1, 4, 34, 125, 56, 60, 135, 135, 60, 2, 0.635547
308, 2, wb, attraction, a-b-da, 14, 1, 4, 34, 125, 56, 60, 135, 135, 60, 3, 0.457386
308, 2, wb, attraction, a-b-db, 5, 1, 4, 35, 60, 135, 58, 132, 135, 60, 2, 0.548534
308, 2, wb, attraction, a-b-db, 5, 1, 4, 35, 60, 135, 58, 132, 135, 60, 3, 0.645562
308, 2, wb, filler, NA, 999, 999, 4, 36, 170, 143, 108, 66, 117, 143, 2, 1.11336
308, 2, wb, filler, NA, 999, 999, 4, 36, 170, 143, 108, 66, 117, 143, 1, 0.603659
308, 2, wb, attraction, a-b-da, 9, 2, 4, 37, 165, 90, 90, 165, 157, 86, 3, 0.737467
308, 2, wb, attraction, a-b-da, 9, 2, 4, 37, 165, 90, 90, 165, 157, 86, 1, 0.634473
308, 2, wb, filler, NA, 999, 999, 5, 1, 139, 140, 79, 144, 189, 84, 2, 0.99748
308, 2, wb, filler, NA, 999, 999, 5, 1, 139, 140, 79, 144, 189, 84, 3, 0.852525
308, 2, wb, filler, NA, 999, 999, 5, 2, 160, 139, 164, 188, 92, 177, 3, 2.37619
308, 2, wb, filler, NA, 999, 999, 5, 2, 160, 139, 164, 188, 92, 177, 2, 0.847382
308, 2, wb, attraction, a-b-da, 5, 3, 5, 3, 195, 120, 120, 195, 190, 117, 2, 1.49912
308, 2, wb, attraction, a-b-da, 5, 3, 5, 3, 195, 120, 120, 195, 190, 117, 3, 0.381965
308, 2, wb, attraction, a-b-da, 14, 3, 5, 4, 181, 111, 195, 120, 120, 195, 3, 0.932567
308, 2, wb, attraction, a-b-da, 14, 3, 5, 4, 181, 111, 195, 120, 120, 195, 2, 0.358083
308, 2, wb, attraction, a-b-db, 9, 1, 5, 5, 57, 129, 135, 60, 60, 135, 1, 1.35724
308, 2, wb, attraction, a-b-db, 9, 1, 5, 5, 57, 129, 135, 60, 60, 135, 2, 0.477463
308, 2, wb, filler, NA, 999, 999, 5, 6, 104, 80, 107, 68, 172, 160, 1, 0.807936
308, 2, wb, filler, NA, 999, 999, 5, 6, 104, 80, 107, 68, 172, 160, 3, 0.366368
308, 2, wb, attraction, a-b-db, 2, 1, 5, 7, 60, 135, 135, 60, 59, 134, 3, 1.15749
308, 2, wb, attraction, a-b-db, 2, 1, 5, 7, 60, 135, 135, 60, 59, 134, 2, 0.365744
308, 2, wb, attraction, a-b-da, 9, 2, 5, 8, 165, 90, 90, 165, 157, 86, 3, 0.884955
308, 2, wb, attraction, a-b-da, 9, 2, 5, 8, 165, 90, 90, 165, 157, 86, 2, 0.392644
308, 2, wb, attraction, a-b-db, 5, 1, 5, 9, 60, 135, 58, 132, 135, 60, 3, 1.15845
308, 2, wb, attraction, a-b-db, 5, 1, 5, 9, 60, 135, 58, 132, 135, 60, 2, 0.366698
308, 2, wb, attraction, a-b-db, 5, 2, 5, 10, 90, 165, 88, 161, 165, 90, 3, 0.710034
308, 2, wb, attraction, a-b-db, 5, 2, 5, 10, 90, 165, 88, 161, 165, 90, 2, 0.536364
308, 2, wb, attraction, a-b-da, 2, 3, 5, 11, 193, 119, 195, 120, 120, 195, 2, 1.42477
308, 2, wb, attraction, a-b-da, 2, 3, 5, 11, 193, 119, 195, 120, 120, 195, 3, 0.422282
308, 2, wb, filler, NA, 999, 999, 5, 12, 78, 138, 58, 165, 88, 90, 3, 0.923384
308, 2, wb, filler, NA, 999, 999, 5, 12, 78, 138, 58, 165, 88, 90, 1, 0.493103
308, 2, wb, catch, NA, 999, 999, 5, 13, 155, 160, 102, 93, 117, 138, 2, 0.64689
308, 2, wb, catch, NA, 999, 999, 5, 13, 155, 160, 102, 93, 117, 138, 1, 0.499992
308, 2, wb, filler, NA, 999, 999, 5, 14, 143, 108, 183, 138, 83, 150, 3, 1.12586
308, 2, wb, filler, NA, 999, 999, 5, 14, 143, 108, 183, 138, 83, 150, 2, 0.391501
308, 2, wb, attraction, a-b-da, 2, 2, 5, 15, 165, 90, 163, 89, 90, 165, 3, 1.02121
308, 2, wb, attraction, a-b-da, 2, 2, 5, 15, 165, 90, 163, 89, 90, 165, 1, 1.31501
308, 2, wb, attraction, a-b-da, 2, 1, 5, 16, 135, 60, 60, 135, 134, 59, 2, 0.787798
308, 2, wb, attraction, a-b-da, 2, 1, 5, 16, 135, 60, 60, 135, 134, 59, 3, 0.474823
308, 2, wb, attraction, a-b-db, 14, 1, 5, 17, 56, 125, 135, 60, 60, 135, 2, 0.685253
308, 2, wb, attraction, a-b-db, 14, 1, 5, 17, 56, 125, 135, 60, 60, 135, 3, 0.480324
308, 2, wb, filler, NA, 999, 999, 5, 18, 61, 63, 85, 64, 190, 63, 1, 0.690681
308, 2, wb, filler, NA, 999, 999, 5, 18, 61, 63, 85, 64, 190, 63, 3, 0.437897
308, 2, wb, attraction, a-b-db, 2, 2, 5, 19, 165, 90, 90, 165, 89, 163, 3, 1.0503
308, 2, wb, attraction, a-b-db, 2, 2, 5, 19, 165, 90, 90, 165, 89, 163, 1, 0.879429
308, 2, wb, attraction, a-b-da, 9, 1, 5, 20, 129, 57, 135, 60, 60, 135, 3, 1.13764
308, 2, wb, attraction, a-b-da, 9, 1, 5, 20, 129, 57, 135, 60, 60, 135, 2, 0.418609
308, 2, wb, attraction, a-b-da, 14, 1, 5, 21, 135, 60, 125, 56, 60, 135, 3, 0.615971
308, 2, wb, attraction, a-b-da, 14, 1, 5, 21, 135, 60, 125, 56, 60, 135, 2, 0.574333
308, 2, wb, filler, NA, 999, 999, 5, 22, 152, 94, 159, 151, 98, 59, 3, 0.588655
308, 2, wb, filler, NA, 999, 999, 5, 22, 152, 94, 159, 151, 98, 59, 2, 0.547722
308, 2, wb, catch, NA, 999, 999, 5, 23, 185, 130, 100, 95, 153, 102, 2, 2.1475
308, 2, wb, catch, NA, 999, 999, 5, 23, 185, 130, 100, 95, 153, 102, 3, 0.516168
308, 2, wb, attraction, a-b-db, 9, 2, 5, 24, 165, 90, 90, 165, 86, 157, 2, 0.46929
308, 2, wb, attraction, a-b-db, 9, 2, 5, 24, 165, 90, 90, 165, 86, 157, 1, 0.881774
308, 2, wb, catch, NA, 999, 999, 5, 25, 183, 132, 102, 93, 131, 124, 2, 0.62623
308, 2, wb, catch, NA, 999, 999, 5, 25, 183, 132, 102, 93, 131, 124, 1, 0.473847
308, 2, wb, attraction, a-b-da, 5, 2, 5, 26, 161, 88, 90, 165, 165, 90, 2, 0.7564
308, 2, wb, attraction, a-b-da, 5, 2, 5, 26, 161, 88, 90, 165, 165, 90, 1, 0.660701
308, 2, wb, attraction, a-b-db, 5, 3, 5, 27, 195, 120, 120, 195, 117, 190, 2, 0.559808
308, 2, wb, attraction, a-b-db, 5, 3, 5, 27, 195, 120, 120, 195, 117, 190, 1, 0.712222
308, 2, wb, filler, NA, 999, 999, 5, 28, 121, 178, 164, 140, 138, 187, 2, 0.513302
308, 2, wb, filler, NA, 999, 999, 5, 28, 121, 178, 164, 140, 138, 187, 1, 0.659894
308, 2, wb, attraction, a-b-da, 9, 3, 5, 29, 120, 195, 195, 120, 186, 114, 1, 1.12694
308, 2, wb, attraction, a-b-da, 9, 3, 5, 29, 120, 195, 195, 120, 186, 114, 3, 0.392567
308, 2, wb, filler, NA, 999, 999, 5, 30, 178, 121, 105, 71, 73, 131, 2, 0.782322
308, 2, wb, filler, NA, 999, 999, 5, 30, 178, 121, 105, 71, 73, 131, 1, 0.43803
308, 2, wb, attraction, a-b-da, 5, 1, 5, 31, 135, 60, 132, 58, 60, 135, 3, 0.994617
308, 2, wb, attraction, a-b-da, 5, 1, 5, 31, 135, 60, 132, 58, 60, 135, 2, 0.361671
308, 2, wb, attraction, a-b-db, 2, 3, 5, 32, 195, 120, 120, 195, 119, 193, 2, 2.34473
308, 2, wb, attraction, a-b-db, 2, 3, 5, 32, 195, 120, 120, 195, 119, 193, 1, 0.449223
308, 2, wb, attraction, a-b-db, 9, 3, 5, 33, 120, 195, 114, 186, 195, 120, 2, 0.717059
308, 2, wb, attraction, a-b-db, 9, 3, 5, 33, 120, 195, 114, 186, 195, 120, 3, 0.383506
308, 2, wb, attraction, a-b-db, 14, 3, 5, 34, 111, 181, 120, 195, 195, 120, 2, 0.549948
308, 2, wb, attraction, a-b-db, 14, 3, 5, 34, 111, 181, 120, 195, 195, 120, 3, 0.431141
308, 2, wb, attraction, a-b-da, 14, 2, 5, 35, 165, 90, 90, 165, 153, 83, 2, 0.579638
308, 2, wb, attraction, a-b-da, 14, 2, 5, 35, 165, 90, 90, 165, 153, 83, 3, 0.851351
308, 2, wb, attraction, a-b-db, 14, 2, 5, 36, 83, 153, 165, 90, 90, 165, 2, 0.950956
308, 2, wb, attraction, a-b-db, 14, 2, 5, 36, 83, 153, 165, 90, 90, 165, 3, 0.504176
308, 2, wb, filler, NA, 999, 999, 5, 37, 81, 78, 105, 63, 111, 182, 1, 1.26583
308, 2, wb, filler, NA, 999, 999, 5, 37, 81, 78, 105, 63, 111, 182, 3, 0.526199
308, 2, wb, filler, NA, 999, 999, 6, 1, 104, 195, 103, 60, 97, 67, 2, 0.750501
308, 2, wb, filler, NA, 999, 999, 6, 1, 104, 195, 103, 60, 97, 67, 1, 0.559543
308, 2, wb, attraction, a-b-db, 5, 1, 6, 2, 135, 60, 58, 132, 60, 135, 2, 0.542669
308, 2, wb, attraction, a-b-db, 5, 1, 6, 2, 135, 60, 58, 132, 60, 135, 1, 0.647867
308, 2, wb, filler, NA, 999, 999, 6, 3, 182, 77, 98, 177, 149, 150, 2, 0.379522
308, 2, wb, filler, NA, 999, 999, 6, 3, 182, 77, 98, 177, 149, 150, 1, 0.77941
308, 2, wb, attraction, a-b-db, 14, 1, 6, 4, 56, 125, 60, 135, 135, 60, 2, 0.657884
308, 2, wb, attraction, a-b-db, 14, 1, 6, 4, 56, 125, 60, 135, 135, 60, 3, 0.414384
308, 2, wb, filler, NA, 999, 999, 6, 5, 66, 63, 157, 170, 156, 133, 1, 0.779297
308, 2, wb, filler, NA, 999, 999, 6, 5, 66, 63, 157, 170, 156, 133, 2, 0.411096
308, 2, wb, attraction, a-b-db, 14, 3, 6, 6, 195, 120, 111, 181, 120, 195, 2, 0.568215
308, 2, wb, attraction, a-b-db, 14, 3, 6, 6, 195, 120, 111, 181, 120, 195, 1, 0.944763
308, 2, wb, attraction, a-b-db, 2, 3, 6, 7, 119, 193, 195, 120, 120, 195, 1, 0.792378
308, 2, wb, attraction, a-b-db, 2, 3, 6, 7, 119, 193, 195, 120, 120, 195, 2, 1.37552
308, 2, wb, attraction, a-b-da, 9, 1, 6, 8, 129, 57, 135, 60, 60, 135, 3, 1.19759
308, 2, wb, attraction, a-b-da, 9, 1, 6, 8, 129, 57, 135, 60, 60, 135, 2, 0.700555
308, 2, wb, attraction, a-b-da, 5, 2, 6, 9, 90, 165, 165, 90, 161, 88, 1, 0.878258
308, 2, wb, attraction, a-b-da, 5, 2, 6, 9, 90, 165, 165, 90, 161, 88, 2, 0.529963
308, 2, wb, attraction, a-b-da, 5, 1, 6, 10, 135, 60, 132, 58, 60, 135, 2, 0.594387
308, 2, wb, attraction, a-b-da, 5, 1, 6, 10, 135, 60, 132, 58, 60, 135, 1, 0.825668
308, 2, wb, attraction, a-b-da, 14, 3, 6, 11, 195, 120, 120, 195, 181, 111, 2, 0.58984
308, 2, wb, attraction, a-b-da, 14, 3, 6, 11, 195, 120, 120, 195, 181, 111, 1, 0.580979
308, 2, wb, attraction, a-b-db, 9, 1, 6, 12, 57, 129, 135, 60, 60, 135, 2, 0.555399
308, 2, wb, attraction, a-b-db, 9, 1, 6, 12, 57, 129, 135, 60, 60, 135, 1, 0.571822
308, 2, wb, filler, NA, 999, 999, 6, 13, 56, 152, 139, 173, 155, 91, 1, 0.80293
308, 2, wb, filler, NA, 999, 999, 6, 13, 56, 152, 139, 173, 155, 91, 2, 1.05012
308, 2, wb, catch, NA, 999, 999, 6, 14, 184, 131, 92, 103, 149, 106, 2, 0.549626
308, 2, wb, catch, NA, 999, 999, 6, 14, 184, 131, 92, 103, 149, 106, 1, 0.438754
308, 2, wb, attraction, a-b-da, 14, 2, 6, 15, 165, 90, 90, 165, 153, 83, 2, 1.01132
308, 2, wb, attraction, a-b-da, 14, 2, 6, 15, 165, 90, 90, 165, 153, 83, 3, 0.433508
308, 2, wb, catch, NA, 999, 999, 6, 16, 164, 91, 117, 78, 164, 151, 2, 4.55006
308, 2, wb, catch, NA, 999, 999, 6, 16, 164, 91, 117, 78, 164, 151, 3, 0.829918
308, 2, wb, filler, NA, 999, 999, 6, 17, 132, 66, 168, 162, 185, 131, 1, 0.791709
308, 2, wb, filler, NA, 999, 999, 6, 17, 132, 66, 168, 162, 185, 131, 2, 0.473418
308, 2, wb, filler, NA, 999, 999, 6, 18, 128, 111, 96, 175, 155, 128, 1, 1.18436
308, 2, wb, filler, NA, 999, 999, 6, 18, 128, 111, 96, 175, 155, 128, 3, 0.603383
308, 2, wb, attraction, a-b-db, 5, 2, 6, 19, 90, 165, 165, 90, 88, 161, 2, 0.625161
308, 2, wb, attraction, a-b-db, 5, 2, 6, 19, 90, 165, 165, 90, 88, 161, 1, 0.462946
308, 2, wb, attraction, a-b-da, 14, 1, 6, 20, 125, 56, 135, 60, 60, 135, 3, 0.834058
308, 2, wb, attraction, a-b-da, 14, 1, 6, 20, 125, 56, 135, 60, 60, 135, 2, 0.351819
308, 2, wb, attraction, a-b-da, 2, 3, 6, 21, 193, 119, 120, 195, 195, 120, 2, 0.743599
308, 2, wb, attraction, a-b-da, 2, 3, 6, 21, 193, 119, 120, 195, 195, 120, 1, 0.408677
308, 2, wb, filler, NA, 999, 999, 6, 22, 99, 57, 170, 97, 86, 112, 3, 1.48585
308, 2, wb, filler, NA, 999, 999, 6, 22, 99, 57, 170, 97, 86, 112, 2, 0.37728
308, 2, wb, attraction, a-b-da, 2, 1, 6, 23, 134, 59, 60, 135, 135, 60, 2, 0.647811
308, 2, wb, attraction, a-b-da, 2, 1, 6, 23, 134, 59, 60, 135, 135, 60, 1, 0.41292
308, 2, wb, attraction, a-b-db, 9, 3, 6, 24, 195, 120, 114, 186, 120, 195, 2, 0.834151
308, 2, wb, attraction, a-b-db, 9, 3, 6, 24, 195, 120, 114, 186, 120, 195, 1, 0.447737
308, 2, wb, attraction, a-b-da, 2, 2, 6, 25, 165, 90, 163, 89, 90, 165, 3, 0.99569
308, 2, wb, attraction, a-b-da, 2, 2, 6, 25, 165, 90, 163, 89, 90, 165, 2, 0.378585
308, 2, wb, attraction, a-b-da, 9, 2, 6, 26, 90, 165, 165, 90, 157, 86, 1, 0.841005
308, 2, wb, attraction, a-b-da, 9, 2, 6, 26, 90, 165, 165, 90, 157, 86, 3, 0.646049
308, 2, wb, filler, NA, 999, 999, 6, 27, 191, 172, 59, 112, 161, 195, 2, 0.537831
308, 2, wb, filler, NA, 999, 999, 6, 27, 191, 172, 59, 112, 161, 195, 1, 0.402944
308, 2, wb, attraction, a-b-db, 5, 3, 6, 28, 120, 195, 195, 120, 117, 190, 1, 0.832757
308, 2, wb, attraction, a-b-db, 5, 3, 6, 28, 120, 195, 195, 120, 117, 190, 2, 0.342602
308, 2, wb, filler, NA, 999, 999, 6, 29, 89, 113, 69, 133, 181, 163, 2, 0.998342
308, 2, wb, filler, NA, 999, 999, 6, 29, 89, 113, 69, 133, 181, 163, 3, 0.373307
308, 2, wb, attraction, a-b-db, 2, 1, 6, 30, 60, 135, 135, 60, 59, 134, 2, 0.603906
308, 2, wb, attraction, a-b-db, 2, 1, 6, 30, 60, 135, 135, 60, 59, 134, 3, 1.14698
308, 2, wb, attraction, a-b-db, 9, 2, 6, 31, 165, 90, 86, 157, 90, 165, 2, 0.570503
308, 2, wb, attraction, a-b-db, 9, 2, 6, 31, 165, 90, 86, 157, 90, 165, 1, 1.41898
308, 2, wb, catch, NA, 999, 999, 6, 32, 150, 165, 133, 62, 110, 145, 2, 0.935741
308, 2, wb, catch, NA, 999, 999, 6, 32, 150, 165, 133, 62, 110, 145, 1, 0.441481
308, 2, wb, attraction, a-b-db, 14, 2, 6, 33, 165, 90, 90, 165, 83, 153, 3, 0.869306
308, 2, wb, attraction, a-b-db, 14, 2, 6, 33, 165, 90, 90, 165, 83, 153, 1, 0.585663
308, 2, wb, attraction, a-b-da, 9, 3, 6, 34, 186, 114, 120, 195, 195, 120, 2, 0.432114
308, 2, wb, attraction, a-b-da, 9, 3, 6, 34, 186, 114, 120, 195, 195, 120, 1, 0.597906
308, 2, wb, filler, NA, 999, 999, 6, 35, 103, 142, 150, 162, 138, 100, 3, 1.58781
308, 2, wb, filler, NA, 999, 999, 6, 35, 103, 142, 150, 162, 138, 100, 2, 0.386678
308, 2, wb, attraction, a-b-db, 2, 2, 6, 36, 165, 90, 90, 165, 89, 163, 2, 0.641032
308, 2, wb, attraction, a-b-db, 2, 2, 6, 36, 165, 90, 90, 165, 89, 163, 1, 0.590089
308, 2, wb, attraction, a-b-da, 5, 3, 6, 37, 195, 120, 120, 195, 190, 117, 2, 0.411841
308, 2, wb, attraction, a-b-da, 5, 3, 6, 37, 195, 120, 120, 195, 190, 117, 1, 0.458537
308, 2, wb, filler, NA, 999, 999, 7, 1, 170, 129, 85, 58, 171, 117, 2, 0.413499
308, 2, wb, filler, NA, 999, 999, 7, 1, 170, 129, 85, 58, 171, 117, 1, 0.45202
308, 2, wb, filler, NA, 999, 999, 7, 2, 156, 192, 114, 158, 150, 109, 2, 0.71176
308, 2, wb, filler, NA, 999, 999, 7, 2, 156, 192, 114, 158, 150, 109, 1, 0.602176
308, 2, wb, catch, NA, 999, 999, 7, 3, 135, 60, 128, 187, 164, 91, 1, 0.687981
308, 2, wb, catch, NA, 999, 999, 7, 3, 135, 60, 128, 187, 164, 91, 2, 0.443119
308, 2, wb, attraction, a-b-db, 2, 1, 7, 4, 60, 135, 59, 134, 135, 60, 2, 0.734834
308, 2, wb, attraction, a-b-db, 2, 1, 7, 4, 60, 135, 59, 134, 135, 60, 3, 0.432615
308, 2, wb, attraction, a-b-db, 5, 3, 7, 5, 195, 120, 120, 195, 117, 190, 2, 0.469046
308, 2, wb, attraction, a-b-db, 5, 3, 7, 5, 195, 120, 120, 195, 117, 190, 1, 0.369634
308, 2, wb, attraction, a-b-db, 9, 3, 7, 6, 114, 186, 195, 120, 120, 195, 2, 0.54466
308, 2, wb, attraction, a-b-db, 9, 3, 7, 6, 114, 186, 195, 120, 120, 195, 3, 0.40188
308, 2, wb, attraction, a-b-da, 5, 1, 7, 7, 135, 60, 60, 135, 132, 58, 2, 0.503801
308, 2, wb, attraction, a-b-da, 5, 1, 7, 7, 135, 60, 60, 135, 132, 58, 1, 0.474766
308, 2, wb, attraction, a-b-da, 5, 2, 7, 8, 161, 88, 90, 165, 165, 90, 2, 0.621241
308, 2, wb, attraction, a-b-da, 5, 2, 7, 8, 161, 88, 90, 165, 165, 90, 1, 0.467051
308, 2, wb, attraction, a-b-da, 14, 2, 7, 9, 153, 83, 90, 165, 165, 90, 2, 0.334171
308, 2, wb, attraction, a-b-da, 14, 2, 7, 9, 153, 83, 90, 165, 165, 90, 1, 0.528194
308, 2, wb, filler, NA, 999, 999, 7, 10, 97, 181, 63, 179, 161, 68, 2, 0.488468
308, 2, wb, filler, NA, 999, 999, 7, 10, 97, 181, 63, 179, 161, 68, 1, 0.515655
308, 2, wb, filler, NA, 999, 999, 7, 11, 92, 57, 154, 125, 164, 83, 1, 0.924829
308, 2, wb, filler, NA, 999, 999, 7, 11, 92, 57, 154, 125, 164, 83, 2, 0.398498
308, 2, wb, filler, NA, 999, 999, 7, 12, 58, 139, 117, 192, 68, 69, 3, 0.988308
308, 2, wb, filler, NA, 999, 999, 7, 12, 58, 139, 117, 192, 68, 69, 2, 0.571376
308, 2, wb, attraction, a-b-da, 9, 2, 7, 13, 157, 86, 90, 165, 165, 90, 2, 1.18637
308, 2, wb, attraction, a-b-da, 9, 2, 7, 13, 157, 86, 90, 165, 165, 90, 1, 0.442014
308, 2, wb, filler, NA, 999, 999, 7, 14, 128, 94, 79, 79, 193, 163, 2, 0.677738
308, 2, wb, filler, NA, 999, 999, 7, 14, 128, 94, 79, 79, 193, 163, 3, 0.401681
308, 2, wb, attraction, a-b-da, 2, 2, 7, 15, 163, 89, 165, 90, 90, 165, 3, 1.26349
308, 2, wb, attraction, a-b-da, 2, 2, 7, 15, 163, 89, 165, 90, 90, 165, 2, 0.611559
308, 2, wb, attraction, a-b-db, 14, 1, 7, 16, 60, 135, 135, 60, 56, 125, 3, 1.0567
308, 2, wb, attraction, a-b-db, 14, 1, 7, 16, 60, 135, 135, 60, 56, 125, 2, 1.02913
308, 2, wb, attraction, a-b-db, 9, 1, 7, 17, 57, 129, 135, 60, 60, 135, 3, 0.873253
308, 2, wb, attraction, a-b-db, 9, 1, 7, 17, 57, 129, 135, 60, 60, 135, 2, 0.669017
308, 2, wb, attraction, a-b-db, 5, 1, 7, 18, 60, 135, 135, 60, 58, 132, 3, 0.960051
308, 2, wb, attraction, a-b-db, 5, 1, 7, 18, 60, 135, 135, 60, 58, 132, 2, 1.36039
308, 2, wb, attraction, a-b-da, 2, 3, 7, 19, 195, 120, 120, 195, 193, 119, 3, 0.495247
308, 2, wb, attraction, a-b-da, 2, 3, 7, 19, 195, 120, 120, 195, 193, 119, 2, 0.674411
308, 2, wb, attraction, a-b-da, 9, 1, 7, 20, 60, 135, 135, 60, 129, 57, 2, 0.684877
308, 2, wb, attraction, a-b-da, 9, 1, 7, 20, 60, 135, 135, 60, 129, 57, 3, 0.476625
308, 2, wb, attraction, a-b-da, 5, 3, 7, 21, 120, 195, 190, 117, 195, 120, 2, 0.506988
308, 2, wb, attraction, a-b-da, 5, 3, 7, 21, 120, 195, 190, 117, 195, 120, 1, 0.389577
308, 2, wb, filler, NA, 999, 999, 7, 22, 119, 99, 63, 94, 162, 179, 2, 0.347258
308, 2, wb, filler, NA, 999, 999, 7, 22, 119, 99, 63, 94, 162, 179, 1, 0.388535
308, 2, wb, filler, NA, 999, 999, 7, 23, 102, 129, 127, 158, 67, 79, 3, 0.859046
308, 2, wb, filler, NA, 999, 999, 7, 23, 102, 129, 127, 158, 67, 79, 2, 0.359354
308, 2, wb, attraction, a-b-db, 2, 2, 7, 24, 90, 165, 89, 163, 165, 90, 2, 0.71849
308, 2, wb, attraction, a-b-db, 2, 2, 7, 24, 90, 165, 89, 163, 165, 90, 1, 0.377018
308, 2, wb, attraction, a-b-da, 14, 3, 7, 25, 181, 111, 195, 120, 120, 195, 2, 0.839542
308, 2, wb, attraction, a-b-da, 14, 3, 7, 25, 181, 111, 195, 120, 120, 195, 1, 0.476445
308, 2, wb, attraction, a-b-da, 14, 1, 7, 26, 135, 60, 125, 56, 60, 135, 2, 0.47906
308, 2, wb, attraction, a-b-da, 14, 1, 7, 26, 135, 60, 125, 56, 60, 135, 3, 0.938831
308, 2, wb, attraction, a-b-db, 14, 3, 7, 27, 195, 120, 120, 195, 111, 181, 2, 0.515052
308, 2, wb, attraction, a-b-db, 14, 3, 7, 27, 195, 120, 120, 195, 111, 181, 1, 0.486133
308, 2, wb, filler, NA, 999, 999, 7, 28, 152, 82, 194, 193, 75, 180, 2, 0.288184
308, 2, wb, filler, NA, 999, 999, 7, 28, 152, 82, 194, 193, 75, 180, 1, 0.627269
308, 2, wb, attraction, a-b-db, 2, 3, 7, 29, 119, 193, 195, 120, 120, 195, 2, 0.615614
308, 2, wb, attraction, a-b-db, 2, 3, 7, 29, 119, 193, 195, 120, 120, 195, 1, 0.518031
308, 2, wb, catch, NA, 999, 999, 7, 30, 131, 64, 109, 146, 132, 183, 1, 0.935133
308, 2, wb, catch, NA, 999, 999, 7, 30, 131, 64, 109, 146, 132, 183, 2, 0.368876
308, 2, wb, filler, NA, 999, 999, 7, 31, 123, 146, 126, 184, 154, 177, 1, 1.64796
308, 2, wb, filler, NA, 999, 999, 7, 31, 123, 146, 126, 184, 154, 177, 3, 0.428824
308, 2, wb, attraction, a-b-da, 2, 1, 7, 32, 60, 135, 134, 59, 135, 60, 2, 0.801271
308, 2, wb, attraction, a-b-da, 2, 1, 7, 32, 60, 135, 134, 59, 135, 60, 3, 0.568472
308, 2, wb, attraction, a-b-db, 5, 2, 7, 33, 88, 161, 90, 165, 165, 90, 1, 0.63944
308, 2, wb, attraction, a-b-db, 5, 2, 7, 33, 88, 161, 90, 165, 165, 90, 3, 0.556651
308, 2, wb, catch, NA, 999, 999, 7, 34, 134, 61, 101, 154, 190, 125, 1, 0.515644
308, 2, wb, catch, NA, 999, 999, 7, 34, 134, 61, 101, 154, 190, 125, 3, 0.542127
308, 2, wb, attraction, a-b-db, 9, 2, 7, 35, 86, 157, 165, 90, 90, 165, 3, 1.42187
308, 2, wb, attraction, a-b-db, 9, 2, 7, 35, 86, 157, 165, 90, 90, 165, 2, 0.49951
308, 2, wb, attraction, a-b-da, 9, 3, 7, 36, 195, 120, 186, 114, 120, 195, 3, 0.797334
308, 2, wb, attraction, a-b-da, 9, 3, 7, 36, 195, 120, 186, 114, 120, 195, 1, 0.420238
308, 2, wb, attraction, a-b-db, 14, 2, 7, 37, 165, 90, 90, 165, 83, 153, 2, 0.425357
308, 2, wb, attraction, a-b-db, 14, 2, 7, 37, 165, 90, 90, 165, 83, 153, 1, 0.423344
308, 2, wb, attraction, a-b-db, 9, 1, 8, 1, 60, 135, 135, 60, 57, 129, 2, 0.467859
308, 2, wb, attraction, a-b-db, 9, 1, 8, 1, 60, 135, 135, 60, 57, 129, 1, 0.448235
308, 2, wb, filler, NA, 999, 999, 8, 2, 73, 143, 172, 107, 172, 165, 1, 0.73205
308, 2, wb, filler, NA, 999, 999, 8, 2, 73, 143, 172, 107, 172, 165, 3, 0.35796
308, 2, wb, attraction, a-b-da, 5, 1, 8, 3, 60, 135, 132, 58, 135, 60, 2, 0.612899
308, 2, wb, attraction, a-b-da, 5, 1, 8, 3, 60, 135, 132, 58, 135, 60, 3, 0.411431
308, 2, wb, attraction, a-b-db, 9, 3, 8, 4, 120, 195, 114, 186, 195, 120, 1, 0.608493
308, 2, wb, attraction, a-b-db, 9, 3, 8, 4, 120, 195, 114, 186, 195, 120, 3, 0.334974
308, 2, wb, attraction, a-b-db, 14, 1, 8, 5, 135, 60, 60, 135, 56, 125, 2, 0.599483
308, 2, wb, attraction, a-b-db, 14, 1, 8, 5, 135, 60, 60, 135, 56, 125, 1, 0.55861
308, 2, wb, attraction, a-b-da, 9, 2, 8, 6, 157, 86, 90, 165, 165, 90, 2, 0.477665
308, 2, wb, attraction, a-b-da, 9, 2, 8, 6, 157, 86, 90, 165, 165, 90, 1, 0.481575
308, 2, wb, attraction, a-b-db, 5, 2, 8, 7, 165, 90, 90, 165, 88, 161, 2, 0.379947
308, 2, wb, attraction, a-b-db, 5, 2, 8, 7, 165, 90, 90, 165, 88, 161, 1, 0.411914
308, 2, wb, attraction, a-b-db, 2, 1, 8, 8, 135, 60, 59, 134, 60, 135, 2, 0.481044
308, 2, wb, attraction, a-b-db, 2, 1, 8, 8, 135, 60, 59, 134, 60, 135, 1, 0.4609
308, 2, wb, attraction, a-b-db, 5, 1, 8, 9, 58, 132, 60, 135, 135, 60, 2, 0.383951
308, 2, wb, attraction, a-b-db, 5, 1, 8, 9, 58, 132, 60, 135, 135, 60, 3, 0.591865
308, 2, wb, catch, NA, 999, 999, 8, 10, 171, 144, 154, 101, 61, 134, 3, 0.709589
308, 2, wb, catch, NA, 999, 999, 8, 10, 171, 144, 154, 101, 61, 134, 1, 0.399946
308, 2, wb, filler, NA, 999, 999, 8, 11, 169, 121, 174, 154, 181, 177, 1, 0.965848
308, 2, wb, filler, NA, 999, 999, 8, 11, 169, 121, 174, 154, 181, 177, 3, 0.358194
308, 2, wb, attraction, a-b-db, 14, 3, 8, 12, 195, 120, 120, 195, 111, 181, 2, 0.573349
308, 2, wb, attraction, a-b-db, 14, 3, 8, 12, 195, 120, 120, 195, 111, 181, 1, 0.453149
308, 2, wb, catch, NA, 999, 999, 8, 13, 97, 98, 93, 162, 127, 188, 1, 0.864947
308, 2, wb, catch, NA, 999, 999, 8, 13, 97, 98, 93, 162, 127, 188, 3, 0.365213
308, 2, wb, attraction, a-b-da, 2, 2, 8, 14, 163, 89, 90, 165, 165, 90, 2, 0.604393
308, 2, wb, attraction, a-b-da, 2, 2, 8, 14, 163, 89, 90, 165, 165, 90, 1, 0.370855
308, 2, wb, catch, NA, 999, 999, 8, 15, 155, 160, 76, 119, 155, 100, 2, 0.705958
308, 2, wb, catch, NA, 999, 999, 8, 15, 155, 160, 76, 119, 155, 100, 1, 0.348396
308, 2, wb, attraction, a-b-da, 2, 3, 8, 16, 193, 119, 120, 195, 195, 120, 1, 0.708207
308, 2, wb, attraction, a-b-da, 2, 3, 8, 16, 193, 119, 120, 195, 195, 120, 3, 1.01471
308, 2, wb, attraction, a-b-da, 9, 1, 8, 17, 60, 135, 135, 60, 129, 57, 1, 0.891688
308, 2, wb, attraction, a-b-da, 9, 1, 8, 17, 60, 135, 135, 60, 129, 57, 3, 0.468431
308, 2, wb, filler, NA, 999, 999, 8, 18, 162, 123, 72, 141, 77, 104, 3, 1.14588
308, 2, wb, filler, NA, 999, 999, 8, 18, 162, 123, 72, 141, 77, 104, 1, 0.402942
308, 2, wb, filler, NA, 999, 999, 8, 19, 134, 126, 76, 78, 140, 106, 2, 0.680576
308, 2, wb, filler, NA, 999, 999, 8, 19, 134, 126, 76, 78, 140, 106, 1, 8.26034
308, 2, wb, attraction, a-b-db, 9, 2, 8, 20, 90, 165, 86, 157, 165, 90, 2, 0.940984
308, 2, wb, attraction, a-b-db, 9, 2, 8, 20, 90, 165, 86, 157, 165, 90, 3, 0.541974
308, 2, wb, attraction, a-b-db, 2, 2, 8, 21, 89, 163, 90, 165, 165, 90, 2, 0.661729
308, 2, wb, attraction, a-b-db, 2, 2, 8, 21, 89, 163, 90, 165, 165, 90, 3, 0.602292
308, 2, wb, attraction, a-b-da, 2, 1, 8, 22, 134, 59, 60, 135, 135, 60, 2, 0.663991
308, 2, wb, attraction, a-b-da, 2, 1, 8, 22, 134, 59, 60, 135, 135, 60, 3, 0.500489
308, 2, wb, filler, NA, 999, 999, 8, 23, 139, 186, 124, 164, 80, 60, 3, 1.00624
308, 2, wb, filler, NA, 999, 999, 8, 23, 139, 186, 124, 164, 80, 60, 1, 0.628577
308, 2, wb, attraction, a-b-da, 5, 2, 8, 24, 90, 165, 165, 90, 161, 88, 1, 0.800889
308, 2, wb, attraction, a-b-da, 5, 2, 8, 24, 90, 165, 165, 90, 161, 88, 3, 0.456155
308, 2, wb, attraction, a-b-da, 14, 2, 8, 25, 153, 83, 165, 90, 90, 165, 2, 0.491145
308, 2, wb, attraction, a-b-da, 14, 2, 8, 25, 153, 83, 165, 90, 90, 165, 3, 0.790332
308, 2, wb, attraction, a-b-db, 2, 3, 8, 26, 119, 193, 195, 120, 120, 195, 2, 0.412066
308, 2, wb, attraction, a-b-db, 2, 3, 8, 26, 119, 193, 195, 120, 120, 195, 3, 0.426537
308, 2, wb, filler, NA, 999, 999, 8, 27, 159, 154, 117, 99, 121, 150, 2, 0.470958
308, 2, wb, filler, NA, 999, 999, 8, 27, 159, 154, 117, 99, 121, 150, 1, 0.474797
308, 2, wb, attraction, a-b-db, 5, 3, 8, 28, 120, 195, 195, 120, 117, 190, 1, 1.18923
308, 2, wb, attraction, a-b-db, 5, 3, 8, 28, 120, 195, 195, 120, 117, 190, 2, 0.684116
308, 2, wb, attraction, a-b-da, 9, 3, 8, 29, 120, 195, 186, 114, 195, 120, 2, 0.670728
308, 2, wb, attraction, a-b-da, 9, 3, 8, 29, 120, 195, 186, 114, 195, 120, 3, 0.394434
308, 2, wb, filler, NA, 999, 999, 8, 30, 143, 123, 174, 99, 111, 178, 1, 0.712115
308, 2, wb, filler, NA, 999, 999, 8, 30, 143, 123, 174, 99, 111, 178, 2, 0.306631
308, 2, wb, attraction, a-b-da, 5, 3, 8, 31, 120, 195, 195, 120, 190, 117, 1, 0.763852
308, 2, wb, attraction, a-b-da, 5, 3, 8, 31, 120, 195, 195, 120, 190, 117, 3, 0.364175
308, 2, wb, filler, NA, 999, 999, 8, 32, 65, 152, 81, 99, 123, 108, 2, 0.347285
308, 2, wb, filler, NA, 999, 999, 8, 32, 65, 152, 81, 99, 123, 108, 3, 0.396578
308, 2, wb, attraction, a-b-da, 14, 3, 8, 33, 181, 111, 195, 120, 120, 195, 1, 1.35435
308, 2, wb, attraction, a-b-da, 14, 3, 8, 33, 181, 111, 195, 120, 120, 195, 2, 0.354544
308, 2, wb, filler, NA, 999, 999, 8, 34, 184, 148, 100, 93, 131, 133, 2, 0.586495
308, 2, wb, filler, NA, 999, 999, 8, 34, 184, 148, 100, 93, 131, 133, 1, 0.690266
308, 2, wb, filler, NA, 999, 999, 8, 35, 157, 58, 122, 161, 158, 115, 1, 0.971955
308, 2, wb, filler, NA, 999, 999, 8, 35, 157, 58, 122, 161, 158, 115, 2, 1.1637
308, 2, wb, attraction, a-b-db, 14, 2, 8, 36, 165, 90, 90, 165, 83, 153, 3, 1.53848
308, 2, wb, attraction, a-b-db, 14, 2, 8, 36, 165, 90, 90, 165, 83, 153, 1, 0.547236
308, 2, wb, attraction, a-b-da, 14, 1, 8, 37, 135, 60, 125, 56, 60, 135, 2, 0.763041
308, 2, wb, attraction, a-b-da, 14, 1, 8, 37, 135, 60, 125, 56, 60, 135, 1, 0.635518
