sub_n, computer_n, bw_cond, effect, set, distance, diag, block_n, trial_n, h1, w1, h2, w2, h3, w3, choice, rt 
317, 2, bw, practice, NA, 999, 999, 0, 1, 138, 117, 125, 162, 182, 103, 2, 4.24371
317, 2, bw, practice, NA, 999, 999, 0, 1, 138, 117, 125, 162, 182, 103, 1, 2.23296
317, 2, bw, practice, NA, 999, 999, 0, 2, 92, 87, 124, 92, 134, 157, 3, 2.12755
317, 2, bw, practice, NA, 999, 999, 0, 2, 92, 87, 124, 92, 134, 157, 1, 1.2104
317, 2, bw, practice, NA, 999, 999, 0, 3, 150, 162, 127, 116, 152, 188, 3, 2.81091
317, 2, bw, practice, NA, 999, 999, 0, 3, 150, 162, 127, 116, 152, 188, 2, 1.08842
317, 2, bw, filler, NA, 999, 999, 1, 1, 86, 189, 146, 145, 141, 115, 2, 2.72887
317, 2, bw, filler, NA, 999, 999, 1, 1, 86, 189, 146, 145, 141, 115, 3, 1.24735
317, 2, bw, filler, NA, 999, 999, 1, 2, 149, 175, 156, 155, 168, 116, 1, 1.81885
317, 2, bw, filler, NA, 999, 999, 1, 2, 149, 175, 156, 155, 168, 116, 3, 0.576939
317, 2, bw, attraction, a-b-da, 5, 2, 1, 3, 90, 165, 165, 90, 161, 88, 2, 6.63938
317, 2, bw, attraction, a-b-da, 5, 2, 1, 3, 90, 165, 165, 90, 161, 88, 1, 1.17927
317, 2, bw, attraction, a-b-db, 2, 3, 1, 4, 195, 120, 119, 193, 120, 195, 3, 6.32944
317, 2, bw, attraction, a-b-db, 2, 3, 1, 4, 195, 120, 119, 193, 120, 195, 1, 0.71347
317, 2, bw, catch, NA, 999, 999, 1, 5, 152, 163, 117, 78, 157, 98, 1, 1.4825
317, 2, bw, catch, NA, 999, 999, 1, 5, 152, 163, 117, 78, 157, 98, 2, 0.430067
317, 2, bw, attraction, a-b-da, 5, 1, 1, 6, 132, 58, 60, 135, 135, 60, 3, 2.41058
317, 2, bw, attraction, a-b-da, 5, 1, 1, 6, 132, 58, 60, 135, 135, 60, 2, 0.808407
317, 2, bw, attraction, a-b-da, 14, 3, 1, 7, 120, 195, 195, 120, 181, 111, 1, 3.12558
317, 2, bw, attraction, a-b-da, 14, 3, 1, 7, 120, 195, 195, 120, 181, 111, 2, 0.542406
317, 2, bw, filler, NA, 999, 999, 1, 8, 154, 134, 79, 135, 173, 105, 3, 1.80616
317, 2, bw, filler, NA, 999, 999, 1, 8, 154, 134, 79, 135, 173, 105, 2, 0.500212
317, 2, bw, attraction, a-b-db, 2, 1, 1, 9, 59, 134, 135, 60, 60, 135, 1, 2.21411
317, 2, bw, attraction, a-b-db, 2, 1, 1, 9, 59, 134, 135, 60, 60, 135, 2, 0.452056
317, 2, bw, attraction, a-b-da, 14, 2, 1, 10, 90, 165, 153, 83, 165, 90, 1, 2.57577
317, 2, bw, attraction, a-b-da, 14, 2, 1, 10, 90, 165, 153, 83, 165, 90, 2, 0.663029
317, 2, bw, attraction, a-b-db, 9, 2, 1, 11, 86, 157, 165, 90, 90, 165, 3, 1.5461
317, 2, bw, attraction, a-b-db, 9, 2, 1, 11, 86, 157, 165, 90, 90, 165, 2, 0.474859
317, 2, bw, catch, NA, 999, 999, 1, 12, 138, 177, 111, 84, 113, 142, 1, 1.06931
317, 2, bw, catch, NA, 999, 999, 1, 12, 138, 177, 111, 84, 113, 142, 2, 0.761616
317, 2, bw, filler, NA, 999, 999, 1, 13, 69, 87, 105, 155, 162, 87, 1, 0.960673
317, 2, bw, filler, NA, 999, 999, 1, 13, 69, 87, 105, 155, 162, 87, 2, 4.20108
317, 2, bw, attraction, a-b-db, 5, 2, 1, 14, 90, 165, 88, 161, 165, 90, 1, 3.07763
317, 2, bw, attraction, a-b-db, 5, 2, 1, 14, 90, 165, 88, 161, 165, 90, 2, 1.00065
317, 2, bw, filler, NA, 999, 999, 1, 15, 93, 105, 131, 79, 141, 139, 3, 1.69431
317, 2, bw, filler, NA, 999, 999, 1, 15, 93, 105, 131, 79, 141, 139, 1, 0.497063
317, 2, bw, attraction, a-b-da, 2, 2, 1, 16, 163, 89, 90, 165, 165, 90, 2, 1.30688
317, 2, bw, attraction, a-b-da, 2, 2, 1, 16, 163, 89, 90, 165, 165, 90, 1, 0.685074
317, 2, bw, attraction, a-b-da, 9, 1, 1, 17, 129, 57, 135, 60, 60, 135, 3, 3.71152
317, 2, bw, attraction, a-b-da, 9, 1, 1, 17, 129, 57, 135, 60, 60, 135, 1, 0.713009
317, 2, bw, filler, NA, 999, 999, 1, 18, 174, 144, 195, 147, 140, 127, 2, 2.84199
317, 2, bw, filler, NA, 999, 999, 1, 18, 174, 144, 195, 147, 140, 127, 3, 0.574399
317, 2, bw, attraction, a-b-da, 2, 1, 1, 19, 60, 135, 134, 59, 135, 60, 3, 2.10084
317, 2, bw, attraction, a-b-da, 2, 1, 1, 19, 60, 135, 134, 59, 135, 60, 1, 0.615483
317, 2, bw, filler, NA, 999, 999, 1, 20, 82, 96, 97, 145, 162, 81, 3, 1.68455
317, 2, bw, filler, NA, 999, 999, 1, 20, 82, 96, 97, 145, 162, 81, 1, 0.624004
317, 2, bw, attraction, a-b-db, 2, 2, 1, 21, 165, 90, 90, 165, 89, 163, 1, 1.74038
317, 2, bw, attraction, a-b-db, 2, 2, 1, 21, 165, 90, 90, 165, 89, 163, 3, 0.493188
317, 2, bw, attraction, a-b-da, 2, 3, 1, 22, 193, 119, 120, 195, 195, 120, 3, 1.75099
317, 2, bw, attraction, a-b-da, 2, 3, 1, 22, 193, 119, 120, 195, 195, 120, 2, 0.399763
317, 2, bw, filler, NA, 999, 999, 1, 23, 147, 156, 94, 127, 93, 78, 1, 1.25356
317, 2, bw, filler, NA, 999, 999, 1, 23, 147, 156, 94, 127, 93, 78, 3, 0.610582
317, 2, bw, attraction, a-b-db, 5, 1, 1, 24, 58, 132, 60, 135, 135, 60, 3, 1.67959
317, 2, bw, attraction, a-b-db, 5, 1, 1, 24, 58, 132, 60, 135, 135, 60, 1, 0.62709
317, 2, bw, attraction, a-b-da, 9, 2, 1, 25, 90, 165, 157, 86, 165, 90, 3, 2.51147
317, 2, bw, attraction, a-b-da, 9, 2, 1, 25, 90, 165, 157, 86, 165, 90, 1, 1.15331
317, 2, bw, filler, NA, 999, 999, 1, 26, 194, 82, 87, 157, 141, 114, 1, 2.19279
317, 2, bw, filler, NA, 999, 999, 1, 26, 194, 82, 87, 157, 141, 114, 2, 0.511502
317, 2, bw, attraction, a-b-db, 9, 3, 1, 27, 114, 186, 120, 195, 195, 120, 3, 2.05663
317, 2, bw, attraction, a-b-db, 9, 3, 1, 27, 114, 186, 120, 195, 195, 120, 1, 1.00456
317, 2, bw, attraction, a-b-db, 14, 1, 1, 28, 135, 60, 56, 125, 60, 135, 1, 2.4822
317, 2, bw, attraction, a-b-db, 14, 1, 1, 28, 135, 60, 56, 125, 60, 135, 2, 0.357377
317, 2, bw, attraction, a-b-da, 5, 3, 1, 29, 195, 120, 120, 195, 190, 117, 3, 2.06056
317, 2, bw, attraction, a-b-da, 5, 3, 1, 29, 195, 120, 120, 195, 190, 117, 1, 1.04848
317, 2, bw, attraction, a-b-db, 14, 2, 1, 30, 83, 153, 90, 165, 165, 90, 3, 1.3561
317, 2, bw, attraction, a-b-db, 14, 2, 1, 30, 83, 153, 90, 165, 165, 90, 1, 0.620488
317, 2, bw, attraction, a-b-db, 5, 3, 1, 31, 117, 190, 195, 120, 120, 195, 2, 1.52947
317, 2, bw, attraction, a-b-db, 5, 3, 1, 31, 117, 190, 195, 120, 120, 195, 1, 0.354985
317, 2, bw, attraction, a-b-da, 9, 3, 1, 32, 186, 114, 195, 120, 120, 195, 1, 1.2988
317, 2, bw, attraction, a-b-da, 9, 3, 1, 32, 186, 114, 195, 120, 120, 195, 2, 0.917717
317, 2, bw, catch, NA, 999, 999, 1, 33, 120, 195, 138, 117, 108, 87, 1, 0.862768
317, 2, bw, catch, NA, 999, 999, 1, 33, 120, 195, 138, 117, 108, 87, 3, 0.803143
317, 2, bw, filler, NA, 999, 999, 1, 34, 127, 112, 101, 145, 66, 58, 1, 0.704717
317, 2, bw, filler, NA, 999, 999, 1, 34, 127, 112, 101, 145, 66, 58, 3, 0.507194
317, 2, bw, attraction, a-b-da, 14, 1, 1, 35, 125, 56, 135, 60, 60, 135, 2, 1.22035
317, 2, bw, attraction, a-b-da, 14, 1, 1, 35, 125, 56, 135, 60, 60, 135, 1, 0.369818
317, 2, bw, attraction, a-b-db, 14, 3, 1, 36, 111, 181, 195, 120, 120, 195, 3, 1.51298
317, 2, bw, attraction, a-b-db, 14, 3, 1, 36, 111, 181, 195, 120, 120, 195, 1, 0.523245
317, 2, bw, attraction, a-b-db, 9, 1, 1, 37, 60, 135, 135, 60, 57, 129, 2, 3.38762
317, 2, bw, attraction, a-b-db, 9, 1, 1, 37, 60, 135, 135, 60, 57, 129, 3, 0.834541
317, 2, bw, attraction, a-b-db, 2, 1, 2, 1, 60, 135, 59, 134, 135, 60, 3, 1.18297
317, 2, bw, attraction, a-b-db, 2, 1, 2, 1, 60, 135, 59, 134, 135, 60, 1, 0.614475
317, 2, bw, filler, NA, 999, 999, 2, 2, 113, 153, 61, 128, 64, 143, 1, 1.01962
317, 2, bw, filler, NA, 999, 999, 2, 2, 113, 153, 61, 128, 64, 143, 2, 1.21791
317, 2, bw, attraction, a-b-da, 9, 2, 2, 3, 90, 165, 165, 90, 157, 86, 3, 2.11077
317, 2, bw, attraction, a-b-da, 9, 2, 2, 3, 90, 165, 165, 90, 157, 86, 1, 0.440836
317, 2, bw, attraction, a-b-da, 5, 2, 2, 4, 90, 165, 161, 88, 165, 90, 3, 1.53265
317, 2, bw, attraction, a-b-da, 5, 2, 2, 4, 90, 165, 161, 88, 165, 90, 1, 0.470167
317, 2, bw, catch, NA, 999, 999, 2, 5, 138, 117, 149, 166, 120, 75, 2, 1.84124
317, 2, bw, catch, NA, 999, 999, 2, 5, 138, 117, 149, 166, 120, 75, 3, 1.75805
317, 2, bw, attraction, a-b-da, 14, 1, 2, 6, 135, 60, 60, 135, 125, 56, 1, 1.88474
317, 2, bw, attraction, a-b-da, 14, 1, 2, 6, 135, 60, 60, 135, 125, 56, 2, 0.376038
317, 2, bw, attraction, a-b-db, 9, 3, 2, 7, 120, 195, 114, 186, 195, 120, 3, 0.878568
317, 2, bw, attraction, a-b-db, 9, 3, 2, 7, 120, 195, 114, 186, 195, 120, 1, 0.506237
317, 2, bw, attraction, a-b-db, 14, 1, 2, 8, 60, 135, 56, 125, 135, 60, 3, 0.971383
317, 2, bw, attraction, a-b-db, 14, 1, 2, 8, 60, 135, 56, 125, 135, 60, 2, 0.803032
317, 2, bw, filler, NA, 999, 999, 2, 9, 70, 118, 143, 113, 156, 137, 3, 0.760682
317, 2, bw, filler, NA, 999, 999, 2, 9, 70, 118, 143, 113, 156, 137, 1, 0.409286
317, 2, bw, attraction, a-b-db, 14, 3, 2, 10, 120, 195, 195, 120, 111, 181, 1, 0.910252
317, 2, bw, attraction, a-b-db, 14, 3, 2, 10, 120, 195, 195, 120, 111, 181, 2, 1.50463
317, 2, bw, attraction, a-b-db, 9, 2, 2, 11, 90, 165, 86, 157, 165, 90, 3, 1.2821
317, 2, bw, attraction, a-b-db, 9, 2, 2, 11, 90, 165, 86, 157, 165, 90, 1, 0.709788
317, 2, bw, attraction, a-b-da, 14, 2, 2, 12, 90, 165, 165, 90, 153, 83, 3, 1.12682
317, 2, bw, attraction, a-b-da, 14, 2, 2, 12, 90, 165, 165, 90, 153, 83, 1, 0.464359
317, 2, bw, attraction, a-b-db, 14, 2, 2, 13, 90, 165, 165, 90, 83, 153, 1, 1.25157
317, 2, bw, attraction, a-b-db, 14, 2, 2, 13, 90, 165, 165, 90, 83, 153, 3, 0.528449
317, 2, bw, attraction, a-b-da, 2, 3, 2, 14, 120, 195, 193, 119, 195, 120, 3, 0.856836
317, 2, bw, attraction, a-b-da, 2, 3, 2, 14, 120, 195, 193, 119, 195, 120, 1, 0.44521
317, 2, bw, attraction, a-b-da, 9, 3, 2, 15, 195, 120, 120, 195, 186, 114, 1, 0.904963
317, 2, bw, attraction, a-b-da, 9, 3, 2, 15, 195, 120, 120, 195, 186, 114, 3, 0.851348
317, 2, bw, attraction, a-b-da, 9, 1, 2, 16, 60, 135, 129, 57, 135, 60, 3, 2.5511
317, 2, bw, attraction, a-b-da, 9, 1, 2, 16, 60, 135, 129, 57, 135, 60, 1, 0.983704
317, 2, bw, attraction, a-b-db, 2, 2, 2, 17, 89, 163, 90, 165, 165, 90, 3, 0.733988
317, 2, bw, attraction, a-b-db, 2, 2, 2, 17, 89, 163, 90, 165, 165, 90, 1, 0.719575
317, 2, bw, attraction, a-b-da, 5, 1, 2, 18, 132, 58, 135, 60, 60, 135, 1, 0.960639
317, 2, bw, attraction, a-b-da, 5, 1, 2, 18, 132, 58, 135, 60, 60, 135, 3, 0.425118
317, 2, bw, attraction, a-b-db, 5, 3, 2, 19, 195, 120, 120, 195, 117, 190, 1, 0.72546
317, 2, bw, attraction, a-b-db, 5, 3, 2, 19, 195, 120, 120, 195, 117, 190, 2, 0.943241
317, 2, bw, catch, NA, 999, 999, 2, 20, 114, 81, 176, 139, 150, 105, 2, 1.26285
317, 2, bw, catch, NA, 999, 999, 2, 20, 114, 81, 176, 139, 150, 105, 1, 0.491203
317, 2, bw, filler, NA, 999, 999, 2, 21, 97, 62, 146, 89, 161, 87, 3, 1.26098
317, 2, bw, filler, NA, 999, 999, 2, 21, 97, 62, 146, 89, 161, 87, 1, 0.433222
317, 2, bw, attraction, a-b-da, 5, 3, 2, 22, 190, 117, 195, 120, 120, 195, 3, 1.35756
317, 2, bw, attraction, a-b-da, 5, 3, 2, 22, 190, 117, 195, 120, 120, 195, 2, 0.381893
317, 2, bw, filler, NA, 999, 999, 2, 23, 118, 179, 73, 133, 185, 176, 3, 0.764232
317, 2, bw, filler, NA, 999, 999, 2, 23, 118, 179, 73, 133, 185, 176, 2, 0.780638
317, 2, bw, attraction, a-b-db, 5, 1, 2, 24, 58, 132, 60, 135, 135, 60, 3, 1.67507
317, 2, bw, attraction, a-b-db, 5, 1, 2, 24, 58, 132, 60, 135, 135, 60, 2, 0.835524
317, 2, bw, filler, NA, 999, 999, 2, 25, 74, 152, 141, 159, 118, 66, 2, 0.85889
317, 2, bw, filler, NA, 999, 999, 2, 25, 74, 152, 141, 159, 118, 66, 3, 0.415221
317, 2, bw, filler, NA, 999, 999, 2, 26, 156, 189, 191, 79, 152, 156, 1, 0.844358
317, 2, bw, filler, NA, 999, 999, 2, 26, 156, 189, 191, 79, 152, 156, 2, 0.625373
317, 2, bw, filler, NA, 999, 999, 2, 27, 148, 70, 124, 89, 73, 78, 2, 2.13385
317, 2, bw, filler, NA, 999, 999, 2, 27, 148, 70, 124, 89, 73, 78, 3, 1.63918
317, 2, bw, attraction, a-b-da, 2, 2, 2, 28, 163, 89, 165, 90, 90, 165, 3, 1.79517
317, 2, bw, attraction, a-b-da, 2, 2, 2, 28, 163, 89, 165, 90, 90, 165, 2, 0.362042
317, 2, bw, attraction, a-b-db, 9, 1, 2, 29, 57, 129, 135, 60, 60, 135, 3, 1.46514
317, 2, bw, attraction, a-b-db, 9, 1, 2, 29, 57, 129, 135, 60, 60, 135, 2, 0.421465
317, 2, bw, catch, NA, 999, 999, 2, 30, 89, 106, 113, 142, 162, 153, 3, 0.97049
317, 2, bw, catch, NA, 999, 999, 2, 30, 89, 106, 113, 142, 162, 153, 1, 0.474189
317, 2, bw, filler, NA, 999, 999, 2, 31, 151, 81, 62, 100, 117, 183, 3, 1.01276
317, 2, bw, filler, NA, 999, 999, 2, 31, 151, 81, 62, 100, 117, 183, 2, 0.498953
317, 2, bw, attraction, a-b-da, 2, 1, 2, 32, 135, 60, 60, 135, 134, 59, 1, 0.996646
317, 2, bw, attraction, a-b-da, 2, 1, 2, 32, 135, 60, 60, 135, 134, 59, 2, 0.467638
317, 2, bw, attraction, a-b-db, 5, 2, 2, 33, 165, 90, 88, 161, 90, 165, 1, 3.43087
317, 2, bw, attraction, a-b-db, 5, 2, 2, 33, 165, 90, 88, 161, 90, 165, 2, 0.411807
317, 2, bw, filler, NA, 999, 999, 2, 34, 173, 123, 111, 190, 68, 96, 1, 1.56898
317, 2, bw, filler, NA, 999, 999, 2, 34, 173, 123, 111, 190, 68, 96, 3, 0.721038
317, 2, bw, attraction, a-b-da, 14, 3, 2, 35, 195, 120, 120, 195, 181, 111, 3, 1.37805
317, 2, bw, attraction, a-b-da, 14, 3, 2, 35, 195, 120, 120, 195, 181, 111, 1, 0.369581
317, 2, bw, filler, NA, 999, 999, 2, 36, 151, 61, 151, 129, 134, 108, 2, 3.56876
317, 2, bw, filler, NA, 999, 999, 2, 36, 151, 61, 151, 129, 134, 108, 1, 1.18439
317, 2, bw, attraction, a-b-db, 2, 3, 2, 37, 120, 195, 195, 120, 119, 193, 1, 1.26258
317, 2, bw, attraction, a-b-db, 2, 3, 2, 37, 120, 195, 195, 120, 119, 193, 2, 0.35494
317, 2, bw, attraction, a-b-da, 2, 1, 3, 1, 134, 59, 135, 60, 60, 135, 3, 0.954594
317, 2, bw, attraction, a-b-da, 2, 1, 3, 1, 134, 59, 135, 60, 60, 135, 2, 0.354949
317, 2, bw, filler, NA, 999, 999, 3, 2, 144, 59, 79, 67, 85, 158, 3, 0.946766
317, 2, bw, filler, NA, 999, 999, 3, 2, 144, 59, 79, 67, 85, 158, 2, 0.571838
317, 2, bw, filler, NA, 999, 999, 3, 3, 123, 59, 61, 153, 162, 156, 3, 1.09886
317, 2, bw, filler, NA, 999, 999, 3, 3, 123, 59, 61, 153, 162, 156, 1, 0.653862
317, 2, bw, attraction, a-b-da, 5, 1, 3, 4, 132, 58, 60, 135, 135, 60, 3, 1.74563
317, 2, bw, attraction, a-b-da, 5, 1, 3, 4, 132, 58, 60, 135, 135, 60, 2, 0.474366
317, 2, bw, attraction, a-b-da, 14, 2, 3, 5, 165, 90, 90, 165, 153, 83, 1, 0.884898
317, 2, bw, attraction, a-b-da, 14, 2, 3, 5, 165, 90, 90, 165, 153, 83, 2, 1.05653
317, 2, bw, attraction, a-b-da, 2, 2, 3, 6, 163, 89, 165, 90, 90, 165, 3, 1.1234
317, 2, bw, attraction, a-b-da, 2, 2, 3, 6, 163, 89, 165, 90, 90, 165, 2, 0.429078
317, 2, bw, filler, NA, 999, 999, 3, 7, 122, 162, 141, 99, 127, 88, 1, 0.793577
317, 2, bw, filler, NA, 999, 999, 3, 7, 122, 162, 141, 99, 127, 88, 2, 0.600642
317, 2, bw, attraction, a-b-db, 5, 3, 3, 8, 120, 195, 117, 190, 195, 120, 3, 1.55844
317, 2, bw, attraction, a-b-db, 5, 3, 3, 8, 120, 195, 117, 190, 195, 120, 1, 0.614458
317, 2, bw, catch, NA, 999, 999, 3, 9, 123, 72, 147, 168, 105, 150, 2, 1.09163
317, 2, bw, catch, NA, 999, 999, 3, 9, 123, 72, 147, 168, 105, 150, 1, 0.390642
317, 2, bw, filler, NA, 999, 999, 3, 10, 130, 167, 141, 177, 89, 159, 2, 1.0844
317, 2, bw, filler, NA, 999, 999, 3, 10, 130, 167, 141, 177, 89, 159, 3, 0.496012
317, 2, bw, attraction, a-b-db, 14, 1, 3, 11, 135, 60, 60, 135, 56, 125, 2, 1.76196
317, 2, bw, attraction, a-b-db, 14, 1, 3, 11, 135, 60, 60, 135, 56, 125, 3, 0.745951
317, 2, bw, attraction, a-b-da, 2, 3, 3, 12, 120, 195, 193, 119, 195, 120, 3, 2.29755
317, 2, bw, attraction, a-b-da, 2, 3, 3, 12, 120, 195, 193, 119, 195, 120, 1, 0.292155
317, 2, bw, attraction, a-b-db, 14, 3, 3, 13, 120, 195, 195, 120, 111, 181, 2, 0.806025
317, 2, bw, attraction, a-b-db, 14, 3, 3, 13, 120, 195, 195, 120, 111, 181, 1, 0.412366
317, 2, bw, filler, NA, 999, 999, 3, 14, 88, 191, 74, 57, 184, 64, 1, 1.14553
317, 2, bw, filler, NA, 999, 999, 3, 14, 88, 191, 74, 57, 184, 64, 2, 0.914504
317, 2, bw, attraction, a-b-db, 2, 2, 3, 15, 165, 90, 89, 163, 90, 165, 1, 1.53151
317, 2, bw, attraction, a-b-db, 2, 2, 3, 15, 165, 90, 89, 163, 90, 165, 2, 0.381113
317, 2, bw, filler, NA, 999, 999, 3, 16, 103, 130, 122, 134, 118, 78, 1, 1.09153
317, 2, bw, filler, NA, 999, 999, 3, 16, 103, 130, 122, 134, 118, 78, 2, 0.430507
317, 2, bw, attraction, a-b-da, 5, 3, 3, 17, 195, 120, 120, 195, 190, 117, 1, 0.93884
317, 2, bw, attraction, a-b-da, 5, 3, 3, 17, 195, 120, 120, 195, 190, 117, 2, 0.547959
317, 2, bw, attraction, a-b-db, 14, 2, 3, 18, 90, 165, 83, 153, 165, 90, 3, 0.971729
317, 2, bw, attraction, a-b-db, 14, 2, 3, 18, 90, 165, 83, 153, 165, 90, 2, 0.403373
317, 2, bw, catch, NA, 999, 999, 3, 19, 163, 92, 122, 193, 77, 118, 2, 1.69718
317, 2, bw, catch, NA, 999, 999, 3, 19, 163, 92, 122, 193, 77, 118, 3, 0.483949
317, 2, bw, attraction, a-b-db, 9, 1, 3, 20, 57, 129, 135, 60, 60, 135, 3, 1.1984
317, 2, bw, attraction, a-b-db, 9, 1, 3, 20, 57, 129, 135, 60, 60, 135, 1, 0.469332
317, 2, bw, attraction, a-b-db, 2, 1, 3, 21, 135, 60, 59, 134, 60, 135, 1, 1.39247
317, 2, bw, attraction, a-b-db, 2, 1, 3, 21, 135, 60, 59, 134, 60, 135, 2, 0.599405
317, 2, bw, attraction, a-b-db, 9, 3, 3, 22, 195, 120, 114, 186, 120, 195, 1, 1.62914
317, 2, bw, attraction, a-b-db, 9, 3, 3, 22, 195, 120, 114, 186, 120, 195, 2, 0.522596
317, 2, bw, catch, NA, 999, 999, 3, 23, 96, 99, 161, 94, 158, 157, 3, 0.891703
317, 2, bw, catch, NA, 999, 999, 3, 23, 96, 99, 161, 94, 158, 157, 2, 0.43069
317, 2, bw, attraction, a-b-da, 9, 3, 3, 24, 186, 114, 195, 120, 120, 195, 1, 1.76319
317, 2, bw, attraction, a-b-da, 9, 3, 3, 24, 186, 114, 195, 120, 120, 195, 2, 0.355412
317, 2, bw, attraction, a-b-da, 14, 3, 3, 25, 120, 195, 195, 120, 181, 111, 3, 0.899137
317, 2, bw, attraction, a-b-da, 14, 3, 3, 25, 120, 195, 195, 120, 181, 111, 2, 0.382117
317, 2, bw, attraction, a-b-da, 5, 2, 3, 26, 90, 165, 165, 90, 161, 88, 1, 0.980625
317, 2, bw, attraction, a-b-da, 5, 2, 3, 26, 90, 165, 165, 90, 161, 88, 2, 0.396296
317, 2, bw, attraction, a-b-da, 14, 1, 3, 27, 125, 56, 135, 60, 60, 135, 3, 1.05017
317, 2, bw, attraction, a-b-da, 14, 1, 3, 27, 125, 56, 135, 60, 60, 135, 2, 0.319121
317, 2, bw, attraction, a-b-da, 9, 2, 3, 28, 157, 86, 165, 90, 90, 165, 1, 0.768225
317, 2, bw, attraction, a-b-da, 9, 2, 3, 28, 157, 86, 165, 90, 90, 165, 2, 0.360807
317, 2, bw, attraction, a-b-da, 9, 1, 3, 29, 60, 135, 135, 60, 129, 57, 3, 0.879895
317, 2, bw, attraction, a-b-da, 9, 1, 3, 29, 60, 135, 135, 60, 129, 57, 1, 0.699644
317, 2, bw, filler, NA, 999, 999, 3, 30, 109, 146, 75, 153, 155, 90, 1, 1.2132
317, 2, bw, filler, NA, 999, 999, 3, 30, 109, 146, 75, 153, 155, 90, 2, 0.411515
317, 2, bw, filler, NA, 999, 999, 3, 31, 152, 89, 63, 63, 100, 194, 3, 1.18463
317, 2, bw, filler, NA, 999, 999, 3, 31, 152, 89, 63, 63, 100, 194, 2, 0.400246
317, 2, bw, filler, NA, 999, 999, 3, 32, 61, 135, 101, 82, 172, 189, 3, 0.566079
317, 2, bw, filler, NA, 999, 999, 3, 32, 61, 135, 101, 82, 172, 189, 2, 0.526586
317, 2, bw, attraction, a-b-db, 2, 3, 3, 33, 120, 195, 119, 193, 195, 120, 3, 2.62298
317, 2, bw, attraction, a-b-db, 2, 3, 3, 33, 120, 195, 119, 193, 195, 120, 1, 1.05232
317, 2, bw, attraction, a-b-db, 5, 2, 3, 34, 165, 90, 88, 161, 90, 165, 1, 2.90377
317, 2, bw, attraction, a-b-db, 5, 2, 3, 34, 165, 90, 88, 161, 90, 165, 2, 0.378195
317, 2, bw, attraction, a-b-db, 9, 2, 3, 35, 165, 90, 90, 165, 86, 157, 1, 0.928668
317, 2, bw, attraction, a-b-db, 9, 2, 3, 35, 165, 90, 90, 165, 86, 157, 2, 0.362305
317, 2, bw, attraction, a-b-db, 5, 1, 3, 36, 60, 135, 58, 132, 135, 60, 3, 1.72152
317, 2, bw, attraction, a-b-db, 5, 1, 3, 36, 60, 135, 58, 132, 135, 60, 2, 0.626961
317, 2, bw, filler, NA, 999, 999, 3, 37, 169, 95, 59, 93, 171, 62, 1, 1.39933
317, 2, bw, filler, NA, 999, 999, 3, 37, 169, 95, 59, 93, 171, 62, 2, 0.454194
317, 2, bw, attraction, a-b-db, 2, 3, 4, 1, 119, 193, 195, 120, 120, 195, 2, 1.13796
317, 2, bw, attraction, a-b-db, 2, 3, 4, 1, 119, 193, 195, 120, 120, 195, 1, 0.402898
317, 2, bw, filler, NA, 999, 999, 4, 2, 174, 95, 172, 150, 82, 126, 2, 1.13683
317, 2, bw, filler, NA, 999, 999, 4, 2, 174, 95, 172, 150, 82, 126, 3, 0.490455
317, 2, bw, filler, NA, 999, 999, 4, 3, 160, 154, 165, 133, 72, 68, 2, 0.972225
317, 2, bw, filler, NA, 999, 999, 4, 3, 160, 154, 165, 133, 72, 68, 1, 1.01191
317, 2, bw, attraction, a-b-db, 9, 3, 4, 4, 195, 120, 114, 186, 120, 195, 1, 5.19292
317, 2, bw, attraction, a-b-db, 9, 3, 4, 4, 195, 120, 114, 186, 120, 195, 2, 0.374512
317, 2, bw, attraction, a-b-db, 9, 1, 4, 5, 60, 135, 135, 60, 57, 129, 2, 1.53311
317, 2, bw, attraction, a-b-db, 9, 1, 4, 5, 60, 135, 135, 60, 57, 129, 3, 0.694507
317, 2, bw, catch, NA, 999, 999, 4, 6, 126, 189, 94, 161, 73, 122, 1, 1.1682
317, 2, bw, catch, NA, 999, 999, 4, 6, 126, 189, 94, 161, 73, 122, 3, 0.472459
317, 2, bw, attraction, a-b-da, 9, 1, 4, 7, 135, 60, 129, 57, 60, 135, 2, 1.51572
317, 2, bw, attraction, a-b-da, 9, 1, 4, 7, 135, 60, 129, 57, 60, 135, 3, 0.437869
317, 2, bw, catch, NA, 999, 999, 4, 8, 157, 158, 148, 107, 86, 109, 1, 1.04222
317, 2, bw, catch, NA, 999, 999, 4, 8, 157, 158, 148, 107, 86, 109, 3, 0.359397
317, 2, bw, filler, NA, 999, 999, 4, 9, 68, 130, 82, 154, 190, 105, 3, 1.0544
317, 2, bw, filler, NA, 999, 999, 4, 9, 68, 130, 82, 154, 190, 105, 2, 0.306699
317, 2, bw, attraction, a-b-da, 2, 2, 4, 10, 165, 90, 90, 165, 163, 89, 1, 1.53199
317, 2, bw, attraction, a-b-da, 2, 2, 4, 10, 165, 90, 90, 165, 163, 89, 2, 0.413407
317, 2, bw, attraction, a-b-da, 9, 3, 4, 11, 186, 114, 195, 120, 120, 195, 3, 2.74663
317, 2, bw, attraction, a-b-da, 9, 3, 4, 11, 186, 114, 195, 120, 120, 195, 1, 0.722923
317, 2, bw, filler, NA, 999, 999, 4, 12, 80, 169, 160, 87, 159, 191, 3, 0.747303
317, 2, bw, filler, NA, 999, 999, 4, 12, 80, 169, 160, 87, 159, 191, 1, 0.564379
317, 2, bw, filler, NA, 999, 999, 4, 13, 66, 102, 158, 96, 179, 102, 3, 1.28355
317, 2, bw, filler, NA, 999, 999, 4, 13, 66, 102, 158, 96, 179, 102, 1, 0.503067
317, 2, bw, attraction, a-b-da, 2, 3, 4, 14, 195, 120, 120, 195, 193, 119, 2, 2.28884
317, 2, bw, attraction, a-b-da, 2, 3, 4, 14, 195, 120, 120, 195, 193, 119, 1, 0.5074
317, 2, bw, attraction, a-b-da, 5, 3, 4, 15, 195, 120, 190, 117, 120, 195, 3, 5.49253
317, 2, bw, attraction, a-b-da, 5, 3, 4, 15, 195, 120, 190, 117, 120, 195, 1, 0.838125
317, 2, bw, attraction, a-b-da, 14, 3, 4, 16, 120, 195, 195, 120, 181, 111, 1, 1.34646
317, 2, bw, attraction, a-b-da, 14, 3, 4, 16, 120, 195, 195, 120, 181, 111, 3, 0.843433
317, 2, bw, attraction, a-b-db, 5, 2, 4, 17, 165, 90, 90, 165, 88, 161, 3, 3.16709
317, 2, bw, attraction, a-b-db, 5, 2, 4, 17, 165, 90, 90, 165, 88, 161, 1, 0.454658
317, 2, bw, attraction, a-b-db, 2, 2, 4, 18, 90, 165, 165, 90, 89, 163, 2, 1.72248
317, 2, bw, attraction, a-b-db, 2, 2, 4, 18, 90, 165, 165, 90, 89, 163, 3, 0.276065
317, 2, bw, filler, NA, 999, 999, 4, 19, 81, 87, 156, 78, 83, 133, 2, 1.70246
317, 2, bw, filler, NA, 999, 999, 4, 19, 81, 87, 156, 78, 83, 133, 1, 0.745283
317, 2, bw, attraction, a-b-da, 14, 1, 4, 20, 125, 56, 60, 135, 135, 60, 2, 1.77698
317, 2, bw, attraction, a-b-da, 14, 1, 4, 20, 125, 56, 60, 135, 135, 60, 1, 0.624388
317, 2, bw, attraction, a-b-db, 14, 3, 4, 21, 195, 120, 120, 195, 111, 181, 2, 1.22891
317, 2, bw, attraction, a-b-db, 14, 3, 4, 21, 195, 120, 120, 195, 111, 181, 3, 1.1225
317, 2, bw, filler, NA, 999, 999, 4, 22, 153, 161, 133, 65, 126, 104, 1, 3.68327
317, 2, bw, filler, NA, 999, 999, 4, 22, 153, 161, 133, 65, 126, 104, 2, 1.09437
317, 2, bw, filler, NA, 999, 999, 4, 23, 169, 119, 119, 118, 157, 158, 3, 1.39174
317, 2, bw, filler, NA, 999, 999, 4, 23, 169, 119, 119, 118, 157, 158, 2, 0.286742
317, 2, bw, attraction, a-b-db, 2, 1, 4, 24, 60, 135, 135, 60, 59, 134, 1, 0.961129
317, 2, bw, attraction, a-b-db, 2, 1, 4, 24, 60, 135, 135, 60, 59, 134, 2, 0.809699
317, 2, bw, attraction, a-b-db, 14, 2, 4, 25, 165, 90, 83, 153, 90, 165, 1, 0.99841
317, 2, bw, attraction, a-b-db, 14, 2, 4, 25, 165, 90, 83, 153, 90, 165, 2, 0.589484
317, 2, bw, attraction, a-b-db, 5, 1, 4, 26, 58, 132, 135, 60, 60, 135, 1, 1.3472
317, 2, bw, attraction, a-b-db, 5, 1, 4, 26, 58, 132, 135, 60, 60, 135, 2, 0.324046
317, 2, bw, attraction, a-b-db, 5, 3, 4, 27, 117, 190, 120, 195, 195, 120, 3, 0.916675
317, 2, bw, attraction, a-b-db, 5, 3, 4, 27, 117, 190, 120, 195, 195, 120, 1, 0.766981
317, 2, bw, attraction, a-b-db, 9, 2, 4, 28, 86, 157, 90, 165, 165, 90, 3, 0.766043
317, 2, bw, attraction, a-b-db, 9, 2, 4, 28, 86, 157, 90, 165, 165, 90, 1, 0.782403
317, 2, bw, filler, NA, 999, 999, 4, 29, 162, 64, 194, 132, 72, 147, 2, 1.18869
317, 2, bw, filler, NA, 999, 999, 4, 29, 162, 64, 194, 132, 72, 147, 3, 0.667817
317, 2, bw, filler, NA, 999, 999, 4, 30, 74, 147, 156, 113, 154, 195, 3, 0.726709
317, 2, bw, filler, NA, 999, 999, 4, 30, 74, 147, 156, 113, 154, 195, 1, 0.336541
317, 2, bw, attraction, a-b-db, 14, 1, 4, 31, 56, 125, 60, 135, 135, 60, 1, 1.18512
317, 2, bw, attraction, a-b-db, 14, 1, 4, 31, 56, 125, 60, 135, 135, 60, 3, 0.568643
317, 2, bw, attraction, a-b-da, 5, 2, 4, 32, 165, 90, 161, 88, 90, 165, 2, 0.703775
317, 2, bw, attraction, a-b-da, 5, 2, 4, 32, 165, 90, 161, 88, 90, 165, 1, 0.402944
317, 2, bw, attraction, a-b-da, 5, 1, 4, 33, 135, 60, 60, 135, 132, 58, 1, 1.11265
317, 2, bw, attraction, a-b-da, 5, 1, 4, 33, 135, 60, 60, 135, 132, 58, 2, 1.05095
317, 2, bw, catch, NA, 999, 999, 4, 34, 86, 109, 188, 127, 126, 129, 2, 0.846609
317, 2, bw, catch, NA, 999, 999, 4, 34, 86, 109, 188, 127, 126, 129, 1, 0.323633
317, 2, bw, attraction, a-b-da, 2, 1, 4, 35, 135, 60, 134, 59, 60, 135, 3, 2.0841
317, 2, bw, attraction, a-b-da, 2, 1, 4, 35, 135, 60, 134, 59, 60, 135, 1, 1.14336
317, 2, bw, attraction, a-b-da, 9, 2, 4, 36, 165, 90, 157, 86, 90, 165, 3, 2.34293
317, 2, bw, attraction, a-b-da, 9, 2, 4, 36, 165, 90, 157, 86, 90, 165, 1, 0.767535
317, 2, bw, attraction, a-b-da, 14, 2, 4, 37, 165, 90, 90, 165, 153, 83, 3, 0.95056
317, 2, bw, attraction, a-b-da, 14, 2, 4, 37, 165, 90, 90, 165, 153, 83, 1, 0.51158
317, 2, bw, attraction, a-b-da, 2, 2, 5, 1, 90, 165, 163, 89, 165, 90, 3, 2.06333
317, 2, bw, attraction, a-b-da, 2, 2, 5, 1, 90, 165, 163, 89, 165, 90, 1, 0.331327
317, 2, bw, filler, NA, 999, 999, 5, 2, 72, 90, 91, 154, 185, 169, 3, 0.571975
317, 2, bw, filler, NA, 999, 999, 5, 2, 72, 90, 91, 154, 185, 169, 1, 0.323597
317, 2, bw, filler, NA, 999, 999, 5, 3, 73, 88, 173, 146, 85, 162, 2, 0.900124
317, 2, bw, filler, NA, 999, 999, 5, 3, 73, 88, 173, 146, 85, 162, 1, 0.327114
317, 2, bw, attraction, a-b-db, 14, 2, 5, 4, 83, 153, 165, 90, 90, 165, 3, 0.703756
317, 2, bw, attraction, a-b-db, 14, 2, 5, 4, 83, 153, 165, 90, 90, 165, 1, 0.378764
317, 2, bw, attraction, a-b-db, 5, 3, 5, 5, 120, 195, 117, 190, 195, 120, 3, 0.929286
317, 2, bw, attraction, a-b-db, 5, 3, 5, 5, 120, 195, 117, 190, 195, 120, 2, 0.506975
317, 2, bw, filler, NA, 999, 999, 5, 6, 179, 134, 184, 139, 124, 69, 1, 1.50004
317, 2, bw, filler, NA, 999, 999, 5, 6, 179, 134, 184, 139, 124, 69, 3, 0.662949
317, 2, bw, attraction, a-b-db, 9, 3, 5, 7, 114, 186, 120, 195, 195, 120, 3, 0.881947
317, 2, bw, attraction, a-b-db, 9, 3, 5, 7, 114, 186, 120, 195, 195, 120, 1, 0.341686
317, 2, bw, attraction, a-b-da, 2, 1, 5, 8, 135, 60, 134, 59, 60, 135, 1, 0.789507
317, 2, bw, attraction, a-b-da, 2, 1, 5, 8, 135, 60, 134, 59, 60, 135, 2, 0.268488
317, 2, bw, attraction, a-b-db, 5, 2, 5, 9, 90, 165, 165, 90, 88, 161, 3, 0.911834
317, 2, bw, attraction, a-b-db, 5, 2, 5, 9, 90, 165, 165, 90, 88, 161, 2, 0.274094
317, 2, bw, attraction, a-b-db, 2, 2, 5, 10, 89, 163, 165, 90, 90, 165, 2, 0.572615
317, 2, bw, attraction, a-b-db, 2, 2, 5, 10, 89, 163, 165, 90, 90, 165, 3, 0.27645
317, 2, bw, attraction, a-b-da, 14, 2, 5, 11, 90, 165, 153, 83, 165, 90, 1, 1.39093
317, 2, bw, attraction, a-b-da, 14, 2, 5, 11, 90, 165, 153, 83, 165, 90, 3, 0.485809
317, 2, bw, filler, NA, 999, 999, 5, 12, 186, 188, 86, 102, 73, 124, 1, 0.61628
317, 2, bw, filler, NA, 999, 999, 5, 12, 186, 188, 86, 102, 73, 124, 2, 0.438751
317, 2, bw, catch, NA, 999, 999, 5, 13, 117, 78, 164, 91, 195, 120, 3, 1.17122
317, 2, bw, catch, NA, 999, 999, 5, 13, 117, 78, 164, 91, 195, 120, 1, 0.322842
317, 2, bw, attraction, a-b-da, 2, 3, 5, 14, 193, 119, 195, 120, 120, 195, 1, 1.21132
317, 2, bw, attraction, a-b-da, 2, 3, 5, 14, 193, 119, 195, 120, 120, 195, 2, 0.281509
317, 2, bw, filler, NA, 999, 999, 5, 15, 144, 110, 117, 87, 180, 111, 3, 0.772163
317, 2, bw, filler, NA, 999, 999, 5, 15, 144, 110, 117, 87, 180, 111, 2, 0.499768
317, 2, bw, filler, NA, 999, 999, 5, 16, 86, 149, 133, 82, 125, 140, 3, 0.805535
317, 2, bw, filler, NA, 999, 999, 5, 16, 86, 149, 133, 82, 125, 140, 2, 0.331975
317, 2, bw, attraction, a-b-da, 5, 3, 5, 17, 120, 195, 195, 120, 190, 117, 2, 1.11649
317, 2, bw, attraction, a-b-da, 5, 3, 5, 17, 120, 195, 195, 120, 190, 117, 3, 0.342778
317, 2, bw, catch, NA, 999, 999, 5, 18, 150, 165, 162, 93, 112, 83, 1, 0.982574
317, 2, bw, catch, NA, 999, 999, 5, 18, 150, 165, 162, 93, 112, 83, 3, 0.310293
317, 2, bw, filler, NA, 999, 999, 5, 19, 139, 145, 84, 149, 61, 91, 1, 0.73552
317, 2, bw, filler, NA, 999, 999, 5, 19, 139, 145, 84, 149, 61, 91, 3, 0.393433
317, 2, bw, catch, NA, 999, 999, 5, 20, 169, 146, 150, 105, 90, 105, 1, 0.590966
317, 2, bw, catch, NA, 999, 999, 5, 20, 169, 146, 150, 105, 90, 105, 3, 0.382179
317, 2, bw, attraction, a-b-db, 14, 3, 5, 21, 195, 120, 120, 195, 111, 181, 1, 1.79663
317, 2, bw, attraction, a-b-db, 14, 3, 5, 21, 195, 120, 120, 195, 111, 181, 2, 0.339363
317, 2, bw, attraction, a-b-db, 2, 3, 5, 22, 120, 195, 119, 193, 195, 120, 3, 0.963222
317, 2, bw, attraction, a-b-db, 2, 3, 5, 22, 120, 195, 119, 193, 195, 120, 2, 1.11556
317, 2, bw, attraction, a-b-db, 9, 2, 5, 23, 165, 90, 86, 157, 90, 165, 1, 0.988472
317, 2, bw, attraction, a-b-db, 9, 2, 5, 23, 165, 90, 86, 157, 90, 165, 3, 0.579501
317, 2, bw, attraction, a-b-da, 9, 2, 5, 24, 157, 86, 165, 90, 90, 165, 1, 0.865904
317, 2, bw, attraction, a-b-da, 9, 2, 5, 24, 157, 86, 165, 90, 90, 165, 2, 0.33423
317, 2, bw, attraction, a-b-db, 2, 1, 5, 25, 59, 134, 135, 60, 60, 135, 1, 1.21469
317, 2, bw, attraction, a-b-db, 2, 1, 5, 25, 59, 134, 135, 60, 60, 135, 3, 0.989069
317, 2, bw, attraction, a-b-da, 14, 3, 5, 26, 195, 120, 181, 111, 120, 195, 1, 0.699333
317, 2, bw, attraction, a-b-da, 14, 3, 5, 26, 195, 120, 181, 111, 120, 195, 3, 0.302408
317, 2, bw, filler, NA, 999, 999, 5, 27, 86, 145, 103, 68, 106, 195, 3, 1.05621
317, 2, bw, filler, NA, 999, 999, 5, 27, 86, 145, 103, 68, 106, 195, 2, 0.596563
317, 2, bw, attraction, a-b-db, 5, 1, 5, 28, 135, 60, 60, 135, 58, 132, 1, 0.642373
317, 2, bw, attraction, a-b-db, 5, 1, 5, 28, 135, 60, 60, 135, 58, 132, 2, 0.335422
317, 2, bw, attraction, a-b-da, 5, 1, 5, 29, 135, 60, 132, 58, 60, 135, 1, 0.559942
317, 2, bw, attraction, a-b-da, 5, 1, 5, 29, 135, 60, 132, 58, 60, 135, 2, 0.280503
317, 2, bw, filler, NA, 999, 999, 5, 30, 137, 90, 134, 80, 187, 130, 1, 0.610877
317, 2, bw, filler, NA, 999, 999, 5, 30, 137, 90, 134, 80, 187, 130, 2, 3.28145
317, 2, bw, attraction, a-b-da, 5, 2, 5, 31, 165, 90, 161, 88, 90, 165, 3, 2.41893
317, 2, bw, attraction, a-b-da, 5, 2, 5, 31, 165, 90, 161, 88, 90, 165, 2, 0.673005
317, 2, bw, filler, NA, 999, 999, 5, 32, 69, 168, 63, 173, 169, 150, 3, 0.651272
317, 2, bw, filler, NA, 999, 999, 5, 32, 69, 168, 63, 173, 169, 150, 2, 0.77638
317, 2, bw, attraction, a-b-db, 14, 1, 5, 33, 60, 135, 56, 125, 135, 60, 1, 1.15864
317, 2, bw, attraction, a-b-db, 14, 1, 5, 33, 60, 135, 56, 125, 135, 60, 2, 0.60711
317, 2, bw, attraction, a-b-da, 9, 1, 5, 34, 135, 60, 129, 57, 60, 135, 3, 0.852115
317, 2, bw, attraction, a-b-da, 9, 1, 5, 34, 135, 60, 129, 57, 60, 135, 2, 0.473039
317, 2, bw, attraction, a-b-da, 9, 3, 5, 35, 186, 114, 120, 195, 195, 120, 2, 1.33151
317, 2, bw, attraction, a-b-da, 9, 3, 5, 35, 186, 114, 120, 195, 195, 120, 1, 0.74113
317, 2, bw, attraction, a-b-db, 9, 1, 5, 36, 60, 135, 135, 60, 57, 129, 1, 1.27689
317, 2, bw, attraction, a-b-db, 9, 1, 5, 36, 60, 135, 135, 60, 57, 129, 2, 0.288381
317, 2, bw, attraction, a-b-da, 14, 1, 5, 37, 60, 135, 135, 60, 125, 56, 1, 2.73089
317, 2, bw, attraction, a-b-da, 14, 1, 5, 37, 60, 135, 135, 60, 125, 56, 3, 0.588032
317, 2, bw, attraction, a-b-db, 5, 2, 6, 1, 165, 90, 90, 165, 88, 161, 1, 0.522484
317, 2, bw, attraction, a-b-db, 5, 2, 6, 1, 165, 90, 90, 165, 88, 161, 2, 0.252372
317, 2, bw, attraction, a-b-db, 2, 2, 6, 2, 90, 165, 165, 90, 89, 163, 1, 1.80008
317, 2, bw, attraction, a-b-db, 2, 2, 6, 2, 90, 165, 165, 90, 89, 163, 2, 0.262838
317, 2, bw, attraction, a-b-da, 14, 1, 6, 3, 125, 56, 135, 60, 60, 135, 1, 0.450137
317, 2, bw, attraction, a-b-da, 14, 1, 6, 3, 125, 56, 135, 60, 60, 135, 2, 0.319191
317, 2, bw, catch, NA, 999, 999, 6, 4, 116, 139, 132, 63, 130, 185, 3, 0.680375
317, 2, bw, catch, NA, 999, 999, 6, 4, 116, 139, 132, 63, 130, 185, 2, 0.268116
317, 2, bw, attraction, a-b-da, 2, 2, 6, 5, 163, 89, 90, 165, 165, 90, 3, 0.631396
317, 2, bw, attraction, a-b-da, 2, 2, 6, 5, 163, 89, 90, 165, 165, 90, 2, 0.677083
317, 2, bw, attraction, a-b-da, 14, 2, 6, 6, 165, 90, 153, 83, 90, 165, 1, 1.27146
317, 2, bw, attraction, a-b-da, 14, 2, 6, 6, 165, 90, 153, 83, 90, 165, 2, 0.347108
317, 2, bw, attraction, a-b-da, 5, 1, 6, 7, 60, 135, 132, 58, 135, 60, 3, 1.29098
317, 2, bw, attraction, a-b-da, 5, 1, 6, 7, 60, 135, 132, 58, 135, 60, 1, 0.421857
317, 2, bw, attraction, a-b-da, 14, 3, 6, 8, 195, 120, 120, 195, 181, 111, 2, 1.16295
317, 2, bw, attraction, a-b-da, 14, 3, 6, 8, 195, 120, 120, 195, 181, 111, 3, 0.291357
317, 2, bw, attraction, a-b-da, 5, 3, 6, 9, 195, 120, 190, 117, 120, 195, 1, 1.1171
317, 2, bw, attraction, a-b-da, 5, 3, 6, 9, 195, 120, 190, 117, 120, 195, 2, 0.783363
317, 2, bw, catch, NA, 999, 999, 6, 10, 154, 161, 91, 164, 114, 81, 1, 0.637748
317, 2, bw, catch, NA, 999, 999, 6, 10, 154, 161, 91, 164, 114, 81, 3, 0.898809
317, 2, bw, catch, NA, 999, 999, 6, 11, 162, 93, 144, 171, 129, 66, 2, 0.756597
317, 2, bw, catch, NA, 999, 999, 6, 11, 162, 93, 144, 171, 129, 66, 3, 0.36496
317, 2, bw, attraction, a-b-db, 2, 1, 6, 12, 59, 134, 60, 135, 135, 60, 1, 0.908041
317, 2, bw, attraction, a-b-db, 2, 1, 6, 12, 59, 134, 60, 135, 135, 60, 3, 0.518497
317, 2, bw, attraction, a-b-da, 9, 3, 6, 13, 186, 114, 195, 120, 120, 195, 3, 0.879579
317, 2, bw, attraction, a-b-da, 9, 3, 6, 13, 186, 114, 195, 120, 120, 195, 1, 0.283288
317, 2, bw, attraction, a-b-db, 9, 1, 6, 14, 57, 129, 60, 135, 135, 60, 1, 0.909771
317, 2, bw, attraction, a-b-db, 9, 1, 6, 14, 57, 129, 60, 135, 135, 60, 3, 0.584143
317, 2, bw, attraction, a-b-db, 14, 3, 6, 15, 111, 181, 120, 195, 195, 120, 3, 0.670556
317, 2, bw, attraction, a-b-db, 14, 3, 6, 15, 111, 181, 120, 195, 195, 120, 1, 0.234322
317, 2, bw, filler, NA, 999, 999, 6, 16, 73, 161, 145, 102, 106, 171, 3, 0.534941
317, 2, bw, filler, NA, 999, 999, 6, 16, 73, 161, 145, 102, 106, 171, 1, 0.208644
317, 2, bw, filler, NA, 999, 999, 6, 17, 89, 194, 186, 86, 127, 136, 1, 1.56584
317, 2, bw, filler, NA, 999, 999, 6, 17, 89, 194, 186, 86, 127, 136, 3, 0.270165
317, 2, bw, attraction, a-b-da, 2, 1, 6, 18, 134, 59, 60, 135, 135, 60, 1, 1.0732
317, 2, bw, attraction, a-b-da, 2, 1, 6, 18, 134, 59, 60, 135, 135, 60, 2, 0.292836
317, 2, bw, filler, NA, 999, 999, 6, 19, 131, 70, 86, 86, 100, 84, 3, 2.79069
317, 2, bw, filler, NA, 999, 999, 6, 19, 131, 70, 86, 86, 100, 84, 2, 0.325099
317, 2, bw, attraction, a-b-db, 14, 2, 6, 20, 165, 90, 90, 165, 83, 153, 1, 2.63774
317, 2, bw, attraction, a-b-db, 14, 2, 6, 20, 165, 90, 90, 165, 83, 153, 2, 0.306131
317, 2, bw, attraction, a-b-da, 9, 2, 6, 21, 165, 90, 157, 86, 90, 165, 1, 0.699286
317, 2, bw, attraction, a-b-da, 9, 2, 6, 21, 165, 90, 157, 86, 90, 165, 2, 0.518539
317, 2, bw, filler, NA, 999, 999, 6, 22, 157, 181, 188, 182, 124, 170, 2, 0.967549
317, 2, bw, filler, NA, 999, 999, 6, 22, 157, 181, 188, 182, 124, 170, 3, 0.295813
317, 2, bw, attraction, a-b-db, 9, 2, 6, 23, 90, 165, 165, 90, 86, 157, 1, 0.657745
317, 2, bw, attraction, a-b-db, 9, 2, 6, 23, 90, 165, 165, 90, 86, 157, 3, 0.29414
317, 2, bw, filler, NA, 999, 999, 6, 24, 195, 67, 57, 73, 156, 80, 1, 2.11999
317, 2, bw, filler, NA, 999, 999, 6, 24, 195, 67, 57, 73, 156, 80, 2, 0.314133
317, 2, bw, filler, NA, 999, 999, 6, 25, 167, 182, 168, 159, 157, 115, 2, 0.836661
317, 2, bw, filler, NA, 999, 999, 6, 25, 167, 182, 168, 159, 157, 115, 3, 0.392251
317, 2, bw, filler, NA, 999, 999, 6, 26, 180, 72, 81, 168, 119, 125, 3, 1.04596
317, 2, bw, filler, NA, 999, 999, 6, 26, 180, 72, 81, 168, 119, 125, 1, 0.791557
317, 2, bw, filler, NA, 999, 999, 6, 27, 194, 141, 128, 131, 140, 159, 1, 1.44865
317, 2, bw, filler, NA, 999, 999, 6, 27, 194, 141, 128, 131, 140, 159, 2, 0.333505
317, 2, bw, attraction, a-b-db, 5, 1, 6, 28, 135, 60, 58, 132, 60, 135, 1, 0.877959
317, 2, bw, attraction, a-b-db, 5, 1, 6, 28, 135, 60, 58, 132, 60, 135, 2, 0.389951
317, 2, bw, attraction, a-b-db, 9, 3, 6, 29, 114, 186, 195, 120, 120, 195, 2, 2.11163
317, 2, bw, attraction, a-b-db, 9, 3, 6, 29, 114, 186, 195, 120, 120, 195, 1, 0.385512
317, 2, bw, attraction, a-b-db, 14, 1, 6, 30, 60, 135, 56, 125, 135, 60, 3, 1.34404
317, 2, bw, attraction, a-b-db, 14, 1, 6, 30, 60, 135, 56, 125, 135, 60, 2, 0.376898
317, 2, bw, attraction, a-b-db, 5, 3, 6, 31, 195, 120, 120, 195, 117, 190, 2, 2.02339
317, 2, bw, attraction, a-b-db, 5, 3, 6, 31, 195, 120, 120, 195, 117, 190, 1, 0.37287
317, 2, bw, filler, NA, 999, 999, 6, 32, 60, 75, 166, 81, 116, 69, 2, 1.8912
317, 2, bw, filler, NA, 999, 999, 6, 32, 60, 75, 166, 81, 116, 69, 1, 0.373957
317, 2, bw, attraction, a-b-da, 5, 2, 6, 33, 165, 90, 161, 88, 90, 165, 1, 1.1884
317, 2, bw, attraction, a-b-da, 5, 2, 6, 33, 165, 90, 161, 88, 90, 165, 2, 0.411325
317, 2, bw, attraction, a-b-da, 9, 1, 6, 34, 135, 60, 60, 135, 129, 57, 1, 0.632497
317, 2, bw, attraction, a-b-da, 9, 1, 6, 34, 135, 60, 60, 135, 129, 57, 2, 0.758424
317, 2, bw, attraction, a-b-da, 2, 3, 6, 35, 195, 120, 120, 195, 193, 119, 2, 1.3814
317, 2, bw, attraction, a-b-da, 2, 3, 6, 35, 195, 120, 120, 195, 193, 119, 3, 0.284821
317, 2, bw, attraction, a-b-db, 2, 3, 6, 36, 119, 193, 120, 195, 195, 120, 2, 0.711388
317, 2, bw, attraction, a-b-db, 2, 3, 6, 36, 119, 193, 120, 195, 195, 120, 3, 0.273829
317, 2, bw, filler, NA, 999, 999, 6, 37, 179, 124, 116, 170, 63, 110, 1, 0.740341
317, 2, bw, filler, NA, 999, 999, 6, 37, 179, 124, 116, 170, 63, 110, 3, 0.381509
317, 2, bw, attraction, a-b-db, 2, 3, 7, 1, 120, 195, 195, 120, 119, 193, 1, 0.827904
317, 2, bw, attraction, a-b-db, 2, 3, 7, 1, 120, 195, 195, 120, 119, 193, 2, 0.257595
317, 2, bw, attraction, a-b-db, 9, 1, 7, 2, 60, 135, 135, 60, 57, 129, 1, 0.708854
317, 2, bw, attraction, a-b-db, 9, 1, 7, 2, 60, 135, 135, 60, 57, 129, 2, 0.663273
317, 2, bw, attraction, a-b-db, 9, 2, 7, 3, 165, 90, 86, 157, 90, 165, 1, 0.538284
317, 2, bw, attraction, a-b-db, 9, 2, 7, 3, 165, 90, 86, 157, 90, 165, 2, 0.315416
317, 2, bw, attraction, a-b-da, 9, 2, 7, 4, 90, 165, 165, 90, 157, 86, 1, 1.26858
317, 2, bw, attraction, a-b-da, 9, 2, 7, 4, 90, 165, 165, 90, 157, 86, 2, 0.256784
317, 2, bw, attraction, a-b-db, 5, 3, 7, 5, 195, 120, 120, 195, 117, 190, 1, 0.843969
317, 2, bw, attraction, a-b-db, 5, 3, 7, 5, 195, 120, 120, 195, 117, 190, 3, 0.393125
317, 2, bw, attraction, a-b-da, 14, 2, 7, 6, 153, 83, 165, 90, 90, 165, 1, 0.0229082
317, 2, bw, attraction, a-b-da, 14, 2, 7, 6, 153, 83, 165, 90, 90, 165, 2, 0.61287
317, 2, bw, attraction, a-b-db, 14, 1, 7, 7, 60, 135, 56, 125, 135, 60, 3, 1.08195
317, 2, bw, attraction, a-b-db, 14, 1, 7, 7, 60, 135, 56, 125, 135, 60, 1, 0.461565
317, 2, bw, filler, NA, 999, 999, 7, 8, 111, 128, 163, 166, 137, 101, 2, 0.736685
317, 2, bw, filler, NA, 999, 999, 7, 8, 111, 128, 163, 166, 137, 101, 1, 0.298528
317, 2, bw, attraction, a-b-da, 2, 2, 7, 9, 165, 90, 163, 89, 90, 165, 1, 0.876222
317, 2, bw, attraction, a-b-da, 2, 2, 7, 9, 165, 90, 163, 89, 90, 165, 2, 0.263981
317, 2, bw, filler, NA, 999, 999, 7, 10, 127, 188, 183, 90, 114, 151, 1, 1.85115
317, 2, bw, filler, NA, 999, 999, 7, 10, 127, 188, 183, 90, 114, 151, 3, 0.287917
317, 2, bw, filler, NA, 999, 999, 7, 11, 88, 154, 56, 167, 162, 86, 3, 1.07443
317, 2, bw, filler, NA, 999, 999, 7, 11, 88, 154, 56, 167, 162, 86, 2, 0.814132
317, 2, bw, catch, NA, 999, 999, 7, 12, 148, 167, 143, 112, 112, 83, 1, 1.19508
317, 2, bw, catch, NA, 999, 999, 7, 12, 148, 167, 143, 112, 112, 83, 3, 0.274021
317, 2, bw, attraction, a-b-db, 9, 3, 7, 13, 120, 195, 114, 186, 195, 120, 1, 1.30055
317, 2, bw, attraction, a-b-db, 9, 3, 7, 13, 120, 195, 114, 186, 195, 120, 3, 0.319489
317, 2, bw, attraction, a-b-db, 5, 2, 7, 14, 165, 90, 88, 161, 90, 165, 1, 1.3286
317, 2, bw, attraction, a-b-db, 5, 2, 7, 14, 165, 90, 88, 161, 90, 165, 3, 0.314319
317, 2, bw, attraction, a-b-db, 14, 3, 7, 15, 195, 120, 120, 195, 111, 181, 3, 0.851413
317, 2, bw, attraction, a-b-db, 14, 3, 7, 15, 195, 120, 120, 195, 111, 181, 1, 0.808432
317, 2, bw, attraction, a-b-da, 5, 2, 7, 16, 165, 90, 161, 88, 90, 165, 2, 1.08534
317, 2, bw, attraction, a-b-da, 5, 2, 7, 16, 165, 90, 161, 88, 90, 165, 3, 0.385068
317, 2, bw, attraction, a-b-da, 2, 1, 7, 17, 60, 135, 134, 59, 135, 60, 2, 1.77568
317, 2, bw, attraction, a-b-da, 2, 1, 7, 17, 60, 135, 134, 59, 135, 60, 1, 0.598876
317, 2, bw, filler, NA, 999, 999, 7, 18, 82, 131, 141, 108, 97, 107, 2, 1.39676
317, 2, bw, filler, NA, 999, 999, 7, 18, 82, 131, 141, 108, 97, 107, 1, 0.571524
317, 2, bw, filler, NA, 999, 999, 7, 19, 117, 84, 89, 163, 182, 80, 3, 1.48268
317, 2, bw, filler, NA, 999, 999, 7, 19, 117, 84, 89, 163, 182, 80, 1, 1.00612
317, 2, bw, filler, NA, 999, 999, 7, 20, 154, 70, 128, 74, 125, 179, 3, 1.03579
317, 2, bw, filler, NA, 999, 999, 7, 20, 154, 70, 128, 74, 125, 179, 2, 0.513483
317, 2, bw, filler, NA, 999, 999, 7, 21, 153, 156, 99, 180, 87, 111, 1, 0.738514
317, 2, bw, filler, NA, 999, 999, 7, 21, 153, 156, 99, 180, 87, 111, 3, 0.339627
317, 2, bw, catch, NA, 999, 999, 7, 22, 133, 62, 152, 163, 156, 99, 3, 0.723508
317, 2, bw, catch, NA, 999, 999, 7, 22, 133, 62, 152, 163, 156, 99, 1, 0.501255
317, 2, bw, filler, NA, 999, 999, 7, 23, 115, 122, 104, 165, 159, 135, 3, 0.863089
317, 2, bw, filler, NA, 999, 999, 7, 23, 115, 122, 104, 165, 159, 135, 1, 0.523368
317, 2, bw, filler, NA, 999, 999, 7, 24, 74, 94, 83, 60, 84, 146, 3, 1.27579
317, 2, bw, filler, NA, 999, 999, 7, 24, 74, 94, 83, 60, 84, 146, 2, 0.311361
317, 2, bw, attraction, a-b-da, 5, 3, 7, 25, 120, 195, 195, 120, 190, 117, 3, 1.16057
317, 2, bw, attraction, a-b-da, 5, 3, 7, 25, 120, 195, 195, 120, 190, 117, 2, 0.624919
317, 2, bw, attraction, a-b-da, 9, 1, 7, 26, 60, 135, 129, 57, 135, 60, 3, 0.95718
317, 2, bw, attraction, a-b-da, 9, 1, 7, 26, 60, 135, 129, 57, 135, 60, 1, 0.453599
317, 2, bw, attraction, a-b-da, 5, 1, 7, 27, 135, 60, 132, 58, 60, 135, 1, 0.73739
317, 2, bw, attraction, a-b-da, 5, 1, 7, 27, 135, 60, 132, 58, 60, 135, 3, 0.274433
317, 2, bw, attraction, a-b-da, 14, 3, 7, 28, 120, 195, 181, 111, 195, 120, 3, 0.676956
317, 2, bw, attraction, a-b-da, 14, 3, 7, 28, 120, 195, 181, 111, 195, 120, 1, 0.296748
317, 2, bw, attraction, a-b-da, 2, 3, 7, 29, 193, 119, 120, 195, 195, 120, 2, 0.490622
317, 2, bw, attraction, a-b-da, 2, 3, 7, 29, 193, 119, 120, 195, 195, 120, 3, 0.365868
317, 2, bw, attraction, a-b-db, 14, 2, 7, 30, 83, 153, 90, 165, 165, 90, 3, 0.69293
317, 2, bw, attraction, a-b-db, 14, 2, 7, 30, 83, 153, 90, 165, 165, 90, 1, 0.320009
317, 2, bw, catch, NA, 999, 999, 7, 31, 128, 67, 177, 138, 161, 94, 2, 0.60119
317, 2, bw, catch, NA, 999, 999, 7, 31, 128, 67, 177, 138, 161, 94, 1, 0.344258
317, 2, bw, attraction, a-b-da, 14, 1, 7, 32, 135, 60, 125, 56, 60, 135, 3, 0.856126
317, 2, bw, attraction, a-b-da, 14, 1, 7, 32, 135, 60, 125, 56, 60, 135, 2, 0.548456
317, 2, bw, attraction, a-b-db, 5, 1, 7, 33, 135, 60, 60, 135, 58, 132, 1, 0.972252
317, 2, bw, attraction, a-b-db, 5, 1, 7, 33, 135, 60, 60, 135, 58, 132, 2, 0.339924
317, 2, bw, attraction, a-b-db, 2, 1, 7, 34, 59, 134, 135, 60, 60, 135, 3, 0.523885
317, 2, bw, attraction, a-b-db, 2, 1, 7, 34, 59, 134, 135, 60, 60, 135, 2, 0.949684
317, 2, bw, filler, NA, 999, 999, 7, 35, 62, 80, 62, 113, 125, 73, 3, 0.709203
317, 2, bw, filler, NA, 999, 999, 7, 35, 62, 80, 62, 113, 125, 73, 1, 0.423616
317, 2, bw, attraction, a-b-db, 2, 2, 7, 36, 89, 163, 165, 90, 90, 165, 3, 0.812265
317, 2, bw, attraction, a-b-db, 2, 2, 7, 36, 89, 163, 165, 90, 90, 165, 1, 0.458486
317, 2, bw, attraction, a-b-da, 9, 3, 7, 37, 195, 120, 186, 114, 120, 195, 1, 0.829628
317, 2, bw, attraction, a-b-da, 9, 3, 7, 37, 195, 120, 186, 114, 120, 195, 2, 0.339386
317, 2, bw, attraction, a-b-db, 2, 1, 8, 1, 59, 134, 60, 135, 135, 60, 3, 1.01121
317, 2, bw, attraction, a-b-db, 2, 1, 8, 1, 59, 134, 60, 135, 135, 60, 1, 0.537517
317, 2, bw, filler, NA, 999, 999, 8, 2, 149, 188, 74, 94, 110, 153, 1, 0.689935
317, 2, bw, filler, NA, 999, 999, 8, 2, 149, 188, 74, 94, 110, 153, 2, 0.356981
317, 2, bw, attraction, a-b-db, 9, 3, 8, 3, 114, 186, 120, 195, 195, 120, 3, 0.820138
317, 2, bw, attraction, a-b-db, 9, 3, 8, 3, 114, 186, 120, 195, 195, 120, 2, 0.346714
317, 2, bw, attraction, a-b-da, 2, 1, 8, 4, 135, 60, 60, 135, 134, 59, 1, 0.9064
317, 2, bw, attraction, a-b-da, 2, 1, 8, 4, 135, 60, 60, 135, 134, 59, 2, 0.316723
317, 2, bw, attraction, a-b-db, 14, 1, 8, 5, 135, 60, 60, 135, 56, 125, 1, 0.549985
317, 2, bw, attraction, a-b-db, 14, 1, 8, 5, 135, 60, 60, 135, 56, 125, 2, 0.423054
317, 2, bw, filler, NA, 999, 999, 8, 6, 133, 77, 64, 172, 122, 135, 1, 0.499617
317, 2, bw, filler, NA, 999, 999, 8, 6, 133, 77, 64, 172, 122, 135, 2, 0.526683
317, 2, bw, attraction, a-b-da, 14, 1, 8, 7, 135, 60, 60, 135, 125, 56, 1, 0.535095
317, 2, bw, attraction, a-b-da, 14, 1, 8, 7, 135, 60, 60, 135, 125, 56, 2, 1.40899
317, 2, bw, attraction, a-b-db, 14, 3, 8, 8, 195, 120, 111, 181, 120, 195, 3, 1.06178
317, 2, bw, attraction, a-b-db, 14, 3, 8, 8, 195, 120, 111, 181, 120, 195, 2, 0.314073
317, 2, bw, attraction, a-b-db, 2, 2, 8, 9, 89, 163, 90, 165, 165, 90, 3, 0.547213
317, 2, bw, attraction, a-b-db, 2, 2, 8, 9, 89, 163, 90, 165, 165, 90, 1, 0.74037
317, 2, bw, attraction, a-b-da, 5, 2, 8, 10, 161, 88, 165, 90, 90, 165, 2, 1.65214
317, 2, bw, attraction, a-b-da, 5, 2, 8, 10, 161, 88, 165, 90, 90, 165, 1, 0.472928
317, 2, bw, attraction, a-b-da, 2, 2, 8, 11, 90, 165, 165, 90, 163, 89, 2, 0.747341
317, 2, bw, attraction, a-b-da, 2, 2, 8, 11, 90, 165, 165, 90, 163, 89, 3, 1.08442
317, 2, bw, attraction, a-b-da, 5, 1, 8, 12, 132, 58, 135, 60, 60, 135, 2, 0.638671
317, 2, bw, attraction, a-b-da, 5, 1, 8, 12, 132, 58, 135, 60, 60, 135, 1, 0.379806
317, 2, bw, attraction, a-b-db, 5, 3, 8, 13, 117, 190, 120, 195, 195, 120, 2, 0.522403
317, 2, bw, attraction, a-b-db, 5, 3, 8, 13, 117, 190, 120, 195, 195, 120, 1, 0.356113
317, 2, bw, filler, NA, 999, 999, 8, 14, 66, 86, 102, 184, 122, 80, 2, 1.09931
317, 2, bw, filler, NA, 999, 999, 8, 14, 66, 86, 102, 184, 122, 80, 1, 0.334343
317, 2, bw, catch, NA, 999, 999, 8, 15, 139, 176, 128, 127, 65, 130, 1, 0.934762
317, 2, bw, catch, NA, 999, 999, 8, 15, 139, 176, 128, 127, 65, 130, 3, 0.280443
317, 2, bw, attraction, a-b-db, 2, 3, 8, 16, 119, 193, 120, 195, 195, 120, 3, 0.874984
317, 2, bw, attraction, a-b-db, 2, 3, 8, 16, 119, 193, 120, 195, 195, 120, 2, 0.726638
317, 2, bw, attraction, a-b-da, 14, 3, 8, 17, 195, 120, 181, 111, 120, 195, 3, 1.239
317, 2, bw, attraction, a-b-da, 14, 3, 8, 17, 195, 120, 181, 111, 120, 195, 1, 0.499945
317, 2, bw, filler, NA, 999, 999, 8, 18, 61, 115, 183, 110, 159, 76, 2, 1.31766
317, 2, bw, filler, NA, 999, 999, 8, 18, 61, 115, 183, 110, 159, 76, 1, 0.31992
317, 2, bw, attraction, a-b-da, 9, 3, 8, 19, 120, 195, 186, 114, 195, 120, 1, 1.48121
317, 2, bw, attraction, a-b-da, 9, 3, 8, 19, 120, 195, 186, 114, 195, 120, 2, 0.316703
317, 2, bw, attraction, a-b-da, 14, 2, 8, 20, 90, 165, 165, 90, 153, 83, 1, 1.2619
317, 2, bw, attraction, a-b-da, 14, 2, 8, 20, 90, 165, 165, 90, 153, 83, 2, 0.306506
317, 2, bw, catch, NA, 999, 999, 8, 21, 92, 103, 144, 171, 144, 111, 2, 1.39524
317, 2, bw, catch, NA, 999, 999, 8, 21, 92, 103, 144, 171, 144, 111, 1, 0.314205
317, 2, bw, attraction, a-b-db, 5, 2, 8, 22, 88, 161, 165, 90, 90, 165, 2, 1.74734
317, 2, bw, attraction, a-b-db, 5, 2, 8, 22, 88, 161, 165, 90, 90, 165, 3, 0.324102
317, 2, bw, attraction, a-b-db, 5, 1, 8, 23, 60, 135, 58, 132, 135, 60, 3, 0.764579
317, 2, bw, attraction, a-b-db, 5, 1, 8, 23, 60, 135, 58, 132, 135, 60, 1, 0.644976
317, 2, bw, attraction, a-b-da, 5, 3, 8, 24, 120, 195, 190, 117, 195, 120, 3, 2.05672
317, 2, bw, attraction, a-b-da, 5, 3, 8, 24, 120, 195, 190, 117, 195, 120, 1, 0.348762
317, 2, bw, filler, NA, 999, 999, 8, 25, 173, 117, 64, 104, 163, 137, 1, 0.868526
317, 2, bw, filler, NA, 999, 999, 8, 25, 173, 117, 64, 104, 163, 137, 2, 0.312896
317, 2, bw, attraction, a-b-da, 9, 2, 8, 26, 165, 90, 157, 86, 90, 165, 3, 1.22614
317, 2, bw, attraction, a-b-da, 9, 2, 8, 26, 165, 90, 157, 86, 90, 165, 2, 0.303642
317, 2, bw, filler, NA, 999, 999, 8, 27, 195, 119, 69, 155, 133, 172, 1, 0.65747
317, 2, bw, filler, NA, 999, 999, 8, 27, 195, 119, 69, 155, 133, 172, 2, 0.389923
317, 2, bw, attraction, a-b-da, 2, 3, 8, 28, 193, 119, 195, 120, 120, 195, 1, 0.963737
317, 2, bw, attraction, a-b-da, 2, 3, 8, 28, 193, 119, 195, 120, 120, 195, 2, 0.292144
317, 2, bw, attraction, a-b-db, 9, 1, 8, 29, 135, 60, 57, 129, 60, 135, 2, 0.734054
317, 2, bw, attraction, a-b-db, 9, 1, 8, 29, 135, 60, 57, 129, 60, 135, 1, 1.04782
317, 2, bw, filler, NA, 999, 999, 8, 30, 138, 161, 162, 183, 110, 87, 2, 0.979411
317, 2, bw, filler, NA, 999, 999, 8, 30, 138, 161, 162, 183, 110, 87, 3, 0.674998
317, 2, bw, filler, NA, 999, 999, 8, 31, 94, 122, 92, 176, 169, 87, 3, 0.749385
317, 2, bw, filler, NA, 999, 999, 8, 31, 94, 122, 92, 176, 169, 87, 1, 1.31043
317, 2, bw, filler, NA, 999, 999, 8, 32, 78, 90, 90, 61, 160, 156, 3, 0.959407
317, 2, bw, filler, NA, 999, 999, 8, 32, 78, 90, 90, 61, 160, 156, 2, 0.495675
317, 2, bw, filler, NA, 999, 999, 8, 33, 62, 137, 119, 119, 169, 181, 3, 0.633412
317, 2, bw, filler, NA, 999, 999, 8, 33, 62, 137, 119, 119, 169, 181, 1, 0.343172
317, 2, bw, attraction, a-b-da, 9, 1, 8, 34, 129, 57, 60, 135, 135, 60, 3, 0.631084
317, 2, bw, attraction, a-b-da, 9, 1, 8, 34, 129, 57, 60, 135, 135, 60, 2, 0.292899
317, 2, bw, attraction, a-b-db, 9, 2, 8, 35, 165, 90, 86, 157, 90, 165, 1, 2.38266
317, 2, bw, attraction, a-b-db, 9, 2, 8, 35, 165, 90, 86, 157, 90, 165, 2, 0.549973
317, 2, bw, attraction, a-b-db, 14, 2, 8, 36, 83, 153, 90, 165, 165, 90, 2, 1.06169
317, 2, bw, attraction, a-b-db, 14, 2, 8, 36, 83, 153, 90, 165, 165, 90, 1, 0.369977
317, 2, bw, catch, NA, 999, 999, 8, 37, 71, 124, 148, 167, 109, 146, 2, 0.633211
317, 2, bw, catch, NA, 999, 999, 8, 37, 71, 124, 148, 167, 109, 146, 1, 0.294916
