sub_n, computer_n, bw_cond, effect, set, distance, diag, block_n, trial_n, h1, w1, h2, w2, h3, w3, choice, rt 
330, 2, wb, practice, NA, 999, 999, 0, 1, 106, 143, 83, 109, 172, 85, 2, 3.39948
330, 2, wb, practice, NA, 999, 999, 0, 1, 106, 143, 83, 109, 172, 85, 3, 4.77491
330, 2, wb, practice, NA, 999, 999, 0, 2, 157, 156, 65, 156, 157, 191, 2, 2.43089
330, 2, wb, practice, NA, 999, 999, 0, 2, 157, 156, 65, 156, 157, 191, 3, 1.48606
330, 2, wb, practice, NA, 999, 999, 0, 3, 143, 172, 81, 155, 70, 108, 3, 2.38025
330, 2, wb, practice, NA, 999, 999, 0, 3, 143, 172, 81, 155, 70, 108, 1, 1.25128
330, 2, wb, attraction, a-b-db, 5, 3, 1, 1, 120, 195, 117, 190, 195, 120, 3, 7.28175
330, 2, wb, attraction, a-b-db, 5, 3, 1, 1, 120, 195, 117, 190, 195, 120, 2, 1.13148
330, 2, wb, attraction, a-b-da, 5, 2, 1, 2, 165, 90, 161, 88, 90, 165, 2, 2.57156
330, 2, wb, attraction, a-b-da, 5, 2, 1, 2, 165, 90, 161, 88, 90, 165, 3, 1.01072
330, 2, wb, attraction, a-b-da, 14, 2, 1, 3, 90, 165, 165, 90, 153, 83, 3, 1.15163
330, 2, wb, attraction, a-b-da, 14, 2, 1, 3, 90, 165, 165, 90, 153, 83, 1, 0.80861
330, 2, wb, attraction, a-b-da, 9, 2, 1, 4, 157, 86, 90, 165, 165, 90, 1, 1.08565
330, 2, wb, attraction, a-b-da, 9, 2, 1, 4, 157, 86, 90, 165, 165, 90, 2, 0.529363
330, 2, wb, filler, NA, 999, 999, 1, 5, 130, 162, 113, 74, 151, 178, 2, 0.865773
330, 2, wb, filler, NA, 999, 999, 1, 5, 130, 162, 113, 74, 151, 178, 3, 0.438146
330, 2, wb, filler, NA, 999, 999, 1, 6, 114, 145, 91, 105, 101, 133, 2, 0.994742
330, 2, wb, filler, NA, 999, 999, 1, 6, 114, 145, 91, 105, 101, 133, 1, 0.84174
330, 2, wb, attraction, a-b-da, 9, 3, 1, 7, 120, 195, 186, 114, 195, 120, 2, 1.40532
330, 2, wb, attraction, a-b-da, 9, 3, 1, 7, 120, 195, 186, 114, 195, 120, 1, 0.691533
330, 2, wb, attraction, a-b-db, 2, 1, 1, 8, 60, 135, 135, 60, 59, 134, 2, 2.9412
330, 2, wb, attraction, a-b-db, 2, 1, 1, 8, 60, 135, 135, 60, 59, 134, 1, 1.05354
330, 2, wb, filler, NA, 999, 999, 1, 9, 123, 171, 69, 152, 86, 71, 3, 0.721183
330, 2, wb, filler, NA, 999, 999, 1, 9, 123, 171, 69, 152, 86, 71, 1, 1.35502
330, 2, wb, attraction, a-b-da, 2, 3, 1, 10, 193, 119, 195, 120, 120, 195, 1, 2.89852
330, 2, wb, attraction, a-b-da, 2, 3, 1, 10, 193, 119, 195, 120, 120, 195, 3, 0.500903
330, 2, wb, attraction, a-b-da, 2, 1, 1, 11, 134, 59, 135, 60, 60, 135, 2, 1.83867
330, 2, wb, attraction, a-b-da, 2, 1, 1, 11, 134, 59, 135, 60, 60, 135, 3, 0.595411
330, 2, wb, attraction, a-b-da, 14, 3, 1, 12, 195, 120, 120, 195, 181, 111, 3, 1.92925
330, 2, wb, attraction, a-b-da, 14, 3, 1, 12, 195, 120, 120, 195, 181, 111, 1, 0.754508
330, 2, wb, attraction, a-b-da, 5, 1, 1, 13, 132, 58, 60, 135, 135, 60, 1, 0.922191
330, 2, wb, attraction, a-b-da, 5, 1, 1, 13, 132, 58, 60, 135, 135, 60, 3, 0.739928
330, 2, wb, attraction, a-b-db, 14, 3, 1, 14, 195, 120, 120, 195, 111, 181, 3, 2.72363
330, 2, wb, attraction, a-b-db, 14, 3, 1, 14, 195, 120, 120, 195, 111, 181, 2, 0.500686
330, 2, wb, attraction, a-b-db, 5, 1, 1, 15, 135, 60, 60, 135, 58, 132, 2, 2.70249
330, 2, wb, attraction, a-b-db, 5, 1, 1, 15, 135, 60, 60, 135, 58, 132, 1, 0.697033
330, 2, wb, filler, NA, 999, 999, 1, 16, 102, 86, 93, 146, 94, 124, 1, 1.68285
330, 2, wb, filler, NA, 999, 999, 1, 16, 102, 86, 93, 146, 94, 124, 2, 0.518171
330, 2, wb, attraction, a-b-db, 2, 2, 1, 17, 165, 90, 89, 163, 90, 165, 2, 1.63133
330, 2, wb, attraction, a-b-db, 2, 2, 1, 17, 165, 90, 89, 163, 90, 165, 3, 0.572812
330, 2, wb, filler, NA, 999, 999, 1, 18, 184, 79, 73, 192, 93, 154, 3, 5.88319
330, 2, wb, filler, NA, 999, 999, 1, 18, 184, 79, 73, 192, 93, 154, 1, 0.613331
330, 2, wb, filler, NA, 999, 999, 1, 19, 187, 120, 153, 183, 93, 70, 3, 0.786412
330, 2, wb, filler, NA, 999, 999, 1, 19, 187, 120, 153, 183, 93, 70, 2, 0.433399
330, 2, wb, catch, NA, 999, 999, 1, 20, 161, 154, 107, 148, 134, 61, 3, 0.941879
330, 2, wb, catch, NA, 999, 999, 1, 20, 161, 154, 107, 148, 134, 61, 1, 0.38294
330, 2, wb, attraction, a-b-db, 5, 2, 1, 21, 88, 161, 165, 90, 90, 165, 2, 2.49347
330, 2, wb, attraction, a-b-db, 5, 2, 1, 21, 88, 161, 165, 90, 90, 165, 3, 0.375942
330, 2, wb, catch, NA, 999, 999, 1, 22, 118, 137, 122, 73, 148, 167, 2, 0.862503
330, 2, wb, catch, NA, 999, 999, 1, 22, 118, 137, 122, 73, 148, 167, 3, 0.290806
330, 2, wb, attraction, a-b-db, 9, 2, 1, 23, 165, 90, 86, 157, 90, 165, 2, 1.59664
330, 2, wb, attraction, a-b-db, 9, 2, 1, 23, 165, 90, 86, 157, 90, 165, 1, 0.315475
330, 2, wb, attraction, a-b-da, 9, 1, 1, 24, 60, 135, 129, 57, 135, 60, 2, 0.924599
330, 2, wb, attraction, a-b-da, 9, 1, 1, 24, 60, 135, 129, 57, 135, 60, 3, 0.830342
330, 2, wb, attraction, a-b-db, 14, 2, 1, 25, 83, 153, 165, 90, 90, 165, 1, 2.80261
330, 2, wb, attraction, a-b-db, 14, 2, 1, 25, 83, 153, 165, 90, 90, 165, 3, 0.609093
330, 2, wb, attraction, a-b-da, 2, 2, 1, 26, 90, 165, 165, 90, 163, 89, 2, 1.28615
330, 2, wb, attraction, a-b-da, 2, 2, 1, 26, 90, 165, 165, 90, 163, 89, 3, 0.345796
330, 2, wb, attraction, a-b-db, 9, 1, 1, 27, 57, 129, 60, 135, 135, 60, 1, 2.66561
330, 2, wb, attraction, a-b-db, 9, 1, 1, 27, 57, 129, 60, 135, 135, 60, 3, 1.1414
330, 2, wb, attraction, a-b-db, 2, 3, 1, 28, 195, 120, 119, 193, 120, 195, 3, 9.35703
330, 2, wb, attraction, a-b-db, 2, 3, 1, 28, 195, 120, 119, 193, 120, 195, 1, 0.411332
330, 2, wb, catch, NA, 999, 999, 1, 29, 165, 150, 118, 77, 135, 120, 2, 0.912514
330, 2, wb, catch, NA, 999, 999, 1, 29, 165, 150, 118, 77, 135, 120, 1, 0.274851
330, 2, wb, filler, NA, 999, 999, 1, 30, 77, 162, 65, 81, 157, 186, 2, 1.36539
330, 2, wb, filler, NA, 999, 999, 1, 30, 77, 162, 65, 81, 157, 186, 3, 0.277629
330, 2, wb, filler, NA, 999, 999, 1, 31, 111, 182, 107, 173, 179, 127, 2, 1.28009
330, 2, wb, filler, NA, 999, 999, 1, 31, 111, 182, 107, 173, 179, 127, 3, 0.24364
330, 2, wb, attraction, a-b-da, 5, 3, 1, 32, 120, 195, 195, 120, 190, 117, 2, 1.87946
330, 2, wb, attraction, a-b-da, 5, 3, 1, 32, 120, 195, 195, 120, 190, 117, 1, 0.386852
330, 2, wb, attraction, a-b-db, 14, 1, 1, 33, 56, 125, 135, 60, 60, 135, 1, 1.28934
330, 2, wb, attraction, a-b-db, 14, 1, 1, 33, 56, 125, 135, 60, 60, 135, 3, 0.612343
330, 2, wb, filler, NA, 999, 999, 1, 34, 144, 162, 155, 108, 165, 59, 3, 1.40939
330, 2, wb, filler, NA, 999, 999, 1, 34, 144, 162, 155, 108, 165, 59, 1, 0.519562
330, 2, wb, attraction, a-b-da, 14, 1, 1, 35, 60, 135, 135, 60, 125, 56, 1, 1.05674
330, 2, wb, attraction, a-b-da, 14, 1, 1, 35, 60, 135, 135, 60, 125, 56, 3, 0.301065
330, 2, wb, attraction, a-b-db, 9, 3, 1, 36, 195, 120, 120, 195, 114, 186, 3, 2.15881
330, 2, wb, attraction, a-b-db, 9, 3, 1, 36, 195, 120, 120, 195, 114, 186, 1, 0.694857
330, 2, wb, filler, NA, 999, 999, 1, 37, 138, 72, 103, 145, 118, 76, 3, 1.49653
330, 2, wb, filler, NA, 999, 999, 1, 37, 138, 72, 103, 145, 118, 76, 2, 0.747498
330, 2, wb, filler, NA, 999, 999, 2, 1, 66, 125, 123, 122, 64, 169, 1, 1.25109
330, 2, wb, filler, NA, 999, 999, 2, 1, 66, 125, 123, 122, 64, 169, 2, 0.392054
330, 2, wb, attraction, a-b-db, 2, 1, 2, 2, 135, 60, 60, 135, 59, 134, 3, 1.21383
330, 2, wb, attraction, a-b-db, 2, 1, 2, 2, 135, 60, 60, 135, 59, 134, 1, 1.78812
330, 2, wb, filler, NA, 999, 999, 2, 3, 64, 94, 195, 114, 134, 84, 1, 1.25014
330, 2, wb, filler, NA, 999, 999, 2, 3, 64, 94, 195, 114, 134, 84, 2, 0.439063
330, 2, wb, filler, NA, 999, 999, 2, 4, 103, 144, 158, 179, 192, 158, 1, 1.57158
330, 2, wb, filler, NA, 999, 999, 2, 4, 103, 144, 158, 179, 192, 158, 3, 0.42705
330, 2, wb, attraction, a-b-da, 9, 2, 2, 5, 90, 165, 165, 90, 157, 86, 2, 2.20755
330, 2, wb, attraction, a-b-da, 9, 2, 2, 5, 90, 165, 165, 90, 157, 86, 1, 0.253451
330, 2, wb, attraction, a-b-da, 14, 2, 2, 6, 165, 90, 90, 165, 153, 83, 3, 1.56933
330, 2, wb, attraction, a-b-da, 14, 2, 2, 6, 165, 90, 90, 165, 153, 83, 1, 0.361492
330, 2, wb, attraction, a-b-da, 9, 3, 2, 7, 120, 195, 195, 120, 186, 114, 2, 6.76059
330, 2, wb, attraction, a-b-da, 9, 3, 2, 7, 120, 195, 195, 120, 186, 114, 1, 0.615123
330, 2, wb, catch, NA, 999, 999, 2, 8, 142, 113, 68, 127, 180, 135, 2, 0.788163
330, 2, wb, catch, NA, 999, 999, 2, 8, 142, 113, 68, 127, 180, 135, 3, 0.28326
330, 2, wb, attraction, a-b-da, 2, 1, 2, 9, 135, 60, 60, 135, 134, 59, 2, 0.781742
330, 2, wb, attraction, a-b-da, 2, 1, 2, 9, 135, 60, 60, 135, 134, 59, 1, 0.754851
330, 2, wb, filler, NA, 999, 999, 2, 10, 140, 191, 96, 189, 111, 61, 3, 0.837228
330, 2, wb, filler, NA, 999, 999, 2, 10, 140, 191, 96, 189, 111, 61, 1, 0.370246
330, 2, wb, attraction, a-b-da, 2, 2, 2, 11, 90, 165, 163, 89, 165, 90, 1, 1.1534
330, 2, wb, attraction, a-b-da, 2, 2, 2, 11, 90, 165, 163, 89, 165, 90, 3, 0.266448
330, 2, wb, attraction, a-b-db, 2, 3, 2, 12, 120, 195, 195, 120, 119, 193, 2, 1.60555
330, 2, wb, attraction, a-b-db, 2, 3, 2, 12, 120, 195, 195, 120, 119, 193, 3, 0.235877
330, 2, wb, attraction, a-b-da, 5, 3, 2, 13, 190, 117, 195, 120, 120, 195, 1, 1.65633
330, 2, wb, attraction, a-b-da, 5, 3, 2, 13, 190, 117, 195, 120, 120, 195, 3, 0.220595
330, 2, wb, attraction, a-b-db, 5, 3, 2, 14, 117, 190, 120, 195, 195, 120, 3, 5.6976
330, 2, wb, attraction, a-b-db, 5, 3, 2, 14, 117, 190, 120, 195, 195, 120, 2, 2.33913
330, 2, wb, attraction, a-b-db, 2, 2, 2, 15, 165, 90, 89, 163, 90, 165, 2, 9.86705
330, 2, wb, attraction, a-b-db, 2, 2, 2, 15, 165, 90, 89, 163, 90, 165, 3, 0.836598
330, 2, wb, filler, NA, 999, 999, 2, 16, 176, 141, 57, 115, 115, 164, 2, 0.888835
330, 2, wb, filler, NA, 999, 999, 2, 16, 176, 141, 57, 115, 115, 164, 1, 0.339917
330, 2, wb, attraction, a-b-da, 14, 3, 2, 17, 181, 111, 195, 120, 120, 195, 1, 1.57972
330, 2, wb, attraction, a-b-da, 14, 3, 2, 17, 181, 111, 195, 120, 120, 195, 3, 0.354683
330, 2, wb, attraction, a-b-db, 9, 2, 2, 18, 86, 157, 90, 165, 165, 90, 1, 1.50306
330, 2, wb, attraction, a-b-db, 9, 2, 2, 18, 86, 157, 90, 165, 165, 90, 3, 0.317217
330, 2, wb, attraction, a-b-da, 9, 1, 2, 19, 60, 135, 135, 60, 129, 57, 2, 1.06242
330, 2, wb, attraction, a-b-da, 9, 1, 2, 19, 60, 135, 135, 60, 129, 57, 1, 0.40639
330, 2, wb, attraction, a-b-da, 2, 3, 2, 20, 120, 195, 193, 119, 195, 120, 2, 1.63196
330, 2, wb, attraction, a-b-da, 2, 3, 2, 20, 120, 195, 193, 119, 195, 120, 1, 0.245364
330, 2, wb, filler, NA, 999, 999, 2, 21, 88, 66, 134, 126, 112, 152, 1, 0.833272
330, 2, wb, filler, NA, 999, 999, 2, 21, 88, 66, 134, 126, 112, 152, 3, 0.255043
330, 2, wb, attraction, a-b-db, 14, 2, 2, 22, 83, 153, 165, 90, 90, 165, 1, 1.44276
330, 2, wb, attraction, a-b-db, 14, 2, 2, 22, 83, 153, 165, 90, 90, 165, 3, 0.215667
330, 2, wb, attraction, a-b-db, 5, 1, 2, 23, 60, 135, 135, 60, 58, 132, 2, 1.77281
330, 2, wb, attraction, a-b-db, 5, 1, 2, 23, 60, 135, 135, 60, 58, 132, 3, 0.492264
330, 2, wb, attraction, a-b-db, 14, 1, 2, 24, 56, 125, 135, 60, 60, 135, 1, 0.806048
330, 2, wb, attraction, a-b-db, 14, 1, 2, 24, 56, 125, 135, 60, 60, 135, 2, 1.45241
330, 2, wb, attraction, a-b-db, 5, 2, 2, 25, 90, 165, 88, 161, 165, 90, 1, 1.72794
330, 2, wb, attraction, a-b-db, 5, 2, 2, 25, 90, 165, 88, 161, 165, 90, 3, 0.233325
330, 2, wb, filler, NA, 999, 999, 2, 26, 100, 140, 181, 114, 127, 121, 1, 1.43797
330, 2, wb, filler, NA, 999, 999, 2, 26, 100, 140, 181, 114, 127, 121, 3, 0.26672
330, 2, wb, catch, NA, 999, 999, 2, 27, 162, 93, 93, 102, 145, 170, 2, 1.19001
330, 2, wb, catch, NA, 999, 999, 2, 27, 162, 93, 93, 102, 145, 170, 3, 0.260834
330, 2, wb, catch, NA, 999, 999, 2, 28, 115, 80, 163, 152, 149, 106, 1, 2.00016
330, 2, wb, catch, NA, 999, 999, 2, 28, 115, 80, 163, 152, 149, 106, 2, 0.310731
330, 2, wb, filler, NA, 999, 999, 2, 29, 165, 141, 84, 78, 186, 174, 2, 0.863937
330, 2, wb, filler, NA, 999, 999, 2, 29, 165, 141, 84, 78, 186, 174, 3, 0.292297
330, 2, wb, filler, NA, 999, 999, 2, 30, 74, 159, 120, 156, 63, 56, 3, 1.28622
330, 2, wb, filler, NA, 999, 999, 2, 30, 74, 159, 120, 156, 63, 56, 2, 0.32163
330, 2, wb, attraction, a-b-db, 9, 3, 2, 31, 195, 120, 120, 195, 114, 186, 3, 1.27494
330, 2, wb, attraction, a-b-db, 9, 3, 2, 31, 195, 120, 120, 195, 114, 186, 1, 0.310407
330, 2, wb, attraction, a-b-da, 5, 2, 2, 32, 90, 165, 161, 88, 165, 90, 2, 0.823641
330, 2, wb, attraction, a-b-da, 5, 2, 2, 32, 90, 165, 161, 88, 165, 90, 3, 0.245511
330, 2, wb, filler, NA, 999, 999, 2, 33, 101, 87, 164, 179, 135, 71, 1, 1.26522
330, 2, wb, filler, NA, 999, 999, 2, 33, 101, 87, 164, 179, 135, 71, 2, 0.293538
330, 2, wb, attraction, a-b-db, 9, 1, 2, 34, 135, 60, 57, 129, 60, 135, 2, 0.799296
330, 2, wb, attraction, a-b-db, 9, 1, 2, 34, 135, 60, 57, 129, 60, 135, 1, 0.638341
330, 2, wb, attraction, a-b-da, 14, 1, 2, 35, 135, 60, 60, 135, 125, 56, 2, 1.04274
330, 2, wb, attraction, a-b-da, 14, 1, 2, 35, 135, 60, 60, 135, 125, 56, 1, 0.34373
330, 2, wb, attraction, a-b-da, 5, 1, 2, 36, 135, 60, 132, 58, 60, 135, 2, 0.767588
330, 2, wb, attraction, a-b-da, 5, 1, 2, 36, 135, 60, 132, 58, 60, 135, 1, 0.319961
330, 2, wb, attraction, a-b-db, 14, 3, 2, 37, 120, 195, 195, 120, 111, 181, 2, 0.729133
330, 2, wb, attraction, a-b-db, 14, 3, 2, 37, 120, 195, 195, 120, 111, 181, 3, 0.307046
330, 2, wb, attraction, a-b-da, 9, 2, 3, 1, 157, 86, 165, 90, 90, 165, 2, 0.564099
330, 2, wb, attraction, a-b-da, 9, 2, 3, 1, 157, 86, 165, 90, 90, 165, 1, 0.516584
330, 2, wb, attraction, a-b-da, 9, 1, 3, 2, 135, 60, 60, 135, 129, 57, 2, 0.565686
330, 2, wb, attraction, a-b-da, 9, 1, 3, 2, 135, 60, 60, 135, 129, 57, 3, 0.342212
330, 2, wb, attraction, a-b-db, 2, 2, 3, 3, 90, 165, 165, 90, 89, 163, 2, 0.406014
330, 2, wb, attraction, a-b-db, 2, 2, 3, 3, 90, 165, 165, 90, 89, 163, 1, 0.284437
330, 2, wb, attraction, a-b-db, 2, 3, 3, 4, 119, 193, 195, 120, 120, 195, 2, 0.950903
330, 2, wb, attraction, a-b-db, 2, 3, 3, 4, 119, 193, 195, 120, 120, 195, 3, 0.248121
330, 2, wb, attraction, a-b-db, 5, 3, 3, 5, 117, 190, 195, 120, 120, 195, 2, 0.635821
330, 2, wb, attraction, a-b-db, 5, 3, 3, 5, 117, 190, 195, 120, 120, 195, 1, 0.2656
330, 2, wb, attraction, a-b-db, 2, 1, 3, 6, 59, 134, 135, 60, 60, 135, 2, 0.628832
330, 2, wb, attraction, a-b-db, 2, 1, 3, 6, 59, 134, 135, 60, 60, 135, 3, 0.570556
330, 2, wb, attraction, a-b-db, 9, 2, 3, 7, 90, 165, 86, 157, 165, 90, 2, 0.425689
330, 2, wb, attraction, a-b-db, 9, 2, 3, 7, 90, 165, 86, 157, 165, 90, 1, 0.519569
330, 2, wb, attraction, a-b-da, 5, 1, 3, 8, 60, 135, 135, 60, 132, 58, 2, 0.592661
330, 2, wb, attraction, a-b-da, 5, 1, 3, 8, 60, 135, 135, 60, 132, 58, 3, 0.263835
330, 2, wb, attraction, a-b-db, 14, 1, 3, 9, 56, 125, 135, 60, 60, 135, 3, 0.971025
330, 2, wb, attraction, a-b-db, 14, 1, 3, 9, 56, 125, 135, 60, 60, 135, 2, 1.65068
330, 2, wb, attraction, a-b-db, 5, 2, 3, 10, 165, 90, 88, 161, 90, 165, 1, 1.84607
330, 2, wb, attraction, a-b-db, 5, 2, 3, 10, 165, 90, 88, 161, 90, 165, 2, 0.338993
330, 2, wb, filler, NA, 999, 999, 3, 11, 78, 61, 122, 71, 63, 105, 1, 1.23533
330, 2, wb, filler, NA, 999, 999, 3, 11, 78, 61, 122, 71, 63, 105, 2, 0.344992
330, 2, wb, attraction, a-b-da, 9, 3, 3, 12, 120, 195, 195, 120, 186, 114, 3, 0.792665
330, 2, wb, attraction, a-b-da, 9, 3, 3, 12, 120, 195, 195, 120, 186, 114, 2, 0.671766
330, 2, wb, catch, NA, 999, 999, 3, 13, 149, 106, 126, 69, 169, 146, 2, 0.682773
330, 2, wb, catch, NA, 999, 999, 3, 13, 149, 106, 126, 69, 169, 146, 3, 0.270733
330, 2, wb, filler, NA, 999, 999, 3, 14, 103, 185, 180, 118, 61, 183, 3, 0.809822
330, 2, wb, filler, NA, 999, 999, 3, 14, 103, 185, 180, 118, 61, 183, 1, 2.27227
330, 2, wb, attraction, a-b-db, 5, 1, 3, 15, 58, 132, 60, 135, 135, 60, 3, 0.762695
330, 2, wb, attraction, a-b-db, 5, 1, 3, 15, 58, 132, 60, 135, 135, 60, 2, 1.17121
330, 2, wb, attraction, a-b-db, 9, 1, 3, 16, 60, 135, 135, 60, 57, 129, 3, 1.33006
330, 2, wb, attraction, a-b-db, 9, 1, 3, 16, 60, 135, 135, 60, 57, 129, 2, 0.659665
330, 2, wb, filler, NA, 999, 999, 3, 17, 164, 58, 170, 188, 105, 83, 3, 3.23072
330, 2, wb, filler, NA, 999, 999, 3, 17, 164, 58, 170, 188, 105, 83, 2, 1.2597
330, 2, wb, attraction, a-b-db, 14, 3, 3, 18, 111, 181, 120, 195, 195, 120, 1, 2.20654
330, 2, wb, attraction, a-b-db, 14, 3, 3, 18, 111, 181, 120, 195, 195, 120, 3, 0.756577
330, 2, wb, attraction, a-b-da, 5, 3, 3, 19, 195, 120, 120, 195, 190, 117, 1, 2.21154
330, 2, wb, attraction, a-b-da, 5, 3, 3, 19, 195, 120, 120, 195, 190, 117, 2, 0.505433
330, 2, wb, attraction, a-b-db, 9, 3, 3, 20, 114, 186, 120, 195, 195, 120, 1, 1.11526
330, 2, wb, attraction, a-b-db, 9, 3, 3, 20, 114, 186, 120, 195, 195, 120, 3, 0.269627
330, 2, wb, attraction, a-b-da, 14, 1, 3, 21, 60, 135, 135, 60, 125, 56, 1, 0.712798
330, 2, wb, attraction, a-b-da, 14, 1, 3, 21, 60, 135, 135, 60, 125, 56, 2, 0.291197
330, 2, wb, filler, NA, 999, 999, 3, 22, 101, 180, 119, 185, 142, 62, 3, 1.02105
330, 2, wb, filler, NA, 999, 999, 3, 22, 101, 180, 119, 185, 142, 62, 2, 0.490696
330, 2, wb, attraction, a-b-da, 2, 2, 3, 23, 165, 90, 163, 89, 90, 165, 1, 1.42857
330, 2, wb, attraction, a-b-da, 2, 2, 3, 23, 165, 90, 163, 89, 90, 165, 3, 0.313987
330, 2, wb, attraction, a-b-da, 14, 3, 3, 24, 195, 120, 181, 111, 120, 195, 2, 2.02713
330, 2, wb, attraction, a-b-da, 14, 3, 3, 24, 195, 120, 181, 111, 120, 195, 3, 0.288422
330, 2, wb, attraction, a-b-da, 5, 2, 3, 25, 90, 165, 161, 88, 165, 90, 1, 1.78717
330, 2, wb, attraction, a-b-da, 5, 2, 3, 25, 90, 165, 161, 88, 165, 90, 3, 0.352261
330, 2, wb, filler, NA, 999, 999, 3, 26, 152, 103, 135, 71, 150, 103, 2, 1.37032
330, 2, wb, filler, NA, 999, 999, 3, 26, 152, 103, 135, 71, 150, 103, 3, 1.77845
330, 2, wb, filler, NA, 999, 999, 3, 27, 153, 107, 118, 76, 189, 186, 2, 0.832628
330, 2, wb, filler, NA, 999, 999, 3, 27, 153, 107, 118, 76, 189, 186, 3, 0.294183
330, 2, wb, filler, NA, 999, 999, 3, 28, 104, 98, 175, 58, 118, 159, 2, 1.50409
330, 2, wb, filler, NA, 999, 999, 3, 28, 104, 98, 175, 58, 118, 159, 3, 0.5223
330, 2, wb, attraction, a-b-db, 14, 2, 3, 29, 83, 153, 90, 165, 165, 90, 1, 0.971397
330, 2, wb, attraction, a-b-db, 14, 2, 3, 29, 83, 153, 90, 165, 165, 90, 3, 0.259168
330, 2, wb, attraction, a-b-da, 2, 1, 3, 30, 134, 59, 135, 60, 60, 135, 1, 1.0702
330, 2, wb, attraction, a-b-da, 2, 1, 3, 30, 134, 59, 135, 60, 60, 135, 3, 0.34656
330, 2, wb, attraction, a-b-da, 2, 3, 3, 31, 120, 195, 193, 119, 195, 120, 2, 0.76229
330, 2, wb, attraction, a-b-da, 2, 3, 3, 31, 120, 195, 193, 119, 195, 120, 3, 0.706776
330, 2, wb, catch, NA, 999, 999, 3, 32, 192, 123, 86, 109, 128, 127, 2, 1.68387
330, 2, wb, catch, NA, 999, 999, 3, 32, 192, 123, 86, 109, 128, 127, 1, 0.559354
330, 2, wb, filler, NA, 999, 999, 3, 33, 73, 86, 80, 115, 108, 75, 1, 2.29431
330, 2, wb, filler, NA, 999, 999, 3, 33, 73, 86, 80, 115, 108, 75, 2, 1.32094
330, 2, wb, filler, NA, 999, 999, 3, 34, 117, 70, 71, 92, 134, 106, 2, 1.05781
330, 2, wb, filler, NA, 999, 999, 3, 34, 117, 70, 71, 92, 134, 106, 3, 0.326302
330, 2, wb, attraction, a-b-da, 14, 2, 3, 35, 165, 90, 90, 165, 153, 83, 1, 0.990599
330, 2, wb, attraction, a-b-da, 14, 2, 3, 35, 165, 90, 90, 165, 153, 83, 2, 0.565606
330, 2, wb, catch, NA, 999, 999, 3, 36, 169, 146, 81, 114, 105, 150, 2, 1.70876
330, 2, wb, catch, NA, 999, 999, 3, 36, 169, 146, 81, 114, 105, 150, 1, 0.278932
330, 2, wb, filler, NA, 999, 999, 3, 37, 178, 153, 183, 149, 187, 101, 3, 1.44136
330, 2, wb, filler, NA, 999, 999, 3, 37, 178, 153, 183, 149, 187, 101, 1, 0.494395
330, 2, wb, attraction, a-b-db, 14, 3, 4, 1, 120, 195, 195, 120, 111, 181, 2, 5.65599
330, 2, wb, attraction, a-b-db, 14, 3, 4, 1, 120, 195, 195, 120, 111, 181, 3, 0.29886
330, 2, wb, catch, NA, 999, 999, 4, 2, 151, 164, 135, 120, 106, 89, 3, 1.0767
330, 2, wb, catch, NA, 999, 999, 4, 2, 151, 164, 135, 120, 106, 89, 2, 0.656507
330, 2, wb, attraction, a-b-da, 9, 3, 4, 3, 120, 195, 195, 120, 186, 114, 2, 1.47539
330, 2, wb, attraction, a-b-da, 9, 3, 4, 3, 120, 195, 195, 120, 186, 114, 1, 0.790964
330, 2, wb, attraction, a-b-da, 2, 3, 4, 4, 195, 120, 193, 119, 120, 195, 1, 0.692726
330, 2, wb, attraction, a-b-da, 2, 3, 4, 4, 195, 120, 193, 119, 120, 195, 2, 0.359847
330, 2, wb, attraction, a-b-da, 14, 3, 4, 5, 120, 195, 181, 111, 195, 120, 2, 0.966976
330, 2, wb, attraction, a-b-da, 14, 3, 4, 5, 120, 195, 181, 111, 195, 120, 1, 0.303307
330, 2, wb, attraction, a-b-da, 5, 1, 4, 6, 135, 60, 60, 135, 132, 58, 2, 0.977089
330, 2, wb, attraction, a-b-da, 5, 1, 4, 6, 135, 60, 60, 135, 132, 58, 3, 0.376719
330, 2, wb, attraction, a-b-da, 14, 1, 4, 7, 135, 60, 125, 56, 60, 135, 2, 1.95132
330, 2, wb, attraction, a-b-da, 14, 1, 4, 7, 135, 60, 125, 56, 60, 135, 1, 0.77596
330, 2, wb, attraction, a-b-db, 5, 1, 4, 8, 135, 60, 60, 135, 58, 132, 1, 1.7264
330, 2, wb, attraction, a-b-db, 5, 1, 4, 8, 135, 60, 60, 135, 58, 132, 2, 0.727677
330, 2, wb, attraction, a-b-da, 5, 3, 4, 9, 190, 117, 195, 120, 120, 195, 1, 2.35207
330, 2, wb, attraction, a-b-da, 5, 3, 4, 9, 190, 117, 195, 120, 120, 195, 3, 0.696646
330, 2, wb, attraction, a-b-db, 9, 1, 4, 10, 57, 129, 60, 135, 135, 60, 3, 2.51649
330, 2, wb, attraction, a-b-db, 9, 1, 4, 10, 57, 129, 60, 135, 135, 60, 2, 0.764408
330, 2, wb, attraction, a-b-db, 14, 2, 4, 11, 90, 165, 165, 90, 83, 153, 1, 2.05125
330, 2, wb, attraction, a-b-db, 14, 2, 4, 11, 90, 165, 165, 90, 83, 153, 2, 0.831998
330, 2, wb, filler, NA, 999, 999, 4, 12, 136, 158, 131, 165, 81, 59, 3, 0.70827
330, 2, wb, filler, NA, 999, 999, 4, 12, 136, 158, 131, 165, 81, 59, 1, 0.982736
330, 2, wb, filler, NA, 999, 999, 4, 13, 100, 79, 154, 132, 121, 190, 1, 0.949003
330, 2, wb, filler, NA, 999, 999, 4, 13, 100, 79, 154, 132, 121, 190, 3, 1.33423
330, 2, wb, attraction, a-b-da, 9, 2, 4, 14, 157, 86, 90, 165, 165, 90, 2, 2.14224
330, 2, wb, attraction, a-b-da, 9, 2, 4, 14, 157, 86, 90, 165, 165, 90, 3, 0.422902
330, 2, wb, filler, NA, 999, 999, 4, 15, 91, 170, 57, 174, 122, 137, 2, 0.675302
330, 2, wb, filler, NA, 999, 999, 4, 15, 91, 170, 57, 174, 122, 137, 3, 1.1751
330, 2, wb, filler, NA, 999, 999, 4, 16, 165, 134, 68, 186, 190, 104, 2, 0.509272
330, 2, wb, filler, NA, 999, 999, 4, 16, 165, 134, 68, 186, 190, 104, 1, 1.79984
330, 2, wb, filler, NA, 999, 999, 4, 17, 88, 171, 100, 71, 142, 72, 2, 0.765188
330, 2, wb, filler, NA, 999, 999, 4, 17, 88, 171, 100, 71, 142, 72, 1, 0.525693
330, 2, wb, attraction, a-b-db, 2, 1, 4, 18, 60, 135, 135, 60, 59, 134, 2, 1.45403
330, 2, wb, attraction, a-b-db, 2, 1, 4, 18, 60, 135, 135, 60, 59, 134, 3, 0.354885
330, 2, wb, attraction, a-b-da, 5, 2, 4, 19, 90, 165, 161, 88, 165, 90, 2, 1.56271
330, 2, wb, attraction, a-b-da, 5, 2, 4, 19, 90, 165, 161, 88, 165, 90, 3, 0.474895
330, 2, wb, filler, NA, 999, 999, 4, 20, 181, 63, 101, 132, 102, 100, 1, 3.77332
330, 2, wb, filler, NA, 999, 999, 4, 20, 181, 63, 101, 132, 102, 100, 2, 1.58813
330, 2, wb, attraction, a-b-da, 9, 1, 4, 21, 60, 135, 129, 57, 135, 60, 2, 4.1462
330, 2, wb, attraction, a-b-da, 9, 1, 4, 21, 60, 135, 129, 57, 135, 60, 1, 1.25515
330, 2, wb, catch, NA, 999, 999, 4, 22, 109, 86, 117, 138, 137, 178, 1, 1.10978
330, 2, wb, catch, NA, 999, 999, 4, 22, 109, 86, 117, 138, 137, 178, 3, 0.696061
330, 2, wb, filler, NA, 999, 999, 4, 23, 103, 57, 191, 151, 190, 146, 1, 0.89774
330, 2, wb, filler, NA, 999, 999, 4, 23, 103, 57, 191, 151, 190, 146, 2, 0.748851
330, 2, wb, attraction, a-b-da, 14, 2, 4, 24, 153, 83, 90, 165, 165, 90, 2, 1.54064
330, 2, wb, attraction, a-b-da, 14, 2, 4, 24, 153, 83, 90, 165, 165, 90, 3, 0.669502
330, 2, wb, attraction, a-b-db, 2, 2, 4, 25, 90, 165, 165, 90, 89, 163, 2, 1.45644
330, 2, wb, attraction, a-b-db, 2, 2, 4, 25, 90, 165, 165, 90, 89, 163, 1, 1.20472
330, 2, wb, filler, NA, 999, 999, 4, 26, 96, 174, 125, 179, 85, 73, 3, 0.762156
330, 2, wb, filler, NA, 999, 999, 4, 26, 96, 174, 125, 179, 85, 73, 2, 0.738579
330, 2, wb, attraction, a-b-db, 5, 3, 4, 27, 195, 120, 117, 190, 120, 195, 3, 2.01894
330, 2, wb, attraction, a-b-db, 5, 3, 4, 27, 195, 120, 117, 190, 120, 195, 1, 0.824981
330, 2, wb, attraction, a-b-db, 14, 1, 4, 28, 135, 60, 56, 125, 60, 135, 2, 1.54138
330, 2, wb, attraction, a-b-db, 14, 1, 4, 28, 135, 60, 56, 125, 60, 135, 1, 2.23035
330, 2, wb, attraction, a-b-db, 5, 2, 4, 29, 90, 165, 165, 90, 88, 161, 2, 0.690121
330, 2, wb, attraction, a-b-db, 5, 2, 4, 29, 90, 165, 165, 90, 88, 161, 1, 1.1652
330, 2, wb, attraction, a-b-db, 2, 3, 4, 30, 120, 195, 119, 193, 195, 120, 2, 1.70812
330, 2, wb, attraction, a-b-db, 2, 3, 4, 30, 120, 195, 119, 193, 195, 120, 3, 0.590181
330, 2, wb, filler, NA, 999, 999, 4, 31, 68, 141, 128, 148, 132, 187, 1, 1.13992
330, 2, wb, filler, NA, 999, 999, 4, 31, 68, 141, 128, 148, 132, 187, 3, 0.62087
330, 2, wb, attraction, a-b-db, 9, 3, 4, 32, 114, 186, 195, 120, 120, 195, 2, 3.14603
330, 2, wb, attraction, a-b-db, 9, 3, 4, 32, 114, 186, 195, 120, 120, 195, 1, 0.546362
330, 2, wb, filler, NA, 999, 999, 4, 33, 88, 143, 138, 108, 60, 73, 3, 1.42606
330, 2, wb, filler, NA, 999, 999, 4, 33, 88, 143, 138, 108, 60, 73, 1, 1.22354
330, 2, wb, attraction, a-b-db, 9, 2, 4, 34, 165, 90, 90, 165, 86, 157, 2, 3.60386
330, 2, wb, attraction, a-b-db, 9, 2, 4, 34, 165, 90, 90, 165, 86, 157, 1, 0.849963
330, 2, wb, catch, NA, 999, 999, 4, 35, 130, 65, 139, 176, 100, 155, 1, 2.00565
330, 2, wb, catch, NA, 999, 999, 4, 35, 130, 65, 139, 176, 100, 155, 2, 0.667649
330, 2, wb, attraction, a-b-da, 2, 1, 4, 36, 60, 135, 134, 59, 135, 60, 1, 1.2548
330, 2, wb, attraction, a-b-da, 2, 1, 4, 36, 60, 135, 134, 59, 135, 60, 2, 1.051
330, 2, wb, attraction, a-b-da, 2, 2, 4, 37, 90, 165, 165, 90, 163, 89, 1, 0.926632
330, 2, wb, attraction, a-b-da, 2, 2, 4, 37, 90, 165, 165, 90, 163, 89, 2, 0.528335
330, 2, wb, filler, NA, 999, 999, 5, 1, 193, 171, 164, 175, 145, 153, 3, 2.72736
330, 2, wb, filler, NA, 999, 999, 5, 1, 193, 171, 164, 175, 145, 153, 1, 0.280375
330, 2, wb, filler, NA, 999, 999, 5, 2, 132, 149, 124, 187, 145, 140, 1, 1.163
330, 2, wb, filler, NA, 999, 999, 5, 2, 132, 149, 124, 187, 145, 140, 2, 0.331293
330, 2, wb, attraction, a-b-db, 2, 1, 5, 3, 135, 60, 60, 135, 59, 134, 2, 1.12376
330, 2, wb, attraction, a-b-db, 2, 1, 5, 3, 135, 60, 60, 135, 59, 134, 1, 0.269355
330, 2, wb, filler, NA, 999, 999, 5, 4, 122, 179, 103, 173, 80, 156, 3, 0.91255
330, 2, wb, filler, NA, 999, 999, 5, 4, 122, 179, 103, 173, 80, 156, 1, 0.530944
330, 2, wb, attraction, a-b-da, 14, 3, 5, 5, 181, 111, 120, 195, 195, 120, 1, 1.35543
330, 2, wb, attraction, a-b-da, 14, 3, 5, 5, 181, 111, 120, 195, 195, 120, 2, 0.283603
330, 2, wb, filler, NA, 999, 999, 5, 6, 115, 150, 67, 186, 187, 99, 2, 0.782125
330, 2, wb, filler, NA, 999, 999, 5, 6, 115, 150, 67, 186, 187, 99, 3, 2.69389
330, 2, wb, filler, NA, 999, 999, 5, 7, 113, 173, 170, 85, 139, 63, 3, 0.998917
330, 2, wb, filler, NA, 999, 999, 5, 7, 113, 173, 170, 85, 139, 63, 1, 0.238047
330, 2, wb, catch, NA, 999, 999, 5, 8, 159, 156, 129, 66, 164, 91, 2, 0.978436
330, 2, wb, catch, NA, 999, 999, 5, 8, 159, 156, 129, 66, 164, 91, 1, 0.642225
330, 2, wb, attraction, a-b-db, 14, 2, 5, 9, 83, 153, 90, 165, 165, 90, 1, 0.861875
330, 2, wb, attraction, a-b-db, 14, 2, 5, 9, 83, 153, 90, 165, 165, 90, 3, 0.395333
330, 2, wb, filler, NA, 999, 999, 5, 10, 100, 150, 119, 137, 98, 79, 3, 0.880009
330, 2, wb, filler, NA, 999, 999, 5, 10, 100, 150, 119, 137, 98, 79, 2, 0.659843
330, 2, wb, attraction, a-b-da, 2, 1, 5, 11, 134, 59, 135, 60, 60, 135, 1, 1.37495
330, 2, wb, attraction, a-b-da, 2, 1, 5, 11, 134, 59, 135, 60, 60, 135, 3, 0.232182
330, 2, wb, attraction, a-b-da, 5, 2, 5, 12, 90, 165, 161, 88, 165, 90, 3, 0.850826
330, 2, wb, attraction, a-b-da, 5, 2, 5, 12, 90, 165, 161, 88, 165, 90, 2, 0.295907
330, 2, wb, attraction, a-b-db, 9, 1, 5, 13, 60, 135, 57, 129, 135, 60, 1, 0.993836
330, 2, wb, attraction, a-b-db, 9, 1, 5, 13, 60, 135, 57, 129, 135, 60, 3, 0.752815
330, 2, wb, attraction, a-b-da, 14, 2, 5, 14, 165, 90, 90, 165, 153, 83, 3, 1.42459
330, 2, wb, attraction, a-b-da, 14, 2, 5, 14, 165, 90, 90, 165, 153, 83, 2, 0.262
330, 2, wb, attraction, a-b-db, 14, 1, 5, 15, 56, 125, 60, 135, 135, 60, 1, 0.561187
330, 2, wb, attraction, a-b-db, 14, 1, 5, 15, 56, 125, 60, 135, 135, 60, 3, 1.28972
330, 2, wb, attraction, a-b-da, 9, 3, 5, 16, 186, 114, 195, 120, 120, 195, 3, 1.33925
330, 2, wb, attraction, a-b-da, 9, 3, 5, 16, 186, 114, 195, 120, 120, 195, 2, 0.460114
330, 2, wb, catch, NA, 999, 999, 5, 17, 97, 98, 132, 123, 164, 151, 1, 0.639234
330, 2, wb, catch, NA, 999, 999, 5, 17, 97, 98, 132, 123, 164, 151, 3, 0.548541
330, 2, wb, attraction, a-b-da, 2, 2, 5, 18, 165, 90, 163, 89, 90, 165, 3, 0.95604
330, 2, wb, attraction, a-b-da, 2, 2, 5, 18, 165, 90, 163, 89, 90, 165, 2, 0.292563
330, 2, wb, filler, NA, 999, 999, 5, 19, 188, 82, 62, 124, 103, 86, 2, 1.87832
330, 2, wb, filler, NA, 999, 999, 5, 19, 188, 82, 62, 124, 103, 86, 1, 0.666511
330, 2, wb, attraction, a-b-db, 2, 2, 5, 20, 89, 163, 90, 165, 165, 90, 2, 2.10872
330, 2, wb, attraction, a-b-db, 2, 2, 5, 20, 89, 163, 90, 165, 165, 90, 3, 0.486746
330, 2, wb, filler, NA, 999, 999, 5, 21, 57, 66, 193, 142, 113, 132, 1, 0.793285
330, 2, wb, filler, NA, 999, 999, 5, 21, 57, 66, 193, 142, 113, 132, 2, 0.376293
330, 2, wb, attraction, a-b-da, 9, 2, 5, 22, 90, 165, 165, 90, 157, 86, 3, 1.01479
330, 2, wb, attraction, a-b-da, 9, 2, 5, 22, 90, 165, 165, 90, 157, 86, 2, 0.621209
330, 2, wb, filler, NA, 999, 999, 5, 23, 153, 179, 156, 69, 98, 147, 2, 1.85821
330, 2, wb, filler, NA, 999, 999, 5, 23, 153, 179, 156, 69, 98, 147, 1, 0.318154
330, 2, wb, attraction, a-b-da, 9, 1, 5, 24, 129, 57, 135, 60, 60, 135, 1, 1.3753
330, 2, wb, attraction, a-b-da, 9, 1, 5, 24, 129, 57, 135, 60, 60, 135, 2, 0.28686
330, 2, wb, attraction, a-b-db, 2, 3, 5, 25, 120, 195, 195, 120, 119, 193, 1, 1.0015
330, 2, wb, attraction, a-b-db, 2, 3, 5, 25, 120, 195, 195, 120, 119, 193, 2, 0.272518
330, 2, wb, attraction, a-b-da, 5, 1, 5, 26, 132, 58, 60, 135, 135, 60, 1, 1.08363
330, 2, wb, attraction, a-b-da, 5, 1, 5, 26, 132, 58, 60, 135, 135, 60, 2, 0.343304
330, 2, wb, attraction, a-b-da, 2, 3, 5, 27, 195, 120, 193, 119, 120, 195, 3, 0.678999
330, 2, wb, attraction, a-b-da, 2, 3, 5, 27, 195, 120, 193, 119, 120, 195, 2, 0.626923
330, 2, wb, attraction, a-b-db, 5, 1, 5, 28, 135, 60, 58, 132, 60, 135, 1, 0.711374
330, 2, wb, attraction, a-b-db, 5, 1, 5, 28, 135, 60, 58, 132, 60, 135, 2, 0.345665
330, 2, wb, filler, NA, 999, 999, 5, 29, 78, 150, 70, 122, 69, 90, 3, 0.657536
330, 2, wb, filler, NA, 999, 999, 5, 29, 78, 150, 70, 122, 69, 90, 1, 1.76597
330, 2, wb, attraction, a-b-da, 5, 3, 5, 30, 195, 120, 120, 195, 190, 117, 3, 2.70078
330, 2, wb, attraction, a-b-da, 5, 3, 5, 30, 195, 120, 120, 195, 190, 117, 1, 0.791125
330, 2, wb, attraction, a-b-da, 14, 1, 5, 31, 135, 60, 125, 56, 60, 135, 2, 2.72484
330, 2, wb, attraction, a-b-da, 14, 1, 5, 31, 135, 60, 125, 56, 60, 135, 3, 0.566025
330, 2, wb, attraction, a-b-db, 5, 2, 5, 32, 90, 165, 88, 161, 165, 90, 1, 1.789
330, 2, wb, attraction, a-b-db, 5, 2, 5, 32, 90, 165, 88, 161, 165, 90, 3, 0.451946
330, 2, wb, catch, NA, 999, 999, 5, 33, 93, 102, 150, 105, 161, 154, 1, 0.807503
330, 2, wb, catch, NA, 999, 999, 5, 33, 93, 102, 150, 105, 161, 154, 3, 0.317959
330, 2, wb, attraction, a-b-db, 9, 2, 5, 34, 165, 90, 86, 157, 90, 165, 3, 2.14315
330, 2, wb, attraction, a-b-db, 9, 2, 5, 34, 165, 90, 86, 157, 90, 165, 1, 0.31974
330, 2, wb, attraction, a-b-db, 14, 3, 5, 35, 111, 181, 195, 120, 120, 195, 1, 1.37691
330, 2, wb, attraction, a-b-db, 14, 3, 5, 35, 111, 181, 195, 120, 120, 195, 3, 0.272596
330, 2, wb, attraction, a-b-db, 9, 3, 5, 36, 195, 120, 120, 195, 114, 186, 1, 0.155032
330, 2, wb, attraction, a-b-db, 9, 3, 5, 36, 195, 120, 120, 195, 114, 186, 2, 1.89969
330, 2, wb, attraction, a-b-db, 5, 3, 5, 37, 120, 195, 195, 120, 117, 190, 2, 1.56496
330, 2, wb, attraction, a-b-db, 5, 3, 5, 37, 120, 195, 195, 120, 117, 190, 3, 0.245066
330, 2, wb, attraction, a-b-db, 2, 3, 6, 1, 195, 120, 120, 195, 119, 193, 1, 1.97709
330, 2, wb, attraction, a-b-db, 2, 3, 6, 1, 195, 120, 120, 195, 119, 193, 2, 0.408391
330, 2, wb, filler, NA, 999, 999, 6, 2, 77, 93, 129, 68, 103, 162, 1, 1.79754
330, 2, wb, filler, NA, 999, 999, 6, 2, 77, 93, 129, 68, 103, 162, 3, 0.308276
330, 2, wb, attraction, a-b-db, 9, 3, 6, 3, 114, 186, 120, 195, 195, 120, 1, 1.58133
330, 2, wb, attraction, a-b-db, 9, 3, 6, 3, 114, 186, 120, 195, 195, 120, 3, 0.548883
330, 2, wb, attraction, a-b-da, 2, 2, 6, 4, 90, 165, 165, 90, 163, 89, 3, 0.980593
330, 2, wb, attraction, a-b-da, 2, 2, 6, 4, 90, 165, 165, 90, 163, 89, 2, 0.276294
330, 2, wb, attraction, a-b-da, 9, 1, 6, 5, 60, 135, 135, 60, 129, 57, 1, 0.566813
330, 2, wb, attraction, a-b-da, 9, 1, 6, 5, 60, 135, 135, 60, 129, 57, 3, 0.351302
330, 2, wb, attraction, a-b-db, 5, 3, 6, 6, 117, 190, 120, 195, 195, 120, 1, 1.94315
330, 2, wb, attraction, a-b-db, 5, 3, 6, 6, 117, 190, 120, 195, 195, 120, 2, 0.591793
330, 2, wb, catch, NA, 999, 999, 6, 7, 91, 104, 114, 141, 177, 138, 1, 0.845569
330, 2, wb, catch, NA, 999, 999, 6, 7, 91, 104, 114, 141, 177, 138, 3, 0.306683
330, 2, wb, filler, NA, 999, 999, 6, 8, 116, 57, 89, 84, 78, 148, 1, 1.98782
330, 2, wb, filler, NA, 999, 999, 6, 8, 116, 57, 89, 84, 78, 148, 3, 0.458516
330, 2, wb, attraction, a-b-db, 2, 1, 6, 9, 135, 60, 60, 135, 59, 134, 1, 0.797605
330, 2, wb, attraction, a-b-db, 2, 1, 6, 9, 135, 60, 60, 135, 59, 134, 2, 0.324682
330, 2, wb, attraction, a-b-da, 5, 2, 6, 10, 90, 165, 165, 90, 161, 88, 3, 0.725122
330, 2, wb, attraction, a-b-da, 5, 2, 6, 10, 90, 165, 165, 90, 161, 88, 2, 0.526997
330, 2, wb, attraction, a-b-da, 5, 1, 6, 11, 135, 60, 132, 58, 60, 135, 1, 0.703303
330, 2, wb, attraction, a-b-da, 5, 1, 6, 11, 135, 60, 132, 58, 60, 135, 2, 0.601733
330, 2, wb, attraction, a-b-da, 2, 3, 6, 12, 120, 195, 195, 120, 193, 119, 3, 0.607565
330, 2, wb, attraction, a-b-da, 2, 3, 6, 12, 120, 195, 195, 120, 193, 119, 2, 0.325934
330, 2, wb, attraction, a-b-da, 2, 1, 6, 13, 60, 135, 135, 60, 134, 59, 1, 1.59866
330, 2, wb, attraction, a-b-da, 2, 1, 6, 13, 60, 135, 135, 60, 134, 59, 2, 0.413388
330, 2, wb, attraction, a-b-db, 9, 2, 6, 14, 86, 157, 90, 165, 165, 90, 1, 1.0265
330, 2, wb, attraction, a-b-db, 9, 2, 6, 14, 86, 157, 90, 165, 165, 90, 2, 0.544173
330, 2, wb, filler, NA, 999, 999, 6, 15, 127, 123, 121, 160, 81, 95, 3, 1.15189
330, 2, wb, filler, NA, 999, 999, 6, 15, 127, 123, 121, 160, 81, 95, 2, 0.352956
330, 2, wb, attraction, a-b-db, 2, 2, 6, 16, 89, 163, 165, 90, 90, 165, 1, 0.592611
330, 2, wb, attraction, a-b-db, 2, 2, 6, 16, 89, 163, 165, 90, 90, 165, 2, 0.279809
330, 2, wb, attraction, a-b-db, 5, 2, 6, 17, 88, 161, 90, 165, 165, 90, 1, 0.802214
330, 2, wb, attraction, a-b-db, 5, 2, 6, 17, 88, 161, 90, 165, 165, 90, 2, 0.289306
330, 2, wb, attraction, a-b-da, 14, 3, 6, 18, 120, 195, 195, 120, 181, 111, 3, 0.499156
330, 2, wb, attraction, a-b-da, 14, 3, 6, 18, 120, 195, 195, 120, 181, 111, 2, 0.334334
330, 2, wb, catch, NA, 999, 999, 6, 19, 142, 113, 78, 117, 173, 142, 2, 1.00678
330, 2, wb, catch, NA, 999, 999, 6, 19, 142, 113, 78, 117, 173, 142, 3, 0.397254
330, 2, wb, filler, NA, 999, 999, 6, 20, 180, 120, 178, 133, 114, 81, 3, 0.738944
330, 2, wb, filler, NA, 999, 999, 6, 20, 180, 120, 178, 133, 114, 81, 1, 3.56407
330, 2, wb, filler, NA, 999, 999, 6, 21, 194, 185, 118, 79, 159, 162, 2, 0.754179
330, 2, wb, filler, NA, 999, 999, 6, 21, 194, 185, 118, 79, 159, 162, 1, 0.506776
330, 2, wb, filler, NA, 999, 999, 6, 22, 151, 80, 174, 162, 133, 138, 1, 1.11597
330, 2, wb, filler, NA, 999, 999, 6, 22, 151, 80, 174, 162, 133, 138, 2, 0.350062
330, 2, wb, attraction, a-b-da, 14, 2, 6, 23, 90, 165, 165, 90, 153, 83, 3, 0.653879
330, 2, wb, attraction, a-b-da, 14, 2, 6, 23, 90, 165, 165, 90, 153, 83, 2, 0.346239
330, 2, wb, attraction, a-b-db, 9, 1, 6, 24, 135, 60, 60, 135, 57, 129, 1, 0.6423
330, 2, wb, attraction, a-b-db, 9, 1, 6, 24, 135, 60, 60, 135, 57, 129, 2, 0.647275
330, 2, wb, filler, NA, 999, 999, 6, 25, 107, 98, 76, 130, 146, 167, 2, 1.54712
330, 2, wb, filler, NA, 999, 999, 6, 25, 107, 98, 76, 130, 146, 167, 3, 1.10793
330, 2, wb, catch, NA, 999, 999, 6, 26, 156, 99, 159, 156, 63, 132, 3, 1.18074
330, 2, wb, catch, NA, 999, 999, 6, 26, 156, 99, 159, 156, 63, 132, 2, 0.604363
330, 2, wb, attraction, a-b-da, 9, 3, 6, 27, 186, 114, 120, 195, 195, 120, 1, 1.43415
330, 2, wb, attraction, a-b-da, 9, 3, 6, 27, 186, 114, 120, 195, 195, 120, 2, 0.519576
330, 2, wb, attraction, a-b-db, 14, 3, 6, 28, 120, 195, 195, 120, 111, 181, 3, 1.01688
330, 2, wb, attraction, a-b-db, 14, 3, 6, 28, 120, 195, 195, 120, 111, 181, 2, 0.463118
330, 2, wb, attraction, a-b-db, 5, 1, 6, 29, 60, 135, 58, 132, 135, 60, 2, 1.00215
330, 2, wb, attraction, a-b-db, 5, 1, 6, 29, 60, 135, 58, 132, 135, 60, 3, 0.569289
330, 2, wb, filler, NA, 999, 999, 6, 30, 58, 176, 189, 78, 138, 122, 1, 1.15231
330, 2, wb, filler, NA, 999, 999, 6, 30, 58, 176, 189, 78, 138, 122, 3, 0.273256
330, 2, wb, attraction, a-b-db, 14, 1, 6, 31, 135, 60, 60, 135, 56, 125, 1, 0.971721
330, 2, wb, attraction, a-b-db, 14, 1, 6, 31, 135, 60, 60, 135, 56, 125, 2, 0.267416
330, 2, wb, filler, NA, 999, 999, 6, 32, 77, 145, 193, 95, 186, 136, 1, 1.05457
330, 2, wb, filler, NA, 999, 999, 6, 32, 77, 145, 193, 95, 186, 136, 3, 0.242957
330, 2, wb, attraction, a-b-da, 5, 3, 6, 33, 120, 195, 190, 117, 195, 120, 2, 1.03874
330, 2, wb, attraction, a-b-da, 5, 3, 6, 33, 120, 195, 190, 117, 195, 120, 1, 0.251733
330, 2, wb, filler, NA, 999, 999, 6, 34, 174, 139, 85, 193, 78, 146, 3, 0.807554
330, 2, wb, filler, NA, 999, 999, 6, 34, 174, 139, 85, 193, 78, 146, 1, 0.526011
330, 2, wb, attraction, a-b-db, 14, 2, 6, 35, 165, 90, 90, 165, 83, 153, 3, 1.35048
330, 2, wb, attraction, a-b-db, 14, 2, 6, 35, 165, 90, 90, 165, 83, 153, 2, 0.639601
330, 2, wb, attraction, a-b-da, 9, 2, 6, 36, 157, 86, 165, 90, 90, 165, 1, 1.20305
330, 2, wb, attraction, a-b-da, 9, 2, 6, 36, 157, 86, 165, 90, 90, 165, 3, 0.345945
330, 2, wb, attraction, a-b-da, 14, 1, 6, 37, 135, 60, 125, 56, 60, 135, 2, 1.03382
330, 2, wb, attraction, a-b-da, 14, 1, 6, 37, 135, 60, 125, 56, 60, 135, 3, 0.471566
330, 2, wb, catch, NA, 999, 999, 7, 1, 82, 113, 192, 123, 140, 115, 1, 1.64265
330, 2, wb, catch, NA, 999, 999, 7, 1, 82, 113, 192, 123, 140, 115, 2, 0.903637
330, 2, wb, catch, NA, 999, 999, 7, 2, 116, 79, 194, 121, 163, 92, 1, 0.817033
330, 2, wb, catch, NA, 999, 999, 7, 2, 116, 79, 194, 121, 163, 92, 2, 0.431475
330, 2, wb, attraction, a-b-db, 2, 2, 7, 3, 165, 90, 89, 163, 90, 165, 1, 1.29207
330, 2, wb, attraction, a-b-db, 2, 2, 7, 3, 165, 90, 89, 163, 90, 165, 3, 0.854804
330, 2, wb, attraction, a-b-db, 2, 1, 7, 4, 59, 134, 135, 60, 60, 135, 2, 1.37848
330, 2, wb, attraction, a-b-db, 2, 1, 7, 4, 59, 134, 135, 60, 60, 135, 1, 0.274043
330, 2, wb, filler, NA, 999, 999, 7, 5, 121, 73, 123, 144, 89, 74, 3, 0.596662
330, 2, wb, filler, NA, 999, 999, 7, 5, 121, 73, 123, 144, 89, 74, 2, 0.667678
330, 2, wb, attraction, a-b-da, 5, 2, 7, 6, 90, 165, 161, 88, 165, 90, 2, 4.04684
330, 2, wb, attraction, a-b-da, 5, 2, 7, 6, 90, 165, 161, 88, 165, 90, 3, 0.610796
330, 2, wb, filler, NA, 999, 999, 7, 7, 111, 67, 68, 62, 119, 105, 2, 0.471931
330, 2, wb, filler, NA, 999, 999, 7, 7, 111, 67, 68, 62, 119, 105, 3, 0.347727
330, 2, wb, attraction, a-b-da, 2, 1, 7, 8, 135, 60, 134, 59, 60, 135, 2, 1.01957
330, 2, wb, attraction, a-b-da, 2, 1, 7, 8, 135, 60, 134, 59, 60, 135, 1, 0.937866
330, 2, wb, attraction, a-b-db, 9, 2, 7, 9, 165, 90, 86, 157, 90, 165, 2, 0.626184
330, 2, wb, attraction, a-b-db, 9, 2, 7, 9, 165, 90, 86, 157, 90, 165, 1, 0.432117
330, 2, wb, attraction, a-b-db, 14, 3, 7, 10, 111, 181, 120, 195, 195, 120, 1, 15.3165
330, 2, wb, attraction, a-b-db, 14, 3, 7, 10, 111, 181, 120, 195, 195, 120, 2, 1.18124
330, 2, wb, filler, NA, 999, 999, 7, 11, 163, 164, 119, 60, 124, 130, 2, 1.31254
330, 2, wb, filler, NA, 999, 999, 7, 11, 163, 164, 119, 60, 124, 130, 1, 0.290716
330, 2, wb, attraction, a-b-db, 14, 1, 7, 12, 135, 60, 60, 135, 56, 125, 2, 1.42492
330, 2, wb, attraction, a-b-db, 14, 1, 7, 12, 135, 60, 60, 135, 56, 125, 1, 0.658173
330, 2, wb, attraction, a-b-db, 5, 3, 7, 13, 117, 190, 195, 120, 120, 195, 2, 1.38917
330, 2, wb, attraction, a-b-db, 5, 3, 7, 13, 117, 190, 195, 120, 120, 195, 3, 0.348037
330, 2, wb, attraction, a-b-da, 14, 1, 7, 14, 135, 60, 60, 135, 125, 56, 2, 0.715904
330, 2, wb, attraction, a-b-da, 14, 1, 7, 14, 135, 60, 60, 135, 125, 56, 3, 0.358308
330, 2, wb, attraction, a-b-da, 9, 3, 7, 15, 186, 114, 120, 195, 195, 120, 1, 1.4294
330, 2, wb, attraction, a-b-da, 9, 3, 7, 15, 186, 114, 120, 195, 195, 120, 2, 0.650974
330, 2, wb, attraction, a-b-db, 14, 2, 7, 16, 165, 90, 90, 165, 83, 153, 3, 2.4467
330, 2, wb, attraction, a-b-db, 14, 2, 7, 16, 165, 90, 90, 165, 83, 153, 1, 0.891262
330, 2, wb, attraction, a-b-da, 9, 1, 7, 17, 135, 60, 129, 57, 60, 135, 2, 1.91693
330, 2, wb, attraction, a-b-da, 9, 1, 7, 17, 135, 60, 129, 57, 60, 135, 1, 0.814953
330, 2, wb, filler, NA, 999, 999, 7, 18, 129, 195, 129, 163, 179, 183, 2, 1.29204
330, 2, wb, filler, NA, 999, 999, 7, 18, 129, 195, 129, 163, 179, 183, 3, 0.278987
330, 2, wb, attraction, a-b-da, 14, 2, 7, 19, 153, 83, 165, 90, 90, 165, 2, 1.3534
330, 2, wb, attraction, a-b-da, 14, 2, 7, 19, 153, 83, 165, 90, 90, 165, 3, 0.289666
330, 2, wb, attraction, a-b-da, 2, 2, 7, 20, 163, 89, 90, 165, 165, 90, 1, 1.69153
330, 2, wb, attraction, a-b-da, 2, 2, 7, 20, 163, 89, 90, 165, 165, 90, 3, 0.334311
330, 2, wb, filler, NA, 999, 999, 7, 21, 74, 101, 187, 78, 82, 117, 1, 1.59088
330, 2, wb, filler, NA, 999, 999, 7, 21, 74, 101, 187, 78, 82, 117, 2, 0.549591
330, 2, wb, filler, NA, 999, 999, 7, 22, 149, 119, 83, 185, 145, 122, 2, 2.91748
330, 2, wb, filler, NA, 999, 999, 7, 22, 149, 119, 83, 185, 145, 122, 1, 0.351085
330, 2, wb, attraction, a-b-db, 5, 2, 7, 23, 88, 161, 165, 90, 90, 165, 1, 1.22288
330, 2, wb, attraction, a-b-db, 5, 2, 7, 23, 88, 161, 165, 90, 90, 165, 2, 0.228498
330, 2, wb, attraction, a-b-db, 5, 1, 7, 24, 60, 135, 58, 132, 135, 60, 3, 1.56907
330, 2, wb, attraction, a-b-db, 5, 1, 7, 24, 60, 135, 58, 132, 135, 60, 1, 0.889193
330, 2, wb, attraction, a-b-db, 9, 3, 7, 25, 114, 186, 120, 195, 195, 120, 1, 5.33161
330, 2, wb, attraction, a-b-db, 9, 3, 7, 25, 114, 186, 120, 195, 195, 120, 3, 0.235808
330, 2, wb, attraction, a-b-da, 2, 3, 7, 26, 195, 120, 193, 119, 120, 195, 1, 2.68835
330, 2, wb, attraction, a-b-da, 2, 3, 7, 26, 195, 120, 193, 119, 120, 195, 3, 0.242828
330, 2, wb, attraction, a-b-da, 5, 3, 7, 27, 120, 195, 195, 120, 190, 117, 2, 1.75067
330, 2, wb, attraction, a-b-da, 5, 3, 7, 27, 120, 195, 195, 120, 190, 117, 1, 0.311484
330, 2, wb, attraction, a-b-da, 14, 3, 7, 28, 181, 111, 120, 195, 195, 120, 1, 2.16058
330, 2, wb, attraction, a-b-da, 14, 3, 7, 28, 181, 111, 120, 195, 195, 120, 3, 0.336692
330, 2, wb, attraction, a-b-db, 2, 3, 7, 29, 195, 120, 120, 195, 119, 193, 1, 3.83311
330, 2, wb, attraction, a-b-db, 2, 3, 7, 29, 195, 120, 120, 195, 119, 193, 2, 0.293814
330, 2, wb, filler, NA, 999, 999, 7, 30, 135, 194, 192, 191, 174, 195, 1, 1.43179
330, 2, wb, filler, NA, 999, 999, 7, 30, 135, 194, 192, 191, 174, 195, 3, 0.517297
330, 2, wb, attraction, a-b-da, 5, 1, 7, 31, 135, 60, 132, 58, 60, 135, 1, 0.806441
330, 2, wb, attraction, a-b-da, 5, 1, 7, 31, 135, 60, 132, 58, 60, 135, 2, 0.636717
330, 2, wb, catch, NA, 999, 999, 7, 32, 71, 124, 149, 166, 138, 117, 1, 0.913212
330, 2, wb, catch, NA, 999, 999, 7, 32, 71, 124, 149, 166, 138, 117, 2, 0.723594
330, 2, wb, filler, NA, 999, 999, 7, 33, 151, 175, 153, 113, 132, 61, 3, 1.42004
330, 2, wb, filler, NA, 999, 999, 7, 33, 151, 175, 153, 113, 132, 61, 1, 0.56215
330, 2, wb, attraction, a-b-db, 9, 1, 7, 34, 57, 129, 135, 60, 60, 135, 1, 1.6492
330, 2, wb, attraction, a-b-db, 9, 1, 7, 34, 57, 129, 135, 60, 60, 135, 3, 0.254149
330, 2, wb, filler, NA, 999, 999, 7, 35, 182, 169, 113, 57, 171, 116, 2, 1.48988
330, 2, wb, filler, NA, 999, 999, 7, 35, 182, 169, 113, 57, 171, 116, 1, 0.65266
330, 2, wb, filler, NA, 999, 999, 7, 36, 178, 134, 71, 126, 157, 167, 2, 0.728441
330, 2, wb, filler, NA, 999, 999, 7, 36, 178, 134, 71, 126, 157, 167, 3, 1.04221
330, 2, wb, attraction, a-b-da, 9, 2, 7, 37, 157, 86, 90, 165, 165, 90, 1, 1.46178
330, 2, wb, attraction, a-b-da, 9, 2, 7, 37, 157, 86, 90, 165, 165, 90, 2, 0.265963
330, 2, wb, filler, NA, 999, 999, 8, 1, 123, 163, 185, 117, 127, 72, 3, 0.749214
330, 2, wb, filler, NA, 999, 999, 8, 1, 123, 163, 185, 117, 127, 72, 2, 0.630223
330, 2, wb, attraction, a-b-db, 2, 3, 8, 2, 120, 195, 195, 120, 119, 193, 1, 1.04273
330, 2, wb, attraction, a-b-db, 2, 3, 8, 2, 120, 195, 195, 120, 119, 193, 2, 0.4716
330, 2, wb, attraction, a-b-db, 9, 2, 8, 3, 165, 90, 90, 165, 86, 157, 1, 1.05873
330, 2, wb, attraction, a-b-db, 9, 2, 8, 3, 165, 90, 90, 165, 86, 157, 2, 0.375086
330, 2, wb, attraction, a-b-db, 14, 1, 8, 4, 60, 135, 135, 60, 56, 125, 3, 2.77359
330, 2, wb, attraction, a-b-db, 14, 1, 8, 4, 60, 135, 135, 60, 56, 125, 2, 1.54067
330, 2, wb, attraction, a-b-db, 9, 1, 8, 5, 135, 60, 57, 129, 60, 135, 1, 4.10821
330, 2, wb, attraction, a-b-db, 9, 1, 8, 5, 135, 60, 57, 129, 60, 135, 2, 0.333467
330, 2, wb, attraction, a-b-da, 9, 1, 8, 6, 135, 60, 129, 57, 60, 135, 2, 2.06195
330, 2, wb, attraction, a-b-da, 9, 1, 8, 6, 135, 60, 129, 57, 60, 135, 1, 0.91397
330, 2, wb, catch, NA, 999, 999, 8, 7, 102, 153, 75, 120, 134, 181, 2, 1.08306
330, 2, wb, catch, NA, 999, 999, 8, 7, 102, 153, 75, 120, 134, 181, 3, 0.278648
330, 2, wb, filler, NA, 999, 999, 8, 8, 163, 66, 63, 82, 89, 167, 2, 1.05714
330, 2, wb, filler, NA, 999, 999, 8, 8, 163, 66, 63, 82, 89, 167, 3, 0.741403
330, 2, wb, attraction, a-b-db, 2, 2, 8, 9, 90, 165, 89, 163, 165, 90, 3, 1.51713
330, 2, wb, attraction, a-b-db, 2, 2, 8, 9, 90, 165, 89, 163, 165, 90, 2, 0.215284
330, 2, wb, attraction, a-b-db, 2, 1, 8, 10, 59, 134, 60, 135, 135, 60, 1, 0.996464
330, 2, wb, attraction, a-b-db, 2, 1, 8, 10, 59, 134, 60, 135, 135, 60, 3, 0.603655
330, 2, wb, attraction, a-b-da, 2, 3, 8, 11, 120, 195, 193, 119, 195, 120, 2, 3.72132
330, 2, wb, attraction, a-b-da, 2, 3, 8, 11, 120, 195, 193, 119, 195, 120, 1, 0.362052
330, 2, wb, attraction, a-b-db, 5, 3, 8, 12, 120, 195, 195, 120, 117, 190, 2, 0.705236
330, 2, wb, attraction, a-b-db, 5, 3, 8, 12, 120, 195, 195, 120, 117, 190, 1, 0.275604
330, 2, wb, attraction, a-b-da, 9, 3, 8, 13, 195, 120, 120, 195, 186, 114, 3, 0.630174
330, 2, wb, attraction, a-b-da, 9, 3, 8, 13, 195, 120, 120, 195, 186, 114, 2, 0.275904
330, 2, wb, attraction, a-b-db, 5, 2, 8, 14, 90, 165, 165, 90, 88, 161, 1, 1.4385
330, 2, wb, attraction, a-b-db, 5, 2, 8, 14, 90, 165, 165, 90, 88, 161, 3, 0.355267
330, 2, wb, attraction, a-b-da, 14, 3, 8, 15, 181, 111, 195, 120, 120, 195, 1, 0.531125
330, 2, wb, attraction, a-b-da, 14, 3, 8, 15, 181, 111, 195, 120, 120, 195, 2, 0.268925
330, 2, wb, filler, NA, 999, 999, 8, 16, 62, 126, 170, 133, 116, 64, 2, 2.57608
330, 2, wb, filler, NA, 999, 999, 8, 16, 62, 126, 170, 133, 116, 64, 1, 0.855408
330, 2, wb, attraction, a-b-da, 9, 2, 8, 17, 165, 90, 157, 86, 90, 165, 2, 2.09907
330, 2, wb, attraction, a-b-da, 9, 2, 8, 17, 165, 90, 157, 86, 90, 165, 3, 1.37374
330, 2, wb, attraction, a-b-db, 9, 3, 8, 18, 195, 120, 120, 195, 114, 186, 3, 1.2678
330, 2, wb, attraction, a-b-db, 9, 3, 8, 18, 195, 120, 120, 195, 114, 186, 2, 0.224001
330, 2, wb, filler, NA, 999, 999, 8, 19, 132, 160, 114, 169, 172, 154, 1, 0.804561
330, 2, wb, filler, NA, 999, 999, 8, 19, 132, 160, 114, 169, 172, 154, 2, 0.242971
330, 2, wb, catch, NA, 999, 999, 8, 20, 121, 74, 153, 102, 184, 131, 1, 0.84684
330, 2, wb, catch, NA, 999, 999, 8, 20, 121, 74, 153, 102, 184, 131, 3, 0.179852
330, 2, wb, attraction, a-b-db, 14, 2, 8, 21, 90, 165, 83, 153, 165, 90, 2, 2.20253
330, 2, wb, attraction, a-b-db, 14, 2, 8, 21, 90, 165, 83, 153, 165, 90, 3, 0.641114
330, 2, wb, filler, NA, 999, 999, 8, 22, 112, 185, 136, 177, 82, 157, 3, 1.25289
330, 2, wb, filler, NA, 999, 999, 8, 22, 112, 185, 136, 177, 82, 157, 1, 0.665695
330, 2, wb, catch, NA, 999, 999, 8, 23, 176, 139, 80, 115, 140, 115, 2, 1.05282
330, 2, wb, catch, NA, 999, 999, 8, 23, 176, 139, 80, 115, 140, 115, 1, 0.641798
330, 2, wb, filler, NA, 999, 999, 8, 24, 133, 183, 146, 103, 72, 109, 3, 0.957528
330, 2, wb, filler, NA, 999, 999, 8, 24, 133, 183, 146, 103, 72, 109, 1, 0.541832
330, 2, wb, attraction, a-b-da, 5, 3, 8, 25, 195, 120, 120, 195, 190, 117, 1, 2.42963
330, 2, wb, attraction, a-b-da, 5, 3, 8, 25, 195, 120, 120, 195, 190, 117, 2, 0.25077
330, 2, wb, filler, NA, 999, 999, 8, 26, 77, 115, 146, 84, 158, 170, 1, 0.806645
330, 2, wb, filler, NA, 999, 999, 8, 26, 77, 115, 146, 84, 158, 170, 3, 0.877075
330, 2, wb, attraction, a-b-db, 14, 3, 8, 27, 111, 181, 195, 120, 120, 195, 1, 1.43949
330, 2, wb, attraction, a-b-db, 14, 3, 8, 27, 111, 181, 195, 120, 120, 195, 2, 0.204265
330, 2, wb, attraction, a-b-da, 2, 1, 8, 28, 135, 60, 60, 135, 134, 59, 3, 0.706167
330, 2, wb, attraction, a-b-da, 2, 1, 8, 28, 135, 60, 60, 135, 134, 59, 2, 0.388585
330, 2, wb, attraction, a-b-da, 2, 2, 8, 29, 90, 165, 165, 90, 163, 89, 1, 0.659075
330, 2, wb, attraction, a-b-da, 2, 2, 8, 29, 90, 165, 165, 90, 163, 89, 2, 0.287496
330, 2, wb, filler, NA, 999, 999, 8, 30, 145, 191, 60, 147, 72, 132, 2, 1.26612
330, 2, wb, filler, NA, 999, 999, 8, 30, 145, 191, 60, 147, 72, 132, 1, 0.254365
330, 2, wb, attraction, a-b-da, 5, 1, 8, 31, 132, 58, 60, 135, 135, 60, 1, 1.0341
330, 2, wb, attraction, a-b-da, 5, 1, 8, 31, 132, 58, 60, 135, 135, 60, 2, 0.711743
330, 2, wb, filler, NA, 999, 999, 8, 32, 129, 181, 92, 163, 83, 74, 3, 1.6409
330, 2, wb, filler, NA, 999, 999, 8, 32, 129, 181, 92, 163, 83, 74, 1, 0.357706
330, 2, wb, attraction, a-b-db, 5, 1, 8, 33, 135, 60, 60, 135, 58, 132, 2, 1.2528
330, 2, wb, attraction, a-b-db, 5, 1, 8, 33, 135, 60, 60, 135, 58, 132, 1, 0.529655
330, 2, wb, attraction, a-b-da, 14, 1, 8, 34, 135, 60, 60, 135, 125, 56, 3, 1.99418
330, 2, wb, attraction, a-b-da, 14, 1, 8, 34, 135, 60, 60, 135, 125, 56, 1, 0.976824
330, 2, wb, attraction, a-b-da, 14, 2, 8, 35, 165, 90, 153, 83, 90, 165, 2, 1.28711
330, 2, wb, attraction, a-b-da, 14, 2, 8, 35, 165, 90, 153, 83, 90, 165, 3, 0.746725
330, 2, wb, attraction, a-b-da, 5, 2, 8, 36, 165, 90, 90, 165, 161, 88, 1, 3.46641
330, 2, wb, attraction, a-b-da, 5, 2, 8, 36, 165, 90, 90, 165, 161, 88, 2, 0.262033
330, 2, wb, filler, NA, 999, 999, 8, 37, 141, 161, 143, 67, 158, 154, 2, 0.841247
330, 2, wb, filler, NA, 999, 999, 8, 37, 141, 161, 143, 67, 158, 154, 3, 0.822214
