sub_n, computer_n, bw_cond, effect, set, distance, diag, block_n, trial_n, h1, w1, h2, w2, h3, w3, choice, rt 
31, 2, bw, practice, NA, 999, 999, 0, 1, 174, 190, 194, 188, 159, 62, 2, 6.7697
31, 2, bw, practice, NA, 999, 999, 0, 1, 174, 190, 194, 188, 159, 62, 3, 3.40971
31, 2, bw, practice, NA, 999, 999, 0, 2, 98, 117, 139, 117, 90, 58, 2, 3.12263
31, 2, bw, practice, NA, 999, 999, 0, 2, 98, 117, 139, 117, 90, 58, 3, 1.65122
31, 2, bw, practice, NA, 999, 999, 0, 3, 138, 152, 144, 117, 75, 79, 1, 2.18112
31, 2, bw, practice, NA, 999, 999, 0, 3, 138, 152, 144, 117, 75, 79, 3, 1.14199
31, 2, bw, attraction, a-b-db, 5, 1, 1, 1, 60, 135, 58, 132, 135, 60, 1, 2.5218
31, 2, bw, attraction, a-b-db, 5, 1, 1, 1, 60, 135, 58, 132, 135, 60, 3, 4.91498
31, 2, bw, catch, NA, 999, 999, 1, 2, 165, 150, 156, 99, 75, 120, 1, 1.37873
31, 2, bw, catch, NA, 999, 999, 1, 2, 165, 150, 156, 99, 75, 120, 3, 0.89028
31, 2, bw, attraction, a-b-da, 5, 2, 1, 3, 165, 90, 90, 165, 161, 88, 1, 6.69196
31, 2, bw, attraction, a-b-da, 5, 2, 1, 3, 165, 90, 90, 165, 161, 88, 3, 0.789189
31, 2, bw, filler, NA, 999, 999, 1, 4, 149, 103, 84, 64, 103, 69, 1, 1.51484
31, 2, bw, filler, NA, 999, 999, 1, 4, 149, 103, 84, 64, 103, 69, 2, 0.805182
31, 2, bw, attraction, a-b-db, 2, 1, 1, 5, 60, 135, 59, 134, 135, 60, 1, 2.4987
31, 2, bw, attraction, a-b-db, 2, 1, 1, 5, 60, 135, 59, 134, 135, 60, 2, 2.90922
31, 2, bw, attraction, a-b-db, 14, 3, 1, 6, 195, 120, 120, 195, 111, 181, 2, 2.06159
31, 2, bw, attraction, a-b-db, 14, 3, 1, 6, 195, 120, 120, 195, 111, 181, 3, 1.36161
31, 2, bw, attraction, a-b-da, 14, 3, 1, 7, 195, 120, 120, 195, 181, 111, 2, 2.39234
31, 2, bw, attraction, a-b-da, 14, 3, 1, 7, 195, 120, 120, 195, 181, 111, 3, 0.759016
31, 2, bw, filler, NA, 999, 999, 1, 8, 123, 195, 62, 126, 108, 98, 1, 1.33402
31, 2, bw, filler, NA, 999, 999, 1, 8, 123, 195, 62, 126, 108, 98, 2, 1.11162
31, 2, bw, attraction, a-b-db, 14, 2, 1, 9, 90, 165, 165, 90, 83, 153, 1, 1.82453
31, 2, bw, attraction, a-b-db, 14, 2, 1, 9, 90, 165, 165, 90, 83, 153, 3, 0.941885
31, 2, bw, attraction, a-b-da, 14, 2, 1, 10, 153, 83, 165, 90, 90, 165, 3, 2.23761
31, 2, bw, attraction, a-b-da, 14, 2, 1, 10, 153, 83, 165, 90, 90, 165, 1, 1.19411
31, 2, bw, attraction, a-b-da, 9, 3, 1, 11, 120, 195, 195, 120, 186, 114, 1, 1.24771
31, 2, bw, attraction, a-b-da, 9, 3, 1, 11, 120, 195, 195, 120, 186, 114, 2, 1.25265
31, 2, bw, attraction, a-b-db, 9, 2, 1, 12, 165, 90, 86, 157, 90, 165, 1, 5.60815
31, 2, bw, attraction, a-b-db, 9, 2, 1, 12, 165, 90, 86, 157, 90, 165, 2, 0.997073
31, 2, bw, attraction, a-b-da, 9, 2, 1, 13, 157, 86, 165, 90, 90, 165, 3, 1.57876
31, 2, bw, attraction, a-b-da, 9, 2, 1, 13, 157, 86, 165, 90, 90, 165, 2, 0.770243
31, 2, bw, attraction, a-b-da, 5, 3, 1, 14, 120, 195, 190, 117, 195, 120, 1, 1.36125
31, 2, bw, attraction, a-b-da, 5, 3, 1, 14, 120, 195, 190, 117, 195, 120, 2, 0.601485
31, 2, bw, attraction, a-b-da, 2, 2, 1, 15, 165, 90, 90, 165, 163, 89, 2, 2.15119
31, 2, bw, attraction, a-b-da, 2, 2, 1, 15, 165, 90, 90, 165, 163, 89, 1, 0.535866
31, 2, bw, filler, NA, 999, 999, 1, 16, 66, 73, 91, 149, 190, 187, 3, 1.07231
31, 2, bw, filler, NA, 999, 999, 1, 16, 66, 73, 91, 149, 190, 187, 1, 0.771849
31, 2, bw, filler, NA, 999, 999, 1, 17, 192, 163, 121, 149, 186, 194, 3, 1.31495
31, 2, bw, filler, NA, 999, 999, 1, 17, 192, 163, 121, 149, 186, 194, 2, 0.717163
31, 2, bw, attraction, a-b-da, 14, 1, 1, 18, 135, 60, 125, 56, 60, 135, 3, 2.16619
31, 2, bw, attraction, a-b-da, 14, 1, 1, 18, 135, 60, 125, 56, 60, 135, 2, 0.870155
31, 2, bw, attraction, a-b-db, 9, 1, 1, 19, 57, 129, 60, 135, 135, 60, 2, 3.56113
31, 2, bw, attraction, a-b-db, 9, 1, 1, 19, 57, 129, 60, 135, 135, 60, 1, 0.840691
31, 2, bw, attraction, a-b-da, 2, 1, 1, 20, 134, 59, 135, 60, 60, 135, 3, 3.30837
31, 2, bw, attraction, a-b-da, 2, 1, 1, 20, 134, 59, 135, 60, 60, 135, 2, 0.606094
31, 2, bw, filler, NA, 999, 999, 1, 21, 62, 71, 103, 84, 102, 156, 3, 0.979094
31, 2, bw, filler, NA, 999, 999, 1, 21, 62, 71, 103, 84, 102, 156, 1, 0.850795
31, 2, bw, catch, NA, 999, 999, 1, 22, 82, 113, 92, 163, 150, 165, 3, 0.718454
31, 2, bw, catch, NA, 999, 999, 1, 22, 82, 113, 92, 163, 150, 165, 1, 0.760854
31, 2, bw, attraction, a-b-da, 9, 1, 1, 23, 60, 135, 135, 60, 129, 57, 1, 1.58387
31, 2, bw, attraction, a-b-da, 9, 1, 1, 23, 60, 135, 135, 60, 129, 57, 3, 1.10341
31, 2, bw, filler, NA, 999, 999, 1, 24, 62, 100, 151, 167, 172, 91, 2, 0.833028
31, 2, bw, filler, NA, 999, 999, 1, 24, 62, 100, 151, 167, 172, 91, 1, 0.542734
31, 2, bw, filler, NA, 999, 999, 1, 25, 170, 83, 153, 161, 174, 138, 2, 1.82256
31, 2, bw, filler, NA, 999, 999, 1, 25, 170, 83, 153, 161, 174, 138, 1, 0.531946
31, 2, bw, attraction, a-b-db, 14, 1, 1, 26, 135, 60, 56, 125, 60, 135, 1, 2.46025
31, 2, bw, attraction, a-b-db, 14, 1, 1, 26, 135, 60, 56, 125, 60, 135, 2, 0.528251
31, 2, bw, attraction, a-b-da, 2, 3, 1, 27, 193, 119, 195, 120, 120, 195, 3, 3.78455
31, 2, bw, attraction, a-b-da, 2, 3, 1, 27, 193, 119, 195, 120, 120, 195, 2, 1.31961
31, 2, bw, attraction, a-b-db, 2, 3, 1, 28, 195, 120, 119, 193, 120, 195, 1, 1.68029
31, 2, bw, attraction, a-b-db, 2, 3, 1, 28, 195, 120, 119, 193, 120, 195, 2, 0.491718
31, 2, bw, attraction, a-b-db, 2, 2, 1, 29, 89, 163, 165, 90, 90, 165, 1, 1.44554
31, 2, bw, attraction, a-b-db, 2, 2, 1, 29, 89, 163, 165, 90, 90, 165, 2, 0.874303
31, 2, bw, attraction, a-b-da, 5, 1, 1, 30, 135, 60, 132, 58, 60, 135, 3, 2.04463
31, 2, bw, attraction, a-b-da, 5, 1, 1, 30, 135, 60, 132, 58, 60, 135, 2, 0.713312
31, 2, bw, filler, NA, 999, 999, 1, 31, 132, 104, 166, 90, 182, 90, 3, 2.92237
31, 2, bw, filler, NA, 999, 999, 1, 31, 132, 104, 166, 90, 182, 90, 2, 0.651445
31, 2, bw, filler, NA, 999, 999, 1, 32, 66, 69, 159, 174, 180, 169, 2, 0.815274
31, 2, bw, filler, NA, 999, 999, 1, 32, 66, 69, 159, 174, 180, 169, 1, 0.541636
31, 2, bw, attraction, a-b-db, 5, 2, 1, 33, 90, 165, 165, 90, 88, 161, 1, 0.877343
31, 2, bw, attraction, a-b-db, 5, 2, 1, 33, 90, 165, 165, 90, 88, 161, 2, 0.53711
31, 2, bw, attraction, a-b-db, 5, 3, 1, 34, 120, 195, 117, 190, 195, 120, 2, 1.15348
31, 2, bw, attraction, a-b-db, 5, 3, 1, 34, 120, 195, 117, 190, 195, 120, 3, 1.39451
31, 2, bw, filler, NA, 999, 999, 1, 35, 129, 171, 127, 165, 142, 149, 1, 5.16809
31, 2, bw, filler, NA, 999, 999, 1, 35, 129, 171, 127, 165, 142, 149, 2, 0.678996
31, 2, bw, attraction, a-b-db, 9, 3, 1, 36, 114, 186, 120, 195, 195, 120, 2, 1.45734
31, 2, bw, attraction, a-b-db, 9, 3, 1, 36, 114, 186, 120, 195, 195, 120, 1, 2.00562
31, 2, bw, catch, NA, 999, 999, 1, 37, 133, 182, 108, 147, 71, 124, 1, 1.45083
31, 2, bw, catch, NA, 999, 999, 1, 37, 133, 182, 108, 147, 71, 124, 3, 0.503825
31, 2, bw, filler, NA, 999, 999, 2, 1, 193, 96, 131, 90, 136, 194, 3, 0.969518
31, 2, bw, filler, NA, 999, 999, 2, 1, 193, 96, 131, 90, 136, 194, 2, 0.449853
31, 2, bw, attraction, a-b-da, 9, 2, 2, 2, 157, 86, 165, 90, 90, 165, 3, 6.78965
31, 2, bw, attraction, a-b-da, 9, 2, 2, 2, 157, 86, 165, 90, 90, 165, 2, 0.706882
31, 2, bw, filler, NA, 999, 999, 2, 3, 158, 73, 64, 63, 136, 105, 3, 1.89191
31, 2, bw, filler, NA, 999, 999, 2, 3, 158, 73, 64, 63, 136, 105, 2, 0.758625
31, 2, bw, attraction, a-b-db, 14, 1, 2, 4, 60, 135, 56, 125, 135, 60, 1, 1.92576
31, 2, bw, attraction, a-b-db, 14, 1, 2, 4, 60, 135, 56, 125, 135, 60, 2, 0.782977
31, 2, bw, filler, NA, 999, 999, 2, 5, 83, 80, 188, 134, 117, 189, 3, 1.3253
31, 2, bw, filler, NA, 999, 999, 2, 5, 83, 80, 188, 134, 117, 189, 1, 1.79885
31, 2, bw, catch, NA, 999, 999, 2, 6, 151, 164, 127, 128, 113, 82, 1, 3.10038
31, 2, bw, catch, NA, 999, 999, 2, 6, 151, 164, 127, 128, 113, 82, 3, 2.31867
31, 2, bw, attraction, a-b-da, 9, 3, 2, 7, 120, 195, 195, 120, 186, 114, 3, 2.28725
31, 2, bw, attraction, a-b-da, 9, 3, 2, 7, 120, 195, 195, 120, 186, 114, 2, 0.402491
31, 2, bw, attraction, a-b-db, 5, 3, 2, 8, 117, 190, 120, 195, 195, 120, 2, 1.46425
31, 2, bw, attraction, a-b-db, 5, 3, 2, 8, 117, 190, 120, 195, 195, 120, 3, 0.660448
31, 2, bw, filler, NA, 999, 999, 2, 9, 175, 181, 125, 163, 106, 189, 1, 0.815451
31, 2, bw, filler, NA, 999, 999, 2, 9, 175, 181, 125, 163, 106, 189, 2, 0.405952
31, 2, bw, attraction, a-b-da, 5, 2, 2, 10, 165, 90, 90, 165, 161, 88, 2, 1.29904
31, 2, bw, attraction, a-b-da, 5, 2, 2, 10, 165, 90, 90, 165, 161, 88, 3, 0.638032
31, 2, bw, attraction, a-b-da, 5, 1, 2, 11, 135, 60, 132, 58, 60, 135, 3, 1.28245
31, 2, bw, attraction, a-b-da, 5, 1, 2, 11, 135, 60, 132, 58, 60, 135, 2, 0.389966
31, 2, bw, filler, NA, 999, 999, 2, 12, 148, 184, 58, 116, 149, 172, 3, 0.715839
31, 2, bw, filler, NA, 999, 999, 2, 12, 148, 184, 58, 116, 149, 172, 2, 0.390179
31, 2, bw, filler, NA, 999, 999, 2, 13, 195, 95, 115, 86, 96, 135, 1, 2.27592
31, 2, bw, filler, NA, 999, 999, 2, 13, 195, 95, 115, 86, 96, 135, 2, 0.615184
31, 2, bw, filler, NA, 999, 999, 2, 14, 151, 70, 174, 70, 173, 115, 3, 0.956403
31, 2, bw, filler, NA, 999, 999, 2, 14, 151, 70, 174, 70, 173, 115, 1, 1.42878
31, 2, bw, filler, NA, 999, 999, 2, 15, 173, 117, 58, 182, 172, 124, 3, 0.720806
31, 2, bw, filler, NA, 999, 999, 2, 15, 173, 117, 58, 182, 172, 124, 2, 0.482588
31, 2, bw, attraction, a-b-da, 2, 2, 2, 16, 165, 90, 163, 89, 90, 165, 3, 1.38917
31, 2, bw, attraction, a-b-da, 2, 2, 2, 16, 165, 90, 163, 89, 90, 165, 2, 0.46003
31, 2, bw, attraction, a-b-db, 2, 2, 2, 17, 90, 165, 165, 90, 89, 163, 1, 0.839117
31, 2, bw, attraction, a-b-db, 2, 2, 2, 17, 90, 165, 165, 90, 89, 163, 2, 0.59607
31, 2, bw, filler, NA, 999, 999, 2, 18, 169, 144, 134, 65, 80, 149, 1, 0.89779
31, 2, bw, filler, NA, 999, 999, 2, 18, 169, 144, 134, 65, 80, 149, 2, 2.73287
31, 2, bw, attraction, a-b-db, 9, 2, 2, 19, 90, 165, 165, 90, 86, 157, 2, 1.47654
31, 2, bw, attraction, a-b-db, 9, 2, 2, 19, 90, 165, 165, 90, 86, 157, 3, 1.25628
31, 2, bw, attraction, a-b-da, 14, 2, 2, 20, 90, 165, 165, 90, 153, 83, 1, 2.36303
31, 2, bw, attraction, a-b-da, 14, 2, 2, 20, 90, 165, 165, 90, 153, 83, 2, 0.795008
31, 2, bw, attraction, a-b-da, 14, 3, 2, 21, 120, 195, 181, 111, 195, 120, 1, 0.872698
31, 2, bw, attraction, a-b-da, 14, 3, 2, 21, 120, 195, 181, 111, 195, 120, 2, 0.524312
31, 2, bw, attraction, a-b-db, 5, 2, 2, 22, 165, 90, 88, 161, 90, 165, 1, 1.10879
31, 2, bw, attraction, a-b-db, 5, 2, 2, 22, 165, 90, 88, 161, 90, 165, 2, 0.583125
31, 2, bw, catch, NA, 999, 999, 2, 23, 152, 163, 94, 101, 113, 142, 1, 0.877421
31, 2, bw, catch, NA, 999, 999, 2, 23, 152, 163, 94, 101, 113, 142, 2, 0.689154
31, 2, bw, attraction, a-b-da, 14, 1, 2, 24, 60, 135, 125, 56, 135, 60, 3, 1.51571
31, 2, bw, attraction, a-b-da, 14, 1, 2, 24, 60, 135, 125, 56, 135, 60, 2, 0.965826
31, 2, bw, attraction, a-b-da, 2, 3, 2, 25, 193, 119, 120, 195, 195, 120, 2, 0.620705
31, 2, bw, attraction, a-b-da, 2, 3, 2, 25, 193, 119, 120, 195, 195, 120, 1, 0.426429
31, 2, bw, attraction, a-b-da, 9, 1, 2, 26, 135, 60, 129, 57, 60, 135, 3, 1.42295
31, 2, bw, attraction, a-b-da, 9, 1, 2, 26, 135, 60, 129, 57, 60, 135, 2, 0.468418
31, 2, bw, attraction, a-b-db, 2, 1, 2, 27, 135, 60, 60, 135, 59, 134, 3, 1.79166
31, 2, bw, attraction, a-b-db, 2, 1, 2, 27, 135, 60, 60, 135, 59, 134, 2, 1.04638
31, 2, bw, attraction, a-b-db, 5, 1, 2, 28, 58, 132, 60, 135, 135, 60, 3, 3.09003
31, 2, bw, attraction, a-b-db, 5, 1, 2, 28, 58, 132, 60, 135, 135, 60, 2, 0.468219
31, 2, bw, attraction, a-b-da, 5, 3, 2, 29, 195, 120, 190, 117, 120, 195, 3, 1.21547
31, 2, bw, attraction, a-b-da, 5, 3, 2, 29, 195, 120, 190, 117, 120, 195, 2, 0.421647
31, 2, bw, attraction, a-b-db, 9, 3, 2, 30, 120, 195, 195, 120, 114, 186, 1, 2.09884
31, 2, bw, attraction, a-b-db, 9, 3, 2, 30, 120, 195, 195, 120, 114, 186, 2, 0.677507
31, 2, bw, attraction, a-b-da, 2, 1, 2, 31, 135, 60, 134, 59, 60, 135, 1, 1.14392
31, 2, bw, attraction, a-b-da, 2, 1, 2, 31, 135, 60, 134, 59, 60, 135, 3, 0.58489
31, 2, bw, filler, NA, 999, 999, 2, 32, 59, 164, 99, 158, 192, 195, 3, 0.79145
31, 2, bw, filler, NA, 999, 999, 2, 32, 59, 164, 99, 158, 192, 195, 2, 0.518256
31, 2, bw, attraction, a-b-db, 2, 3, 2, 33, 120, 195, 119, 193, 195, 120, 3, 10.8075
31, 2, bw, attraction, a-b-db, 2, 3, 2, 33, 120, 195, 119, 193, 195, 120, 1, 1.17074
31, 2, bw, attraction, a-b-db, 9, 1, 2, 34, 57, 129, 60, 135, 135, 60, 2, 5.50561
31, 2, bw, attraction, a-b-db, 9, 1, 2, 34, 57, 129, 60, 135, 135, 60, 3, 0.418509
31, 2, bw, catch, NA, 999, 999, 2, 35, 126, 129, 124, 191, 95, 100, 2, 0.439704
31, 2, bw, catch, NA, 999, 999, 2, 35, 126, 129, 124, 191, 95, 100, 3, 0.604849
31, 2, bw, attraction, a-b-db, 14, 2, 2, 36, 90, 165, 165, 90, 83, 153, 1, 0.970671
31, 2, bw, attraction, a-b-db, 14, 2, 2, 36, 90, 165, 165, 90, 83, 153, 2, 0.810248
31, 2, bw, attraction, a-b-db, 14, 3, 2, 37, 111, 181, 120, 195, 195, 120, 3, 1.85539
31, 2, bw, attraction, a-b-db, 14, 3, 2, 37, 111, 181, 120, 195, 195, 120, 2, 0.60341
31, 2, bw, attraction, a-b-da, 14, 3, 3, 1, 120, 195, 181, 111, 195, 120, 1, 1.369
31, 2, bw, attraction, a-b-da, 14, 3, 3, 1, 120, 195, 181, 111, 195, 120, 2, 0.425328
31, 2, bw, attraction, a-b-db, 9, 3, 3, 2, 114, 186, 120, 195, 195, 120, 2, 3.50989
31, 2, bw, attraction, a-b-db, 9, 3, 3, 2, 114, 186, 120, 195, 195, 120, 1, 5.76724
31, 2, bw, attraction, a-b-da, 5, 3, 3, 3, 195, 120, 190, 117, 120, 195, 3, 4.66082
31, 2, bw, attraction, a-b-da, 5, 3, 3, 3, 195, 120, 190, 117, 120, 195, 2, 1.23999
31, 2, bw, filler, NA, 999, 999, 3, 4, 137, 153, 91, 65, 74, 77, 1, 0.91558
31, 2, bw, filler, NA, 999, 999, 3, 4, 137, 153, 91, 65, 74, 77, 3, 1.06184
31, 2, bw, filler, NA, 999, 999, 3, 5, 60, 98, 167, 103, 70, 148, 2, 0.800945
31, 2, bw, filler, NA, 999, 999, 3, 5, 60, 98, 167, 103, 70, 148, 1, 0.623907
31, 2, bw, attraction, a-b-db, 5, 2, 3, 6, 90, 165, 88, 161, 165, 90, 3, 1.08429
31, 2, bw, attraction, a-b-db, 5, 2, 3, 6, 90, 165, 88, 161, 165, 90, 2, 0.479945
31, 2, bw, attraction, a-b-db, 2, 1, 3, 7, 135, 60, 59, 134, 60, 135, 1, 1.47441
31, 2, bw, attraction, a-b-db, 2, 1, 3, 7, 135, 60, 59, 134, 60, 135, 2, 0.677924
31, 2, bw, catch, NA, 999, 999, 3, 8, 73, 122, 153, 102, 170, 145, 3, 1.33621
31, 2, bw, catch, NA, 999, 999, 3, 8, 73, 122, 153, 102, 170, 145, 1, 0.641828
31, 2, bw, filler, NA, 999, 999, 3, 9, 180, 188, 181, 154, 187, 76, 2, 1.34955
31, 2, bw, filler, NA, 999, 999, 3, 9, 180, 188, 181, 154, 187, 76, 3, 1.47049
31, 2, bw, attraction, a-b-db, 14, 1, 3, 10, 135, 60, 60, 135, 56, 125, 2, 1.59326
31, 2, bw, attraction, a-b-db, 14, 1, 3, 10, 135, 60, 60, 135, 56, 125, 3, 0.536211
31, 2, bw, attraction, a-b-da, 5, 1, 3, 11, 132, 58, 135, 60, 60, 135, 3, 1.30451
31, 2, bw, attraction, a-b-da, 5, 1, 3, 11, 132, 58, 135, 60, 60, 135, 2, 0.354738
31, 2, bw, attraction, a-b-db, 5, 1, 3, 12, 60, 135, 135, 60, 58, 132, 2, 0.626693
31, 2, bw, attraction, a-b-db, 5, 1, 3, 12, 60, 135, 135, 60, 58, 132, 3, 0.376389
31, 2, bw, attraction, a-b-db, 5, 3, 3, 13, 195, 120, 120, 195, 117, 190, 1, 1.42284
31, 2, bw, attraction, a-b-db, 5, 3, 3, 13, 195, 120, 120, 195, 117, 190, 2, 0.364398
31, 2, bw, attraction, a-b-da, 9, 2, 3, 14, 90, 165, 157, 86, 165, 90, 1, 1.10748
31, 2, bw, attraction, a-b-da, 9, 2, 3, 14, 90, 165, 157, 86, 165, 90, 2, 0.573866
31, 2, bw, filler, NA, 999, 999, 3, 15, 75, 187, 173, 109, 123, 57, 2, 0.932286
31, 2, bw, filler, NA, 999, 999, 3, 15, 75, 187, 173, 109, 123, 57, 1, 0.582055
31, 2, bw, attraction, a-b-da, 9, 3, 3, 16, 186, 114, 195, 120, 120, 195, 2, 0.916412
31, 2, bw, attraction, a-b-da, 9, 3, 3, 16, 186, 114, 195, 120, 120, 195, 3, 0.382736
31, 2, bw, attraction, a-b-da, 5, 2, 3, 17, 165, 90, 161, 88, 90, 165, 1, 0.773316
31, 2, bw, attraction, a-b-da, 5, 2, 3, 17, 165, 90, 161, 88, 90, 165, 3, 0.597066
31, 2, bw, attraction, a-b-da, 14, 2, 3, 18, 165, 90, 153, 83, 90, 165, 3, 0.986725
31, 2, bw, attraction, a-b-da, 14, 2, 3, 18, 165, 90, 153, 83, 90, 165, 2, 0.354439
31, 2, bw, filler, NA, 999, 999, 3, 19, 71, 140, 186, 181, 125, 182, 2, 1.23424
31, 2, bw, filler, NA, 999, 999, 3, 19, 71, 140, 186, 181, 125, 182, 1, 0.55177
31, 2, bw, attraction, a-b-db, 14, 2, 3, 20, 165, 90, 83, 153, 90, 165, 3, 1.4075
31, 2, bw, attraction, a-b-db, 14, 2, 3, 20, 165, 90, 83, 153, 90, 165, 2, 1.2537
31, 2, bw, filler, NA, 999, 999, 3, 21, 190, 80, 111, 74, 125, 191, 3, 1.02537
31, 2, bw, filler, NA, 999, 999, 3, 21, 190, 80, 111, 74, 125, 191, 2, 0.990968
31, 2, bw, attraction, a-b-db, 14, 3, 3, 22, 111, 181, 120, 195, 195, 120, 2, 0.972595
31, 2, bw, attraction, a-b-db, 14, 3, 3, 22, 111, 181, 120, 195, 195, 120, 3, 0.532295
31, 2, bw, attraction, a-b-da, 9, 1, 3, 23, 135, 60, 60, 135, 129, 57, 2, 1.06879
31, 2, bw, attraction, a-b-da, 9, 1, 3, 23, 135, 60, 60, 135, 129, 57, 3, 0.417046
31, 2, bw, filler, NA, 999, 999, 3, 24, 105, 178, 72, 107, 167, 194, 3, 0.582161
31, 2, bw, filler, NA, 999, 999, 3, 24, 105, 178, 72, 107, 167, 194, 2, 0.381937
31, 2, bw, attraction, a-b-db, 9, 1, 3, 25, 135, 60, 57, 129, 60, 135, 1, 1.30855
31, 2, bw, attraction, a-b-db, 9, 1, 3, 25, 135, 60, 57, 129, 60, 135, 2, 0.430692
31, 2, bw, attraction, a-b-da, 14, 1, 3, 26, 60, 135, 135, 60, 125, 56, 3, 1.21117
31, 2, bw, attraction, a-b-da, 14, 1, 3, 26, 60, 135, 135, 60, 125, 56, 2, 0.60144
31, 2, bw, filler, NA, 999, 999, 3, 27, 126, 131, 153, 69, 173, 120, 3, 1.5273
31, 2, bw, filler, NA, 999, 999, 3, 27, 126, 131, 153, 69, 173, 120, 2, 0.936706
31, 2, bw, attraction, a-b-da, 2, 1, 3, 28, 60, 135, 134, 59, 135, 60, 3, 1.67305
31, 2, bw, attraction, a-b-da, 2, 1, 3, 28, 60, 135, 134, 59, 135, 60, 2, 0.572401
31, 2, bw, catch, NA, 999, 999, 3, 29, 182, 133, 100, 95, 152, 103, 1, 0.93158
31, 2, bw, catch, NA, 999, 999, 3, 29, 182, 133, 100, 95, 152, 103, 2, 0.829364
31, 2, bw, filler, NA, 999, 999, 3, 30, 116, 137, 184, 190, 117, 113, 2, 0.657658
31, 2, bw, filler, NA, 999, 999, 3, 30, 116, 137, 184, 190, 117, 113, 1, 0.438086
31, 2, bw, attraction, a-b-db, 2, 3, 3, 31, 119, 193, 195, 120, 120, 195, 3, 1.40274
31, 2, bw, attraction, a-b-db, 2, 3, 3, 31, 119, 193, 195, 120, 120, 195, 2, 0.50533
31, 2, bw, filler, NA, 999, 999, 3, 32, 135, 98, 182, 58, 80, 57, 1, 0.955037
31, 2, bw, filler, NA, 999, 999, 3, 32, 135, 98, 182, 58, 80, 57, 3, 0.627661
31, 2, bw, attraction, a-b-da, 2, 2, 3, 33, 90, 165, 163, 89, 165, 90, 1, 1.68798
31, 2, bw, attraction, a-b-da, 2, 2, 3, 33, 90, 165, 163, 89, 165, 90, 3, 0.54672
31, 2, bw, attraction, a-b-da, 2, 3, 3, 34, 120, 195, 195, 120, 193, 119, 3, 2.55444
31, 2, bw, attraction, a-b-da, 2, 3, 3, 34, 120, 195, 195, 120, 193, 119, 1, 0.698189
31, 2, bw, attraction, a-b-db, 9, 2, 3, 35, 90, 165, 165, 90, 86, 157, 1, 1.49192
31, 2, bw, attraction, a-b-db, 9, 2, 3, 35, 90, 165, 165, 90, 86, 157, 2, 0.534801
31, 2, bw, attraction, a-b-db, 2, 2, 3, 36, 90, 165, 165, 90, 89, 163, 3, 1.4232
31, 2, bw, attraction, a-b-db, 2, 2, 3, 36, 90, 165, 165, 90, 89, 163, 2, 0.572816
31, 2, bw, catch, NA, 999, 999, 3, 37, 94, 161, 121, 194, 111, 84, 2, 0.635197
31, 2, bw, catch, NA, 999, 999, 3, 37, 94, 161, 121, 194, 111, 84, 3, 0.712976
31, 2, bw, filler, NA, 999, 999, 4, 1, 183, 193, 114, 166, 189, 102, 1, 0.778015
31, 2, bw, filler, NA, 999, 999, 4, 1, 183, 193, 114, 166, 189, 102, 2, 0.665793
31, 2, bw, attraction, a-b-db, 14, 3, 4, 2, 120, 195, 195, 120, 111, 181, 2, 0.63685
31, 2, bw, attraction, a-b-db, 14, 3, 4, 2, 120, 195, 195, 120, 111, 181, 3, 0.746669
31, 2, bw, filler, NA, 999, 999, 4, 3, 132, 178, 101, 109, 108, 87, 1, 0.850297
31, 2, bw, filler, NA, 999, 999, 4, 3, 132, 178, 101, 109, 108, 87, 3, 1.64738
31, 2, bw, attraction, a-b-da, 14, 3, 4, 4, 181, 111, 195, 120, 120, 195, 3, 1.33076
31, 2, bw, attraction, a-b-da, 14, 3, 4, 4, 181, 111, 195, 120, 120, 195, 2, 0.51648
31, 2, bw, attraction, a-b-da, 9, 1, 4, 5, 60, 135, 135, 60, 129, 57, 1, 1.11753
31, 2, bw, attraction, a-b-da, 9, 1, 4, 5, 60, 135, 135, 60, 129, 57, 2, 0.647726
31, 2, bw, attraction, a-b-da, 9, 3, 4, 6, 186, 114, 120, 195, 195, 120, 3, 3.09159
31, 2, bw, attraction, a-b-da, 9, 3, 4, 6, 186, 114, 120, 195, 195, 120, 1, 1.21394
31, 2, bw, filler, NA, 999, 999, 4, 7, 101, 102, 180, 82, 125, 60, 2, 4.38676
31, 2, bw, filler, NA, 999, 999, 4, 7, 101, 102, 180, 82, 125, 60, 3, 1.80939
31, 2, bw, filler, NA, 999, 999, 4, 8, 65, 80, 84, 59, 131, 103, 3, 1.4061
31, 2, bw, filler, NA, 999, 999, 4, 8, 65, 80, 84, 59, 131, 103, 2, 1.52429
31, 2, bw, filler, NA, 999, 999, 4, 9, 150, 94, 187, 156, 113, 57, 2, 0.692354
31, 2, bw, filler, NA, 999, 999, 4, 9, 150, 94, 187, 156, 113, 57, 3, 0.735411
31, 2, bw, attraction, a-b-da, 14, 1, 4, 10, 60, 135, 125, 56, 135, 60, 1, 0.967812
31, 2, bw, attraction, a-b-da, 14, 1, 4, 10, 60, 135, 125, 56, 135, 60, 3, 0.752139
31, 2, bw, catch, NA, 999, 999, 4, 11, 126, 69, 115, 140, 162, 153, 3, 0.872013
31, 2, bw, catch, NA, 999, 999, 4, 11, 126, 69, 115, 140, 162, 153, 1, 2.17154
31, 2, bw, attraction, a-b-db, 14, 1, 4, 12, 56, 125, 135, 60, 60, 135, 3, 0.850185
31, 2, bw, attraction, a-b-db, 14, 1, 4, 12, 56, 125, 135, 60, 60, 135, 2, 0.863175
31, 2, bw, attraction, a-b-da, 2, 2, 4, 13, 90, 165, 165, 90, 163, 89, 1, 4.13018
31, 2, bw, attraction, a-b-da, 2, 2, 4, 13, 90, 165, 165, 90, 163, 89, 3, 1.083
31, 2, bw, filler, NA, 999, 999, 4, 14, 128, 85, 131, 100, 122, 164, 3, 0.765155
31, 2, bw, filler, NA, 999, 999, 4, 14, 128, 85, 131, 100, 122, 164, 1, 0.765559
31, 2, bw, filler, NA, 999, 999, 4, 15, 181, 124, 61, 149, 120, 112, 1, 0.948639
31, 2, bw, filler, NA, 999, 999, 4, 15, 181, 124, 61, 149, 120, 112, 2, 1.17362
31, 2, bw, attraction, a-b-da, 5, 2, 4, 16, 165, 90, 90, 165, 161, 88, 2, 1.98793
31, 2, bw, attraction, a-b-da, 5, 2, 4, 16, 165, 90, 90, 165, 161, 88, 1, 0.698592
31, 2, bw, attraction, a-b-da, 5, 3, 4, 17, 120, 195, 195, 120, 190, 117, 1, 1.8442
31, 2, bw, attraction, a-b-da, 5, 3, 4, 17, 120, 195, 195, 120, 190, 117, 3, 0.497095
31, 2, bw, filler, NA, 999, 999, 4, 18, 155, 87, 96, 76, 79, 83, 1, 0.866729
31, 2, bw, filler, NA, 999, 999, 4, 18, 155, 87, 96, 76, 79, 83, 3, 1.02319
31, 2, bw, attraction, a-b-db, 2, 1, 4, 19, 60, 135, 59, 134, 135, 60, 3, 1.58747
31, 2, bw, attraction, a-b-db, 2, 1, 4, 19, 60, 135, 59, 134, 135, 60, 2, 0.531018
31, 2, bw, attraction, a-b-da, 14, 2, 4, 20, 153, 83, 165, 90, 90, 165, 1, 1.29933
31, 2, bw, attraction, a-b-da, 14, 2, 4, 20, 153, 83, 165, 90, 90, 165, 3, 0.614232
31, 2, bw, attraction, a-b-db, 9, 2, 4, 21, 90, 165, 86, 157, 165, 90, 3, 2.77138
31, 2, bw, attraction, a-b-db, 9, 2, 4, 21, 90, 165, 86, 157, 165, 90, 2, 0.546478
31, 2, bw, filler, NA, 999, 999, 4, 22, 151, 145, 104, 149, 168, 186, 3, 1.31424
31, 2, bw, filler, NA, 999, 999, 4, 22, 151, 145, 104, 149, 168, 186, 2, 0.964574
31, 2, bw, attraction, a-b-da, 2, 1, 4, 23, 134, 59, 60, 135, 135, 60, 2, 1.74745
31, 2, bw, attraction, a-b-da, 2, 1, 4, 23, 134, 59, 60, 135, 135, 60, 3, 0.516211
31, 2, bw, attraction, a-b-da, 2, 3, 4, 24, 193, 119, 120, 195, 195, 120, 3, 1.86934
31, 2, bw, attraction, a-b-da, 2, 3, 4, 24, 193, 119, 120, 195, 195, 120, 2, 0.705513
31, 2, bw, attraction, a-b-db, 5, 3, 4, 25, 117, 190, 120, 195, 195, 120, 3, 2.18712
31, 2, bw, attraction, a-b-db, 5, 3, 4, 25, 117, 190, 120, 195, 195, 120, 2, 0.433725
31, 2, bw, attraction, a-b-db, 2, 3, 4, 26, 119, 193, 195, 120, 120, 195, 3, 1.00622
31, 2, bw, attraction, a-b-db, 2, 3, 4, 26, 119, 193, 195, 120, 120, 195, 2, 0.468523
31, 2, bw, attraction, a-b-da, 9, 2, 4, 27, 157, 86, 90, 165, 165, 90, 2, 1.03162
31, 2, bw, attraction, a-b-da, 9, 2, 4, 27, 157, 86, 90, 165, 165, 90, 3, 0.557243
31, 2, bw, attraction, a-b-db, 14, 2, 4, 28, 83, 153, 90, 165, 165, 90, 2, 0.868334
31, 2, bw, attraction, a-b-db, 14, 2, 4, 28, 83, 153, 90, 165, 165, 90, 3, 0.712807
31, 2, bw, attraction, a-b-db, 2, 2, 4, 29, 89, 163, 165, 90, 90, 165, 3, 0.937954
31, 2, bw, attraction, a-b-db, 2, 2, 4, 29, 89, 163, 165, 90, 90, 165, 2, 0.562879
31, 2, bw, filler, NA, 999, 999, 4, 30, 109, 67, 136, 157, 131, 96, 2, 0.86592
31, 2, bw, filler, NA, 999, 999, 4, 30, 109, 67, 136, 157, 131, 96, 1, 0.982228
31, 2, bw, catch, NA, 999, 999, 4, 31, 92, 103, 161, 94, 129, 186, 3, 0.852689
31, 2, bw, catch, NA, 999, 999, 4, 31, 92, 103, 161, 94, 129, 186, 1, 1.06556
31, 2, bw, attraction, a-b-da, 5, 1, 4, 32, 60, 135, 132, 58, 135, 60, 3, 1.13251
31, 2, bw, attraction, a-b-da, 5, 1, 4, 32, 60, 135, 132, 58, 135, 60, 2, 0.430312
31, 2, bw, attraction, a-b-db, 5, 1, 4, 33, 60, 135, 58, 132, 135, 60, 2, 1.03476
31, 2, bw, attraction, a-b-db, 5, 1, 4, 33, 60, 135, 58, 132, 135, 60, 3, 0.568408
31, 2, bw, attraction, a-b-db, 5, 2, 4, 34, 90, 165, 88, 161, 165, 90, 3, 1.07148
31, 2, bw, attraction, a-b-db, 5, 2, 4, 34, 90, 165, 88, 161, 165, 90, 2, 0.595143
31, 2, bw, attraction, a-b-db, 9, 3, 4, 35, 195, 120, 120, 195, 114, 186, 1, 5.6248
31, 2, bw, attraction, a-b-db, 9, 3, 4, 35, 195, 120, 120, 195, 114, 186, 3, 0.565011
31, 2, bw, catch, NA, 999, 999, 4, 36, 80, 115, 148, 167, 122, 133, 2, 1.22007
31, 2, bw, catch, NA, 999, 999, 4, 36, 80, 115, 148, 167, 122, 133, 1, 0.825723
31, 2, bw, attraction, a-b-db, 9, 1, 4, 37, 57, 129, 135, 60, 60, 135, 3, 1.49404
31, 2, bw, attraction, a-b-db, 9, 1, 4, 37, 57, 129, 135, 60, 60, 135, 2, 0.536936
31, 2, bw, attraction, a-b-db, 5, 2, 5, 1, 90, 165, 88, 161, 165, 90, 3, 4.53551
31, 2, bw, attraction, a-b-db, 5, 2, 5, 1, 90, 165, 88, 161, 165, 90, 2, 0.439829
31, 2, bw, attraction, a-b-da, 9, 2, 5, 2, 165, 90, 157, 86, 90, 165, 3, 0.96366
31, 2, bw, attraction, a-b-da, 9, 2, 5, 2, 165, 90, 157, 86, 90, 165, 2, 0.355975
31, 2, bw, attraction, a-b-da, 9, 3, 5, 3, 120, 195, 186, 114, 195, 120, 3, 1.33909
31, 2, bw, attraction, a-b-da, 9, 3, 5, 3, 120, 195, 186, 114, 195, 120, 2, 0.452015
31, 2, bw, attraction, a-b-da, 9, 1, 5, 4, 129, 57, 60, 135, 135, 60, 2, 0.935868
31, 2, bw, attraction, a-b-da, 9, 1, 5, 4, 129, 57, 60, 135, 135, 60, 3, 0.47356
31, 2, bw, filler, NA, 999, 999, 5, 5, 179, 89, 62, 181, 111, 97, 1, 0.875989
31, 2, bw, filler, NA, 999, 999, 5, 5, 179, 89, 62, 181, 111, 97, 3, 0.559757
31, 2, bw, catch, NA, 999, 999, 5, 6, 115, 140, 147, 168, 68, 127, 2, 0.470878
31, 2, bw, catch, NA, 999, 999, 5, 6, 115, 140, 147, 168, 68, 127, 3, 0.674649
31, 2, bw, attraction, a-b-db, 2, 2, 5, 7, 165, 90, 90, 165, 89, 163, 3, 0.900978
31, 2, bw, attraction, a-b-db, 2, 2, 5, 7, 165, 90, 90, 165, 89, 163, 2, 0.584049
31, 2, bw, attraction, a-b-da, 14, 1, 5, 8, 135, 60, 60, 135, 125, 56, 2, 0.638476
31, 2, bw, attraction, a-b-da, 14, 1, 5, 8, 135, 60, 60, 135, 125, 56, 3, 0.811509
31, 2, bw, attraction, a-b-da, 5, 3, 5, 9, 190, 117, 120, 195, 195, 120, 2, 2.07256
31, 2, bw, attraction, a-b-da, 5, 3, 5, 9, 190, 117, 120, 195, 195, 120, 3, 0.667898
31, 2, bw, filler, NA, 999, 999, 5, 10, 146, 160, 193, 63, 60, 63, 1, 0.686992
31, 2, bw, filler, NA, 999, 999, 5, 10, 146, 160, 193, 63, 60, 63, 3, 0.458102
31, 2, bw, catch, NA, 999, 999, 5, 11, 139, 116, 122, 73, 123, 192, 3, 0.685212
31, 2, bw, catch, NA, 999, 999, 5, 11, 139, 116, 122, 73, 123, 192, 2, 0.408926
31, 2, bw, attraction, a-b-db, 5, 3, 5, 12, 117, 190, 195, 120, 120, 195, 2, 0.726063
31, 2, bw, attraction, a-b-db, 5, 3, 5, 12, 117, 190, 195, 120, 120, 195, 3, 0.359814
31, 2, bw, filler, NA, 999, 999, 5, 13, 174, 124, 63, 138, 122, 113, 1, 0.703059
31, 2, bw, filler, NA, 999, 999, 5, 13, 174, 124, 63, 138, 122, 113, 2, 1.16949
31, 2, bw, filler, NA, 999, 999, 5, 14, 127, 191, 83, 115, 173, 161, 3, 0.720251
31, 2, bw, filler, NA, 999, 999, 5, 14, 127, 191, 83, 115, 173, 161, 2, 0.522832
31, 2, bw, attraction, a-b-da, 14, 3, 5, 15, 195, 120, 181, 111, 120, 195, 3, 1.1072
31, 2, bw, attraction, a-b-da, 14, 3, 5, 15, 195, 120, 181, 111, 120, 195, 2, 0.453418
31, 2, bw, attraction, a-b-db, 9, 1, 5, 16, 60, 135, 57, 129, 135, 60, 1, 1.12134
31, 2, bw, attraction, a-b-db, 9, 1, 5, 16, 60, 135, 57, 129, 135, 60, 3, 0.466952
31, 2, bw, attraction, a-b-db, 2, 3, 5, 17, 195, 120, 120, 195, 119, 193, 2, 0.790106
31, 2, bw, attraction, a-b-db, 2, 3, 5, 17, 195, 120, 120, 195, 119, 193, 1, 0.581148
31, 2, bw, filler, NA, 999, 999, 5, 18, 182, 124, 104, 120, 58, 57, 1, 0.787503
31, 2, bw, filler, NA, 999, 999, 5, 18, 182, 124, 104, 120, 58, 57, 3, 0.522632
31, 2, bw, attraction, a-b-db, 5, 1, 5, 19, 60, 135, 135, 60, 58, 132, 2, 0.963684
31, 2, bw, attraction, a-b-db, 5, 1, 5, 19, 60, 135, 135, 60, 58, 132, 3, 0.396016
31, 2, bw, attraction, a-b-db, 9, 2, 5, 20, 165, 90, 90, 165, 86, 157, 2, 0.657804
31, 2, bw, attraction, a-b-db, 9, 2, 5, 20, 165, 90, 90, 165, 86, 157, 3, 0.622299
31, 2, bw, filler, NA, 999, 999, 5, 21, 103, 89, 81, 72, 147, 98, 3, 1.07534
31, 2, bw, filler, NA, 999, 999, 5, 21, 103, 89, 81, 72, 147, 98, 2, 0.415008
31, 2, bw, attraction, a-b-da, 5, 1, 5, 22, 60, 135, 132, 58, 135, 60, 1, 0.892099
31, 2, bw, attraction, a-b-da, 5, 1, 5, 22, 60, 135, 132, 58, 135, 60, 3, 0.71918
31, 2, bw, attraction, a-b-da, 2, 2, 5, 23, 165, 90, 163, 89, 90, 165, 3, 1.00822
31, 2, bw, attraction, a-b-da, 2, 2, 5, 23, 165, 90, 163, 89, 90, 165, 2, 0.43856
31, 2, bw, attraction, a-b-db, 9, 3, 5, 24, 120, 195, 195, 120, 114, 186, 3, 0.722989
31, 2, bw, attraction, a-b-db, 9, 3, 5, 24, 120, 195, 195, 120, 114, 186, 2, 0.500843
31, 2, bw, attraction, a-b-db, 2, 1, 5, 25, 59, 134, 60, 135, 135, 60, 2, 1.38264
31, 2, bw, attraction, a-b-db, 2, 1, 5, 25, 59, 134, 60, 135, 135, 60, 3, 0.446104
31, 2, bw, attraction, a-b-da, 14, 2, 5, 26, 165, 90, 90, 165, 153, 83, 2, 0.601829
31, 2, bw, attraction, a-b-da, 14, 2, 5, 26, 165, 90, 90, 165, 153, 83, 3, 0.608992
31, 2, bw, attraction, a-b-da, 2, 1, 5, 27, 60, 135, 134, 59, 135, 60, 3, 0.958162
31, 2, bw, attraction, a-b-da, 2, 1, 5, 27, 60, 135, 134, 59, 135, 60, 2, 0.518433
31, 2, bw, attraction, a-b-db, 14, 2, 5, 28, 90, 165, 165, 90, 83, 153, 3, 0.71951
31, 2, bw, attraction, a-b-db, 14, 2, 5, 28, 90, 165, 165, 90, 83, 153, 2, 0.641909
31, 2, bw, filler, NA, 999, 999, 5, 29, 158, 78, 145, 62, 142, 125, 3, 0.613701
31, 2, bw, filler, NA, 999, 999, 5, 29, 158, 78, 145, 62, 142, 125, 2, 1.02016
31, 2, bw, filler, NA, 999, 999, 5, 30, 165, 182, 120, 171, 110, 86, 1, 0.993135
31, 2, bw, filler, NA, 999, 999, 5, 30, 165, 182, 120, 171, 110, 86, 3, 0.744105
31, 2, bw, attraction, a-b-db, 14, 3, 5, 31, 111, 181, 195, 120, 120, 195, 3, 2.27189
31, 2, bw, attraction, a-b-db, 14, 3, 5, 31, 111, 181, 195, 120, 120, 195, 2, 0.387073
31, 2, bw, attraction, a-b-db, 14, 1, 5, 32, 135, 60, 60, 135, 56, 125, 1, 1.87353
31, 2, bw, attraction, a-b-db, 14, 1, 5, 32, 135, 60, 60, 135, 56, 125, 3, 0.741024
31, 2, bw, attraction, a-b-da, 2, 3, 5, 33, 193, 119, 120, 195, 195, 120, 2, 0.556628
31, 2, bw, attraction, a-b-da, 2, 3, 5, 33, 193, 119, 120, 195, 195, 120, 1, 0.5731
31, 2, bw, filler, NA, 999, 999, 5, 34, 176, 81, 89, 64, 89, 169, 3, 1.09155
31, 2, bw, filler, NA, 999, 999, 5, 34, 176, 81, 89, 64, 89, 169, 2, 0.566487
31, 2, bw, attraction, a-b-da, 5, 2, 5, 35, 165, 90, 161, 88, 90, 165, 3, 1.37366
31, 2, bw, attraction, a-b-da, 5, 2, 5, 35, 165, 90, 161, 88, 90, 165, 2, 0.429164
31, 2, bw, filler, NA, 999, 999, 5, 36, 147, 114, 145, 64, 110, 183, 3, 0.969729
31, 2, bw, filler, NA, 999, 999, 5, 36, 147, 114, 145, 64, 110, 183, 2, 0.481994
31, 2, bw, catch, NA, 999, 999, 5, 37, 127, 68, 172, 143, 144, 111, 2, 0.604417
31, 2, bw, catch, NA, 999, 999, 5, 37, 127, 68, 172, 143, 144, 111, 1, 0.826899
31, 2, bw, attraction, a-b-da, 5, 1, 6, 1, 60, 135, 132, 58, 135, 60, 1, 0.991171
31, 2, bw, attraction, a-b-da, 5, 1, 6, 1, 60, 135, 132, 58, 135, 60, 2, 0.374215
31, 2, bw, attraction, a-b-db, 5, 1, 6, 2, 135, 60, 58, 132, 60, 135, 2, 1.23674
31, 2, bw, attraction, a-b-db, 5, 1, 6, 2, 135, 60, 58, 132, 60, 135, 1, 0.578321
31, 2, bw, attraction, a-b-da, 2, 3, 6, 3, 193, 119, 120, 195, 195, 120, 2, 0.976774
31, 2, bw, attraction, a-b-da, 2, 3, 6, 3, 193, 119, 120, 195, 195, 120, 3, 0.832585
31, 2, bw, attraction, a-b-db, 14, 2, 6, 4, 83, 153, 90, 165, 165, 90, 2, 0.772722
31, 2, bw, attraction, a-b-db, 14, 2, 6, 4, 83, 153, 90, 165, 165, 90, 3, 0.516456
31, 2, bw, attraction, a-b-da, 14, 3, 6, 5, 120, 195, 181, 111, 195, 120, 1, 1.86958
31, 2, bw, attraction, a-b-da, 14, 3, 6, 5, 120, 195, 181, 111, 195, 120, 2, 0.449582
31, 2, bw, attraction, a-b-db, 9, 2, 6, 6, 86, 157, 90, 165, 165, 90, 3, 1.0774
31, 2, bw, attraction, a-b-db, 9, 2, 6, 6, 86, 157, 90, 165, 165, 90, 2, 0.336998
31, 2, bw, filler, NA, 999, 999, 6, 7, 165, 112, 91, 70, 195, 96, 3, 1.07361
31, 2, bw, filler, NA, 999, 999, 6, 7, 165, 112, 91, 70, 195, 96, 2, 0.421184
31, 2, bw, attraction, a-b-db, 14, 1, 6, 8, 60, 135, 135, 60, 56, 125, 2, 1.02627
31, 2, bw, attraction, a-b-db, 14, 1, 6, 8, 60, 135, 135, 60, 56, 125, 3, 0.304079
31, 2, bw, attraction, a-b-db, 14, 3, 6, 9, 111, 181, 120, 195, 195, 120, 2, 0.561785
31, 2, bw, attraction, a-b-db, 14, 3, 6, 9, 111, 181, 120, 195, 195, 120, 3, 0.594285
31, 2, bw, attraction, a-b-db, 2, 1, 6, 10, 60, 135, 59, 134, 135, 60, 2, 0.816112
31, 2, bw, attraction, a-b-db, 2, 1, 6, 10, 60, 135, 59, 134, 135, 60, 3, 0.710476
31, 2, bw, filler, NA, 999, 999, 6, 11, 94, 74, 70, 182, 143, 102, 3, 0.903521
31, 2, bw, filler, NA, 999, 999, 6, 11, 94, 74, 70, 182, 143, 102, 2, 0.833968
31, 2, bw, attraction, a-b-da, 14, 2, 6, 12, 153, 83, 90, 165, 165, 90, 2, 0.782238
31, 2, bw, attraction, a-b-da, 14, 2, 6, 12, 153, 83, 90, 165, 165, 90, 3, 0.509845
31, 2, bw, filler, NA, 999, 999, 6, 13, 69, 130, 97, 139, 121, 145, 2, 0.807113
31, 2, bw, filler, NA, 999, 999, 6, 13, 69, 130, 97, 139, 121, 145, 3, 0.390249
31, 2, bw, attraction, a-b-db, 9, 1, 6, 14, 135, 60, 60, 135, 57, 129, 1, 1.89118
31, 2, bw, attraction, a-b-db, 9, 1, 6, 14, 135, 60, 60, 135, 57, 129, 2, 0.405922
31, 2, bw, filler, NA, 999, 999, 6, 15, 144, 91, 63, 109, 123, 158, 3, 0.715932
31, 2, bw, filler, NA, 999, 999, 6, 15, 144, 91, 63, 109, 123, 158, 2, 0.726268
31, 2, bw, attraction, a-b-da, 2, 1, 6, 16, 60, 135, 134, 59, 135, 60, 3, 1.21457
31, 2, bw, attraction, a-b-da, 2, 1, 6, 16, 60, 135, 134, 59, 135, 60, 2, 0.572892
31, 2, bw, attraction, a-b-da, 2, 2, 6, 17, 90, 165, 163, 89, 165, 90, 3, 1.18733
31, 2, bw, attraction, a-b-da, 2, 2, 6, 17, 90, 165, 163, 89, 165, 90, 2, 0.362878
31, 2, bw, attraction, a-b-db, 9, 3, 6, 18, 120, 195, 195, 120, 114, 186, 2, 0.562061
31, 2, bw, attraction, a-b-db, 9, 3, 6, 18, 120, 195, 195, 120, 114, 186, 3, 0.34654
31, 2, bw, filler, NA, 999, 999, 6, 19, 190, 152, 144, 130, 82, 139, 1, 0.810341
31, 2, bw, filler, NA, 999, 999, 6, 19, 190, 152, 144, 130, 82, 139, 3, 0.480738
31, 2, bw, filler, NA, 999, 999, 6, 20, 89, 97, 100, 118, 167, 162, 3, 0.795169
31, 2, bw, filler, NA, 999, 999, 6, 20, 89, 97, 100, 118, 167, 162, 1, 0.394245
31, 2, bw, catch, NA, 999, 999, 6, 21, 127, 68, 181, 134, 132, 123, 2, 0.608016
31, 2, bw, catch, NA, 999, 999, 6, 21, 127, 68, 181, 134, 132, 123, 1, 0.526502
31, 2, bw, catch, NA, 999, 999, 6, 22, 142, 173, 93, 162, 132, 63, 1, 0.702984
31, 2, bw, catch, NA, 999, 999, 6, 22, 142, 173, 93, 162, 132, 63, 2, 0.44202
31, 2, bw, attraction, a-b-db, 2, 2, 6, 23, 90, 165, 165, 90, 89, 163, 3, 1.43776
31, 2, bw, attraction, a-b-db, 2, 2, 6, 23, 90, 165, 165, 90, 89, 163, 2, 0.370647
31, 2, bw, attraction, a-b-da, 9, 2, 6, 24, 90, 165, 157, 86, 165, 90, 3, 2.7538
31, 2, bw, attraction, a-b-da, 9, 2, 6, 24, 90, 165, 157, 86, 165, 90, 2, 1.37765
31, 2, bw, attraction, a-b-da, 14, 1, 6, 25, 60, 135, 135, 60, 125, 56, 3, 1.55186
31, 2, bw, attraction, a-b-da, 14, 1, 6, 25, 60, 135, 135, 60, 125, 56, 1, 0.93668
31, 2, bw, attraction, a-b-da, 5, 3, 6, 26, 120, 195, 190, 117, 195, 120, 3, 0.952988
31, 2, bw, attraction, a-b-da, 5, 3, 6, 26, 120, 195, 190, 117, 195, 120, 2, 0.393917
31, 2, bw, attraction, a-b-db, 2, 3, 6, 27, 195, 120, 120, 195, 119, 193, 1, 8.6958
31, 2, bw, attraction, a-b-db, 2, 3, 6, 27, 195, 120, 120, 195, 119, 193, 3, 1.14439
31, 2, bw, filler, NA, 999, 999, 6, 28, 65, 106, 127, 68, 88, 172, 3, 0.927964
31, 2, bw, filler, NA, 999, 999, 6, 28, 65, 106, 127, 68, 88, 172, 1, 0.689608
31, 2, bw, filler, NA, 999, 999, 6, 29, 123, 190, 137, 162, 56, 167, 1, 1.99554
31, 2, bw, filler, NA, 999, 999, 6, 29, 123, 190, 137, 162, 56, 167, 3, 0.402007
31, 2, bw, attraction, a-b-da, 9, 1, 6, 30, 60, 135, 135, 60, 129, 57, 3, 1.27186
31, 2, bw, attraction, a-b-da, 9, 1, 6, 30, 60, 135, 135, 60, 129, 57, 2, 0.33944
31, 2, bw, attraction, a-b-db, 5, 2, 6, 31, 165, 90, 90, 165, 88, 161, 1, 2.31527
31, 2, bw, attraction, a-b-db, 5, 2, 6, 31, 165, 90, 90, 165, 88, 161, 2, 0.429215
31, 2, bw, attraction, a-b-da, 9, 3, 6, 32, 186, 114, 120, 195, 195, 120, 3, 1.30559
31, 2, bw, attraction, a-b-da, 9, 3, 6, 32, 186, 114, 120, 195, 195, 120, 2, 0.347868
31, 2, bw, filler, NA, 999, 999, 6, 33, 173, 153, 137, 174, 74, 121, 1, 0.907765
31, 2, bw, filler, NA, 999, 999, 6, 33, 173, 153, 137, 174, 74, 121, 3, 0.438147
31, 2, bw, filler, NA, 999, 999, 6, 34, 171, 122, 63, 98, 127, 64, 1, 0.602599
31, 2, bw, filler, NA, 999, 999, 6, 34, 171, 122, 63, 98, 127, 64, 2, 0.649753
31, 2, bw, catch, NA, 999, 999, 6, 35, 126, 189, 71, 124, 125, 130, 3, 0.83743
31, 2, bw, catch, NA, 999, 999, 6, 35, 126, 189, 71, 124, 125, 130, 2, 0.370447
31, 2, bw, attraction, a-b-db, 5, 3, 6, 36, 195, 120, 117, 190, 120, 195, 3, 0.873539
31, 2, bw, attraction, a-b-db, 5, 3, 6, 36, 195, 120, 117, 190, 120, 195, 2, 1.22939
31, 2, bw, attraction, a-b-da, 5, 2, 6, 37, 161, 88, 90, 165, 165, 90, 2, 0.729501
31, 2, bw, attraction, a-b-da, 5, 2, 6, 37, 161, 88, 90, 165, 165, 90, 3, 0.971345
31, 2, bw, attraction, a-b-da, 14, 3, 7, 1, 181, 111, 120, 195, 195, 120, 3, 1.25022
31, 2, bw, attraction, a-b-da, 14, 3, 7, 1, 181, 111, 120, 195, 195, 120, 2, 0.49522
31, 2, bw, attraction, a-b-db, 14, 1, 7, 2, 56, 125, 60, 135, 135, 60, 2, 5.86505
31, 2, bw, attraction, a-b-db, 14, 1, 7, 2, 56, 125, 60, 135, 135, 60, 1, 1.13984
31, 2, bw, filler, NA, 999, 999, 7, 3, 149, 107, 61, 129, 183, 103, 3, 0.835333
31, 2, bw, filler, NA, 999, 999, 7, 3, 149, 107, 61, 129, 183, 103, 2, 1.193
31, 2, bw, attraction, a-b-da, 5, 3, 7, 4, 195, 120, 190, 117, 120, 195, 2, 1.19054
31, 2, bw, attraction, a-b-da, 5, 3, 7, 4, 195, 120, 190, 117, 120, 195, 1, 0.493579
31, 2, bw, attraction, a-b-db, 9, 3, 7, 5, 114, 186, 120, 195, 195, 120, 3, 0.751357
31, 2, bw, attraction, a-b-db, 9, 3, 7, 5, 114, 186, 120, 195, 195, 120, 2, 0.344428
31, 2, bw, attraction, a-b-db, 2, 2, 7, 6, 90, 165, 89, 163, 165, 90, 2, 1.18431
31, 2, bw, attraction, a-b-db, 2, 2, 7, 6, 90, 165, 89, 163, 165, 90, 3, 0.415891
31, 2, bw, attraction, a-b-da, 14, 1, 7, 7, 60, 135, 135, 60, 125, 56, 3, 0.956925
31, 2, bw, attraction, a-b-da, 14, 1, 7, 7, 60, 135, 135, 60, 125, 56, 2, 0.341332
31, 2, bw, attraction, a-b-da, 14, 2, 7, 8, 165, 90, 90, 165, 153, 83, 2, 0.573237
31, 2, bw, attraction, a-b-da, 14, 2, 7, 8, 165, 90, 90, 165, 153, 83, 3, 0.444943
31, 2, bw, attraction, a-b-db, 2, 3, 7, 9, 195, 120, 119, 193, 120, 195, 1, 1.19277
31, 2, bw, attraction, a-b-db, 2, 3, 7, 9, 195, 120, 119, 193, 120, 195, 2, 0.311799
31, 2, bw, attraction, a-b-da, 9, 3, 7, 10, 186, 114, 195, 120, 120, 195, 3, 0.713024
31, 2, bw, attraction, a-b-da, 9, 3, 7, 10, 186, 114, 195, 120, 120, 195, 2, 0.363229
31, 2, bw, catch, NA, 999, 999, 7, 11, 156, 99, 87, 108, 151, 164, 3, 0.738417
31, 2, bw, catch, NA, 999, 999, 7, 11, 156, 99, 87, 108, 151, 164, 2, 0.379574
31, 2, bw, filler, NA, 999, 999, 7, 12, 100, 97, 141, 85, 174, 97, 3, 0.722184
31, 2, bw, filler, NA, 999, 999, 7, 12, 100, 97, 141, 85, 174, 97, 1, 0.547778
31, 2, bw, attraction, a-b-da, 5, 1, 7, 13, 135, 60, 60, 135, 132, 58, 2, 0.699509
31, 2, bw, attraction, a-b-da, 5, 1, 7, 13, 135, 60, 60, 135, 132, 58, 1, 0.502605
31, 2, bw, attraction, a-b-da, 2, 1, 7, 14, 134, 59, 60, 135, 135, 60, 2, 0.520372
31, 2, bw, attraction, a-b-da, 2, 1, 7, 14, 134, 59, 60, 135, 135, 60, 3, 0.930187
31, 2, bw, filler, NA, 999, 999, 7, 15, 162, 123, 167, 163, 141, 98, 2, 0.89055
31, 2, bw, filler, NA, 999, 999, 7, 15, 162, 123, 167, 163, 141, 98, 3, 0.405568
31, 2, bw, attraction, a-b-da, 5, 2, 7, 16, 90, 165, 165, 90, 161, 88, 3, 1.08338
31, 2, bw, attraction, a-b-da, 5, 2, 7, 16, 90, 165, 165, 90, 161, 88, 2, 0.59116
31, 2, bw, filler, NA, 999, 999, 7, 17, 68, 110, 182, 116, 78, 146, 2, 0.636723
31, 2, bw, filler, NA, 999, 999, 7, 17, 68, 110, 182, 116, 78, 146, 1, 0.393888
31, 2, bw, attraction, a-b-db, 14, 3, 7, 18, 120, 195, 111, 181, 195, 120, 3, 0.727604
31, 2, bw, attraction, a-b-db, 14, 3, 7, 18, 120, 195, 111, 181, 195, 120, 2, 0.409434
31, 2, bw, attraction, a-b-db, 9, 2, 7, 19, 90, 165, 86, 157, 165, 90, 3, 0.646523
31, 2, bw, attraction, a-b-db, 9, 2, 7, 19, 90, 165, 86, 157, 165, 90, 2, 0.411672
31, 2, bw, filler, NA, 999, 999, 7, 20, 98, 182, 81, 188, 83, 105, 2, 0.632792
31, 2, bw, filler, NA, 999, 999, 7, 20, 98, 182, 81, 188, 83, 105, 3, 0.470555
31, 2, bw, filler, NA, 999, 999, 7, 21, 150, 164, 103, 163, 97, 136, 1, 1.0337
31, 2, bw, filler, NA, 999, 999, 7, 21, 150, 164, 103, 163, 97, 136, 2, 0.31954
31, 2, bw, catch, NA, 999, 999, 7, 22, 70, 125, 134, 181, 125, 130, 2, 0.832665
31, 2, bw, catch, NA, 999, 999, 7, 22, 70, 125, 134, 181, 125, 130, 1, 0.438278
31, 2, bw, attraction, a-b-da, 9, 1, 7, 23, 60, 135, 129, 57, 135, 60, 1, 1.77872
31, 2, bw, attraction, a-b-da, 9, 1, 7, 23, 60, 135, 129, 57, 135, 60, 2, 0.458099
31, 2, bw, attraction, a-b-db, 5, 3, 7, 24, 120, 195, 195, 120, 117, 190, 3, 10.5973
31, 2, bw, attraction, a-b-db, 5, 3, 7, 24, 120, 195, 195, 120, 117, 190, 2, 0.401236
31, 2, bw, attraction, a-b-da, 9, 2, 7, 25, 157, 86, 165, 90, 90, 165, 3, 0.927157
31, 2, bw, attraction, a-b-da, 9, 2, 7, 25, 157, 86, 165, 90, 90, 165, 2, 0.456744
31, 2, bw, attraction, a-b-db, 5, 1, 7, 26, 60, 135, 58, 132, 135, 60, 2, 0.883971
31, 2, bw, attraction, a-b-db, 5, 1, 7, 26, 60, 135, 58, 132, 135, 60, 3, 0.503607
31, 2, bw, filler, NA, 999, 999, 7, 27, 118, 127, 98, 189, 130, 80, 2, 1.33739
31, 2, bw, filler, NA, 999, 999, 7, 27, 118, 127, 98, 189, 130, 80, 3, 0.611089
31, 2, bw, filler, NA, 999, 999, 7, 28, 127, 148, 137, 131, 80, 120, 2, 0.992013
31, 2, bw, filler, NA, 999, 999, 7, 28, 127, 148, 137, 131, 80, 120, 3, 0.519745
31, 2, bw, attraction, a-b-db, 9, 1, 7, 29, 60, 135, 57, 129, 135, 60, 3, 0.928219
31, 2, bw, attraction, a-b-db, 9, 1, 7, 29, 60, 135, 57, 129, 135, 60, 2, 0.370156
31, 2, bw, attraction, a-b-da, 2, 3, 7, 30, 195, 120, 120, 195, 193, 119, 2, 0.793131
31, 2, bw, attraction, a-b-da, 2, 3, 7, 30, 195, 120, 120, 195, 193, 119, 3, 0.496156
31, 2, bw, attraction, a-b-db, 2, 1, 7, 31, 135, 60, 59, 134, 60, 135, 1, 1.8178
31, 2, bw, attraction, a-b-db, 2, 1, 7, 31, 135, 60, 59, 134, 60, 135, 2, 0.503899
31, 2, bw, attraction, a-b-da, 2, 2, 7, 32, 90, 165, 163, 89, 165, 90, 3, 1.65775
31, 2, bw, attraction, a-b-da, 2, 2, 7, 32, 90, 165, 163, 89, 165, 90, 2, 0.365837
31, 2, bw, attraction, a-b-db, 14, 2, 7, 33, 90, 165, 83, 153, 165, 90, 3, 1.16494
31, 2, bw, attraction, a-b-db, 14, 2, 7, 33, 90, 165, 83, 153, 165, 90, 2, 0.453223
31, 2, bw, attraction, a-b-db, 5, 2, 7, 34, 165, 90, 90, 165, 88, 161, 1, 0.921166
31, 2, bw, attraction, a-b-db, 5, 2, 7, 34, 165, 90, 90, 165, 88, 161, 2, 0.426758
31, 2, bw, filler, NA, 999, 999, 7, 35, 167, 98, 64, 150, 144, 74, 1, 1.07913
31, 2, bw, filler, NA, 999, 999, 7, 35, 167, 98, 64, 150, 144, 74, 2, 0.474866
31, 2, bw, catch, NA, 999, 999, 7, 36, 192, 123, 152, 103, 61, 134, 1, 0.621302
31, 2, bw, catch, NA, 999, 999, 7, 36, 192, 123, 152, 103, 61, 134, 3, 0.723118
31, 2, bw, filler, NA, 999, 999, 7, 37, 102, 90, 182, 79, 155, 133, 3, 0.731556
31, 2, bw, filler, NA, 999, 999, 7, 37, 102, 90, 182, 79, 155, 133, 1, 0.837302
31, 2, bw, filler, NA, 999, 999, 8, 1, 140, 138, 124, 59, 178, 100, 1, 0.809577
31, 2, bw, filler, NA, 999, 999, 8, 1, 140, 138, 124, 59, 178, 100, 2, 0.744085
31, 2, bw, filler, NA, 999, 999, 8, 2, 91, 111, 68, 187, 58, 103, 2, 0.607688
31, 2, bw, filler, NA, 999, 999, 8, 2, 91, 111, 68, 187, 58, 103, 3, 0.558119
31, 2, bw, filler, NA, 999, 999, 8, 3, 88, 105, 106, 139, 158, 63, 2, 0.941272
31, 2, bw, filler, NA, 999, 999, 8, 3, 88, 105, 106, 139, 158, 63, 1, 0.374221
31, 2, bw, catch, NA, 999, 999, 8, 4, 92, 103, 138, 177, 122, 133, 2, 0.556725
31, 2, bw, catch, NA, 999, 999, 8, 4, 92, 103, 138, 177, 122, 133, 1, 0.733129
31, 2, bw, attraction, a-b-db, 9, 1, 8, 5, 60, 135, 57, 129, 135, 60, 1, 1.27745
31, 2, bw, attraction, a-b-db, 9, 1, 8, 5, 60, 135, 57, 129, 135, 60, 2, 0.34509
31, 2, bw, filler, NA, 999, 999, 8, 6, 70, 141, 58, 180, 168, 148, 3, 1.06507
31, 2, bw, filler, NA, 999, 999, 8, 6, 70, 141, 58, 180, 168, 148, 1, 0.589372
31, 2, bw, attraction, a-b-db, 9, 2, 8, 7, 165, 90, 90, 165, 86, 157, 2, 0.842996
31, 2, bw, attraction, a-b-db, 9, 2, 8, 7, 165, 90, 90, 165, 86, 157, 3, 1.20806
31, 2, bw, attraction, a-b-db, 5, 2, 8, 8, 88, 161, 90, 165, 165, 90, 2, 1.30105
31, 2, bw, attraction, a-b-db, 5, 2, 8, 8, 88, 161, 90, 165, 165, 90, 1, 0.759856
31, 2, bw, attraction, a-b-db, 9, 3, 8, 9, 114, 186, 120, 195, 195, 120, 2, 0.56696
31, 2, bw, attraction, a-b-db, 9, 3, 8, 9, 114, 186, 120, 195, 195, 120, 1, 2.27139
31, 2, bw, attraction, a-b-da, 5, 1, 8, 10, 132, 58, 60, 135, 135, 60, 2, 1.61795
31, 2, bw, attraction, a-b-da, 5, 1, 8, 10, 132, 58, 60, 135, 135, 60, 1, 0.77601
31, 2, bw, filler, NA, 999, 999, 8, 11, 125, 114, 118, 95, 61, 71, 1, 0.926405
31, 2, bw, filler, NA, 999, 999, 8, 11, 125, 114, 118, 95, 61, 71, 3, 0.61609
31, 2, bw, attraction, a-b-da, 14, 3, 8, 12, 195, 120, 120, 195, 181, 111, 2, 0.701127
31, 2, bw, attraction, a-b-da, 14, 3, 8, 12, 195, 120, 120, 195, 181, 111, 3, 0.43224
31, 2, bw, attraction, a-b-da, 9, 3, 8, 13, 120, 195, 195, 120, 186, 114, 1, 0.924667
31, 2, bw, attraction, a-b-da, 9, 3, 8, 13, 120, 195, 195, 120, 186, 114, 2, 0.798375
31, 2, bw, catch, NA, 999, 999, 8, 14, 104, 151, 143, 172, 123, 72, 2, 0.644111
31, 2, bw, catch, NA, 999, 999, 8, 14, 104, 151, 143, 172, 123, 72, 3, 0.841246
31, 2, bw, attraction, a-b-da, 5, 2, 8, 15, 165, 90, 90, 165, 161, 88, 2, 1.01288
31, 2, bw, attraction, a-b-da, 5, 2, 8, 15, 165, 90, 90, 165, 161, 88, 1, 0.803189
31, 2, bw, filler, NA, 999, 999, 8, 16, 71, 161, 114, 118, 69, 65, 2, 0.992938
31, 2, bw, filler, NA, 999, 999, 8, 16, 71, 161, 114, 118, 69, 65, 3, 0.863901
31, 2, bw, attraction, a-b-da, 2, 1, 8, 17, 60, 135, 134, 59, 135, 60, 1, 2.43489
31, 2, bw, attraction, a-b-da, 2, 1, 8, 17, 60, 135, 134, 59, 135, 60, 2, 1.60808
31, 2, bw, attraction, a-b-db, 14, 1, 8, 18, 56, 125, 135, 60, 60, 135, 3, 1.11688
31, 2, bw, attraction, a-b-db, 14, 1, 8, 18, 56, 125, 135, 60, 60, 135, 2, 0.439221
31, 2, bw, attraction, a-b-da, 2, 2, 8, 19, 90, 165, 163, 89, 165, 90, 1, 0.979702
31, 2, bw, attraction, a-b-da, 2, 2, 8, 19, 90, 165, 163, 89, 165, 90, 2, 1.18743
31, 2, bw, filler, NA, 999, 999, 8, 20, 132, 192, 104, 74, 74, 129, 1, 0.665617
31, 2, bw, filler, NA, 999, 999, 8, 20, 132, 192, 104, 74, 74, 129, 2, 0.40595
31, 2, bw, attraction, a-b-da, 14, 1, 8, 21, 60, 135, 125, 56, 135, 60, 1, 1.63583
31, 2, bw, attraction, a-b-da, 14, 1, 8, 21, 60, 135, 125, 56, 135, 60, 2, 0.561311
31, 2, bw, attraction, a-b-db, 14, 2, 8, 22, 83, 153, 90, 165, 165, 90, 2, 1.12835
31, 2, bw, attraction, a-b-db, 14, 2, 8, 22, 83, 153, 90, 165, 165, 90, 3, 0.445483
31, 2, bw, attraction, a-b-db, 5, 1, 8, 23, 60, 135, 135, 60, 58, 132, 1, 0.781789
31, 2, bw, attraction, a-b-db, 5, 1, 8, 23, 60, 135, 135, 60, 58, 132, 3, 0.949581
31, 2, bw, attraction, a-b-db, 2, 3, 8, 24, 195, 120, 120, 195, 119, 193, 1, 4.69332
31, 2, bw, attraction, a-b-db, 2, 3, 8, 24, 195, 120, 120, 195, 119, 193, 2, 0.671019
31, 2, bw, catch, NA, 999, 999, 8, 25, 100, 155, 63, 132, 188, 127, 3, 0.866116
31, 2, bw, catch, NA, 999, 999, 8, 25, 100, 155, 63, 132, 188, 127, 2, 0.582539
31, 2, bw, filler, NA, 999, 999, 8, 26, 142, 57, 83, 72, 174, 129, 3, 1.18089
31, 2, bw, filler, NA, 999, 999, 8, 26, 142, 57, 83, 72, 174, 129, 2, 0.452477
31, 2, bw, attraction, a-b-db, 2, 2, 8, 27, 90, 165, 165, 90, 89, 163, 2, 1.01637
31, 2, bw, attraction, a-b-db, 2, 2, 8, 27, 90, 165, 165, 90, 89, 163, 3, 0.69466
31, 2, bw, attraction, a-b-db, 2, 1, 8, 28, 59, 134, 135, 60, 60, 135, 3, 1.38426
31, 2, bw, attraction, a-b-db, 2, 1, 8, 28, 59, 134, 135, 60, 60, 135, 2, 0.431955
31, 2, bw, attraction, a-b-db, 14, 3, 8, 29, 120, 195, 111, 181, 195, 120, 1, 1.16434
31, 2, bw, attraction, a-b-db, 14, 3, 8, 29, 120, 195, 111, 181, 195, 120, 2, 0.788643
31, 2, bw, attraction, a-b-db, 5, 3, 8, 30, 195, 120, 117, 190, 120, 195, 3, 1.94699
31, 2, bw, attraction, a-b-db, 5, 3, 8, 30, 195, 120, 117, 190, 120, 195, 2, 0.763828
31, 2, bw, attraction, a-b-da, 9, 2, 8, 31, 165, 90, 157, 86, 90, 165, 1, 2.49872
31, 2, bw, attraction, a-b-da, 9, 2, 8, 31, 165, 90, 157, 86, 90, 165, 2, 0.653288
31, 2, bw, attraction, a-b-da, 2, 3, 8, 32, 195, 120, 120, 195, 193, 119, 2, 2.73701
31, 2, bw, attraction, a-b-da, 2, 3, 8, 32, 195, 120, 120, 195, 193, 119, 3, 0.890154
31, 2, bw, filler, NA, 999, 999, 8, 33, 134, 120, 99, 75, 106, 166, 3, 1.58794
31, 2, bw, filler, NA, 999, 999, 8, 33, 134, 120, 99, 75, 106, 166, 2, 0.434635
31, 2, bw, attraction, a-b-da, 14, 2, 8, 34, 165, 90, 90, 165, 153, 83, 2, 0.959055
31, 2, bw, attraction, a-b-da, 14, 2, 8, 34, 165, 90, 90, 165, 153, 83, 3, 1.51144
31, 2, bw, attraction, a-b-da, 9, 1, 8, 35, 129, 57, 60, 135, 135, 60, 2, 1.34426
31, 2, bw, attraction, a-b-da, 9, 1, 8, 35, 129, 57, 60, 135, 135, 60, 1, 4.70515
31, 2, bw, attraction, a-b-da, 5, 3, 8, 36, 190, 117, 120, 195, 195, 120, 2, 1.24954
31, 2, bw, attraction, a-b-da, 5, 3, 8, 36, 190, 117, 120, 195, 195, 120, 1, 1.79853
31, 2, bw, filler, NA, 999, 999, 8, 37, 110, 63, 149, 134, 181, 131, 3, 1.28382
31, 2, bw, filler, NA, 999, 999, 8, 37, 110, 63, 149, 134, 181, 131, 1, 0.767475
