sub_n, computer_n, bw_cond, effect, set, distance, diag, block_n, trial_n, h1, w1, h2, w2, h3, w3, choice, rt 
333, 2, bw, practice, NA, 999, 999, 0, 1, 93, 154, 135, 179, 99, 130, 2, 4.18443
333, 2, bw, practice, NA, 999, 999, 0, 1, 93, 154, 135, 179, 99, 130, 3, 2.29529
333, 2, bw, practice, NA, 999, 999, 0, 2, 160, 128, 194, 76, 127, 94, 1, 2.9248
333, 2, bw, practice, NA, 999, 999, 0, 2, 160, 128, 194, 76, 127, 94, 3, 2.27244
333, 2, bw, practice, NA, 999, 999, 0, 3, 66, 135, 62, 114, 116, 182, 3, 1.91036
333, 2, bw, practice, NA, 999, 999, 0, 3, 66, 135, 62, 114, 116, 182, 2, 1.38604
333, 2, bw, filler, NA, 999, 999, 1, 1, 129, 136, 170, 154, 187, 138, 3, 7.54978
333, 2, bw, filler, NA, 999, 999, 1, 1, 129, 136, 170, 154, 187, 138, 1, 1.30869
333, 2, bw, attraction, a-b-db, 14, 1, 1, 2, 135, 60, 56, 125, 60, 135, 3, 6.54958
333, 2, bw, attraction, a-b-db, 14, 1, 1, 2, 135, 60, 56, 125, 60, 135, 2, 0.628818
333, 2, bw, filler, NA, 999, 999, 1, 3, 96, 104, 103, 59, 63, 122, 1, 4.37718
333, 2, bw, filler, NA, 999, 999, 1, 3, 96, 104, 103, 59, 63, 122, 2, 0.599783
333, 2, bw, attraction, a-b-db, 14, 2, 1, 4, 165, 90, 83, 153, 90, 165, 1, 4.14963
333, 2, bw, attraction, a-b-db, 14, 2, 1, 4, 165, 90, 83, 153, 90, 165, 2, 0.485563
333, 2, bw, filler, NA, 999, 999, 1, 5, 176, 153, 166, 141, 100, 105, 1, 1.54411
333, 2, bw, filler, NA, 999, 999, 1, 5, 176, 153, 166, 141, 100, 105, 3, 0.968941
333, 2, bw, attraction, a-b-db, 2, 2, 1, 6, 165, 90, 90, 165, 89, 163, 3, 9.5999
333, 2, bw, attraction, a-b-db, 2, 2, 1, 6, 165, 90, 90, 165, 89, 163, 2, 1.19616
333, 2, bw, filler, NA, 999, 999, 1, 7, 111, 165, 167, 174, 159, 80, 2, 1.26572
333, 2, bw, filler, NA, 999, 999, 1, 7, 111, 165, 167, 174, 159, 80, 3, 0.86193
333, 2, bw, attraction, a-b-db, 5, 3, 1, 8, 120, 195, 117, 190, 195, 120, 1, 3.70499
333, 2, bw, attraction, a-b-db, 5, 3, 1, 8, 120, 195, 117, 190, 195, 120, 2, 2.71451
333, 2, bw, attraction, a-b-da, 2, 1, 1, 9, 60, 135, 135, 60, 134, 59, 2, 4.13898
333, 2, bw, attraction, a-b-da, 2, 1, 1, 9, 60, 135, 135, 60, 134, 59, 1, 1.10686
333, 2, bw, filler, NA, 999, 999, 1, 10, 94, 66, 146, 194, 148, 150, 2, 1.82801
333, 2, bw, filler, NA, 999, 999, 1, 10, 94, 66, 146, 194, 148, 150, 1, 0.87327
333, 2, bw, attraction, a-b-db, 9, 3, 1, 11, 120, 195, 195, 120, 114, 186, 2, 3.01957
333, 2, bw, attraction, a-b-db, 9, 3, 1, 11, 120, 195, 195, 120, 114, 186, 3, 1.32941
333, 2, bw, attraction, a-b-da, 9, 2, 1, 12, 165, 90, 90, 165, 157, 86, 1, 3.0095
333, 2, bw, attraction, a-b-da, 9, 2, 1, 12, 165, 90, 90, 165, 157, 86, 3, 1.07108
333, 2, bw, filler, NA, 999, 999, 1, 13, 98, 64, 112, 67, 142, 118, 3, 2.52204
333, 2, bw, filler, NA, 999, 999, 1, 13, 98, 64, 112, 67, 142, 118, 1, 0.899223
333, 2, bw, attraction, a-b-da, 9, 3, 1, 14, 195, 120, 186, 114, 120, 195, 3, 4.65293
333, 2, bw, attraction, a-b-da, 9, 3, 1, 14, 195, 120, 186, 114, 120, 195, 2, 1.33679
333, 2, bw, catch, NA, 999, 999, 1, 15, 143, 172, 101, 154, 118, 77, 1, 1.48893
333, 2, bw, catch, NA, 999, 999, 1, 15, 143, 172, 101, 154, 118, 77, 3, 0.739828
333, 2, bw, attraction, a-b-da, 5, 1, 1, 16, 132, 58, 135, 60, 60, 135, 3, 6.63624
333, 2, bw, attraction, a-b-da, 5, 1, 1, 16, 132, 58, 135, 60, 60, 135, 1, 1.60021
333, 2, bw, attraction, a-b-db, 5, 2, 1, 17, 88, 161, 165, 90, 90, 165, 2, 3.26954
333, 2, bw, attraction, a-b-db, 5, 2, 1, 17, 88, 161, 165, 90, 90, 165, 1, 3.35315
333, 2, bw, attraction, a-b-da, 14, 2, 1, 18, 153, 83, 90, 165, 165, 90, 3, 7.31207
333, 2, bw, attraction, a-b-da, 14, 2, 1, 18, 153, 83, 90, 165, 165, 90, 1, 0.944413
333, 2, bw, attraction, a-b-db, 9, 2, 1, 19, 165, 90, 86, 157, 90, 165, 1, 6.31199
333, 2, bw, attraction, a-b-db, 9, 2, 1, 19, 165, 90, 86, 157, 90, 165, 2, 2.15272
333, 2, bw, attraction, a-b-db, 5, 1, 1, 20, 60, 135, 58, 132, 135, 60, 3, 5.84807
333, 2, bw, attraction, a-b-db, 5, 1, 1, 20, 60, 135, 58, 132, 135, 60, 2, 1.0754
333, 2, bw, attraction, a-b-da, 5, 2, 1, 21, 165, 90, 90, 165, 161, 88, 1, 5.62974
333, 2, bw, attraction, a-b-da, 5, 2, 1, 21, 165, 90, 90, 165, 161, 88, 3, 1.07397
333, 2, bw, attraction, a-b-da, 2, 2, 1, 22, 163, 89, 165, 90, 90, 165, 3, 2.98821
333, 2, bw, attraction, a-b-da, 2, 2, 1, 22, 163, 89, 165, 90, 90, 165, 2, 1.81059
333, 2, bw, attraction, a-b-da, 14, 3, 1, 23, 181, 111, 195, 120, 120, 195, 2, 5.14329
333, 2, bw, attraction, a-b-da, 14, 3, 1, 23, 181, 111, 195, 120, 120, 195, 1, 0.558985
333, 2, bw, filler, NA, 999, 999, 1, 24, 89, 165, 185, 91, 166, 59, 2, 1.78209
333, 2, bw, filler, NA, 999, 999, 1, 24, 89, 165, 185, 91, 166, 59, 3, 0.941521
333, 2, bw, attraction, a-b-db, 2, 1, 1, 25, 60, 135, 135, 60, 59, 134, 1, 11.2131
333, 2, bw, attraction, a-b-db, 2, 1, 1, 25, 60, 135, 135, 60, 59, 134, 3, 0.904349
333, 2, bw, attraction, a-b-da, 5, 3, 1, 26, 120, 195, 190, 117, 195, 120, 1, 12.2819
333, 2, bw, attraction, a-b-da, 5, 3, 1, 26, 120, 195, 190, 117, 195, 120, 2, 1.61013
333, 2, bw, attraction, a-b-da, 14, 1, 1, 27, 125, 56, 135, 60, 60, 135, 3, 3.69475
333, 2, bw, attraction, a-b-da, 14, 1, 1, 27, 125, 56, 135, 60, 60, 135, 1, 1.28899
333, 2, bw, attraction, a-b-db, 9, 1, 1, 28, 57, 129, 135, 60, 60, 135, 3, 2.01125
333, 2, bw, attraction, a-b-db, 9, 1, 1, 28, 57, 129, 135, 60, 60, 135, 1, 1.41727
333, 2, bw, catch, NA, 999, 999, 1, 29, 102, 153, 138, 177, 100, 95, 2, 2.10202
333, 2, bw, catch, NA, 999, 999, 1, 29, 102, 153, 138, 177, 100, 95, 3, 0.752747
333, 2, bw, attraction, a-b-db, 2, 3, 1, 30, 120, 195, 195, 120, 119, 193, 2, 15.7044
333, 2, bw, attraction, a-b-db, 2, 3, 1, 30, 120, 195, 195, 120, 119, 193, 3, 1.59883
333, 2, bw, filler, NA, 999, 999, 1, 31, 101, 104, 157, 145, 93, 88, 2, 1.84423
333, 2, bw, filler, NA, 999, 999, 1, 31, 101, 104, 157, 145, 93, 88, 3, 0.77694
333, 2, bw, attraction, a-b-da, 2, 3, 1, 32, 195, 120, 193, 119, 120, 195, 3, 13.4635
333, 2, bw, attraction, a-b-da, 2, 3, 1, 32, 195, 120, 193, 119, 120, 195, 1, 0.82382
333, 2, bw, attraction, a-b-db, 14, 3, 1, 33, 111, 181, 120, 195, 195, 120, 2, 4.42824
333, 2, bw, attraction, a-b-db, 14, 3, 1, 33, 111, 181, 120, 195, 195, 120, 1, 0.544822
333, 2, bw, filler, NA, 999, 999, 1, 34, 193, 141, 58, 117, 59, 121, 1, 1.64841
333, 2, bw, filler, NA, 999, 999, 1, 34, 193, 141, 58, 117, 59, 121, 2, 5.2293
333, 2, bw, catch, NA, 999, 999, 1, 35, 128, 187, 157, 98, 133, 62, 1, 1.8244
333, 2, bw, catch, NA, 999, 999, 1, 35, 128, 187, 157, 98, 133, 62, 3, 1.71776
333, 2, bw, attraction, a-b-da, 9, 1, 1, 36, 60, 135, 129, 57, 135, 60, 3, 4.55045
333, 2, bw, attraction, a-b-da, 9, 1, 1, 36, 60, 135, 129, 57, 135, 60, 2, 0.958465
333, 2, bw, filler, NA, 999, 999, 1, 37, 165, 154, 88, 95, 67, 130, 1, 1.01322
333, 2, bw, filler, NA, 999, 999, 1, 37, 165, 154, 88, 95, 67, 130, 3, 6.1796
333, 2, bw, attraction, a-b-db, 14, 1, 2, 1, 56, 125, 135, 60, 60, 135, 3, 5.57629
333, 2, bw, attraction, a-b-db, 14, 1, 2, 1, 56, 125, 135, 60, 60, 135, 1, 0.590524
333, 2, bw, attraction, a-b-db, 9, 3, 2, 2, 195, 120, 120, 195, 114, 186, 1, 8.33227
333, 2, bw, attraction, a-b-db, 9, 3, 2, 2, 195, 120, 120, 195, 114, 186, 3, 0.563564
333, 2, bw, filler, NA, 999, 999, 2, 3, 166, 123, 171, 179, 167, 77, 2, 1.47466
333, 2, bw, filler, NA, 999, 999, 2, 3, 166, 123, 171, 179, 167, 77, 3, 0.742285
333, 2, bw, attraction, a-b-da, 5, 3, 2, 4, 120, 195, 195, 120, 190, 117, 2, 5.18996
333, 2, bw, attraction, a-b-da, 5, 3, 2, 4, 120, 195, 195, 120, 190, 117, 3, 0.675686
333, 2, bw, filler, NA, 999, 999, 2, 5, 70, 162, 174, 89, 121, 68, 2, 1.79803
333, 2, bw, filler, NA, 999, 999, 2, 5, 70, 162, 174, 89, 121, 68, 3, 0.596813
333, 2, bw, attraction, a-b-da, 9, 1, 2, 6, 129, 57, 135, 60, 60, 135, 3, 4.76264
333, 2, bw, attraction, a-b-da, 9, 1, 2, 6, 129, 57, 135, 60, 60, 135, 1, 0.673682
333, 2, bw, attraction, a-b-da, 2, 3, 2, 7, 193, 119, 120, 195, 195, 120, 3, 3.46005
333, 2, bw, attraction, a-b-da, 2, 3, 2, 7, 193, 119, 120, 195, 195, 120, 2, 2.15162
333, 2, bw, filler, NA, 999, 999, 2, 8, 184, 134, 59, 105, 132, 176, 1, 2.45503
333, 2, bw, filler, NA, 999, 999, 2, 8, 184, 134, 59, 105, 132, 176, 2, 0.626741
333, 2, bw, filler, NA, 999, 999, 2, 9, 75, 111, 186, 138, 184, 95, 2, 1.24719
333, 2, bw, filler, NA, 999, 999, 2, 9, 75, 111, 186, 138, 184, 95, 1, 0.476186
333, 2, bw, attraction, a-b-da, 14, 2, 2, 10, 153, 83, 165, 90, 90, 165, 2, 2.61459
333, 2, bw, attraction, a-b-da, 14, 2, 2, 10, 153, 83, 165, 90, 90, 165, 1, 0.620352
333, 2, bw, attraction, a-b-db, 2, 3, 2, 11, 120, 195, 195, 120, 119, 193, 2, 7.13753
333, 2, bw, attraction, a-b-db, 2, 3, 2, 11, 120, 195, 195, 120, 119, 193, 1, 1.20931
333, 2, bw, attraction, a-b-da, 5, 1, 2, 12, 60, 135, 132, 58, 135, 60, 3, 6.48618
333, 2, bw, attraction, a-b-da, 5, 1, 2, 12, 60, 135, 132, 58, 135, 60, 2, 1.07199
333, 2, bw, attraction, a-b-da, 9, 3, 2, 13, 195, 120, 120, 195, 186, 114, 1, 8.5871
333, 2, bw, attraction, a-b-da, 9, 3, 2, 13, 195, 120, 120, 195, 186, 114, 3, 3.50424
333, 2, bw, attraction, a-b-da, 2, 2, 2, 14, 90, 165, 165, 90, 163, 89, 1, 8.65714
333, 2, bw, attraction, a-b-da, 2, 2, 2, 14, 90, 165, 165, 90, 163, 89, 2, 0.5632
333, 2, bw, attraction, a-b-da, 9, 2, 2, 15, 157, 86, 90, 165, 165, 90, 2, 2.9542
333, 2, bw, attraction, a-b-da, 9, 2, 2, 15, 157, 86, 90, 165, 165, 90, 1, 0.729834
333, 2, bw, attraction, a-b-db, 5, 3, 2, 16, 195, 120, 120, 195, 117, 190, 1, 3.77038
333, 2, bw, attraction, a-b-db, 5, 3, 2, 16, 195, 120, 120, 195, 117, 190, 3, 3.65778
333, 2, bw, filler, NA, 999, 999, 2, 17, 124, 69, 177, 172, 151, 61, 2, 1.46787
333, 2, bw, filler, NA, 999, 999, 2, 17, 124, 69, 177, 172, 151, 61, 1, 1.39199
333, 2, bw, attraction, a-b-da, 14, 1, 2, 18, 135, 60, 60, 135, 125, 56, 1, 2.66954
333, 2, bw, attraction, a-b-da, 14, 1, 2, 18, 135, 60, 60, 135, 125, 56, 3, 1.23343
333, 2, bw, attraction, a-b-db, 2, 1, 2, 19, 60, 135, 135, 60, 59, 134, 2, 1.9736
333, 2, bw, attraction, a-b-db, 2, 1, 2, 19, 60, 135, 135, 60, 59, 134, 1, 1.84493
333, 2, bw, filler, NA, 999, 999, 2, 20, 105, 135, 92, 143, 93, 162, 3, 15.1283
333, 2, bw, filler, NA, 999, 999, 2, 20, 105, 135, 92, 143, 93, 162, 2, 2.10957
333, 2, bw, attraction, a-b-db, 2, 2, 2, 21, 165, 90, 89, 163, 90, 165, 1, 7.1501
333, 2, bw, attraction, a-b-db, 2, 2, 2, 21, 165, 90, 89, 163, 90, 165, 2, 6.44522
333, 2, bw, attraction, a-b-db, 14, 3, 2, 22, 111, 181, 120, 195, 195, 120, 3, 4.81516
333, 2, bw, attraction, a-b-db, 14, 3, 2, 22, 111, 181, 120, 195, 195, 120, 1, 0.54032
333, 2, bw, catch, NA, 999, 999, 2, 23, 79, 116, 126, 129, 120, 195, 3, 1.57202
333, 2, bw, catch, NA, 999, 999, 2, 23, 79, 116, 126, 129, 120, 195, 1, 1.14751
333, 2, bw, filler, NA, 999, 999, 2, 24, 57, 155, 56, 82, 102, 143, 3, 1.63513
333, 2, bw, filler, NA, 999, 999, 2, 24, 57, 155, 56, 82, 102, 143, 2, 0.760571
333, 2, bw, attraction, a-b-db, 14, 2, 2, 25, 83, 153, 165, 90, 90, 165, 3, 8.40762
333, 2, bw, attraction, a-b-db, 14, 2, 2, 25, 83, 153, 165, 90, 90, 165, 1, 0.75559
333, 2, bw, filler, NA, 999, 999, 2, 26, 79, 120, 134, 189, 79, 64, 2, 1.0034
333, 2, bw, filler, NA, 999, 999, 2, 26, 79, 120, 134, 189, 79, 64, 3, 0.641732
333, 2, bw, catch, NA, 999, 999, 2, 27, 98, 157, 91, 104, 186, 129, 3, 1.78944
333, 2, bw, catch, NA, 999, 999, 2, 27, 98, 157, 91, 104, 186, 129, 2, 1.39618
333, 2, bw, filler, NA, 999, 999, 2, 28, 168, 103, 82, 64, 185, 63, 1, 1.3537
333, 2, bw, filler, NA, 999, 999, 2, 28, 168, 103, 82, 64, 185, 63, 2, 0.626524
333, 2, bw, catch, NA, 999, 999, 2, 29, 112, 83, 109, 146, 157, 158, 3, 1.19892
333, 2, bw, catch, NA, 999, 999, 2, 29, 112, 83, 109, 146, 157, 158, 1, 0.510014
333, 2, bw, attraction, a-b-db, 9, 1, 2, 30, 57, 129, 60, 135, 135, 60, 3, 3.31906
333, 2, bw, attraction, a-b-db, 9, 1, 2, 30, 57, 129, 60, 135, 135, 60, 1, 1.11258
333, 2, bw, attraction, a-b-db, 9, 2, 2, 31, 90, 165, 86, 157, 165, 90, 3, 9.68952
333, 2, bw, attraction, a-b-db, 9, 2, 2, 31, 90, 165, 86, 157, 165, 90, 2, 0.698471
333, 2, bw, attraction, a-b-da, 14, 3, 2, 32, 181, 111, 120, 195, 195, 120, 2, 4.74815
333, 2, bw, attraction, a-b-da, 14, 3, 2, 32, 181, 111, 120, 195, 195, 120, 1, 0.747999
333, 2, bw, attraction, a-b-da, 5, 2, 2, 33, 90, 165, 165, 90, 161, 88, 1, 9.0839
333, 2, bw, attraction, a-b-da, 5, 2, 2, 33, 90, 165, 165, 90, 161, 88, 2, 0.636866
333, 2, bw, attraction, a-b-da, 2, 1, 2, 34, 60, 135, 134, 59, 135, 60, 3, 2.23333
333, 2, bw, attraction, a-b-da, 2, 1, 2, 34, 60, 135, 134, 59, 135, 60, 2, 0.606536
333, 2, bw, attraction, a-b-db, 5, 2, 2, 35, 90, 165, 165, 90, 88, 161, 2, 21.2117
333, 2, bw, attraction, a-b-db, 5, 2, 2, 35, 90, 165, 165, 90, 88, 161, 3, 1.5316
333, 2, bw, attraction, a-b-db, 5, 1, 2, 36, 60, 135, 135, 60, 58, 132, 2, 3.46784
333, 2, bw, attraction, a-b-db, 5, 1, 2, 36, 60, 135, 135, 60, 58, 132, 3, 0.695304
333, 2, bw, filler, NA, 999, 999, 2, 37, 66, 72, 62, 96, 112, 91, 3, 1.84106
333, 2, bw, filler, NA, 999, 999, 2, 37, 66, 72, 62, 96, 112, 91, 1, 0.789857
333, 2, bw, attraction, a-b-db, 2, 1, 3, 1, 135, 60, 60, 135, 59, 134, 1, 14.8675
333, 2, bw, attraction, a-b-db, 2, 1, 3, 1, 135, 60, 60, 135, 59, 134, 2, 1.9075
333, 2, bw, attraction, a-b-db, 5, 1, 3, 2, 60, 135, 58, 132, 135, 60, 3, 10.3482
333, 2, bw, attraction, a-b-db, 5, 1, 3, 2, 60, 135, 58, 132, 135, 60, 2, 0.618199
333, 2, bw, filler, NA, 999, 999, 3, 3, 72, 82, 86, 189, 174, 137, 3, 0.927341
333, 2, bw, filler, NA, 999, 999, 3, 3, 72, 82, 86, 189, 174, 137, 1, 0.649004
333, 2, bw, filler, NA, 999, 999, 3, 4, 103, 65, 145, 101, 114, 79, 2, 0.924733
333, 2, bw, filler, NA, 999, 999, 3, 4, 103, 65, 145, 101, 114, 79, 1, 0.526406
333, 2, bw, attraction, a-b-da, 9, 2, 3, 5, 165, 90, 157, 86, 90, 165, 1, 3.87079
333, 2, bw, attraction, a-b-da, 9, 2, 3, 5, 165, 90, 157, 86, 90, 165, 2, 0.562227
333, 2, bw, attraction, a-b-da, 2, 1, 3, 6, 60, 135, 135, 60, 134, 59, 1, 5.96139
333, 2, bw, attraction, a-b-da, 2, 1, 3, 6, 60, 135, 135, 60, 134, 59, 2, 0.456185
333, 2, bw, attraction, a-b-db, 5, 2, 3, 7, 90, 165, 165, 90, 88, 161, 2, 3.5233
333, 2, bw, attraction, a-b-db, 5, 2, 3, 7, 90, 165, 165, 90, 88, 161, 3, 0.500163
333, 2, bw, attraction, a-b-da, 14, 2, 3, 8, 165, 90, 90, 165, 153, 83, 1, 8.35006
333, 2, bw, attraction, a-b-da, 14, 2, 3, 8, 165, 90, 90, 165, 153, 83, 3, 1.02868
333, 2, bw, attraction, a-b-db, 14, 1, 3, 9, 135, 60, 60, 135, 56, 125, 1, 1.60894
333, 2, bw, attraction, a-b-db, 14, 1, 3, 9, 135, 60, 60, 135, 56, 125, 3, 0.823038
333, 2, bw, filler, NA, 999, 999, 3, 10, 115, 56, 130, 183, 111, 192, 3, 1.53157
333, 2, bw, filler, NA, 999, 999, 3, 10, 115, 56, 130, 183, 111, 192, 1, 0.636931
333, 2, bw, catch, NA, 999, 999, 3, 11, 83, 112, 132, 123, 130, 185, 3, 0.953336
333, 2, bw, catch, NA, 999, 999, 3, 11, 83, 112, 132, 123, 130, 185, 1, 0.66564
333, 2, bw, catch, NA, 999, 999, 3, 12, 118, 137, 123, 192, 116, 79, 2, 1.78884
333, 2, bw, catch, NA, 999, 999, 3, 12, 118, 137, 123, 192, 116, 79, 3, 0.57948
333, 2, bw, filler, NA, 999, 999, 3, 13, 177, 137, 68, 130, 188, 68, 1, 1.64194
333, 2, bw, filler, NA, 999, 999, 3, 13, 177, 137, 68, 130, 188, 68, 2, 0.56662
333, 2, bw, filler, NA, 999, 999, 3, 14, 172, 162, 157, 125, 191, 58, 1, 1.23769
333, 2, bw, filler, NA, 999, 999, 3, 14, 172, 162, 157, 125, 191, 58, 3, 1.55481
333, 2, bw, attraction, a-b-da, 14, 3, 3, 15, 181, 111, 120, 195, 195, 120, 3, 2.43423
333, 2, bw, attraction, a-b-da, 14, 3, 3, 15, 181, 111, 120, 195, 195, 120, 1, 0.655328
333, 2, bw, attraction, a-b-da, 9, 1, 3, 16, 135, 60, 60, 135, 129, 57, 1, 10.5233
333, 2, bw, attraction, a-b-da, 9, 1, 3, 16, 135, 60, 60, 135, 129, 57, 3, 1.51441
333, 2, bw, filler, NA, 999, 999, 3, 17, 164, 172, 71, 74, 77, 66, 1, 0.699213
333, 2, bw, filler, NA, 999, 999, 3, 17, 164, 172, 71, 74, 77, 66, 3, 6.08642
333, 2, bw, attraction, a-b-da, 5, 2, 3, 18, 90, 165, 161, 88, 165, 90, 2, 6.88721
333, 2, bw, attraction, a-b-da, 5, 2, 3, 18, 90, 165, 161, 88, 165, 90, 3, 0.785001
333, 2, bw, attraction, a-b-db, 14, 2, 3, 19, 90, 165, 83, 153, 165, 90, 3, 4.68727
333, 2, bw, attraction, a-b-db, 14, 2, 3, 19, 90, 165, 83, 153, 165, 90, 2, 0.513733
333, 2, bw, attraction, a-b-da, 14, 1, 3, 20, 60, 135, 125, 56, 135, 60, 3, 5.99501
333, 2, bw, attraction, a-b-da, 14, 1, 3, 20, 60, 135, 125, 56, 135, 60, 2, 0.848339
333, 2, bw, attraction, a-b-db, 9, 3, 3, 21, 195, 120, 120, 195, 114, 186, 1, 2.716
333, 2, bw, attraction, a-b-db, 9, 3, 3, 21, 195, 120, 120, 195, 114, 186, 2, 0.645712
333, 2, bw, attraction, a-b-da, 9, 3, 3, 22, 186, 114, 195, 120, 120, 195, 2, 2.2095
333, 2, bw, attraction, a-b-da, 9, 3, 3, 22, 186, 114, 195, 120, 120, 195, 1, 0.479389
333, 2, bw, attraction, a-b-da, 2, 3, 3, 23, 195, 120, 120, 195, 193, 119, 1, 3.20992
333, 2, bw, attraction, a-b-da, 2, 3, 3, 23, 195, 120, 120, 195, 193, 119, 2, 0.551494
333, 2, bw, filler, NA, 999, 999, 3, 24, 120, 117, 75, 75, 148, 56, 1, 0.951335
333, 2, bw, filler, NA, 999, 999, 3, 24, 120, 117, 75, 75, 148, 56, 2, 0.904473
333, 2, bw, attraction, a-b-da, 5, 3, 3, 25, 190, 117, 120, 195, 195, 120, 2, 22.4102
333, 2, bw, attraction, a-b-da, 5, 3, 3, 25, 190, 117, 120, 195, 195, 120, 3, 0.64228
333, 2, bw, filler, NA, 999, 999, 3, 26, 101, 153, 149, 77, 143, 114, 3, 11.158
333, 2, bw, filler, NA, 999, 999, 3, 26, 101, 153, 149, 77, 143, 114, 2, 0.563293
333, 2, bw, catch, NA, 999, 999, 3, 27, 64, 131, 166, 149, 158, 97, 2, 1.61832
333, 2, bw, catch, NA, 999, 999, 3, 27, 64, 131, 166, 149, 158, 97, 1, 0.600474
333, 2, bw, attraction, a-b-db, 14, 3, 3, 28, 120, 195, 195, 120, 111, 181, 2, 2.13424
333, 2, bw, attraction, a-b-db, 14, 3, 3, 28, 120, 195, 195, 120, 111, 181, 3, 0.575528
333, 2, bw, attraction, a-b-db, 9, 1, 3, 29, 60, 135, 57, 129, 135, 60, 3, 4.6059
333, 2, bw, attraction, a-b-db, 9, 1, 3, 29, 60, 135, 57, 129, 135, 60, 2, 0.499177
333, 2, bw, attraction, a-b-db, 5, 3, 3, 30, 120, 195, 195, 120, 117, 190, 2, 1.28498
333, 2, bw, attraction, a-b-db, 5, 3, 3, 30, 120, 195, 195, 120, 117, 190, 3, 0.544518
333, 2, bw, attraction, a-b-db, 9, 2, 3, 31, 90, 165, 86, 157, 165, 90, 3, 2.4723
333, 2, bw, attraction, a-b-db, 9, 2, 3, 31, 90, 165, 86, 157, 165, 90, 2, 1.23551
333, 2, bw, filler, NA, 999, 999, 3, 32, 120, 133, 88, 106, 143, 167, 3, 1.06376
333, 2, bw, filler, NA, 999, 999, 3, 32, 120, 133, 88, 106, 143, 167, 2, 0.548007
333, 2, bw, attraction, a-b-db, 2, 2, 3, 33, 90, 165, 89, 163, 165, 90, 3, 12.0358
333, 2, bw, attraction, a-b-db, 2, 2, 3, 33, 90, 165, 89, 163, 165, 90, 2, 0.469932
333, 2, bw, attraction, a-b-da, 2, 2, 3, 34, 165, 90, 163, 89, 90, 165, 2, 2.29728
333, 2, bw, attraction, a-b-da, 2, 2, 3, 34, 165, 90, 163, 89, 90, 165, 1, 0.859719
333, 2, bw, attraction, a-b-da, 5, 1, 3, 35, 60, 135, 132, 58, 135, 60, 3, 3.56671
333, 2, bw, attraction, a-b-da, 5, 1, 3, 35, 60, 135, 132, 58, 135, 60, 2, 0.790207
333, 2, bw, attraction, a-b-db, 2, 3, 3, 36, 119, 193, 120, 195, 195, 120, 3, 3.71595
333, 2, bw, attraction, a-b-db, 2, 3, 3, 36, 119, 193, 120, 195, 195, 120, 1, 2.30138
333, 2, bw, filler, NA, 999, 999, 3, 37, 107, 130, 95, 60, 144, 137, 3, 0.990582
333, 2, bw, filler, NA, 999, 999, 3, 37, 107, 130, 95, 60, 144, 137, 2, 0.733693
333, 2, bw, attraction, a-b-db, 9, 2, 4, 1, 165, 90, 86, 157, 90, 165, 1, 3.21404
333, 2, bw, attraction, a-b-db, 9, 2, 4, 1, 165, 90, 86, 157, 90, 165, 2, 0.555807
333, 2, bw, attraction, a-b-db, 9, 1, 4, 2, 57, 129, 135, 60, 60, 135, 2, 1.86736
333, 2, bw, attraction, a-b-db, 9, 1, 4, 2, 57, 129, 135, 60, 60, 135, 1, 0.47941
333, 2, bw, filler, NA, 999, 999, 4, 3, 144, 96, 184, 95, 57, 76, 2, 1.48985
333, 2, bw, filler, NA, 999, 999, 4, 3, 144, 96, 184, 95, 57, 76, 3, 0.828817
333, 2, bw, attraction, a-b-db, 5, 3, 4, 4, 195, 120, 120, 195, 117, 190, 1, 6.92116
333, 2, bw, attraction, a-b-db, 5, 3, 4, 4, 195, 120, 120, 195, 117, 190, 3, 0.801597
333, 2, bw, filler, NA, 999, 999, 4, 5, 138, 190, 184, 105, 188, 160, 3, 1.2713
333, 2, bw, filler, NA, 999, 999, 4, 5, 138, 190, 184, 105, 188, 160, 2, 1.93893
333, 2, bw, attraction, a-b-db, 9, 3, 4, 6, 195, 120, 120, 195, 114, 186, 1, 6.13085
333, 2, bw, attraction, a-b-db, 9, 3, 4, 6, 195, 120, 120, 195, 114, 186, 3, 0.699048
333, 2, bw, attraction, a-b-db, 14, 1, 4, 7, 60, 135, 135, 60, 56, 125, 2, 14.8208
333, 2, bw, attraction, a-b-db, 14, 1, 4, 7, 60, 135, 135, 60, 56, 125, 3, 1.06269
333, 2, bw, filler, NA, 999, 999, 4, 8, 61, 110, 188, 166, 62, 122, 2, 0.785593
333, 2, bw, filler, NA, 999, 999, 4, 8, 61, 110, 188, 166, 62, 122, 1, 0.777395
333, 2, bw, attraction, a-b-da, 9, 1, 4, 9, 129, 57, 60, 135, 135, 60, 3, 3.75967
333, 2, bw, attraction, a-b-da, 9, 1, 4, 9, 129, 57, 60, 135, 135, 60, 1, 0.775266
333, 2, bw, attraction, a-b-da, 14, 2, 4, 10, 165, 90, 153, 83, 90, 165, 1, 1.47752
333, 2, bw, attraction, a-b-da, 14, 2, 4, 10, 165, 90, 153, 83, 90, 165, 2, 0.857011
333, 2, bw, catch, NA, 999, 999, 4, 11, 97, 158, 126, 189, 99, 96, 2, 1.72401
333, 2, bw, catch, NA, 999, 999, 4, 11, 97, 158, 126, 189, 99, 96, 3, 0.469443
333, 2, bw, filler, NA, 999, 999, 4, 12, 72, 195, 142, 156, 179, 172, 3, 0.896751
333, 2, bw, filler, NA, 999, 999, 4, 12, 72, 195, 142, 156, 179, 172, 1, 0.603658
333, 2, bw, filler, NA, 999, 999, 4, 13, 81, 194, 109, 99, 98, 102, 1, 1.6893
333, 2, bw, filler, NA, 999, 999, 4, 13, 81, 194, 109, 99, 98, 102, 3, 5.10014
333, 2, bw, attraction, a-b-da, 14, 1, 4, 14, 125, 56, 60, 135, 135, 60, 3, 12.5805
333, 2, bw, attraction, a-b-da, 14, 1, 4, 14, 125, 56, 60, 135, 135, 60, 1, 0.49657
333, 2, bw, filler, NA, 999, 999, 4, 15, 104, 87, 160, 167, 159, 121, 2, 1.21025
333, 2, bw, filler, NA, 999, 999, 4, 15, 104, 87, 160, 167, 159, 121, 1, 0.584601
333, 2, bw, attraction, a-b-da, 14, 3, 4, 16, 181, 111, 120, 195, 195, 120, 3, 1.575
333, 2, bw, attraction, a-b-da, 14, 3, 4, 16, 181, 111, 120, 195, 195, 120, 1, 0.654412
333, 2, bw, attraction, a-b-da, 9, 2, 4, 17, 165, 90, 157, 86, 90, 165, 3, 5.24232
333, 2, bw, attraction, a-b-da, 9, 2, 4, 17, 165, 90, 157, 86, 90, 165, 2, 1.43802
333, 2, bw, attraction, a-b-db, 2, 3, 4, 18, 120, 195, 195, 120, 119, 193, 2, 14.6341
333, 2, bw, attraction, a-b-db, 2, 3, 4, 18, 120, 195, 195, 120, 119, 193, 1, 1.44354
333, 2, bw, attraction, a-b-db, 5, 1, 4, 19, 58, 132, 135, 60, 60, 135, 2, 3.69493
333, 2, bw, attraction, a-b-db, 5, 1, 4, 19, 58, 132, 135, 60, 60, 135, 1, 0.609068
333, 2, bw, catch, NA, 999, 999, 4, 20, 129, 66, 140, 115, 148, 167, 3, 1.5982
333, 2, bw, catch, NA, 999, 999, 4, 20, 129, 66, 140, 115, 148, 167, 1, 0.572959
333, 2, bw, attraction, a-b-da, 5, 2, 4, 21, 165, 90, 90, 165, 161, 88, 1, 3.24341
333, 2, bw, attraction, a-b-da, 5, 2, 4, 21, 165, 90, 90, 165, 161, 88, 3, 0.935718
333, 2, bw, filler, NA, 999, 999, 4, 22, 180, 89, 106, 74, 162, 92, 1, 3.68796
333, 2, bw, filler, NA, 999, 999, 4, 22, 180, 89, 106, 74, 162, 92, 2, 0.602837
333, 2, bw, catch, NA, 999, 999, 4, 23, 162, 153, 88, 107, 132, 123, 1, 0.896653
333, 2, bw, catch, NA, 999, 999, 4, 23, 162, 153, 88, 107, 132, 123, 2, 0.579657
333, 2, bw, attraction, a-b-da, 2, 3, 4, 24, 193, 119, 195, 120, 120, 195, 2, 6.93004
333, 2, bw, attraction, a-b-da, 2, 3, 4, 24, 193, 119, 195, 120, 120, 195, 1, 0.969864
333, 2, bw, filler, NA, 999, 999, 4, 25, 138, 157, 146, 177, 57, 94, 2, 5.15288
333, 2, bw, filler, NA, 999, 999, 4, 25, 138, 157, 146, 177, 57, 94, 3, 0.672512
333, 2, bw, attraction, a-b-db, 2, 2, 4, 26, 89, 163, 165, 90, 90, 165, 2, 2.78779
333, 2, bw, attraction, a-b-db, 2, 2, 4, 26, 89, 163, 165, 90, 90, 165, 1, 0.762051
333, 2, bw, attraction, a-b-db, 2, 1, 4, 27, 60, 135, 59, 134, 135, 60, 3, 5.72106
333, 2, bw, attraction, a-b-db, 2, 1, 4, 27, 60, 135, 59, 134, 135, 60, 2, 0.537869
333, 2, bw, attraction, a-b-da, 2, 1, 4, 28, 60, 135, 134, 59, 135, 60, 3, 3.73829
333, 2, bw, attraction, a-b-da, 2, 1, 4, 28, 60, 135, 134, 59, 135, 60, 2, 1.74654
333, 2, bw, attraction, a-b-da, 5, 3, 4, 29, 120, 195, 190, 117, 195, 120, 3, 8.41785
333, 2, bw, attraction, a-b-da, 5, 3, 4, 29, 120, 195, 190, 117, 195, 120, 2, 0.614033
333, 2, bw, attraction, a-b-db, 14, 3, 4, 30, 195, 120, 120, 195, 111, 181, 1, 4.63516
333, 2, bw, attraction, a-b-db, 14, 3, 4, 30, 195, 120, 120, 195, 111, 181, 3, 0.543516
333, 2, bw, attraction, a-b-db, 5, 2, 4, 31, 88, 161, 165, 90, 90, 165, 2, 14.0233
333, 2, bw, attraction, a-b-db, 5, 2, 4, 31, 88, 161, 165, 90, 90, 165, 1, 0.977509
333, 2, bw, filler, NA, 999, 999, 4, 32, 166, 181, 134, 59, 137, 156, 1, 9.92782
333, 2, bw, filler, NA, 999, 999, 4, 32, 166, 181, 134, 59, 137, 156, 2, 0.45471
333, 2, bw, attraction, a-b-db, 14, 2, 4, 33, 165, 90, 90, 165, 83, 153, 1, 2.32243
333, 2, bw, attraction, a-b-db, 14, 2, 4, 33, 165, 90, 90, 165, 83, 153, 3, 0.547719
333, 2, bw, attraction, a-b-da, 5, 1, 4, 34, 135, 60, 132, 58, 60, 135, 3, 3.71561
333, 2, bw, attraction, a-b-da, 5, 1, 4, 34, 135, 60, 132, 58, 60, 135, 2, 1.15698
333, 2, bw, attraction, a-b-da, 9, 3, 4, 35, 186, 114, 195, 120, 120, 195, 3, 3.55604
333, 2, bw, attraction, a-b-da, 9, 3, 4, 35, 186, 114, 195, 120, 120, 195, 1, 0.859429
333, 2, bw, filler, NA, 999, 999, 4, 36, 174, 139, 175, 106, 75, 179, 1, 1.25448
333, 2, bw, filler, NA, 999, 999, 4, 36, 174, 139, 175, 106, 75, 179, 3, 0.578707
333, 2, bw, attraction, a-b-da, 2, 2, 4, 37, 90, 165, 163, 89, 165, 90, 1, 2.77729
333, 2, bw, attraction, a-b-da, 2, 2, 4, 37, 90, 165, 163, 89, 165, 90, 2, 2.4883
333, 2, bw, attraction, a-b-da, 2, 1, 5, 1, 134, 59, 60, 135, 135, 60, 3, 5.94402
333, 2, bw, attraction, a-b-da, 2, 1, 5, 1, 134, 59, 60, 135, 135, 60, 2, 0.743426
333, 2, bw, attraction, a-b-da, 14, 2, 5, 2, 165, 90, 90, 165, 153, 83, 1, 3.68723
333, 2, bw, attraction, a-b-da, 14, 2, 5, 2, 165, 90, 90, 165, 153, 83, 3, 0.737303
333, 2, bw, attraction, a-b-db, 5, 1, 5, 3, 60, 135, 135, 60, 58, 132, 2, 1.60165
333, 2, bw, attraction, a-b-db, 5, 1, 5, 3, 60, 135, 135, 60, 58, 132, 1, 0.720508
333, 2, bw, attraction, a-b-db, 2, 1, 5, 4, 60, 135, 135, 60, 59, 134, 2, 13.1935
333, 2, bw, attraction, a-b-db, 2, 1, 5, 4, 60, 135, 135, 60, 59, 134, 1, 1.13276
333, 2, bw, attraction, a-b-da, 2, 3, 5, 5, 193, 119, 120, 195, 195, 120, 1, 10.557
333, 2, bw, attraction, a-b-da, 2, 3, 5, 5, 193, 119, 120, 195, 195, 120, 3, 1.79439
333, 2, bw, filler, NA, 999, 999, 5, 6, 61, 163, 184, 73, 97, 112, 2, 30.2799
333, 2, bw, filler, NA, 999, 999, 5, 6, 61, 163, 184, 73, 97, 112, 1, 1.29106
333, 2, bw, attraction, a-b-da, 2, 2, 5, 7, 165, 90, 90, 165, 163, 89, 2, 2.31641
333, 2, bw, attraction, a-b-da, 2, 2, 5, 7, 165, 90, 90, 165, 163, 89, 3, 1.02231
333, 2, bw, attraction, a-b-db, 2, 3, 5, 8, 195, 120, 119, 193, 120, 195, 3, 5.44339
333, 2, bw, attraction, a-b-db, 2, 3, 5, 8, 195, 120, 119, 193, 120, 195, 2, 0.766862
333, 2, bw, attraction, a-b-da, 14, 1, 5, 9, 125, 56, 60, 135, 135, 60, 3, 2.43008
333, 2, bw, attraction, a-b-da, 14, 1, 5, 9, 125, 56, 60, 135, 135, 60, 1, 1.89119
333, 2, bw, attraction, a-b-db, 14, 2, 5, 10, 90, 165, 83, 153, 165, 90, 3, 1.80474
333, 2, bw, attraction, a-b-db, 14, 2, 5, 10, 90, 165, 83, 153, 165, 90, 2, 0.45871
333, 2, bw, attraction, a-b-db, 9, 1, 5, 11, 60, 135, 57, 129, 135, 60, 3, 2.18979
333, 2, bw, attraction, a-b-db, 9, 1, 5, 11, 60, 135, 57, 129, 135, 60, 2, 0.476361
333, 2, bw, attraction, a-b-db, 9, 2, 5, 12, 86, 157, 90, 165, 165, 90, 3, 5.06283
333, 2, bw, attraction, a-b-db, 9, 2, 5, 12, 86, 157, 90, 165, 165, 90, 1, 0.569823
333, 2, bw, filler, NA, 999, 999, 5, 13, 105, 99, 106, 58, 104, 123, 3, 1.48906
333, 2, bw, filler, NA, 999, 999, 5, 13, 105, 99, 106, 58, 104, 123, 2, 1.00379
333, 2, bw, filler, NA, 999, 999, 5, 14, 82, 112, 129, 136, 104, 111, 2, 0.889571
333, 2, bw, filler, NA, 999, 999, 5, 14, 82, 112, 129, 136, 104, 111, 1, 0.460476
333, 2, bw, catch, NA, 999, 999, 5, 15, 178, 137, 95, 100, 133, 122, 1, 0.695644
333, 2, bw, catch, NA, 999, 999, 5, 15, 178, 137, 95, 100, 133, 122, 2, 0.402771
333, 2, bw, filler, NA, 999, 999, 5, 16, 146, 186, 82, 130, 105, 145, 1, 0.680531
333, 2, bw, filler, NA, 999, 999, 5, 16, 146, 186, 82, 130, 105, 145, 2, 0.452252
333, 2, bw, attraction, a-b-da, 9, 1, 5, 17, 129, 57, 60, 135, 135, 60, 1, 6.47223
333, 2, bw, attraction, a-b-da, 9, 1, 5, 17, 129, 57, 60, 135, 135, 60, 2, 0.577991
333, 2, bw, attraction, a-b-da, 5, 2, 5, 18, 165, 90, 90, 165, 161, 88, 1, 3.05647
333, 2, bw, attraction, a-b-da, 5, 2, 5, 18, 165, 90, 90, 165, 161, 88, 3, 3.47618
333, 2, bw, attraction, a-b-da, 5, 3, 5, 19, 190, 117, 120, 195, 195, 120, 3, 3.01371
333, 2, bw, attraction, a-b-da, 5, 3, 5, 19, 190, 117, 120, 195, 195, 120, 1, 0.755311
333, 2, bw, filler, NA, 999, 999, 5, 20, 175, 84, 148, 195, 155, 69, 2, 1.35506
333, 2, bw, filler, NA, 999, 999, 5, 20, 175, 84, 148, 195, 155, 69, 3, 0.555265
333, 2, bw, catch, NA, 999, 999, 5, 21, 116, 79, 124, 191, 156, 99, 2, 0.955078
333, 2, bw, catch, NA, 999, 999, 5, 21, 116, 79, 124, 191, 156, 99, 1, 0.475324
333, 2, bw, attraction, a-b-db, 14, 1, 5, 22, 56, 125, 135, 60, 60, 135, 2, 2.34189
333, 2, bw, attraction, a-b-db, 14, 1, 5, 22, 56, 125, 135, 60, 60, 135, 1, 0.406439
333, 2, bw, attraction, a-b-da, 5, 1, 5, 23, 132, 58, 135, 60, 60, 135, 1, 20.6356
333, 2, bw, attraction, a-b-da, 5, 1, 5, 23, 132, 58, 135, 60, 60, 135, 3, 2.69118
333, 2, bw, attraction, a-b-db, 2, 2, 5, 24, 90, 165, 165, 90, 89, 163, 2, 18.4842
333, 2, bw, attraction, a-b-db, 2, 2, 5, 24, 90, 165, 165, 90, 89, 163, 1, 7.23439
333, 2, bw, catch, NA, 999, 999, 5, 25, 68, 127, 112, 143, 193, 122, 3, 1.10869
333, 2, bw, catch, NA, 999, 999, 5, 25, 68, 127, 112, 143, 193, 122, 1, 0.518976
333, 2, bw, attraction, a-b-db, 9, 3, 5, 26, 195, 120, 114, 186, 120, 195, 1, 2.08008
333, 2, bw, attraction, a-b-db, 9, 3, 5, 26, 195, 120, 114, 186, 120, 195, 2, 0.635399
333, 2, bw, filler, NA, 999, 999, 5, 27, 162, 158, 154, 148, 83, 141, 1, 1.60784
333, 2, bw, filler, NA, 999, 999, 5, 27, 162, 158, 154, 148, 83, 141, 3, 0.901974
333, 2, bw, filler, NA, 999, 999, 5, 28, 78, 65, 93, 111, 178, 82, 3, 1.13566
333, 2, bw, filler, NA, 999, 999, 5, 28, 78, 65, 93, 111, 178, 82, 1, 1.12128
333, 2, bw, filler, NA, 999, 999, 5, 29, 136, 118, 96, 137, 61, 117, 1, 0.978228
333, 2, bw, filler, NA, 999, 999, 5, 29, 136, 118, 96, 137, 61, 117, 3, 0.481926
333, 2, bw, filler, NA, 999, 999, 5, 30, 74, 92, 131, 162, 130, 165, 3, 1.18838
333, 2, bw, filler, NA, 999, 999, 5, 30, 74, 92, 131, 162, 130, 165, 1, 0.459375
333, 2, bw, attraction, a-b-db, 5, 2, 5, 31, 90, 165, 88, 161, 165, 90, 1, 3.64643
333, 2, bw, attraction, a-b-db, 5, 2, 5, 31, 90, 165, 88, 161, 165, 90, 3, 0.658538
333, 2, bw, attraction, a-b-db, 5, 3, 5, 32, 117, 190, 120, 195, 195, 120, 3, 1.3256
333, 2, bw, attraction, a-b-db, 5, 3, 5, 32, 117, 190, 120, 195, 195, 120, 1, 0.663189
333, 2, bw, attraction, a-b-da, 9, 2, 5, 33, 157, 86, 165, 90, 90, 165, 2, 3.13825
333, 2, bw, attraction, a-b-da, 9, 2, 5, 33, 157, 86, 165, 90, 90, 165, 1, 0.594649
333, 2, bw, attraction, a-b-da, 14, 3, 5, 34, 195, 120, 181, 111, 120, 195, 3, 4.75231
333, 2, bw, attraction, a-b-da, 14, 3, 5, 34, 195, 120, 181, 111, 120, 195, 2, 0.544199
333, 2, bw, attraction, a-b-db, 14, 3, 5, 35, 120, 195, 111, 181, 195, 120, 3, 2.47194
333, 2, bw, attraction, a-b-db, 14, 3, 5, 35, 120, 195, 111, 181, 195, 120, 2, 0.707058
333, 2, bw, attraction, a-b-da, 9, 3, 5, 36, 186, 114, 195, 120, 120, 195, 2, 1.61235
333, 2, bw, attraction, a-b-da, 9, 3, 5, 36, 186, 114, 195, 120, 120, 195, 1, 0.474408
333, 2, bw, filler, NA, 999, 999, 5, 37, 127, 81, 108, 144, 122, 94, 2, 1.83679
333, 2, bw, filler, NA, 999, 999, 5, 37, 127, 81, 108, 144, 122, 94, 1, 0.698135
333, 2, bw, filler, NA, 999, 999, 6, 1, 171, 109, 189, 154, 99, 129, 2, 1.01189
333, 2, bw, filler, NA, 999, 999, 6, 1, 171, 109, 189, 154, 99, 129, 3, 0.490197
333, 2, bw, filler, NA, 999, 999, 6, 2, 119, 127, 178, 69, 162, 160, 3, 2.2921
333, 2, bw, filler, NA, 999, 999, 6, 2, 119, 127, 178, 69, 162, 160, 2, 0.670651
333, 2, bw, attraction, a-b-da, 9, 1, 6, 3, 135, 60, 60, 135, 129, 57, 1, 3.00175
333, 2, bw, attraction, a-b-da, 9, 1, 6, 3, 135, 60, 60, 135, 129, 57, 3, 0.928142
333, 2, bw, attraction, a-b-da, 2, 2, 6, 4, 90, 165, 165, 90, 163, 89, 3, 9.44034
333, 2, bw, attraction, a-b-da, 2, 2, 6, 4, 90, 165, 165, 90, 163, 89, 1, 0.698799
333, 2, bw, filler, NA, 999, 999, 6, 5, 187, 195, 66, 162, 71, 120, 1, 1.0284
333, 2, bw, filler, NA, 999, 999, 6, 5, 187, 195, 66, 162, 71, 120, 3, 0.906056
333, 2, bw, attraction, a-b-db, 14, 2, 6, 6, 165, 90, 90, 165, 83, 153, 1, 13.8518
333, 2, bw, attraction, a-b-db, 14, 2, 6, 6, 165, 90, 90, 165, 83, 153, 3, 0.500645
333, 2, bw, filler, NA, 999, 999, 6, 7, 125, 98, 74, 89, 99, 188, 3, 1.07048
333, 2, bw, filler, NA, 999, 999, 6, 7, 125, 98, 74, 89, 99, 188, 2, 0.434156
333, 2, bw, attraction, a-b-db, 2, 1, 6, 8, 59, 134, 60, 135, 135, 60, 3, 16.5587
333, 2, bw, attraction, a-b-db, 2, 1, 6, 8, 59, 134, 60, 135, 135, 60, 2, 0.96204
333, 2, bw, attraction, a-b-db, 2, 3, 6, 9, 120, 195, 119, 193, 195, 120, 3, 6.15319
333, 2, bw, attraction, a-b-db, 2, 3, 6, 9, 120, 195, 119, 193, 195, 120, 2, 0.752433
333, 2, bw, attraction, a-b-db, 9, 3, 6, 10, 114, 186, 120, 195, 195, 120, 2, 4.8481
333, 2, bw, attraction, a-b-db, 9, 3, 6, 10, 114, 186, 120, 195, 195, 120, 1, 0.51586
333, 2, bw, catch, NA, 999, 999, 6, 11, 184, 131, 114, 81, 111, 144, 1, 1.19699
333, 2, bw, catch, NA, 999, 999, 6, 11, 184, 131, 114, 81, 111, 144, 2, 0.604028
333, 2, bw, filler, NA, 999, 999, 6, 12, 136, 155, 176, 144, 73, 59, 2, 2.55377
333, 2, bw, filler, NA, 999, 999, 6, 12, 136, 155, 176, 144, 73, 59, 3, 0.442256
333, 2, bw, catch, NA, 999, 999, 6, 13, 92, 163, 152, 163, 103, 92, 2, 1.44606
333, 2, bw, catch, NA, 999, 999, 6, 13, 92, 163, 152, 163, 103, 92, 3, 2.10701
333, 2, bw, attraction, a-b-da, 5, 1, 6, 14, 132, 58, 135, 60, 60, 135, 2, 6.62751
333, 2, bw, attraction, a-b-da, 5, 1, 6, 14, 132, 58, 135, 60, 60, 135, 1, 0.447358
333, 2, bw, filler, NA, 999, 999, 6, 15, 194, 82, 81, 129, 193, 111, 3, 1.77119
333, 2, bw, filler, NA, 999, 999, 6, 15, 194, 82, 81, 129, 193, 111, 2, 0.378643
333, 2, bw, filler, NA, 999, 999, 6, 16, 127, 104, 112, 144, 179, 128, 3, 2.7371
333, 2, bw, filler, NA, 999, 999, 6, 16, 127, 104, 112, 144, 179, 128, 1, 0.569528
333, 2, bw, attraction, a-b-da, 14, 3, 6, 17, 195, 120, 181, 111, 120, 195, 1, 0.87265
333, 2, bw, attraction, a-b-da, 14, 3, 6, 17, 195, 120, 181, 111, 120, 195, 2, 0.692424
333, 2, bw, attraction, a-b-da, 14, 1, 6, 18, 135, 60, 60, 135, 125, 56, 1, 2.25409
333, 2, bw, attraction, a-b-da, 14, 1, 6, 18, 135, 60, 60, 135, 125, 56, 3, 0.650681
333, 2, bw, filler, NA, 999, 999, 6, 19, 91, 124, 96, 89, 107, 132, 3, 1.49449
333, 2, bw, filler, NA, 999, 999, 6, 19, 91, 124, 96, 89, 107, 132, 2, 0.417265
333, 2, bw, attraction, a-b-db, 14, 3, 6, 20, 195, 120, 111, 181, 120, 195, 1, 6.61445
333, 2, bw, attraction, a-b-db, 14, 3, 6, 20, 195, 120, 111, 181, 120, 195, 2, 0.786928
333, 2, bw, attraction, a-b-da, 5, 3, 6, 21, 190, 117, 195, 120, 120, 195, 2, 1.66536
333, 2, bw, attraction, a-b-da, 5, 3, 6, 21, 190, 117, 195, 120, 120, 195, 3, 0.357542
333, 2, bw, attraction, a-b-da, 5, 2, 6, 22, 161, 88, 165, 90, 90, 165, 3, 3.56464
333, 2, bw, attraction, a-b-da, 5, 2, 6, 22, 161, 88, 165, 90, 90, 165, 2, 0.820121
333, 2, bw, attraction, a-b-db, 5, 2, 6, 23, 165, 90, 90, 165, 88, 161, 1, 1.4412
333, 2, bw, attraction, a-b-db, 5, 2, 6, 23, 165, 90, 90, 165, 88, 161, 3, 0.990048
333, 2, bw, attraction, a-b-db, 2, 2, 6, 24, 89, 163, 90, 165, 165, 90, 2, 6.3557
333, 2, bw, attraction, a-b-db, 2, 2, 6, 24, 89, 163, 90, 165, 165, 90, 1, 1.52227
333, 2, bw, attraction, a-b-da, 14, 2, 6, 25, 90, 165, 165, 90, 153, 83, 2, 6.02717
333, 2, bw, attraction, a-b-da, 14, 2, 6, 25, 90, 165, 165, 90, 153, 83, 3, 1.75124
333, 2, bw, catch, NA, 999, 999, 6, 26, 135, 180, 118, 77, 105, 150, 1, 0.982509
333, 2, bw, catch, NA, 999, 999, 6, 26, 135, 180, 118, 77, 105, 150, 2, 0.622419
333, 2, bw, attraction, a-b-db, 5, 1, 6, 27, 135, 60, 60, 135, 58, 132, 2, 51.4354
333, 2, bw, attraction, a-b-db, 5, 1, 6, 27, 135, 60, 60, 135, 58, 132, 3, 1.03389
333, 2, bw, attraction, a-b-da, 2, 3, 6, 28, 193, 119, 195, 120, 120, 195, 2, 3.63029
333, 2, bw, attraction, a-b-da, 2, 3, 6, 28, 193, 119, 195, 120, 120, 195, 1, 0.595041
333, 2, bw, attraction, a-b-da, 9, 2, 6, 29, 90, 165, 165, 90, 157, 86, 1, 3.02491
333, 2, bw, attraction, a-b-da, 9, 2, 6, 29, 90, 165, 165, 90, 157, 86, 3, 0.773864
333, 2, bw, attraction, a-b-da, 9, 3, 6, 30, 120, 195, 195, 120, 186, 114, 2, 1.17219
333, 2, bw, attraction, a-b-da, 9, 3, 6, 30, 120, 195, 195, 120, 186, 114, 3, 2.66782
333, 2, bw, attraction, a-b-db, 5, 3, 6, 31, 120, 195, 195, 120, 117, 190, 2, 4.91824
333, 2, bw, attraction, a-b-db, 5, 3, 6, 31, 120, 195, 195, 120, 117, 190, 3, 0.559453
333, 2, bw, filler, NA, 999, 999, 6, 32, 163, 133, 177, 141, 179, 72, 2, 1.18254
333, 2, bw, filler, NA, 999, 999, 6, 32, 163, 133, 177, 141, 179, 72, 3, 0.790059
333, 2, bw, attraction, a-b-db, 9, 2, 6, 33, 86, 157, 90, 165, 165, 90, 3, 4.37988
333, 2, bw, attraction, a-b-db, 9, 2, 6, 33, 86, 157, 90, 165, 165, 90, 1, 0.570346
333, 2, bw, filler, NA, 999, 999, 6, 34, 114, 162, 192, 66, 158, 155, 3, 0.985406
333, 2, bw, filler, NA, 999, 999, 6, 34, 114, 162, 192, 66, 158, 155, 2, 3.00116
333, 2, bw, attraction, a-b-db, 14, 1, 6, 35, 56, 125, 135, 60, 60, 135, 3, 2.42207
333, 2, bw, attraction, a-b-db, 14, 1, 6, 35, 56, 125, 135, 60, 60, 135, 1, 0.539351
333, 2, bw, attraction, a-b-db, 9, 1, 6, 36, 60, 135, 135, 60, 57, 129, 2, 6.8271
333, 2, bw, attraction, a-b-db, 9, 1, 6, 36, 60, 135, 135, 60, 57, 129, 3, 0.486905
333, 2, bw, attraction, a-b-da, 2, 1, 6, 37, 135, 60, 60, 135, 134, 59, 3, 7.53744
333, 2, bw, attraction, a-b-da, 2, 1, 6, 37, 135, 60, 60, 135, 134, 59, 2, 0.529006
333, 2, bw, attraction, a-b-da, 9, 1, 7, 1, 129, 57, 135, 60, 60, 135, 3, 2.58539
333, 2, bw, attraction, a-b-da, 9, 1, 7, 1, 129, 57, 135, 60, 60, 135, 1, 0.528626
333, 2, bw, attraction, a-b-db, 2, 2, 7, 2, 165, 90, 90, 165, 89, 163, 1, 2.02506
333, 2, bw, attraction, a-b-db, 2, 2, 7, 2, 165, 90, 90, 165, 89, 163, 3, 0.60641
333, 2, bw, attraction, a-b-da, 2, 3, 7, 3, 193, 119, 195, 120, 120, 195, 1, 13.3635
333, 2, bw, attraction, a-b-da, 2, 3, 7, 3, 193, 119, 195, 120, 120, 195, 2, 1.21599
333, 2, bw, filler, NA, 999, 999, 7, 4, 99, 115, 110, 158, 83, 169, 2, 2.26885
333, 2, bw, filler, NA, 999, 999, 7, 4, 99, 115, 110, 158, 83, 169, 1, 0.696736
333, 2, bw, attraction, a-b-da, 2, 2, 7, 5, 165, 90, 163, 89, 90, 165, 3, 2.60255
333, 2, bw, attraction, a-b-da, 2, 2, 7, 5, 165, 90, 163, 89, 90, 165, 2, 1.17694
333, 2, bw, attraction, a-b-da, 14, 3, 7, 6, 181, 111, 120, 195, 195, 120, 3, 11.3273
333, 2, bw, attraction, a-b-da, 14, 3, 7, 6, 181, 111, 120, 195, 195, 120, 1, 0.493601
333, 2, bw, attraction, a-b-db, 2, 3, 7, 7, 195, 120, 119, 193, 120, 195, 1, 2.33548
333, 2, bw, attraction, a-b-db, 2, 3, 7, 7, 195, 120, 119, 193, 120, 195, 2, 0.512731
333, 2, bw, attraction, a-b-da, 14, 2, 7, 8, 153, 83, 165, 90, 90, 165, 3, 1.46599
333, 2, bw, attraction, a-b-da, 14, 2, 7, 8, 153, 83, 165, 90, 90, 165, 1, 0.558015
333, 2, bw, filler, NA, 999, 999, 7, 9, 128, 195, 119, 60, 71, 67, 1, 1.04513
333, 2, bw, filler, NA, 999, 999, 7, 9, 128, 195, 119, 60, 71, 67, 3, 0.850041
333, 2, bw, filler, NA, 999, 999, 7, 10, 56, 191, 169, 64, 56, 161, 1, 1.71776
333, 2, bw, filler, NA, 999, 999, 7, 10, 56, 191, 169, 64, 56, 161, 3, 0.831877
333, 2, bw, attraction, a-b-da, 2, 1, 7, 11, 134, 59, 135, 60, 60, 135, 1, 14.6202
333, 2, bw, attraction, a-b-da, 2, 1, 7, 11, 134, 59, 135, 60, 60, 135, 3, 4.98228
333, 2, bw, filler, NA, 999, 999, 7, 12, 76, 189, 82, 166, 116, 153, 1, 12.0834
333, 2, bw, filler, NA, 999, 999, 7, 12, 76, 189, 82, 166, 116, 153, 2, 0.371508
333, 2, bw, filler, NA, 999, 999, 7, 13, 174, 94, 135, 139, 78, 187, 1, 11.1548
333, 2, bw, filler, NA, 999, 999, 7, 13, 174, 94, 135, 139, 78, 187, 2, 1.10455
333, 2, bw, attraction, a-b-db, 14, 3, 7, 14, 111, 181, 195, 120, 120, 195, 2, 1.97806
333, 2, bw, attraction, a-b-db, 14, 3, 7, 14, 111, 181, 195, 120, 120, 195, 1, 0.385411
333, 2, bw, attraction, a-b-db, 9, 1, 7, 15, 57, 129, 135, 60, 60, 135, 3, 3.58394
333, 2, bw, attraction, a-b-db, 9, 1, 7, 15, 57, 129, 135, 60, 60, 135, 1, 2.15883
333, 2, bw, attraction, a-b-db, 14, 2, 7, 16, 165, 90, 90, 165, 83, 153, 1, 2.23741
333, 2, bw, attraction, a-b-db, 14, 2, 7, 16, 165, 90, 90, 165, 83, 153, 3, 0.60277
333, 2, bw, attraction, a-b-db, 9, 2, 7, 17, 165, 90, 86, 157, 90, 165, 1, 1.54446
333, 2, bw, attraction, a-b-db, 9, 2, 7, 17, 165, 90, 86, 157, 90, 165, 2, 0.529274
333, 2, bw, attraction, a-b-da, 9, 2, 7, 18, 90, 165, 157, 86, 165, 90, 3, 1.95387
333, 2, bw, attraction, a-b-da, 9, 2, 7, 18, 90, 165, 157, 86, 165, 90, 2, 0.681847
333, 2, bw, attraction, a-b-da, 5, 2, 7, 19, 90, 165, 165, 90, 161, 88, 2, 3.26822
333, 2, bw, attraction, a-b-da, 5, 2, 7, 19, 90, 165, 165, 90, 161, 88, 3, 0.783873
333, 2, bw, attraction, a-b-db, 9, 3, 7, 20, 120, 195, 114, 186, 195, 120, 3, 2.20621
333, 2, bw, attraction, a-b-db, 9, 3, 7, 20, 120, 195, 114, 186, 195, 120, 2, 0.428088
333, 2, bw, filler, NA, 999, 999, 7, 21, 182, 106, 100, 154, 93, 124, 1, 0.960525
333, 2, bw, filler, NA, 999, 999, 7, 21, 182, 106, 100, 154, 93, 124, 3, 0.720794
333, 2, bw, filler, NA, 999, 999, 7, 22, 171, 68, 150, 126, 84, 86, 2, 1.36208
333, 2, bw, filler, NA, 999, 999, 7, 22, 171, 68, 150, 126, 84, 86, 3, 0.474143
333, 2, bw, filler, NA, 999, 999, 7, 23, 66, 125, 110, 98, 165, 134, 3, 1.22062
333, 2, bw, filler, NA, 999, 999, 7, 23, 66, 125, 110, 98, 165, 134, 1, 0.506316
333, 2, bw, catch, NA, 999, 999, 7, 24, 94, 101, 131, 124, 168, 147, 3, 0.867214
333, 2, bw, catch, NA, 999, 999, 7, 24, 94, 101, 131, 124, 168, 147, 1, 0.599703
333, 2, bw, attraction, a-b-da, 9, 3, 7, 25, 120, 195, 186, 114, 195, 120, 1, 1.9095
333, 2, bw, attraction, a-b-da, 9, 3, 7, 25, 120, 195, 186, 114, 195, 120, 2, 1.06348
333, 2, bw, attraction, a-b-da, 5, 3, 7, 26, 120, 195, 190, 117, 195, 120, 3, 3.53055
333, 2, bw, attraction, a-b-da, 5, 3, 7, 26, 120, 195, 190, 117, 195, 120, 2, 0.443423
333, 2, bw, attraction, a-b-db, 2, 1, 7, 27, 59, 134, 60, 135, 135, 60, 2, 4.44719
333, 2, bw, attraction, a-b-db, 2, 1, 7, 27, 59, 134, 60, 135, 135, 60, 1, 0.603048
333, 2, bw, attraction, a-b-da, 14, 1, 7, 28, 125, 56, 135, 60, 60, 135, 3, 2.61679
333, 2, bw, attraction, a-b-da, 14, 1, 7, 28, 125, 56, 135, 60, 60, 135, 1, 1.43858
333, 2, bw, catch, NA, 999, 999, 7, 29, 129, 126, 132, 183, 103, 92, 2, 1.17073
333, 2, bw, catch, NA, 999, 999, 7, 29, 129, 126, 132, 183, 103, 92, 3, 0.466366
333, 2, bw, attraction, a-b-db, 14, 1, 7, 30, 60, 135, 135, 60, 56, 125, 2, 5.13352
333, 2, bw, attraction, a-b-db, 14, 1, 7, 30, 60, 135, 135, 60, 56, 125, 3, 0.581882
333, 2, bw, filler, NA, 999, 999, 7, 31, 56, 138, 64, 61, 73, 109, 1, 5.22032
333, 2, bw, filler, NA, 999, 999, 7, 31, 56, 138, 64, 61, 73, 109, 2, 0.393202
333, 2, bw, attraction, a-b-da, 5, 1, 7, 32, 132, 58, 135, 60, 60, 135, 1, 12.2951
333, 2, bw, attraction, a-b-da, 5, 1, 7, 32, 132, 58, 135, 60, 60, 135, 2, 0.734685
333, 2, bw, filler, NA, 999, 999, 7, 33, 81, 123, 96, 180, 84, 152, 2, 1.88705
333, 2, bw, filler, NA, 999, 999, 7, 33, 81, 123, 96, 180, 84, 152, 1, 2.49042
333, 2, bw, attraction, a-b-db, 5, 1, 7, 34, 135, 60, 60, 135, 58, 132, 1, 5.0675
333, 2, bw, attraction, a-b-db, 5, 1, 7, 34, 135, 60, 60, 135, 58, 132, 3, 1.35054
333, 2, bw, attraction, a-b-db, 5, 3, 7, 35, 120, 195, 117, 190, 195, 120, 3, 1.94206
333, 2, bw, attraction, a-b-db, 5, 3, 7, 35, 120, 195, 117, 190, 195, 120, 1, 0.446859
333, 2, bw, attraction, a-b-db, 5, 2, 7, 36, 165, 90, 90, 165, 88, 161, 3, 2.27475
333, 2, bw, attraction, a-b-db, 5, 2, 7, 36, 165, 90, 90, 165, 88, 161, 1, 0.525901
333, 2, bw, catch, NA, 999, 999, 7, 37, 122, 193, 106, 149, 124, 71, 1, 0.958199
333, 2, bw, catch, NA, 999, 999, 7, 37, 122, 193, 106, 149, 124, 71, 3, 0.510611
333, 2, bw, attraction, a-b-db, 14, 2, 8, 1, 83, 153, 90, 165, 165, 90, 3, 1.19171
333, 2, bw, attraction, a-b-db, 14, 2, 8, 1, 83, 153, 90, 165, 165, 90, 1, 0.638658
333, 2, bw, attraction, a-b-db, 9, 2, 8, 2, 165, 90, 86, 157, 90, 165, 1, 9.09112
333, 2, bw, attraction, a-b-db, 9, 2, 8, 2, 165, 90, 86, 157, 90, 165, 2, 0.491537
333, 2, bw, attraction, a-b-da, 2, 1, 8, 3, 134, 59, 135, 60, 60, 135, 2, 1.6613
333, 2, bw, attraction, a-b-da, 2, 1, 8, 3, 134, 59, 135, 60, 60, 135, 1, 0.953417
333, 2, bw, attraction, a-b-da, 14, 1, 8, 4, 125, 56, 60, 135, 135, 60, 3, 1.88113
333, 2, bw, attraction, a-b-da, 14, 1, 8, 4, 125, 56, 60, 135, 135, 60, 1, 0.436468
333, 2, bw, filler, NA, 999, 999, 8, 5, 135, 189, 168, 114, 159, 151, 1, 5.14498
333, 2, bw, filler, NA, 999, 999, 8, 5, 135, 189, 168, 114, 159, 151, 2, 0.376666
333, 2, bw, attraction, a-b-da, 9, 1, 8, 6, 129, 57, 135, 60, 60, 135, 2, 1.96716
333, 2, bw, attraction, a-b-da, 9, 1, 8, 6, 129, 57, 135, 60, 60, 135, 1, 1.03117
333, 2, bw, filler, NA, 999, 999, 8, 7, 103, 90, 62, 137, 169, 67, 3, 3.60359
333, 2, bw, filler, NA, 999, 999, 8, 7, 103, 90, 62, 137, 169, 67, 2, 2.23365
333, 2, bw, catch, NA, 999, 999, 8, 8, 119, 76, 170, 145, 97, 158, 2, 0.997451
333, 2, bw, catch, NA, 999, 999, 8, 8, 119, 76, 170, 145, 97, 158, 1, 0.428483
333, 2, bw, attraction, a-b-db, 2, 1, 8, 9, 135, 60, 60, 135, 59, 134, 1, 1.64902
333, 2, bw, attraction, a-b-db, 2, 1, 8, 9, 135, 60, 60, 135, 59, 134, 3, 2.70182
333, 2, bw, attraction, a-b-da, 5, 1, 8, 10, 135, 60, 60, 135, 132, 58, 1, 1.2549
333, 2, bw, attraction, a-b-da, 5, 1, 8, 10, 135, 60, 60, 135, 132, 58, 2, 0.563185
333, 2, bw, filler, NA, 999, 999, 8, 11, 88, 169, 101, 93, 103, 182, 3, 0.874372
333, 2, bw, filler, NA, 999, 999, 8, 11, 88, 169, 101, 93, 103, 182, 2, 0.445996
333, 2, bw, attraction, a-b-db, 5, 1, 8, 12, 58, 132, 60, 135, 135, 60, 2, 1.36178
333, 2, bw, attraction, a-b-db, 5, 1, 8, 12, 58, 132, 60, 135, 135, 60, 1, 0.690019
333, 2, bw, attraction, a-b-db, 2, 2, 8, 13, 89, 163, 90, 165, 165, 90, 2, 5.71567
333, 2, bw, attraction, a-b-db, 2, 2, 8, 13, 89, 163, 90, 165, 165, 90, 1, 1.57261
333, 2, bw, attraction, a-b-db, 9, 1, 8, 14, 57, 129, 60, 135, 135, 60, 3, 1.41935
333, 2, bw, attraction, a-b-db, 9, 1, 8, 14, 57, 129, 60, 135, 135, 60, 1, 0.761569
333, 2, bw, filler, NA, 999, 999, 8, 15, 128, 91, 136, 101, 152, 150, 3, 0.952582
333, 2, bw, filler, NA, 999, 999, 8, 15, 128, 91, 136, 101, 152, 150, 1, 0.593714
333, 2, bw, attraction, a-b-da, 5, 2, 8, 16, 165, 90, 161, 88, 90, 165, 3, 3.22327
333, 2, bw, attraction, a-b-da, 5, 2, 8, 16, 165, 90, 161, 88, 90, 165, 2, 1.0763
333, 2, bw, attraction, a-b-da, 9, 3, 8, 17, 195, 120, 120, 195, 186, 114, 1, 1.63849
333, 2, bw, attraction, a-b-da, 9, 3, 8, 17, 195, 120, 120, 195, 186, 114, 3, 0.475412
333, 2, bw, filler, NA, 999, 999, 8, 18, 87, 107, 124, 167, 159, 104, 2, 1.01396
333, 2, bw, filler, NA, 999, 999, 8, 18, 87, 107, 124, 167, 159, 104, 1, 2.47616
333, 2, bw, attraction, a-b-da, 9, 2, 8, 19, 165, 90, 157, 86, 90, 165, 3, 1.69394
333, 2, bw, attraction, a-b-da, 9, 2, 8, 19, 165, 90, 157, 86, 90, 165, 2, 0.52079
333, 2, bw, filler, NA, 999, 999, 8, 20, 125, 171, 191, 193, 173, 74, 2, 0.649824
333, 2, bw, filler, NA, 999, 999, 8, 20, 125, 171, 191, 193, 173, 74, 3, 3.35898
333, 2, bw, attraction, a-b-db, 2, 3, 8, 21, 195, 120, 120, 195, 119, 193, 1, 1.74112
333, 2, bw, attraction, a-b-db, 2, 3, 8, 21, 195, 120, 120, 195, 119, 193, 3, 1.1099
333, 2, bw, attraction, a-b-db, 9, 3, 8, 22, 120, 195, 114, 186, 195, 120, 3, 6.68687
333, 2, bw, attraction, a-b-db, 9, 3, 8, 22, 120, 195, 114, 186, 195, 120, 2, 0.448789
333, 2, bw, filler, NA, 999, 999, 8, 23, 89, 182, 119, 114, 181, 194, 3, 0.788588
333, 2, bw, filler, NA, 999, 999, 8, 23, 89, 182, 119, 114, 181, 194, 2, 0.611603
333, 2, bw, attraction, a-b-da, 14, 3, 8, 24, 195, 120, 120, 195, 181, 111, 1, 2.44875
333, 2, bw, attraction, a-b-da, 14, 3, 8, 24, 195, 120, 120, 195, 181, 111, 3, 0.829344
333, 2, bw, filler, NA, 999, 999, 8, 25, 61, 88, 75, 137, 168, 184, 3, 0.809582
333, 2, bw, filler, NA, 999, 999, 8, 25, 61, 88, 75, 137, 168, 184, 1, 0.528122
333, 2, bw, catch, NA, 999, 999, 8, 26, 144, 171, 100, 155, 134, 61, 1, 1.40841
333, 2, bw, catch, NA, 999, 999, 8, 26, 144, 171, 100, 155, 134, 61, 3, 0.662605
333, 2, bw, attraction, a-b-db, 14, 3, 8, 27, 111, 181, 195, 120, 120, 195, 2, 1.80174
333, 2, bw, attraction, a-b-db, 14, 3, 8, 27, 111, 181, 195, 120, 120, 195, 1, 0.392432
333, 2, bw, filler, NA, 999, 999, 8, 28, 195, 101, 112, 77, 91, 78, 1, 1.06226
333, 2, bw, filler, NA, 999, 999, 8, 28, 195, 101, 112, 77, 91, 78, 3, 1.0265
333, 2, bw, attraction, a-b-da, 2, 3, 8, 29, 193, 119, 195, 120, 120, 195, 2, 1.4389
333, 2, bw, attraction, a-b-da, 2, 3, 8, 29, 193, 119, 195, 120, 120, 195, 1, 0.387747
333, 2, bw, attraction, a-b-db, 5, 2, 8, 30, 90, 165, 88, 161, 165, 90, 3, 4.47425
333, 2, bw, attraction, a-b-db, 5, 2, 8, 30, 90, 165, 88, 161, 165, 90, 2, 0.468744
333, 2, bw, attraction, a-b-da, 14, 2, 8, 31, 165, 90, 90, 165, 153, 83, 2, 2.5919
333, 2, bw, attraction, a-b-da, 14, 2, 8, 31, 165, 90, 90, 165, 153, 83, 3, 0.414566
333, 2, bw, attraction, a-b-da, 2, 2, 8, 32, 165, 90, 163, 89, 90, 165, 3, 5.2675
333, 2, bw, attraction, a-b-da, 2, 2, 8, 32, 165, 90, 163, 89, 90, 165, 2, 0.678503
333, 2, bw, filler, NA, 999, 999, 8, 33, 188, 143, 118, 125, 145, 114, 1, 0.872863
333, 2, bw, filler, NA, 999, 999, 8, 33, 188, 143, 118, 125, 145, 114, 2, 1.06858
333, 2, bw, attraction, a-b-da, 5, 3, 8, 34, 190, 117, 195, 120, 120, 195, 3, 2.03956
333, 2, bw, attraction, a-b-da, 5, 3, 8, 34, 190, 117, 195, 120, 120, 195, 1, 0.612193
333, 2, bw, attraction, a-b-db, 5, 3, 8, 35, 117, 190, 195, 120, 120, 195, 3, 2.66528
333, 2, bw, attraction, a-b-db, 5, 3, 8, 35, 117, 190, 195, 120, 120, 195, 1, 0.565124
333, 2, bw, catch, NA, 999, 999, 8, 36, 125, 70, 160, 155, 150, 105, 2, 0.876214
333, 2, bw, catch, NA, 999, 999, 8, 36, 125, 70, 160, 155, 150, 105, 1, 0.439957
333, 2, bw, attraction, a-b-db, 14, 1, 8, 37, 135, 60, 60, 135, 56, 125, 1, 2.70773
333, 2, bw, attraction, a-b-db, 14, 1, 8, 37, 135, 60, 60, 135, 56, 125, 3, 1.11751
