sub_n, computer_n, bw_cond, effect, set, distance, diag, block_n, trial_n, h1, w1, h2, w2, h3, w3, choice, rt 
314, 2, wb, practice, NA, 999, 999, 0, 1, 125, 138, 62, 176, 76, 58, 3, 4.21339
314, 2, wb, practice, NA, 999, 999, 0, 1, 125, 138, 62, 176, 76, 58, 1, 6.42682
314, 2, wb, practice, NA, 999, 999, 0, 2, 191, 66, 150, 105, 114, 78, 3, 3.80167
314, 2, wb, practice, NA, 999, 999, 0, 2, 191, 66, 150, 105, 114, 78, 2, 4.97727
314, 2, wb, practice, NA, 999, 999, 0, 3, 141, 94, 58, 69, 72, 174, 2, 3.04397
314, 2, wb, practice, NA, 999, 999, 0, 3, 141, 94, 58, 69, 72, 174, 3, 1.91038
314, 2, wb, filler, NA, 999, 999, 1, 1, 155, 91, 144, 107, 166, 84, 1, 13.1098
314, 2, wb, filler, NA, 999, 999, 1, 1, 155, 91, 144, 107, 166, 84, 3, 3.40426
314, 2, wb, attraction, a-b-db, 2, 3, 1, 2, 119, 193, 120, 195, 195, 120, 3, 7.40918
314, 2, wb, attraction, a-b-db, 2, 3, 1, 2, 119, 193, 120, 195, 195, 120, 2, 2.2535
314, 2, wb, filler, NA, 999, 999, 1, 3, 104, 63, 67, 120, 161, 186, 1, 1.43266
314, 2, wb, filler, NA, 999, 999, 1, 3, 104, 63, 67, 120, 161, 186, 3, 1.38222
314, 2, wb, attraction, a-b-db, 5, 1, 1, 4, 135, 60, 60, 135, 58, 132, 1, 5.0684
314, 2, wb, attraction, a-b-db, 5, 1, 1, 4, 135, 60, 60, 135, 58, 132, 2, 3.05542
314, 2, wb, filler, NA, 999, 999, 1, 5, 123, 179, 182, 151, 97, 124, 3, 1.5785
314, 2, wb, filler, NA, 999, 999, 1, 5, 123, 179, 182, 151, 97, 124, 2, 1.92203
314, 2, wb, attraction, a-b-db, 9, 1, 1, 6, 57, 129, 135, 60, 60, 135, 1, 2.01859
314, 2, wb, attraction, a-b-db, 9, 1, 1, 6, 57, 129, 135, 60, 60, 135, 3, 1.72069
314, 2, wb, attraction, a-b-da, 9, 3, 1, 7, 120, 195, 195, 120, 186, 114, 3, 5.53744
314, 2, wb, attraction, a-b-da, 9, 3, 1, 7, 120, 195, 195, 120, 186, 114, 1, 2.68965
314, 2, wb, attraction, a-b-da, 2, 1, 1, 8, 60, 135, 134, 59, 135, 60, 3, 4.57941
314, 2, wb, attraction, a-b-da, 2, 1, 1, 8, 60, 135, 134, 59, 135, 60, 1, 3.48198
314, 2, wb, attraction, a-b-da, 5, 1, 1, 9, 60, 135, 135, 60, 132, 58, 2, 9.57148
314, 2, wb, attraction, a-b-da, 5, 1, 1, 9, 60, 135, 135, 60, 132, 58, 1, 11.0091
314, 2, wb, filler, NA, 999, 999, 1, 10, 134, 84, 170, 110, 145, 165, 1, 1.91564
314, 2, wb, filler, NA, 999, 999, 1, 10, 134, 84, 170, 110, 145, 165, 3, 7.06174
314, 2, wb, filler, NA, 999, 999, 1, 11, 195, 139, 178, 61, 146, 153, 2, 7.38277
314, 2, wb, filler, NA, 999, 999, 1, 11, 195, 139, 178, 61, 146, 153, 1, 2.17254
314, 2, wb, catch, NA, 999, 999, 1, 12, 149, 166, 89, 106, 125, 130, 2, 1.59513
314, 2, wb, catch, NA, 999, 999, 1, 12, 149, 166, 89, 106, 125, 130, 1, 0.873829
314, 2, wb, attraction, a-b-da, 14, 2, 1, 13, 165, 90, 90, 165, 153, 83, 3, 1.91611
314, 2, wb, attraction, a-b-da, 14, 2, 1, 13, 165, 90, 90, 165, 153, 83, 2, 0.982228
314, 2, wb, attraction, a-b-da, 9, 1, 1, 14, 60, 135, 135, 60, 129, 57, 3, 6.0447
314, 2, wb, attraction, a-b-da, 9, 1, 1, 14, 60, 135, 135, 60, 129, 57, 1, 1.20788
314, 2, wb, attraction, a-b-db, 5, 3, 1, 15, 117, 190, 120, 195, 195, 120, 3, 4.09281
314, 2, wb, attraction, a-b-db, 5, 3, 1, 15, 117, 190, 120, 195, 195, 120, 2, 0.566798
314, 2, wb, catch, NA, 999, 999, 1, 16, 165, 90, 188, 127, 112, 83, 3, 0.877995
314, 2, wb, catch, NA, 999, 999, 1, 16, 165, 90, 188, 127, 112, 83, 2, 0.753759
314, 2, wb, attraction, a-b-db, 2, 1, 1, 17, 135, 60, 60, 135, 59, 134, 1, 3.00937
314, 2, wb, attraction, a-b-db, 2, 1, 1, 17, 135, 60, 60, 135, 59, 134, 2, 0.990998
314, 2, wb, attraction, a-b-da, 2, 2, 1, 18, 163, 89, 90, 165, 165, 90, 1, 3.41261
314, 2, wb, attraction, a-b-da, 2, 2, 1, 18, 163, 89, 90, 165, 165, 90, 2, 0.626339
314, 2, wb, attraction, a-b-db, 2, 2, 1, 19, 90, 165, 165, 90, 89, 163, 1, 2.79068
314, 2, wb, attraction, a-b-db, 2, 2, 1, 19, 90, 165, 165, 90, 89, 163, 3, 1.55707
314, 2, wb, filler, NA, 999, 999, 1, 20, 99, 149, 83, 189, 138, 69, 3, 1.31579
314, 2, wb, filler, NA, 999, 999, 1, 20, 99, 149, 83, 189, 138, 69, 2, 0.910068
314, 2, wb, attraction, a-b-da, 14, 1, 1, 21, 125, 56, 60, 135, 135, 60, 1, 1.23906
314, 2, wb, attraction, a-b-da, 14, 1, 1, 21, 125, 56, 60, 135, 135, 60, 2, 1.3321
314, 2, wb, attraction, a-b-da, 9, 2, 1, 22, 157, 86, 165, 90, 90, 165, 1, 3.26021
314, 2, wb, attraction, a-b-da, 9, 2, 1, 22, 157, 86, 165, 90, 90, 165, 3, 0.799805
314, 2, wb, attraction, a-b-da, 2, 3, 1, 23, 193, 119, 195, 120, 120, 195, 1, 5.46153
314, 2, wb, attraction, a-b-da, 2, 3, 1, 23, 193, 119, 195, 120, 120, 195, 3, 2.61652
314, 2, wb, attraction, a-b-db, 14, 3, 1, 24, 120, 195, 195, 120, 111, 181, 3, 3.86887
314, 2, wb, attraction, a-b-db, 14, 3, 1, 24, 120, 195, 195, 120, 111, 181, 1, 0.656243
314, 2, wb, attraction, a-b-db, 9, 2, 1, 25, 165, 90, 90, 165, 86, 157, 1, 6.87543
314, 2, wb, attraction, a-b-db, 9, 2, 1, 25, 165, 90, 90, 165, 86, 157, 2, 0.965307
314, 2, wb, filler, NA, 999, 999, 1, 26, 121, 179, 187, 83, 173, 187, 2, 2.19618
314, 2, wb, filler, NA, 999, 999, 1, 26, 121, 179, 187, 83, 173, 187, 3, 0.546953
314, 2, wb, attraction, a-b-da, 14, 3, 1, 27, 195, 120, 120, 195, 181, 111, 3, 3.1305
314, 2, wb, attraction, a-b-da, 14, 3, 1, 27, 195, 120, 120, 195, 181, 111, 2, 0.515699
314, 2, wb, attraction, a-b-da, 5, 2, 1, 28, 161, 88, 90, 165, 165, 90, 1, 2.6208
314, 2, wb, attraction, a-b-da, 5, 2, 1, 28, 161, 88, 90, 165, 165, 90, 2, 5.19392
314, 2, wb, attraction, a-b-db, 5, 2, 1, 29, 90, 165, 165, 90, 88, 161, 2, 2.34224
314, 2, wb, attraction, a-b-db, 5, 2, 1, 29, 90, 165, 165, 90, 88, 161, 1, 3.61482
314, 2, wb, attraction, a-b-db, 14, 2, 1, 30, 165, 90, 90, 165, 83, 153, 1, 3.56285
314, 2, wb, attraction, a-b-db, 14, 2, 1, 30, 165, 90, 90, 165, 83, 153, 2, 1.13037
314, 2, wb, catch, NA, 999, 999, 1, 31, 124, 131, 150, 165, 64, 131, 3, 1.4266
314, 2, wb, catch, NA, 999, 999, 1, 31, 124, 131, 150, 165, 64, 131, 2, 0.584208
314, 2, wb, filler, NA, 999, 999, 1, 32, 126, 98, 194, 78, 103, 121, 1, 5.56661
314, 2, wb, filler, NA, 999, 999, 1, 32, 126, 98, 194, 78, 103, 121, 2, 2.08567
314, 2, wb, filler, NA, 999, 999, 1, 33, 183, 70, 191, 82, 86, 152, 1, 1.78352
314, 2, wb, filler, NA, 999, 999, 1, 33, 183, 70, 191, 82, 86, 152, 2, 1.1589
314, 2, wb, attraction, a-b-db, 14, 1, 1, 34, 60, 135, 135, 60, 56, 125, 3, 3.42982
314, 2, wb, attraction, a-b-db, 14, 1, 1, 34, 60, 135, 135, 60, 56, 125, 1, 1.25063
314, 2, wb, attraction, a-b-da, 5, 3, 1, 35, 190, 117, 120, 195, 195, 120, 1, 11.8862
314, 2, wb, attraction, a-b-da, 5, 3, 1, 35, 190, 117, 120, 195, 195, 120, 2, 0.470445
314, 2, wb, filler, NA, 999, 999, 1, 36, 61, 183, 73, 136, 101, 132, 2, 3.95362
314, 2, wb, filler, NA, 999, 999, 1, 36, 61, 183, 73, 136, 101, 132, 1, 1.70573
314, 2, wb, attraction, a-b-db, 9, 3, 1, 37, 120, 195, 195, 120, 114, 186, 1, 3.64319
314, 2, wb, attraction, a-b-db, 9, 3, 1, 37, 120, 195, 195, 120, 114, 186, 3, 0.799283
314, 2, wb, filler, NA, 999, 999, 2, 1, 67, 171, 116, 186, 120, 59, 3, 1.32495
314, 2, wb, filler, NA, 999, 999, 2, 1, 67, 171, 116, 186, 120, 59, 2, 0.502535
314, 2, wb, attraction, a-b-da, 14, 3, 2, 2, 120, 195, 195, 120, 181, 111, 3, 7.01635
314, 2, wb, attraction, a-b-da, 14, 3, 2, 2, 120, 195, 195, 120, 181, 111, 1, 0.484863
314, 2, wb, attraction, a-b-da, 2, 3, 2, 3, 193, 119, 195, 120, 120, 195, 1, 3.52717
314, 2, wb, attraction, a-b-da, 2, 3, 2, 3, 193, 119, 195, 120, 120, 195, 3, 1.48015
314, 2, wb, attraction, a-b-da, 5, 2, 2, 4, 90, 165, 165, 90, 161, 88, 3, 4.90635
314, 2, wb, attraction, a-b-da, 5, 2, 2, 4, 90, 165, 165, 90, 161, 88, 1, 1.13131
314, 2, wb, attraction, a-b-da, 14, 2, 2, 5, 90, 165, 153, 83, 165, 90, 2, 2.32354
314, 2, wb, attraction, a-b-da, 14, 2, 2, 5, 90, 165, 153, 83, 165, 90, 1, 1.50884
314, 2, wb, attraction, a-b-da, 5, 3, 2, 6, 120, 195, 195, 120, 190, 117, 3, 5.70963
314, 2, wb, attraction, a-b-da, 5, 3, 2, 6, 120, 195, 195, 120, 190, 117, 2, 3.27854
314, 2, wb, attraction, a-b-da, 2, 2, 2, 7, 90, 165, 165, 90, 163, 89, 3, 16.0802
314, 2, wb, attraction, a-b-da, 2, 2, 2, 7, 90, 165, 165, 90, 163, 89, 1, 0.695077
314, 2, wb, catch, NA, 999, 999, 2, 8, 145, 170, 104, 91, 146, 109, 2, 1.72886
314, 2, wb, catch, NA, 999, 999, 2, 8, 145, 170, 104, 91, 146, 109, 1, 0.514366
314, 2, wb, attraction, a-b-da, 9, 3, 2, 9, 195, 120, 120, 195, 186, 114, 3, 2.29145
314, 2, wb, attraction, a-b-da, 9, 3, 2, 9, 195, 120, 120, 195, 186, 114, 2, 0.709857
314, 2, wb, attraction, a-b-db, 2, 2, 2, 10, 89, 163, 90, 165, 165, 90, 3, 10.6471
314, 2, wb, attraction, a-b-db, 2, 2, 2, 10, 89, 163, 90, 165, 165, 90, 1, 0.60091
314, 2, wb, catch, NA, 999, 999, 2, 11, 191, 124, 137, 118, 107, 88, 3, 1.09464
314, 2, wb, catch, NA, 999, 999, 2, 11, 191, 124, 137, 118, 107, 88, 1, 0.753603
314, 2, wb, attraction, a-b-db, 14, 2, 2, 12, 83, 153, 165, 90, 90, 165, 1, 1.76934
314, 2, wb, attraction, a-b-db, 14, 2, 2, 12, 83, 153, 165, 90, 90, 165, 2, 0.953426
314, 2, wb, filler, NA, 999, 999, 2, 13, 127, 85, 68, 64, 114, 178, 2, 0.833127
314, 2, wb, filler, NA, 999, 999, 2, 13, 127, 85, 68, 64, 114, 178, 3, 0.622857
314, 2, wb, filler, NA, 999, 999, 2, 14, 130, 67, 173, 61, 120, 185, 1, 0.971213
314, 2, wb, filler, NA, 999, 999, 2, 14, 130, 67, 173, 61, 120, 185, 3, 1.16282
314, 2, wb, attraction, a-b-db, 9, 1, 2, 15, 60, 135, 135, 60, 57, 129, 3, 3.48178
314, 2, wb, attraction, a-b-db, 9, 1, 2, 15, 60, 135, 135, 60, 57, 129, 1, 0.828682
314, 2, wb, attraction, a-b-da, 9, 1, 2, 16, 129, 57, 135, 60, 60, 135, 1, 3.34502
314, 2, wb, attraction, a-b-da, 9, 1, 2, 16, 129, 57, 135, 60, 60, 135, 3, 0.625325
314, 2, wb, filler, NA, 999, 999, 2, 17, 143, 147, 118, 121, 76, 93, 3, 0.984572
314, 2, wb, filler, NA, 999, 999, 2, 17, 143, 147, 118, 121, 76, 93, 1, 0.437366
314, 2, wb, attraction, a-b-da, 9, 2, 2, 18, 165, 90, 157, 86, 90, 165, 2, 4.59392
314, 2, wb, attraction, a-b-da, 9, 2, 2, 18, 165, 90, 157, 86, 90, 165, 1, 2.67972
314, 2, wb, attraction, a-b-db, 2, 3, 2, 19, 119, 193, 195, 120, 120, 195, 1, 8.69766
314, 2, wb, attraction, a-b-db, 2, 3, 2, 19, 119, 193, 195, 120, 120, 195, 3, 0.458
314, 2, wb, attraction, a-b-da, 14, 1, 2, 20, 135, 60, 125, 56, 60, 135, 2, 2.33322
314, 2, wb, attraction, a-b-da, 14, 1, 2, 20, 135, 60, 125, 56, 60, 135, 3, 0.382412
314, 2, wb, attraction, a-b-db, 9, 2, 2, 21, 90, 165, 86, 157, 165, 90, 3, 5.82911
314, 2, wb, attraction, a-b-db, 9, 2, 2, 21, 90, 165, 86, 157, 165, 90, 1, 0.5532
314, 2, wb, attraction, a-b-da, 5, 1, 2, 22, 132, 58, 60, 135, 135, 60, 1, 17.1449
314, 2, wb, attraction, a-b-da, 5, 1, 2, 22, 132, 58, 60, 135, 135, 60, 3, 1.17279
314, 2, wb, attraction, a-b-db, 5, 1, 2, 23, 58, 132, 135, 60, 60, 135, 2, 9.48362
314, 2, wb, attraction, a-b-db, 5, 1, 2, 23, 58, 132, 135, 60, 60, 135, 3, 0.716739
314, 2, wb, filler, NA, 999, 999, 2, 24, 161, 133, 67, 156, 108, 138, 3, 3.6618
314, 2, wb, filler, NA, 999, 999, 2, 24, 161, 133, 67, 156, 108, 138, 1, 0.401278
314, 2, wb, filler, NA, 999, 999, 2, 25, 121, 95, 154, 84, 74, 129, 3, 5.46314
314, 2, wb, filler, NA, 999, 999, 2, 25, 121, 95, 154, 84, 74, 129, 2, 0.490048
314, 2, wb, filler, NA, 999, 999, 2, 26, 136, 136, 172, 124, 126, 152, 1, 1.5718
314, 2, wb, filler, NA, 999, 999, 2, 26, 136, 136, 172, 124, 126, 152, 2, 0.571447
314, 2, wb, attraction, a-b-db, 2, 1, 2, 27, 60, 135, 135, 60, 59, 134, 3, 1.82635
314, 2, wb, attraction, a-b-db, 2, 1, 2, 27, 60, 135, 135, 60, 59, 134, 1, 1.14376
314, 2, wb, catch, NA, 999, 999, 2, 28, 101, 154, 159, 156, 106, 89, 3, 0.975406
314, 2, wb, catch, NA, 999, 999, 2, 28, 101, 154, 159, 156, 106, 89, 2, 0.551101
314, 2, wb, attraction, a-b-db, 9, 3, 2, 29, 120, 195, 195, 120, 114, 186, 3, 5.87088
314, 2, wb, attraction, a-b-db, 9, 3, 2, 29, 120, 195, 195, 120, 114, 186, 1, 1.56961
314, 2, wb, attraction, a-b-db, 5, 3, 2, 30, 195, 120, 120, 195, 117, 190, 3, 5.90454
314, 2, wb, attraction, a-b-db, 5, 3, 2, 30, 195, 120, 120, 195, 117, 190, 2, 0.481873
314, 2, wb, filler, NA, 999, 999, 2, 31, 123, 66, 176, 82, 166, 190, 1, 0.916311
314, 2, wb, filler, NA, 999, 999, 2, 31, 123, 66, 176, 82, 166, 190, 3, 0.438688
314, 2, wb, filler, NA, 999, 999, 2, 32, 106, 176, 66, 94, 168, 174, 2, 0.827176
314, 2, wb, filler, NA, 999, 999, 2, 32, 106, 176, 66, 94, 168, 174, 3, 0.664833
314, 2, wb, attraction, a-b-da, 2, 1, 2, 33, 134, 59, 135, 60, 60, 135, 1, 5.30791
314, 2, wb, attraction, a-b-da, 2, 1, 2, 33, 134, 59, 135, 60, 60, 135, 3, 0.580886
314, 2, wb, attraction, a-b-db, 14, 1, 2, 34, 56, 125, 135, 60, 60, 135, 2, 2.24334
314, 2, wb, attraction, a-b-db, 14, 1, 2, 34, 56, 125, 135, 60, 60, 135, 3, 0.919931
314, 2, wb, attraction, a-b-db, 14, 3, 2, 35, 111, 181, 195, 120, 120, 195, 1, 4.64101
314, 2, wb, attraction, a-b-db, 14, 3, 2, 35, 111, 181, 195, 120, 120, 195, 3, 0.588771
314, 2, wb, attraction, a-b-db, 5, 2, 2, 36, 165, 90, 90, 165, 88, 161, 1, 3.90728
314, 2, wb, attraction, a-b-db, 5, 2, 2, 36, 165, 90, 90, 165, 88, 161, 3, 0.716616
314, 2, wb, filler, NA, 999, 999, 2, 37, 101, 133, 94, 78, 92, 65, 3, 1.12564
314, 2, wb, filler, NA, 999, 999, 2, 37, 101, 133, 94, 78, 92, 65, 1, 0.471264
314, 2, wb, catch, NA, 999, 999, 3, 1, 154, 101, 99, 96, 174, 141, 2, 0.770372
314, 2, wb, catch, NA, 999, 999, 3, 1, 154, 101, 99, 96, 174, 141, 3, 0.474189
314, 2, wb, attraction, a-b-da, 9, 3, 3, 2, 186, 114, 120, 195, 195, 120, 1, 4.72454
314, 2, wb, attraction, a-b-da, 9, 3, 3, 2, 186, 114, 120, 195, 195, 120, 3, 0.901262
314, 2, wb, attraction, a-b-da, 5, 2, 3, 3, 90, 165, 161, 88, 165, 90, 3, 4.59079
314, 2, wb, attraction, a-b-da, 5, 2, 3, 3, 90, 165, 161, 88, 165, 90, 1, 0.58064
314, 2, wb, filler, NA, 999, 999, 3, 4, 86, 66, 66, 141, 152, 88, 1, 1.28318
314, 2, wb, filler, NA, 999, 999, 3, 4, 86, 66, 66, 141, 152, 88, 3, 0.790608
314, 2, wb, attraction, a-b-da, 14, 2, 3, 5, 165, 90, 153, 83, 90, 165, 2, 5.78835
314, 2, wb, attraction, a-b-da, 14, 2, 3, 5, 165, 90, 153, 83, 90, 165, 3, 0.490469
314, 2, wb, catch, NA, 999, 999, 3, 6, 130, 125, 162, 153, 106, 89, 3, 1.21222
314, 2, wb, catch, NA, 999, 999, 3, 6, 130, 125, 162, 153, 106, 89, 2, 0.53851
314, 2, wb, filler, NA, 999, 999, 3, 7, 123, 138, 156, 70, 171, 104, 2, 11.611
314, 2, wb, filler, NA, 999, 999, 3, 7, 123, 138, 156, 70, 171, 104, 3, 0.429931
314, 2, wb, filler, NA, 999, 999, 3, 8, 129, 60, 191, 57, 160, 111, 1, 1.38646
314, 2, wb, filler, NA, 999, 999, 3, 8, 129, 60, 191, 57, 160, 111, 3, 0.698025
314, 2, wb, attraction, a-b-db, 9, 1, 3, 9, 57, 129, 135, 60, 60, 135, 1, 7.06771
314, 2, wb, attraction, a-b-db, 9, 1, 3, 9, 57, 129, 135, 60, 60, 135, 3, 0.830163
314, 2, wb, attraction, a-b-db, 14, 3, 3, 10, 111, 181, 195, 120, 120, 195, 1, 2.03454
314, 2, wb, attraction, a-b-db, 14, 3, 3, 10, 111, 181, 195, 120, 120, 195, 2, 1.32783
314, 2, wb, attraction, a-b-da, 9, 1, 3, 11, 135, 60, 129, 57, 60, 135, 2, 4.69606
314, 2, wb, attraction, a-b-da, 9, 1, 3, 11, 135, 60, 129, 57, 60, 135, 3, 1.51386
314, 2, wb, attraction, a-b-da, 9, 2, 3, 12, 157, 86, 90, 165, 165, 90, 1, 7.19465
314, 2, wb, attraction, a-b-da, 9, 2, 3, 12, 157, 86, 90, 165, 165, 90, 2, 0.447731
314, 2, wb, attraction, a-b-da, 2, 2, 3, 13, 165, 90, 90, 165, 163, 89, 1, 4.68367
314, 2, wb, attraction, a-b-da, 2, 2, 3, 13, 165, 90, 90, 165, 163, 89, 2, 0.414006
314, 2, wb, filler, NA, 999, 999, 3, 14, 146, 171, 85, 129, 192, 94, 2, 1.35515
314, 2, wb, filler, NA, 999, 999, 3, 14, 146, 171, 85, 129, 192, 94, 1, 0.523425
314, 2, wb, attraction, a-b-db, 2, 2, 3, 15, 90, 165, 165, 90, 89, 163, 1, 5.484
314, 2, wb, attraction, a-b-db, 2, 2, 3, 15, 90, 165, 165, 90, 89, 163, 3, 0.390144
314, 2, wb, attraction, a-b-db, 5, 1, 3, 16, 135, 60, 60, 135, 58, 132, 1, 4.58793
314, 2, wb, attraction, a-b-db, 5, 1, 3, 16, 135, 60, 60, 135, 58, 132, 2, 1.41063
314, 2, wb, attraction, a-b-db, 2, 1, 3, 17, 135, 60, 59, 134, 60, 135, 1, 4.32731
314, 2, wb, attraction, a-b-db, 2, 1, 3, 17, 135, 60, 59, 134, 60, 135, 2, 1.19995
314, 2, wb, attraction, a-b-da, 5, 3, 3, 18, 195, 120, 120, 195, 190, 117, 1, 2.14959
314, 2, wb, attraction, a-b-da, 5, 3, 3, 18, 195, 120, 120, 195, 190, 117, 2, 0.350232
314, 2, wb, attraction, a-b-da, 2, 1, 3, 19, 60, 135, 135, 60, 134, 59, 1, 3.6459
314, 2, wb, attraction, a-b-da, 2, 1, 3, 19, 60, 135, 135, 60, 134, 59, 2, 0.394072
314, 2, wb, catch, NA, 999, 999, 3, 20, 108, 87, 102, 153, 152, 163, 1, 0.999961
314, 2, wb, catch, NA, 999, 999, 3, 20, 108, 87, 102, 153, 152, 163, 3, 0.463109
314, 2, wb, attraction, a-b-db, 5, 2, 3, 21, 90, 165, 165, 90, 88, 161, 1, 3.25007
314, 2, wb, attraction, a-b-db, 5, 2, 3, 21, 90, 165, 165, 90, 88, 161, 3, 0.518374
314, 2, wb, filler, NA, 999, 999, 3, 22, 155, 64, 73, 155, 122, 109, 1, 4.53551
314, 2, wb, filler, NA, 999, 999, 3, 22, 155, 64, 73, 155, 122, 109, 2, 0.447989
314, 2, wb, attraction, a-b-da, 5, 1, 3, 23, 135, 60, 60, 135, 132, 58, 1, 1.82779
314, 2, wb, attraction, a-b-da, 5, 1, 3, 23, 135, 60, 60, 135, 132, 58, 2, 0.561224
314, 2, wb, attraction, a-b-db, 14, 2, 3, 24, 83, 153, 90, 165, 165, 90, 1, 2.4085
314, 2, wb, attraction, a-b-db, 14, 2, 3, 24, 83, 153, 90, 165, 165, 90, 3, 0.478252
314, 2, wb, attraction, a-b-da, 14, 1, 3, 25, 125, 56, 135, 60, 60, 135, 1, 1.83277
314, 2, wb, attraction, a-b-da, 14, 1, 3, 25, 125, 56, 135, 60, 60, 135, 3, 0.518152
314, 2, wb, attraction, a-b-da, 14, 3, 3, 26, 195, 120, 120, 195, 181, 111, 3, 2.91131
314, 2, wb, attraction, a-b-da, 14, 3, 3, 26, 195, 120, 120, 195, 181, 111, 2, 0.497041
314, 2, wb, attraction, a-b-db, 14, 1, 3, 27, 135, 60, 60, 135, 56, 125, 1, 2.65872
314, 2, wb, attraction, a-b-db, 14, 1, 3, 27, 135, 60, 60, 135, 56, 125, 2, 1.43847
314, 2, wb, filler, NA, 999, 999, 3, 28, 98, 87, 159, 81, 64, 87, 3, 0.834665
314, 2, wb, filler, NA, 999, 999, 3, 28, 98, 87, 159, 81, 64, 87, 2, 0.496377
314, 2, wb, attraction, a-b-da, 2, 3, 3, 29, 120, 195, 195, 120, 193, 119, 2, 3.12223
314, 2, wb, attraction, a-b-da, 2, 3, 3, 29, 120, 195, 195, 120, 193, 119, 1, 0.451168
314, 2, wb, filler, NA, 999, 999, 3, 30, 103, 172, 194, 89, 118, 172, 1, 2.35097
314, 2, wb, filler, NA, 999, 999, 3, 30, 103, 172, 194, 89, 118, 172, 3, 0.663604
314, 2, wb, attraction, a-b-db, 5, 3, 3, 31, 120, 195, 195, 120, 117, 190, 3, 7.26667
314, 2, wb, attraction, a-b-db, 5, 3, 3, 31, 120, 195, 195, 120, 117, 190, 2, 6.53302
314, 2, wb, attraction, a-b-db, 9, 2, 3, 32, 165, 90, 90, 165, 86, 157, 3, 1.79555
314, 2, wb, attraction, a-b-db, 9, 2, 3, 32, 165, 90, 90, 165, 86, 157, 2, 4.29838
314, 2, wb, filler, NA, 999, 999, 3, 33, 87, 110, 124, 184, 142, 166, 1, 0.746917
314, 2, wb, filler, NA, 999, 999, 3, 33, 87, 110, 124, 184, 142, 166, 2, 5.21201
314, 2, wb, attraction, a-b-db, 2, 3, 3, 34, 119, 193, 120, 195, 195, 120, 3, 2.42372
314, 2, wb, attraction, a-b-db, 2, 3, 3, 34, 119, 193, 120, 195, 195, 120, 2, 0.940842
314, 2, wb, filler, NA, 999, 999, 3, 35, 158, 167, 180, 143, 180, 74, 3, 1.46847
314, 2, wb, filler, NA, 999, 999, 3, 35, 158, 167, 180, 143, 180, 74, 2, 0.432676
314, 2, wb, filler, NA, 999, 999, 3, 36, 85, 107, 177, 174, 121, 173, 1, 0.709121
314, 2, wb, filler, NA, 999, 999, 3, 36, 85, 107, 177, 174, 121, 173, 2, 0.399519
314, 2, wb, attraction, a-b-db, 9, 3, 3, 37, 114, 186, 120, 195, 195, 120, 1, 2.08546
314, 2, wb, attraction, a-b-db, 9, 3, 3, 37, 114, 186, 120, 195, 195, 120, 2, 1.13668
314, 2, wb, filler, NA, 999, 999, 4, 1, 184, 126, 97, 102, 148, 112, 2, 0.681078
314, 2, wb, filler, NA, 999, 999, 4, 1, 184, 126, 97, 102, 148, 112, 1, 0.46069
314, 2, wb, filler, NA, 999, 999, 4, 2, 67, 59, 58, 185, 144, 184, 1, 1.91984
314, 2, wb, filler, NA, 999, 999, 4, 2, 67, 59, 58, 185, 144, 184, 3, 1.6579
314, 2, wb, attraction, a-b-da, 9, 1, 4, 3, 60, 135, 129, 57, 135, 60, 2, 3.10058
314, 2, wb, attraction, a-b-da, 9, 1, 4, 3, 60, 135, 129, 57, 135, 60, 1, 0.551001
314, 2, wb, attraction, a-b-da, 2, 3, 4, 4, 120, 195, 195, 120, 193, 119, 2, 7.93476
314, 2, wb, attraction, a-b-da, 2, 3, 4, 4, 120, 195, 195, 120, 193, 119, 1, 1.00624
314, 2, wb, attraction, a-b-db, 5, 3, 4, 5, 120, 195, 117, 190, 195, 120, 3, 1.9792
314, 2, wb, attraction, a-b-db, 5, 3, 4, 5, 120, 195, 117, 190, 195, 120, 1, 1.46653
314, 2, wb, attraction, a-b-da, 2, 1, 4, 6, 135, 60, 60, 135, 134, 59, 2, 1.37352
314, 2, wb, attraction, a-b-da, 2, 1, 4, 6, 135, 60, 60, 135, 134, 59, 3, 1.06092
314, 2, wb, attraction, a-b-da, 9, 2, 4, 7, 90, 165, 165, 90, 157, 86, 3, 2.81585
314, 2, wb, attraction, a-b-da, 9, 2, 4, 7, 90, 165, 165, 90, 157, 86, 2, 0.621643
314, 2, wb, filler, NA, 999, 999, 4, 8, 113, 107, 146, 122, 126, 101, 1, 1.56269
314, 2, wb, filler, NA, 999, 999, 4, 8, 113, 107, 146, 122, 126, 101, 2, 0.442885
314, 2, wb, filler, NA, 999, 999, 4, 9, 95, 137, 194, 83, 131, 195, 1, 1.09459
314, 2, wb, filler, NA, 999, 999, 4, 9, 95, 137, 194, 83, 131, 195, 3, 0.681763
314, 2, wb, attraction, a-b-db, 14, 1, 4, 10, 60, 135, 135, 60, 56, 125, 2, 6.58001
314, 2, wb, attraction, a-b-db, 14, 1, 4, 10, 60, 135, 135, 60, 56, 125, 1, 0.537873
314, 2, wb, catch, NA, 999, 999, 4, 11, 71, 124, 178, 137, 140, 115, 1, 1.24237
314, 2, wb, catch, NA, 999, 999, 4, 11, 71, 124, 178, 137, 140, 115, 2, 0.703301
314, 2, wb, attraction, a-b-da, 14, 2, 4, 12, 165, 90, 90, 165, 153, 83, 3, 2.36913
314, 2, wb, attraction, a-b-da, 14, 2, 4, 12, 165, 90, 90, 165, 153, 83, 1, 1.457
314, 2, wb, filler, NA, 999, 999, 4, 13, 62, 128, 96, 150, 104, 59, 1, 1.04367
314, 2, wb, filler, NA, 999, 999, 4, 13, 62, 128, 96, 150, 104, 59, 2, 0.664737
314, 2, wb, catch, NA, 999, 999, 4, 14, 171, 144, 106, 149, 93, 102, 3, 1.01175
314, 2, wb, catch, NA, 999, 999, 4, 14, 171, 144, 106, 149, 93, 102, 1, 0.706073
314, 2, wb, attraction, a-b-da, 14, 3, 4, 15, 120, 195, 195, 120, 181, 111, 3, 1.76308
314, 2, wb, attraction, a-b-da, 14, 3, 4, 15, 120, 195, 195, 120, 181, 111, 1, 0.475196
314, 2, wb, attraction, a-b-db, 14, 2, 4, 16, 165, 90, 90, 165, 83, 153, 3, 2.12571
314, 2, wb, attraction, a-b-db, 14, 2, 4, 16, 165, 90, 90, 165, 83, 153, 2, 0.654996
314, 2, wb, attraction, a-b-da, 2, 2, 4, 17, 165, 90, 163, 89, 90, 165, 1, 2.05073
314, 2, wb, attraction, a-b-da, 2, 2, 4, 17, 165, 90, 163, 89, 90, 165, 3, 1.29562
314, 2, wb, attraction, a-b-db, 2, 1, 4, 18, 135, 60, 59, 134, 60, 135, 1, 3.47293
314, 2, wb, attraction, a-b-db, 2, 1, 4, 18, 135, 60, 59, 134, 60, 135, 3, 0.65185
314, 2, wb, attraction, a-b-da, 9, 3, 4, 19, 120, 195, 195, 120, 186, 114, 3, 1.3196
314, 2, wb, attraction, a-b-da, 9, 3, 4, 19, 120, 195, 195, 120, 186, 114, 2, 0.961828
314, 2, wb, catch, NA, 999, 999, 4, 20, 120, 195, 143, 112, 63, 132, 3, 1.02475
314, 2, wb, catch, NA, 999, 999, 4, 20, 120, 195, 143, 112, 63, 132, 1, 0.790468
314, 2, wb, attraction, a-b-db, 14, 3, 4, 21, 120, 195, 195, 120, 111, 181, 3, 3.00411
314, 2, wb, attraction, a-b-db, 14, 3, 4, 21, 120, 195, 195, 120, 111, 181, 1, 0.930501
314, 2, wb, attraction, a-b-db, 9, 3, 4, 22, 195, 120, 114, 186, 120, 195, 1, 7.94685
314, 2, wb, attraction, a-b-db, 9, 3, 4, 22, 195, 120, 114, 186, 120, 195, 3, 0.497668
314, 2, wb, attraction, a-b-db, 2, 3, 4, 23, 195, 120, 120, 195, 119, 193, 1, 2.17171
314, 2, wb, attraction, a-b-db, 2, 3, 4, 23, 195, 120, 120, 195, 119, 193, 3, 1.41077
314, 2, wb, filler, NA, 999, 999, 4, 24, 163, 106, 135, 96, 58, 119, 3, 1.75163
314, 2, wb, filler, NA, 999, 999, 4, 24, 163, 106, 135, 96, 58, 119, 1, 0.73635
314, 2, wb, attraction, a-b-db, 9, 1, 4, 25, 57, 129, 135, 60, 60, 135, 1, 3.44068
314, 2, wb, attraction, a-b-db, 9, 1, 4, 25, 57, 129, 135, 60, 60, 135, 3, 1.82892
314, 2, wb, attraction, a-b-da, 5, 1, 4, 26, 132, 58, 135, 60, 60, 135, 1, 3.79299
314, 2, wb, attraction, a-b-da, 5, 1, 4, 26, 132, 58, 135, 60, 60, 135, 3, 0.455019
314, 2, wb, attraction, a-b-db, 5, 2, 4, 27, 165, 90, 88, 161, 90, 165, 1, 3.16292
314, 2, wb, attraction, a-b-db, 5, 2, 4, 27, 165, 90, 88, 161, 90, 165, 2, 0.410531
314, 2, wb, attraction, a-b-db, 5, 1, 4, 28, 58, 132, 135, 60, 60, 135, 1, 3.11979
314, 2, wb, attraction, a-b-db, 5, 1, 4, 28, 58, 132, 135, 60, 60, 135, 3, 0.537374
314, 2, wb, attraction, a-b-db, 9, 2, 4, 29, 165, 90, 90, 165, 86, 157, 1, 1.8418
314, 2, wb, attraction, a-b-db, 9, 2, 4, 29, 165, 90, 90, 165, 86, 157, 2, 0.446595
314, 2, wb, attraction, a-b-da, 5, 3, 4, 30, 190, 117, 195, 120, 120, 195, 1, 2.67429
314, 2, wb, attraction, a-b-da, 5, 3, 4, 30, 190, 117, 195, 120, 120, 195, 3, 0.50948
314, 2, wb, filler, NA, 999, 999, 4, 31, 123, 165, 126, 93, 89, 70, 3, 2.04659
314, 2, wb, filler, NA, 999, 999, 4, 31, 123, 165, 126, 93, 89, 70, 1, 0.707261
314, 2, wb, filler, NA, 999, 999, 4, 32, 62, 185, 183, 147, 115, 157, 1, 1.86037
314, 2, wb, filler, NA, 999, 999, 4, 32, 62, 185, 183, 147, 115, 157, 2, 0.496326
314, 2, wb, filler, NA, 999, 999, 4, 33, 93, 128, 137, 113, 147, 101, 1, 3.69014
314, 2, wb, filler, NA, 999, 999, 4, 33, 93, 128, 137, 113, 147, 101, 2, 0.324366
314, 2, wb, attraction, a-b-da, 14, 1, 4, 34, 125, 56, 60, 135, 135, 60, 1, 1.99685
314, 2, wb, attraction, a-b-da, 14, 1, 4, 34, 125, 56, 60, 135, 135, 60, 2, 0.811474
314, 2, wb, attraction, a-b-db, 2, 2, 4, 35, 89, 163, 165, 90, 90, 165, 2, 3.79246
314, 2, wb, attraction, a-b-db, 2, 2, 4, 35, 89, 163, 165, 90, 90, 165, 3, 0.40668
314, 2, wb, attraction, a-b-da, 5, 2, 4, 36, 165, 90, 90, 165, 161, 88, 1, 3.05975
314, 2, wb, attraction, a-b-da, 5, 2, 4, 36, 165, 90, 90, 165, 161, 88, 2, 0.791438
314, 2, wb, filler, NA, 999, 999, 4, 37, 95, 92, 185, 135, 192, 165, 1, 0.933126
314, 2, wb, filler, NA, 999, 999, 4, 37, 95, 92, 185, 135, 192, 165, 3, 0.974842
314, 2, wb, filler, NA, 999, 999, 5, 1, 147, 82, 144, 155, 189, 87, 1, 4.77975
314, 2, wb, filler, NA, 999, 999, 5, 1, 147, 82, 144, 155, 189, 87, 2, 0.354347
314, 2, wb, filler, NA, 999, 999, 5, 2, 162, 103, 194, 124, 117, 117, 3, 1.24209
314, 2, wb, filler, NA, 999, 999, 5, 2, 162, 103, 194, 124, 117, 117, 2, 0.686978
314, 2, wb, attraction, a-b-db, 9, 1, 5, 3, 60, 135, 57, 129, 135, 60, 3, 3.22547
314, 2, wb, attraction, a-b-db, 9, 1, 5, 3, 60, 135, 57, 129, 135, 60, 1, 0.374289
314, 2, wb, attraction, a-b-db, 5, 3, 5, 4, 195, 120, 117, 190, 120, 195, 3, 3.86881
314, 2, wb, attraction, a-b-db, 5, 3, 5, 4, 195, 120, 117, 190, 120, 195, 1, 0.528174
314, 2, wb, filler, NA, 999, 999, 5, 5, 84, 192, 110, 145, 150, 107, 3, 5.65671
314, 2, wb, filler, NA, 999, 999, 5, 5, 84, 192, 110, 145, 150, 107, 1, 0.787537
314, 2, wb, attraction, a-b-db, 14, 1, 5, 6, 135, 60, 56, 125, 60, 135, 3, 3.79391
314, 2, wb, attraction, a-b-db, 14, 1, 5, 6, 135, 60, 56, 125, 60, 135, 1, 0.992163
314, 2, wb, attraction, a-b-db, 9, 2, 5, 7, 165, 90, 86, 157, 90, 165, 2, 3.8857
314, 2, wb, attraction, a-b-db, 9, 2, 5, 7, 165, 90, 86, 157, 90, 165, 3, 0.440479
314, 2, wb, attraction, a-b-da, 5, 2, 5, 8, 165, 90, 161, 88, 90, 165, 2, 4.62022
314, 2, wb, attraction, a-b-da, 5, 2, 5, 8, 165, 90, 161, 88, 90, 165, 3, 0.521475
314, 2, wb, filler, NA, 999, 999, 5, 9, 159, 116, 118, 85, 166, 186, 2, 0.73853
314, 2, wb, filler, NA, 999, 999, 5, 9, 159, 116, 118, 85, 166, 186, 3, 0.387582
314, 2, wb, attraction, a-b-da, 5, 1, 5, 10, 132, 58, 135, 60, 60, 135, 1, 2.13811
314, 2, wb, attraction, a-b-da, 5, 1, 5, 10, 132, 58, 135, 60, 60, 135, 3, 0.402802
314, 2, wb, filler, NA, 999, 999, 5, 11, 134, 141, 81, 95, 66, 125, 2, 0.840661
314, 2, wb, filler, NA, 999, 999, 5, 11, 134, 141, 81, 95, 66, 125, 1, 0.405604
314, 2, wb, attraction, a-b-db, 5, 2, 5, 12, 88, 161, 90, 165, 165, 90, 2, 3.34739
314, 2, wb, attraction, a-b-db, 5, 2, 5, 12, 88, 161, 90, 165, 165, 90, 1, 0.579682
314, 2, wb, attraction, a-b-db, 2, 2, 5, 13, 165, 90, 90, 165, 89, 163, 1, 2.77823
314, 2, wb, attraction, a-b-db, 2, 2, 5, 13, 165, 90, 90, 165, 89, 163, 3, 0.497168
314, 2, wb, attraction, a-b-da, 9, 2, 5, 14, 165, 90, 157, 86, 90, 165, 2, 1.73901
314, 2, wb, attraction, a-b-da, 9, 2, 5, 14, 165, 90, 157, 86, 90, 165, 3, 0.555801
314, 2, wb, filler, NA, 999, 999, 5, 15, 81, 101, 191, 135, 175, 77, 1, 0.827549
314, 2, wb, filler, NA, 999, 999, 5, 15, 81, 101, 191, 135, 175, 77, 2, 0.705316
314, 2, wb, catch, NA, 999, 999, 5, 16, 148, 107, 157, 158, 77, 118, 3, 0.835015
314, 2, wb, catch, NA, 999, 999, 5, 16, 148, 107, 157, 158, 77, 118, 2, 0.400694
314, 2, wb, catch, NA, 999, 999, 5, 17, 87, 108, 127, 128, 141, 174, 1, 1.08647
314, 2, wb, catch, NA, 999, 999, 5, 17, 87, 108, 127, 128, 141, 174, 3, 0.586171
314, 2, wb, attraction, a-b-db, 2, 3, 5, 18, 120, 195, 195, 120, 119, 193, 3, 2.44868
314, 2, wb, attraction, a-b-db, 2, 3, 5, 18, 120, 195, 195, 120, 119, 193, 1, 0.797125
314, 2, wb, attraction, a-b-da, 2, 2, 5, 19, 90, 165, 165, 90, 163, 89, 2, 2.2508
314, 2, wb, attraction, a-b-da, 2, 2, 5, 19, 90, 165, 165, 90, 163, 89, 1, 1.09537
314, 2, wb, attraction, a-b-db, 14, 3, 5, 20, 195, 120, 111, 181, 120, 195, 1, 2.91297
314, 2, wb, attraction, a-b-db, 14, 3, 5, 20, 195, 120, 111, 181, 120, 195, 3, 0.578863
314, 2, wb, filler, NA, 999, 999, 5, 21, 174, 167, 138, 188, 181, 114, 3, 2.44924
314, 2, wb, filler, NA, 999, 999, 5, 21, 174, 167, 138, 188, 181, 114, 1, 0.405728
314, 2, wb, attraction, a-b-db, 2, 1, 5, 22, 59, 134, 60, 135, 135, 60, 2, 3.59562
314, 2, wb, attraction, a-b-db, 2, 1, 5, 22, 59, 134, 60, 135, 135, 60, 1, 1.12169
314, 2, wb, attraction, a-b-da, 9, 1, 5, 23, 60, 135, 129, 57, 135, 60, 2, 2.45861
314, 2, wb, attraction, a-b-da, 9, 1, 5, 23, 60, 135, 129, 57, 135, 60, 1, 0.6385
314, 2, wb, attraction, a-b-da, 5, 3, 5, 24, 190, 117, 120, 195, 195, 120, 1, 2.85889
314, 2, wb, attraction, a-b-da, 5, 3, 5, 24, 190, 117, 120, 195, 195, 120, 2, 0.662668
314, 2, wb, attraction, a-b-da, 2, 3, 5, 25, 120, 195, 195, 120, 193, 119, 3, 7.8418
314, 2, wb, attraction, a-b-da, 2, 3, 5, 25, 120, 195, 195, 120, 193, 119, 2, 0.42859
314, 2, wb, attraction, a-b-da, 14, 1, 5, 26, 125, 56, 60, 135, 135, 60, 1, 6.93704
314, 2, wb, attraction, a-b-da, 14, 1, 5, 26, 125, 56, 60, 135, 135, 60, 2, 0.528875
314, 2, wb, attraction, a-b-db, 9, 3, 5, 27, 120, 195, 195, 120, 114, 186, 3, 5.56937
314, 2, wb, attraction, a-b-db, 9, 3, 5, 27, 120, 195, 195, 120, 114, 186, 1, 1.42424
314, 2, wb, attraction, a-b-da, 9, 3, 5, 28, 195, 120, 120, 195, 186, 114, 3, 2.52439
314, 2, wb, attraction, a-b-da, 9, 3, 5, 28, 195, 120, 120, 195, 186, 114, 2, 0.501479
314, 2, wb, filler, NA, 999, 999, 5, 29, 63, 56, 110, 147, 158, 157, 1, 1.18328
314, 2, wb, filler, NA, 999, 999, 5, 29, 63, 56, 110, 147, 158, 157, 3, 0.502917
314, 2, wb, filler, NA, 999, 999, 5, 30, 159, 165, 157, 185, 65, 112, 3, 1.48072
314, 2, wb, filler, NA, 999, 999, 5, 30, 159, 165, 157, 185, 65, 112, 2, 0.828279
314, 2, wb, attraction, a-b-da, 2, 1, 5, 31, 134, 59, 60, 135, 135, 60, 1, 18.9846
314, 2, wb, attraction, a-b-da, 2, 1, 5, 31, 134, 59, 60, 135, 135, 60, 2, 0.434617
314, 2, wb, attraction, a-b-db, 14, 2, 5, 32, 165, 90, 90, 165, 83, 153, 3, 4.68707
314, 2, wb, attraction, a-b-db, 14, 2, 5, 32, 165, 90, 90, 165, 83, 153, 1, 1.13772
314, 2, wb, filler, NA, 999, 999, 5, 33, 69, 109, 57, 100, 189, 181, 2, 0.841992
314, 2, wb, filler, NA, 999, 999, 5, 33, 69, 109, 57, 100, 189, 181, 3, 0.534896
314, 2, wb, attraction, a-b-da, 14, 3, 5, 34, 120, 195, 195, 120, 181, 111, 3, 2.33538
314, 2, wb, attraction, a-b-da, 14, 3, 5, 34, 120, 195, 195, 120, 181, 111, 1, 1.56056
314, 2, wb, catch, NA, 999, 999, 5, 35, 133, 182, 132, 123, 76, 119, 3, 1.22339
314, 2, wb, catch, NA, 999, 999, 5, 35, 133, 182, 132, 123, 76, 119, 1, 0.75694
314, 2, wb, attraction, a-b-da, 14, 2, 5, 36, 165, 90, 90, 165, 153, 83, 3, 3.188
314, 2, wb, attraction, a-b-da, 14, 2, 5, 36, 165, 90, 90, 165, 153, 83, 1, 1.60228
314, 2, wb, attraction, a-b-db, 5, 1, 5, 37, 60, 135, 135, 60, 58, 132, 2, 3.39176
314, 2, wb, attraction, a-b-db, 5, 1, 5, 37, 60, 135, 135, 60, 58, 132, 3, 2.28602
314, 2, wb, filler, NA, 999, 999, 6, 1, 132, 191, 139, 105, 161, 170, 2, 0.751999
314, 2, wb, filler, NA, 999, 999, 6, 1, 132, 191, 139, 105, 161, 170, 3, 0.73692
314, 2, wb, attraction, a-b-da, 2, 3, 6, 2, 120, 195, 193, 119, 195, 120, 3, 10.3775
314, 2, wb, attraction, a-b-da, 2, 3, 6, 2, 120, 195, 193, 119, 195, 120, 1, 0.614076
314, 2, wb, attraction, a-b-da, 2, 1, 6, 3, 60, 135, 134, 59, 135, 60, 3, 11.1312
314, 2, wb, attraction, a-b-da, 2, 1, 6, 3, 60, 135, 134, 59, 135, 60, 1, 0.369627
314, 2, wb, attraction, a-b-db, 5, 1, 6, 4, 135, 60, 58, 132, 60, 135, 1, 3.79284
314, 2, wb, attraction, a-b-db, 5, 1, 6, 4, 135, 60, 58, 132, 60, 135, 3, 0.823113
314, 2, wb, filler, NA, 999, 999, 6, 5, 143, 166, 158, 82, 76, 73, 3, 1.23533
314, 2, wb, filler, NA, 999, 999, 6, 5, 143, 166, 158, 82, 76, 73, 1, 0.744975
314, 2, wb, filler, NA, 999, 999, 6, 6, 103, 109, 190, 153, 152, 113, 1, 1.04857
314, 2, wb, filler, NA, 999, 999, 6, 6, 103, 109, 190, 153, 152, 113, 2, 0.509695
314, 2, wb, attraction, a-b-db, 9, 3, 6, 7, 114, 186, 195, 120, 120, 195, 2, 8.64665
314, 2, wb, attraction, a-b-db, 9, 3, 6, 7, 114, 186, 195, 120, 120, 195, 3, 0.401242
314, 2, wb, filler, NA, 999, 999, 6, 8, 59, 132, 171, 149, 126, 61, 3, 3.75111
314, 2, wb, filler, NA, 999, 999, 6, 8, 59, 132, 171, 149, 126, 61, 2, 0.559388
314, 2, wb, attraction, a-b-da, 14, 1, 6, 9, 60, 135, 135, 60, 125, 56, 3, 7.75831
314, 2, wb, attraction, a-b-da, 14, 1, 6, 9, 60, 135, 135, 60, 125, 56, 2, 0.748634
314, 2, wb, attraction, a-b-da, 5, 3, 6, 10, 120, 195, 195, 120, 190, 117, 3, 2.78837
314, 2, wb, attraction, a-b-da, 5, 3, 6, 10, 120, 195, 195, 120, 190, 117, 1, 1.3547
314, 2, wb, attraction, a-b-db, 2, 2, 6, 11, 89, 163, 90, 165, 165, 90, 3, 4.3862
314, 2, wb, attraction, a-b-db, 2, 2, 6, 11, 89, 163, 90, 165, 165, 90, 1, 0.560783
314, 2, wb, attraction, a-b-db, 9, 1, 6, 12, 60, 135, 57, 129, 135, 60, 3, 2.05602
314, 2, wb, attraction, a-b-db, 9, 1, 6, 12, 60, 135, 57, 129, 135, 60, 1, 3.10792
314, 2, wb, attraction, a-b-db, 14, 2, 6, 13, 165, 90, 83, 153, 90, 165, 2, 11.4683
314, 2, wb, attraction, a-b-db, 14, 2, 6, 13, 165, 90, 83, 153, 90, 165, 3, 0.573336
314, 2, wb, attraction, a-b-da, 5, 2, 6, 14, 90, 165, 161, 88, 165, 90, 2, 4.61166
314, 2, wb, attraction, a-b-da, 5, 2, 6, 14, 90, 165, 161, 88, 165, 90, 1, 0.776955
314, 2, wb, attraction, a-b-db, 2, 3, 6, 15, 119, 193, 120, 195, 195, 120, 3, 3.16734
314, 2, wb, attraction, a-b-db, 2, 3, 6, 15, 119, 193, 120, 195, 195, 120, 1, 1.09496
314, 2, wb, attraction, a-b-db, 2, 1, 6, 16, 135, 60, 60, 135, 59, 134, 1, 3.2565
314, 2, wb, attraction, a-b-db, 2, 1, 6, 16, 135, 60, 60, 135, 59, 134, 3, 0.548066
314, 2, wb, filler, NA, 999, 999, 6, 17, 78, 86, 67, 157, 61, 62, 3, 1.13985
314, 2, wb, filler, NA, 999, 999, 6, 17, 78, 86, 67, 157, 61, 62, 2, 1.40483
314, 2, wb, filler, NA, 999, 999, 6, 18, 153, 140, 122, 82, 125, 100, 2, 1.19431
314, 2, wb, filler, NA, 999, 999, 6, 18, 153, 140, 122, 82, 125, 100, 1, 0.729291
314, 2, wb, attraction, a-b-db, 5, 3, 6, 19, 117, 190, 120, 195, 195, 120, 3, 8.38566
314, 2, wb, attraction, a-b-db, 5, 3, 6, 19, 117, 190, 120, 195, 195, 120, 2, 0.503005
314, 2, wb, attraction, a-b-da, 9, 2, 6, 20, 90, 165, 157, 86, 165, 90, 2, 6.4248
314, 2, wb, attraction, a-b-da, 9, 2, 6, 20, 90, 165, 157, 86, 165, 90, 1, 0.476742
314, 2, wb, attraction, a-b-db, 14, 3, 6, 21, 120, 195, 195, 120, 111, 181, 3, 13.0712
314, 2, wb, attraction, a-b-db, 14, 3, 6, 21, 120, 195, 195, 120, 111, 181, 2, 0.679718
314, 2, wb, attraction, a-b-da, 2, 2, 6, 22, 163, 89, 165, 90, 90, 165, 1, 2.15413
314, 2, wb, attraction, a-b-da, 2, 2, 6, 22, 163, 89, 165, 90, 90, 165, 3, 0.770785
314, 2, wb, catch, NA, 999, 999, 6, 23, 142, 173, 129, 126, 125, 70, 3, 0.729969
314, 2, wb, catch, NA, 999, 999, 6, 23, 142, 173, 129, 126, 125, 70, 1, 0.723532
314, 2, wb, catch, NA, 999, 999, 6, 24, 147, 168, 75, 120, 137, 118, 2, 0.787932
314, 2, wb, catch, NA, 999, 999, 6, 24, 147, 168, 75, 120, 137, 118, 1, 0.571116
314, 2, wb, attraction, a-b-db, 5, 2, 6, 25, 165, 90, 88, 161, 90, 165, 1, 3.43425
314, 2, wb, attraction, a-b-db, 5, 2, 6, 25, 165, 90, 88, 161, 90, 165, 2, 0.535047
314, 2, wb, attraction, a-b-db, 14, 1, 6, 26, 135, 60, 56, 125, 60, 135, 2, 2.22355
314, 2, wb, attraction, a-b-db, 14, 1, 6, 26, 135, 60, 56, 125, 60, 135, 3, 0.876782
314, 2, wb, attraction, a-b-da, 9, 1, 6, 27, 129, 57, 60, 135, 135, 60, 1, 2.22304
314, 2, wb, attraction, a-b-da, 9, 1, 6, 27, 129, 57, 60, 135, 135, 60, 2, 0.820348
314, 2, wb, attraction, a-b-da, 5, 1, 6, 28, 60, 135, 135, 60, 132, 58, 3, 2.88937
314, 2, wb, attraction, a-b-da, 5, 1, 6, 28, 60, 135, 135, 60, 132, 58, 1, 1.09982
314, 2, wb, filler, NA, 999, 999, 6, 29, 179, 72, 105, 162, 114, 118, 3, 9.48543
314, 2, wb, filler, NA, 999, 999, 6, 29, 179, 72, 105, 162, 114, 118, 2, 1.08636
314, 2, wb, attraction, a-b-da, 14, 3, 6, 30, 195, 120, 181, 111, 120, 195, 2, 6.25674
314, 2, wb, attraction, a-b-da, 14, 3, 6, 30, 195, 120, 181, 111, 120, 195, 3, 0.587347
314, 2, wb, attraction, a-b-db, 9, 2, 6, 31, 90, 165, 86, 157, 165, 90, 3, 2.7778
314, 2, wb, attraction, a-b-db, 9, 2, 6, 31, 90, 165, 86, 157, 165, 90, 1, 0.768898
314, 2, wb, catch, NA, 999, 999, 6, 32, 185, 130, 91, 164, 126, 69, 3, 0.895922
314, 2, wb, catch, NA, 999, 999, 6, 32, 185, 130, 91, 164, 126, 69, 1, 0.634941
314, 2, wb, filler, NA, 999, 999, 6, 33, 65, 98, 156, 119, 66, 106, 1, 5.63931
314, 2, wb, filler, NA, 999, 999, 6, 33, 65, 98, 156, 119, 66, 106, 2, 0.514878
314, 2, wb, filler, NA, 999, 999, 6, 34, 92, 108, 175, 130, 86, 68, 3, 0.836026
314, 2, wb, filler, NA, 999, 999, 6, 34, 92, 108, 175, 130, 86, 68, 2, 0.433698
314, 2, wb, attraction, a-b-da, 14, 2, 6, 35, 165, 90, 90, 165, 153, 83, 3, 2.71021
314, 2, wb, attraction, a-b-da, 14, 2, 6, 35, 165, 90, 90, 165, 153, 83, 2, 0.53611
314, 2, wb, filler, NA, 999, 999, 6, 36, 140, 73, 183, 162, 169, 74, 1, 0.984332
314, 2, wb, filler, NA, 999, 999, 6, 36, 140, 73, 183, 162, 169, 74, 2, 0.352142
314, 2, wb, attraction, a-b-da, 9, 3, 6, 37, 186, 114, 120, 195, 195, 120, 1, 1.19991
314, 2, wb, attraction, a-b-da, 9, 3, 6, 37, 186, 114, 120, 195, 195, 120, 2, 1.87085
314, 2, wb, attraction, a-b-db, 9, 3, 7, 1, 195, 120, 114, 186, 120, 195, 2, 8.36152
314, 2, wb, attraction, a-b-db, 9, 3, 7, 1, 195, 120, 114, 186, 120, 195, 3, 0.567571
314, 2, wb, attraction, a-b-db, 2, 2, 7, 2, 90, 165, 89, 163, 165, 90, 3, 2.11064
314, 2, wb, attraction, a-b-db, 2, 2, 7, 2, 90, 165, 89, 163, 165, 90, 1, 0.616638
314, 2, wb, attraction, a-b-db, 5, 2, 7, 3, 88, 161, 165, 90, 90, 165, 1, 2.57373
314, 2, wb, attraction, a-b-db, 5, 2, 7, 3, 88, 161, 165, 90, 90, 165, 3, 0.396934
314, 2, wb, attraction, a-b-da, 9, 2, 7, 4, 90, 165, 165, 90, 157, 86, 3, 2.87467
314, 2, wb, attraction, a-b-da, 9, 2, 7, 4, 90, 165, 165, 90, 157, 86, 2, 0.685754
314, 2, wb, filler, NA, 999, 999, 7, 5, 122, 139, 191, 173, 126, 72, 3, 0.984164
314, 2, wb, filler, NA, 999, 999, 7, 5, 122, 139, 191, 173, 126, 72, 2, 0.53586
314, 2, wb, filler, NA, 999, 999, 7, 6, 184, 96, 63, 135, 182, 148, 2, 0.920256
314, 2, wb, filler, NA, 999, 999, 7, 6, 184, 96, 63, 135, 182, 148, 3, 0.361984
314, 2, wb, attraction, a-b-da, 9, 3, 7, 7, 186, 114, 120, 195, 195, 120, 1, 1.58513
314, 2, wb, attraction, a-b-da, 9, 3, 7, 7, 186, 114, 120, 195, 195, 120, 2, 0.992664
314, 2, wb, filler, NA, 999, 999, 7, 8, 123, 64, 174, 127, 142, 172, 1, 0.902235
314, 2, wb, filler, NA, 999, 999, 7, 8, 123, 64, 174, 127, 142, 172, 3, 0.465385
314, 2, wb, filler, NA, 999, 999, 7, 9, 100, 66, 145, 99, 195, 137, 1, 0.932357
314, 2, wb, filler, NA, 999, 999, 7, 9, 100, 66, 145, 99, 195, 137, 3, 0.494037
314, 2, wb, attraction, a-b-db, 2, 1, 7, 10, 59, 134, 60, 135, 135, 60, 3, 2.32786
314, 2, wb, attraction, a-b-db, 2, 1, 7, 10, 59, 134, 60, 135, 135, 60, 2, 0.545195
314, 2, wb, filler, NA, 999, 999, 7, 11, 194, 147, 119, 186, 76, 194, 3, 0.784824
314, 2, wb, filler, NA, 999, 999, 7, 11, 194, 147, 119, 186, 76, 194, 1, 2.79269
314, 2, wb, attraction, a-b-db, 14, 3, 7, 12, 195, 120, 111, 181, 120, 195, 2, 6.94169
314, 2, wb, attraction, a-b-db, 14, 3, 7, 12, 195, 120, 111, 181, 120, 195, 1, 0.90876
314, 2, wb, filler, NA, 999, 999, 7, 13, 172, 186, 178, 125, 117, 119, 3, 0.98182
314, 2, wb, filler, NA, 999, 999, 7, 13, 172, 186, 178, 125, 117, 119, 1, 1.08551
314, 2, wb, attraction, a-b-db, 2, 3, 7, 14, 120, 195, 119, 193, 195, 120, 3, 3.15968
314, 2, wb, attraction, a-b-db, 2, 3, 7, 14, 120, 195, 119, 193, 195, 120, 1, 1.02345
314, 2, wb, filler, NA, 999, 999, 7, 15, 185, 189, 158, 89, 140, 68, 3, 1.73166
314, 2, wb, filler, NA, 999, 999, 7, 15, 185, 189, 158, 89, 140, 68, 1, 0.509095
314, 2, wb, attraction, a-b-db, 9, 2, 7, 16, 165, 90, 86, 157, 90, 165, 1, 10.5502
314, 2, wb, attraction, a-b-db, 9, 2, 7, 16, 165, 90, 86, 157, 90, 165, 3, 0.492229
314, 2, wb, attraction, a-b-db, 14, 1, 7, 17, 60, 135, 56, 125, 135, 60, 2, 5.08607
314, 2, wb, attraction, a-b-db, 14, 1, 7, 17, 60, 135, 56, 125, 135, 60, 1, 0.416427
314, 2, wb, attraction, a-b-da, 5, 2, 7, 18, 165, 90, 161, 88, 90, 165, 2, 2.78954
314, 2, wb, attraction, a-b-da, 5, 2, 7, 18, 165, 90, 161, 88, 90, 165, 3, 0.556019
314, 2, wb, filler, NA, 999, 999, 7, 19, 156, 192, 74, 164, 152, 153, 2, 0.683719
314, 2, wb, filler, NA, 999, 999, 7, 19, 156, 192, 74, 164, 152, 153, 1, 0.543514
314, 2, wb, attraction, a-b-db, 14, 2, 7, 20, 83, 153, 90, 165, 165, 90, 1, 4.20726
314, 2, wb, attraction, a-b-db, 14, 2, 7, 20, 83, 153, 90, 165, 165, 90, 2, 0.71217
314, 2, wb, attraction, a-b-da, 5, 3, 7, 21, 195, 120, 190, 117, 120, 195, 1, 2.59763
314, 2, wb, attraction, a-b-da, 5, 3, 7, 21, 195, 120, 190, 117, 120, 195, 3, 0.964132
314, 2, wb, catch, NA, 999, 999, 7, 22, 123, 132, 78, 117, 130, 185, 2, 0.627107
314, 2, wb, catch, NA, 999, 999, 7, 22, 123, 132, 78, 117, 130, 185, 3, 0.47294
314, 2, wb, filler, NA, 999, 999, 7, 23, 89, 158, 108, 98, 87, 78, 3, 1.04337
314, 2, wb, filler, NA, 999, 999, 7, 23, 89, 158, 108, 98, 87, 78, 1, 0.536288
314, 2, wb, attraction, a-b-db, 5, 1, 7, 24, 135, 60, 58, 132, 60, 135, 1, 2.38481
314, 2, wb, attraction, a-b-db, 5, 1, 7, 24, 135, 60, 58, 132, 60, 135, 3, 0.520164
314, 2, wb, attraction, a-b-da, 5, 1, 7, 25, 135, 60, 132, 58, 60, 135, 2, 8.37723
314, 2, wb, attraction, a-b-da, 5, 1, 7, 25, 135, 60, 132, 58, 60, 135, 1, 0.542514
314, 2, wb, attraction, a-b-da, 14, 2, 7, 26, 165, 90, 90, 165, 153, 83, 3, 2.5663
314, 2, wb, attraction, a-b-da, 14, 2, 7, 26, 165, 90, 90, 165, 153, 83, 2, 1.03813
314, 2, wb, filler, NA, 999, 999, 7, 27, 66, 178, 109, 69, 71, 89, 3, 3.41841
314, 2, wb, filler, NA, 999, 999, 7, 27, 66, 178, 109, 69, 71, 89, 1, 0.655981
314, 2, wb, attraction, a-b-da, 2, 1, 7, 28, 60, 135, 134, 59, 135, 60, 2, 2.66774
314, 2, wb, attraction, a-b-da, 2, 1, 7, 28, 60, 135, 134, 59, 135, 60, 1, 1.31944
314, 2, wb, attraction, a-b-da, 14, 3, 7, 29, 181, 111, 120, 195, 195, 120, 1, 2.32042
314, 2, wb, attraction, a-b-da, 14, 3, 7, 29, 181, 111, 120, 195, 195, 120, 2, 0.746312
314, 2, wb, attraction, a-b-da, 2, 2, 7, 30, 90, 165, 165, 90, 163, 89, 3, 2.10601
314, 2, wb, attraction, a-b-da, 2, 2, 7, 30, 90, 165, 165, 90, 163, 89, 2, 0.499943
314, 2, wb, attraction, a-b-da, 14, 1, 7, 31, 60, 135, 135, 60, 125, 56, 3, 1.72569
314, 2, wb, attraction, a-b-da, 14, 1, 7, 31, 60, 135, 135, 60, 125, 56, 2, 0.759142
314, 2, wb, attraction, a-b-da, 2, 3, 7, 32, 193, 119, 120, 195, 195, 120, 1, 4.44639
314, 2, wb, attraction, a-b-da, 2, 3, 7, 32, 193, 119, 120, 195, 195, 120, 2, 0.506173
314, 2, wb, catch, NA, 999, 999, 7, 33, 127, 68, 139, 176, 101, 154, 1, 0.883395
314, 2, wb, catch, NA, 999, 999, 7, 33, 127, 68, 139, 176, 101, 154, 2, 0.366971
314, 2, wb, catch, NA, 999, 999, 7, 34, 114, 141, 180, 135, 94, 101, 3, 1.13409
314, 2, wb, catch, NA, 999, 999, 7, 34, 114, 141, 180, 135, 94, 101, 2, 0.407786
314, 2, wb, attraction, a-b-db, 5, 3, 7, 35, 120, 195, 117, 190, 195, 120, 1, 3.10095
314, 2, wb, attraction, a-b-db, 5, 3, 7, 35, 120, 195, 117, 190, 195, 120, 2, 0.447207
314, 2, wb, attraction, a-b-da, 9, 1, 7, 36, 135, 60, 60, 135, 129, 57, 3, 1.81911
314, 2, wb, attraction, a-b-da, 9, 1, 7, 36, 135, 60, 60, 135, 129, 57, 2, 0.545113
314, 2, wb, attraction, a-b-db, 9, 1, 7, 37, 57, 129, 135, 60, 60, 135, 1, 1.64088
314, 2, wb, attraction, a-b-db, 9, 1, 7, 37, 57, 129, 135, 60, 60, 135, 3, 1.38168
314, 2, wb, attraction, a-b-da, 14, 1, 8, 1, 60, 135, 135, 60, 125, 56, 3, 1.21184
314, 2, wb, attraction, a-b-da, 14, 1, 8, 1, 60, 135, 135, 60, 125, 56, 1, 0.954121
314, 2, wb, attraction, a-b-da, 5, 1, 8, 2, 135, 60, 132, 58, 60, 135, 2, 3.41763
314, 2, wb, attraction, a-b-da, 5, 1, 8, 2, 135, 60, 132, 58, 60, 135, 3, 0.463309
314, 2, wb, catch, NA, 999, 999, 8, 3, 165, 150, 94, 101, 114, 141, 2, 0.914423
314, 2, wb, catch, NA, 999, 999, 8, 3, 165, 150, 94, 101, 114, 141, 1, 0.444829
314, 2, wb, attraction, a-b-db, 9, 1, 8, 4, 57, 129, 135, 60, 60, 135, 1, 1.80871
314, 2, wb, attraction, a-b-db, 9, 1, 8, 4, 57, 129, 135, 60, 60, 135, 3, 0.502721
314, 2, wb, attraction, a-b-da, 14, 2, 8, 5, 165, 90, 153, 83, 90, 165, 2, 3.8164
314, 2, wb, attraction, a-b-da, 14, 2, 8, 5, 165, 90, 153, 83, 90, 165, 3, 0.438028
314, 2, wb, filler, NA, 999, 999, 8, 6, 142, 153, 194, 195, 108, 177, 3, 2.2664
314, 2, wb, filler, NA, 999, 999, 8, 6, 142, 153, 194, 195, 108, 177, 2, 0.334348
314, 2, wb, attraction, a-b-da, 9, 1, 8, 7, 129, 57, 135, 60, 60, 135, 1, 1.65475
314, 2, wb, attraction, a-b-da, 9, 1, 8, 7, 129, 57, 135, 60, 60, 135, 3, 0.379004
314, 2, wb, attraction, a-b-db, 5, 1, 8, 8, 135, 60, 58, 132, 60, 135, 1, 2.28945
314, 2, wb, attraction, a-b-db, 5, 1, 8, 8, 135, 60, 58, 132, 60, 135, 3, 0.460031
314, 2, wb, attraction, a-b-da, 2, 1, 8, 9, 134, 59, 60, 135, 135, 60, 1, 1.91115
314, 2, wb, attraction, a-b-da, 2, 1, 8, 9, 134, 59, 60, 135, 135, 60, 2, 1.30517
314, 2, wb, attraction, a-b-da, 5, 2, 8, 10, 165, 90, 161, 88, 90, 165, 2, 5.29887
314, 2, wb, attraction, a-b-da, 5, 2, 8, 10, 165, 90, 161, 88, 90, 165, 3, 0.388364
314, 2, wb, attraction, a-b-db, 2, 2, 8, 11, 165, 90, 90, 165, 89, 163, 1, 2.5868
314, 2, wb, attraction, a-b-db, 2, 2, 8, 11, 165, 90, 90, 165, 89, 163, 2, 0.617971
314, 2, wb, attraction, a-b-da, 2, 3, 8, 12, 195, 120, 120, 195, 193, 119, 1, 2.05511
314, 2, wb, attraction, a-b-da, 2, 3, 8, 12, 195, 120, 120, 195, 193, 119, 2, 0.539096
314, 2, wb, filler, NA, 999, 999, 8, 13, 144, 100, 73, 60, 116, 64, 2, 0.891551
314, 2, wb, filler, NA, 999, 999, 8, 13, 144, 100, 73, 60, 116, 64, 1, 0.422604
314, 2, wb, attraction, a-b-da, 9, 3, 8, 14, 195, 120, 186, 114, 120, 195, 1, 3.33975
314, 2, wb, attraction, a-b-da, 9, 3, 8, 14, 195, 120, 186, 114, 120, 195, 3, 0.372007
314, 2, wb, filler, NA, 999, 999, 8, 15, 137, 130, 161, 59, 166, 78, 2, 1.83515
314, 2, wb, filler, NA, 999, 999, 8, 15, 137, 130, 161, 59, 166, 78, 3, 0.504772
314, 2, wb, filler, NA, 999, 999, 8, 16, 138, 115, 142, 147, 107, 120, 3, 0.962417
314, 2, wb, filler, NA, 999, 999, 8, 16, 138, 115, 142, 147, 107, 120, 2, 0.474701
314, 2, wb, attraction, a-b-db, 14, 3, 8, 17, 111, 181, 120, 195, 195, 120, 1, 1.12511
314, 2, wb, attraction, a-b-db, 14, 3, 8, 17, 111, 181, 120, 195, 195, 120, 3, 1.03085
314, 2, wb, attraction, a-b-db, 9, 2, 8, 18, 165, 90, 90, 165, 86, 157, 3, 3.54725
314, 2, wb, attraction, a-b-db, 9, 2, 8, 18, 165, 90, 90, 165, 86, 157, 2, 0.451239
314, 2, wb, filler, NA, 999, 999, 8, 19, 161, 77, 75, 59, 80, 115, 2, 0.98309
314, 2, wb, filler, NA, 999, 999, 8, 19, 161, 77, 75, 59, 80, 115, 1, 0.734755
314, 2, wb, attraction, a-b-db, 14, 1, 8, 20, 60, 135, 56, 125, 135, 60, 3, 2.27924
314, 2, wb, attraction, a-b-db, 14, 1, 8, 20, 60, 135, 56, 125, 135, 60, 1, 0.93841
314, 2, wb, attraction, a-b-da, 14, 3, 8, 21, 181, 111, 120, 195, 195, 120, 1, 1.69861
314, 2, wb, attraction, a-b-da, 14, 3, 8, 21, 181, 111, 120, 195, 195, 120, 2, 0.957434
314, 2, wb, catch, NA, 999, 999, 8, 22, 100, 95, 181, 134, 105, 150, 1, 1.4444
314, 2, wb, catch, NA, 999, 999, 8, 22, 100, 95, 181, 134, 105, 150, 2, 0.369261
314, 2, wb, catch, NA, 999, 999, 8, 23, 60, 135, 192, 123, 128, 127, 1, 1.96051
314, 2, wb, catch, NA, 999, 999, 8, 23, 60, 135, 192, 123, 128, 127, 2, 0.34447
314, 2, wb, attraction, a-b-db, 5, 2, 8, 24, 88, 161, 90, 165, 165, 90, 3, 1.84024
314, 2, wb, attraction, a-b-db, 5, 2, 8, 24, 88, 161, 90, 165, 165, 90, 1, 0.492991
314, 2, wb, attraction, a-b-db, 14, 2, 8, 25, 90, 165, 83, 153, 165, 90, 3, 2.86277
314, 2, wb, attraction, a-b-db, 14, 2, 8, 25, 90, 165, 83, 153, 165, 90, 1, 0.362643
314, 2, wb, filler, NA, 999, 999, 8, 26, 145, 125, 65, 179, 97, 125, 3, 1.3137
314, 2, wb, filler, NA, 999, 999, 8, 26, 145, 125, 65, 179, 97, 125, 1, 0.539873
314, 2, wb, filler, NA, 999, 999, 8, 27, 145, 87, 68, 156, 151, 97, 1, 2.33165
314, 2, wb, filler, NA, 999, 999, 8, 27, 145, 87, 68, 156, 151, 97, 3, 0.541086
314, 2, wb, attraction, a-b-da, 9, 2, 8, 28, 90, 165, 157, 86, 165, 90, 2, 2.84473
314, 2, wb, attraction, a-b-da, 9, 2, 8, 28, 90, 165, 157, 86, 165, 90, 1, 0.545289
314, 2, wb, attraction, a-b-da, 2, 2, 8, 29, 90, 165, 165, 90, 163, 89, 2, 2.15295
314, 2, wb, attraction, a-b-da, 2, 2, 8, 29, 90, 165, 165, 90, 163, 89, 1, 0.817642
314, 2, wb, filler, NA, 999, 999, 8, 30, 92, 164, 90, 110, 58, 117, 3, 0.83854
314, 2, wb, filler, NA, 999, 999, 8, 30, 92, 164, 90, 110, 58, 117, 1, 0.843585
314, 2, wb, attraction, a-b-da, 5, 3, 8, 31, 120, 195, 195, 120, 190, 117, 3, 1.79924
314, 2, wb, attraction, a-b-da, 5, 3, 8, 31, 120, 195, 195, 120, 190, 117, 2, 0.502055
314, 2, wb, filler, NA, 999, 999, 8, 32, 118, 146, 118, 56, 158, 120, 2, 0.783754
314, 2, wb, filler, NA, 999, 999, 8, 32, 118, 146, 118, 56, 158, 120, 3, 0.615589
314, 2, wb, filler, NA, 999, 999, 8, 33, 150, 76, 101, 91, 106, 152, 2, 1.82857
314, 2, wb, filler, NA, 999, 999, 8, 33, 150, 76, 101, 91, 106, 152, 3, 0.898053
314, 2, wb, attraction, a-b-db, 5, 3, 8, 34, 195, 120, 117, 190, 120, 195, 1, 1.46763
314, 2, wb, attraction, a-b-db, 5, 3, 8, 34, 195, 120, 117, 190, 120, 195, 3, 0.519827
314, 2, wb, attraction, a-b-db, 2, 1, 8, 35, 59, 134, 60, 135, 135, 60, 3, 1.625
314, 2, wb, attraction, a-b-db, 2, 1, 8, 35, 59, 134, 60, 135, 135, 60, 2, 0.430631
314, 2, wb, attraction, a-b-db, 9, 3, 8, 36, 114, 186, 195, 120, 120, 195, 1, 3.89093
314, 2, wb, attraction, a-b-db, 9, 3, 8, 36, 114, 186, 195, 120, 120, 195, 3, 2.35706
314, 2, wb, attraction, a-b-db, 2, 3, 8, 37, 120, 195, 195, 120, 119, 193, 2, 1.57953
314, 2, wb, attraction, a-b-db, 2, 3, 8, 37, 120, 195, 195, 120, 119, 193, 3, 0.699029
