sub_n, computer_n, bw_cond, effect, set, distance, diag, block_n, trial_n, h1, w1, h2, w2, h3, w3, choice, rt 
320, 2, wb, practice, NA, 999, 999, 0, 1, 165, 148, 139, 145, 179, 158, 2, 5.16044
320, 2, wb, practice, NA, 999, 999, 0, 1, 165, 148, 139, 145, 179, 158, 3, 2.59984
320, 2, wb, practice, NA, 999, 999, 0, 2, 195, 182, 131, 89, 131, 69, 3, 3.13021
320, 2, wb, practice, NA, 999, 999, 0, 2, 195, 182, 131, 89, 131, 69, 1, 1.4989
320, 2, wb, practice, NA, 999, 999, 0, 3, 127, 162, 80, 79, 87, 153, 2, 3.15251
320, 2, wb, practice, NA, 999, 999, 0, 3, 127, 162, 80, 79, 87, 153, 1, 1.67424
320, 2, wb, filler, NA, 999, 999, 1, 1, 195, 95, 167, 145, 58, 83, 3, 1.7915
320, 2, wb, filler, NA, 999, 999, 1, 1, 195, 95, 167, 145, 58, 83, 2, 1.11028
320, 2, wb, filler, NA, 999, 999, 1, 2, 72, 172, 146, 152, 82, 176, 1, 2.45498
320, 2, wb, filler, NA, 999, 999, 1, 2, 72, 172, 146, 152, 82, 176, 2, 0.554871
320, 2, wb, filler, NA, 999, 999, 1, 3, 184, 68, 107, 189, 92, 138, 3, 3.60282
320, 2, wb, filler, NA, 999, 999, 1, 3, 184, 68, 107, 189, 92, 138, 2, 1.34487
320, 2, wb, attraction, a-b-db, 9, 1, 1, 4, 135, 60, 60, 135, 57, 129, 3, 3.96042
320, 2, wb, attraction, a-b-db, 9, 1, 1, 4, 135, 60, 60, 135, 57, 129, 1, 3.80786
320, 2, wb, attraction, a-b-da, 9, 3, 1, 5, 186, 114, 120, 195, 195, 120, 1, 3.29193
320, 2, wb, attraction, a-b-da, 9, 3, 1, 5, 186, 114, 120, 195, 195, 120, 2, 1.19814
320, 2, wb, attraction, a-b-db, 9, 3, 1, 6, 120, 195, 114, 186, 195, 120, 3, 4.15574
320, 2, wb, attraction, a-b-db, 9, 3, 1, 6, 120, 195, 114, 186, 195, 120, 1, 0.80306
320, 2, wb, attraction, a-b-da, 14, 3, 1, 7, 195, 120, 120, 195, 181, 111, 1, 2.44883
320, 2, wb, attraction, a-b-da, 14, 3, 1, 7, 195, 120, 120, 195, 181, 111, 2, 0.909321
320, 2, wb, attraction, a-b-da, 5, 3, 1, 8, 120, 195, 190, 117, 195, 120, 3, 2.31828
320, 2, wb, attraction, a-b-da, 5, 3, 1, 8, 120, 195, 190, 117, 195, 120, 1, 0.800198
320, 2, wb, filler, NA, 999, 999, 1, 9, 115, 100, 124, 148, 126, 168, 1, 2.11797
320, 2, wb, filler, NA, 999, 999, 1, 9, 115, 100, 124, 148, 126, 168, 3, 0.92
320, 2, wb, attraction, a-b-da, 14, 2, 1, 10, 90, 165, 153, 83, 165, 90, 2, 2.84097
320, 2, wb, attraction, a-b-da, 14, 2, 1, 10, 90, 165, 153, 83, 165, 90, 1, 1.0613
320, 2, wb, filler, NA, 999, 999, 1, 11, 112, 65, 145, 97, 104, 108, 1, 2.18428
320, 2, wb, filler, NA, 999, 999, 1, 11, 112, 65, 145, 97, 104, 108, 2, 2.51953
320, 2, wb, attraction, a-b-db, 14, 3, 1, 12, 195, 120, 120, 195, 111, 181, 1, 3.31999
320, 2, wb, attraction, a-b-db, 14, 3, 1, 12, 195, 120, 120, 195, 111, 181, 2, 1.09764
320, 2, wb, filler, NA, 999, 999, 1, 13, 191, 68, 192, 77, 192, 160, 1, 2.4353
320, 2, wb, filler, NA, 999, 999, 1, 13, 191, 68, 192, 77, 192, 160, 3, 0.86448
320, 2, wb, attraction, a-b-da, 5, 2, 1, 14, 90, 165, 161, 88, 165, 90, 2, 2.83543
320, 2, wb, attraction, a-b-da, 5, 2, 1, 14, 90, 165, 161, 88, 165, 90, 1, 0.640678
320, 2, wb, attraction, a-b-da, 2, 1, 1, 15, 134, 59, 135, 60, 60, 135, 1, 2.66831
320, 2, wb, attraction, a-b-da, 2, 1, 1, 15, 134, 59, 135, 60, 60, 135, 3, 1.87211
320, 2, wb, catch, NA, 999, 999, 1, 16, 159, 96, 127, 68, 153, 162, 2, 1.99477
320, 2, wb, catch, NA, 999, 999, 1, 16, 159, 96, 127, 68, 153, 162, 3, 0.681436
320, 2, wb, attraction, a-b-da, 9, 2, 1, 17, 165, 90, 157, 86, 90, 165, 2, 2.26787
320, 2, wb, attraction, a-b-da, 9, 2, 1, 17, 165, 90, 157, 86, 90, 165, 3, 3.35995
320, 2, wb, filler, NA, 999, 999, 1, 18, 65, 172, 192, 76, 97, 153, 2, 1.88616
320, 2, wb, filler, NA, 999, 999, 1, 18, 65, 172, 192, 76, 97, 153, 3, 0.53748
320, 2, wb, attraction, a-b-db, 14, 2, 1, 19, 165, 90, 83, 153, 90, 165, 1, 2.88988
320, 2, wb, attraction, a-b-db, 14, 2, 1, 19, 165, 90, 83, 153, 90, 165, 3, 1.86835
320, 2, wb, attraction, a-b-db, 5, 3, 1, 20, 120, 195, 117, 190, 195, 120, 3, 2.25508
320, 2, wb, attraction, a-b-db, 5, 3, 1, 20, 120, 195, 117, 190, 195, 120, 2, 0.594892
320, 2, wb, attraction, a-b-db, 5, 1, 1, 21, 58, 132, 60, 135, 135, 60, 3, 2.46462
320, 2, wb, attraction, a-b-db, 5, 1, 1, 21, 58, 132, 60, 135, 135, 60, 2, 0.82849
320, 2, wb, attraction, a-b-db, 14, 1, 1, 22, 135, 60, 60, 135, 56, 125, 1, 2.04083
320, 2, wb, attraction, a-b-db, 14, 1, 1, 22, 135, 60, 60, 135, 56, 125, 2, 0.757514
320, 2, wb, filler, NA, 999, 999, 1, 23, 137, 111, 100, 158, 154, 70, 3, 1.83653
320, 2, wb, filler, NA, 999, 999, 1, 23, 137, 111, 100, 158, 154, 70, 2, 0.705372
320, 2, wb, attraction, a-b-db, 2, 3, 1, 24, 120, 195, 119, 193, 195, 120, 3, 3.49914
320, 2, wb, attraction, a-b-db, 2, 3, 1, 24, 120, 195, 119, 193, 195, 120, 2, 0.837289
320, 2, wb, attraction, a-b-da, 14, 1, 1, 25, 125, 56, 135, 60, 60, 135, 1, 1.37754
320, 2, wb, attraction, a-b-da, 14, 1, 1, 25, 125, 56, 135, 60, 60, 135, 2, 0.689151
320, 2, wb, attraction, a-b-da, 2, 2, 1, 26, 165, 90, 90, 165, 163, 89, 3, 2.5315
320, 2, wb, attraction, a-b-da, 2, 2, 1, 26, 165, 90, 90, 165, 163, 89, 2, 0.908746
320, 2, wb, attraction, a-b-db, 2, 2, 1, 27, 165, 90, 89, 163, 90, 165, 1, 1.79771
320, 2, wb, attraction, a-b-db, 2, 2, 1, 27, 165, 90, 89, 163, 90, 165, 3, 2.08443
320, 2, wb, filler, NA, 999, 999, 1, 28, 80, 187, 75, 118, 148, 164, 2, 1.43842
320, 2, wb, filler, NA, 999, 999, 1, 28, 80, 187, 75, 118, 148, 164, 3, 0.739203
320, 2, wb, attraction, a-b-db, 5, 2, 1, 29, 88, 161, 90, 165, 165, 90, 3, 2.50761
320, 2, wb, attraction, a-b-db, 5, 2, 1, 29, 88, 161, 90, 165, 165, 90, 1, 0.957464
320, 2, wb, catch, NA, 999, 999, 1, 30, 171, 144, 98, 97, 102, 153, 2, 1.55644
320, 2, wb, catch, NA, 999, 999, 1, 30, 171, 144, 98, 97, 102, 153, 1, 0.628609
320, 2, wb, attraction, a-b-db, 9, 2, 1, 31, 165, 90, 90, 165, 86, 157, 1, 2.83299
320, 2, wb, attraction, a-b-db, 9, 2, 1, 31, 165, 90, 90, 165, 86, 157, 2, 0.81404
320, 2, wb, catch, NA, 999, 999, 1, 32, 153, 102, 124, 191, 105, 90, 3, 1.13104
320, 2, wb, catch, NA, 999, 999, 1, 32, 153, 102, 124, 191, 105, 90, 2, 0.844717
320, 2, wb, attraction, a-b-da, 2, 3, 1, 33, 193, 119, 195, 120, 120, 195, 1, 1.35233
320, 2, wb, attraction, a-b-da, 2, 3, 1, 33, 193, 119, 195, 120, 120, 195, 2, 2.0173
320, 2, wb, filler, NA, 999, 999, 1, 34, 71, 147, 141, 142, 173, 127, 1, 3.11007
320, 2, wb, filler, NA, 999, 999, 1, 34, 71, 147, 141, 142, 173, 127, 3, 1.32759
320, 2, wb, attraction, a-b-db, 2, 1, 1, 35, 59, 134, 60, 135, 135, 60, 3, 2.55175
320, 2, wb, attraction, a-b-db, 2, 1, 1, 35, 59, 134, 60, 135, 135, 60, 2, 0.960311
320, 2, wb, attraction, a-b-da, 9, 1, 1, 36, 135, 60, 129, 57, 60, 135, 2, 2.46324
320, 2, wb, attraction, a-b-da, 9, 1, 1, 36, 135, 60, 129, 57, 60, 135, 3, 0.683147
320, 2, wb, attraction, a-b-da, 5, 1, 1, 37, 135, 60, 132, 58, 60, 135, 1, 3.09349
320, 2, wb, attraction, a-b-da, 5, 1, 1, 37, 135, 60, 132, 58, 60, 135, 3, 0.783948
320, 2, wb, attraction, a-b-db, 5, 3, 2, 1, 195, 120, 117, 190, 120, 195, 3, 2.68616
320, 2, wb, attraction, a-b-db, 5, 3, 2, 1, 195, 120, 117, 190, 120, 195, 1, 1.34541
320, 2, wb, attraction, a-b-db, 9, 3, 2, 2, 195, 120, 120, 195, 114, 186, 3, 2.96883
320, 2, wb, attraction, a-b-db, 9, 3, 2, 2, 195, 120, 120, 195, 114, 186, 2, 1.45667
320, 2, wb, attraction, a-b-da, 2, 3, 2, 3, 193, 119, 195, 120, 120, 195, 1, 2.45144
320, 2, wb, attraction, a-b-da, 2, 3, 2, 3, 193, 119, 195, 120, 120, 195, 2, 2.36804
320, 2, wb, catch, NA, 999, 999, 2, 4, 98, 157, 89, 106, 121, 194, 2, 1.43852
320, 2, wb, catch, NA, 999, 999, 2, 4, 98, 157, 89, 106, 121, 194, 3, 0.811357
320, 2, wb, attraction, a-b-da, 2, 2, 2, 5, 90, 165, 163, 89, 165, 90, 3, 1.90442
320, 2, wb, attraction, a-b-da, 2, 2, 2, 5, 90, 165, 163, 89, 165, 90, 1, 1.0264
320, 2, wb, filler, NA, 999, 999, 2, 6, 138, 58, 140, 90, 57, 128, 1, 1.63874
320, 2, wb, filler, NA, 999, 999, 2, 6, 138, 58, 140, 90, 57, 128, 2, 1.33151
320, 2, wb, attraction, a-b-db, 14, 3, 2, 7, 195, 120, 120, 195, 111, 181, 3, 3.02786
320, 2, wb, attraction, a-b-db, 14, 3, 2, 7, 195, 120, 120, 195, 111, 181, 1, 0.896685
320, 2, wb, filler, NA, 999, 999, 2, 8, 69, 188, 184, 85, 145, 157, 1, 2.37034
320, 2, wb, filler, NA, 999, 999, 2, 8, 69, 188, 184, 85, 145, 157, 3, 1.20241
320, 2, wb, attraction, a-b-da, 5, 2, 2, 9, 161, 88, 165, 90, 90, 165, 1, 3.12784
320, 2, wb, attraction, a-b-da, 5, 2, 2, 9, 161, 88, 165, 90, 90, 165, 3, 0.800867
320, 2, wb, attraction, a-b-da, 9, 2, 2, 10, 165, 90, 157, 86, 90, 165, 1, 3.75859
320, 2, wb, attraction, a-b-da, 9, 2, 2, 10, 165, 90, 157, 86, 90, 165, 3, 1.45401
320, 2, wb, attraction, a-b-da, 9, 3, 2, 11, 195, 120, 186, 114, 120, 195, 3, 2.13753
320, 2, wb, attraction, a-b-da, 9, 3, 2, 11, 195, 120, 186, 114, 120, 195, 1, 0.746791
320, 2, wb, catch, NA, 999, 999, 2, 12, 156, 99, 96, 99, 148, 167, 2, 2.47446
320, 2, wb, catch, NA, 999, 999, 2, 12, 156, 99, 96, 99, 148, 167, 3, 0.701744
320, 2, wb, attraction, a-b-da, 14, 3, 2, 13, 120, 195, 181, 111, 195, 120, 2, 3.80741
320, 2, wb, attraction, a-b-da, 14, 3, 2, 13, 120, 195, 181, 111, 195, 120, 1, 1.03686
320, 2, wb, attraction, a-b-da, 2, 1, 2, 14, 60, 135, 134, 59, 135, 60, 1, 1.89714
320, 2, wb, attraction, a-b-da, 2, 1, 2, 14, 60, 135, 134, 59, 135, 60, 3, 1.10789
320, 2, wb, attraction, a-b-da, 5, 1, 2, 15, 60, 135, 132, 58, 135, 60, 2, 2.85285
320, 2, wb, attraction, a-b-da, 5, 1, 2, 15, 60, 135, 132, 58, 135, 60, 1, 0.793287
320, 2, wb, attraction, a-b-db, 9, 2, 2, 16, 86, 157, 90, 165, 165, 90, 1, 2.61495
320, 2, wb, attraction, a-b-db, 9, 2, 2, 16, 86, 157, 90, 165, 165, 90, 3, 0.860806
320, 2, wb, filler, NA, 999, 999, 2, 17, 63, 65, 157, 127, 149, 119, 1, 1.76765
320, 2, wb, filler, NA, 999, 999, 2, 17, 63, 65, 157, 127, 149, 119, 2, 0.703977
320, 2, wb, attraction, a-b-db, 14, 1, 2, 18, 56, 125, 60, 135, 135, 60, 1, 2.93755
320, 2, wb, attraction, a-b-db, 14, 1, 2, 18, 56, 125, 60, 135, 135, 60, 2, 2.35461
320, 2, wb, catch, NA, 999, 999, 2, 19, 162, 153, 74, 121, 98, 157, 2, 3.3218
320, 2, wb, catch, NA, 999, 999, 2, 19, 162, 153, 74, 121, 98, 157, 1, 0.410699
320, 2, wb, attraction, a-b-da, 9, 1, 2, 20, 60, 135, 135, 60, 129, 57, 1, 1.33599
320, 2, wb, attraction, a-b-da, 9, 1, 2, 20, 60, 135, 135, 60, 129, 57, 3, 1.24946
320, 2, wb, attraction, a-b-db, 5, 2, 2, 21, 88, 161, 90, 165, 165, 90, 3, 3.34113
320, 2, wb, attraction, a-b-db, 5, 2, 2, 21, 88, 161, 90, 165, 165, 90, 2, 1.0853
320, 2, wb, attraction, a-b-db, 2, 2, 2, 22, 89, 163, 165, 90, 90, 165, 3, 3.19954
320, 2, wb, attraction, a-b-db, 2, 2, 2, 22, 89, 163, 165, 90, 90, 165, 2, 2.38986
320, 2, wb, attraction, a-b-da, 14, 2, 2, 23, 90, 165, 153, 83, 165, 90, 2, 1.67573
320, 2, wb, attraction, a-b-da, 14, 2, 2, 23, 90, 165, 153, 83, 165, 90, 1, 0.759172
320, 2, wb, filler, NA, 999, 999, 2, 24, 174, 116, 104, 122, 178, 89, 2, 4.79814
320, 2, wb, filler, NA, 999, 999, 2, 24, 174, 116, 104, 122, 178, 89, 1, 0.852026
320, 2, wb, filler, NA, 999, 999, 2, 25, 103, 166, 87, 71, 164, 100, 2, 1.5437
320, 2, wb, filler, NA, 999, 999, 2, 25, 103, 166, 87, 71, 164, 100, 1, 0.896515
320, 2, wb, attraction, a-b-db, 9, 1, 2, 26, 60, 135, 57, 129, 135, 60, 2, 2.42611
320, 2, wb, attraction, a-b-db, 9, 1, 2, 26, 60, 135, 57, 129, 135, 60, 3, 0.248673
320, 2, wb, attraction, a-b-db, 14, 2, 2, 27, 165, 90, 83, 153, 90, 165, 1, 3.08329
320, 2, wb, attraction, a-b-db, 14, 2, 2, 27, 165, 90, 83, 153, 90, 165, 2, 0.87833
320, 2, wb, filler, NA, 999, 999, 2, 28, 151, 109, 135, 103, 82, 60, 3, 1.15261
320, 2, wb, filler, NA, 999, 999, 2, 28, 151, 109, 135, 103, 82, 60, 1, 0.657457
320, 2, wb, attraction, a-b-da, 14, 1, 2, 29, 60, 135, 125, 56, 135, 60, 1, 1.42073
320, 2, wb, attraction, a-b-da, 14, 1, 2, 29, 60, 135, 125, 56, 135, 60, 3, 1.59415
320, 2, wb, attraction, a-b-db, 2, 1, 2, 30, 135, 60, 59, 134, 60, 135, 1, 1.65549
320, 2, wb, attraction, a-b-db, 2, 1, 2, 30, 135, 60, 59, 134, 60, 135, 2, 0.66772
320, 2, wb, attraction, a-b-da, 5, 3, 2, 31, 120, 195, 190, 117, 195, 120, 1, 2.51876
320, 2, wb, attraction, a-b-da, 5, 3, 2, 31, 120, 195, 190, 117, 195, 120, 2, 0.976642
320, 2, wb, filler, NA, 999, 999, 2, 32, 147, 139, 107, 91, 66, 140, 2, 2.19901
320, 2, wb, filler, NA, 999, 999, 2, 32, 147, 139, 107, 91, 66, 140, 1, 0.557544
320, 2, wb, filler, NA, 999, 999, 2, 33, 123, 84, 60, 174, 117, 145, 1, 2.94065
320, 2, wb, filler, NA, 999, 999, 2, 33, 123, 84, 60, 174, 117, 145, 3, 0.756984
320, 2, wb, filler, NA, 999, 999, 2, 34, 99, 97, 59, 75, 76, 105, 2, 1.37999
320, 2, wb, filler, NA, 999, 999, 2, 34, 99, 97, 59, 75, 76, 105, 1, 0.731626
320, 2, wb, attraction, a-b-db, 2, 3, 2, 35, 195, 120, 119, 193, 120, 195, 3, 3.16402
320, 2, wb, attraction, a-b-db, 2, 3, 2, 35, 195, 120, 119, 193, 120, 195, 1, 1.26764
320, 2, wb, filler, NA, 999, 999, 2, 36, 57, 66, 80, 175, 103, 160, 1, 1.21452
320, 2, wb, filler, NA, 999, 999, 2, 36, 57, 66, 80, 175, 103, 160, 3, 3.26873
320, 2, wb, attraction, a-b-db, 5, 1, 2, 37, 135, 60, 58, 132, 60, 135, 1, 2.42302
320, 2, wb, attraction, a-b-db, 5, 1, 2, 37, 135, 60, 58, 132, 60, 135, 2, 0.8042
320, 2, wb, attraction, a-b-da, 9, 2, 3, 1, 157, 86, 90, 165, 165, 90, 1, 2.68986
320, 2, wb, attraction, a-b-da, 9, 2, 3, 1, 157, 86, 90, 165, 165, 90, 3, 1.59642
320, 2, wb, filler, NA, 999, 999, 3, 2, 107, 175, 99, 130, 157, 131, 2, 2.77788
320, 2, wb, filler, NA, 999, 999, 3, 2, 107, 175, 99, 130, 157, 131, 1, 0.528885
320, 2, wb, filler, NA, 999, 999, 3, 3, 90, 81, 154, 154, 121, 73, 1, 1.64138
320, 2, wb, filler, NA, 999, 999, 3, 3, 90, 81, 154, 154, 121, 73, 2, 0.55014
320, 2, wb, attraction, a-b-da, 2, 1, 3, 4, 135, 60, 60, 135, 134, 59, 3, 2.60586
320, 2, wb, attraction, a-b-da, 2, 1, 3, 4, 135, 60, 60, 135, 134, 59, 1, 1.55584
320, 2, wb, attraction, a-b-da, 2, 2, 3, 5, 165, 90, 163, 89, 90, 165, 1, 2.62722
320, 2, wb, attraction, a-b-da, 2, 2, 3, 5, 165, 90, 163, 89, 90, 165, 3, 0.544342
320, 2, wb, catch, NA, 999, 999, 3, 6, 123, 132, 127, 68, 126, 189, 2, 1.66415
320, 2, wb, catch, NA, 999, 999, 3, 6, 123, 132, 127, 68, 126, 189, 3, 0.684237
320, 2, wb, attraction, a-b-da, 14, 2, 3, 7, 153, 83, 165, 90, 90, 165, 1, 3.83063
320, 2, wb, attraction, a-b-da, 14, 2, 3, 7, 153, 83, 165, 90, 90, 165, 3, 0.915537
320, 2, wb, attraction, a-b-db, 14, 2, 3, 8, 165, 90, 90, 165, 83, 153, 3, 1.61248
320, 2, wb, attraction, a-b-db, 14, 2, 3, 8, 165, 90, 90, 165, 83, 153, 1, 0.650516
320, 2, wb, attraction, a-b-db, 5, 3, 3, 9, 120, 195, 195, 120, 117, 190, 3, 2.50235
320, 2, wb, attraction, a-b-db, 5, 3, 3, 9, 120, 195, 195, 120, 117, 190, 2, 1.89684
320, 2, wb, attraction, a-b-da, 2, 3, 3, 10, 195, 120, 120, 195, 193, 119, 2, 3.40222
320, 2, wb, attraction, a-b-da, 2, 3, 3, 10, 195, 120, 120, 195, 193, 119, 3, 0.600376
320, 2, wb, attraction, a-b-da, 14, 3, 3, 11, 195, 120, 120, 195, 181, 111, 3, 2.06216
320, 2, wb, attraction, a-b-da, 14, 3, 3, 11, 195, 120, 120, 195, 181, 111, 2, 0.626611
320, 2, wb, attraction, a-b-db, 9, 2, 3, 12, 90, 165, 165, 90, 86, 157, 2, 3.5106
320, 2, wb, attraction, a-b-db, 9, 2, 3, 12, 90, 165, 165, 90, 86, 157, 1, 0.632173
320, 2, wb, attraction, a-b-db, 2, 2, 3, 13, 165, 90, 90, 165, 89, 163, 3, 2.35663
320, 2, wb, attraction, a-b-db, 2, 2, 3, 13, 165, 90, 90, 165, 89, 163, 1, 0.684458
320, 2, wb, attraction, a-b-db, 14, 1, 3, 14, 135, 60, 56, 125, 60, 135, 1, 4.21493
320, 2, wb, attraction, a-b-db, 14, 1, 3, 14, 135, 60, 56, 125, 60, 135, 2, 0.516322
320, 2, wb, filler, NA, 999, 999, 3, 15, 84, 60, 102, 160, 63, 141, 1, 1.15725
320, 2, wb, filler, NA, 999, 999, 3, 15, 84, 60, 102, 160, 63, 141, 2, 0.549506
320, 2, wb, attraction, a-b-da, 14, 1, 3, 16, 125, 56, 60, 135, 135, 60, 1, 1.74129
320, 2, wb, attraction, a-b-da, 14, 1, 3, 16, 125, 56, 60, 135, 135, 60, 2, 1.47009
320, 2, wb, filler, NA, 999, 999, 3, 17, 100, 169, 194, 127, 169, 96, 1, 1.93683
320, 2, wb, filler, NA, 999, 999, 3, 17, 100, 169, 194, 127, 169, 96, 2, 0.897764
320, 2, wb, attraction, a-b-da, 5, 1, 3, 18, 60, 135, 135, 60, 132, 58, 3, 1.72333
320, 2, wb, attraction, a-b-da, 5, 1, 3, 18, 60, 135, 135, 60, 132, 58, 2, 1.23663
320, 2, wb, filler, NA, 999, 999, 3, 19, 61, 172, 82, 148, 139, 150, 2, 2.5769
320, 2, wb, filler, NA, 999, 999, 3, 19, 61, 172, 82, 148, 139, 150, 3, 0.568135
320, 2, wb, attraction, a-b-db, 14, 3, 3, 20, 195, 120, 120, 195, 111, 181, 1, 4.57509
320, 2, wb, attraction, a-b-db, 14, 3, 3, 20, 195, 120, 120, 195, 111, 181, 2, 0.749641
320, 2, wb, attraction, a-b-db, 5, 2, 3, 21, 90, 165, 165, 90, 88, 161, 3, 2.69338
320, 2, wb, attraction, a-b-db, 5, 2, 3, 21, 90, 165, 165, 90, 88, 161, 2, 0.535846
320, 2, wb, filler, NA, 999, 999, 3, 22, 111, 175, 56, 126, 155, 188, 2, 1.44833
320, 2, wb, filler, NA, 999, 999, 3, 22, 111, 175, 56, 126, 155, 188, 3, 0.605223
320, 2, wb, filler, NA, 999, 999, 3, 23, 95, 72, 175, 75, 166, 56, 1, 1.60304
320, 2, wb, filler, NA, 999, 999, 3, 23, 95, 72, 175, 75, 166, 56, 2, 0.84179
320, 2, wb, attraction, a-b-db, 2, 1, 3, 24, 135, 60, 60, 135, 59, 134, 3, 2.29341
320, 2, wb, attraction, a-b-db, 2, 1, 3, 24, 135, 60, 60, 135, 59, 134, 1, 1.328
320, 2, wb, catch, NA, 999, 999, 3, 25, 106, 149, 88, 107, 137, 178, 2, 1.60018
320, 2, wb, catch, NA, 999, 999, 3, 25, 106, 149, 88, 107, 137, 178, 3, 0.58304
320, 2, wb, filler, NA, 999, 999, 3, 26, 139, 86, 150, 140, 149, 192, 1, 1.42141
320, 2, wb, filler, NA, 999, 999, 3, 26, 139, 86, 150, 140, 149, 192, 3, 0.498977
320, 2, wb, attraction, a-b-da, 5, 3, 3, 27, 195, 120, 190, 117, 120, 195, 2, 4.14077
320, 2, wb, attraction, a-b-da, 5, 3, 3, 27, 195, 120, 190, 117, 120, 195, 3, 1.76478
320, 2, wb, attraction, a-b-da, 9, 3, 3, 28, 120, 195, 186, 114, 195, 120, 2, 3.50752
320, 2, wb, attraction, a-b-da, 9, 3, 3, 28, 120, 195, 186, 114, 195, 120, 1, 0.389017
320, 2, wb, attraction, a-b-db, 9, 1, 3, 29, 60, 135, 135, 60, 57, 129, 3, 1.92346
320, 2, wb, attraction, a-b-db, 9, 1, 3, 29, 60, 135, 135, 60, 57, 129, 1, 1.18886
320, 2, wb, attraction, a-b-db, 5, 1, 3, 30, 60, 135, 58, 132, 135, 60, 3, 1.90716
320, 2, wb, attraction, a-b-db, 5, 1, 3, 30, 60, 135, 58, 132, 135, 60, 1, 0.717118
320, 2, wb, catch, NA, 999, 999, 3, 31, 132, 63, 91, 164, 159, 156, 1, 1.47022
320, 2, wb, catch, NA, 999, 999, 3, 31, 132, 63, 91, 164, 159, 156, 3, 0.633671
320, 2, wb, filler, NA, 999, 999, 3, 32, 97, 108, 56, 163, 120, 187, 2, 3.01438
320, 2, wb, filler, NA, 999, 999, 3, 32, 97, 108, 56, 163, 120, 187, 3, 0.683824
320, 2, wb, attraction, a-b-da, 5, 2, 3, 33, 165, 90, 161, 88, 90, 165, 3, 3.12622
320, 2, wb, attraction, a-b-da, 5, 2, 3, 33, 165, 90, 161, 88, 90, 165, 2, 0.831269
320, 2, wb, attraction, a-b-da, 9, 1, 3, 34, 135, 60, 129, 57, 60, 135, 3, 1.74756
320, 2, wb, attraction, a-b-da, 9, 1, 3, 34, 135, 60, 129, 57, 60, 135, 2, 0.588253
320, 2, wb, filler, NA, 999, 999, 3, 35, 145, 173, 59, 58, 193, 76, 2, 1.38667
320, 2, wb, filler, NA, 999, 999, 3, 35, 145, 173, 59, 58, 193, 76, 1, 0.45838
320, 2, wb, attraction, a-b-db, 2, 3, 3, 36, 120, 195, 119, 193, 195, 120, 3, 1.99744
320, 2, wb, attraction, a-b-db, 2, 3, 3, 36, 120, 195, 119, 193, 195, 120, 2, 0.436058
320, 2, wb, attraction, a-b-db, 9, 3, 3, 37, 120, 195, 195, 120, 114, 186, 1, 2.35256
320, 2, wb, attraction, a-b-db, 9, 3, 3, 37, 120, 195, 195, 120, 114, 186, 2, 0.529127
320, 2, wb, attraction, a-b-da, 5, 1, 4, 1, 135, 60, 132, 58, 60, 135, 1, 1.11358
320, 2, wb, attraction, a-b-da, 5, 1, 4, 1, 135, 60, 132, 58, 60, 135, 3, 0.731932
320, 2, wb, attraction, a-b-da, 2, 2, 4, 2, 90, 165, 165, 90, 163, 89, 3, 1.58032
320, 2, wb, attraction, a-b-da, 2, 2, 4, 2, 90, 165, 165, 90, 163, 89, 1, 0.403773
320, 2, wb, attraction, a-b-db, 9, 1, 4, 3, 57, 129, 60, 135, 135, 60, 1, 1.13759
320, 2, wb, attraction, a-b-db, 9, 1, 4, 3, 57, 129, 60, 135, 135, 60, 3, 1.0986
320, 2, wb, attraction, a-b-da, 14, 1, 4, 4, 125, 56, 135, 60, 60, 135, 3, 2.62816
320, 2, wb, attraction, a-b-da, 14, 1, 4, 4, 125, 56, 135, 60, 60, 135, 1, 0.449296
320, 2, wb, attraction, a-b-db, 5, 3, 4, 5, 117, 190, 120, 195, 195, 120, 3, 1.93304
320, 2, wb, attraction, a-b-db, 5, 3, 4, 5, 117, 190, 120, 195, 195, 120, 2, 0.566425
320, 2, wb, attraction, a-b-da, 9, 2, 4, 6, 157, 86, 165, 90, 90, 165, 2, 2.65359
320, 2, wb, attraction, a-b-da, 9, 2, 4, 6, 157, 86, 165, 90, 90, 165, 3, 0.610048
320, 2, wb, filler, NA, 999, 999, 4, 7, 161, 99, 84, 126, 146, 57, 3, 1.89512
320, 2, wb, filler, NA, 999, 999, 4, 7, 161, 99, 84, 126, 146, 57, 1, 0.88981
320, 2, wb, attraction, a-b-db, 5, 2, 4, 8, 88, 161, 90, 165, 165, 90, 2, 2.92355
320, 2, wb, attraction, a-b-db, 5, 2, 4, 8, 88, 161, 90, 165, 165, 90, 3, 1.50859
320, 2, wb, attraction, a-b-da, 2, 3, 4, 9, 120, 195, 195, 120, 193, 119, 3, 1.34138
320, 2, wb, attraction, a-b-da, 2, 3, 4, 9, 120, 195, 195, 120, 193, 119, 1, 0.958237
320, 2, wb, filler, NA, 999, 999, 4, 10, 133, 86, 112, 88, 90, 175, 2, 1.33317
320, 2, wb, filler, NA, 999, 999, 4, 10, 133, 86, 112, 88, 90, 175, 3, 0.478724
320, 2, wb, attraction, a-b-da, 5, 3, 4, 11, 195, 120, 120, 195, 190, 117, 2, 3.52599
320, 2, wb, attraction, a-b-da, 5, 3, 4, 11, 195, 120, 120, 195, 190, 117, 3, 0.818117
320, 2, wb, filler, NA, 999, 999, 4, 12, 66, 111, 149, 135, 135, 162, 3, 1.71906
320, 2, wb, filler, NA, 999, 999, 4, 12, 66, 111, 149, 135, 135, 162, 1, 0.601188
320, 2, wb, filler, NA, 999, 999, 4, 13, 178, 86, 122, 62, 95, 97, 2, 3.09794
320, 2, wb, filler, NA, 999, 999, 4, 13, 178, 86, 122, 62, 95, 97, 1, 0.7613
320, 2, wb, filler, NA, 999, 999, 4, 14, 76, 98, 76, 137, 113, 195, 1, 2.95228
320, 2, wb, filler, NA, 999, 999, 4, 14, 76, 98, 76, 137, 113, 195, 3, 0.496699
320, 2, wb, attraction, a-b-db, 2, 2, 4, 15, 165, 90, 90, 165, 89, 163, 1, 2.36263
320, 2, wb, attraction, a-b-db, 2, 2, 4, 15, 165, 90, 90, 165, 89, 163, 2, 2.13048
320, 2, wb, catch, NA, 999, 999, 4, 16, 141, 174, 117, 78, 112, 143, 2, 1.09841
320, 2, wb, catch, NA, 999, 999, 4, 16, 141, 174, 117, 78, 112, 143, 1, 0.373288
320, 2, wb, catch, NA, 999, 999, 4, 17, 161, 94, 97, 98, 180, 135, 2, 0.987904
320, 2, wb, catch, NA, 999, 999, 4, 17, 161, 94, 97, 98, 180, 135, 3, 0.51487
320, 2, wb, attraction, a-b-da, 5, 2, 4, 18, 161, 88, 165, 90, 90, 165, 2, 2.05991
320, 2, wb, attraction, a-b-da, 5, 2, 4, 18, 161, 88, 165, 90, 90, 165, 3, 0.383919
320, 2, wb, filler, NA, 999, 999, 4, 19, 155, 85, 155, 189, 129, 121, 1, 1.27044
320, 2, wb, filler, NA, 999, 999, 4, 19, 155, 85, 155, 189, 129, 121, 2, 0.417964
320, 2, wb, filler, NA, 999, 999, 4, 20, 96, 186, 112, 66, 93, 100, 2, 1.98312
320, 2, wb, filler, NA, 999, 999, 4, 20, 96, 186, 112, 66, 93, 100, 1, 0.670479
320, 2, wb, catch, NA, 999, 999, 4, 21, 178, 137, 105, 90, 145, 110, 2, 1.39357
320, 2, wb, catch, NA, 999, 999, 4, 21, 178, 137, 105, 90, 145, 110, 1, 0.424488
320, 2, wb, attraction, a-b-da, 9, 1, 4, 22, 135, 60, 129, 57, 60, 135, 2, 0.972956
320, 2, wb, attraction, a-b-da, 9, 1, 4, 22, 135, 60, 129, 57, 60, 135, 3, 0.636577
320, 2, wb, attraction, a-b-da, 14, 2, 4, 23, 153, 83, 165, 90, 90, 165, 3, 1.74499
320, 2, wb, attraction, a-b-da, 14, 2, 4, 23, 153, 83, 165, 90, 90, 165, 2, 0.393761
320, 2, wb, filler, NA, 999, 999, 4, 24, 61, 142, 147, 129, 112, 153, 1, 1.07153
320, 2, wb, filler, NA, 999, 999, 4, 24, 61, 142, 147, 129, 112, 153, 2, 0.475177
320, 2, wb, filler, NA, 999, 999, 4, 25, 185, 161, 123, 191, 192, 151, 2, 1.3737
320, 2, wb, filler, NA, 999, 999, 4, 25, 185, 161, 123, 191, 192, 151, 1, 0.67717
320, 2, wb, attraction, a-b-db, 14, 1, 4, 26, 56, 125, 60, 135, 135, 60, 1, 3.5516
320, 2, wb, attraction, a-b-db, 14, 1, 4, 26, 56, 125, 60, 135, 135, 60, 3, 0.631791
320, 2, wb, attraction, a-b-db, 9, 2, 4, 27, 90, 165, 86, 157, 165, 90, 3, 1.98022
320, 2, wb, attraction, a-b-db, 9, 2, 4, 27, 90, 165, 86, 157, 165, 90, 2, 0.611508
320, 2, wb, attraction, a-b-db, 2, 3, 4, 28, 120, 195, 195, 120, 119, 193, 1, 1.9927
320, 2, wb, attraction, a-b-db, 2, 3, 4, 28, 120, 195, 195, 120, 119, 193, 2, 0.71931
320, 2, wb, attraction, a-b-da, 14, 3, 4, 29, 195, 120, 120, 195, 181, 111, 3, 2.06438
320, 2, wb, attraction, a-b-da, 14, 3, 4, 29, 195, 120, 120, 195, 181, 111, 2, 0.988378
320, 2, wb, filler, NA, 999, 999, 4, 30, 73, 156, 191, 66, 131, 83, 3, 1.91466
320, 2, wb, filler, NA, 999, 999, 4, 30, 73, 156, 191, 66, 131, 83, 2, 0.580641
320, 2, wb, attraction, a-b-db, 9, 3, 4, 31, 120, 195, 114, 186, 195, 120, 1, 4.75513
320, 2, wb, attraction, a-b-db, 9, 3, 4, 31, 120, 195, 114, 186, 195, 120, 3, 0.482943
320, 2, wb, attraction, a-b-db, 2, 1, 4, 32, 135, 60, 60, 135, 59, 134, 1, 1.8214
320, 2, wb, attraction, a-b-db, 2, 1, 4, 32, 135, 60, 60, 135, 59, 134, 2, 0.490955
320, 2, wb, attraction, a-b-da, 9, 3, 4, 33, 120, 195, 186, 114, 195, 120, 2, 2.38062
320, 2, wb, attraction, a-b-da, 9, 3, 4, 33, 120, 195, 186, 114, 195, 120, 1, 0.379782
320, 2, wb, attraction, a-b-db, 14, 2, 4, 34, 90, 165, 165, 90, 83, 153, 1, 2.23432
320, 2, wb, attraction, a-b-db, 14, 2, 4, 34, 90, 165, 165, 90, 83, 153, 2, 0.663611
320, 2, wb, attraction, a-b-db, 5, 1, 4, 35, 58, 132, 135, 60, 60, 135, 3, 1.81872
320, 2, wb, attraction, a-b-db, 5, 1, 4, 35, 58, 132, 135, 60, 60, 135, 2, 1.33679
320, 2, wb, attraction, a-b-da, 2, 1, 4, 36, 134, 59, 60, 135, 135, 60, 1, 1.36095
320, 2, wb, attraction, a-b-da, 2, 1, 4, 36, 134, 59, 60, 135, 135, 60, 2, 0.481133
320, 2, wb, attraction, a-b-db, 14, 3, 4, 37, 111, 181, 195, 120, 120, 195, 1, 1.61961
320, 2, wb, attraction, a-b-db, 14, 3, 4, 37, 111, 181, 195, 120, 120, 195, 2, 2.06575
320, 2, wb, filler, NA, 999, 999, 5, 1, 181, 146, 90, 62, 177, 184, 2, 2.23496
320, 2, wb, filler, NA, 999, 999, 5, 1, 181, 146, 90, 62, 177, 184, 3, 0.74427
320, 2, wb, catch, NA, 999, 999, 5, 2, 130, 125, 163, 152, 104, 91, 3, 1.40802
320, 2, wb, catch, NA, 999, 999, 5, 2, 130, 125, 163, 152, 104, 91, 2, 0.582178
320, 2, wb, filler, NA, 999, 999, 5, 3, 77, 117, 185, 132, 127, 111, 1, 0.956546
320, 2, wb, filler, NA, 999, 999, 5, 3, 77, 117, 185, 132, 127, 111, 2, 0.484994
320, 2, wb, attraction, a-b-da, 14, 1, 5, 4, 125, 56, 60, 135, 135, 60, 1, 1.97541
320, 2, wb, attraction, a-b-da, 14, 1, 5, 4, 125, 56, 60, 135, 135, 60, 2, 0.686767
320, 2, wb, catch, NA, 999, 999, 5, 5, 151, 104, 125, 190, 132, 63, 3, 1.21719
320, 2, wb, catch, NA, 999, 999, 5, 5, 151, 104, 125, 190, 132, 63, 2, 0.407362
320, 2, wb, attraction, a-b-db, 5, 2, 5, 6, 90, 165, 88, 161, 165, 90, 2, 2.04453
320, 2, wb, attraction, a-b-db, 5, 2, 5, 6, 90, 165, 88, 161, 165, 90, 3, 1.01717
320, 2, wb, filler, NA, 999, 999, 5, 7, 133, 125, 111, 65, 139, 71, 2, 1.31824
320, 2, wb, filler, NA, 999, 999, 5, 7, 133, 125, 111, 65, 139, 71, 1, 0.512405
320, 2, wb, filler, NA, 999, 999, 5, 8, 133, 141, 134, 63, 137, 116, 2, 2.03356
320, 2, wb, filler, NA, 999, 999, 5, 8, 133, 141, 134, 63, 137, 116, 1, 0.486903
320, 2, wb, attraction, a-b-db, 5, 1, 5, 9, 135, 60, 60, 135, 58, 132, 1, 2.04135
320, 2, wb, attraction, a-b-db, 5, 1, 5, 9, 135, 60, 60, 135, 58, 132, 2, 0.41806
320, 2, wb, attraction, a-b-db, 9, 1, 5, 10, 60, 135, 135, 60, 57, 129, 2, 2.22715
320, 2, wb, attraction, a-b-db, 9, 1, 5, 10, 60, 135, 135, 60, 57, 129, 1, 0.432357
320, 2, wb, filler, NA, 999, 999, 5, 11, 133, 110, 156, 71, 106, 125, 2, 2.66886
320, 2, wb, filler, NA, 999, 999, 5, 11, 133, 110, 156, 71, 106, 125, 1, 0.592713
320, 2, wb, attraction, a-b-db, 14, 3, 5, 12, 195, 120, 120, 195, 111, 181, 3, 1.92651
320, 2, wb, attraction, a-b-db, 14, 3, 5, 12, 195, 120, 120, 195, 111, 181, 2, 1.84799
320, 2, wb, attraction, a-b-da, 2, 3, 5, 13, 120, 195, 195, 120, 193, 119, 3, 4.11517
320, 2, wb, attraction, a-b-da, 2, 3, 5, 13, 120, 195, 195, 120, 193, 119, 2, 1.18854
320, 2, wb, attraction, a-b-da, 5, 1, 5, 14, 135, 60, 132, 58, 60, 135, 1, 0.970805
320, 2, wb, attraction, a-b-da, 5, 1, 5, 14, 135, 60, 132, 58, 60, 135, 3, 0.426444
320, 2, wb, attraction, a-b-da, 14, 2, 5, 15, 165, 90, 90, 165, 153, 83, 3, 1.36699
320, 2, wb, attraction, a-b-da, 14, 2, 5, 15, 165, 90, 90, 165, 153, 83, 1, 1.1432
320, 2, wb, filler, NA, 999, 999, 5, 16, 85, 86, 148, 182, 76, 92, 3, 1.63871
320, 2, wb, filler, NA, 999, 999, 5, 16, 85, 86, 148, 182, 76, 92, 2, 0.387503
320, 2, wb, attraction, a-b-db, 9, 3, 5, 17, 114, 186, 120, 195, 195, 120, 1, 3.44999
320, 2, wb, attraction, a-b-db, 9, 3, 5, 17, 114, 186, 120, 195, 195, 120, 2, 0.91019
320, 2, wb, attraction, a-b-db, 5, 3, 5, 18, 117, 190, 120, 195, 195, 120, 1, 2.70318
320, 2, wb, attraction, a-b-db, 5, 3, 5, 18, 117, 190, 120, 195, 195, 120, 3, 2.47379
320, 2, wb, attraction, a-b-da, 14, 3, 5, 19, 120, 195, 181, 111, 195, 120, 3, 1.29218
320, 2, wb, attraction, a-b-da, 14, 3, 5, 19, 120, 195, 181, 111, 195, 120, 1, 0.391051
320, 2, wb, filler, NA, 999, 999, 5, 20, 163, 141, 161, 162, 194, 139, 1, 1.53288
320, 2, wb, filler, NA, 999, 999, 5, 20, 163, 141, 161, 162, 194, 139, 3, 1.17438
320, 2, wb, attraction, a-b-da, 5, 2, 5, 21, 161, 88, 165, 90, 90, 165, 1, 1.53264
320, 2, wb, attraction, a-b-da, 5, 2, 5, 21, 161, 88, 165, 90, 90, 165, 3, 0.414128
320, 2, wb, attraction, a-b-da, 9, 3, 5, 22, 120, 195, 186, 114, 195, 120, 3, 1.22729
320, 2, wb, attraction, a-b-da, 9, 3, 5, 22, 120, 195, 186, 114, 195, 120, 1, 0.976896
320, 2, wb, filler, NA, 999, 999, 5, 23, 193, 139, 170, 138, 67, 188, 3, 0.935165
320, 2, wb, filler, NA, 999, 999, 5, 23, 193, 139, 170, 138, 67, 188, 1, 0.792824
320, 2, wb, attraction, a-b-db, 14, 1, 5, 24, 135, 60, 60, 135, 56, 125, 2, 0.926603
320, 2, wb, attraction, a-b-db, 14, 1, 5, 24, 135, 60, 60, 135, 56, 125, 1, 0.664207
320, 2, wb, attraction, a-b-da, 9, 2, 5, 25, 90, 165, 157, 86, 165, 90, 3, 0.827291
320, 2, wb, attraction, a-b-da, 9, 2, 5, 25, 90, 165, 157, 86, 165, 90, 1, 2.66511
320, 2, wb, filler, NA, 999, 999, 5, 26, 65, 119, 67, 79, 133, 79, 2, 0.771444
320, 2, wb, filler, NA, 999, 999, 5, 26, 65, 119, 67, 79, 133, 79, 3, 0.619212
320, 2, wb, attraction, a-b-db, 2, 2, 5, 27, 89, 163, 165, 90, 90, 165, 3, 2.92825
320, 2, wb, attraction, a-b-db, 2, 2, 5, 27, 89, 163, 165, 90, 90, 165, 2, 0.489312
320, 2, wb, attraction, a-b-db, 2, 3, 5, 28, 195, 120, 120, 195, 119, 193, 3, 1.89109
320, 2, wb, attraction, a-b-db, 2, 3, 5, 28, 195, 120, 120, 195, 119, 193, 1, 0.613761
320, 2, wb, catch, NA, 999, 999, 5, 29, 98, 97, 157, 158, 134, 121, 1, 0.802815
320, 2, wb, catch, NA, 999, 999, 5, 29, 98, 97, 157, 158, 134, 121, 2, 0.530145
320, 2, wb, attraction, a-b-da, 2, 1, 5, 30, 135, 60, 134, 59, 60, 135, 3, 1.29036
320, 2, wb, attraction, a-b-da, 2, 1, 5, 30, 135, 60, 134, 59, 60, 135, 1, 0.765322
320, 2, wb, attraction, a-b-db, 14, 2, 5, 31, 165, 90, 90, 165, 83, 153, 3, 1.97232
320, 2, wb, attraction, a-b-db, 14, 2, 5, 31, 165, 90, 90, 165, 83, 153, 1, 1.83571
320, 2, wb, attraction, a-b-da, 9, 1, 5, 32, 135, 60, 129, 57, 60, 135, 2, 1.40766
320, 2, wb, attraction, a-b-da, 9, 1, 5, 32, 135, 60, 129, 57, 60, 135, 3, 0.526007
320, 2, wb, attraction, a-b-db, 9, 2, 5, 33, 90, 165, 86, 157, 165, 90, 3, 3.51036
320, 2, wb, attraction, a-b-db, 9, 2, 5, 33, 90, 165, 86, 157, 165, 90, 1, 0.855977
320, 2, wb, filler, NA, 999, 999, 5, 34, 122, 154, 118, 186, 173, 95, 1, 1.99557
320, 2, wb, filler, NA, 999, 999, 5, 34, 122, 154, 118, 186, 173, 95, 2, 0.79425
320, 2, wb, attraction, a-b-da, 2, 2, 5, 35, 165, 90, 90, 165, 163, 89, 2, 2.54403
320, 2, wb, attraction, a-b-da, 2, 2, 5, 35, 165, 90, 90, 165, 163, 89, 1, 0.912478
320, 2, wb, attraction, a-b-db, 2, 1, 5, 36, 59, 134, 135, 60, 60, 135, 1, 1.57747
320, 2, wb, attraction, a-b-db, 2, 1, 5, 36, 59, 134, 135, 60, 60, 135, 3, 0.872939
320, 2, wb, attraction, a-b-da, 5, 3, 5, 37, 120, 195, 190, 117, 195, 120, 3, 1.46729
320, 2, wb, attraction, a-b-da, 5, 3, 5, 37, 120, 195, 190, 117, 195, 120, 1, 0.743486
320, 2, wb, attraction, a-b-db, 9, 2, 6, 1, 86, 157, 90, 165, 165, 90, 3, 2.4471
320, 2, wb, attraction, a-b-db, 9, 2, 6, 1, 86, 157, 90, 165, 165, 90, 2, 0.371679
320, 2, wb, filler, NA, 999, 999, 6, 2, 73, 186, 92, 75, 105, 109, 2, 1.89089
320, 2, wb, filler, NA, 999, 999, 6, 2, 73, 186, 92, 75, 105, 109, 1, 0.485574
320, 2, wb, filler, NA, 999, 999, 6, 3, 165, 173, 135, 109, 89, 120, 3, 1.31205
320, 2, wb, filler, NA, 999, 999, 6, 3, 165, 173, 135, 109, 89, 120, 1, 0.458241
320, 2, wb, catch, NA, 999, 999, 6, 4, 152, 103, 74, 121, 149, 166, 2, 1.14937
320, 2, wb, catch, NA, 999, 999, 6, 4, 152, 103, 74, 121, 149, 166, 3, 0.45433
320, 2, wb, catch, NA, 999, 999, 6, 5, 114, 81, 143, 172, 145, 110, 1, 1.13013
320, 2, wb, catch, NA, 999, 999, 6, 5, 114, 81, 143, 172, 145, 110, 2, 0.363837
320, 2, wb, attraction, a-b-db, 9, 3, 6, 6, 120, 195, 195, 120, 114, 186, 2, 1.68286
320, 2, wb, attraction, a-b-db, 9, 3, 6, 6, 120, 195, 195, 120, 114, 186, 1, 0.510352
320, 2, wb, filler, NA, 999, 999, 6, 7, 88, 130, 152, 133, 94, 75, 3, 1.16747
320, 2, wb, filler, NA, 999, 999, 6, 7, 88, 130, 152, 133, 94, 75, 2, 0.415737
320, 2, wb, filler, NA, 999, 999, 6, 8, 62, 157, 163, 127, 151, 127, 1, 0.909119
320, 2, wb, filler, NA, 999, 999, 6, 8, 62, 157, 163, 127, 151, 127, 2, 1.09526
320, 2, wb, catch, NA, 999, 999, 6, 9, 93, 102, 177, 138, 149, 106, 1, 0.864952
320, 2, wb, catch, NA, 999, 999, 6, 9, 93, 102, 177, 138, 149, 106, 2, 0.461254
320, 2, wb, filler, NA, 999, 999, 6, 10, 58, 191, 87, 161, 146, 103, 2, 3.58438
320, 2, wb, filler, NA, 999, 999, 6, 10, 58, 191, 87, 161, 146, 103, 3, 1.14318
320, 2, wb, attraction, a-b-da, 14, 2, 6, 11, 153, 83, 165, 90, 90, 165, 1, 0.990782
320, 2, wb, attraction, a-b-da, 14, 2, 6, 11, 153, 83, 165, 90, 90, 165, 3, 0.58994
320, 2, wb, attraction, a-b-da, 2, 3, 6, 12, 195, 120, 120, 195, 193, 119, 1, 1.27554
320, 2, wb, attraction, a-b-da, 2, 3, 6, 12, 195, 120, 120, 195, 193, 119, 2, 3.81509
320, 2, wb, attraction, a-b-da, 5, 2, 6, 13, 161, 88, 90, 165, 165, 90, 1, 0.81925
320, 2, wb, attraction, a-b-da, 5, 2, 6, 13, 161, 88, 90, 165, 165, 90, 3, 3.64972
320, 2, wb, attraction, a-b-db, 2, 1, 6, 14, 60, 135, 135, 60, 59, 134, 2, 0.916539
320, 2, wb, attraction, a-b-db, 2, 1, 6, 14, 60, 135, 135, 60, 59, 134, 3, 0.59882
320, 2, wb, attraction, a-b-da, 9, 3, 6, 15, 195, 120, 120, 195, 186, 114, 3, 1.57253
320, 2, wb, attraction, a-b-da, 9, 3, 6, 15, 195, 120, 120, 195, 186, 114, 1, 0.620016
320, 2, wb, attraction, a-b-db, 14, 3, 6, 16, 195, 120, 120, 195, 111, 181, 3, 3.92905
320, 2, wb, attraction, a-b-db, 14, 3, 6, 16, 195, 120, 120, 195, 111, 181, 1, 1.58582
320, 2, wb, attraction, a-b-db, 2, 2, 6, 17, 165, 90, 90, 165, 89, 163, 3, 1.49588
320, 2, wb, attraction, a-b-db, 2, 2, 6, 17, 165, 90, 90, 165, 89, 163, 1, 0.898946
320, 2, wb, attraction, a-b-da, 9, 2, 6, 18, 90, 165, 157, 86, 165, 90, 2, 2.42045
320, 2, wb, attraction, a-b-da, 9, 2, 6, 18, 90, 165, 157, 86, 165, 90, 1, 0.610264
320, 2, wb, filler, NA, 999, 999, 6, 19, 168, 173, 99, 162, 130, 98, 3, 0.943444
320, 2, wb, filler, NA, 999, 999, 6, 19, 168, 173, 99, 162, 130, 98, 1, 0.704479
320, 2, wb, attraction, a-b-da, 14, 1, 6, 20, 135, 60, 60, 135, 125, 56, 3, 2.65823
320, 2, wb, attraction, a-b-da, 14, 1, 6, 20, 135, 60, 60, 135, 125, 56, 2, 0.461897
320, 2, wb, attraction, a-b-da, 5, 1, 6, 21, 135, 60, 132, 58, 60, 135, 3, 1.5132
320, 2, wb, attraction, a-b-da, 5, 1, 6, 21, 135, 60, 132, 58, 60, 135, 1, 0.971256
320, 2, wb, attraction, a-b-da, 5, 3, 6, 22, 190, 117, 195, 120, 120, 195, 1, 1.86625
320, 2, wb, attraction, a-b-da, 5, 3, 6, 22, 190, 117, 195, 120, 120, 195, 3, 0.422236
320, 2, wb, attraction, a-b-db, 2, 3, 6, 23, 195, 120, 119, 193, 120, 195, 3, 2.27535
320, 2, wb, attraction, a-b-db, 2, 3, 6, 23, 195, 120, 119, 193, 120, 195, 1, 0.518677
320, 2, wb, attraction, a-b-da, 2, 2, 6, 24, 90, 165, 165, 90, 163, 89, 2, 0.887747
320, 2, wb, attraction, a-b-da, 2, 2, 6, 24, 90, 165, 165, 90, 163, 89, 1, 0.802842
320, 2, wb, attraction, a-b-db, 14, 1, 6, 25, 60, 135, 56, 125, 135, 60, 2, 0.856555
320, 2, wb, attraction, a-b-db, 14, 1, 6, 25, 60, 135, 56, 125, 135, 60, 3, 0.932869
320, 2, wb, attraction, a-b-da, 14, 3, 6, 26, 120, 195, 195, 120, 181, 111, 3, 1.29324
320, 2, wb, attraction, a-b-da, 14, 3, 6, 26, 120, 195, 195, 120, 181, 111, 1, 0.720077
320, 2, wb, filler, NA, 999, 999, 6, 27, 165, 115, 65, 162, 149, 130, 2, 1.20914
320, 2, wb, filler, NA, 999, 999, 6, 27, 165, 115, 65, 162, 149, 130, 3, 0.887448
320, 2, wb, attraction, a-b-da, 9, 1, 6, 28, 135, 60, 129, 57, 60, 135, 2, 1.90568
320, 2, wb, attraction, a-b-da, 9, 1, 6, 28, 135, 60, 129, 57, 60, 135, 3, 1.0199
320, 2, wb, filler, NA, 999, 999, 6, 29, 101, 190, 135, 152, 85, 82, 3, 0.800715
320, 2, wb, filler, NA, 999, 999, 6, 29, 101, 190, 135, 152, 85, 82, 2, 1.15982
320, 2, wb, filler, NA, 999, 999, 6, 30, 86, 72, 153, 193, 119, 144, 1, 0.854796
320, 2, wb, filler, NA, 999, 999, 6, 30, 86, 72, 153, 193, 119, 144, 2, 0.667016
320, 2, wb, attraction, a-b-da, 2, 1, 6, 31, 60, 135, 134, 59, 135, 60, 3, 1.13413
320, 2, wb, attraction, a-b-da, 2, 1, 6, 31, 60, 135, 134, 59, 135, 60, 1, 0.663817
320, 2, wb, attraction, a-b-db, 5, 3, 6, 32, 117, 190, 120, 195, 195, 120, 3, 2.48289
320, 2, wb, attraction, a-b-db, 5, 3, 6, 32, 117, 190, 120, 195, 195, 120, 2, 0.645983
320, 2, wb, filler, NA, 999, 999, 6, 33, 143, 158, 162, 59, 89, 124, 3, 1.10573
320, 2, wb, filler, NA, 999, 999, 6, 33, 143, 158, 162, 59, 89, 124, 1, 0.556038
320, 2, wb, attraction, a-b-db, 5, 1, 6, 34, 60, 135, 135, 60, 58, 132, 3, 1.92317
320, 2, wb, attraction, a-b-db, 5, 1, 6, 34, 60, 135, 135, 60, 58, 132, 1, 1.10849
320, 2, wb, attraction, a-b-db, 9, 1, 6, 35, 60, 135, 57, 129, 135, 60, 3, 3.76554
320, 2, wb, attraction, a-b-db, 9, 1, 6, 35, 60, 135, 57, 129, 135, 60, 2, 0.900973
320, 2, wb, attraction, a-b-db, 5, 2, 6, 36, 165, 90, 90, 165, 88, 161, 3, 2.72659
320, 2, wb, attraction, a-b-db, 5, 2, 6, 36, 165, 90, 90, 165, 88, 161, 1, 0.887689
320, 2, wb, attraction, a-b-db, 14, 2, 6, 37, 83, 153, 90, 165, 165, 90, 1, 1.46606
320, 2, wb, attraction, a-b-db, 14, 2, 6, 37, 83, 153, 90, 165, 165, 90, 2, 1.6062
320, 2, wb, filler, NA, 999, 999, 7, 1, 106, 122, 113, 175, 98, 69, 3, 0.947675
320, 2, wb, filler, NA, 999, 999, 7, 1, 106, 122, 113, 175, 98, 69, 2, 0.828665
320, 2, wb, attraction, a-b-da, 5, 3, 7, 2, 120, 195, 190, 117, 195, 120, 3, 1.73713
320, 2, wb, attraction, a-b-da, 5, 3, 7, 2, 120, 195, 190, 117, 195, 120, 1, 0.578455
320, 2, wb, catch, NA, 999, 999, 7, 3, 67, 128, 174, 141, 91, 164, 1, 1.02489
320, 2, wb, catch, NA, 999, 999, 7, 3, 67, 128, 174, 141, 91, 164, 2, 1.02249
320, 2, wb, attraction, a-b-db, 5, 3, 7, 4, 120, 195, 195, 120, 117, 190, 3, 2.37945
320, 2, wb, attraction, a-b-db, 5, 3, 7, 4, 120, 195, 195, 120, 117, 190, 2, 0.354681
320, 2, wb, attraction, a-b-da, 2, 2, 7, 5, 165, 90, 90, 165, 163, 89, 1, 1.0507
320, 2, wb, attraction, a-b-da, 2, 2, 7, 5, 165, 90, 90, 165, 163, 89, 2, 1.59959
320, 2, wb, attraction, a-b-db, 2, 3, 7, 6, 195, 120, 119, 193, 120, 195, 1, 2.0449
320, 2, wb, attraction, a-b-db, 2, 3, 7, 6, 195, 120, 119, 193, 120, 195, 2, 0.697623
320, 2, wb, filler, NA, 999, 999, 7, 7, 71, 102, 103, 118, 114, 179, 1, 0.683345
320, 2, wb, filler, NA, 999, 999, 7, 7, 71, 102, 103, 118, 114, 179, 3, 0.663128
320, 2, wb, filler, NA, 999, 999, 7, 8, 148, 109, 152, 93, 149, 146, 1, 0.978193
320, 2, wb, filler, NA, 999, 999, 7, 8, 148, 109, 152, 93, 149, 146, 3, 0.569944
320, 2, wb, catch, NA, 999, 999, 7, 9, 131, 124, 107, 88, 145, 170, 2, 0.864936
320, 2, wb, catch, NA, 999, 999, 7, 9, 131, 124, 107, 88, 145, 170, 3, 0.549288
320, 2, wb, attraction, a-b-da, 14, 3, 7, 10, 181, 111, 195, 120, 120, 195, 1, 1.2051
320, 2, wb, attraction, a-b-da, 14, 3, 7, 10, 181, 111, 195, 120, 120, 195, 3, 0.643378
320, 2, wb, attraction, a-b-db, 5, 2, 7, 11, 90, 165, 88, 161, 165, 90, 3, 1.35106
320, 2, wb, attraction, a-b-db, 5, 2, 7, 11, 90, 165, 88, 161, 165, 90, 2, 0.576041
320, 2, wb, attraction, a-b-da, 5, 2, 7, 12, 165, 90, 90, 165, 161, 88, 2, 1.27044
320, 2, wb, attraction, a-b-da, 5, 2, 7, 12, 165, 90, 90, 165, 161, 88, 1, 0.561954
320, 2, wb, filler, NA, 999, 999, 7, 13, 99, 170, 74, 56, 137, 77, 2, 1.01701
320, 2, wb, filler, NA, 999, 999, 7, 13, 99, 170, 74, 56, 137, 77, 1, 0.583471
320, 2, wb, catch, NA, 999, 999, 7, 14, 101, 154, 155, 160, 82, 113, 3, 1.11789
320, 2, wb, catch, NA, 999, 999, 7, 14, 101, 154, 155, 160, 82, 113, 2, 0.656104
320, 2, wb, filler, NA, 999, 999, 7, 15, 140, 145, 59, 126, 169, 88, 2, 1.00385
320, 2, wb, filler, NA, 999, 999, 7, 15, 140, 145, 59, 126, 169, 88, 1, 0.442816
320, 2, wb, attraction, a-b-db, 5, 1, 7, 16, 135, 60, 58, 132, 60, 135, 2, 2.11062
320, 2, wb, attraction, a-b-db, 5, 1, 7, 16, 135, 60, 58, 132, 60, 135, 1, 0.736765
320, 2, wb, attraction, a-b-da, 9, 3, 7, 17, 186, 114, 120, 195, 195, 120, 2, 1.89711
320, 2, wb, attraction, a-b-da, 9, 3, 7, 17, 186, 114, 120, 195, 195, 120, 3, 0.563728
320, 2, wb, attraction, a-b-db, 9, 1, 7, 18, 57, 129, 135, 60, 60, 135, 2, 1.30684
320, 2, wb, attraction, a-b-db, 9, 1, 7, 18, 57, 129, 135, 60, 60, 135, 1, 0.733072
320, 2, wb, attraction, a-b-db, 9, 2, 7, 19, 86, 157, 90, 165, 165, 90, 3, 1.98946
320, 2, wb, attraction, a-b-db, 9, 2, 7, 19, 86, 157, 90, 165, 165, 90, 2, 0.340125
320, 2, wb, attraction, a-b-da, 14, 1, 7, 20, 60, 135, 125, 56, 135, 60, 1, 0.956009
320, 2, wb, attraction, a-b-da, 14, 1, 7, 20, 60, 135, 125, 56, 135, 60, 2, 0.692262
320, 2, wb, attraction, a-b-db, 2, 2, 7, 21, 89, 163, 165, 90, 90, 165, 2, 1.73399
320, 2, wb, attraction, a-b-db, 2, 2, 7, 21, 89, 163, 165, 90, 90, 165, 1, 0.527571
320, 2, wb, attraction, a-b-da, 9, 1, 7, 22, 129, 57, 135, 60, 60, 135, 1, 1.3999
320, 2, wb, attraction, a-b-da, 9, 1, 7, 22, 129, 57, 135, 60, 60, 135, 3, 0.766715
320, 2, wb, attraction, a-b-da, 9, 2, 7, 23, 90, 165, 157, 86, 165, 90, 3, 1.58979
320, 2, wb, attraction, a-b-da, 9, 2, 7, 23, 90, 165, 157, 86, 165, 90, 1, 0.492575
320, 2, wb, filler, NA, 999, 999, 7, 24, 162, 98, 162, 101, 157, 71, 3, 1.59036
320, 2, wb, filler, NA, 999, 999, 7, 24, 162, 98, 162, 101, 157, 71, 2, 1.65322
320, 2, wb, attraction, a-b-da, 2, 1, 7, 25, 60, 135, 134, 59, 135, 60, 3, 2.20879
320, 2, wb, attraction, a-b-da, 2, 1, 7, 25, 60, 135, 134, 59, 135, 60, 2, 0.670747
320, 2, wb, attraction, a-b-da, 5, 1, 7, 26, 60, 135, 132, 58, 135, 60, 1, 2.23367
320, 2, wb, attraction, a-b-da, 5, 1, 7, 26, 60, 135, 132, 58, 135, 60, 2, 0.55098
320, 2, wb, filler, NA, 999, 999, 7, 27, 151, 106, 71, 82, 132, 73, 2, 1.00662
320, 2, wb, filler, NA, 999, 999, 7, 27, 151, 106, 71, 82, 132, 73, 1, 0.661004
320, 2, wb, filler, NA, 999, 999, 7, 28, 61, 106, 73, 162, 72, 176, 1, 1.05609
320, 2, wb, filler, NA, 999, 999, 7, 28, 61, 106, 73, 162, 72, 176, 2, 0.532464
320, 2, wb, attraction, a-b-db, 14, 2, 7, 29, 165, 90, 83, 153, 90, 165, 1, 3.38887
320, 2, wb, attraction, a-b-db, 14, 2, 7, 29, 165, 90, 83, 153, 90, 165, 3, 1.41112
320, 2, wb, attraction, a-b-da, 2, 3, 7, 30, 120, 195, 195, 120, 193, 119, 3, 1.09599
320, 2, wb, attraction, a-b-da, 2, 3, 7, 30, 120, 195, 195, 120, 193, 119, 2, 0.882932
320, 2, wb, attraction, a-b-db, 14, 3, 7, 31, 120, 195, 111, 181, 195, 120, 2, 3.24518
320, 2, wb, attraction, a-b-db, 14, 3, 7, 31, 120, 195, 111, 181, 195, 120, 1, 0.561561
320, 2, wb, attraction, a-b-da, 14, 2, 7, 32, 90, 165, 165, 90, 153, 83, 3, 1.72056
320, 2, wb, attraction, a-b-da, 14, 2, 7, 32, 90, 165, 165, 90, 153, 83, 1, 0.890081
320, 2, wb, filler, NA, 999, 999, 7, 33, 59, 193, 83, 96, 180, 155, 2, 0.939849
320, 2, wb, filler, NA, 999, 999, 7, 33, 59, 193, 83, 96, 180, 155, 3, 0.444682
320, 2, wb, filler, NA, 999, 999, 7, 34, 180, 116, 131, 160, 97, 138, 3, 1.45655
320, 2, wb, filler, NA, 999, 999, 7, 34, 180, 116, 131, 160, 97, 138, 1, 0.740688
320, 2, wb, attraction, a-b-db, 9, 3, 7, 35, 195, 120, 114, 186, 120, 195, 1, 3.15638
320, 2, wb, attraction, a-b-db, 9, 3, 7, 35, 195, 120, 114, 186, 120, 195, 2, 0.596014
320, 2, wb, attraction, a-b-db, 2, 1, 7, 36, 60, 135, 135, 60, 59, 134, 3, 2.8338
320, 2, wb, attraction, a-b-db, 2, 1, 7, 36, 60, 135, 135, 60, 59, 134, 2, 0.630836
320, 2, wb, attraction, a-b-db, 14, 1, 7, 37, 60, 135, 56, 125, 135, 60, 1, 3.42743
320, 2, wb, attraction, a-b-db, 14, 1, 7, 37, 60, 135, 56, 125, 135, 60, 3, 0.576177
320, 2, wb, attraction, a-b-da, 2, 2, 8, 1, 165, 90, 90, 165, 163, 89, 2, 3.93467
320, 2, wb, attraction, a-b-da, 2, 2, 8, 1, 165, 90, 90, 165, 163, 89, 3, 0.703359
320, 2, wb, filler, NA, 999, 999, 8, 2, 83, 129, 115, 103, 189, 150, 1, 1.18513
320, 2, wb, filler, NA, 999, 999, 8, 2, 83, 129, 115, 103, 189, 150, 3, 0.696726
320, 2, wb, filler, NA, 999, 999, 8, 3, 192, 176, 179, 187, 109, 111, 3, 1.13044
320, 2, wb, filler, NA, 999, 999, 8, 3, 192, 176, 179, 187, 109, 111, 2, 0.764067
320, 2, wb, catch, NA, 999, 999, 8, 4, 91, 164, 154, 161, 92, 103, 3, 1.01113
320, 2, wb, catch, NA, 999, 999, 8, 4, 91, 164, 154, 161, 92, 103, 2, 0.449546
320, 2, wb, attraction, a-b-db, 9, 3, 8, 5, 120, 195, 114, 186, 195, 120, 3, 3.61323
320, 2, wb, attraction, a-b-db, 9, 3, 8, 5, 120, 195, 114, 186, 195, 120, 2, 0.554734
320, 2, wb, attraction, a-b-db, 2, 3, 8, 6, 120, 195, 119, 193, 195, 120, 3, 1.37854
320, 2, wb, attraction, a-b-db, 2, 3, 8, 6, 120, 195, 119, 193, 195, 120, 2, 0.545989
320, 2, wb, filler, NA, 999, 999, 8, 7, 88, 60, 116, 131, 83, 193, 1, 1.20181
320, 2, wb, filler, NA, 999, 999, 8, 7, 88, 60, 116, 131, 83, 193, 2, 0.488703
320, 2, wb, filler, NA, 999, 999, 8, 8, 116, 95, 63, 191, 161, 145, 1, 1.32324
320, 2, wb, filler, NA, 999, 999, 8, 8, 116, 95, 63, 191, 161, 145, 3, 0.948814
320, 2, wb, filler, NA, 999, 999, 8, 9, 144, 72, 84, 166, 119, 94, 3, 2.15633
320, 2, wb, filler, NA, 999, 999, 8, 9, 144, 72, 84, 166, 119, 94, 2, 1.2684
320, 2, wb, attraction, a-b-db, 14, 2, 8, 10, 165, 90, 83, 153, 90, 165, 1, 3.60717
320, 2, wb, attraction, a-b-db, 14, 2, 8, 10, 165, 90, 83, 153, 90, 165, 3, 0.484791
320, 2, wb, filler, NA, 999, 999, 8, 11, 72, 191, 98, 56, 177, 190, 2, 0.831218
320, 2, wb, filler, NA, 999, 999, 8, 11, 72, 191, 98, 56, 177, 190, 3, 1.07696
320, 2, wb, attraction, a-b-db, 9, 1, 8, 12, 57, 129, 60, 135, 135, 60, 1, 1.62328
320, 2, wb, attraction, a-b-db, 9, 1, 8, 12, 57, 129, 60, 135, 135, 60, 3, 0.88466
320, 2, wb, attraction, a-b-da, 14, 3, 8, 13, 195, 120, 181, 111, 120, 195, 2, 2.375
320, 2, wb, attraction, a-b-da, 14, 3, 8, 13, 195, 120, 181, 111, 120, 195, 3, 0.470176
320, 2, wb, attraction, a-b-da, 9, 3, 8, 14, 120, 195, 186, 114, 195, 120, 3, 1.78535
320, 2, wb, attraction, a-b-da, 9, 3, 8, 14, 120, 195, 186, 114, 195, 120, 1, 0.60881
320, 2, wb, attraction, a-b-db, 2, 2, 8, 15, 90, 165, 89, 163, 165, 90, 1, 1.02181
320, 2, wb, attraction, a-b-db, 2, 2, 8, 15, 90, 165, 89, 163, 165, 90, 2, 3.71547
320, 2, wb, attraction, a-b-db, 5, 1, 8, 16, 58, 132, 135, 60, 60, 135, 3, 2.01175
320, 2, wb, attraction, a-b-db, 5, 1, 8, 16, 58, 132, 135, 60, 60, 135, 2, 0.441777
320, 2, wb, attraction, a-b-da, 2, 1, 8, 17, 60, 135, 134, 59, 135, 60, 1, 1.70142
320, 2, wb, attraction, a-b-da, 2, 1, 8, 17, 60, 135, 134, 59, 135, 60, 3, 1.21626
320, 2, wb, attraction, a-b-db, 5, 2, 8, 18, 165, 90, 90, 165, 88, 161, 3, 1.79716
320, 2, wb, attraction, a-b-db, 5, 2, 8, 18, 165, 90, 90, 165, 88, 161, 1, 0.891831
320, 2, wb, attraction, a-b-db, 14, 3, 8, 19, 111, 181, 120, 195, 195, 120, 1, 5.0775
320, 2, wb, attraction, a-b-db, 14, 3, 8, 19, 111, 181, 120, 195, 195, 120, 2, 1.54391
320, 2, wb, attraction, a-b-da, 5, 2, 8, 20, 90, 165, 165, 90, 161, 88, 3, 1.35932
320, 2, wb, attraction, a-b-da, 5, 2, 8, 20, 90, 165, 165, 90, 161, 88, 1, 1.34357
320, 2, wb, catch, NA, 999, 999, 8, 21, 179, 136, 116, 139, 66, 129, 3, 1.27107
320, 2, wb, catch, NA, 999, 999, 8, 21, 179, 136, 116, 139, 66, 129, 1, 0.906615
320, 2, wb, attraction, a-b-db, 9, 2, 8, 22, 90, 165, 86, 157, 165, 90, 3, 2.98764
320, 2, wb, attraction, a-b-db, 9, 2, 8, 22, 90, 165, 86, 157, 165, 90, 2, 0.418813
320, 2, wb, attraction, a-b-da, 5, 3, 8, 23, 195, 120, 190, 117, 120, 195, 2, 2.29582
320, 2, wb, attraction, a-b-da, 5, 3, 8, 23, 195, 120, 190, 117, 120, 195, 3, 0.354384
320, 2, wb, attraction, a-b-da, 9, 1, 8, 24, 60, 135, 129, 57, 135, 60, 1, 1.05827
320, 2, wb, attraction, a-b-da, 9, 1, 8, 24, 60, 135, 129, 57, 135, 60, 2, 0.494591
320, 2, wb, attraction, a-b-db, 5, 3, 8, 25, 195, 120, 117, 190, 120, 195, 1, 1.75237
320, 2, wb, attraction, a-b-db, 5, 3, 8, 25, 195, 120, 117, 190, 120, 195, 2, 0.401159
320, 2, wb, filler, NA, 999, 999, 8, 26, 101, 105, 176, 193, 123, 163, 1, 1.07899
320, 2, wb, filler, NA, 999, 999, 8, 26, 101, 105, 176, 193, 123, 163, 2, 0.474602
320, 2, wb, attraction, a-b-da, 14, 2, 8, 27, 153, 83, 165, 90, 90, 165, 3, 1.557
320, 2, wb, attraction, a-b-da, 14, 2, 8, 27, 153, 83, 165, 90, 90, 165, 1, 3.68518
320, 2, wb, attraction, a-b-da, 2, 3, 8, 28, 195, 120, 120, 195, 193, 119, 2, 3.75062
320, 2, wb, attraction, a-b-da, 2, 3, 8, 28, 195, 120, 120, 195, 193, 119, 3, 0.63073
320, 2, wb, catch, NA, 999, 999, 8, 29, 193, 122, 99, 156, 80, 115, 3, 0.811153
320, 2, wb, catch, NA, 999, 999, 8, 29, 193, 122, 99, 156, 80, 115, 1, 1.00164
320, 2, wb, attraction, a-b-db, 14, 1, 8, 30, 56, 125, 60, 135, 135, 60, 1, 3.46318
320, 2, wb, attraction, a-b-db, 14, 1, 8, 30, 56, 125, 60, 135, 135, 60, 3, 1.03475
320, 2, wb, attraction, a-b-da, 14, 1, 8, 31, 135, 60, 60, 135, 125, 56, 2, 4.29507
320, 2, wb, attraction, a-b-da, 14, 1, 8, 31, 135, 60, 60, 135, 125, 56, 1, 0.472997
320, 2, wb, filler, NA, 999, 999, 8, 32, 119, 173, 78, 181, 94, 168, 3, 1.85939
320, 2, wb, filler, NA, 999, 999, 8, 32, 119, 173, 78, 181, 94, 168, 1, 0.799495
320, 2, wb, attraction, a-b-db, 2, 1, 8, 33, 135, 60, 60, 135, 59, 134, 3, 2.21318
320, 2, wb, attraction, a-b-db, 2, 1, 8, 33, 135, 60, 60, 135, 59, 134, 1, 0.619167
320, 2, wb, filler, NA, 999, 999, 8, 34, 147, 140, 94, 61, 180, 147, 2, 0.896332
320, 2, wb, filler, NA, 999, 999, 8, 34, 147, 140, 94, 61, 180, 147, 3, 0.451218
320, 2, wb, attraction, a-b-da, 5, 1, 8, 35, 132, 58, 60, 135, 135, 60, 2, 0.879022
320, 2, wb, attraction, a-b-da, 5, 1, 8, 35, 132, 58, 60, 135, 135, 60, 1, 0.466829
320, 2, wb, filler, NA, 999, 999, 8, 36, 121, 186, 99, 155, 177, 135, 2, 1.79786
320, 2, wb, filler, NA, 999, 999, 8, 36, 121, 186, 99, 155, 177, 135, 3, 0.428629
320, 2, wb, attraction, a-b-da, 9, 2, 8, 37, 165, 90, 157, 86, 90, 165, 2, 1.98518
320, 2, wb, attraction, a-b-da, 9, 2, 8, 37, 165, 90, 157, 86, 90, 165, 3, 0.608542
