sub_n, computer_n, bw_cond, effect, set, distance, diag, block_n, trial_n, h1, w1, h2, w2, h3, w3, choice, rt 
337, 2, bw, practice, NA, 999, 999, 0, 1, 64, 69, 151, 85, 95, 90, 2, 3.70517
337, 2, bw, practice, NA, 999, 999, 0, 1, 64, 69, 151, 85, 95, 90, 1, 7.49148
337, 2, bw, practice, NA, 999, 999, 0, 2, 74, 132, 129, 76, 124, 146, 3, 2.49607
337, 2, bw, practice, NA, 999, 999, 0, 2, 74, 132, 129, 76, 124, 146, 2, 4.65149
337, 2, bw, practice, NA, 999, 999, 0, 3, 115, 93, 119, 148, 123, 149, 3, 4.02763
337, 2, bw, practice, NA, 999, 999, 0, 3, 115, 93, 119, 148, 123, 149, 1, 1.48018
337, 2, bw, attraction, a-b-db, 2, 1, 1, 1, 59, 134, 135, 60, 60, 135, 3, 4.49474
337, 2, bw, attraction, a-b-db, 2, 1, 1, 1, 59, 134, 135, 60, 60, 135, 2, 1.82455
337, 2, bw, attraction, a-b-da, 9, 2, 1, 2, 165, 90, 157, 86, 90, 165, 3, 3.92478
337, 2, bw, attraction, a-b-da, 9, 2, 1, 2, 165, 90, 157, 86, 90, 165, 2, 1.64538
337, 2, bw, filler, NA, 999, 999, 1, 3, 121, 89, 178, 148, 100, 95, 2, 2.04875
337, 2, bw, filler, NA, 999, 999, 1, 3, 121, 89, 178, 148, 100, 95, 3, 0.749471
337, 2, bw, attraction, a-b-da, 9, 3, 1, 4, 186, 114, 195, 120, 120, 195, 3, 2.60515
337, 2, bw, attraction, a-b-da, 9, 3, 1, 4, 186, 114, 195, 120, 120, 195, 1, 1.29892
337, 2, bw, attraction, a-b-da, 14, 1, 1, 5, 135, 60, 125, 56, 60, 135, 3, 4.89258
337, 2, bw, attraction, a-b-da, 14, 1, 1, 5, 135, 60, 125, 56, 60, 135, 2, 0.846332
337, 2, bw, filler, NA, 999, 999, 1, 6, 177, 102, 162, 145, 115, 98, 2, 1.30595
337, 2, bw, filler, NA, 999, 999, 1, 6, 177, 102, 162, 145, 115, 98, 3, 1.24425
337, 2, bw, filler, NA, 999, 999, 1, 7, 165, 101, 181, 119, 105, 58, 2, 4.0718
337, 2, bw, filler, NA, 999, 999, 1, 7, 165, 101, 181, 119, 105, 58, 3, 0.754437
337, 2, bw, catch, NA, 999, 999, 1, 8, 89, 106, 109, 146, 189, 126, 3, 1.58627
337, 2, bw, catch, NA, 999, 999, 1, 8, 89, 106, 109, 146, 189, 126, 1, 1.01768
337, 2, bw, attraction, a-b-db, 5, 2, 1, 9, 90, 165, 88, 161, 165, 90, 1, 7.51862
337, 2, bw, attraction, a-b-db, 5, 2, 1, 9, 90, 165, 88, 161, 165, 90, 3, 2.847
337, 2, bw, filler, NA, 999, 999, 1, 10, 130, 126, 60, 157, 90, 182, 1, 4.778
337, 2, bw, filler, NA, 999, 999, 1, 10, 130, 126, 60, 157, 90, 182, 2, 0.664555
337, 2, bw, filler, NA, 999, 999, 1, 11, 104, 166, 149, 74, 144, 61, 1, 1.45153
337, 2, bw, filler, NA, 999, 999, 1, 11, 104, 166, 149, 74, 144, 61, 3, 1.55231
337, 2, bw, attraction, a-b-db, 5, 3, 1, 12, 117, 190, 195, 120, 120, 195, 3, 4.67186
337, 2, bw, attraction, a-b-db, 5, 3, 1, 12, 117, 190, 195, 120, 120, 195, 2, 1.81094
337, 2, bw, attraction, a-b-da, 2, 1, 1, 13, 134, 59, 135, 60, 60, 135, 3, 5.48778
337, 2, bw, attraction, a-b-da, 2, 1, 1, 13, 134, 59, 135, 60, 60, 135, 1, 0.681923
337, 2, bw, attraction, a-b-db, 2, 2, 1, 14, 165, 90, 89, 163, 90, 165, 3, 4.24434
337, 2, bw, attraction, a-b-db, 2, 2, 1, 14, 165, 90, 89, 163, 90, 165, 1, 2.40034
337, 2, bw, attraction, a-b-da, 5, 3, 1, 15, 120, 195, 195, 120, 190, 117, 1, 2.74944
337, 2, bw, attraction, a-b-da, 5, 3, 1, 15, 120, 195, 195, 120, 190, 117, 3, 1.56606
337, 2, bw, attraction, a-b-da, 9, 1, 1, 16, 60, 135, 129, 57, 135, 60, 1, 3.93276
337, 2, bw, attraction, a-b-da, 9, 1, 1, 16, 60, 135, 129, 57, 135, 60, 3, 1.09367
337, 2, bw, attraction, a-b-db, 14, 3, 1, 17, 120, 195, 111, 181, 195, 120, 1, 6.90302
337, 2, bw, attraction, a-b-db, 14, 3, 1, 17, 120, 195, 111, 181, 195, 120, 3, 0.51223
337, 2, bw, filler, NA, 999, 999, 1, 18, 58, 157, 186, 131, 64, 144, 2, 1.24136
337, 2, bw, filler, NA, 999, 999, 1, 18, 58, 157, 186, 131, 64, 144, 1, 11.0383
337, 2, bw, attraction, a-b-da, 5, 1, 1, 19, 60, 135, 135, 60, 132, 58, 1, 1.70347
337, 2, bw, attraction, a-b-da, 5, 1, 1, 19, 60, 135, 135, 60, 132, 58, 3, 0.625525
337, 2, bw, attraction, a-b-da, 2, 3, 1, 20, 195, 120, 120, 195, 193, 119, 2, 3.70204
337, 2, bw, attraction, a-b-da, 2, 3, 1, 20, 195, 120, 120, 195, 193, 119, 3, 1.59208
337, 2, bw, attraction, a-b-da, 14, 3, 1, 21, 181, 111, 120, 195, 195, 120, 2, 3.54161
337, 2, bw, attraction, a-b-da, 14, 3, 1, 21, 181, 111, 120, 195, 195, 120, 1, 1.1658
337, 2, bw, filler, NA, 999, 999, 1, 22, 59, 188, 189, 172, 155, 183, 2, 2.67662
337, 2, bw, filler, NA, 999, 999, 1, 22, 59, 188, 189, 172, 155, 183, 1, 0.631882
337, 2, bw, attraction, a-b-db, 9, 2, 1, 23, 86, 157, 165, 90, 90, 165, 2, 4.4042
337, 2, bw, attraction, a-b-db, 9, 2, 1, 23, 86, 157, 165, 90, 90, 165, 1, 1.19412
337, 2, bw, attraction, a-b-db, 2, 3, 1, 24, 195, 120, 119, 193, 120, 195, 3, 3.2477
337, 2, bw, attraction, a-b-db, 2, 3, 1, 24, 195, 120, 119, 193, 120, 195, 1, 1.22802
337, 2, bw, attraction, a-b-da, 2, 2, 1, 25, 163, 89, 90, 165, 165, 90, 2, 4.30428
337, 2, bw, attraction, a-b-da, 2, 2, 1, 25, 163, 89, 90, 165, 165, 90, 1, 0.794111
337, 2, bw, attraction, a-b-db, 9, 3, 1, 26, 120, 195, 114, 186, 195, 120, 1, 1.62389
337, 2, bw, attraction, a-b-db, 9, 3, 1, 26, 120, 195, 114, 186, 195, 120, 3, 1.07731
337, 2, bw, attraction, a-b-db, 14, 1, 1, 27, 56, 125, 135, 60, 60, 135, 3, 3.82369
337, 2, bw, attraction, a-b-db, 14, 1, 1, 27, 56, 125, 135, 60, 60, 135, 1, 0.988349
337, 2, bw, catch, NA, 999, 999, 1, 28, 143, 172, 117, 78, 138, 117, 1, 1.89061
337, 2, bw, catch, NA, 999, 999, 1, 28, 143, 172, 117, 78, 138, 117, 2, 1.18941
337, 2, bw, attraction, a-b-da, 5, 2, 1, 29, 161, 88, 165, 90, 90, 165, 2, 4.52368
337, 2, bw, attraction, a-b-da, 5, 2, 1, 29, 161, 88, 165, 90, 90, 165, 1, 1.18821
337, 2, bw, filler, NA, 999, 999, 1, 30, 82, 103, 140, 143, 158, 160, 3, 2.45845
337, 2, bw, filler, NA, 999, 999, 1, 30, 82, 103, 140, 143, 158, 160, 1, 1.00626
337, 2, bw, catch, NA, 999, 999, 1, 31, 187, 128, 117, 78, 120, 135, 1, 2.4272
337, 2, bw, catch, NA, 999, 999, 1, 31, 187, 128, 117, 78, 120, 135, 2, 0.576489
337, 2, bw, attraction, a-b-db, 5, 1, 1, 32, 60, 135, 135, 60, 58, 132, 1, 2.84695
337, 2, bw, attraction, a-b-db, 5, 1, 1, 32, 60, 135, 135, 60, 58, 132, 2, 0.475337
337, 2, bw, filler, NA, 999, 999, 1, 33, 93, 160, 67, 138, 72, 139, 1, 1.42184
337, 2, bw, filler, NA, 999, 999, 1, 33, 93, 160, 67, 138, 72, 139, 3, 1.56332
337, 2, bw, attraction, a-b-db, 14, 2, 1, 34, 83, 153, 90, 165, 165, 90, 2, 2.8101
337, 2, bw, attraction, a-b-db, 14, 2, 1, 34, 83, 153, 90, 165, 165, 90, 1, 1.59995
337, 2, bw, filler, NA, 999, 999, 1, 35, 98, 58, 193, 83, 121, 70, 2, 1.90925
337, 2, bw, filler, NA, 999, 999, 1, 35, 98, 58, 193, 83, 121, 70, 1, 0.815319
337, 2, bw, attraction, a-b-db, 9, 1, 1, 36, 60, 135, 57, 129, 135, 60, 3, 7.10047
337, 2, bw, attraction, a-b-db, 9, 1, 1, 36, 60, 135, 57, 129, 135, 60, 2, 2.8615
337, 2, bw, attraction, a-b-da, 14, 2, 1, 37, 90, 165, 153, 83, 165, 90, 3, 5.55183
337, 2, bw, attraction, a-b-da, 14, 2, 1, 37, 90, 165, 153, 83, 165, 90, 2, 0.759444
337, 2, bw, filler, NA, 999, 999, 2, 1, 189, 164, 120, 72, 100, 104, 1, 2.11038
337, 2, bw, filler, NA, 999, 999, 2, 1, 189, 164, 120, 72, 100, 104, 2, 4.70447
337, 2, bw, filler, NA, 999, 999, 2, 2, 70, 128, 86, 148, 75, 56, 2, 1.9769
337, 2, bw, filler, NA, 999, 999, 2, 2, 70, 128, 86, 148, 75, 56, 3, 1.0403
337, 2, bw, catch, NA, 999, 999, 2, 3, 118, 77, 110, 145, 124, 191, 3, 3.93192
337, 2, bw, catch, NA, 999, 999, 2, 3, 118, 77, 110, 145, 124, 191, 1, 0.804549
337, 2, bw, attraction, a-b-da, 2, 3, 2, 4, 195, 120, 120, 195, 193, 119, 1, 3.73039
337, 2, bw, attraction, a-b-da, 2, 3, 2, 4, 195, 120, 120, 195, 193, 119, 3, 5.1472
337, 2, bw, filler, NA, 999, 999, 2, 5, 66, 178, 167, 142, 72, 176, 2, 1.27348
337, 2, bw, filler, NA, 999, 999, 2, 5, 66, 178, 167, 142, 72, 176, 1, 2.70107
337, 2, bw, catch, NA, 999, 999, 2, 6, 153, 162, 93, 102, 109, 146, 1, 0.75804
337, 2, bw, catch, NA, 999, 999, 2, 6, 153, 162, 93, 102, 109, 146, 2, 0.774497
337, 2, bw, filler, NA, 999, 999, 2, 7, 104, 168, 76, 186, 184, 66, 1, 3.90092
337, 2, bw, filler, NA, 999, 999, 2, 7, 104, 168, 76, 186, 184, 66, 3, 1.495
337, 2, bw, attraction, a-b-db, 9, 1, 2, 8, 135, 60, 60, 135, 57, 129, 2, 2.16866
337, 2, bw, attraction, a-b-db, 9, 1, 2, 8, 135, 60, 60, 135, 57, 129, 1, 1.07252
337, 2, bw, attraction, a-b-da, 2, 1, 2, 9, 135, 60, 60, 135, 134, 59, 1, 5.24336
337, 2, bw, attraction, a-b-da, 2, 1, 2, 9, 135, 60, 60, 135, 134, 59, 3, 0.375036
337, 2, bw, filler, NA, 999, 999, 2, 10, 96, 69, 60, 103, 121, 184, 3, 0.757474
337, 2, bw, filler, NA, 999, 999, 2, 10, 96, 69, 60, 103, 121, 184, 1, 5.30992
337, 2, bw, attraction, a-b-db, 9, 3, 2, 11, 114, 186, 195, 120, 120, 195, 3, 5.89371
337, 2, bw, attraction, a-b-db, 9, 3, 2, 11, 114, 186, 195, 120, 120, 195, 1, 0.830973
337, 2, bw, attraction, a-b-db, 2, 2, 2, 12, 89, 163, 165, 90, 90, 165, 3, 4.61133
337, 2, bw, attraction, a-b-db, 2, 2, 2, 12, 89, 163, 165, 90, 90, 165, 2, 0.456537
337, 2, bw, attraction, a-b-db, 9, 2, 2, 13, 165, 90, 90, 165, 86, 157, 2, 2.08363
337, 2, bw, attraction, a-b-db, 9, 2, 2, 13, 165, 90, 90, 165, 86, 157, 3, 0.591092
337, 2, bw, attraction, a-b-db, 5, 3, 2, 14, 117, 190, 195, 120, 120, 195, 3, 3.64472
337, 2, bw, attraction, a-b-db, 5, 3, 2, 14, 117, 190, 195, 120, 120, 195, 1, 1.51294
337, 2, bw, attraction, a-b-da, 9, 3, 2, 15, 120, 195, 186, 114, 195, 120, 1, 5.51369
337, 2, bw, attraction, a-b-da, 9, 3, 2, 15, 120, 195, 186, 114, 195, 120, 2, 1.40262
337, 2, bw, attraction, a-b-db, 2, 3, 2, 16, 120, 195, 119, 193, 195, 120, 3, 7.92013
337, 2, bw, attraction, a-b-db, 2, 3, 2, 16, 120, 195, 119, 193, 195, 120, 1, 0.856266
337, 2, bw, attraction, a-b-db, 5, 2, 2, 17, 90, 165, 165, 90, 88, 161, 1, 4.0593
337, 2, bw, attraction, a-b-db, 5, 2, 2, 17, 90, 165, 165, 90, 88, 161, 3, 1.59871
337, 2, bw, filler, NA, 999, 999, 2, 18, 136, 126, 131, 171, 194, 70, 2, 1.92412
337, 2, bw, filler, NA, 999, 999, 2, 18, 136, 126, 131, 171, 194, 70, 3, 2.50951
337, 2, bw, catch, NA, 999, 999, 2, 19, 167, 148, 69, 126, 143, 112, 1, 1.75797
337, 2, bw, catch, NA, 999, 999, 2, 19, 167, 148, 69, 126, 143, 112, 2, 0.422074
337, 2, bw, filler, NA, 999, 999, 2, 20, 132, 76, 167, 195, 132, 156, 2, 1.2192
337, 2, bw, filler, NA, 999, 999, 2, 20, 132, 76, 167, 195, 132, 156, 1, 0.425408
337, 2, bw, filler, NA, 999, 999, 2, 21, 167, 122, 195, 118, 184, 157, 3, 3.14997
337, 2, bw, filler, NA, 999, 999, 2, 21, 167, 122, 195, 118, 184, 157, 1, 0.350368
337, 2, bw, attraction, a-b-da, 14, 1, 2, 22, 135, 60, 125, 56, 60, 135, 3, 1.82212
337, 2, bw, attraction, a-b-da, 14, 1, 2, 22, 135, 60, 125, 56, 60, 135, 2, 1.21151
337, 2, bw, attraction, a-b-da, 5, 3, 2, 23, 120, 195, 195, 120, 190, 117, 1, 8.32044
337, 2, bw, attraction, a-b-da, 5, 3, 2, 23, 120, 195, 195, 120, 190, 117, 3, 1.57658
337, 2, bw, attraction, a-b-da, 14, 2, 2, 24, 90, 165, 153, 83, 165, 90, 3, 1.28664
337, 2, bw, attraction, a-b-da, 14, 2, 2, 24, 90, 165, 153, 83, 165, 90, 2, 0.522103
337, 2, bw, attraction, a-b-da, 2, 2, 2, 25, 90, 165, 163, 89, 165, 90, 1, 5.33922
337, 2, bw, attraction, a-b-da, 2, 2, 2, 25, 90, 165, 163, 89, 165, 90, 3, 0.434846
337, 2, bw, attraction, a-b-da, 14, 3, 2, 26, 195, 120, 120, 195, 181, 111, 1, 6.35933
337, 2, bw, attraction, a-b-da, 14, 3, 2, 26, 195, 120, 120, 195, 181, 111, 3, 0.278099
337, 2, bw, attraction, a-b-da, 5, 2, 2, 27, 165, 90, 161, 88, 90, 165, 3, 9.2647
337, 2, bw, attraction, a-b-da, 5, 2, 2, 27, 165, 90, 161, 88, 90, 165, 1, 1.54627
337, 2, bw, attraction, a-b-db, 14, 3, 2, 28, 111, 181, 195, 120, 120, 195, 3, 6.02581
337, 2, bw, attraction, a-b-db, 14, 3, 2, 28, 111, 181, 195, 120, 120, 195, 1, 0.821796
337, 2, bw, filler, NA, 999, 999, 2, 29, 116, 147, 89, 106, 185, 123, 3, 1.24282
337, 2, bw, filler, NA, 999, 999, 2, 29, 116, 147, 89, 106, 185, 123, 2, 0.319696
337, 2, bw, attraction, a-b-db, 14, 2, 2, 30, 165, 90, 83, 153, 90, 165, 3, 2.40086
337, 2, bw, attraction, a-b-db, 14, 2, 2, 30, 165, 90, 83, 153, 90, 165, 2, 0.479449
337, 2, bw, attraction, a-b-db, 5, 1, 2, 31, 135, 60, 60, 135, 58, 132, 2, 6.48191
337, 2, bw, attraction, a-b-db, 5, 1, 2, 31, 135, 60, 60, 135, 58, 132, 1, 0.395885
337, 2, bw, attraction, a-b-da, 9, 2, 2, 32, 90, 165, 165, 90, 157, 86, 1, 2.52973
337, 2, bw, attraction, a-b-da, 9, 2, 2, 32, 90, 165, 165, 90, 157, 86, 3, 0.906916
337, 2, bw, attraction, a-b-db, 14, 1, 2, 33, 60, 135, 56, 125, 135, 60, 1, 4.55595
337, 2, bw, attraction, a-b-db, 14, 1, 2, 33, 60, 135, 56, 125, 135, 60, 2, 0.763121
337, 2, bw, filler, NA, 999, 999, 2, 34, 136, 119, 90, 166, 124, 100, 1, 3.77815
337, 2, bw, filler, NA, 999, 999, 2, 34, 136, 119, 90, 166, 124, 100, 3, 1.41695
337, 2, bw, attraction, a-b-da, 5, 1, 2, 35, 132, 58, 135, 60, 60, 135, 3, 3.0138
337, 2, bw, attraction, a-b-da, 5, 1, 2, 35, 132, 58, 135, 60, 60, 135, 2, 0.63558
337, 2, bw, attraction, a-b-da, 9, 1, 2, 36, 129, 57, 135, 60, 60, 135, 3, 2.24785
337, 2, bw, attraction, a-b-da, 9, 1, 2, 36, 129, 57, 135, 60, 60, 135, 1, 0.740424
337, 2, bw, attraction, a-b-db, 2, 1, 2, 37, 135, 60, 60, 135, 59, 134, 3, 6.74813
337, 2, bw, attraction, a-b-db, 2, 1, 2, 37, 135, 60, 60, 135, 59, 134, 1, 1.63534
337, 2, bw, attraction, a-b-da, 5, 1, 3, 1, 135, 60, 60, 135, 132, 58, 2, 4.11145
337, 2, bw, attraction, a-b-da, 5, 1, 3, 1, 135, 60, 60, 135, 132, 58, 3, 1.15285
337, 2, bw, filler, NA, 999, 999, 3, 2, 129, 175, 171, 185, 183, 84, 2, 2.14441
337, 2, bw, filler, NA, 999, 999, 3, 2, 129, 175, 171, 185, 183, 84, 3, 2.81722
337, 2, bw, filler, NA, 999, 999, 3, 3, 84, 154, 169, 174, 77, 103, 2, 1.0374
337, 2, bw, filler, NA, 999, 999, 3, 3, 84, 154, 169, 174, 77, 103, 3, 0.531201
337, 2, bw, filler, NA, 999, 999, 3, 4, 80, 126, 70, 177, 189, 73, 3, 3.5316
337, 2, bw, filler, NA, 999, 999, 3, 4, 80, 126, 70, 177, 189, 73, 1, 1.34044
337, 2, bw, attraction, a-b-da, 2, 2, 3, 5, 90, 165, 165, 90, 163, 89, 1, 3.41202
337, 2, bw, attraction, a-b-da, 2, 2, 3, 5, 90, 165, 165, 90, 163, 89, 3, 4.28147
337, 2, bw, attraction, a-b-db, 14, 1, 3, 6, 135, 60, 56, 125, 60, 135, 3, 3.25077
337, 2, bw, attraction, a-b-db, 14, 1, 3, 6, 135, 60, 56, 125, 60, 135, 2, 4.95911
337, 2, bw, attraction, a-b-db, 9, 1, 3, 7, 60, 135, 57, 129, 135, 60, 1, 4.78875
337, 2, bw, attraction, a-b-db, 9, 1, 3, 7, 60, 135, 57, 129, 135, 60, 3, 0.530577
337, 2, bw, attraction, a-b-da, 14, 1, 3, 8, 125, 56, 135, 60, 60, 135, 3, 2.22711
337, 2, bw, attraction, a-b-da, 14, 1, 3, 8, 125, 56, 135, 60, 60, 135, 1, 0.368268
337, 2, bw, attraction, a-b-da, 9, 2, 3, 9, 157, 86, 165, 90, 90, 165, 3, 5.89552
337, 2, bw, attraction, a-b-da, 9, 2, 3, 9, 157, 86, 165, 90, 90, 165, 1, 0.712949
337, 2, bw, attraction, a-b-db, 2, 2, 3, 10, 165, 90, 90, 165, 89, 163, 3, 8.578
337, 2, bw, attraction, a-b-db, 2, 2, 3, 10, 165, 90, 90, 165, 89, 163, 1, 0.511413
337, 2, bw, attraction, a-b-db, 5, 3, 3, 11, 120, 195, 195, 120, 117, 190, 1, 7.28044
337, 2, bw, attraction, a-b-db, 5, 3, 3, 11, 120, 195, 195, 120, 117, 190, 3, 1.23408
337, 2, bw, filler, NA, 999, 999, 3, 12, 138, 186, 159, 113, 98, 71, 1, 3.55044
337, 2, bw, filler, NA, 999, 999, 3, 12, 138, 186, 159, 113, 98, 71, 3, 1.12654
337, 2, bw, attraction, a-b-db, 2, 3, 3, 13, 119, 193, 195, 120, 120, 195, 1, 2.72672
337, 2, bw, attraction, a-b-db, 2, 3, 3, 13, 119, 193, 195, 120, 120, 195, 2, 0.343864
337, 2, bw, attraction, a-b-db, 9, 3, 3, 14, 114, 186, 120, 195, 195, 120, 2, 3.31968
337, 2, bw, attraction, a-b-db, 9, 3, 3, 14, 114, 186, 120, 195, 195, 120, 3, 0.409332
337, 2, bw, attraction, a-b-db, 5, 1, 3, 15, 135, 60, 58, 132, 60, 135, 3, 2.71046
337, 2, bw, attraction, a-b-db, 5, 1, 3, 15, 135, 60, 58, 132, 60, 135, 1, 0.96027
337, 2, bw, attraction, a-b-da, 2, 3, 3, 16, 195, 120, 120, 195, 193, 119, 2, 4.91939
337, 2, bw, attraction, a-b-da, 2, 3, 3, 16, 195, 120, 120, 195, 193, 119, 3, 0.896385
337, 2, bw, attraction, a-b-da, 9, 1, 3, 17, 129, 57, 135, 60, 60, 135, 3, 4.24207
337, 2, bw, attraction, a-b-da, 9, 1, 3, 17, 129, 57, 135, 60, 60, 135, 1, 0.573982
337, 2, bw, filler, NA, 999, 999, 3, 18, 99, 120, 189, 64, 150, 112, 3, 2.98042
337, 2, bw, filler, NA, 999, 999, 3, 18, 99, 120, 189, 64, 150, 112, 1, 1.01153
337, 2, bw, filler, NA, 999, 999, 3, 19, 73, 64, 95, 93, 151, 146, 3, 0.976499
337, 2, bw, filler, NA, 999, 999, 3, 19, 73, 64, 95, 93, 151, 146, 1, 0.416016
337, 2, bw, filler, NA, 999, 999, 3, 20, 58, 129, 188, 181, 84, 162, 2, 0.861216
337, 2, bw, filler, NA, 999, 999, 3, 20, 58, 129, 188, 181, 84, 162, 1, 0.817622
337, 2, bw, attraction, a-b-db, 14, 2, 3, 21, 90, 165, 165, 90, 83, 153, 1, 1.32656
337, 2, bw, attraction, a-b-db, 14, 2, 3, 21, 90, 165, 165, 90, 83, 153, 3, 1.08027
337, 2, bw, attraction, a-b-da, 2, 1, 3, 22, 134, 59, 60, 135, 135, 60, 2, 3.54639
337, 2, bw, attraction, a-b-da, 2, 1, 3, 22, 134, 59, 60, 135, 135, 60, 3, 1.01857
337, 2, bw, attraction, a-b-db, 14, 3, 3, 23, 120, 195, 195, 120, 111, 181, 1, 1.48756
337, 2, bw, attraction, a-b-db, 14, 3, 3, 23, 120, 195, 195, 120, 111, 181, 2, 3.3864
337, 2, bw, filler, NA, 999, 999, 3, 24, 75, 111, 121, 73, 69, 133, 3, 6.72797
337, 2, bw, filler, NA, 999, 999, 3, 24, 75, 111, 121, 73, 69, 133, 1, 1.11981
337, 2, bw, catch, NA, 999, 999, 3, 25, 134, 121, 173, 142, 82, 113, 2, 1.79279
337, 2, bw, catch, NA, 999, 999, 3, 25, 134, 121, 173, 142, 82, 113, 3, 0.791511
337, 2, bw, attraction, a-b-db, 2, 1, 3, 26, 60, 135, 135, 60, 59, 134, 1, 4.63718
337, 2, bw, attraction, a-b-db, 2, 1, 3, 26, 60, 135, 135, 60, 59, 134, 3, 0.617703
337, 2, bw, attraction, a-b-da, 14, 3, 3, 27, 195, 120, 181, 111, 120, 195, 1, 5.50297
337, 2, bw, attraction, a-b-da, 14, 3, 3, 27, 195, 120, 181, 111, 120, 195, 2, 0.656529
337, 2, bw, attraction, a-b-da, 9, 3, 3, 28, 195, 120, 186, 114, 120, 195, 1, 4.81952
337, 2, bw, attraction, a-b-da, 9, 3, 3, 28, 195, 120, 186, 114, 120, 195, 2, 2.75271
337, 2, bw, attraction, a-b-da, 5, 3, 3, 29, 120, 195, 195, 120, 190, 117, 1, 5.59979
337, 2, bw, attraction, a-b-da, 5, 3, 3, 29, 120, 195, 195, 120, 190, 117, 3, 1.07724
337, 2, bw, attraction, a-b-da, 14, 2, 3, 30, 153, 83, 90, 165, 165, 90, 2, 1.94345
337, 2, bw, attraction, a-b-da, 14, 2, 3, 30, 153, 83, 90, 165, 165, 90, 1, 1.00822
337, 2, bw, catch, NA, 999, 999, 3, 31, 178, 137, 100, 95, 115, 140, 1, 1.31713
337, 2, bw, catch, NA, 999, 999, 3, 31, 178, 137, 100, 95, 115, 140, 2, 3.26349
337, 2, bw, catch, NA, 999, 999, 3, 32, 171, 144, 155, 100, 109, 86, 1, 3.31373
337, 2, bw, catch, NA, 999, 999, 3, 32, 171, 144, 155, 100, 109, 86, 3, 0.531195
337, 2, bw, filler, NA, 999, 999, 3, 33, 158, 148, 154, 95, 150, 152, 1, 1.80368
337, 2, bw, filler, NA, 999, 999, 3, 33, 158, 148, 154, 95, 150, 152, 2, 0.52265
337, 2, bw, attraction, a-b-db, 5, 2, 3, 34, 90, 165, 88, 161, 165, 90, 1, 4.11565
337, 2, bw, attraction, a-b-db, 5, 2, 3, 34, 90, 165, 88, 161, 165, 90, 2, 2.82092
337, 2, bw, attraction, a-b-db, 9, 2, 3, 35, 86, 157, 90, 165, 165, 90, 2, 3.4413
337, 2, bw, attraction, a-b-db, 9, 2, 3, 35, 86, 157, 90, 165, 165, 90, 1, 0.261638
337, 2, bw, filler, NA, 999, 999, 3, 36, 89, 98, 110, 192, 154, 172, 3, 1.66469
337, 2, bw, filler, NA, 999, 999, 3, 36, 89, 98, 110, 192, 154, 172, 1, 0.548911
337, 2, bw, attraction, a-b-da, 5, 2, 3, 37, 165, 90, 161, 88, 90, 165, 1, 8.97262
337, 2, bw, attraction, a-b-da, 5, 2, 3, 37, 165, 90, 161, 88, 90, 165, 2, 0.394478
337, 2, bw, attraction, a-b-db, 9, 2, 4, 1, 90, 165, 86, 157, 165, 90, 1, 3.50423
337, 2, bw, attraction, a-b-db, 9, 2, 4, 1, 90, 165, 86, 157, 165, 90, 2, 0.618547
337, 2, bw, attraction, a-b-da, 2, 2, 4, 2, 163, 89, 90, 165, 165, 90, 2, 5.47962
337, 2, bw, attraction, a-b-da, 2, 2, 4, 2, 163, 89, 90, 165, 165, 90, 3, 0.433823
337, 2, bw, attraction, a-b-da, 14, 3, 4, 3, 120, 195, 195, 120, 181, 111, 1, 2.38223
337, 2, bw, attraction, a-b-da, 14, 3, 4, 3, 120, 195, 195, 120, 181, 111, 3, 0.789573
337, 2, bw, attraction, a-b-da, 2, 3, 4, 4, 120, 195, 195, 120, 193, 119, 2, 4.4994
337, 2, bw, attraction, a-b-da, 2, 3, 4, 4, 120, 195, 195, 120, 193, 119, 1, 3.42128
337, 2, bw, attraction, a-b-da, 2, 1, 4, 5, 135, 60, 60, 135, 134, 59, 2, 2.20139
337, 2, bw, attraction, a-b-da, 2, 1, 4, 5, 135, 60, 60, 135, 134, 59, 3, 0.679933
337, 2, bw, attraction, a-b-db, 14, 3, 4, 6, 120, 195, 195, 120, 111, 181, 1, 3.91436
337, 2, bw, attraction, a-b-db, 14, 3, 4, 6, 120, 195, 195, 120, 111, 181, 3, 0.659835
337, 2, bw, attraction, a-b-db, 9, 3, 4, 7, 120, 195, 195, 120, 114, 186, 1, 3.38283
337, 2, bw, attraction, a-b-db, 9, 3, 4, 7, 120, 195, 195, 120, 114, 186, 3, 0.605797
337, 2, bw, catch, NA, 999, 999, 4, 8, 171, 144, 130, 125, 72, 123, 1, 1.59556
337, 2, bw, catch, NA, 999, 999, 4, 8, 171, 144, 130, 125, 72, 123, 3, 0.818386
337, 2, bw, filler, NA, 999, 999, 4, 9, 96, 134, 77, 170, 81, 93, 2, 5.37544
337, 2, bw, filler, NA, 999, 999, 4, 9, 96, 134, 77, 170, 81, 93, 3, 2.71767
337, 2, bw, filler, NA, 999, 999, 4, 10, 178, 172, 77, 121, 68, 122, 1, 0.774037
337, 2, bw, filler, NA, 999, 999, 4, 10, 178, 172, 77, 121, 68, 122, 3, 2.87798
337, 2, bw, attraction, a-b-db, 14, 1, 4, 11, 56, 125, 60, 135, 135, 60, 2, 2.12758
337, 2, bw, attraction, a-b-db, 14, 1, 4, 11, 56, 125, 60, 135, 135, 60, 1, 0.600783
337, 2, bw, filler, NA, 999, 999, 4, 12, 93, 189, 162, 62, 116, 152, 1, 4.88662
337, 2, bw, filler, NA, 999, 999, 4, 12, 93, 189, 162, 62, 116, 152, 2, 0.473054
337, 2, bw, attraction, a-b-da, 5, 3, 4, 13, 190, 117, 195, 120, 120, 195, 2, 4.73143
337, 2, bw, attraction, a-b-da, 5, 3, 4, 13, 190, 117, 195, 120, 120, 195, 1, 0.332004
337, 2, bw, attraction, a-b-db, 2, 1, 4, 14, 59, 134, 135, 60, 60, 135, 1, 2.34844
337, 2, bw, attraction, a-b-db, 2, 1, 4, 14, 59, 134, 135, 60, 60, 135, 3, 0.949106
337, 2, bw, attraction, a-b-db, 5, 2, 4, 15, 165, 90, 90, 165, 88, 161, 2, 7.94867
337, 2, bw, attraction, a-b-db, 5, 2, 4, 15, 165, 90, 90, 165, 88, 161, 1, 1.84351
337, 2, bw, attraction, a-b-db, 2, 3, 4, 16, 119, 193, 120, 195, 195, 120, 2, 2.57491
337, 2, bw, attraction, a-b-db, 2, 3, 4, 16, 119, 193, 120, 195, 195, 120, 3, 2.84607
337, 2, bw, attraction, a-b-da, 5, 2, 4, 17, 161, 88, 90, 165, 165, 90, 2, 9.19313
337, 2, bw, attraction, a-b-da, 5, 2, 4, 17, 161, 88, 90, 165, 165, 90, 3, 0.725563
337, 2, bw, catch, NA, 999, 999, 4, 18, 194, 121, 143, 112, 101, 94, 1, 1.29385
337, 2, bw, catch, NA, 999, 999, 4, 18, 194, 121, 143, 112, 101, 94, 3, 0.808762
337, 2, bw, filler, NA, 999, 999, 4, 19, 90, 166, 187, 134, 121, 163, 2, 1.17386
337, 2, bw, filler, NA, 999, 999, 4, 19, 90, 166, 187, 134, 121, 163, 1, 0.317496
337, 2, bw, attraction, a-b-da, 9, 2, 4, 20, 90, 165, 165, 90, 157, 86, 2, 5.03058
337, 2, bw, attraction, a-b-da, 9, 2, 4, 20, 90, 165, 165, 90, 157, 86, 3, 0.355064
337, 2, bw, filler, NA, 999, 999, 4, 21, 135, 64, 91, 162, 57, 70, 2, 1.4828
337, 2, bw, filler, NA, 999, 999, 4, 21, 135, 64, 91, 162, 57, 70, 3, 0.358427
337, 2, bw, filler, NA, 999, 999, 4, 22, 109, 98, 186, 146, 125, 70, 2, 0.72555
337, 2, bw, filler, NA, 999, 999, 4, 22, 109, 98, 186, 146, 125, 70, 1, 0.29534
337, 2, bw, attraction, a-b-db, 2, 2, 4, 23, 90, 165, 165, 90, 89, 163, 1, 2.95309
337, 2, bw, attraction, a-b-db, 2, 2, 4, 23, 90, 165, 165, 90, 89, 163, 3, 0.93747
337, 2, bw, attraction, a-b-da, 14, 2, 4, 24, 165, 90, 153, 83, 90, 165, 3, 1.96987
337, 2, bw, attraction, a-b-da, 14, 2, 4, 24, 165, 90, 153, 83, 90, 165, 2, 0.449847
337, 2, bw, filler, NA, 999, 999, 4, 25, 78, 162, 166, 163, 146, 58, 2, 1.1256
337, 2, bw, filler, NA, 999, 999, 4, 25, 78, 162, 166, 163, 146, 58, 3, 1.5833
337, 2, bw, attraction, a-b-da, 9, 3, 4, 26, 195, 120, 120, 195, 186, 114, 2, 1.61344
337, 2, bw, attraction, a-b-da, 9, 3, 4, 26, 195, 120, 120, 195, 186, 114, 3, 0.77959
337, 2, bw, catch, NA, 999, 999, 4, 27, 165, 90, 101, 94, 167, 148, 3, 0.825849
337, 2, bw, catch, NA, 999, 999, 4, 27, 165, 90, 101, 94, 167, 148, 2, 0.455655
337, 2, bw, filler, NA, 999, 999, 4, 28, 100, 130, 94, 103, 85, 140, 1, 1.57944
337, 2, bw, filler, NA, 999, 999, 4, 28, 100, 130, 94, 103, 85, 140, 2, 0.306897
337, 2, bw, filler, NA, 999, 999, 4, 29, 118, 141, 109, 100, 82, 126, 1, 1.26006
337, 2, bw, filler, NA, 999, 999, 4, 29, 118, 141, 109, 100, 82, 126, 2, 0.51227
337, 2, bw, attraction, a-b-db, 14, 2, 4, 30, 83, 153, 90, 165, 165, 90, 2, 4.87343
337, 2, bw, attraction, a-b-db, 14, 2, 4, 30, 83, 153, 90, 165, 165, 90, 1, 0.811833
337, 2, bw, attraction, a-b-da, 5, 1, 4, 31, 135, 60, 132, 58, 60, 135, 3, 3.76089
337, 2, bw, attraction, a-b-da, 5, 1, 4, 31, 135, 60, 132, 58, 60, 135, 2, 0.568343
337, 2, bw, attraction, a-b-db, 5, 3, 4, 32, 120, 195, 195, 120, 117, 190, 2, 5.67144
337, 2, bw, attraction, a-b-db, 5, 3, 4, 32, 120, 195, 195, 120, 117, 190, 1, 0.922328
337, 2, bw, attraction, a-b-da, 14, 1, 4, 33, 135, 60, 125, 56, 60, 135, 1, 4.85923
337, 2, bw, attraction, a-b-da, 14, 1, 4, 33, 135, 60, 125, 56, 60, 135, 3, 0.350595
337, 2, bw, attraction, a-b-da, 9, 1, 4, 34, 129, 57, 60, 135, 135, 60, 2, 1.71822
337, 2, bw, attraction, a-b-da, 9, 1, 4, 34, 129, 57, 60, 135, 135, 60, 1, 0.552563
337, 2, bw, filler, NA, 999, 999, 4, 35, 94, 97, 65, 186, 176, 186, 3, 0.776076
337, 2, bw, filler, NA, 999, 999, 4, 35, 94, 97, 65, 186, 176, 186, 1, 0.455778
337, 2, bw, attraction, a-b-db, 5, 1, 4, 36, 135, 60, 60, 135, 58, 132, 2, 3.61978
337, 2, bw, attraction, a-b-db, 5, 1, 4, 36, 135, 60, 60, 135, 58, 132, 1, 1.36122
337, 2, bw, attraction, a-b-db, 9, 1, 4, 37, 60, 135, 57, 129, 135, 60, 1, 2.41608
337, 2, bw, attraction, a-b-db, 9, 1, 4, 37, 60, 135, 57, 129, 135, 60, 2, 0.357948
337, 2, bw, attraction, a-b-da, 9, 3, 5, 1, 186, 114, 195, 120, 120, 195, 2, 3.58766
337, 2, bw, attraction, a-b-da, 9, 3, 5, 1, 186, 114, 195, 120, 120, 195, 1, 1.90647
337, 2, bw, filler, NA, 999, 999, 5, 2, 128, 180, 129, 124, 80, 176, 1, 1.96319
337, 2, bw, filler, NA, 999, 999, 5, 2, 128, 180, 129, 124, 80, 176, 3, 2.29123
337, 2, bw, filler, NA, 999, 999, 5, 3, 68, 78, 192, 115, 100, 120, 2, 1.19646
337, 2, bw, filler, NA, 999, 999, 5, 3, 68, 78, 192, 115, 100, 120, 1, 0.627418
337, 2, bw, attraction, a-b-db, 9, 1, 5, 4, 135, 60, 57, 129, 60, 135, 3, 2.09583
337, 2, bw, attraction, a-b-db, 9, 1, 5, 4, 135, 60, 57, 129, 60, 135, 1, 1.22655
337, 2, bw, attraction, a-b-da, 14, 1, 5, 5, 135, 60, 125, 56, 60, 135, 3, 4.32671
337, 2, bw, attraction, a-b-da, 14, 1, 5, 5, 135, 60, 125, 56, 60, 135, 2, 0.687317
337, 2, bw, attraction, a-b-da, 5, 1, 5, 6, 60, 135, 132, 58, 135, 60, 1, 2.05776
337, 2, bw, attraction, a-b-da, 5, 1, 5, 6, 60, 135, 132, 58, 135, 60, 2, 1.8938
337, 2, bw, attraction, a-b-da, 5, 3, 5, 7, 120, 195, 195, 120, 190, 117, 2, 3.99108
337, 2, bw, attraction, a-b-da, 5, 3, 5, 7, 120, 195, 195, 120, 190, 117, 1, 5.66118
337, 2, bw, attraction, a-b-da, 14, 3, 5, 8, 195, 120, 181, 111, 120, 195, 1, 1.26258
337, 2, bw, attraction, a-b-da, 14, 3, 5, 8, 195, 120, 181, 111, 120, 195, 2, 0.346846
337, 2, bw, attraction, a-b-db, 9, 3, 5, 9, 114, 186, 120, 195, 195, 120, 2, 0.978683
337, 2, bw, attraction, a-b-db, 9, 3, 5, 9, 114, 186, 120, 195, 195, 120, 1, 0.506387
337, 2, bw, attraction, a-b-db, 5, 1, 5, 10, 60, 135, 135, 60, 58, 132, 2, 1.97174
337, 2, bw, attraction, a-b-db, 5, 1, 5, 10, 60, 135, 135, 60, 58, 132, 3, 1.02689
337, 2, bw, filler, NA, 999, 999, 5, 11, 132, 181, 141, 90, 140, 170, 3, 2.58315
337, 2, bw, filler, NA, 999, 999, 5, 11, 132, 181, 141, 90, 140, 170, 2, 0.446279
337, 2, bw, attraction, a-b-db, 9, 2, 5, 12, 165, 90, 86, 157, 90, 165, 3, 1.85012
337, 2, bw, attraction, a-b-db, 9, 2, 5, 12, 165, 90, 86, 157, 90, 165, 2, 2.84678
337, 2, bw, attraction, a-b-db, 2, 2, 5, 13, 89, 163, 90, 165, 165, 90, 2, 2.82588
337, 2, bw, attraction, a-b-db, 2, 2, 5, 13, 89, 163, 90, 165, 165, 90, 1, 0.471024
337, 2, bw, filler, NA, 999, 999, 5, 14, 184, 187, 158, 170, 176, 190, 1, 1.28218
337, 2, bw, filler, NA, 999, 999, 5, 14, 184, 187, 158, 170, 176, 190, 2, 0.285624
337, 2, bw, filler, NA, 999, 999, 5, 15, 73, 147, 154, 167, 147, 66, 2, 1.22418
337, 2, bw, filler, NA, 999, 999, 5, 15, 73, 147, 154, 167, 147, 66, 3, 5.57391
337, 2, bw, attraction, a-b-db, 14, 1, 5, 16, 135, 60, 56, 125, 60, 135, 3, 2.02724
337, 2, bw, attraction, a-b-db, 14, 1, 5, 16, 135, 60, 56, 125, 60, 135, 1, 0.536548
337, 2, bw, attraction, a-b-da, 2, 2, 5, 17, 163, 89, 165, 90, 90, 165, 1, 6.57711
337, 2, bw, attraction, a-b-da, 2, 2, 5, 17, 163, 89, 165, 90, 90, 165, 2, 2.41507
337, 2, bw, attraction, a-b-db, 5, 2, 5, 18, 88, 161, 90, 165, 165, 90, 2, 4.02755
337, 2, bw, attraction, a-b-db, 5, 2, 5, 18, 88, 161, 90, 165, 165, 90, 1, 0.376338
337, 2, bw, attraction, a-b-da, 9, 1, 5, 19, 129, 57, 135, 60, 60, 135, 3, 2.90267
337, 2, bw, attraction, a-b-da, 9, 1, 5, 19, 129, 57, 135, 60, 60, 135, 1, 0.449125
337, 2, bw, attraction, a-b-da, 9, 2, 5, 20, 165, 90, 90, 165, 157, 86, 1, 1.70897
337, 2, bw, attraction, a-b-da, 9, 2, 5, 20, 165, 90, 90, 165, 157, 86, 3, 0.951002
337, 2, bw, attraction, a-b-da, 2, 1, 5, 21, 60, 135, 135, 60, 134, 59, 1, 7.11067
337, 2, bw, attraction, a-b-da, 2, 1, 5, 21, 60, 135, 135, 60, 134, 59, 3, 1.25515
337, 2, bw, attraction, a-b-db, 2, 1, 5, 22, 60, 135, 135, 60, 59, 134, 1, 1.75473
337, 2, bw, attraction, a-b-db, 2, 1, 5, 22, 60, 135, 135, 60, 59, 134, 3, 1.4909
337, 2, bw, catch, NA, 999, 999, 5, 23, 134, 121, 126, 189, 128, 67, 2, 1.2202
337, 2, bw, catch, NA, 999, 999, 5, 23, 134, 121, 126, 189, 128, 67, 3, 3.08259
337, 2, bw, attraction, a-b-db, 14, 3, 5, 24, 195, 120, 111, 181, 120, 195, 3, 1.6041
337, 2, bw, attraction, a-b-db, 14, 3, 5, 24, 195, 120, 111, 181, 120, 195, 2, 0.354232
337, 2, bw, catch, NA, 999, 999, 5, 25, 126, 69, 195, 120, 108, 147, 2, 1.20201
337, 2, bw, catch, NA, 999, 999, 5, 25, 126, 69, 195, 120, 108, 147, 1, 0.70516
337, 2, bw, filler, NA, 999, 999, 5, 26, 107, 150, 116, 99, 93, 117, 1, 1.20279
337, 2, bw, filler, NA, 999, 999, 5, 26, 107, 150, 116, 99, 93, 117, 2, 1.47372
337, 2, bw, attraction, a-b-da, 14, 2, 5, 27, 90, 165, 165, 90, 153, 83, 1, 1.8758
337, 2, bw, attraction, a-b-da, 14, 2, 5, 27, 90, 165, 165, 90, 153, 83, 3, 0.863184
337, 2, bw, filler, NA, 999, 999, 5, 28, 92, 131, 124, 149, 140, 134, 2, 4.05835
337, 2, bw, filler, NA, 999, 999, 5, 28, 92, 131, 124, 149, 140, 134, 1, 0.469538
337, 2, bw, attraction, a-b-db, 2, 3, 5, 29, 120, 195, 119, 193, 195, 120, 2, 6.12877
337, 2, bw, attraction, a-b-db, 2, 3, 5, 29, 120, 195, 119, 193, 195, 120, 1, 2.24878
337, 2, bw, attraction, a-b-da, 2, 3, 5, 30, 120, 195, 193, 119, 195, 120, 1, 4.32408
337, 2, bw, attraction, a-b-da, 2, 3, 5, 30, 120, 195, 193, 119, 195, 120, 3, 1.44471
337, 2, bw, filler, NA, 999, 999, 5, 31, 152, 161, 118, 185, 155, 136, 1, 17.2803
337, 2, bw, filler, NA, 999, 999, 5, 31, 152, 161, 118, 185, 155, 136, 3, 1.65491
337, 2, bw, attraction, a-b-db, 14, 2, 5, 32, 90, 165, 83, 153, 165, 90, 1, 2.35414
337, 2, bw, attraction, a-b-db, 14, 2, 5, 32, 90, 165, 83, 153, 165, 90, 2, 0.338663
337, 2, bw, attraction, a-b-db, 5, 3, 5, 33, 120, 195, 117, 190, 195, 120, 1, 5.01931
337, 2, bw, attraction, a-b-db, 5, 3, 5, 33, 120, 195, 117, 190, 195, 120, 2, 0.752402
337, 2, bw, filler, NA, 999, 999, 5, 34, 186, 178, 129, 152, 83, 175, 1, 0.807969
337, 2, bw, filler, NA, 999, 999, 5, 34, 186, 178, 129, 152, 83, 175, 3, 0.470394
337, 2, bw, catch, NA, 999, 999, 5, 35, 75, 120, 96, 159, 194, 121, 3, 1.25755
337, 2, bw, catch, NA, 999, 999, 5, 35, 75, 120, 96, 159, 194, 121, 1, 1.04568
337, 2, bw, filler, NA, 999, 999, 5, 36, 108, 107, 152, 92, 60, 87, 2, 3.35334
337, 2, bw, filler, NA, 999, 999, 5, 36, 108, 107, 152, 92, 60, 87, 3, 0.297563
337, 2, bw, attraction, a-b-da, 5, 2, 5, 37, 165, 90, 90, 165, 161, 88, 1, 9.77151
337, 2, bw, attraction, a-b-da, 5, 2, 5, 37, 165, 90, 90, 165, 161, 88, 3, 2.77703
337, 2, bw, catch, NA, 999, 999, 6, 1, 97, 98, 140, 115, 159, 156, 3, 0.886779
337, 2, bw, catch, NA, 999, 999, 6, 1, 97, 98, 140, 115, 159, 156, 1, 0.370459
337, 2, bw, attraction, a-b-db, 9, 2, 6, 2, 165, 90, 86, 157, 90, 165, 3, 4.40164
337, 2, bw, attraction, a-b-db, 9, 2, 6, 2, 165, 90, 86, 157, 90, 165, 2, 0.543706
337, 2, bw, filler, NA, 999, 999, 6, 3, 175, 64, 118, 180, 142, 182, 3, 1.74342
337, 2, bw, filler, NA, 999, 999, 6, 3, 175, 64, 118, 180, 142, 182, 1, 0.720099
337, 2, bw, attraction, a-b-db, 2, 2, 6, 4, 89, 163, 90, 165, 165, 90, 2, 8.7532
337, 2, bw, attraction, a-b-db, 2, 2, 6, 4, 89, 163, 90, 165, 165, 90, 3, 0.407757
337, 2, bw, attraction, a-b-da, 2, 1, 6, 5, 60, 135, 134, 59, 135, 60, 1, 2.34889
337, 2, bw, attraction, a-b-da, 2, 1, 6, 5, 60, 135, 134, 59, 135, 60, 3, 0.941408
337, 2, bw, attraction, a-b-da, 5, 2, 6, 6, 165, 90, 161, 88, 90, 165, 3, 4.46917
337, 2, bw, attraction, a-b-da, 5, 2, 6, 6, 165, 90, 161, 88, 90, 165, 2, 0.928318
337, 2, bw, attraction, a-b-da, 5, 3, 6, 7, 120, 195, 195, 120, 190, 117, 2, 1.14462
337, 2, bw, attraction, a-b-da, 5, 3, 6, 7, 120, 195, 195, 120, 190, 117, 1, 1.30559
337, 2, bw, attraction, a-b-db, 5, 1, 6, 8, 135, 60, 58, 132, 60, 135, 2, 13.8512
337, 2, bw, attraction, a-b-db, 5, 1, 6, 8, 135, 60, 58, 132, 60, 135, 1, 0.324126
337, 2, bw, attraction, a-b-da, 14, 3, 6, 9, 195, 120, 120, 195, 181, 111, 2, 3.29263
337, 2, bw, attraction, a-b-da, 14, 3, 6, 9, 195, 120, 120, 195, 181, 111, 3, 0.870984
337, 2, bw, attraction, a-b-da, 9, 1, 6, 10, 129, 57, 135, 60, 60, 135, 2, 1.85786
337, 2, bw, attraction, a-b-da, 9, 1, 6, 10, 129, 57, 135, 60, 60, 135, 1, 0.805915
337, 2, bw, attraction, a-b-db, 5, 2, 6, 11, 88, 161, 165, 90, 90, 165, 3, 2.65162
337, 2, bw, attraction, a-b-db, 5, 2, 6, 11, 88, 161, 165, 90, 90, 165, 1, 0.616186
337, 2, bw, attraction, a-b-da, 14, 1, 6, 12, 135, 60, 125, 56, 60, 135, 3, 5.87727
337, 2, bw, attraction, a-b-da, 14, 1, 6, 12, 135, 60, 125, 56, 60, 135, 2, 0.623512
337, 2, bw, filler, NA, 999, 999, 6, 13, 75, 195, 66, 68, 180, 155, 3, 0.731867
337, 2, bw, filler, NA, 999, 999, 6, 13, 75, 195, 66, 68, 180, 155, 2, 0.509471
337, 2, bw, attraction, a-b-db, 14, 3, 6, 14, 111, 181, 120, 195, 195, 120, 2, 4.86263
337, 2, bw, attraction, a-b-db, 14, 3, 6, 14, 111, 181, 120, 195, 195, 120, 1, 0.433918
337, 2, bw, filler, NA, 999, 999, 6, 15, 75, 139, 126, 99, 124, 71, 2, 3.40624
337, 2, bw, filler, NA, 999, 999, 6, 15, 75, 139, 126, 99, 124, 71, 3, 1.06782
337, 2, bw, filler, NA, 999, 999, 6, 16, 81, 191, 86, 80, 57, 162, 1, 1.43871
337, 2, bw, filler, NA, 999, 999, 6, 16, 81, 191, 86, 80, 57, 162, 2, 3.00369
337, 2, bw, filler, NA, 999, 999, 6, 17, 148, 69, 102, 102, 173, 175, 3, 1.08057
337, 2, bw, filler, NA, 999, 999, 6, 17, 148, 69, 102, 102, 173, 175, 1, 3.42027
337, 2, bw, attraction, a-b-da, 9, 2, 6, 18, 165, 90, 90, 165, 157, 86, 1, 2.79253
337, 2, bw, attraction, a-b-da, 9, 2, 6, 18, 165, 90, 90, 165, 157, 86, 3, 0.518903
337, 2, bw, attraction, a-b-db, 14, 2, 6, 19, 165, 90, 83, 153, 90, 165, 1, 9.28803
337, 2, bw, attraction, a-b-db, 14, 2, 6, 19, 165, 90, 83, 153, 90, 165, 2, 0.873185
337, 2, bw, attraction, a-b-db, 2, 3, 6, 20, 119, 193, 195, 120, 120, 195, 1, 11.2594
337, 2, bw, attraction, a-b-db, 2, 3, 6, 20, 119, 193, 195, 120, 120, 195, 2, 0.484537
337, 2, bw, filler, NA, 999, 999, 6, 21, 99, 157, 123, 88, 165, 156, 3, 1.06298
337, 2, bw, filler, NA, 999, 999, 6, 21, 99, 157, 123, 88, 165, 156, 2, 1.5393
337, 2, bw, attraction, a-b-da, 2, 3, 6, 22, 120, 195, 193, 119, 195, 120, 1, 9.18757
337, 2, bw, attraction, a-b-da, 2, 3, 6, 22, 120, 195, 193, 119, 195, 120, 3, 0.688503
337, 2, bw, catch, NA, 999, 999, 6, 23, 132, 183, 108, 147, 72, 123, 1, 1.29883
337, 2, bw, catch, NA, 999, 999, 6, 23, 132, 183, 108, 147, 72, 123, 3, 0.46978
337, 2, bw, filler, NA, 999, 999, 6, 24, 56, 126, 150, 121, 111, 162, 2, 4.51298
337, 2, bw, filler, NA, 999, 999, 6, 24, 56, 126, 150, 121, 111, 162, 1, 1.19426
337, 2, bw, attraction, a-b-da, 9, 3, 6, 25, 120, 195, 186, 114, 195, 120, 1, 23.5758
337, 2, bw, attraction, a-b-da, 9, 3, 6, 25, 120, 195, 186, 114, 195, 120, 2, 0.31295
337, 2, bw, filler, NA, 999, 999, 6, 26, 180, 150, 68, 68, 162, 132, 1, 1.37027
337, 2, bw, filler, NA, 999, 999, 6, 26, 180, 150, 68, 68, 162, 132, 2, 1.22576
337, 2, bw, filler, NA, 999, 999, 6, 27, 157, 136, 89, 102, 113, 189, 3, 6.13398
337, 2, bw, filler, NA, 999, 999, 6, 27, 157, 136, 89, 102, 113, 189, 2, 0.57402
337, 2, bw, attraction, a-b-db, 5, 3, 6, 28, 195, 120, 117, 190, 120, 195, 2, 3.27662
337, 2, bw, attraction, a-b-db, 5, 3, 6, 28, 195, 120, 117, 190, 120, 195, 1, 0.743322
337, 2, bw, attraction, a-b-da, 14, 2, 6, 29, 165, 90, 153, 83, 90, 165, 1, 4.55906
337, 2, bw, attraction, a-b-da, 14, 2, 6, 29, 165, 90, 153, 83, 90, 165, 2, 0.294336
337, 2, bw, attraction, a-b-db, 9, 3, 6, 30, 114, 186, 195, 120, 120, 195, 3, 3.33614
337, 2, bw, attraction, a-b-db, 9, 3, 6, 30, 114, 186, 195, 120, 120, 195, 1, 0.393188
337, 2, bw, filler, NA, 999, 999, 6, 31, 128, 59, 108, 104, 152, 62, 3, 3.87891
337, 2, bw, filler, NA, 999, 999, 6, 31, 128, 59, 108, 104, 152, 62, 1, 0.68161
337, 2, bw, attraction, a-b-db, 9, 1, 6, 32, 135, 60, 57, 129, 60, 135, 2, 6.26806
337, 2, bw, attraction, a-b-db, 9, 1, 6, 32, 135, 60, 57, 129, 60, 135, 1, 0.462685
337, 2, bw, catch, NA, 999, 999, 6, 33, 77, 118, 93, 162, 125, 190, 3, 1.43386
337, 2, bw, catch, NA, 999, 999, 6, 33, 77, 118, 93, 162, 125, 190, 1, 0.895407
337, 2, bw, attraction, a-b-db, 2, 1, 6, 34, 60, 135, 59, 134, 135, 60, 2, 2.97707
337, 2, bw, attraction, a-b-db, 2, 1, 6, 34, 60, 135, 59, 134, 135, 60, 3, 0.960055
337, 2, bw, attraction, a-b-db, 14, 1, 6, 35, 60, 135, 135, 60, 56, 125, 1, 2.40716
337, 2, bw, attraction, a-b-db, 14, 1, 6, 35, 60, 135, 135, 60, 56, 125, 3, 0.757091
337, 2, bw, attraction, a-b-da, 5, 1, 6, 36, 60, 135, 135, 60, 132, 58, 1, 2.02805
337, 2, bw, attraction, a-b-da, 5, 1, 6, 36, 60, 135, 135, 60, 132, 58, 2, 1.37738
337, 2, bw, attraction, a-b-da, 2, 2, 6, 37, 163, 89, 165, 90, 90, 165, 3, 2.45552
337, 2, bw, attraction, a-b-da, 2, 2, 6, 37, 163, 89, 165, 90, 90, 165, 1, 1.67548
337, 2, bw, filler, NA, 999, 999, 7, 1, 145, 155, 174, 134, 141, 109, 2, 3.33362
337, 2, bw, filler, NA, 999, 999, 7, 1, 145, 155, 174, 134, 141, 109, 3, 0.446368
337, 2, bw, attraction, a-b-da, 5, 2, 7, 2, 90, 165, 161, 88, 165, 90, 1, 5.93822
337, 2, bw, attraction, a-b-da, 5, 2, 7, 2, 90, 165, 161, 88, 165, 90, 2, 0.322366
337, 2, bw, attraction, a-b-da, 5, 1, 7, 3, 135, 60, 60, 135, 132, 58, 2, 5.67554
337, 2, bw, attraction, a-b-da, 5, 1, 7, 3, 135, 60, 60, 135, 132, 58, 3, 1.08577
337, 2, bw, catch, NA, 999, 999, 7, 4, 99, 96, 139, 116, 170, 145, 3, 0.887928
337, 2, bw, catch, NA, 999, 999, 7, 4, 99, 96, 139, 116, 170, 145, 1, 0.882998
337, 2, bw, attraction, a-b-db, 2, 2, 7, 5, 165, 90, 89, 163, 90, 165, 1, 4.02149
337, 2, bw, attraction, a-b-db, 2, 2, 7, 5, 165, 90, 89, 163, 90, 165, 3, 2.3542
337, 2, bw, filler, NA, 999, 999, 7, 6, 179, 112, 92, 116, 105, 60, 1, 0.897263
337, 2, bw, filler, NA, 999, 999, 7, 6, 179, 112, 92, 116, 105, 60, 3, 1.12443
337, 2, bw, filler, NA, 999, 999, 7, 7, 182, 92, 65, 123, 131, 59, 1, 1.21256
337, 2, bw, filler, NA, 999, 999, 7, 7, 182, 92, 65, 123, 131, 59, 2, 3.93888
337, 2, bw, catch, NA, 999, 999, 7, 8, 86, 109, 164, 151, 91, 164, 2, 1.40216
337, 2, bw, catch, NA, 999, 999, 7, 8, 86, 109, 164, 151, 91, 164, 1, 3.05704
337, 2, bw, attraction, a-b-db, 9, 3, 7, 9, 120, 195, 195, 120, 114, 186, 1, 5.59538
337, 2, bw, attraction, a-b-db, 9, 3, 7, 9, 120, 195, 195, 120, 114, 186, 3, 0.80102
337, 2, bw, filler, NA, 999, 999, 7, 10, 67, 59, 131, 94, 135, 135, 3, 1.72674
337, 2, bw, filler, NA, 999, 999, 7, 10, 67, 59, 131, 94, 135, 135, 1, 0.368122
337, 2, bw, attraction, a-b-db, 14, 3, 7, 11, 195, 120, 120, 195, 111, 181, 1, 8.47927
337, 2, bw, attraction, a-b-db, 14, 3, 7, 11, 195, 120, 120, 195, 111, 181, 3, 0.392556
337, 2, bw, attraction, a-b-da, 2, 1, 7, 12, 135, 60, 60, 135, 134, 59, 1, 5.71844
337, 2, bw, attraction, a-b-da, 2, 1, 7, 12, 135, 60, 60, 135, 134, 59, 3, 0.823348
337, 2, bw, filler, NA, 999, 999, 7, 13, 194, 148, 138, 142, 112, 123, 1, 1.13966
337, 2, bw, filler, NA, 999, 999, 7, 13, 194, 148, 138, 142, 112, 123, 3, 0.684555
337, 2, bw, filler, NA, 999, 999, 7, 14, 74, 126, 77, 67, 94, 184, 3, 1.4469
337, 2, bw, filler, NA, 999, 999, 7, 14, 74, 126, 77, 67, 94, 184, 2, 1.81171
337, 2, bw, attraction, a-b-db, 14, 2, 7, 15, 83, 153, 90, 165, 165, 90, 2, 5.40046
337, 2, bw, attraction, a-b-db, 14, 2, 7, 15, 83, 153, 90, 165, 165, 90, 1, 2.82215
337, 2, bw, attraction, a-b-db, 9, 2, 7, 16, 90, 165, 165, 90, 86, 157, 1, 13.9865
337, 2, bw, attraction, a-b-db, 9, 2, 7, 16, 90, 165, 165, 90, 86, 157, 2, 1.04606
337, 2, bw, attraction, a-b-da, 9, 1, 7, 17, 135, 60, 60, 135, 129, 57, 1, 4.80986
337, 2, bw, attraction, a-b-da, 9, 1, 7, 17, 135, 60, 60, 135, 129, 57, 3, 2.31888
337, 2, bw, attraction, a-b-da, 5, 3, 7, 18, 120, 195, 195, 120, 190, 117, 2, 10.5114
337, 2, bw, attraction, a-b-da, 5, 3, 7, 18, 120, 195, 195, 120, 190, 117, 1, 0.822834
337, 2, bw, filler, NA, 999, 999, 7, 19, 102, 190, 101, 149, 180, 180, 3, 2.27526
337, 2, bw, filler, NA, 999, 999, 7, 19, 102, 190, 101, 149, 180, 180, 2, 1.85445
337, 2, bw, attraction, a-b-db, 2, 1, 7, 20, 59, 134, 135, 60, 60, 135, 1, 6.68968
337, 2, bw, attraction, a-b-db, 2, 1, 7, 20, 59, 134, 135, 60, 60, 135, 3, 0.898854
337, 2, bw, attraction, a-b-da, 2, 3, 7, 21, 193, 119, 195, 120, 120, 195, 3, 7.12457
337, 2, bw, attraction, a-b-da, 2, 3, 7, 21, 193, 119, 195, 120, 120, 195, 1, 0.572439
337, 2, bw, attraction, a-b-db, 5, 3, 7, 22, 120, 195, 195, 120, 117, 190, 1, 3.53084
337, 2, bw, attraction, a-b-db, 5, 3, 7, 22, 120, 195, 195, 120, 117, 190, 2, 1.41176
337, 2, bw, attraction, a-b-db, 2, 3, 7, 23, 195, 120, 119, 193, 120, 195, 2, 6.39253
337, 2, bw, attraction, a-b-db, 2, 3, 7, 23, 195, 120, 119, 193, 120, 195, 3, 1.98181
337, 2, bw, attraction, a-b-da, 9, 2, 7, 24, 157, 86, 90, 165, 165, 90, 2, 1.95582
337, 2, bw, attraction, a-b-da, 9, 2, 7, 24, 157, 86, 90, 165, 165, 90, 1, 0.595871
337, 2, bw, attraction, a-b-db, 14, 1, 7, 25, 56, 125, 135, 60, 60, 135, 3, 7.40155
337, 2, bw, attraction, a-b-db, 14, 1, 7, 25, 56, 125, 135, 60, 60, 135, 1, 1.37463
337, 2, bw, attraction, a-b-da, 2, 2, 7, 26, 163, 89, 90, 165, 165, 90, 2, 4.87683
337, 2, bw, attraction, a-b-da, 2, 2, 7, 26, 163, 89, 90, 165, 165, 90, 3, 0.863179
337, 2, bw, catch, NA, 999, 999, 7, 27, 129, 126, 123, 192, 108, 87, 2, 0.938169
337, 2, bw, catch, NA, 999, 999, 7, 27, 129, 126, 123, 192, 108, 87, 3, 0.851177
337, 2, bw, filler, NA, 999, 999, 7, 28, 155, 92, 179, 69, 168, 58, 1, 3.15087
337, 2, bw, filler, NA, 999, 999, 7, 28, 155, 92, 179, 69, 168, 58, 3, 1.19921
337, 2, bw, attraction, a-b-da, 14, 1, 7, 29, 135, 60, 60, 135, 125, 56, 1, 2.55673
337, 2, bw, attraction, a-b-da, 14, 1, 7, 29, 135, 60, 60, 135, 125, 56, 3, 0.652627
337, 2, bw, attraction, a-b-da, 9, 3, 7, 30, 120, 195, 186, 114, 195, 120, 1, 2.1923
337, 2, bw, attraction, a-b-da, 9, 3, 7, 30, 120, 195, 186, 114, 195, 120, 2, 1.20706
337, 2, bw, attraction, a-b-db, 9, 1, 7, 31, 57, 129, 135, 60, 60, 135, 3, 8.05202
337, 2, bw, attraction, a-b-db, 9, 1, 7, 31, 57, 129, 135, 60, 60, 135, 1, 0.526696
337, 2, bw, attraction, a-b-db, 5, 1, 7, 32, 60, 135, 58, 132, 135, 60, 1, 1.92704
337, 2, bw, attraction, a-b-db, 5, 1, 7, 32, 60, 135, 58, 132, 135, 60, 3, 0.728458
337, 2, bw, filler, NA, 999, 999, 7, 33, 87, 127, 120, 153, 181, 155, 3, 1.30488
337, 2, bw, filler, NA, 999, 999, 7, 33, 87, 127, 120, 153, 181, 155, 1, 0.539113
337, 2, bw, attraction, a-b-db, 5, 2, 7, 34, 90, 165, 165, 90, 88, 161, 1, 4.9635
337, 2, bw, attraction, a-b-db, 5, 2, 7, 34, 90, 165, 165, 90, 88, 161, 3, 1.01854
337, 2, bw, attraction, a-b-da, 14, 3, 7, 35, 195, 120, 181, 111, 120, 195, 1, 1.8795
337, 2, bw, attraction, a-b-da, 14, 3, 7, 35, 195, 120, 181, 111, 120, 195, 2, 0.410936
337, 2, bw, attraction, a-b-da, 14, 2, 7, 36, 90, 165, 153, 83, 165, 90, 1, 1.96801
337, 2, bw, attraction, a-b-da, 14, 2, 7, 36, 90, 165, 153, 83, 165, 90, 2, 0.280166
337, 2, bw, filler, NA, 999, 999, 7, 37, 133, 98, 60, 182, 111, 120, 3, 3.19464
337, 2, bw, filler, NA, 999, 999, 7, 37, 133, 98, 60, 182, 111, 120, 2, 0.5451
337, 2, bw, attraction, a-b-db, 9, 2, 8, 1, 165, 90, 86, 157, 90, 165, 3, 2.85685
337, 2, bw, attraction, a-b-db, 9, 2, 8, 1, 165, 90, 86, 157, 90, 165, 2, 1.83642
337, 2, bw, attraction, a-b-db, 2, 2, 8, 2, 165, 90, 90, 165, 89, 163, 1, 13.6325
337, 2, bw, attraction, a-b-db, 2, 2, 8, 2, 165, 90, 90, 165, 89, 163, 3, 1.33026
337, 2, bw, catch, NA, 999, 999, 8, 3, 122, 133, 120, 195, 116, 79, 2, 2.05832
337, 2, bw, catch, NA, 999, 999, 8, 3, 122, 133, 120, 195, 116, 79, 3, 1.77456
337, 2, bw, attraction, a-b-db, 2, 1, 8, 4, 59, 134, 135, 60, 60, 135, 1, 4.30038
337, 2, bw, attraction, a-b-db, 2, 1, 8, 4, 59, 134, 135, 60, 60, 135, 2, 2.0705
337, 2, bw, attraction, a-b-da, 14, 1, 8, 5, 60, 135, 125, 56, 135, 60, 1, 3.77707
337, 2, bw, attraction, a-b-da, 14, 1, 8, 5, 60, 135, 125, 56, 135, 60, 2, 0.807968
337, 2, bw, attraction, a-b-db, 9, 1, 8, 6, 135, 60, 57, 129, 60, 135, 3, 1.94088
337, 2, bw, attraction, a-b-db, 9, 1, 8, 6, 135, 60, 57, 129, 60, 135, 2, 0.501528
337, 2, bw, attraction, a-b-da, 14, 2, 8, 7, 90, 165, 165, 90, 153, 83, 1, 3.25539
337, 2, bw, attraction, a-b-da, 14, 2, 8, 7, 90, 165, 165, 90, 153, 83, 3, 0.57915
337, 2, bw, filler, NA, 999, 999, 8, 8, 180, 127, 94, 130, 140, 86, 1, 2.39333
337, 2, bw, filler, NA, 999, 999, 8, 8, 180, 127, 94, 130, 140, 86, 3, 0.631913
337, 2, bw, attraction, a-b-db, 2, 3, 8, 9, 195, 120, 119, 193, 120, 195, 2, 9.66829
337, 2, bw, attraction, a-b-db, 2, 3, 8, 9, 195, 120, 119, 193, 120, 195, 3, 0.357949
337, 2, bw, catch, NA, 999, 999, 8, 10, 135, 180, 113, 82, 135, 120, 1, 1.7332
337, 2, bw, catch, NA, 999, 999, 8, 10, 135, 180, 113, 82, 135, 120, 2, 1.13462
337, 2, bw, attraction, a-b-da, 5, 1, 8, 11, 135, 60, 132, 58, 60, 135, 3, 4.70274
337, 2, bw, attraction, a-b-da, 5, 1, 8, 11, 135, 60, 132, 58, 60, 135, 2, 1.03267
337, 2, bw, attraction, a-b-da, 5, 3, 8, 12, 190, 117, 120, 195, 195, 120, 2, 8.63713
337, 2, bw, attraction, a-b-da, 5, 3, 8, 12, 190, 117, 120, 195, 195, 120, 1, 1.00816
337, 2, bw, attraction, a-b-db, 14, 3, 8, 13, 195, 120, 111, 181, 120, 195, 3, 18.6052
337, 2, bw, attraction, a-b-db, 14, 3, 8, 13, 195, 120, 111, 181, 120, 195, 1, 2.50273
337, 2, bw, attraction, a-b-da, 9, 3, 8, 14, 195, 120, 186, 114, 120, 195, 3, 8.04787
337, 2, bw, attraction, a-b-da, 9, 3, 8, 14, 195, 120, 186, 114, 120, 195, 2, 0.72264
337, 2, bw, filler, NA, 999, 999, 8, 15, 172, 96, 168, 117, 99, 135, 2, 2.35495
337, 2, bw, filler, NA, 999, 999, 8, 15, 172, 96, 168, 117, 99, 135, 3, 0.442886
337, 2, bw, catch, NA, 999, 999, 8, 16, 176, 139, 82, 113, 96, 159, 1, 0.902673
337, 2, bw, catch, NA, 999, 999, 8, 16, 176, 139, 82, 113, 96, 159, 2, 0.40983
337, 2, bw, filler, NA, 999, 999, 8, 17, 155, 98, 66, 142, 171, 168, 3, 1.08686
337, 2, bw, filler, NA, 999, 999, 8, 17, 155, 98, 66, 142, 171, 168, 2, 1.25867
337, 2, bw, attraction, a-b-da, 9, 1, 8, 18, 135, 60, 129, 57, 60, 135, 1, 5.83758
337, 2, bw, attraction, a-b-da, 9, 1, 8, 18, 135, 60, 129, 57, 60, 135, 3, 0.601546
337, 2, bw, attraction, a-b-db, 14, 1, 8, 19, 56, 125, 60, 135, 135, 60, 2, 1.29537
337, 2, bw, attraction, a-b-db, 14, 1, 8, 19, 56, 125, 60, 135, 135, 60, 1, 0.402179
337, 2, bw, filler, NA, 999, 999, 8, 20, 68, 114, 59, 90, 151, 96, 3, 1.39996
337, 2, bw, filler, NA, 999, 999, 8, 20, 68, 114, 59, 90, 151, 96, 2, 0.318915
337, 2, bw, attraction, a-b-db, 9, 3, 8, 21, 120, 195, 195, 120, 114, 186, 2, 4.89613
337, 2, bw, attraction, a-b-db, 9, 3, 8, 21, 120, 195, 195, 120, 114, 186, 3, 1.40185
337, 2, bw, attraction, a-b-da, 2, 1, 8, 22, 60, 135, 135, 60, 134, 59, 1, 6.30334
337, 2, bw, attraction, a-b-da, 2, 1, 8, 22, 60, 135, 135, 60, 134, 59, 3, 1.20871
337, 2, bw, attraction, a-b-db, 14, 2, 8, 23, 90, 165, 165, 90, 83, 153, 2, 11.7096
337, 2, bw, attraction, a-b-db, 14, 2, 8, 23, 90, 165, 165, 90, 83, 153, 3, 0.836572
337, 2, bw, attraction, a-b-db, 5, 2, 8, 24, 88, 161, 90, 165, 165, 90, 2, 4.90486
337, 2, bw, attraction, a-b-db, 5, 2, 8, 24, 88, 161, 90, 165, 165, 90, 3, 1.058
337, 2, bw, filler, NA, 999, 999, 8, 25, 155, 127, 127, 162, 146, 181, 3, 1.74894
337, 2, bw, filler, NA, 999, 999, 8, 25, 155, 127, 127, 162, 146, 181, 2, 0.365701
337, 2, bw, attraction, a-b-da, 14, 3, 8, 26, 195, 120, 181, 111, 120, 195, 1, 4.65286
337, 2, bw, attraction, a-b-da, 14, 3, 8, 26, 195, 120, 181, 111, 120, 195, 2, 1.60878
337, 2, bw, attraction, a-b-da, 2, 2, 8, 27, 163, 89, 90, 165, 165, 90, 2, 5.47753
337, 2, bw, attraction, a-b-da, 2, 2, 8, 27, 163, 89, 90, 165, 165, 90, 1, 1.1918
337, 2, bw, filler, NA, 999, 999, 8, 28, 193, 193, 56, 109, 136, 132, 1, 0.973306
337, 2, bw, filler, NA, 999, 999, 8, 28, 193, 193, 56, 109, 136, 132, 2, 0.62894
337, 2, bw, filler, NA, 999, 999, 8, 29, 95, 168, 154, 164, 173, 184, 3, 2.27338
337, 2, bw, filler, NA, 999, 999, 8, 29, 95, 168, 154, 164, 173, 184, 1, 0.540602
337, 2, bw, filler, NA, 999, 999, 8, 30, 69, 176, 151, 93, 72, 153, 2, 6.06848
337, 2, bw, filler, NA, 999, 999, 8, 30, 69, 176, 151, 93, 72, 153, 3, 5.27141
337, 2, bw, filler, NA, 999, 999, 8, 31, 90, 164, 145, 193, 134, 77, 2, 1.16885
337, 2, bw, filler, NA, 999, 999, 8, 31, 90, 164, 145, 193, 134, 77, 3, 0.50516
337, 2, bw, attraction, a-b-db, 5, 3, 8, 32, 120, 195, 195, 120, 117, 190, 1, 8.53087
337, 2, bw, attraction, a-b-db, 5, 3, 8, 32, 120, 195, 195, 120, 117, 190, 2, 0.266144
337, 2, bw, attraction, a-b-da, 9, 2, 8, 33, 165, 90, 157, 86, 90, 165, 1, 3.42139
337, 2, bw, attraction, a-b-da, 9, 2, 8, 33, 165, 90, 157, 86, 90, 165, 2, 0.618277
337, 2, bw, attraction, a-b-da, 5, 2, 8, 34, 90, 165, 161, 88, 165, 90, 1, 2.45534
337, 2, bw, attraction, a-b-da, 5, 2, 8, 34, 90, 165, 161, 88, 165, 90, 2, 0.475232
337, 2, bw, attraction, a-b-da, 2, 3, 8, 35, 120, 195, 193, 119, 195, 120, 1, 6.5417
337, 2, bw, attraction, a-b-da, 2, 3, 8, 35, 120, 195, 193, 119, 195, 120, 2, 0.260913
337, 2, bw, filler, NA, 999, 999, 8, 36, 104, 103, 170, 137, 81, 155, 2, 1.04012
337, 2, bw, filler, NA, 999, 999, 8, 36, 104, 103, 170, 137, 81, 155, 1, 0.605089
337, 2, bw, attraction, a-b-db, 5, 1, 8, 37, 135, 60, 58, 132, 60, 135, 2, 5.8989
337, 2, bw, attraction, a-b-db, 5, 1, 8, 37, 135, 60, 58, 132, 60, 135, 1, 0.492348
