sub_n, computer_n, bw_cond, effect, set, distance, diag, block_n, trial_n, h1, w1, h2, w2, h3, w3, choice, rt 
355, 2, bw, practice, NA, 999, 999, 0, 1, 70, 73, 115, 185, 72, 149, 2, 6.47887
355, 2, bw, practice, NA, 999, 999, 0, 1, 70, 73, 115, 185, 72, 149, 1, 12.2503
355, 2, bw, practice, NA, 999, 999, 0, 2, 145, 71, 162, 118, 178, 177, 3, 15.5364
355, 2, bw, practice, NA, 999, 999, 0, 2, 145, 71, 162, 118, 178, 177, 1, 5.42147
355, 2, bw, practice, NA, 999, 999, 0, 3, 166, 98, 118, 120, 82, 136, 1, 16.0034
355, 2, bw, practice, NA, 999, 999, 0, 3, 166, 98, 118, 120, 82, 136, 2, 3.97596
355, 2, bw, attraction, a-b-da, 14, 2, 1, 1, 90, 165, 165, 90, 153, 83, 1, 8.45007
355, 2, bw, attraction, a-b-da, 14, 2, 1, 1, 90, 165, 165, 90, 153, 83, 3, 5.79665
355, 2, bw, attraction, a-b-db, 5, 3, 1, 2, 117, 190, 120, 195, 195, 120, 3, 8.48077
355, 2, bw, attraction, a-b-db, 5, 3, 1, 2, 117, 190, 120, 195, 195, 120, 1, 4.93012
355, 2, bw, catch, NA, 999, 999, 1, 3, 88, 107, 117, 138, 157, 158, 3, 2.93706
355, 2, bw, catch, NA, 999, 999, 1, 3, 88, 107, 117, 138, 157, 158, 1, 0.930222
355, 2, bw, filler, NA, 999, 999, 1, 4, 182, 188, 190, 192, 60, 129, 1, 5.34645
355, 2, bw, filler, NA, 999, 999, 1, 4, 182, 188, 190, 192, 60, 129, 3, 0.594231
355, 2, bw, attraction, a-b-da, 9, 3, 1, 5, 120, 195, 186, 114, 195, 120, 1, 13.8079
355, 2, bw, attraction, a-b-da, 9, 3, 1, 5, 120, 195, 186, 114, 195, 120, 2, 0.3783
355, 2, bw, attraction, a-b-db, 14, 1, 1, 6, 60, 135, 56, 125, 135, 60, 3, 10.0968
355, 2, bw, attraction, a-b-db, 14, 1, 1, 6, 60, 135, 56, 125, 135, 60, 2, 1.36094
355, 2, bw, attraction, a-b-db, 2, 1, 1, 7, 60, 135, 59, 134, 135, 60, 3, 10.4637
355, 2, bw, attraction, a-b-db, 2, 1, 1, 7, 60, 135, 59, 134, 135, 60, 2, 5.16914
355, 2, bw, attraction, a-b-da, 2, 2, 1, 8, 90, 165, 165, 90, 163, 89, 3, 6.44678
355, 2, bw, attraction, a-b-da, 2, 2, 1, 8, 90, 165, 165, 90, 163, 89, 2, 1.24209
355, 2, bw, attraction, a-b-da, 9, 1, 1, 9, 129, 57, 60, 135, 135, 60, 2, 6.48557
355, 2, bw, attraction, a-b-da, 9, 1, 1, 9, 129, 57, 60, 135, 135, 60, 1, 0.847506
355, 2, bw, attraction, a-b-db, 5, 2, 1, 10, 90, 165, 88, 161, 165, 90, 3, 8.41115
355, 2, bw, attraction, a-b-db, 5, 2, 1, 10, 90, 165, 88, 161, 165, 90, 2, 1.99122
355, 2, bw, filler, NA, 999, 999, 1, 11, 123, 163, 157, 101, 166, 60, 1, 28.1966
355, 2, bw, filler, NA, 999, 999, 1, 11, 123, 163, 157, 101, 166, 60, 3, 7.07516
355, 2, bw, filler, NA, 999, 999, 1, 12, 83, 113, 111, 154, 188, 189, 3, 1.18752
355, 2, bw, filler, NA, 999, 999, 1, 12, 83, 113, 111, 154, 188, 189, 1, 1.09043
355, 2, bw, attraction, a-b-da, 5, 1, 1, 13, 132, 58, 135, 60, 60, 135, 3, 2.61995
355, 2, bw, attraction, a-b-da, 5, 1, 1, 13, 132, 58, 135, 60, 60, 135, 1, 0.665789
355, 2, bw, attraction, a-b-da, 5, 2, 1, 14, 165, 90, 161, 88, 90, 165, 3, 9.66093
355, 2, bw, attraction, a-b-da, 5, 2, 1, 14, 165, 90, 161, 88, 90, 165, 2, 0.710445
355, 2, bw, filler, NA, 999, 999, 1, 15, 125, 130, 107, 79, 88, 159, 1, 13.6556
355, 2, bw, filler, NA, 999, 999, 1, 15, 125, 130, 107, 79, 88, 159, 2, 0.664565
355, 2, bw, attraction, a-b-da, 2, 3, 1, 16, 120, 195, 195, 120, 193, 119, 2, 6.65169
355, 2, bw, attraction, a-b-da, 2, 3, 1, 16, 120, 195, 195, 120, 193, 119, 1, 5.13497
355, 2, bw, attraction, a-b-db, 5, 1, 1, 17, 60, 135, 58, 132, 135, 60, 3, 7.9499
355, 2, bw, attraction, a-b-db, 5, 1, 1, 17, 60, 135, 58, 132, 135, 60, 2, 0.636643
355, 2, bw, filler, NA, 999, 999, 1, 18, 142, 129, 122, 65, 161, 62, 1, 3.76915
355, 2, bw, filler, NA, 999, 999, 1, 18, 142, 129, 122, 65, 161, 62, 2, 2.84875
355, 2, bw, filler, NA, 999, 999, 1, 19, 65, 96, 103, 150, 91, 79, 2, 14.1236
355, 2, bw, filler, NA, 999, 999, 1, 19, 65, 96, 103, 150, 91, 79, 1, 0.769888
355, 2, bw, attraction, a-b-db, 14, 3, 1, 20, 111, 181, 195, 120, 120, 195, 2, 3.61686
355, 2, bw, attraction, a-b-db, 14, 3, 1, 20, 111, 181, 195, 120, 120, 195, 1, 0.343935
355, 2, bw, attraction, a-b-db, 14, 2, 1, 21, 165, 90, 90, 165, 83, 153, 1, 4.43813
355, 2, bw, attraction, a-b-db, 14, 2, 1, 21, 165, 90, 90, 165, 83, 153, 3, 0.666769
355, 2, bw, catch, NA, 999, 999, 1, 22, 94, 161, 147, 168, 95, 100, 2, 2.0299
355, 2, bw, catch, NA, 999, 999, 1, 22, 94, 161, 147, 168, 95, 100, 3, 0.92322
355, 2, bw, attraction, a-b-da, 5, 3, 1, 23, 190, 117, 195, 120, 120, 195, 2, 17.0995
355, 2, bw, attraction, a-b-da, 5, 3, 1, 23, 190, 117, 195, 120, 120, 195, 1, 1.22562
355, 2, bw, catch, NA, 999, 999, 1, 24, 158, 97, 176, 139, 84, 111, 2, 1.88571
355, 2, bw, catch, NA, 999, 999, 1, 24, 158, 97, 176, 139, 84, 111, 3, 0.393119
355, 2, bw, attraction, a-b-db, 9, 1, 1, 25, 135, 60, 57, 129, 60, 135, 1, 6.23105
355, 2, bw, attraction, a-b-db, 9, 1, 1, 25, 135, 60, 57, 129, 60, 135, 3, 0.635047
355, 2, bw, attraction, a-b-db, 9, 2, 1, 26, 165, 90, 90, 165, 86, 157, 1, 5.3673
355, 2, bw, attraction, a-b-db, 9, 2, 1, 26, 165, 90, 90, 165, 86, 157, 3, 0.670315
355, 2, bw, filler, NA, 999, 999, 1, 27, 140, 160, 94, 65, 68, 97, 1, 16.2814
355, 2, bw, filler, NA, 999, 999, 1, 27, 140, 160, 94, 65, 68, 97, 3, 3.07227
355, 2, bw, attraction, a-b-db, 2, 3, 1, 28, 120, 195, 119, 193, 195, 120, 3, 2.79464
355, 2, bw, attraction, a-b-db, 2, 3, 1, 28, 120, 195, 119, 193, 195, 120, 2, 1.88378
355, 2, bw, attraction, a-b-da, 9, 2, 1, 29, 90, 165, 165, 90, 157, 86, 2, 1.43522
355, 2, bw, attraction, a-b-da, 9, 2, 1, 29, 90, 165, 165, 90, 157, 86, 1, 0.288526
355, 2, bw, filler, NA, 999, 999, 1, 30, 186, 82, 81, 161, 183, 153, 3, 0.955043
355, 2, bw, filler, NA, 999, 999, 1, 30, 186, 82, 81, 161, 183, 153, 2, 1.37146
355, 2, bw, attraction, a-b-db, 2, 2, 1, 31, 90, 165, 89, 163, 165, 90, 2, 1.7383
355, 2, bw, attraction, a-b-db, 2, 2, 1, 31, 90, 165, 89, 163, 165, 90, 1, 0.291004
355, 2, bw, attraction, a-b-da, 14, 3, 1, 32, 120, 195, 181, 111, 195, 120, 3, 1.61278
355, 2, bw, attraction, a-b-da, 14, 3, 1, 32, 120, 195, 181, 111, 195, 120, 1, 0.675095
355, 2, bw, attraction, a-b-da, 14, 1, 1, 33, 60, 135, 135, 60, 125, 56, 2, 2.82137
355, 2, bw, attraction, a-b-da, 14, 1, 1, 33, 60, 135, 135, 60, 125, 56, 3, 0.578525
355, 2, bw, filler, NA, 999, 999, 1, 34, 188, 130, 129, 103, 193, 109, 3, 4.25691
355, 2, bw, filler, NA, 999, 999, 1, 34, 188, 130, 129, 103, 193, 109, 2, 0.764225
355, 2, bw, filler, NA, 999, 999, 1, 35, 130, 180, 178, 185, 145, 143, 2, 2.06739
355, 2, bw, filler, NA, 999, 999, 1, 35, 130, 180, 178, 185, 145, 143, 3, 1.19921
355, 2, bw, attraction, a-b-db, 9, 3, 1, 36, 195, 120, 114, 186, 120, 195, 1, 3.70081
355, 2, bw, attraction, a-b-db, 9, 3, 1, 36, 195, 120, 114, 186, 120, 195, 3, 0.67095
355, 2, bw, attraction, a-b-da, 2, 1, 1, 37, 60, 135, 135, 60, 134, 59, 3, 9.5541
355, 2, bw, attraction, a-b-da, 2, 1, 1, 37, 60, 135, 135, 60, 134, 59, 1, 0.736384
355, 2, bw, catch, NA, 999, 999, 2, 1, 71, 124, 157, 98, 138, 177, 3, 2.60878
355, 2, bw, catch, NA, 999, 999, 2, 1, 71, 124, 157, 98, 138, 177, 1, 0.550594
355, 2, bw, attraction, a-b-db, 14, 3, 2, 2, 195, 120, 111, 181, 120, 195, 1, 1.98233
355, 2, bw, attraction, a-b-db, 14, 3, 2, 2, 195, 120, 111, 181, 120, 195, 3, 0.485715
355, 2, bw, attraction, a-b-da, 5, 3, 2, 3, 120, 195, 195, 120, 190, 117, 2, 2.52024
355, 2, bw, attraction, a-b-da, 5, 3, 2, 3, 120, 195, 195, 120, 190, 117, 1, 0.71328
355, 2, bw, attraction, a-b-da, 9, 2, 2, 4, 90, 165, 157, 86, 165, 90, 2, 2.09043
355, 2, bw, attraction, a-b-da, 9, 2, 2, 4, 90, 165, 157, 86, 165, 90, 1, 0.292968
355, 2, bw, filler, NA, 999, 999, 2, 5, 161, 136, 181, 184, 147, 183, 2, 0.502932
355, 2, bw, filler, NA, 999, 999, 2, 5, 161, 136, 181, 184, 147, 183, 1, 2.35411
355, 2, bw, attraction, a-b-db, 14, 1, 2, 6, 56, 125, 60, 135, 135, 60, 3, 2.02522
355, 2, bw, attraction, a-b-db, 14, 1, 2, 6, 56, 125, 60, 135, 135, 60, 1, 0.702657
355, 2, bw, filler, NA, 999, 999, 2, 7, 103, 159, 101, 178, 65, 97, 2, 1.20034
355, 2, bw, filler, NA, 999, 999, 2, 7, 103, 159, 101, 178, 65, 97, 3, 0.335242
355, 2, bw, attraction, a-b-da, 9, 3, 2, 8, 120, 195, 186, 114, 195, 120, 3, 1.5037
355, 2, bw, attraction, a-b-da, 9, 3, 2, 8, 120, 195, 186, 114, 195, 120, 1, 0.250776
355, 2, bw, attraction, a-b-db, 9, 1, 2, 9, 135, 60, 60, 135, 57, 129, 2, 3.12648
355, 2, bw, attraction, a-b-db, 9, 1, 2, 9, 135, 60, 60, 135, 57, 129, 1, 0.575443
355, 2, bw, attraction, a-b-db, 5, 2, 2, 10, 88, 161, 90, 165, 165, 90, 2, 2.22191
355, 2, bw, attraction, a-b-db, 5, 2, 2, 10, 88, 161, 90, 165, 165, 90, 1, 0.315093
355, 2, bw, attraction, a-b-da, 2, 1, 2, 11, 135, 60, 134, 59, 60, 135, 2, 1.66027
355, 2, bw, attraction, a-b-da, 2, 1, 2, 11, 135, 60, 134, 59, 60, 135, 3, 0.304479
355, 2, bw, filler, NA, 999, 999, 2, 12, 152, 177, 64, 89, 56, 108, 1, 1.48228
355, 2, bw, filler, NA, 999, 999, 2, 12, 152, 177, 64, 89, 56, 108, 2, 1.85384
355, 2, bw, filler, NA, 999, 999, 2, 13, 92, 60, 170, 135, 106, 66, 2, 1.96917
355, 2, bw, filler, NA, 999, 999, 2, 13, 92, 60, 170, 135, 106, 66, 1, 0.545285
355, 2, bw, filler, NA, 999, 999, 2, 14, 69, 108, 170, 170, 126, 97, 2, 0.89695
355, 2, bw, filler, NA, 999, 999, 2, 14, 69, 108, 170, 170, 126, 97, 1, 0.499951
355, 2, bw, attraction, a-b-da, 2, 2, 2, 15, 90, 165, 165, 90, 163, 89, 1, 0.821836
355, 2, bw, attraction, a-b-da, 2, 2, 2, 15, 90, 165, 165, 90, 163, 89, 3, 1.05162
355, 2, bw, attraction, a-b-da, 14, 1, 2, 16, 60, 135, 135, 60, 125, 56, 2, 0.847161
355, 2, bw, attraction, a-b-da, 14, 1, 2, 16, 60, 135, 135, 60, 125, 56, 1, 0.396194
355, 2, bw, attraction, a-b-da, 9, 1, 2, 17, 135, 60, 129, 57, 60, 135, 2, 0.841902
355, 2, bw, attraction, a-b-da, 9, 1, 2, 17, 135, 60, 129, 57, 60, 135, 3, 0.67907
355, 2, bw, attraction, a-b-db, 2, 1, 2, 18, 135, 60, 60, 135, 59, 134, 2, 1.28144
355, 2, bw, attraction, a-b-db, 2, 1, 2, 18, 135, 60, 60, 135, 59, 134, 3, 1.58907
355, 2, bw, attraction, a-b-da, 5, 1, 2, 19, 135, 60, 60, 135, 132, 58, 3, 2.52306
355, 2, bw, attraction, a-b-da, 5, 1, 2, 19, 135, 60, 60, 135, 132, 58, 2, 0.284343
355, 2, bw, attraction, a-b-db, 9, 2, 2, 20, 165, 90, 86, 157, 90, 165, 1, 2.05477
355, 2, bw, attraction, a-b-db, 9, 2, 2, 20, 165, 90, 86, 157, 90, 165, 2, 0.834784
355, 2, bw, filler, NA, 999, 999, 2, 21, 87, 122, 189, 179, 85, 91, 2, 0.703079
355, 2, bw, filler, NA, 999, 999, 2, 21, 87, 122, 189, 179, 85, 91, 3, 0.434343
355, 2, bw, attraction, a-b-db, 2, 2, 2, 22, 89, 163, 90, 165, 165, 90, 3, 3.97469
355, 2, bw, attraction, a-b-db, 2, 2, 2, 22, 89, 163, 90, 165, 165, 90, 2, 0.229495
355, 2, bw, attraction, a-b-db, 5, 3, 2, 23, 120, 195, 117, 190, 195, 120, 3, 1.84997
355, 2, bw, attraction, a-b-db, 5, 3, 2, 23, 120, 195, 117, 190, 195, 120, 2, 0.686694
355, 2, bw, attraction, a-b-da, 5, 2, 2, 24, 90, 165, 165, 90, 161, 88, 2, 2.00908
355, 2, bw, attraction, a-b-da, 5, 2, 2, 24, 90, 165, 165, 90, 161, 88, 1, 0.487069
355, 2, bw, filler, NA, 999, 999, 2, 25, 142, 177, 123, 78, 165, 138, 3, 8.69748
355, 2, bw, filler, NA, 999, 999, 2, 25, 142, 177, 123, 78, 165, 138, 2, 0.530109
355, 2, bw, filler, NA, 999, 999, 2, 26, 183, 164, 165, 80, 157, 145, 1, 1.1225
355, 2, bw, filler, NA, 999, 999, 2, 26, 183, 164, 165, 80, 157, 145, 2, 0.596194
355, 2, bw, attraction, a-b-db, 2, 3, 2, 27, 119, 193, 195, 120, 120, 195, 2, 5.72201
355, 2, bw, attraction, a-b-db, 2, 3, 2, 27, 119, 193, 195, 120, 120, 195, 3, 0.65812
355, 2, bw, attraction, a-b-da, 14, 3, 2, 28, 195, 120, 181, 111, 120, 195, 1, 5.82119
355, 2, bw, attraction, a-b-da, 14, 3, 2, 28, 195, 120, 181, 111, 120, 195, 3, 0.338079
355, 2, bw, filler, NA, 999, 999, 2, 29, 111, 132, 187, 123, 101, 93, 2, 1.54653
355, 2, bw, filler, NA, 999, 999, 2, 29, 111, 132, 187, 123, 101, 93, 3, 0.30734
355, 2, bw, catch, NA, 999, 999, 2, 30, 94, 161, 125, 70, 168, 147, 3, 2.50854
355, 2, bw, catch, NA, 999, 999, 2, 30, 94, 161, 125, 70, 168, 147, 2, 0.286365
355, 2, bw, attraction, a-b-db, 14, 2, 2, 31, 165, 90, 83, 153, 90, 165, 3, 4.87288
355, 2, bw, attraction, a-b-db, 14, 2, 2, 31, 165, 90, 83, 153, 90, 165, 2, 0.227284
355, 2, bw, attraction, a-b-da, 14, 2, 2, 32, 165, 90, 90, 165, 153, 83, 1, 4.79999
355, 2, bw, attraction, a-b-da, 14, 2, 2, 32, 165, 90, 90, 165, 153, 83, 2, 0.26191
355, 2, bw, attraction, a-b-db, 9, 3, 2, 33, 120, 195, 195, 120, 114, 186, 2, 4.17685
355, 2, bw, attraction, a-b-db, 9, 3, 2, 33, 120, 195, 195, 120, 114, 186, 3, 0.327581
355, 2, bw, catch, NA, 999, 999, 2, 34, 90, 165, 114, 81, 137, 178, 3, 1.55212
355, 2, bw, catch, NA, 999, 999, 2, 34, 90, 165, 114, 81, 137, 178, 2, 0.560876
355, 2, bw, filler, NA, 999, 999, 2, 35, 148, 127, 133, 103, 97, 145, 1, 1.45596
355, 2, bw, filler, NA, 999, 999, 2, 35, 148, 127, 133, 103, 97, 145, 3, 0.484199
355, 2, bw, attraction, a-b-db, 5, 1, 2, 36, 60, 135, 58, 132, 135, 60, 3, 3.55066
355, 2, bw, attraction, a-b-db, 5, 1, 2, 36, 60, 135, 58, 132, 135, 60, 2, 0.414796
355, 2, bw, attraction, a-b-da, 2, 3, 2, 37, 195, 120, 120, 195, 193, 119, 1, 6.02006
355, 2, bw, attraction, a-b-da, 2, 3, 2, 37, 195, 120, 120, 195, 193, 119, 2, 0.296707
355, 2, bw, attraction, a-b-da, 2, 3, 3, 1, 195, 120, 193, 119, 120, 195, 2, 3.10661
355, 2, bw, attraction, a-b-da, 2, 3, 3, 1, 195, 120, 193, 119, 120, 195, 3, 0.300329
355, 2, bw, attraction, a-b-da, 14, 2, 3, 2, 153, 83, 165, 90, 90, 165, 2, 4.25421
355, 2, bw, attraction, a-b-da, 14, 2, 3, 2, 153, 83, 165, 90, 90, 165, 3, 0.257389
355, 2, bw, attraction, a-b-db, 9, 3, 3, 3, 195, 120, 114, 186, 120, 195, 1, 2.18069
355, 2, bw, attraction, a-b-db, 9, 3, 3, 3, 195, 120, 114, 186, 120, 195, 3, 0.331904
355, 2, bw, attraction, a-b-da, 9, 1, 3, 4, 60, 135, 135, 60, 129, 57, 2, 1.37241
355, 2, bw, attraction, a-b-da, 9, 1, 3, 4, 60, 135, 135, 60, 129, 57, 3, 0.563939
355, 2, bw, attraction, a-b-da, 9, 3, 3, 5, 186, 114, 120, 195, 195, 120, 3, 3.81106
355, 2, bw, attraction, a-b-da, 9, 3, 3, 5, 186, 114, 120, 195, 195, 120, 1, 0.768548
355, 2, bw, catch, NA, 999, 999, 3, 6, 171, 144, 112, 143, 127, 68, 1, 1.85557
355, 2, bw, catch, NA, 999, 999, 3, 6, 171, 144, 112, 143, 127, 68, 3, 0.499633
355, 2, bw, attraction, a-b-da, 14, 3, 3, 7, 120, 195, 195, 120, 181, 111, 2, 11.1014
355, 2, bw, attraction, a-b-da, 14, 3, 3, 7, 120, 195, 195, 120, 181, 111, 3, 0.925428
355, 2, bw, filler, NA, 999, 999, 3, 8, 181, 108, 90, 109, 178, 59, 1, 1.56555
355, 2, bw, filler, NA, 999, 999, 3, 8, 181, 108, 90, 109, 178, 59, 2, 0.237693
355, 2, bw, attraction, a-b-da, 2, 2, 3, 9, 163, 89, 165, 90, 90, 165, 1, 4.70629
355, 2, bw, attraction, a-b-da, 2, 2, 3, 9, 163, 89, 165, 90, 90, 165, 3, 1.34738
355, 2, bw, attraction, a-b-db, 5, 3, 3, 10, 195, 120, 117, 190, 120, 195, 1, 9.99483
355, 2, bw, attraction, a-b-db, 5, 3, 3, 10, 195, 120, 117, 190, 120, 195, 2, 0.295093
355, 2, bw, attraction, a-b-db, 2, 2, 3, 11, 90, 165, 89, 163, 165, 90, 3, 1.08103
355, 2, bw, attraction, a-b-db, 2, 2, 3, 11, 90, 165, 89, 163, 165, 90, 2, 0.316508
355, 2, bw, filler, NA, 999, 999, 3, 12, 121, 64, 176, 72, 143, 67, 2, 1.68577
355, 2, bw, filler, NA, 999, 999, 3, 12, 121, 64, 176, 72, 143, 67, 1, 0.37723
355, 2, bw, catch, NA, 999, 999, 3, 13, 107, 148, 131, 184, 112, 83, 2, 1.05573
355, 2, bw, catch, NA, 999, 999, 3, 13, 107, 148, 131, 184, 112, 83, 3, 0.339957
355, 2, bw, filler, NA, 999, 999, 3, 14, 179, 107, 169, 105, 175, 62, 1, 3.55586
355, 2, bw, filler, NA, 999, 999, 3, 14, 179, 107, 169, 105, 175, 62, 2, 1.13936
355, 2, bw, attraction, a-b-db, 5, 2, 3, 15, 165, 90, 88, 161, 90, 165, 2, 0.97964
355, 2, bw, attraction, a-b-db, 5, 2, 3, 15, 165, 90, 88, 161, 90, 165, 1, 4.65918
355, 2, bw, attraction, a-b-da, 5, 3, 3, 16, 195, 120, 120, 195, 190, 117, 3, 2.07706
355, 2, bw, attraction, a-b-da, 5, 3, 3, 16, 195, 120, 120, 195, 190, 117, 2, 0.280535
355, 2, bw, attraction, a-b-db, 5, 1, 3, 17, 60, 135, 135, 60, 58, 132, 2, 3.47497
355, 2, bw, attraction, a-b-db, 5, 1, 3, 17, 60, 135, 135, 60, 58, 132, 3, 0.261824
355, 2, bw, attraction, a-b-da, 5, 2, 3, 18, 90, 165, 161, 88, 165, 90, 1, 2.11302
355, 2, bw, attraction, a-b-da, 5, 2, 3, 18, 90, 165, 161, 88, 165, 90, 3, 1.115
355, 2, bw, attraction, a-b-da, 9, 2, 3, 19, 90, 165, 165, 90, 157, 86, 2, 4.12393
355, 2, bw, attraction, a-b-da, 9, 2, 3, 19, 90, 165, 165, 90, 157, 86, 3, 0.884652
355, 2, bw, attraction, a-b-db, 9, 2, 3, 20, 90, 165, 165, 90, 86, 157, 1, 5.55092
355, 2, bw, attraction, a-b-db, 9, 2, 3, 20, 90, 165, 165, 90, 86, 157, 3, 0.238452
355, 2, bw, filler, NA, 999, 999, 3, 21, 117, 99, 151, 156, 65, 194, 2, 0.883087
355, 2, bw, filler, NA, 999, 999, 3, 21, 117, 99, 151, 156, 65, 194, 3, 6.53472
355, 2, bw, filler, NA, 999, 999, 3, 22, 192, 104, 192, 135, 189, 117, 2, 6.8293
355, 2, bw, filler, NA, 999, 999, 3, 22, 192, 104, 192, 135, 189, 117, 1, 0.497091
355, 2, bw, attraction, a-b-db, 9, 1, 3, 23, 57, 129, 135, 60, 60, 135, 2, 4.80297
355, 2, bw, attraction, a-b-db, 9, 1, 3, 23, 57, 129, 135, 60, 60, 135, 1, 0.832655
355, 2, bw, attraction, a-b-db, 2, 3, 3, 24, 120, 195, 195, 120, 119, 193, 1, 2.26912
355, 2, bw, attraction, a-b-db, 2, 3, 3, 24, 120, 195, 195, 120, 119, 193, 3, 0.625129
355, 2, bw, filler, NA, 999, 999, 3, 25, 79, 97, 90, 164, 57, 99, 2, 3.97346
355, 2, bw, filler, NA, 999, 999, 3, 25, 79, 97, 90, 164, 57, 99, 1, 0.213672
355, 2, bw, filler, NA, 999, 999, 3, 26, 190, 161, 157, 103, 135, 147, 1, 1.72937
355, 2, bw, filler, NA, 999, 999, 3, 26, 190, 161, 157, 103, 135, 147, 2, 0.823316
355, 2, bw, attraction, a-b-db, 2, 1, 3, 27, 60, 135, 59, 134, 135, 60, 3, 3.88734
355, 2, bw, attraction, a-b-db, 2, 1, 3, 27, 60, 135, 59, 134, 135, 60, 2, 0.529977
355, 2, bw, attraction, a-b-da, 14, 1, 3, 28, 135, 60, 60, 135, 125, 56, 1, 2.55421
355, 2, bw, attraction, a-b-da, 14, 1, 3, 28, 135, 60, 60, 135, 125, 56, 3, 0.658261
355, 2, bw, attraction, a-b-da, 5, 1, 3, 29, 60, 135, 135, 60, 132, 58, 2, 4.94934
355, 2, bw, attraction, a-b-da, 5, 1, 3, 29, 60, 135, 135, 60, 132, 58, 3, 2.66908
355, 2, bw, attraction, a-b-db, 14, 3, 3, 30, 111, 181, 195, 120, 120, 195, 2, 23.2875
355, 2, bw, attraction, a-b-db, 14, 3, 3, 30, 111, 181, 195, 120, 120, 195, 1, 0.96414
355, 2, bw, filler, NA, 999, 999, 3, 31, 108, 132, 111, 159, 166, 80, 2, 4.56315
355, 2, bw, filler, NA, 999, 999, 3, 31, 108, 132, 111, 159, 166, 80, 1, 0.690435
355, 2, bw, filler, NA, 999, 999, 3, 32, 181, 70, 181, 153, 96, 156, 2, 1.05203
355, 2, bw, filler, NA, 999, 999, 3, 32, 181, 70, 181, 153, 96, 156, 1, 0.225034
355, 2, bw, filler, NA, 999, 999, 3, 33, 61, 166, 174, 89, 182, 103, 2, 1.43763
355, 2, bw, filler, NA, 999, 999, 3, 33, 61, 166, 174, 89, 182, 103, 1, 0.530378
355, 2, bw, attraction, a-b-da, 2, 1, 3, 34, 135, 60, 134, 59, 60, 135, 2, 1.05886
355, 2, bw, attraction, a-b-da, 2, 1, 3, 34, 135, 60, 134, 59, 60, 135, 1, 1.32719
355, 2, bw, attraction, a-b-db, 14, 1, 3, 35, 135, 60, 56, 125, 60, 135, 1, 1.69533
355, 2, bw, attraction, a-b-db, 14, 1, 3, 35, 135, 60, 56, 125, 60, 135, 2, 0.522278
355, 2, bw, attraction, a-b-db, 14, 2, 3, 36, 165, 90, 90, 165, 83, 153, 1, 2.4993
355, 2, bw, attraction, a-b-db, 14, 2, 3, 36, 165, 90, 90, 165, 83, 153, 2, 0.509774
355, 2, bw, catch, NA, 999, 999, 3, 37, 89, 106, 109, 146, 157, 158, 3, 1.02298
355, 2, bw, catch, NA, 999, 999, 3, 37, 89, 106, 109, 146, 157, 158, 1, 0.340551
355, 2, bw, attraction, a-b-da, 9, 2, 4, 1, 90, 165, 157, 86, 165, 90, 3, 3.3325
355, 2, bw, attraction, a-b-da, 9, 2, 4, 1, 90, 165, 157, 86, 165, 90, 1, 0.237306
355, 2, bw, attraction, a-b-db, 14, 1, 4, 2, 135, 60, 60, 135, 56, 125, 1, 1.04179
355, 2, bw, attraction, a-b-db, 14, 1, 4, 2, 135, 60, 60, 135, 56, 125, 3, 1.14289
355, 2, bw, catch, NA, 999, 999, 4, 3, 115, 140, 136, 179, 80, 115, 2, 1.31839
355, 2, bw, catch, NA, 999, 999, 4, 3, 115, 140, 136, 179, 80, 115, 3, 0.744649
355, 2, bw, attraction, a-b-db, 9, 3, 4, 4, 120, 195, 114, 186, 195, 120, 3, 2.03246
355, 2, bw, attraction, a-b-db, 9, 3, 4, 4, 120, 195, 114, 186, 195, 120, 2, 0.245816
355, 2, bw, attraction, a-b-da, 9, 1, 4, 5, 60, 135, 129, 57, 135, 60, 3, 2.66555
355, 2, bw, attraction, a-b-da, 9, 1, 4, 5, 60, 135, 129, 57, 135, 60, 2, 0.805391
355, 2, bw, filler, NA, 999, 999, 4, 6, 61, 101, 162, 122, 136, 181, 3, 1.74701
355, 2, bw, filler, NA, 999, 999, 4, 6, 61, 101, 162, 122, 136, 181, 1, 0.6118
355, 2, bw, attraction, a-b-da, 14, 1, 4, 7, 60, 135, 125, 56, 135, 60, 3, 3.30498
355, 2, bw, attraction, a-b-da, 14, 1, 4, 7, 60, 135, 125, 56, 135, 60, 2, 0.242499
355, 2, bw, attraction, a-b-db, 9, 1, 4, 8, 60, 135, 135, 60, 57, 129, 2, 2.10237
355, 2, bw, attraction, a-b-db, 9, 1, 4, 8, 60, 135, 135, 60, 57, 129, 3, 0.521131
355, 2, bw, filler, NA, 999, 999, 4, 9, 108, 113, 111, 111, 77, 128, 1, 4.42618
355, 2, bw, filler, NA, 999, 999, 4, 9, 108, 113, 111, 111, 77, 128, 3, 0.24675
355, 2, bw, attraction, a-b-da, 5, 2, 4, 10, 161, 88, 165, 90, 90, 165, 2, 3.04257
355, 2, bw, attraction, a-b-da, 5, 2, 4, 10, 161, 88, 165, 90, 90, 165, 3, 1.55102
355, 2, bw, filler, NA, 999, 999, 4, 11, 109, 72, 188, 129, 104, 191, 2, 2.03051
355, 2, bw, filler, NA, 999, 999, 4, 11, 109, 72, 188, 129, 104, 191, 1, 0.211693
355, 2, bw, attraction, a-b-db, 14, 3, 4, 12, 111, 181, 195, 120, 120, 195, 2, 4.63296
355, 2, bw, attraction, a-b-db, 14, 3, 4, 12, 111, 181, 195, 120, 120, 195, 1, 0.349418
355, 2, bw, attraction, a-b-db, 5, 1, 4, 13, 135, 60, 60, 135, 58, 132, 1, 3.36541
355, 2, bw, attraction, a-b-db, 5, 1, 4, 13, 135, 60, 60, 135, 58, 132, 2, 0.548855
355, 2, bw, attraction, a-b-db, 2, 2, 4, 14, 165, 90, 90, 165, 89, 163, 1, 2.26071
355, 2, bw, attraction, a-b-db, 2, 2, 4, 14, 165, 90, 90, 165, 89, 163, 3, 0.376663
355, 2, bw, filler, NA, 999, 999, 4, 15, 128, 101, 113, 156, 181, 114, 3, 1.42309
355, 2, bw, filler, NA, 999, 999, 4, 15, 128, 101, 113, 156, 181, 114, 1, 0.604653
355, 2, bw, attraction, a-b-da, 9, 3, 4, 16, 186, 114, 120, 195, 195, 120, 3, 2.75445
355, 2, bw, attraction, a-b-da, 9, 3, 4, 16, 186, 114, 120, 195, 195, 120, 2, 0.146185
355, 2, bw, filler, NA, 999, 999, 4, 17, 191, 181, 97, 94, 63, 83, 1, 1.37806
355, 2, bw, filler, NA, 999, 999, 4, 17, 191, 181, 97, 94, 63, 83, 3, 0.481605
355, 2, bw, attraction, a-b-db, 5, 3, 4, 18, 120, 195, 117, 190, 195, 120, 3, 5.04412
355, 2, bw, attraction, a-b-db, 5, 3, 4, 18, 120, 195, 117, 190, 195, 120, 2, 0.175788
355, 2, bw, filler, NA, 999, 999, 4, 19, 115, 92, 65, 128, 69, 192, 3, 4.1185
355, 2, bw, filler, NA, 999, 999, 4, 19, 115, 92, 65, 128, 69, 192, 2, 0.535862
355, 2, bw, attraction, a-b-db, 9, 2, 4, 20, 165, 90, 86, 157, 90, 165, 1, 5.7521
355, 2, bw, attraction, a-b-db, 9, 2, 4, 20, 165, 90, 86, 157, 90, 165, 2, 0.223631
355, 2, bw, attraction, a-b-da, 14, 2, 4, 21, 165, 90, 90, 165, 153, 83, 1, 8.74815
355, 2, bw, attraction, a-b-da, 14, 2, 4, 21, 165, 90, 90, 165, 153, 83, 3, 0.580611
355, 2, bw, catch, NA, 999, 999, 4, 22, 113, 142, 176, 139, 86, 109, 2, 0.977154
355, 2, bw, catch, NA, 999, 999, 4, 22, 113, 142, 176, 139, 86, 109, 3, 0.208948
355, 2, bw, attraction, a-b-da, 5, 1, 4, 23, 132, 58, 135, 60, 60, 135, 2, 0.798147
355, 2, bw, attraction, a-b-da, 5, 1, 4, 23, 132, 58, 135, 60, 60, 135, 3, 0.413271
355, 2, bw, filler, NA, 999, 999, 4, 24, 174, 85, 71, 173, 114, 168, 3, 1.86631
355, 2, bw, filler, NA, 999, 999, 4, 24, 174, 85, 71, 173, 114, 168, 2, 0.334404
355, 2, bw, attraction, a-b-db, 14, 2, 4, 25, 165, 90, 83, 153, 90, 165, 3, 6.62277
355, 2, bw, attraction, a-b-db, 14, 2, 4, 25, 165, 90, 83, 153, 90, 165, 1, 0.194672
355, 2, bw, attraction, a-b-da, 5, 3, 4, 26, 195, 120, 120, 195, 190, 117, 2, 1.1526
355, 2, bw, attraction, a-b-da, 5, 3, 4, 26, 195, 120, 120, 195, 190, 117, 3, 0.17749
355, 2, bw, attraction, a-b-da, 2, 3, 4, 27, 195, 120, 120, 195, 193, 119, 2, 1.63204
355, 2, bw, attraction, a-b-da, 2, 3, 4, 27, 195, 120, 120, 195, 193, 119, 3, 0.181705
355, 2, bw, attraction, a-b-da, 14, 3, 4, 28, 181, 111, 195, 120, 120, 195, 2, 1.28409
355, 2, bw, attraction, a-b-da, 14, 3, 4, 28, 181, 111, 195, 120, 120, 195, 1, 0.191743
355, 2, bw, filler, NA, 999, 999, 4, 29, 145, 176, 115, 108, 94, 117, 1, 0.877483
355, 2, bw, filler, NA, 999, 999, 4, 29, 145, 176, 115, 108, 94, 117, 3, 0.225212
355, 2, bw, attraction, a-b-da, 2, 2, 4, 30, 165, 90, 90, 165, 163, 89, 2, 0.79798
355, 2, bw, attraction, a-b-da, 2, 2, 4, 30, 165, 90, 90, 165, 163, 89, 3, 0.260825
355, 2, bw, filler, NA, 999, 999, 4, 31, 111, 107, 135, 100, 185, 167, 3, 0.632091
355, 2, bw, filler, NA, 999, 999, 4, 31, 111, 107, 135, 100, 185, 167, 1, 0.557892
355, 2, bw, attraction, a-b-db, 2, 3, 4, 32, 119, 193, 120, 195, 195, 120, 3, 5.62097
355, 2, bw, attraction, a-b-db, 2, 3, 4, 32, 119, 193, 120, 195, 195, 120, 1, 0.225768
355, 2, bw, catch, NA, 999, 999, 4, 33, 136, 179, 106, 89, 149, 106, 1, 1.05429
355, 2, bw, catch, NA, 999, 999, 4, 33, 136, 179, 106, 89, 149, 106, 2, 0.490721
355, 2, bw, attraction, a-b-db, 2, 1, 4, 34, 135, 60, 59, 134, 60, 135, 1, 1.60452
355, 2, bw, attraction, a-b-db, 2, 1, 4, 34, 135, 60, 59, 134, 60, 135, 2, 0.210576
355, 2, bw, attraction, a-b-db, 5, 2, 4, 35, 88, 161, 165, 90, 90, 165, 2, 2.51982
355, 2, bw, attraction, a-b-db, 5, 2, 4, 35, 88, 161, 165, 90, 90, 165, 1, 0.497615
355, 2, bw, attraction, a-b-da, 2, 1, 4, 36, 60, 135, 135, 60, 134, 59, 2, 2.07545
355, 2, bw, attraction, a-b-da, 2, 1, 4, 36, 60, 135, 135, 60, 134, 59, 1, 0.23874
355, 2, bw, filler, NA, 999, 999, 4, 37, 96, 191, 171, 132, 66, 109, 2, 1.61129
355, 2, bw, filler, NA, 999, 999, 4, 37, 96, 191, 171, 132, 66, 109, 3, 0.497446
355, 2, bw, filler, NA, 999, 999, 5, 1, 84, 153, 169, 100, 145, 123, 2, 3.68985
355, 2, bw, filler, NA, 999, 999, 5, 1, 84, 153, 169, 100, 145, 123, 1, 0.467944
355, 2, bw, attraction, a-b-da, 2, 2, 5, 2, 165, 90, 163, 89, 90, 165, 1, 4.05523
355, 2, bw, attraction, a-b-da, 2, 2, 5, 2, 165, 90, 163, 89, 90, 165, 2, 1.29852
355, 2, bw, attraction, a-b-da, 9, 3, 5, 3, 186, 114, 195, 120, 120, 195, 2, 4.5641
355, 2, bw, attraction, a-b-da, 9, 3, 5, 3, 186, 114, 195, 120, 120, 195, 1, 0.227192
355, 2, bw, filler, NA, 999, 999, 5, 4, 90, 135, 61, 182, 161, 86, 3, 4.68774
355, 2, bw, filler, NA, 999, 999, 5, 4, 90, 135, 61, 182, 161, 86, 1, 0.186315
355, 2, bw, filler, NA, 999, 999, 5, 5, 137, 56, 190, 168, 179, 194, 3, 2.20883
355, 2, bw, filler, NA, 999, 999, 5, 5, 137, 56, 190, 168, 179, 194, 1, 0.112854
355, 2, bw, filler, NA, 999, 999, 5, 6, 187, 133, 147, 172, 194, 145, 3, 4.24816
355, 2, bw, filler, NA, 999, 999, 5, 6, 187, 133, 147, 172, 194, 145, 1, 0.860167
355, 2, bw, attraction, a-b-db, 2, 3, 5, 7, 195, 120, 119, 193, 120, 195, 1, 2.079
355, 2, bw, attraction, a-b-db, 2, 3, 5, 7, 195, 120, 119, 193, 120, 195, 2, 0.52243
355, 2, bw, attraction, a-b-da, 5, 3, 5, 8, 195, 120, 190, 117, 120, 195, 1, 1.57946
355, 2, bw, attraction, a-b-da, 5, 3, 5, 8, 195, 120, 190, 117, 120, 195, 3, 0.506891
355, 2, bw, filler, NA, 999, 999, 5, 9, 63, 71, 74, 164, 127, 77, 2, 1.34806
355, 2, bw, filler, NA, 999, 999, 5, 9, 63, 71, 74, 164, 127, 77, 1, 0.732939
355, 2, bw, attraction, a-b-da, 5, 2, 5, 10, 90, 165, 161, 88, 165, 90, 2, 1.77328
355, 2, bw, attraction, a-b-da, 5, 2, 5, 10, 90, 165, 161, 88, 165, 90, 1, 0.204678
355, 2, bw, attraction, a-b-da, 14, 2, 5, 11, 90, 165, 153, 83, 165, 90, 1, 0.73864
355, 2, bw, attraction, a-b-da, 14, 2, 5, 11, 90, 165, 153, 83, 165, 90, 3, 0.251651
355, 2, bw, filler, NA, 999, 999, 5, 12, 100, 177, 143, 99, 88, 164, 1, 1.8316
355, 2, bw, filler, NA, 999, 999, 5, 12, 100, 177, 143, 99, 88, 164, 2, 0.228872
355, 2, bw, catch, NA, 999, 999, 5, 13, 137, 178, 95, 160, 108, 87, 1, 0.729458
355, 2, bw, catch, NA, 999, 999, 5, 13, 137, 178, 95, 160, 108, 87, 3, 0.275313
355, 2, bw, attraction, a-b-db, 5, 2, 5, 14, 88, 161, 90, 165, 165, 90, 3, 1.82981
355, 2, bw, attraction, a-b-db, 5, 2, 5, 14, 88, 161, 90, 165, 165, 90, 1, 0.227119
355, 2, bw, attraction, a-b-da, 2, 1, 5, 15, 135, 60, 60, 135, 134, 59, 1, 5.39169
355, 2, bw, attraction, a-b-da, 2, 1, 5, 15, 135, 60, 60, 135, 134, 59, 2, 0.205404
355, 2, bw, attraction, a-b-da, 5, 1, 5, 16, 135, 60, 60, 135, 132, 58, 1, 8.87516
355, 2, bw, attraction, a-b-da, 5, 1, 5, 16, 135, 60, 60, 135, 132, 58, 2, 0.508377
355, 2, bw, attraction, a-b-db, 14, 2, 5, 17, 83, 153, 165, 90, 90, 165, 3, 1.84551
355, 2, bw, attraction, a-b-db, 14, 2, 5, 17, 83, 153, 165, 90, 90, 165, 2, 0.514224
355, 2, bw, catch, NA, 999, 999, 5, 18, 143, 172, 127, 128, 100, 95, 1, 3.06732
355, 2, bw, catch, NA, 999, 999, 5, 18, 143, 172, 127, 128, 100, 95, 3, 1.12708
355, 2, bw, attraction, a-b-db, 14, 3, 5, 19, 111, 181, 195, 120, 120, 195, 3, 6.41534
355, 2, bw, attraction, a-b-db, 14, 3, 5, 19, 111, 181, 195, 120, 120, 195, 1, 0.371898
355, 2, bw, attraction, a-b-db, 5, 1, 5, 20, 58, 132, 135, 60, 60, 135, 2, 3.65904
355, 2, bw, attraction, a-b-db, 5, 1, 5, 20, 58, 132, 135, 60, 60, 135, 1, 0.998736
355, 2, bw, filler, NA, 999, 999, 5, 21, 97, 90, 168, 134, 185, 148, 3, 1.9962
355, 2, bw, filler, NA, 999, 999, 5, 21, 97, 90, 168, 134, 185, 148, 1, 0.68304
355, 2, bw, filler, NA, 999, 999, 5, 22, 176, 170, 91, 125, 131, 94, 1, 1.46931
355, 2, bw, filler, NA, 999, 999, 5, 22, 176, 170, 91, 125, 131, 94, 2, 1.04153
355, 2, bw, attraction, a-b-db, 9, 1, 5, 23, 60, 135, 135, 60, 57, 129, 2, 2.29317
355, 2, bw, attraction, a-b-db, 9, 1, 5, 23, 60, 135, 135, 60, 57, 129, 3, 0.991603
355, 2, bw, catch, NA, 999, 999, 5, 24, 95, 160, 126, 69, 177, 138, 3, 2.58129
355, 2, bw, catch, NA, 999, 999, 5, 24, 95, 160, 126, 69, 177, 138, 2, 0.287984
355, 2, bw, attraction, a-b-db, 2, 2, 5, 25, 165, 90, 89, 163, 90, 165, 3, 7.51898
355, 2, bw, attraction, a-b-db, 2, 2, 5, 25, 165, 90, 89, 163, 90, 165, 2, 1.86326
355, 2, bw, filler, NA, 999, 999, 5, 26, 195, 92, 179, 191, 112, 63, 2, 1.02601
355, 2, bw, filler, NA, 999, 999, 5, 26, 195, 92, 179, 191, 112, 63, 3, 0.239549
355, 2, bw, attraction, a-b-da, 9, 2, 5, 27, 157, 86, 165, 90, 90, 165, 2, 1.50767
355, 2, bw, attraction, a-b-da, 9, 2, 5, 27, 157, 86, 165, 90, 90, 165, 3, 0.269724
355, 2, bw, attraction, a-b-db, 9, 3, 5, 28, 114, 186, 120, 195, 195, 120, 3, 4.09686
355, 2, bw, attraction, a-b-db, 9, 3, 5, 28, 114, 186, 120, 195, 195, 120, 1, 0.18686
355, 2, bw, attraction, a-b-db, 14, 1, 5, 29, 56, 125, 135, 60, 60, 135, 2, 0.889397
355, 2, bw, attraction, a-b-db, 14, 1, 5, 29, 56, 125, 135, 60, 60, 135, 3, 0.188385
355, 2, bw, attraction, a-b-da, 14, 1, 5, 30, 60, 135, 125, 56, 135, 60, 1, 0.930948
355, 2, bw, attraction, a-b-da, 14, 1, 5, 30, 60, 135, 125, 56, 135, 60, 3, 0.311173
355, 2, bw, attraction, a-b-da, 9, 1, 5, 31, 135, 60, 60, 135, 129, 57, 1, 0.949836
355, 2, bw, attraction, a-b-da, 9, 1, 5, 31, 135, 60, 60, 135, 129, 57, 2, 0.254854
355, 2, bw, attraction, a-b-db, 5, 3, 5, 32, 195, 120, 120, 195, 117, 190, 1, 1.70683
355, 2, bw, attraction, a-b-db, 5, 3, 5, 32, 195, 120, 120, 195, 117, 190, 3, 0.572807
355, 2, bw, filler, NA, 999, 999, 5, 33, 180, 180, 176, 155, 73, 122, 1, 0.763196
355, 2, bw, filler, NA, 999, 999, 5, 33, 180, 180, 176, 155, 73, 122, 3, 0.251642
355, 2, bw, attraction, a-b-da, 2, 3, 5, 34, 195, 120, 120, 195, 193, 119, 3, 2.15156
355, 2, bw, attraction, a-b-da, 2, 3, 5, 34, 195, 120, 120, 195, 193, 119, 2, 0.472124
355, 2, bw, attraction, a-b-db, 9, 2, 5, 35, 165, 90, 86, 157, 90, 165, 1, 2.55556
355, 2, bw, attraction, a-b-db, 9, 2, 5, 35, 165, 90, 86, 157, 90, 165, 3, 0.195234
355, 2, bw, attraction, a-b-da, 14, 3, 5, 36, 181, 111, 120, 195, 195, 120, 3, 4.09701
355, 2, bw, attraction, a-b-da, 14, 3, 5, 36, 181, 111, 120, 195, 195, 120, 1, 0.755006
355, 2, bw, attraction, a-b-db, 2, 1, 5, 37, 135, 60, 59, 134, 60, 135, 1, 2.00272
355, 2, bw, attraction, a-b-db, 2, 1, 5, 37, 135, 60, 59, 134, 60, 135, 2, 0.305442
355, 2, bw, attraction, a-b-db, 9, 1, 6, 1, 60, 135, 57, 129, 135, 60, 1, 1.07001
355, 2, bw, attraction, a-b-db, 9, 1, 6, 1, 60, 135, 57, 129, 135, 60, 2, 1.90296
355, 2, bw, attraction, a-b-db, 5, 1, 6, 2, 60, 135, 58, 132, 135, 60, 1, 2.04035
355, 2, bw, attraction, a-b-db, 5, 1, 6, 2, 60, 135, 58, 132, 135, 60, 2, 0.588896
355, 2, bw, attraction, a-b-da, 5, 3, 6, 3, 120, 195, 195, 120, 190, 117, 2, 18.0273
355, 2, bw, attraction, a-b-da, 5, 3, 6, 3, 120, 195, 195, 120, 190, 117, 3, 0.42771
355, 2, bw, attraction, a-b-da, 2, 3, 6, 4, 193, 119, 195, 120, 120, 195, 1, 2.99231
355, 2, bw, attraction, a-b-da, 2, 3, 6, 4, 193, 119, 195, 120, 120, 195, 3, 0.166537
355, 2, bw, filler, NA, 999, 999, 6, 5, 164, 80, 141, 134, 65, 145, 2, 3.46976
355, 2, bw, filler, NA, 999, 999, 6, 5, 164, 80, 141, 134, 65, 145, 3, 0.513393
355, 2, bw, attraction, a-b-db, 2, 3, 6, 6, 119, 193, 120, 195, 195, 120, 3, 1.3544
355, 2, bw, attraction, a-b-db, 2, 3, 6, 6, 119, 193, 120, 195, 195, 120, 1, 0.258621
355, 2, bw, filler, NA, 999, 999, 6, 7, 150, 78, 114, 106, 119, 85, 1, 10.2138
355, 2, bw, filler, NA, 999, 999, 6, 7, 150, 78, 114, 106, 119, 85, 3, 0.673282
355, 2, bw, filler, NA, 999, 999, 6, 8, 189, 167, 68, 81, 56, 57, 1, 0.899607
355, 2, bw, filler, NA, 999, 999, 6, 8, 189, 167, 68, 81, 56, 57, 3, 1.05469
355, 2, bw, catch, NA, 999, 999, 6, 9, 104, 91, 145, 110, 131, 184, 3, 1.88244
355, 2, bw, catch, NA, 999, 999, 6, 9, 104, 91, 145, 110, 131, 184, 1, 0.509661
355, 2, bw, attraction, a-b-da, 9, 1, 6, 10, 129, 57, 135, 60, 60, 135, 1, 2.63882
355, 2, bw, attraction, a-b-da, 9, 1, 6, 10, 129, 57, 135, 60, 60, 135, 3, 0.683384
355, 2, bw, attraction, a-b-da, 9, 2, 6, 11, 90, 165, 157, 86, 165, 90, 1, 6.61372
355, 2, bw, attraction, a-b-da, 9, 2, 6, 11, 90, 165, 157, 86, 165, 90, 3, 0.47435
355, 2, bw, attraction, a-b-db, 14, 1, 6, 12, 60, 135, 56, 125, 135, 60, 3, 3.10073
355, 2, bw, attraction, a-b-db, 14, 1, 6, 12, 60, 135, 56, 125, 135, 60, 2, 0.551159
355, 2, bw, filler, NA, 999, 999, 6, 13, 126, 117, 181, 180, 182, 65, 2, 1.81479
355, 2, bw, filler, NA, 999, 999, 6, 13, 126, 117, 181, 180, 182, 65, 3, 0.460885
355, 2, bw, catch, NA, 999, 999, 6, 14, 120, 195, 102, 93, 154, 101, 1, 0.911981
355, 2, bw, catch, NA, 999, 999, 6, 14, 120, 195, 102, 93, 154, 101, 2, 0.578414
355, 2, bw, attraction, a-b-db, 5, 2, 6, 15, 165, 90, 90, 165, 88, 161, 2, 1.36883
355, 2, bw, attraction, a-b-db, 5, 2, 6, 15, 165, 90, 90, 165, 88, 161, 1, 0.417037
355, 2, bw, filler, NA, 999, 999, 6, 16, 127, 169, 126, 114, 58, 139, 1, 0.830184
355, 2, bw, filler, NA, 999, 999, 6, 16, 127, 169, 126, 114, 58, 139, 3, 0.587878
355, 2, bw, attraction, a-b-da, 14, 3, 6, 17, 195, 120, 120, 195, 181, 111, 1, 0.906363
355, 2, bw, attraction, a-b-da, 14, 3, 6, 17, 195, 120, 120, 195, 181, 111, 2, 0.62871
355, 2, bw, filler, NA, 999, 999, 6, 18, 151, 191, 123, 116, 94, 133, 1, 6.32921
355, 2, bw, filler, NA, 999, 999, 6, 18, 151, 191, 123, 116, 94, 133, 3, 0.241066
355, 2, bw, attraction, a-b-da, 2, 2, 6, 19, 165, 90, 90, 165, 163, 89, 2, 0.812918
355, 2, bw, attraction, a-b-da, 2, 2, 6, 19, 165, 90, 90, 165, 163, 89, 3, 0.251305
355, 2, bw, attraction, a-b-da, 9, 3, 6, 20, 186, 114, 195, 120, 120, 195, 2, 1.07125
355, 2, bw, attraction, a-b-da, 9, 3, 6, 20, 186, 114, 195, 120, 120, 195, 1, 2.25088
355, 2, bw, filler, NA, 999, 999, 6, 21, 110, 118, 151, 114, 182, 116, 3, 1.4701
355, 2, bw, filler, NA, 999, 999, 6, 21, 110, 118, 151, 114, 182, 116, 1, 0.44965
355, 2, bw, attraction, a-b-da, 14, 2, 6, 22, 90, 165, 153, 83, 165, 90, 2, 0.781388
355, 2, bw, attraction, a-b-da, 14, 2, 6, 22, 90, 165, 153, 83, 165, 90, 1, 0.701078
355, 2, bw, attraction, a-b-da, 5, 1, 6, 23, 135, 60, 132, 58, 60, 135, 2, 0.742821
355, 2, bw, attraction, a-b-da, 5, 1, 6, 23, 135, 60, 132, 58, 60, 135, 3, 0.903961
355, 2, bw, attraction, a-b-db, 9, 2, 6, 24, 86, 157, 165, 90, 90, 165, 2, 0.593561
355, 2, bw, attraction, a-b-db, 9, 2, 6, 24, 86, 157, 165, 90, 90, 165, 3, 0.264671
355, 2, bw, catch, NA, 999, 999, 6, 25, 129, 126, 86, 109, 191, 124, 3, 0.451939
355, 2, bw, catch, NA, 999, 999, 6, 25, 129, 126, 86, 109, 191, 124, 2, 0.449162
355, 2, bw, attraction, a-b-db, 14, 2, 6, 26, 165, 90, 83, 153, 90, 165, 3, 1.31688
355, 2, bw, attraction, a-b-db, 14, 2, 6, 26, 165, 90, 83, 153, 90, 165, 1, 0.511137
355, 2, bw, attraction, a-b-db, 5, 3, 6, 27, 120, 195, 117, 190, 195, 120, 1, 1.60822
355, 2, bw, attraction, a-b-db, 5, 3, 6, 27, 120, 195, 117, 190, 195, 120, 2, 0.470319
355, 2, bw, attraction, a-b-db, 14, 3, 6, 28, 120, 195, 195, 120, 111, 181, 1, 1.32146
355, 2, bw, attraction, a-b-db, 14, 3, 6, 28, 120, 195, 195, 120, 111, 181, 2, 0.346959
355, 2, bw, attraction, a-b-da, 14, 1, 6, 29, 135, 60, 60, 135, 125, 56, 1, 2.12283
355, 2, bw, attraction, a-b-da, 14, 1, 6, 29, 135, 60, 60, 135, 125, 56, 2, 0.500207
355, 2, bw, attraction, a-b-db, 2, 1, 6, 30, 59, 134, 60, 135, 135, 60, 3, 1.16602
355, 2, bw, attraction, a-b-db, 2, 1, 6, 30, 59, 134, 60, 135, 135, 60, 2, 0.326176
355, 2, bw, attraction, a-b-db, 9, 3, 6, 31, 114, 186, 195, 120, 120, 195, 3, 2.71877
355, 2, bw, attraction, a-b-db, 9, 3, 6, 31, 114, 186, 195, 120, 120, 195, 1, 0.448471
355, 2, bw, attraction, a-b-da, 2, 1, 6, 32, 135, 60, 134, 59, 60, 135, 2, 1.70842
355, 2, bw, attraction, a-b-da, 2, 1, 6, 32, 135, 60, 134, 59, 60, 135, 3, 0.918486
355, 2, bw, filler, NA, 999, 999, 6, 33, 79, 133, 152, 154, 95, 122, 2, 1.15941
355, 2, bw, filler, NA, 999, 999, 6, 33, 79, 133, 152, 154, 95, 122, 1, 0.303675
355, 2, bw, filler, NA, 999, 999, 6, 34, 185, 126, 169, 112, 95, 152, 1, 1.24951
355, 2, bw, filler, NA, 999, 999, 6, 34, 185, 126, 169, 112, 95, 152, 3, 0.254495
355, 2, bw, attraction, a-b-da, 5, 2, 6, 35, 165, 90, 161, 88, 90, 165, 1, 2.05846
355, 2, bw, attraction, a-b-da, 5, 2, 6, 35, 165, 90, 161, 88, 90, 165, 3, 0.230384
355, 2, bw, attraction, a-b-db, 2, 2, 6, 36, 89, 163, 165, 90, 90, 165, 1, 2.45082
355, 2, bw, attraction, a-b-db, 2, 2, 6, 36, 89, 163, 165, 90, 90, 165, 3, 1.5754
355, 2, bw, filler, NA, 999, 999, 6, 37, 62, 83, 83, 165, 173, 75, 3, 2.29346
355, 2, bw, filler, NA, 999, 999, 6, 37, 62, 83, 83, 165, 173, 75, 1, 0.320038
355, 2, bw, catch, NA, 999, 999, 7, 1, 118, 137, 116, 79, 195, 120, 3, 0.985247
355, 2, bw, catch, NA, 999, 999, 7, 1, 118, 137, 116, 79, 195, 120, 2, 0.61696
355, 2, bw, attraction, a-b-da, 2, 1, 7, 2, 60, 135, 134, 59, 135, 60, 2, 2.51014
355, 2, bw, attraction, a-b-da, 2, 1, 7, 2, 60, 135, 134, 59, 135, 60, 3, 0.647867
355, 2, bw, filler, NA, 999, 999, 7, 3, 170, 189, 121, 84, 171, 184, 1, 3.24357
355, 2, bw, filler, NA, 999, 999, 7, 3, 170, 189, 121, 84, 171, 184, 2, 0.199949
355, 2, bw, attraction, a-b-da, 2, 2, 7, 4, 165, 90, 163, 89, 90, 165, 3, 5.50198
355, 2, bw, attraction, a-b-da, 2, 2, 7, 4, 165, 90, 163, 89, 90, 165, 2, 0.423321
355, 2, bw, attraction, a-b-db, 14, 3, 7, 5, 195, 120, 111, 181, 120, 195, 1, 4.3879
355, 2, bw, attraction, a-b-db, 14, 3, 7, 5, 195, 120, 111, 181, 120, 195, 3, 0.305886
355, 2, bw, filler, NA, 999, 999, 7, 6, 175, 105, 119, 103, 186, 122, 3, 1.81164
355, 2, bw, filler, NA, 999, 999, 7, 6, 175, 105, 119, 103, 186, 122, 2, 0.473711
355, 2, bw, filler, NA, 999, 999, 7, 7, 106, 125, 73, 121, 184, 173, 3, 1.90813
355, 2, bw, filler, NA, 999, 999, 7, 7, 106, 125, 73, 121, 184, 173, 1, 0.30095
355, 2, bw, attraction, a-b-da, 14, 2, 7, 8, 165, 90, 90, 165, 153, 83, 2, 1.16004
355, 2, bw, attraction, a-b-da, 14, 2, 7, 8, 165, 90, 90, 165, 153, 83, 3, 0.75235
355, 2, bw, filler, NA, 999, 999, 7, 9, 135, 150, 128, 66, 139, 66, 1, 0.64001
355, 2, bw, filler, NA, 999, 999, 7, 9, 135, 150, 128, 66, 139, 66, 2, 0.933227
355, 2, bw, catch, NA, 999, 999, 7, 10, 69, 126, 126, 189, 90, 165, 2, 2.48549
355, 2, bw, catch, NA, 999, 999, 7, 10, 69, 126, 126, 189, 90, 165, 1, 0.264797
355, 2, bw, catch, NA, 999, 999, 7, 11, 82, 113, 145, 170, 119, 136, 2, 1.45195
355, 2, bw, catch, NA, 999, 999, 7, 11, 82, 113, 145, 170, 119, 136, 1, 0.200704
355, 2, bw, attraction, a-b-da, 5, 1, 7, 12, 132, 58, 135, 60, 60, 135, 1, 2.96663
355, 2, bw, attraction, a-b-da, 5, 1, 7, 12, 132, 58, 135, 60, 60, 135, 3, 0.462292
355, 2, bw, filler, NA, 999, 999, 7, 13, 178, 87, 117, 153, 176, 67, 1, 2.80136
355, 2, bw, filler, NA, 999, 999, 7, 13, 178, 87, 117, 153, 176, 67, 2, 2.31187
355, 2, bw, attraction, a-b-da, 9, 3, 7, 14, 195, 120, 120, 195, 186, 114, 1, 1.79244
355, 2, bw, attraction, a-b-da, 9, 3, 7, 14, 195, 120, 120, 195, 186, 114, 2, 0.183127
355, 2, bw, attraction, a-b-db, 2, 3, 7, 15, 119, 193, 120, 195, 195, 120, 3, 1.32568
355, 2, bw, attraction, a-b-db, 2, 3, 7, 15, 119, 193, 120, 195, 195, 120, 1, 0.431159
355, 2, bw, attraction, a-b-da, 2, 3, 7, 16, 195, 120, 193, 119, 120, 195, 1, 0.875704
355, 2, bw, attraction, a-b-da, 2, 3, 7, 16, 195, 120, 193, 119, 120, 195, 3, 0.263441
355, 2, bw, attraction, a-b-db, 14, 1, 7, 17, 60, 135, 56, 125, 135, 60, 3, 1.35469
355, 2, bw, attraction, a-b-db, 14, 1, 7, 17, 60, 135, 56, 125, 135, 60, 1, 0.234804
355, 2, bw, attraction, a-b-db, 9, 2, 7, 18, 90, 165, 165, 90, 86, 157, 2, 1.93786
355, 2, bw, attraction, a-b-db, 9, 2, 7, 18, 90, 165, 165, 90, 86, 157, 1, 0.184075
355, 2, bw, attraction, a-b-da, 14, 1, 7, 19, 135, 60, 125, 56, 60, 135, 1, 1.11857
355, 2, bw, attraction, a-b-da, 14, 1, 7, 19, 135, 60, 125, 56, 60, 135, 3, 0.232908
355, 2, bw, attraction, a-b-da, 5, 3, 7, 20, 120, 195, 190, 117, 195, 120, 3, 0.749422
355, 2, bw, attraction, a-b-da, 5, 3, 7, 20, 120, 195, 190, 117, 195, 120, 1, 0.926492
355, 2, bw, attraction, a-b-da, 5, 2, 7, 21, 90, 165, 161, 88, 165, 90, 2, 1.19084
355, 2, bw, attraction, a-b-da, 5, 2, 7, 21, 90, 165, 161, 88, 165, 90, 1, 0.365756
355, 2, bw, attraction, a-b-db, 9, 1, 7, 22, 135, 60, 60, 135, 57, 129, 2, 3.34903
355, 2, bw, attraction, a-b-db, 9, 1, 7, 22, 135, 60, 60, 135, 57, 129, 3, 3.74121
355, 2, bw, filler, NA, 999, 999, 7, 23, 110, 189, 176, 174, 165, 168, 2, 1.50796
355, 2, bw, filler, NA, 999, 999, 7, 23, 110, 189, 176, 174, 165, 168, 1, 0.124867
355, 2, bw, attraction, a-b-db, 14, 2, 7, 24, 165, 90, 83, 153, 90, 165, 1, 4.44685
355, 2, bw, attraction, a-b-db, 14, 2, 7, 24, 165, 90, 83, 153, 90, 165, 2, 0.124177
355, 2, bw, attraction, a-b-db, 5, 3, 7, 25, 195, 120, 120, 195, 117, 190, 1, 7.85928
355, 2, bw, attraction, a-b-db, 5, 3, 7, 25, 195, 120, 120, 195, 117, 190, 3, 1.72808
355, 2, bw, attraction, a-b-db, 5, 2, 7, 26, 88, 161, 90, 165, 165, 90, 3, 3.77356
355, 2, bw, attraction, a-b-db, 5, 2, 7, 26, 88, 161, 90, 165, 165, 90, 2, 0.0876441
355, 2, bw, attraction, a-b-db, 5, 1, 7, 27, 135, 60, 60, 135, 58, 132, 2, 1.1588
355, 2, bw, attraction, a-b-db, 5, 1, 7, 27, 135, 60, 60, 135, 58, 132, 3, 0.1024
355, 2, bw, attraction, a-b-da, 14, 3, 7, 28, 120, 195, 195, 120, 181, 111, 2, 4.50497
355, 2, bw, attraction, a-b-da, 14, 3, 7, 28, 120, 195, 195, 120, 181, 111, 1, 0.244419
355, 2, bw, attraction, a-b-db, 9, 3, 7, 29, 114, 186, 195, 120, 120, 195, 2, 4.44499
355, 2, bw, attraction, a-b-db, 9, 3, 7, 29, 114, 186, 195, 120, 120, 195, 1, 0.423407
355, 2, bw, filler, NA, 999, 999, 7, 30, 141, 102, 86, 57, 123, 193, 3, 4.2994
355, 2, bw, filler, NA, 999, 999, 7, 30, 141, 102, 86, 57, 123, 193, 2, 0.735417
355, 2, bw, attraction, a-b-db, 2, 1, 7, 31, 135, 60, 59, 134, 60, 135, 2, 1.5948
355, 2, bw, attraction, a-b-db, 2, 1, 7, 31, 135, 60, 59, 134, 60, 135, 1, 0.225825
355, 2, bw, filler, NA, 999, 999, 7, 32, 94, 87, 172, 68, 122, 184, 3, 1.46377
355, 2, bw, filler, NA, 999, 999, 7, 32, 94, 87, 172, 68, 122, 184, 1, 0.241351
355, 2, bw, filler, NA, 999, 999, 7, 33, 193, 65, 137, 186, 134, 82, 2, 3.96478
355, 2, bw, filler, NA, 999, 999, 7, 33, 193, 65, 137, 186, 134, 82, 3, 0.665169
355, 2, bw, attraction, a-b-da, 9, 2, 7, 34, 90, 165, 165, 90, 157, 86, 2, 2.63806
355, 2, bw, attraction, a-b-da, 9, 2, 7, 34, 90, 165, 165, 90, 157, 86, 1, 0.223722
355, 2, bw, attraction, a-b-da, 9, 1, 7, 35, 60, 135, 129, 57, 135, 60, 2, 1.60864
355, 2, bw, attraction, a-b-da, 9, 1, 7, 35, 60, 135, 129, 57, 135, 60, 3, 0.252337
355, 2, bw, filler, NA, 999, 999, 7, 36, 96, 68, 145, 162, 62, 112, 2, 1.03558
355, 2, bw, filler, NA, 999, 999, 7, 36, 96, 68, 145, 162, 62, 112, 1, 2.64651
355, 2, bw, attraction, a-b-db, 2, 2, 7, 37, 89, 163, 90, 165, 165, 90, 3, 3.29718
355, 2, bw, attraction, a-b-db, 2, 2, 7, 37, 89, 163, 90, 165, 165, 90, 1, 0.307524
355, 2, bw, filler, NA, 999, 999, 8, 1, 98, 66, 57, 140, 155, 191, 3, 0.724696
355, 2, bw, filler, NA, 999, 999, 8, 1, 98, 66, 57, 140, 155, 191, 1, 0.318271
355, 2, bw, filler, NA, 999, 999, 8, 2, 98, 71, 131, 141, 124, 92, 2, 0.703506
355, 2, bw, filler, NA, 999, 999, 8, 2, 98, 71, 131, 141, 124, 92, 1, 0.298583
355, 2, bw, attraction, a-b-da, 14, 2, 8, 3, 165, 90, 153, 83, 90, 165, 1, 1.22839
355, 2, bw, attraction, a-b-da, 14, 2, 8, 3, 165, 90, 153, 83, 90, 165, 3, 0.242156
355, 2, bw, attraction, a-b-da, 5, 3, 8, 4, 190, 117, 195, 120, 120, 195, 2, 0.757873
355, 2, bw, attraction, a-b-da, 5, 3, 8, 4, 190, 117, 195, 120, 120, 195, 1, 0.31041
355, 2, bw, attraction, a-b-da, 2, 3, 8, 5, 195, 120, 120, 195, 193, 119, 3, 1.53552
355, 2, bw, attraction, a-b-da, 2, 3, 8, 5, 195, 120, 120, 195, 193, 119, 2, 0.440953
355, 2, bw, attraction, a-b-da, 2, 2, 8, 6, 163, 89, 90, 165, 165, 90, 3, 2.18079
355, 2, bw, attraction, a-b-da, 2, 2, 8, 6, 163, 89, 90, 165, 165, 90, 2, 0.220205
355, 2, bw, attraction, a-b-db, 14, 1, 8, 7, 60, 135, 135, 60, 56, 125, 2, 1.11327
355, 2, bw, attraction, a-b-db, 14, 1, 8, 7, 60, 135, 135, 60, 56, 125, 3, 0.539575
355, 2, bw, attraction, a-b-db, 14, 2, 8, 8, 165, 90, 83, 153, 90, 165, 3, 4.5153
355, 2, bw, attraction, a-b-db, 14, 2, 8, 8, 165, 90, 83, 153, 90, 165, 2, 0.136042
355, 2, bw, attraction, a-b-db, 2, 3, 8, 9, 119, 193, 120, 195, 195, 120, 2, 1.14118
355, 2, bw, attraction, a-b-db, 2, 3, 8, 9, 119, 193, 120, 195, 195, 120, 3, 0.215037
355, 2, bw, attraction, a-b-db, 5, 1, 8, 10, 60, 135, 58, 132, 135, 60, 2, 0.93156
355, 2, bw, attraction, a-b-db, 5, 1, 8, 10, 60, 135, 58, 132, 135, 60, 1, 0.214041
355, 2, bw, attraction, a-b-da, 9, 2, 8, 11, 90, 165, 165, 90, 157, 86, 2, 0.85663
355, 2, bw, attraction, a-b-da, 9, 2, 8, 11, 90, 165, 165, 90, 157, 86, 1, 0.207788
355, 2, bw, filler, NA, 999, 999, 8, 12, 68, 103, 103, 94, 80, 189, 3, 1.06849
355, 2, bw, filler, NA, 999, 999, 8, 12, 68, 103, 103, 94, 80, 189, 1, 0.20398
355, 2, bw, filler, NA, 999, 999, 8, 13, 138, 68, 165, 63, 140, 85, 3, 0.182259
355, 2, bw, filler, NA, 999, 999, 8, 13, 138, 68, 165, 63, 140, 85, 1, 1.63518
355, 2, bw, attraction, a-b-da, 2, 1, 8, 14, 134, 59, 135, 60, 60, 135, 2, 1.30622
355, 2, bw, attraction, a-b-da, 2, 1, 8, 14, 134, 59, 135, 60, 60, 135, 3, 0.192951
355, 2, bw, filler, NA, 999, 999, 8, 15, 184, 92, 67, 124, 129, 152, 1, 5.25697
355, 2, bw, filler, NA, 999, 999, 8, 15, 184, 92, 67, 124, 129, 152, 2, 0.685602
355, 2, bw, filler, NA, 999, 999, 8, 16, 82, 168, 130, 144, 188, 133, 3, 1.36995
355, 2, bw, filler, NA, 999, 999, 8, 16, 82, 168, 130, 144, 188, 133, 1, 0.485442
355, 2, bw, attraction, a-b-da, 9, 1, 8, 17, 135, 60, 129, 57, 60, 135, 1, 3.54481
355, 2, bw, attraction, a-b-da, 9, 1, 8, 17, 135, 60, 129, 57, 60, 135, 3, 0.233071
355, 2, bw, attraction, a-b-db, 14, 3, 8, 18, 111, 181, 195, 120, 120, 195, 2, 0.693602
355, 2, bw, attraction, a-b-db, 14, 3, 8, 18, 111, 181, 195, 120, 120, 195, 3, 0.216601
355, 2, bw, catch, NA, 999, 999, 8, 19, 188, 127, 77, 118, 122, 133, 1, 0.613782
355, 2, bw, catch, NA, 999, 999, 8, 19, 188, 127, 77, 118, 122, 133, 2, 0.25231
355, 2, bw, attraction, a-b-db, 9, 2, 8, 20, 165, 90, 90, 165, 86, 157, 2, 0.664073
355, 2, bw, attraction, a-b-db, 9, 2, 8, 20, 165, 90, 90, 165, 86, 157, 1, 0.212516
355, 2, bw, filler, NA, 999, 999, 8, 21, 180, 75, 149, 159, 133, 84, 2, 0.633728
355, 2, bw, filler, NA, 999, 999, 8, 21, 180, 75, 149, 159, 133, 84, 1, 0.323518
355, 2, bw, attraction, a-b-da, 9, 3, 8, 22, 186, 114, 120, 195, 195, 120, 3, 1.03212
355, 2, bw, attraction, a-b-da, 9, 3, 8, 22, 186, 114, 120, 195, 195, 120, 2, 0.1898
355, 2, bw, attraction, a-b-da, 14, 3, 8, 23, 181, 111, 195, 120, 120, 195, 2, 0.763621
355, 2, bw, attraction, a-b-da, 14, 3, 8, 23, 181, 111, 195, 120, 120, 195, 3, 0.236063
355, 2, bw, attraction, a-b-da, 14, 1, 8, 24, 135, 60, 60, 135, 125, 56, 2, 0.783231
355, 2, bw, attraction, a-b-da, 14, 1, 8, 24, 135, 60, 60, 135, 125, 56, 1, 0.189301
355, 2, bw, attraction, a-b-db, 9, 1, 8, 25, 57, 129, 135, 60, 60, 135, 3, 0.409537
355, 2, bw, attraction, a-b-db, 9, 1, 8, 25, 57, 129, 135, 60, 60, 135, 2, 0.210787
355, 2, bw, attraction, a-b-db, 9, 3, 8, 26, 114, 186, 120, 195, 195, 120, 3, 0.365822
355, 2, bw, attraction, a-b-db, 9, 3, 8, 26, 114, 186, 120, 195, 195, 120, 2, 0.214796
355, 2, bw, filler, NA, 999, 999, 8, 27, 168, 194, 181, 104, 151, 71, 1, 0.365907
355, 2, bw, filler, NA, 999, 999, 8, 27, 168, 194, 181, 104, 151, 71, 3, 0.719728
355, 2, bw, attraction, a-b-da, 5, 2, 8, 28, 161, 88, 90, 165, 165, 90, 2, 1.44935
355, 2, bw, attraction, a-b-da, 5, 2, 8, 28, 161, 88, 90, 165, 165, 90, 3, 0.217805
355, 2, bw, attraction, a-b-db, 2, 2, 8, 29, 90, 165, 165, 90, 89, 163, 1, 0.490122
355, 2, bw, attraction, a-b-db, 2, 2, 8, 29, 90, 165, 165, 90, 89, 163, 2, 0.164271
355, 2, bw, catch, NA, 999, 999, 8, 30, 126, 69, 179, 136, 159, 96, 3, 0.493304
355, 2, bw, catch, NA, 999, 999, 8, 30, 126, 69, 179, 136, 159, 96, 2, 0.200248
355, 2, bw, attraction, a-b-da, 5, 1, 8, 31, 60, 135, 132, 58, 135, 60, 3, 0.436011
355, 2, bw, attraction, a-b-da, 5, 1, 8, 31, 60, 135, 132, 58, 135, 60, 2, 0.183603
355, 2, bw, filler, NA, 999, 999, 8, 32, 93, 108, 125, 60, 72, 146, 3, 1.36881
355, 2, bw, filler, NA, 999, 999, 8, 32, 93, 108, 125, 60, 72, 146, 1, 0.129036
355, 2, bw, attraction, a-b-db, 2, 1, 8, 33, 59, 134, 60, 135, 135, 60, 3, 3.49407
355, 2, bw, attraction, a-b-db, 2, 1, 8, 33, 59, 134, 60, 135, 135, 60, 2, 0.155833
355, 2, bw, attraction, a-b-db, 5, 3, 8, 34, 195, 120, 120, 195, 117, 190, 1, 1.64109
355, 2, bw, attraction, a-b-db, 5, 3, 8, 34, 195, 120, 120, 195, 117, 190, 2, 0.576933
355, 2, bw, catch, NA, 999, 999, 8, 35, 154, 101, 96, 99, 136, 179, 3, 2.15023
355, 2, bw, catch, NA, 999, 999, 8, 35, 154, 101, 96, 99, 136, 179, 2, 0.155034
355, 2, bw, attraction, a-b-db, 5, 2, 8, 36, 88, 161, 165, 90, 90, 165, 2, 1.22362
355, 2, bw, attraction, a-b-db, 5, 2, 8, 36, 88, 161, 165, 90, 90, 165, 1, 0.316967
355, 2, bw, filler, NA, 999, 999, 8, 37, 91, 180, 173, 167, 102, 88, 2, 1.13351
355, 2, bw, filler, NA, 999, 999, 8, 37, 91, 180, 173, 167, 102, 88, 3, 0.184354
