sub_n, computer_n, bw_cond, effect, set, distance, diag, block_n, trial_n, h1, w1, h2, w2, h3, w3, choice, rt 
397, 2, bw, practice, NA, 999, 999, 0, 1, 144, 159, 110, 163, 67, 149, 1, 2.85735
397, 2, bw, practice, NA, 999, 999, 0, 1, 144, 159, 110, 163, 67, 149, 3, 1.81196
397, 2, bw, practice, NA, 999, 999, 0, 2, 127, 142, 72, 104, 123, 58, 1, 1.47976
397, 2, bw, practice, NA, 999, 999, 0, 2, 127, 142, 72, 104, 123, 58, 3, 1.7697
397, 2, bw, practice, NA, 999, 999, 0, 3, 92, 64, 137, 171, 158, 114, 2, 1.26127
397, 2, bw, practice, NA, 999, 999, 0, 3, 92, 64, 137, 171, 158, 114, 1, 0.890515
397, 2, bw, attraction, a-b-da, 14, 3, 1, 1, 120, 195, 195, 120, 181, 111, 2, 1.43019
397, 2, bw, attraction, a-b-da, 14, 3, 1, 1, 120, 195, 195, 120, 181, 111, 3, 0.595677
397, 2, bw, filler, NA, 999, 999, 1, 2, 189, 163, 136, 146, 137, 57, 1, 1.07349
397, 2, bw, filler, NA, 999, 999, 1, 2, 189, 163, 136, 146, 137, 57, 3, 0.581251
397, 2, bw, filler, NA, 999, 999, 1, 3, 90, 192, 103, 191, 92, 99, 2, 1.15554
397, 2, bw, filler, NA, 999, 999, 1, 3, 90, 192, 103, 191, 92, 99, 3, 0.323844
397, 2, bw, filler, NA, 999, 999, 1, 4, 69, 142, 116, 153, 183, 178, 3, 0.732342
397, 2, bw, filler, NA, 999, 999, 1, 4, 69, 142, 116, 153, 183, 178, 1, 0.566083
397, 2, bw, attraction, a-b-da, 5, 2, 1, 5, 90, 165, 161, 88, 165, 90, 1, 2.74914
397, 2, bw, attraction, a-b-da, 5, 2, 1, 5, 90, 165, 161, 88, 165, 90, 2, 0.429686
397, 2, bw, attraction, a-b-db, 5, 3, 1, 6, 117, 190, 120, 195, 195, 120, 2, 3.05002
397, 2, bw, attraction, a-b-db, 5, 3, 1, 6, 117, 190, 120, 195, 195, 120, 3, 0.286387
397, 2, bw, attraction, a-b-db, 14, 1, 1, 7, 56, 125, 135, 60, 60, 135, 3, 1.3371
397, 2, bw, attraction, a-b-db, 14, 1, 1, 7, 56, 125, 135, 60, 60, 135, 2, 0.82663
397, 2, bw, attraction, a-b-da, 14, 1, 1, 8, 125, 56, 60, 135, 135, 60, 3, 1.43084
397, 2, bw, attraction, a-b-da, 14, 1, 1, 8, 125, 56, 60, 135, 135, 60, 1, 0.548502
397, 2, bw, attraction, a-b-db, 9, 3, 1, 9, 120, 195, 114, 186, 195, 120, 1, 1.34021
397, 2, bw, attraction, a-b-db, 9, 3, 1, 9, 120, 195, 114, 186, 195, 120, 2, 0.501057
397, 2, bw, catch, NA, 999, 999, 1, 10, 81, 114, 93, 162, 168, 147, 3, 1.07084
397, 2, bw, catch, NA, 999, 999, 1, 10, 81, 114, 93, 162, 168, 147, 1, 0.522469
397, 2, bw, attraction, a-b-da, 14, 2, 1, 11, 90, 165, 153, 83, 165, 90, 1, 1.74758
397, 2, bw, attraction, a-b-da, 14, 2, 1, 11, 90, 165, 153, 83, 165, 90, 2, 0.700372
397, 2, bw, filler, NA, 999, 999, 1, 12, 189, 88, 173, 67, 183, 102, 3, 1.17404
397, 2, bw, filler, NA, 999, 999, 1, 12, 189, 88, 173, 67, 183, 102, 2, 0.269621
397, 2, bw, attraction, a-b-da, 5, 3, 1, 13, 120, 195, 195, 120, 190, 117, 3, 1.65687
397, 2, bw, attraction, a-b-da, 5, 3, 1, 13, 120, 195, 195, 120, 190, 117, 2, 0.229064
397, 2, bw, attraction, a-b-da, 9, 3, 1, 14, 195, 120, 120, 195, 186, 114, 1, 1.2095
397, 2, bw, attraction, a-b-da, 9, 3, 1, 14, 195, 120, 120, 195, 186, 114, 2, 0.223851
397, 2, bw, attraction, a-b-da, 9, 1, 1, 15, 60, 135, 135, 60, 129, 57, 1, 1.14835
397, 2, bw, attraction, a-b-da, 9, 1, 1, 15, 60, 135, 135, 60, 129, 57, 2, 0.757419
397, 2, bw, filler, NA, 999, 999, 1, 16, 124, 69, 158, 121, 76, 134, 2, 1.18834
397, 2, bw, filler, NA, 999, 999, 1, 16, 124, 69, 158, 121, 76, 134, 3, 0.755237
397, 2, bw, attraction, a-b-db, 14, 3, 1, 17, 111, 181, 195, 120, 120, 195, 1, 1.15496
397, 2, bw, attraction, a-b-db, 14, 3, 1, 17, 111, 181, 195, 120, 120, 195, 2, 0.211179
397, 2, bw, filler, NA, 999, 999, 1, 18, 157, 160, 84, 136, 87, 193, 1, 1.3925
397, 2, bw, filler, NA, 999, 999, 1, 18, 157, 160, 84, 136, 87, 193, 2, 0.287306
397, 2, bw, filler, NA, 999, 999, 1, 19, 75, 83, 138, 136, 80, 114, 2, 1.15399
397, 2, bw, filler, NA, 999, 999, 1, 19, 75, 83, 138, 136, 80, 114, 1, 0.410755
397, 2, bw, attraction, a-b-db, 5, 1, 1, 20, 135, 60, 58, 132, 60, 135, 3, 1.3119
397, 2, bw, attraction, a-b-db, 5, 1, 1, 20, 135, 60, 58, 132, 60, 135, 2, 0.26621
397, 2, bw, attraction, a-b-db, 14, 2, 1, 21, 83, 153, 165, 90, 90, 165, 1, 0.597386
397, 2, bw, attraction, a-b-db, 14, 2, 1, 21, 83, 153, 165, 90, 90, 165, 2, 0.212451
397, 2, bw, catch, NA, 999, 999, 1, 22, 110, 145, 174, 141, 74, 121, 2, 0.825749
397, 2, bw, catch, NA, 999, 999, 1, 22, 110, 145, 174, 141, 74, 121, 3, 0.487433
397, 2, bw, filler, NA, 999, 999, 1, 23, 90, 111, 185, 142, 194, 68, 2, 1.09788
397, 2, bw, filler, NA, 999, 999, 1, 23, 90, 111, 185, 142, 194, 68, 1, 0.332866
397, 2, bw, attraction, a-b-da, 5, 1, 1, 24, 132, 58, 60, 135, 135, 60, 3, 0.749366
397, 2, bw, attraction, a-b-da, 5, 1, 1, 24, 132, 58, 60, 135, 135, 60, 2, 0.286417
397, 2, bw, attraction, a-b-da, 2, 3, 1, 25, 193, 119, 195, 120, 120, 195, 3, 0.752868
397, 2, bw, attraction, a-b-da, 2, 3, 1, 25, 193, 119, 195, 120, 120, 195, 2, 0.233949
397, 2, bw, attraction, a-b-da, 2, 1, 1, 26, 135, 60, 60, 135, 134, 59, 2, 0.854528
397, 2, bw, attraction, a-b-da, 2, 1, 1, 26, 135, 60, 60, 135, 134, 59, 1, 0.474962
397, 2, bw, attraction, a-b-db, 5, 2, 1, 27, 165, 90, 90, 165, 88, 161, 2, 0.933353
397, 2, bw, attraction, a-b-db, 5, 2, 1, 27, 165, 90, 90, 165, 88, 161, 3, 0.239082
397, 2, bw, attraction, a-b-db, 2, 1, 1, 28, 60, 135, 59, 134, 135, 60, 2, 0.603527
397, 2, bw, attraction, a-b-db, 2, 1, 1, 28, 60, 135, 59, 134, 135, 60, 1, 0.25793
397, 2, bw, attraction, a-b-da, 9, 2, 1, 29, 165, 90, 90, 165, 157, 86, 2, 0.581182
397, 2, bw, attraction, a-b-da, 9, 2, 1, 29, 165, 90, 90, 165, 157, 86, 3, 0.277006
397, 2, bw, attraction, a-b-db, 9, 1, 1, 30, 135, 60, 60, 135, 57, 129, 2, 0.543611
397, 2, bw, attraction, a-b-db, 9, 1, 1, 30, 135, 60, 60, 135, 57, 129, 1, 0.520659
397, 2, bw, attraction, a-b-db, 2, 2, 1, 31, 90, 165, 165, 90, 89, 163, 2, 0.513761
397, 2, bw, attraction, a-b-db, 2, 2, 1, 31, 90, 165, 165, 90, 89, 163, 3, 0.228358
397, 2, bw, catch, NA, 999, 999, 1, 32, 124, 71, 113, 142, 158, 157, 3, 0.856756
397, 2, bw, catch, NA, 999, 999, 1, 32, 124, 71, 113, 142, 158, 157, 1, 0.365148
397, 2, bw, filler, NA, 999, 999, 1, 33, 67, 101, 165, 136, 188, 105, 2, 1.09235
397, 2, bw, filler, NA, 999, 999, 1, 33, 67, 101, 165, 136, 188, 105, 1, 0.271252
397, 2, bw, attraction, a-b-da, 2, 2, 1, 34, 165, 90, 163, 89, 90, 165, 1, 0.786483
397, 2, bw, attraction, a-b-da, 2, 2, 1, 34, 165, 90, 163, 89, 90, 165, 2, 0.258177
397, 2, bw, filler, NA, 999, 999, 1, 35, 174, 58, 113, 161, 59, 66, 2, 1.14936
397, 2, bw, filler, NA, 999, 999, 1, 35, 174, 58, 113, 161, 59, 66, 3, 0.342445
397, 2, bw, attraction, a-b-db, 2, 3, 1, 36, 120, 195, 195, 120, 119, 193, 3, 0.6702
397, 2, bw, attraction, a-b-db, 2, 3, 1, 36, 120, 195, 195, 120, 119, 193, 2, 0.194555
397, 2, bw, attraction, a-b-db, 9, 2, 1, 37, 165, 90, 86, 157, 90, 165, 2, 0.616463
397, 2, bw, attraction, a-b-db, 9, 2, 1, 37, 165, 90, 86, 157, 90, 165, 1, 0.518921
397, 2, bw, attraction, a-b-db, 2, 3, 2, 1, 195, 120, 119, 193, 120, 195, 2, 0.392163
397, 2, bw, attraction, a-b-db, 2, 3, 2, 1, 195, 120, 119, 193, 120, 195, 1, 0.263322
397, 2, bw, filler, NA, 999, 999, 2, 2, 78, 176, 170, 134, 104, 163, 2, 0.354386
397, 2, bw, filler, NA, 999, 999, 2, 2, 78, 176, 170, 134, 104, 163, 3, 0.21106
397, 2, bw, attraction, a-b-db, 9, 3, 2, 3, 195, 120, 120, 195, 114, 186, 2, 0.47212
397, 2, bw, attraction, a-b-db, 9, 3, 2, 3, 195, 120, 120, 195, 114, 186, 3, 0.195937
397, 2, bw, filler, NA, 999, 999, 2, 4, 150, 150, 139, 66, 95, 165, 1, 0.945851
397, 2, bw, filler, NA, 999, 999, 2, 4, 150, 150, 139, 66, 95, 165, 2, 0.24301
397, 2, bw, attraction, a-b-da, 5, 3, 2, 5, 190, 117, 120, 195, 195, 120, 2, 0.55869
397, 2, bw, attraction, a-b-da, 5, 3, 2, 5, 190, 117, 120, 195, 195, 120, 3, 0.20722
397, 2, bw, attraction, a-b-db, 5, 3, 2, 6, 195, 120, 120, 195, 117, 190, 2, 0.532322
397, 2, bw, attraction, a-b-db, 5, 3, 2, 6, 195, 120, 120, 195, 117, 190, 3, 0.438236
397, 2, bw, filler, NA, 999, 999, 2, 7, 117, 172, 139, 166, 135, 95, 2, 0.426678
397, 2, bw, filler, NA, 999, 999, 2, 7, 117, 172, 139, 166, 135, 95, 3, 1.10452
397, 2, bw, filler, NA, 999, 999, 2, 8, 104, 187, 88, 90, 177, 170, 3, 1.11422
397, 2, bw, filler, NA, 999, 999, 2, 8, 104, 187, 88, 90, 177, 170, 2, 0.19654
397, 2, bw, attraction, a-b-db, 5, 1, 2, 9, 135, 60, 60, 135, 58, 132, 2, 0.666409
397, 2, bw, attraction, a-b-db, 5, 1, 2, 9, 135, 60, 60, 135, 58, 132, 1, 0.198654
397, 2, bw, attraction, a-b-da, 9, 2, 2, 10, 90, 165, 157, 86, 165, 90, 2, 0.700545
397, 2, bw, attraction, a-b-da, 9, 2, 2, 10, 90, 165, 157, 86, 165, 90, 3, 0.199683
397, 2, bw, attraction, a-b-db, 9, 2, 2, 11, 165, 90, 86, 157, 90, 165, 2, 1.20554
397, 2, bw, attraction, a-b-db, 9, 2, 2, 11, 165, 90, 86, 157, 90, 165, 1, 0.211819
397, 2, bw, attraction, a-b-da, 2, 1, 2, 12, 134, 59, 135, 60, 60, 135, 2, 0.457183
397, 2, bw, attraction, a-b-da, 2, 1, 2, 12, 134, 59, 135, 60, 60, 135, 3, 0.45348
397, 2, bw, attraction, a-b-db, 14, 1, 2, 13, 56, 125, 60, 135, 135, 60, 2, 0.441309
397, 2, bw, attraction, a-b-db, 14, 1, 2, 13, 56, 125, 60, 135, 135, 60, 1, 0.574647
397, 2, bw, catch, NA, 999, 999, 2, 14, 164, 151, 76, 119, 126, 129, 1, 0.916881
397, 2, bw, catch, NA, 999, 999, 2, 14, 164, 151, 76, 119, 126, 129, 2, 0.239251
397, 2, bw, attraction, a-b-db, 14, 3, 2, 15, 111, 181, 120, 195, 195, 120, 2, 0.699205
397, 2, bw, attraction, a-b-db, 14, 3, 2, 15, 111, 181, 120, 195, 195, 120, 3, 0.43028
397, 2, bw, filler, NA, 999, 999, 2, 16, 148, 140, 128, 167, 174, 75, 2, 1.6428
397, 2, bw, filler, NA, 999, 999, 2, 16, 148, 140, 128, 167, 174, 75, 3, 0.54353
397, 2, bw, attraction, a-b-da, 14, 3, 2, 17, 195, 120, 120, 195, 181, 111, 2, 0.67931
397, 2, bw, attraction, a-b-da, 14, 3, 2, 17, 195, 120, 120, 195, 181, 111, 1, 0.227024
397, 2, bw, attraction, a-b-db, 5, 2, 2, 18, 90, 165, 88, 161, 165, 90, 2, 0.471586
397, 2, bw, attraction, a-b-db, 5, 2, 2, 18, 90, 165, 88, 161, 165, 90, 3, 0.227451
397, 2, bw, catch, NA, 999, 999, 2, 19, 155, 160, 111, 84, 120, 135, 1, 0.839978
397, 2, bw, catch, NA, 999, 999, 2, 19, 155, 160, 111, 84, 120, 135, 2, 0.340948
397, 2, bw, filler, NA, 999, 999, 2, 20, 150, 110, 81, 79, 181, 177, 3, 0.556803
397, 2, bw, filler, NA, 999, 999, 2, 20, 150, 110, 81, 79, 181, 177, 2, 0.549311
397, 2, bw, catch, NA, 999, 999, 2, 21, 103, 152, 120, 195, 122, 73, 2, 0.44495
397, 2, bw, catch, NA, 999, 999, 2, 21, 103, 152, 120, 195, 122, 73, 3, 0.658175
397, 2, bw, attraction, a-b-da, 14, 2, 2, 22, 90, 165, 153, 83, 165, 90, 2, 1.11726
397, 2, bw, attraction, a-b-da, 14, 2, 2, 22, 90, 165, 153, 83, 165, 90, 3, 1.1036
397, 2, bw, attraction, a-b-db, 2, 2, 2, 23, 89, 163, 90, 165, 165, 90, 2, 0.985112
397, 2, bw, attraction, a-b-db, 2, 2, 2, 23, 89, 163, 90, 165, 165, 90, 1, 0.200825
397, 2, bw, attraction, a-b-db, 2, 1, 2, 24, 59, 134, 60, 135, 135, 60, 2, 0.590629
397, 2, bw, attraction, a-b-db, 2, 1, 2, 24, 59, 134, 60, 135, 135, 60, 1, 0.237806
397, 2, bw, attraction, a-b-da, 5, 2, 2, 25, 165, 90, 161, 88, 90, 165, 2, 0.930445
397, 2, bw, attraction, a-b-da, 5, 2, 2, 25, 165, 90, 161, 88, 90, 165, 1, 0.260004
397, 2, bw, attraction, a-b-da, 5, 1, 2, 26, 60, 135, 132, 58, 135, 60, 2, 0.727214
397, 2, bw, attraction, a-b-da, 5, 1, 2, 26, 60, 135, 132, 58, 135, 60, 1, 0.217035
397, 2, bw, attraction, a-b-da, 9, 3, 2, 27, 120, 195, 186, 114, 195, 120, 2, 0.550094
397, 2, bw, attraction, a-b-da, 9, 3, 2, 27, 120, 195, 186, 114, 195, 120, 1, 0.743287
397, 2, bw, filler, NA, 999, 999, 2, 28, 164, 192, 171, 184, 116, 101, 2, 0.975035
397, 2, bw, filler, NA, 999, 999, 2, 28, 164, 192, 171, 184, 116, 101, 3, 0.174724
397, 2, bw, attraction, a-b-da, 2, 3, 2, 29, 120, 195, 195, 120, 193, 119, 2, 0.605184
397, 2, bw, attraction, a-b-da, 2, 3, 2, 29, 120, 195, 195, 120, 193, 119, 1, 0.171619
397, 2, bw, filler, NA, 999, 999, 2, 30, 109, 104, 58, 181, 108, 104, 3, 0.706885
397, 2, bw, filler, NA, 999, 999, 2, 30, 109, 104, 58, 181, 108, 104, 2, 0.229335
397, 2, bw, attraction, a-b-db, 14, 2, 2, 31, 83, 153, 165, 90, 90, 165, 2, 0.64991
397, 2, bw, attraction, a-b-db, 14, 2, 2, 31, 83, 153, 165, 90, 90, 165, 1, 0.215017
397, 2, bw, attraction, a-b-da, 2, 2, 2, 32, 165, 90, 163, 89, 90, 165, 2, 0.508183
397, 2, bw, attraction, a-b-da, 2, 2, 2, 32, 165, 90, 163, 89, 90, 165, 3, 0.214647
397, 2, bw, attraction, a-b-db, 9, 1, 2, 33, 60, 135, 135, 60, 57, 129, 2, 0.476003
397, 2, bw, attraction, a-b-db, 9, 1, 2, 33, 60, 135, 135, 60, 57, 129, 1, 0.239659
397, 2, bw, filler, NA, 999, 999, 2, 34, 137, 135, 192, 163, 154, 150, 2, 0.427612
397, 2, bw, filler, NA, 999, 999, 2, 34, 137, 135, 192, 163, 154, 150, 3, 0.521374
397, 2, bw, attraction, a-b-da, 14, 1, 2, 35, 125, 56, 60, 135, 135, 60, 2, 0.674535
397, 2, bw, attraction, a-b-da, 14, 1, 2, 35, 125, 56, 60, 135, 135, 60, 1, 0.742267
397, 2, bw, attraction, a-b-da, 9, 1, 2, 36, 135, 60, 60, 135, 129, 57, 2, 0.470003
397, 2, bw, attraction, a-b-da, 9, 1, 2, 36, 135, 60, 60, 135, 129, 57, 1, 0.210403
397, 2, bw, filler, NA, 999, 999, 2, 37, 74, 140, 148, 142, 148, 82, 2, 0.527656
397, 2, bw, filler, NA, 999, 999, 2, 37, 74, 140, 148, 142, 148, 82, 3, 0.193516
397, 2, bw, attraction, a-b-db, 2, 2, 3, 1, 89, 163, 165, 90, 90, 165, 1, 1.03131
397, 2, bw, attraction, a-b-db, 2, 2, 3, 1, 89, 163, 165, 90, 90, 165, 2, 0.34906
397, 2, bw, attraction, a-b-db, 14, 1, 3, 2, 135, 60, 60, 135, 56, 125, 2, 0.396884
397, 2, bw, attraction, a-b-db, 14, 1, 3, 2, 135, 60, 60, 135, 56, 125, 3, 0.308066
397, 2, bw, attraction, a-b-da, 14, 3, 3, 3, 181, 111, 120, 195, 195, 120, 2, 0.453229
397, 2, bw, attraction, a-b-da, 14, 3, 3, 3, 181, 111, 120, 195, 195, 120, 1, 0.161717
397, 2, bw, attraction, a-b-db, 5, 1, 3, 4, 135, 60, 60, 135, 58, 132, 2, 0.448941
397, 2, bw, attraction, a-b-db, 5, 1, 3, 4, 135, 60, 60, 135, 58, 132, 3, 0.502143
397, 2, bw, filler, NA, 999, 999, 3, 5, 64, 166, 136, 178, 73, 185, 2, 3.29591
397, 2, bw, filler, NA, 999, 999, 3, 5, 64, 166, 136, 178, 73, 185, 1, 0.242126
397, 2, bw, attraction, a-b-da, 2, 1, 3, 6, 135, 60, 60, 135, 134, 59, 2, 0.566012
397, 2, bw, attraction, a-b-da, 2, 1, 3, 6, 135, 60, 60, 135, 134, 59, 1, 0.350498
397, 2, bw, filler, NA, 999, 999, 3, 7, 112, 127, 185, 139, 171, 108, 2, 0.454286
397, 2, bw, filler, NA, 999, 999, 3, 7, 112, 127, 185, 139, 171, 108, 1, 0.386796
397, 2, bw, attraction, a-b-da, 9, 1, 3, 8, 129, 57, 135, 60, 60, 135, 2, 0.521429
397, 2, bw, attraction, a-b-da, 9, 1, 3, 8, 129, 57, 135, 60, 60, 135, 1, 0.499081
397, 2, bw, attraction, a-b-db, 9, 3, 3, 9, 114, 186, 195, 120, 120, 195, 2, 0.380935
397, 2, bw, attraction, a-b-db, 9, 3, 3, 9, 114, 186, 195, 120, 120, 195, 1, 0.228889
397, 2, bw, attraction, a-b-da, 5, 3, 3, 10, 190, 117, 195, 120, 120, 195, 2, 0.681331
397, 2, bw, attraction, a-b-da, 5, 3, 3, 10, 190, 117, 195, 120, 120, 195, 1, 0.269077
397, 2, bw, catch, NA, 999, 999, 3, 11, 191, 124, 122, 133, 71, 124, 2, 0.45636
397, 2, bw, catch, NA, 999, 999, 3, 11, 191, 124, 122, 133, 71, 124, 1, 0.764755
397, 2, bw, catch, NA, 999, 999, 3, 12, 168, 147, 96, 99, 125, 130, 1, 2.33975
397, 2, bw, catch, NA, 999, 999, 3, 12, 168, 147, 96, 99, 125, 130, 2, 0.492356
397, 2, bw, attraction, a-b-da, 14, 1, 3, 13, 60, 135, 135, 60, 125, 56, 2, 0.614236
397, 2, bw, attraction, a-b-da, 14, 1, 3, 13, 60, 135, 135, 60, 125, 56, 1, 0.172711
397, 2, bw, attraction, a-b-db, 9, 1, 3, 14, 135, 60, 60, 135, 57, 129, 2, 0.699141
397, 2, bw, attraction, a-b-db, 9, 1, 3, 14, 135, 60, 60, 135, 57, 129, 1, 0.334222
397, 2, bw, filler, NA, 999, 999, 3, 15, 144, 66, 65, 147, 115, 126, 3, 0.774709
397, 2, bw, filler, NA, 999, 999, 3, 15, 144, 66, 65, 147, 115, 126, 2, 0.222523
397, 2, bw, attraction, a-b-da, 5, 2, 3, 16, 90, 165, 165, 90, 161, 88, 1, 0.859016
397, 2, bw, attraction, a-b-da, 5, 2, 3, 16, 90, 165, 165, 90, 161, 88, 2, 0.191377
397, 2, bw, filler, NA, 999, 999, 3, 17, 143, 63, 71, 82, 152, 183, 3, 0.677279
397, 2, bw, filler, NA, 999, 999, 3, 17, 143, 63, 71, 82, 152, 183, 2, 0.249029
397, 2, bw, attraction, a-b-db, 2, 3, 3, 18, 195, 120, 120, 195, 119, 193, 1, 0.605027
397, 2, bw, attraction, a-b-db, 2, 3, 3, 18, 195, 120, 120, 195, 119, 193, 2, 0.403302
397, 2, bw, catch, NA, 999, 999, 3, 19, 187, 128, 155, 100, 120, 75, 2, 0.625155
397, 2, bw, catch, NA, 999, 999, 3, 19, 187, 128, 155, 100, 120, 75, 1, 0.35905
397, 2, bw, attraction, a-b-da, 5, 1, 3, 20, 135, 60, 60, 135, 132, 58, 1, 0.75815
397, 2, bw, attraction, a-b-da, 5, 1, 3, 20, 135, 60, 60, 135, 132, 58, 2, 0.190483
397, 2, bw, attraction, a-b-db, 2, 1, 3, 21, 60, 135, 135, 60, 59, 134, 1, 0.720527
397, 2, bw, attraction, a-b-db, 2, 1, 3, 21, 60, 135, 135, 60, 59, 134, 2, 0.102213
397, 2, bw, filler, NA, 999, 999, 3, 22, 139, 175, 134, 165, 177, 109, 3, 0.800032
397, 2, bw, filler, NA, 999, 999, 3, 22, 139, 175, 134, 165, 177, 109, 2, 0.231246
397, 2, bw, attraction, a-b-db, 14, 3, 3, 23, 195, 120, 111, 181, 120, 195, 2, 1.24362
397, 2, bw, attraction, a-b-db, 14, 3, 3, 23, 195, 120, 111, 181, 120, 195, 1, 0.472506
397, 2, bw, attraction, a-b-da, 2, 2, 3, 24, 90, 165, 165, 90, 163, 89, 2, 0.563635
397, 2, bw, attraction, a-b-da, 2, 2, 3, 24, 90, 165, 165, 90, 163, 89, 1, 0.23615
397, 2, bw, attraction, a-b-db, 5, 3, 3, 25, 120, 195, 195, 120, 117, 190, 2, 0.504715
397, 2, bw, attraction, a-b-db, 5, 3, 3, 25, 120, 195, 195, 120, 117, 190, 1, 0.347151
397, 2, bw, filler, NA, 999, 999, 3, 26, 192, 156, 124, 146, 157, 176, 1, 1.195
397, 2, bw, filler, NA, 999, 999, 3, 26, 192, 156, 124, 146, 157, 176, 2, 0.249879
397, 2, bw, attraction, a-b-da, 9, 2, 3, 27, 157, 86, 90, 165, 165, 90, 1, 0.741758
397, 2, bw, attraction, a-b-da, 9, 2, 3, 27, 157, 86, 90, 165, 165, 90, 2, 0.24694
397, 2, bw, filler, NA, 999, 999, 3, 28, 72, 80, 91, 187, 77, 74, 2, 0.754691
397, 2, bw, filler, NA, 999, 999, 3, 28, 72, 80, 91, 187, 77, 74, 1, 0.507226
397, 2, bw, attraction, a-b-db, 9, 2, 3, 29, 90, 165, 86, 157, 165, 90, 1, 1.24421
397, 2, bw, attraction, a-b-db, 9, 2, 3, 29, 90, 165, 86, 157, 165, 90, 2, 0.449076
397, 2, bw, attraction, a-b-db, 5, 2, 3, 30, 90, 165, 165, 90, 88, 161, 2, 0.636956
397, 2, bw, attraction, a-b-db, 5, 2, 3, 30, 90, 165, 165, 90, 88, 161, 1, 0.186124
397, 2, bw, attraction, a-b-da, 9, 3, 3, 31, 120, 195, 186, 114, 195, 120, 2, 0.712587
397, 2, bw, attraction, a-b-da, 9, 3, 3, 31, 120, 195, 186, 114, 195, 120, 1, 0.179007
397, 2, bw, filler, NA, 999, 999, 3, 32, 175, 186, 140, 109, 97, 176, 1, 0.625588
397, 2, bw, filler, NA, 999, 999, 3, 32, 175, 186, 140, 109, 97, 176, 2, 0.175292
397, 2, bw, filler, NA, 999, 999, 3, 33, 139, 101, 140, 60, 125, 92, 1, 1.09391
397, 2, bw, filler, NA, 999, 999, 3, 33, 139, 101, 140, 60, 125, 92, 2, 0.168851
397, 2, bw, attraction, a-b-db, 14, 2, 3, 34, 90, 165, 165, 90, 83, 153, 1, 0.656176
397, 2, bw, attraction, a-b-db, 14, 2, 3, 34, 90, 165, 165, 90, 83, 153, 2, 0.164488
397, 2, bw, filler, NA, 999, 999, 3, 35, 86, 135, 148, 192, 153, 83, 2, 0.627682
397, 2, bw, filler, NA, 999, 999, 3, 35, 86, 135, 148, 192, 153, 83, 1, 0.505502
397, 2, bw, attraction, a-b-da, 2, 3, 3, 36, 195, 120, 193, 119, 120, 195, 1, 0.779307
397, 2, bw, attraction, a-b-da, 2, 3, 3, 36, 195, 120, 193, 119, 120, 195, 2, 0.163114
397, 2, bw, attraction, a-b-da, 14, 2, 3, 37, 90, 165, 153, 83, 165, 90, 1, 0.826305
397, 2, bw, attraction, a-b-da, 14, 2, 3, 37, 90, 165, 153, 83, 165, 90, 2, 0.591949
397, 2, bw, attraction, a-b-da, 14, 2, 4, 1, 165, 90, 153, 83, 90, 165, 1, 0.54166
397, 2, bw, attraction, a-b-da, 14, 2, 4, 1, 165, 90, 153, 83, 90, 165, 2, 0.222796
397, 2, bw, filler, NA, 999, 999, 4, 2, 93, 107, 64, 117, 126, 184, 3, 1.17155
397, 2, bw, filler, NA, 999, 999, 4, 2, 93, 107, 64, 117, 126, 184, 1, 0.187019
397, 2, bw, filler, NA, 999, 999, 4, 3, 153, 142, 56, 71, 190, 72, 1, 1.76962
397, 2, bw, filler, NA, 999, 999, 4, 3, 153, 142, 56, 71, 190, 72, 2, 0.297655
397, 2, bw, catch, NA, 999, 999, 4, 4, 75, 120, 134, 181, 100, 155, 2, 0.907621
397, 2, bw, catch, NA, 999, 999, 4, 4, 75, 120, 134, 181, 100, 155, 1, 1.92586
397, 2, bw, filler, NA, 999, 999, 4, 5, 176, 126, 147, 160, 109, 133, 2, 1.21385
397, 2, bw, filler, NA, 999, 999, 4, 5, 176, 126, 147, 160, 109, 133, 3, 0.460083
397, 2, bw, attraction, a-b-db, 14, 1, 4, 6, 135, 60, 60, 135, 56, 125, 1, 0.903163
397, 2, bw, attraction, a-b-db, 14, 1, 4, 6, 135, 60, 60, 135, 56, 125, 2, 0.290261
397, 2, bw, filler, NA, 999, 999, 4, 7, 82, 163, 78, 136, 80, 72, 1, 1.1401
397, 2, bw, filler, NA, 999, 999, 4, 7, 82, 163, 78, 136, 80, 72, 3, 0.357036
397, 2, bw, filler, NA, 999, 999, 4, 8, 105, 63, 137, 155, 190, 96, 2, 0.900387
397, 2, bw, filler, NA, 999, 999, 4, 8, 105, 63, 137, 155, 190, 96, 1, 0.575387
397, 2, bw, filler, NA, 999, 999, 4, 9, 175, 81, 170, 68, 190, 121, 3, 0.957738
397, 2, bw, filler, NA, 999, 999, 4, 9, 175, 81, 170, 68, 190, 121, 2, 0.414103
397, 2, bw, attraction, a-b-da, 9, 1, 4, 10, 129, 57, 135, 60, 60, 135, 2, 1.34716
397, 2, bw, attraction, a-b-da, 9, 1, 4, 10, 129, 57, 135, 60, 60, 135, 1, 0.244078
397, 2, bw, attraction, a-b-da, 5, 1, 4, 11, 60, 135, 132, 58, 135, 60, 2, 0.544031
397, 2, bw, attraction, a-b-da, 5, 1, 4, 11, 60, 135, 132, 58, 135, 60, 1, 0.272972
397, 2, bw, catch, NA, 999, 999, 4, 12, 176, 139, 117, 78, 161, 94, 1, 0.907541
397, 2, bw, catch, NA, 999, 999, 4, 12, 176, 139, 117, 78, 161, 94, 2, 0.261906
397, 2, bw, attraction, a-b-db, 14, 3, 4, 13, 120, 195, 195, 120, 111, 181, 1, 1.04903
397, 2, bw, attraction, a-b-db, 14, 3, 4, 13, 120, 195, 195, 120, 111, 181, 2, 0.334033
397, 2, bw, attraction, a-b-db, 9, 3, 4, 14, 114, 186, 195, 120, 120, 195, 2, 0.86251
397, 2, bw, attraction, a-b-db, 9, 3, 4, 14, 114, 186, 195, 120, 120, 195, 1, 0.514923
397, 2, bw, attraction, a-b-da, 9, 2, 4, 15, 165, 90, 157, 86, 90, 165, 1, 0.700027
397, 2, bw, attraction, a-b-da, 9, 2, 4, 15, 165, 90, 157, 86, 90, 165, 2, 0.247272
397, 2, bw, attraction, a-b-db, 2, 2, 4, 16, 89, 163, 90, 165, 165, 90, 2, 0.826977
397, 2, bw, attraction, a-b-db, 2, 2, 4, 16, 89, 163, 90, 165, 165, 90, 1, 0.224698
397, 2, bw, attraction, a-b-db, 2, 1, 4, 17, 59, 134, 60, 135, 135, 60, 2, 0.453271
397, 2, bw, attraction, a-b-db, 2, 1, 4, 17, 59, 134, 60, 135, 135, 60, 1, 0.19383
397, 2, bw, attraction, a-b-da, 2, 1, 4, 18, 135, 60, 60, 135, 134, 59, 2, 0.471628
397, 2, bw, attraction, a-b-da, 2, 1, 4, 18, 135, 60, 60, 135, 134, 59, 1, 0.243522
397, 2, bw, filler, NA, 999, 999, 4, 19, 92, 139, 73, 131, 153, 68, 2, 0.463276
397, 2, bw, filler, NA, 999, 999, 4, 19, 92, 139, 73, 131, 153, 68, 1, 0.195907
397, 2, bw, attraction, a-b-db, 2, 3, 4, 20, 119, 193, 120, 195, 195, 120, 2, 0.937866
397, 2, bw, attraction, a-b-db, 2, 3, 4, 20, 119, 193, 120, 195, 195, 120, 1, 0.194821
397, 2, bw, attraction, a-b-db, 5, 2, 4, 21, 165, 90, 90, 165, 88, 161, 2, 0.800707
397, 2, bw, attraction, a-b-db, 5, 2, 4, 21, 165, 90, 90, 165, 88, 161, 1, 0.643923
397, 2, bw, attraction, a-b-db, 5, 3, 4, 22, 117, 190, 120, 195, 195, 120, 2, 0.435374
397, 2, bw, attraction, a-b-db, 5, 3, 4, 22, 117, 190, 120, 195, 195, 120, 1, 0.553319
397, 2, bw, attraction, a-b-da, 5, 3, 4, 23, 190, 117, 120, 195, 195, 120, 2, 0.416967
397, 2, bw, attraction, a-b-da, 5, 3, 4, 23, 190, 117, 120, 195, 195, 120, 1, 0.199541
397, 2, bw, attraction, a-b-da, 5, 2, 4, 24, 165, 90, 161, 88, 90, 165, 2, 0.693511
397, 2, bw, attraction, a-b-da, 5, 2, 4, 24, 165, 90, 161, 88, 90, 165, 1, 0.264482
397, 2, bw, attraction, a-b-da, 14, 1, 4, 25, 135, 60, 60, 135, 125, 56, 2, 1.11576
397, 2, bw, attraction, a-b-da, 14, 1, 4, 25, 135, 60, 60, 135, 125, 56, 1, 0.355754
397, 2, bw, attraction, a-b-da, 14, 3, 4, 26, 195, 120, 181, 111, 120, 195, 2, 0.605252
397, 2, bw, attraction, a-b-da, 14, 3, 4, 26, 195, 120, 181, 111, 120, 195, 1, 0.371556
397, 2, bw, filler, NA, 999, 999, 4, 27, 193, 157, 103, 82, 127, 115, 1, 0.730891
397, 2, bw, filler, NA, 999, 999, 4, 27, 193, 157, 103, 82, 127, 115, 2, 0.212453
397, 2, bw, attraction, a-b-db, 9, 2, 4, 28, 86, 157, 90, 165, 165, 90, 2, 0.609659
397, 2, bw, attraction, a-b-db, 9, 2, 4, 28, 86, 157, 90, 165, 165, 90, 1, 0.184217
397, 2, bw, catch, NA, 999, 999, 4, 29, 132, 63, 116, 139, 142, 173, 2, 0.678893
397, 2, bw, catch, NA, 999, 999, 4, 29, 132, 63, 116, 139, 142, 173, 1, 1.07452
397, 2, bw, attraction, a-b-da, 9, 3, 4, 30, 195, 120, 120, 195, 186, 114, 2, 0.860918
397, 2, bw, attraction, a-b-da, 9, 3, 4, 30, 195, 120, 120, 195, 186, 114, 1, 0.185235
397, 2, bw, attraction, a-b-da, 2, 3, 4, 31, 195, 120, 193, 119, 120, 195, 2, 0.551657
397, 2, bw, attraction, a-b-da, 2, 3, 4, 31, 195, 120, 193, 119, 120, 195, 1, 0.200785
397, 2, bw, attraction, a-b-db, 14, 2, 4, 32, 83, 153, 165, 90, 90, 165, 2, 0.614639
397, 2, bw, attraction, a-b-db, 14, 2, 4, 32, 83, 153, 165, 90, 90, 165, 1, 0.245113
397, 2, bw, attraction, a-b-db, 5, 1, 4, 33, 58, 132, 135, 60, 60, 135, 2, 0.448929
397, 2, bw, attraction, a-b-db, 5, 1, 4, 33, 58, 132, 135, 60, 60, 135, 1, 0.262287
397, 2, bw, filler, NA, 999, 999, 4, 34, 102, 92, 134, 67, 150, 149, 3, 1.91339
397, 2, bw, filler, NA, 999, 999, 4, 34, 102, 92, 134, 67, 150, 149, 2, 0.739504
397, 2, bw, attraction, a-b-da, 2, 2, 4, 35, 90, 165, 163, 89, 165, 90, 2, 2.7551
397, 2, bw, attraction, a-b-da, 2, 2, 4, 35, 90, 165, 163, 89, 165, 90, 1, 0.490841
397, 2, bw, attraction, a-b-db, 9, 1, 4, 36, 60, 135, 57, 129, 135, 60, 2, 0.660639
397, 2, bw, attraction, a-b-db, 9, 1, 4, 36, 60, 135, 57, 129, 135, 60, 1, 0.249051
397, 2, bw, filler, NA, 999, 999, 4, 37, 124, 141, 182, 99, 64, 168, 1, 0.988968
397, 2, bw, filler, NA, 999, 999, 4, 37, 124, 141, 182, 99, 64, 168, 2, 0.20398
397, 2, bw, attraction, a-b-da, 14, 1, 5, 1, 60, 135, 125, 56, 135, 60, 1, 2.13578
397, 2, bw, attraction, a-b-da, 14, 1, 5, 1, 60, 135, 125, 56, 135, 60, 2, 0.617017
397, 2, bw, attraction, a-b-da, 14, 3, 5, 2, 181, 111, 195, 120, 120, 195, 2, 3.71029
397, 2, bw, attraction, a-b-da, 14, 3, 5, 2, 181, 111, 195, 120, 120, 195, 1, 0.199611
397, 2, bw, attraction, a-b-da, 2, 1, 5, 3, 135, 60, 134, 59, 60, 135, 1, 0.741513
397, 2, bw, attraction, a-b-da, 2, 1, 5, 3, 135, 60, 134, 59, 60, 135, 2, 0.462675
397, 2, bw, attraction, a-b-da, 5, 3, 5, 4, 190, 117, 120, 195, 195, 120, 2, 0.505711
397, 2, bw, attraction, a-b-da, 5, 3, 5, 4, 190, 117, 120, 195, 195, 120, 1, 0.468223
397, 2, bw, attraction, a-b-db, 2, 1, 5, 5, 60, 135, 135, 60, 59, 134, 2, 0.415349
397, 2, bw, attraction, a-b-db, 2, 1, 5, 5, 60, 135, 135, 60, 59, 134, 1, 0.213877
397, 2, bw, attraction, a-b-da, 2, 2, 5, 6, 163, 89, 90, 165, 165, 90, 2, 0.619158
397, 2, bw, attraction, a-b-da, 2, 2, 5, 6, 163, 89, 90, 165, 165, 90, 1, 0.289537
397, 2, bw, attraction, a-b-db, 14, 2, 5, 7, 83, 153, 165, 90, 90, 165, 2, 0.419399
397, 2, bw, attraction, a-b-db, 14, 2, 5, 7, 83, 153, 165, 90, 90, 165, 1, 0.209873
397, 2, bw, filler, NA, 999, 999, 5, 8, 183, 58, 115, 135, 104, 100, 2, 0.81509
397, 2, bw, filler, NA, 999, 999, 5, 8, 183, 58, 115, 135, 104, 100, 3, 0.877559
397, 2, bw, filler, NA, 999, 999, 5, 9, 131, 177, 140, 61, 59, 97, 1, 0.559926
397, 2, bw, filler, NA, 999, 999, 5, 9, 131, 177, 140, 61, 59, 97, 3, 0.480371
397, 2, bw, attraction, a-b-da, 5, 1, 5, 10, 60, 135, 132, 58, 135, 60, 1, 0.642747
397, 2, bw, attraction, a-b-da, 5, 1, 5, 10, 60, 135, 132, 58, 135, 60, 2, 0.167836
397, 2, bw, attraction, a-b-db, 5, 3, 5, 11, 117, 190, 120, 195, 195, 120, 1, 0.663182
397, 2, bw, attraction, a-b-db, 5, 3, 5, 11, 117, 190, 120, 195, 195, 120, 2, 0.187501
397, 2, bw, filler, NA, 999, 999, 5, 12, 116, 68, 90, 122, 65, 175, 2, 0.882063
397, 2, bw, filler, NA, 999, 999, 5, 12, 116, 68, 90, 122, 65, 175, 1, 1.73372
397, 2, bw, attraction, a-b-db, 14, 3, 5, 13, 120, 195, 111, 181, 195, 120, 1, 0.741832
397, 2, bw, attraction, a-b-db, 14, 3, 5, 13, 120, 195, 111, 181, 195, 120, 2, 0.16684
397, 2, bw, attraction, a-b-db, 2, 2, 5, 14, 165, 90, 89, 163, 90, 165, 2, 0.510073
397, 2, bw, attraction, a-b-db, 2, 2, 5, 14, 165, 90, 89, 163, 90, 165, 1, 0.176563
397, 2, bw, attraction, a-b-da, 14, 2, 5, 15, 90, 165, 153, 83, 165, 90, 2, 0.575195
397, 2, bw, attraction, a-b-da, 14, 2, 5, 15, 90, 165, 153, 83, 165, 90, 1, 0.182969
397, 2, bw, catch, NA, 999, 999, 5, 16, 188, 127, 123, 132, 82, 113, 1, 0.693477
397, 2, bw, catch, NA, 999, 999, 5, 16, 188, 127, 123, 132, 82, 113, 3, 0.360581
397, 2, bw, filler, NA, 999, 999, 5, 17, 156, 171, 180, 93, 160, 94, 1, 1.03978
397, 2, bw, filler, NA, 999, 999, 5, 17, 156, 171, 180, 93, 160, 94, 2, 0.18869
397, 2, bw, catch, NA, 999, 999, 5, 18, 125, 130, 114, 81, 164, 151, 3, 0.85129
397, 2, bw, catch, NA, 999, 999, 5, 18, 125, 130, 114, 81, 164, 151, 2, 0.240296
397, 2, bw, filler, NA, 999, 999, 5, 19, 144, 154, 148, 168, 93, 184, 1, 0.57224
397, 2, bw, filler, NA, 999, 999, 5, 19, 144, 154, 148, 168, 93, 184, 3, 1.04401
397, 2, bw, attraction, a-b-da, 2, 3, 5, 20, 120, 195, 195, 120, 193, 119, 2, 0.69571
397, 2, bw, attraction, a-b-da, 2, 3, 5, 20, 120, 195, 195, 120, 193, 119, 1, 0.178592
397, 2, bw, attraction, a-b-da, 5, 2, 5, 21, 90, 165, 165, 90, 161, 88, 2, 0.49713
397, 2, bw, attraction, a-b-da, 5, 2, 5, 21, 90, 165, 165, 90, 161, 88, 1, 0.164336
397, 2, bw, filler, NA, 999, 999, 5, 22, 96, 57, 143, 111, 64, 73, 2, 0.883564
397, 2, bw, filler, NA, 999, 999, 5, 22, 96, 57, 143, 111, 64, 73, 3, 0.551326
397, 2, bw, attraction, a-b-da, 9, 1, 5, 23, 129, 57, 135, 60, 60, 135, 1, 0.863089
397, 2, bw, attraction, a-b-da, 9, 1, 5, 23, 129, 57, 135, 60, 60, 135, 2, 0.211415
397, 2, bw, attraction, a-b-db, 9, 2, 5, 24, 86, 157, 165, 90, 90, 165, 2, 0.456575
397, 2, bw, attraction, a-b-db, 9, 2, 5, 24, 86, 157, 165, 90, 90, 165, 1, 0.157082
397, 2, bw, filler, NA, 999, 999, 5, 25, 159, 157, 186, 153, 163, 157, 2, 0.468473
397, 2, bw, filler, NA, 999, 999, 5, 25, 159, 157, 186, 153, 163, 157, 1, 0.160795
397, 2, bw, filler, NA, 999, 999, 5, 26, 182, 93, 159, 65, 91, 108, 2, 0.640049
397, 2, bw, filler, NA, 999, 999, 5, 26, 182, 93, 159, 65, 91, 108, 1, 0.549187
397, 2, bw, catch, NA, 999, 999, 5, 27, 158, 97, 126, 69, 148, 167, 2, 0.772941
397, 2, bw, catch, NA, 999, 999, 5, 27, 158, 97, 126, 69, 148, 167, 1, 0.148683
397, 2, bw, attraction, a-b-da, 9, 3, 5, 28, 195, 120, 186, 114, 120, 195, 2, 0.53259
397, 2, bw, attraction, a-b-da, 9, 3, 5, 28, 195, 120, 186, 114, 120, 195, 1, 0.158395
397, 2, bw, attraction, a-b-db, 5, 1, 5, 29, 58, 132, 135, 60, 60, 135, 2, 0.533633
397, 2, bw, attraction, a-b-db, 5, 1, 5, 29, 58, 132, 135, 60, 60, 135, 1, 0.167404
397, 2, bw, filler, NA, 999, 999, 5, 30, 100, 106, 74, 70, 189, 195, 3, 0.958619
397, 2, bw, filler, NA, 999, 999, 5, 30, 100, 106, 74, 70, 189, 195, 2, 0.279031
397, 2, bw, attraction, a-b-da, 9, 2, 5, 31, 157, 86, 90, 165, 165, 90, 2, 1.38559
397, 2, bw, attraction, a-b-da, 9, 2, 5, 31, 157, 86, 90, 165, 165, 90, 1, 0.265046
397, 2, bw, filler, NA, 999, 999, 5, 32, 166, 176, 68, 61, 150, 102, 1, 0.796209
397, 2, bw, filler, NA, 999, 999, 5, 32, 166, 176, 68, 61, 150, 102, 2, 0.515224
397, 2, bw, attraction, a-b-db, 14, 1, 5, 33, 60, 135, 56, 125, 135, 60, 2, 0.508427
397, 2, bw, attraction, a-b-db, 14, 1, 5, 33, 60, 135, 56, 125, 135, 60, 1, 0.198911
397, 2, bw, attraction, a-b-db, 5, 2, 5, 34, 88, 161, 165, 90, 90, 165, 2, 1.60478
397, 2, bw, attraction, a-b-db, 5, 2, 5, 34, 88, 161, 165, 90, 90, 165, 1, 0.178844
397, 2, bw, attraction, a-b-db, 9, 3, 5, 35, 120, 195, 114, 186, 195, 120, 2, 0.569404
397, 2, bw, attraction, a-b-db, 9, 3, 5, 35, 120, 195, 114, 186, 195, 120, 1, 0.161843
397, 2, bw, attraction, a-b-db, 9, 1, 5, 36, 60, 135, 135, 60, 57, 129, 2, 0.617111
397, 2, bw, attraction, a-b-db, 9, 1, 5, 36, 60, 135, 135, 60, 57, 129, 1, 0.183587
397, 2, bw, attraction, a-b-db, 2, 3, 5, 37, 120, 195, 119, 193, 195, 120, 2, 0.814298
397, 2, bw, attraction, a-b-db, 2, 3, 5, 37, 120, 195, 119, 193, 195, 120, 1, 0.156446
397, 2, bw, attraction, a-b-da, 9, 2, 6, 1, 90, 165, 157, 86, 165, 90, 2, 0.571697
397, 2, bw, attraction, a-b-da, 9, 2, 6, 1, 90, 165, 157, 86, 165, 90, 1, 0.147566
397, 2, bw, filler, NA, 999, 999, 6, 2, 169, 102, 103, 133, 62, 82, 1, 1.59542
397, 2, bw, filler, NA, 999, 999, 6, 2, 169, 102, 103, 133, 62, 82, 3, 0.22621
397, 2, bw, attraction, a-b-db, 14, 1, 6, 3, 56, 125, 135, 60, 60, 135, 1, 0.662926
397, 2, bw, attraction, a-b-db, 14, 1, 6, 3, 56, 125, 135, 60, 60, 135, 2, 0.491229
397, 2, bw, filler, NA, 999, 999, 6, 4, 123, 168, 169, 95, 138, 103, 1, 1.30102
397, 2, bw, filler, NA, 999, 999, 6, 4, 123, 168, 169, 95, 138, 103, 3, 0.520015
397, 2, bw, attraction, a-b-db, 14, 2, 6, 5, 165, 90, 90, 165, 83, 153, 2, 0.60102
397, 2, bw, attraction, a-b-db, 14, 2, 6, 5, 165, 90, 90, 165, 83, 153, 1, 0.208108
397, 2, bw, attraction, a-b-db, 5, 2, 6, 6, 165, 90, 88, 161, 90, 165, 1, 1.4293
397, 2, bw, attraction, a-b-db, 5, 2, 6, 6, 165, 90, 88, 161, 90, 165, 2, 0.162838
397, 2, bw, filler, NA, 999, 999, 6, 7, 75, 89, 141, 70, 98, 116, 3, 1.52209
397, 2, bw, filler, NA, 999, 999, 6, 7, 75, 89, 141, 70, 98, 116, 1, 0.627574
397, 2, bw, attraction, a-b-db, 2, 2, 6, 8, 165, 90, 89, 163, 90, 165, 1, 0.711953
397, 2, bw, attraction, a-b-db, 2, 2, 6, 8, 165, 90, 89, 163, 90, 165, 3, 0.234407
397, 2, bw, attraction, a-b-db, 2, 3, 6, 9, 119, 193, 195, 120, 120, 195, 1, 0.631014
397, 2, bw, attraction, a-b-db, 2, 3, 6, 9, 119, 193, 195, 120, 120, 195, 3, 0.180825
397, 2, bw, filler, NA, 999, 999, 6, 10, 57, 106, 139, 105, 154, 163, 3, 0.61937
397, 2, bw, filler, NA, 999, 999, 6, 10, 57, 106, 139, 105, 154, 163, 1, 0.337908
397, 2, bw, filler, NA, 999, 999, 6, 11, 172, 96, 146, 180, 148, 157, 1, 0.60224
397, 2, bw, filler, NA, 999, 999, 6, 11, 172, 96, 146, 180, 148, 157, 3, 0.529313
397, 2, bw, attraction, a-b-db, 14, 3, 6, 12, 195, 120, 120, 195, 111, 181, 2, 1.65776
397, 2, bw, attraction, a-b-db, 14, 3, 6, 12, 195, 120, 120, 195, 111, 181, 1, 0.30992
397, 2, bw, attraction, a-b-da, 5, 3, 6, 13, 120, 195, 195, 120, 190, 117, 1, 0.599161
397, 2, bw, attraction, a-b-da, 5, 3, 6, 13, 120, 195, 195, 120, 190, 117, 2, 0.150194
397, 2, bw, attraction, a-b-da, 5, 1, 6, 14, 132, 58, 60, 135, 135, 60, 2, 0.582091
397, 2, bw, attraction, a-b-da, 5, 1, 6, 14, 132, 58, 60, 135, 135, 60, 1, 0.19008
397, 2, bw, attraction, a-b-da, 2, 2, 6, 15, 90, 165, 163, 89, 165, 90, 2, 0.427876
397, 2, bw, attraction, a-b-da, 2, 2, 6, 15, 90, 165, 163, 89, 165, 90, 1, 0.177554
397, 2, bw, attraction, a-b-da, 14, 2, 6, 16, 90, 165, 153, 83, 165, 90, 2, 0.448157
397, 2, bw, attraction, a-b-da, 14, 2, 6, 16, 90, 165, 153, 83, 165, 90, 1, 0.165321
397, 2, bw, attraction, a-b-da, 5, 2, 6, 17, 90, 165, 161, 88, 165, 90, 2, 0.452572
397, 2, bw, attraction, a-b-da, 5, 2, 6, 17, 90, 165, 161, 88, 165, 90, 1, 0.209676
397, 2, bw, filler, NA, 999, 999, 6, 18, 138, 149, 171, 186, 70, 99, 2, 1.1269
397, 2, bw, filler, NA, 999, 999, 6, 18, 138, 149, 171, 186, 70, 99, 3, 0.536688
397, 2, bw, filler, NA, 999, 999, 6, 19, 105, 60, 193, 59, 193, 87, 3, 0.60103
397, 2, bw, filler, NA, 999, 999, 6, 19, 105, 60, 193, 59, 193, 87, 2, 0.256501
397, 2, bw, catch, NA, 999, 999, 6, 20, 144, 111, 61, 134, 175, 140, 3, 0.851327
397, 2, bw, catch, NA, 999, 999, 6, 20, 144, 111, 61, 134, 175, 140, 2, 0.248348
397, 2, bw, attraction, a-b-db, 9, 1, 6, 21, 60, 135, 135, 60, 57, 129, 1, 0.788202
397, 2, bw, attraction, a-b-db, 9, 1, 6, 21, 60, 135, 135, 60, 57, 129, 2, 0.251269
397, 2, bw, attraction, a-b-db, 5, 1, 6, 22, 58, 132, 60, 135, 135, 60, 3, 0.711228
397, 2, bw, attraction, a-b-db, 5, 1, 6, 22, 58, 132, 60, 135, 135, 60, 2, 0.201549
397, 2, bw, attraction, a-b-db, 5, 3, 6, 23, 120, 195, 117, 190, 195, 120, 1, 0.503393
397, 2, bw, attraction, a-b-db, 5, 3, 6, 23, 120, 195, 117, 190, 195, 120, 2, 0.161918
397, 2, bw, attraction, a-b-da, 14, 1, 6, 24, 135, 60, 60, 135, 125, 56, 1, 0.721124
397, 2, bw, attraction, a-b-da, 14, 1, 6, 24, 135, 60, 60, 135, 125, 56, 2, 0.186942
397, 2, bw, attraction, a-b-da, 2, 3, 6, 25, 120, 195, 193, 119, 195, 120, 3, 0.673489
397, 2, bw, attraction, a-b-da, 2, 3, 6, 25, 120, 195, 193, 119, 195, 120, 2, 0.221196
397, 2, bw, catch, NA, 999, 999, 6, 26, 120, 75, 93, 162, 123, 192, 3, 0.88239
397, 2, bw, catch, NA, 999, 999, 6, 26, 120, 75, 93, 162, 123, 192, 1, 0.614054
397, 2, bw, attraction, a-b-db, 9, 2, 6, 27, 165, 90, 90, 165, 86, 157, 1, 1.20314
397, 2, bw, attraction, a-b-db, 9, 2, 6, 27, 165, 90, 90, 165, 86, 157, 2, 0.218085
397, 2, bw, filler, NA, 999, 999, 6, 28, 130, 120, 159, 138, 118, 111, 2, 0.863301
397, 2, bw, filler, NA, 999, 999, 6, 28, 130, 120, 159, 138, 118, 111, 3, 0.499861
397, 2, bw, attraction, a-b-da, 14, 3, 6, 29, 195, 120, 181, 111, 120, 195, 1, 1.96542
397, 2, bw, attraction, a-b-da, 14, 3, 6, 29, 195, 120, 181, 111, 120, 195, 2, 0.205473
397, 2, bw, attraction, a-b-da, 9, 3, 6, 30, 120, 195, 186, 114, 195, 120, 1, 0.811486
397, 2, bw, attraction, a-b-da, 9, 3, 6, 30, 120, 195, 186, 114, 195, 120, 2, 0.265862
397, 2, bw, filler, NA, 999, 999, 6, 31, 168, 137, 122, 106, 114, 68, 1, 0.64494
397, 2, bw, filler, NA, 999, 999, 6, 31, 168, 137, 122, 106, 114, 68, 3, 0.386159
397, 2, bw, filler, NA, 999, 999, 6, 32, 93, 152, 110, 114, 103, 66, 1, 2.72057
397, 2, bw, filler, NA, 999, 999, 6, 32, 93, 152, 110, 114, 103, 66, 3, 0.658352
397, 2, bw, catch, NA, 999, 999, 6, 33, 97, 158, 60, 135, 128, 187, 3, 1.37339
397, 2, bw, catch, NA, 999, 999, 6, 33, 97, 158, 60, 135, 128, 187, 2, 0.325076
397, 2, bw, attraction, a-b-db, 9, 3, 6, 34, 114, 186, 120, 195, 195, 120, 2, 0.9576
397, 2, bw, attraction, a-b-db, 9, 3, 6, 34, 114, 186, 120, 195, 195, 120, 3, 0.165838
397, 2, bw, attraction, a-b-da, 9, 1, 6, 35, 60, 135, 129, 57, 135, 60, 1, 0.60507
397, 2, bw, attraction, a-b-da, 9, 1, 6, 35, 60, 135, 129, 57, 135, 60, 2, 0.155559
397, 2, bw, attraction, a-b-da, 2, 1, 6, 36, 60, 135, 134, 59, 135, 60, 1, 0.499378
397, 2, bw, attraction, a-b-da, 2, 1, 6, 36, 60, 135, 134, 59, 135, 60, 2, 0.0967188
397, 2, bw, attraction, a-b-db, 2, 1, 6, 37, 60, 135, 59, 134, 135, 60, 1, 0.560435
397, 2, bw, attraction, a-b-db, 2, 1, 6, 37, 60, 135, 59, 134, 135, 60, 2, 0.200952
397, 2, bw, attraction, a-b-da, 2, 3, 7, 1, 120, 195, 195, 120, 193, 119, 1, 0.566754
397, 2, bw, attraction, a-b-da, 2, 3, 7, 1, 120, 195, 195, 120, 193, 119, 2, 0.127176
397, 2, bw, filler, NA, 999, 999, 7, 2, 192, 162, 132, 62, 129, 122, 1, 0.775825
397, 2, bw, filler, NA, 999, 999, 7, 2, 192, 162, 132, 62, 129, 122, 2, 0.167525
397, 2, bw, filler, NA, 999, 999, 7, 3, 116, 105, 136, 188, 140, 131, 2, 0.774737
397, 2, bw, filler, NA, 999, 999, 7, 3, 116, 105, 136, 188, 140, 131, 1, 0.166459
397, 2, bw, filler, NA, 999, 999, 7, 4, 77, 179, 125, 143, 164, 146, 3, 0.84569
397, 2, bw, filler, NA, 999, 999, 7, 4, 77, 179, 125, 143, 164, 146, 1, 0.298709
397, 2, bw, attraction, a-b-da, 14, 2, 7, 5, 90, 165, 165, 90, 153, 83, 1, 0.972748
397, 2, bw, attraction, a-b-da, 14, 2, 7, 5, 90, 165, 165, 90, 153, 83, 2, 0.276434
397, 2, bw, attraction, a-b-db, 5, 2, 7, 6, 90, 165, 165, 90, 88, 161, 1, 0.542763
397, 2, bw, attraction, a-b-db, 5, 2, 7, 6, 90, 165, 165, 90, 88, 161, 2, 0.351923
397, 2, bw, attraction, a-b-da, 5, 1, 7, 7, 60, 135, 135, 60, 132, 58, 2, 0.855769
397, 2, bw, attraction, a-b-da, 5, 1, 7, 7, 60, 135, 135, 60, 132, 58, 3, 0.172109
397, 2, bw, catch, NA, 999, 999, 7, 8, 118, 77, 146, 169, 106, 149, 2, 0.699374
397, 2, bw, catch, NA, 999, 999, 7, 8, 118, 77, 146, 169, 106, 149, 1, 0.166406
397, 2, bw, filler, NA, 999, 999, 7, 9, 111, 67, 140, 114, 78, 104, 2, 0.733791
397, 2, bw, filler, NA, 999, 999, 7, 9, 111, 67, 140, 114, 78, 104, 3, 0.663312
397, 2, bw, attraction, a-b-db, 9, 3, 7, 10, 114, 186, 195, 120, 120, 195, 2, 0.538464
397, 2, bw, attraction, a-b-db, 9, 3, 7, 10, 114, 186, 195, 120, 120, 195, 1, 0.139652
397, 2, bw, attraction, a-b-da, 14, 3, 7, 11, 120, 195, 181, 111, 195, 120, 2, 0.459522
397, 2, bw, attraction, a-b-da, 14, 3, 7, 11, 120, 195, 181, 111, 195, 120, 1, 0.119998
397, 2, bw, attraction, a-b-da, 9, 2, 7, 12, 165, 90, 90, 165, 157, 86, 2, 0.489219
397, 2, bw, attraction, a-b-da, 9, 2, 7, 12, 165, 90, 90, 165, 157, 86, 1, 0.108357
397, 2, bw, attraction, a-b-da, 5, 2, 7, 13, 161, 88, 90, 165, 165, 90, 2, 0.389617
397, 2, bw, attraction, a-b-da, 5, 2, 7, 13, 161, 88, 90, 165, 165, 90, 1, 0.0936949
397, 2, bw, filler, NA, 999, 999, 7, 14, 122, 104, 67, 149, 127, 117, 2, 0.982734
397, 2, bw, filler, NA, 999, 999, 7, 14, 122, 104, 67, 149, 127, 117, 3, 1.39841
397, 2, bw, filler, NA, 999, 999, 7, 15, 91, 174, 189, 144, 127, 192, 2, 9.14786
397, 2, bw, filler, NA, 999, 999, 7, 15, 91, 174, 189, 144, 127, 192, 1, 0.162312
397, 2, bw, attraction, a-b-db, 2, 2, 7, 16, 89, 163, 90, 165, 165, 90, 2, 0.777534
397, 2, bw, attraction, a-b-db, 2, 2, 7, 16, 89, 163, 90, 165, 165, 90, 1, 0.129234
397, 2, bw, catch, NA, 999, 999, 7, 17, 127, 128, 184, 131, 133, 62, 2, 0.761999
397, 2, bw, catch, NA, 999, 999, 7, 17, 127, 128, 184, 131, 133, 62, 3, 0.28238
397, 2, bw, catch, NA, 999, 999, 7, 18, 147, 108, 191, 124, 110, 85, 2, 0.892745
397, 2, bw, catch, NA, 999, 999, 7, 18, 147, 108, 191, 124, 110, 85, 3, 0.559883
397, 2, bw, attraction, a-b-da, 9, 1, 7, 19, 129, 57, 60, 135, 135, 60, 2, 1.37506
397, 2, bw, attraction, a-b-da, 9, 1, 7, 19, 129, 57, 60, 135, 135, 60, 1, 0.350407
397, 2, bw, attraction, a-b-da, 9, 3, 7, 20, 195, 120, 186, 114, 120, 195, 2, 1.10226
397, 2, bw, attraction, a-b-da, 9, 3, 7, 20, 195, 120, 186, 114, 120, 195, 1, 0.185209
397, 2, bw, attraction, a-b-da, 5, 3, 7, 21, 190, 117, 120, 195, 195, 120, 2, 0.391751
397, 2, bw, attraction, a-b-da, 5, 3, 7, 21, 190, 117, 120, 195, 195, 120, 1, 0.135041
397, 2, bw, filler, NA, 999, 999, 7, 22, 68, 65, 193, 134, 116, 107, 2, 0.687501
397, 2, bw, filler, NA, 999, 999, 7, 22, 68, 65, 193, 134, 116, 107, 1, 0.162577
397, 2, bw, attraction, a-b-db, 5, 1, 7, 23, 135, 60, 58, 132, 60, 135, 2, 0.56194
397, 2, bw, attraction, a-b-db, 5, 1, 7, 23, 135, 60, 58, 132, 60, 135, 1, 0.170247
397, 2, bw, filler, NA, 999, 999, 7, 24, 177, 135, 187, 144, 109, 126, 2, 0.809618
397, 2, bw, filler, NA, 999, 999, 7, 24, 177, 135, 187, 144, 109, 126, 3, 0.223901
397, 2, bw, attraction, a-b-da, 2, 2, 7, 25, 165, 90, 163, 89, 90, 165, 2, 0.468437
397, 2, bw, attraction, a-b-da, 2, 2, 7, 25, 165, 90, 163, 89, 90, 165, 1, 0.200955
397, 2, bw, filler, NA, 999, 999, 7, 26, 82, 130, 153, 135, 170, 167, 2, 0.654827
397, 2, bw, filler, NA, 999, 999, 7, 26, 82, 130, 153, 135, 170, 167, 1, 0.195221
397, 2, bw, attraction, a-b-db, 14, 1, 7, 27, 56, 125, 60, 135, 135, 60, 2, 0.721192
397, 2, bw, attraction, a-b-db, 14, 1, 7, 27, 56, 125, 60, 135, 135, 60, 1, 0.586962
397, 2, bw, attraction, a-b-da, 14, 1, 7, 28, 60, 135, 125, 56, 135, 60, 2, 0.481348
397, 2, bw, attraction, a-b-da, 14, 1, 7, 28, 60, 135, 125, 56, 135, 60, 1, 0.901155
397, 2, bw, attraction, a-b-db, 14, 2, 7, 29, 90, 165, 83, 153, 165, 90, 2, 0.398837
397, 2, bw, attraction, a-b-db, 14, 2, 7, 29, 90, 165, 83, 153, 165, 90, 1, 0.174052
397, 2, bw, attraction, a-b-db, 5, 3, 7, 30, 117, 190, 195, 120, 120, 195, 2, 0.436513
397, 2, bw, attraction, a-b-db, 5, 3, 7, 30, 117, 190, 195, 120, 120, 195, 1, 0.154414
397, 2, bw, attraction, a-b-da, 2, 1, 7, 31, 134, 59, 135, 60, 60, 135, 2, 0.354286
397, 2, bw, attraction, a-b-da, 2, 1, 7, 31, 134, 59, 135, 60, 60, 135, 1, 0.386929
397, 2, bw, attraction, a-b-db, 2, 1, 7, 32, 60, 135, 135, 60, 59, 134, 2, 0.673337
397, 2, bw, attraction, a-b-db, 2, 1, 7, 32, 60, 135, 135, 60, 59, 134, 1, 0.557203
397, 2, bw, attraction, a-b-db, 9, 2, 7, 33, 86, 157, 90, 165, 165, 90, 2, 0.420218
397, 2, bw, attraction, a-b-db, 9, 2, 7, 33, 86, 157, 90, 165, 165, 90, 1, 0.170711
397, 2, bw, attraction, a-b-db, 2, 3, 7, 34, 120, 195, 195, 120, 119, 193, 2, 0.385836
397, 2, bw, attraction, a-b-db, 2, 3, 7, 34, 120, 195, 195, 120, 119, 193, 1, 0.153835
397, 2, bw, attraction, a-b-db, 9, 1, 7, 35, 135, 60, 57, 129, 60, 135, 2, 0.68162
397, 2, bw, attraction, a-b-db, 9, 1, 7, 35, 135, 60, 57, 129, 60, 135, 1, 0.237421
397, 2, bw, attraction, a-b-db, 14, 3, 7, 36, 120, 195, 111, 181, 195, 120, 2, 0.393879
397, 2, bw, attraction, a-b-db, 14, 3, 7, 36, 120, 195, 111, 181, 195, 120, 1, 0.169087
397, 2, bw, filler, NA, 999, 999, 7, 37, 106, 100, 102, 146, 176, 105, 2, 0.424302
397, 2, bw, filler, NA, 999, 999, 7, 37, 106, 100, 102, 146, 176, 105, 1, 0.422144
397, 2, bw, filler, NA, 999, 999, 8, 1, 143, 101, 119, 194, 134, 184, 2, 0.379331
397, 2, bw, filler, NA, 999, 999, 8, 1, 143, 101, 119, 194, 134, 184, 1, 0.17911
397, 2, bw, attraction, a-b-db, 14, 2, 8, 2, 90, 165, 165, 90, 83, 153, 2, 0.473649
397, 2, bw, attraction, a-b-db, 14, 2, 8, 2, 90, 165, 165, 90, 83, 153, 1, 0.173535
397, 2, bw, catch, NA, 999, 999, 8, 3, 66, 129, 129, 186, 153, 102, 2, 0.316099
397, 2, bw, catch, NA, 999, 999, 8, 3, 66, 129, 129, 186, 153, 102, 1, 0.198646
397, 2, bw, attraction, a-b-db, 5, 2, 8, 4, 88, 161, 165, 90, 90, 165, 2, 0.396636
397, 2, bw, attraction, a-b-db, 5, 2, 8, 4, 88, 161, 165, 90, 90, 165, 1, 0.115848
397, 2, bw, attraction, a-b-db, 5, 3, 8, 5, 195, 120, 120, 195, 117, 190, 2, 0.933005
397, 2, bw, attraction, a-b-db, 5, 3, 8, 5, 195, 120, 120, 195, 117, 190, 1, 0.206637
397, 2, bw, catch, NA, 999, 999, 8, 6, 108, 87, 193, 122, 109, 146, 2, 1.36388
397, 2, bw, catch, NA, 999, 999, 8, 6, 108, 87, 193, 122, 109, 146, 1, 0.591259
397, 2, bw, catch, NA, 999, 999, 8, 7, 94, 161, 158, 157, 116, 79, 2, 1.03373
397, 2, bw, catch, NA, 999, 999, 8, 7, 94, 161, 158, 157, 116, 79, 3, 0.291128
397, 2, bw, attraction, a-b-db, 2, 1, 8, 8, 135, 60, 59, 134, 60, 135, 2, 0.457245
397, 2, bw, attraction, a-b-db, 2, 1, 8, 8, 135, 60, 59, 134, 60, 135, 1, 0.240764
397, 2, bw, attraction, a-b-db, 14, 1, 8, 9, 56, 125, 60, 135, 135, 60, 2, 0.401757
397, 2, bw, attraction, a-b-db, 14, 1, 8, 9, 56, 125, 60, 135, 135, 60, 3, 0.208913
397, 2, bw, attraction, a-b-da, 2, 2, 8, 10, 90, 165, 165, 90, 163, 89, 2, 0.56612
397, 2, bw, attraction, a-b-da, 2, 2, 8, 10, 90, 165, 165, 90, 163, 89, 3, 0.262625
397, 2, bw, filler, NA, 999, 999, 8, 11, 178, 100, 62, 76, 159, 122, 3, 0.753693
397, 2, bw, filler, NA, 999, 999, 8, 11, 178, 100, 62, 76, 159, 122, 2, 0.194055
397, 2, bw, filler, NA, 999, 999, 8, 12, 121, 106, 120, 145, 98, 114, 2, 1.06405
397, 2, bw, filler, NA, 999, 999, 8, 12, 121, 106, 120, 145, 98, 114, 3, 0.268272
397, 2, bw, attraction, a-b-da, 14, 2, 8, 13, 153, 83, 90, 165, 165, 90, 2, 0.991638
397, 2, bw, attraction, a-b-da, 14, 2, 8, 13, 153, 83, 90, 165, 165, 90, 1, 0.45461
397, 2, bw, filler, NA, 999, 999, 8, 14, 139, 110, 94, 110, 78, 84, 1, 0.834382
397, 2, bw, filler, NA, 999, 999, 8, 14, 139, 110, 94, 110, 78, 84, 3, 0.296015
397, 2, bw, filler, NA, 999, 999, 8, 15, 134, 73, 109, 139, 141, 158, 3, 0.777826
397, 2, bw, filler, NA, 999, 999, 8, 15, 134, 73, 109, 139, 141, 158, 1, 0.225552
397, 2, bw, attraction, a-b-da, 14, 1, 8, 16, 125, 56, 60, 135, 135, 60, 2, 0.58216
397, 2, bw, attraction, a-b-da, 14, 1, 8, 16, 125, 56, 60, 135, 135, 60, 1, 0.502045
397, 2, bw, filler, NA, 999, 999, 8, 17, 181, 195, 175, 83, 132, 89, 1, 0.527672
397, 2, bw, filler, NA, 999, 999, 8, 17, 181, 195, 175, 83, 132, 89, 2, 0.177549
397, 2, bw, filler, NA, 999, 999, 8, 18, 155, 145, 96, 123, 91, 63, 1, 0.816048
397, 2, bw, filler, NA, 999, 999, 8, 18, 155, 145, 96, 123, 91, 63, 3, 0.454499
397, 2, bw, attraction, a-b-db, 9, 1, 8, 19, 135, 60, 60, 135, 57, 129, 2, 0.642249
397, 2, bw, attraction, a-b-db, 9, 1, 8, 19, 135, 60, 60, 135, 57, 129, 1, 0.495342
397, 2, bw, attraction, a-b-db, 5, 1, 8, 20, 135, 60, 58, 132, 60, 135, 1, 0.617285
397, 2, bw, attraction, a-b-db, 5, 1, 8, 20, 135, 60, 58, 132, 60, 135, 2, 0.215587
397, 2, bw, attraction, a-b-db, 14, 3, 8, 21, 111, 181, 195, 120, 120, 195, 1, 0.492816
397, 2, bw, attraction, a-b-db, 14, 3, 8, 21, 111, 181, 195, 120, 120, 195, 2, 0.167979
397, 2, bw, attraction, a-b-db, 2, 2, 8, 22, 165, 90, 89, 163, 90, 165, 2, 0.527231
397, 2, bw, attraction, a-b-db, 2, 2, 8, 22, 165, 90, 89, 163, 90, 165, 1, 0.20113
397, 2, bw, attraction, a-b-da, 5, 3, 8, 23, 195, 120, 120, 195, 190, 117, 2, 0.366876
397, 2, bw, attraction, a-b-da, 5, 3, 8, 23, 195, 120, 120, 195, 190, 117, 1, 0.199384
397, 2, bw, filler, NA, 999, 999, 8, 24, 127, 143, 179, 133, 122, 93, 2, 0.381635
397, 2, bw, filler, NA, 999, 999, 8, 24, 127, 143, 179, 133, 122, 93, 3, 0.565161
397, 2, bw, attraction, a-b-da, 9, 3, 8, 25, 195, 120, 186, 114, 120, 195, 3, 0.780288
397, 2, bw, attraction, a-b-da, 9, 3, 8, 25, 195, 120, 186, 114, 120, 195, 2, 0.25997
397, 2, bw, attraction, a-b-da, 9, 2, 8, 26, 165, 90, 157, 86, 90, 165, 3, 0.439136
397, 2, bw, attraction, a-b-da, 9, 2, 8, 26, 165, 90, 157, 86, 90, 165, 2, 0.188305
397, 2, bw, attraction, a-b-db, 9, 3, 8, 27, 195, 120, 114, 186, 120, 195, 2, 0.442829
397, 2, bw, attraction, a-b-db, 9, 3, 8, 27, 195, 120, 114, 186, 120, 195, 3, 0.504027
397, 2, bw, attraction, a-b-da, 5, 1, 8, 28, 135, 60, 132, 58, 60, 135, 2, 0.545776
397, 2, bw, attraction, a-b-da, 5, 1, 8, 28, 135, 60, 132, 58, 60, 135, 1, 0.171015
397, 2, bw, attraction, a-b-da, 14, 3, 8, 29, 181, 111, 195, 120, 120, 195, 2, 0.370326
397, 2, bw, attraction, a-b-da, 14, 3, 8, 29, 181, 111, 195, 120, 120, 195, 3, 0.178678
397, 2, bw, filler, NA, 999, 999, 8, 30, 144, 97, 188, 162, 74, 95, 2, 0.441234
397, 2, bw, filler, NA, 999, 999, 8, 30, 144, 97, 188, 162, 74, 95, 3, 0.332317
397, 2, bw, filler, NA, 999, 999, 8, 31, 134, 106, 189, 114, 161, 120, 2, 0.454911
397, 2, bw, filler, NA, 999, 999, 8, 31, 134, 106, 189, 114, 161, 120, 1, 0.323431
397, 2, bw, attraction, a-b-da, 2, 1, 8, 32, 135, 60, 134, 59, 60, 135, 1, 0.795967
397, 2, bw, attraction, a-b-da, 2, 1, 8, 32, 135, 60, 134, 59, 60, 135, 2, 0.243106
397, 2, bw, attraction, a-b-da, 5, 2, 8, 33, 165, 90, 90, 165, 161, 88, 2, 0.462833
397, 2, bw, attraction, a-b-da, 5, 2, 8, 33, 165, 90, 90, 165, 161, 88, 1, 0.21138
397, 2, bw, attraction, a-b-da, 2, 3, 8, 34, 193, 119, 195, 120, 120, 195, 2, 0.537711
397, 2, bw, attraction, a-b-da, 2, 3, 8, 34, 193, 119, 195, 120, 120, 195, 1, 0.225735
397, 2, bw, attraction, a-b-db, 9, 2, 8, 35, 86, 157, 90, 165, 165, 90, 2, 0.27823
397, 2, bw, attraction, a-b-db, 9, 2, 8, 35, 86, 157, 90, 165, 165, 90, 1, 0.38608
397, 2, bw, attraction, a-b-da, 9, 1, 8, 36, 135, 60, 129, 57, 60, 135, 2, 0.384564
397, 2, bw, attraction, a-b-da, 9, 1, 8, 36, 135, 60, 129, 57, 60, 135, 1, 0.760402
397, 2, bw, attraction, a-b-db, 2, 3, 8, 37, 195, 120, 119, 193, 120, 195, 2, 0.543439
397, 2, bw, attraction, a-b-db, 2, 3, 8, 37, 195, 120, 119, 193, 120, 195, 1, 0.256631
