sub_n, computer_n, bw_cond, effect, set, distance, diag, block_n, trial_n, h1, w1, h2, w2, h3, w3, choice, rt 
393, 2, bw, practice, NA, 999, 999, 0, 1, 159, 172, 130, 150, 139, 61, 1, 2.62744
393, 2, bw, practice, NA, 999, 999, 0, 1, 159, 172, 130, 150, 139, 61, 3, 3.02492
393, 2, bw, practice, NA, 999, 999, 0, 2, 156, 161, 192, 154, 160, 183, 2, 2.72916
393, 2, bw, practice, NA, 999, 999, 0, 2, 156, 161, 192, 154, 160, 183, 1, 0.851227
393, 2, bw, practice, NA, 999, 999, 0, 3, 63, 109, 183, 152, 57, 59, 2, 2.028
393, 2, bw, practice, NA, 999, 999, 0, 3, 63, 109, 183, 152, 57, 59, 3, 1.5199
393, 2, bw, filler, NA, 999, 999, 1, 1, 86, 115, 118, 168, 84, 183, 2, 9.28826
393, 2, bw, filler, NA, 999, 999, 1, 1, 86, 115, 118, 168, 84, 183, 1, 0.817201
393, 2, bw, attraction, a-b-db, 2, 2, 1, 2, 89, 163, 165, 90, 90, 165, 3, 5.95021
393, 2, bw, attraction, a-b-db, 2, 2, 1, 2, 89, 163, 165, 90, 90, 165, 2, 1.22165
393, 2, bw, attraction, a-b-db, 9, 2, 1, 3, 165, 90, 86, 157, 90, 165, 3, 8.26651
393, 2, bw, attraction, a-b-db, 9, 2, 1, 3, 165, 90, 86, 157, 90, 165, 2, 1.47661
393, 2, bw, attraction, a-b-db, 2, 1, 1, 4, 60, 135, 135, 60, 59, 134, 2, 6.77467
393, 2, bw, attraction, a-b-db, 2, 1, 1, 4, 60, 135, 135, 60, 59, 134, 1, 0.748559
393, 2, bw, attraction, a-b-da, 9, 2, 1, 5, 90, 165, 165, 90, 157, 86, 1, 4.48428
393, 2, bw, attraction, a-b-da, 9, 2, 1, 5, 90, 165, 165, 90, 157, 86, 2, 1.20699
393, 2, bw, filler, NA, 999, 999, 1, 6, 88, 131, 100, 126, 128, 110, 3, 3.0518
393, 2, bw, filler, NA, 999, 999, 1, 6, 88, 131, 100, 126, 128, 110, 2, 0.63206
393, 2, bw, attraction, a-b-db, 9, 3, 1, 7, 195, 120, 120, 195, 114, 186, 1, 4.53259
393, 2, bw, attraction, a-b-db, 9, 3, 1, 7, 195, 120, 120, 195, 114, 186, 3, 0.581037
393, 2, bw, attraction, a-b-da, 14, 3, 1, 8, 120, 195, 181, 111, 195, 120, 1, 3.77954
393, 2, bw, attraction, a-b-da, 14, 3, 1, 8, 120, 195, 181, 111, 195, 120, 2, 0.890334
393, 2, bw, attraction, a-b-da, 5, 3, 1, 9, 195, 120, 120, 195, 190, 117, 2, 2.29197
393, 2, bw, attraction, a-b-da, 5, 3, 1, 9, 195, 120, 120, 195, 190, 117, 3, 0.438665
393, 2, bw, filler, NA, 999, 999, 1, 10, 124, 131, 133, 125, 157, 106, 3, 25.067
393, 2, bw, filler, NA, 999, 999, 1, 10, 124, 131, 133, 125, 157, 106, 2, 0.807767
393, 2, bw, filler, NA, 999, 999, 1, 11, 123, 183, 141, 105, 140, 100, 1, 1.20474
393, 2, bw, filler, NA, 999, 999, 1, 11, 123, 183, 141, 105, 140, 100, 3, 0.987071
393, 2, bw, catch, NA, 999, 999, 1, 12, 68, 127, 179, 136, 97, 158, 2, 1.12158
393, 2, bw, catch, NA, 999, 999, 1, 12, 68, 127, 179, 136, 97, 158, 1, 0.363045
393, 2, bw, attraction, a-b-da, 2, 3, 1, 13, 120, 195, 193, 119, 195, 120, 1, 1.56218
393, 2, bw, attraction, a-b-da, 2, 3, 1, 13, 120, 195, 193, 119, 195, 120, 3, 0.514448
393, 2, bw, filler, NA, 999, 999, 1, 14, 58, 90, 59, 69, 151, 150, 3, 0.907438
393, 2, bw, filler, NA, 999, 999, 1, 14, 58, 90, 59, 69, 151, 150, 2, 1.09379
393, 2, bw, filler, NA, 999, 999, 1, 15, 71, 167, 93, 127, 128, 149, 3, 1.31946
393, 2, bw, filler, NA, 999, 999, 1, 15, 71, 167, 93, 127, 128, 149, 2, 0.40963
393, 2, bw, attraction, a-b-db, 5, 2, 1, 16, 165, 90, 88, 161, 90, 165, 3, 3.71082
393, 2, bw, attraction, a-b-db, 5, 2, 1, 16, 165, 90, 88, 161, 90, 165, 2, 0.47219
393, 2, bw, attraction, a-b-db, 14, 1, 1, 17, 56, 125, 60, 135, 135, 60, 2, 1.66731
393, 2, bw, attraction, a-b-db, 14, 1, 1, 17, 56, 125, 60, 135, 135, 60, 1, 0.43151
393, 2, bw, attraction, a-b-db, 14, 3, 1, 18, 111, 181, 120, 195, 195, 120, 2, 10.0042
393, 2, bw, attraction, a-b-db, 14, 3, 1, 18, 111, 181, 120, 195, 195, 120, 1, 0.432297
393, 2, bw, attraction, a-b-da, 5, 2, 1, 19, 90, 165, 165, 90, 161, 88, 1, 3.80462
393, 2, bw, attraction, a-b-da, 5, 2, 1, 19, 90, 165, 165, 90, 161, 88, 3, 0.650106
393, 2, bw, filler, NA, 999, 999, 1, 20, 74, 189, 114, 82, 155, 159, 3, 1.90987
393, 2, bw, filler, NA, 999, 999, 1, 20, 74, 189, 114, 82, 155, 159, 2, 0.775858
393, 2, bw, catch, NA, 999, 999, 1, 21, 165, 150, 125, 70, 100, 155, 1, 1.00618
393, 2, bw, catch, NA, 999, 999, 1, 21, 165, 150, 125, 70, 100, 155, 2, 0.708542
393, 2, bw, attraction, a-b-da, 2, 1, 1, 22, 134, 59, 135, 60, 60, 135, 2, 3.73358
393, 2, bw, attraction, a-b-da, 2, 1, 1, 22, 134, 59, 135, 60, 60, 135, 3, 0.702355
393, 2, bw, attraction, a-b-da, 14, 2, 1, 23, 153, 83, 90, 165, 165, 90, 2, 1.90416
393, 2, bw, attraction, a-b-da, 14, 2, 1, 23, 153, 83, 90, 165, 165, 90, 1, 1.28212
393, 2, bw, filler, NA, 999, 999, 1, 24, 190, 122, 99, 61, 190, 190, 3, 2.96438
393, 2, bw, filler, NA, 999, 999, 1, 24, 190, 122, 99, 61, 190, 190, 2, 0.428037
393, 2, bw, attraction, a-b-da, 9, 3, 1, 25, 186, 114, 120, 195, 195, 120, 3, 5.44061
393, 2, bw, attraction, a-b-da, 9, 3, 1, 25, 186, 114, 120, 195, 195, 120, 1, 0.46008
393, 2, bw, filler, NA, 999, 999, 1, 26, 68, 172, 168, 181, 68, 186, 2, 1.0553
393, 2, bw, filler, NA, 999, 999, 1, 26, 68, 172, 168, 181, 68, 186, 1, 0.547684
393, 2, bw, filler, NA, 999, 999, 1, 27, 136, 70, 135, 106, 176, 66, 2, 15.1314
393, 2, bw, filler, NA, 999, 999, 1, 27, 136, 70, 135, 106, 176, 66, 1, 0.400631
393, 2, bw, attraction, a-b-db, 5, 1, 1, 28, 60, 135, 135, 60, 58, 132, 1, 9.98245
393, 2, bw, attraction, a-b-db, 5, 1, 1, 28, 60, 135, 135, 60, 58, 132, 3, 1.49928
393, 2, bw, attraction, a-b-da, 14, 1, 1, 29, 135, 60, 125, 56, 60, 135, 1, 0.940724
393, 2, bw, attraction, a-b-da, 14, 1, 1, 29, 135, 60, 125, 56, 60, 135, 2, 0.733828
393, 2, bw, attraction, a-b-da, 9, 1, 1, 30, 135, 60, 129, 57, 60, 135, 1, 3.32631
393, 2, bw, attraction, a-b-da, 9, 1, 1, 30, 135, 60, 129, 57, 60, 135, 2, 0.479062
393, 2, bw, attraction, a-b-db, 9, 1, 1, 31, 135, 60, 60, 135, 57, 129, 2, 4.84153
393, 2, bw, attraction, a-b-db, 9, 1, 1, 31, 135, 60, 60, 135, 57, 129, 3, 0.293331
393, 2, bw, attraction, a-b-da, 5, 1, 1, 32, 132, 58, 60, 135, 135, 60, 2, 1.59926
393, 2, bw, attraction, a-b-da, 5, 1, 1, 32, 132, 58, 60, 135, 135, 60, 1, 0.686077
393, 2, bw, attraction, a-b-db, 14, 2, 1, 33, 90, 165, 83, 153, 165, 90, 1, 9.18437
393, 2, bw, attraction, a-b-db, 14, 2, 1, 33, 90, 165, 83, 153, 165, 90, 2, 0.597424
393, 2, bw, catch, NA, 999, 999, 1, 34, 155, 160, 127, 128, 69, 126, 1, 1.65923
393, 2, bw, catch, NA, 999, 999, 1, 34, 155, 160, 127, 128, 69, 126, 3, 0.783323
393, 2, bw, attraction, a-b-db, 2, 3, 1, 35, 120, 195, 195, 120, 119, 193, 2, 4.3658
393, 2, bw, attraction, a-b-db, 2, 3, 1, 35, 120, 195, 195, 120, 119, 193, 3, 0.780969
393, 2, bw, attraction, a-b-db, 5, 3, 1, 36, 117, 190, 195, 120, 120, 195, 3, 6.49939
393, 2, bw, attraction, a-b-db, 5, 3, 1, 36, 117, 190, 195, 120, 120, 195, 1, 0.564641
393, 2, bw, attraction, a-b-da, 2, 2, 1, 37, 90, 165, 163, 89, 165, 90, 2, 3.47576
393, 2, bw, attraction, a-b-da, 2, 2, 1, 37, 90, 165, 163, 89, 165, 90, 1, 0.60661
393, 2, bw, attraction, a-b-db, 9, 1, 2, 1, 135, 60, 60, 135, 57, 129, 2, 4.35566
393, 2, bw, attraction, a-b-db, 9, 1, 2, 1, 135, 60, 60, 135, 57, 129, 3, 0.370996
393, 2, bw, attraction, a-b-db, 14, 1, 2, 2, 60, 135, 56, 125, 135, 60, 3, 5.21816
393, 2, bw, attraction, a-b-db, 14, 1, 2, 2, 60, 135, 56, 125, 135, 60, 2, 0.431138
393, 2, bw, attraction, a-b-db, 14, 3, 2, 3, 111, 181, 120, 195, 195, 120, 3, 3.7716
393, 2, bw, attraction, a-b-db, 14, 3, 2, 3, 111, 181, 120, 195, 195, 120, 1, 0.426427
393, 2, bw, attraction, a-b-da, 14, 1, 2, 4, 125, 56, 60, 135, 135, 60, 3, 5.31098
393, 2, bw, attraction, a-b-da, 14, 1, 2, 4, 125, 56, 60, 135, 135, 60, 1, 0.559838
393, 2, bw, filler, NA, 999, 999, 2, 5, 149, 57, 138, 127, 61, 138, 2, 0.775091
393, 2, bw, filler, NA, 999, 999, 2, 5, 149, 57, 138, 127, 61, 138, 3, 0.446838
393, 2, bw, catch, NA, 999, 999, 2, 6, 145, 170, 98, 97, 111, 144, 1, 1.06651
393, 2, bw, catch, NA, 999, 999, 2, 6, 145, 170, 98, 97, 111, 144, 2, 0.590834
393, 2, bw, attraction, a-b-db, 14, 2, 2, 7, 83, 153, 90, 165, 165, 90, 3, 4.54061
393, 2, bw, attraction, a-b-db, 14, 2, 2, 7, 83, 153, 90, 165, 165, 90, 1, 0.340459
393, 2, bw, attraction, a-b-da, 14, 3, 2, 8, 181, 111, 195, 120, 120, 195, 2, 1.38831
393, 2, bw, attraction, a-b-da, 14, 3, 2, 8, 181, 111, 195, 120, 120, 195, 3, 0.403133
393, 2, bw, attraction, a-b-da, 5, 1, 2, 9, 132, 58, 60, 135, 135, 60, 3, 1.64902
393, 2, bw, attraction, a-b-da, 5, 1, 2, 9, 132, 58, 60, 135, 135, 60, 2, 1.10981
393, 2, bw, filler, NA, 999, 999, 2, 10, 124, 86, 131, 119, 136, 92, 2, 0.934677
393, 2, bw, filler, NA, 999, 999, 2, 10, 124, 86, 131, 119, 136, 92, 1, 1.08849
393, 2, bw, filler, NA, 999, 999, 2, 11, 136, 121, 73, 73, 116, 112, 1, 1.2427
393, 2, bw, filler, NA, 999, 999, 2, 11, 136, 121, 73, 73, 116, 112, 2, 0.391578
393, 2, bw, attraction, a-b-da, 9, 3, 2, 12, 120, 195, 195, 120, 186, 114, 2, 0.949304
393, 2, bw, attraction, a-b-da, 9, 3, 2, 12, 120, 195, 195, 120, 186, 114, 3, 1.00645
393, 2, bw, attraction, a-b-da, 2, 3, 2, 13, 193, 119, 120, 195, 195, 120, 2, 16.4754
393, 2, bw, attraction, a-b-da, 2, 3, 2, 13, 193, 119, 120, 195, 195, 120, 3, 1.05085
393, 2, bw, catch, NA, 999, 999, 2, 14, 127, 128, 80, 115, 134, 181, 3, 0.854424
393, 2, bw, catch, NA, 999, 999, 2, 14, 127, 128, 80, 115, 134, 181, 2, 0.266771
393, 2, bw, attraction, a-b-db, 5, 1, 2, 15, 58, 132, 135, 60, 60, 135, 1, 8.03806
393, 2, bw, attraction, a-b-db, 5, 1, 2, 15, 58, 132, 135, 60, 60, 135, 2, 0.865449
393, 2, bw, attraction, a-b-db, 2, 2, 2, 16, 165, 90, 89, 163, 90, 165, 1, 4.01246
393, 2, bw, attraction, a-b-db, 2, 2, 2, 16, 165, 90, 89, 163, 90, 165, 3, 0.297927
393, 2, bw, attraction, a-b-da, 2, 1, 2, 17, 135, 60, 60, 135, 134, 59, 2, 2.33981
393, 2, bw, attraction, a-b-da, 2, 1, 2, 17, 135, 60, 60, 135, 134, 59, 3, 0.532286
393, 2, bw, filler, NA, 999, 999, 2, 18, 69, 111, 171, 151, 187, 73, 2, 1.31685
393, 2, bw, filler, NA, 999, 999, 2, 18, 69, 111, 171, 151, 187, 73, 1, 0.534964
393, 2, bw, attraction, a-b-db, 2, 3, 2, 19, 195, 120, 119, 193, 120, 195, 2, 14.0875
393, 2, bw, attraction, a-b-db, 2, 3, 2, 19, 195, 120, 119, 193, 120, 195, 3, 0.542928
393, 2, bw, attraction, a-b-da, 14, 2, 2, 20, 90, 165, 165, 90, 153, 83, 2, 6.86279
393, 2, bw, attraction, a-b-da, 14, 2, 2, 20, 90, 165, 165, 90, 153, 83, 3, 0.609277
393, 2, bw, attraction, a-b-db, 9, 3, 2, 21, 120, 195, 114, 186, 195, 120, 3, 7.79052
393, 2, bw, attraction, a-b-db, 9, 3, 2, 21, 120, 195, 114, 186, 195, 120, 2, 0.323249
393, 2, bw, attraction, a-b-da, 9, 1, 2, 22, 129, 57, 60, 135, 135, 60, 3, 8.69974
393, 2, bw, attraction, a-b-da, 9, 1, 2, 22, 129, 57, 60, 135, 135, 60, 1, 2.81228
393, 2, bw, attraction, a-b-da, 2, 2, 2, 23, 163, 89, 90, 165, 165, 90, 1, 4.24076
393, 2, bw, attraction, a-b-da, 2, 2, 2, 23, 163, 89, 90, 165, 165, 90, 2, 0.572616
393, 2, bw, attraction, a-b-db, 9, 2, 2, 24, 90, 165, 86, 157, 165, 90, 3, 8.5798
393, 2, bw, attraction, a-b-db, 9, 2, 2, 24, 90, 165, 86, 157, 165, 90, 2, 0.505083
393, 2, bw, attraction, a-b-db, 5, 3, 2, 25, 195, 120, 117, 190, 120, 195, 1, 2.48283
393, 2, bw, attraction, a-b-db, 5, 3, 2, 25, 195, 120, 117, 190, 120, 195, 3, 0.494031
393, 2, bw, attraction, a-b-db, 5, 2, 2, 26, 90, 165, 165, 90, 88, 161, 2, 4.76785
393, 2, bw, attraction, a-b-db, 5, 2, 2, 26, 90, 165, 165, 90, 88, 161, 3, 0.60701
393, 2, bw, attraction, a-b-da, 9, 2, 2, 27, 157, 86, 165, 90, 90, 165, 2, 8.06808
393, 2, bw, attraction, a-b-da, 9, 2, 2, 27, 157, 86, 165, 90, 90, 165, 1, 0.342154
393, 2, bw, filler, NA, 999, 999, 2, 28, 105, 134, 57, 65, 84, 175, 1, 0.966012
393, 2, bw, filler, NA, 999, 999, 2, 28, 105, 134, 57, 65, 84, 175, 3, 3.69443
393, 2, bw, filler, NA, 999, 999, 2, 29, 69, 184, 99, 130, 157, 160, 3, 4.4874
393, 2, bw, filler, NA, 999, 999, 2, 29, 69, 184, 99, 130, 157, 160, 2, 24.4972
393, 2, bw, attraction, a-b-da, 5, 3, 2, 30, 195, 120, 120, 195, 190, 117, 2, 1.652
393, 2, bw, attraction, a-b-da, 5, 3, 2, 30, 195, 120, 120, 195, 190, 117, 3, 0.544839
393, 2, bw, filler, NA, 999, 999, 2, 31, 195, 117, 102, 98, 143, 185, 1, 2.16055
393, 2, bw, filler, NA, 999, 999, 2, 31, 195, 117, 102, 98, 143, 185, 2, 0.464491
393, 2, bw, filler, NA, 999, 999, 2, 32, 188, 101, 155, 85, 135, 123, 1, 2.90773
393, 2, bw, filler, NA, 999, 999, 2, 32, 188, 101, 155, 85, 135, 123, 2, 0.997335
393, 2, bw, filler, NA, 999, 999, 2, 33, 143, 101, 81, 91, 144, 161, 3, 2.05112
393, 2, bw, filler, NA, 999, 999, 2, 33, 143, 101, 81, 91, 144, 161, 2, 0.559738
393, 2, bw, catch, NA, 999, 999, 2, 34, 163, 92, 127, 188, 96, 99, 2, 1.47873
393, 2, bw, catch, NA, 999, 999, 2, 34, 163, 92, 127, 188, 96, 99, 3, 0.538329
393, 2, bw, attraction, a-b-db, 2, 1, 2, 35, 59, 134, 135, 60, 60, 135, 2, 7.07477
393, 2, bw, attraction, a-b-db, 2, 1, 2, 35, 59, 134, 135, 60, 60, 135, 3, 0.428476
393, 2, bw, attraction, a-b-da, 5, 2, 2, 36, 165, 90, 90, 165, 161, 88, 2, 1.11295
393, 2, bw, attraction, a-b-da, 5, 2, 2, 36, 165, 90, 90, 165, 161, 88, 1, 0.595242
393, 2, bw, filler, NA, 999, 999, 2, 37, 173, 141, 109, 95, 127, 60, 1, 0.889012
393, 2, bw, filler, NA, 999, 999, 2, 37, 173, 141, 109, 95, 127, 60, 3, 1.18014
393, 2, bw, attraction, a-b-da, 2, 2, 3, 1, 165, 90, 90, 165, 163, 89, 2, 1.15431
393, 2, bw, attraction, a-b-da, 2, 2, 3, 1, 165, 90, 90, 165, 163, 89, 1, 0.618567
393, 2, bw, attraction, a-b-db, 9, 2, 3, 2, 165, 90, 86, 157, 90, 165, 1, 5.0716
393, 2, bw, attraction, a-b-db, 9, 2, 3, 2, 165, 90, 86, 157, 90, 165, 2, 0.313926
393, 2, bw, attraction, a-b-db, 5, 1, 3, 3, 58, 132, 60, 135, 135, 60, 2, 1.06721
393, 2, bw, attraction, a-b-db, 5, 1, 3, 3, 58, 132, 60, 135, 135, 60, 1, 0.423613
393, 2, bw, filler, NA, 999, 999, 3, 4, 111, 60, 119, 176, 89, 81, 2, 0.715975
393, 2, bw, filler, NA, 999, 999, 3, 4, 111, 60, 119, 176, 89, 81, 3, 0.197127
393, 2, bw, attraction, a-b-db, 5, 3, 3, 5, 120, 195, 117, 190, 195, 120, 2, 4.1164
393, 2, bw, attraction, a-b-db, 5, 3, 3, 5, 120, 195, 117, 190, 195, 120, 3, 2.98992
393, 2, bw, attraction, a-b-db, 2, 2, 3, 6, 165, 90, 90, 165, 89, 163, 2, 5.45947
393, 2, bw, attraction, a-b-db, 2, 2, 3, 6, 165, 90, 90, 165, 89, 163, 1, 0.34221
393, 2, bw, attraction, a-b-da, 14, 3, 3, 7, 195, 120, 181, 111, 120, 195, 1, 7.12611
393, 2, bw, attraction, a-b-da, 14, 3, 3, 7, 195, 120, 181, 111, 120, 195, 2, 0.269903
393, 2, bw, attraction, a-b-db, 2, 1, 3, 8, 60, 135, 59, 134, 135, 60, 2, 2.60908
393, 2, bw, attraction, a-b-db, 2, 1, 3, 8, 60, 135, 59, 134, 135, 60, 3, 0.518874
393, 2, bw, attraction, a-b-da, 5, 1, 3, 9, 135, 60, 132, 58, 60, 135, 3, 6.93596
393, 2, bw, attraction, a-b-da, 5, 1, 3, 9, 135, 60, 132, 58, 60, 135, 2, 0.351741
393, 2, bw, filler, NA, 999, 999, 3, 10, 153, 164, 89, 169, 88, 172, 1, 0.99158
393, 2, bw, filler, NA, 999, 999, 3, 10, 153, 164, 89, 169, 88, 172, 3, 0.942633
393, 2, bw, attraction, a-b-db, 14, 2, 3, 11, 83, 153, 90, 165, 165, 90, 3, 2.63025
393, 2, bw, attraction, a-b-db, 14, 2, 3, 11, 83, 153, 90, 165, 165, 90, 1, 0.595397
393, 2, bw, attraction, a-b-da, 9, 2, 3, 12, 90, 165, 157, 86, 165, 90, 3, 7.3532
393, 2, bw, attraction, a-b-da, 9, 2, 3, 12, 90, 165, 157, 86, 165, 90, 1, 0.400155
393, 2, bw, filler, NA, 999, 999, 3, 13, 114, 128, 170, 141, 147, 88, 2, 0.765968
393, 2, bw, filler, NA, 999, 999, 3, 13, 114, 128, 170, 141, 147, 88, 3, 1.54252
393, 2, bw, filler, NA, 999, 999, 3, 14, 96, 194, 177, 163, 166, 169, 2, 2.14985
393, 2, bw, filler, NA, 999, 999, 3, 14, 96, 194, 177, 163, 166, 169, 1, 0.478497
393, 2, bw, filler, NA, 999, 999, 3, 15, 125, 174, 93, 62, 83, 179, 1, 0.808931
393, 2, bw, filler, NA, 999, 999, 3, 15, 125, 174, 93, 62, 83, 179, 2, 0.351318
393, 2, bw, filler, NA, 999, 999, 3, 16, 60, 160, 73, 180, 143, 193, 3, 0.703173
393, 2, bw, filler, NA, 999, 999, 3, 16, 60, 160, 73, 180, 143, 193, 1, 0.42619
393, 2, bw, filler, NA, 999, 999, 3, 17, 62, 106, 99, 152, 175, 127, 3, 1.16674
393, 2, bw, filler, NA, 999, 999, 3, 17, 62, 106, 99, 152, 175, 127, 1, 0.751008
393, 2, bw, attraction, a-b-da, 9, 3, 3, 18, 195, 120, 120, 195, 186, 114, 2, 2.34272
393, 2, bw, attraction, a-b-da, 9, 3, 3, 18, 195, 120, 120, 195, 186, 114, 3, 0.575277
393, 2, bw, attraction, a-b-da, 14, 2, 3, 19, 165, 90, 153, 83, 90, 165, 1, 1.06167
393, 2, bw, attraction, a-b-da, 14, 2, 3, 19, 165, 90, 153, 83, 90, 165, 2, 0.47413
393, 2, bw, catch, NA, 999, 999, 3, 20, 88, 107, 125, 130, 176, 139, 3, 1.08444
393, 2, bw, catch, NA, 999, 999, 3, 20, 88, 107, 125, 130, 176, 139, 1, 0.46415
393, 2, bw, catch, NA, 999, 999, 3, 21, 119, 76, 133, 182, 138, 117, 2, 0.659249
393, 2, bw, catch, NA, 999, 999, 3, 21, 119, 76, 133, 182, 138, 117, 1, 1.17562
393, 2, bw, filler, NA, 999, 999, 3, 22, 94, 172, 56, 83, 97, 86, 1, 0.990033
393, 2, bw, filler, NA, 999, 999, 3, 22, 94, 172, 56, 83, 97, 86, 2, 0.405011
393, 2, bw, attraction, a-b-da, 2, 1, 3, 23, 135, 60, 60, 135, 134, 59, 2, 1.2107
393, 2, bw, attraction, a-b-da, 2, 1, 3, 23, 135, 60, 60, 135, 134, 59, 3, 1.04108
393, 2, bw, attraction, a-b-db, 2, 3, 3, 24, 195, 120, 120, 195, 119, 193, 2, 1.43664
393, 2, bw, attraction, a-b-db, 2, 3, 3, 24, 195, 120, 120, 195, 119, 193, 3, 0.977504
393, 2, bw, attraction, a-b-da, 5, 2, 3, 25, 161, 88, 165, 90, 90, 165, 2, 0.951759
393, 2, bw, attraction, a-b-da, 5, 2, 3, 25, 161, 88, 165, 90, 90, 165, 1, 0.808761
393, 2, bw, attraction, a-b-da, 14, 1, 3, 26, 135, 60, 125, 56, 60, 135, 3, 4.00579
393, 2, bw, attraction, a-b-da, 14, 1, 3, 26, 135, 60, 125, 56, 60, 135, 2, 0.323134
393, 2, bw, attraction, a-b-da, 2, 3, 3, 27, 193, 119, 195, 120, 120, 195, 1, 2.56366
393, 2, bw, attraction, a-b-da, 2, 3, 3, 27, 193, 119, 195, 120, 120, 195, 2, 0.619559
393, 2, bw, filler, NA, 999, 999, 3, 28, 187, 133, 177, 177, 131, 185, 2, 0.896661
393, 2, bw, filler, NA, 999, 999, 3, 28, 187, 133, 177, 177, 131, 185, 3, 0.475558
393, 2, bw, attraction, a-b-db, 9, 3, 3, 29, 120, 195, 114, 186, 195, 120, 2, 1.47808
393, 2, bw, attraction, a-b-db, 9, 3, 3, 29, 120, 195, 114, 186, 195, 120, 3, 0.481614
393, 2, bw, catch, NA, 999, 999, 3, 30, 61, 134, 134, 181, 156, 99, 2, 0.756063
393, 2, bw, catch, NA, 999, 999, 3, 30, 61, 134, 134, 181, 156, 99, 1, 0.388476
393, 2, bw, attraction, a-b-db, 5, 2, 3, 31, 165, 90, 88, 161, 90, 165, 2, 1.25104
393, 2, bw, attraction, a-b-db, 5, 2, 3, 31, 165, 90, 88, 161, 90, 165, 3, 2.12787
393, 2, bw, filler, NA, 999, 999, 3, 32, 172, 180, 147, 56, 146, 194, 1, 0.73579
393, 2, bw, filler, NA, 999, 999, 3, 32, 172, 180, 147, 56, 146, 194, 2, 0.54551
393, 2, bw, attraction, a-b-db, 14, 3, 3, 33, 120, 195, 111, 181, 195, 120, 3, 2.03337
393, 2, bw, attraction, a-b-db, 14, 3, 3, 33, 120, 195, 111, 181, 195, 120, 2, 0.454675
393, 2, bw, attraction, a-b-db, 14, 1, 3, 34, 56, 125, 135, 60, 60, 135, 2, 1.11452
393, 2, bw, attraction, a-b-db, 14, 1, 3, 34, 56, 125, 135, 60, 60, 135, 1, 0.956709
393, 2, bw, attraction, a-b-da, 9, 1, 3, 35, 60, 135, 129, 57, 135, 60, 1, 5.22778
393, 2, bw, attraction, a-b-da, 9, 1, 3, 35, 60, 135, 129, 57, 135, 60, 3, 0.43201
393, 2, bw, attraction, a-b-db, 9, 1, 3, 36, 57, 129, 135, 60, 60, 135, 3, 3.67653
393, 2, bw, attraction, a-b-db, 9, 1, 3, 36, 57, 129, 135, 60, 60, 135, 1, 0.663327
393, 2, bw, attraction, a-b-da, 5, 3, 3, 37, 120, 195, 195, 120, 190, 117, 1, 10.7306
393, 2, bw, attraction, a-b-da, 5, 3, 3, 37, 120, 195, 195, 120, 190, 117, 3, 0.537041
393, 2, bw, attraction, a-b-da, 2, 3, 4, 1, 120, 195, 193, 119, 195, 120, 1, 3.8736
393, 2, bw, attraction, a-b-da, 2, 3, 4, 1, 120, 195, 193, 119, 195, 120, 3, 0.708269
393, 2, bw, attraction, a-b-db, 5, 2, 4, 2, 90, 165, 88, 161, 165, 90, 3, 6.01345
393, 2, bw, attraction, a-b-db, 5, 2, 4, 2, 90, 165, 88, 161, 165, 90, 1, 0.674065
393, 2, bw, catch, NA, 999, 999, 4, 3, 134, 181, 86, 109, 157, 98, 1, 0.932425
393, 2, bw, catch, NA, 999, 999, 4, 3, 134, 181, 86, 109, 157, 98, 2, 0.830112
393, 2, bw, attraction, a-b-da, 2, 2, 4, 4, 163, 89, 90, 165, 165, 90, 2, 2.49859
393, 2, bw, attraction, a-b-da, 2, 2, 4, 4, 163, 89, 90, 165, 165, 90, 3, 0.573025
393, 2, bw, filler, NA, 999, 999, 4, 5, 73, 166, 65, 96, 133, 100, 3, 0.923384
393, 2, bw, filler, NA, 999, 999, 4, 5, 73, 166, 65, 96, 133, 100, 2, 0.397072
393, 2, bw, attraction, a-b-db, 14, 2, 4, 6, 165, 90, 90, 165, 83, 153, 2, 1.36291
393, 2, bw, attraction, a-b-db, 14, 2, 4, 6, 165, 90, 90, 165, 83, 153, 3, 0.395159
393, 2, bw, attraction, a-b-da, 5, 1, 4, 7, 135, 60, 60, 135, 132, 58, 1, 3.24889
393, 2, bw, attraction, a-b-da, 5, 1, 4, 7, 135, 60, 60, 135, 132, 58, 2, 2.14935
393, 2, bw, attraction, a-b-db, 9, 1, 4, 8, 57, 129, 135, 60, 60, 135, 3, 1.78063
393, 2, bw, attraction, a-b-db, 9, 1, 4, 8, 57, 129, 135, 60, 60, 135, 1, 0.379997
393, 2, bw, attraction, a-b-db, 5, 3, 4, 9, 120, 195, 195, 120, 117, 190, 2, 5.23446
393, 2, bw, attraction, a-b-db, 5, 3, 4, 9, 120, 195, 195, 120, 117, 190, 3, 0.462768
393, 2, bw, attraction, a-b-da, 14, 3, 4, 10, 195, 120, 181, 111, 120, 195, 1, 5.44999
393, 2, bw, attraction, a-b-da, 14, 3, 4, 10, 195, 120, 181, 111, 120, 195, 2, 0.325535
393, 2, bw, filler, NA, 999, 999, 4, 11, 67, 118, 78, 107, 113, 181, 3, 0.717992
393, 2, bw, filler, NA, 999, 999, 4, 11, 67, 118, 78, 107, 113, 181, 2, 0.424408
393, 2, bw, attraction, a-b-da, 14, 2, 4, 12, 165, 90, 90, 165, 153, 83, 2, 1.06891
393, 2, bw, attraction, a-b-da, 14, 2, 4, 12, 165, 90, 90, 165, 153, 83, 3, 0.385257
393, 2, bw, attraction, a-b-db, 9, 2, 4, 13, 90, 165, 165, 90, 86, 157, 1, 2.6077
393, 2, bw, attraction, a-b-db, 9, 2, 4, 13, 90, 165, 165, 90, 86, 157, 2, 0.35751
393, 2, bw, filler, NA, 999, 999, 4, 14, 107, 140, 80, 144, 183, 84, 1, 3.81275
393, 2, bw, filler, NA, 999, 999, 4, 14, 107, 140, 80, 144, 183, 84, 2, 0.746132
393, 2, bw, attraction, a-b-db, 2, 2, 4, 15, 165, 90, 90, 165, 89, 163, 2, 1.04996
393, 2, bw, attraction, a-b-db, 2, 2, 4, 15, 165, 90, 90, 165, 89, 163, 1, 0.44682
393, 2, bw, attraction, a-b-db, 9, 3, 4, 16, 120, 195, 114, 186, 195, 120, 1, 3.23466
393, 2, bw, attraction, a-b-db, 9, 3, 4, 16, 120, 195, 114, 186, 195, 120, 2, 0.70372
393, 2, bw, filler, NA, 999, 999, 4, 17, 183, 177, 112, 87, 67, 75, 1, 0.689406
393, 2, bw, filler, NA, 999, 999, 4, 17, 183, 177, 112, 87, 67, 75, 3, 0.380366
393, 2, bw, filler, NA, 999, 999, 4, 18, 120, 63, 157, 139, 89, 87, 2, 0.706914
393, 2, bw, filler, NA, 999, 999, 4, 18, 120, 63, 157, 139, 89, 87, 1, 1.00533
393, 2, bw, attraction, a-b-da, 2, 1, 4, 19, 135, 60, 134, 59, 60, 135, 1, 3.23493
393, 2, bw, attraction, a-b-da, 2, 1, 4, 19, 135, 60, 134, 59, 60, 135, 3, 0.327889
393, 2, bw, attraction, a-b-da, 9, 1, 4, 20, 60, 135, 135, 60, 129, 57, 2, 2.81639
393, 2, bw, attraction, a-b-da, 9, 1, 4, 20, 60, 135, 135, 60, 129, 57, 3, 0.65414
393, 2, bw, attraction, a-b-db, 2, 3, 4, 21, 120, 195, 119, 193, 195, 120, 2, 2.59396
393, 2, bw, attraction, a-b-db, 2, 3, 4, 21, 120, 195, 119, 193, 195, 120, 1, 0.752442
393, 2, bw, catch, NA, 999, 999, 4, 22, 64, 131, 164, 151, 159, 96, 2, 1.12017
393, 2, bw, catch, NA, 999, 999, 4, 22, 64, 131, 164, 151, 159, 96, 1, 1.0265
393, 2, bw, filler, NA, 999, 999, 4, 23, 116, 130, 132, 119, 135, 168, 3, 1.07067
393, 2, bw, filler, NA, 999, 999, 4, 23, 116, 130, 132, 119, 135, 168, 2, 0.386454
393, 2, bw, attraction, a-b-db, 5, 1, 4, 24, 135, 60, 58, 132, 60, 135, 2, 2.78495
393, 2, bw, attraction, a-b-db, 5, 1, 4, 24, 135, 60, 58, 132, 60, 135, 3, 0.495957
393, 2, bw, filler, NA, 999, 999, 4, 25, 117, 59, 59, 102, 187, 155, 3, 0.897733
393, 2, bw, filler, NA, 999, 999, 4, 25, 117, 59, 59, 102, 187, 155, 1, 1.34877
393, 2, bw, filler, NA, 999, 999, 4, 26, 143, 126, 72, 192, 119, 105, 1, 3.03632
393, 2, bw, filler, NA, 999, 999, 4, 26, 143, 126, 72, 192, 119, 105, 3, 1.7853
393, 2, bw, attraction, a-b-db, 14, 1, 4, 27, 135, 60, 60, 135, 56, 125, 1, 1.3593
393, 2, bw, attraction, a-b-db, 14, 1, 4, 27, 135, 60, 60, 135, 56, 125, 3, 0.551671
393, 2, bw, attraction, a-b-db, 14, 3, 4, 28, 111, 181, 195, 120, 120, 195, 2, 1.39933
393, 2, bw, attraction, a-b-db, 14, 3, 4, 28, 111, 181, 195, 120, 120, 195, 1, 0.390184
393, 2, bw, filler, NA, 999, 999, 4, 29, 103, 164, 143, 176, 93, 66, 2, 0.603961
393, 2, bw, filler, NA, 999, 999, 4, 29, 103, 164, 143, 176, 93, 66, 3, 0.45845
393, 2, bw, attraction, a-b-da, 9, 3, 4, 30, 120, 195, 186, 114, 195, 120, 2, 0.853594
393, 2, bw, attraction, a-b-da, 9, 3, 4, 30, 120, 195, 186, 114, 195, 120, 1, 0.514622
393, 2, bw, attraction, a-b-da, 9, 2, 4, 31, 90, 165, 157, 86, 165, 90, 3, 3.19588
393, 2, bw, attraction, a-b-da, 9, 2, 4, 31, 90, 165, 157, 86, 165, 90, 2, 0.562126
393, 2, bw, attraction, a-b-da, 14, 1, 4, 32, 135, 60, 60, 135, 125, 56, 1, 2.0171
393, 2, bw, attraction, a-b-da, 14, 1, 4, 32, 135, 60, 60, 135, 125, 56, 3, 0.679231
393, 2, bw, attraction, a-b-db, 2, 1, 4, 33, 60, 135, 59, 134, 135, 60, 3, 1.80954
393, 2, bw, attraction, a-b-db, 2, 1, 4, 33, 60, 135, 59, 134, 135, 60, 2, 0.463592
393, 2, bw, attraction, a-b-da, 5, 3, 4, 34, 120, 195, 190, 117, 195, 120, 2, 3.41875
393, 2, bw, attraction, a-b-da, 5, 3, 4, 34, 120, 195, 190, 117, 195, 120, 1, 1.14435
393, 2, bw, attraction, a-b-da, 5, 2, 4, 35, 161, 88, 90, 165, 165, 90, 3, 7.67992
393, 2, bw, attraction, a-b-da, 5, 2, 4, 35, 161, 88, 90, 165, 165, 90, 2, 0.31349
393, 2, bw, filler, NA, 999, 999, 4, 36, 66, 69, 125, 175, 133, 169, 2, 1.15464
393, 2, bw, filler, NA, 999, 999, 4, 36, 66, 69, 125, 175, 133, 169, 1, 0.794915
393, 2, bw, catch, NA, 999, 999, 4, 37, 133, 122, 150, 165, 62, 133, 2, 1.53665
393, 2, bw, catch, NA, 999, 999, 4, 37, 133, 122, 150, 165, 62, 133, 3, 0.546109
393, 2, bw, filler, NA, 999, 999, 5, 1, 111, 80, 76, 128, 151, 162, 3, 2.37652
393, 2, bw, filler, NA, 999, 999, 5, 1, 111, 80, 76, 128, 151, 162, 1, 0.81579
393, 2, bw, filler, NA, 999, 999, 5, 2, 153, 145, 65, 183, 163, 94, 1, 1.03677
393, 2, bw, filler, NA, 999, 999, 5, 2, 153, 145, 65, 183, 163, 94, 2, 0.689722
393, 2, bw, attraction, a-b-db, 9, 3, 5, 3, 114, 186, 195, 120, 120, 195, 2, 2.69949
393, 2, bw, attraction, a-b-db, 9, 3, 5, 3, 114, 186, 195, 120, 120, 195, 1, 0.605911
393, 2, bw, attraction, a-b-da, 14, 3, 5, 4, 120, 195, 195, 120, 181, 111, 2, 0.963687
393, 2, bw, attraction, a-b-da, 14, 3, 5, 4, 120, 195, 195, 120, 181, 111, 3, 0.63606
393, 2, bw, attraction, a-b-da, 5, 3, 5, 5, 120, 195, 195, 120, 190, 117, 2, 2.24848
393, 2, bw, attraction, a-b-da, 5, 3, 5, 5, 120, 195, 195, 120, 190, 117, 3, 0.453085
393, 2, bw, attraction, a-b-db, 14, 2, 5, 6, 165, 90, 83, 153, 90, 165, 1, 1.39281
393, 2, bw, attraction, a-b-db, 14, 2, 5, 6, 165, 90, 83, 153, 90, 165, 2, 0.831682
393, 2, bw, attraction, a-b-da, 2, 3, 5, 7, 193, 119, 120, 195, 195, 120, 2, 3.08819
393, 2, bw, attraction, a-b-da, 2, 3, 5, 7, 193, 119, 120, 195, 195, 120, 1, 0.654437
393, 2, bw, attraction, a-b-db, 14, 3, 5, 8, 195, 120, 120, 195, 111, 181, 2, 2.76208
393, 2, bw, attraction, a-b-db, 14, 3, 5, 8, 195, 120, 120, 195, 111, 181, 3, 0.490036
393, 2, bw, filler, NA, 999, 999, 5, 9, 112, 179, 113, 116, 122, 134, 1, 0.667722
393, 2, bw, filler, NA, 999, 999, 5, 9, 112, 179, 113, 116, 122, 134, 2, 1.0962
393, 2, bw, attraction, a-b-da, 2, 2, 5, 10, 165, 90, 163, 89, 90, 165, 3, 2.4258
393, 2, bw, attraction, a-b-da, 2, 2, 5, 10, 165, 90, 163, 89, 90, 165, 2, 4.99097
393, 2, bw, attraction, a-b-db, 5, 3, 5, 11, 195, 120, 117, 190, 120, 195, 1, 2.14001
393, 2, bw, attraction, a-b-db, 5, 3, 5, 11, 195, 120, 117, 190, 120, 195, 2, 5.04468
393, 2, bw, attraction, a-b-da, 5, 2, 5, 12, 90, 165, 165, 90, 161, 88, 2, 2.91099
393, 2, bw, attraction, a-b-da, 5, 2, 5, 12, 90, 165, 165, 90, 161, 88, 1, 0.792787
393, 2, bw, attraction, a-b-da, 14, 2, 5, 13, 165, 90, 153, 83, 90, 165, 1, 3.83846
393, 2, bw, attraction, a-b-da, 14, 2, 5, 13, 165, 90, 153, 83, 90, 165, 2, 0.498542
393, 2, bw, filler, NA, 999, 999, 5, 14, 144, 154, 125, 187, 98, 181, 2, 2.3244
393, 2, bw, filler, NA, 999, 999, 5, 14, 144, 154, 125, 187, 98, 181, 3, 0.573511
393, 2, bw, catch, NA, 999, 999, 5, 15, 184, 131, 129, 66, 128, 127, 1, 0.955935
393, 2, bw, catch, NA, 999, 999, 5, 15, 184, 131, 129, 66, 128, 127, 2, 0.532295
393, 2, bw, catch, NA, 999, 999, 5, 16, 94, 101, 177, 138, 153, 102, 2, 0.996846
393, 2, bw, catch, NA, 999, 999, 5, 16, 94, 101, 177, 138, 153, 102, 1, 0.787775
393, 2, bw, attraction, a-b-db, 14, 1, 5, 17, 56, 125, 60, 135, 135, 60, 3, 1.90608
393, 2, bw, attraction, a-b-db, 14, 1, 5, 17, 56, 125, 60, 135, 135, 60, 2, 1.37212
393, 2, bw, attraction, a-b-db, 5, 2, 5, 18, 90, 165, 165, 90, 88, 161, 1, 1.14707
393, 2, bw, attraction, a-b-db, 5, 2, 5, 18, 90, 165, 165, 90, 88, 161, 3, 1.43604
393, 2, bw, attraction, a-b-db, 2, 3, 5, 19, 195, 120, 119, 193, 120, 195, 1, 1.45608
393, 2, bw, attraction, a-b-db, 2, 3, 5, 19, 195, 120, 119, 193, 120, 195, 3, 1.86037
393, 2, bw, filler, NA, 999, 999, 5, 20, 190, 122, 65, 60, 92, 186, 1, 0.670984
393, 2, bw, filler, NA, 999, 999, 5, 20, 190, 122, 65, 60, 92, 186, 2, 0.586729
393, 2, bw, catch, NA, 999, 999, 5, 21, 130, 125, 149, 166, 93, 102, 2, 0.585149
393, 2, bw, catch, NA, 999, 999, 5, 21, 130, 125, 149, 166, 93, 102, 3, 0.584999
393, 2, bw, filler, NA, 999, 999, 5, 22, 65, 161, 92, 86, 77, 181, 3, 0.759463
393, 2, bw, filler, NA, 999, 999, 5, 22, 65, 161, 92, 86, 77, 181, 2, 0.527838
393, 2, bw, attraction, a-b-db, 5, 1, 5, 23, 58, 132, 60, 135, 135, 60, 3, 1.67238
393, 2, bw, attraction, a-b-db, 5, 1, 5, 23, 58, 132, 60, 135, 135, 60, 2, 0.707823
393, 2, bw, attraction, a-b-da, 9, 3, 5, 24, 186, 114, 195, 120, 120, 195, 3, 1.42074
393, 2, bw, attraction, a-b-da, 9, 3, 5, 24, 186, 114, 195, 120, 120, 195, 2, 1.72296
393, 2, bw, attraction, a-b-da, 2, 1, 5, 25, 60, 135, 135, 60, 134, 59, 2, 1.17172
393, 2, bw, attraction, a-b-da, 2, 1, 5, 25, 60, 135, 135, 60, 134, 59, 3, 2.60334
393, 2, bw, attraction, a-b-da, 9, 1, 5, 26, 129, 57, 60, 135, 135, 60, 3, 3.22452
393, 2, bw, attraction, a-b-da, 9, 1, 5, 26, 129, 57, 60, 135, 135, 60, 2, 0.701348
393, 2, bw, attraction, a-b-da, 14, 1, 5, 27, 60, 135, 125, 56, 135, 60, 3, 3.47115
393, 2, bw, attraction, a-b-da, 14, 1, 5, 27, 60, 135, 125, 56, 135, 60, 2, 0.297996
393, 2, bw, attraction, a-b-db, 9, 1, 5, 28, 60, 135, 57, 129, 135, 60, 3, 4.01985
393, 2, bw, attraction, a-b-db, 9, 1, 5, 28, 60, 135, 57, 129, 135, 60, 2, 0.305223
393, 2, bw, filler, NA, 999, 999, 5, 29, 64, 134, 89, 65, 111, 102, 3, 2.18707
393, 2, bw, filler, NA, 999, 999, 5, 29, 64, 134, 89, 65, 111, 102, 2, 0.682485
393, 2, bw, attraction, a-b-db, 9, 2, 5, 30, 86, 157, 165, 90, 90, 165, 3, 1.37285
393, 2, bw, attraction, a-b-db, 9, 2, 5, 30, 86, 157, 165, 90, 90, 165, 1, 0.868337
393, 2, bw, attraction, a-b-da, 9, 2, 5, 31, 90, 165, 157, 86, 165, 90, 3, 4.14335
393, 2, bw, attraction, a-b-da, 9, 2, 5, 31, 90, 165, 157, 86, 165, 90, 2, 0.47938
393, 2, bw, attraction, a-b-da, 5, 1, 5, 32, 132, 58, 135, 60, 60, 135, 2, 5.3379
393, 2, bw, attraction, a-b-da, 5, 1, 5, 32, 132, 58, 135, 60, 60, 135, 3, 0.546089
393, 2, bw, filler, NA, 999, 999, 5, 33, 62, 127, 180, 104, 117, 154, 3, 1.96995
393, 2, bw, filler, NA, 999, 999, 5, 33, 62, 127, 180, 104, 117, 154, 1, 0.521878
393, 2, bw, filler, NA, 999, 999, 5, 34, 77, 170, 80, 166, 60, 65, 1, 1.44299
393, 2, bw, filler, NA, 999, 999, 5, 34, 77, 170, 80, 166, 60, 65, 3, 0.409137
393, 2, bw, attraction, a-b-db, 2, 1, 5, 35, 59, 134, 135, 60, 60, 135, 3, 1.109
393, 2, bw, attraction, a-b-db, 2, 1, 5, 35, 59, 134, 135, 60, 60, 135, 2, 4.03942
393, 2, bw, attraction, a-b-db, 2, 2, 5, 36, 89, 163, 165, 90, 90, 165, 3, 13.2666
393, 2, bw, attraction, a-b-db, 2, 2, 5, 36, 89, 163, 165, 90, 90, 165, 2, 0.595244
393, 2, bw, filler, NA, 999, 999, 5, 37, 132, 109, 74, 88, 129, 153, 3, 0.832903
393, 2, bw, filler, NA, 999, 999, 5, 37, 132, 109, 74, 88, 129, 153, 2, 0.430736
393, 2, bw, filler, NA, 999, 999, 6, 1, 111, 149, 118, 137, 139, 152, 3, 1.54712
393, 2, bw, filler, NA, 999, 999, 6, 1, 111, 149, 118, 137, 139, 152, 2, 0.307921
393, 2, bw, filler, NA, 999, 999, 6, 2, 91, 112, 145, 195, 115, 67, 2, 1.55712
393, 2, bw, filler, NA, 999, 999, 6, 2, 91, 112, 145, 195, 115, 67, 3, 0.805324
393, 2, bw, filler, NA, 999, 999, 6, 3, 108, 182, 116, 86, 103, 102, 1, 1.14696
393, 2, bw, filler, NA, 999, 999, 6, 3, 108, 182, 116, 86, 103, 102, 2, 0.739964
393, 2, bw, filler, NA, 999, 999, 6, 4, 123, 124, 151, 174, 60, 137, 2, 1.01164
393, 2, bw, filler, NA, 999, 999, 6, 4, 123, 124, 151, 174, 60, 137, 3, 0.521945
393, 2, bw, filler, NA, 999, 999, 6, 5, 146, 184, 124, 96, 124, 145, 1, 2.11504
393, 2, bw, filler, NA, 999, 999, 6, 5, 146, 184, 124, 96, 124, 145, 2, 0.677023
393, 2, bw, filler, NA, 999, 999, 6, 6, 59, 191, 152, 134, 183, 168, 3, 1.3274
393, 2, bw, filler, NA, 999, 999, 6, 6, 59, 191, 152, 134, 183, 168, 1, 0.752965
393, 2, bw, attraction, a-b-db, 5, 2, 6, 7, 165, 90, 90, 165, 88, 161, 1, 1.60864
393, 2, bw, attraction, a-b-db, 5, 2, 6, 7, 165, 90, 90, 165, 88, 161, 3, 0.734775
393, 2, bw, attraction, a-b-da, 5, 1, 6, 8, 135, 60, 132, 58, 60, 135, 1, 4.24714
393, 2, bw, attraction, a-b-da, 5, 1, 6, 8, 135, 60, 132, 58, 60, 135, 3, 0.451141
393, 2, bw, attraction, a-b-db, 14, 1, 6, 9, 135, 60, 60, 135, 56, 125, 1, 2.74288
393, 2, bw, attraction, a-b-db, 14, 1, 6, 9, 135, 60, 60, 135, 56, 125, 3, 0.511382
393, 2, bw, attraction, a-b-db, 14, 2, 6, 10, 90, 165, 165, 90, 83, 153, 2, 2.64054
393, 2, bw, attraction, a-b-db, 14, 2, 6, 10, 90, 165, 165, 90, 83, 153, 3, 0.36509
393, 2, bw, attraction, a-b-da, 9, 3, 6, 11, 120, 195, 195, 120, 186, 114, 1, 4.16415
393, 2, bw, attraction, a-b-da, 9, 3, 6, 11, 120, 195, 195, 120, 186, 114, 3, 0.363486
393, 2, bw, attraction, a-b-db, 2, 1, 6, 12, 59, 134, 60, 135, 135, 60, 3, 2.69871
393, 2, bw, attraction, a-b-db, 2, 1, 6, 12, 59, 134, 60, 135, 135, 60, 2, 0.373291
393, 2, bw, attraction, a-b-db, 9, 2, 6, 13, 86, 157, 165, 90, 90, 165, 3, 4.46763
393, 2, bw, attraction, a-b-db, 9, 2, 6, 13, 86, 157, 165, 90, 90, 165, 1, 0.846867
393, 2, bw, filler, NA, 999, 999, 6, 14, 155, 179, 109, 76, 151, 118, 1, 0.858542
393, 2, bw, filler, NA, 999, 999, 6, 14, 155, 179, 109, 76, 151, 118, 2, 0.39889
393, 2, bw, attraction, a-b-da, 14, 3, 6, 15, 120, 195, 181, 111, 195, 120, 1, 5.2048
393, 2, bw, attraction, a-b-da, 14, 3, 6, 15, 120, 195, 181, 111, 195, 120, 2, 0.545685
393, 2, bw, attraction, a-b-da, 9, 2, 6, 16, 90, 165, 157, 86, 165, 90, 3, 2.3776
393, 2, bw, attraction, a-b-da, 9, 2, 6, 16, 90, 165, 157, 86, 165, 90, 1, 0.752774
393, 2, bw, attraction, a-b-da, 5, 3, 6, 17, 120, 195, 190, 117, 195, 120, 1, 5.17645
393, 2, bw, attraction, a-b-da, 5, 3, 6, 17, 120, 195, 190, 117, 195, 120, 2, 0.382864
393, 2, bw, attraction, a-b-da, 14, 2, 6, 18, 153, 83, 165, 90, 90, 165, 3, 1.93337
393, 2, bw, attraction, a-b-da, 14, 2, 6, 18, 153, 83, 165, 90, 90, 165, 1, 0.662667
393, 2, bw, filler, NA, 999, 999, 6, 19, 154, 121, 123, 133, 188, 63, 1, 34.3698
393, 2, bw, filler, NA, 999, 999, 6, 19, 154, 121, 123, 133, 188, 63, 3, 0.8797
393, 2, bw, attraction, a-b-da, 5, 2, 6, 20, 161, 88, 165, 90, 90, 165, 2, 1.00191
393, 2, bw, attraction, a-b-da, 5, 2, 6, 20, 161, 88, 165, 90, 90, 165, 3, 0.944976
393, 2, bw, attraction, a-b-da, 2, 1, 6, 21, 60, 135, 134, 59, 135, 60, 1, 3.80059
393, 2, bw, attraction, a-b-da, 2, 1, 6, 21, 60, 135, 134, 59, 135, 60, 2, 0.558753
393, 2, bw, attraction, a-b-db, 2, 3, 6, 22, 120, 195, 195, 120, 119, 193, 1, 1.4858
393, 2, bw, attraction, a-b-db, 2, 3, 6, 22, 120, 195, 195, 120, 119, 193, 3, 0.529285
393, 2, bw, attraction, a-b-db, 9, 3, 6, 23, 195, 120, 114, 186, 120, 195, 1, 1.16179
393, 2, bw, attraction, a-b-db, 9, 3, 6, 23, 195, 120, 114, 186, 120, 195, 2, 0.842012
393, 2, bw, attraction, a-b-db, 14, 3, 6, 24, 120, 195, 111, 181, 195, 120, 3, 1.54171
393, 2, bw, attraction, a-b-db, 14, 3, 6, 24, 120, 195, 111, 181, 195, 120, 2, 0.494549
393, 2, bw, attraction, a-b-da, 14, 1, 6, 25, 125, 56, 135, 60, 60, 135, 3, 6.60831
393, 2, bw, attraction, a-b-da, 14, 1, 6, 25, 125, 56, 135, 60, 60, 135, 1, 0.500888
393, 2, bw, attraction, a-b-db, 2, 2, 6, 26, 89, 163, 90, 165, 165, 90, 1, 1.98271
393, 2, bw, attraction, a-b-db, 2, 2, 6, 26, 89, 163, 90, 165, 165, 90, 2, 0.438098
393, 2, bw, attraction, a-b-da, 2, 2, 6, 27, 163, 89, 165, 90, 90, 165, 3, 4.14647
393, 2, bw, attraction, a-b-da, 2, 2, 6, 27, 163, 89, 165, 90, 90, 165, 2, 0.770531
393, 2, bw, attraction, a-b-db, 9, 1, 6, 28, 135, 60, 60, 135, 57, 129, 2, 3.70559
393, 2, bw, attraction, a-b-db, 9, 1, 6, 28, 135, 60, 60, 135, 57, 129, 3, 0.731084
393, 2, bw, catch, NA, 999, 999, 6, 29, 134, 121, 90, 105, 175, 140, 3, 0.763429
393, 2, bw, catch, NA, 999, 999, 6, 29, 134, 121, 90, 105, 175, 140, 2, 0.547783
393, 2, bw, filler, NA, 999, 999, 6, 30, 135, 99, 170, 108, 123, 125, 2, 1.25962
393, 2, bw, filler, NA, 999, 999, 6, 30, 135, 99, 170, 108, 123, 125, 1, 0.855846
393, 2, bw, attraction, a-b-db, 5, 1, 6, 31, 135, 60, 60, 135, 58, 132, 2, 4.8436
393, 2, bw, attraction, a-b-db, 5, 1, 6, 31, 135, 60, 60, 135, 58, 132, 3, 1.23137
393, 2, bw, filler, NA, 999, 999, 6, 32, 94, 191, 165, 162, 141, 185, 2, 2.01964
393, 2, bw, filler, NA, 999, 999, 6, 32, 94, 191, 165, 162, 141, 185, 1, 0.561542
393, 2, bw, attraction, a-b-da, 9, 1, 6, 33, 60, 135, 135, 60, 129, 57, 2, 2.64869
393, 2, bw, attraction, a-b-da, 9, 1, 6, 33, 60, 135, 135, 60, 129, 57, 1, 0.661139
393, 2, bw, attraction, a-b-db, 5, 3, 6, 34, 195, 120, 117, 190, 120, 195, 2, 9.89618
393, 2, bw, attraction, a-b-db, 5, 3, 6, 34, 195, 120, 117, 190, 120, 195, 3, 0.456363
393, 2, bw, catch, NA, 999, 999, 6, 35, 68, 127, 158, 97, 170, 145, 3, 1.05958
393, 2, bw, catch, NA, 999, 999, 6, 35, 68, 127, 158, 97, 170, 145, 1, 0.49581
393, 2, bw, catch, NA, 999, 999, 6, 36, 117, 138, 131, 184, 108, 87, 2, 0.993632
393, 2, bw, catch, NA, 999, 999, 6, 36, 117, 138, 131, 184, 108, 87, 3, 0.45658
393, 2, bw, attraction, a-b-da, 2, 3, 6, 37, 193, 119, 195, 120, 120, 195, 2, 0.803681
393, 2, bw, attraction, a-b-da, 2, 3, 6, 37, 193, 119, 195, 120, 120, 195, 1, 0.89092
393, 2, bw, catch, NA, 999, 999, 7, 1, 104, 151, 130, 65, 177, 138, 3, 0.916436
393, 2, bw, catch, NA, 999, 999, 7, 1, 104, 151, 130, 65, 177, 138, 2, 0.390812
393, 2, bw, attraction, a-b-db, 9, 1, 7, 2, 57, 129, 135, 60, 60, 135, 2, 0.972678
393, 2, bw, attraction, a-b-db, 9, 1, 7, 2, 57, 129, 135, 60, 60, 135, 1, 0.412375
393, 2, bw, attraction, a-b-db, 9, 2, 7, 3, 90, 165, 86, 157, 165, 90, 1, 1.2094
393, 2, bw, attraction, a-b-db, 9, 2, 7, 3, 90, 165, 86, 157, 165, 90, 2, 1.60772
393, 2, bw, filler, NA, 999, 999, 7, 4, 118, 182, 101, 81, 70, 105, 1, 0.708455
393, 2, bw, filler, NA, 999, 999, 7, 4, 118, 182, 101, 81, 70, 105, 3, 1.35097
393, 2, bw, attraction, a-b-db, 14, 2, 7, 5, 90, 165, 83, 153, 165, 90, 3, 6.10238
393, 2, bw, attraction, a-b-db, 14, 2, 7, 5, 90, 165, 83, 153, 165, 90, 2, 0.695747
393, 2, bw, filler, NA, 999, 999, 7, 6, 164, 67, 85, 171, 181, 136, 3, 0.793564
393, 2, bw, filler, NA, 999, 999, 7, 6, 164, 67, 85, 171, 181, 136, 1, 0.456671
393, 2, bw, filler, NA, 999, 999, 7, 7, 183, 180, 124, 171, 188, 93, 1, 1.29183
393, 2, bw, filler, NA, 999, 999, 7, 7, 183, 180, 124, 171, 188, 93, 3, 0.670772
393, 2, bw, attraction, a-b-da, 14, 3, 7, 8, 195, 120, 120, 195, 181, 111, 2, 1.96187
393, 2, bw, attraction, a-b-da, 14, 3, 7, 8, 195, 120, 120, 195, 181, 111, 3, 0.401826
393, 2, bw, catch, NA, 999, 999, 7, 9, 101, 154, 112, 83, 163, 152, 3, 1.15149
393, 2, bw, catch, NA, 999, 999, 7, 9, 101, 154, 112, 83, 163, 152, 2, 0.464493
393, 2, bw, attraction, a-b-da, 5, 2, 7, 10, 161, 88, 90, 165, 165, 90, 2, 1.13163
393, 2, bw, attraction, a-b-da, 5, 2, 7, 10, 161, 88, 90, 165, 165, 90, 3, 0.405335
393, 2, bw, attraction, a-b-da, 9, 2, 7, 11, 90, 165, 157, 86, 165, 90, 1, 1.84309
393, 2, bw, attraction, a-b-da, 9, 2, 7, 11, 90, 165, 157, 86, 165, 90, 2, 0.495826
393, 2, bw, filler, NA, 999, 999, 7, 12, 148, 146, 173, 164, 121, 89, 2, 0.793624
393, 2, bw, filler, NA, 999, 999, 7, 12, 148, 146, 173, 164, 121, 89, 3, 0.416565
393, 2, bw, filler, NA, 999, 999, 7, 13, 136, 181, 147, 56, 187, 96, 1, 0.869683
393, 2, bw, filler, NA, 999, 999, 7, 13, 136, 181, 147, 56, 187, 96, 2, 0.762187
393, 2, bw, filler, NA, 999, 999, 7, 14, 141, 132, 156, 185, 140, 86, 2, 0.617179
393, 2, bw, filler, NA, 999, 999, 7, 14, 141, 132, 156, 185, 140, 86, 3, 0.591715
393, 2, bw, attraction, a-b-da, 5, 1, 7, 15, 60, 135, 132, 58, 135, 60, 3, 5.2534
393, 2, bw, attraction, a-b-da, 5, 1, 7, 15, 60, 135, 132, 58, 135, 60, 2, 0.449035
393, 2, bw, attraction, a-b-da, 2, 1, 7, 16, 135, 60, 60, 135, 134, 59, 2, 0.708834
393, 2, bw, attraction, a-b-da, 2, 1, 7, 16, 135, 60, 60, 135, 134, 59, 3, 0.479318
393, 2, bw, attraction, a-b-db, 2, 3, 7, 17, 120, 195, 119, 193, 195, 120, 1, 5.48976
393, 2, bw, attraction, a-b-db, 2, 3, 7, 17, 120, 195, 119, 193, 195, 120, 2, 0.379262
393, 2, bw, attraction, a-b-db, 5, 2, 7, 18, 165, 90, 88, 161, 90, 165, 2, 1.70583
393, 2, bw, attraction, a-b-db, 5, 2, 7, 18, 165, 90, 88, 161, 90, 165, 1, 0.707903
393, 2, bw, attraction, a-b-db, 2, 2, 7, 19, 90, 165, 165, 90, 89, 163, 1, 0.796992
393, 2, bw, attraction, a-b-db, 2, 2, 7, 19, 90, 165, 165, 90, 89, 163, 3, 1.08412
393, 2, bw, filler, NA, 999, 999, 7, 20, 115, 151, 188, 155, 138, 122, 2, 0.542245
393, 2, bw, filler, NA, 999, 999, 7, 20, 115, 151, 188, 155, 138, 122, 3, 0.487471
393, 2, bw, attraction, a-b-db, 9, 3, 7, 21, 195, 120, 120, 195, 114, 186, 2, 1.00984
393, 2, bw, attraction, a-b-db, 9, 3, 7, 21, 195, 120, 120, 195, 114, 186, 3, 0.512191
393, 2, bw, attraction, a-b-da, 9, 1, 7, 22, 60, 135, 129, 57, 135, 60, 3, 3.21741
393, 2, bw, attraction, a-b-da, 9, 1, 7, 22, 60, 135, 129, 57, 135, 60, 2, 0.479042
393, 2, bw, filler, NA, 999, 999, 7, 23, 182, 130, 144, 85, 65, 188, 1, 0.657458
393, 2, bw, filler, NA, 999, 999, 7, 23, 182, 130, 144, 85, 65, 188, 3, 1.14985
393, 2, bw, attraction, a-b-da, 14, 1, 7, 24, 125, 56, 60, 135, 135, 60, 2, 0.757443
393, 2, bw, attraction, a-b-da, 14, 1, 7, 24, 125, 56, 60, 135, 135, 60, 1, 0.741885
393, 2, bw, attraction, a-b-db, 5, 1, 7, 25, 135, 60, 58, 132, 60, 135, 1, 7.43488
393, 2, bw, attraction, a-b-db, 5, 1, 7, 25, 135, 60, 58, 132, 60, 135, 2, 0.465216
393, 2, bw, attraction, a-b-db, 2, 1, 7, 26, 135, 60, 60, 135, 59, 134, 1, 1.0044
393, 2, bw, attraction, a-b-db, 2, 1, 7, 26, 135, 60, 60, 135, 59, 134, 2, 0.482611
393, 2, bw, attraction, a-b-db, 5, 3, 7, 27, 117, 190, 120, 195, 195, 120, 2, 0.989149
393, 2, bw, attraction, a-b-db, 5, 3, 7, 27, 117, 190, 120, 195, 195, 120, 1, 0.572111
393, 2, bw, filler, NA, 999, 999, 7, 28, 105, 74, 147, 176, 72, 186, 2, 0.627108
393, 2, bw, filler, NA, 999, 999, 7, 28, 105, 74, 147, 176, 72, 186, 1, 0.752946
393, 2, bw, attraction, a-b-db, 14, 1, 7, 29, 56, 125, 60, 135, 135, 60, 3, 2.6407
393, 2, bw, attraction, a-b-db, 14, 1, 7, 29, 56, 125, 60, 135, 135, 60, 1, 0.533099
393, 2, bw, attraction, a-b-da, 9, 3, 7, 30, 120, 195, 195, 120, 186, 114, 2, 4.04577
393, 2, bw, attraction, a-b-da, 9, 3, 7, 30, 120, 195, 195, 120, 186, 114, 1, 1.24977
393, 2, bw, attraction, a-b-da, 2, 2, 7, 31, 163, 89, 165, 90, 90, 165, 3, 27.8692
393, 2, bw, attraction, a-b-da, 2, 2, 7, 31, 163, 89, 165, 90, 90, 165, 2, 0.56109
393, 2, bw, attraction, a-b-da, 5, 3, 7, 32, 120, 195, 195, 120, 190, 117, 2, 0.97628
393, 2, bw, attraction, a-b-da, 5, 3, 7, 32, 120, 195, 195, 120, 190, 117, 3, 0.583863
393, 2, bw, catch, NA, 999, 999, 7, 33, 190, 125, 66, 129, 90, 165, 1, 0.806457
393, 2, bw, catch, NA, 999, 999, 7, 33, 190, 125, 66, 129, 90, 165, 2, 0.396735
393, 2, bw, attraction, a-b-da, 14, 2, 7, 34, 90, 165, 165, 90, 153, 83, 2, 0.778493
393, 2, bw, attraction, a-b-da, 14, 2, 7, 34, 90, 165, 165, 90, 153, 83, 3, 0.38623
393, 2, bw, filler, NA, 999, 999, 7, 35, 129, 154, 142, 127, 70, 150, 1, 2.05676
393, 2, bw, filler, NA, 999, 999, 7, 35, 129, 154, 142, 127, 70, 150, 3, 0.452734
393, 2, bw, attraction, a-b-db, 14, 3, 7, 36, 120, 195, 111, 181, 195, 120, 3, 2.2485
393, 2, bw, attraction, a-b-db, 14, 3, 7, 36, 120, 195, 111, 181, 195, 120, 2, 1.19713
393, 2, bw, attraction, a-b-da, 2, 3, 7, 37, 193, 119, 195, 120, 120, 195, 2, 6.08287
393, 2, bw, attraction, a-b-da, 2, 3, 7, 37, 193, 119, 195, 120, 120, 195, 3, 0.812829
393, 2, bw, attraction, a-b-db, 9, 2, 8, 1, 90, 165, 165, 90, 86, 157, 1, 1.0899
393, 2, bw, attraction, a-b-db, 9, 2, 8, 1, 90, 165, 165, 90, 86, 157, 3, 1.15692
393, 2, bw, filler, NA, 999, 999, 8, 2, 134, 134, 161, 151, 166, 92, 2, 1.61971
393, 2, bw, filler, NA, 999, 999, 8, 2, 134, 134, 161, 151, 166, 92, 3, 0.593836
393, 2, bw, attraction, a-b-da, 9, 1, 8, 3, 129, 57, 135, 60, 60, 135, 2, 1.14358
393, 2, bw, attraction, a-b-da, 9, 1, 8, 3, 129, 57, 135, 60, 60, 135, 3, 0.376527
393, 2, bw, catch, NA, 999, 999, 8, 4, 64, 131, 112, 143, 152, 163, 2, 0.791091
393, 2, bw, catch, NA, 999, 999, 8, 4, 64, 131, 112, 143, 152, 163, 1, 2.63812
393, 2, bw, catch, NA, 999, 999, 8, 5, 119, 76, 175, 140, 123, 132, 2, 1.04188
393, 2, bw, catch, NA, 999, 999, 8, 5, 119, 76, 175, 140, 123, 132, 1, 0.390946
393, 2, bw, filler, NA, 999, 999, 8, 6, 98, 160, 78, 101, 149, 192, 3, 0.900682
393, 2, bw, filler, NA, 999, 999, 8, 6, 98, 160, 78, 101, 149, 192, 2, 0.599789
393, 2, bw, attraction, a-b-da, 9, 2, 8, 7, 165, 90, 157, 86, 90, 165, 2, 1.18155
393, 2, bw, attraction, a-b-da, 9, 2, 8, 7, 165, 90, 157, 86, 90, 165, 3, 0.581035
393, 2, bw, attraction, a-b-da, 14, 2, 8, 8, 153, 83, 90, 165, 165, 90, 2, 1.28345
393, 2, bw, attraction, a-b-da, 14, 2, 8, 8, 153, 83, 90, 165, 165, 90, 1, 1.11111
393, 2, bw, filler, NA, 999, 999, 8, 9, 129, 134, 103, 177, 114, 137, 1, 2.50408
393, 2, bw, filler, NA, 999, 999, 8, 9, 129, 134, 103, 177, 114, 137, 2, 0.738487
393, 2, bw, attraction, a-b-db, 5, 2, 8, 10, 165, 90, 88, 161, 90, 165, 1, 14.1389
393, 2, bw, attraction, a-b-db, 5, 2, 8, 10, 165, 90, 88, 161, 90, 165, 2, 0.792444
393, 2, bw, attraction, a-b-da, 2, 3, 8, 11, 195, 120, 120, 195, 193, 119, 1, 5.58233
393, 2, bw, attraction, a-b-da, 2, 3, 8, 11, 195, 120, 120, 195, 193, 119, 2, 0.396367
393, 2, bw, attraction, a-b-db, 2, 3, 8, 12, 195, 120, 119, 193, 120, 195, 2, 6.77831
393, 2, bw, attraction, a-b-db, 2, 3, 8, 12, 195, 120, 119, 193, 120, 195, 3, 0.319968
393, 2, bw, attraction, a-b-da, 14, 3, 8, 13, 181, 111, 120, 195, 195, 120, 2, 1.72924
393, 2, bw, attraction, a-b-da, 14, 3, 8, 13, 181, 111, 120, 195, 195, 120, 1, 0.386651
393, 2, bw, attraction, a-b-db, 2, 2, 8, 14, 89, 163, 165, 90, 90, 165, 2, 4.61709
393, 2, bw, attraction, a-b-db, 2, 2, 8, 14, 89, 163, 165, 90, 90, 165, 1, 0.462307
393, 2, bw, attraction, a-b-da, 9, 3, 8, 15, 195, 120, 120, 195, 186, 114, 2, 5.63352
393, 2, bw, attraction, a-b-da, 9, 3, 8, 15, 195, 120, 120, 195, 186, 114, 3, 0.637686
393, 2, bw, attraction, a-b-db, 9, 3, 8, 16, 114, 186, 195, 120, 120, 195, 3, 3.73809
393, 2, bw, attraction, a-b-db, 9, 3, 8, 16, 114, 186, 195, 120, 120, 195, 1, 0.714266
393, 2, bw, filler, NA, 999, 999, 8, 17, 181, 195, 139, 158, 123, 127, 1, 0.931309
393, 2, bw, filler, NA, 999, 999, 8, 17, 181, 195, 139, 158, 123, 127, 3, 0.396931
393, 2, bw, attraction, a-b-db, 14, 2, 8, 18, 83, 153, 90, 165, 165, 90, 2, 1.59465
393, 2, bw, attraction, a-b-db, 14, 2, 8, 18, 83, 153, 90, 165, 165, 90, 1, 0.353568
393, 2, bw, attraction, a-b-da, 5, 2, 8, 19, 161, 88, 165, 90, 90, 165, 3, 5.1375
393, 2, bw, attraction, a-b-da, 5, 2, 8, 19, 161, 88, 165, 90, 90, 165, 1, 0.377806
393, 2, bw, attraction, a-b-da, 5, 1, 8, 20, 60, 135, 135, 60, 132, 58, 2, 3.53628
393, 2, bw, attraction, a-b-da, 5, 1, 8, 20, 60, 135, 135, 60, 132, 58, 3, 0.473257
393, 2, bw, attraction, a-b-db, 2, 1, 8, 21, 59, 134, 135, 60, 60, 135, 3, 9.18761
393, 2, bw, attraction, a-b-db, 2, 1, 8, 21, 59, 134, 135, 60, 60, 135, 1, 0.65662
393, 2, bw, attraction, a-b-da, 2, 1, 8, 22, 134, 59, 60, 135, 135, 60, 1, 1.89168
393, 2, bw, attraction, a-b-da, 2, 1, 8, 22, 134, 59, 60, 135, 135, 60, 2, 0.414477
393, 2, bw, filler, NA, 999, 999, 8, 23, 59, 101, 147, 76, 88, 170, 3, 0.899601
393, 2, bw, filler, NA, 999, 999, 8, 23, 59, 101, 147, 76, 88, 170, 1, 0.406732
393, 2, bw, attraction, a-b-da, 2, 2, 8, 24, 165, 90, 90, 165, 163, 89, 2, 7.40375
393, 2, bw, attraction, a-b-da, 2, 2, 8, 24, 165, 90, 90, 165, 163, 89, 1, 0.656749
393, 2, bw, attraction, a-b-db, 14, 3, 8, 25, 195, 120, 111, 181, 120, 195, 1, 1.49984
393, 2, bw, attraction, a-b-db, 14, 3, 8, 25, 195, 120, 111, 181, 120, 195, 2, 0.430685
393, 2, bw, attraction, a-b-da, 5, 3, 8, 26, 195, 120, 120, 195, 190, 117, 3, 0.787255
393, 2, bw, attraction, a-b-da, 5, 3, 8, 26, 195, 120, 120, 195, 190, 117, 2, 0.746197
393, 2, bw, attraction, a-b-db, 5, 3, 8, 27, 117, 190, 120, 195, 195, 120, 2, 1.79401
393, 2, bw, attraction, a-b-db, 5, 3, 8, 27, 117, 190, 120, 195, 195, 120, 1, 0.416621
393, 2, bw, filler, NA, 999, 999, 8, 28, 57, 118, 86, 120, 56, 82, 2, 0.93381
393, 2, bw, filler, NA, 999, 999, 8, 28, 57, 118, 86, 120, 56, 82, 3, 0.975506
393, 2, bw, filler, NA, 999, 999, 8, 29, 116, 193, 130, 70, 67, 161, 1, 1.0538
393, 2, bw, filler, NA, 999, 999, 8, 29, 116, 193, 130, 70, 67, 161, 2, 0.626107
393, 2, bw, attraction, a-b-db, 5, 1, 8, 30, 58, 132, 60, 135, 135, 60, 2, 0.950457
393, 2, bw, attraction, a-b-db, 5, 1, 8, 30, 58, 132, 60, 135, 135, 60, 1, 1.20755
393, 2, bw, filler, NA, 999, 999, 8, 31, 152, 74, 157, 183, 123, 181, 2, 0.908423
393, 2, bw, filler, NA, 999, 999, 8, 31, 152, 74, 157, 183, 123, 181, 1, 0.93492
393, 2, bw, filler, NA, 999, 999, 8, 32, 123, 158, 67, 100, 141, 134, 3, 0.735131
393, 2, bw, filler, NA, 999, 999, 8, 32, 123, 158, 67, 100, 141, 134, 2, 0.960772
393, 2, bw, attraction, a-b-db, 9, 1, 8, 33, 60, 135, 57, 129, 135, 60, 3, 2.34387
393, 2, bw, attraction, a-b-db, 9, 1, 8, 33, 60, 135, 57, 129, 135, 60, 2, 0.448413
393, 2, bw, filler, NA, 999, 999, 8, 34, 156, 70, 117, 130, 99, 98, 2, 0.996253
393, 2, bw, filler, NA, 999, 999, 8, 34, 156, 70, 117, 130, 99, 98, 1, 19.2434
393, 2, bw, catch, NA, 999, 999, 8, 35, 90, 105, 137, 178, 164, 91, 2, 0.75373
393, 2, bw, catch, NA, 999, 999, 8, 35, 90, 105, 137, 178, 164, 91, 1, 0.738818
393, 2, bw, attraction, a-b-db, 14, 1, 8, 36, 60, 135, 56, 125, 135, 60, 3, 8.3313
393, 2, bw, attraction, a-b-db, 14, 1, 8, 36, 60, 135, 56, 125, 135, 60, 2, 0.38658
393, 2, bw, attraction, a-b-da, 14, 1, 8, 37, 60, 135, 125, 56, 135, 60, 1, 0.953134
393, 2, bw, attraction, a-b-da, 14, 1, 8, 37, 60, 135, 125, 56, 135, 60, 2, 0.466154
