sub_n, computer_n, bw_cond, effect, set, distance, diag, block_n, trial_n, h1, w1, h2, w2, h3, w3, choice, rt 
382, 2, wb, practice, NA, 999, 999, 0, 1, 66, 99, 171, 103, 180, 111, 1, 2.82004
382, 2, wb, practice, NA, 999, 999, 0, 1, 66, 99, 171, 103, 180, 111, 3, 11.3691
382, 2, wb, practice, NA, 999, 999, 0, 2, 135, 117, 130, 83, 95, 105, 3, 10.1453
382, 2, wb, practice, NA, 999, 999, 0, 2, 135, 117, 130, 83, 95, 105, 1, 1.44758
382, 2, wb, practice, NA, 999, 999, 0, 3, 64, 181, 150, 125, 96, 181, 1, 2.40975
382, 2, wb, practice, NA, 999, 999, 0, 3, 64, 181, 150, 125, 96, 181, 2, 3.1184
382, 2, wb, attraction, a-b-da, 14, 1, 1, 1, 135, 60, 125, 56, 60, 135, 2, 2.90537
382, 2, wb, attraction, a-b-da, 14, 1, 1, 1, 135, 60, 125, 56, 60, 135, 3, 2.07522
382, 2, wb, attraction, a-b-db, 14, 1, 1, 2, 135, 60, 60, 135, 56, 125, 3, 6.2133
382, 2, wb, attraction, a-b-db, 14, 1, 1, 2, 135, 60, 60, 135, 56, 125, 1, 6.02584
382, 2, wb, attraction, a-b-da, 9, 2, 1, 3, 165, 90, 90, 165, 157, 86, 2, 2.42053
382, 2, wb, attraction, a-b-da, 9, 2, 1, 3, 165, 90, 90, 165, 157, 86, 1, 1.09843
382, 2, wb, attraction, a-b-da, 14, 2, 1, 4, 90, 165, 165, 90, 153, 83, 3, 3.56413
382, 2, wb, attraction, a-b-da, 14, 2, 1, 4, 90, 165, 165, 90, 153, 83, 2, 1.43562
382, 2, wb, attraction, a-b-da, 5, 3, 1, 5, 120, 195, 195, 120, 190, 117, 3, 1.45566
382, 2, wb, attraction, a-b-da, 5, 3, 1, 5, 120, 195, 195, 120, 190, 117, 2, 1.41204
382, 2, wb, attraction, a-b-da, 5, 2, 1, 6, 165, 90, 161, 88, 90, 165, 1, 2.62494
382, 2, wb, attraction, a-b-da, 5, 2, 1, 6, 165, 90, 161, 88, 90, 165, 3, 0.965877
382, 2, wb, attraction, a-b-db, 5, 1, 1, 7, 58, 132, 60, 135, 135, 60, 1, 2.64487
382, 2, wb, attraction, a-b-db, 5, 1, 1, 7, 58, 132, 60, 135, 135, 60, 2, 2.88148
382, 2, wb, catch, NA, 999, 999, 1, 8, 60, 135, 173, 142, 162, 93, 1, 1.22703
382, 2, wb, catch, NA, 999, 999, 1, 8, 60, 135, 173, 142, 162, 93, 2, 0.816723
382, 2, wb, attraction, a-b-da, 9, 1, 1, 9, 129, 57, 135, 60, 60, 135, 2, 1.6376
382, 2, wb, attraction, a-b-da, 9, 1, 1, 9, 129, 57, 135, 60, 60, 135, 3, 0.810537
382, 2, wb, filler, NA, 999, 999, 1, 10, 178, 191, 120, 193, 154, 192, 2, 1.42342
382, 2, wb, filler, NA, 999, 999, 1, 10, 178, 191, 120, 193, 154, 192, 1, 1.03695
382, 2, wb, filler, NA, 999, 999, 1, 11, 139, 186, 114, 135, 155, 175, 2, 1.14543
382, 2, wb, filler, NA, 999, 999, 1, 11, 139, 186, 114, 135, 155, 175, 3, 1.02629
382, 2, wb, filler, NA, 999, 999, 1, 12, 58, 183, 66, 121, 95, 152, 2, 2.33462
382, 2, wb, filler, NA, 999, 999, 1, 12, 58, 183, 66, 121, 95, 152, 1, 9.05575
382, 2, wb, catch, NA, 999, 999, 1, 13, 111, 144, 85, 110, 165, 150, 2, 0.904903
382, 2, wb, catch, NA, 999, 999, 1, 13, 111, 144, 85, 110, 165, 150, 3, 0.299212
382, 2, wb, attraction, a-b-db, 9, 2, 1, 14, 86, 157, 165, 90, 90, 165, 1, 1.92511
382, 2, wb, attraction, a-b-db, 9, 2, 1, 14, 86, 157, 165, 90, 90, 165, 3, 0.294539
382, 2, wb, attraction, a-b-da, 9, 3, 1, 15, 195, 120, 120, 195, 186, 114, 3, 1.68035
382, 2, wb, attraction, a-b-da, 9, 3, 1, 15, 195, 120, 120, 195, 186, 114, 2, 2.06777
382, 2, wb, filler, NA, 999, 999, 1, 16, 151, 140, 156, 92, 114, 128, 3, 1.17446
382, 2, wb, filler, NA, 999, 999, 1, 16, 151, 140, 156, 92, 114, 128, 1, 1.01399
382, 2, wb, attraction, a-b-da, 14, 3, 1, 17, 195, 120, 181, 111, 120, 195, 2, 1.91503
382, 2, wb, attraction, a-b-da, 14, 3, 1, 17, 195, 120, 181, 111, 120, 195, 1, 1.70906
382, 2, wb, filler, NA, 999, 999, 1, 18, 176, 183, 175, 93, 98, 86, 3, 1.09367
382, 2, wb, filler, NA, 999, 999, 1, 18, 176, 183, 175, 93, 98, 86, 1, 0.360756
382, 2, wb, filler, NA, 999, 999, 1, 19, 169, 146, 77, 119, 59, 78, 3, 0.855747
382, 2, wb, filler, NA, 999, 999, 1, 19, 169, 146, 77, 119, 59, 78, 1, 0.372191
382, 2, wb, catch, NA, 999, 999, 1, 20, 116, 139, 97, 98, 152, 163, 2, 0.971346
382, 2, wb, catch, NA, 999, 999, 1, 20, 116, 139, 97, 98, 152, 163, 3, 0.274998
382, 2, wb, attraction, a-b-db, 5, 3, 1, 21, 117, 190, 195, 120, 120, 195, 2, 3.94165
382, 2, wb, attraction, a-b-db, 5, 3, 1, 21, 117, 190, 195, 120, 120, 195, 3, 0.349597
382, 2, wb, attraction, a-b-db, 14, 3, 1, 22, 195, 120, 120, 195, 111, 181, 3, 1.46145
382, 2, wb, attraction, a-b-db, 14, 3, 1, 22, 195, 120, 120, 195, 111, 181, 1, 1.96956
382, 2, wb, attraction, a-b-db, 2, 3, 1, 23, 119, 193, 120, 195, 195, 120, 1, 3.44829
382, 2, wb, attraction, a-b-db, 2, 3, 1, 23, 119, 193, 120, 195, 195, 120, 2, 1.17268
382, 2, wb, attraction, a-b-db, 5, 2, 1, 24, 165, 90, 88, 161, 90, 165, 3, 4.37955
382, 2, wb, attraction, a-b-db, 5, 2, 1, 24, 165, 90, 88, 161, 90, 165, 1, 0.890063
382, 2, wb, attraction, a-b-db, 14, 2, 1, 25, 83, 153, 165, 90, 90, 165, 2, 1.01173
382, 2, wb, attraction, a-b-db, 14, 2, 1, 25, 83, 153, 165, 90, 90, 165, 3, 0.874031
382, 2, wb, filler, NA, 999, 999, 1, 26, 101, 71, 95, 107, 179, 168, 1, 1.65235
382, 2, wb, filler, NA, 999, 999, 1, 26, 101, 71, 95, 107, 179, 168, 3, 0.281138
382, 2, wb, filler, NA, 999, 999, 1, 27, 61, 113, 118, 179, 62, 145, 1, 2.42781
382, 2, wb, filler, NA, 999, 999, 1, 27, 61, 113, 118, 179, 62, 145, 2, 0.61696
382, 2, wb, filler, NA, 999, 999, 1, 28, 96, 105, 171, 137, 133, 131, 1, 1.10996
382, 2, wb, filler, NA, 999, 999, 1, 28, 96, 105, 171, 137, 133, 131, 2, 0.400332
382, 2, wb, attraction, a-b-da, 2, 3, 1, 29, 120, 195, 195, 120, 193, 119, 2, 6.62209
382, 2, wb, attraction, a-b-da, 2, 3, 1, 29, 120, 195, 195, 120, 193, 119, 1, 0.32211
382, 2, wb, attraction, a-b-da, 2, 2, 1, 30, 163, 89, 90, 165, 165, 90, 3, 2.5872
382, 2, wb, attraction, a-b-da, 2, 2, 1, 30, 163, 89, 90, 165, 165, 90, 2, 1.56243
382, 2, wb, attraction, a-b-db, 2, 1, 1, 31, 60, 135, 59, 134, 135, 60, 2, 2.36915
382, 2, wb, attraction, a-b-db, 2, 1, 1, 31, 60, 135, 59, 134, 135, 60, 3, 0.313036
382, 2, wb, attraction, a-b-db, 9, 3, 1, 32, 114, 186, 195, 120, 120, 195, 1, 1.61816
382, 2, wb, attraction, a-b-db, 9, 3, 1, 32, 114, 186, 195, 120, 120, 195, 2, 1.12835
382, 2, wb, attraction, a-b-db, 2, 2, 1, 33, 89, 163, 90, 165, 165, 90, 1, 0.912671
382, 2, wb, attraction, a-b-db, 2, 2, 1, 33, 89, 163, 90, 165, 165, 90, 3, 1.1949
382, 2, wb, attraction, a-b-db, 9, 1, 1, 34, 135, 60, 60, 135, 57, 129, 2, 1.04852
382, 2, wb, attraction, a-b-db, 9, 1, 1, 34, 135, 60, 60, 135, 57, 129, 3, 4.60548
382, 2, wb, attraction, a-b-da, 2, 1, 1, 35, 134, 59, 60, 135, 135, 60, 2, 3.40194
382, 2, wb, attraction, a-b-da, 2, 1, 1, 35, 134, 59, 60, 135, 135, 60, 3, 1.12022
382, 2, wb, filler, NA, 999, 999, 1, 36, 155, 83, 163, 136, 171, 116, 1, 2.68132
382, 2, wb, filler, NA, 999, 999, 1, 36, 155, 83, 163, 136, 171, 116, 2, 0.54836
382, 2, wb, attraction, a-b-da, 5, 1, 1, 37, 60, 135, 132, 58, 135, 60, 1, 2.02807
382, 2, wb, attraction, a-b-da, 5, 1, 1, 37, 60, 135, 132, 58, 135, 60, 3, 0.713441
382, 2, wb, attraction, a-b-db, 2, 3, 2, 1, 195, 120, 120, 195, 119, 193, 3, 4.01048
382, 2, wb, attraction, a-b-db, 2, 3, 2, 1, 195, 120, 120, 195, 119, 193, 1, 0.991926
382, 2, wb, attraction, a-b-da, 14, 3, 2, 2, 120, 195, 195, 120, 181, 111, 3, 1.18145
382, 2, wb, attraction, a-b-da, 14, 3, 2, 2, 120, 195, 195, 120, 181, 111, 2, 1.50904
382, 2, wb, attraction, a-b-db, 9, 3, 2, 3, 114, 186, 120, 195, 195, 120, 3, 1.55788
382, 2, wb, attraction, a-b-db, 9, 3, 2, 3, 114, 186, 120, 195, 195, 120, 2, 0.54216
382, 2, wb, filler, NA, 999, 999, 2, 4, 143, 121, 85, 112, 89, 191, 2, 1.0618
382, 2, wb, filler, NA, 999, 999, 2, 4, 143, 121, 85, 112, 89, 191, 3, 3.6901
382, 2, wb, attraction, a-b-da, 14, 2, 2, 5, 90, 165, 153, 83, 165, 90, 2, 1.6516
382, 2, wb, attraction, a-b-da, 14, 2, 2, 5, 90, 165, 153, 83, 165, 90, 1, 0.320399
382, 2, wb, attraction, a-b-da, 14, 1, 2, 6, 60, 135, 135, 60, 125, 56, 3, 1.1857
382, 2, wb, attraction, a-b-da, 14, 1, 2, 6, 60, 135, 135, 60, 125, 56, 1, 0.321134
382, 2, wb, attraction, a-b-da, 5, 2, 2, 7, 165, 90, 90, 165, 161, 88, 3, 1.96233
382, 2, wb, attraction, a-b-da, 5, 2, 2, 7, 165, 90, 90, 165, 161, 88, 1, 1.11438
382, 2, wb, filler, NA, 999, 999, 2, 8, 179, 59, 123, 114, 94, 160, 1, 2.1473
382, 2, wb, filler, NA, 999, 999, 2, 8, 179, 59, 123, 114, 94, 160, 3, 0.763975
382, 2, wb, attraction, a-b-da, 9, 1, 2, 9, 129, 57, 60, 135, 135, 60, 1, 1.25898
382, 2, wb, attraction, a-b-da, 9, 1, 2, 9, 129, 57, 60, 135, 135, 60, 3, 0.447221
382, 2, wb, attraction, a-b-da, 2, 2, 2, 10, 90, 165, 165, 90, 163, 89, 2, 1.38697
382, 2, wb, attraction, a-b-da, 2, 2, 2, 10, 90, 165, 165, 90, 163, 89, 1, 0.258606
382, 2, wb, catch, NA, 999, 999, 2, 11, 110, 85, 105, 150, 165, 150, 1, 0.685838
382, 2, wb, catch, NA, 999, 999, 2, 11, 110, 85, 105, 150, 165, 150, 3, 0.313461
382, 2, wb, attraction, a-b-da, 2, 1, 2, 12, 60, 135, 135, 60, 134, 59, 2, 1.45061
382, 2, wb, attraction, a-b-da, 2, 1, 2, 12, 60, 135, 135, 60, 134, 59, 1, 0.255479
382, 2, wb, attraction, a-b-da, 2, 3, 2, 13, 120, 195, 195, 120, 193, 119, 2, 2.0513
382, 2, wb, attraction, a-b-da, 2, 3, 2, 13, 120, 195, 195, 120, 193, 119, 1, 0.696055
382, 2, wb, attraction, a-b-da, 9, 3, 2, 14, 120, 195, 186, 114, 195, 120, 2, 1.2098
382, 2, wb, attraction, a-b-da, 9, 3, 2, 14, 120, 195, 186, 114, 195, 120, 3, 1.60812
382, 2, wb, filler, NA, 999, 999, 2, 15, 101, 77, 155, 148, 181, 171, 1, 0.788756
382, 2, wb, filler, NA, 999, 999, 2, 15, 101, 77, 155, 148, 181, 171, 3, 0.30777
382, 2, wb, attraction, a-b-db, 14, 3, 2, 16, 120, 195, 111, 181, 195, 120, 2, 2.20525
382, 2, wb, attraction, a-b-db, 14, 3, 2, 16, 120, 195, 111, 181, 195, 120, 1, 0.275084
382, 2, wb, attraction, a-b-db, 14, 1, 2, 17, 56, 125, 135, 60, 60, 135, 1, 1.56548
382, 2, wb, attraction, a-b-db, 14, 1, 2, 17, 56, 125, 135, 60, 60, 135, 3, 1.07765
382, 2, wb, attraction, a-b-da, 5, 1, 2, 18, 60, 135, 132, 58, 135, 60, 2, 3.57602
382, 2, wb, attraction, a-b-da, 5, 1, 2, 18, 60, 135, 132, 58, 135, 60, 1, 0.806827
382, 2, wb, filler, NA, 999, 999, 2, 19, 162, 88, 66, 81, 158, 193, 2, 0.79582
382, 2, wb, filler, NA, 999, 999, 2, 19, 162, 88, 66, 81, 158, 193, 3, 0.2029
382, 2, wb, attraction, a-b-db, 9, 1, 2, 20, 60, 135, 135, 60, 57, 129, 3, 1.50472
382, 2, wb, attraction, a-b-db, 9, 1, 2, 20, 60, 135, 135, 60, 57, 129, 1, 0.538898
382, 2, wb, attraction, a-b-db, 2, 2, 2, 21, 89, 163, 90, 165, 165, 90, 1, 2.6833
382, 2, wb, attraction, a-b-db, 2, 2, 2, 21, 89, 163, 90, 165, 165, 90, 3, 0.286518
382, 2, wb, filler, NA, 999, 999, 2, 22, 161, 118, 191, 81, 193, 156, 2, 0.90502
382, 2, wb, filler, NA, 999, 999, 2, 22, 161, 118, 191, 81, 193, 156, 3, 0.299436
382, 2, wb, attraction, a-b-db, 2, 1, 2, 23, 135, 60, 59, 134, 60, 135, 2, 1.59723
382, 2, wb, attraction, a-b-db, 2, 1, 2, 23, 135, 60, 59, 134, 60, 135, 1, 0.244005
382, 2, wb, filler, NA, 999, 999, 2, 24, 90, 83, 178, 185, 57, 168, 1, 1.00784
382, 2, wb, filler, NA, 999, 999, 2, 24, 90, 83, 178, 185, 57, 168, 2, 0.150143
382, 2, wb, attraction, a-b-db, 14, 2, 2, 25, 165, 90, 83, 153, 90, 165, 2, 0.726061
382, 2, wb, attraction, a-b-db, 14, 2, 2, 25, 165, 90, 83, 153, 90, 165, 1, 0.23179
382, 2, wb, attraction, a-b-da, 9, 2, 2, 26, 157, 86, 165, 90, 90, 165, 1, 1.57235
382, 2, wb, attraction, a-b-da, 9, 2, 2, 26, 157, 86, 165, 90, 90, 165, 3, 0.275964
382, 2, wb, filler, NA, 999, 999, 2, 27, 114, 103, 113, 139, 169, 149, 1, 0.934346
382, 2, wb, filler, NA, 999, 999, 2, 27, 114, 103, 113, 139, 169, 149, 3, 0.21608
382, 2, wb, attraction, a-b-da, 5, 3, 2, 28, 195, 120, 120, 195, 190, 117, 3, 1.20528
382, 2, wb, attraction, a-b-da, 5, 3, 2, 28, 195, 120, 120, 195, 190, 117, 2, 1.6597
382, 2, wb, catch, NA, 999, 999, 2, 29, 126, 129, 82, 113, 190, 125, 2, 2.39825
382, 2, wb, catch, NA, 999, 999, 2, 29, 126, 129, 82, 113, 190, 125, 3, 0.236843
382, 2, wb, attraction, a-b-db, 5, 3, 2, 30, 195, 120, 117, 190, 120, 195, 3, 6.50537
382, 2, wb, attraction, a-b-db, 5, 3, 2, 30, 195, 120, 117, 190, 120, 195, 1, 0.258553
382, 2, wb, attraction, a-b-db, 5, 1, 2, 31, 58, 132, 60, 135, 135, 60, 1, 2.44578
382, 2, wb, attraction, a-b-db, 5, 1, 2, 31, 58, 132, 60, 135, 135, 60, 3, 1.4344
382, 2, wb, attraction, a-b-db, 5, 2, 2, 32, 88, 161, 165, 90, 90, 165, 2, 1.54254
382, 2, wb, attraction, a-b-db, 5, 2, 2, 32, 88, 161, 165, 90, 90, 165, 3, 0.927429
382, 2, wb, filler, NA, 999, 999, 2, 33, 72, 142, 127, 131, 141, 77, 1, 0.871805
382, 2, wb, filler, NA, 999, 999, 2, 33, 72, 142, 127, 131, 141, 77, 2, 0.675406
382, 2, wb, filler, NA, 999, 999, 2, 34, 130, 166, 100, 153, 84, 194, 2, 0.845771
382, 2, wb, filler, NA, 999, 999, 2, 34, 130, 166, 100, 153, 84, 194, 1, 0.218842
382, 2, wb, filler, NA, 999, 999, 2, 35, 183, 194, 177, 62, 158, 91, 2, 0.66411
382, 2, wb, filler, NA, 999, 999, 2, 35, 183, 194, 177, 62, 158, 91, 1, 0.172598
382, 2, wb, catch, NA, 999, 999, 2, 36, 165, 150, 157, 98, 79, 116, 3, 0.850943
382, 2, wb, catch, NA, 999, 999, 2, 36, 165, 150, 157, 98, 79, 116, 1, 0.43206
382, 2, wb, attraction, a-b-db, 9, 2, 2, 37, 86, 157, 165, 90, 90, 165, 1, 2.74876
382, 2, wb, attraction, a-b-db, 9, 2, 2, 37, 86, 157, 165, 90, 90, 165, 3, 0.34897
382, 2, wb, attraction, a-b-da, 2, 3, 3, 1, 120, 195, 195, 120, 193, 119, 3, 2.00491
382, 2, wb, attraction, a-b-da, 2, 3, 3, 1, 120, 195, 195, 120, 193, 119, 2, 0.818875
382, 2, wb, attraction, a-b-da, 9, 1, 3, 2, 135, 60, 60, 135, 129, 57, 2, 1.11981
382, 2, wb, attraction, a-b-da, 9, 1, 3, 2, 135, 60, 60, 135, 129, 57, 1, 0.410112
382, 2, wb, catch, NA, 999, 999, 3, 3, 136, 119, 146, 169, 75, 120, 3, 1.16734
382, 2, wb, catch, NA, 999, 999, 3, 3, 136, 119, 146, 169, 75, 120, 2, 0.263505
382, 2, wb, filler, NA, 999, 999, 3, 4, 56, 112, 182, 194, 103, 173, 1, 0.642794
382, 2, wb, filler, NA, 999, 999, 3, 4, 56, 112, 182, 194, 103, 173, 2, 0.20786
382, 2, wb, attraction, a-b-db, 9, 3, 3, 5, 120, 195, 114, 186, 195, 120, 2, 1.42905
382, 2, wb, attraction, a-b-db, 9, 3, 3, 5, 120, 195, 114, 186, 195, 120, 3, 0.250575
382, 2, wb, attraction, a-b-db, 14, 1, 3, 6, 56, 125, 60, 135, 135, 60, 1, 1.71839
382, 2, wb, attraction, a-b-db, 14, 1, 3, 6, 56, 125, 60, 135, 135, 60, 3, 1.49656
382, 2, wb, attraction, a-b-db, 14, 2, 3, 7, 90, 165, 165, 90, 83, 153, 3, 0.786146
382, 2, wb, attraction, a-b-db, 14, 2, 3, 7, 90, 165, 165, 90, 83, 153, 2, 0.289697
382, 2, wb, filler, NA, 999, 999, 3, 8, 177, 181, 167, 125, 114, 169, 3, 1.30763
382, 2, wb, filler, NA, 999, 999, 3, 8, 177, 181, 167, 125, 114, 169, 1, 0.253792
382, 2, wb, attraction, a-b-db, 5, 2, 3, 9, 165, 90, 90, 165, 88, 161, 1, 1.63372
382, 2, wb, attraction, a-b-db, 5, 2, 3, 9, 165, 90, 90, 165, 88, 161, 3, 0.31927
382, 2, wb, catch, NA, 999, 999, 3, 10, 179, 136, 158, 97, 120, 75, 3, 1.26433
382, 2, wb, catch, NA, 999, 999, 3, 10, 179, 136, 158, 97, 120, 75, 1, 0.356679
382, 2, wb, attraction, a-b-db, 9, 1, 3, 11, 60, 135, 135, 60, 57, 129, 2, 1.65179
382, 2, wb, attraction, a-b-db, 9, 1, 3, 11, 60, 135, 135, 60, 57, 129, 1, 0.328507
382, 2, wb, attraction, a-b-da, 14, 3, 3, 12, 120, 195, 195, 120, 181, 111, 1, 2.21708
382, 2, wb, attraction, a-b-da, 14, 3, 3, 12, 120, 195, 195, 120, 181, 111, 2, 0.391019
382, 2, wb, attraction, a-b-db, 9, 2, 3, 13, 165, 90, 86, 157, 90, 165, 2, 1.34888
382, 2, wb, attraction, a-b-db, 9, 2, 3, 13, 165, 90, 86, 157, 90, 165, 1, 0.317784
382, 2, wb, attraction, a-b-da, 2, 1, 3, 14, 60, 135, 134, 59, 135, 60, 2, 0.894871
382, 2, wb, attraction, a-b-da, 2, 1, 3, 14, 60, 135, 134, 59, 135, 60, 1, 0.913929
382, 2, wb, attraction, a-b-db, 2, 2, 3, 15, 90, 165, 165, 90, 89, 163, 2, 4.69086
382, 2, wb, attraction, a-b-db, 2, 2, 3, 15, 90, 165, 165, 90, 89, 163, 3, 0.20479
382, 2, wb, filler, NA, 999, 999, 3, 16, 170, 171, 166, 143, 128, 107, 3, 0.882701
382, 2, wb, filler, NA, 999, 999, 3, 16, 170, 171, 166, 143, 128, 107, 1, 0.230436
382, 2, wb, attraction, a-b-da, 5, 2, 3, 17, 90, 165, 161, 88, 165, 90, 3, 2.05884
382, 2, wb, attraction, a-b-da, 5, 2, 3, 17, 90, 165, 161, 88, 165, 90, 1, 0.214861
382, 2, wb, attraction, a-b-da, 5, 1, 3, 18, 132, 58, 135, 60, 60, 135, 1, 1.66009
382, 2, wb, attraction, a-b-da, 5, 1, 3, 18, 132, 58, 135, 60, 60, 135, 3, 0.288163
382, 2, wb, filler, NA, 999, 999, 3, 19, 189, 155, 100, 114, 138, 76, 3, 1.69068
382, 2, wb, filler, NA, 999, 999, 3, 19, 189, 155, 100, 114, 138, 76, 1, 0.405478
382, 2, wb, attraction, a-b-db, 2, 3, 3, 20, 120, 195, 119, 193, 195, 120, 3, 3.9473
382, 2, wb, attraction, a-b-db, 2, 3, 3, 20, 120, 195, 119, 193, 195, 120, 1, 0.275317
382, 2, wb, filler, NA, 999, 999, 3, 21, 143, 57, 192, 67, 192, 125, 1, 1.93396
382, 2, wb, filler, NA, 999, 999, 3, 21, 143, 57, 192, 67, 192, 125, 3, 0.367258
382, 2, wb, filler, NA, 999, 999, 3, 22, 135, 64, 189, 78, 75, 87, 3, 0.782407
382, 2, wb, filler, NA, 999, 999, 3, 22, 135, 64, 189, 78, 75, 87, 2, 0.294121
382, 2, wb, catch, NA, 999, 999, 3, 23, 60, 135, 106, 149, 165, 150, 1, 1.792
382, 2, wb, catch, NA, 999, 999, 3, 23, 60, 135, 106, 149, 165, 150, 3, 0.254779
382, 2, wb, attraction, a-b-da, 14, 2, 3, 24, 165, 90, 153, 83, 90, 165, 1, 1.29852
382, 2, wb, attraction, a-b-da, 14, 2, 3, 24, 165, 90, 153, 83, 90, 165, 3, 0.317449
382, 2, wb, filler, NA, 999, 999, 3, 25, 141, 134, 150, 87, 91, 169, 2, 1.05468
382, 2, wb, filler, NA, 999, 999, 3, 25, 141, 134, 150, 87, 91, 169, 1, 0.483046
382, 2, wb, attraction, a-b-db, 5, 3, 3, 26, 120, 195, 117, 190, 195, 120, 2, 3.96544
382, 2, wb, attraction, a-b-db, 5, 3, 3, 26, 120, 195, 117, 190, 195, 120, 3, 0.436848
382, 2, wb, attraction, a-b-da, 9, 2, 3, 27, 157, 86, 165, 90, 90, 165, 2, 0.849323
382, 2, wb, attraction, a-b-da, 9, 2, 3, 27, 157, 86, 165, 90, 90, 165, 3, 0.166478
382, 2, wb, attraction, a-b-db, 5, 1, 3, 28, 135, 60, 58, 132, 60, 135, 1, 1.76562
382, 2, wb, attraction, a-b-db, 5, 1, 3, 28, 135, 60, 58, 132, 60, 135, 2, 0.205664
382, 2, wb, filler, NA, 999, 999, 3, 29, 119, 82, 80, 148, 73, 97, 3, 2.61959
382, 2, wb, filler, NA, 999, 999, 3, 29, 119, 82, 80, 148, 73, 97, 2, 2.31337
382, 2, wb, filler, NA, 999, 999, 3, 30, 97, 62, 180, 188, 140, 180, 1, 1.20989
382, 2, wb, filler, NA, 999, 999, 3, 30, 97, 62, 180, 188, 140, 180, 2, 0.256162
382, 2, wb, attraction, a-b-da, 9, 3, 3, 31, 120, 195, 186, 114, 195, 120, 2, 1.46738
382, 2, wb, attraction, a-b-da, 9, 3, 3, 31, 120, 195, 186, 114, 195, 120, 3, 0.159472
382, 2, wb, attraction, a-b-db, 14, 3, 3, 32, 195, 120, 111, 181, 120, 195, 2, 3.43881
382, 2, wb, attraction, a-b-db, 14, 3, 3, 32, 195, 120, 111, 181, 120, 195, 1, 0.315019
382, 2, wb, filler, NA, 999, 999, 3, 33, 76, 66, 96, 145, 192, 121, 1, 0.724111
382, 2, wb, filler, NA, 999, 999, 3, 33, 76, 66, 96, 145, 192, 121, 3, 1.00595
382, 2, wb, attraction, a-b-da, 14, 1, 3, 34, 125, 56, 135, 60, 60, 135, 2, 1.09955
382, 2, wb, attraction, a-b-da, 14, 1, 3, 34, 125, 56, 135, 60, 60, 135, 3, 0.214473
382, 2, wb, attraction, a-b-da, 2, 2, 3, 35, 90, 165, 165, 90, 163, 89, 1, 3.56372
382, 2, wb, attraction, a-b-da, 2, 2, 3, 35, 90, 165, 165, 90, 163, 89, 3, 0.3154
382, 2, wb, attraction, a-b-db, 2, 1, 3, 36, 135, 60, 59, 134, 60, 135, 2, 1.62838
382, 2, wb, attraction, a-b-db, 2, 1, 3, 36, 135, 60, 59, 134, 60, 135, 1, 0.281827
382, 2, wb, attraction, a-b-da, 5, 3, 3, 37, 120, 195, 195, 120, 190, 117, 2, 0.860385
382, 2, wb, attraction, a-b-da, 5, 3, 3, 37, 120, 195, 195, 120, 190, 117, 1, 0.856795
382, 2, wb, attraction, a-b-db, 14, 1, 4, 1, 56, 125, 60, 135, 135, 60, 2, 1.05978
382, 2, wb, attraction, a-b-db, 14, 1, 4, 1, 56, 125, 60, 135, 135, 60, 1, 0.256005
382, 2, wb, attraction, a-b-db, 5, 2, 4, 2, 90, 165, 88, 161, 165, 90, 2, 1.37931
382, 2, wb, attraction, a-b-db, 5, 2, 4, 2, 90, 165, 88, 161, 165, 90, 3, 0.346836
382, 2, wb, attraction, a-b-db, 14, 3, 4, 3, 195, 120, 120, 195, 111, 181, 3, 1.49883
382, 2, wb, attraction, a-b-db, 14, 3, 4, 3, 195, 120, 120, 195, 111, 181, 1, 0.413513
382, 2, wb, attraction, a-b-db, 9, 1, 4, 4, 57, 129, 60, 135, 135, 60, 1, 0.946645
382, 2, wb, attraction, a-b-db, 9, 1, 4, 4, 57, 129, 60, 135, 135, 60, 2, 0.419677
382, 2, wb, attraction, a-b-da, 5, 1, 4, 5, 60, 135, 135, 60, 132, 58, 2, 0.896838
382, 2, wb, attraction, a-b-da, 5, 1, 4, 5, 60, 135, 135, 60, 132, 58, 1, 0.267913
382, 2, wb, filler, NA, 999, 999, 4, 6, 148, 99, 107, 88, 183, 118, 2, 0.942998
382, 2, wb, filler, NA, 999, 999, 4, 6, 148, 99, 107, 88, 183, 118, 3, 0.200056
382, 2, wb, attraction, a-b-db, 2, 2, 4, 7, 165, 90, 90, 165, 89, 163, 3, 1.67791
382, 2, wb, attraction, a-b-db, 2, 2, 4, 7, 165, 90, 90, 165, 89, 163, 1, 0.401405
382, 2, wb, attraction, a-b-da, 5, 2, 4, 8, 161, 88, 90, 165, 165, 90, 3, 1.47122
382, 2, wb, attraction, a-b-da, 5, 2, 4, 8, 161, 88, 90, 165, 165, 90, 2, 0.266876
382, 2, wb, filler, NA, 999, 999, 4, 9, 172, 60, 73, 112, 118, 153, 2, 1.33385
382, 2, wb, filler, NA, 999, 999, 4, 9, 172, 60, 73, 112, 118, 153, 1, 0.367446
382, 2, wb, filler, NA, 999, 999, 4, 10, 81, 116, 75, 113, 138, 106, 2, 2.3906
382, 2, wb, filler, NA, 999, 999, 4, 10, 81, 116, 75, 113, 138, 106, 3, 1.95723
382, 2, wb, attraction, a-b-db, 9, 2, 4, 11, 165, 90, 90, 165, 86, 157, 3, 2.6118
382, 2, wb, attraction, a-b-db, 9, 2, 4, 11, 165, 90, 90, 165, 86, 157, 1, 0.505665
382, 2, wb, attraction, a-b-da, 2, 2, 4, 12, 165, 90, 90, 165, 163, 89, 1, 2.0436
382, 2, wb, attraction, a-b-da, 2, 2, 4, 12, 165, 90, 90, 165, 163, 89, 2, 0.560141
382, 2, wb, attraction, a-b-db, 2, 3, 4, 13, 120, 195, 119, 193, 195, 120, 3, 1.39125
382, 2, wb, attraction, a-b-db, 2, 3, 4, 13, 120, 195, 119, 193, 195, 120, 2, 0.22221
382, 2, wb, attraction, a-b-da, 9, 3, 4, 14, 186, 114, 195, 120, 120, 195, 1, 3.27533
382, 2, wb, attraction, a-b-da, 9, 3, 4, 14, 186, 114, 195, 120, 120, 195, 3, 0.174223
382, 2, wb, filler, NA, 999, 999, 4, 15, 142, 115, 81, 149, 159, 177, 2, 0.980865
382, 2, wb, filler, NA, 999, 999, 4, 15, 142, 115, 81, 149, 159, 177, 3, 0.156606
382, 2, wb, attraction, a-b-db, 5, 3, 4, 16, 117, 190, 120, 195, 195, 120, 1, 1.05965
382, 2, wb, attraction, a-b-db, 5, 3, 4, 16, 117, 190, 120, 195, 195, 120, 3, 0.968089
382, 2, wb, filler, NA, 999, 999, 4, 17, 115, 128, 126, 115, 179, 65, 3, 5.04707
382, 2, wb, filler, NA, 999, 999, 4, 17, 115, 128, 126, 115, 179, 65, 1, 1.17079
382, 2, wb, filler, NA, 999, 999, 4, 18, 130, 57, 60, 56, 67, 80, 2, 1.41767
382, 2, wb, filler, NA, 999, 999, 4, 18, 130, 57, 60, 56, 67, 80, 1, 0.423735
382, 2, wb, attraction, a-b-db, 14, 2, 4, 19, 83, 153, 165, 90, 90, 165, 1, 1.98826
382, 2, wb, attraction, a-b-db, 14, 2, 4, 19, 83, 153, 165, 90, 90, 165, 3, 0.20293
382, 2, wb, attraction, a-b-da, 9, 1, 4, 20, 60, 135, 135, 60, 129, 57, 1, 1.97677
382, 2, wb, attraction, a-b-da, 9, 1, 4, 20, 60, 135, 135, 60, 129, 57, 2, 0.456161
382, 2, wb, attraction, a-b-da, 14, 2, 4, 21, 90, 165, 153, 83, 165, 90, 2, 2.75532
382, 2, wb, attraction, a-b-da, 14, 2, 4, 21, 90, 165, 153, 83, 165, 90, 1, 1.4991
382, 2, wb, filler, NA, 999, 999, 4, 22, 161, 144, 116, 164, 102, 146, 2, 1.26057
382, 2, wb, filler, NA, 999, 999, 4, 22, 161, 144, 116, 164, 102, 146, 3, 2.24083
382, 2, wb, attraction, a-b-da, 2, 3, 4, 23, 120, 195, 193, 119, 195, 120, 1, 2.31613
382, 2, wb, attraction, a-b-da, 2, 3, 4, 23, 120, 195, 193, 119, 195, 120, 3, 0.277943
382, 2, wb, attraction, a-b-db, 2, 1, 4, 24, 135, 60, 60, 135, 59, 134, 1, 0.944446
382, 2, wb, attraction, a-b-db, 2, 1, 4, 24, 135, 60, 60, 135, 59, 134, 2, 0.353578
382, 2, wb, attraction, a-b-da, 14, 3, 4, 25, 181, 111, 195, 120, 120, 195, 1, 1.0413
382, 2, wb, attraction, a-b-da, 14, 3, 4, 25, 181, 111, 195, 120, 120, 195, 3, 0.974371
382, 2, wb, attraction, a-b-db, 5, 1, 4, 26, 60, 135, 58, 132, 135, 60, 2, 0.8606
382, 2, wb, attraction, a-b-db, 5, 1, 4, 26, 60, 135, 58, 132, 135, 60, 3, 0.22498
382, 2, wb, catch, NA, 999, 999, 4, 27, 108, 87, 95, 160, 188, 127, 1, 0.701582
382, 2, wb, catch, NA, 999, 999, 4, 27, 108, 87, 95, 160, 188, 127, 3, 0.400648
382, 2, wb, catch, NA, 999, 999, 4, 28, 181, 134, 62, 133, 158, 97, 2, 1.38241
382, 2, wb, catch, NA, 999, 999, 4, 28, 181, 134, 62, 133, 158, 97, 1, 0.165955
382, 2, wb, attraction, a-b-db, 9, 3, 4, 29, 114, 186, 120, 195, 195, 120, 1, 1.81316
382, 2, wb, attraction, a-b-db, 9, 3, 4, 29, 114, 186, 120, 195, 195, 120, 2, 0.211254
382, 2, wb, attraction, a-b-da, 5, 3, 4, 30, 120, 195, 190, 117, 195, 120, 2, 2.27241
382, 2, wb, attraction, a-b-da, 5, 3, 4, 30, 120, 195, 190, 117, 195, 120, 1, 0.37176
382, 2, wb, attraction, a-b-da, 2, 1, 4, 31, 60, 135, 135, 60, 134, 59, 2, 0.810964
382, 2, wb, attraction, a-b-da, 2, 1, 4, 31, 60, 135, 135, 60, 134, 59, 3, 0.17737
382, 2, wb, attraction, a-b-da, 9, 2, 4, 32, 157, 86, 165, 90, 90, 165, 2, 1.54391
382, 2, wb, attraction, a-b-da, 9, 2, 4, 32, 157, 86, 165, 90, 90, 165, 1, 0.17662
382, 2, wb, catch, NA, 999, 999, 4, 33, 92, 163, 66, 129, 171, 144, 2, 1.4793
382, 2, wb, catch, NA, 999, 999, 4, 33, 92, 163, 66, 129, 171, 144, 3, 0.386663
382, 2, wb, filler, NA, 999, 999, 4, 34, 59, 156, 150, 173, 181, 155, 1, 1.24913
382, 2, wb, filler, NA, 999, 999, 4, 34, 59, 156, 150, 173, 181, 155, 2, 2.11017
382, 2, wb, attraction, a-b-da, 14, 1, 4, 35, 135, 60, 60, 135, 125, 56, 3, 2.10275
382, 2, wb, attraction, a-b-da, 14, 1, 4, 35, 135, 60, 60, 135, 125, 56, 2, 0.425349
382, 2, wb, filler, NA, 999, 999, 4, 36, 115, 185, 69, 119, 104, 117, 2, 0.997885
382, 2, wb, filler, NA, 999, 999, 4, 36, 115, 185, 69, 119, 104, 117, 1, 0.172939
382, 2, wb, filler, NA, 999, 999, 4, 37, 141, 70, 171, 103, 159, 107, 1, 0.883405
382, 2, wb, filler, NA, 999, 999, 4, 37, 141, 70, 171, 103, 159, 107, 2, 0.207061
382, 2, wb, attraction, a-b-db, 14, 3, 5, 1, 120, 195, 111, 181, 195, 120, 2, 2.53897
382, 2, wb, attraction, a-b-db, 14, 3, 5, 1, 120, 195, 111, 181, 195, 120, 1, 0.260897
382, 2, wb, attraction, a-b-da, 9, 2, 5, 2, 157, 86, 90, 165, 165, 90, 3, 1.49465
382, 2, wb, attraction, a-b-da, 9, 2, 5, 2, 157, 86, 90, 165, 165, 90, 2, 0.793586
382, 2, wb, attraction, a-b-da, 9, 1, 5, 3, 60, 135, 129, 57, 135, 60, 3, 1.72707
382, 2, wb, attraction, a-b-da, 9, 1, 5, 3, 60, 135, 129, 57, 135, 60, 1, 0.968652
382, 2, wb, filler, NA, 999, 999, 5, 4, 143, 128, 70, 124, 94, 142, 2, 0.823531
382, 2, wb, filler, NA, 999, 999, 5, 4, 143, 128, 70, 124, 94, 142, 1, 0.773376
382, 2, wb, attraction, a-b-db, 2, 3, 5, 5, 195, 120, 120, 195, 119, 193, 3, 1.49183
382, 2, wb, attraction, a-b-db, 2, 3, 5, 5, 195, 120, 120, 195, 119, 193, 1, 0.478488
382, 2, wb, attraction, a-b-db, 5, 2, 5, 6, 165, 90, 88, 161, 90, 165, 2, 1.001
382, 2, wb, attraction, a-b-db, 5, 2, 5, 6, 165, 90, 88, 161, 90, 165, 1, 0.239901
382, 2, wb, filler, NA, 999, 999, 5, 7, 162, 150, 97, 149, 103, 185, 2, 0.563719
382, 2, wb, filler, NA, 999, 999, 5, 7, 162, 150, 97, 149, 103, 185, 1, 0.244283
382, 2, wb, catch, NA, 999, 999, 5, 8, 94, 101, 178, 137, 122, 133, 1, 0.568177
382, 2, wb, catch, NA, 999, 999, 5, 8, 94, 101, 178, 137, 122, 133, 2, 0.224676
382, 2, wb, attraction, a-b-db, 9, 3, 5, 9, 114, 186, 120, 195, 195, 120, 2, 0.805234
382, 2, wb, attraction, a-b-db, 9, 3, 5, 9, 114, 186, 120, 195, 195, 120, 3, 0.147582
382, 2, wb, catch, NA, 999, 999, 5, 10, 183, 132, 62, 133, 134, 121, 2, 1.29934
382, 2, wb, catch, NA, 999, 999, 5, 10, 183, 132, 62, 133, 134, 121, 1, 0.166309
382, 2, wb, attraction, a-b-da, 2, 3, 5, 11, 193, 119, 120, 195, 195, 120, 1, 0.749509
382, 2, wb, attraction, a-b-da, 2, 3, 5, 11, 193, 119, 120, 195, 195, 120, 2, 0.198589
382, 2, wb, attraction, a-b-da, 14, 2, 5, 12, 90, 165, 165, 90, 153, 83, 3, 1.2605
382, 2, wb, attraction, a-b-da, 14, 2, 5, 12, 90, 165, 165, 90, 153, 83, 1, 0.216797
382, 2, wb, filler, NA, 999, 999, 5, 13, 193, 134, 64, 108, 165, 107, 2, 0.66203
382, 2, wb, filler, NA, 999, 999, 5, 13, 193, 134, 64, 108, 165, 107, 1, 0.186484
382, 2, wb, catch, NA, 999, 999, 5, 14, 147, 168, 118, 77, 94, 161, 2, 0.664853
382, 2, wb, catch, NA, 999, 999, 5, 14, 147, 168, 118, 77, 94, 161, 1, 0.165324
382, 2, wb, attraction, a-b-da, 2, 2, 5, 15, 163, 89, 165, 90, 90, 165, 1, 1.74868
382, 2, wb, attraction, a-b-da, 2, 2, 5, 15, 163, 89, 165, 90, 90, 165, 3, 0.45337
382, 2, wb, attraction, a-b-db, 9, 1, 5, 16, 57, 129, 135, 60, 60, 135, 1, 1.24927
382, 2, wb, attraction, a-b-db, 9, 1, 5, 16, 57, 129, 135, 60, 60, 135, 3, 0.830094
382, 2, wb, attraction, a-b-db, 14, 1, 5, 17, 135, 60, 60, 135, 56, 125, 1, 1.08241
382, 2, wb, attraction, a-b-db, 14, 1, 5, 17, 135, 60, 60, 135, 56, 125, 2, 0.278058
382, 2, wb, attraction, a-b-db, 5, 3, 5, 18, 117, 190, 120, 195, 195, 120, 2, 1.86455
382, 2, wb, attraction, a-b-db, 5, 3, 5, 18, 117, 190, 120, 195, 195, 120, 3, 0.212651
382, 2, wb, attraction, a-b-db, 9, 2, 5, 19, 86, 157, 165, 90, 90, 165, 2, 4.27386
382, 2, wb, attraction, a-b-db, 9, 2, 5, 19, 86, 157, 165, 90, 90, 165, 1, 0.732483
382, 2, wb, filler, NA, 999, 999, 5, 20, 175, 164, 162, 58, 59, 71, 3, 0.780887
382, 2, wb, filler, NA, 999, 999, 5, 20, 175, 164, 162, 58, 59, 71, 1, 0.212526
382, 2, wb, attraction, a-b-da, 5, 1, 5, 21, 132, 58, 135, 60, 60, 135, 1, 2.36976
382, 2, wb, attraction, a-b-da, 5, 1, 5, 21, 132, 58, 135, 60, 60, 135, 3, 0.241637
382, 2, wb, filler, NA, 999, 999, 5, 22, 92, 116, 155, 108, 123, 63, 1, 1.51756
382, 2, wb, filler, NA, 999, 999, 5, 22, 92, 116, 155, 108, 123, 63, 2, 0.215812
382, 2, wb, attraction, a-b-da, 9, 3, 5, 23, 195, 120, 120, 195, 186, 114, 3, 4.81295
382, 2, wb, attraction, a-b-da, 9, 3, 5, 23, 195, 120, 120, 195, 186, 114, 2, 0.17803
382, 2, wb, attraction, a-b-da, 14, 3, 5, 24, 181, 111, 120, 195, 195, 120, 1, 0.92062
382, 2, wb, attraction, a-b-da, 14, 3, 5, 24, 181, 111, 120, 195, 195, 120, 2, 0.186282
382, 2, wb, filler, NA, 999, 999, 5, 25, 66, 130, 136, 153, 72, 115, 1, 2.00084
382, 2, wb, filler, NA, 999, 999, 5, 25, 66, 130, 136, 153, 72, 115, 2, 0.231544
382, 2, wb, filler, NA, 999, 999, 5, 26, 93, 100, 171, 79, 135, 123, 1, 1.76411
382, 2, wb, filler, NA, 999, 999, 5, 26, 93, 100, 171, 79, 135, 123, 3, 0.220123
382, 2, wb, filler, NA, 999, 999, 5, 27, 77, 151, 74, 126, 161, 189, 2, 1.00145
382, 2, wb, filler, NA, 999, 999, 5, 27, 77, 151, 74, 126, 161, 189, 3, 0.152362
382, 2, wb, attraction, a-b-db, 5, 1, 5, 28, 58, 132, 135, 60, 60, 135, 2, 2.84829
382, 2, wb, attraction, a-b-db, 5, 1, 5, 28, 58, 132, 135, 60, 60, 135, 3, 0.220652
382, 2, wb, filler, NA, 999, 999, 5, 29, 160, 139, 139, 180, 98, 119, 3, 2.60999
382, 2, wb, filler, NA, 999, 999, 5, 29, 160, 139, 139, 180, 98, 119, 2, 1.02369
382, 2, wb, attraction, a-b-db, 2, 1, 5, 30, 60, 135, 59, 134, 135, 60, 2, 3.45997
382, 2, wb, attraction, a-b-db, 2, 1, 5, 30, 60, 135, 59, 134, 135, 60, 3, 0.127595
382, 2, wb, attraction, a-b-da, 14, 1, 5, 31, 125, 56, 135, 60, 60, 135, 1, 0.680267
382, 2, wb, attraction, a-b-da, 14, 1, 5, 31, 125, 56, 135, 60, 60, 135, 3, 0.187836
382, 2, wb, filler, NA, 999, 999, 5, 32, 97, 93, 180, 160, 93, 80, 3, 1.66645
382, 2, wb, filler, NA, 999, 999, 5, 32, 97, 93, 180, 160, 93, 80, 2, 0.222534
382, 2, wb, attraction, a-b-da, 2, 1, 5, 33, 60, 135, 135, 60, 134, 59, 2, 1.40392
382, 2, wb, attraction, a-b-da, 2, 1, 5, 33, 60, 135, 135, 60, 134, 59, 1, 0.346074
382, 2, wb, attraction, a-b-db, 2, 2, 5, 34, 165, 90, 89, 163, 90, 165, 1, 1.16977
382, 2, wb, attraction, a-b-db, 2, 2, 5, 34, 165, 90, 89, 163, 90, 165, 2, 0.202177
382, 2, wb, attraction, a-b-da, 5, 2, 5, 35, 161, 88, 90, 165, 165, 90, 3, 2.88002
382, 2, wb, attraction, a-b-da, 5, 2, 5, 35, 161, 88, 90, 165, 165, 90, 2, 0.194962
382, 2, wb, attraction, a-b-db, 14, 2, 5, 36, 90, 165, 83, 153, 165, 90, 2, 1.4889
382, 2, wb, attraction, a-b-db, 14, 2, 5, 36, 90, 165, 83, 153, 165, 90, 1, 2.37979
382, 2, wb, attraction, a-b-da, 5, 3, 5, 37, 195, 120, 190, 117, 120, 195, 3, 1.33762
382, 2, wb, attraction, a-b-da, 5, 3, 5, 37, 195, 120, 190, 117, 120, 195, 1, 0.330513
382, 2, wb, filler, NA, 999, 999, 6, 1, 156, 103, 193, 57, 110, 117, 1, 5.34695
382, 2, wb, filler, NA, 999, 999, 6, 1, 156, 103, 193, 57, 110, 117, 3, 0.330606
382, 2, wb, attraction, a-b-db, 5, 2, 6, 2, 88, 161, 165, 90, 90, 165, 3, 1.87516
382, 2, wb, attraction, a-b-db, 5, 2, 6, 2, 88, 161, 165, 90, 90, 165, 2, 0.230482
382, 2, wb, filler, NA, 999, 999, 6, 3, 134, 172, 66, 120, 100, 91, 2, 2.98719
382, 2, wb, filler, NA, 999, 999, 6, 3, 134, 172, 66, 120, 100, 91, 1, 0.185434
382, 2, wb, attraction, a-b-db, 2, 2, 6, 4, 165, 90, 90, 165, 89, 163, 1, 3.34417
382, 2, wb, attraction, a-b-db, 2, 2, 6, 4, 165, 90, 90, 165, 89, 163, 2, 0.832313
382, 2, wb, attraction, a-b-da, 9, 1, 6, 5, 135, 60, 129, 57, 60, 135, 2, 1.77258
382, 2, wb, attraction, a-b-da, 9, 1, 6, 5, 135, 60, 129, 57, 60, 135, 3, 0.308099
382, 2, wb, attraction, a-b-db, 9, 1, 6, 6, 57, 129, 60, 135, 135, 60, 2, 0.893225
382, 2, wb, attraction, a-b-db, 9, 1, 6, 6, 57, 129, 60, 135, 135, 60, 3, 0.224548
382, 2, wb, attraction, a-b-db, 14, 1, 6, 7, 60, 135, 56, 125, 135, 60, 3, 3.22089
382, 2, wb, attraction, a-b-db, 14, 1, 6, 7, 60, 135, 56, 125, 135, 60, 1, 0.282341
382, 2, wb, attraction, a-b-db, 2, 3, 6, 8, 195, 120, 120, 195, 119, 193, 3, 5.26895
382, 2, wb, attraction, a-b-db, 2, 3, 6, 8, 195, 120, 120, 195, 119, 193, 2, 4.71188
382, 2, wb, attraction, a-b-db, 5, 3, 6, 9, 195, 120, 120, 195, 117, 190, 3, 2.19176
382, 2, wb, attraction, a-b-db, 5, 3, 6, 9, 195, 120, 120, 195, 117, 190, 1, 0.438367
382, 2, wb, attraction, a-b-da, 5, 2, 6, 10, 90, 165, 165, 90, 161, 88, 3, 1.8029
382, 2, wb, attraction, a-b-da, 5, 2, 6, 10, 90, 165, 165, 90, 161, 88, 1, 0.225516
382, 2, wb, filler, NA, 999, 999, 6, 11, 73, 157, 163, 98, 80, 73, 3, 0.958194
382, 2, wb, filler, NA, 999, 999, 6, 11, 73, 157, 163, 98, 80, 73, 1, 0.222453
382, 2, wb, attraction, a-b-db, 14, 3, 6, 12, 120, 195, 111, 181, 195, 120, 2, 2.55556
382, 2, wb, attraction, a-b-db, 14, 3, 6, 12, 120, 195, 111, 181, 195, 120, 3, 2.73151
382, 2, wb, attraction, a-b-da, 14, 1, 6, 13, 135, 60, 60, 135, 125, 56, 3, 1.29125
382, 2, wb, attraction, a-b-da, 14, 1, 6, 13, 135, 60, 60, 135, 125, 56, 2, 0.646294
382, 2, wb, filler, NA, 999, 999, 6, 14, 129, 98, 89, 84, 98, 186, 2, 1.91391
382, 2, wb, filler, NA, 999, 999, 6, 14, 129, 98, 89, 84, 98, 186, 3, 0.267842
382, 2, wb, filler, NA, 999, 999, 6, 15, 94, 128, 161, 85, 149, 161, 1, 1.31109
382, 2, wb, filler, NA, 999, 999, 6, 15, 94, 128, 161, 85, 149, 161, 3, 0.218488
382, 2, wb, filler, NA, 999, 999, 6, 16, 135, 100, 104, 152, 100, 71, 3, 1.46257
382, 2, wb, filler, NA, 999, 999, 6, 16, 135, 100, 104, 152, 100, 71, 2, 0.226669
382, 2, wb, attraction, a-b-da, 5, 1, 6, 17, 132, 58, 60, 135, 135, 60, 1, 1.62322
382, 2, wb, attraction, a-b-da, 5, 1, 6, 17, 132, 58, 60, 135, 135, 60, 3, 4.5088
382, 2, wb, attraction, a-b-da, 2, 2, 6, 18, 90, 165, 165, 90, 163, 89, 3, 2.42056
382, 2, wb, attraction, a-b-da, 2, 2, 6, 18, 90, 165, 165, 90, 163, 89, 1, 0.697786
382, 2, wb, attraction, a-b-da, 14, 3, 6, 19, 195, 120, 181, 111, 120, 195, 2, 1.29152
382, 2, wb, attraction, a-b-da, 14, 3, 6, 19, 195, 120, 181, 111, 120, 195, 3, 0.318419
382, 2, wb, catch, NA, 999, 999, 6, 20, 124, 191, 67, 128, 125, 130, 2, 0.703613
382, 2, wb, catch, NA, 999, 999, 6, 20, 124, 191, 67, 128, 125, 130, 1, 0.16201
382, 2, wb, attraction, a-b-db, 14, 2, 6, 21, 90, 165, 83, 153, 165, 90, 2, 2.84126
382, 2, wb, attraction, a-b-db, 14, 2, 6, 21, 90, 165, 83, 153, 165, 90, 1, 0.893757
382, 2, wb, attraction, a-b-da, 2, 3, 6, 22, 195, 120, 120, 195, 193, 119, 1, 2.59945
382, 2, wb, attraction, a-b-da, 2, 3, 6, 22, 195, 120, 120, 195, 193, 119, 2, 0.549811
382, 2, wb, attraction, a-b-da, 2, 1, 6, 23, 135, 60, 60, 135, 134, 59, 2, 1.20556
382, 2, wb, attraction, a-b-da, 2, 1, 6, 23, 135, 60, 60, 135, 134, 59, 1, 0.195753
382, 2, wb, attraction, a-b-db, 9, 3, 6, 24, 120, 195, 114, 186, 195, 120, 2, 2.12973
382, 2, wb, attraction, a-b-db, 9, 3, 6, 24, 120, 195, 114, 186, 195, 120, 3, 0.411079
382, 2, wb, attraction, a-b-da, 5, 3, 6, 25, 195, 120, 190, 117, 120, 195, 2, 1.72014
382, 2, wb, attraction, a-b-da, 5, 3, 6, 25, 195, 120, 190, 117, 120, 195, 3, 0.129623
382, 2, wb, attraction, a-b-da, 14, 2, 6, 26, 153, 83, 90, 165, 165, 90, 1, 1.05023
382, 2, wb, attraction, a-b-da, 14, 2, 6, 26, 153, 83, 90, 165, 165, 90, 3, 0.362046
382, 2, wb, attraction, a-b-da, 9, 3, 6, 27, 120, 195, 195, 120, 186, 114, 2, 1.99851
382, 2, wb, attraction, a-b-da, 9, 3, 6, 27, 120, 195, 195, 120, 186, 114, 1, 0.204918
382, 2, wb, attraction, a-b-db, 5, 1, 6, 28, 58, 132, 135, 60, 60, 135, 2, 0.882877
382, 2, wb, attraction, a-b-db, 5, 1, 6, 28, 58, 132, 135, 60, 60, 135, 3, 0.502543
382, 2, wb, catch, NA, 999, 999, 6, 29, 170, 145, 157, 98, 60, 135, 3, 0.928419
382, 2, wb, catch, NA, 999, 999, 6, 29, 170, 145, 157, 98, 60, 135, 1, 0.250031
382, 2, wb, filler, NA, 999, 999, 6, 30, 162, 126, 131, 56, 103, 170, 2, 1.23792
382, 2, wb, filler, NA, 999, 999, 6, 30, 162, 126, 131, 56, 103, 170, 1, 0.658856
382, 2, wb, filler, NA, 999, 999, 6, 31, 57, 66, 70, 188, 84, 65, 1, 1.16595
382, 2, wb, filler, NA, 999, 999, 6, 31, 57, 66, 70, 188, 84, 65, 2, 0.374176
382, 2, wb, attraction, a-b-da, 9, 2, 6, 32, 165, 90, 90, 165, 157, 86, 3, 0.932631
382, 2, wb, attraction, a-b-da, 9, 2, 6, 32, 165, 90, 90, 165, 157, 86, 2, 0.414317
382, 2, wb, attraction, a-b-db, 9, 2, 6, 33, 165, 90, 90, 165, 86, 157, 3, 1.01958
382, 2, wb, attraction, a-b-db, 9, 2, 6, 33, 165, 90, 90, 165, 86, 157, 1, 1.12178
382, 2, wb, filler, NA, 999, 999, 6, 34, 160, 89, 105, 188, 78, 174, 3, 0.818738
382, 2, wb, filler, NA, 999, 999, 6, 34, 160, 89, 105, 188, 78, 174, 1, 0.37713
382, 2, wb, filler, NA, 999, 999, 6, 35, 80, 179, 181, 102, 120, 60, 3, 1.15165
382, 2, wb, filler, NA, 999, 999, 6, 35, 80, 179, 181, 102, 120, 60, 2, 0.464578
382, 2, wb, catch, NA, 999, 999, 6, 36, 83, 112, 108, 147, 127, 188, 1, 0.747674
382, 2, wb, catch, NA, 999, 999, 6, 36, 83, 112, 108, 147, 127, 188, 3, 0.340889
382, 2, wb, attraction, a-b-db, 2, 1, 6, 37, 60, 135, 135, 60, 59, 134, 1, 1.12455
382, 2, wb, attraction, a-b-db, 2, 1, 6, 37, 60, 135, 135, 60, 59, 134, 3, 0.590256
382, 2, wb, filler, NA, 999, 999, 7, 1, 186, 79, 126, 172, 85, 79, 3, 1.86795
382, 2, wb, filler, NA, 999, 999, 7, 1, 186, 79, 126, 172, 85, 79, 2, 2.03218
382, 2, wb, attraction, a-b-db, 9, 2, 7, 2, 86, 157, 165, 90, 90, 165, 1, 1.42799
382, 2, wb, attraction, a-b-db, 9, 2, 7, 2, 86, 157, 165, 90, 90, 165, 3, 0.369579
382, 2, wb, catch, NA, 999, 999, 7, 3, 138, 117, 71, 124, 146, 169, 2, 0.896656
382, 2, wb, catch, NA, 999, 999, 7, 3, 138, 117, 71, 124, 146, 169, 3, 0.227717
382, 2, wb, attraction, a-b-da, 2, 3, 7, 4, 193, 119, 120, 195, 195, 120, 1, 1.09625
382, 2, wb, attraction, a-b-da, 2, 3, 7, 4, 193, 119, 120, 195, 195, 120, 2, 0.275196
382, 2, wb, filler, NA, 999, 999, 7, 5, 187, 120, 110, 95, 99, 134, 2, 1.80579
382, 2, wb, filler, NA, 999, 999, 7, 5, 187, 120, 110, 95, 99, 134, 1, 0.155813
382, 2, wb, attraction, a-b-db, 5, 2, 7, 6, 88, 161, 165, 90, 90, 165, 2, 1.59576
382, 2, wb, attraction, a-b-db, 5, 2, 7, 6, 88, 161, 165, 90, 90, 165, 3, 0.162568
382, 2, wb, attraction, a-b-db, 14, 2, 7, 7, 90, 165, 83, 153, 165, 90, 2, 0.777816
382, 2, wb, attraction, a-b-db, 14, 2, 7, 7, 90, 165, 83, 153, 165, 90, 3, 0.145475
382, 2, wb, attraction, a-b-da, 5, 2, 7, 8, 90, 165, 161, 88, 165, 90, 2, 0.92938
382, 2, wb, attraction, a-b-da, 5, 2, 7, 8, 90, 165, 161, 88, 165, 90, 3, 0.194973
382, 2, wb, attraction, a-b-db, 2, 3, 7, 9, 120, 195, 119, 193, 195, 120, 2, 2.51289
382, 2, wb, attraction, a-b-db, 2, 3, 7, 9, 120, 195, 119, 193, 195, 120, 1, 0.76269
382, 2, wb, attraction, a-b-db, 14, 1, 7, 10, 56, 125, 135, 60, 60, 135, 1, 0.91385
382, 2, wb, attraction, a-b-db, 14, 1, 7, 10, 56, 125, 135, 60, 60, 135, 2, 0.836125
382, 2, wb, filler, NA, 999, 999, 7, 11, 168, 108, 174, 135, 147, 123, 3, 1.16851
382, 2, wb, filler, NA, 999, 999, 7, 11, 168, 108, 174, 135, 147, 123, 2, 0.208784
382, 2, wb, filler, NA, 999, 999, 7, 12, 84, 152, 68, 108, 60, 96, 3, 0.734176
382, 2, wb, filler, NA, 999, 999, 7, 12, 84, 152, 68, 108, 60, 96, 1, 0.263733
382, 2, wb, filler, NA, 999, 999, 7, 13, 159, 60, 103, 153, 85, 81, 3, 0.898979
382, 2, wb, filler, NA, 999, 999, 7, 13, 159, 60, 103, 153, 85, 81, 2, 0.205981
382, 2, wb, attraction, a-b-da, 5, 3, 7, 14, 120, 195, 190, 117, 195, 120, 2, 1.0592
382, 2, wb, attraction, a-b-da, 5, 3, 7, 14, 120, 195, 190, 117, 195, 120, 3, 0.151431
382, 2, wb, filler, NA, 999, 999, 7, 15, 126, 159, 77, 121, 102, 87, 2, 1.52737
382, 2, wb, filler, NA, 999, 999, 7, 15, 126, 159, 77, 121, 102, 87, 1, 0.224869
382, 2, wb, attraction, a-b-db, 9, 1, 7, 16, 57, 129, 60, 135, 135, 60, 2, 0.981377
382, 2, wb, attraction, a-b-db, 9, 1, 7, 16, 57, 129, 60, 135, 135, 60, 3, 0.525054
382, 2, wb, attraction, a-b-da, 9, 2, 7, 17, 157, 86, 165, 90, 90, 165, 2, 1.30951
382, 2, wb, attraction, a-b-da, 9, 2, 7, 17, 157, 86, 165, 90, 90, 165, 3, 0.215716
382, 2, wb, attraction, a-b-db, 5, 1, 7, 18, 60, 135, 135, 60, 58, 132, 2, 0.781003
382, 2, wb, attraction, a-b-db, 5, 1, 7, 18, 60, 135, 135, 60, 58, 132, 1, 0.844743
382, 2, wb, attraction, a-b-da, 2, 1, 7, 19, 60, 135, 134, 59, 135, 60, 2, 1.0483
382, 2, wb, attraction, a-b-da, 2, 1, 7, 19, 60, 135, 134, 59, 135, 60, 3, 0.30925
382, 2, wb, filler, NA, 999, 999, 7, 20, 69, 145, 58, 103, 98, 149, 2, 1.31048
382, 2, wb, filler, NA, 999, 999, 7, 20, 69, 145, 58, 103, 98, 149, 3, 0.368727
382, 2, wb, attraction, a-b-db, 2, 2, 7, 21, 165, 90, 90, 165, 89, 163, 1, 1.55996
382, 2, wb, attraction, a-b-db, 2, 2, 7, 21, 165, 90, 90, 165, 89, 163, 2, 0.408004
382, 2, wb, catch, NA, 999, 999, 7, 22, 66, 129, 136, 119, 125, 190, 1, 0.645192
382, 2, wb, catch, NA, 999, 999, 7, 22, 66, 129, 136, 119, 125, 190, 3, 0.322309
382, 2, wb, attraction, a-b-da, 2, 2, 7, 23, 165, 90, 163, 89, 90, 165, 3, 0.931574
382, 2, wb, attraction, a-b-da, 2, 2, 7, 23, 165, 90, 163, 89, 90, 165, 1, 0.34117
382, 2, wb, attraction, a-b-da, 14, 3, 7, 24, 195, 120, 120, 195, 181, 111, 3, 1.35701
382, 2, wb, attraction, a-b-da, 14, 3, 7, 24, 195, 120, 120, 195, 181, 111, 2, 0.229173
382, 2, wb, attraction, a-b-db, 14, 3, 7, 25, 120, 195, 111, 181, 195, 120, 2, 2.0017
382, 2, wb, attraction, a-b-db, 14, 3, 7, 25, 120, 195, 111, 181, 195, 120, 3, 0.536496
382, 2, wb, attraction, a-b-da, 14, 2, 7, 26, 165, 90, 153, 83, 90, 165, 3, 0.984859
382, 2, wb, attraction, a-b-da, 14, 2, 7, 26, 165, 90, 153, 83, 90, 165, 2, 0.200516
382, 2, wb, attraction, a-b-da, 9, 1, 7, 27, 129, 57, 135, 60, 60, 135, 1, 1.3984
382, 2, wb, attraction, a-b-da, 9, 1, 7, 27, 129, 57, 135, 60, 60, 135, 3, 0.181287
382, 2, wb, attraction, a-b-da, 5, 1, 7, 28, 135, 60, 60, 135, 132, 58, 1, 1.01991
382, 2, wb, attraction, a-b-da, 5, 1, 7, 28, 135, 60, 60, 135, 132, 58, 2, 0.642165
382, 2, wb, catch, NA, 999, 999, 7, 29, 120, 195, 151, 104, 61, 134, 3, 0.853869
382, 2, wb, catch, NA, 999, 999, 7, 29, 120, 195, 151, 104, 61, 134, 1, 0.666941
382, 2, wb, filler, NA, 999, 999, 7, 30, 122, 65, 56, 114, 143, 88, 1, 0.765994
382, 2, wb, filler, NA, 999, 999, 7, 30, 122, 65, 56, 114, 143, 88, 3, 0.454406
382, 2, wb, filler, NA, 999, 999, 7, 31, 129, 160, 186, 70, 71, 70, 3, 1.01835
382, 2, wb, filler, NA, 999, 999, 7, 31, 129, 160, 186, 70, 71, 70, 2, 2.95265
382, 2, wb, attraction, a-b-da, 9, 3, 7, 32, 195, 120, 120, 195, 186, 114, 3, 1.47953
382, 2, wb, attraction, a-b-da, 9, 3, 7, 32, 195, 120, 120, 195, 186, 114, 1, 0.539063
382, 2, wb, attraction, a-b-db, 5, 3, 7, 33, 120, 195, 195, 120, 117, 190, 3, 2.30764
382, 2, wb, attraction, a-b-db, 5, 3, 7, 33, 120, 195, 195, 120, 117, 190, 2, 1.4855
382, 2, wb, attraction, a-b-da, 14, 1, 7, 34, 125, 56, 60, 135, 135, 60, 1, 1.73553
382, 2, wb, attraction, a-b-da, 14, 1, 7, 34, 125, 56, 60, 135, 135, 60, 2, 0.825161
382, 2, wb, attraction, a-b-db, 9, 3, 7, 35, 114, 186, 195, 120, 120, 195, 1, 1.50136
382, 2, wb, attraction, a-b-db, 9, 3, 7, 35, 114, 186, 195, 120, 120, 195, 3, 0.336176
382, 2, wb, attraction, a-b-db, 2, 1, 7, 36, 59, 134, 60, 135, 135, 60, 2, 1.1927
382, 2, wb, attraction, a-b-db, 2, 1, 7, 36, 59, 134, 60, 135, 135, 60, 3, 0.415703
382, 2, wb, filler, NA, 999, 999, 7, 37, 145, 145, 102, 94, 176, 146, 2, 0.828823
382, 2, wb, filler, NA, 999, 999, 7, 37, 145, 145, 102, 94, 176, 146, 3, 0.250498
382, 2, wb, catch, NA, 999, 999, 8, 1, 169, 146, 79, 116, 99, 156, 2, 0.990351
382, 2, wb, catch, NA, 999, 999, 8, 1, 169, 146, 79, 116, 99, 156, 1, 0.221381
382, 2, wb, attraction, a-b-da, 14, 1, 8, 2, 135, 60, 125, 56, 60, 135, 2, 2.45866
382, 2, wb, attraction, a-b-da, 14, 1, 8, 2, 135, 60, 125, 56, 60, 135, 3, 0.150422
382, 2, wb, attraction, a-b-da, 9, 2, 8, 3, 157, 86, 165, 90, 90, 165, 3, 0.886396
382, 2, wb, attraction, a-b-da, 9, 2, 8, 3, 157, 86, 165, 90, 90, 165, 2, 0.170043
382, 2, wb, attraction, a-b-da, 14, 3, 8, 4, 195, 120, 120, 195, 181, 111, 3, 1.00926
382, 2, wb, attraction, a-b-da, 14, 3, 8, 4, 195, 120, 120, 195, 181, 111, 2, 0.607626
382, 2, wb, attraction, a-b-da, 9, 1, 8, 5, 60, 135, 129, 57, 135, 60, 2, 1.18056
382, 2, wb, attraction, a-b-da, 9, 1, 8, 5, 60, 135, 129, 57, 135, 60, 1, 0.244209
382, 2, wb, attraction, a-b-db, 14, 3, 8, 6, 195, 120, 120, 195, 111, 181, 3, 0.744127
382, 2, wb, attraction, a-b-db, 14, 3, 8, 6, 195, 120, 120, 195, 111, 181, 1, 0.761204
382, 2, wb, filler, NA, 999, 999, 8, 7, 173, 103, 141, 130, 174, 168, 1, 0.720221
382, 2, wb, filler, NA, 999, 999, 8, 7, 173, 103, 141, 130, 174, 168, 3, 0.402089
382, 2, wb, attraction, a-b-da, 5, 1, 8, 8, 132, 58, 60, 135, 135, 60, 1, 1.22394
382, 2, wb, attraction, a-b-da, 5, 1, 8, 8, 132, 58, 60, 135, 135, 60, 2, 0.325342
382, 2, wb, attraction, a-b-da, 5, 2, 8, 9, 165, 90, 90, 165, 161, 88, 1, 1.14984
382, 2, wb, attraction, a-b-da, 5, 2, 8, 9, 165, 90, 90, 165, 161, 88, 2, 0.25481
382, 2, wb, filler, NA, 999, 999, 8, 10, 79, 75, 64, 160, 116, 142, 1, 0.802646
382, 2, wb, filler, NA, 999, 999, 8, 10, 79, 75, 64, 160, 116, 142, 3, 0.385793
382, 2, wb, attraction, a-b-da, 2, 1, 8, 11, 60, 135, 135, 60, 134, 59, 2, 1.43224
382, 2, wb, attraction, a-b-da, 2, 1, 8, 11, 60, 135, 135, 60, 134, 59, 1, 0.20576
382, 2, wb, attraction, a-b-db, 5, 1, 8, 12, 135, 60, 60, 135, 58, 132, 3, 1.13972
382, 2, wb, attraction, a-b-db, 5, 1, 8, 12, 135, 60, 60, 135, 58, 132, 1, 0.412663
382, 2, wb, attraction, a-b-db, 2, 1, 8, 13, 59, 134, 60, 135, 135, 60, 3, 1.68196
382, 2, wb, attraction, a-b-db, 2, 1, 8, 13, 59, 134, 60, 135, 135, 60, 2, 0.213167
382, 2, wb, attraction, a-b-db, 9, 1, 8, 14, 135, 60, 57, 129, 60, 135, 1, 1.11438
382, 2, wb, attraction, a-b-db, 9, 1, 8, 14, 135, 60, 57, 129, 60, 135, 2, 0.492732
382, 2, wb, filler, NA, 999, 999, 8, 15, 155, 83, 62, 163, 152, 102, 1, 1.9746
382, 2, wb, filler, NA, 999, 999, 8, 15, 155, 83, 62, 163, 152, 102, 3, 0.781816
382, 2, wb, attraction, a-b-da, 9, 3, 8, 16, 186, 114, 120, 195, 195, 120, 1, 1.31638
382, 2, wb, attraction, a-b-da, 9, 3, 8, 16, 186, 114, 120, 195, 195, 120, 2, 0.310357
382, 2, wb, filler, NA, 999, 999, 8, 17, 154, 120, 91, 80, 186, 174, 2, 0.807551
382, 2, wb, filler, NA, 999, 999, 8, 17, 154, 120, 91, 80, 186, 174, 3, 0.173964
382, 2, wb, filler, NA, 999, 999, 8, 18, 195, 119, 110, 105, 136, 118, 2, 1.0286
382, 2, wb, filler, NA, 999, 999, 8, 18, 195, 119, 110, 105, 136, 118, 1, 0.234213
382, 2, wb, filler, NA, 999, 999, 8, 19, 72, 78, 64, 104, 143, 190, 1, 0.71871
382, 2, wb, filler, NA, 999, 999, 8, 19, 72, 78, 64, 104, 143, 190, 3, 0.289062
382, 2, wb, attraction, a-b-db, 14, 1, 8, 20, 60, 135, 56, 125, 135, 60, 2, 0.939606
382, 2, wb, attraction, a-b-db, 14, 1, 8, 20, 60, 135, 56, 125, 135, 60, 3, 0.244675
382, 2, wb, filler, NA, 999, 999, 8, 21, 172, 195, 69, 173, 186, 157, 2, 1.10464
382, 2, wb, filler, NA, 999, 999, 8, 21, 172, 195, 69, 173, 186, 157, 1, 0.330772
382, 2, wb, attraction, a-b-db, 9, 2, 8, 22, 165, 90, 90, 165, 86, 157, 1, 1.23538
382, 2, wb, attraction, a-b-db, 9, 2, 8, 22, 165, 90, 90, 165, 86, 157, 2, 0.272936
382, 2, wb, attraction, a-b-da, 2, 2, 8, 23, 163, 89, 165, 90, 90, 165, 1, 1.17945
382, 2, wb, attraction, a-b-da, 2, 2, 8, 23, 163, 89, 165, 90, 90, 165, 3, 0.203238
382, 2, wb, attraction, a-b-db, 5, 2, 8, 24, 90, 165, 88, 161, 165, 90, 1, 0.897038
382, 2, wb, attraction, a-b-db, 5, 2, 8, 24, 90, 165, 88, 161, 165, 90, 3, 0.219995
382, 2, wb, filler, NA, 999, 999, 8, 25, 192, 58, 151, 63, 59, 63, 3, 0.873226
382, 2, wb, filler, NA, 999, 999, 8, 25, 192, 58, 151, 63, 59, 63, 1, 0.420894
382, 2, wb, attraction, a-b-db, 9, 3, 8, 26, 114, 186, 120, 195, 195, 120, 1, 0.850063
382, 2, wb, attraction, a-b-db, 9, 3, 8, 26, 114, 186, 120, 195, 195, 120, 3, 0.263087
382, 2, wb, filler, NA, 999, 999, 8, 27, 67, 183, 62, 56, 164, 158, 2, 0.634251
382, 2, wb, filler, NA, 999, 999, 8, 27, 67, 183, 62, 56, 164, 158, 3, 0.184009
382, 2, wb, attraction, a-b-db, 14, 2, 8, 28, 165, 90, 90, 165, 83, 153, 1, 1.24656
382, 2, wb, attraction, a-b-db, 14, 2, 8, 28, 165, 90, 90, 165, 83, 153, 3, 0.323559
382, 2, wb, attraction, a-b-da, 14, 2, 8, 29, 153, 83, 90, 165, 165, 90, 1, 0.803975
382, 2, wb, attraction, a-b-da, 14, 2, 8, 29, 153, 83, 90, 165, 165, 90, 3, 0.3704
382, 2, wb, attraction, a-b-da, 2, 3, 8, 30, 193, 119, 120, 195, 195, 120, 1, 0.897522
382, 2, wb, attraction, a-b-da, 2, 3, 8, 30, 193, 119, 120, 195, 195, 120, 2, 0.244625
382, 2, wb, attraction, a-b-da, 5, 3, 8, 31, 190, 117, 195, 120, 120, 195, 2, 0.896396
382, 2, wb, attraction, a-b-da, 5, 3, 8, 31, 190, 117, 195, 120, 120, 195, 3, 0.25139
382, 2, wb, attraction, a-b-db, 2, 3, 8, 32, 195, 120, 119, 193, 120, 195, 3, 0.799324
382, 2, wb, attraction, a-b-db, 2, 3, 8, 32, 195, 120, 119, 193, 120, 195, 1, 0.318341
382, 2, wb, catch, NA, 999, 999, 8, 33, 98, 157, 112, 83, 187, 128, 2, 0.887569
382, 2, wb, catch, NA, 999, 999, 8, 33, 98, 157, 112, 83, 187, 128, 3, 0.426607
382, 2, wb, attraction, a-b-db, 2, 2, 8, 34, 89, 163, 90, 165, 165, 90, 1, 0.695014
382, 2, wb, attraction, a-b-db, 2, 2, 8, 34, 89, 163, 90, 165, 165, 90, 3, 0.642157
382, 2, wb, filler, NA, 999, 999, 8, 35, 138, 66, 100, 190, 104, 171, 1, 0.829855
382, 2, wb, filler, NA, 999, 999, 8, 35, 138, 66, 100, 190, 104, 171, 2, 0.563669
382, 2, wb, catch, NA, 999, 999, 8, 36, 174, 141, 107, 88, 96, 159, 2, 0.858699
382, 2, wb, catch, NA, 999, 999, 8, 36, 174, 141, 107, 88, 96, 159, 1, 0.286996
382, 2, wb, attraction, a-b-db, 5, 3, 8, 37, 120, 195, 195, 120, 117, 190, 3, 1.88968
382, 2, wb, attraction, a-b-db, 5, 3, 8, 37, 120, 195, 195, 120, 117, 190, 2, 0.252441
