sub_n, computer_n, bw_cond, effect, set, distance, diag, block_n, trial_n, h1, w1, h2, w2, h3, w3, choice, rt 
325, 2, bw, practice, NA, 999, 999, 0, 1, 134, 183, 103, 79, 152, 85, 1, 4.28857
325, 2, bw, practice, NA, 999, 999, 0, 1, 134, 183, 103, 79, 152, 85, 2, 2.50677
325, 2, bw, practice, NA, 999, 999, 0, 2, 161, 160, 105, 140, 74, 58, 1, 2.17374
325, 2, bw, practice, NA, 999, 999, 0, 2, 161, 160, 105, 140, 74, 58, 3, 1.78624
325, 2, bw, practice, NA, 999, 999, 0, 3, 155, 120, 192, 146, 95, 119, 2, 2.00373
325, 2, bw, practice, NA, 999, 999, 0, 3, 155, 120, 192, 146, 95, 119, 3, 2.61581
325, 2, bw, filler, NA, 999, 999, 1, 1, 79, 182, 67, 80, 79, 113, 1, 1.48627
325, 2, bw, filler, NA, 999, 999, 1, 1, 79, 182, 67, 80, 79, 113, 2, 1.46578
325, 2, bw, attraction, a-b-db, 14, 3, 1, 2, 120, 195, 111, 181, 195, 120, 1, 15.5005
325, 2, bw, attraction, a-b-db, 14, 3, 1, 2, 120, 195, 111, 181, 195, 120, 2, 1.46706
325, 2, bw, attraction, a-b-da, 9, 2, 1, 3, 90, 165, 165, 90, 157, 86, 2, 5.06189
325, 2, bw, attraction, a-b-da, 9, 2, 1, 3, 90, 165, 165, 90, 157, 86, 3, 1.26494
325, 2, bw, attraction, a-b-db, 2, 3, 1, 4, 119, 193, 195, 120, 120, 195, 2, 3.77984
325, 2, bw, attraction, a-b-db, 2, 3, 1, 4, 119, 193, 195, 120, 120, 195, 3, 0.586578
325, 2, bw, attraction, a-b-db, 2, 2, 1, 5, 165, 90, 90, 165, 89, 163, 2, 4.13708
325, 2, bw, attraction, a-b-db, 2, 2, 1, 5, 165, 90, 90, 165, 89, 163, 3, 1.95386
325, 2, bw, attraction, a-b-da, 9, 3, 1, 6, 186, 114, 120, 195, 195, 120, 2, 4.63303
325, 2, bw, attraction, a-b-da, 9, 3, 1, 6, 186, 114, 120, 195, 195, 120, 1, 0.581569
325, 2, bw, attraction, a-b-da, 14, 3, 1, 7, 195, 120, 120, 195, 181, 111, 2, 2.49204
325, 2, bw, attraction, a-b-da, 14, 3, 1, 7, 195, 120, 120, 195, 181, 111, 3, 0.854635
325, 2, bw, attraction, a-b-da, 14, 2, 1, 8, 153, 83, 165, 90, 90, 165, 2, 2.05022
325, 2, bw, attraction, a-b-da, 14, 2, 1, 8, 153, 83, 165, 90, 90, 165, 1, 0.63893
325, 2, bw, attraction, a-b-db, 14, 1, 1, 9, 135, 60, 60, 135, 56, 125, 1, 4.15531
325, 2, bw, attraction, a-b-db, 14, 1, 1, 9, 135, 60, 60, 135, 56, 125, 3, 0.882669
325, 2, bw, catch, NA, 999, 999, 1, 10, 129, 186, 115, 140, 134, 61, 1, 1.49292
325, 2, bw, catch, NA, 999, 999, 1, 10, 129, 186, 115, 140, 134, 61, 3, 0.935746
325, 2, bw, attraction, a-b-db, 9, 1, 1, 11, 135, 60, 60, 135, 57, 129, 1, 1.35501
325, 2, bw, attraction, a-b-db, 9, 1, 1, 11, 135, 60, 60, 135, 57, 129, 3, 1.37639
325, 2, bw, attraction, a-b-da, 14, 1, 1, 12, 60, 135, 135, 60, 125, 56, 2, 1.65447
325, 2, bw, attraction, a-b-da, 14, 1, 1, 12, 60, 135, 135, 60, 125, 56, 3, 0.962581
325, 2, bw, attraction, a-b-db, 2, 1, 1, 13, 60, 135, 135, 60, 59, 134, 2, 1.76965
325, 2, bw, attraction, a-b-db, 2, 1, 1, 13, 60, 135, 135, 60, 59, 134, 1, 1.18568
325, 2, bw, attraction, a-b-db, 14, 2, 1, 14, 83, 153, 90, 165, 165, 90, 2, 3.29588
325, 2, bw, attraction, a-b-db, 14, 2, 1, 14, 83, 153, 90, 165, 165, 90, 1, 0.650189
325, 2, bw, filler, NA, 999, 999, 1, 15, 185, 146, 65, 69, 192, 71, 1, 1.01395
325, 2, bw, filler, NA, 999, 999, 1, 15, 185, 146, 65, 69, 192, 71, 2, 0.804461
325, 2, bw, filler, NA, 999, 999, 1, 16, 114, 136, 137, 165, 185, 66, 2, 1.18604
325, 2, bw, filler, NA, 999, 999, 1, 16, 114, 136, 137, 165, 185, 66, 3, 1.92167
325, 2, bw, attraction, a-b-da, 5, 2, 1, 17, 161, 88, 165, 90, 90, 165, 3, 5.11439
325, 2, bw, attraction, a-b-da, 5, 2, 1, 17, 161, 88, 165, 90, 90, 165, 1, 0.819252
325, 2, bw, filler, NA, 999, 999, 1, 18, 98, 132, 120, 171, 79, 165, 2, 1.36029
325, 2, bw, filler, NA, 999, 999, 1, 18, 98, 132, 120, 171, 79, 165, 1, 0.760611
325, 2, bw, attraction, a-b-da, 9, 1, 1, 19, 135, 60, 129, 57, 60, 135, 1, 2.33556
325, 2, bw, attraction, a-b-da, 9, 1, 1, 19, 135, 60, 129, 57, 60, 135, 2, 0.80079
325, 2, bw, attraction, a-b-db, 5, 2, 1, 20, 165, 90, 90, 165, 88, 161, 2, 3.53452
325, 2, bw, attraction, a-b-db, 5, 2, 1, 20, 165, 90, 90, 165, 88, 161, 3, 0.93538
325, 2, bw, filler, NA, 999, 999, 1, 21, 101, 69, 161, 76, 141, 126, 3, 4.24772
325, 2, bw, filler, NA, 999, 999, 1, 21, 101, 69, 161, 76, 141, 126, 1, 1.67568
325, 2, bw, attraction, a-b-db, 9, 2, 1, 22, 165, 90, 86, 157, 90, 165, 1, 1.62187
325, 2, bw, attraction, a-b-db, 9, 2, 1, 22, 165, 90, 86, 157, 90, 165, 2, 0.539216
325, 2, bw, attraction, a-b-da, 2, 2, 1, 23, 90, 165, 165, 90, 163, 89, 2, 1.91565
325, 2, bw, attraction, a-b-da, 2, 2, 1, 23, 90, 165, 165, 90, 163, 89, 3, 1.22166
325, 2, bw, attraction, a-b-da, 5, 3, 1, 24, 190, 117, 195, 120, 120, 195, 3, 5.01856
325, 2, bw, attraction, a-b-da, 5, 3, 1, 24, 190, 117, 195, 120, 120, 195, 1, 0.863644
325, 2, bw, filler, NA, 999, 999, 1, 25, 187, 193, 101, 156, 182, 162, 1, 1.72263
325, 2, bw, filler, NA, 999, 999, 1, 25, 187, 193, 101, 156, 182, 162, 2, 0.748167
325, 2, bw, attraction, a-b-db, 5, 3, 1, 26, 117, 190, 195, 120, 120, 195, 3, 16.9798
325, 2, bw, attraction, a-b-db, 5, 3, 1, 26, 117, 190, 195, 120, 120, 195, 1, 1.53444
325, 2, bw, attraction, a-b-da, 5, 1, 1, 27, 60, 135, 135, 60, 132, 58, 1, 7.01456
325, 2, bw, attraction, a-b-da, 5, 1, 1, 27, 60, 135, 135, 60, 132, 58, 3, 0.539073
325, 2, bw, filler, NA, 999, 999, 1, 28, 147, 151, 168, 97, 138, 186, 3, 1.74757
325, 2, bw, filler, NA, 999, 999, 1, 28, 147, 151, 168, 97, 138, 186, 2, 1.82028
325, 2, bw, filler, NA, 999, 999, 1, 29, 125, 135, 117, 82, 125, 174, 3, 1.08898
325, 2, bw, filler, NA, 999, 999, 1, 29, 125, 135, 117, 82, 125, 174, 2, 0.61193
325, 2, bw, filler, NA, 999, 999, 1, 30, 179, 130, 129, 178, 62, 90, 1, 4.36095
325, 2, bw, filler, NA, 999, 999, 1, 30, 179, 130, 129, 178, 62, 90, 3, 1.20835
325, 2, bw, filler, NA, 999, 999, 1, 31, 95, 143, 78, 143, 155, 140, 3, 1.74121
325, 2, bw, filler, NA, 999, 999, 1, 31, 95, 143, 78, 143, 155, 140, 2, 1.22202
325, 2, bw, attraction, a-b-db, 5, 1, 1, 32, 135, 60, 58, 132, 60, 135, 1, 3.56285
325, 2, bw, attraction, a-b-db, 5, 1, 1, 32, 135, 60, 58, 132, 60, 135, 2, 0.586337
325, 2, bw, catch, NA, 999, 999, 1, 33, 122, 73, 190, 125, 108, 147, 2, 0.656806
325, 2, bw, catch, NA, 999, 999, 1, 33, 122, 73, 190, 125, 108, 147, 1, 1.1012
325, 2, bw, catch, NA, 999, 999, 1, 34, 180, 135, 106, 89, 113, 142, 1, 0.990909
325, 2, bw, catch, NA, 999, 999, 1, 34, 180, 135, 106, 89, 113, 142, 2, 0.861848
325, 2, bw, attraction, a-b-da, 2, 3, 1, 35, 195, 120, 120, 195, 193, 119, 2, 1.99286
325, 2, bw, attraction, a-b-da, 2, 3, 1, 35, 195, 120, 120, 195, 193, 119, 1, 0.823535
325, 2, bw, attraction, a-b-da, 2, 1, 1, 36, 135, 60, 60, 135, 134, 59, 3, 2.57995
325, 2, bw, attraction, a-b-da, 2, 1, 1, 36, 135, 60, 60, 135, 134, 59, 1, 0.939028
325, 2, bw, attraction, a-b-db, 9, 3, 1, 37, 114, 186, 195, 120, 120, 195, 2, 1.21948
325, 2, bw, attraction, a-b-db, 9, 3, 1, 37, 114, 186, 195, 120, 120, 195, 1, 0.577578
325, 2, bw, filler, NA, 999, 999, 2, 1, 136, 182, 58, 178, 96, 86, 1, 0.824012
325, 2, bw, filler, NA, 999, 999, 2, 1, 136, 182, 58, 178, 96, 86, 3, 0.957751
325, 2, bw, attraction, a-b-db, 14, 1, 2, 2, 56, 125, 60, 135, 135, 60, 3, 2.78877
325, 2, bw, attraction, a-b-db, 14, 1, 2, 2, 56, 125, 60, 135, 135, 60, 1, 0.811249
325, 2, bw, filler, NA, 999, 999, 2, 3, 88, 189, 62, 167, 115, 74, 1, 1.44813
325, 2, bw, filler, NA, 999, 999, 2, 3, 88, 189, 62, 167, 115, 74, 3, 1.30105
325, 2, bw, attraction, a-b-da, 9, 1, 2, 4, 129, 57, 60, 135, 135, 60, 3, 1.29466
325, 2, bw, attraction, a-b-da, 9, 1, 2, 4, 129, 57, 60, 135, 135, 60, 1, 0.633459
325, 2, bw, filler, NA, 999, 999, 2, 5, 185, 58, 68, 89, 163, 154, 3, 0.82983
325, 2, bw, filler, NA, 999, 999, 2, 5, 185, 58, 68, 89, 163, 154, 2, 0.587592
325, 2, bw, attraction, a-b-da, 9, 3, 2, 6, 186, 114, 120, 195, 195, 120, 2, 0.930074
325, 2, bw, attraction, a-b-da, 9, 3, 2, 6, 186, 114, 120, 195, 195, 120, 1, 0.699713
325, 2, bw, filler, NA, 999, 999, 2, 7, 190, 60, 165, 156, 159, 69, 2, 1.19739
325, 2, bw, filler, NA, 999, 999, 2, 7, 190, 60, 165, 156, 159, 69, 3, 1.17237
325, 2, bw, attraction, a-b-db, 14, 2, 2, 8, 83, 153, 90, 165, 165, 90, 2, 1.28333
325, 2, bw, attraction, a-b-db, 14, 2, 2, 8, 83, 153, 90, 165, 165, 90, 3, 0.534947
325, 2, bw, attraction, a-b-da, 2, 3, 2, 9, 195, 120, 193, 119, 120, 195, 2, 2.83127
325, 2, bw, attraction, a-b-da, 2, 3, 2, 9, 195, 120, 193, 119, 120, 195, 1, 0.924369
325, 2, bw, attraction, a-b-db, 9, 1, 2, 10, 57, 129, 60, 135, 135, 60, 2, 1.34067
325, 2, bw, attraction, a-b-db, 9, 1, 2, 10, 57, 129, 60, 135, 135, 60, 1, 0.749707
325, 2, bw, attraction, a-b-db, 2, 2, 2, 11, 165, 90, 89, 163, 90, 165, 2, 2.10929
325, 2, bw, attraction, a-b-db, 2, 2, 2, 11, 165, 90, 89, 163, 90, 165, 1, 0.68726
325, 2, bw, attraction, a-b-db, 5, 2, 2, 12, 90, 165, 165, 90, 88, 161, 2, 1.40959
325, 2, bw, attraction, a-b-db, 5, 2, 2, 12, 90, 165, 165, 90, 88, 161, 1, 0.759779
325, 2, bw, attraction, a-b-db, 14, 3, 2, 13, 195, 120, 111, 181, 120, 195, 1, 1.91088
325, 2, bw, attraction, a-b-db, 14, 3, 2, 13, 195, 120, 111, 181, 120, 195, 2, 0.672927
325, 2, bw, catch, NA, 999, 999, 2, 14, 82, 113, 132, 183, 129, 126, 2, 0.707322
325, 2, bw, catch, NA, 999, 999, 2, 14, 82, 113, 132, 183, 129, 126, 1, 0.72576
325, 2, bw, attraction, a-b-da, 9, 2, 2, 15, 157, 86, 90, 165, 165, 90, 3, 1.38217
325, 2, bw, attraction, a-b-da, 9, 2, 2, 15, 157, 86, 90, 165, 165, 90, 1, 0.797735
325, 2, bw, attraction, a-b-da, 14, 3, 2, 16, 120, 195, 181, 111, 195, 120, 1, 1.93929
325, 2, bw, attraction, a-b-da, 14, 3, 2, 16, 120, 195, 181, 111, 195, 120, 2, 0.812026
325, 2, bw, attraction, a-b-da, 5, 3, 2, 17, 195, 120, 190, 117, 120, 195, 3, 4.31311
325, 2, bw, attraction, a-b-da, 5, 3, 2, 17, 195, 120, 190, 117, 120, 195, 2, 0.850457
325, 2, bw, attraction, a-b-da, 14, 2, 2, 18, 165, 90, 153, 83, 90, 165, 1, 0.702074
325, 2, bw, attraction, a-b-da, 14, 2, 2, 18, 165, 90, 153, 83, 90, 165, 2, 0.465173
325, 2, bw, attraction, a-b-db, 2, 1, 2, 19, 60, 135, 59, 134, 135, 60, 2, 1.46038
325, 2, bw, attraction, a-b-db, 2, 1, 2, 19, 60, 135, 59, 134, 135, 60, 1, 0.230826
325, 2, bw, attraction, a-b-da, 14, 1, 2, 20, 135, 60, 125, 56, 60, 135, 2, 2.07696
325, 2, bw, attraction, a-b-da, 14, 1, 2, 20, 135, 60, 125, 56, 60, 135, 1, 0.656262
325, 2, bw, attraction, a-b-db, 9, 3, 2, 21, 120, 195, 114, 186, 195, 120, 2, 2.8194
325, 2, bw, attraction, a-b-db, 9, 3, 2, 21, 120, 195, 114, 186, 195, 120, 3, 0.585058
325, 2, bw, catch, NA, 999, 999, 2, 22, 131, 184, 125, 70, 151, 104, 1, 0.775663
325, 2, bw, catch, NA, 999, 999, 2, 22, 131, 184, 125, 70, 151, 104, 2, 0.703282
325, 2, bw, attraction, a-b-db, 5, 1, 2, 23, 135, 60, 58, 132, 60, 135, 2, 0.809018
325, 2, bw, attraction, a-b-db, 5, 1, 2, 23, 135, 60, 58, 132, 60, 135, 1, 0.743404
325, 2, bw, attraction, a-b-da, 2, 2, 2, 24, 163, 89, 165, 90, 90, 165, 2, 1.53508
325, 2, bw, attraction, a-b-da, 2, 2, 2, 24, 163, 89, 165, 90, 90, 165, 1, 0.640614
325, 2, bw, attraction, a-b-db, 2, 3, 2, 25, 119, 193, 195, 120, 120, 195, 2, 1.67637
325, 2, bw, attraction, a-b-db, 2, 3, 2, 25, 119, 193, 195, 120, 120, 195, 1, 0.671797
325, 2, bw, filler, NA, 999, 999, 2, 26, 127, 84, 95, 189, 62, 169, 2, 1.34696
325, 2, bw, filler, NA, 999, 999, 2, 26, 127, 84, 95, 189, 62, 169, 1, 0.667708
325, 2, bw, attraction, a-b-da, 5, 1, 2, 27, 132, 58, 135, 60, 60, 135, 2, 1.43892
325, 2, bw, attraction, a-b-da, 5, 1, 2, 27, 132, 58, 135, 60, 60, 135, 1, 0.587642
325, 2, bw, attraction, a-b-db, 9, 2, 2, 28, 90, 165, 165, 90, 86, 157, 2, 0.666061
325, 2, bw, attraction, a-b-db, 9, 2, 2, 28, 90, 165, 165, 90, 86, 157, 1, 0.510495
325, 2, bw, attraction, a-b-da, 2, 1, 2, 29, 135, 60, 134, 59, 60, 135, 2, 0.791597
325, 2, bw, attraction, a-b-da, 2, 1, 2, 29, 135, 60, 134, 59, 60, 135, 1, 0.510602
325, 2, bw, filler, NA, 999, 999, 2, 30, 64, 153, 156, 174, 96, 99, 2, 0.567878
325, 2, bw, filler, NA, 999, 999, 2, 30, 64, 153, 156, 174, 96, 99, 3, 0.928257
325, 2, bw, attraction, a-b-da, 5, 2, 2, 31, 90, 165, 165, 90, 161, 88, 2, 0.936583
325, 2, bw, attraction, a-b-da, 5, 2, 2, 31, 90, 165, 165, 90, 161, 88, 3, 0.682372
325, 2, bw, filler, NA, 999, 999, 2, 32, 151, 185, 66, 70, 133, 120, 1, 0.764743
325, 2, bw, filler, NA, 999, 999, 2, 32, 151, 185, 66, 70, 133, 120, 2, 0.541058
325, 2, bw, catch, NA, 999, 999, 2, 33, 64, 131, 166, 149, 119, 136, 2, 0.868804
325, 2, bw, catch, NA, 999, 999, 2, 33, 64, 131, 166, 149, 119, 136, 1, 0.569197
325, 2, bw, filler, NA, 999, 999, 2, 34, 77, 74, 179, 189, 170, 68, 2, 0.544373
325, 2, bw, filler, NA, 999, 999, 2, 34, 77, 74, 179, 189, 170, 68, 1, 0.521521
325, 2, bw, filler, NA, 999, 999, 2, 35, 84, 122, 56, 170, 159, 113, 3, 0.682567
325, 2, bw, filler, NA, 999, 999, 2, 35, 84, 122, 56, 170, 159, 113, 1, 0.862303
325, 2, bw, filler, NA, 999, 999, 2, 36, 101, 142, 151, 104, 171, 172, 3, 0.545301
325, 2, bw, filler, NA, 999, 999, 2, 36, 101, 142, 151, 104, 171, 172, 1, 0.754453
325, 2, bw, attraction, a-b-db, 5, 3, 2, 37, 117, 190, 195, 120, 120, 195, 2, 1.50613
325, 2, bw, attraction, a-b-db, 5, 3, 2, 37, 117, 190, 195, 120, 120, 195, 3, 0.452386
325, 2, bw, attraction, a-b-db, 2, 2, 3, 1, 165, 90, 90, 165, 89, 163, 2, 1.80808
325, 2, bw, attraction, a-b-db, 2, 2, 3, 1, 165, 90, 90, 165, 89, 163, 1, 0.934206
325, 2, bw, filler, NA, 999, 999, 3, 2, 63, 145, 112, 70, 72, 60, 1, 2.58249
325, 2, bw, filler, NA, 999, 999, 3, 2, 63, 145, 112, 70, 72, 60, 3, 0.845642
325, 2, bw, attraction, a-b-db, 9, 2, 3, 3, 86, 157, 90, 165, 165, 90, 2, 2.16141
325, 2, bw, attraction, a-b-db, 9, 2, 3, 3, 86, 157, 90, 165, 165, 90, 1, 1.16136
325, 2, bw, filler, NA, 999, 999, 3, 4, 151, 169, 100, 195, 152, 91, 1, 0.712215
325, 2, bw, filler, NA, 999, 999, 3, 4, 151, 169, 100, 195, 152, 91, 3, 0.970694
325, 2, bw, attraction, a-b-db, 14, 2, 3, 5, 90, 165, 83, 153, 165, 90, 3, 1.52166
325, 2, bw, attraction, a-b-db, 14, 2, 3, 5, 90, 165, 83, 153, 165, 90, 1, 0.803134
325, 2, bw, filler, NA, 999, 999, 3, 6, 156, 74, 149, 136, 166, 84, 2, 0.712799
325, 2, bw, filler, NA, 999, 999, 3, 6, 156, 74, 149, 136, 166, 84, 1, 2.49133
325, 2, bw, filler, NA, 999, 999, 3, 7, 146, 175, 60, 66, 84, 130, 1, 0.644462
325, 2, bw, filler, NA, 999, 999, 3, 7, 146, 175, 60, 66, 84, 130, 2, 0.75346
325, 2, bw, filler, NA, 999, 999, 3, 8, 57, 159, 183, 104, 64, 185, 2, 0.689305
325, 2, bw, filler, NA, 999, 999, 3, 8, 57, 159, 183, 104, 64, 185, 1, 0.668302
325, 2, bw, attraction, a-b-da, 5, 1, 3, 9, 132, 58, 60, 135, 135, 60, 3, 2.08741
325, 2, bw, attraction, a-b-da, 5, 1, 3, 9, 132, 58, 60, 135, 135, 60, 1, 0.898129
325, 2, bw, filler, NA, 999, 999, 3, 10, 123, 104, 112, 151, 168, 182, 3, 1.27575
325, 2, bw, filler, NA, 999, 999, 3, 10, 123, 104, 112, 151, 168, 182, 1, 2.51924
325, 2, bw, attraction, a-b-da, 2, 1, 3, 11, 134, 59, 60, 135, 135, 60, 2, 3.16768
325, 2, bw, attraction, a-b-da, 2, 1, 3, 11, 134, 59, 60, 135, 135, 60, 1, 0.463356
325, 2, bw, attraction, a-b-db, 5, 1, 3, 12, 135, 60, 60, 135, 58, 132, 1, 0.802563
325, 2, bw, attraction, a-b-db, 5, 1, 3, 12, 135, 60, 60, 135, 58, 132, 2, 0.849633
325, 2, bw, attraction, a-b-db, 14, 3, 3, 13, 120, 195, 195, 120, 111, 181, 2, 1.25326
325, 2, bw, attraction, a-b-db, 14, 3, 3, 13, 120, 195, 195, 120, 111, 181, 3, 0.770218
325, 2, bw, catch, NA, 999, 999, 3, 14, 82, 113, 163, 152, 109, 146, 2, 0.601143
325, 2, bw, catch, NA, 999, 999, 3, 14, 82, 113, 163, 152, 109, 146, 1, 1.0244
325, 2, bw, catch, NA, 999, 999, 3, 15, 186, 129, 138, 117, 130, 65, 1, 0.756634
325, 2, bw, catch, NA, 999, 999, 3, 15, 186, 129, 138, 117, 130, 65, 3, 0.628981
325, 2, bw, attraction, a-b-db, 9, 1, 3, 16, 60, 135, 57, 129, 135, 60, 3, 1.36938
325, 2, bw, attraction, a-b-db, 9, 1, 3, 16, 60, 135, 57, 129, 135, 60, 2, 0.881623
325, 2, bw, attraction, a-b-da, 9, 2, 3, 17, 157, 86, 90, 165, 165, 90, 2, 0.80397
325, 2, bw, attraction, a-b-da, 9, 2, 3, 17, 157, 86, 90, 165, 165, 90, 1, 0.546363
325, 2, bw, attraction, a-b-db, 5, 3, 3, 18, 195, 120, 117, 190, 120, 195, 1, 3.72208
325, 2, bw, attraction, a-b-db, 5, 3, 3, 18, 195, 120, 117, 190, 120, 195, 3, 0.666913
325, 2, bw, attraction, a-b-da, 5, 2, 3, 19, 90, 165, 165, 90, 161, 88, 2, 0.893985
325, 2, bw, attraction, a-b-da, 5, 2, 3, 19, 90, 165, 165, 90, 161, 88, 1, 0.528995
325, 2, bw, attraction, a-b-da, 14, 1, 3, 20, 125, 56, 135, 60, 60, 135, 2, 0.665478
325, 2, bw, attraction, a-b-da, 14, 1, 3, 20, 125, 56, 135, 60, 60, 135, 1, 0.581842
325, 2, bw, attraction, a-b-db, 2, 1, 3, 21, 59, 134, 60, 135, 135, 60, 2, 1.27634
325, 2, bw, attraction, a-b-db, 2, 1, 3, 21, 59, 134, 60, 135, 135, 60, 3, 0.62394
325, 2, bw, catch, NA, 999, 999, 3, 22, 69, 126, 124, 191, 95, 160, 2, 0.60431
325, 2, bw, catch, NA, 999, 999, 3, 22, 69, 126, 124, 191, 95, 160, 1, 0.610862
325, 2, bw, attraction, a-b-da, 2, 2, 3, 23, 165, 90, 163, 89, 90, 165, 2, 0.535774
325, 2, bw, attraction, a-b-da, 2, 2, 3, 23, 165, 90, 163, 89, 90, 165, 1, 0.457633
325, 2, bw, attraction, a-b-da, 14, 3, 3, 24, 120, 195, 195, 120, 181, 111, 2, 2.38884
325, 2, bw, attraction, a-b-da, 14, 3, 3, 24, 120, 195, 195, 120, 181, 111, 1, 0.539349
325, 2, bw, attraction, a-b-da, 5, 3, 3, 25, 120, 195, 190, 117, 195, 120, 3, 1.01111
325, 2, bw, attraction, a-b-da, 5, 3, 3, 25, 120, 195, 190, 117, 195, 120, 2, 0.697578
325, 2, bw, attraction, a-b-db, 9, 3, 3, 26, 195, 120, 114, 186, 120, 195, 3, 2.53924
325, 2, bw, attraction, a-b-db, 9, 3, 3, 26, 195, 120, 114, 186, 120, 195, 1, 2.63574
325, 2, bw, filler, NA, 999, 999, 3, 27, 152, 147, 191, 148, 70, 122, 2, 0.639497
325, 2, bw, filler, NA, 999, 999, 3, 27, 152, 147, 191, 148, 70, 122, 3, 0.572584
325, 2, bw, filler, NA, 999, 999, 3, 28, 186, 76, 100, 187, 98, 177, 2, 0.69101
325, 2, bw, filler, NA, 999, 999, 3, 28, 186, 76, 100, 187, 98, 177, 1, 2.32615
325, 2, bw, attraction, a-b-db, 5, 2, 3, 29, 165, 90, 88, 161, 90, 165, 1, 1.31797
325, 2, bw, attraction, a-b-db, 5, 2, 3, 29, 165, 90, 88, 161, 90, 165, 2, 0.584208
325, 2, bw, attraction, a-b-da, 14, 2, 3, 30, 165, 90, 153, 83, 90, 165, 1, 1.82262
325, 2, bw, attraction, a-b-da, 14, 2, 3, 30, 165, 90, 153, 83, 90, 165, 2, 0.556053
325, 2, bw, filler, NA, 999, 999, 3, 31, 108, 149, 177, 108, 110, 109, 2, 1.21925
325, 2, bw, filler, NA, 999, 999, 3, 31, 108, 149, 177, 108, 110, 109, 3, 0.969408
325, 2, bw, attraction, a-b-da, 9, 3, 3, 32, 195, 120, 186, 114, 120, 195, 1, 2.44033
325, 2, bw, attraction, a-b-da, 9, 3, 3, 32, 195, 120, 186, 114, 120, 195, 2, 1.03691
325, 2, bw, attraction, a-b-db, 14, 1, 3, 33, 60, 135, 135, 60, 56, 125, 2, 2.28915
325, 2, bw, attraction, a-b-db, 14, 1, 3, 33, 60, 135, 135, 60, 56, 125, 1, 1.11578
325, 2, bw, filler, NA, 999, 999, 3, 34, 184, 149, 63, 187, 100, 138, 1, 0.940669
325, 2, bw, filler, NA, 999, 999, 3, 34, 184, 149, 63, 187, 100, 138, 3, 1.94172
325, 2, bw, attraction, a-b-db, 2, 3, 3, 35, 120, 195, 119, 193, 195, 120, 2, 1.341
325, 2, bw, attraction, a-b-db, 2, 3, 3, 35, 120, 195, 119, 193, 195, 120, 1, 1.12589
325, 2, bw, attraction, a-b-da, 2, 3, 3, 36, 193, 119, 120, 195, 195, 120, 2, 1.21414
325, 2, bw, attraction, a-b-da, 2, 3, 3, 36, 193, 119, 120, 195, 195, 120, 3, 0.500384
325, 2, bw, attraction, a-b-da, 9, 1, 3, 37, 129, 57, 60, 135, 135, 60, 3, 1.13423
325, 2, bw, attraction, a-b-da, 9, 1, 3, 37, 129, 57, 60, 135, 135, 60, 1, 1.53587
325, 2, bw, attraction, a-b-da, 2, 3, 4, 1, 195, 120, 120, 195, 193, 119, 2, 3.28796
325, 2, bw, attraction, a-b-da, 2, 3, 4, 1, 195, 120, 120, 195, 193, 119, 3, 0.514275
325, 2, bw, attraction, a-b-da, 14, 2, 4, 2, 90, 165, 153, 83, 165, 90, 3, 1.73934
325, 2, bw, attraction, a-b-da, 14, 2, 4, 2, 90, 165, 153, 83, 165, 90, 2, 0.612151
325, 2, bw, attraction, a-b-db, 5, 3, 4, 3, 120, 195, 195, 120, 117, 190, 2, 1.00136
325, 2, bw, attraction, a-b-db, 5, 3, 4, 3, 120, 195, 195, 120, 117, 190, 3, 0.632234
325, 2, bw, attraction, a-b-db, 14, 3, 4, 4, 111, 181, 195, 120, 120, 195, 2, 1.26063
325, 2, bw, attraction, a-b-db, 14, 3, 4, 4, 111, 181, 195, 120, 120, 195, 1, 0.624847
325, 2, bw, attraction, a-b-db, 2, 3, 4, 5, 195, 120, 120, 195, 119, 193, 2, 3.39727
325, 2, bw, attraction, a-b-db, 2, 3, 4, 5, 195, 120, 120, 195, 119, 193, 1, 0.491456
325, 2, bw, attraction, a-b-da, 9, 3, 4, 6, 186, 114, 120, 195, 195, 120, 3, 2.59726
325, 2, bw, attraction, a-b-da, 9, 3, 4, 6, 186, 114, 120, 195, 195, 120, 1, 0.915813
325, 2, bw, attraction, a-b-db, 9, 2, 4, 7, 90, 165, 165, 90, 86, 157, 2, 0.956819
325, 2, bw, attraction, a-b-db, 9, 2, 4, 7, 90, 165, 165, 90, 86, 157, 3, 0.578047
325, 2, bw, attraction, a-b-da, 9, 1, 4, 8, 129, 57, 135, 60, 60, 135, 2, 3.80361
325, 2, bw, attraction, a-b-da, 9, 1, 4, 8, 129, 57, 135, 60, 60, 135, 3, 0.929667
325, 2, bw, attraction, a-b-da, 5, 3, 4, 9, 190, 117, 120, 195, 195, 120, 3, 2.10608
325, 2, bw, attraction, a-b-da, 5, 3, 4, 9, 190, 117, 120, 195, 195, 120, 1, 1.13202
325, 2, bw, catch, NA, 999, 999, 4, 10, 122, 73, 123, 132, 144, 171, 3, 0.964252
325, 2, bw, catch, NA, 999, 999, 4, 10, 122, 73, 123, 132, 144, 171, 1, 0.772551
325, 2, bw, attraction, a-b-da, 2, 1, 4, 11, 135, 60, 134, 59, 60, 135, 2, 1.32354
325, 2, bw, attraction, a-b-da, 2, 1, 4, 11, 135, 60, 134, 59, 60, 135, 3, 1.13316
325, 2, bw, attraction, a-b-da, 5, 2, 4, 12, 161, 88, 165, 90, 90, 165, 2, 1.4134
325, 2, bw, attraction, a-b-da, 5, 2, 4, 12, 161, 88, 165, 90, 90, 165, 1, 0.715677
325, 2, bw, attraction, a-b-db, 2, 1, 4, 13, 135, 60, 60, 135, 59, 134, 2, 0.628697
325, 2, bw, attraction, a-b-db, 2, 1, 4, 13, 135, 60, 60, 135, 59, 134, 1, 0.482452
325, 2, bw, attraction, a-b-db, 14, 2, 4, 14, 90, 165, 165, 90, 83, 153, 2, 1.18888
325, 2, bw, attraction, a-b-db, 14, 2, 4, 14, 90, 165, 165, 90, 83, 153, 3, 0.459838
325, 2, bw, attraction, a-b-da, 5, 1, 4, 15, 135, 60, 60, 135, 132, 58, 1, 2.43089
325, 2, bw, attraction, a-b-da, 5, 1, 4, 15, 135, 60, 60, 135, 132, 58, 3, 0.548154
325, 2, bw, filler, NA, 999, 999, 4, 16, 70, 104, 155, 187, 92, 106, 2, 0.50788
325, 2, bw, filler, NA, 999, 999, 4, 16, 70, 104, 155, 187, 92, 106, 1, 0.542382
325, 2, bw, attraction, a-b-db, 9, 1, 4, 17, 135, 60, 60, 135, 57, 129, 1, 0.854141
325, 2, bw, attraction, a-b-db, 9, 1, 4, 17, 135, 60, 60, 135, 57, 129, 2, 0.666523
325, 2, bw, filler, NA, 999, 999, 4, 18, 61, 92, 159, 183, 56, 191, 2, 0.741619
325, 2, bw, filler, NA, 999, 999, 4, 18, 61, 92, 159, 183, 56, 191, 1, 0.542713
325, 2, bw, attraction, a-b-db, 14, 1, 4, 19, 135, 60, 56, 125, 60, 135, 1, 0.998425
325, 2, bw, attraction, a-b-db, 14, 1, 4, 19, 135, 60, 56, 125, 60, 135, 2, 0.653556
325, 2, bw, attraction, a-b-db, 5, 2, 4, 20, 88, 161, 90, 165, 165, 90, 3, 1.44918
325, 2, bw, attraction, a-b-db, 5, 2, 4, 20, 88, 161, 90, 165, 165, 90, 1, 0.926009
325, 2, bw, attraction, a-b-da, 9, 2, 4, 21, 90, 165, 165, 90, 157, 86, 2, 0.806382
325, 2, bw, attraction, a-b-da, 9, 2, 4, 21, 90, 165, 165, 90, 157, 86, 1, 0.700726
325, 2, bw, filler, NA, 999, 999, 4, 22, 57, 189, 145, 74, 104, 111, 2, 1.39055
325, 2, bw, filler, NA, 999, 999, 4, 22, 57, 189, 145, 74, 104, 111, 3, 0.557294
325, 2, bw, attraction, a-b-da, 14, 3, 4, 23, 120, 195, 195, 120, 181, 111, 2, 0.940489
325, 2, bw, attraction, a-b-da, 14, 3, 4, 23, 120, 195, 195, 120, 181, 111, 1, 1.06947
325, 2, bw, filler, NA, 999, 999, 4, 24, 153, 184, 178, 80, 148, 58, 1, 2.78441
325, 2, bw, filler, NA, 999, 999, 4, 24, 153, 184, 178, 80, 148, 58, 3, 0.823507
325, 2, bw, filler, NA, 999, 999, 4, 25, 77, 111, 63, 152, 75, 80, 2, 1.65184
325, 2, bw, filler, NA, 999, 999, 4, 25, 77, 111, 63, 152, 75, 80, 3, 1.39274
325, 2, bw, attraction, a-b-db, 9, 3, 4, 26, 195, 120, 114, 186, 120, 195, 1, 1.79011
325, 2, bw, attraction, a-b-db, 9, 3, 4, 26, 195, 120, 114, 186, 120, 195, 3, 0.588897
325, 2, bw, filler, NA, 999, 999, 4, 27, 103, 186, 131, 84, 127, 141, 3, 0.939471
325, 2, bw, filler, NA, 999, 999, 4, 27, 103, 186, 131, 84, 127, 141, 2, 2.73237
325, 2, bw, attraction, a-b-da, 2, 2, 4, 28, 165, 90, 163, 89, 90, 165, 2, 0.908101
325, 2, bw, attraction, a-b-da, 2, 2, 4, 28, 165, 90, 163, 89, 90, 165, 1, 0.574383
325, 2, bw, filler, NA, 999, 999, 4, 29, 127, 133, 185, 124, 177, 113, 2, 1.5729
325, 2, bw, filler, NA, 999, 999, 4, 29, 127, 133, 185, 124, 177, 113, 1, 0.652308
325, 2, bw, filler, NA, 999, 999, 4, 30, 108, 107, 132, 130, 131, 195, 3, 0.808049
325, 2, bw, filler, NA, 999, 999, 4, 30, 108, 107, 132, 130, 131, 195, 1, 0.878483
325, 2, bw, attraction, a-b-db, 5, 1, 4, 31, 135, 60, 58, 132, 60, 135, 1, 2.14483
325, 2, bw, attraction, a-b-db, 5, 1, 4, 31, 135, 60, 58, 132, 60, 135, 3, 0.761441
325, 2, bw, filler, NA, 999, 999, 4, 32, 83, 147, 182, 186, 64, 131, 2, 0.760553
325, 2, bw, filler, NA, 999, 999, 4, 32, 83, 147, 182, 186, 64, 131, 3, 1.28096
325, 2, bw, filler, NA, 999, 999, 4, 33, 171, 150, 141, 69, 166, 116, 1, 2.25913
325, 2, bw, filler, NA, 999, 999, 4, 33, 171, 150, 141, 69, 166, 116, 2, 0.975064
325, 2, bw, attraction, a-b-da, 14, 1, 4, 34, 60, 135, 125, 56, 135, 60, 3, 1.12535
325, 2, bw, attraction, a-b-da, 14, 1, 4, 34, 60, 135, 125, 56, 135, 60, 2, 0.790971
325, 2, bw, catch, NA, 999, 999, 4, 35, 162, 153, 146, 109, 77, 118, 1, 0.660589
325, 2, bw, catch, NA, 999, 999, 4, 35, 162, 153, 146, 109, 77, 118, 3, 0.729083
325, 2, bw, catch, NA, 999, 999, 4, 36, 93, 102, 158, 157, 108, 147, 2, 0.705417
325, 2, bw, catch, NA, 999, 999, 4, 36, 93, 102, 158, 157, 108, 147, 1, 0.659993
325, 2, bw, attraction, a-b-db, 2, 2, 4, 37, 90, 165, 165, 90, 89, 163, 1, 3.1829
325, 2, bw, attraction, a-b-db, 2, 2, 4, 37, 90, 165, 165, 90, 89, 163, 2, 0.517863
325, 2, bw, attraction, a-b-da, 9, 2, 5, 1, 157, 86, 165, 90, 90, 165, 2, 2.86164
325, 2, bw, attraction, a-b-da, 9, 2, 5, 1, 157, 86, 165, 90, 90, 165, 1, 0.777404
325, 2, bw, attraction, a-b-da, 5, 2, 5, 2, 161, 88, 90, 165, 165, 90, 2, 1.1758
325, 2, bw, attraction, a-b-da, 5, 2, 5, 2, 161, 88, 90, 165, 165, 90, 1, 0.495388
325, 2, bw, attraction, a-b-db, 9, 3, 5, 3, 114, 186, 120, 195, 195, 120, 2, 0.857132
325, 2, bw, attraction, a-b-db, 9, 3, 5, 3, 114, 186, 120, 195, 195, 120, 1, 0.91749
325, 2, bw, attraction, a-b-db, 14, 2, 5, 4, 90, 165, 165, 90, 83, 153, 2, 0.686545
325, 2, bw, attraction, a-b-db, 14, 2, 5, 4, 90, 165, 165, 90, 83, 153, 3, 0.754277
325, 2, bw, filler, NA, 999, 999, 5, 5, 142, 164, 151, 114, 66, 155, 1, 1.29
325, 2, bw, filler, NA, 999, 999, 5, 5, 142, 164, 151, 114, 66, 155, 3, 0.916925
325, 2, bw, attraction, a-b-da, 2, 2, 5, 6, 163, 89, 90, 165, 165, 90, 2, 0.869964
325, 2, bw, attraction, a-b-da, 2, 2, 5, 6, 163, 89, 90, 165, 165, 90, 1, 0.842245
325, 2, bw, catch, NA, 999, 999, 5, 7, 167, 148, 126, 129, 81, 114, 1, 0.685893
325, 2, bw, catch, NA, 999, 999, 5, 7, 167, 148, 126, 129, 81, 114, 3, 0.873702
325, 2, bw, attraction, a-b-db, 5, 1, 5, 8, 135, 60, 58, 132, 60, 135, 1, 1.22
325, 2, bw, attraction, a-b-db, 5, 1, 5, 8, 135, 60, 58, 132, 60, 135, 2, 0.786362
325, 2, bw, attraction, a-b-db, 14, 1, 5, 9, 56, 125, 135, 60, 60, 135, 2, 0.888582
325, 2, bw, attraction, a-b-db, 14, 1, 5, 9, 56, 125, 135, 60, 60, 135, 1, 0.587651
325, 2, bw, catch, NA, 999, 999, 5, 10, 153, 162, 100, 155, 128, 67, 1, 1.06604
325, 2, bw, catch, NA, 999, 999, 5, 10, 153, 162, 100, 155, 128, 67, 3, 0.982454
325, 2, bw, filler, NA, 999, 999, 5, 11, 72, 136, 154, 138, 163, 142, 3, 4.36483
325, 2, bw, filler, NA, 999, 999, 5, 11, 72, 136, 154, 138, 163, 142, 1, 0.540071
325, 2, bw, attraction, a-b-da, 14, 1, 5, 12, 125, 56, 135, 60, 60, 135, 2, 1.40371
325, 2, bw, attraction, a-b-da, 14, 1, 5, 12, 125, 56, 135, 60, 60, 135, 1, 1.07464
325, 2, bw, filler, NA, 999, 999, 5, 13, 153, 175, 85, 150, 103, 140, 1, 0.612819
325, 2, bw, filler, NA, 999, 999, 5, 13, 153, 175, 85, 150, 103, 140, 3, 0.939309
325, 2, bw, filler, NA, 999, 999, 5, 14, 151, 56, 74, 136, 145, 96, 3, 1.30769
325, 2, bw, filler, NA, 999, 999, 5, 14, 151, 56, 74, 136, 145, 96, 1, 1.31792
325, 2, bw, attraction, a-b-da, 14, 3, 5, 15, 181, 111, 120, 195, 195, 120, 2, 1.37474
325, 2, bw, attraction, a-b-da, 14, 3, 5, 15, 181, 111, 120, 195, 195, 120, 1, 0.486286
325, 2, bw, attraction, a-b-db, 2, 2, 5, 16, 90, 165, 89, 163, 165, 90, 3, 0.896771
325, 2, bw, attraction, a-b-db, 2, 2, 5, 16, 90, 165, 89, 163, 165, 90, 1, 0.571836
325, 2, bw, attraction, a-b-db, 2, 3, 5, 17, 119, 193, 195, 120, 120, 195, 2, 1.15489
325, 2, bw, attraction, a-b-db, 2, 3, 5, 17, 119, 193, 195, 120, 120, 195, 1, 0.539133
325, 2, bw, filler, NA, 999, 999, 5, 18, 93, 181, 168, 135, 137, 138, 2, 0.955663
325, 2, bw, filler, NA, 999, 999, 5, 18, 93, 181, 168, 135, 137, 138, 1, 1.47589
325, 2, bw, attraction, a-b-db, 9, 2, 5, 19, 165, 90, 90, 165, 86, 157, 2, 2.24615
325, 2, bw, attraction, a-b-db, 9, 2, 5, 19, 165, 90, 90, 165, 86, 157, 3, 0.802676
325, 2, bw, attraction, a-b-db, 14, 3, 5, 20, 195, 120, 120, 195, 111, 181, 2, 2.17644
325, 2, bw, attraction, a-b-db, 14, 3, 5, 20, 195, 120, 120, 195, 111, 181, 1, 0.519628
325, 2, bw, attraction, a-b-da, 9, 1, 5, 21, 135, 60, 129, 57, 60, 135, 2, 1.86478
325, 2, bw, attraction, a-b-da, 9, 1, 5, 21, 135, 60, 129, 57, 60, 135, 3, 0.588864
325, 2, bw, attraction, a-b-da, 2, 3, 5, 22, 195, 120, 193, 119, 120, 195, 2, 1.22726
325, 2, bw, attraction, a-b-da, 2, 3, 5, 22, 195, 120, 193, 119, 120, 195, 3, 0.520844
325, 2, bw, attraction, a-b-db, 5, 2, 5, 23, 88, 161, 90, 165, 165, 90, 2, 1.10596
325, 2, bw, attraction, a-b-db, 5, 2, 5, 23, 88, 161, 90, 165, 165, 90, 1, 0.972366
325, 2, bw, attraction, a-b-db, 9, 1, 5, 24, 57, 129, 60, 135, 135, 60, 3, 1.61122
325, 2, bw, attraction, a-b-db, 9, 1, 5, 24, 57, 129, 60, 135, 135, 60, 1, 0.641354
325, 2, bw, filler, NA, 999, 999, 5, 25, 113, 140, 105, 163, 65, 190, 2, 0.63711
325, 2, bw, filler, NA, 999, 999, 5, 25, 113, 140, 105, 163, 65, 190, 3, 2.15436
325, 2, bw, filler, NA, 999, 999, 5, 26, 114, 145, 94, 158, 171, 64, 1, 2.48147
325, 2, bw, filler, NA, 999, 999, 5, 26, 114, 145, 94, 158, 171, 64, 3, 2.4047
325, 2, bw, attraction, a-b-da, 5, 3, 5, 27, 195, 120, 190, 117, 120, 195, 1, 1.60197
325, 2, bw, attraction, a-b-da, 5, 3, 5, 27, 195, 120, 190, 117, 120, 195, 3, 0.664703
325, 2, bw, attraction, a-b-db, 5, 3, 5, 28, 117, 190, 120, 195, 195, 120, 2, 0.81174
325, 2, bw, attraction, a-b-db, 5, 3, 5, 28, 117, 190, 120, 195, 195, 120, 3, 0.978121
325, 2, bw, attraction, a-b-da, 14, 2, 5, 29, 153, 83, 165, 90, 90, 165, 2, 0.904458
325, 2, bw, attraction, a-b-da, 14, 2, 5, 29, 153, 83, 165, 90, 90, 165, 1, 0.506844
325, 2, bw, filler, NA, 999, 999, 5, 30, 94, 139, 161, 87, 102, 82, 2, 1.1079
325, 2, bw, filler, NA, 999, 999, 5, 30, 94, 139, 161, 87, 102, 82, 3, 0.59824
325, 2, bw, attraction, a-b-da, 2, 1, 5, 31, 135, 60, 134, 59, 60, 135, 2, 0.507957
325, 2, bw, attraction, a-b-da, 2, 1, 5, 31, 135, 60, 134, 59, 60, 135, 3, 0.71048
325, 2, bw, attraction, a-b-da, 9, 3, 5, 32, 195, 120, 186, 114, 120, 195, 1, 3.11952
325, 2, bw, attraction, a-b-da, 9, 3, 5, 32, 195, 120, 186, 114, 120, 195, 2, 0.457269
325, 2, bw, filler, NA, 999, 999, 5, 33, 82, 148, 97, 167, 76, 98, 2, 0.716417
325, 2, bw, filler, NA, 999, 999, 5, 33, 82, 148, 97, 167, 76, 98, 3, 0.590701
325, 2, bw, attraction, a-b-da, 5, 1, 5, 34, 132, 58, 135, 60, 60, 135, 2, 1.01239
325, 2, bw, attraction, a-b-da, 5, 1, 5, 34, 132, 58, 135, 60, 60, 135, 3, 0.906811
325, 2, bw, catch, NA, 999, 999, 5, 35, 151, 104, 157, 158, 89, 106, 2, 0.57975
325, 2, bw, catch, NA, 999, 999, 5, 35, 151, 104, 157, 158, 89, 106, 3, 0.63549
325, 2, bw, filler, NA, 999, 999, 5, 36, 56, 173, 175, 122, 105, 192, 2, 2.04795
325, 2, bw, filler, NA, 999, 999, 5, 36, 56, 173, 175, 122, 105, 192, 1, 0.940629
325, 2, bw, attraction, a-b-db, 2, 1, 5, 37, 135, 60, 60, 135, 59, 134, 2, 0.932225
325, 2, bw, attraction, a-b-db, 2, 1, 5, 37, 135, 60, 60, 135, 59, 134, 1, 0.541919
325, 2, bw, attraction, a-b-db, 9, 3, 6, 1, 114, 186, 195, 120, 120, 195, 2, 0.621744
325, 2, bw, attraction, a-b-db, 9, 3, 6, 1, 114, 186, 195, 120, 120, 195, 1, 0.819523
325, 2, bw, filler, NA, 999, 999, 6, 2, 69, 160, 100, 143, 60, 127, 2, 1.07249
325, 2, bw, filler, NA, 999, 999, 6, 2, 69, 160, 100, 143, 60, 127, 3, 0.652202
325, 2, bw, attraction, a-b-da, 2, 3, 6, 3, 193, 119, 195, 120, 120, 195, 3, 1.11991
325, 2, bw, attraction, a-b-da, 2, 3, 6, 3, 193, 119, 195, 120, 120, 195, 2, 0.54619
325, 2, bw, attraction, a-b-db, 5, 3, 6, 4, 120, 195, 195, 120, 117, 190, 2, 1.17807
325, 2, bw, attraction, a-b-db, 5, 3, 6, 4, 120, 195, 195, 120, 117, 190, 3, 0.785612
325, 2, bw, attraction, a-b-db, 9, 1, 6, 5, 57, 129, 60, 135, 135, 60, 3, 0.983935
325, 2, bw, attraction, a-b-db, 9, 1, 6, 5, 57, 129, 60, 135, 135, 60, 1, 0.511587
325, 2, bw, attraction, a-b-da, 9, 2, 6, 6, 90, 165, 165, 90, 157, 86, 2, 1.05671
325, 2, bw, attraction, a-b-da, 9, 2, 6, 6, 90, 165, 165, 90, 157, 86, 1, 0.493045
325, 2, bw, filler, NA, 999, 999, 6, 7, 89, 194, 189, 184, 92, 143, 2, 0.58291
325, 2, bw, filler, NA, 999, 999, 6, 7, 89, 194, 189, 184, 92, 143, 3, 0.502789
325, 2, bw, attraction, a-b-db, 2, 2, 6, 8, 90, 165, 89, 163, 165, 90, 3, 1.15245
325, 2, bw, attraction, a-b-db, 2, 2, 6, 8, 90, 165, 89, 163, 165, 90, 1, 0.457348
325, 2, bw, attraction, a-b-da, 9, 1, 6, 9, 60, 135, 135, 60, 129, 57, 2, 0.628396
325, 2, bw, attraction, a-b-da, 9, 1, 6, 9, 60, 135, 135, 60, 129, 57, 1, 0.538221
325, 2, bw, attraction, a-b-db, 5, 2, 6, 10, 90, 165, 165, 90, 88, 161, 2, 0.554712
325, 2, bw, attraction, a-b-db, 5, 2, 6, 10, 90, 165, 165, 90, 88, 161, 1, 0.403144
325, 2, bw, attraction, a-b-da, 9, 3, 6, 11, 120, 195, 186, 114, 195, 120, 3, 0.769105
325, 2, bw, attraction, a-b-da, 9, 3, 6, 11, 120, 195, 186, 114, 195, 120, 2, 0.889365
325, 2, bw, attraction, a-b-db, 14, 1, 6, 12, 60, 135, 56, 125, 135, 60, 3, 0.963087
325, 2, bw, attraction, a-b-db, 14, 1, 6, 12, 60, 135, 56, 125, 135, 60, 2, 0.643465
325, 2, bw, attraction, a-b-da, 5, 2, 6, 13, 165, 90, 161, 88, 90, 165, 2, 0.695187
325, 2, bw, attraction, a-b-da, 5, 2, 6, 13, 165, 90, 161, 88, 90, 165, 1, 0.498363
325, 2, bw, attraction, a-b-db, 2, 3, 6, 14, 195, 120, 120, 195, 119, 193, 2, 1.17204
325, 2, bw, attraction, a-b-db, 2, 3, 6, 14, 195, 120, 120, 195, 119, 193, 3, 0.411552
325, 2, bw, filler, NA, 999, 999, 6, 15, 75, 82, 148, 176, 131, 121, 2, 0.824806
325, 2, bw, filler, NA, 999, 999, 6, 15, 75, 82, 148, 176, 131, 121, 1, 0.390472
325, 2, bw, attraction, a-b-da, 14, 3, 6, 16, 181, 111, 195, 120, 120, 195, 2, 0.860307
325, 2, bw, attraction, a-b-da, 14, 3, 6, 16, 181, 111, 195, 120, 120, 195, 1, 0.360646
325, 2, bw, filler, NA, 999, 999, 6, 17, 182, 184, 161, 133, 188, 172, 3, 1.39981
325, 2, bw, filler, NA, 999, 999, 6, 17, 182, 184, 161, 133, 188, 172, 2, 0.758675
325, 2, bw, catch, NA, 999, 999, 6, 18, 162, 93, 73, 122, 192, 123, 3, 0.693811
325, 2, bw, catch, NA, 999, 999, 6, 18, 162, 93, 73, 122, 192, 123, 2, 0.857008
325, 2, bw, filler, NA, 999, 999, 6, 19, 93, 188, 143, 81, 76, 133, 1, 0.99579
325, 2, bw, filler, NA, 999, 999, 6, 19, 93, 188, 143, 81, 76, 133, 3, 0.826839
325, 2, bw, attraction, a-b-db, 2, 1, 6, 20, 60, 135, 135, 60, 59, 134, 2, 0.663168
325, 2, bw, attraction, a-b-db, 2, 1, 6, 20, 60, 135, 135, 60, 59, 134, 1, 0.7156
325, 2, bw, filler, NA, 999, 999, 6, 21, 169, 99, 115, 84, 106, 66, 1, 0.652651
325, 2, bw, filler, NA, 999, 999, 6, 21, 169, 99, 115, 84, 106, 66, 3, 0.721901
325, 2, bw, attraction, a-b-db, 5, 1, 6, 22, 135, 60, 58, 132, 60, 135, 2, 1.20279
325, 2, bw, attraction, a-b-db, 5, 1, 6, 22, 135, 60, 58, 132, 60, 135, 1, 0.609649
325, 2, bw, attraction, a-b-db, 9, 2, 6, 23, 165, 90, 90, 165, 86, 157, 2, 1.5428
325, 2, bw, attraction, a-b-db, 9, 2, 6, 23, 165, 90, 90, 165, 86, 157, 3, 0.599602
325, 2, bw, attraction, a-b-da, 2, 2, 6, 24, 90, 165, 163, 89, 165, 90, 2, 0.765469
325, 2, bw, attraction, a-b-da, 2, 2, 6, 24, 90, 165, 163, 89, 165, 90, 3, 0.573749
325, 2, bw, filler, NA, 999, 999, 6, 25, 137, 127, 181, 118, 115, 107, 2, 0.668388
325, 2, bw, filler, NA, 999, 999, 6, 25, 137, 127, 181, 118, 115, 107, 3, 0.800612
325, 2, bw, filler, NA, 999, 999, 6, 26, 75, 173, 156, 122, 111, 91, 2, 0.534526
325, 2, bw, filler, NA, 999, 999, 6, 26, 75, 173, 156, 122, 111, 91, 3, 0.608199
325, 2, bw, filler, NA, 999, 999, 6, 27, 62, 182, 72, 108, 133, 58, 1, 2.36515
325, 2, bw, filler, NA, 999, 999, 6, 27, 62, 182, 72, 108, 133, 58, 3, 1.08517
325, 2, bw, attraction, a-b-db, 14, 3, 6, 28, 195, 120, 120, 195, 111, 181, 1, 1.11148
325, 2, bw, attraction, a-b-db, 14, 3, 6, 28, 195, 120, 120, 195, 111, 181, 3, 0.593713
325, 2, bw, filler, NA, 999, 999, 6, 29, 154, 149, 159, 78, 110, 143, 1, 0.927506
325, 2, bw, filler, NA, 999, 999, 6, 29, 154, 149, 159, 78, 110, 143, 2, 0.481257
325, 2, bw, attraction, a-b-da, 5, 3, 6, 30, 190, 117, 120, 195, 195, 120, 2, 1.33157
325, 2, bw, attraction, a-b-da, 5, 3, 6, 30, 190, 117, 120, 195, 195, 120, 3, 0.485123
325, 2, bw, attraction, a-b-da, 2, 1, 6, 31, 134, 59, 60, 135, 135, 60, 1, 1.15155
325, 2, bw, attraction, a-b-da, 2, 1, 6, 31, 134, 59, 60, 135, 135, 60, 2, 0.392485
325, 2, bw, catch, NA, 999, 999, 6, 32, 150, 105, 123, 72, 192, 123, 3, 0.966276
325, 2, bw, catch, NA, 999, 999, 6, 32, 150, 105, 123, 72, 192, 123, 2, 0.614716
325, 2, bw, attraction, a-b-da, 14, 2, 6, 33, 90, 165, 165, 90, 153, 83, 2, 0.77188
325, 2, bw, attraction, a-b-da, 14, 2, 6, 33, 90, 165, 165, 90, 153, 83, 3, 0.619489
325, 2, bw, attraction, a-b-da, 5, 1, 6, 34, 135, 60, 60, 135, 132, 58, 1, 1.83257
325, 2, bw, attraction, a-b-da, 5, 1, 6, 34, 135, 60, 60, 135, 132, 58, 2, 0.510025
325, 2, bw, attraction, a-b-da, 14, 1, 6, 35, 60, 135, 135, 60, 125, 56, 2, 0.807126
325, 2, bw, attraction, a-b-da, 14, 1, 6, 35, 60, 135, 135, 60, 125, 56, 3, 0.637579
325, 2, bw, catch, NA, 999, 999, 6, 36, 140, 175, 142, 113, 108, 87, 1, 0.54586
325, 2, bw, catch, NA, 999, 999, 6, 36, 140, 175, 142, 113, 108, 87, 3, 1.12305
325, 2, bw, attraction, a-b-db, 14, 2, 6, 37, 83, 153, 90, 165, 165, 90, 3, 1.02738
325, 2, bw, attraction, a-b-db, 14, 2, 6, 37, 83, 153, 90, 165, 165, 90, 1, 0.632964
325, 2, bw, catch, NA, 999, 999, 7, 1, 121, 134, 189, 126, 85, 110, 2, 0.949378
325, 2, bw, catch, NA, 999, 999, 7, 1, 121, 134, 189, 126, 85, 110, 3, 1.03045
325, 2, bw, attraction, a-b-da, 5, 2, 7, 2, 165, 90, 161, 88, 90, 165, 1, 0.54687
325, 2, bw, attraction, a-b-da, 5, 2, 7, 2, 165, 90, 161, 88, 90, 165, 3, 0.579819
325, 2, bw, attraction, a-b-db, 9, 3, 7, 3, 195, 120, 120, 195, 114, 186, 2, 1.15417
325, 2, bw, attraction, a-b-db, 9, 3, 7, 3, 195, 120, 120, 195, 114, 186, 3, 0.730516
325, 2, bw, attraction, a-b-da, 2, 2, 7, 4, 165, 90, 90, 165, 163, 89, 2, 0.978928
325, 2, bw, attraction, a-b-da, 2, 2, 7, 4, 165, 90, 90, 165, 163, 89, 3, 0.890571
325, 2, bw, attraction, a-b-da, 9, 2, 7, 5, 90, 165, 165, 90, 157, 86, 2, 0.780211
325, 2, bw, attraction, a-b-da, 9, 2, 7, 5, 90, 165, 165, 90, 157, 86, 3, 0.620028
325, 2, bw, attraction, a-b-db, 2, 2, 7, 6, 165, 90, 90, 165, 89, 163, 2, 1.05703
325, 2, bw, attraction, a-b-db, 2, 2, 7, 6, 165, 90, 90, 165, 89, 163, 3, 0.725713
325, 2, bw, filler, NA, 999, 999, 7, 7, 68, 126, 148, 168, 190, 193, 3, 1.10171
325, 2, bw, filler, NA, 999, 999, 7, 7, 68, 126, 148, 168, 190, 193, 1, 0.624635
325, 2, bw, filler, NA, 999, 999, 7, 8, 184, 65, 129, 112, 112, 149, 2, 1.84514
325, 2, bw, filler, NA, 999, 999, 7, 8, 184, 65, 129, 112, 112, 149, 1, 1.12184
325, 2, bw, attraction, a-b-db, 14, 1, 7, 9, 56, 125, 60, 135, 135, 60, 2, 1.24269
325, 2, bw, attraction, a-b-db, 14, 1, 7, 9, 56, 125, 60, 135, 135, 60, 1, 0.471662
325, 2, bw, attraction, a-b-db, 5, 1, 7, 10, 60, 135, 135, 60, 58, 132, 2, 0.77876
325, 2, bw, attraction, a-b-db, 5, 1, 7, 10, 60, 135, 135, 60, 58, 132, 1, 0.546504
325, 2, bw, attraction, a-b-db, 9, 2, 7, 11, 165, 90, 90, 165, 86, 157, 2, 0.898257
325, 2, bw, attraction, a-b-db, 9, 2, 7, 11, 165, 90, 90, 165, 86, 157, 1, 0.509458
325, 2, bw, attraction, a-b-da, 2, 3, 7, 12, 195, 120, 193, 119, 120, 195, 2, 0.902445
325, 2, bw, attraction, a-b-da, 2, 3, 7, 12, 195, 120, 193, 119, 120, 195, 1, 0.529467
325, 2, bw, attraction, a-b-da, 14, 1, 7, 13, 60, 135, 135, 60, 125, 56, 2, 0.745883
325, 2, bw, attraction, a-b-da, 14, 1, 7, 13, 60, 135, 135, 60, 125, 56, 1, 0.602937
325, 2, bw, attraction, a-b-db, 14, 2, 7, 14, 90, 165, 83, 153, 165, 90, 3, 0.496709
325, 2, bw, attraction, a-b-db, 14, 2, 7, 14, 90, 165, 83, 153, 165, 90, 1, 0.435807
325, 2, bw, filler, NA, 999, 999, 7, 15, 122, 71, 166, 75, 96, 156, 3, 0.880339
325, 2, bw, filler, NA, 999, 999, 7, 15, 122, 71, 166, 75, 96, 156, 1, 0.772035
325, 2, bw, catch, NA, 999, 999, 7, 16, 144, 171, 98, 157, 62, 133, 1, 1.05115
325, 2, bw, catch, NA, 999, 999, 7, 16, 144, 171, 98, 157, 62, 133, 3, 0.784083
325, 2, bw, attraction, a-b-da, 5, 3, 7, 17, 190, 117, 195, 120, 120, 195, 2, 1.06242
325, 2, bw, attraction, a-b-da, 5, 3, 7, 17, 190, 117, 195, 120, 120, 195, 1, 0.410786
325, 2, bw, attraction, a-b-db, 5, 3, 7, 18, 117, 190, 195, 120, 120, 195, 2, 1.70389
325, 2, bw, attraction, a-b-db, 5, 3, 7, 18, 117, 190, 195, 120, 120, 195, 3, 0.537959
325, 2, bw, attraction, a-b-db, 2, 3, 7, 19, 119, 193, 195, 120, 120, 195, 2, 0.578418
325, 2, bw, attraction, a-b-db, 2, 3, 7, 19, 119, 193, 195, 120, 120, 195, 1, 0.778201
325, 2, bw, filler, NA, 999, 999, 7, 20, 80, 194, 82, 101, 69, 113, 1, 0.944531
325, 2, bw, filler, NA, 999, 999, 7, 20, 80, 194, 82, 101, 69, 113, 3, 1.00156
325, 2, bw, attraction, a-b-db, 2, 1, 7, 21, 59, 134, 135, 60, 60, 135, 3, 1.07924
325, 2, bw, attraction, a-b-db, 2, 1, 7, 21, 59, 134, 135, 60, 60, 135, 1, 0.506876
325, 2, bw, catch, NA, 999, 999, 7, 22, 143, 172, 92, 163, 80, 115, 1, 0.643956
325, 2, bw, catch, NA, 999, 999, 7, 22, 143, 172, 92, 163, 80, 115, 3, 0.641189
325, 2, bw, attraction, a-b-da, 14, 2, 7, 23, 153, 83, 90, 165, 165, 90, 2, 0.812801
325, 2, bw, attraction, a-b-da, 14, 2, 7, 23, 153, 83, 90, 165, 165, 90, 1, 0.459198
325, 2, bw, attraction, a-b-da, 9, 1, 7, 24, 60, 135, 129, 57, 135, 60, 3, 0.774303
325, 2, bw, attraction, a-b-da, 9, 1, 7, 24, 60, 135, 129, 57, 135, 60, 2, 0.982205
325, 2, bw, attraction, a-b-da, 14, 3, 7, 25, 195, 120, 181, 111, 120, 195, 2, 1.86033
325, 2, bw, attraction, a-b-da, 14, 3, 7, 25, 195, 120, 181, 111, 120, 195, 1, 0.520352
325, 2, bw, filler, NA, 999, 999, 7, 26, 166, 75, 128, 176, 170, 188, 3, 0.737904
325, 2, bw, filler, NA, 999, 999, 7, 26, 166, 75, 128, 176, 170, 188, 1, 0.850616
325, 2, bw, filler, NA, 999, 999, 7, 27, 74, 109, 81, 162, 84, 134, 2, 0.686424
325, 2, bw, filler, NA, 999, 999, 7, 27, 74, 109, 81, 162, 84, 134, 1, 0.602059
325, 2, bw, attraction, a-b-db, 14, 3, 7, 28, 120, 195, 195, 120, 111, 181, 2, 0.767752
325, 2, bw, attraction, a-b-db, 14, 3, 7, 28, 120, 195, 195, 120, 111, 181, 3, 0.496233
325, 2, bw, filler, NA, 999, 999, 7, 29, 91, 112, 117, 151, 136, 195, 3, 0.905962
325, 2, bw, filler, NA, 999, 999, 7, 29, 91, 112, 117, 151, 136, 195, 1, 0.852295
325, 2, bw, filler, NA, 999, 999, 7, 30, 60, 135, 129, 90, 84, 165, 2, 0.679935
325, 2, bw, filler, NA, 999, 999, 7, 30, 60, 135, 129, 90, 84, 165, 1, 0.82788
325, 2, bw, attraction, a-b-db, 5, 2, 7, 31, 88, 161, 90, 165, 165, 90, 3, 0.960172
325, 2, bw, attraction, a-b-db, 5, 2, 7, 31, 88, 161, 90, 165, 165, 90, 1, 0.536495
325, 2, bw, attraction, a-b-db, 9, 1, 7, 32, 135, 60, 57, 129, 60, 135, 1, 2.08088
325, 2, bw, attraction, a-b-db, 9, 1, 7, 32, 135, 60, 57, 129, 60, 135, 2, 0.460353
325, 2, bw, attraction, a-b-da, 9, 3, 7, 33, 120, 195, 195, 120, 186, 114, 2, 0.671359
325, 2, bw, attraction, a-b-da, 9, 3, 7, 33, 120, 195, 195, 120, 186, 114, 3, 1.19516
325, 2, bw, attraction, a-b-da, 5, 1, 7, 34, 60, 135, 135, 60, 132, 58, 3, 1.6008
325, 2, bw, attraction, a-b-da, 5, 1, 7, 34, 60, 135, 135, 60, 132, 58, 1, 0.503513
325, 2, bw, filler, NA, 999, 999, 7, 35, 88, 60, 90, 128, 69, 186, 3, 0.63328
325, 2, bw, filler, NA, 999, 999, 7, 35, 88, 60, 90, 128, 69, 186, 1, 0.599038
325, 2, bw, attraction, a-b-da, 2, 1, 7, 36, 135, 60, 134, 59, 60, 135, 1, 0.836792
325, 2, bw, attraction, a-b-da, 2, 1, 7, 36, 135, 60, 134, 59, 60, 135, 3, 1.09856
325, 2, bw, filler, NA, 999, 999, 7, 37, 147, 125, 169, 97, 106, 169, 3, 2.01212
325, 2, bw, filler, NA, 999, 999, 7, 37, 147, 125, 169, 97, 106, 169, 2, 1.2823
325, 2, bw, attraction, a-b-db, 2, 2, 8, 1, 165, 90, 89, 163, 90, 165, 2, 0.892324
325, 2, bw, attraction, a-b-db, 2, 2, 8, 1, 165, 90, 89, 163, 90, 165, 1, 0.423409
325, 2, bw, attraction, a-b-da, 5, 1, 8, 2, 135, 60, 60, 135, 132, 58, 1, 1.13998
325, 2, bw, attraction, a-b-da, 5, 1, 8, 2, 135, 60, 60, 135, 132, 58, 2, 0.452836
325, 2, bw, filler, NA, 999, 999, 8, 3, 106, 96, 73, 142, 116, 68, 2, 1.20055
325, 2, bw, filler, NA, 999, 999, 8, 3, 106, 96, 73, 142, 116, 68, 3, 1.43162
325, 2, bw, catch, NA, 999, 999, 8, 4, 102, 93, 134, 181, 129, 126, 2, 0.907791
325, 2, bw, catch, NA, 999, 999, 8, 4, 102, 93, 134, 181, 129, 126, 1, 0.910078
325, 2, bw, attraction, a-b-db, 9, 3, 8, 5, 195, 120, 120, 195, 114, 186, 1, 0.735057
325, 2, bw, attraction, a-b-db, 9, 3, 8, 5, 195, 120, 120, 195, 114, 186, 3, 0.864774
325, 2, bw, attraction, a-b-db, 2, 1, 8, 6, 135, 60, 59, 134, 60, 135, 2, 2.67585
325, 2, bw, attraction, a-b-db, 2, 1, 8, 6, 135, 60, 59, 134, 60, 135, 1, 0.614942
325, 2, bw, attraction, a-b-da, 2, 2, 8, 7, 165, 90, 163, 89, 90, 165, 2, 0.74
325, 2, bw, attraction, a-b-da, 2, 2, 8, 7, 165, 90, 163, 89, 90, 165, 1, 0.493144
325, 2, bw, attraction, a-b-da, 9, 2, 8, 8, 157, 86, 90, 165, 165, 90, 2, 0.574809
325, 2, bw, attraction, a-b-da, 9, 2, 8, 8, 157, 86, 90, 165, 165, 90, 1, 0.510677
325, 2, bw, filler, NA, 999, 999, 8, 9, 146, 102, 90, 178, 63, 76, 2, 1.20771
325, 2, bw, filler, NA, 999, 999, 8, 9, 146, 102, 90, 178, 63, 76, 3, 0.734125
325, 2, bw, attraction, a-b-da, 5, 3, 8, 10, 120, 195, 195, 120, 190, 117, 2, 0.590398
325, 2, bw, attraction, a-b-da, 5, 3, 8, 10, 120, 195, 195, 120, 190, 117, 3, 0.965531
325, 2, bw, attraction, a-b-da, 5, 2, 8, 11, 165, 90, 90, 165, 161, 88, 2, 0.500686
325, 2, bw, attraction, a-b-da, 5, 2, 8, 11, 165, 90, 90, 165, 161, 88, 3, 0.711714
325, 2, bw, filler, NA, 999, 999, 8, 12, 95, 119, 57, 160, 129, 168, 3, 0.680736
325, 2, bw, filler, NA, 999, 999, 8, 12, 95, 119, 57, 160, 129, 168, 2, 0.556464
325, 2, bw, attraction, a-b-db, 5, 2, 8, 13, 165, 90, 90, 165, 88, 161, 1, 1.57961
325, 2, bw, attraction, a-b-db, 5, 2, 8, 13, 165, 90, 90, 165, 88, 161, 3, 0.859069
325, 2, bw, attraction, a-b-da, 14, 2, 8, 14, 165, 90, 90, 165, 153, 83, 2, 0.526055
325, 2, bw, attraction, a-b-da, 14, 2, 8, 14, 165, 90, 90, 165, 153, 83, 3, 0.511831
325, 2, bw, attraction, a-b-da, 2, 1, 8, 15, 135, 60, 60, 135, 134, 59, 1, 1.45689
325, 2, bw, attraction, a-b-da, 2, 1, 8, 15, 135, 60, 60, 135, 134, 59, 2, 0.397214
325, 2, bw, filler, NA, 999, 999, 8, 16, 152, 130, 120, 104, 56, 157, 1, 0.62712
325, 2, bw, filler, NA, 999, 999, 8, 16, 152, 130, 120, 104, 56, 157, 3, 0.520758
325, 2, bw, filler, NA, 999, 999, 8, 17, 183, 180, 103, 133, 72, 168, 1, 0.521852
325, 2, bw, filler, NA, 999, 999, 8, 17, 183, 180, 103, 133, 72, 168, 3, 0.707675
325, 2, bw, attraction, a-b-db, 14, 2, 8, 18, 90, 165, 165, 90, 83, 153, 2, 1.40481
325, 2, bw, attraction, a-b-db, 14, 2, 8, 18, 90, 165, 165, 90, 83, 153, 1, 0.362957
325, 2, bw, attraction, a-b-db, 2, 3, 8, 19, 195, 120, 119, 193, 120, 195, 1, 1.46611
325, 2, bw, attraction, a-b-db, 2, 3, 8, 19, 195, 120, 119, 193, 120, 195, 3, 0.237146
325, 2, bw, filler, NA, 999, 999, 8, 20, 141, 184, 131, 142, 135, 130, 1, 2.37084
325, 2, bw, filler, NA, 999, 999, 8, 20, 141, 184, 131, 142, 135, 130, 3, 0.834755
325, 2, bw, attraction, a-b-db, 9, 1, 8, 21, 135, 60, 57, 129, 60, 135, 1, 0.999169
325, 2, bw, attraction, a-b-db, 9, 1, 8, 21, 135, 60, 57, 129, 60, 135, 3, 0.958074
325, 2, bw, filler, NA, 999, 999, 8, 22, 112, 144, 98, 75, 145, 152, 3, 0.997051
325, 2, bw, filler, NA, 999, 999, 8, 22, 112, 144, 98, 75, 145, 152, 2, 0.612036
325, 2, bw, attraction, a-b-db, 5, 1, 8, 23, 135, 60, 60, 135, 58, 132, 1, 0.905127
325, 2, bw, attraction, a-b-db, 5, 1, 8, 23, 135, 60, 60, 135, 58, 132, 3, 0.747429
325, 2, bw, attraction, a-b-da, 14, 1, 8, 24, 135, 60, 60, 135, 125, 56, 2, 1.61126
325, 2, bw, attraction, a-b-da, 14, 1, 8, 24, 135, 60, 60, 135, 125, 56, 3, 0.889239
325, 2, bw, attraction, a-b-da, 14, 3, 8, 25, 195, 120, 181, 111, 120, 195, 1, 1.69964
325, 2, bw, attraction, a-b-da, 14, 3, 8, 25, 195, 120, 181, 111, 120, 195, 2, 0.518409
325, 2, bw, catch, NA, 999, 999, 8, 26, 129, 186, 79, 116, 134, 121, 1, 0.607532
325, 2, bw, catch, NA, 999, 999, 8, 26, 129, 186, 79, 116, 134, 121, 2, 0.47009
325, 2, bw, attraction, a-b-db, 5, 3, 8, 27, 195, 120, 120, 195, 117, 190, 1, 1.62518
325, 2, bw, attraction, a-b-db, 5, 3, 8, 27, 195, 120, 120, 195, 117, 190, 2, 0.614589
325, 2, bw, catch, NA, 999, 999, 8, 28, 120, 135, 89, 106, 178, 137, 3, 0.827652
325, 2, bw, catch, NA, 999, 999, 8, 28, 120, 135, 89, 106, 178, 137, 2, 0.77747
325, 2, bw, attraction, a-b-db, 14, 3, 8, 29, 120, 195, 195, 120, 111, 181, 1, 1.8078
325, 2, bw, attraction, a-b-db, 14, 3, 8, 29, 120, 195, 195, 120, 111, 181, 3, 0.541824
325, 2, bw, attraction, a-b-da, 9, 1, 8, 30, 60, 135, 129, 57, 135, 60, 3, 0.877518
325, 2, bw, attraction, a-b-da, 9, 1, 8, 30, 60, 135, 129, 57, 135, 60, 2, 0.457429
325, 2, bw, filler, NA, 999, 999, 8, 31, 61, 100, 76, 68, 126, 149, 3, 0.964337
325, 2, bw, filler, NA, 999, 999, 8, 31, 61, 100, 76, 68, 126, 149, 2, 1.07689
325, 2, bw, filler, NA, 999, 999, 8, 32, 177, 183, 131, 121, 150, 195, 1, 1.17498
325, 2, bw, filler, NA, 999, 999, 8, 32, 177, 183, 131, 121, 150, 195, 2, 1.4466
325, 2, bw, filler, NA, 999, 999, 8, 33, 150, 93, 96, 112, 61, 110, 1, 0.794088
325, 2, bw, filler, NA, 999, 999, 8, 33, 150, 93, 96, 112, 61, 110, 3, 0.769139
325, 2, bw, attraction, a-b-da, 9, 3, 8, 34, 186, 114, 195, 120, 120, 195, 3, 3.07223
325, 2, bw, attraction, a-b-da, 9, 3, 8, 34, 186, 114, 195, 120, 120, 195, 1, 0.419227
325, 2, bw, attraction, a-b-db, 14, 1, 8, 35, 56, 125, 135, 60, 60, 135, 2, 1.01635
325, 2, bw, attraction, a-b-db, 14, 1, 8, 35, 56, 125, 135, 60, 60, 135, 1, 0.646686
325, 2, bw, attraction, a-b-da, 2, 3, 8, 36, 195, 120, 193, 119, 120, 195, 3, 3.18646
325, 2, bw, attraction, a-b-da, 2, 3, 8, 36, 195, 120, 193, 119, 120, 195, 2, 0.601352
325, 2, bw, attraction, a-b-db, 9, 2, 8, 37, 90, 165, 86, 157, 165, 90, 3, 1.34319
325, 2, bw, attraction, a-b-db, 9, 2, 8, 37, 90, 165, 86, 157, 165, 90, 2, 0.592072
