sub_n, computer_n, bw_cond, effect, set, distance, diag, block_n, trial_n, h1, w1, h2, w2, h3, w3, choice, rt 
390, 2, wb, practice, NA, 999, 999, 0, 1, 77, 113, 123, 98, 177, 146, 1, 4.03129
390, 2, wb, practice, NA, 999, 999, 0, 1, 77, 113, 123, 98, 177, 146, 3, 1.4853
390, 2, wb, practice, NA, 999, 999, 0, 2, 81, 86, 79, 71, 175, 153, 2, 2.92233
390, 2, wb, practice, NA, 999, 999, 0, 2, 81, 86, 79, 71, 175, 153, 3, 2.58181
390, 2, wb, practice, NA, 999, 999, 0, 3, 184, 65, 65, 80, 90, 194, 2, 2.84701
390, 2, wb, practice, NA, 999, 999, 0, 3, 184, 65, 65, 80, 90, 194, 3, 3.47385
390, 2, wb, attraction, a-b-db, 9, 3, 1, 1, 195, 120, 114, 186, 120, 195, 1, 5.30086
390, 2, wb, attraction, a-b-db, 9, 3, 1, 1, 195, 120, 114, 186, 120, 195, 3, 0.742597
390, 2, wb, attraction, a-b-db, 9, 2, 1, 2, 165, 90, 86, 157, 90, 165, 2, 6.41427
390, 2, wb, attraction, a-b-db, 9, 2, 1, 2, 165, 90, 86, 157, 90, 165, 1, 0.546858
390, 2, wb, attraction, a-b-da, 9, 2, 1, 3, 165, 90, 157, 86, 90, 165, 2, 6.33076
390, 2, wb, attraction, a-b-da, 9, 2, 1, 3, 165, 90, 157, 86, 90, 165, 3, 0.626671
390, 2, wb, attraction, a-b-da, 5, 1, 1, 4, 132, 58, 60, 135, 135, 60, 2, 3.22302
390, 2, wb, attraction, a-b-da, 5, 1, 1, 4, 132, 58, 60, 135, 135, 60, 1, 0.452052
390, 2, wb, attraction, a-b-db, 14, 3, 1, 5, 195, 120, 120, 195, 111, 181, 3, 4.50393
390, 2, wb, attraction, a-b-db, 14, 3, 1, 5, 195, 120, 120, 195, 111, 181, 1, 1.03378
390, 2, wb, attraction, a-b-db, 5, 2, 1, 6, 90, 165, 88, 161, 165, 90, 3, 7.3262
390, 2, wb, attraction, a-b-db, 5, 2, 1, 6, 90, 165, 88, 161, 165, 90, 2, 0.453778
390, 2, wb, attraction, a-b-da, 9, 3, 1, 7, 186, 114, 195, 120, 120, 195, 3, 4.56959
390, 2, wb, attraction, a-b-da, 9, 3, 1, 7, 186, 114, 195, 120, 120, 195, 2, 1.18486
390, 2, wb, attraction, a-b-da, 2, 1, 1, 8, 135, 60, 60, 135, 134, 59, 2, 2.9909
390, 2, wb, attraction, a-b-da, 2, 1, 1, 8, 135, 60, 60, 135, 134, 59, 1, 0.709364
390, 2, wb, attraction, a-b-da, 14, 2, 1, 9, 90, 165, 153, 83, 165, 90, 2, 2.87841
390, 2, wb, attraction, a-b-da, 14, 2, 1, 9, 90, 165, 153, 83, 165, 90, 1, 0.873477
390, 2, wb, attraction, a-b-db, 2, 2, 1, 10, 89, 163, 90, 165, 165, 90, 2, 6.37983
390, 2, wb, attraction, a-b-db, 2, 2, 1, 10, 89, 163, 90, 165, 165, 90, 3, 0.369772
390, 2, wb, catch, NA, 999, 999, 1, 11, 133, 62, 146, 169, 135, 120, 1, 2.18491
390, 2, wb, catch, NA, 999, 999, 1, 11, 133, 62, 146, 169, 135, 120, 2, 0.496348
390, 2, wb, filler, NA, 999, 999, 1, 12, 68, 176, 60, 155, 116, 175, 2, 1.21813
390, 2, wb, filler, NA, 999, 999, 1, 12, 68, 176, 60, 155, 116, 175, 3, 0.880365
390, 2, wb, attraction, a-b-db, 9, 1, 1, 13, 57, 129, 60, 135, 135, 60, 2, 2.79464
390, 2, wb, attraction, a-b-db, 9, 1, 1, 13, 57, 129, 60, 135, 135, 60, 3, 1.00109
390, 2, wb, filler, NA, 999, 999, 1, 14, 180, 154, 173, 187, 141, 187, 3, 4.59865
390, 2, wb, filler, NA, 999, 999, 1, 14, 180, 154, 173, 187, 141, 187, 2, 0.439403
390, 2, wb, catch, NA, 999, 999, 1, 15, 106, 89, 132, 123, 130, 185, 1, 1.5845
390, 2, wb, catch, NA, 999, 999, 1, 15, 106, 89, 132, 123, 130, 185, 3, 0.567886
390, 2, wb, attraction, a-b-da, 5, 3, 1, 16, 195, 120, 190, 117, 120, 195, 3, 4.83091
390, 2, wb, attraction, a-b-da, 5, 3, 1, 16, 195, 120, 190, 117, 120, 195, 1, 0.595345
390, 2, wb, filler, NA, 999, 999, 1, 17, 183, 60, 117, 131, 159, 163, 1, 1.46523
390, 2, wb, filler, NA, 999, 999, 1, 17, 183, 60, 117, 131, 159, 163, 3, 0.405363
390, 2, wb, attraction, a-b-da, 9, 1, 1, 18, 129, 57, 60, 135, 135, 60, 2, 3.75511
390, 2, wb, attraction, a-b-da, 9, 1, 1, 18, 129, 57, 60, 135, 135, 60, 3, 1.66663
390, 2, wb, catch, NA, 999, 999, 1, 19, 110, 145, 84, 111, 169, 146, 2, 1.12536
390, 2, wb, catch, NA, 999, 999, 1, 19, 110, 145, 84, 111, 169, 146, 3, 0.327039
390, 2, wb, attraction, a-b-db, 14, 1, 1, 20, 135, 60, 60, 135, 56, 125, 3, 1.59951
390, 2, wb, attraction, a-b-db, 14, 1, 1, 20, 135, 60, 60, 135, 56, 125, 1, 0.630311
390, 2, wb, attraction, a-b-db, 14, 2, 1, 21, 83, 153, 90, 165, 165, 90, 1, 3.86677
390, 2, wb, attraction, a-b-db, 14, 2, 1, 21, 83, 153, 90, 165, 165, 90, 3, 0.750122
390, 2, wb, attraction, a-b-db, 2, 1, 1, 22, 59, 134, 135, 60, 60, 135, 1, 8.58184
390, 2, wb, attraction, a-b-db, 2, 1, 1, 22, 59, 134, 135, 60, 60, 135, 2, 0.347085
390, 2, wb, attraction, a-b-db, 5, 3, 1, 23, 120, 195, 117, 190, 195, 120, 1, 4.48294
390, 2, wb, attraction, a-b-db, 5, 3, 1, 23, 120, 195, 117, 190, 195, 120, 3, 0.557525
390, 2, wb, attraction, a-b-da, 14, 3, 1, 24, 181, 111, 195, 120, 120, 195, 2, 3.82069
390, 2, wb, attraction, a-b-da, 14, 3, 1, 24, 181, 111, 195, 120, 120, 195, 3, 0.753433
390, 2, wb, filler, NA, 999, 999, 1, 25, 103, 105, 166, 136, 110, 77, 3, 1.28107
390, 2, wb, filler, NA, 999, 999, 1, 25, 103, 105, 166, 136, 110, 77, 2, 0.972686
390, 2, wb, attraction, a-b-db, 5, 1, 1, 26, 60, 135, 135, 60, 58, 132, 3, 2.45967
390, 2, wb, attraction, a-b-db, 5, 1, 1, 26, 60, 135, 135, 60, 58, 132, 2, 1.31152
390, 2, wb, attraction, a-b-da, 5, 2, 1, 27, 161, 88, 90, 165, 165, 90, 2, 4.00836
390, 2, wb, attraction, a-b-da, 5, 2, 1, 27, 161, 88, 90, 165, 165, 90, 3, 1.38981
390, 2, wb, attraction, a-b-da, 2, 2, 1, 28, 163, 89, 165, 90, 90, 165, 1, 1.74739
390, 2, wb, attraction, a-b-da, 2, 2, 1, 28, 163, 89, 165, 90, 90, 165, 3, 1.02003
390, 2, wb, filler, NA, 999, 999, 1, 29, 191, 183, 190, 98, 143, 98, 3, 1.5131
390, 2, wb, filler, NA, 999, 999, 1, 29, 191, 183, 190, 98, 143, 98, 1, 0.371144
390, 2, wb, attraction, a-b-da, 2, 3, 1, 30, 195, 120, 193, 119, 120, 195, 2, 3.76233
390, 2, wb, attraction, a-b-da, 2, 3, 1, 30, 195, 120, 193, 119, 120, 195, 3, 0.321788
390, 2, wb, filler, NA, 999, 999, 1, 31, 94, 107, 92, 93, 118, 78, 2, 2.24304
390, 2, wb, filler, NA, 999, 999, 1, 31, 94, 107, 92, 93, 118, 78, 1, 2.76757
390, 2, wb, filler, NA, 999, 999, 1, 32, 100, 78, 188, 119, 78, 136, 1, 1.45402
390, 2, wb, filler, NA, 999, 999, 1, 32, 100, 78, 188, 119, 78, 136, 2, 0.418195
390, 2, wb, filler, NA, 999, 999, 1, 33, 107, 77, 167, 149, 138, 179, 1, 0.895493
390, 2, wb, filler, NA, 999, 999, 1, 33, 107, 77, 167, 149, 138, 179, 3, 5.10646
390, 2, wb, attraction, a-b-db, 2, 3, 1, 34, 120, 195, 119, 193, 195, 120, 3, 4.42668
390, 2, wb, attraction, a-b-db, 2, 3, 1, 34, 120, 195, 119, 193, 195, 120, 1, 2.16729
390, 2, wb, filler, NA, 999, 999, 1, 35, 109, 115, 135, 133, 182, 125, 1, 1.34986
390, 2, wb, filler, NA, 999, 999, 1, 35, 109, 115, 135, 133, 182, 125, 3, 1.1988
390, 2, wb, filler, NA, 999, 999, 1, 36, 195, 181, 168, 67, 69, 132, 3, 1.41235
390, 2, wb, filler, NA, 999, 999, 1, 36, 195, 181, 168, 67, 69, 132, 1, 0.322512
390, 2, wb, attraction, a-b-da, 14, 1, 1, 37, 60, 135, 125, 56, 135, 60, 2, 3.98776
390, 2, wb, attraction, a-b-da, 14, 1, 1, 37, 60, 135, 125, 56, 135, 60, 1, 0.377751
390, 2, wb, attraction, a-b-da, 9, 2, 2, 1, 157, 86, 165, 90, 90, 165, 1, 2.27229
390, 2, wb, attraction, a-b-da, 9, 2, 2, 1, 157, 86, 165, 90, 90, 165, 3, 0.451494
390, 2, wb, filler, NA, 999, 999, 2, 2, 121, 165, 155, 153, 83, 144, 3, 0.871425
390, 2, wb, filler, NA, 999, 999, 2, 2, 121, 165, 155, 153, 83, 144, 2, 0.811167
390, 2, wb, attraction, a-b-db, 5, 1, 2, 3, 135, 60, 60, 135, 58, 132, 2, 2.06416
390, 2, wb, attraction, a-b-db, 5, 1, 2, 3, 135, 60, 60, 135, 58, 132, 1, 0.644059
390, 2, wb, attraction, a-b-db, 2, 3, 2, 4, 195, 120, 119, 193, 120, 195, 1, 4.82378
390, 2, wb, attraction, a-b-db, 2, 3, 2, 4, 195, 120, 119, 193, 120, 195, 3, 1.15629
390, 2, wb, catch, NA, 999, 999, 2, 5, 145, 170, 73, 122, 160, 95, 2, 0.907094
390, 2, wb, catch, NA, 999, 999, 2, 5, 145, 170, 73, 122, 160, 95, 1, 0.293471
390, 2, wb, attraction, a-b-da, 9, 1, 2, 6, 129, 57, 60, 135, 135, 60, 2, 4.82338
390, 2, wb, attraction, a-b-da, 9, 1, 2, 6, 129, 57, 60, 135, 135, 60, 3, 1.45183
390, 2, wb, attraction, a-b-db, 9, 2, 2, 7, 165, 90, 86, 157, 90, 165, 3, 4.79138
390, 2, wb, attraction, a-b-db, 9, 2, 2, 7, 165, 90, 86, 157, 90, 165, 2, 0.341219
390, 2, wb, attraction, a-b-da, 9, 3, 2, 8, 120, 195, 186, 114, 195, 120, 2, 4.30899
390, 2, wb, attraction, a-b-da, 9, 3, 2, 8, 120, 195, 186, 114, 195, 120, 1, 0.302184
390, 2, wb, attraction, a-b-da, 5, 2, 2, 9, 165, 90, 161, 88, 90, 165, 3, 1.3041
390, 2, wb, attraction, a-b-da, 5, 2, 2, 9, 165, 90, 161, 88, 90, 165, 1, 2.37832
390, 2, wb, filler, NA, 999, 999, 2, 10, 179, 136, 126, 56, 194, 121, 2, 0.85614
390, 2, wb, filler, NA, 999, 999, 2, 10, 179, 136, 126, 56, 194, 121, 3, 4.06053
390, 2, wb, attraction, a-b-da, 14, 1, 2, 11, 125, 56, 135, 60, 60, 135, 2, 1.55048
390, 2, wb, attraction, a-b-da, 14, 1, 2, 11, 125, 56, 135, 60, 60, 135, 3, 0.671322
390, 2, wb, attraction, a-b-db, 5, 2, 2, 12, 165, 90, 90, 165, 88, 161, 3, 3.58653
390, 2, wb, attraction, a-b-db, 5, 2, 2, 12, 165, 90, 90, 165, 88, 161, 2, 1.32127
390, 2, wb, attraction, a-b-db, 2, 2, 2, 13, 90, 165, 89, 163, 165, 90, 3, 1.92221
390, 2, wb, attraction, a-b-db, 2, 2, 2, 13, 90, 165, 89, 163, 165, 90, 2, 0.819537
390, 2, wb, attraction, a-b-db, 14, 3, 2, 14, 120, 195, 195, 120, 111, 181, 3, 1.9126
390, 2, wb, attraction, a-b-db, 14, 3, 2, 14, 120, 195, 195, 120, 111, 181, 1, 1.11455
390, 2, wb, attraction, a-b-db, 14, 1, 2, 15, 56, 125, 60, 135, 135, 60, 1, 1.81164
390, 2, wb, attraction, a-b-db, 14, 1, 2, 15, 56, 125, 60, 135, 135, 60, 3, 0.425637
390, 2, wb, attraction, a-b-da, 5, 3, 2, 16, 190, 117, 120, 195, 195, 120, 2, 2.20627
390, 2, wb, attraction, a-b-da, 5, 3, 2, 16, 190, 117, 120, 195, 195, 120, 1, 0.563977
390, 2, wb, attraction, a-b-db, 9, 3, 2, 17, 195, 120, 114, 186, 120, 195, 3, 4.83512
390, 2, wb, attraction, a-b-db, 9, 3, 2, 17, 195, 120, 114, 186, 120, 195, 1, 0.839698
390, 2, wb, filler, NA, 999, 999, 2, 18, 85, 87, 135, 145, 99, 118, 1, 1.48332
390, 2, wb, filler, NA, 999, 999, 2, 18, 85, 87, 135, 145, 99, 118, 2, 0.71894
390, 2, wb, attraction, a-b-db, 9, 1, 2, 19, 135, 60, 60, 135, 57, 129, 3, 2.54386
390, 2, wb, attraction, a-b-db, 9, 1, 2, 19, 135, 60, 60, 135, 57, 129, 2, 0.320319
390, 2, wb, attraction, a-b-db, 5, 3, 2, 20, 117, 190, 120, 195, 195, 120, 3, 3.47356
390, 2, wb, attraction, a-b-db, 5, 3, 2, 20, 117, 190, 120, 195, 195, 120, 1, 0.452419
390, 2, wb, attraction, a-b-da, 14, 3, 2, 21, 120, 195, 181, 111, 195, 120, 2, 13.7923
390, 2, wb, attraction, a-b-da, 14, 3, 2, 21, 120, 195, 181, 111, 195, 120, 1, 1.21127
390, 2, wb, filler, NA, 999, 999, 2, 22, 92, 182, 178, 114, 137, 69, 3, 1.23208
390, 2, wb, filler, NA, 999, 999, 2, 22, 92, 182, 178, 114, 137, 69, 2, 0.557799
390, 2, wb, attraction, a-b-da, 14, 2, 2, 23, 165, 90, 90, 165, 153, 83, 2, 3.16497
390, 2, wb, attraction, a-b-da, 14, 2, 2, 23, 165, 90, 90, 165, 153, 83, 1, 0.556464
390, 2, wb, filler, NA, 999, 999, 2, 24, 107, 100, 58, 85, 80, 80, 2, 1.23552
390, 2, wb, filler, NA, 999, 999, 2, 24, 107, 100, 58, 85, 80, 80, 1, 0.337105
390, 2, wb, attraction, a-b-da, 2, 2, 2, 25, 165, 90, 163, 89, 90, 165, 2, 2.5377
390, 2, wb, attraction, a-b-da, 2, 2, 2, 25, 165, 90, 163, 89, 90, 165, 3, 0.442118
390, 2, wb, attraction, a-b-da, 2, 1, 2, 26, 60, 135, 135, 60, 134, 59, 1, 1.62201
390, 2, wb, attraction, a-b-da, 2, 1, 2, 26, 60, 135, 135, 60, 134, 59, 3, 0.659388
390, 2, wb, catch, NA, 999, 999, 2, 27, 82, 113, 144, 111, 146, 169, 1, 0.702421
390, 2, wb, catch, NA, 999, 999, 2, 27, 82, 113, 144, 111, 146, 169, 3, 0.441585
390, 2, wb, attraction, a-b-da, 5, 1, 2, 28, 132, 58, 135, 60, 60, 135, 3, 8.37333
390, 2, wb, attraction, a-b-da, 5, 1, 2, 28, 132, 58, 135, 60, 60, 135, 1, 0.914705
390, 2, wb, attraction, a-b-db, 14, 2, 2, 29, 90, 165, 165, 90, 83, 153, 2, 2.22764
390, 2, wb, attraction, a-b-db, 14, 2, 2, 29, 90, 165, 165, 90, 83, 153, 1, 0.353002
390, 2, wb, attraction, a-b-da, 2, 3, 2, 30, 195, 120, 120, 195, 193, 119, 1, 1.40886
390, 2, wb, attraction, a-b-da, 2, 3, 2, 30, 195, 120, 120, 195, 193, 119, 2, 1.86315
390, 2, wb, filler, NA, 999, 999, 2, 31, 60, 59, 152, 59, 151, 151, 1, 1.01776
390, 2, wb, filler, NA, 999, 999, 2, 31, 60, 59, 152, 59, 151, 151, 3, 0.368016
390, 2, wb, filler, NA, 999, 999, 2, 32, 75, 171, 147, 178, 123, 177, 1, 1.69516
390, 2, wb, filler, NA, 999, 999, 2, 32, 75, 171, 147, 178, 123, 177, 2, 4.48996
390, 2, wb, attraction, a-b-db, 2, 1, 2, 33, 135, 60, 60, 135, 59, 134, 2, 1.84318
390, 2, wb, attraction, a-b-db, 2, 1, 2, 33, 135, 60, 60, 135, 59, 134, 1, 0.471839
390, 2, wb, filler, NA, 999, 999, 2, 34, 159, 138, 63, 122, 82, 64, 3, 0.891014
390, 2, wb, filler, NA, 999, 999, 2, 34, 159, 138, 63, 122, 82, 64, 1, 0.622067
390, 2, wb, filler, NA, 999, 999, 2, 35, 129, 70, 68, 182, 62, 58, 3, 0.907231
390, 2, wb, filler, NA, 999, 999, 2, 35, 129, 70, 68, 182, 62, 58, 2, 1.5096
390, 2, wb, catch, NA, 999, 999, 2, 36, 154, 161, 125, 70, 129, 126, 2, 1.49429
390, 2, wb, catch, NA, 999, 999, 2, 36, 154, 161, 125, 70, 129, 126, 1, 0.377112
390, 2, wb, filler, NA, 999, 999, 2, 37, 174, 91, 131, 65, 130, 74, 2, 1.59957
390, 2, wb, filler, NA, 999, 999, 2, 37, 174, 91, 131, 65, 130, 74, 1, 0.742407
390, 2, wb, catch, NA, 999, 999, 3, 1, 118, 77, 94, 161, 147, 168, 1, 1.19812
390, 2, wb, catch, NA, 999, 999, 3, 1, 118, 77, 94, 161, 147, 168, 3, 0.813103
390, 2, wb, attraction, a-b-db, 2, 1, 3, 2, 135, 60, 59, 134, 60, 135, 2, 2.00211
390, 2, wb, attraction, a-b-db, 2, 1, 3, 2, 135, 60, 59, 134, 60, 135, 1, 0.440882
390, 2, wb, attraction, a-b-db, 5, 3, 3, 3, 120, 195, 117, 190, 195, 120, 1, 2.55654
390, 2, wb, attraction, a-b-db, 5, 3, 3, 3, 120, 195, 117, 190, 195, 120, 3, 0.35642
390, 2, wb, attraction, a-b-db, 2, 3, 3, 4, 195, 120, 119, 193, 120, 195, 1, 3.22762
390, 2, wb, attraction, a-b-db, 2, 3, 3, 4, 195, 120, 119, 193, 120, 195, 3, 1.87255
390, 2, wb, attraction, a-b-da, 9, 1, 3, 5, 129, 57, 135, 60, 60, 135, 3, 1.75524
390, 2, wb, attraction, a-b-da, 9, 1, 3, 5, 129, 57, 135, 60, 60, 135, 2, 0.715354
390, 2, wb, attraction, a-b-da, 14, 3, 3, 6, 120, 195, 181, 111, 195, 120, 2, 4.47634
390, 2, wb, attraction, a-b-da, 14, 3, 3, 6, 120, 195, 181, 111, 195, 120, 1, 0.358958
390, 2, wb, filler, NA, 999, 999, 3, 7, 153, 114, 120, 115, 62, 184, 2, 8.6463
390, 2, wb, filler, NA, 999, 999, 3, 7, 153, 114, 120, 115, 62, 184, 1, 0.55273
390, 2, wb, attraction, a-b-da, 14, 2, 3, 8, 165, 90, 90, 165, 153, 83, 2, 4.17646
390, 2, wb, attraction, a-b-da, 14, 2, 3, 8, 165, 90, 90, 165, 153, 83, 1, 0.911123
390, 2, wb, attraction, a-b-da, 14, 1, 3, 9, 135, 60, 60, 135, 125, 56, 3, 2.00013
390, 2, wb, attraction, a-b-da, 14, 1, 3, 9, 135, 60, 60, 135, 125, 56, 2, 2.39091
390, 2, wb, attraction, a-b-db, 14, 3, 3, 10, 120, 195, 111, 181, 195, 120, 2, 3.35609
390, 2, wb, attraction, a-b-db, 14, 3, 3, 10, 120, 195, 111, 181, 195, 120, 3, 1.52373
390, 2, wb, attraction, a-b-db, 14, 1, 3, 11, 56, 125, 60, 135, 135, 60, 1, 1.83595
390, 2, wb, attraction, a-b-db, 14, 1, 3, 11, 56, 125, 60, 135, 135, 60, 3, 0.609138
390, 2, wb, attraction, a-b-da, 2, 1, 3, 12, 60, 135, 135, 60, 134, 59, 2, 4.8462
390, 2, wb, attraction, a-b-da, 2, 1, 3, 12, 60, 135, 135, 60, 134, 59, 3, 0.666091
390, 2, wb, filler, NA, 999, 999, 3, 13, 131, 101, 181, 173, 88, 139, 3, 3.13308
390, 2, wb, filler, NA, 999, 999, 3, 13, 131, 101, 181, 173, 88, 139, 2, 0.318063
390, 2, wb, attraction, a-b-da, 9, 2, 3, 14, 165, 90, 90, 165, 157, 86, 2, 2.10328
390, 2, wb, attraction, a-b-da, 9, 2, 3, 14, 165, 90, 90, 165, 157, 86, 3, 0.617257
390, 2, wb, filler, NA, 999, 999, 3, 15, 151, 184, 95, 184, 185, 100, 2, 2.25442
390, 2, wb, filler, NA, 999, 999, 3, 15, 151, 184, 95, 184, 185, 100, 1, 0.346259
390, 2, wb, filler, NA, 999, 999, 3, 16, 87, 110, 62, 189, 184, 157, 1, 1.53809
390, 2, wb, filler, NA, 999, 999, 3, 16, 87, 110, 62, 189, 184, 157, 3, 0.410967
390, 2, wb, catch, NA, 999, 999, 3, 17, 164, 151, 134, 121, 65, 130, 3, 1.59204
390, 2, wb, catch, NA, 999, 999, 3, 17, 164, 151, 134, 121, 65, 130, 1, 0.542772
390, 2, wb, attraction, a-b-db, 9, 2, 3, 18, 165, 90, 86, 157, 90, 165, 1, 1.97464
390, 2, wb, attraction, a-b-db, 9, 2, 3, 18, 165, 90, 86, 157, 90, 165, 2, 0.525925
390, 2, wb, filler, NA, 999, 999, 3, 19, 151, 87, 164, 105, 71, 97, 3, 0.926456
390, 2, wb, filler, NA, 999, 999, 3, 19, 151, 87, 164, 105, 71, 97, 2, 0.82409
390, 2, wb, filler, NA, 999, 999, 3, 20, 137, 95, 112, 121, 57, 164, 1, 4.0846
390, 2, wb, filler, NA, 999, 999, 3, 20, 137, 95, 112, 121, 57, 164, 2, 1.53525
390, 2, wb, attraction, a-b-db, 9, 3, 3, 21, 120, 195, 195, 120, 114, 186, 3, 2.78331
390, 2, wb, attraction, a-b-db, 9, 3, 3, 21, 120, 195, 195, 120, 114, 186, 1, 1.71052
390, 2, wb, attraction, a-b-da, 5, 1, 3, 22, 60, 135, 132, 58, 135, 60, 2, 3.00712
390, 2, wb, attraction, a-b-da, 5, 1, 3, 22, 60, 135, 132, 58, 135, 60, 3, 0.940751
390, 2, wb, filler, NA, 999, 999, 3, 23, 96, 172, 111, 72, 103, 58, 2, 1.02046
390, 2, wb, filler, NA, 999, 999, 3, 23, 96, 172, 111, 72, 103, 58, 1, 0.442099
390, 2, wb, attraction, a-b-da, 2, 3, 3, 24, 120, 195, 195, 120, 193, 119, 2, 2.80601
390, 2, wb, attraction, a-b-da, 2, 3, 3, 24, 120, 195, 195, 120, 193, 119, 1, 0.667681
390, 2, wb, attraction, a-b-da, 2, 2, 3, 25, 163, 89, 90, 165, 165, 90, 1, 1.06276
390, 2, wb, attraction, a-b-da, 2, 2, 3, 25, 163, 89, 90, 165, 165, 90, 2, 0.39509
390, 2, wb, attraction, a-b-db, 14, 2, 3, 26, 90, 165, 83, 153, 165, 90, 2, 4.12086
390, 2, wb, attraction, a-b-db, 14, 2, 3, 26, 90, 165, 83, 153, 165, 90, 1, 0.47418
390, 2, wb, filler, NA, 999, 999, 3, 27, 127, 103, 179, 120, 98, 124, 1, 2.59664
390, 2, wb, filler, NA, 999, 999, 3, 27, 127, 103, 179, 120, 98, 124, 2, 0.619355
390, 2, wb, attraction, a-b-da, 5, 2, 3, 28, 161, 88, 165, 90, 90, 165, 3, 2.46424
390, 2, wb, attraction, a-b-da, 5, 2, 3, 28, 161, 88, 165, 90, 90, 165, 2, 0.46812
390, 2, wb, attraction, a-b-da, 9, 3, 3, 29, 186, 114, 195, 120, 120, 195, 1, 0.9433
390, 2, wb, attraction, a-b-da, 9, 3, 3, 29, 186, 114, 195, 120, 120, 195, 2, 0.376275
390, 2, wb, attraction, a-b-db, 2, 2, 3, 30, 165, 90, 90, 165, 89, 163, 1, 4.66272
390, 2, wb, attraction, a-b-db, 2, 2, 3, 30, 165, 90, 90, 165, 89, 163, 3, 0.650037
390, 2, wb, attraction, a-b-da, 5, 3, 3, 31, 190, 117, 120, 195, 195, 120, 1, 3.38165
390, 2, wb, attraction, a-b-da, 5, 3, 3, 31, 190, 117, 120, 195, 195, 120, 2, 1.10854
390, 2, wb, filler, NA, 999, 999, 3, 32, 102, 157, 85, 143, 152, 190, 2, 1.12547
390, 2, wb, filler, NA, 999, 999, 3, 32, 102, 157, 85, 143, 152, 190, 3, 0.439144
390, 2, wb, attraction, a-b-db, 5, 1, 3, 33, 58, 132, 60, 135, 135, 60, 1, 6.42766
390, 2, wb, attraction, a-b-db, 5, 1, 3, 33, 58, 132, 60, 135, 135, 60, 3, 1.06351
390, 2, wb, attraction, a-b-db, 9, 1, 3, 34, 135, 60, 60, 135, 57, 129, 1, 1.31448
390, 2, wb, attraction, a-b-db, 9, 1, 3, 34, 135, 60, 60, 135, 57, 129, 2, 0.596816
390, 2, wb, filler, NA, 999, 999, 3, 35, 67, 61, 137, 163, 132, 163, 1, 0.770595
390, 2, wb, filler, NA, 999, 999, 3, 35, 67, 61, 137, 163, 132, 163, 2, 2.40223
390, 2, wb, catch, NA, 999, 999, 3, 36, 139, 176, 147, 108, 100, 95, 3, 2.30339
390, 2, wb, catch, NA, 999, 999, 3, 36, 139, 176, 147, 108, 100, 95, 1, 0.393992
390, 2, wb, attraction, a-b-db, 5, 2, 3, 37, 165, 90, 90, 165, 88, 161, 3, 4.95987
390, 2, wb, attraction, a-b-db, 5, 2, 3, 37, 165, 90, 90, 165, 88, 161, 2, 0.590926
390, 2, wb, attraction, a-b-db, 2, 3, 4, 1, 120, 195, 195, 120, 119, 193, 2, 2.55662
390, 2, wb, attraction, a-b-db, 2, 3, 4, 1, 120, 195, 195, 120, 119, 193, 3, 0.61248
390, 2, wb, attraction, a-b-db, 5, 3, 4, 2, 117, 190, 120, 195, 195, 120, 1, 4.45758
390, 2, wb, attraction, a-b-db, 5, 3, 4, 2, 117, 190, 120, 195, 195, 120, 2, 0.540738
390, 2, wb, attraction, a-b-db, 2, 2, 4, 3, 165, 90, 90, 165, 89, 163, 3, 1.83662
390, 2, wb, attraction, a-b-db, 2, 2, 4, 3, 165, 90, 90, 165, 89, 163, 1, 0.785341
390, 2, wb, attraction, a-b-da, 9, 1, 4, 4, 129, 57, 60, 135, 135, 60, 3, 2.79176
390, 2, wb, attraction, a-b-da, 9, 1, 4, 4, 129, 57, 60, 135, 135, 60, 2, 0.390127
390, 2, wb, filler, NA, 999, 999, 4, 5, 172, 102, 78, 164, 126, 181, 2, 1.42796
390, 2, wb, filler, NA, 999, 999, 4, 5, 172, 102, 78, 164, 126, 181, 3, 1.00948
390, 2, wb, catch, NA, 999, 999, 4, 6, 126, 189, 131, 64, 164, 91, 2, 1.35848
390, 2, wb, catch, NA, 999, 999, 4, 6, 126, 189, 131, 64, 164, 91, 1, 1.04664
390, 2, wb, attraction, a-b-da, 14, 2, 4, 7, 165, 90, 90, 165, 153, 83, 2, 2.14637
390, 2, wb, attraction, a-b-da, 14, 2, 4, 7, 165, 90, 90, 165, 153, 83, 1, 0.370903
390, 2, wb, attraction, a-b-db, 9, 2, 4, 8, 165, 90, 86, 157, 90, 165, 1, 1.39404
390, 2, wb, attraction, a-b-db, 9, 2, 4, 8, 165, 90, 86, 157, 90, 165, 2, 0.656876
390, 2, wb, attraction, a-b-da, 5, 2, 4, 9, 161, 88, 165, 90, 90, 165, 2, 2.61204
390, 2, wb, attraction, a-b-da, 5, 2, 4, 9, 161, 88, 165, 90, 90, 165, 3, 0.441867
390, 2, wb, attraction, a-b-db, 9, 3, 4, 10, 114, 186, 120, 195, 195, 120, 1, 4.15775
390, 2, wb, attraction, a-b-db, 9, 3, 4, 10, 114, 186, 120, 195, 195, 120, 3, 0.42893
390, 2, wb, attraction, a-b-da, 5, 3, 4, 11, 195, 120, 190, 117, 120, 195, 1, 3.44948
390, 2, wb, attraction, a-b-da, 5, 3, 4, 11, 195, 120, 190, 117, 120, 195, 3, 0.549729
390, 2, wb, attraction, a-b-db, 9, 1, 4, 12, 57, 129, 135, 60, 60, 135, 3, 4.40543
390, 2, wb, attraction, a-b-db, 9, 1, 4, 12, 57, 129, 135, 60, 60, 135, 2, 0.570778
390, 2, wb, attraction, a-b-da, 14, 3, 4, 13, 120, 195, 181, 111, 195, 120, 3, 0.945826
390, 2, wb, attraction, a-b-da, 14, 3, 4, 13, 120, 195, 181, 111, 195, 120, 2, 0.274758
390, 2, wb, filler, NA, 999, 999, 4, 14, 79, 135, 85, 69, 170, 58, 2, 0.773285
390, 2, wb, filler, NA, 999, 999, 4, 14, 79, 135, 85, 69, 170, 58, 1, 4.62111
390, 2, wb, filler, NA, 999, 999, 4, 15, 128, 105, 89, 115, 132, 95, 2, 3.40888
390, 2, wb, filler, NA, 999, 999, 4, 15, 128, 105, 89, 115, 132, 95, 1, 0.454421
390, 2, wb, filler, NA, 999, 999, 4, 16, 171, 192, 130, 156, 100, 130, 3, 0.818207
390, 2, wb, filler, NA, 999, 999, 4, 16, 171, 192, 130, 156, 100, 130, 1, 0.576612
390, 2, wb, attraction, a-b-db, 5, 1, 4, 17, 60, 135, 135, 60, 58, 132, 3, 2.78312
390, 2, wb, attraction, a-b-db, 5, 1, 4, 17, 60, 135, 135, 60, 58, 132, 2, 0.398225
390, 2, wb, catch, NA, 999, 999, 4, 18, 121, 74, 91, 164, 160, 155, 1, 0.836008
390, 2, wb, catch, NA, 999, 999, 4, 18, 121, 74, 91, 164, 160, 155, 3, 0.393717
390, 2, wb, filler, NA, 999, 999, 4, 19, 91, 169, 109, 195, 110, 94, 3, 1.11951
390, 2, wb, filler, NA, 999, 999, 4, 19, 91, 169, 109, 195, 110, 94, 2, 0.377807
390, 2, wb, attraction, a-b-db, 14, 2, 4, 20, 83, 153, 165, 90, 90, 165, 1, 3.62433
390, 2, wb, attraction, a-b-db, 14, 2, 4, 20, 83, 153, 165, 90, 90, 165, 3, 0.46113
390, 2, wb, filler, NA, 999, 999, 4, 21, 115, 73, 149, 169, 123, 136, 1, 0.680246
390, 2, wb, filler, NA, 999, 999, 4, 21, 115, 73, 149, 169, 123, 136, 2, 0.420014
390, 2, wb, filler, NA, 999, 999, 4, 22, 101, 56, 163, 128, 71, 186, 1, 0.665163
390, 2, wb, filler, NA, 999, 999, 4, 22, 101, 56, 163, 128, 71, 186, 2, 1.3178
390, 2, wb, attraction, a-b-da, 14, 1, 4, 23, 60, 135, 135, 60, 125, 56, 3, 5.37456
390, 2, wb, attraction, a-b-da, 14, 1, 4, 23, 60, 135, 135, 60, 125, 56, 1, 0.428809
390, 2, wb, attraction, a-b-da, 2, 3, 4, 24, 120, 195, 193, 119, 195, 120, 2, 4.95324
390, 2, wb, attraction, a-b-da, 2, 3, 4, 24, 120, 195, 193, 119, 195, 120, 1, 0.289116
390, 2, wb, attraction, a-b-db, 14, 1, 4, 25, 56, 125, 60, 135, 135, 60, 1, 2.50753
390, 2, wb, attraction, a-b-db, 14, 1, 4, 25, 56, 125, 60, 135, 135, 60, 3, 1.20552
390, 2, wb, catch, NA, 999, 999, 4, 26, 159, 156, 141, 114, 113, 82, 3, 0.690998
390, 2, wb, catch, NA, 999, 999, 4, 26, 159, 156, 141, 114, 113, 82, 1, 0.333951
390, 2, wb, filler, NA, 999, 999, 4, 27, 114, 76, 181, 159, 186, 70, 1, 0.934566
390, 2, wb, filler, NA, 999, 999, 4, 27, 114, 76, 181, 159, 186, 70, 2, 0.336192
390, 2, wb, attraction, a-b-db, 14, 3, 4, 28, 120, 195, 195, 120, 111, 181, 2, 2.56071
390, 2, wb, attraction, a-b-db, 14, 3, 4, 28, 120, 195, 195, 120, 111, 181, 1, 0.33659
390, 2, wb, filler, NA, 999, 999, 4, 29, 152, 134, 102, 92, 170, 81, 2, 0.681074
390, 2, wb, filler, NA, 999, 999, 4, 29, 152, 134, 102, 92, 170, 81, 1, 0.38891
390, 2, wb, attraction, a-b-da, 9, 2, 4, 30, 165, 90, 90, 165, 157, 86, 2, 4.32335
390, 2, wb, attraction, a-b-da, 9, 2, 4, 30, 165, 90, 90, 165, 157, 86, 1, 0.299872
390, 2, wb, attraction, a-b-da, 5, 1, 4, 31, 135, 60, 60, 135, 132, 58, 2, 6.54985
390, 2, wb, attraction, a-b-da, 5, 1, 4, 31, 135, 60, 60, 135, 132, 58, 1, 1.45302
390, 2, wb, attraction, a-b-db, 5, 2, 4, 32, 165, 90, 90, 165, 88, 161, 3, 4.07259
390, 2, wb, attraction, a-b-db, 5, 2, 4, 32, 165, 90, 90, 165, 88, 161, 2, 2.11527
390, 2, wb, attraction, a-b-da, 9, 3, 4, 33, 186, 114, 120, 195, 195, 120, 1, 1.4759
390, 2, wb, attraction, a-b-da, 9, 3, 4, 33, 186, 114, 120, 195, 195, 120, 3, 0.983428
390, 2, wb, attraction, a-b-da, 2, 1, 4, 34, 60, 135, 134, 59, 135, 60, 3, 1.78966
390, 2, wb, attraction, a-b-da, 2, 1, 4, 34, 60, 135, 134, 59, 135, 60, 2, 0.80442
390, 2, wb, filler, NA, 999, 999, 4, 35, 151, 77, 77, 116, 68, 146, 2, 1.62629
390, 2, wb, filler, NA, 999, 999, 4, 35, 151, 77, 77, 116, 68, 146, 1, 0.815526
390, 2, wb, attraction, a-b-db, 2, 1, 4, 36, 135, 60, 59, 134, 60, 135, 1, 5.06057
390, 2, wb, attraction, a-b-db, 2, 1, 4, 36, 135, 60, 59, 134, 60, 135, 3, 1.19965
390, 2, wb, attraction, a-b-da, 2, 2, 4, 37, 163, 89, 90, 165, 165, 90, 2, 4.52522
390, 2, wb, attraction, a-b-da, 2, 2, 4, 37, 163, 89, 90, 165, 165, 90, 3, 0.445872
390, 2, wb, attraction, a-b-db, 5, 3, 5, 1, 120, 195, 117, 190, 195, 120, 3, 6.43223
390, 2, wb, attraction, a-b-db, 5, 3, 5, 1, 120, 195, 117, 190, 195, 120, 1, 0.388117
390, 2, wb, catch, NA, 999, 999, 5, 2, 104, 151, 89, 106, 163, 152, 2, 0.906691
390, 2, wb, catch, NA, 999, 999, 5, 2, 104, 151, 89, 106, 163, 152, 3, 0.365119
390, 2, wb, attraction, a-b-da, 5, 1, 5, 3, 60, 135, 135, 60, 132, 58, 3, 2.06015
390, 2, wb, attraction, a-b-da, 5, 1, 5, 3, 60, 135, 135, 60, 132, 58, 1, 0.560169
390, 2, wb, filler, NA, 999, 999, 5, 4, 104, 109, 189, 175, 91, 130, 3, 2.28724
390, 2, wb, filler, NA, 999, 999, 5, 4, 104, 109, 189, 175, 91, 130, 2, 0.330613
390, 2, wb, filler, NA, 999, 999, 5, 5, 146, 112, 85, 62, 148, 94, 2, 0.795048
390, 2, wb, filler, NA, 999, 999, 5, 5, 146, 112, 85, 62, 148, 94, 1, 0.746107
390, 2, wb, attraction, a-b-da, 9, 1, 5, 6, 129, 57, 135, 60, 60, 135, 2, 4.89778
390, 2, wb, attraction, a-b-da, 9, 1, 5, 6, 129, 57, 135, 60, 60, 135, 3, 0.331686
390, 2, wb, attraction, a-b-da, 2, 1, 5, 7, 134, 59, 60, 135, 135, 60, 2, 1.88412
390, 2, wb, attraction, a-b-da, 2, 1, 5, 7, 134, 59, 60, 135, 135, 60, 3, 0.9195
390, 2, wb, attraction, a-b-da, 14, 2, 5, 8, 153, 83, 90, 165, 165, 90, 2, 4.97647
390, 2, wb, attraction, a-b-da, 14, 2, 5, 8, 153, 83, 90, 165, 165, 90, 3, 0.342924
390, 2, wb, attraction, a-b-da, 9, 2, 5, 9, 157, 86, 165, 90, 90, 165, 1, 5.21472
390, 2, wb, attraction, a-b-da, 9, 2, 5, 9, 157, 86, 165, 90, 90, 165, 2, 0.43569
390, 2, wb, attraction, a-b-db, 2, 1, 5, 10, 135, 60, 60, 135, 59, 134, 1, 3.55218
390, 2, wb, attraction, a-b-db, 2, 1, 5, 10, 135, 60, 60, 135, 59, 134, 3, 2.8084
390, 2, wb, attraction, a-b-da, 9, 3, 5, 11, 120, 195, 195, 120, 186, 114, 3, 4.66083
390, 2, wb, attraction, a-b-da, 9, 3, 5, 11, 120, 195, 195, 120, 186, 114, 1, 1.41602
390, 2, wb, filler, NA, 999, 999, 5, 12, 94, 87, 157, 75, 159, 155, 1, 0.756899
390, 2, wb, filler, NA, 999, 999, 5, 12, 94, 87, 157, 75, 159, 155, 3, 0.565279
390, 2, wb, filler, NA, 999, 999, 5, 13, 168, 168, 103, 102, 103, 160, 2, 0.724386
390, 2, wb, filler, NA, 999, 999, 5, 13, 168, 168, 103, 102, 103, 160, 1, 0.702143
390, 2, wb, attraction, a-b-db, 14, 1, 5, 14, 135, 60, 60, 135, 56, 125, 2, 2.55984
390, 2, wb, attraction, a-b-db, 14, 1, 5, 14, 135, 60, 60, 135, 56, 125, 1, 0.855576
390, 2, wb, filler, NA, 999, 999, 5, 15, 161, 155, 104, 108, 193, 155, 2, 1.01138
390, 2, wb, filler, NA, 999, 999, 5, 15, 161, 155, 104, 108, 193, 155, 3, 1.78567
390, 2, wb, filler, NA, 999, 999, 5, 16, 110, 128, 125, 110, 195, 164, 1, 2.79161
390, 2, wb, filler, NA, 999, 999, 5, 16, 110, 128, 125, 110, 195, 164, 3, 0.478024
390, 2, wb, attraction, a-b-db, 9, 1, 5, 17, 60, 135, 135, 60, 57, 129, 3, 1.57664
390, 2, wb, attraction, a-b-db, 9, 1, 5, 17, 60, 135, 135, 60, 57, 129, 2, 0.640088
390, 2, wb, attraction, a-b-db, 9, 3, 5, 18, 114, 186, 195, 120, 120, 195, 2, 3.30783
390, 2, wb, attraction, a-b-db, 9, 3, 5, 18, 114, 186, 195, 120, 120, 195, 3, 1.24548
390, 2, wb, filler, NA, 999, 999, 5, 19, 57, 122, 95, 148, 141, 59, 1, 1.39287
390, 2, wb, filler, NA, 999, 999, 5, 19, 57, 122, 95, 148, 141, 59, 2, 0.455854
390, 2, wb, attraction, a-b-db, 14, 2, 5, 20, 90, 165, 165, 90, 83, 153, 2, 14.1475
390, 2, wb, attraction, a-b-db, 14, 2, 5, 20, 90, 165, 165, 90, 83, 153, 1, 0.408449
390, 2, wb, attraction, a-b-db, 14, 3, 5, 21, 111, 181, 120, 195, 195, 120, 2, 9.15761
390, 2, wb, attraction, a-b-db, 14, 3, 5, 21, 111, 181, 120, 195, 195, 120, 3, 4.32349
390, 2, wb, catch, NA, 999, 999, 5, 22, 96, 99, 109, 146, 122, 193, 1, 0.84336
390, 2, wb, catch, NA, 999, 999, 5, 22, 96, 99, 109, 146, 122, 193, 3, 0.320357
390, 2, wb, catch, NA, 999, 999, 5, 23, 191, 124, 128, 67, 118, 137, 2, 0.985587
390, 2, wb, catch, NA, 999, 999, 5, 23, 191, 124, 128, 67, 118, 137, 1, 0.577181
390, 2, wb, filler, NA, 999, 999, 5, 24, 138, 77, 120, 147, 77, 71, 3, 1.02375
390, 2, wb, filler, NA, 999, 999, 5, 24, 138, 77, 120, 147, 77, 71, 2, 1.06944
390, 2, wb, attraction, a-b-da, 14, 1, 5, 25, 60, 135, 125, 56, 135, 60, 1, 3.63225
390, 2, wb, attraction, a-b-da, 14, 1, 5, 25, 60, 135, 125, 56, 135, 60, 3, 1.16518
390, 2, wb, attraction, a-b-db, 2, 3, 5, 26, 119, 193, 195, 120, 120, 195, 2, 1.83597
390, 2, wb, attraction, a-b-db, 2, 3, 5, 26, 119, 193, 195, 120, 120, 195, 3, 0.969483
390, 2, wb, attraction, a-b-db, 2, 2, 5, 27, 165, 90, 90, 165, 89, 163, 1, 4.1365
390, 2, wb, attraction, a-b-db, 2, 2, 5, 27, 165, 90, 90, 165, 89, 163, 3, 0.520995
390, 2, wb, attraction, a-b-da, 5, 3, 5, 28, 120, 195, 195, 120, 190, 117, 2, 1.98618
390, 2, wb, attraction, a-b-da, 5, 3, 5, 28, 120, 195, 195, 120, 190, 117, 3, 1.10569
390, 2, wb, attraction, a-b-db, 5, 2, 5, 29, 165, 90, 88, 161, 90, 165, 2, 2.47517
390, 2, wb, attraction, a-b-db, 5, 2, 5, 29, 165, 90, 88, 161, 90, 165, 1, 0.574278
390, 2, wb, attraction, a-b-da, 5, 2, 5, 30, 90, 165, 161, 88, 165, 90, 2, 4.2687
390, 2, wb, attraction, a-b-da, 5, 2, 5, 30, 90, 165, 161, 88, 165, 90, 3, 1.41613
390, 2, wb, attraction, a-b-da, 2, 2, 5, 31, 90, 165, 163, 89, 165, 90, 1, 2.81288
390, 2, wb, attraction, a-b-da, 2, 2, 5, 31, 90, 165, 163, 89, 165, 90, 2, 1.02682
390, 2, wb, attraction, a-b-db, 9, 2, 5, 32, 90, 165, 86, 157, 165, 90, 2, 3.22296
390, 2, wb, attraction, a-b-db, 9, 2, 5, 32, 90, 165, 86, 157, 165, 90, 1, 0.555841
390, 2, wb, attraction, a-b-db, 5, 1, 5, 33, 135, 60, 58, 132, 60, 135, 2, 3.32375
390, 2, wb, attraction, a-b-db, 5, 1, 5, 33, 135, 60, 58, 132, 60, 135, 3, 1.12458
390, 2, wb, filler, NA, 999, 999, 5, 34, 182, 122, 144, 89, 98, 71, 3, 0.828915
390, 2, wb, filler, NA, 999, 999, 5, 34, 182, 122, 144, 89, 98, 71, 1, 0.51458
390, 2, wb, attraction, a-b-da, 14, 3, 5, 35, 195, 120, 120, 195, 181, 111, 3, 2.56379
390, 2, wb, attraction, a-b-da, 14, 3, 5, 35, 195, 120, 120, 195, 181, 111, 1, 1.44353
390, 2, wb, attraction, a-b-da, 2, 3, 5, 36, 195, 120, 120, 195, 193, 119, 2, 1.83102
390, 2, wb, attraction, a-b-da, 2, 3, 5, 36, 195, 120, 120, 195, 193, 119, 1, 3.14046
390, 2, wb, filler, NA, 999, 999, 5, 37, 188, 71, 142, 83, 69, 195, 2, 6.22802
390, 2, wb, filler, NA, 999, 999, 5, 37, 188, 71, 142, 83, 69, 195, 1, 1.1441
390, 2, wb, filler, NA, 999, 999, 6, 1, 117, 139, 135, 167, 75, 162, 3, 2.06385
390, 2, wb, filler, NA, 999, 999, 6, 1, 117, 139, 135, 167, 75, 162, 2, 1.01164
390, 2, wb, attraction, a-b-db, 9, 2, 6, 2, 86, 157, 90, 165, 165, 90, 1, 5.21662
390, 2, wb, attraction, a-b-db, 9, 2, 6, 2, 86, 157, 90, 165, 165, 90, 3, 0.829692
390, 2, wb, filler, NA, 999, 999, 6, 3, 84, 124, 158, 119, 172, 88, 1, 1.21797
390, 2, wb, filler, NA, 999, 999, 6, 3, 84, 124, 158, 119, 172, 88, 2, 0.480255
390, 2, wb, attraction, a-b-db, 5, 3, 6, 4, 117, 190, 195, 120, 120, 195, 1, 5.39479
390, 2, wb, attraction, a-b-db, 5, 3, 6, 4, 117, 190, 195, 120, 120, 195, 2, 1.25632
390, 2, wb, attraction, a-b-db, 9, 1, 6, 5, 57, 129, 60, 135, 135, 60, 3, 5.53929
390, 2, wb, attraction, a-b-db, 9, 1, 6, 5, 57, 129, 60, 135, 135, 60, 2, 0.930798
390, 2, wb, filler, NA, 999, 999, 6, 6, 109, 75, 105, 183, 178, 127, 1, 0.907222
390, 2, wb, filler, NA, 999, 999, 6, 6, 109, 75, 105, 183, 178, 127, 2, 6.98142
390, 2, wb, filler, NA, 999, 999, 6, 7, 85, 140, 118, 101, 76, 71, 3, 1.33785
390, 2, wb, filler, NA, 999, 999, 6, 7, 85, 140, 118, 101, 76, 71, 2, 3.22677
390, 2, wb, attraction, a-b-db, 5, 2, 6, 8, 88, 161, 165, 90, 90, 165, 3, 4.04637
390, 2, wb, attraction, a-b-db, 5, 2, 6, 8, 88, 161, 165, 90, 90, 165, 1, 0.83435
390, 2, wb, attraction, a-b-da, 14, 1, 6, 9, 60, 135, 125, 56, 135, 60, 1, 2.26284
390, 2, wb, attraction, a-b-da, 14, 1, 6, 9, 60, 135, 125, 56, 135, 60, 3, 0.402602
390, 2, wb, attraction, a-b-db, 2, 1, 6, 10, 135, 60, 59, 134, 60, 135, 2, 2.55241
390, 2, wb, attraction, a-b-db, 2, 1, 6, 10, 135, 60, 59, 134, 60, 135, 1, 1.13694
390, 2, wb, attraction, a-b-db, 9, 3, 6, 11, 195, 120, 114, 186, 120, 195, 2, 3.70527
390, 2, wb, attraction, a-b-db, 9, 3, 6, 11, 195, 120, 114, 186, 120, 195, 1, 0.474662
390, 2, wb, attraction, a-b-db, 2, 2, 6, 12, 90, 165, 165, 90, 89, 163, 3, 1.59718
390, 2, wb, attraction, a-b-db, 2, 2, 6, 12, 90, 165, 165, 90, 89, 163, 1, 0.62793
390, 2, wb, attraction, a-b-da, 5, 1, 6, 13, 60, 135, 132, 58, 135, 60, 2, 2.88055
390, 2, wb, attraction, a-b-da, 5, 1, 6, 13, 60, 135, 132, 58, 135, 60, 1, 0.907485
390, 2, wb, attraction, a-b-db, 14, 2, 6, 14, 90, 165, 83, 153, 165, 90, 2, 2.70049
390, 2, wb, attraction, a-b-db, 14, 2, 6, 14, 90, 165, 83, 153, 165, 90, 3, 1.37499
390, 2, wb, catch, NA, 999, 999, 6, 15, 127, 128, 80, 115, 146, 169, 2, 0.885178
390, 2, wb, catch, NA, 999, 999, 6, 15, 127, 128, 80, 115, 146, 169, 3, 0.76083
390, 2, wb, attraction, a-b-da, 9, 3, 6, 16, 195, 120, 186, 114, 120, 195, 2, 4.29585
390, 2, wb, attraction, a-b-da, 9, 3, 6, 16, 195, 120, 186, 114, 120, 195, 3, 0.497905
390, 2, wb, attraction, a-b-da, 2, 1, 6, 17, 134, 59, 60, 135, 135, 60, 1, 4.69962
390, 2, wb, attraction, a-b-da, 2, 1, 6, 17, 134, 59, 60, 135, 135, 60, 2, 0.405395
390, 2, wb, attraction, a-b-da, 2, 3, 6, 18, 193, 119, 195, 120, 120, 195, 1, 5.24327
390, 2, wb, attraction, a-b-da, 2, 3, 6, 18, 193, 119, 195, 120, 120, 195, 3, 0.566951
390, 2, wb, attraction, a-b-da, 9, 1, 6, 19, 129, 57, 60, 135, 135, 60, 3, 2.10203
390, 2, wb, attraction, a-b-da, 9, 1, 6, 19, 129, 57, 60, 135, 135, 60, 2, 0.552688
390, 2, wb, filler, NA, 999, 999, 6, 20, 73, 162, 175, 79, 166, 194, 1, 1.09647
390, 2, wb, filler, NA, 999, 999, 6, 20, 73, 162, 175, 79, 166, 194, 3, 0.419382
390, 2, wb, attraction, a-b-db, 5, 1, 6, 21, 135, 60, 60, 135, 58, 132, 2, 2.01666
390, 2, wb, attraction, a-b-db, 5, 1, 6, 21, 135, 60, 60, 135, 58, 132, 1, 0.406632
390, 2, wb, filler, NA, 999, 999, 6, 22, 107, 78, 105, 128, 83, 60, 3, 0.531702
390, 2, wb, filler, NA, 999, 999, 6, 22, 107, 78, 105, 128, 83, 60, 2, 0.517552
390, 2, wb, catch, NA, 999, 999, 6, 23, 83, 112, 184, 131, 162, 93, 1, 1.15063
390, 2, wb, catch, NA, 999, 999, 6, 23, 83, 112, 184, 131, 162, 93, 2, 0.551571
390, 2, wb, attraction, a-b-da, 5, 3, 6, 24, 195, 120, 190, 117, 120, 195, 2, 2.74337
390, 2, wb, attraction, a-b-da, 5, 3, 6, 24, 195, 120, 190, 117, 120, 195, 3, 2.86387
390, 2, wb, attraction, a-b-da, 14, 3, 6, 25, 120, 195, 195, 120, 181, 111, 2, 10.6102
390, 2, wb, attraction, a-b-da, 14, 3, 6, 25, 120, 195, 195, 120, 181, 111, 1, 0.661486
390, 2, wb, attraction, a-b-da, 2, 2, 6, 26, 165, 90, 90, 165, 163, 89, 2, 1.47266
390, 2, wb, attraction, a-b-da, 2, 2, 6, 26, 165, 90, 90, 165, 163, 89, 3, 1.10805
390, 2, wb, filler, NA, 999, 999, 6, 27, 172, 56, 82, 58, 149, 121, 2, 0.940938
390, 2, wb, filler, NA, 999, 999, 6, 27, 172, 56, 82, 58, 149, 121, 3, 0.293988
390, 2, wb, filler, NA, 999, 999, 6, 28, 100, 179, 141, 91, 99, 194, 2, 1.52782
390, 2, wb, filler, NA, 999, 999, 6, 28, 100, 179, 141, 91, 99, 194, 3, 0.2974
390, 2, wb, attraction, a-b-db, 14, 1, 6, 29, 60, 135, 56, 125, 135, 60, 2, 1.76333
390, 2, wb, attraction, a-b-db, 14, 1, 6, 29, 60, 135, 56, 125, 135, 60, 3, 0.379239
390, 2, wb, filler, NA, 999, 999, 6, 30, 101, 68, 100, 190, 96, 66, 3, 1.29773
390, 2, wb, filler, NA, 999, 999, 6, 30, 101, 68, 100, 190, 96, 66, 2, 0.524632
390, 2, wb, attraction, a-b-db, 2, 3, 6, 31, 195, 120, 120, 195, 119, 193, 3, 2.50915
390, 2, wb, attraction, a-b-db, 2, 3, 6, 31, 195, 120, 120, 195, 119, 193, 1, 0.383039
390, 2, wb, attraction, a-b-da, 14, 2, 6, 32, 90, 165, 165, 90, 153, 83, 1, 2.68561
390, 2, wb, attraction, a-b-da, 14, 2, 6, 32, 90, 165, 165, 90, 153, 83, 2, 0.384713
390, 2, wb, catch, NA, 999, 999, 6, 33, 143, 112, 187, 128, 76, 119, 3, 0.759079
390, 2, wb, catch, NA, 999, 999, 6, 33, 143, 112, 187, 128, 76, 119, 2, 0.399592
390, 2, wb, attraction, a-b-da, 9, 2, 6, 34, 157, 86, 90, 165, 165, 90, 1, 1.9733
390, 2, wb, attraction, a-b-da, 9, 2, 6, 34, 157, 86, 90, 165, 165, 90, 2, 1.14866
390, 2, wb, filler, NA, 999, 999, 6, 35, 164, 168, 159, 139, 60, 148, 3, 0.668233
390, 2, wb, filler, NA, 999, 999, 6, 35, 164, 168, 159, 139, 60, 148, 1, 0.464664
390, 2, wb, attraction, a-b-db, 14, 3, 6, 36, 120, 195, 111, 181, 195, 120, 2, 3.7398
390, 2, wb, attraction, a-b-db, 14, 3, 6, 36, 120, 195, 111, 181, 195, 120, 3, 0.355919
390, 2, wb, attraction, a-b-da, 5, 2, 6, 37, 161, 88, 165, 90, 90, 165, 1, 3.60771
390, 2, wb, attraction, a-b-da, 5, 2, 6, 37, 161, 88, 165, 90, 90, 165, 3, 0.296575
390, 2, wb, filler, NA, 999, 999, 7, 1, 157, 152, 181, 188, 67, 167, 3, 0.778481
390, 2, wb, filler, NA, 999, 999, 7, 1, 157, 152, 181, 188, 67, 167, 2, 1.13841
390, 2, wb, filler, NA, 999, 999, 7, 2, 61, 174, 95, 93, 103, 156, 2, 0.802661
390, 2, wb, filler, NA, 999, 999, 7, 2, 61, 174, 95, 93, 103, 156, 3, 0.641474
390, 2, wb, filler, NA, 999, 999, 7, 3, 189, 86, 139, 79, 127, 154, 2, 2.43728
390, 2, wb, filler, NA, 999, 999, 7, 3, 189, 86, 139, 79, 127, 154, 3, 0.289802
390, 2, wb, attraction, a-b-da, 9, 3, 7, 4, 120, 195, 195, 120, 186, 114, 1, 3.34766
390, 2, wb, attraction, a-b-da, 9, 3, 7, 4, 120, 195, 195, 120, 186, 114, 2, 0.747934
390, 2, wb, attraction, a-b-db, 5, 2, 7, 5, 165, 90, 88, 161, 90, 165, 3, 2.4996
390, 2, wb, attraction, a-b-db, 5, 2, 7, 5, 165, 90, 88, 161, 90, 165, 1, 0.46217
390, 2, wb, attraction, a-b-db, 2, 2, 7, 6, 89, 163, 90, 165, 165, 90, 1, 1.92925
390, 2, wb, attraction, a-b-db, 2, 2, 7, 6, 89, 163, 90, 165, 165, 90, 3, 0.466572
390, 2, wb, attraction, a-b-da, 14, 3, 7, 7, 120, 195, 181, 111, 195, 120, 1, 2.94175
390, 2, wb, attraction, a-b-da, 14, 3, 7, 7, 120, 195, 181, 111, 195, 120, 3, 0.686171
390, 2, wb, attraction, a-b-da, 5, 3, 7, 8, 190, 117, 195, 120, 120, 195, 1, 2.73651
390, 2, wb, attraction, a-b-da, 5, 3, 7, 8, 190, 117, 195, 120, 120, 195, 3, 0.441773
390, 2, wb, filler, NA, 999, 999, 7, 9, 161, 97, 65, 104, 137, 188, 2, 0.981398
390, 2, wb, filler, NA, 999, 999, 7, 9, 161, 97, 65, 104, 137, 188, 3, 0.341076
390, 2, wb, attraction, a-b-db, 5, 1, 7, 10, 60, 135, 135, 60, 58, 132, 1, 4.23701
390, 2, wb, attraction, a-b-db, 5, 1, 7, 10, 60, 135, 135, 60, 58, 132, 2, 0.465573
390, 2, wb, filler, NA, 999, 999, 7, 11, 74, 76, 174, 145, 139, 184, 1, 0.70889
390, 2, wb, filler, NA, 999, 999, 7, 11, 74, 76, 174, 145, 139, 184, 3, 8.42326
390, 2, wb, attraction, a-b-da, 2, 1, 7, 12, 135, 60, 60, 135, 134, 59, 1, 1.84177
390, 2, wb, attraction, a-b-da, 2, 1, 7, 12, 135, 60, 60, 135, 134, 59, 2, 0.390534
390, 2, wb, catch, NA, 999, 999, 7, 13, 186, 129, 130, 125, 61, 134, 3, 0.932347
390, 2, wb, catch, NA, 999, 999, 7, 13, 186, 129, 130, 125, 61, 134, 1, 0.694016
390, 2, wb, attraction, a-b-da, 9, 2, 7, 14, 90, 165, 157, 86, 165, 90, 2, 2.56776
390, 2, wb, attraction, a-b-da, 9, 2, 7, 14, 90, 165, 157, 86, 165, 90, 3, 0.815695
390, 2, wb, attraction, a-b-db, 2, 1, 7, 15, 59, 134, 135, 60, 60, 135, 3, 2.04475
390, 2, wb, attraction, a-b-db, 2, 1, 7, 15, 59, 134, 135, 60, 60, 135, 2, 2.29735
390, 2, wb, catch, NA, 999, 999, 7, 16, 72, 123, 190, 125, 152, 103, 1, 0.738515
390, 2, wb, catch, NA, 999, 999, 7, 16, 72, 123, 190, 125, 152, 103, 2, 0.715636
390, 2, wb, attraction, a-b-db, 9, 3, 7, 17, 114, 186, 195, 120, 120, 195, 1, 2.16457
390, 2, wb, attraction, a-b-db, 9, 3, 7, 17, 114, 186, 195, 120, 120, 195, 3, 0.692573
390, 2, wb, attraction, a-b-db, 14, 3, 7, 18, 120, 195, 111, 181, 195, 120, 3, 1.44636
390, 2, wb, attraction, a-b-db, 14, 3, 7, 18, 120, 195, 111, 181, 195, 120, 2, 0.307932
390, 2, wb, attraction, a-b-db, 5, 3, 7, 19, 117, 190, 120, 195, 195, 120, 2, 1.40441
390, 2, wb, attraction, a-b-db, 5, 3, 7, 19, 117, 190, 120, 195, 195, 120, 3, 0.490622
390, 2, wb, filler, NA, 999, 999, 7, 20, 135, 177, 162, 138, 144, 166, 2, 2.66034
390, 2, wb, filler, NA, 999, 999, 7, 20, 135, 177, 162, 138, 144, 166, 3, 2.12815
390, 2, wb, filler, NA, 999, 999, 7, 21, 189, 110, 158, 101, 101, 117, 3, 0.888181
390, 2, wb, filler, NA, 999, 999, 7, 21, 189, 110, 158, 101, 101, 117, 1, 1.75509
390, 2, wb, attraction, a-b-db, 9, 1, 7, 22, 57, 129, 60, 135, 135, 60, 2, 1.41048
390, 2, wb, attraction, a-b-db, 9, 1, 7, 22, 57, 129, 60, 135, 135, 60, 3, 0.528756
390, 2, wb, attraction, a-b-db, 2, 3, 7, 23, 119, 193, 195, 120, 120, 195, 3, 13.3053
390, 2, wb, attraction, a-b-db, 2, 3, 7, 23, 119, 193, 195, 120, 120, 195, 2, 0.568285
390, 2, wb, attraction, a-b-da, 5, 1, 7, 24, 60, 135, 135, 60, 132, 58, 1, 5.27145
390, 2, wb, attraction, a-b-da, 5, 1, 7, 24, 60, 135, 135, 60, 132, 58, 3, 0.505774
390, 2, wb, attraction, a-b-da, 5, 2, 7, 25, 90, 165, 165, 90, 161, 88, 2, 2.35551
390, 2, wb, attraction, a-b-da, 5, 2, 7, 25, 90, 165, 165, 90, 161, 88, 1, 0.619411
390, 2, wb, attraction, a-b-db, 14, 2, 7, 26, 90, 165, 165, 90, 83, 153, 3, 2.38448
390, 2, wb, attraction, a-b-db, 14, 2, 7, 26, 90, 165, 165, 90, 83, 153, 1, 0.319651
390, 2, wb, catch, NA, 999, 999, 7, 27, 153, 102, 69, 126, 144, 171, 2, 0.808871
390, 2, wb, catch, NA, 999, 999, 7, 27, 153, 102, 69, 126, 144, 171, 3, 0.327323
390, 2, wb, filler, NA, 999, 999, 7, 28, 128, 144, 167, 173, 164, 179, 1, 1.04784
390, 2, wb, filler, NA, 999, 999, 7, 28, 128, 144, 167, 173, 164, 179, 3, 1.40483
390, 2, wb, attraction, a-b-da, 2, 2, 7, 29, 165, 90, 163, 89, 90, 165, 2, 3.91433
390, 2, wb, attraction, a-b-da, 2, 2, 7, 29, 165, 90, 163, 89, 90, 165, 3, 0.45174
390, 2, wb, attraction, a-b-da, 9, 1, 7, 30, 60, 135, 135, 60, 129, 57, 2, 1.84751
390, 2, wb, attraction, a-b-da, 9, 1, 7, 30, 60, 135, 135, 60, 129, 57, 1, 0.652192
390, 2, wb, attraction, a-b-da, 14, 2, 7, 31, 90, 165, 153, 83, 165, 90, 2, 2.08795
390, 2, wb, attraction, a-b-da, 14, 2, 7, 31, 90, 165, 153, 83, 165, 90, 3, 0.354573
390, 2, wb, attraction, a-b-da, 2, 3, 7, 32, 195, 120, 193, 119, 120, 195, 2, 3.09046
390, 2, wb, attraction, a-b-da, 2, 3, 7, 32, 195, 120, 193, 119, 120, 195, 3, 0.620932
390, 2, wb, attraction, a-b-db, 9, 2, 7, 33, 86, 157, 90, 165, 165, 90, 1, 4.37784
390, 2, wb, attraction, a-b-db, 9, 2, 7, 33, 86, 157, 90, 165, 165, 90, 3, 0.592502
390, 2, wb, attraction, a-b-db, 14, 1, 7, 34, 56, 125, 135, 60, 60, 135, 1, 2.24623
390, 2, wb, attraction, a-b-db, 14, 1, 7, 34, 56, 125, 135, 60, 60, 135, 3, 2.01889
390, 2, wb, attraction, a-b-da, 14, 1, 7, 35, 60, 135, 135, 60, 125, 56, 2, 2.36758
390, 2, wb, attraction, a-b-da, 14, 1, 7, 35, 60, 135, 135, 60, 125, 56, 1, 1.0154
390, 2, wb, filler, NA, 999, 999, 7, 36, 116, 172, 184, 98, 85, 166, 2, 3.58041
390, 2, wb, filler, NA, 999, 999, 7, 36, 116, 172, 184, 98, 85, 166, 1, 0.403121
390, 2, wb, filler, NA, 999, 999, 7, 37, 112, 102, 95, 82, 178, 134, 2, 1.03313
390, 2, wb, filler, NA, 999, 999, 7, 37, 112, 102, 95, 82, 178, 134, 3, 0.446663
390, 2, wb, attraction, a-b-da, 2, 2, 8, 1, 163, 89, 165, 90, 90, 165, 3, 3.05848
390, 2, wb, attraction, a-b-da, 2, 2, 8, 1, 163, 89, 165, 90, 90, 165, 2, 0.790289
390, 2, wb, attraction, a-b-db, 2, 2, 8, 2, 89, 163, 90, 165, 165, 90, 3, 2.6919
390, 2, wb, attraction, a-b-db, 2, 2, 8, 2, 89, 163, 90, 165, 165, 90, 1, 1.21428
390, 2, wb, attraction, a-b-db, 2, 3, 8, 3, 119, 193, 120, 195, 195, 120, 3, 2.6752
390, 2, wb, attraction, a-b-db, 2, 3, 8, 3, 119, 193, 120, 195, 195, 120, 2, 0.350377
390, 2, wb, attraction, a-b-da, 14, 2, 8, 4, 153, 83, 165, 90, 90, 165, 1, 1.84619
390, 2, wb, attraction, a-b-da, 14, 2, 8, 4, 153, 83, 165, 90, 90, 165, 3, 0.69886
390, 2, wb, attraction, a-b-da, 14, 3, 8, 5, 195, 120, 120, 195, 181, 111, 3, 4.61271
390, 2, wb, attraction, a-b-da, 14, 3, 8, 5, 195, 120, 120, 195, 181, 111, 2, 1.08199
390, 2, wb, attraction, a-b-da, 5, 1, 8, 6, 132, 58, 60, 135, 135, 60, 1, 5.04406
390, 2, wb, attraction, a-b-da, 5, 1, 8, 6, 132, 58, 60, 135, 135, 60, 2, 0.343829
390, 2, wb, filler, NA, 999, 999, 8, 7, 163, 117, 118, 157, 108, 153, 1, 4.95166
390, 2, wb, filler, NA, 999, 999, 8, 7, 163, 117, 118, 157, 108, 153, 3, 0.567487
390, 2, wb, attraction, a-b-da, 2, 1, 8, 8, 134, 59, 60, 135, 135, 60, 2, 3.43858
390, 2, wb, attraction, a-b-da, 2, 1, 8, 8, 134, 59, 60, 135, 135, 60, 3, 0.362823
390, 2, wb, attraction, a-b-db, 14, 2, 8, 9, 83, 153, 90, 165, 165, 90, 1, 3.77793
390, 2, wb, attraction, a-b-db, 14, 2, 8, 9, 83, 153, 90, 165, 165, 90, 3, 1.56073
390, 2, wb, attraction, a-b-da, 9, 2, 8, 10, 165, 90, 157, 86, 90, 165, 2, 2.82351
390, 2, wb, attraction, a-b-da, 9, 2, 8, 10, 165, 90, 157, 86, 90, 165, 3, 1.7646
390, 2, wb, attraction, a-b-da, 14, 1, 8, 11, 125, 56, 135, 60, 60, 135, 3, 5.14734
390, 2, wb, attraction, a-b-da, 14, 1, 8, 11, 125, 56, 135, 60, 60, 135, 1, 0.771109
390, 2, wb, attraction, a-b-db, 14, 3, 8, 12, 120, 195, 111, 181, 195, 120, 2, 2.70611
390, 2, wb, attraction, a-b-db, 14, 3, 8, 12, 120, 195, 111, 181, 195, 120, 1, 1.37182
390, 2, wb, attraction, a-b-da, 5, 3, 8, 13, 120, 195, 195, 120, 190, 117, 1, 10.4427
390, 2, wb, attraction, a-b-da, 5, 3, 8, 13, 120, 195, 195, 120, 190, 117, 2, 0.332665
390, 2, wb, attraction, a-b-db, 14, 1, 8, 14, 135, 60, 60, 135, 56, 125, 3, 2.95734
390, 2, wb, attraction, a-b-db, 14, 1, 8, 14, 135, 60, 60, 135, 56, 125, 2, 0.516927
390, 2, wb, attraction, a-b-db, 9, 1, 8, 15, 60, 135, 57, 129, 135, 60, 2, 1.26198
390, 2, wb, attraction, a-b-db, 9, 1, 8, 15, 60, 135, 57, 129, 135, 60, 3, 0.4663
390, 2, wb, filler, NA, 999, 999, 8, 16, 88, 151, 90, 159, 102, 180, 1, 3.06946
390, 2, wb, filler, NA, 999, 999, 8, 16, 88, 151, 90, 159, 102, 180, 3, 0.265129
390, 2, wb, filler, NA, 999, 999, 8, 17, 79, 129, 64, 79, 123, 140, 2, 0.55624
390, 2, wb, filler, NA, 999, 999, 8, 17, 79, 129, 64, 79, 123, 140, 3, 0.276786
390, 2, wb, attraction, a-b-db, 9, 3, 8, 18, 114, 186, 195, 120, 120, 195, 2, 3.22348
390, 2, wb, attraction, a-b-db, 9, 3, 8, 18, 114, 186, 195, 120, 120, 195, 3, 0.572223
390, 2, wb, filler, NA, 999, 999, 8, 19, 173, 109, 160, 75, 136, 164, 2, 0.955342
390, 2, wb, filler, NA, 999, 999, 8, 19, 173, 109, 160, 75, 136, 164, 3, 2.73165
390, 2, wb, catch, NA, 999, 999, 8, 20, 160, 95, 163, 152, 108, 87, 3, 0.747488
390, 2, wb, catch, NA, 999, 999, 8, 20, 160, 95, 163, 152, 108, 87, 2, 0.276472
390, 2, wb, attraction, a-b-db, 5, 2, 8, 21, 90, 165, 165, 90, 88, 161, 2, 3.25499
390, 2, wb, attraction, a-b-db, 5, 2, 8, 21, 90, 165, 165, 90, 88, 161, 1, 0.298638
390, 2, wb, attraction, a-b-db, 2, 1, 8, 22, 59, 134, 60, 135, 135, 60, 2, 1.65248
390, 2, wb, attraction, a-b-db, 2, 1, 8, 22, 59, 134, 60, 135, 135, 60, 3, 0.297365
390, 2, wb, attraction, a-b-da, 9, 1, 8, 23, 135, 60, 129, 57, 60, 135, 3, 3.82713
390, 2, wb, attraction, a-b-da, 9, 1, 8, 23, 135, 60, 129, 57, 60, 135, 1, 2.19993
390, 2, wb, attraction, a-b-db, 5, 3, 8, 24, 195, 120, 120, 195, 117, 190, 1, 1.60515
390, 2, wb, attraction, a-b-db, 5, 3, 8, 24, 195, 120, 120, 195, 117, 190, 3, 1.0033
390, 2, wb, catch, NA, 999, 999, 8, 25, 102, 93, 125, 130, 182, 133, 1, 0.808986
390, 2, wb, catch, NA, 999, 999, 8, 25, 102, 93, 125, 130, 182, 133, 3, 1.86355
390, 2, wb, filler, NA, 999, 999, 8, 26, 127, 189, 98, 114, 167, 137, 2, 1.6341
390, 2, wb, filler, NA, 999, 999, 8, 26, 127, 189, 98, 114, 167, 137, 1, 1.35152
390, 2, wb, filler, NA, 999, 999, 8, 27, 100, 189, 185, 86, 109, 185, 2, 4.49506
390, 2, wb, filler, NA, 999, 999, 8, 27, 100, 189, 185, 86, 109, 185, 3, 1.00098
390, 2, wb, catch, NA, 999, 999, 8, 28, 145, 110, 90, 105, 189, 126, 2, 0.942504
390, 2, wb, catch, NA, 999, 999, 8, 28, 145, 110, 90, 105, 189, 126, 3, 1.10354
390, 2, wb, filler, NA, 999, 999, 8, 29, 59, 67, 141, 161, 144, 163, 1, 1.00911
390, 2, wb, filler, NA, 999, 999, 8, 29, 59, 67, 141, 161, 144, 163, 3, 3.23148
390, 2, wb, filler, NA, 999, 999, 8, 30, 74, 177, 165, 157, 59, 146, 3, 1.41904
390, 2, wb, filler, NA, 999, 999, 8, 30, 74, 177, 165, 157, 59, 146, 2, 0.409181
390, 2, wb, attraction, a-b-da, 2, 3, 8, 31, 120, 195, 195, 120, 193, 119, 3, 8.40646
390, 2, wb, attraction, a-b-da, 2, 3, 8, 31, 120, 195, 195, 120, 193, 119, 1, 0.730492
390, 2, wb, attraction, a-b-da, 5, 2, 8, 32, 161, 88, 165, 90, 90, 165, 1, 3.08277
390, 2, wb, attraction, a-b-da, 5, 2, 8, 32, 161, 88, 165, 90, 90, 165, 3, 0.629803
390, 2, wb, filler, NA, 999, 999, 8, 33, 80, 109, 128, 76, 75, 69, 3, 0.930168
390, 2, wb, filler, NA, 999, 999, 8, 33, 80, 109, 128, 76, 75, 69, 2, 0.468058
390, 2, wb, filler, NA, 999, 999, 8, 34, 183, 110, 169, 99, 170, 189, 2, 1.55911
390, 2, wb, filler, NA, 999, 999, 8, 34, 183, 110, 169, 99, 170, 189, 3, 0.367181
390, 2, wb, attraction, a-b-da, 9, 3, 8, 35, 186, 114, 120, 195, 195, 120, 1, 2.24635
390, 2, wb, attraction, a-b-da, 9, 3, 8, 35, 186, 114, 120, 195, 195, 120, 2, 0.33896
390, 2, wb, attraction, a-b-db, 5, 1, 8, 36, 60, 135, 58, 132, 135, 60, 1, 1.93952
390, 2, wb, attraction, a-b-db, 5, 1, 8, 36, 60, 135, 58, 132, 135, 60, 3, 0.492113
390, 2, wb, attraction, a-b-db, 9, 2, 8, 37, 86, 157, 90, 165, 165, 90, 3, 1.22991
390, 2, wb, attraction, a-b-db, 9, 2, 8, 37, 86, 157, 90, 165, 165, 90, 2, 1.56361
