sub_n, computer_n, bw_cond, effect, set, distance, diag, block_n, trial_n, h1, w1, h2, w2, h3, w3, choice, rt 
371, 2, bw, practice, NA, 999, 999, 0, 1, 174, 84, 110, 70, 101, 194, 3, 3.62729
371, 2, bw, practice, NA, 999, 999, 0, 1, 174, 84, 110, 70, 101, 194, 2, 2.23125
371, 2, bw, practice, NA, 999, 999, 0, 2, 61, 84, 86, 66, 135, 60, 3, 4.11945
371, 2, bw, practice, NA, 999, 999, 0, 2, 61, 84, 86, 66, 135, 60, 2, 1.65002
371, 2, bw, practice, NA, 999, 999, 0, 3, 105, 145, 134, 148, 121, 128, 2, 6.06524
371, 2, bw, practice, NA, 999, 999, 0, 3, 105, 145, 134, 148, 121, 128, 1, 1.37103
371, 2, bw, attraction, a-b-da, 5, 1, 1, 1, 60, 135, 132, 58, 135, 60, 1, 3.26119
371, 2, bw, attraction, a-b-da, 5, 1, 1, 1, 60, 135, 132, 58, 135, 60, 2, 1.23286
371, 2, bw, filler, NA, 999, 999, 1, 2, 74, 136, 181, 181, 58, 103, 2, 1.74922
371, 2, bw, filler, NA, 999, 999, 1, 2, 74, 136, 181, 181, 58, 103, 3, 1.07781
371, 2, bw, filler, NA, 999, 999, 1, 3, 183, 93, 153, 172, 64, 180, 2, 1.35211
371, 2, bw, filler, NA, 999, 999, 1, 3, 183, 93, 153, 172, 64, 180, 3, 0.993003
371, 2, bw, catch, NA, 999, 999, 1, 4, 123, 132, 130, 185, 98, 97, 2, 1.95064
371, 2, bw, catch, NA, 999, 999, 1, 4, 123, 132, 130, 185, 98, 97, 3, 0.719271
371, 2, bw, filler, NA, 999, 999, 1, 5, 177, 126, 152, 67, 71, 163, 1, 1.01653
371, 2, bw, filler, NA, 999, 999, 1, 5, 177, 126, 152, 67, 71, 163, 2, 1.43073
371, 2, bw, attraction, a-b-db, 2, 1, 1, 6, 135, 60, 60, 135, 59, 134, 3, 6.13887
371, 2, bw, attraction, a-b-db, 2, 1, 1, 6, 135, 60, 60, 135, 59, 134, 1, 0.81824
371, 2, bw, catch, NA, 999, 999, 1, 7, 93, 102, 156, 99, 189, 126, 3, 0.903314
371, 2, bw, catch, NA, 999, 999, 1, 7, 93, 102, 156, 99, 189, 126, 1, 1.1864
371, 2, bw, filler, NA, 999, 999, 1, 8, 101, 144, 150, 179, 193, 149, 3, 1.74463
371, 2, bw, filler, NA, 999, 999, 1, 8, 101, 144, 150, 179, 193, 149, 1, 0.705292
371, 2, bw, filler, NA, 999, 999, 1, 9, 84, 157, 129, 60, 64, 89, 1, 1.09906
371, 2, bw, filler, NA, 999, 999, 1, 9, 84, 157, 129, 60, 64, 89, 3, 0.758035
371, 2, bw, attraction, a-b-da, 14, 1, 1, 10, 135, 60, 60, 135, 125, 56, 2, 2.64502
371, 2, bw, attraction, a-b-da, 14, 1, 1, 10, 135, 60, 60, 135, 125, 56, 3, 0.44945
371, 2, bw, catch, NA, 999, 999, 1, 11, 143, 112, 142, 173, 104, 91, 2, 3.46931
371, 2, bw, catch, NA, 999, 999, 1, 11, 143, 112, 142, 173, 104, 91, 3, 0.856848
371, 2, bw, attraction, a-b-db, 5, 1, 1, 12, 60, 135, 58, 132, 135, 60, 1, 1.04396
371, 2, bw, attraction, a-b-db, 5, 1, 1, 12, 60, 135, 58, 132, 135, 60, 3, 1.71289
371, 2, bw, attraction, a-b-da, 2, 1, 1, 13, 60, 135, 134, 59, 135, 60, 1, 5.91351
371, 2, bw, attraction, a-b-da, 2, 1, 1, 13, 60, 135, 134, 59, 135, 60, 2, 0.674484
371, 2, bw, attraction, a-b-da, 2, 3, 1, 14, 193, 119, 120, 195, 195, 120, 2, 6.88473
371, 2, bw, attraction, a-b-da, 2, 3, 1, 14, 193, 119, 120, 195, 195, 120, 1, 0.358672
371, 2, bw, attraction, a-b-db, 9, 3, 1, 15, 114, 186, 120, 195, 195, 120, 2, 2.78181
371, 2, bw, attraction, a-b-db, 9, 3, 1, 15, 114, 186, 120, 195, 195, 120, 3, 0.468825
371, 2, bw, attraction, a-b-da, 14, 2, 1, 16, 165, 90, 90, 165, 153, 83, 2, 1.768
371, 2, bw, attraction, a-b-da, 14, 2, 1, 16, 165, 90, 90, 165, 153, 83, 3, 0.824124
371, 2, bw, attraction, a-b-da, 14, 3, 1, 17, 120, 195, 195, 120, 181, 111, 1, 1.74842
371, 2, bw, attraction, a-b-da, 14, 3, 1, 17, 120, 195, 195, 120, 181, 111, 3, 0.669093
371, 2, bw, filler, NA, 999, 999, 1, 18, 76, 88, 128, 60, 62, 89, 2, 6.36032
371, 2, bw, filler, NA, 999, 999, 1, 18, 76, 88, 128, 60, 62, 89, 3, 0.646849
371, 2, bw, attraction, a-b-db, 5, 2, 1, 19, 90, 165, 165, 90, 88, 161, 1, 1.73081
371, 2, bw, attraction, a-b-db, 5, 2, 1, 19, 90, 165, 165, 90, 88, 161, 2, 0.276059
371, 2, bw, attraction, a-b-da, 5, 3, 1, 20, 120, 195, 195, 120, 190, 117, 1, 1.37457
371, 2, bw, attraction, a-b-da, 5, 3, 1, 20, 120, 195, 195, 120, 190, 117, 3, 0.342131
371, 2, bw, filler, NA, 999, 999, 1, 21, 166, 57, 85, 158, 146, 59, 2, 1.11002
371, 2, bw, filler, NA, 999, 999, 1, 21, 166, 57, 85, 158, 146, 59, 3, 1.12029
371, 2, bw, attraction, a-b-db, 9, 1, 1, 22, 135, 60, 60, 135, 57, 129, 2, 9.76116
371, 2, bw, attraction, a-b-db, 9, 1, 1, 22, 135, 60, 60, 135, 57, 129, 1, 0.326732
371, 2, bw, filler, NA, 999, 999, 1, 23, 69, 112, 143, 67, 153, 178, 3, 1.23141
371, 2, bw, filler, NA, 999, 999, 1, 23, 69, 112, 143, 67, 153, 178, 1, 0.572839
371, 2, bw, attraction, a-b-da, 5, 2, 1, 24, 161, 88, 165, 90, 90, 165, 3, 3.33938
371, 2, bw, attraction, a-b-da, 5, 2, 1, 24, 161, 88, 165, 90, 90, 165, 1, 2.92359
371, 2, bw, attraction, a-b-db, 14, 3, 1, 25, 195, 120, 111, 181, 120, 195, 1, 2.42729
371, 2, bw, attraction, a-b-db, 14, 3, 1, 25, 195, 120, 111, 181, 120, 195, 2, 1.98447
371, 2, bw, attraction, a-b-db, 5, 3, 1, 26, 117, 190, 120, 195, 195, 120, 2, 2.54254
371, 2, bw, attraction, a-b-db, 5, 3, 1, 26, 117, 190, 120, 195, 195, 120, 1, 1.25511
371, 2, bw, filler, NA, 999, 999, 1, 27, 118, 186, 90, 84, 151, 134, 1, 12.9865
371, 2, bw, filler, NA, 999, 999, 1, 27, 118, 186, 90, 84, 151, 134, 2, 1.27838
371, 2, bw, attraction, a-b-db, 14, 2, 1, 28, 165, 90, 90, 165, 83, 153, 2, 1.95257
371, 2, bw, attraction, a-b-db, 14, 2, 1, 28, 165, 90, 90, 165, 83, 153, 3, 1.13729
371, 2, bw, attraction, a-b-da, 2, 2, 1, 29, 165, 90, 90, 165, 163, 89, 2, 3.05755
371, 2, bw, attraction, a-b-da, 2, 2, 1, 29, 165, 90, 90, 165, 163, 89, 3, 0.57336
371, 2, bw, attraction, a-b-da, 9, 1, 1, 30, 60, 135, 129, 57, 135, 60, 1, 2.73972
371, 2, bw, attraction, a-b-da, 9, 1, 1, 30, 60, 135, 129, 57, 135, 60, 2, 0.428126
371, 2, bw, attraction, a-b-da, 9, 3, 1, 31, 195, 120, 186, 114, 120, 195, 3, 3.42479
371, 2, bw, attraction, a-b-da, 9, 3, 1, 31, 195, 120, 186, 114, 120, 195, 2, 0.621559
371, 2, bw, attraction, a-b-db, 2, 2, 1, 32, 89, 163, 165, 90, 90, 165, 3, 2.57866
371, 2, bw, attraction, a-b-db, 2, 2, 1, 32, 89, 163, 165, 90, 90, 165, 2, 1.52179
371, 2, bw, attraction, a-b-db, 14, 1, 1, 33, 135, 60, 56, 125, 60, 135, 3, 2.29852
371, 2, bw, attraction, a-b-db, 14, 1, 1, 33, 135, 60, 56, 125, 60, 135, 2, 1.38927
371, 2, bw, attraction, a-b-da, 9, 2, 1, 34, 165, 90, 90, 165, 157, 86, 2, 8.28331
371, 2, bw, attraction, a-b-da, 9, 2, 1, 34, 165, 90, 90, 165, 157, 86, 3, 0.684694
371, 2, bw, attraction, a-b-db, 9, 2, 1, 35, 90, 165, 165, 90, 86, 157, 1, 3.40715
371, 2, bw, attraction, a-b-db, 9, 2, 1, 35, 90, 165, 165, 90, 86, 157, 3, 1.58864
371, 2, bw, attraction, a-b-db, 2, 3, 1, 36, 119, 193, 120, 195, 195, 120, 1, 4.9148
371, 2, bw, attraction, a-b-db, 2, 3, 1, 36, 119, 193, 120, 195, 195, 120, 2, 1.13192
371, 2, bw, filler, NA, 999, 999, 1, 37, 140, 127, 105, 135, 169, 104, 1, 3.05214
371, 2, bw, filler, NA, 999, 999, 1, 37, 140, 127, 105, 135, 169, 104, 2, 4.18469
371, 2, bw, attraction, a-b-db, 14, 1, 2, 1, 135, 60, 60, 135, 56, 125, 2, 4.7659
371, 2, bw, attraction, a-b-db, 14, 1, 2, 1, 135, 60, 60, 135, 56, 125, 3, 0.612961
371, 2, bw, filler, NA, 999, 999, 2, 2, 124, 190, 99, 92, 80, 124, 1, 1.73009
371, 2, bw, filler, NA, 999, 999, 2, 2, 124, 190, 99, 92, 80, 124, 2, 0.827486
371, 2, bw, attraction, a-b-db, 2, 2, 2, 3, 89, 163, 90, 165, 165, 90, 1, 5.71998
371, 2, bw, attraction, a-b-db, 2, 2, 2, 3, 89, 163, 90, 165, 165, 90, 3, 0.376773
371, 2, bw, filler, NA, 999, 999, 2, 4, 159, 104, 128, 170, 73, 79, 2, 0.999199
371, 2, bw, filler, NA, 999, 999, 2, 4, 159, 104, 128, 170, 73, 79, 3, 0.334102
371, 2, bw, attraction, a-b-db, 5, 2, 2, 5, 88, 161, 165, 90, 90, 165, 3, 3.01472
371, 2, bw, attraction, a-b-db, 5, 2, 2, 5, 88, 161, 165, 90, 90, 165, 2, 0.316386
371, 2, bw, attraction, a-b-da, 5, 1, 2, 6, 60, 135, 132, 58, 135, 60, 1, 2.6698
371, 2, bw, attraction, a-b-da, 5, 1, 2, 6, 60, 135, 132, 58, 135, 60, 2, 0.697361
371, 2, bw, attraction, a-b-da, 5, 3, 2, 7, 190, 117, 195, 120, 120, 195, 3, 2.17114
371, 2, bw, attraction, a-b-da, 5, 3, 2, 7, 190, 117, 195, 120, 120, 195, 2, 1.23445
371, 2, bw, filler, NA, 999, 999, 2, 8, 164, 88, 140, 111, 63, 118, 2, 1.35061
371, 2, bw, filler, NA, 999, 999, 2, 8, 164, 88, 140, 111, 63, 118, 3, 0.28749
371, 2, bw, filler, NA, 999, 999, 2, 9, 141, 59, 158, 103, 127, 92, 2, 2.97037
371, 2, bw, filler, NA, 999, 999, 2, 9, 141, 59, 158, 103, 127, 92, 1, 0.88168
371, 2, bw, attraction, a-b-db, 2, 3, 2, 10, 195, 120, 119, 193, 120, 195, 1, 4.7721
371, 2, bw, attraction, a-b-db, 2, 3, 2, 10, 195, 120, 119, 193, 120, 195, 3, 0.394505
371, 2, bw, attraction, a-b-db, 9, 2, 2, 11, 165, 90, 90, 165, 86, 157, 1, 2.05635
371, 2, bw, attraction, a-b-db, 9, 2, 2, 11, 165, 90, 90, 165, 86, 157, 3, 1.30831
371, 2, bw, attraction, a-b-da, 2, 3, 2, 12, 195, 120, 193, 119, 120, 195, 3, 3.3972
371, 2, bw, attraction, a-b-da, 2, 3, 2, 12, 195, 120, 193, 119, 120, 195, 2, 1.53141
371, 2, bw, attraction, a-b-db, 9, 1, 2, 13, 60, 135, 135, 60, 57, 129, 1, 6.49961
371, 2, bw, attraction, a-b-db, 9, 1, 2, 13, 60, 135, 135, 60, 57, 129, 3, 0.348821
371, 2, bw, attraction, a-b-db, 2, 1, 2, 14, 60, 135, 59, 134, 135, 60, 1, 4.34067
371, 2, bw, attraction, a-b-db, 2, 1, 2, 14, 60, 135, 59, 134, 135, 60, 3, 0.396595
371, 2, bw, attraction, a-b-db, 14, 3, 2, 15, 111, 181, 195, 120, 120, 195, 3, 4.69855
371, 2, bw, attraction, a-b-db, 14, 3, 2, 15, 111, 181, 195, 120, 120, 195, 1, 0.908415
371, 2, bw, catch, NA, 999, 999, 2, 16, 117, 138, 97, 98, 167, 148, 3, 1.22132
371, 2, bw, catch, NA, 999, 999, 2, 16, 117, 138, 97, 98, 167, 148, 2, 0.586807
371, 2, bw, filler, NA, 999, 999, 2, 17, 155, 57, 95, 151, 73, 57, 2, 1.52948
371, 2, bw, filler, NA, 999, 999, 2, 17, 155, 57, 95, 151, 73, 57, 3, 0.71487
371, 2, bw, attraction, a-b-da, 2, 1, 2, 18, 60, 135, 135, 60, 134, 59, 1, 1.29185
371, 2, bw, attraction, a-b-da, 2, 1, 2, 18, 60, 135, 135, 60, 134, 59, 2, 0.310804
371, 2, bw, attraction, a-b-da, 2, 2, 2, 19, 163, 89, 90, 165, 165, 90, 2, 3.64797
371, 2, bw, attraction, a-b-da, 2, 2, 2, 19, 163, 89, 90, 165, 165, 90, 1, 1.82812
371, 2, bw, filler, NA, 999, 999, 2, 20, 151, 134, 80, 190, 67, 79, 1, 1.32817
371, 2, bw, filler, NA, 999, 999, 2, 20, 151, 134, 80, 190, 67, 79, 3, 0.369701
371, 2, bw, attraction, a-b-db, 5, 3, 2, 21, 195, 120, 120, 195, 117, 190, 2, 1.84893
371, 2, bw, attraction, a-b-db, 5, 3, 2, 21, 195, 120, 120, 195, 117, 190, 1, 0.341596
371, 2, bw, catch, NA, 999, 999, 2, 22, 144, 111, 130, 65, 127, 188, 3, 1.46133
371, 2, bw, catch, NA, 999, 999, 2, 22, 144, 111, 130, 65, 127, 188, 2, 0.545612
371, 2, bw, filler, NA, 999, 999, 2, 23, 73, 90, 99, 57, 194, 169, 3, 0.953317
371, 2, bw, filler, NA, 999, 999, 2, 23, 73, 90, 99, 57, 194, 169, 2, 0.346356
371, 2, bw, attraction, a-b-da, 9, 1, 2, 24, 60, 135, 135, 60, 129, 57, 1, 2.45828
371, 2, bw, attraction, a-b-da, 9, 1, 2, 24, 60, 135, 135, 60, 129, 57, 3, 0.270048
371, 2, bw, attraction, a-b-da, 14, 3, 2, 25, 195, 120, 120, 195, 181, 111, 2, 2.0013
371, 2, bw, attraction, a-b-da, 14, 3, 2, 25, 195, 120, 120, 195, 181, 111, 3, 0.35197
371, 2, bw, filler, NA, 999, 999, 2, 26, 125, 82, 130, 79, 70, 56, 1, 0.91985
371, 2, bw, filler, NA, 999, 999, 2, 26, 125, 82, 130, 79, 70, 56, 3, 0.642184
371, 2, bw, filler, NA, 999, 999, 2, 27, 170, 90, 130, 132, 100, 107, 2, 0.829821
371, 2, bw, filler, NA, 999, 999, 2, 27, 170, 90, 130, 132, 100, 107, 3, 0.427607
371, 2, bw, filler, NA, 999, 999, 2, 28, 194, 68, 151, 161, 166, 89, 2, 1.16022
371, 2, bw, filler, NA, 999, 999, 2, 28, 194, 68, 151, 161, 166, 89, 1, 0.408383
371, 2, bw, attraction, a-b-da, 14, 1, 2, 29, 60, 135, 135, 60, 125, 56, 1, 1.1736
371, 2, bw, attraction, a-b-da, 14, 1, 2, 29, 60, 135, 135, 60, 125, 56, 3, 0.637188
371, 2, bw, attraction, a-b-db, 5, 1, 2, 30, 58, 132, 135, 60, 60, 135, 3, 1.45746
371, 2, bw, attraction, a-b-db, 5, 1, 2, 30, 58, 132, 135, 60, 60, 135, 2, 0.293789
371, 2, bw, attraction, a-b-da, 9, 2, 2, 31, 157, 86, 90, 165, 165, 90, 2, 4.91964
371, 2, bw, attraction, a-b-da, 9, 2, 2, 31, 157, 86, 90, 165, 165, 90, 3, 0.352664
371, 2, bw, catch, NA, 999, 999, 2, 32, 157, 98, 75, 120, 165, 150, 3, 0.840812
371, 2, bw, catch, NA, 999, 999, 2, 32, 157, 98, 75, 120, 165, 150, 2, 0.653475
371, 2, bw, attraction, a-b-db, 14, 2, 2, 33, 90, 165, 165, 90, 83, 153, 1, 1.28121
371, 2, bw, attraction, a-b-db, 14, 2, 2, 33, 90, 165, 165, 90, 83, 153, 3, 0.276776
371, 2, bw, attraction, a-b-da, 14, 2, 2, 34, 165, 90, 153, 83, 90, 165, 3, 4.26341
371, 2, bw, attraction, a-b-da, 14, 2, 2, 34, 165, 90, 153, 83, 90, 165, 2, 0.594604
371, 2, bw, attraction, a-b-da, 5, 2, 2, 35, 161, 88, 165, 90, 90, 165, 3, 1.00048
371, 2, bw, attraction, a-b-da, 5, 2, 2, 35, 161, 88, 165, 90, 90, 165, 2, 0.375427
371, 2, bw, attraction, a-b-da, 9, 3, 2, 36, 120, 195, 195, 120, 186, 114, 1, 1.94189
371, 2, bw, attraction, a-b-da, 9, 3, 2, 36, 120, 195, 195, 120, 186, 114, 2, 0.646563
371, 2, bw, attraction, a-b-db, 9, 3, 2, 37, 114, 186, 195, 120, 120, 195, 3, 1.34629
371, 2, bw, attraction, a-b-db, 9, 3, 2, 37, 114, 186, 195, 120, 120, 195, 1, 1.01918
371, 2, bw, filler, NA, 999, 999, 3, 1, 178, 149, 104, 144, 63, 57, 1, 1.08817
371, 2, bw, filler, NA, 999, 999, 3, 1, 178, 149, 104, 144, 63, 57, 3, 0.339092
371, 2, bw, attraction, a-b-db, 5, 3, 3, 2, 117, 190, 195, 120, 120, 195, 3, 0.939656
371, 2, bw, attraction, a-b-db, 5, 3, 3, 2, 117, 190, 195, 120, 120, 195, 1, 0.300572
371, 2, bw, filler, NA, 999, 999, 3, 3, 98, 136, 168, 135, 184, 163, 3, 1.30258
371, 2, bw, filler, NA, 999, 999, 3, 3, 98, 136, 168, 135, 184, 163, 1, 0.305362
371, 2, bw, attraction, a-b-db, 2, 2, 3, 4, 89, 163, 165, 90, 90, 165, 3, 0.835216
371, 2, bw, attraction, a-b-db, 2, 2, 3, 4, 89, 163, 165, 90, 90, 165, 2, 0.456967
371, 2, bw, filler, NA, 999, 999, 3, 5, 115, 83, 125, 109, 95, 97, 2, 1.11607
371, 2, bw, filler, NA, 999, 999, 3, 5, 115, 83, 125, 109, 95, 97, 3, 0.526384
371, 2, bw, filler, NA, 999, 999, 3, 6, 76, 195, 88, 149, 149, 137, 3, 2.01489
371, 2, bw, filler, NA, 999, 999, 3, 6, 76, 195, 88, 149, 149, 137, 2, 1.14896
371, 2, bw, attraction, a-b-da, 5, 3, 3, 7, 190, 117, 195, 120, 120, 195, 2, 2.2444
371, 2, bw, attraction, a-b-da, 5, 3, 3, 7, 190, 117, 195, 120, 120, 195, 1, 0.745141
371, 2, bw, filler, NA, 999, 999, 3, 8, 187, 67, 151, 161, 88, 130, 2, 0.992741
371, 2, bw, filler, NA, 999, 999, 3, 8, 187, 67, 151, 161, 88, 130, 3, 1.06378
371, 2, bw, attraction, a-b-db, 14, 1, 3, 9, 60, 135, 135, 60, 56, 125, 1, 1.08269
371, 2, bw, attraction, a-b-db, 14, 1, 3, 9, 60, 135, 135, 60, 56, 125, 3, 0.686335
371, 2, bw, attraction, a-b-db, 14, 2, 3, 10, 90, 165, 83, 153, 165, 90, 1, 1.57665
371, 2, bw, attraction, a-b-db, 14, 2, 3, 10, 90, 165, 83, 153, 165, 90, 3, 0.568111
371, 2, bw, attraction, a-b-da, 14, 3, 3, 11, 120, 195, 195, 120, 181, 111, 1, 4.5113
371, 2, bw, attraction, a-b-da, 14, 3, 3, 11, 120, 195, 195, 120, 181, 111, 3, 0.58457
371, 2, bw, attraction, a-b-da, 2, 2, 3, 12, 90, 165, 165, 90, 163, 89, 1, 1.19087
371, 2, bw, attraction, a-b-da, 2, 2, 3, 12, 90, 165, 165, 90, 163, 89, 2, 0.669908
371, 2, bw, attraction, a-b-da, 14, 2, 3, 13, 153, 83, 90, 165, 165, 90, 2, 1.52897
371, 2, bw, attraction, a-b-da, 14, 2, 3, 13, 153, 83, 90, 165, 165, 90, 1, 0.346403
371, 2, bw, attraction, a-b-da, 5, 2, 3, 14, 161, 88, 90, 165, 165, 90, 2, 2.24231
371, 2, bw, attraction, a-b-da, 5, 2, 3, 14, 161, 88, 90, 165, 165, 90, 1, 0.474669
371, 2, bw, attraction, a-b-da, 9, 3, 3, 15, 120, 195, 186, 114, 195, 120, 3, 5.68127
371, 2, bw, attraction, a-b-da, 9, 3, 3, 15, 120, 195, 186, 114, 195, 120, 2, 0.707522
371, 2, bw, attraction, a-b-da, 14, 1, 3, 16, 60, 135, 135, 60, 125, 56, 1, 3.89257
371, 2, bw, attraction, a-b-da, 14, 1, 3, 16, 60, 135, 135, 60, 125, 56, 3, 1.23064
371, 2, bw, filler, NA, 999, 999, 3, 17, 66, 57, 141, 82, 93, 59, 2, 1.37888
371, 2, bw, filler, NA, 999, 999, 3, 17, 66, 57, 141, 82, 93, 59, 1, 0.498394
371, 2, bw, attraction, a-b-db, 2, 3, 3, 18, 195, 120, 120, 195, 119, 193, 2, 7.34022
371, 2, bw, attraction, a-b-db, 2, 3, 3, 18, 195, 120, 120, 195, 119, 193, 3, 0.523276
371, 2, bw, attraction, a-b-db, 9, 3, 3, 19, 195, 120, 120, 195, 114, 186, 2, 2.01173
371, 2, bw, attraction, a-b-db, 9, 3, 3, 19, 195, 120, 120, 195, 114, 186, 1, 0.47361
371, 2, bw, filler, NA, 999, 999, 3, 20, 85, 144, 137, 160, 91, 183, 2, 1.21213
371, 2, bw, filler, NA, 999, 999, 3, 20, 85, 144, 137, 160, 91, 183, 1, 0.434397
371, 2, bw, attraction, a-b-da, 9, 2, 3, 21, 165, 90, 157, 86, 90, 165, 3, 3.41501
371, 2, bw, attraction, a-b-da, 9, 2, 3, 21, 165, 90, 157, 86, 90, 165, 2, 0.709433
371, 2, bw, catch, NA, 999, 999, 3, 22, 131, 64, 154, 161, 114, 141, 2, 1.93352
371, 2, bw, catch, NA, 999, 999, 3, 22, 131, 64, 154, 161, 114, 141, 1, 0.446812
371, 2, bw, filler, NA, 999, 999, 3, 23, 58, 99, 133, 122, 175, 94, 2, 1.8267
371, 2, bw, filler, NA, 999, 999, 3, 23, 58, 99, 133, 122, 175, 94, 1, 0.352094
371, 2, bw, catch, NA, 999, 999, 3, 24, 146, 169, 113, 82, 115, 140, 1, 0.927965
371, 2, bw, catch, NA, 999, 999, 3, 24, 146, 169, 113, 82, 115, 140, 2, 0.441602
371, 2, bw, attraction, a-b-db, 2, 1, 3, 25, 59, 134, 60, 135, 135, 60, 1, 5.49338
371, 2, bw, attraction, a-b-db, 2, 1, 3, 25, 59, 134, 60, 135, 135, 60, 3, 0.454954
371, 2, bw, attraction, a-b-db, 9, 1, 3, 26, 135, 60, 60, 135, 57, 129, 2, 2.05874
371, 2, bw, attraction, a-b-db, 9, 1, 3, 26, 135, 60, 60, 135, 57, 129, 3, 1.03089
371, 2, bw, attraction, a-b-db, 5, 1, 3, 27, 135, 60, 58, 132, 60, 135, 3, 1.97905
371, 2, bw, attraction, a-b-db, 5, 1, 3, 27, 135, 60, 58, 132, 60, 135, 1, 0.498397
371, 2, bw, attraction, a-b-db, 5, 2, 3, 28, 90, 165, 165, 90, 88, 161, 1, 1.30819
371, 2, bw, attraction, a-b-db, 5, 2, 3, 28, 90, 165, 165, 90, 88, 161, 3, 1.13449
371, 2, bw, filler, NA, 999, 999, 3, 29, 174, 126, 64, 187, 127, 175, 1, 2.39068
371, 2, bw, filler, NA, 999, 999, 3, 29, 174, 126, 64, 187, 127, 175, 2, 0.389286
371, 2, bw, filler, NA, 999, 999, 3, 30, 121, 105, 163, 162, 138, 70, 2, 1.19511
371, 2, bw, filler, NA, 999, 999, 3, 30, 121, 105, 163, 162, 138, 70, 3, 0.441973
371, 2, bw, attraction, a-b-db, 9, 2, 3, 31, 90, 165, 86, 157, 165, 90, 1, 2.80581
371, 2, bw, attraction, a-b-db, 9, 2, 3, 31, 90, 165, 86, 157, 165, 90, 3, 0.64365
371, 2, bw, attraction, a-b-db, 14, 3, 3, 32, 111, 181, 120, 195, 195, 120, 3, 4.49529
371, 2, bw, attraction, a-b-db, 14, 3, 3, 32, 111, 181, 120, 195, 195, 120, 1, 0.3292
371, 2, bw, attraction, a-b-da, 5, 1, 3, 33, 132, 58, 60, 135, 135, 60, 2, 1.10568
371, 2, bw, attraction, a-b-da, 5, 1, 3, 33, 132, 58, 60, 135, 135, 60, 3, 1.00408
371, 2, bw, attraction, a-b-da, 2, 1, 3, 34, 60, 135, 134, 59, 135, 60, 1, 0.969595
371, 2, bw, attraction, a-b-da, 2, 1, 3, 34, 60, 135, 134, 59, 135, 60, 3, 0.490012
371, 2, bw, attraction, a-b-da, 2, 3, 3, 35, 120, 195, 195, 120, 193, 119, 2, 1.25973
371, 2, bw, attraction, a-b-da, 2, 3, 3, 35, 120, 195, 195, 120, 193, 119, 1, 0.655997
371, 2, bw, catch, NA, 999, 999, 3, 36, 113, 82, 103, 152, 125, 190, 3, 1.16311
371, 2, bw, catch, NA, 999, 999, 3, 36, 113, 82, 103, 152, 125, 190, 1, 1.05131
371, 2, bw, attraction, a-b-da, 9, 1, 3, 37, 60, 135, 135, 60, 129, 57, 1, 1.10291
371, 2, bw, attraction, a-b-da, 9, 1, 3, 37, 60, 135, 135, 60, 129, 57, 3, 0.801921
371, 2, bw, attraction, a-b-db, 14, 3, 4, 1, 120, 195, 195, 120, 111, 181, 1, 0.991549
371, 2, bw, attraction, a-b-db, 14, 3, 4, 1, 120, 195, 195, 120, 111, 181, 3, 0.574565
371, 2, bw, attraction, a-b-db, 9, 1, 4, 2, 60, 135, 135, 60, 57, 129, 1, 2.14099
371, 2, bw, attraction, a-b-db, 9, 1, 4, 2, 60, 135, 135, 60, 57, 129, 2, 0.437701
371, 2, bw, attraction, a-b-da, 14, 2, 4, 3, 153, 83, 165, 90, 90, 165, 3, 3.23417
371, 2, bw, attraction, a-b-da, 14, 2, 4, 3, 153, 83, 165, 90, 90, 165, 1, 0.335112
371, 2, bw, filler, NA, 999, 999, 4, 4, 165, 164, 101, 130, 180, 88, 1, 0.927583
371, 2, bw, filler, NA, 999, 999, 4, 4, 165, 164, 101, 130, 180, 88, 3, 0.313317
371, 2, bw, attraction, a-b-db, 5, 2, 4, 5, 165, 90, 88, 161, 90, 165, 3, 5.05051
371, 2, bw, attraction, a-b-db, 5, 2, 4, 5, 165, 90, 88, 161, 90, 165, 2, 0.630145
371, 2, bw, attraction, a-b-da, 2, 1, 4, 6, 60, 135, 135, 60, 134, 59, 1, 1.43455
371, 2, bw, attraction, a-b-da, 2, 1, 4, 6, 60, 135, 135, 60, 134, 59, 3, 0.672115
371, 2, bw, filler, NA, 999, 999, 4, 7, 124, 125, 134, 86, 173, 91, 1, 3.21932
371, 2, bw, filler, NA, 999, 999, 4, 7, 124, 125, 134, 86, 173, 91, 2, 1.44885
371, 2, bw, attraction, a-b-db, 2, 1, 4, 8, 60, 135, 59, 134, 135, 60, 1, 5.48429
371, 2, bw, attraction, a-b-db, 2, 1, 4, 8, 60, 135, 59, 134, 135, 60, 3, 0.590549
371, 2, bw, catch, NA, 999, 999, 4, 9, 138, 177, 141, 114, 88, 107, 1, 0.716311
371, 2, bw, catch, NA, 999, 999, 4, 9, 138, 177, 141, 114, 88, 107, 3, 0.974805
371, 2, bw, catch, NA, 999, 999, 4, 10, 81, 114, 154, 101, 161, 154, 3, 0.701085
371, 2, bw, catch, NA, 999, 999, 4, 10, 81, 114, 154, 101, 161, 154, 1, 0.288214
371, 2, bw, attraction, a-b-da, 14, 3, 4, 11, 120, 195, 195, 120, 181, 111, 1, 2.08266
371, 2, bw, attraction, a-b-da, 14, 3, 4, 11, 120, 195, 195, 120, 181, 111, 3, 0.558041
371, 2, bw, attraction, a-b-db, 9, 2, 4, 12, 165, 90, 86, 157, 90, 165, 3, 1.70913
371, 2, bw, attraction, a-b-db, 9, 2, 4, 12, 165, 90, 86, 157, 90, 165, 2, 0.44729
371, 2, bw, attraction, a-b-db, 14, 2, 4, 13, 83, 153, 90, 165, 165, 90, 2, 2.28304
371, 2, bw, attraction, a-b-db, 14, 2, 4, 13, 83, 153, 90, 165, 165, 90, 1, 0.302265
371, 2, bw, attraction, a-b-da, 9, 3, 4, 14, 120, 195, 186, 114, 195, 120, 1, 1.52817
371, 2, bw, attraction, a-b-da, 9, 3, 4, 14, 120, 195, 186, 114, 195, 120, 2, 1.8417
371, 2, bw, attraction, a-b-da, 9, 1, 4, 15, 60, 135, 129, 57, 135, 60, 1, 2.18093
371, 2, bw, attraction, a-b-da, 9, 1, 4, 15, 60, 135, 129, 57, 135, 60, 2, 1.08421
371, 2, bw, filler, NA, 999, 999, 4, 16, 122, 86, 95, 95, 57, 107, 1, 3.49451
371, 2, bw, filler, NA, 999, 999, 4, 16, 122, 86, 95, 95, 57, 107, 3, 0.464719
371, 2, bw, attraction, a-b-db, 9, 3, 4, 17, 195, 120, 120, 195, 114, 186, 2, 6.67593
371, 2, bw, attraction, a-b-db, 9, 3, 4, 17, 195, 120, 120, 195, 114, 186, 3, 0.373737
371, 2, bw, attraction, a-b-db, 2, 2, 4, 18, 89, 163, 90, 165, 165, 90, 1, 4.24421
371, 2, bw, attraction, a-b-db, 2, 2, 4, 18, 89, 163, 90, 165, 165, 90, 3, 0.632252
371, 2, bw, attraction, a-b-da, 5, 1, 4, 19, 135, 60, 60, 135, 132, 58, 2, 1.14863
371, 2, bw, attraction, a-b-da, 5, 1, 4, 19, 135, 60, 60, 135, 132, 58, 3, 0.357605
371, 2, bw, attraction, a-b-da, 9, 2, 4, 20, 157, 86, 90, 165, 165, 90, 2, 1.45277
371, 2, bw, attraction, a-b-da, 9, 2, 4, 20, 157, 86, 90, 165, 165, 90, 1, 0.409652
371, 2, bw, filler, NA, 999, 999, 4, 21, 80, 87, 114, 58, 134, 89, 3, 1.31087
371, 2, bw, filler, NA, 999, 999, 4, 21, 80, 87, 114, 58, 134, 89, 2, 0.569055
371, 2, bw, filler, NA, 999, 999, 4, 22, 176, 150, 97, 156, 83, 110, 1, 1.20818
371, 2, bw, filler, NA, 999, 999, 4, 22, 176, 150, 97, 156, 83, 110, 3, 0.262319
371, 2, bw, attraction, a-b-da, 5, 2, 4, 23, 161, 88, 90, 165, 165, 90, 2, 1.75354
371, 2, bw, attraction, a-b-da, 5, 2, 4, 23, 161, 88, 90, 165, 165, 90, 3, 0.618268
371, 2, bw, catch, NA, 999, 999, 4, 24, 188, 127, 136, 119, 124, 71, 1, 2.35951
371, 2, bw, catch, NA, 999, 999, 4, 24, 188, 127, 136, 119, 124, 71, 3, 0.423274
371, 2, bw, attraction, a-b-da, 5, 3, 4, 25, 195, 120, 190, 117, 120, 195, 3, 2.33177
371, 2, bw, attraction, a-b-da, 5, 3, 4, 25, 195, 120, 190, 117, 120, 195, 2, 0.412999
371, 2, bw, attraction, a-b-da, 2, 2, 4, 26, 90, 165, 163, 89, 165, 90, 1, 1.40225
371, 2, bw, attraction, a-b-da, 2, 2, 4, 26, 90, 165, 163, 89, 165, 90, 3, 0.95318
371, 2, bw, filler, NA, 999, 999, 4, 27, 80, 110, 121, 166, 97, 169, 2, 1.18473
371, 2, bw, filler, NA, 999, 999, 4, 27, 80, 110, 121, 166, 97, 169, 1, 0.408259
371, 2, bw, attraction, a-b-da, 14, 1, 4, 28, 60, 135, 125, 56, 135, 60, 1, 2.5974
371, 2, bw, attraction, a-b-da, 14, 1, 4, 28, 60, 135, 125, 56, 135, 60, 2, 0.291908
371, 2, bw, filler, NA, 999, 999, 4, 29, 145, 182, 187, 142, 91, 174, 1, 3.18975
371, 2, bw, filler, NA, 999, 999, 4, 29, 145, 182, 187, 142, 91, 174, 3, 0.444032
371, 2, bw, attraction, a-b-db, 5, 1, 4, 30, 60, 135, 135, 60, 58, 132, 3, 6.36785
371, 2, bw, attraction, a-b-db, 5, 1, 4, 30, 60, 135, 135, 60, 58, 132, 2, 0.326559
371, 2, bw, filler, NA, 999, 999, 4, 31, 150, 125, 70, 186, 99, 136, 1, 1.06304
371, 2, bw, filler, NA, 999, 999, 4, 31, 150, 125, 70, 186, 99, 136, 2, 0.587335
371, 2, bw, filler, NA, 999, 999, 4, 32, 188, 192, 109, 105, 163, 119, 1, 1.5137
371, 2, bw, filler, NA, 999, 999, 4, 32, 188, 192, 109, 105, 163, 119, 2, 0.316008
371, 2, bw, attraction, a-b-da, 2, 3, 4, 33, 193, 119, 195, 120, 120, 195, 3, 1.58925
371, 2, bw, attraction, a-b-da, 2, 3, 4, 33, 193, 119, 195, 120, 120, 195, 1, 0.323912
371, 2, bw, attraction, a-b-db, 5, 3, 4, 34, 120, 195, 117, 190, 195, 120, 1, 8.31641
371, 2, bw, attraction, a-b-db, 5, 3, 4, 34, 120, 195, 117, 190, 195, 120, 3, 0.628505
371, 2, bw, filler, NA, 999, 999, 4, 35, 137, 179, 166, 99, 175, 182, 3, 1.26493
371, 2, bw, filler, NA, 999, 999, 4, 35, 137, 179, 166, 99, 175, 182, 2, 0.325115
371, 2, bw, attraction, a-b-db, 2, 3, 4, 36, 195, 120, 120, 195, 119, 193, 2, 1.30171
371, 2, bw, attraction, a-b-db, 2, 3, 4, 36, 195, 120, 120, 195, 119, 193, 1, 0.360487
371, 2, bw, attraction, a-b-db, 14, 1, 4, 37, 60, 135, 56, 125, 135, 60, 1, 1.36772
371, 2, bw, attraction, a-b-db, 14, 1, 4, 37, 60, 135, 56, 125, 135, 60, 2, 1.04796
371, 2, bw, attraction, a-b-da, 9, 2, 5, 1, 165, 90, 90, 165, 157, 86, 2, 2.37014
371, 2, bw, attraction, a-b-da, 9, 2, 5, 1, 165, 90, 90, 165, 157, 86, 3, 0.274122
371, 2, bw, attraction, a-b-db, 2, 3, 5, 2, 195, 120, 120, 195, 119, 193, 2, 2.12463
371, 2, bw, attraction, a-b-db, 2, 3, 5, 2, 195, 120, 120, 195, 119, 193, 3, 0.389859
371, 2, bw, catch, NA, 999, 999, 5, 3, 108, 147, 137, 178, 113, 82, 2, 1.16365
371, 2, bw, catch, NA, 999, 999, 5, 3, 108, 147, 137, 178, 113, 82, 3, 0.28394
371, 2, bw, attraction, a-b-db, 5, 2, 5, 4, 90, 165, 88, 161, 165, 90, 1, 1.9105
371, 2, bw, attraction, a-b-db, 5, 2, 5, 4, 90, 165, 88, 161, 165, 90, 3, 0.280446
371, 2, bw, attraction, a-b-db, 14, 1, 5, 5, 135, 60, 60, 135, 56, 125, 1, 1.65096
371, 2, bw, attraction, a-b-db, 14, 1, 5, 5, 135, 60, 60, 135, 56, 125, 2, 0.631913
371, 2, bw, filler, NA, 999, 999, 5, 6, 181, 155, 116, 134, 91, 64, 1, 1.09222
371, 2, bw, filler, NA, 999, 999, 5, 6, 181, 155, 116, 134, 91, 64, 3, 0.487257
371, 2, bw, attraction, a-b-db, 5, 3, 5, 7, 120, 195, 195, 120, 117, 190, 1, 1.20968
371, 2, bw, attraction, a-b-db, 5, 3, 5, 7, 120, 195, 195, 120, 117, 190, 3, 0.316673
371, 2, bw, filler, NA, 999, 999, 5, 8, 169, 60, 180, 165, 177, 115, 2, 0.849149
371, 2, bw, filler, NA, 999, 999, 5, 8, 169, 60, 180, 165, 177, 115, 1, 0.390115
371, 2, bw, attraction, a-b-da, 2, 2, 5, 9, 90, 165, 165, 90, 163, 89, 3, 1.22008
371, 2, bw, attraction, a-b-da, 2, 2, 5, 9, 90, 165, 165, 90, 163, 89, 2, 0.415408
371, 2, bw, attraction, a-b-da, 14, 1, 5, 10, 125, 56, 60, 135, 135, 60, 2, 3.34363
371, 2, bw, attraction, a-b-da, 14, 1, 5, 10, 125, 56, 60, 135, 135, 60, 1, 0.655566
371, 2, bw, attraction, a-b-db, 14, 2, 5, 11, 83, 153, 90, 165, 165, 90, 2, 4.97943
371, 2, bw, attraction, a-b-db, 14, 2, 5, 11, 83, 153, 90, 165, 165, 90, 3, 0.297767
371, 2, bw, catch, NA, 999, 999, 5, 12, 108, 147, 153, 162, 93, 102, 2, 0.971593
371, 2, bw, catch, NA, 999, 999, 5, 12, 108, 147, 153, 162, 93, 102, 3, 0.595333
371, 2, bw, attraction, a-b-db, 9, 2, 5, 13, 165, 90, 86, 157, 90, 165, 3, 2.24911
371, 2, bw, attraction, a-b-db, 9, 2, 5, 13, 165, 90, 86, 157, 90, 165, 1, 0.365655
371, 2, bw, attraction, a-b-da, 9, 3, 5, 14, 186, 114, 120, 195, 195, 120, 2, 1.91679
371, 2, bw, attraction, a-b-da, 9, 3, 5, 14, 186, 114, 120, 195, 195, 120, 1, 0.502825
371, 2, bw, filler, NA, 999, 999, 5, 15, 75, 192, 143, 81, 117, 190, 3, 1.48865
371, 2, bw, filler, NA, 999, 999, 5, 15, 75, 192, 143, 81, 117, 190, 2, 0.675606
371, 2, bw, attraction, a-b-da, 14, 2, 5, 16, 165, 90, 153, 83, 90, 165, 1, 8.62194
371, 2, bw, attraction, a-b-da, 14, 2, 5, 16, 165, 90, 153, 83, 90, 165, 2, 0.553915
371, 2, bw, attraction, a-b-db, 14, 3, 5, 17, 120, 195, 195, 120, 111, 181, 1, 3.49766
371, 2, bw, attraction, a-b-db, 14, 3, 5, 17, 120, 195, 195, 120, 111, 181, 3, 0.715864
371, 2, bw, filler, NA, 999, 999, 5, 18, 79, 94, 156, 154, 155, 142, 2, 1.12489
371, 2, bw, filler, NA, 999, 999, 5, 18, 79, 94, 156, 154, 155, 142, 1, 0.278486
371, 2, bw, attraction, a-b-db, 2, 1, 5, 19, 59, 134, 135, 60, 60, 135, 3, 2.25715
371, 2, bw, attraction, a-b-db, 2, 1, 5, 19, 59, 134, 135, 60, 60, 135, 2, 0.572973
371, 2, bw, attraction, a-b-da, 14, 3, 5, 20, 120, 195, 195, 120, 181, 111, 1, 1.36343
371, 2, bw, attraction, a-b-da, 14, 3, 5, 20, 120, 195, 195, 120, 181, 111, 3, 0.651611
371, 2, bw, attraction, a-b-db, 9, 3, 5, 21, 120, 195, 114, 186, 195, 120, 1, 1.63935
371, 2, bw, attraction, a-b-db, 9, 3, 5, 21, 120, 195, 114, 186, 195, 120, 2, 0.380107
371, 2, bw, attraction, a-b-da, 9, 1, 5, 22, 129, 57, 135, 60, 60, 135, 3, 2.39472
371, 2, bw, attraction, a-b-da, 9, 1, 5, 22, 129, 57, 135, 60, 60, 135, 1, 1.12934
371, 2, bw, catch, NA, 999, 999, 5, 23, 148, 107, 70, 125, 183, 132, 3, 1.5055
371, 2, bw, catch, NA, 999, 999, 5, 23, 148, 107, 70, 125, 183, 132, 2, 0.307664
371, 2, bw, attraction, a-b-db, 2, 2, 5, 24, 90, 165, 89, 163, 165, 90, 2, 1.50875
371, 2, bw, attraction, a-b-db, 2, 2, 5, 24, 90, 165, 89, 163, 165, 90, 3, 0.422926
371, 2, bw, attraction, a-b-db, 9, 1, 5, 25, 57, 129, 60, 135, 135, 60, 2, 1.69935
371, 2, bw, attraction, a-b-db, 9, 1, 5, 25, 57, 129, 60, 135, 135, 60, 1, 0.406122
371, 2, bw, filler, NA, 999, 999, 5, 26, 74, 171, 89, 156, 80, 170, 3, 6.47538
371, 2, bw, filler, NA, 999, 999, 5, 26, 74, 171, 89, 156, 80, 170, 2, 0.709256
371, 2, bw, attraction, a-b-da, 2, 3, 5, 27, 195, 120, 193, 119, 120, 195, 3, 1.90231
371, 2, bw, attraction, a-b-da, 2, 3, 5, 27, 195, 120, 193, 119, 120, 195, 2, 0.849002
371, 2, bw, filler, NA, 999, 999, 5, 28, 178, 191, 145, 97, 106, 80, 1, 0.684756
371, 2, bw, filler, NA, 999, 999, 5, 28, 178, 191, 145, 97, 106, 80, 3, 0.348316
371, 2, bw, filler, NA, 999, 999, 5, 29, 149, 145, 91, 184, 126, 161, 1, 1.82434
371, 2, bw, filler, NA, 999, 999, 5, 29, 149, 145, 91, 184, 126, 161, 2, 1.04573
371, 2, bw, filler, NA, 999, 999, 5, 30, 184, 83, 127, 182, 146, 177, 3, 2.18542
371, 2, bw, filler, NA, 999, 999, 5, 30, 184, 83, 127, 182, 146, 177, 1, 0.528601
371, 2, bw, filler, NA, 999, 999, 5, 31, 59, 168, 140, 107, 179, 64, 2, 1.47313
371, 2, bw, filler, NA, 999, 999, 5, 31, 59, 168, 140, 107, 179, 64, 3, 0.324626
371, 2, bw, attraction, a-b-da, 5, 2, 5, 32, 165, 90, 161, 88, 90, 165, 3, 3.30122
371, 2, bw, attraction, a-b-da, 5, 2, 5, 32, 165, 90, 161, 88, 90, 165, 2, 0.319346
371, 2, bw, attraction, a-b-da, 5, 1, 5, 33, 132, 58, 135, 60, 60, 135, 3, 1.32861
371, 2, bw, attraction, a-b-da, 5, 1, 5, 33, 132, 58, 135, 60, 60, 135, 1, 0.682142
371, 2, bw, attraction, a-b-db, 5, 1, 5, 34, 58, 132, 135, 60, 60, 135, 3, 1.97253
371, 2, bw, attraction, a-b-db, 5, 1, 5, 34, 58, 132, 135, 60, 60, 135, 1, 0.283737
371, 2, bw, attraction, a-b-da, 2, 1, 5, 35, 135, 60, 60, 135, 134, 59, 2, 3.59039
371, 2, bw, attraction, a-b-da, 2, 1, 5, 35, 135, 60, 60, 135, 134, 59, 3, 0.396695
371, 2, bw, attraction, a-b-da, 5, 3, 5, 36, 195, 120, 120, 195, 190, 117, 2, 1.52246
371, 2, bw, attraction, a-b-da, 5, 3, 5, 36, 195, 120, 120, 195, 190, 117, 3, 0.715851
371, 2, bw, filler, NA, 999, 999, 5, 37, 154, 137, 184, 149, 75, 99, 2, 1.82096
371, 2, bw, filler, NA, 999, 999, 5, 37, 154, 137, 184, 149, 75, 99, 3, 0.466455
371, 2, bw, attraction, a-b-da, 9, 3, 6, 1, 186, 114, 120, 195, 195, 120, 2, 2.07747
371, 2, bw, attraction, a-b-da, 9, 3, 6, 1, 186, 114, 120, 195, 195, 120, 3, 0.424723
371, 2, bw, attraction, a-b-db, 2, 1, 6, 2, 60, 135, 135, 60, 59, 134, 3, 3.50127
371, 2, bw, attraction, a-b-db, 2, 1, 6, 2, 60, 135, 135, 60, 59, 134, 2, 0.439384
371, 2, bw, catch, NA, 999, 999, 6, 3, 119, 76, 95, 160, 164, 151, 3, 0.80399
371, 2, bw, catch, NA, 999, 999, 6, 3, 119, 76, 95, 160, 164, 151, 1, 0.578298
371, 2, bw, attraction, a-b-da, 9, 2, 6, 4, 165, 90, 157, 86, 90, 165, 3, 1.40073
371, 2, bw, attraction, a-b-da, 9, 2, 6, 4, 165, 90, 157, 86, 90, 165, 2, 0.327628
371, 2, bw, attraction, a-b-da, 5, 1, 6, 5, 60, 135, 132, 58, 135, 60, 1, 2.63212
371, 2, bw, attraction, a-b-da, 5, 1, 6, 5, 60, 135, 132, 58, 135, 60, 2, 0.29327
371, 2, bw, filler, NA, 999, 999, 6, 6, 91, 136, 78, 94, 83, 125, 1, 1.58315
371, 2, bw, filler, NA, 999, 999, 6, 6, 91, 136, 78, 94, 83, 125, 2, 0.318653
371, 2, bw, attraction, a-b-da, 9, 1, 6, 7, 129, 57, 60, 135, 135, 60, 3, 3.01581
371, 2, bw, attraction, a-b-da, 9, 1, 6, 7, 129, 57, 60, 135, 135, 60, 1, 0.309464
371, 2, bw, attraction, a-b-db, 14, 1, 6, 8, 135, 60, 56, 125, 60, 135, 3, 3.21477
371, 2, bw, attraction, a-b-db, 14, 1, 6, 8, 135, 60, 56, 125, 60, 135, 2, 0.76429
371, 2, bw, attraction, a-b-db, 9, 2, 6, 9, 90, 165, 86, 157, 165, 90, 1, 5.65135
371, 2, bw, attraction, a-b-db, 9, 2, 6, 9, 90, 165, 86, 157, 165, 90, 2, 0.27089
371, 2, bw, filler, NA, 999, 999, 6, 10, 194, 126, 165, 193, 137, 78, 2, 1.314
371, 2, bw, filler, NA, 999, 999, 6, 10, 194, 126, 165, 193, 137, 78, 3, 0.556398
371, 2, bw, attraction, a-b-db, 2, 3, 6, 11, 195, 120, 119, 193, 120, 195, 2, 3.90742
371, 2, bw, attraction, a-b-db, 2, 3, 6, 11, 195, 120, 119, 193, 120, 195, 3, 1.15695
371, 2, bw, attraction, a-b-db, 5, 1, 6, 12, 60, 135, 58, 132, 135, 60, 3, 3.90767
371, 2, bw, attraction, a-b-db, 5, 1, 6, 12, 60, 135, 58, 132, 135, 60, 2, 0.261175
371, 2, bw, filler, NA, 999, 999, 6, 13, 146, 112, 122, 124, 69, 151, 1, 1.70438
371, 2, bw, filler, NA, 999, 999, 6, 13, 146, 112, 122, 124, 69, 151, 3, 0.322468
371, 2, bw, attraction, a-b-db, 14, 3, 6, 14, 111, 181, 120, 195, 195, 120, 2, 4.19553
371, 2, bw, attraction, a-b-db, 14, 3, 6, 14, 111, 181, 120, 195, 195, 120, 3, 1.16958
371, 2, bw, catch, NA, 999, 999, 6, 15, 153, 102, 186, 129, 97, 98, 2, 1.34453
371, 2, bw, catch, NA, 999, 999, 6, 15, 153, 102, 186, 129, 97, 98, 3, 0.513339
371, 2, bw, filler, NA, 999, 999, 6, 16, 97, 102, 87, 154, 136, 164, 3, 0.786466
371, 2, bw, filler, NA, 999, 999, 6, 16, 97, 102, 87, 154, 136, 164, 1, 0.570217
371, 2, bw, attraction, a-b-db, 5, 2, 6, 17, 90, 165, 88, 161, 165, 90, 1, 5.35336
371, 2, bw, attraction, a-b-db, 5, 2, 6, 17, 90, 165, 88, 161, 165, 90, 2, 0.224878
371, 2, bw, attraction, a-b-db, 9, 1, 6, 18, 60, 135, 57, 129, 135, 60, 1, 3.02142
371, 2, bw, attraction, a-b-db, 9, 1, 6, 18, 60, 135, 57, 129, 135, 60, 2, 0.306611
371, 2, bw, attraction, a-b-da, 14, 1, 6, 19, 60, 135, 125, 56, 135, 60, 3, 2.69966
371, 2, bw, attraction, a-b-da, 14, 1, 6, 19, 60, 135, 125, 56, 135, 60, 2, 0.302072
371, 2, bw, attraction, a-b-da, 14, 2, 6, 20, 90, 165, 153, 83, 165, 90, 1, 1.23209
371, 2, bw, attraction, a-b-da, 14, 2, 6, 20, 90, 165, 153, 83, 165, 90, 2, 0.285665
371, 2, bw, filler, NA, 999, 999, 6, 21, 62, 158, 77, 125, 123, 56, 2, 1.3521
371, 2, bw, filler, NA, 999, 999, 6, 21, 62, 158, 77, 125, 123, 56, 3, 0.409172
371, 2, bw, filler, NA, 999, 999, 6, 22, 104, 117, 166, 186, 149, 76, 2, 0.854203
371, 2, bw, filler, NA, 999, 999, 6, 22, 104, 117, 166, 186, 149, 76, 3, 0.370625
371, 2, bw, attraction, a-b-da, 2, 2, 6, 23, 90, 165, 163, 89, 165, 90, 1, 1.0817
371, 2, bw, attraction, a-b-da, 2, 2, 6, 23, 90, 165, 163, 89, 165, 90, 2, 0.981345
371, 2, bw, attraction, a-b-da, 14, 3, 6, 24, 120, 195, 181, 111, 195, 120, 1, 1.45969
371, 2, bw, attraction, a-b-da, 14, 3, 6, 24, 120, 195, 181, 111, 195, 120, 2, 0.391802
371, 2, bw, attraction, a-b-da, 5, 2, 6, 25, 165, 90, 90, 165, 161, 88, 2, 3.26966
371, 2, bw, attraction, a-b-da, 5, 2, 6, 25, 165, 90, 90, 165, 161, 88, 3, 0.273227
371, 2, bw, attraction, a-b-db, 9, 3, 6, 26, 120, 195, 195, 120, 114, 186, 1, 1.54778
371, 2, bw, attraction, a-b-db, 9, 3, 6, 26, 120, 195, 195, 120, 114, 186, 3, 0.284691
371, 2, bw, attraction, a-b-db, 14, 2, 6, 27, 90, 165, 165, 90, 83, 153, 1, 1.90316
371, 2, bw, attraction, a-b-db, 14, 2, 6, 27, 90, 165, 165, 90, 83, 153, 3, 0.273865
371, 2, bw, attraction, a-b-db, 2, 2, 6, 28, 90, 165, 89, 163, 165, 90, 2, 2.04443
371, 2, bw, attraction, a-b-db, 2, 2, 6, 28, 90, 165, 89, 163, 165, 90, 1, 0.265084
371, 2, bw, attraction, a-b-da, 5, 3, 6, 29, 120, 195, 195, 120, 190, 117, 1, 1.57219
371, 2, bw, attraction, a-b-da, 5, 3, 6, 29, 120, 195, 195, 120, 190, 117, 2, 0.219688
371, 2, bw, filler, NA, 999, 999, 6, 30, 140, 59, 62, 135, 157, 142, 3, 0.688879
371, 2, bw, filler, NA, 999, 999, 6, 30, 140, 59, 62, 135, 157, 142, 1, 0.235975
371, 2, bw, attraction, a-b-da, 2, 1, 6, 31, 60, 135, 135, 60, 134, 59, 1, 1.86447
371, 2, bw, attraction, a-b-da, 2, 1, 6, 31, 60, 135, 135, 60, 134, 59, 3, 0.268533
371, 2, bw, attraction, a-b-db, 5, 3, 6, 32, 195, 120, 117, 190, 120, 195, 3, 2.96781
371, 2, bw, attraction, a-b-db, 5, 3, 6, 32, 195, 120, 117, 190, 120, 195, 2, 0.57551
371, 2, bw, filler, NA, 999, 999, 6, 33, 141, 90, 192, 67, 142, 121, 3, 1.61397
371, 2, bw, filler, NA, 999, 999, 6, 33, 141, 90, 192, 67, 142, 121, 2, 1.116
371, 2, bw, filler, NA, 999, 999, 6, 34, 188, 158, 173, 163, 56, 140, 1, 1.62895
371, 2, bw, filler, NA, 999, 999, 6, 34, 188, 158, 173, 163, 56, 140, 3, 0.338505
371, 2, bw, attraction, a-b-da, 2, 3, 6, 35, 193, 119, 195, 120, 120, 195, 3, 2.81894
371, 2, bw, attraction, a-b-da, 2, 3, 6, 35, 193, 119, 195, 120, 120, 195, 2, 0.320791
371, 2, bw, filler, NA, 999, 999, 6, 36, 120, 71, 62, 114, 120, 156, 3, 2.44984
371, 2, bw, filler, NA, 999, 999, 6, 36, 120, 71, 62, 114, 120, 156, 2, 0.302447
371, 2, bw, catch, NA, 999, 999, 6, 37, 184, 131, 135, 120, 76, 119, 1, 1.03229
371, 2, bw, catch, NA, 999, 999, 6, 37, 184, 131, 135, 120, 76, 119, 3, 0.493886
371, 2, bw, attraction, a-b-da, 14, 3, 7, 1, 195, 120, 120, 195, 181, 111, 2, 1.74379
371, 2, bw, attraction, a-b-da, 14, 3, 7, 1, 195, 120, 120, 195, 181, 111, 3, 0.264596
371, 2, bw, filler, NA, 999, 999, 7, 2, 175, 107, 155, 183, 58, 175, 2, 1.27566
371, 2, bw, filler, NA, 999, 999, 7, 2, 175, 107, 155, 183, 58, 175, 3, 0.287348
371, 2, bw, catch, NA, 999, 999, 7, 3, 90, 165, 108, 87, 164, 151, 3, 0.96971
371, 2, bw, catch, NA, 999, 999, 7, 3, 90, 165, 108, 87, 164, 151, 2, 0.28207
371, 2, bw, attraction, a-b-da, 2, 3, 7, 4, 195, 120, 120, 195, 193, 119, 2, 1.86069
371, 2, bw, attraction, a-b-da, 2, 3, 7, 4, 195, 120, 120, 195, 193, 119, 1, 0.528713
371, 2, bw, attraction, a-b-db, 9, 2, 7, 5, 165, 90, 86, 157, 90, 165, 3, 1.28111
371, 2, bw, attraction, a-b-db, 9, 2, 7, 5, 165, 90, 86, 157, 90, 165, 2, 0.780704
371, 2, bw, attraction, a-b-da, 2, 2, 7, 6, 163, 89, 165, 90, 90, 165, 3, 5.44316
371, 2, bw, attraction, a-b-da, 2, 2, 7, 6, 163, 89, 165, 90, 90, 165, 1, 0.398766
371, 2, bw, attraction, a-b-da, 5, 1, 7, 7, 132, 58, 135, 60, 60, 135, 3, 1.9164
371, 2, bw, attraction, a-b-da, 5, 1, 7, 7, 132, 58, 135, 60, 60, 135, 2, 0.350514
371, 2, bw, attraction, a-b-db, 14, 3, 7, 8, 120, 195, 111, 181, 195, 120, 1, 4.78244
371, 2, bw, attraction, a-b-db, 14, 3, 7, 8, 120, 195, 111, 181, 195, 120, 2, 0.324851
371, 2, bw, filler, NA, 999, 999, 7, 9, 105, 92, 143, 165, 109, 69, 2, 1.36532
371, 2, bw, filler, NA, 999, 999, 7, 9, 105, 92, 143, 165, 109, 69, 3, 0.309623
371, 2, bw, filler, NA, 999, 999, 7, 10, 117, 134, 174, 190, 87, 123, 2, 1.23066
371, 2, bw, filler, NA, 999, 999, 7, 10, 117, 134, 174, 190, 87, 123, 3, 0.32442
371, 2, bw, filler, NA, 999, 999, 7, 11, 175, 161, 86, 63, 114, 155, 1, 1.8127
371, 2, bw, filler, NA, 999, 999, 7, 11, 175, 161, 86, 63, 114, 155, 2, 0.298872
371, 2, bw, attraction, a-b-db, 2, 2, 7, 12, 89, 163, 90, 165, 165, 90, 2, 1.2927
371, 2, bw, attraction, a-b-db, 2, 2, 7, 12, 89, 163, 90, 165, 165, 90, 3, 1.51164
371, 2, bw, catch, NA, 999, 999, 7, 13, 142, 173, 148, 107, 117, 78, 1, 0.848491
371, 2, bw, catch, NA, 999, 999, 7, 13, 142, 173, 148, 107, 117, 78, 3, 0.357427
371, 2, bw, filler, NA, 999, 999, 7, 14, 57, 154, 187, 93, 86, 145, 2, 2.93266
371, 2, bw, filler, NA, 999, 999, 7, 14, 57, 154, 187, 93, 86, 145, 1, 0.365685
371, 2, bw, attraction, a-b-da, 14, 2, 7, 15, 90, 165, 153, 83, 165, 90, 1, 1.45285
371, 2, bw, attraction, a-b-da, 14, 2, 7, 15, 90, 165, 153, 83, 165, 90, 2, 0.417736
371, 2, bw, attraction, a-b-da, 5, 3, 7, 16, 190, 117, 195, 120, 120, 195, 3, 3.4709
371, 2, bw, attraction, a-b-da, 5, 3, 7, 16, 190, 117, 195, 120, 120, 195, 1, 0.34586
371, 2, bw, attraction, a-b-da, 9, 3, 7, 17, 120, 195, 186, 114, 195, 120, 3, 2.72173
371, 2, bw, attraction, a-b-da, 9, 3, 7, 17, 120, 195, 186, 114, 195, 120, 2, 0.282609
371, 2, bw, attraction, a-b-da, 14, 1, 7, 18, 135, 60, 125, 56, 60, 135, 1, 1.82116
371, 2, bw, attraction, a-b-da, 14, 1, 7, 18, 135, 60, 125, 56, 60, 135, 2, 0.642739
371, 2, bw, filler, NA, 999, 999, 7, 19, 100, 175, 80, 111, 147, 165, 3, 0.774359
371, 2, bw, filler, NA, 999, 999, 7, 19, 100, 175, 80, 111, 147, 165, 2, 0.310192
371, 2, bw, attraction, a-b-db, 5, 1, 7, 20, 60, 135, 135, 60, 58, 132, 1, 2.10336
371, 2, bw, attraction, a-b-db, 5, 1, 7, 20, 60, 135, 135, 60, 58, 132, 2, 0.538067
371, 2, bw, attraction, a-b-db, 2, 1, 7, 21, 59, 134, 135, 60, 60, 135, 3, 0.930409
371, 2, bw, attraction, a-b-db, 2, 1, 7, 21, 59, 134, 135, 60, 60, 135, 2, 0.404065
371, 2, bw, attraction, a-b-da, 2, 1, 7, 22, 60, 135, 135, 60, 134, 59, 1, 3.3618
371, 2, bw, attraction, a-b-da, 2, 1, 7, 22, 60, 135, 135, 60, 134, 59, 2, 0.297461
371, 2, bw, attraction, a-b-db, 9, 1, 7, 23, 135, 60, 60, 135, 57, 129, 1, 1.86733
371, 2, bw, attraction, a-b-db, 9, 1, 7, 23, 135, 60, 60, 135, 57, 129, 3, 0.359362
371, 2, bw, filler, NA, 999, 999, 7, 24, 150, 97, 87, 169, 171, 102, 3, 2.46246
371, 2, bw, filler, NA, 999, 999, 7, 24, 150, 97, 87, 169, 171, 102, 1, 0.610377
371, 2, bw, attraction, a-b-db, 5, 2, 7, 25, 165, 90, 90, 165, 88, 161, 2, 1.63948
371, 2, bw, attraction, a-b-db, 5, 2, 7, 25, 165, 90, 90, 165, 88, 161, 3, 1.00421
371, 2, bw, attraction, a-b-db, 9, 3, 7, 26, 114, 186, 195, 120, 120, 195, 2, 1.23399
371, 2, bw, attraction, a-b-db, 9, 3, 7, 26, 114, 186, 195, 120, 120, 195, 1, 0.361786
371, 2, bw, attraction, a-b-db, 14, 1, 7, 27, 135, 60, 60, 135, 56, 125, 1, 3.06269
371, 2, bw, attraction, a-b-db, 14, 1, 7, 27, 135, 60, 60, 135, 56, 125, 3, 1.23431
371, 2, bw, attraction, a-b-da, 9, 1, 7, 28, 135, 60, 129, 57, 60, 135, 1, 2.33449
371, 2, bw, attraction, a-b-da, 9, 1, 7, 28, 135, 60, 129, 57, 60, 135, 2, 0.279799
371, 2, bw, attraction, a-b-db, 5, 3, 7, 29, 120, 195, 117, 190, 195, 120, 1, 2.57834
371, 2, bw, attraction, a-b-db, 5, 3, 7, 29, 120, 195, 117, 190, 195, 120, 2, 0.345472
371, 2, bw, attraction, a-b-da, 5, 2, 7, 30, 90, 165, 165, 90, 161, 88, 3, 1.83327
371, 2, bw, attraction, a-b-da, 5, 2, 7, 30, 90, 165, 165, 90, 161, 88, 2, 0.686711
371, 2, bw, filler, NA, 999, 999, 7, 31, 182, 114, 108, 83, 61, 159, 1, 0.761038
371, 2, bw, filler, NA, 999, 999, 7, 31, 182, 114, 108, 83, 61, 159, 2, 0.441522
371, 2, bw, filler, NA, 999, 999, 7, 32, 189, 124, 192, 130, 97, 120, 2, 0.749286
371, 2, bw, filler, NA, 999, 999, 7, 32, 189, 124, 192, 130, 97, 120, 3, 0.614385
371, 2, bw, attraction, a-b-da, 9, 2, 7, 33, 165, 90, 90, 165, 157, 86, 2, 3.61153
371, 2, bw, attraction, a-b-da, 9, 2, 7, 33, 165, 90, 90, 165, 157, 86, 3, 0.577039
371, 2, bw, attraction, a-b-db, 14, 2, 7, 34, 165, 90, 90, 165, 83, 153, 2, 2.73543
371, 2, bw, attraction, a-b-db, 14, 2, 7, 34, 165, 90, 90, 165, 83, 153, 3, 0.608505
371, 2, bw, catch, NA, 999, 999, 7, 35, 77, 118, 108, 147, 156, 159, 3, 0.981604
371, 2, bw, catch, NA, 999, 999, 7, 35, 77, 118, 108, 147, 156, 159, 1, 0.445207
371, 2, bw, attraction, a-b-db, 2, 3, 7, 36, 120, 195, 119, 193, 195, 120, 1, 1.16907
371, 2, bw, attraction, a-b-db, 2, 3, 7, 36, 120, 195, 119, 193, 195, 120, 3, 0.585354
371, 2, bw, filler, NA, 999, 999, 7, 37, 78, 60, 111, 176, 69, 146, 2, 0.79175
371, 2, bw, filler, NA, 999, 999, 7, 37, 78, 60, 111, 176, 69, 146, 1, 0.758828
371, 2, bw, attraction, a-b-db, 14, 2, 8, 1, 165, 90, 90, 165, 83, 153, 2, 2.182
371, 2, bw, attraction, a-b-db, 14, 2, 8, 1, 165, 90, 90, 165, 83, 153, 3, 0.333112
371, 2, bw, catch, NA, 999, 999, 8, 2, 155, 160, 122, 73, 142, 113, 1, 1.00562
371, 2, bw, catch, NA, 999, 999, 8, 2, 155, 160, 122, 73, 142, 113, 2, 0.636036
371, 2, bw, attraction, a-b-da, 9, 1, 8, 3, 135, 60, 60, 135, 129, 57, 2, 2.68846
371, 2, bw, attraction, a-b-da, 9, 1, 8, 3, 135, 60, 60, 135, 129, 57, 3, 0.698954
371, 2, bw, attraction, a-b-db, 14, 1, 8, 4, 135, 60, 56, 125, 60, 135, 3, 2.56463
371, 2, bw, attraction, a-b-db, 14, 1, 8, 4, 135, 60, 56, 125, 60, 135, 2, 0.756516
371, 2, bw, catch, NA, 999, 999, 8, 5, 158, 157, 111, 144, 134, 61, 1, 1.53146
371, 2, bw, catch, NA, 999, 999, 8, 5, 158, 157, 111, 144, 134, 61, 3, 0.684969
371, 2, bw, attraction, a-b-da, 5, 1, 8, 6, 132, 58, 135, 60, 60, 135, 3, 2.73542
371, 2, bw, attraction, a-b-da, 5, 1, 8, 6, 132, 58, 135, 60, 60, 135, 2, 0.344493
371, 2, bw, attraction, a-b-db, 2, 3, 8, 7, 120, 195, 119, 193, 195, 120, 2, 1.44029
371, 2, bw, attraction, a-b-db, 2, 3, 8, 7, 120, 195, 119, 193, 195, 120, 3, 0.341228
371, 2, bw, attraction, a-b-da, 9, 3, 8, 8, 186, 114, 120, 195, 195, 120, 2, 1.76499
371, 2, bw, attraction, a-b-da, 9, 3, 8, 8, 186, 114, 120, 195, 195, 120, 1, 0.589057
371, 2, bw, filler, NA, 999, 999, 8, 9, 138, 149, 189, 166, 56, 118, 2, 1.21966
371, 2, bw, filler, NA, 999, 999, 8, 9, 138, 149, 189, 166, 56, 118, 3, 0.537897
371, 2, bw, attraction, a-b-db, 9, 2, 8, 10, 90, 165, 165, 90, 86, 157, 3, 1.14628
371, 2, bw, attraction, a-b-db, 9, 2, 8, 10, 90, 165, 165, 90, 86, 157, 2, 0.54714
371, 2, bw, attraction, a-b-db, 5, 3, 8, 11, 117, 190, 120, 195, 195, 120, 1, 3.18697
371, 2, bw, attraction, a-b-db, 5, 3, 8, 11, 117, 190, 120, 195, 195, 120, 3, 0.361939
371, 2, bw, attraction, a-b-db, 9, 1, 8, 12, 135, 60, 57, 129, 60, 135, 3, 1.01715
371, 2, bw, attraction, a-b-db, 9, 1, 8, 12, 135, 60, 57, 129, 60, 135, 2, 0.287467
371, 2, bw, attraction, a-b-da, 14, 2, 8, 13, 165, 90, 90, 165, 153, 83, 2, 1.18592
371, 2, bw, attraction, a-b-da, 14, 2, 8, 13, 165, 90, 90, 165, 153, 83, 3, 0.329528
371, 2, bw, filler, NA, 999, 999, 8, 14, 88, 120, 175, 141, 108, 193, 2, 0.930088
371, 2, bw, filler, NA, 999, 999, 8, 14, 88, 120, 175, 141, 108, 193, 1, 0.435657
371, 2, bw, filler, NA, 999, 999, 8, 15, 95, 167, 94, 105, 98, 146, 1, 1.71211
371, 2, bw, filler, NA, 999, 999, 8, 15, 95, 167, 94, 105, 98, 146, 2, 0.290259
371, 2, bw, attraction, a-b-da, 5, 3, 8, 16, 195, 120, 120, 195, 190, 117, 2, 1.57209
371, 2, bw, attraction, a-b-da, 5, 3, 8, 16, 195, 120, 120, 195, 190, 117, 3, 0.339556
371, 2, bw, filler, NA, 999, 999, 8, 17, 134, 185, 189, 134, 72, 193, 1, 1.00338
371, 2, bw, filler, NA, 999, 999, 8, 17, 134, 185, 189, 134, 72, 193, 3, 0.586428
371, 2, bw, attraction, a-b-db, 14, 3, 8, 18, 111, 181, 120, 195, 195, 120, 2, 0.952966
371, 2, bw, attraction, a-b-db, 14, 3, 8, 18, 111, 181, 120, 195, 195, 120, 3, 0.369913
371, 2, bw, filler, NA, 999, 999, 8, 19, 188, 94, 113, 68, 184, 187, 3, 0.825032
371, 2, bw, filler, NA, 999, 999, 8, 19, 188, 94, 113, 68, 184, 187, 2, 0.590917
371, 2, bw, attraction, a-b-da, 2, 1, 8, 20, 134, 59, 135, 60, 60, 135, 3, 1.57255
371, 2, bw, attraction, a-b-da, 2, 1, 8, 20, 134, 59, 135, 60, 60, 135, 2, 0.371964
371, 2, bw, filler, NA, 999, 999, 8, 21, 87, 131, 66, 69, 87, 64, 1, 0.891167
371, 2, bw, filler, NA, 999, 999, 8, 21, 87, 131, 66, 69, 87, 64, 2, 0.318255
371, 2, bw, attraction, a-b-da, 2, 2, 8, 22, 165, 90, 90, 165, 163, 89, 2, 2.13532
371, 2, bw, attraction, a-b-da, 2, 2, 8, 22, 165, 90, 90, 165, 163, 89, 3, 1.08872
371, 2, bw, filler, NA, 999, 999, 8, 23, 178, 64, 172, 187, 154, 175, 2, 1.243
371, 2, bw, filler, NA, 999, 999, 8, 23, 178, 64, 172, 187, 154, 175, 1, 0.679839
371, 2, bw, filler, NA, 999, 999, 8, 24, 103, 82, 171, 163, 116, 147, 2, 1.36226
371, 2, bw, filler, NA, 999, 999, 8, 24, 103, 82, 171, 163, 116, 147, 1, 0.826473
371, 2, bw, attraction, a-b-da, 5, 2, 8, 25, 161, 88, 165, 90, 90, 165, 3, 2.35081
371, 2, bw, attraction, a-b-da, 5, 2, 8, 25, 161, 88, 165, 90, 90, 165, 2, 1.24739
371, 2, bw, attraction, a-b-da, 14, 3, 8, 26, 195, 120, 181, 111, 120, 195, 3, 2.76305
371, 2, bw, attraction, a-b-da, 14, 3, 8, 26, 195, 120, 181, 111, 120, 195, 2, 0.314804
371, 2, bw, attraction, a-b-da, 14, 1, 8, 27, 125, 56, 135, 60, 60, 135, 3, 4.21519
371, 2, bw, attraction, a-b-da, 14, 1, 8, 27, 125, 56, 135, 60, 60, 135, 2, 0.233214
371, 2, bw, attraction, a-b-db, 2, 1, 8, 28, 135, 60, 60, 135, 59, 134, 3, 1.88582
371, 2, bw, attraction, a-b-db, 2, 1, 8, 28, 135, 60, 60, 135, 59, 134, 2, 0.841083
371, 2, bw, attraction, a-b-db, 2, 2, 8, 29, 165, 90, 89, 163, 90, 165, 3, 3.05286
371, 2, bw, attraction, a-b-db, 2, 2, 8, 29, 165, 90, 89, 163, 90, 165, 2, 0.529245
371, 2, bw, attraction, a-b-db, 5, 2, 8, 30, 88, 161, 165, 90, 90, 165, 3, 1.73765
371, 2, bw, attraction, a-b-db, 5, 2, 8, 30, 88, 161, 165, 90, 90, 165, 1, 1.16319
371, 2, bw, catch, NA, 999, 999, 8, 31, 137, 178, 121, 134, 101, 94, 1, 0.889957
371, 2, bw, catch, NA, 999, 999, 8, 31, 137, 178, 121, 134, 101, 94, 3, 0.252966
371, 2, bw, attraction, a-b-db, 5, 1, 8, 32, 58, 132, 60, 135, 135, 60, 1, 1.74484
371, 2, bw, attraction, a-b-db, 5, 1, 8, 32, 58, 132, 60, 135, 135, 60, 2, 0.625555
371, 2, bw, filler, NA, 999, 999, 8, 33, 118, 148, 116, 81, 169, 113, 3, 1.07008
371, 2, bw, filler, NA, 999, 999, 8, 33, 118, 148, 116, 81, 169, 113, 2, 0.322348
371, 2, bw, filler, NA, 999, 999, 8, 34, 161, 110, 174, 92, 117, 122, 1, 2.65948
371, 2, bw, filler, NA, 999, 999, 8, 34, 161, 110, 174, 92, 117, 122, 3, 0.327281
371, 2, bw, attraction, a-b-da, 9, 2, 8, 35, 165, 90, 90, 165, 157, 86, 2, 1.40777
371, 2, bw, attraction, a-b-da, 9, 2, 8, 35, 165, 90, 90, 165, 157, 86, 3, 1.49409
371, 2, bw, attraction, a-b-db, 9, 3, 8, 36, 195, 120, 114, 186, 120, 195, 1, 1.35949
371, 2, bw, attraction, a-b-db, 9, 3, 8, 36, 195, 120, 114, 186, 120, 195, 3, 0.495706
371, 2, bw, attraction, a-b-da, 2, 3, 8, 37, 120, 195, 195, 120, 193, 119, 1, 3.24944
371, 2, bw, attraction, a-b-da, 2, 3, 8, 37, 120, 195, 195, 120, 193, 119, 3, 3.38179
