sub_n, computer_n, bw_cond, effect, set, distance, diag, block_n, trial_n, h1, w1, h2, w2, h3, w3, choice, rt 
373, 2, bw, practice, NA, 999, 999, 0, 1, 169, 99, 114, 136, 75, 104, 1, 10.157
373, 2, bw, practice, NA, 999, 999, 0, 1, 169, 99, 114, 136, 75, 104, 3, 4.81055
373, 2, bw, practice, NA, 999, 999, 0, 2, 162, 177, 132, 79, 155, 93, 1, 2.39738
373, 2, bw, practice, NA, 999, 999, 0, 2, 162, 177, 132, 79, 155, 93, 2, 2.05981
373, 2, bw, practice, NA, 999, 999, 0, 3, 73, 149, 121, 76, 59, 104, 1, 2.48519
373, 2, bw, practice, NA, 999, 999, 0, 3, 73, 149, 121, 76, 59, 104, 3, 3.70908
373, 2, bw, attraction, a-b-db, 14, 3, 1, 1, 111, 181, 120, 195, 195, 120, 2, 2.67355
373, 2, bw, attraction, a-b-db, 14, 3, 1, 1, 111, 181, 120, 195, 195, 120, 1, 1.30088
373, 2, bw, filler, NA, 999, 999, 1, 2, 89, 163, 133, 111, 126, 160, 3, 1.67829
373, 2, bw, filler, NA, 999, 999, 1, 2, 89, 163, 133, 111, 126, 160, 2, 1.08179
373, 2, bw, catch, NA, 999, 999, 1, 3, 132, 123, 130, 185, 129, 66, 2, 1.49198
373, 2, bw, catch, NA, 999, 999, 1, 3, 132, 123, 130, 185, 129, 66, 3, 1.04682
373, 2, bw, attraction, a-b-db, 2, 1, 1, 4, 135, 60, 59, 134, 60, 135, 2, 7.4745
373, 2, bw, attraction, a-b-db, 2, 1, 1, 4, 135, 60, 59, 134, 60, 135, 1, 0.692091
373, 2, bw, catch, NA, 999, 999, 1, 5, 102, 93, 148, 107, 175, 140, 3, 2.44589
373, 2, bw, catch, NA, 999, 999, 1, 5, 102, 93, 148, 107, 175, 140, 1, 1.49839
373, 2, bw, attraction, a-b-da, 9, 3, 1, 6, 195, 120, 120, 195, 186, 114, 2, 5.53183
373, 2, bw, attraction, a-b-da, 9, 3, 1, 6, 195, 120, 120, 195, 186, 114, 1, 2.1241
373, 2, bw, attraction, a-b-da, 2, 3, 1, 7, 195, 120, 193, 119, 120, 195, 3, 2.52395
373, 2, bw, attraction, a-b-da, 2, 3, 1, 7, 195, 120, 193, 119, 120, 195, 2, 1.43714
373, 2, bw, attraction, a-b-da, 14, 3, 1, 8, 181, 111, 120, 195, 195, 120, 2, 1.65741
373, 2, bw, attraction, a-b-da, 14, 3, 1, 8, 181, 111, 120, 195, 195, 120, 1, 1.05344
373, 2, bw, attraction, a-b-da, 5, 3, 1, 9, 190, 117, 195, 120, 120, 195, 3, 2.39311
373, 2, bw, attraction, a-b-da, 5, 3, 1, 9, 190, 117, 195, 120, 120, 195, 1, 0.663713
373, 2, bw, filler, NA, 999, 999, 1, 10, 77, 85, 119, 88, 85, 59, 2, 1.3148
373, 2, bw, filler, NA, 999, 999, 1, 10, 77, 85, 119, 88, 85, 59, 3, 1.54107
373, 2, bw, attraction, a-b-db, 5, 1, 1, 11, 58, 132, 135, 60, 60, 135, 3, 2.16449
373, 2, bw, attraction, a-b-db, 5, 1, 1, 11, 58, 132, 135, 60, 60, 135, 1, 1.15644
373, 2, bw, filler, NA, 999, 999, 1, 12, 158, 110, 63, 160, 151, 150, 3, 1.05135
373, 2, bw, filler, NA, 999, 999, 1, 12, 158, 110, 63, 160, 151, 150, 2, 1.02441
373, 2, bw, attraction, a-b-db, 9, 2, 1, 13, 86, 157, 90, 165, 165, 90, 2, 1.82058
373, 2, bw, attraction, a-b-db, 9, 2, 1, 13, 86, 157, 90, 165, 165, 90, 1, 0.546089
373, 2, bw, filler, NA, 999, 999, 1, 14, 89, 136, 104, 79, 148, 58, 1, 3.24966
373, 2, bw, filler, NA, 999, 999, 1, 14, 89, 136, 104, 79, 148, 58, 3, 1.43805
373, 2, bw, attraction, a-b-da, 9, 1, 1, 15, 129, 57, 60, 135, 135, 60, 2, 1.33019
373, 2, bw, attraction, a-b-da, 9, 1, 1, 15, 129, 57, 60, 135, 135, 60, 1, 0.643729
373, 2, bw, attraction, a-b-da, 2, 2, 1, 16, 165, 90, 163, 89, 90, 165, 2, 2.0075
373, 2, bw, attraction, a-b-da, 2, 2, 1, 16, 165, 90, 163, 89, 90, 165, 1, 2.27749
373, 2, bw, attraction, a-b-db, 14, 2, 1, 17, 90, 165, 165, 90, 83, 153, 2, 3.65535
373, 2, bw, attraction, a-b-db, 14, 2, 1, 17, 90, 165, 165, 90, 83, 153, 3, 0.970793
373, 2, bw, attraction, a-b-db, 5, 3, 1, 18, 120, 195, 117, 190, 195, 120, 1, 4.37783
373, 2, bw, attraction, a-b-db, 5, 3, 1, 18, 120, 195, 117, 190, 195, 120, 2, 0.576423
373, 2, bw, attraction, a-b-da, 9, 2, 1, 19, 157, 86, 165, 90, 90, 165, 2, 1.56689
373, 2, bw, attraction, a-b-da, 9, 2, 1, 19, 157, 86, 165, 90, 90, 165, 1, 0.478988
373, 2, bw, attraction, a-b-da, 14, 2, 1, 20, 165, 90, 90, 165, 153, 83, 2, 1.39356
373, 2, bw, attraction, a-b-da, 14, 2, 1, 20, 165, 90, 90, 165, 153, 83, 3, 1.20039
373, 2, bw, filler, NA, 999, 999, 1, 21, 56, 160, 152, 168, 80, 74, 2, 0.813876
373, 2, bw, filler, NA, 999, 999, 1, 21, 56, 160, 152, 168, 80, 74, 3, 0.532291
373, 2, bw, filler, NA, 999, 999, 1, 22, 182, 146, 123, 106, 168, 66, 1, 1.20475
373, 2, bw, filler, NA, 999, 999, 1, 22, 182, 146, 123, 106, 168, 66, 2, 0.450987
373, 2, bw, attraction, a-b-db, 2, 3, 1, 23, 120, 195, 119, 193, 195, 120, 2, 1.51876
373, 2, bw, attraction, a-b-db, 2, 3, 1, 23, 120, 195, 119, 193, 195, 120, 1, 0.536962
373, 2, bw, attraction, a-b-da, 2, 1, 1, 24, 60, 135, 135, 60, 134, 59, 2, 1.04145
373, 2, bw, attraction, a-b-da, 2, 1, 1, 24, 60, 135, 135, 60, 134, 59, 1, 0.654319
373, 2, bw, filler, NA, 999, 999, 1, 25, 152, 68, 137, 182, 163, 103, 2, 0.826096
373, 2, bw, filler, NA, 999, 999, 1, 25, 152, 68, 137, 182, 163, 103, 1, 0.519822
373, 2, bw, catch, NA, 999, 999, 1, 26, 128, 67, 154, 101, 141, 174, 3, 1.36101
373, 2, bw, catch, NA, 999, 999, 1, 26, 128, 67, 154, 101, 141, 174, 1, 0.593151
373, 2, bw, attraction, a-b-da, 5, 2, 1, 27, 161, 88, 165, 90, 90, 165, 2, 0.958927
373, 2, bw, attraction, a-b-da, 5, 2, 1, 27, 161, 88, 165, 90, 90, 165, 1, 0.431401
373, 2, bw, attraction, a-b-db, 9, 3, 1, 28, 114, 186, 120, 195, 195, 120, 2, 0.523664
373, 2, bw, attraction, a-b-db, 9, 3, 1, 28, 114, 186, 120, 195, 195, 120, 1, 0.653588
373, 2, bw, attraction, a-b-da, 5, 1, 1, 29, 135, 60, 132, 58, 60, 135, 2, 1.60141
373, 2, bw, attraction, a-b-da, 5, 1, 1, 29, 135, 60, 132, 58, 60, 135, 1, 0.536091
373, 2, bw, attraction, a-b-da, 14, 1, 1, 30, 125, 56, 135, 60, 60, 135, 2, 0.84056
373, 2, bw, attraction, a-b-da, 14, 1, 1, 30, 125, 56, 135, 60, 60, 135, 3, 0.557603
373, 2, bw, attraction, a-b-db, 14, 1, 1, 31, 135, 60, 60, 135, 56, 125, 2, 0.85266
373, 2, bw, attraction, a-b-db, 14, 1, 1, 31, 135, 60, 60, 135, 56, 125, 3, 0.921756
373, 2, bw, filler, NA, 999, 999, 1, 32, 188, 186, 185, 134, 129, 121, 1, 1.12268
373, 2, bw, filler, NA, 999, 999, 1, 32, 188, 186, 185, 134, 129, 121, 3, 0.740292
373, 2, bw, filler, NA, 999, 999, 1, 33, 80, 150, 174, 116, 87, 171, 2, 0.660027
373, 2, bw, filler, NA, 999, 999, 1, 33, 80, 150, 174, 116, 87, 171, 1, 0.552431
373, 2, bw, attraction, a-b-db, 2, 2, 1, 34, 89, 163, 165, 90, 90, 165, 2, 1.09623
373, 2, bw, attraction, a-b-db, 2, 2, 1, 34, 89, 163, 165, 90, 90, 165, 1, 0.427204
373, 2, bw, attraction, a-b-db, 9, 1, 1, 35, 60, 135, 135, 60, 57, 129, 2, 0.751621
373, 2, bw, attraction, a-b-db, 9, 1, 1, 35, 60, 135, 135, 60, 57, 129, 3, 0.800717
373, 2, bw, attraction, a-b-db, 5, 2, 1, 36, 165, 90, 90, 165, 88, 161, 2, 0.654513
373, 2, bw, attraction, a-b-db, 5, 2, 1, 36, 165, 90, 90, 165, 88, 161, 1, 1.08284
373, 2, bw, filler, NA, 999, 999, 1, 37, 129, 71, 150, 78, 89, 155, 3, 2.82123
373, 2, bw, filler, NA, 999, 999, 1, 37, 129, 71, 150, 78, 89, 155, 1, 0.586302
373, 2, bw, attraction, a-b-da, 9, 3, 2, 1, 186, 114, 120, 195, 195, 120, 2, 0.792642
373, 2, bw, attraction, a-b-da, 9, 3, 2, 1, 186, 114, 120, 195, 195, 120, 3, 0.226676
373, 2, bw, filler, NA, 999, 999, 2, 2, 145, 194, 89, 124, 64, 95, 1, 7.36422
373, 2, bw, filler, NA, 999, 999, 2, 2, 145, 194, 89, 124, 64, 95, 3, 0.634534
373, 2, bw, filler, NA, 999, 999, 2, 3, 105, 75, 129, 61, 72, 129, 3, 2.08697
373, 2, bw, filler, NA, 999, 999, 2, 3, 105, 75, 129, 61, 72, 129, 1, 0.770343
373, 2, bw, filler, NA, 999, 999, 2, 4, 149, 82, 116, 126, 62, 172, 2, 1.28935
373, 2, bw, filler, NA, 999, 999, 2, 4, 149, 82, 116, 126, 62, 172, 3, 1.23635
373, 2, bw, attraction, a-b-da, 2, 1, 2, 5, 134, 59, 60, 135, 135, 60, 2, 1.29649
373, 2, bw, attraction, a-b-da, 2, 1, 2, 5, 134, 59, 60, 135, 135, 60, 1, 1.07534
373, 2, bw, attraction, a-b-db, 5, 3, 2, 6, 120, 195, 195, 120, 117, 190, 2, 0.925664
373, 2, bw, attraction, a-b-db, 5, 3, 2, 6, 120, 195, 195, 120, 117, 190, 1, 1.14333
373, 2, bw, attraction, a-b-db, 2, 3, 2, 7, 119, 193, 195, 120, 120, 195, 2, 1.15889
373, 2, bw, attraction, a-b-db, 2, 3, 2, 7, 119, 193, 195, 120, 120, 195, 1, 1.28727
373, 2, bw, catch, NA, 999, 999, 2, 8, 168, 147, 81, 114, 113, 142, 1, 1.29747
373, 2, bw, catch, NA, 999, 999, 2, 8, 168, 147, 81, 114, 113, 142, 2, 0.572456
373, 2, bw, attraction, a-b-db, 14, 1, 2, 9, 135, 60, 60, 135, 56, 125, 2, 4.12344
373, 2, bw, attraction, a-b-db, 14, 1, 2, 9, 135, 60, 60, 135, 56, 125, 3, 2.11611
373, 2, bw, filler, NA, 999, 999, 2, 10, 150, 139, 173, 105, 175, 185, 3, 0.9567
373, 2, bw, filler, NA, 999, 999, 2, 10, 150, 139, 173, 105, 175, 185, 2, 0.54101
373, 2, bw, catch, NA, 999, 999, 2, 11, 124, 131, 68, 127, 190, 125, 3, 0.892827
373, 2, bw, catch, NA, 999, 999, 2, 11, 124, 131, 68, 127, 190, 125, 2, 0.687904
373, 2, bw, attraction, a-b-da, 5, 3, 2, 12, 195, 120, 120, 195, 190, 117, 2, 1.01832
373, 2, bw, attraction, a-b-da, 5, 3, 2, 12, 195, 120, 120, 195, 190, 117, 3, 0.536594
373, 2, bw, filler, NA, 999, 999, 2, 13, 87, 67, 58, 67, 173, 115, 3, 0.825124
373, 2, bw, filler, NA, 999, 999, 2, 13, 87, 67, 58, 67, 173, 115, 2, 0.606794
373, 2, bw, attraction, a-b-db, 14, 2, 2, 14, 90, 165, 165, 90, 83, 153, 2, 1.03578
373, 2, bw, attraction, a-b-db, 14, 2, 2, 14, 90, 165, 165, 90, 83, 153, 3, 0.441435
373, 2, bw, filler, NA, 999, 999, 2, 15, 190, 85, 89, 137, 188, 59, 1, 1.85339
373, 2, bw, filler, NA, 999, 999, 2, 15, 190, 85, 89, 137, 188, 59, 3, 1.36203
373, 2, bw, attraction, a-b-db, 9, 1, 2, 16, 135, 60, 60, 135, 57, 129, 2, 1.65687
373, 2, bw, attraction, a-b-db, 9, 1, 2, 16, 135, 60, 60, 135, 57, 129, 3, 0.556913
373, 2, bw, attraction, a-b-db, 9, 3, 2, 17, 114, 186, 195, 120, 120, 195, 3, 1.11607
373, 2, bw, attraction, a-b-db, 9, 3, 2, 17, 114, 186, 195, 120, 120, 195, 1, 0.694299
373, 2, bw, attraction, a-b-da, 14, 3, 2, 18, 195, 120, 181, 111, 120, 195, 2, 1.08805
373, 2, bw, attraction, a-b-da, 14, 3, 2, 18, 195, 120, 181, 111, 120, 195, 3, 0.643009
373, 2, bw, attraction, a-b-da, 9, 2, 2, 19, 165, 90, 90, 165, 157, 86, 2, 1.1428
373, 2, bw, attraction, a-b-da, 9, 2, 2, 19, 165, 90, 90, 165, 157, 86, 1, 0.471765
373, 2, bw, attraction, a-b-da, 5, 1, 2, 20, 132, 58, 60, 135, 135, 60, 2, 1.52307
373, 2, bw, attraction, a-b-da, 5, 1, 2, 20, 132, 58, 60, 135, 135, 60, 1, 0.70031
373, 2, bw, attraction, a-b-db, 14, 3, 2, 21, 120, 195, 111, 181, 195, 120, 2, 0.82215
373, 2, bw, attraction, a-b-db, 14, 3, 2, 21, 120, 195, 111, 181, 195, 120, 1, 0.627704
373, 2, bw, filler, NA, 999, 999, 2, 22, 160, 168, 126, 63, 56, 185, 1, 0.912192
373, 2, bw, filler, NA, 999, 999, 2, 22, 160, 168, 126, 63, 56, 185, 2, 1.45857
373, 2, bw, attraction, a-b-da, 9, 1, 2, 23, 60, 135, 129, 57, 135, 60, 3, 1.70133
373, 2, bw, attraction, a-b-da, 9, 1, 2, 23, 60, 135, 129, 57, 135, 60, 1, 0.456082
373, 2, bw, attraction, a-b-db, 2, 1, 2, 24, 60, 135, 59, 134, 135, 60, 2, 1.01929
373, 2, bw, attraction, a-b-db, 2, 1, 2, 24, 60, 135, 59, 134, 135, 60, 1, 0.505602
373, 2, bw, filler, NA, 999, 999, 2, 25, 67, 143, 98, 83, 121, 147, 3, 0.875509
373, 2, bw, filler, NA, 999, 999, 2, 25, 67, 143, 98, 83, 121, 147, 2, 0.471318
373, 2, bw, catch, NA, 999, 999, 2, 26, 162, 153, 135, 60, 137, 118, 1, 0.762313
373, 2, bw, catch, NA, 999, 999, 2, 26, 162, 153, 135, 60, 137, 118, 2, 0.770786
373, 2, bw, attraction, a-b-db, 5, 1, 2, 27, 60, 135, 58, 132, 135, 60, 2, 1.3777
373, 2, bw, attraction, a-b-db, 5, 1, 2, 27, 60, 135, 58, 132, 135, 60, 1, 0.345241
373, 2, bw, attraction, a-b-db, 2, 2, 2, 28, 89, 163, 165, 90, 90, 165, 2, 1.42506
373, 2, bw, attraction, a-b-db, 2, 2, 2, 28, 89, 163, 165, 90, 90, 165, 1, 0.726526
373, 2, bw, attraction, a-b-da, 5, 2, 2, 29, 165, 90, 161, 88, 90, 165, 2, 1.0149
373, 2, bw, attraction, a-b-da, 5, 2, 2, 29, 165, 90, 161, 88, 90, 165, 1, 0.46119
373, 2, bw, filler, NA, 999, 999, 2, 30, 138, 132, 194, 142, 83, 64, 2, 0.488339
373, 2, bw, filler, NA, 999, 999, 2, 30, 138, 132, 194, 142, 83, 64, 3, 1.17949
373, 2, bw, attraction, a-b-da, 14, 2, 2, 31, 153, 83, 165, 90, 90, 165, 3, 0.833899
373, 2, bw, attraction, a-b-da, 14, 2, 2, 31, 153, 83, 165, 90, 90, 165, 2, 0.655479
373, 2, bw, attraction, a-b-da, 14, 1, 2, 32, 125, 56, 135, 60, 60, 135, 2, 0.939197
373, 2, bw, attraction, a-b-da, 14, 1, 2, 32, 125, 56, 135, 60, 60, 135, 1, 0.620208
373, 2, bw, attraction, a-b-da, 2, 2, 2, 33, 163, 89, 90, 165, 165, 90, 2, 0.72131
373, 2, bw, attraction, a-b-da, 2, 2, 2, 33, 163, 89, 90, 165, 165, 90, 1, 2.11514
373, 2, bw, filler, NA, 999, 999, 2, 34, 88, 89, 95, 121, 124, 180, 3, 0.963694
373, 2, bw, filler, NA, 999, 999, 2, 34, 88, 89, 95, 121, 124, 180, 1, 0.63604
373, 2, bw, attraction, a-b-db, 9, 2, 2, 35, 86, 157, 90, 165, 165, 90, 2, 0.888364
373, 2, bw, attraction, a-b-db, 9, 2, 2, 35, 86, 157, 90, 165, 165, 90, 1, 0.555479
373, 2, bw, attraction, a-b-db, 5, 2, 2, 36, 90, 165, 165, 90, 88, 161, 2, 0.875267
373, 2, bw, attraction, a-b-db, 5, 2, 2, 36, 90, 165, 165, 90, 88, 161, 1, 0.726942
373, 2, bw, attraction, a-b-da, 2, 3, 2, 37, 193, 119, 195, 120, 120, 195, 2, 10.8793
373, 2, bw, attraction, a-b-da, 2, 3, 2, 37, 193, 119, 195, 120, 120, 195, 1, 0.607901
373, 2, bw, attraction, a-b-db, 9, 2, 3, 1, 86, 157, 165, 90, 90, 165, 2, 1.30091
373, 2, bw, attraction, a-b-db, 9, 2, 3, 1, 86, 157, 165, 90, 90, 165, 1, 0.687796
373, 2, bw, attraction, a-b-db, 5, 3, 3, 2, 117, 190, 120, 195, 195, 120, 2, 0.602274
373, 2, bw, attraction, a-b-db, 5, 3, 3, 2, 117, 190, 120, 195, 195, 120, 1, 0.569296
373, 2, bw, filler, NA, 999, 999, 3, 3, 178, 87, 76, 92, 191, 134, 3, 0.744544
373, 2, bw, filler, NA, 999, 999, 3, 3, 178, 87, 76, 92, 191, 134, 2, 0.577611
373, 2, bw, attraction, a-b-db, 14, 2, 3, 4, 83, 153, 90, 165, 165, 90, 2, 5.27202
373, 2, bw, attraction, a-b-db, 14, 2, 3, 4, 83, 153, 90, 165, 165, 90, 1, 0.57828
373, 2, bw, catch, NA, 999, 999, 3, 5, 94, 161, 156, 159, 133, 62, 2, 0.744767
373, 2, bw, catch, NA, 999, 999, 3, 5, 94, 161, 156, 159, 133, 62, 3, 0.97777
373, 2, bw, filler, NA, 999, 999, 3, 6, 131, 147, 183, 189, 110, 171, 2, 2.53614
373, 2, bw, filler, NA, 999, 999, 3, 6, 131, 147, 183, 189, 110, 171, 1, 0.641226
373, 2, bw, filler, NA, 999, 999, 3, 7, 169, 98, 159, 82, 107, 137, 3, 1.82105
373, 2, bw, filler, NA, 999, 999, 3, 7, 169, 98, 159, 82, 107, 137, 2, 0.418461
373, 2, bw, filler, NA, 999, 999, 3, 8, 86, 162, 162, 159, 179, 84, 2, 1.23968
373, 2, bw, filler, NA, 999, 999, 3, 8, 86, 162, 162, 159, 179, 84, 1, 1.10852
373, 2, bw, filler, NA, 999, 999, 3, 9, 123, 93, 155, 141, 104, 79, 2, 1.49337
373, 2, bw, filler, NA, 999, 999, 3, 9, 123, 93, 155, 141, 104, 79, 3, 0.88825
373, 2, bw, attraction, a-b-da, 5, 2, 3, 10, 90, 165, 161, 88, 165, 90, 1, 1.49047
373, 2, bw, attraction, a-b-da, 5, 2, 3, 10, 90, 165, 161, 88, 165, 90, 3, 0.669436
373, 2, bw, attraction, a-b-db, 5, 1, 3, 11, 135, 60, 60, 135, 58, 132, 2, 1.31247
373, 2, bw, attraction, a-b-db, 5, 1, 3, 11, 135, 60, 60, 135, 58, 132, 3, 1.15492
373, 2, bw, filler, NA, 999, 999, 3, 12, 80, 147, 109, 149, 97, 154, 3, 1.17031
373, 2, bw, filler, NA, 999, 999, 3, 12, 80, 147, 109, 149, 97, 154, 1, 0.537907
373, 2, bw, attraction, a-b-da, 5, 1, 3, 13, 60, 135, 132, 58, 135, 60, 3, 2.01039
373, 2, bw, attraction, a-b-da, 5, 1, 3, 13, 60, 135, 132, 58, 135, 60, 1, 0.448362
373, 2, bw, attraction, a-b-da, 2, 1, 3, 14, 135, 60, 134, 59, 60, 135, 2, 0.932199
373, 2, bw, attraction, a-b-da, 2, 1, 3, 14, 135, 60, 134, 59, 60, 135, 1, 0.629856
373, 2, bw, attraction, a-b-da, 2, 3, 3, 15, 120, 195, 193, 119, 195, 120, 2, 1.8984
373, 2, bw, attraction, a-b-da, 2, 3, 3, 15, 120, 195, 193, 119, 195, 120, 3, 1.46901
373, 2, bw, attraction, a-b-da, 9, 1, 3, 16, 129, 57, 60, 135, 135, 60, 2, 1.23976
373, 2, bw, attraction, a-b-da, 9, 1, 3, 16, 129, 57, 60, 135, 135, 60, 1, 0.500658
373, 2, bw, attraction, a-b-db, 2, 2, 3, 17, 89, 163, 90, 165, 165, 90, 2, 0.902414
373, 2, bw, attraction, a-b-db, 2, 2, 3, 17, 89, 163, 90, 165, 165, 90, 1, 0.497413
373, 2, bw, filler, NA, 999, 999, 3, 18, 122, 150, 101, 156, 123, 122, 2, 0.44324
373, 2, bw, filler, NA, 999, 999, 3, 18, 122, 150, 101, 156, 123, 122, 3, 1.57656
373, 2, bw, attraction, a-b-db, 9, 1, 3, 19, 135, 60, 57, 129, 60, 135, 3, 2.1906
373, 2, bw, attraction, a-b-db, 9, 1, 3, 19, 135, 60, 57, 129, 60, 135, 1, 0.453221
373, 2, bw, attraction, a-b-db, 9, 3, 3, 20, 114, 186, 195, 120, 120, 195, 2, 0.529034
373, 2, bw, attraction, a-b-db, 9, 3, 3, 20, 114, 186, 195, 120, 120, 195, 1, 1.05087
373, 2, bw, catch, NA, 999, 999, 3, 21, 99, 96, 191, 124, 144, 111, 2, 0.718487
373, 2, bw, catch, NA, 999, 999, 3, 21, 99, 96, 191, 124, 144, 111, 1, 0.912875
373, 2, bw, catch, NA, 999, 999, 3, 22, 111, 144, 80, 115, 149, 166, 3, 0.673799
373, 2, bw, catch, NA, 999, 999, 3, 22, 111, 144, 80, 115, 149, 166, 2, 0.557592
373, 2, bw, attraction, a-b-da, 14, 3, 3, 23, 120, 195, 195, 120, 181, 111, 1, 1.99666
373, 2, bw, attraction, a-b-da, 14, 3, 3, 23, 120, 195, 195, 120, 181, 111, 2, 0.571386
373, 2, bw, attraction, a-b-db, 2, 3, 3, 24, 120, 195, 195, 120, 119, 193, 3, 0.914454
373, 2, bw, attraction, a-b-db, 2, 3, 3, 24, 120, 195, 195, 120, 119, 193, 2, 0.492762
373, 2, bw, attraction, a-b-db, 14, 1, 3, 25, 56, 125, 60, 135, 135, 60, 2, 0.870635
373, 2, bw, attraction, a-b-db, 14, 1, 3, 25, 56, 125, 60, 135, 135, 60, 1, 0.683133
373, 2, bw, attraction, a-b-db, 2, 1, 3, 26, 59, 134, 60, 135, 135, 60, 2, 0.85339
373, 2, bw, attraction, a-b-db, 2, 1, 3, 26, 59, 134, 60, 135, 135, 60, 1, 0.522443
373, 2, bw, attraction, a-b-da, 9, 2, 3, 27, 157, 86, 165, 90, 90, 165, 3, 1.33955
373, 2, bw, attraction, a-b-da, 9, 2, 3, 27, 157, 86, 165, 90, 90, 165, 1, 0.612422
373, 2, bw, filler, NA, 999, 999, 3, 28, 193, 88, 94, 159, 79, 172, 2, 1.57749
373, 2, bw, filler, NA, 999, 999, 3, 28, 193, 88, 94, 159, 79, 172, 3, 1.04896
373, 2, bw, attraction, a-b-da, 14, 1, 3, 29, 135, 60, 125, 56, 60, 135, 1, 3.81266
373, 2, bw, attraction, a-b-da, 14, 1, 3, 29, 135, 60, 125, 56, 60, 135, 2, 0.506117
373, 2, bw, attraction, a-b-db, 14, 3, 3, 30, 120, 195, 195, 120, 111, 181, 1, 1.20315
373, 2, bw, attraction, a-b-db, 14, 3, 3, 30, 120, 195, 195, 120, 111, 181, 3, 0.945535
373, 2, bw, attraction, a-b-db, 5, 2, 3, 31, 88, 161, 165, 90, 90, 165, 2, 1.41714
373, 2, bw, attraction, a-b-db, 5, 2, 3, 31, 88, 161, 165, 90, 90, 165, 1, 1.46323
373, 2, bw, filler, NA, 999, 999, 3, 32, 187, 131, 176, 93, 96, 103, 1, 0.890006
373, 2, bw, filler, NA, 999, 999, 3, 32, 187, 131, 176, 93, 96, 103, 3, 0.549074
373, 2, bw, filler, NA, 999, 999, 3, 33, 117, 168, 102, 132, 73, 167, 1, 0.780873
373, 2, bw, filler, NA, 999, 999, 3, 33, 117, 168, 102, 132, 73, 167, 3, 0.6368
373, 2, bw, attraction, a-b-da, 9, 3, 3, 34, 186, 114, 120, 195, 195, 120, 2, 3.625
373, 2, bw, attraction, a-b-da, 9, 3, 3, 34, 186, 114, 120, 195, 195, 120, 1, 0.549824
373, 2, bw, attraction, a-b-da, 14, 2, 3, 35, 90, 165, 153, 83, 165, 90, 2, 0.965612
373, 2, bw, attraction, a-b-da, 14, 2, 3, 35, 90, 165, 153, 83, 165, 90, 3, 0.236511
373, 2, bw, attraction, a-b-da, 5, 3, 3, 36, 190, 117, 195, 120, 120, 195, 2, 2.06651
373, 2, bw, attraction, a-b-da, 5, 3, 3, 36, 190, 117, 195, 120, 120, 195, 1, 1.52658
373, 2, bw, attraction, a-b-da, 2, 2, 3, 37, 90, 165, 165, 90, 163, 89, 2, 0.822617
373, 2, bw, attraction, a-b-da, 2, 2, 3, 37, 90, 165, 165, 90, 163, 89, 3, 0.428363
373, 2, bw, filler, NA, 999, 999, 4, 1, 117, 163, 185, 162, 175, 165, 2, 0.448838
373, 2, bw, filler, NA, 999, 999, 4, 1, 117, 163, 185, 162, 175, 165, 1, 0.542081
373, 2, bw, filler, NA, 999, 999, 4, 2, 111, 82, 87, 73, 67, 184, 3, 1.3257
373, 2, bw, filler, NA, 999, 999, 4, 2, 111, 82, 87, 73, 67, 184, 2, 1.21526
373, 2, bw, filler, NA, 999, 999, 4, 3, 94, 187, 115, 138, 161, 134, 3, 3.61216
373, 2, bw, filler, NA, 999, 999, 4, 3, 94, 187, 115, 138, 161, 134, 2, 0.449637
373, 2, bw, attraction, a-b-db, 2, 2, 4, 4, 89, 163, 165, 90, 90, 165, 2, 1.18967
373, 2, bw, attraction, a-b-db, 2, 2, 4, 4, 89, 163, 165, 90, 90, 165, 1, 0.460387
373, 2, bw, attraction, a-b-db, 2, 3, 4, 5, 119, 193, 120, 195, 195, 120, 2, 2.95164
373, 2, bw, attraction, a-b-db, 2, 3, 4, 5, 119, 193, 120, 195, 195, 120, 1, 1.23215
373, 2, bw, filler, NA, 999, 999, 4, 6, 73, 194, 113, 107, 105, 76, 1, 1.80419
373, 2, bw, filler, NA, 999, 999, 4, 6, 73, 194, 113, 107, 105, 76, 3, 0.370362
373, 2, bw, attraction, a-b-da, 5, 1, 4, 7, 60, 135, 135, 60, 132, 58, 2, 1.54534
373, 2, bw, attraction, a-b-da, 5, 1, 4, 7, 60, 135, 135, 60, 132, 58, 1, 0.418204
373, 2, bw, catch, NA, 999, 999, 4, 8, 155, 160, 159, 96, 62, 133, 1, 0.93559
373, 2, bw, catch, NA, 999, 999, 4, 8, 155, 160, 159, 96, 62, 133, 3, 0.481089
373, 2, bw, attraction, a-b-db, 14, 2, 4, 9, 83, 153, 90, 165, 165, 90, 2, 2.0196
373, 2, bw, attraction, a-b-db, 14, 2, 4, 9, 83, 153, 90, 165, 165, 90, 1, 0.457576
373, 2, bw, attraction, a-b-da, 14, 2, 4, 10, 153, 83, 90, 165, 165, 90, 2, 0.732671
373, 2, bw, attraction, a-b-da, 14, 2, 4, 10, 153, 83, 90, 165, 165, 90, 1, 0.790457
373, 2, bw, filler, NA, 999, 999, 4, 11, 127, 90, 110, 61, 127, 179, 3, 0.644134
373, 2, bw, filler, NA, 999, 999, 4, 11, 127, 90, 110, 61, 127, 179, 2, 0.481233
373, 2, bw, attraction, a-b-da, 9, 3, 4, 12, 120, 195, 195, 120, 186, 114, 2, 0.883789
373, 2, bw, attraction, a-b-da, 9, 3, 4, 12, 120, 195, 195, 120, 186, 114, 3, 0.139324
373, 2, bw, filler, NA, 999, 999, 4, 13, 171, 140, 192, 141, 64, 182, 2, 1.88718
373, 2, bw, filler, NA, 999, 999, 4, 13, 171, 140, 192, 141, 64, 182, 3, 0.642723
373, 2, bw, attraction, a-b-db, 14, 1, 4, 14, 60, 135, 135, 60, 56, 125, 2, 34.3264
373, 2, bw, attraction, a-b-db, 14, 1, 4, 14, 60, 135, 135, 60, 56, 125, 3, 0.6303
373, 2, bw, attraction, a-b-db, 5, 1, 4, 15, 60, 135, 135, 60, 58, 132, 2, 0.474736
373, 2, bw, attraction, a-b-db, 5, 1, 4, 15, 60, 135, 135, 60, 58, 132, 1, 0.550567
373, 2, bw, attraction, a-b-da, 14, 3, 4, 16, 195, 120, 181, 111, 120, 195, 3, 1.10228
373, 2, bw, attraction, a-b-da, 14, 3, 4, 16, 195, 120, 181, 111, 120, 195, 2, 0.409297
373, 2, bw, attraction, a-b-db, 2, 1, 4, 17, 60, 135, 135, 60, 59, 134, 2, 1.15048
373, 2, bw, attraction, a-b-db, 2, 1, 4, 17, 60, 135, 135, 60, 59, 134, 3, 0.559318
373, 2, bw, attraction, a-b-da, 9, 1, 4, 18, 60, 135, 129, 57, 135, 60, 3, 1.03051
373, 2, bw, attraction, a-b-da, 9, 1, 4, 18, 60, 135, 129, 57, 135, 60, 2, 0.364194
373, 2, bw, attraction, a-b-da, 14, 1, 4, 19, 125, 56, 135, 60, 60, 135, 3, 1.37946
373, 2, bw, attraction, a-b-da, 14, 1, 4, 19, 125, 56, 135, 60, 60, 135, 1, 0.658821
373, 2, bw, attraction, a-b-db, 9, 2, 4, 20, 86, 157, 90, 165, 165, 90, 2, 0.613979
373, 2, bw, attraction, a-b-db, 9, 2, 4, 20, 86, 157, 90, 165, 165, 90, 3, 0.484475
373, 2, bw, attraction, a-b-db, 14, 3, 4, 21, 111, 181, 120, 195, 195, 120, 2, 0.718892
373, 2, bw, attraction, a-b-db, 14, 3, 4, 21, 111, 181, 120, 195, 195, 120, 1, 0.537213
373, 2, bw, attraction, a-b-da, 9, 2, 4, 22, 90, 165, 157, 86, 165, 90, 2, 0.74562
373, 2, bw, attraction, a-b-da, 9, 2, 4, 22, 90, 165, 157, 86, 165, 90, 1, 0.586805
373, 2, bw, attraction, a-b-db, 9, 3, 4, 23, 120, 195, 195, 120, 114, 186, 2, 0.465159
373, 2, bw, attraction, a-b-db, 9, 3, 4, 23, 120, 195, 195, 120, 114, 186, 1, 0.765652
373, 2, bw, attraction, a-b-da, 2, 3, 4, 24, 195, 120, 120, 195, 193, 119, 2, 0.572721
373, 2, bw, attraction, a-b-da, 2, 3, 4, 24, 195, 120, 120, 195, 193, 119, 1, 0.700458
373, 2, bw, filler, NA, 999, 999, 4, 25, 97, 66, 187, 113, 159, 56, 2, 0.71823
373, 2, bw, filler, NA, 999, 999, 4, 25, 97, 66, 187, 113, 159, 56, 1, 0.57674
373, 2, bw, attraction, a-b-db, 5, 2, 4, 26, 90, 165, 165, 90, 88, 161, 2, 0.639058
373, 2, bw, attraction, a-b-db, 5, 2, 4, 26, 90, 165, 165, 90, 88, 161, 1, 0.716355
373, 2, bw, filler, NA, 999, 999, 4, 27, 195, 187, 187, 69, 85, 175, 1, 0.82115
373, 2, bw, filler, NA, 999, 999, 4, 27, 195, 187, 187, 69, 85, 175, 2, 0.674911
373, 2, bw, filler, NA, 999, 999, 4, 28, 78, 71, 102, 185, 128, 61, 2, 0.861254
373, 2, bw, filler, NA, 999, 999, 4, 28, 78, 71, 102, 185, 128, 61, 1, 0.441789
373, 2, bw, catch, NA, 999, 999, 4, 29, 102, 93, 100, 155, 125, 190, 2, 0.717463
373, 2, bw, catch, NA, 999, 999, 4, 29, 102, 93, 100, 155, 125, 190, 1, 0.887949
373, 2, bw, filler, NA, 999, 999, 4, 30, 80, 138, 92, 84, 183, 143, 3, 0.730422
373, 2, bw, filler, NA, 999, 999, 4, 30, 80, 138, 92, 84, 183, 143, 2, 0.60399
373, 2, bw, attraction, a-b-da, 5, 3, 4, 31, 195, 120, 190, 117, 120, 195, 2, 0.953696
373, 2, bw, attraction, a-b-da, 5, 3, 4, 31, 195, 120, 190, 117, 120, 195, 1, 0.51415
373, 2, bw, attraction, a-b-da, 5, 2, 4, 32, 90, 165, 161, 88, 165, 90, 2, 1.02713
373, 2, bw, attraction, a-b-da, 5, 2, 4, 32, 90, 165, 161, 88, 165, 90, 3, 0.472856
373, 2, bw, attraction, a-b-db, 5, 3, 4, 33, 120, 195, 117, 190, 195, 120, 2, 0.627215
373, 2, bw, attraction, a-b-db, 5, 3, 4, 33, 120, 195, 117, 190, 195, 120, 1, 0.68103
373, 2, bw, attraction, a-b-da, 2, 2, 4, 34, 165, 90, 90, 165, 163, 89, 2, 0.53942
373, 2, bw, attraction, a-b-da, 2, 2, 4, 34, 165, 90, 90, 165, 163, 89, 1, 0.628666
373, 2, bw, attraction, a-b-da, 2, 1, 4, 35, 135, 60, 134, 59, 60, 135, 1, 1.56099
373, 2, bw, attraction, a-b-da, 2, 1, 4, 35, 135, 60, 134, 59, 60, 135, 2, 0.513148
373, 2, bw, attraction, a-b-db, 9, 1, 4, 36, 60, 135, 135, 60, 57, 129, 1, 0.698245
373, 2, bw, attraction, a-b-db, 9, 1, 4, 36, 60, 135, 135, 60, 57, 129, 2, 0.989393
373, 2, bw, catch, NA, 999, 999, 4, 37, 116, 139, 150, 165, 64, 131, 2, 0.971592
373, 2, bw, catch, NA, 999, 999, 4, 37, 116, 139, 150, 165, 64, 131, 3, 0.827476
373, 2, bw, attraction, a-b-da, 2, 1, 5, 1, 134, 59, 60, 135, 135, 60, 2, 2.10238
373, 2, bw, attraction, a-b-da, 2, 1, 5, 1, 134, 59, 60, 135, 135, 60, 1, 1.1131
373, 2, bw, attraction, a-b-da, 14, 1, 5, 2, 60, 135, 135, 60, 125, 56, 2, 1.37805
373, 2, bw, attraction, a-b-da, 14, 1, 5, 2, 60, 135, 135, 60, 125, 56, 3, 1.21744
373, 2, bw, attraction, a-b-da, 9, 2, 5, 3, 165, 90, 157, 86, 90, 165, 2, 2.28638
373, 2, bw, attraction, a-b-da, 9, 2, 5, 3, 165, 90, 157, 86, 90, 165, 3, 0.553544
373, 2, bw, attraction, a-b-da, 9, 3, 5, 4, 195, 120, 120, 195, 186, 114, 2, 0.56141
373, 2, bw, attraction, a-b-da, 9, 3, 5, 4, 195, 120, 120, 195, 186, 114, 1, 0.905831
373, 2, bw, attraction, a-b-db, 9, 3, 5, 5, 114, 186, 120, 195, 195, 120, 2, 0.60366
373, 2, bw, attraction, a-b-db, 9, 3, 5, 5, 114, 186, 120, 195, 195, 120, 1, 0.626028
373, 2, bw, filler, NA, 999, 999, 5, 6, 153, 102, 133, 86, 97, 149, 1, 2.08628
373, 2, bw, filler, NA, 999, 999, 5, 6, 153, 102, 133, 86, 97, 149, 2, 0.529817
373, 2, bw, attraction, a-b-da, 5, 1, 5, 7, 60, 135, 132, 58, 135, 60, 2, 1.09009
373, 2, bw, attraction, a-b-da, 5, 1, 5, 7, 60, 135, 132, 58, 135, 60, 3, 0.565168
373, 2, bw, attraction, a-b-db, 2, 3, 5, 8, 119, 193, 120, 195, 195, 120, 2, 0.41219
373, 2, bw, attraction, a-b-db, 2, 3, 5, 8, 119, 193, 120, 195, 195, 120, 1, 0.722809
373, 2, bw, filler, NA, 999, 999, 5, 9, 173, 71, 166, 138, 81, 175, 2, 0.547078
373, 2, bw, filler, NA, 999, 999, 5, 9, 173, 71, 166, 138, 81, 175, 3, 0.668261
373, 2, bw, attraction, a-b-db, 2, 2, 5, 10, 89, 163, 90, 165, 165, 90, 3, 1.6393
373, 2, bw, attraction, a-b-db, 2, 2, 5, 10, 89, 163, 90, 165, 165, 90, 1, 0.900013
373, 2, bw, catch, NA, 999, 999, 5, 11, 71, 124, 157, 98, 175, 140, 3, 1.30961
373, 2, bw, catch, NA, 999, 999, 5, 11, 71, 124, 157, 98, 175, 140, 1, 0.591919
373, 2, bw, attraction, a-b-db, 14, 2, 5, 12, 165, 90, 90, 165, 83, 153, 1, 1.65379
373, 2, bw, attraction, a-b-db, 14, 2, 5, 12, 165, 90, 90, 165, 83, 153, 3, 0.385805
373, 2, bw, catch, NA, 999, 999, 5, 13, 149, 166, 151, 104, 92, 103, 1, 0.664274
373, 2, bw, catch, NA, 999, 999, 5, 13, 149, 166, 151, 104, 92, 103, 3, 0.420705
373, 2, bw, attraction, a-b-da, 5, 2, 5, 14, 165, 90, 90, 165, 161, 88, 2, 0.649942
373, 2, bw, attraction, a-b-da, 5, 2, 5, 14, 165, 90, 90, 165, 161, 88, 1, 0.390985
373, 2, bw, attraction, a-b-da, 14, 3, 5, 15, 120, 195, 181, 111, 195, 120, 2, 0.748822
373, 2, bw, attraction, a-b-da, 14, 3, 5, 15, 120, 195, 181, 111, 195, 120, 3, 0.493837
373, 2, bw, attraction, a-b-db, 2, 1, 5, 16, 59, 134, 135, 60, 60, 135, 2, 3.30377
373, 2, bw, attraction, a-b-db, 2, 1, 5, 16, 59, 134, 135, 60, 60, 135, 1, 0.537898
373, 2, bw, filler, NA, 999, 999, 5, 17, 62, 182, 165, 123, 64, 144, 2, 0.722469
373, 2, bw, filler, NA, 999, 999, 5, 17, 62, 182, 165, 123, 64, 144, 3, 0.476166
373, 2, bw, attraction, a-b-db, 9, 1, 5, 18, 60, 135, 57, 129, 135, 60, 3, 1.2626
373, 2, bw, attraction, a-b-db, 9, 1, 5, 18, 60, 135, 57, 129, 135, 60, 2, 0.458826
373, 2, bw, attraction, a-b-db, 14, 3, 5, 19, 120, 195, 111, 181, 195, 120, 3, 1.30216
373, 2, bw, attraction, a-b-db, 14, 3, 5, 19, 120, 195, 111, 181, 195, 120, 2, 0.544812
373, 2, bw, attraction, a-b-da, 14, 2, 5, 20, 90, 165, 153, 83, 165, 90, 2, 0.808728
373, 2, bw, attraction, a-b-da, 14, 2, 5, 20, 90, 165, 153, 83, 165, 90, 1, 0.398957
373, 2, bw, catch, NA, 999, 999, 5, 21, 181, 134, 108, 87, 128, 127, 1, 0.58082
373, 2, bw, catch, NA, 999, 999, 5, 21, 181, 134, 108, 87, 128, 127, 2, 0.412737
373, 2, bw, filler, NA, 999, 999, 5, 22, 119, 132, 155, 189, 122, 82, 2, 1.05779
373, 2, bw, filler, NA, 999, 999, 5, 22, 119, 132, 155, 189, 122, 82, 3, 0.414079
373, 2, bw, attraction, a-b-da, 2, 3, 5, 23, 195, 120, 120, 195, 193, 119, 2, 1.08327
373, 2, bw, attraction, a-b-da, 2, 3, 5, 23, 195, 120, 120, 195, 193, 119, 1, 0.358827
373, 2, bw, filler, NA, 999, 999, 5, 24, 141, 56, 172, 136, 179, 175, 3, 0.86995
373, 2, bw, filler, NA, 999, 999, 5, 24, 141, 56, 172, 136, 179, 175, 1, 5.16256
373, 2, bw, attraction, a-b-db, 5, 2, 5, 25, 90, 165, 88, 161, 165, 90, 3, 1.8001
373, 2, bw, attraction, a-b-db, 5, 2, 5, 25, 90, 165, 88, 161, 165, 90, 2, 0.390837
373, 2, bw, attraction, a-b-db, 5, 3, 5, 26, 120, 195, 195, 120, 117, 190, 2, 13.4767
373, 2, bw, attraction, a-b-db, 5, 3, 5, 26, 120, 195, 195, 120, 117, 190, 1, 0.524481
373, 2, bw, filler, NA, 999, 999, 5, 27, 90, 127, 87, 104, 175, 103, 3, 1.10077
373, 2, bw, filler, NA, 999, 999, 5, 27, 90, 127, 87, 104, 175, 103, 2, 0.375758
373, 2, bw, attraction, a-b-da, 5, 3, 5, 28, 190, 117, 195, 120, 120, 195, 2, 1.43837
373, 2, bw, attraction, a-b-da, 5, 3, 5, 28, 190, 117, 195, 120, 120, 195, 1, 0.707108
373, 2, bw, attraction, a-b-da, 9, 1, 5, 29, 60, 135, 135, 60, 129, 57, 2, 0.948205
373, 2, bw, attraction, a-b-da, 9, 1, 5, 29, 60, 135, 135, 60, 129, 57, 3, 0.365191
373, 2, bw, filler, NA, 999, 999, 5, 30, 171, 89, 106, 149, 166, 172, 3, 0.748426
373, 2, bw, filler, NA, 999, 999, 5, 30, 171, 89, 106, 149, 166, 172, 2, 0.413449
373, 2, bw, filler, NA, 999, 999, 5, 31, 147, 131, 179, 143, 167, 187, 3, 0.754558
373, 2, bw, filler, NA, 999, 999, 5, 31, 147, 131, 179, 143, 167, 187, 2, 0.387024
373, 2, bw, attraction, a-b-db, 14, 1, 5, 32, 56, 125, 135, 60, 60, 135, 2, 2.40146
373, 2, bw, attraction, a-b-db, 14, 1, 5, 32, 56, 125, 135, 60, 60, 135, 1, 0.432069
373, 2, bw, filler, NA, 999, 999, 5, 33, 156, 140, 168, 159, 93, 122, 2, 0.604483
373, 2, bw, filler, NA, 999, 999, 5, 33, 156, 140, 168, 159, 93, 122, 3, 0.450913
373, 2, bw, attraction, a-b-da, 2, 2, 5, 34, 90, 165, 163, 89, 165, 90, 3, 0.878738
373, 2, bw, attraction, a-b-da, 2, 2, 5, 34, 90, 165, 163, 89, 165, 90, 1, 0.906431
373, 2, bw, attraction, a-b-db, 5, 1, 5, 35, 135, 60, 58, 132, 60, 135, 3, 2.0194
373, 2, bw, attraction, a-b-db, 5, 1, 5, 35, 135, 60, 58, 132, 60, 135, 2, 0.385438
373, 2, bw, filler, NA, 999, 999, 5, 36, 181, 89, 122, 108, 159, 70, 1, 3.15188
373, 2, bw, filler, NA, 999, 999, 5, 36, 181, 89, 122, 108, 159, 70, 3, 0.456254
373, 2, bw, attraction, a-b-db, 9, 2, 5, 37, 86, 157, 165, 90, 90, 165, 3, 1.59544
373, 2, bw, attraction, a-b-db, 9, 2, 5, 37, 86, 157, 165, 90, 90, 165, 1, 0.386149
373, 2, bw, attraction, a-b-da, 9, 1, 6, 1, 135, 60, 60, 135, 129, 57, 2, 1.53681
373, 2, bw, attraction, a-b-da, 9, 1, 6, 1, 135, 60, 60, 135, 129, 57, 1, 0.554265
373, 2, bw, attraction, a-b-da, 2, 3, 6, 2, 195, 120, 120, 195, 193, 119, 2, 1.56192
373, 2, bw, attraction, a-b-da, 2, 3, 6, 2, 195, 120, 120, 195, 193, 119, 1, 0.498124
373, 2, bw, attraction, a-b-db, 14, 2, 6, 3, 90, 165, 83, 153, 165, 90, 2, 0.939927
373, 2, bw, attraction, a-b-db, 14, 2, 6, 3, 90, 165, 83, 153, 165, 90, 3, 1.31692
373, 2, bw, attraction, a-b-da, 5, 3, 6, 4, 120, 195, 195, 120, 190, 117, 2, 1.25392
373, 2, bw, attraction, a-b-da, 5, 3, 6, 4, 120, 195, 195, 120, 190, 117, 3, 0.370815
373, 2, bw, attraction, a-b-da, 14, 1, 6, 5, 125, 56, 135, 60, 60, 135, 2, 1.07378
373, 2, bw, attraction, a-b-da, 14, 1, 6, 5, 125, 56, 135, 60, 60, 135, 1, 0.477425
373, 2, bw, filler, NA, 999, 999, 6, 6, 190, 134, 163, 79, 105, 175, 1, 1.20789
373, 2, bw, filler, NA, 999, 999, 6, 6, 190, 134, 163, 79, 105, 175, 2, 0.534177
373, 2, bw, attraction, a-b-da, 2, 1, 6, 7, 134, 59, 60, 135, 135, 60, 2, 0.822704
373, 2, bw, attraction, a-b-da, 2, 1, 6, 7, 134, 59, 60, 135, 135, 60, 3, 0.652414
373, 2, bw, filler, NA, 999, 999, 6, 8, 57, 114, 98, 144, 71, 77, 2, 0.520093
373, 2, bw, filler, NA, 999, 999, 6, 8, 57, 114, 98, 144, 71, 77, 3, 0.705912
373, 2, bw, filler, NA, 999, 999, 6, 9, 115, 183, 106, 76, 108, 119, 1, 0.547583
373, 2, bw, filler, NA, 999, 999, 6, 9, 115, 183, 106, 76, 108, 119, 2, 0.548842
373, 2, bw, attraction, a-b-db, 9, 2, 6, 10, 165, 90, 86, 157, 90, 165, 3, 2.61257
373, 2, bw, attraction, a-b-db, 9, 2, 6, 10, 165, 90, 86, 157, 90, 165, 2, 0.538429
373, 2, bw, attraction, a-b-db, 14, 3, 6, 11, 111, 181, 120, 195, 195, 120, 2, 1.07478
373, 2, bw, attraction, a-b-db, 14, 3, 6, 11, 111, 181, 120, 195, 195, 120, 1, 0.694465
373, 2, bw, attraction, a-b-db, 5, 3, 6, 12, 120, 195, 195, 120, 117, 190, 2, 1.09615
373, 2, bw, attraction, a-b-db, 5, 3, 6, 12, 120, 195, 195, 120, 117, 190, 1, 0.779303
373, 2, bw, catch, NA, 999, 999, 6, 13, 156, 159, 114, 81, 127, 128, 1, 1.64147
373, 2, bw, catch, NA, 999, 999, 6, 13, 156, 159, 114, 81, 127, 128, 2, 0.422254
373, 2, bw, attraction, a-b-db, 9, 1, 6, 14, 60, 135, 57, 129, 135, 60, 3, 1.52336
373, 2, bw, attraction, a-b-db, 9, 1, 6, 14, 60, 135, 57, 129, 135, 60, 1, 0.516876
373, 2, bw, filler, NA, 999, 999, 6, 15, 112, 166, 124, 192, 97, 149, 2, 0.822079
373, 2, bw, filler, NA, 999, 999, 6, 15, 112, 166, 124, 192, 97, 149, 3, 0.467713
373, 2, bw, attraction, a-b-da, 14, 2, 6, 16, 153, 83, 90, 165, 165, 90, 2, 1.27078
373, 2, bw, attraction, a-b-da, 14, 2, 6, 16, 153, 83, 90, 165, 165, 90, 1, 0.435107
373, 2, bw, filler, NA, 999, 999, 6, 17, 58, 144, 60, 82, 90, 116, 3, 0.991635
373, 2, bw, filler, NA, 999, 999, 6, 17, 58, 144, 60, 82, 90, 116, 2, 0.438541
373, 2, bw, attraction, a-b-da, 5, 1, 6, 18, 135, 60, 60, 135, 132, 58, 2, 3.41102
373, 2, bw, attraction, a-b-da, 5, 1, 6, 18, 135, 60, 60, 135, 132, 58, 3, 1.22464
373, 2, bw, attraction, a-b-da, 2, 2, 6, 19, 165, 90, 163, 89, 90, 165, 2, 2.76486
373, 2, bw, attraction, a-b-da, 2, 2, 6, 19, 165, 90, 163, 89, 90, 165, 1, 0.500751
373, 2, bw, attraction, a-b-da, 14, 3, 6, 20, 120, 195, 195, 120, 181, 111, 2, 0.902491
373, 2, bw, attraction, a-b-da, 14, 3, 6, 20, 120, 195, 195, 120, 181, 111, 3, 0.665434
373, 2, bw, catch, NA, 999, 999, 6, 21, 94, 101, 181, 134, 150, 105, 2, 0.700632
373, 2, bw, catch, NA, 999, 999, 6, 21, 94, 101, 181, 134, 150, 105, 1, 0.655566
373, 2, bw, filler, NA, 999, 999, 6, 22, 151, 140, 146, 68, 148, 70, 1, 0.603274
373, 2, bw, filler, NA, 999, 999, 6, 22, 151, 140, 146, 68, 148, 70, 2, 0.386428
373, 2, bw, filler, NA, 999, 999, 6, 23, 122, 76, 135, 152, 105, 100, 2, 0.721031
373, 2, bw, filler, NA, 999, 999, 6, 23, 122, 76, 135, 152, 105, 100, 1, 0.386899
373, 2, bw, filler, NA, 999, 999, 6, 24, 127, 78, 71, 120, 109, 155, 3, 0.785922
373, 2, bw, filler, NA, 999, 999, 6, 24, 127, 78, 71, 120, 109, 155, 2, 0.448901
373, 2, bw, attraction, a-b-db, 9, 3, 6, 25, 120, 195, 114, 186, 195, 120, 2, 1.86869
373, 2, bw, attraction, a-b-db, 9, 3, 6, 25, 120, 195, 114, 186, 195, 120, 3, 0.4169
373, 2, bw, attraction, a-b-db, 2, 1, 6, 26, 60, 135, 59, 134, 135, 60, 2, 4.67007
373, 2, bw, attraction, a-b-db, 2, 1, 6, 26, 60, 135, 59, 134, 135, 60, 3, 0.505114
373, 2, bw, attraction, a-b-db, 2, 2, 6, 27, 165, 90, 89, 163, 90, 165, 2, 1.76292
373, 2, bw, attraction, a-b-db, 2, 2, 6, 27, 165, 90, 89, 163, 90, 165, 3, 0.51501
373, 2, bw, attraction, a-b-db, 5, 1, 6, 28, 58, 132, 60, 135, 135, 60, 2, 0.764104
373, 2, bw, attraction, a-b-db, 5, 1, 6, 28, 58, 132, 60, 135, 135, 60, 3, 0.420509
373, 2, bw, attraction, a-b-db, 2, 3, 6, 29, 119, 193, 120, 195, 195, 120, 2, 0.577748
373, 2, bw, attraction, a-b-db, 2, 3, 6, 29, 119, 193, 120, 195, 195, 120, 3, 0.433383
373, 2, bw, attraction, a-b-da, 9, 3, 6, 30, 120, 195, 186, 114, 195, 120, 2, 0.517997
373, 2, bw, attraction, a-b-da, 9, 3, 6, 30, 120, 195, 186, 114, 195, 120, 1, 3.72037
373, 2, bw, attraction, a-b-da, 9, 2, 6, 31, 157, 86, 165, 90, 90, 165, 3, 0.960487
373, 2, bw, attraction, a-b-da, 9, 2, 6, 31, 157, 86, 165, 90, 90, 165, 2, 0.42482
373, 2, bw, filler, NA, 999, 999, 6, 32, 78, 145, 76, 62, 97, 186, 3, 1.34927
373, 2, bw, filler, NA, 999, 999, 6, 32, 78, 145, 76, 62, 97, 186, 2, 0.542172
373, 2, bw, catch, NA, 999, 999, 6, 33, 91, 104, 119, 136, 167, 148, 3, 0.517981
373, 2, bw, catch, NA, 999, 999, 6, 33, 91, 104, 119, 136, 167, 148, 1, 0.712447
373, 2, bw, attraction, a-b-db, 5, 2, 6, 34, 88, 161, 165, 90, 90, 165, 2, 0.721529
373, 2, bw, attraction, a-b-db, 5, 2, 6, 34, 88, 161, 165, 90, 90, 165, 3, 0.555252
373, 2, bw, attraction, a-b-da, 5, 2, 6, 35, 90, 165, 161, 88, 165, 90, 1, 1.635
373, 2, bw, attraction, a-b-da, 5, 2, 6, 35, 90, 165, 161, 88, 165, 90, 2, 0.600565
373, 2, bw, attraction, a-b-db, 14, 1, 6, 36, 56, 125, 135, 60, 60, 135, 2, 0.814221
373, 2, bw, attraction, a-b-db, 14, 1, 6, 36, 56, 125, 135, 60, 60, 135, 1, 0.532635
373, 2, bw, filler, NA, 999, 999, 6, 37, 128, 61, 147, 145, 137, 127, 2, 0.517104
373, 2, bw, filler, NA, 999, 999, 6, 37, 128, 61, 147, 145, 137, 127, 1, 0.479569
373, 2, bw, catch, NA, 999, 999, 7, 1, 122, 73, 172, 143, 156, 99, 2, 0.514123
373, 2, bw, catch, NA, 999, 999, 7, 1, 122, 73, 172, 143, 156, 99, 1, 0.476593
373, 2, bw, filler, NA, 999, 999, 7, 2, 85, 115, 189, 106, 155, 121, 2, 0.37493
373, 2, bw, filler, NA, 999, 999, 7, 2, 85, 115, 189, 106, 155, 121, 1, 0.502756
373, 2, bw, attraction, a-b-db, 14, 2, 7, 3, 83, 153, 90, 165, 165, 90, 2, 0.392535
373, 2, bw, attraction, a-b-db, 14, 2, 7, 3, 83, 153, 90, 165, 165, 90, 1, 0.487745
373, 2, bw, attraction, a-b-da, 9, 3, 7, 4, 120, 195, 186, 114, 195, 120, 1, 2.60222
373, 2, bw, attraction, a-b-da, 9, 3, 7, 4, 120, 195, 186, 114, 195, 120, 2, 0.472709
373, 2, bw, filler, NA, 999, 999, 7, 5, 94, 161, 77, 187, 57, 98, 2, 1.86724
373, 2, bw, filler, NA, 999, 999, 7, 5, 94, 161, 77, 187, 57, 98, 3, 0.655215
373, 2, bw, attraction, a-b-da, 5, 3, 7, 6, 195, 120, 190, 117, 120, 195, 2, 1.06711
373, 2, bw, attraction, a-b-da, 5, 3, 7, 6, 195, 120, 190, 117, 120, 195, 1, 0.399298
373, 2, bw, attraction, a-b-da, 14, 2, 7, 7, 153, 83, 90, 165, 165, 90, 2, 0.581062
373, 2, bw, attraction, a-b-da, 14, 2, 7, 7, 153, 83, 90, 165, 165, 90, 1, 0.460918
373, 2, bw, attraction, a-b-da, 5, 2, 7, 8, 165, 90, 90, 165, 161, 88, 2, 0.495964
373, 2, bw, attraction, a-b-da, 5, 2, 7, 8, 165, 90, 90, 165, 161, 88, 1, 0.603134
373, 2, bw, attraction, a-b-da, 9, 1, 7, 9, 129, 57, 135, 60, 60, 135, 3, 0.832894
373, 2, bw, attraction, a-b-da, 9, 1, 7, 9, 129, 57, 135, 60, 60, 135, 1, 0.814669
373, 2, bw, attraction, a-b-da, 2, 1, 7, 10, 135, 60, 134, 59, 60, 135, 1, 2.63579
373, 2, bw, attraction, a-b-da, 2, 1, 7, 10, 135, 60, 134, 59, 60, 135, 3, 0.616943
373, 2, bw, attraction, a-b-db, 2, 1, 7, 11, 135, 60, 59, 134, 60, 135, 2, 2.66985
373, 2, bw, attraction, a-b-db, 2, 1, 7, 11, 135, 60, 59, 134, 60, 135, 3, 0.353608
373, 2, bw, filler, NA, 999, 999, 7, 12, 121, 156, 122, 71, 173, 174, 3, 0.673556
373, 2, bw, filler, NA, 999, 999, 7, 12, 121, 156, 122, 71, 173, 174, 2, 0.381289
373, 2, bw, attraction, a-b-da, 2, 2, 7, 13, 165, 90, 163, 89, 90, 165, 2, 0.691782
373, 2, bw, attraction, a-b-da, 2, 2, 7, 13, 165, 90, 163, 89, 90, 165, 3, 0.310937
373, 2, bw, attraction, a-b-da, 14, 3, 7, 14, 181, 111, 195, 120, 120, 195, 2, 0.832045
373, 2, bw, attraction, a-b-da, 14, 3, 7, 14, 181, 111, 195, 120, 120, 195, 1, 0.453713
373, 2, bw, attraction, a-b-db, 14, 3, 7, 15, 111, 181, 120, 195, 195, 120, 2, 0.641547
373, 2, bw, attraction, a-b-db, 14, 3, 7, 15, 111, 181, 120, 195, 195, 120, 1, 0.526688
373, 2, bw, attraction, a-b-da, 2, 3, 7, 16, 193, 119, 195, 120, 120, 195, 2, 0.559097
373, 2, bw, attraction, a-b-da, 2, 3, 7, 16, 193, 119, 195, 120, 120, 195, 3, 0.407517
373, 2, bw, attraction, a-b-db, 2, 2, 7, 17, 90, 165, 89, 163, 165, 90, 2, 0.556702
373, 2, bw, attraction, a-b-db, 2, 2, 7, 17, 90, 165, 89, 163, 165, 90, 1, 0.645149
373, 2, bw, attraction, a-b-db, 9, 3, 7, 18, 120, 195, 195, 120, 114, 186, 2, 0.744912
373, 2, bw, attraction, a-b-db, 9, 3, 7, 18, 120, 195, 195, 120, 114, 186, 3, 0.801968
373, 2, bw, filler, NA, 999, 999, 7, 19, 74, 103, 151, 152, 120, 129, 2, 0.495612
373, 2, bw, filler, NA, 999, 999, 7, 19, 74, 103, 151, 152, 120, 129, 1, 0.426848
373, 2, bw, catch, NA, 999, 999, 7, 20, 170, 145, 110, 85, 117, 138, 1, 0.703249
373, 2, bw, catch, NA, 999, 999, 7, 20, 170, 145, 110, 85, 117, 138, 2, 0.369791
373, 2, bw, attraction, a-b-db, 9, 2, 7, 21, 86, 157, 165, 90, 90, 165, 2, 0.952838
373, 2, bw, attraction, a-b-db, 9, 2, 7, 21, 86, 157, 165, 90, 90, 165, 1, 0.489863
373, 2, bw, attraction, a-b-db, 5, 1, 7, 22, 135, 60, 60, 135, 58, 132, 2, 2.34774
373, 2, bw, attraction, a-b-db, 5, 1, 7, 22, 135, 60, 60, 135, 58, 132, 1, 0.85231
373, 2, bw, filler, NA, 999, 999, 7, 23, 117, 152, 74, 181, 177, 157, 3, 0.728054
373, 2, bw, filler, NA, 999, 999, 7, 23, 117, 152, 74, 181, 177, 157, 2, 0.761696
373, 2, bw, attraction, a-b-db, 2, 3, 7, 24, 195, 120, 119, 193, 120, 195, 2, 3.17679
373, 2, bw, attraction, a-b-db, 2, 3, 7, 24, 195, 120, 119, 193, 120, 195, 3, 0.687751
373, 2, bw, attraction, a-b-db, 14, 1, 7, 25, 135, 60, 60, 135, 56, 125, 2, 1.13004
373, 2, bw, attraction, a-b-db, 14, 1, 7, 25, 135, 60, 60, 135, 56, 125, 3, 0.491673
373, 2, bw, filler, NA, 999, 999, 7, 26, 62, 178, 139, 99, 63, 145, 2, 0.901495
373, 2, bw, filler, NA, 999, 999, 7, 26, 62, 178, 139, 99, 63, 145, 3, 0.850751
373, 2, bw, filler, NA, 999, 999, 7, 27, 155, 67, 153, 155, 123, 115, 2, 0.428122
373, 2, bw, filler, NA, 999, 999, 7, 27, 155, 67, 153, 155, 123, 115, 1, 1.12198
373, 2, bw, attraction, a-b-da, 14, 1, 7, 28, 125, 56, 60, 135, 135, 60, 2, 0.56293
373, 2, bw, attraction, a-b-da, 14, 1, 7, 28, 125, 56, 60, 135, 135, 60, 1, 0.619454
373, 2, bw, filler, NA, 999, 999, 7, 29, 143, 107, 144, 69, 136, 106, 1, 0.856589
373, 2, bw, filler, NA, 999, 999, 7, 29, 143, 107, 144, 69, 136, 106, 2, 0.50891
373, 2, bw, attraction, a-b-da, 9, 2, 7, 30, 90, 165, 165, 90, 157, 86, 2, 0.742213
373, 2, bw, attraction, a-b-da, 9, 2, 7, 30, 90, 165, 165, 90, 157, 86, 3, 0.543133
373, 2, bw, attraction, a-b-db, 9, 1, 7, 31, 60, 135, 57, 129, 135, 60, 2, 0.502806
373, 2, bw, attraction, a-b-db, 9, 1, 7, 31, 60, 135, 57, 129, 135, 60, 1, 0.914003
373, 2, bw, catch, NA, 999, 999, 7, 32, 103, 92, 104, 151, 134, 181, 3, 0.842992
373, 2, bw, catch, NA, 999, 999, 7, 32, 103, 92, 104, 151, 134, 181, 1, 0.440031
373, 2, bw, attraction, a-b-db, 5, 2, 7, 33, 90, 165, 88, 161, 165, 90, 2, 0.635882
373, 2, bw, attraction, a-b-db, 5, 2, 7, 33, 90, 165, 88, 161, 165, 90, 1, 0.553674
373, 2, bw, attraction, a-b-db, 5, 3, 7, 34, 195, 120, 120, 195, 117, 190, 2, 0.433335
373, 2, bw, attraction, a-b-db, 5, 3, 7, 34, 195, 120, 120, 195, 117, 190, 1, 1.20727
373, 2, bw, filler, NA, 999, 999, 7, 35, 119, 165, 169, 181, 172, 175, 2, 0.612267
373, 2, bw, filler, NA, 999, 999, 7, 35, 119, 165, 169, 181, 172, 175, 1, 0.570589
373, 2, bw, attraction, a-b-da, 5, 1, 7, 36, 132, 58, 60, 135, 135, 60, 2, 0.481738
373, 2, bw, attraction, a-b-da, 5, 1, 7, 36, 132, 58, 60, 135, 135, 60, 1, 0.565589
373, 2, bw, filler, NA, 999, 999, 7, 37, 98, 90, 159, 105, 186, 79, 2, 0.724537
373, 2, bw, filler, NA, 999, 999, 7, 37, 98, 90, 159, 105, 186, 79, 1, 0.894333
373, 2, bw, attraction, a-b-db, 14, 2, 8, 1, 165, 90, 83, 153, 90, 165, 2, 0.871976
373, 2, bw, attraction, a-b-db, 14, 2, 8, 1, 165, 90, 83, 153, 90, 165, 1, 0.635702
373, 2, bw, attraction, a-b-da, 5, 3, 8, 2, 190, 117, 120, 195, 195, 120, 2, 0.448075
373, 2, bw, attraction, a-b-da, 5, 3, 8, 2, 190, 117, 120, 195, 195, 120, 1, 0.557378
373, 2, bw, attraction, a-b-db, 5, 3, 8, 3, 117, 190, 120, 195, 195, 120, 2, 0.428512
373, 2, bw, attraction, a-b-db, 5, 3, 8, 3, 117, 190, 120, 195, 195, 120, 1, 0.562235
373, 2, bw, attraction, a-b-da, 5, 1, 8, 4, 135, 60, 60, 135, 132, 58, 2, 1.16933
373, 2, bw, attraction, a-b-da, 5, 1, 8, 4, 135, 60, 60, 135, 132, 58, 1, 0.609634
373, 2, bw, catch, NA, 999, 999, 8, 5, 156, 99, 138, 177, 75, 120, 2, 4.0547
373, 2, bw, catch, NA, 999, 999, 8, 5, 156, 99, 138, 177, 75, 120, 3, 0.394717
373, 2, bw, filler, NA, 999, 999, 8, 6, 75, 179, 152, 112, 108, 99, 2, 0.536545
373, 2, bw, filler, NA, 999, 999, 8, 6, 75, 179, 152, 112, 108, 99, 3, 0.914366
373, 2, bw, attraction, a-b-da, 9, 3, 8, 7, 186, 114, 195, 120, 120, 195, 2, 0.475338
373, 2, bw, attraction, a-b-da, 9, 3, 8, 7, 186, 114, 195, 120, 120, 195, 1, 0.351094
373, 2, bw, attraction, a-b-db, 9, 3, 8, 8, 120, 195, 195, 120, 114, 186, 2, 0.565638
373, 2, bw, attraction, a-b-db, 9, 3, 8, 8, 120, 195, 195, 120, 114, 186, 1, 0.447386
373, 2, bw, attraction, a-b-db, 5, 2, 8, 9, 165, 90, 88, 161, 90, 165, 2, 0.795162
373, 2, bw, attraction, a-b-db, 5, 2, 8, 9, 165, 90, 88, 161, 90, 165, 3, 0.378377
373, 2, bw, filler, NA, 999, 999, 8, 10, 152, 67, 194, 186, 60, 131, 2, 0.296745
373, 2, bw, filler, NA, 999, 999, 8, 10, 152, 67, 194, 186, 60, 131, 3, 0.548055
373, 2, bw, filler, NA, 999, 999, 8, 11, 103, 177, 177, 145, 171, 91, 2, 0.443764
373, 2, bw, filler, NA, 999, 999, 8, 11, 103, 177, 177, 145, 171, 91, 1, 0.969065
373, 2, bw, attraction, a-b-da, 14, 3, 8, 12, 181, 111, 120, 195, 195, 120, 2, 0.647926
373, 2, bw, attraction, a-b-da, 14, 3, 8, 12, 181, 111, 120, 195, 195, 120, 1, 0.429056
373, 2, bw, attraction, a-b-da, 5, 2, 8, 13, 165, 90, 161, 88, 90, 165, 2, 0.617507
373, 2, bw, attraction, a-b-da, 5, 2, 8, 13, 165, 90, 161, 88, 90, 165, 3, 0.375893
373, 2, bw, catch, NA, 999, 999, 8, 14, 182, 133, 133, 62, 94, 161, 2, 0.366436
373, 2, bw, catch, NA, 999, 999, 8, 14, 182, 133, 133, 62, 94, 161, 3, 3.20699
373, 2, bw, filler, NA, 999, 999, 8, 15, 155, 156, 87, 113, 58, 83, 1, 1.01134
373, 2, bw, filler, NA, 999, 999, 8, 15, 155, 156, 87, 113, 58, 83, 3, 0.657595
373, 2, bw, attraction, a-b-da, 2, 3, 8, 16, 193, 119, 120, 195, 195, 120, 2, 0.756645
373, 2, bw, attraction, a-b-da, 2, 3, 8, 16, 193, 119, 120, 195, 195, 120, 1, 0.389019
373, 2, bw, attraction, a-b-da, 2, 1, 8, 17, 135, 60, 134, 59, 60, 135, 3, 1.45152
373, 2, bw, attraction, a-b-da, 2, 1, 8, 17, 135, 60, 134, 59, 60, 135, 2, 0.600297
373, 2, bw, attraction, a-b-db, 9, 2, 8, 18, 165, 90, 90, 165, 86, 157, 1, 0.774156
373, 2, bw, attraction, a-b-db, 9, 2, 8, 18, 165, 90, 90, 165, 86, 157, 2, 0.637898
373, 2, bw, filler, NA, 999, 999, 8, 19, 174, 187, 78, 77, 70, 195, 1, 0.554275
373, 2, bw, filler, NA, 999, 999, 8, 19, 174, 187, 78, 77, 70, 195, 2, 0.346729
373, 2, bw, filler, NA, 999, 999, 8, 20, 76, 115, 105, 191, 81, 122, 2, 0.706576
373, 2, bw, filler, NA, 999, 999, 8, 20, 76, 115, 105, 191, 81, 122, 1, 0.517018
373, 2, bw, filler, NA, 999, 999, 8, 21, 135, 171, 64, 124, 81, 147, 1, 1.54205
373, 2, bw, filler, NA, 999, 999, 8, 21, 135, 171, 64, 124, 81, 147, 2, 0.575019
373, 2, bw, attraction, a-b-db, 5, 1, 8, 22, 58, 132, 135, 60, 60, 135, 2, 0.973278
373, 2, bw, attraction, a-b-db, 5, 1, 8, 22, 58, 132, 135, 60, 60, 135, 1, 0.381114
373, 2, bw, attraction, a-b-db, 2, 2, 8, 23, 165, 90, 89, 163, 90, 165, 3, 1.39554
373, 2, bw, attraction, a-b-db, 2, 2, 8, 23, 165, 90, 89, 163, 90, 165, 2, 1.09836
373, 2, bw, filler, NA, 999, 999, 8, 24, 122, 56, 90, 102, 102, 110, 3, 3.72397
373, 2, bw, filler, NA, 999, 999, 8, 24, 122, 56, 90, 102, 102, 110, 2, 1.54075
373, 2, bw, attraction, a-b-da, 14, 2, 8, 25, 90, 165, 153, 83, 165, 90, 1, 3.35621
373, 2, bw, attraction, a-b-da, 14, 2, 8, 25, 90, 165, 153, 83, 165, 90, 2, 0.467836
373, 2, bw, attraction, a-b-db, 14, 3, 8, 26, 111, 181, 120, 195, 195, 120, 3, 1.12693
373, 2, bw, attraction, a-b-db, 14, 3, 8, 26, 111, 181, 120, 195, 195, 120, 1, 1.08055
373, 2, bw, attraction, a-b-db, 2, 1, 8, 27, 60, 135, 135, 60, 59, 134, 1, 3.36282
373, 2, bw, attraction, a-b-db, 2, 1, 8, 27, 60, 135, 135, 60, 59, 134, 2, 1.05846
373, 2, bw, attraction, a-b-da, 9, 1, 8, 28, 60, 135, 135, 60, 129, 57, 1, 5.74128
373, 2, bw, attraction, a-b-da, 9, 1, 8, 28, 60, 135, 135, 60, 129, 57, 2, 0.556795
373, 2, bw, attraction, a-b-db, 2, 3, 8, 29, 195, 120, 119, 193, 120, 195, 2, 1.07599
373, 2, bw, attraction, a-b-db, 2, 3, 8, 29, 195, 120, 119, 193, 120, 195, 1, 0.567661
373, 2, bw, attraction, a-b-db, 9, 1, 8, 30, 57, 129, 135, 60, 60, 135, 2, 0.654868
373, 2, bw, attraction, a-b-db, 9, 1, 8, 30, 57, 129, 135, 60, 60, 135, 1, 0.779156
373, 2, bw, attraction, a-b-db, 14, 1, 8, 31, 60, 135, 56, 125, 135, 60, 3, 2.73756
373, 2, bw, attraction, a-b-db, 14, 1, 8, 31, 60, 135, 56, 125, 135, 60, 2, 0.458592
373, 2, bw, attraction, a-b-da, 9, 2, 8, 32, 90, 165, 157, 86, 165, 90, 3, 1.58979
373, 2, bw, attraction, a-b-da, 9, 2, 8, 32, 90, 165, 157, 86, 165, 90, 2, 0.64458
373, 2, bw, attraction, a-b-da, 2, 2, 8, 33, 165, 90, 90, 165, 163, 89, 2, 1.47222
373, 2, bw, attraction, a-b-da, 2, 2, 8, 33, 165, 90, 90, 165, 163, 89, 1, 0.835782
373, 2, bw, attraction, a-b-da, 14, 1, 8, 34, 60, 135, 135, 60, 125, 56, 1, 0.848116
373, 2, bw, attraction, a-b-da, 14, 1, 8, 34, 60, 135, 135, 60, 125, 56, 2, 1.24521
373, 2, bw, catch, NA, 999, 999, 8, 35, 94, 161, 139, 176, 108, 87, 2, 0.864736
373, 2, bw, catch, NA, 999, 999, 8, 35, 94, 161, 139, 176, 108, 87, 3, 0.557199
373, 2, bw, filler, NA, 999, 999, 8, 36, 89, 134, 143, 111, 174, 60, 2, 0.964163
373, 2, bw, filler, NA, 999, 999, 8, 36, 89, 134, 143, 111, 174, 60, 1, 0.81286
373, 2, bw, filler, NA, 999, 999, 8, 37, 65, 151, 63, 124, 174, 87, 2, 0.737692
373, 2, bw, filler, NA, 999, 999, 8, 37, 65, 151, 63, 124, 174, 87, 3, 2.01868
