sub_n, computer_n, bw_cond, effect, set, distance, diag, block_n, trial_n, h1, w1, h2, w2, h3, w3, choice, rt 
35, 2, bw, practice, NA, 999, 999, 0, 1, 194, 161, 90, 64, 148, 81, 1, 1.8853
35, 2, bw, practice, NA, 999, 999, 0, 1, 194, 161, 90, 64, 148, 81, 2, 1.78037
35, 2, bw, practice, NA, 999, 999, 0, 2, 80, 56, 111, 96, 64, 161, 2, 3.26303
35, 2, bw, practice, NA, 999, 999, 0, 2, 80, 56, 111, 96, 64, 161, 1, 1.42612
35, 2, bw, practice, NA, 999, 999, 0, 3, 184, 157, 65, 175, 146, 126, 1, 1.96861
35, 2, bw, practice, NA, 999, 999, 0, 3, 184, 157, 65, 175, 146, 126, 2, 2.00831
35, 2, bw, catch, NA, 999, 999, 1, 1, 160, 155, 160, 95, 84, 111, 1, 1.2925
35, 2, bw, catch, NA, 999, 999, 1, 1, 160, 155, 160, 95, 84, 111, 3, 0.959252
35, 2, bw, attraction, a-b-db, 5, 1, 1, 2, 58, 132, 135, 60, 60, 135, 3, 11.3994
35, 2, bw, attraction, a-b-db, 5, 1, 1, 2, 58, 132, 135, 60, 60, 135, 1, 1.29
35, 2, bw, attraction, a-b-db, 2, 2, 1, 3, 90, 165, 89, 163, 165, 90, 1, 3.10757
35, 2, bw, attraction, a-b-db, 2, 2, 1, 3, 90, 165, 89, 163, 165, 90, 2, 3.59725
35, 2, bw, attraction, a-b-db, 9, 2, 1, 4, 86, 157, 165, 90, 90, 165, 3, 1.85005
35, 2, bw, attraction, a-b-db, 9, 2, 1, 4, 86, 157, 165, 90, 90, 165, 1, 0.766831
35, 2, bw, attraction, a-b-da, 14, 3, 1, 5, 120, 195, 195, 120, 181, 111, 1, 5.50982
35, 2, bw, attraction, a-b-da, 14, 3, 1, 5, 120, 195, 195, 120, 181, 111, 3, 0.71874
35, 2, bw, attraction, a-b-da, 5, 3, 1, 6, 120, 195, 195, 120, 190, 117, 1, 1.9037
35, 2, bw, attraction, a-b-da, 5, 3, 1, 6, 120, 195, 195, 120, 190, 117, 3, 0.642405
35, 2, bw, filler, NA, 999, 999, 1, 7, 75, 145, 107, 127, 165, 195, 3, 1.19829
35, 2, bw, filler, NA, 999, 999, 1, 7, 75, 145, 107, 127, 165, 195, 1, 0.461206
35, 2, bw, catch, NA, 999, 999, 1, 8, 92, 103, 107, 148, 150, 165, 3, 0.936285
35, 2, bw, catch, NA, 999, 999, 1, 8, 92, 103, 107, 148, 150, 165, 1, 0.458035
35, 2, bw, attraction, a-b-da, 2, 3, 1, 9, 195, 120, 193, 119, 120, 195, 3, 4.36506
35, 2, bw, attraction, a-b-da, 2, 3, 1, 9, 195, 120, 193, 119, 120, 195, 1, 0.436553
35, 2, bw, filler, NA, 999, 999, 1, 10, 149, 129, 182, 126, 92, 192, 2, 2.12087
35, 2, bw, filler, NA, 999, 999, 1, 10, 149, 129, 182, 126, 92, 192, 3, 1.14613
35, 2, bw, attraction, a-b-da, 2, 2, 1, 11, 163, 89, 165, 90, 90, 165, 2, 3.2258
35, 2, bw, attraction, a-b-da, 2, 2, 1, 11, 163, 89, 165, 90, 90, 165, 1, 1.84671
35, 2, bw, attraction, a-b-db, 14, 3, 1, 12, 111, 181, 120, 195, 195, 120, 2, 2.56205
35, 2, bw, attraction, a-b-db, 14, 3, 1, 12, 111, 181, 120, 195, 195, 120, 1, 0.537953
35, 2, bw, attraction, a-b-da, 9, 3, 1, 13, 195, 120, 120, 195, 186, 114, 2, 1.7863
35, 2, bw, attraction, a-b-da, 9, 3, 1, 13, 195, 120, 120, 195, 186, 114, 3, 0.417781
35, 2, bw, filler, NA, 999, 999, 1, 14, 179, 160, 65, 187, 172, 146, 1, 1.36703
35, 2, bw, filler, NA, 999, 999, 1, 14, 179, 160, 65, 187, 172, 146, 2, 0.6552
35, 2, bw, attraction, a-b-db, 14, 2, 1, 15, 90, 165, 83, 153, 165, 90, 1, 1.61087
35, 2, bw, attraction, a-b-db, 14, 2, 1, 15, 90, 165, 83, 153, 165, 90, 2, 1.03303
35, 2, bw, filler, NA, 999, 999, 1, 16, 76, 79, 180, 185, 118, 59, 2, 0.981289
35, 2, bw, filler, NA, 999, 999, 1, 16, 76, 79, 180, 185, 118, 59, 1, 0.668988
35, 2, bw, attraction, a-b-da, 14, 1, 1, 17, 125, 56, 60, 135, 135, 60, 3, 1.99198
35, 2, bw, attraction, a-b-da, 14, 1, 1, 17, 125, 56, 60, 135, 135, 60, 1, 0.718779
35, 2, bw, attraction, a-b-db, 5, 3, 1, 18, 195, 120, 117, 190, 120, 195, 1, 2.31169
35, 2, bw, attraction, a-b-db, 5, 3, 1, 18, 195, 120, 117, 190, 120, 195, 2, 1.22562
35, 2, bw, filler, NA, 999, 999, 1, 19, 79, 193, 121, 142, 161, 150, 3, 1.66989
35, 2, bw, filler, NA, 999, 999, 1, 19, 79, 193, 121, 142, 161, 150, 1, 0.817948
35, 2, bw, filler, NA, 999, 999, 1, 20, 130, 88, 138, 140, 101, 143, 2, 1.407
35, 2, bw, filler, NA, 999, 999, 1, 20, 130, 88, 138, 140, 101, 143, 1, 0.605202
35, 2, bw, attraction, a-b-db, 9, 3, 1, 21, 195, 120, 120, 195, 114, 186, 1, 1.16296
35, 2, bw, attraction, a-b-db, 9, 3, 1, 21, 195, 120, 120, 195, 114, 186, 3, 0.96331
35, 2, bw, attraction, a-b-db, 2, 3, 1, 22, 120, 195, 119, 193, 195, 120, 2, 2.06626
35, 2, bw, attraction, a-b-db, 2, 3, 1, 22, 120, 195, 119, 193, 195, 120, 3, 0.774256
35, 2, bw, filler, NA, 999, 999, 1, 23, 118, 155, 107, 156, 180, 98, 1, 1.69258
35, 2, bw, filler, NA, 999, 999, 1, 23, 118, 155, 107, 156, 180, 98, 2, 0.911389
35, 2, bw, attraction, a-b-da, 5, 1, 1, 24, 60, 135, 135, 60, 132, 58, 2, 2.37635
35, 2, bw, attraction, a-b-da, 5, 1, 1, 24, 60, 135, 135, 60, 132, 58, 1, 0.511586
35, 2, bw, attraction, a-b-db, 14, 1, 1, 25, 56, 125, 60, 135, 135, 60, 2, 1.91289
35, 2, bw, attraction, a-b-db, 14, 1, 1, 25, 56, 125, 60, 135, 135, 60, 1, 0.866788
35, 2, bw, attraction, a-b-da, 9, 2, 1, 26, 157, 86, 165, 90, 90, 165, 3, 1.67774
35, 2, bw, attraction, a-b-da, 9, 2, 1, 26, 157, 86, 165, 90, 90, 165, 1, 1.16115
35, 2, bw, attraction, a-b-db, 5, 2, 1, 27, 90, 165, 88, 161, 165, 90, 1, 1.84811
35, 2, bw, attraction, a-b-db, 5, 2, 1, 27, 90, 165, 88, 161, 165, 90, 3, 1.70098
35, 2, bw, filler, NA, 999, 999, 1, 28, 56, 134, 62, 96, 89, 139, 3, 0.814284
35, 2, bw, filler, NA, 999, 999, 1, 28, 56, 134, 62, 96, 89, 139, 2, 0.692573
35, 2, bw, catch, NA, 999, 999, 1, 29, 116, 139, 161, 154, 75, 120, 2, 0.974416
35, 2, bw, catch, NA, 999, 999, 1, 29, 116, 139, 161, 154, 75, 120, 3, 0.366036
35, 2, bw, attraction, a-b-da, 14, 2, 1, 30, 165, 90, 153, 83, 90, 165, 3, 1.81315
35, 2, bw, attraction, a-b-da, 14, 2, 1, 30, 165, 90, 153, 83, 90, 165, 2, 0.419331
35, 2, bw, attraction, a-b-da, 5, 2, 1, 31, 161, 88, 90, 165, 165, 90, 2, 1.26443
35, 2, bw, attraction, a-b-da, 5, 2, 1, 31, 161, 88, 90, 165, 165, 90, 1, 0.724583
35, 2, bw, attraction, a-b-db, 2, 1, 1, 32, 59, 134, 135, 60, 60, 135, 2, 1.99706
35, 2, bw, attraction, a-b-db, 2, 1, 1, 32, 59, 134, 135, 60, 60, 135, 3, 0.883741
35, 2, bw, filler, NA, 999, 999, 1, 33, 56, 116, 155, 141, 84, 159, 2, 1.11003
35, 2, bw, filler, NA, 999, 999, 1, 33, 56, 116, 155, 141, 84, 159, 1, 0.62435
35, 2, bw, attraction, a-b-da, 2, 1, 1, 34, 60, 135, 135, 60, 134, 59, 1, 1.81277
35, 2, bw, attraction, a-b-da, 2, 1, 1, 34, 60, 135, 135, 60, 134, 59, 2, 0.458791
35, 2, bw, attraction, a-b-db, 9, 1, 1, 35, 135, 60, 57, 129, 60, 135, 1, 0.981876
35, 2, bw, attraction, a-b-db, 9, 1, 1, 35, 135, 60, 57, 129, 60, 135, 2, 0.597585
35, 2, bw, attraction, a-b-da, 9, 1, 1, 36, 129, 57, 135, 60, 60, 135, 2, 1.32339
35, 2, bw, attraction, a-b-da, 9, 1, 1, 36, 129, 57, 135, 60, 60, 135, 1, 0.708928
35, 2, bw, filler, NA, 999, 999, 1, 37, 123, 178, 69, 60, 177, 84, 1, 0.710025
35, 2, bw, filler, NA, 999, 999, 1, 37, 123, 178, 69, 60, 177, 84, 2, 0.648442
35, 2, bw, attraction, a-b-db, 9, 3, 2, 1, 120, 195, 114, 186, 195, 120, 1, 2.42815
35, 2, bw, attraction, a-b-db, 9, 3, 2, 1, 120, 195, 114, 186, 195, 120, 2, 0.51351
35, 2, bw, attraction, a-b-da, 14, 1, 2, 2, 135, 60, 125, 56, 60, 135, 1, 1.16256
35, 2, bw, attraction, a-b-da, 14, 1, 2, 2, 135, 60, 125, 56, 60, 135, 2, 0.898704
35, 2, bw, filler, NA, 999, 999, 2, 3, 175, 116, 133, 121, 140, 165, 3, 1.52433
35, 2, bw, filler, NA, 999, 999, 2, 3, 175, 116, 133, 121, 140, 165, 2, 1.28605
35, 2, bw, filler, NA, 999, 999, 2, 4, 171, 179, 123, 131, 89, 63, 1, 1.3361
35, 2, bw, filler, NA, 999, 999, 2, 4, 171, 179, 123, 131, 89, 63, 3, 0.481805
35, 2, bw, attraction, a-b-db, 14, 2, 2, 5, 165, 90, 83, 153, 90, 165, 1, 1.14816
35, 2, bw, attraction, a-b-db, 14, 2, 2, 5, 165, 90, 83, 153, 90, 165, 2, 0.517063
35, 2, bw, attraction, a-b-db, 9, 1, 2, 6, 135, 60, 60, 135, 57, 129, 2, 1.7582
35, 2, bw, attraction, a-b-db, 9, 1, 2, 6, 135, 60, 60, 135, 57, 129, 3, 1.12629
35, 2, bw, attraction, a-b-db, 5, 3, 2, 7, 120, 195, 195, 120, 117, 190, 2, 2.35853
35, 2, bw, attraction, a-b-db, 5, 3, 2, 7, 120, 195, 195, 120, 117, 190, 3, 0.33446
35, 2, bw, attraction, a-b-da, 5, 1, 2, 8, 60, 135, 132, 58, 135, 60, 3, 1.47089
35, 2, bw, attraction, a-b-da, 5, 1, 2, 8, 60, 135, 132, 58, 135, 60, 2, 0.578493
35, 2, bw, attraction, a-b-da, 9, 1, 2, 9, 60, 135, 129, 57, 135, 60, 3, 1.0889
35, 2, bw, attraction, a-b-da, 9, 1, 2, 9, 60, 135, 129, 57, 135, 60, 2, 0.443868
35, 2, bw, filler, NA, 999, 999, 2, 10, 191, 139, 121, 68, 103, 191, 1, 1.02373
35, 2, bw, filler, NA, 999, 999, 2, 10, 191, 139, 121, 68, 103, 191, 2, 0.333296
35, 2, bw, attraction, a-b-da, 2, 1, 2, 11, 135, 60, 134, 59, 60, 135, 2, 1.15784
35, 2, bw, attraction, a-b-da, 2, 1, 2, 11, 135, 60, 134, 59, 60, 135, 1, 0.646075
35, 2, bw, attraction, a-b-db, 14, 3, 2, 12, 195, 120, 111, 181, 120, 195, 3, 1.59381
35, 2, bw, attraction, a-b-db, 14, 3, 2, 12, 195, 120, 111, 181, 120, 195, 2, 0.672672
35, 2, bw, attraction, a-b-da, 9, 3, 2, 13, 186, 114, 120, 195, 195, 120, 2, 0.955611
35, 2, bw, attraction, a-b-da, 9, 3, 2, 13, 186, 114, 120, 195, 195, 120, 1, 0.396022
35, 2, bw, attraction, a-b-da, 2, 2, 2, 14, 165, 90, 90, 165, 163, 89, 2, 1.74585
35, 2, bw, attraction, a-b-da, 2, 2, 2, 14, 165, 90, 90, 165, 163, 89, 1, 0.714643
35, 2, bw, filler, NA, 999, 999, 2, 15, 169, 188, 160, 68, 153, 155, 1, 0.803694
35, 2, bw, filler, NA, 999, 999, 2, 15, 169, 188, 160, 68, 153, 155, 2, 0.562069
35, 2, bw, catch, NA, 999, 999, 2, 16, 120, 195, 97, 158, 107, 88, 1, 0.849265
35, 2, bw, catch, NA, 999, 999, 2, 16, 120, 195, 97, 158, 107, 88, 3, 0.726274
35, 2, bw, attraction, a-b-db, 9, 2, 2, 17, 90, 165, 165, 90, 86, 157, 1, 1.71869
35, 2, bw, attraction, a-b-db, 9, 2, 2, 17, 90, 165, 165, 90, 86, 157, 2, 0.376808
35, 2, bw, attraction, a-b-da, 9, 2, 2, 18, 90, 165, 157, 86, 165, 90, 1, 1.23912
35, 2, bw, attraction, a-b-da, 9, 2, 2, 18, 90, 165, 157, 86, 165, 90, 2, 0.372025
35, 2, bw, catch, NA, 999, 999, 2, 19, 161, 154, 113, 82, 125, 130, 1, 0.723158
35, 2, bw, catch, NA, 999, 999, 2, 19, 161, 154, 113, 82, 125, 130, 2, 0.461015
35, 2, bw, filler, NA, 999, 999, 2, 20, 64, 136, 151, 159, 169, 112, 2, 0.680062
35, 2, bw, filler, NA, 999, 999, 2, 20, 64, 136, 151, 159, 169, 112, 1, 0.571901
35, 2, bw, attraction, a-b-da, 5, 2, 2, 21, 161, 88, 90, 165, 165, 90, 3, 1.17094
35, 2, bw, attraction, a-b-da, 5, 2, 2, 21, 161, 88, 90, 165, 165, 90, 2, 0.338578
35, 2, bw, attraction, a-b-db, 2, 1, 2, 22, 59, 134, 60, 135, 135, 60, 2, 1.17108
35, 2, bw, attraction, a-b-db, 2, 1, 2, 22, 59, 134, 60, 135, 135, 60, 1, 0.402732
35, 2, bw, filler, NA, 999, 999, 2, 23, 81, 170, 101, 110, 117, 156, 3, 1.02459
35, 2, bw, filler, NA, 999, 999, 2, 23, 81, 170, 101, 110, 117, 156, 2, 0.430135
35, 2, bw, attraction, a-b-db, 2, 3, 2, 24, 195, 120, 119, 193, 120, 195, 1, 1.05054
35, 2, bw, attraction, a-b-db, 2, 3, 2, 24, 195, 120, 119, 193, 120, 195, 2, 1.14365
35, 2, bw, catch, NA, 999, 999, 2, 25, 109, 146, 117, 78, 139, 176, 3, 0.783292
35, 2, bw, catch, NA, 999, 999, 2, 25, 109, 146, 117, 78, 139, 176, 2, 0.50291
35, 2, bw, attraction, a-b-da, 14, 2, 2, 26, 90, 165, 153, 83, 165, 90, 1, 1.54463
35, 2, bw, attraction, a-b-da, 14, 2, 2, 26, 90, 165, 153, 83, 165, 90, 2, 0.705513
35, 2, bw, attraction, a-b-db, 14, 1, 2, 27, 56, 125, 135, 60, 60, 135, 3, 1.20313
35, 2, bw, attraction, a-b-db, 14, 1, 2, 27, 56, 125, 135, 60, 60, 135, 2, 0.410162
35, 2, bw, attraction, a-b-db, 5, 2, 2, 28, 88, 161, 165, 90, 90, 165, 1, 1.23134
35, 2, bw, attraction, a-b-db, 5, 2, 2, 28, 88, 161, 165, 90, 90, 165, 2, 0.396959
35, 2, bw, filler, NA, 999, 999, 2, 29, 143, 79, 120, 123, 123, 141, 3, 1.08279
35, 2, bw, filler, NA, 999, 999, 2, 29, 143, 79, 120, 123, 123, 141, 1, 0.814381
35, 2, bw, attraction, a-b-da, 2, 3, 2, 30, 195, 120, 120, 195, 193, 119, 2, 1.53136
35, 2, bw, attraction, a-b-da, 2, 3, 2, 30, 195, 120, 120, 195, 193, 119, 1, 0.564852
35, 2, bw, attraction, a-b-db, 2, 2, 2, 31, 165, 90, 90, 165, 89, 163, 2, 2.29205
35, 2, bw, attraction, a-b-db, 2, 2, 2, 31, 165, 90, 90, 165, 89, 163, 1, 1.09464
35, 2, bw, attraction, a-b-db, 5, 1, 2, 32, 135, 60, 58, 132, 60, 135, 3, 1.70416
35, 2, bw, attraction, a-b-db, 5, 1, 2, 32, 135, 60, 58, 132, 60, 135, 1, 0.770225
35, 2, bw, filler, NA, 999, 999, 2, 33, 68, 81, 97, 167, 100, 97, 2, 0.977245
35, 2, bw, filler, NA, 999, 999, 2, 33, 68, 81, 97, 167, 100, 97, 1, 0.48903
35, 2, bw, filler, NA, 999, 999, 2, 34, 158, 56, 185, 116, 164, 117, 2, 1.19546
35, 2, bw, filler, NA, 999, 999, 2, 34, 158, 56, 185, 116, 164, 117, 1, 0.562361
35, 2, bw, attraction, a-b-da, 5, 3, 2, 35, 195, 120, 120, 195, 190, 117, 2, 1.5534
35, 2, bw, attraction, a-b-da, 5, 3, 2, 35, 195, 120, 120, 195, 190, 117, 3, 0.849637
35, 2, bw, filler, NA, 999, 999, 2, 36, 122, 192, 165, 195, 81, 166, 2, 0.685255
35, 2, bw, filler, NA, 999, 999, 2, 36, 122, 192, 165, 195, 81, 166, 3, 1.02512
35, 2, bw, attraction, a-b-da, 14, 3, 2, 37, 195, 120, 181, 111, 120, 195, 1, 0.917322
35, 2, bw, attraction, a-b-da, 14, 3, 2, 37, 195, 120, 181, 111, 120, 195, 2, 0.967768
35, 2, bw, attraction, a-b-db, 5, 3, 3, 1, 195, 120, 117, 190, 120, 195, 1, 2.99867
35, 2, bw, attraction, a-b-db, 5, 3, 3, 1, 195, 120, 117, 190, 120, 195, 2, 0.589031
35, 2, bw, filler, NA, 999, 999, 3, 2, 113, 137, 87, 146, 169, 93, 1, 1.7075
35, 2, bw, filler, NA, 999, 999, 3, 2, 113, 137, 87, 146, 169, 93, 2, 0.47754
35, 2, bw, attraction, a-b-da, 5, 2, 3, 3, 165, 90, 90, 165, 161, 88, 2, 1.95198
35, 2, bw, attraction, a-b-da, 5, 2, 3, 3, 165, 90, 90, 165, 161, 88, 1, 0.408743
35, 2, bw, attraction, a-b-da, 14, 1, 3, 4, 125, 56, 60, 135, 135, 60, 2, 1.54991
35, 2, bw, attraction, a-b-da, 14, 1, 3, 4, 125, 56, 60, 135, 135, 60, 1, 0.470703
35, 2, bw, attraction, a-b-db, 9, 2, 3, 5, 165, 90, 86, 157, 90, 165, 1, 0.945927
35, 2, bw, attraction, a-b-db, 9, 2, 3, 5, 165, 90, 86, 157, 90, 165, 2, 0.746836
35, 2, bw, attraction, a-b-db, 5, 1, 3, 6, 135, 60, 60, 135, 58, 132, 2, 2.14647
35, 2, bw, attraction, a-b-db, 5, 1, 3, 6, 135, 60, 60, 135, 58, 132, 1, 0.667099
35, 2, bw, filler, NA, 999, 999, 3, 7, 188, 191, 117, 141, 106, 100, 1, 0.598197
35, 2, bw, filler, NA, 999, 999, 3, 7, 188, 191, 117, 141, 106, 100, 3, 0.765315
35, 2, bw, attraction, a-b-da, 14, 3, 3, 8, 120, 195, 181, 111, 195, 120, 1, 1.27651
35, 2, bw, attraction, a-b-da, 14, 3, 3, 8, 120, 195, 181, 111, 195, 120, 2, 0.400076
35, 2, bw, catch, NA, 999, 999, 3, 9, 120, 135, 62, 133, 192, 123, 3, 0.813782
35, 2, bw, catch, NA, 999, 999, 3, 9, 120, 135, 62, 133, 192, 123, 2, 0.5402
35, 2, bw, attraction, a-b-da, 5, 1, 3, 10, 135, 60, 60, 135, 132, 58, 2, 1.21196
35, 2, bw, attraction, a-b-da, 5, 1, 3, 10, 135, 60, 60, 135, 132, 58, 1, 0.570272
35, 2, bw, catch, NA, 999, 999, 3, 11, 154, 101, 74, 121, 170, 145, 3, 0.681333
35, 2, bw, catch, NA, 999, 999, 3, 11, 154, 101, 74, 121, 170, 145, 2, 0.509092
35, 2, bw, attraction, a-b-da, 9, 3, 3, 12, 186, 114, 120, 195, 195, 120, 2, 0.918273
35, 2, bw, attraction, a-b-da, 9, 3, 3, 12, 186, 114, 120, 195, 195, 120, 1, 0.376573
35, 2, bw, filler, NA, 999, 999, 3, 13, 88, 171, 128, 195, 77, 139, 2, 0.767058
35, 2, bw, filler, NA, 999, 999, 3, 13, 88, 171, 128, 195, 77, 139, 3, 0.487483
35, 2, bw, filler, NA, 999, 999, 3, 14, 121, 142, 64, 133, 109, 68, 1, 0.649873
35, 2, bw, filler, NA, 999, 999, 3, 14, 121, 142, 64, 133, 109, 68, 2, 0.551025
35, 2, bw, filler, NA, 999, 999, 3, 15, 62, 115, 170, 70, 57, 191, 2, 0.670741
35, 2, bw, filler, NA, 999, 999, 3, 15, 62, 115, 170, 70, 57, 191, 1, 0.330625
35, 2, bw, attraction, a-b-db, 14, 3, 3, 16, 120, 195, 195, 120, 111, 181, 1, 0.93099
35, 2, bw, attraction, a-b-db, 14, 3, 3, 16, 120, 195, 195, 120, 111, 181, 2, 0.292739
35, 2, bw, attraction, a-b-da, 2, 1, 3, 17, 134, 59, 135, 60, 60, 135, 3, 1.16654
35, 2, bw, attraction, a-b-da, 2, 1, 3, 17, 134, 59, 135, 60, 60, 135, 2, 0.398827
35, 2, bw, attraction, a-b-da, 2, 3, 3, 18, 120, 195, 193, 119, 195, 120, 1, 1.03661
35, 2, bw, attraction, a-b-da, 2, 3, 3, 18, 120, 195, 193, 119, 195, 120, 2, 0.353605
35, 2, bw, filler, NA, 999, 999, 3, 19, 147, 83, 123, 106, 66, 152, 1, 1.55339
35, 2, bw, filler, NA, 999, 999, 3, 19, 147, 83, 123, 106, 66, 152, 3, 0.433625
35, 2, bw, attraction, a-b-db, 2, 1, 3, 20, 59, 134, 135, 60, 60, 135, 1, 1.1501
35, 2, bw, attraction, a-b-db, 2, 1, 3, 20, 59, 134, 135, 60, 60, 135, 2, 0.455067
35, 2, bw, attraction, a-b-da, 9, 2, 3, 21, 90, 165, 165, 90, 157, 86, 1, 0.914838
35, 2, bw, attraction, a-b-da, 9, 2, 3, 21, 90, 165, 165, 90, 157, 86, 3, 0.925224
35, 2, bw, attraction, a-b-da, 14, 2, 3, 22, 90, 165, 153, 83, 165, 90, 1, 0.925501
35, 2, bw, attraction, a-b-da, 14, 2, 3, 22, 90, 165, 153, 83, 165, 90, 2, 0.503262
35, 2, bw, filler, NA, 999, 999, 3, 23, 179, 88, 195, 168, 75, 62, 2, 0.585036
35, 2, bw, filler, NA, 999, 999, 3, 23, 179, 88, 195, 168, 75, 62, 3, 0.448841
35, 2, bw, attraction, a-b-da, 2, 2, 3, 24, 90, 165, 163, 89, 165, 90, 1, 1.10863
35, 2, bw, attraction, a-b-da, 2, 2, 3, 24, 90, 165, 163, 89, 165, 90, 2, 0.446929
35, 2, bw, attraction, a-b-db, 9, 1, 3, 25, 135, 60, 60, 135, 57, 129, 2, 1.6747
35, 2, bw, attraction, a-b-db, 9, 1, 3, 25, 135, 60, 60, 135, 57, 129, 3, 0.318139
35, 2, bw, attraction, a-b-db, 14, 1, 3, 26, 56, 125, 60, 135, 135, 60, 2, 1.61532
35, 2, bw, attraction, a-b-db, 14, 1, 3, 26, 56, 125, 60, 135, 135, 60, 1, 0.573435
35, 2, bw, attraction, a-b-db, 2, 2, 3, 27, 165, 90, 89, 163, 90, 165, 1, 1.09183
35, 2, bw, attraction, a-b-db, 2, 2, 3, 27, 165, 90, 89, 163, 90, 165, 2, 0.382921
35, 2, bw, attraction, a-b-db, 5, 2, 3, 28, 165, 90, 88, 161, 90, 165, 2, 1.0053
35, 2, bw, attraction, a-b-db, 5, 2, 3, 28, 165, 90, 88, 161, 90, 165, 3, 0.803668
35, 2, bw, attraction, a-b-db, 9, 3, 3, 29, 114, 186, 120, 195, 195, 120, 2, 1.4093
35, 2, bw, attraction, a-b-db, 9, 3, 3, 29, 114, 186, 120, 195, 195, 120, 1, 0.303491
35, 2, bw, filler, NA, 999, 999, 3, 30, 96, 61, 120, 175, 104, 94, 2, 0.585339
35, 2, bw, filler, NA, 999, 999, 3, 30, 96, 61, 120, 175, 104, 94, 1, 0.425186
35, 2, bw, attraction, a-b-db, 2, 3, 3, 31, 195, 120, 120, 195, 119, 193, 1, 1.22977
35, 2, bw, attraction, a-b-db, 2, 3, 3, 31, 195, 120, 120, 195, 119, 193, 3, 1.33929
35, 2, bw, filler, NA, 999, 999, 3, 32, 135, 139, 172, 171, 107, 95, 2, 1.09137
35, 2, bw, filler, NA, 999, 999, 3, 32, 135, 139, 172, 171, 107, 95, 3, 0.350394
35, 2, bw, attraction, a-b-db, 14, 2, 3, 33, 83, 153, 165, 90, 90, 165, 1, 2.11022
35, 2, bw, attraction, a-b-db, 14, 2, 3, 33, 83, 153, 165, 90, 90, 165, 2, 0.272135
35, 2, bw, filler, NA, 999, 999, 3, 34, 158, 91, 59, 87, 78, 185, 1, 1.4274
35, 2, bw, filler, NA, 999, 999, 3, 34, 158, 91, 59, 87, 78, 185, 2, 0.384869
35, 2, bw, catch, NA, 999, 999, 3, 35, 101, 154, 107, 88, 154, 161, 3, 1.73543
35, 2, bw, catch, NA, 999, 999, 3, 35, 101, 154, 107, 88, 154, 161, 2, 0.376827
35, 2, bw, attraction, a-b-da, 5, 3, 3, 36, 190, 117, 195, 120, 120, 195, 1, 0.855315
35, 2, bw, attraction, a-b-da, 5, 3, 3, 36, 190, 117, 195, 120, 120, 195, 2, 0.61968
35, 2, bw, attraction, a-b-da, 9, 1, 3, 37, 135, 60, 60, 135, 129, 57, 2, 1.31287
35, 2, bw, attraction, a-b-da, 9, 1, 3, 37, 135, 60, 60, 135, 129, 57, 3, 1.13124
35, 2, bw, attraction, a-b-db, 14, 3, 4, 1, 120, 195, 195, 120, 111, 181, 1, 0.979318
35, 2, bw, attraction, a-b-db, 14, 3, 4, 1, 120, 195, 195, 120, 111, 181, 2, 0.60317
35, 2, bw, catch, NA, 999, 999, 4, 2, 120, 135, 81, 114, 143, 172, 3, 0.808667
35, 2, bw, catch, NA, 999, 999, 4, 2, 120, 135, 81, 114, 143, 172, 2, 0.447033
35, 2, bw, attraction, a-b-da, 14, 2, 4, 3, 165, 90, 153, 83, 90, 165, 1, 0.810817
35, 2, bw, attraction, a-b-da, 14, 2, 4, 3, 165, 90, 153, 83, 90, 165, 2, 0.361378
35, 2, bw, attraction, a-b-da, 9, 1, 4, 4, 60, 135, 135, 60, 129, 57, 1, 1.1284
35, 2, bw, attraction, a-b-da, 9, 1, 4, 4, 60, 135, 135, 60, 129, 57, 3, 0.578042
35, 2, bw, attraction, a-b-db, 2, 1, 4, 5, 60, 135, 59, 134, 135, 60, 3, 1.00854
35, 2, bw, attraction, a-b-db, 2, 1, 4, 5, 60, 135, 59, 134, 135, 60, 2, 0.55079
35, 2, bw, filler, NA, 999, 999, 4, 6, 175, 56, 169, 158, 106, 62, 2, 0.790621
35, 2, bw, filler, NA, 999, 999, 4, 6, 175, 56, 169, 158, 106, 62, 3, 0.477585
35, 2, bw, filler, NA, 999, 999, 4, 7, 116, 120, 58, 109, 93, 67, 1, 0.632095
35, 2, bw, filler, NA, 999, 999, 4, 7, 116, 120, 58, 109, 93, 67, 2, 0.861858
35, 2, bw, filler, NA, 999, 999, 4, 8, 77, 88, 69, 65, 193, 85, 3, 0.856851
35, 2, bw, filler, NA, 999, 999, 4, 8, 77, 88, 69, 65, 193, 85, 2, 0.549215
35, 2, bw, filler, NA, 999, 999, 4, 9, 155, 186, 161, 95, 105, 160, 1, 0.805077
35, 2, bw, filler, NA, 999, 999, 4, 9, 155, 186, 161, 95, 105, 160, 2, 0.73931
35, 2, bw, attraction, a-b-db, 5, 2, 4, 10, 88, 161, 90, 165, 165, 90, 2, 1.26774
35, 2, bw, attraction, a-b-db, 5, 2, 4, 10, 88, 161, 90, 165, 165, 90, 1, 1.23197
35, 2, bw, attraction, a-b-db, 5, 1, 4, 11, 58, 132, 60, 135, 135, 60, 3, 1.67626
35, 2, bw, attraction, a-b-db, 5, 1, 4, 11, 58, 132, 60, 135, 135, 60, 2, 0.551704
35, 2, bw, attraction, a-b-da, 14, 3, 4, 12, 120, 195, 181, 111, 195, 120, 1, 0.879467
35, 2, bw, attraction, a-b-da, 14, 3, 4, 12, 120, 195, 181, 111, 195, 120, 2, 0.419148
35, 2, bw, attraction, a-b-db, 5, 3, 4, 13, 117, 190, 195, 120, 120, 195, 1, 1.0723
35, 2, bw, attraction, a-b-db, 5, 3, 4, 13, 117, 190, 195, 120, 120, 195, 3, 1.09995
35, 2, bw, attraction, a-b-db, 9, 3, 4, 14, 120, 195, 114, 186, 195, 120, 1, 1.54959
35, 2, bw, attraction, a-b-db, 9, 3, 4, 14, 120, 195, 114, 186, 195, 120, 2, 0.406348
35, 2, bw, filler, NA, 999, 999, 4, 15, 193, 74, 90, 114, 104, 142, 3, 1.07549
35, 2, bw, filler, NA, 999, 999, 4, 15, 193, 74, 90, 114, 104, 142, 2, 0.86313
35, 2, bw, catch, NA, 999, 999, 4, 16, 115, 140, 125, 190, 126, 69, 2, 1.21812
35, 2, bw, catch, NA, 999, 999, 4, 16, 115, 140, 125, 190, 126, 69, 3, 0.816554
35, 2, bw, attraction, a-b-db, 14, 2, 4, 17, 83, 153, 90, 165, 165, 90, 2, 1.29336
35, 2, bw, attraction, a-b-db, 14, 2, 4, 17, 83, 153, 90, 165, 165, 90, 1, 0.856355
35, 2, bw, filler, NA, 999, 999, 4, 18, 74, 153, 81, 154, 146, 106, 3, 1.29934
35, 2, bw, filler, NA, 999, 999, 4, 18, 74, 153, 81, 154, 146, 106, 2, 0.462228
35, 2, bw, attraction, a-b-db, 2, 2, 4, 19, 89, 163, 90, 165, 165, 90, 1, 1.71341
35, 2, bw, attraction, a-b-db, 2, 2, 4, 19, 89, 163, 90, 165, 165, 90, 3, 0.475506
35, 2, bw, attraction, a-b-db, 9, 1, 4, 20, 135, 60, 57, 129, 60, 135, 2, 1.91788
35, 2, bw, attraction, a-b-db, 9, 1, 4, 20, 135, 60, 57, 129, 60, 135, 3, 0.527938
35, 2, bw, filler, NA, 999, 999, 4, 21, 169, 112, 149, 176, 102, 185, 2, 1.08059
35, 2, bw, filler, NA, 999, 999, 4, 21, 169, 112, 149, 176, 102, 185, 3, 0.732042
35, 2, bw, attraction, a-b-da, 9, 2, 4, 22, 90, 165, 157, 86, 165, 90, 1, 1.40439
35, 2, bw, attraction, a-b-da, 9, 2, 4, 22, 90, 165, 157, 86, 165, 90, 2, 0.386755
35, 2, bw, attraction, a-b-da, 14, 1, 4, 23, 135, 60, 125, 56, 60, 135, 3, 1.53713
35, 2, bw, attraction, a-b-da, 14, 1, 4, 23, 135, 60, 125, 56, 60, 135, 2, 0.385935
35, 2, bw, attraction, a-b-da, 5, 2, 4, 24, 90, 165, 161, 88, 165, 90, 1, 1.17645
35, 2, bw, attraction, a-b-da, 5, 2, 4, 24, 90, 165, 161, 88, 165, 90, 3, 0.424051
35, 2, bw, attraction, a-b-da, 2, 1, 4, 25, 60, 135, 134, 59, 135, 60, 1, 1.16451
35, 2, bw, attraction, a-b-da, 2, 1, 4, 25, 60, 135, 134, 59, 135, 60, 2, 0.500764
35, 2, bw, attraction, a-b-db, 2, 3, 4, 26, 120, 195, 119, 193, 195, 120, 1, 1.07058
35, 2, bw, attraction, a-b-db, 2, 3, 4, 26, 120, 195, 119, 193, 195, 120, 2, 0.594289
35, 2, bw, attraction, a-b-db, 14, 1, 4, 27, 56, 125, 135, 60, 60, 135, 2, 1.504
35, 2, bw, attraction, a-b-db, 14, 1, 4, 27, 56, 125, 135, 60, 60, 135, 3, 0.3141
35, 2, bw, attraction, a-b-da, 5, 1, 4, 28, 132, 58, 60, 135, 135, 60, 1, 0.923298
35, 2, bw, attraction, a-b-da, 5, 1, 4, 28, 132, 58, 60, 135, 135, 60, 3, 1.58099
35, 2, bw, filler, NA, 999, 999, 4, 29, 181, 132, 183, 127, 129, 109, 1, 0.899045
35, 2, bw, filler, NA, 999, 999, 4, 29, 181, 132, 183, 127, 129, 109, 3, 0.486141
35, 2, bw, attraction, a-b-da, 2, 3, 4, 30, 120, 195, 195, 120, 193, 119, 1, 1.14451
35, 2, bw, attraction, a-b-da, 2, 3, 4, 30, 120, 195, 195, 120, 193, 119, 2, 0.545684
35, 2, bw, filler, NA, 999, 999, 4, 31, 121, 154, 184, 88, 191, 168, 3, 0.865215
35, 2, bw, filler, NA, 999, 999, 4, 31, 121, 154, 184, 88, 191, 168, 2, 1.63765
35, 2, bw, filler, NA, 999, 999, 4, 32, 185, 117, 188, 78, 193, 137, 3, 1.08976
35, 2, bw, filler, NA, 999, 999, 4, 32, 185, 117, 188, 78, 193, 137, 2, 0.620709
35, 2, bw, attraction, a-b-da, 9, 3, 4, 33, 186, 114, 195, 120, 120, 195, 2, 1.95388
35, 2, bw, attraction, a-b-da, 9, 3, 4, 33, 186, 114, 195, 120, 120, 195, 1, 1.17788
35, 2, bw, attraction, a-b-da, 5, 3, 4, 34, 195, 120, 190, 117, 120, 195, 3, 1.40018
35, 2, bw, attraction, a-b-da, 5, 3, 4, 34, 195, 120, 190, 117, 120, 195, 2, 0.41492
35, 2, bw, catch, NA, 999, 999, 4, 35, 132, 183, 66, 129, 143, 112, 1, 0.668049
35, 2, bw, catch, NA, 999, 999, 4, 35, 132, 183, 66, 129, 143, 112, 2, 0.504664
35, 2, bw, attraction, a-b-da, 2, 2, 4, 36, 90, 165, 165, 90, 163, 89, 2, 0.922327
35, 2, bw, attraction, a-b-da, 2, 2, 4, 36, 90, 165, 165, 90, 163, 89, 3, 1.38798
35, 2, bw, attraction, a-b-db, 9, 2, 4, 37, 165, 90, 86, 157, 90, 165, 1, 1.42613
35, 2, bw, attraction, a-b-db, 9, 2, 4, 37, 165, 90, 86, 157, 90, 165, 2, 0.735653
35, 2, bw, filler, NA, 999, 999, 5, 1, 101, 151, 109, 110, 93, 177, 3, 1.66285
35, 2, bw, filler, NA, 999, 999, 5, 1, 101, 151, 109, 110, 93, 177, 2, 0.442853
35, 2, bw, attraction, a-b-da, 9, 1, 5, 2, 129, 57, 60, 135, 135, 60, 2, 1.68666
35, 2, bw, attraction, a-b-da, 9, 1, 5, 2, 129, 57, 60, 135, 135, 60, 1, 0.850113
35, 2, bw, filler, NA, 999, 999, 5, 3, 92, 191, 184, 80, 181, 156, 3, 0.885769
35, 2, bw, filler, NA, 999, 999, 5, 3, 92, 191, 184, 80, 181, 156, 2, 0.457535
35, 2, bw, attraction, a-b-db, 9, 2, 5, 4, 90, 165, 86, 157, 165, 90, 2, 0.948579
35, 2, bw, attraction, a-b-db, 9, 2, 5, 4, 90, 165, 86, 157, 165, 90, 3, 0.781624
35, 2, bw, attraction, a-b-da, 2, 1, 5, 5, 135, 60, 134, 59, 60, 135, 2, 1.09199
35, 2, bw, attraction, a-b-da, 2, 1, 5, 5, 135, 60, 134, 59, 60, 135, 3, 0.615041
35, 2, bw, attraction, a-b-da, 5, 2, 5, 6, 165, 90, 90, 165, 161, 88, 1, 1.20403
35, 2, bw, attraction, a-b-da, 5, 2, 5, 6, 165, 90, 90, 165, 161, 88, 3, 0.602348
35, 2, bw, attraction, a-b-db, 2, 2, 5, 7, 165, 90, 90, 165, 89, 163, 2, 0.871959
35, 2, bw, attraction, a-b-db, 2, 2, 5, 7, 165, 90, 90, 165, 89, 163, 1, 0.523745
35, 2, bw, attraction, a-b-db, 14, 3, 5, 8, 195, 120, 111, 181, 120, 195, 3, 1.96416
35, 2, bw, attraction, a-b-db, 14, 3, 5, 8, 195, 120, 111, 181, 120, 195, 2, 0.980211
35, 2, bw, filler, NA, 999, 999, 5, 9, 76, 184, 68, 146, 60, 181, 1, 0.890513
35, 2, bw, filler, NA, 999, 999, 5, 9, 76, 184, 68, 146, 60, 181, 3, 1.07755
35, 2, bw, filler, NA, 999, 999, 5, 10, 154, 122, 76, 183, 143, 93, 1, 0.983755
35, 2, bw, filler, NA, 999, 999, 5, 10, 154, 122, 76, 183, 143, 93, 2, 0.567597
35, 2, bw, filler, NA, 999, 999, 5, 11, 57, 72, 135, 165, 104, 78, 2, 0.662523
35, 2, bw, filler, NA, 999, 999, 5, 11, 57, 72, 135, 165, 104, 78, 1, 0.402953
35, 2, bw, catch, NA, 999, 999, 5, 12, 111, 84, 134, 121, 137, 178, 3, 1.03272
35, 2, bw, catch, NA, 999, 999, 5, 12, 111, 84, 134, 121, 137, 178, 1, 0.374572
35, 2, bw, attraction, a-b-db, 5, 2, 5, 13, 88, 161, 165, 90, 90, 165, 1, 0.932878
35, 2, bw, attraction, a-b-db, 5, 2, 5, 13, 88, 161, 165, 90, 90, 165, 2, 0.278577
35, 2, bw, attraction, a-b-da, 14, 1, 5, 14, 135, 60, 125, 56, 60, 135, 3, 1.36915
35, 2, bw, attraction, a-b-da, 14, 1, 5, 14, 135, 60, 125, 56, 60, 135, 2, 0.473432
35, 2, bw, attraction, a-b-db, 14, 2, 5, 15, 165, 90, 90, 165, 83, 153, 2, 1.05182
35, 2, bw, attraction, a-b-db, 14, 2, 5, 15, 165, 90, 90, 165, 83, 153, 1, 0.480846
35, 2, bw, filler, NA, 999, 999, 5, 16, 67, 140, 82, 106, 63, 99, 2, 1.13134
35, 2, bw, filler, NA, 999, 999, 5, 16, 67, 140, 82, 106, 63, 99, 3, 0.420889
35, 2, bw, filler, NA, 999, 999, 5, 17, 127, 179, 169, 101, 59, 158, 1, 0.810019
35, 2, bw, filler, NA, 999, 999, 5, 17, 127, 179, 169, 101, 59, 158, 3, 0.44041
35, 2, bw, attraction, a-b-db, 2, 3, 5, 18, 119, 193, 195, 120, 120, 195, 3, 2.0202
35, 2, bw, attraction, a-b-db, 2, 3, 5, 18, 119, 193, 195, 120, 120, 195, 2, 0.43417
35, 2, bw, attraction, a-b-da, 14, 2, 5, 19, 165, 90, 90, 165, 153, 83, 2, 1.14274
35, 2, bw, attraction, a-b-da, 14, 2, 5, 19, 165, 90, 90, 165, 153, 83, 3, 0.407675
35, 2, bw, attraction, a-b-db, 5, 3, 5, 20, 120, 195, 117, 190, 195, 120, 2, 1.14883
35, 2, bw, attraction, a-b-db, 5, 3, 5, 20, 120, 195, 117, 190, 195, 120, 3, 0.645719
35, 2, bw, filler, NA, 999, 999, 5, 21, 60, 190, 177, 140, 84, 87, 2, 0.785458
35, 2, bw, filler, NA, 999, 999, 5, 21, 60, 190, 177, 140, 84, 87, 3, 1.24119
35, 2, bw, attraction, a-b-db, 5, 1, 5, 22, 58, 132, 60, 135, 135, 60, 2, 1.18076
35, 2, bw, attraction, a-b-db, 5, 1, 5, 22, 58, 132, 60, 135, 135, 60, 1, 1.24434
35, 2, bw, attraction, a-b-db, 9, 1, 5, 23, 135, 60, 57, 129, 60, 135, 2, 1.15193
35, 2, bw, attraction, a-b-db, 9, 1, 5, 23, 135, 60, 57, 129, 60, 135, 1, 0.560767
35, 2, bw, attraction, a-b-da, 5, 3, 5, 24, 190, 117, 195, 120, 120, 195, 3, 1.28795
35, 2, bw, attraction, a-b-da, 5, 3, 5, 24, 190, 117, 195, 120, 120, 195, 2, 0.362881
35, 2, bw, filler, NA, 999, 999, 5, 25, 122, 164, 162, 140, 78, 91, 2, 0.850013
35, 2, bw, filler, NA, 999, 999, 5, 25, 122, 164, 162, 140, 78, 91, 3, 0.695182
35, 2, bw, filler, NA, 999, 999, 5, 26, 158, 183, 107, 93, 84, 71, 1, 0.760812
35, 2, bw, filler, NA, 999, 999, 5, 26, 158, 183, 107, 93, 84, 71, 3, 0.481261
35, 2, bw, attraction, a-b-da, 2, 3, 5, 27, 120, 195, 195, 120, 193, 119, 1, 1.57181
35, 2, bw, attraction, a-b-da, 2, 3, 5, 27, 120, 195, 195, 120, 193, 119, 3, 0.683155
35, 2, bw, attraction, a-b-da, 14, 3, 5, 28, 181, 111, 195, 120, 120, 195, 3, 0.88554
35, 2, bw, attraction, a-b-da, 14, 3, 5, 28, 181, 111, 195, 120, 120, 195, 1, 0.68128
35, 2, bw, catch, NA, 999, 999, 5, 29, 76, 119, 148, 107, 161, 154, 3, 0.763533
35, 2, bw, catch, NA, 999, 999, 5, 29, 76, 119, 148, 107, 161, 154, 1, 0.411991
35, 2, bw, catch, NA, 999, 999, 5, 30, 96, 159, 134, 181, 74, 121, 2, 0.737163
35, 2, bw, catch, NA, 999, 999, 5, 30, 96, 159, 134, 181, 74, 121, 3, 0.395069
35, 2, bw, attraction, a-b-da, 9, 3, 5, 31, 186, 114, 120, 195, 195, 120, 2, 0.808705
35, 2, bw, attraction, a-b-da, 9, 3, 5, 31, 186, 114, 120, 195, 195, 120, 1, 0.295142
35, 2, bw, attraction, a-b-db, 9, 3, 5, 32, 120, 195, 114, 186, 195, 120, 3, 0.808952
35, 2, bw, attraction, a-b-db, 9, 3, 5, 32, 120, 195, 114, 186, 195, 120, 2, 0.295348
35, 2, bw, attraction, a-b-da, 9, 2, 5, 33, 90, 165, 165, 90, 157, 86, 2, 0.817139
35, 2, bw, attraction, a-b-da, 9, 2, 5, 33, 90, 165, 165, 90, 157, 86, 3, 0.567608
35, 2, bw, attraction, a-b-db, 2, 1, 5, 34, 135, 60, 59, 134, 60, 135, 3, 1.25478
35, 2, bw, attraction, a-b-db, 2, 1, 5, 34, 135, 60, 59, 134, 60, 135, 1, 0.778904
35, 2, bw, attraction, a-b-db, 14, 1, 5, 35, 60, 135, 135, 60, 56, 125, 1, 0.889265
35, 2, bw, attraction, a-b-db, 14, 1, 5, 35, 60, 135, 135, 60, 56, 125, 2, 0.516332
35, 2, bw, attraction, a-b-da, 5, 1, 5, 36, 60, 135, 132, 58, 135, 60, 1, 1.02936
35, 2, bw, attraction, a-b-da, 5, 1, 5, 36, 60, 135, 132, 58, 135, 60, 2, 0.314999
35, 2, bw, attraction, a-b-da, 2, 2, 5, 37, 163, 89, 165, 90, 90, 165, 1, 1.6683
35, 2, bw, attraction, a-b-da, 2, 2, 5, 37, 163, 89, 165, 90, 90, 165, 2, 0.376322
35, 2, bw, attraction, a-b-db, 14, 1, 6, 1, 60, 135, 135, 60, 56, 125, 1, 0.918837
35, 2, bw, attraction, a-b-db, 14, 1, 6, 1, 60, 135, 135, 60, 56, 125, 2, 0.497199
35, 2, bw, attraction, a-b-da, 9, 3, 6, 2, 195, 120, 186, 114, 120, 195, 3, 1.08301
35, 2, bw, attraction, a-b-da, 9, 3, 6, 2, 195, 120, 186, 114, 120, 195, 2, 0.342643
35, 2, bw, filler, NA, 999, 999, 6, 3, 107, 75, 97, 186, 109, 145, 2, 0.862385
35, 2, bw, filler, NA, 999, 999, 6, 3, 107, 75, 97, 186, 109, 145, 1, 0.354859
35, 2, bw, attraction, a-b-da, 14, 1, 6, 4, 135, 60, 125, 56, 60, 135, 1, 0.858679
35, 2, bw, attraction, a-b-da, 14, 1, 6, 4, 135, 60, 125, 56, 60, 135, 2, 0.335001
35, 2, bw, attraction, a-b-da, 2, 1, 6, 5, 60, 135, 135, 60, 134, 59, 1, 1.56752
35, 2, bw, attraction, a-b-da, 2, 1, 6, 5, 60, 135, 135, 60, 134, 59, 2, 0.343743
35, 2, bw, attraction, a-b-da, 5, 2, 6, 6, 165, 90, 90, 165, 161, 88, 2, 0.767457
35, 2, bw, attraction, a-b-da, 5, 2, 6, 6, 165, 90, 90, 165, 161, 88, 3, 0.823973
35, 2, bw, filler, NA, 999, 999, 6, 7, 191, 147, 139, 186, 58, 135, 1, 1.1963
35, 2, bw, filler, NA, 999, 999, 6, 7, 191, 147, 139, 186, 58, 135, 3, 0.771164
35, 2, bw, attraction, a-b-db, 5, 3, 6, 8, 195, 120, 120, 195, 117, 190, 2, 1.38629
35, 2, bw, attraction, a-b-db, 5, 3, 6, 8, 195, 120, 120, 195, 117, 190, 1, 0.425727
35, 2, bw, filler, NA, 999, 999, 6, 9, 193, 188, 188, 151, 92, 113, 1, 0.878215
35, 2, bw, filler, NA, 999, 999, 6, 9, 193, 188, 188, 151, 92, 113, 3, 0.353978
35, 2, bw, attraction, a-b-db, 14, 2, 6, 10, 165, 90, 90, 165, 83, 153, 2, 1.24177
35, 2, bw, attraction, a-b-db, 14, 2, 6, 10, 165, 90, 90, 165, 83, 153, 3, 0.926704
35, 2, bw, attraction, a-b-db, 9, 2, 6, 11, 90, 165, 165, 90, 86, 157, 1, 1.12707
35, 2, bw, attraction, a-b-db, 9, 2, 6, 11, 90, 165, 165, 90, 86, 157, 3, 0.36062
35, 2, bw, attraction, a-b-db, 9, 1, 6, 12, 57, 129, 60, 135, 135, 60, 2, 1.47174
35, 2, bw, attraction, a-b-db, 9, 1, 6, 12, 57, 129, 60, 135, 135, 60, 1, 0.53931
35, 2, bw, attraction, a-b-db, 2, 3, 6, 13, 119, 193, 195, 120, 120, 195, 1, 1.28302
35, 2, bw, attraction, a-b-db, 2, 3, 6, 13, 119, 193, 195, 120, 120, 195, 3, 0.486641
35, 2, bw, attraction, a-b-da, 5, 1, 6, 14, 132, 58, 60, 135, 135, 60, 2, 2.59321
35, 2, bw, attraction, a-b-da, 5, 1, 6, 14, 132, 58, 60, 135, 135, 60, 3, 0.639591
35, 2, bw, catch, NA, 999, 999, 6, 15, 96, 159, 149, 166, 121, 74, 2, 0.739303
35, 2, bw, catch, NA, 999, 999, 6, 15, 96, 159, 149, 166, 121, 74, 3, 0.596361
35, 2, bw, attraction, a-b-da, 14, 2, 6, 16, 153, 83, 90, 165, 165, 90, 3, 1.30619
35, 2, bw, attraction, a-b-da, 14, 2, 6, 16, 153, 83, 90, 165, 165, 90, 2, 1.36441
35, 2, bw, attraction, a-b-db, 9, 3, 6, 17, 120, 195, 195, 120, 114, 186, 1, 0.867197
35, 2, bw, attraction, a-b-db, 9, 3, 6, 17, 120, 195, 195, 120, 114, 186, 3, 0.679748
35, 2, bw, attraction, a-b-da, 9, 1, 6, 18, 129, 57, 135, 60, 60, 135, 3, 1.49801
35, 2, bw, attraction, a-b-da, 9, 1, 6, 18, 129, 57, 135, 60, 60, 135, 2, 0.412854
35, 2, bw, attraction, a-b-da, 2, 3, 6, 19, 195, 120, 193, 119, 120, 195, 3, 1.194
35, 2, bw, attraction, a-b-da, 2, 3, 6, 19, 195, 120, 193, 119, 120, 195, 2, 0.336928
35, 2, bw, filler, NA, 999, 999, 6, 20, 127, 177, 81, 64, 108, 132, 1, 0.785461
35, 2, bw, filler, NA, 999, 999, 6, 20, 127, 177, 81, 64, 108, 132, 2, 0.385167
35, 2, bw, catch, NA, 999, 999, 6, 21, 131, 184, 113, 82, 149, 106, 1, 0.799581
35, 2, bw, catch, NA, 999, 999, 6, 21, 131, 184, 113, 82, 149, 106, 2, 0.326744
35, 2, bw, filler, NA, 999, 999, 6, 22, 134, 133, 129, 133, 152, 58, 2, 2.33528
35, 2, bw, filler, NA, 999, 999, 6, 22, 134, 133, 129, 133, 152, 58, 3, 0.336462
35, 2, bw, attraction, a-b-da, 5, 3, 6, 23, 190, 117, 120, 195, 195, 120, 2, 1.09701
35, 2, bw, attraction, a-b-da, 5, 3, 6, 23, 190, 117, 120, 195, 195, 120, 1, 0.347954
35, 2, bw, attraction, a-b-da, 2, 2, 6, 24, 165, 90, 90, 165, 163, 89, 2, 1.19587
35, 2, bw, attraction, a-b-da, 2, 2, 6, 24, 165, 90, 90, 165, 163, 89, 1, 1.01875
35, 2, bw, attraction, a-b-da, 9, 2, 6, 25, 165, 90, 157, 86, 90, 165, 3, 1.66377
35, 2, bw, attraction, a-b-da, 9, 2, 6, 25, 165, 90, 157, 86, 90, 165, 2, 0.443887
35, 2, bw, attraction, a-b-da, 14, 3, 6, 26, 195, 120, 181, 111, 120, 195, 3, 1.23162
35, 2, bw, attraction, a-b-da, 14, 3, 6, 26, 195, 120, 181, 111, 120, 195, 2, 0.317136
35, 2, bw, attraction, a-b-db, 5, 1, 6, 27, 60, 135, 135, 60, 58, 132, 1, 1.39841
35, 2, bw, attraction, a-b-db, 5, 1, 6, 27, 60, 135, 135, 60, 58, 132, 2, 0.341176
35, 2, bw, attraction, a-b-db, 2, 2, 6, 28, 90, 165, 165, 90, 89, 163, 1, 1.40513
35, 2, bw, attraction, a-b-db, 2, 2, 6, 28, 90, 165, 165, 90, 89, 163, 3, 0.899293
35, 2, bw, filler, NA, 999, 999, 6, 29, 141, 174, 101, 132, 109, 124, 1, 0.813082
35, 2, bw, filler, NA, 999, 999, 6, 29, 141, 174, 101, 132, 109, 124, 2, 0.763312
35, 2, bw, filler, NA, 999, 999, 6, 30, 109, 121, 107, 95, 160, 183, 3, 1.53833
35, 2, bw, filler, NA, 999, 999, 6, 30, 109, 121, 107, 95, 160, 183, 2, 0.595163
35, 2, bw, attraction, a-b-db, 2, 1, 6, 31, 60, 135, 59, 134, 135, 60, 1, 1.31288
35, 2, bw, attraction, a-b-db, 2, 1, 6, 31, 60, 135, 59, 134, 135, 60, 2, 0.387201
35, 2, bw, catch, NA, 999, 999, 6, 32, 178, 137, 94, 161, 81, 114, 1, 0.745675
35, 2, bw, catch, NA, 999, 999, 6, 32, 178, 137, 94, 161, 81, 114, 3, 0.418735
35, 2, bw, filler, NA, 999, 999, 6, 33, 155, 56, 59, 137, 108, 147, 3, 0.84788
35, 2, bw, filler, NA, 999, 999, 6, 33, 155, 56, 59, 137, 108, 147, 2, 1.39691
35, 2, bw, attraction, a-b-db, 5, 2, 6, 34, 90, 165, 165, 90, 88, 161, 1, 1.03432
35, 2, bw, attraction, a-b-db, 5, 2, 6, 34, 90, 165, 165, 90, 88, 161, 2, 0.319982
35, 2, bw, filler, NA, 999, 999, 6, 35, 127, 157, 65, 84, 143, 123, 1, 0.769263
35, 2, bw, filler, NA, 999, 999, 6, 35, 127, 157, 65, 84, 143, 123, 2, 0.625634
35, 2, bw, attraction, a-b-db, 14, 3, 6, 36, 195, 120, 120, 195, 111, 181, 1, 1.67008
35, 2, bw, attraction, a-b-db, 14, 3, 6, 36, 195, 120, 120, 195, 111, 181, 3, 0.442214
35, 2, bw, filler, NA, 999, 999, 6, 37, 161, 138, 90, 188, 72, 101, 1, 0.85391
35, 2, bw, filler, NA, 999, 999, 6, 37, 161, 138, 90, 188, 72, 101, 3, 0.482979
35, 2, bw, attraction, a-b-da, 9, 3, 7, 1, 186, 114, 195, 120, 120, 195, 3, 1.02148
35, 2, bw, attraction, a-b-da, 9, 3, 7, 1, 186, 114, 195, 120, 120, 195, 1, 0.395111
35, 2, bw, attraction, a-b-db, 14, 3, 7, 2, 111, 181, 120, 195, 195, 120, 3, 1.00093
35, 2, bw, attraction, a-b-db, 14, 3, 7, 2, 111, 181, 120, 195, 195, 120, 1, 0.519886
35, 2, bw, attraction, a-b-da, 5, 3, 7, 3, 190, 117, 195, 120, 120, 195, 3, 1.16908
35, 2, bw, attraction, a-b-da, 5, 3, 7, 3, 190, 117, 195, 120, 120, 195, 1, 0.809279
35, 2, bw, attraction, a-b-db, 2, 2, 7, 4, 90, 165, 89, 163, 165, 90, 2, 1.71033
35, 2, bw, attraction, a-b-db, 2, 2, 7, 4, 90, 165, 89, 163, 165, 90, 3, 0.360486
35, 2, bw, catch, NA, 999, 999, 7, 5, 61, 134, 145, 110, 180, 135, 3, 0.983746
35, 2, bw, catch, NA, 999, 999, 7, 5, 61, 134, 145, 110, 180, 135, 1, 0.375288
35, 2, bw, catch, NA, 999, 999, 7, 6, 120, 75, 148, 167, 164, 91, 2, 0.76569
35, 2, bw, catch, NA, 999, 999, 7, 6, 120, 75, 148, 167, 164, 91, 1, 0.58223
35, 2, bw, filler, NA, 999, 999, 7, 7, 185, 105, 103, 173, 167, 107, 2, 1.4046
35, 2, bw, filler, NA, 999, 999, 7, 7, 185, 105, 103, 173, 167, 107, 3, 0.394867
35, 2, bw, attraction, a-b-db, 2, 3, 7, 8, 120, 195, 195, 120, 119, 193, 1, 1.08868
35, 2, bw, attraction, a-b-db, 2, 3, 7, 8, 120, 195, 195, 120, 119, 193, 3, 0.411565
35, 2, bw, filler, NA, 999, 999, 7, 9, 69, 65, 154, 114, 150, 180, 3, 0.85674
35, 2, bw, filler, NA, 999, 999, 7, 9, 69, 65, 154, 114, 150, 180, 1, 0.645014
35, 2, bw, filler, NA, 999, 999, 7, 10, 91, 106, 95, 113, 161, 119, 3, 0.896759
35, 2, bw, filler, NA, 999, 999, 7, 10, 91, 106, 95, 113, 161, 119, 1, 0.675808
35, 2, bw, attraction, a-b-db, 14, 1, 7, 11, 135, 60, 60, 135, 56, 125, 2, 1.20621
35, 2, bw, attraction, a-b-db, 14, 1, 7, 11, 135, 60, 60, 135, 56, 125, 3, 0.412512
35, 2, bw, attraction, a-b-db, 2, 1, 7, 12, 59, 134, 60, 135, 135, 60, 2, 1.04966
35, 2, bw, attraction, a-b-db, 2, 1, 7, 12, 59, 134, 60, 135, 135, 60, 3, 0.358611
35, 2, bw, attraction, a-b-da, 14, 3, 7, 13, 120, 195, 181, 111, 195, 120, 1, 0.941789
35, 2, bw, attraction, a-b-da, 14, 3, 7, 13, 120, 195, 181, 111, 195, 120, 2, 0.334781
35, 2, bw, attraction, a-b-db, 5, 1, 7, 14, 60, 135, 135, 60, 58, 132, 2, 0.895209
35, 2, bw, attraction, a-b-db, 5, 1, 7, 14, 60, 135, 135, 60, 58, 132, 1, 0.378337
35, 2, bw, attraction, a-b-da, 2, 3, 7, 15, 193, 119, 195, 120, 120, 195, 1, 0.824996
35, 2, bw, attraction, a-b-da, 2, 3, 7, 15, 193, 119, 195, 120, 120, 195, 2, 0.31062
35, 2, bw, attraction, a-b-db, 9, 3, 7, 16, 195, 120, 114, 186, 120, 195, 2, 1.22373
35, 2, bw, attraction, a-b-db, 9, 3, 7, 16, 195, 120, 114, 186, 120, 195, 1, 0.333245
35, 2, bw, filler, NA, 999, 999, 7, 17, 155, 140, 129, 62, 127, 93, 1, 0.733795
35, 2, bw, filler, NA, 999, 999, 7, 17, 155, 140, 129, 62, 127, 93, 2, 0.695527
35, 2, bw, filler, NA, 999, 999, 7, 18, 178, 177, 98, 81, 105, 138, 1, 0.641409
35, 2, bw, filler, NA, 999, 999, 7, 18, 178, 177, 98, 81, 105, 138, 2, 0.342357
35, 2, bw, attraction, a-b-db, 9, 1, 7, 19, 57, 129, 135, 60, 60, 135, 3, 0.942397
35, 2, bw, attraction, a-b-db, 9, 1, 7, 19, 57, 129, 135, 60, 60, 135, 2, 0.407231
35, 2, bw, attraction, a-b-da, 2, 1, 7, 20, 135, 60, 60, 135, 134, 59, 2, 1.43641
35, 2, bw, attraction, a-b-da, 2, 1, 7, 20, 135, 60, 60, 135, 134, 59, 1, 0.561954
35, 2, bw, filler, NA, 999, 999, 7, 21, 169, 114, 130, 173, 179, 84, 2, 1.30495
35, 2, bw, filler, NA, 999, 999, 7, 21, 169, 114, 130, 173, 179, 84, 3, 0.403185
35, 2, bw, attraction, a-b-da, 5, 2, 7, 22, 90, 165, 165, 90, 161, 88, 1, 1.33697
35, 2, bw, attraction, a-b-da, 5, 2, 7, 22, 90, 165, 165, 90, 161, 88, 2, 0.346049
35, 2, bw, attraction, a-b-da, 2, 2, 7, 23, 90, 165, 163, 89, 165, 90, 1, 0.953908
35, 2, bw, attraction, a-b-da, 2, 2, 7, 23, 90, 165, 163, 89, 165, 90, 2, 0.266188
35, 2, bw, attraction, a-b-db, 14, 2, 7, 24, 83, 153, 165, 90, 90, 165, 2, 1.57332
35, 2, bw, attraction, a-b-db, 14, 2, 7, 24, 83, 153, 165, 90, 90, 165, 1, 0.772774
35, 2, bw, attraction, a-b-da, 5, 1, 7, 25, 132, 58, 60, 135, 135, 60, 2, 1.29923
35, 2, bw, attraction, a-b-da, 5, 1, 7, 25, 132, 58, 60, 135, 135, 60, 1, 0.534047
35, 2, bw, catch, NA, 999, 999, 7, 26, 98, 97, 161, 94, 179, 136, 3, 0.710489
35, 2, bw, catch, NA, 999, 999, 7, 26, 98, 97, 161, 94, 179, 136, 1, 0.616905
35, 2, bw, attraction, a-b-da, 14, 1, 7, 27, 135, 60, 125, 56, 60, 135, 1, 0.845913
35, 2, bw, attraction, a-b-da, 14, 1, 7, 27, 135, 60, 125, 56, 60, 135, 2, 0.643124
35, 2, bw, attraction, a-b-db, 5, 2, 7, 28, 90, 165, 165, 90, 88, 161, 2, 2.47088
35, 2, bw, attraction, a-b-db, 5, 2, 7, 28, 90, 165, 165, 90, 88, 161, 3, 0.785979
35, 2, bw, attraction, a-b-da, 9, 2, 7, 29, 165, 90, 90, 165, 157, 86, 1, 1.22425
35, 2, bw, attraction, a-b-da, 9, 2, 7, 29, 165, 90, 90, 165, 157, 86, 2, 0.341833
35, 2, bw, filler, NA, 999, 999, 7, 30, 60, 86, 94, 72, 168, 157, 3, 0.629669
35, 2, bw, filler, NA, 999, 999, 7, 30, 60, 86, 94, 72, 168, 157, 1, 0.547547
35, 2, bw, attraction, a-b-da, 14, 2, 7, 31, 165, 90, 90, 165, 153, 83, 2, 1.68322
35, 2, bw, attraction, a-b-da, 14, 2, 7, 31, 165, 90, 90, 165, 153, 83, 3, 1.07076
35, 2, bw, filler, NA, 999, 999, 7, 32, 63, 109, 99, 113, 175, 159, 3, 0.857625
35, 2, bw, filler, NA, 999, 999, 7, 32, 63, 109, 99, 113, 175, 159, 1, 0.518136
35, 2, bw, attraction, a-b-da, 9, 1, 7, 33, 129, 57, 135, 60, 60, 135, 3, 1.33512
35, 2, bw, attraction, a-b-da, 9, 1, 7, 33, 129, 57, 135, 60, 60, 135, 2, 0.432801
35, 2, bw, attraction, a-b-db, 9, 2, 7, 34, 90, 165, 86, 157, 165, 90, 1, 1.18114
35, 2, bw, attraction, a-b-db, 9, 2, 7, 34, 90, 165, 86, 157, 165, 90, 2, 0.469007
35, 2, bw, filler, NA, 999, 999, 7, 35, 101, 178, 67, 60, 112, 172, 1, 1.63997
35, 2, bw, filler, NA, 999, 999, 7, 35, 101, 178, 67, 60, 112, 172, 2, 0.500797
35, 2, bw, attraction, a-b-db, 5, 3, 7, 36, 117, 190, 120, 195, 195, 120, 2, 1.51068
35, 2, bw, attraction, a-b-db, 5, 3, 7, 36, 117, 190, 120, 195, 195, 120, 1, 0.304676
35, 2, bw, filler, NA, 999, 999, 7, 37, 120, 99, 74, 99, 91, 129, 1, 1.12247
35, 2, bw, filler, NA, 999, 999, 7, 37, 120, 99, 74, 99, 91, 129, 2, 0.324139
35, 2, bw, attraction, a-b-da, 14, 1, 8, 1, 135, 60, 125, 56, 60, 135, 2, 0.956579
35, 2, bw, attraction, a-b-da, 14, 1, 8, 1, 135, 60, 125, 56, 60, 135, 1, 0.429
35, 2, bw, filler, NA, 999, 999, 8, 2, 132, 139, 93, 136, 67, 139, 1, 0.985435
35, 2, bw, filler, NA, 999, 999, 8, 2, 132, 139, 93, 136, 67, 139, 3, 0.51319
35, 2, bw, attraction, a-b-db, 14, 3, 8, 3, 120, 195, 195, 120, 111, 181, 1, 1.49834
35, 2, bw, attraction, a-b-db, 14, 3, 8, 3, 120, 195, 195, 120, 111, 181, 2, 0.405094
35, 2, bw, filler, NA, 999, 999, 8, 4, 165, 86, 152, 193, 120, 144, 2, 0.818963
35, 2, bw, filler, NA, 999, 999, 8, 4, 165, 86, 152, 193, 120, 144, 1, 0.633244
35, 2, bw, attraction, a-b-da, 2, 1, 8, 5, 135, 60, 134, 59, 60, 135, 1, 1.00564
35, 2, bw, attraction, a-b-da, 2, 1, 8, 5, 135, 60, 134, 59, 60, 135, 2, 0.563958
35, 2, bw, attraction, a-b-da, 5, 2, 8, 6, 90, 165, 161, 88, 165, 90, 1, 1.05112
35, 2, bw, attraction, a-b-da, 5, 2, 8, 6, 90, 165, 161, 88, 165, 90, 2, 0.416038
35, 2, bw, filler, NA, 999, 999, 8, 7, 166, 138, 137, 181, 109, 154, 2, 0.821339
35, 2, bw, filler, NA, 999, 999, 8, 7, 166, 138, 137, 181, 109, 154, 3, 0.362957
35, 2, bw, filler, NA, 999, 999, 8, 8, 136, 129, 131, 153, 123, 177, 3, 0.83407
35, 2, bw, filler, NA, 999, 999, 8, 8, 136, 129, 131, 153, 123, 177, 1, 0.559799
35, 2, bw, filler, NA, 999, 999, 8, 9, 98, 171, 158, 90, 57, 68, 1, 0.742968
35, 2, bw, filler, NA, 999, 999, 8, 9, 98, 171, 158, 90, 57, 68, 3, 0.584136
35, 2, bw, attraction, a-b-db, 9, 3, 8, 10, 120, 195, 195, 120, 114, 186, 1, 0.910359
35, 2, bw, attraction, a-b-db, 9, 3, 8, 10, 120, 195, 195, 120, 114, 186, 3, 0.344912
35, 2, bw, attraction, a-b-da, 9, 3, 8, 11, 120, 195, 195, 120, 186, 114, 1, 0.992626
35, 2, bw, attraction, a-b-da, 9, 3, 8, 11, 120, 195, 195, 120, 186, 114, 2, 0.31179
35, 2, bw, attraction, a-b-da, 2, 2, 8, 12, 165, 90, 163, 89, 90, 165, 2, 0.872804
35, 2, bw, attraction, a-b-da, 2, 2, 8, 12, 165, 90, 163, 89, 90, 165, 1, 0.340497
35, 2, bw, attraction, a-b-db, 5, 2, 8, 13, 165, 90, 88, 161, 90, 165, 1, 0.860312
35, 2, bw, attraction, a-b-db, 5, 2, 8, 13, 165, 90, 88, 161, 90, 165, 3, 0.304624
35, 2, bw, catch, NA, 999, 999, 8, 14, 172, 143, 67, 128, 120, 135, 1, 0.626528
35, 2, bw, catch, NA, 999, 999, 8, 14, 172, 143, 67, 128, 120, 135, 2, 0.640332
35, 2, bw, filler, NA, 999, 999, 8, 15, 185, 81, 184, 125, 180, 74, 2, 0.628031
35, 2, bw, filler, NA, 999, 999, 8, 15, 185, 81, 184, 125, 180, 74, 3, 1.17791
35, 2, bw, filler, NA, 999, 999, 8, 16, 79, 153, 93, 86, 86, 176, 3, 1.12017
35, 2, bw, filler, NA, 999, 999, 8, 16, 79, 153, 93, 86, 86, 176, 2, 0.369805
35, 2, bw, attraction, a-b-da, 14, 2, 8, 17, 153, 83, 165, 90, 90, 165, 3, 1.05691
35, 2, bw, attraction, a-b-da, 14, 2, 8, 17, 153, 83, 165, 90, 90, 165, 1, 0.669206
35, 2, bw, attraction, a-b-db, 9, 1, 8, 18, 135, 60, 60, 135, 57, 129, 2, 1.08032
35, 2, bw, attraction, a-b-db, 9, 1, 8, 18, 135, 60, 60, 135, 57, 129, 1, 0.515884
35, 2, bw, attraction, a-b-da, 5, 1, 8, 19, 135, 60, 132, 58, 60, 135, 3, 1.03709
35, 2, bw, attraction, a-b-da, 5, 1, 8, 19, 135, 60, 132, 58, 60, 135, 1, 0.801987
35, 2, bw, attraction, a-b-db, 5, 1, 8, 20, 58, 132, 135, 60, 60, 135, 3, 1.15164
35, 2, bw, attraction, a-b-db, 5, 1, 8, 20, 58, 132, 135, 60, 60, 135, 2, 0.472598
35, 2, bw, attraction, a-b-da, 2, 3, 8, 21, 120, 195, 193, 119, 195, 120, 1, 1.28372
35, 2, bw, attraction, a-b-da, 2, 3, 8, 21, 120, 195, 193, 119, 195, 120, 3, 0.415428
35, 2, bw, attraction, a-b-db, 14, 1, 8, 22, 56, 125, 60, 135, 135, 60, 3, 1.15657
35, 2, bw, attraction, a-b-db, 14, 1, 8, 22, 56, 125, 60, 135, 135, 60, 1, 0.356711
35, 2, bw, catch, NA, 999, 999, 8, 23, 128, 67, 101, 154, 185, 130, 3, 0.900012
35, 2, bw, catch, NA, 999, 999, 8, 23, 128, 67, 101, 154, 185, 130, 1, 0.638923
35, 2, bw, attraction, a-b-da, 14, 3, 8, 24, 195, 120, 181, 111, 120, 195, 1, 1.05937
35, 2, bw, attraction, a-b-da, 14, 3, 8, 24, 195, 120, 181, 111, 120, 195, 2, 0.727676
35, 2, bw, attraction, a-b-da, 9, 2, 8, 25, 165, 90, 90, 165, 157, 86, 2, 1.05606
35, 2, bw, attraction, a-b-da, 9, 2, 8, 25, 165, 90, 90, 165, 157, 86, 3, 0.3484
35, 2, bw, attraction, a-b-db, 2, 3, 8, 26, 119, 193, 120, 195, 195, 120, 2, 1.62022
35, 2, bw, attraction, a-b-db, 2, 3, 8, 26, 119, 193, 120, 195, 195, 120, 1, 0.354309
35, 2, bw, filler, NA, 999, 999, 8, 27, 57, 71, 177, 160, 178, 145, 2, 1.31409
35, 2, bw, filler, NA, 999, 999, 8, 27, 57, 71, 177, 160, 178, 145, 1, 0.588454
35, 2, bw, attraction, a-b-db, 9, 2, 8, 28, 165, 90, 86, 157, 90, 165, 1, 1.25885
35, 2, bw, attraction, a-b-db, 9, 2, 8, 28, 165, 90, 86, 157, 90, 165, 2, 0.78311
35, 2, bw, attraction, a-b-db, 2, 1, 8, 29, 135, 60, 59, 134, 60, 135, 2, 1.54946
35, 2, bw, attraction, a-b-db, 2, 1, 8, 29, 135, 60, 59, 134, 60, 135, 1, 0.310142
35, 2, bw, attraction, a-b-db, 2, 2, 8, 30, 89, 163, 90, 165, 165, 90, 3, 0.799427
35, 2, bw, attraction, a-b-db, 2, 2, 8, 30, 89, 163, 90, 165, 165, 90, 2, 0.358532
35, 2, bw, catch, NA, 999, 999, 8, 31, 137, 118, 108, 87, 163, 152, 3, 0.661626
35, 2, bw, catch, NA, 999, 999, 8, 31, 137, 118, 108, 87, 163, 152, 2, 0.402086
35, 2, bw, filler, NA, 999, 999, 8, 32, 118, 175, 62, 73, 64, 80, 1, 0.743938
35, 2, bw, filler, NA, 999, 999, 8, 32, 118, 175, 62, 73, 64, 80, 2, 0.593085
35, 2, bw, attraction, a-b-da, 9, 1, 8, 33, 129, 57, 135, 60, 60, 135, 3, 1.32673
35, 2, bw, attraction, a-b-da, 9, 1, 8, 33, 129, 57, 135, 60, 60, 135, 1, 0.576244
35, 2, bw, attraction, a-b-da, 5, 3, 8, 34, 120, 195, 195, 120, 190, 117, 1, 1.13459
35, 2, bw, attraction, a-b-da, 5, 3, 8, 34, 120, 195, 195, 120, 190, 117, 3, 0.632353
35, 2, bw, attraction, a-b-db, 5, 3, 8, 35, 195, 120, 120, 195, 117, 190, 2, 1.29272
35, 2, bw, attraction, a-b-db, 5, 3, 8, 35, 195, 120, 120, 195, 117, 190, 1, 0.319629
35, 2, bw, filler, NA, 999, 999, 8, 36, 138, 98, 67, 157, 152, 131, 3, 0.872798
35, 2, bw, filler, NA, 999, 999, 8, 36, 138, 98, 67, 157, 152, 131, 2, 0.460525
35, 2, bw, attraction, a-b-db, 14, 2, 8, 37, 90, 165, 83, 153, 165, 90, 3, 0.983613
35, 2, bw, attraction, a-b-db, 14, 2, 8, 37, 90, 165, 83, 153, 165, 90, 2, 0.471234
