sub_n, computer_n, bw_cond, effect, set, distance, diag, block_n, trial_n, h1, w1, h2, w2, h3, w3, choice, rt 
357\, 2, wb, practice, NA, 999, 999, 0, 1, 131, 68, 162, 183, 152, 89, 1, 2.53834
357\, 2, wb, practice, NA, 999, 999, 0, 1, 131, 68, 162, 183, 152, 89, 2, 1.83834
357\, 2, wb, practice, NA, 999, 999, 0, 2, 186, 158, 113, 130, 62, 56, 3, 2.05369
357\, 2, wb, practice, NA, 999, 999, 0, 2, 186, 158, 113, 130, 62, 56, 1, 1.41178
357\, 2, wb, practice, NA, 999, 999, 0, 3, 117, 94, 159, 150, 107, 93, 3, 3.57235
357\, 2, wb, practice, NA, 999, 999, 0, 3, 117, 94, 159, 150, 107, 93, 2, 0.946027
357\, 2, wb, attraction, a-b-da, 14, 2, 1, 1, 165, 90, 153, 83, 90, 165, 2, 4.25592
357\, 2, wb, attraction, a-b-da, 14, 2, 1, 1, 165, 90, 153, 83, 90, 165, 3, 2.65925
357\, 2, wb, attraction, a-b-db, 5, 3, 1, 2, 117, 190, 195, 120, 120, 195, 2, 5.71769
357\, 2, wb, attraction, a-b-db, 5, 3, 1, 2, 117, 190, 195, 120, 120, 195, 3, 2.17471
357\, 2, wb, attraction, a-b-da, 5, 1, 1, 3, 132, 58, 135, 60, 60, 135, 2, 2.59653
357\, 2, wb, attraction, a-b-da, 5, 1, 1, 3, 132, 58, 135, 60, 60, 135, 1, 1.89096
357\, 2, wb, attraction, a-b-db, 9, 2, 1, 4, 90, 165, 86, 157, 165, 90, 2, 2.95627
357\, 2, wb, attraction, a-b-db, 9, 2, 1, 4, 90, 165, 86, 157, 165, 90, 3, 0.500043
357\, 2, wb, filler, NA, 999, 999, 1, 5, 123, 79, 138, 168, 131, 78, 1, 1.78178
357\, 2, wb, filler, NA, 999, 999, 1, 5, 123, 79, 138, 168, 131, 78, 2, 0.41323
357\, 2, wb, attraction, a-b-da, 2, 1, 1, 6, 134, 59, 135, 60, 60, 135, 2, 3.09035
357\, 2, wb, attraction, a-b-da, 2, 1, 1, 6, 134, 59, 135, 60, 60, 135, 3, 0.796698
357\, 2, wb, attraction, a-b-da, 9, 1, 1, 7, 135, 60, 129, 57, 60, 135, 2, 1.33839
357\, 2, wb, attraction, a-b-da, 9, 1, 1, 7, 135, 60, 129, 57, 60, 135, 3, 1.27534
357\, 2, wb, attraction, a-b-db, 5, 2, 1, 8, 165, 90, 88, 161, 90, 165, 1, 3.8615
357\, 2, wb, attraction, a-b-db, 5, 2, 1, 8, 165, 90, 88, 161, 90, 165, 3, 0.400995
357\, 2, wb, attraction, a-b-da, 9, 3, 1, 9, 120, 195, 186, 114, 195, 120, 2, 3.18271
357\, 2, wb, attraction, a-b-da, 9, 3, 1, 9, 120, 195, 186, 114, 195, 120, 1, 0.373708
357\, 2, wb, attraction, a-b-db, 2, 2, 1, 10, 90, 165, 165, 90, 89, 163, 3, 2.62022
357\, 2, wb, attraction, a-b-db, 2, 2, 1, 10, 90, 165, 165, 90, 89, 163, 1, 0.602066
357\, 2, wb, attraction, a-b-db, 2, 1, 1, 11, 135, 60, 60, 135, 59, 134, 3, 5.29581
357\, 2, wb, attraction, a-b-db, 2, 1, 1, 11, 135, 60, 60, 135, 59, 134, 2, 0.769433
357\, 2, wb, filler, NA, 999, 999, 1, 12, 64, 97, 77, 97, 195, 98, 1, 1.75252
357\, 2, wb, filler, NA, 999, 999, 1, 12, 64, 97, 77, 97, 195, 98, 3, 0.777201
357\, 2, wb, attraction, a-b-db, 14, 1, 1, 13, 135, 60, 56, 125, 60, 135, 2, 2.45561
357\, 2, wb, attraction, a-b-db, 14, 1, 1, 13, 135, 60, 56, 125, 60, 135, 3, 1.19553
357\, 2, wb, filler, NA, 999, 999, 1, 14, 162, 160, 119, 106, 190, 77, 3, 2.6172
357\, 2, wb, filler, NA, 999, 999, 1, 14, 162, 160, 119, 106, 190, 77, 1, 0.862836
357\, 2, wb, attraction, a-b-db, 14, 2, 1, 15, 83, 153, 165, 90, 90, 165, 1, 1.72985
357\, 2, wb, attraction, a-b-db, 14, 2, 1, 15, 83, 153, 165, 90, 90, 165, 3, 1.17131
357\, 2, wb, filler, NA, 999, 999, 1, 16, 59, 131, 188, 91, 174, 124, 1, 0.858118
357\, 2, wb, filler, NA, 999, 999, 1, 16, 59, 131, 188, 91, 174, 124, 3, 0.494553
357\, 2, wb, filler, NA, 999, 999, 1, 17, 128, 89, 68, 122, 188, 70, 2, 1.35234
357\, 2, wb, filler, NA, 999, 999, 1, 17, 128, 89, 68, 122, 188, 70, 3, 3.56922
357\, 2, wb, filler, NA, 999, 999, 1, 18, 56, 96, 96, 66, 168, 100, 1, 1.69552
357\, 2, wb, filler, NA, 999, 999, 1, 18, 56, 96, 96, 66, 168, 100, 3, 0.61015
357\, 2, wb, attraction, a-b-da, 5, 2, 1, 19, 165, 90, 161, 88, 90, 165, 3, 4.19124
357\, 2, wb, attraction, a-b-da, 5, 2, 1, 19, 165, 90, 161, 88, 90, 165, 2, 1.34921
357\, 2, wb, attraction, a-b-da, 9, 2, 1, 20, 90, 165, 157, 86, 165, 90, 2, 1.37281
357\, 2, wb, attraction, a-b-da, 9, 2, 1, 20, 90, 165, 157, 86, 165, 90, 1, 1.22034
357\, 2, wb, attraction, a-b-db, 14, 3, 1, 21, 120, 195, 195, 120, 111, 181, 1, 0.705273
357\, 2, wb, attraction, a-b-db, 14, 3, 1, 21, 120, 195, 195, 120, 111, 181, 2, 1.66772
357\, 2, wb, attraction, a-b-da, 5, 3, 1, 22, 120, 195, 190, 117, 195, 120, 2, 2.90239
357\, 2, wb, attraction, a-b-da, 5, 3, 1, 22, 120, 195, 190, 117, 195, 120, 1, 0.72079
357\, 2, wb, filler, NA, 999, 999, 1, 23, 171, 116, 80, 111, 107, 81, 3, 1.75394
357\, 2, wb, filler, NA, 999, 999, 1, 23, 171, 116, 80, 111, 107, 81, 1, 0.610656
357\, 2, wb, filler, NA, 999, 999, 1, 24, 117, 134, 149, 60, 156, 87, 2, 1.2157
357\, 2, wb, filler, NA, 999, 999, 1, 24, 117, 134, 149, 60, 156, 87, 1, 0.518065
357\, 2, wb, catch, NA, 999, 999, 1, 25, 121, 134, 187, 128, 108, 87, 3, 1.74304
357\, 2, wb, catch, NA, 999, 999, 1, 25, 121, 134, 187, 128, 108, 87, 2, 0.407869
357\, 2, wb, filler, NA, 999, 999, 1, 26, 74, 65, 158, 185, 132, 70, 1, 1.07695
357\, 2, wb, filler, NA, 999, 999, 1, 26, 74, 65, 158, 185, 132, 70, 2, 0.432593
357\, 2, wb, attraction, a-b-da, 2, 2, 1, 27, 90, 165, 165, 90, 163, 89, 2, 2.78113
357\, 2, wb, attraction, a-b-da, 2, 2, 1, 27, 90, 165, 165, 90, 163, 89, 1, 0.404117
357\, 2, wb, attraction, a-b-db, 9, 1, 1, 28, 135, 60, 57, 129, 60, 135, 2, 1.42597
357\, 2, wb, attraction, a-b-db, 9, 1, 1, 28, 135, 60, 57, 129, 60, 135, 3, 0.887505
357\, 2, wb, catch, NA, 999, 999, 1, 29, 134, 61, 110, 145, 164, 151, 1, 1.46583
357\, 2, wb, catch, NA, 999, 999, 1, 29, 134, 61, 110, 145, 164, 151, 3, 1.65418
357\, 2, wb, catch, NA, 999, 999, 1, 30, 134, 61, 160, 155, 104, 151, 1, 1.12941
357\, 2, wb, catch, NA, 999, 999, 1, 30, 134, 61, 160, 155, 104, 151, 2, 0.731229
357\, 2, wb, filler, NA, 999, 999, 1, 31, 185, 106, 185, 148, 122, 100, 3, 0.939396
357\, 2, wb, filler, NA, 999, 999, 1, 31, 185, 106, 185, 148, 122, 100, 2, 0.436472
357\, 2, wb, attraction, a-b-db, 5, 1, 1, 32, 58, 132, 135, 60, 60, 135, 2, 2.28893
357\, 2, wb, attraction, a-b-db, 5, 1, 1, 32, 58, 132, 135, 60, 60, 135, 1, 0.73156
357\, 2, wb, attraction, a-b-da, 2, 3, 1, 33, 193, 119, 195, 120, 120, 195, 2, 2.15601
357\, 2, wb, attraction, a-b-da, 2, 3, 1, 33, 193, 119, 195, 120, 120, 195, 3, 0.747936
357\, 2, wb, attraction, a-b-da, 14, 3, 1, 34, 120, 195, 181, 111, 195, 120, 2, 1.23559
357\, 2, wb, attraction, a-b-da, 14, 3, 1, 34, 120, 195, 181, 111, 195, 120, 1, 0.801143
357\, 2, wb, attraction, a-b-da, 14, 1, 1, 35, 60, 135, 135, 60, 125, 56, 3, 2.24706
357\, 2, wb, attraction, a-b-da, 14, 1, 1, 35, 60, 135, 135, 60, 125, 56, 1, 0.547541
357\, 2, wb, attraction, a-b-db, 9, 3, 1, 36, 195, 120, 114, 186, 120, 195, 2, 3.6992
357\, 2, wb, attraction, a-b-db, 9, 3, 1, 36, 195, 120, 114, 186, 120, 195, 3, 0.597398
357\, 2, wb, attraction, a-b-db, 2, 3, 1, 37, 119, 193, 120, 195, 195, 120, 1, 1.59528
357\, 2, wb, attraction, a-b-db, 2, 3, 1, 37, 119, 193, 120, 195, 195, 120, 3, 0.586074
357\, 2, wb, catch, NA, 999, 999, 2, 1, 184, 131, 67, 128, 127, 128, 2, 0.880406
357\, 2, wb, catch, NA, 999, 999, 2, 1, 184, 131, 67, 128, 127, 128, 1, 0.484089
357\, 2, wb, attraction, a-b-da, 14, 3, 2, 2, 120, 195, 181, 111, 195, 120, 2, 2.8546
357\, 2, wb, attraction, a-b-da, 14, 3, 2, 2, 120, 195, 181, 111, 195, 120, 1, 0.410289
357\, 2, wb, attraction, a-b-da, 14, 1, 2, 3, 60, 135, 135, 60, 125, 56, 2, 1.05549
357\, 2, wb, attraction, a-b-da, 14, 1, 2, 3, 60, 135, 135, 60, 125, 56, 3, 0.603828
357\, 2, wb, attraction, a-b-da, 5, 3, 2, 4, 195, 120, 190, 117, 120, 195, 2, 3.80154
357\, 2, wb, attraction, a-b-da, 5, 3, 2, 4, 195, 120, 190, 117, 120, 195, 3, 0.53562
357\, 2, wb, attraction, a-b-da, 2, 1, 2, 5, 135, 60, 134, 59, 60, 135, 3, 0.984106
357\, 2, wb, attraction, a-b-da, 2, 1, 2, 5, 135, 60, 134, 59, 60, 135, 1, 0.591676
357\, 2, wb, filler, NA, 999, 999, 2, 6, 187, 106, 164, 145, 193, 153, 1, 1.96559
357\, 2, wb, filler, NA, 999, 999, 2, 6, 187, 106, 164, 145, 193, 153, 3, 1.02952
357\, 2, wb, attraction, a-b-db, 2, 1, 2, 7, 59, 134, 135, 60, 60, 135, 3, 2.48183
357\, 2, wb, attraction, a-b-db, 2, 1, 2, 7, 59, 134, 135, 60, 60, 135, 1, 1.27701
357\, 2, wb, attraction, a-b-db, 5, 1, 2, 8, 135, 60, 60, 135, 58, 132, 3, 2.85518
357\, 2, wb, attraction, a-b-db, 5, 1, 2, 8, 135, 60, 60, 135, 58, 132, 1, 0.595033
357\, 2, wb, attraction, a-b-db, 9, 2, 2, 9, 165, 90, 86, 157, 90, 165, 2, 2.62471
357\, 2, wb, attraction, a-b-db, 9, 2, 2, 9, 165, 90, 86, 157, 90, 165, 3, 1.03784
357\, 2, wb, filler, NA, 999, 999, 2, 10, 142, 111, 86, 185, 128, 155, 1, 2.70631
357\, 2, wb, filler, NA, 999, 999, 2, 10, 142, 111, 86, 185, 128, 155, 3, 0.699883
357\, 2, wb, attraction, a-b-da, 5, 1, 2, 11, 135, 60, 60, 135, 132, 58, 3, 4.6856
357\, 2, wb, attraction, a-b-da, 5, 1, 2, 11, 135, 60, 60, 135, 132, 58, 2, 0.984136
357\, 2, wb, attraction, a-b-da, 5, 2, 2, 12, 165, 90, 90, 165, 161, 88, 2, 5.33442
357\, 2, wb, attraction, a-b-da, 5, 2, 2, 12, 165, 90, 90, 165, 161, 88, 1, 1.57486
357\, 2, wb, attraction, a-b-db, 5, 3, 2, 13, 120, 195, 117, 190, 195, 120, 1, 1.51691
357\, 2, wb, attraction, a-b-db, 5, 3, 2, 13, 120, 195, 117, 190, 195, 120, 2, 0.631054
357\, 2, wb, attraction, a-b-da, 9, 1, 2, 14, 60, 135, 135, 60, 129, 57, 3, 1.52345
357\, 2, wb, attraction, a-b-da, 9, 1, 2, 14, 60, 135, 135, 60, 129, 57, 1, 1.14892
357\, 2, wb, attraction, a-b-da, 9, 2, 2, 15, 90, 165, 165, 90, 157, 86, 3, 2.8285
357\, 2, wb, attraction, a-b-da, 9, 2, 2, 15, 90, 165, 165, 90, 157, 86, 1, 0.785616
357\, 2, wb, attraction, a-b-db, 9, 1, 2, 16, 60, 135, 135, 60, 57, 129, 2, 2.40798
357\, 2, wb, attraction, a-b-db, 9, 1, 2, 16, 60, 135, 135, 60, 57, 129, 3, 1.1339
357\, 2, wb, filler, NA, 999, 999, 2, 17, 98, 194, 174, 183, 117, 121, 3, 3.89414
357\, 2, wb, filler, NA, 999, 999, 2, 17, 98, 194, 174, 183, 117, 121, 2, 0.928356
357\, 2, wb, catch, NA, 999, 999, 2, 18, 141, 114, 87, 108, 183, 132, 2, 0.704513
357\, 2, wb, catch, NA, 999, 999, 2, 18, 141, 114, 87, 108, 183, 132, 3, 0.346977
357\, 2, wb, attraction, a-b-da, 2, 2, 2, 19, 90, 165, 163, 89, 165, 90, 3, 0.914809
357\, 2, wb, attraction, a-b-da, 2, 2, 2, 19, 90, 165, 163, 89, 165, 90, 1, 1.06911
357\, 2, wb, attraction, a-b-da, 2, 3, 2, 20, 193, 119, 195, 120, 120, 195, 1, 1.20007
357\, 2, wb, attraction, a-b-da, 2, 3, 2, 20, 193, 119, 195, 120, 120, 195, 2, 0.654988
357\, 2, wb, filler, NA, 999, 999, 2, 21, 114, 184, 153, 116, 94, 163, 3, 0.866781
357\, 2, wb, filler, NA, 999, 999, 2, 21, 114, 184, 153, 116, 94, 163, 2, 0.399199
357\, 2, wb, attraction, a-b-db, 5, 2, 2, 22, 90, 165, 88, 161, 165, 90, 1, 1.99693
357\, 2, wb, attraction, a-b-db, 5, 2, 2, 22, 90, 165, 88, 161, 165, 90, 2, 0.475619
357\, 2, wb, catch, NA, 999, 999, 2, 23, 186, 129, 139, 116, 114, 81, 3, 0.694062
357\, 2, wb, catch, NA, 999, 999, 2, 23, 186, 129, 139, 116, 114, 81, 1, 0.777147
357\, 2, wb, filler, NA, 999, 999, 2, 24, 100, 181, 191, 186, 160, 150, 1, 0.911443
357\, 2, wb, filler, NA, 999, 999, 2, 24, 100, 181, 191, 186, 160, 150, 2, 0.42602
357\, 2, wb, filler, NA, 999, 999, 2, 25, 152, 94, 195, 78, 133, 72, 3, 1.23838
357\, 2, wb, filler, NA, 999, 999, 2, 25, 152, 94, 195, 78, 133, 72, 2, 0.859351
357\, 2, wb, attraction, a-b-db, 2, 3, 2, 26, 120, 195, 195, 120, 119, 193, 1, 1.91045
357\, 2, wb, attraction, a-b-db, 2, 3, 2, 26, 120, 195, 195, 120, 119, 193, 2, 0.928386
357\, 2, wb, attraction, a-b-da, 9, 3, 2, 27, 195, 120, 186, 114, 120, 195, 3, 1.28869
357\, 2, wb, attraction, a-b-da, 9, 3, 2, 27, 195, 120, 186, 114, 120, 195, 1, 2.22758
357\, 2, wb, attraction, a-b-db, 14, 2, 2, 28, 165, 90, 83, 153, 90, 165, 2, 3.41549
357\, 2, wb, attraction, a-b-db, 14, 2, 2, 28, 165, 90, 83, 153, 90, 165, 3, 1.34106
357\, 2, wb, filler, NA, 999, 999, 2, 29, 80, 155, 109, 101, 87, 114, 2, 1.98865
357\, 2, wb, filler, NA, 999, 999, 2, 29, 80, 155, 109, 101, 87, 114, 1, 0.771231
357\, 2, wb, attraction, a-b-da, 14, 2, 2, 30, 165, 90, 90, 165, 153, 83, 3, 5.11427
357\, 2, wb, attraction, a-b-da, 14, 2, 2, 30, 165, 90, 90, 165, 153, 83, 2, 0.459395
357\, 2, wb, filler, NA, 999, 999, 2, 31, 82, 79, 122, 193, 60, 141, 1, 1.3184
357\, 2, wb, filler, NA, 999, 999, 2, 31, 82, 79, 122, 193, 60, 141, 2, 0.688798
357\, 2, wb, filler, NA, 999, 999, 2, 32, 123, 179, 162, 60, 164, 68, 2, 1.34714
357\, 2, wb, filler, NA, 999, 999, 2, 32, 123, 179, 162, 60, 164, 68, 1, 0.523979
357\, 2, wb, attraction, a-b-db, 14, 1, 2, 33, 135, 60, 60, 135, 56, 125, 1, 1.63642
357\, 2, wb, attraction, a-b-db, 14, 1, 2, 33, 135, 60, 60, 135, 56, 125, 2, 0.785874
357\, 2, wb, filler, NA, 999, 999, 2, 34, 97, 75, 98, 139, 95, 153, 1, 0.768166
357\, 2, wb, filler, NA, 999, 999, 2, 34, 97, 75, 98, 139, 95, 153, 3, 0.616602
357\, 2, wb, attraction, a-b-db, 9, 3, 2, 35, 114, 186, 195, 120, 120, 195, 3, 1.42967
357\, 2, wb, attraction, a-b-db, 9, 3, 2, 35, 114, 186, 195, 120, 120, 195, 1, 2.66723
357\, 2, wb, attraction, a-b-db, 14, 3, 2, 36, 111, 181, 195, 120, 120, 195, 2, 1.46966
357\, 2, wb, attraction, a-b-db, 14, 3, 2, 36, 111, 181, 195, 120, 120, 195, 1, 0.545827
357\, 2, wb, attraction, a-b-db, 2, 2, 2, 37, 90, 165, 89, 163, 165, 90, 2, 1.4417
357\, 2, wb, attraction, a-b-db, 2, 2, 2, 37, 90, 165, 89, 163, 165, 90, 3, 1.57449
357\, 2, wb, attraction, a-b-db, 14, 3, 3, 1, 195, 120, 111, 181, 120, 195, 2, 1.59671
357\, 2, wb, attraction, a-b-db, 14, 3, 3, 1, 195, 120, 111, 181, 120, 195, 1, 1.81144
357\, 2, wb, attraction, a-b-db, 5, 1, 3, 2, 58, 132, 60, 135, 135, 60, 1, 2.26414
357\, 2, wb, attraction, a-b-db, 5, 1, 3, 2, 58, 132, 60, 135, 135, 60, 2, 1.33999
357\, 2, wb, catch, NA, 999, 999, 3, 3, 128, 67, 157, 98, 180, 135, 1, 0.81154
357\, 2, wb, catch, NA, 999, 999, 3, 3, 128, 67, 157, 98, 180, 135, 3, 1.52196
357\, 2, wb, attraction, a-b-da, 2, 2, 3, 4, 163, 89, 165, 90, 90, 165, 2, 1.70676
357\, 2, wb, attraction, a-b-da, 2, 2, 3, 4, 163, 89, 165, 90, 90, 165, 3, 0.996954
357\, 2, wb, attraction, a-b-da, 9, 2, 3, 5, 165, 90, 157, 86, 90, 165, 2, 1.78655
357\, 2, wb, attraction, a-b-da, 9, 2, 3, 5, 165, 90, 157, 86, 90, 165, 3, 0.985938
357\, 2, wb, filler, NA, 999, 999, 3, 6, 134, 73, 194, 136, 56, 59, 3, 0.728205
357\, 2, wb, filler, NA, 999, 999, 3, 6, 134, 73, 194, 136, 56, 59, 2, 0.38597
357\, 2, wb, filler, NA, 999, 999, 3, 7, 162, 143, 164, 128, 121, 88, 3, 0.768464
357\, 2, wb, filler, NA, 999, 999, 3, 7, 162, 143, 164, 128, 121, 88, 2, 0.328839
357\, 2, wb, filler, NA, 999, 999, 3, 8, 113, 101, 182, 114, 147, 157, 1, 0.889372
357\, 2, wb, filler, NA, 999, 999, 3, 8, 113, 101, 182, 114, 147, 157, 3, 0.860403
357\, 2, wb, attraction, a-b-db, 2, 2, 3, 9, 89, 163, 165, 90, 90, 165, 2, 2.5994
357\, 2, wb, attraction, a-b-db, 2, 2, 3, 9, 89, 163, 165, 90, 90, 165, 3, 0.357832
357\, 2, wb, attraction, a-b-db, 5, 2, 3, 10, 165, 90, 90, 165, 88, 161, 3, 1.10103
357\, 2, wb, attraction, a-b-db, 5, 2, 3, 10, 165, 90, 90, 165, 88, 161, 2, 0.912117
357\, 2, wb, filler, NA, 999, 999, 3, 11, 123, 159, 147, 166, 75, 76, 3, 0.720946
357\, 2, wb, filler, NA, 999, 999, 3, 11, 123, 159, 147, 166, 75, 76, 2, 0.322705
357\, 2, wb, attraction, a-b-db, 9, 2, 3, 12, 165, 90, 86, 157, 90, 165, 2, 2.00485
357\, 2, wb, attraction, a-b-db, 9, 2, 3, 12, 165, 90, 86, 157, 90, 165, 3, 0.841247
357\, 2, wb, filler, NA, 999, 999, 3, 13, 171, 60, 88, 186, 127, 154, 1, 0.940881
357\, 2, wb, filler, NA, 999, 999, 3, 13, 171, 60, 88, 186, 127, 154, 3, 0.437935
357\, 2, wb, attraction, a-b-db, 2, 1, 3, 14, 135, 60, 59, 134, 60, 135, 3, 0.778535
357\, 2, wb, attraction, a-b-db, 2, 1, 3, 14, 135, 60, 59, 134, 60, 135, 2, 0.6262
357\, 2, wb, attraction, a-b-db, 14, 1, 3, 15, 60, 135, 135, 60, 56, 125, 2, 1.83061
357\, 2, wb, attraction, a-b-db, 14, 1, 3, 15, 60, 135, 135, 60, 56, 125, 1, 1.66001
357\, 2, wb, attraction, a-b-da, 5, 2, 3, 16, 90, 165, 165, 90, 161, 88, 1, 1.79878
357\, 2, wb, attraction, a-b-da, 5, 2, 3, 16, 90, 165, 165, 90, 161, 88, 3, 0.597513
357\, 2, wb, attraction, a-b-da, 14, 1, 3, 17, 135, 60, 125, 56, 60, 135, 2, 0.923177
357\, 2, wb, attraction, a-b-da, 14, 1, 3, 17, 135, 60, 125, 56, 60, 135, 3, 0.7169
357\, 2, wb, attraction, a-b-da, 9, 1, 3, 18, 129, 57, 60, 135, 135, 60, 1, 3.51795
357\, 2, wb, attraction, a-b-da, 9, 1, 3, 18, 129, 57, 60, 135, 135, 60, 2, 0.831635
357\, 2, wb, attraction, a-b-db, 2, 3, 3, 19, 119, 193, 120, 195, 195, 120, 2, 4.95577
357\, 2, wb, attraction, a-b-db, 2, 3, 3, 19, 119, 193, 120, 195, 195, 120, 3, 0.602878
357\, 2, wb, attraction, a-b-da, 2, 1, 3, 20, 134, 59, 60, 135, 135, 60, 2, 1.24065
357\, 2, wb, attraction, a-b-da, 2, 1, 3, 20, 134, 59, 60, 135, 135, 60, 1, 0.709637
357\, 2, wb, catch, NA, 999, 999, 3, 21, 158, 157, 92, 163, 101, 94, 3, 0.85462
357\, 2, wb, catch, NA, 999, 999, 3, 21, 158, 157, 92, 163, 101, 94, 1, 0.523055
357\, 2, wb, attraction, a-b-db, 5, 3, 3, 22, 120, 195, 195, 120, 117, 190, 3, 1.30747
357\, 2, wb, attraction, a-b-db, 5, 3, 3, 22, 120, 195, 195, 120, 117, 190, 1, 0.733685
357\, 2, wb, attraction, a-b-da, 9, 3, 3, 23, 120, 195, 186, 114, 195, 120, 2, 2.07813
357\, 2, wb, attraction, a-b-da, 9, 3, 3, 23, 120, 195, 186, 114, 195, 120, 3, 0.593374
357\, 2, wb, filler, NA, 999, 999, 3, 24, 63, 172, 118, 183, 113, 130, 1, 1.19114
357\, 2, wb, filler, NA, 999, 999, 3, 24, 63, 172, 118, 183, 113, 130, 2, 0.278059
357\, 2, wb, attraction, a-b-da, 5, 3, 3, 25, 190, 117, 120, 195, 195, 120, 1, 1.15268
357\, 2, wb, attraction, a-b-da, 5, 3, 3, 25, 190, 117, 120, 195, 195, 120, 3, 0.609596
357\, 2, wb, attraction, a-b-da, 2, 3, 3, 26, 195, 120, 193, 119, 120, 195, 3, 3.03868
357\, 2, wb, attraction, a-b-da, 2, 3, 3, 26, 195, 120, 193, 119, 120, 195, 1, 0.851022
357\, 2, wb, catch, NA, 999, 999, 3, 27, 160, 155, 122, 133, 63, 132, 3, 0.798682
357\, 2, wb, catch, NA, 999, 999, 3, 27, 160, 155, 122, 133, 63, 132, 1, 0.381725
357\, 2, wb, attraction, a-b-db, 14, 2, 3, 28, 165, 90, 90, 165, 83, 153, 3, 0.892262
357\, 2, wb, attraction, a-b-db, 14, 2, 3, 28, 165, 90, 90, 165, 83, 153, 2, 0.943279
357\, 2, wb, attraction, a-b-da, 5, 1, 3, 29, 132, 58, 60, 135, 135, 60, 2, 0.85489
357\, 2, wb, attraction, a-b-da, 5, 1, 3, 29, 132, 58, 60, 135, 135, 60, 1, 1.08323
357\, 2, wb, filler, NA, 999, 999, 3, 30, 190, 148, 140, 136, 87, 147, 3, 0.853521
357\, 2, wb, filler, NA, 999, 999, 3, 30, 190, 148, 140, 136, 87, 147, 1, 0.385893
357\, 2, wb, filler, NA, 999, 999, 3, 31, 168, 145, 151, 126, 94, 79, 3, 0.520366
357\, 2, wb, filler, NA, 999, 999, 3, 31, 168, 145, 151, 126, 94, 79, 1, 0.354118
357\, 2, wb, attraction, a-b-da, 14, 2, 3, 32, 90, 165, 165, 90, 153, 83, 3, 2.06605
357\, 2, wb, attraction, a-b-da, 14, 2, 3, 32, 90, 165, 165, 90, 153, 83, 1, 0.630023
357\, 2, wb, filler, NA, 999, 999, 3, 33, 127, 181, 153, 103, 73, 104, 3, 0.58644
357\, 2, wb, filler, NA, 999, 999, 3, 33, 127, 181, 153, 103, 73, 104, 1, 0.354215
357\, 2, wb, attraction, a-b-da, 14, 3, 3, 34, 120, 195, 195, 120, 181, 111, 3, 0.914092
357\, 2, wb, attraction, a-b-da, 14, 3, 3, 34, 120, 195, 195, 120, 181, 111, 2, 1.60441
357\, 2, wb, attraction, a-b-db, 9, 3, 3, 35, 114, 186, 195, 120, 120, 195, 1, 0.817838
357\, 2, wb, attraction, a-b-db, 9, 3, 3, 35, 114, 186, 195, 120, 120, 195, 3, 0.54426
357\, 2, wb, filler, NA, 999, 999, 3, 36, 117, 61, 84, 129, 156, 112, 1, 0.607991
357\, 2, wb, filler, NA, 999, 999, 3, 36, 117, 61, 84, 129, 156, 112, 3, 0.598559
357\, 2, wb, attraction, a-b-db, 9, 1, 3, 37, 135, 60, 57, 129, 60, 135, 1, 1.0442
357\, 2, wb, attraction, a-b-db, 9, 1, 3, 37, 135, 60, 57, 129, 60, 135, 3, 0.481193
357\, 2, wb, attraction, a-b-db, 9, 1, 4, 1, 60, 135, 57, 129, 135, 60, 2, 0.763746
357\, 2, wb, attraction, a-b-db, 9, 1, 4, 1, 60, 135, 57, 129, 135, 60, 3, 0.388054
357\, 2, wb, attraction, a-b-db, 2, 2, 4, 2, 90, 165, 89, 163, 165, 90, 3, 1.5706
357\, 2, wb, attraction, a-b-db, 2, 2, 4, 2, 90, 165, 89, 163, 165, 90, 1, 0.410062
357\, 2, wb, attraction, a-b-da, 14, 2, 4, 3, 165, 90, 90, 165, 153, 83, 3, 2.38323
357\, 2, wb, attraction, a-b-da, 14, 2, 4, 3, 165, 90, 90, 165, 153, 83, 1, 0.694571
357\, 2, wb, attraction, a-b-da, 2, 1, 4, 4, 135, 60, 60, 135, 134, 59, 2, 4.14408
357\, 2, wb, attraction, a-b-da, 2, 1, 4, 4, 135, 60, 60, 135, 134, 59, 3, 0.376127
357\, 2, wb, filler, NA, 999, 999, 4, 5, 59, 177, 74, 106, 168, 189, 2, 0.694637
357\, 2, wb, filler, NA, 999, 999, 4, 5, 59, 177, 74, 106, 168, 189, 3, 0.329768
357\, 2, wb, attraction, a-b-da, 5, 1, 4, 6, 132, 58, 135, 60, 60, 135, 2, 0.858245
357\, 2, wb, attraction, a-b-da, 5, 1, 4, 6, 132, 58, 135, 60, 60, 135, 3, 1.48659
357\, 2, wb, attraction, a-b-db, 5, 1, 4, 7, 60, 135, 135, 60, 58, 132, 2, 1.08876
357\, 2, wb, attraction, a-b-db, 5, 1, 4, 7, 60, 135, 135, 60, 58, 132, 1, 0.723763
357\, 2, wb, attraction, a-b-da, 2, 3, 4, 8, 193, 119, 195, 120, 120, 195, 1, 6.236
357\, 2, wb, attraction, a-b-da, 2, 3, 4, 8, 193, 119, 195, 120, 120, 195, 3, 0.32005
357\, 2, wb, filler, NA, 999, 999, 4, 9, 159, 129, 69, 74, 80, 114, 2, 0.841245
357\, 2, wb, filler, NA, 999, 999, 4, 9, 159, 129, 69, 74, 80, 114, 1, 0.326279
357\, 2, wb, attraction, a-b-db, 2, 3, 4, 10, 119, 193, 120, 195, 195, 120, 3, 2.33489
357\, 2, wb, attraction, a-b-db, 2, 3, 4, 10, 119, 193, 120, 195, 195, 120, 1, 0.488035
357\, 2, wb, catch, NA, 999, 999, 4, 11, 91, 164, 143, 172, 105, 90, 3, 0.698525
357\, 2, wb, catch, NA, 999, 999, 4, 11, 91, 164, 143, 172, 105, 90, 2, 0.381566
357\, 2, wb, attraction, a-b-db, 5, 2, 4, 12, 165, 90, 88, 161, 90, 165, 2, 1.28417
357\, 2, wb, attraction, a-b-db, 5, 2, 4, 12, 165, 90, 88, 161, 90, 165, 3, 1.37565
357\, 2, wb, filler, NA, 999, 999, 4, 13, 154, 143, 116, 185, 130, 121, 2, 2.41385
357\, 2, wb, filler, NA, 999, 999, 4, 13, 154, 143, 116, 185, 130, 121, 1, 1.73185
357\, 2, wb, attraction, a-b-db, 14, 3, 4, 14, 120, 195, 195, 120, 111, 181, 3, 1.61982
357\, 2, wb, attraction, a-b-db, 14, 3, 4, 14, 120, 195, 195, 120, 111, 181, 1, 0.922081
357\, 2, wb, attraction, a-b-da, 5, 3, 4, 15, 120, 195, 195, 120, 190, 117, 2, 4.73894
357\, 2, wb, attraction, a-b-da, 5, 3, 4, 15, 120, 195, 195, 120, 190, 117, 3, 0.754741
357\, 2, wb, filler, NA, 999, 999, 4, 16, 146, 191, 82, 67, 62, 69, 3, 1.13056
357\, 2, wb, filler, NA, 999, 999, 4, 16, 146, 191, 82, 67, 62, 69, 1, 0.444057
357\, 2, wb, catch, NA, 999, 999, 4, 17, 100, 155, 133, 62, 180, 135, 1, 1.01584
357\, 2, wb, catch, NA, 999, 999, 4, 17, 100, 155, 133, 62, 180, 135, 3, 1.25419
357\, 2, wb, filler, NA, 999, 999, 4, 18, 174, 176, 130, 75, 102, 151, 2, 0.497667
357\, 2, wb, filler, NA, 999, 999, 4, 18, 174, 176, 130, 75, 102, 151, 1, 0.444976
357\, 2, wb, attraction, a-b-da, 9, 3, 4, 19, 195, 120, 186, 114, 120, 195, 2, 1.48868
357\, 2, wb, attraction, a-b-da, 9, 3, 4, 19, 195, 120, 186, 114, 120, 195, 1, 0.515515
357\, 2, wb, filler, NA, 999, 999, 4, 20, 149, 80, 163, 152, 67, 94, 3, 0.612611
357\, 2, wb, filler, NA, 999, 999, 4, 20, 149, 80, 163, 152, 67, 94, 2, 0.315047
357\, 2, wb, attraction, a-b-da, 9, 2, 4, 21, 165, 90, 90, 165, 157, 86, 3, 0.964422
357\, 2, wb, attraction, a-b-da, 9, 2, 4, 21, 165, 90, 90, 165, 157, 86, 1, 0.38862
357\, 2, wb, attraction, a-b-db, 5, 3, 4, 22, 117, 190, 120, 195, 195, 120, 2, 0.987062
357\, 2, wb, attraction, a-b-db, 5, 3, 4, 22, 117, 190, 120, 195, 195, 120, 3, 0.362082
357\, 2, wb, filler, NA, 999, 999, 4, 23, 142, 61, 126, 158, 89, 73, 1, 0.937388
357\, 2, wb, filler, NA, 999, 999, 4, 23, 142, 61, 126, 158, 89, 73, 2, 0.386244
357\, 2, wb, attraction, a-b-db, 2, 1, 4, 24, 60, 135, 59, 134, 135, 60, 2, 1.35276
357\, 2, wb, attraction, a-b-db, 2, 1, 4, 24, 60, 135, 59, 134, 135, 60, 3, 0.465769
357\, 2, wb, filler, NA, 999, 999, 4, 25, 124, 145, 87, 150, 152, 168, 2, 0.908801
357\, 2, wb, filler, NA, 999, 999, 4, 25, 124, 145, 87, 150, 152, 168, 3, 0.399168
357\, 2, wb, attraction, a-b-db, 9, 3, 4, 26, 114, 186, 120, 195, 195, 120, 1, 1.0129
357\, 2, wb, attraction, a-b-db, 9, 3, 4, 26, 114, 186, 120, 195, 195, 120, 3, 0.379274
357\, 2, wb, attraction, a-b-da, 2, 2, 4, 27, 90, 165, 163, 89, 165, 90, 2, 0.841833
357\, 2, wb, attraction, a-b-da, 2, 2, 4, 27, 90, 165, 163, 89, 165, 90, 3, 0.358813
357\, 2, wb, attraction, a-b-db, 14, 1, 4, 28, 60, 135, 135, 60, 56, 125, 3, 0.894029
357\, 2, wb, attraction, a-b-db, 14, 1, 4, 28, 60, 135, 135, 60, 56, 125, 2, 0.465036
357\, 2, wb, attraction, a-b-da, 5, 2, 4, 29, 161, 88, 90, 165, 165, 90, 1, 1.43621
357\, 2, wb, attraction, a-b-da, 5, 2, 4, 29, 161, 88, 90, 165, 165, 90, 2, 0.289671
357\, 2, wb, attraction, a-b-da, 9, 1, 4, 30, 135, 60, 129, 57, 60, 135, 2, 1.91564
357\, 2, wb, attraction, a-b-da, 9, 1, 4, 30, 135, 60, 129, 57, 60, 135, 1, 0.413532
357\, 2, wb, attraction, a-b-da, 14, 3, 4, 31, 195, 120, 120, 195, 181, 111, 3, 0.538625
357\, 2, wb, attraction, a-b-da, 14, 3, 4, 31, 195, 120, 120, 195, 181, 111, 2, 1.12394
357\, 2, wb, attraction, a-b-db, 14, 2, 4, 32, 165, 90, 90, 165, 83, 153, 3, 1.59607
357\, 2, wb, attraction, a-b-db, 14, 2, 4, 32, 165, 90, 90, 165, 83, 153, 1, 0.770951
357\, 2, wb, catch, NA, 999, 999, 4, 33, 90, 105, 192, 123, 115, 140, 1, 1.0099
357\, 2, wb, catch, NA, 999, 999, 4, 33, 90, 105, 192, 123, 115, 140, 2, 0.856219
357\, 2, wb, filler, NA, 999, 999, 4, 34, 64, 122, 153, 194, 189, 71, 1, 1.17936
357\, 2, wb, filler, NA, 999, 999, 4, 34, 64, 122, 153, 194, 189, 71, 2, 0.498897
357\, 2, wb, attraction, a-b-db, 9, 2, 4, 35, 90, 165, 86, 157, 165, 90, 3, 0.900658
357\, 2, wb, attraction, a-b-db, 9, 2, 4, 35, 90, 165, 86, 157, 165, 90, 1, 1.16769
357\, 2, wb, attraction, a-b-da, 14, 1, 4, 36, 135, 60, 60, 135, 125, 56, 3, 0.982583
357\, 2, wb, attraction, a-b-da, 14, 1, 4, 36, 135, 60, 60, 135, 125, 56, 2, 0.918253
357\, 2, wb, filler, NA, 999, 999, 4, 37, 116, 177, 168, 156, 112, 171, 3, 1.61533
357\, 2, wb, filler, NA, 999, 999, 4, 37, 116, 177, 168, 156, 112, 171, 2, 0.373377
357\, 2, wb, attraction, a-b-da, 2, 1, 5, 1, 134, 59, 60, 135, 135, 60, 1, 2.79445
357\, 2, wb, attraction, a-b-da, 2, 1, 5, 1, 134, 59, 60, 135, 135, 60, 2, 0.328884
357\, 2, wb, filler, NA, 999, 999, 5, 2, 112, 151, 187, 69, 102, 188, 2, 0.785532
357\, 2, wb, filler, NA, 999, 999, 5, 2, 112, 151, 187, 69, 102, 188, 3, 1.03315
357\, 2, wb, filler, NA, 999, 999, 5, 3, 154, 56, 195, 66, 172, 76, 1, 1.0854
357\, 2, wb, filler, NA, 999, 999, 5, 3, 154, 56, 195, 66, 172, 76, 2, 0.297154
357\, 2, wb, attraction, a-b-da, 9, 2, 5, 4, 157, 86, 90, 165, 165, 90, 1, 1.59492
357\, 2, wb, attraction, a-b-da, 9, 2, 5, 4, 157, 86, 90, 165, 165, 90, 3, 0.297754
357\, 2, wb, attraction, a-b-db, 9, 1, 5, 5, 135, 60, 57, 129, 60, 135, 2, 1.05956
357\, 2, wb, attraction, a-b-db, 9, 1, 5, 5, 135, 60, 57, 129, 60, 135, 1, 1.41589
357\, 2, wb, filler, NA, 999, 999, 5, 6, 153, 157, 88, 164, 93, 98, 3, 0.820664
357\, 2, wb, filler, NA, 999, 999, 5, 6, 153, 157, 88, 164, 93, 98, 1, 0.626519
357\, 2, wb, filler, NA, 999, 999, 5, 7, 125, 172, 95, 78, 100, 132, 2, 0.990818
357\, 2, wb, filler, NA, 999, 999, 5, 7, 125, 172, 95, 78, 100, 132, 1, 0.317958
357\, 2, wb, catch, NA, 999, 999, 5, 8, 75, 120, 147, 168, 99, 156, 1, 0.750938
357\, 2, wb, catch, NA, 999, 999, 5, 8, 75, 120, 147, 168, 99, 156, 2, 0.288042
357\, 2, wb, attraction, a-b-da, 5, 2, 5, 9, 165, 90, 90, 165, 161, 88, 3, 0.746604
357\, 2, wb, attraction, a-b-da, 5, 2, 5, 9, 165, 90, 90, 165, 161, 88, 1, 0.499683
357\, 2, wb, attraction, a-b-da, 5, 1, 5, 10, 132, 58, 135, 60, 60, 135, 3, 0.749463
357\, 2, wb, attraction, a-b-da, 5, 1, 5, 10, 132, 58, 135, 60, 60, 135, 2, 0.334603
357\, 2, wb, attraction, a-b-da, 2, 2, 5, 11, 90, 165, 163, 89, 165, 90, 3, 2.75105
357\, 2, wb, attraction, a-b-da, 2, 2, 5, 11, 90, 165, 163, 89, 165, 90, 1, 0.32743
357\, 2, wb, attraction, a-b-db, 9, 3, 5, 12, 120, 195, 195, 120, 114, 186, 1, 0.615979
357\, 2, wb, attraction, a-b-db, 9, 3, 5, 12, 120, 195, 195, 120, 114, 186, 2, 1.9745
357\, 2, wb, catch, NA, 999, 999, 5, 13, 155, 100, 128, 187, 112, 83, 3, 0.644444
357\, 2, wb, catch, NA, 999, 999, 5, 13, 155, 100, 128, 187, 112, 83, 2, 0.425551
357\, 2, wb, filler, NA, 999, 999, 5, 14, 84, 134, 121, 88, 63, 189, 2, 0.557979
357\, 2, wb, filler, NA, 999, 999, 5, 14, 84, 134, 121, 88, 63, 189, 3, 3.93456
357\, 2, wb, attraction, a-b-da, 5, 3, 5, 15, 195, 120, 190, 117, 120, 195, 3, 7.57389
357\, 2, wb, attraction, a-b-da, 5, 3, 5, 15, 195, 120, 190, 117, 120, 195, 2, 0.971487
357\, 2, wb, attraction, a-b-db, 2, 2, 5, 16, 89, 163, 165, 90, 90, 165, 2, 1.27443
357\, 2, wb, attraction, a-b-db, 2, 2, 5, 16, 89, 163, 165, 90, 90, 165, 3, 0.982045
357\, 2, wb, attraction, a-b-da, 14, 2, 5, 17, 153, 83, 165, 90, 90, 165, 3, 1.20429
357\, 2, wb, attraction, a-b-da, 14, 2, 5, 17, 153, 83, 165, 90, 90, 165, 1, 0.690668
357\, 2, wb, attraction, a-b-da, 14, 3, 5, 18, 195, 120, 181, 111, 120, 195, 2, 1.2603
357\, 2, wb, attraction, a-b-da, 14, 3, 5, 18, 195, 120, 181, 111, 120, 195, 1, 0.728567
357\, 2, wb, filler, NA, 999, 999, 5, 19, 162, 171, 109, 73, 137, 119, 2, 1.06491
357\, 2, wb, filler, NA, 999, 999, 5, 19, 162, 171, 109, 73, 137, 119, 1, 0.517193
357\, 2, wb, attraction, a-b-db, 14, 3, 5, 20, 195, 120, 111, 181, 120, 195, 1, 0.990329
357\, 2, wb, attraction, a-b-db, 14, 3, 5, 20, 195, 120, 111, 181, 120, 195, 3, 0.509346
357\, 2, wb, attraction, a-b-db, 5, 2, 5, 21, 90, 165, 165, 90, 88, 161, 2, 0.590412
357\, 2, wb, attraction, a-b-db, 5, 2, 5, 21, 90, 165, 165, 90, 88, 161, 1, 0.709643
357\, 2, wb, attraction, a-b-da, 9, 3, 5, 22, 120, 195, 195, 120, 186, 114, 3, 0.718681
357\, 2, wb, attraction, a-b-da, 9, 3, 5, 22, 120, 195, 195, 120, 186, 114, 1, 0.88901
357\, 2, wb, attraction, a-b-db, 14, 1, 5, 23, 56, 125, 60, 135, 135, 60, 1, 1.09138
357\, 2, wb, attraction, a-b-db, 14, 1, 5, 23, 56, 125, 60, 135, 135, 60, 3, 0.470358
357\, 2, wb, attraction, a-b-db, 9, 2, 5, 24, 90, 165, 86, 157, 165, 90, 1, 1.04149
357\, 2, wb, attraction, a-b-db, 9, 2, 5, 24, 90, 165, 86, 157, 165, 90, 3, 1.02244
357\, 2, wb, attraction, a-b-db, 2, 3, 5, 25, 120, 195, 195, 120, 119, 193, 2, 1.29137
357\, 2, wb, attraction, a-b-db, 2, 3, 5, 25, 120, 195, 195, 120, 119, 193, 3, 0.518261
357\, 2, wb, attraction, a-b-da, 14, 1, 5, 26, 135, 60, 60, 135, 125, 56, 2, 0.791403
357\, 2, wb, attraction, a-b-da, 14, 1, 5, 26, 135, 60, 60, 135, 125, 56, 1, 0.454417
357\, 2, wb, attraction, a-b-da, 9, 1, 5, 27, 135, 60, 129, 57, 60, 135, 2, 0.586269
357\, 2, wb, attraction, a-b-da, 9, 1, 5, 27, 135, 60, 129, 57, 60, 135, 1, 0.457531
357\, 2, wb, filler, NA, 999, 999, 5, 28, 91, 135, 102, 179, 143, 91, 1, 0.716471
357\, 2, wb, filler, NA, 999, 999, 5, 28, 91, 135, 102, 179, 143, 91, 2, 0.351033
357\, 2, wb, attraction, a-b-db, 5, 3, 5, 29, 117, 190, 195, 120, 120, 195, 3, 0.734798
357\, 2, wb, attraction, a-b-db, 5, 3, 5, 29, 117, 190, 195, 120, 120, 195, 2, 0.560529
357\, 2, wb, attraction, a-b-db, 2, 1, 5, 30, 59, 134, 135, 60, 60, 135, 2, 1.15168
357\, 2, wb, attraction, a-b-db, 2, 1, 5, 30, 59, 134, 135, 60, 60, 135, 3, 0.328549
357\, 2, wb, attraction, a-b-da, 2, 3, 5, 31, 195, 120, 120, 195, 193, 119, 2, 1.99304
357\, 2, wb, attraction, a-b-da, 2, 3, 5, 31, 195, 120, 120, 195, 193, 119, 3, 0.431828
357\, 2, wb, attraction, a-b-db, 5, 1, 5, 32, 58, 132, 135, 60, 60, 135, 1, 1.02818
357\, 2, wb, attraction, a-b-db, 5, 1, 5, 32, 58, 132, 135, 60, 60, 135, 2, 0.737957
357\, 2, wb, catch, NA, 999, 999, 5, 33, 109, 86, 154, 161, 138, 117, 1, 0.746274
357\, 2, wb, catch, NA, 999, 999, 5, 33, 109, 86, 154, 161, 138, 117, 2, 0.283314
357\, 2, wb, filler, NA, 999, 999, 5, 34, 91, 129, 110, 75, 172, 148, 2, 0.789776
357\, 2, wb, filler, NA, 999, 999, 5, 34, 91, 129, 110, 75, 172, 148, 3, 0.308854
357\, 2, wb, filler, NA, 999, 999, 5, 35, 183, 140, 153, 160, 63, 107, 3, 0.766076
357\, 2, wb, filler, NA, 999, 999, 5, 35, 183, 140, 153, 160, 63, 107, 1, 0.726654
357\, 2, wb, filler, NA, 999, 999, 5, 36, 101, 83, 76, 60, 94, 66, 2, 0.614897
357\, 2, wb, filler, NA, 999, 999, 5, 36, 101, 83, 76, 60, 94, 66, 1, 1.25332
357\, 2, wb, attraction, a-b-db, 14, 2, 5, 37, 83, 153, 165, 90, 90, 165, 2, 0.720853
357\, 2, wb, attraction, a-b-db, 14, 2, 5, 37, 83, 153, 165, 90, 90, 165, 3, 1.44262
357\, 2, wb, filler, NA, 999, 999, 6, 1, 167, 185, 111, 102, 188, 72, 2, 0.774216
357\, 2, wb, filler, NA, 999, 999, 6, 1, 167, 185, 111, 102, 188, 72, 1, 0.261799
357\, 2, wb, attraction, a-b-db, 2, 1, 6, 2, 59, 134, 60, 135, 135, 60, 2, 1.00904
357\, 2, wb, attraction, a-b-db, 2, 1, 6, 2, 59, 134, 60, 135, 135, 60, 3, 0.367325
357\, 2, wb, filler, NA, 999, 999, 6, 3, 143, 79, 128, 155, 60, 148, 1, 0.646669
357\, 2, wb, filler, NA, 999, 999, 6, 3, 143, 79, 128, 155, 60, 148, 2, 0.251605
357\, 2, wb, attraction, a-b-db, 14, 2, 6, 4, 165, 90, 90, 165, 83, 153, 1, 0.551494
357\, 2, wb, attraction, a-b-db, 14, 2, 6, 4, 165, 90, 90, 165, 83, 153, 2, 0.296608
357\, 2, wb, attraction, a-b-da, 2, 3, 6, 5, 193, 119, 195, 120, 120, 195, 3, 1.00251
357\, 2, wb, attraction, a-b-da, 2, 3, 6, 5, 193, 119, 195, 120, 120, 195, 2, 0.27344
357\, 2, wb, catch, NA, 999, 999, 6, 6, 91, 164, 126, 69, 167, 148, 2, 0.979963
357\, 2, wb, catch, NA, 999, 999, 6, 6, 91, 164, 126, 69, 167, 148, 3, 0.451625
357\, 2, wb, attraction, a-b-da, 14, 1, 6, 7, 60, 135, 125, 56, 135, 60, 1, 1.11157
357\, 2, wb, attraction, a-b-da, 14, 1, 6, 7, 60, 135, 125, 56, 135, 60, 3, 0.857866
357\, 2, wb, catch, NA, 999, 999, 6, 8, 107, 148, 176, 139, 102, 93, 3, 0.780883
357\, 2, wb, catch, NA, 999, 999, 6, 8, 107, 148, 176, 139, 102, 93, 2, 0.360532
357\, 2, wb, attraction, a-b-da, 2, 1, 6, 9, 60, 135, 134, 59, 135, 60, 1, 0.843626
357\, 2, wb, attraction, a-b-da, 2, 1, 6, 9, 60, 135, 134, 59, 135, 60, 3, 0.440681
357\, 2, wb, attraction, a-b-db, 9, 2, 6, 10, 90, 165, 165, 90, 86, 157, 2, 1.16444
357\, 2, wb, attraction, a-b-db, 9, 2, 6, 10, 90, 165, 165, 90, 86, 157, 1, 0.372682
357\, 2, wb, filler, NA, 999, 999, 6, 11, 146, 58, 82, 158, 124, 112, 1, 1.1952
357\, 2, wb, filler, NA, 999, 999, 6, 11, 146, 58, 82, 158, 124, 112, 3, 0.682265
357\, 2, wb, attraction, a-b-da, 5, 1, 6, 12, 60, 135, 135, 60, 132, 58, 1, 0.612566
357\, 2, wb, attraction, a-b-da, 5, 1, 6, 12, 60, 135, 135, 60, 132, 58, 2, 0.587016
357\, 2, wb, filler, NA, 999, 999, 6, 13, 192, 147, 156, 121, 184, 183, 2, 0.929447
357\, 2, wb, filler, NA, 999, 999, 6, 13, 192, 147, 156, 121, 184, 183, 3, 0.379158
357\, 2, wb, filler, NA, 999, 999, 6, 14, 176, 162, 165, 79, 73, 147, 3, 0.809712
357\, 2, wb, filler, NA, 999, 999, 6, 14, 176, 162, 165, 79, 73, 147, 1, 0.391995
357\, 2, wb, attraction, a-b-db, 5, 1, 6, 15, 58, 132, 135, 60, 60, 135, 2, 1.48583
357\, 2, wb, attraction, a-b-db, 5, 1, 6, 15, 58, 132, 135, 60, 60, 135, 3, 0.50533
357\, 2, wb, attraction, a-b-da, 5, 2, 6, 16, 165, 90, 90, 165, 161, 88, 3, 1.16321
357\, 2, wb, attraction, a-b-da, 5, 2, 6, 16, 165, 90, 90, 165, 161, 88, 2, 0.37938
357\, 2, wb, attraction, a-b-db, 2, 2, 6, 17, 89, 163, 90, 165, 165, 90, 3, 0.841867
357\, 2, wb, attraction, a-b-db, 2, 2, 6, 17, 89, 163, 90, 165, 165, 90, 2, 0.390854
357\, 2, wb, attraction, a-b-da, 14, 3, 6, 18, 195, 120, 120, 195, 181, 111, 3, 2.01283
357\, 2, wb, attraction, a-b-da, 14, 3, 6, 18, 195, 120, 120, 195, 181, 111, 2, 0.754817
357\, 2, wb, attraction, a-b-db, 5, 2, 6, 19, 88, 161, 90, 165, 165, 90, 3, 0.962519
357\, 2, wb, attraction, a-b-db, 5, 2, 6, 19, 88, 161, 90, 165, 165, 90, 1, 0.946871
357\, 2, wb, attraction, a-b-db, 9, 3, 6, 20, 120, 195, 114, 186, 195, 120, 3, 1.55456
357\, 2, wb, attraction, a-b-db, 9, 3, 6, 20, 120, 195, 114, 186, 195, 120, 1, 0.40257
357\, 2, wb, filler, NA, 999, 999, 6, 21, 139, 115, 59, 75, 164, 70, 2, 0.776517
357\, 2, wb, filler, NA, 999, 999, 6, 21, 139, 115, 59, 75, 164, 70, 1, 0.424288
357\, 2, wb, attraction, a-b-db, 2, 3, 6, 22, 119, 193, 195, 120, 120, 195, 2, 1.45258
357\, 2, wb, attraction, a-b-db, 2, 3, 6, 22, 119, 193, 195, 120, 120, 195, 3, 0.449531
357\, 2, wb, attraction, a-b-db, 9, 1, 6, 23, 57, 129, 135, 60, 60, 135, 3, 1.42133
357\, 2, wb, attraction, a-b-db, 9, 1, 6, 23, 57, 129, 135, 60, 60, 135, 2, 1.7949
357\, 2, wb, attraction, a-b-da, 5, 3, 6, 24, 195, 120, 120, 195, 190, 117, 1, 1.20826
357\, 2, wb, attraction, a-b-da, 5, 3, 6, 24, 195, 120, 120, 195, 190, 117, 2, 0.294489
357\, 2, wb, catch, NA, 999, 999, 6, 25, 141, 114, 70, 125, 143, 172, 2, 0.960321
357\, 2, wb, catch, NA, 999, 999, 6, 25, 141, 114, 70, 125, 143, 172, 3, 0.296623
357\, 2, wb, filler, NA, 999, 999, 6, 26, 154, 78, 195, 155, 91, 86, 3, 0.578507
357\, 2, wb, filler, NA, 999, 999, 6, 26, 154, 78, 195, 155, 91, 86, 2, 0.274296
357\, 2, wb, attraction, a-b-da, 9, 3, 6, 27, 195, 120, 120, 195, 186, 114, 3, 0.78084
357\, 2, wb, attraction, a-b-da, 9, 3, 6, 27, 195, 120, 120, 195, 186, 114, 2, 0.308496
357\, 2, wb, attraction, a-b-da, 2, 2, 6, 28, 165, 90, 90, 165, 163, 89, 2, 0.725666
357\, 2, wb, attraction, a-b-da, 2, 2, 6, 28, 165, 90, 90, 165, 163, 89, 1, 0.687475
357\, 2, wb, attraction, a-b-da, 14, 2, 6, 29, 153, 83, 165, 90, 90, 165, 3, 0.561947
357\, 2, wb, attraction, a-b-da, 14, 2, 6, 29, 153, 83, 165, 90, 90, 165, 2, 0.690291
357\, 2, wb, attraction, a-b-da, 9, 2, 6, 30, 165, 90, 90, 165, 157, 86, 3, 0.523968
357\, 2, wb, attraction, a-b-da, 9, 2, 6, 30, 165, 90, 90, 165, 157, 86, 2, 0.557974
357\, 2, wb, filler, NA, 999, 999, 6, 31, 177, 86, 183, 61, 179, 194, 2, 0.837095
357\, 2, wb, filler, NA, 999, 999, 6, 31, 177, 86, 183, 61, 179, 194, 3, 0.377957
357\, 2, wb, attraction, a-b-db, 14, 3, 6, 32, 120, 195, 195, 120, 111, 181, 1, 0.528384
357\, 2, wb, attraction, a-b-db, 14, 3, 6, 32, 120, 195, 195, 120, 111, 181, 2, 0.362433
357\, 2, wb, attraction, a-b-da, 9, 1, 6, 33, 129, 57, 135, 60, 60, 135, 3, 0.641441
357\, 2, wb, attraction, a-b-da, 9, 1, 6, 33, 129, 57, 135, 60, 60, 135, 1, 0.670654
357\, 2, wb, filler, NA, 999, 999, 6, 34, 179, 153, 146, 62, 134, 93, 3, 0.617622
357\, 2, wb, filler, NA, 999, 999, 6, 34, 179, 153, 146, 62, 134, 93, 1, 0.568265
357\, 2, wb, attraction, a-b-db, 5, 3, 6, 35, 195, 120, 120, 195, 117, 190, 2, 1.56718
357\, 2, wb, attraction, a-b-db, 5, 3, 6, 35, 195, 120, 120, 195, 117, 190, 1, 0.59151
357\, 2, wb, attraction, a-b-db, 14, 1, 6, 36, 135, 60, 60, 135, 56, 125, 3, 0.669069
357\, 2, wb, attraction, a-b-db, 14, 1, 6, 36, 135, 60, 60, 135, 56, 125, 1, 0.44156
357\, 2, wb, filler, NA, 999, 999, 6, 37, 99, 192, 165, 80, 132, 145, 2, 0.796696
357\, 2, wb, filler, NA, 999, 999, 6, 37, 99, 192, 165, 80, 132, 145, 3, 0.5724
357\, 2, wb, attraction, a-b-da, 5, 3, 7, 1, 120, 195, 195, 120, 190, 117, 1, 1.24348
357\, 2, wb, attraction, a-b-da, 5, 3, 7, 1, 120, 195, 195, 120, 190, 117, 2, 0.296417
357\, 2, wb, filler, NA, 999, 999, 7, 2, 84, 139, 195, 162, 74, 97, 3, 0.898236
357\, 2, wb, filler, NA, 999, 999, 7, 2, 84, 139, 195, 162, 74, 97, 2, 0.27735
357\, 2, wb, filler, NA, 999, 999, 7, 3, 91, 170, 162, 168, 82, 103, 3, 0.663799
357\, 2, wb, filler, NA, 999, 999, 7, 3, 91, 170, 162, 168, 82, 103, 2, 0.316227
357\, 2, wb, filler, NA, 999, 999, 7, 4, 156, 154, 84, 119, 79, 160, 2, 0.717412
357\, 2, wb, filler, NA, 999, 999, 7, 4, 156, 154, 84, 119, 79, 160, 1, 0.28778
357\, 2, wb, attraction, a-b-da, 9, 3, 7, 5, 120, 195, 195, 120, 186, 114, 3, 0.658258
357\, 2, wb, attraction, a-b-da, 9, 3, 7, 5, 120, 195, 195, 120, 186, 114, 2, 0.278764
357\, 2, wb, filler, NA, 999, 999, 7, 6, 129, 159, 130, 146, 123, 149, 1, 0.6172
357\, 2, wb, filler, NA, 999, 999, 7, 6, 129, 159, 130, 146, 123, 149, 2, 0.335686
357\, 2, wb, attraction, a-b-db, 5, 2, 7, 7, 90, 165, 165, 90, 88, 161, 2, 0.627992
357\, 2, wb, attraction, a-b-db, 5, 2, 7, 7, 90, 165, 165, 90, 88, 161, 1, 0.197983
357\, 2, wb, filler, NA, 999, 999, 7, 8, 77, 161, 142, 126, 172, 145, 1, 0.699891
357\, 2, wb, filler, NA, 999, 999, 7, 8, 77, 161, 142, 126, 172, 145, 2, 0.326934
357\, 2, wb, attraction, a-b-da, 2, 1, 7, 9, 134, 59, 135, 60, 60, 135, 3, 1.03949
357\, 2, wb, attraction, a-b-da, 2, 1, 7, 9, 134, 59, 135, 60, 60, 135, 2, 0.268464
357\, 2, wb, attraction, a-b-db, 14, 1, 7, 10, 60, 135, 135, 60, 56, 125, 3, 0.551733
357\, 2, wb, attraction, a-b-db, 14, 1, 7, 10, 60, 135, 135, 60, 56, 125, 2, 1.00075
357\, 2, wb, attraction, a-b-da, 5, 1, 7, 11, 60, 135, 135, 60, 132, 58, 3, 0.686505
357\, 2, wb, attraction, a-b-da, 5, 1, 7, 11, 60, 135, 135, 60, 132, 58, 1, 0.442132
357\, 2, wb, filler, NA, 999, 999, 7, 12, 135, 74, 133, 96, 88, 151, 1, 1.78998
357\, 2, wb, filler, NA, 999, 999, 7, 12, 135, 74, 133, 96, 88, 151, 2, 0.388724
357\, 2, wb, filler, NA, 999, 999, 7, 13, 179, 97, 124, 121, 69, 80, 3, 1.46734
357\, 2, wb, filler, NA, 999, 999, 7, 13, 179, 97, 124, 121, 69, 80, 2, 0.735395
357\, 2, wb, attraction, a-b-db, 5, 3, 7, 14, 195, 120, 117, 190, 120, 195, 3, 1.77579
357\, 2, wb, attraction, a-b-db, 5, 3, 7, 14, 195, 120, 117, 190, 120, 195, 1, 0.351195
357\, 2, wb, attraction, a-b-db, 9, 3, 7, 15, 195, 120, 114, 186, 120, 195, 2, 1.53499
357\, 2, wb, attraction, a-b-db, 9, 3, 7, 15, 195, 120, 114, 186, 120, 195, 3, 0.448535
357\, 2, wb, attraction, a-b-db, 14, 2, 7, 16, 165, 90, 83, 153, 90, 165, 2, 1.14028
357\, 2, wb, attraction, a-b-db, 14, 2, 7, 16, 165, 90, 83, 153, 90, 165, 1, 0.397216
357\, 2, wb, attraction, a-b-db, 9, 2, 7, 17, 165, 90, 86, 157, 90, 165, 1, 1.56309
357\, 2, wb, attraction, a-b-db, 9, 2, 7, 17, 165, 90, 86, 157, 90, 165, 2, 0.323178
357\, 2, wb, filler, NA, 999, 999, 7, 18, 183, 90, 149, 158, 117, 185, 1, 1.7957
357\, 2, wb, filler, NA, 999, 999, 7, 18, 183, 90, 149, 158, 117, 185, 3, 0.330528
357\, 2, wb, filler, NA, 999, 999, 7, 19, 107, 129, 130, 97, 62, 115, 3, 0.746973
357\, 2, wb, filler, NA, 999, 999, 7, 19, 107, 129, 130, 97, 62, 115, 1, 0.308021
357\, 2, wb, attraction, a-b-da, 9, 1, 7, 20, 60, 135, 129, 57, 135, 60, 2, 1.30116
357\, 2, wb, attraction, a-b-da, 9, 1, 7, 20, 60, 135, 129, 57, 135, 60, 3, 0.528165
357\, 2, wb, attraction, a-b-da, 2, 2, 7, 21, 90, 165, 163, 89, 165, 90, 3, 1.74455
357\, 2, wb, attraction, a-b-da, 2, 2, 7, 21, 90, 165, 163, 89, 165, 90, 1, 0.435029
357\, 2, wb, filler, NA, 999, 999, 7, 22, 135, 105, 98, 95, 89, 160, 2, 0.605841
357\, 2, wb, filler, NA, 999, 999, 7, 22, 135, 105, 98, 95, 89, 160, 3, 0.64421
357\, 2, wb, attraction, a-b-da, 2, 3, 7, 23, 120, 195, 193, 119, 195, 120, 2, 1.47202
357\, 2, wb, attraction, a-b-da, 2, 3, 7, 23, 120, 195, 193, 119, 195, 120, 3, 0.515545
357\, 2, wb, attraction, a-b-da, 14, 1, 7, 24, 135, 60, 60, 135, 125, 56, 2, 0.860708
357\, 2, wb, attraction, a-b-da, 14, 1, 7, 24, 135, 60, 60, 135, 125, 56, 1, 0.416913
357\, 2, wb, attraction, a-b-db, 2, 2, 7, 25, 90, 165, 89, 163, 165, 90, 2, 2.70231
357\, 2, wb, attraction, a-b-db, 2, 2, 7, 25, 90, 165, 89, 163, 165, 90, 3, 0.936615
357\, 2, wb, catch, NA, 999, 999, 7, 26, 133, 122, 115, 80, 139, 176, 2, 0.608888
357\, 2, wb, catch, NA, 999, 999, 7, 26, 133, 122, 115, 80, 139, 176, 3, 0.487409
357\, 2, wb, attraction, a-b-db, 14, 3, 7, 27, 195, 120, 111, 181, 120, 195, 3, 1.13782
357\, 2, wb, attraction, a-b-db, 14, 3, 7, 27, 195, 120, 111, 181, 120, 195, 1, 0.442759
357\, 2, wb, attraction, a-b-db, 5, 1, 7, 28, 135, 60, 60, 135, 58, 132, 2, 0.670563
357\, 2, wb, attraction, a-b-db, 5, 1, 7, 28, 135, 60, 60, 135, 58, 132, 1, 0.659083
357\, 2, wb, attraction, a-b-da, 5, 2, 7, 29, 165, 90, 161, 88, 90, 165, 2, 1.03815
357\, 2, wb, attraction, a-b-da, 5, 2, 7, 29, 165, 90, 161, 88, 90, 165, 1, 0.651108
357\, 2, wb, attraction, a-b-db, 2, 1, 7, 30, 59, 134, 60, 135, 135, 60, 2, 1.05304
357\, 2, wb, attraction, a-b-db, 2, 1, 7, 30, 59, 134, 60, 135, 135, 60, 3, 0.5551
357\, 2, wb, attraction, a-b-da, 14, 2, 7, 31, 165, 90, 153, 83, 90, 165, 2, 0.818812
357\, 2, wb, attraction, a-b-da, 14, 2, 7, 31, 165, 90, 153, 83, 90, 165, 1, 0.46534
357\, 2, wb, catch, NA, 999, 999, 7, 32, 109, 146, 123, 72, 134, 181, 2, 1.2524
357\, 2, wb, catch, NA, 999, 999, 7, 32, 109, 146, 123, 72, 134, 181, 3, 0.497254
357\, 2, wb, catch, NA, 999, 999, 7, 33, 189, 126, 76, 119, 120, 135, 2, 0.73907
357\, 2, wb, catch, NA, 999, 999, 7, 33, 189, 126, 76, 119, 120, 135, 1, 0.324176
357\, 2, wb, attraction, a-b-da, 14, 3, 7, 34, 195, 120, 181, 111, 120, 195, 1, 1.10082
357\, 2, wb, attraction, a-b-da, 14, 3, 7, 34, 195, 120, 181, 111, 120, 195, 3, 0.391724
357\, 2, wb, attraction, a-b-da, 9, 2, 7, 35, 165, 90, 90, 165, 157, 86, 2, 0.557439
357\, 2, wb, attraction, a-b-da, 9, 2, 7, 35, 165, 90, 90, 165, 157, 86, 1, 0.81397
357\, 2, wb, attraction, a-b-db, 2, 3, 7, 36, 119, 193, 120, 195, 195, 120, 2, 0.786997
357\, 2, wb, attraction, a-b-db, 2, 3, 7, 36, 119, 193, 120, 195, 195, 120, 1, 0.690634
357\, 2, wb, attraction, a-b-db, 9, 1, 7, 37, 60, 135, 57, 129, 135, 60, 1, 1.05238
357\, 2, wb, attraction, a-b-db, 9, 1, 7, 37, 60, 135, 57, 129, 135, 60, 3, 0.345343
357\, 2, wb, catch, NA, 999, 999, 8, 1, 155, 100, 163, 152, 109, 86, 3, 0.673162
357\, 2, wb, catch, NA, 999, 999, 8, 1, 155, 100, 163, 152, 109, 86, 2, 0.28498
357\, 2, wb, attraction, a-b-da, 14, 2, 8, 2, 153, 83, 90, 165, 165, 90, 1, 0.671624
357\, 2, wb, attraction, a-b-da, 14, 2, 8, 2, 153, 83, 90, 165, 165, 90, 2, 0.547215
357\, 2, wb, attraction, a-b-da, 2, 1, 8, 3, 135, 60, 60, 135, 134, 59, 1, 0.659127
357\, 2, wb, attraction, a-b-da, 2, 1, 8, 3, 135, 60, 60, 135, 134, 59, 2, 0.311411
357\, 2, wb, attraction, a-b-db, 14, 1, 8, 4, 56, 125, 60, 135, 135, 60, 3, 0.840599
357\, 2, wb, attraction, a-b-db, 14, 1, 8, 4, 56, 125, 60, 135, 135, 60, 2, 0.325668
357\, 2, wb, catch, NA, 999, 999, 8, 5, 123, 192, 143, 112, 130, 65, 3, 0.710425
357\, 2, wb, catch, NA, 999, 999, 8, 5, 123, 192, 143, 112, 130, 65, 1, 0.408605
357\, 2, wb, attraction, a-b-da, 5, 1, 8, 6, 132, 58, 135, 60, 60, 135, 1, 0.749754
357\, 2, wb, attraction, a-b-da, 5, 1, 8, 6, 132, 58, 135, 60, 60, 135, 3, 0.334829
357\, 2, wb, attraction, a-b-db, 2, 2, 8, 7, 165, 90, 90, 165, 89, 163, 1, 0.591371
357\, 2, wb, attraction, a-b-db, 2, 2, 8, 7, 165, 90, 90, 165, 89, 163, 2, 0.326444
357\, 2, wb, attraction, a-b-db, 9, 3, 8, 8, 120, 195, 114, 186, 195, 120, 1, 0.558955
357\, 2, wb, attraction, a-b-db, 9, 3, 8, 8, 120, 195, 114, 186, 195, 120, 3, 0.879432
357\, 2, wb, attraction, a-b-db, 5, 1, 8, 9, 58, 132, 60, 135, 135, 60, 1, 0.729702
357\, 2, wb, attraction, a-b-db, 5, 1, 8, 9, 58, 132, 60, 135, 135, 60, 3, 0.539476
357\, 2, wb, filler, NA, 999, 999, 8, 10, 88, 179, 191, 61, 77, 172, 2, 0.589904
357\, 2, wb, filler, NA, 999, 999, 8, 10, 88, 179, 191, 61, 77, 172, 1, 0.546621
357\, 2, wb, attraction, a-b-db, 2, 1, 8, 11, 60, 135, 59, 134, 135, 60, 2, 0.546126
357\, 2, wb, attraction, a-b-db, 2, 1, 8, 11, 60, 135, 59, 134, 135, 60, 3, 0.515304
357\, 2, wb, filler, NA, 999, 999, 8, 12, 116, 183, 113, 186, 143, 188, 1, 1.27631
357\, 2, wb, filler, NA, 999, 999, 8, 12, 116, 183, 113, 186, 143, 188, 3, 0.33602
357\, 2, wb, attraction, a-b-da, 14, 1, 8, 13, 125, 56, 135, 60, 60, 135, 1, 1.26443
357\, 2, wb, attraction, a-b-da, 14, 1, 8, 13, 125, 56, 135, 60, 60, 135, 2, 0.372709
357\, 2, wb, filler, NA, 999, 999, 8, 14, 151, 192, 153, 115, 175, 146, 3, 0.859384
357\, 2, wb, filler, NA, 999, 999, 8, 14, 151, 192, 153, 115, 175, 146, 2, 0.919616
357\, 2, wb, filler, NA, 999, 999, 8, 15, 112, 65, 93, 133, 190, 65, 1, 1.20851
357\, 2, wb, filler, NA, 999, 999, 8, 15, 112, 65, 93, 133, 190, 65, 2, 0.374898
357\, 2, wb, attraction, a-b-da, 9, 1, 8, 16, 135, 60, 129, 57, 60, 135, 1, 0.957271
357\, 2, wb, attraction, a-b-da, 9, 1, 8, 16, 135, 60, 129, 57, 60, 135, 3, 0.517672
357\, 2, wb, attraction, a-b-da, 5, 3, 8, 17, 190, 117, 120, 195, 195, 120, 3, 1.911
357\, 2, wb, attraction, a-b-da, 5, 3, 8, 17, 190, 117, 120, 195, 195, 120, 2, 0.920848
357\, 2, wb, attraction, a-b-db, 14, 3, 8, 18, 111, 181, 120, 195, 195, 120, 1, 1.46583
357\, 2, wb, attraction, a-b-db, 14, 3, 8, 18, 111, 181, 120, 195, 195, 120, 2, 0.470014
357\, 2, wb, attraction, a-b-db, 9, 1, 8, 19, 60, 135, 57, 129, 135, 60, 1, 0.809031
357\, 2, wb, attraction, a-b-db, 9, 1, 8, 19, 60, 135, 57, 129, 135, 60, 3, 0.679545
357\, 2, wb, attraction, a-b-db, 14, 2, 8, 20, 90, 165, 83, 153, 165, 90, 1, 0.657882
357\, 2, wb, attraction, a-b-db, 14, 2, 8, 20, 90, 165, 83, 153, 165, 90, 3, 0.414397
357\, 2, wb, attraction, a-b-db, 2, 3, 8, 21, 195, 120, 120, 195, 119, 193, 1, 1.02752
357\, 2, wb, attraction, a-b-db, 2, 3, 8, 21, 195, 120, 120, 195, 119, 193, 3, 0.369132
357\, 2, wb, attraction, a-b-da, 2, 2, 8, 22, 90, 165, 165, 90, 163, 89, 2, 1.43239
357\, 2, wb, attraction, a-b-da, 2, 2, 8, 22, 90, 165, 165, 90, 163, 89, 3, 0.501884
357\, 2, wb, filler, NA, 999, 999, 8, 23, 128, 88, 65, 87, 90, 77, 2, 0.839686
357\, 2, wb, filler, NA, 999, 999, 8, 23, 128, 88, 65, 87, 90, 77, 1, 0.372742
357\, 2, wb, attraction, a-b-db, 5, 3, 8, 24, 120, 195, 195, 120, 117, 190, 3, 0.451157
357\, 2, wb, attraction, a-b-db, 5, 3, 8, 24, 120, 195, 195, 120, 117, 190, 2, 0.464444
357\, 2, wb, filler, NA, 999, 999, 8, 25, 139, 111, 145, 192, 164, 156, 1, 0.715357
357\, 2, wb, filler, NA, 999, 999, 8, 25, 139, 111, 145, 192, 164, 156, 2, 0.357876
357\, 2, wb, filler, NA, 999, 999, 8, 26, 144, 60, 78, 90, 113, 171, 2, 0.541075
357\, 2, wb, filler, NA, 999, 999, 8, 26, 144, 60, 78, 90, 113, 171, 3, 0.318225
357\, 2, wb, catch, NA, 999, 999, 8, 27, 179, 136, 78, 117, 100, 155, 2, 0.415295
357\, 2, wb, catch, NA, 999, 999, 8, 27, 179, 136, 78, 117, 100, 155, 1, 0.349796
357\, 2, wb, attraction, a-b-da, 9, 2, 8, 28, 157, 86, 165, 90, 90, 165, 1, 1.16566
357\, 2, wb, attraction, a-b-da, 9, 2, 8, 28, 157, 86, 165, 90, 90, 165, 3, 0.541981
357\, 2, wb, attraction, a-b-da, 2, 3, 8, 29, 195, 120, 120, 195, 193, 119, 3, 1.6697
357\, 2, wb, attraction, a-b-da, 2, 3, 8, 29, 195, 120, 120, 195, 193, 119, 2, 0.281797
357\, 2, wb, filler, NA, 999, 999, 8, 30, 147, 150, 115, 110, 137, 73, 2, 0.956447
357\, 2, wb, filler, NA, 999, 999, 8, 30, 147, 150, 115, 110, 137, 73, 1, 0.316803
357\, 2, wb, attraction, a-b-da, 14, 3, 8, 31, 120, 195, 195, 120, 181, 111, 2, 2.65389
357\, 2, wb, attraction, a-b-da, 14, 3, 8, 31, 120, 195, 195, 120, 181, 111, 1, 0.362352
357\, 2, wb, filler, NA, 999, 999, 8, 32, 168, 137, 100, 116, 64, 189, 2, 0.977507
357\, 2, wb, filler, NA, 999, 999, 8, 32, 168, 137, 100, 116, 64, 189, 1, 0.385314
357\, 2, wb, filler, NA, 999, 999, 8, 33, 163, 162, 132, 117, 93, 139, 3, 1.71962
357\, 2, wb, filler, NA, 999, 999, 8, 33, 163, 162, 132, 117, 93, 139, 1, 0.417253
357\, 2, wb, attraction, a-b-db, 5, 2, 8, 34, 165, 90, 88, 161, 90, 165, 2, 2.78221
357\, 2, wb, attraction, a-b-db, 5, 2, 8, 34, 165, 90, 88, 161, 90, 165, 1, 0.821444
357\, 2, wb, attraction, a-b-da, 9, 3, 8, 35, 195, 120, 186, 114, 120, 195, 3, 0.690416
357\, 2, wb, attraction, a-b-da, 9, 3, 8, 35, 195, 120, 186, 114, 120, 195, 2, 1.29358
357\, 2, wb, attraction, a-b-db, 9, 2, 8, 36, 165, 90, 90, 165, 86, 157, 3, 0.903007
357\, 2, wb, attraction, a-b-db, 9, 2, 8, 36, 165, 90, 90, 165, 86, 157, 1, 0.490014
357\, 2, wb, attraction, a-b-da, 5, 2, 8, 37, 90, 165, 165, 90, 161, 88, 1, 0.747784
357\, 2, wb, attraction, a-b-da, 5, 2, 8, 37, 90, 165, 165, 90, 161, 88, 3, 0.949029
