sub_n, computer_n, bw_cond, effect, set, distance, diag, block_n, trial_n, h1, w1, h2, w2, h3, w3, choice, rt 
310, 2, wb, practice, NA, 999, 999, 0, 1, 70, 96, 132, 100, 119, 132, 1, 3.47629
310, 2, wb, practice, NA, 999, 999, 0, 1, 70, 96, 132, 100, 119, 132, 3, 2.15081
310, 2, wb, practice, NA, 999, 999, 0, 2, 179, 182, 168, 124, 167, 191, 2, 1.97172
310, 2, wb, practice, NA, 999, 999, 0, 2, 179, 182, 168, 124, 167, 191, 3, 0.980082
310, 2, wb, practice, NA, 999, 999, 0, 3, 110, 155, 57, 149, 75, 178, 2, 1.92578
310, 2, wb, practice, NA, 999, 999, 0, 3, 110, 155, 57, 149, 75, 178, 1, 0.822394
310, 2, wb, attraction, a-b-da, 2, 1, 1, 1, 60, 135, 135, 60, 134, 59, 1, 2.51929
310, 2, wb, attraction, a-b-da, 2, 1, 1, 1, 60, 135, 135, 60, 134, 59, 3, 1.13716
310, 2, wb, filler, NA, 999, 999, 1, 2, 96, 75, 67, 170, 103, 72, 1, 1.48934
310, 2, wb, filler, NA, 999, 999, 1, 2, 96, 75, 67, 170, 103, 72, 2, 0.54826
310, 2, wb, attraction, a-b-db, 2, 2, 1, 3, 165, 90, 90, 165, 89, 163, 1, 5.28415
310, 2, wb, attraction, a-b-db, 2, 2, 1, 3, 165, 90, 90, 165, 89, 163, 2, 0.638267
310, 2, wb, attraction, a-b-da, 5, 3, 1, 4, 195, 120, 190, 117, 120, 195, 2, 2.48286
310, 2, wb, attraction, a-b-da, 5, 3, 1, 4, 195, 120, 190, 117, 120, 195, 1, 2.0699
310, 2, wb, filler, NA, 999, 999, 1, 5, 74, 176, 193, 131, 154, 182, 1, 1.00059
310, 2, wb, filler, NA, 999, 999, 1, 5, 74, 176, 193, 131, 154, 182, 3, 0.559628
310, 2, wb, attraction, a-b-da, 9, 2, 1, 6, 165, 90, 157, 86, 90, 165, 2, 2.95862
310, 2, wb, attraction, a-b-da, 9, 2, 1, 6, 165, 90, 157, 86, 90, 165, 1, 0.606343
310, 2, wb, filler, NA, 999, 999, 1, 7, 160, 191, 133, 63, 184, 186, 2, 1.32342
310, 2, wb, filler, NA, 999, 999, 1, 7, 160, 191, 133, 63, 184, 186, 3, 2.08522
310, 2, wb, attraction, a-b-da, 5, 2, 1, 8, 165, 90, 90, 165, 161, 88, 2, 1.76689
310, 2, wb, attraction, a-b-da, 5, 2, 1, 8, 165, 90, 90, 165, 161, 88, 1, 0.43912
310, 2, wb, attraction, a-b-da, 14, 3, 1, 9, 195, 120, 120, 195, 181, 111, 3, 1.41951
310, 2, wb, attraction, a-b-da, 14, 3, 1, 9, 195, 120, 120, 195, 181, 111, 2, 0.569667
310, 2, wb, catch, NA, 999, 999, 1, 10, 101, 94, 171, 144, 124, 131, 1, 1.22476
310, 2, wb, catch, NA, 999, 999, 1, 10, 101, 94, 171, 144, 124, 131, 2, 0.398385
310, 2, wb, attraction, a-b-db, 5, 2, 1, 11, 88, 161, 90, 165, 165, 90, 2, 0.908141
310, 2, wb, attraction, a-b-db, 5, 2, 1, 11, 88, 161, 90, 165, 165, 90, 1, 0.358484
310, 2, wb, filler, NA, 999, 999, 1, 12, 187, 85, 145, 145, 73, 174, 3, 1.33374
310, 2, wb, filler, NA, 999, 999, 1, 12, 187, 85, 145, 145, 73, 174, 2, 0.519316
310, 2, wb, filler, NA, 999, 999, 1, 13, 194, 175, 109, 90, 188, 115, 2, 1.03242
310, 2, wb, filler, NA, 999, 999, 1, 13, 194, 175, 109, 90, 188, 115, 1, 0.40616
310, 2, wb, attraction, a-b-db, 9, 3, 1, 14, 120, 195, 195, 120, 114, 186, 3, 1.72327
310, 2, wb, attraction, a-b-db, 9, 3, 1, 14, 120, 195, 195, 120, 114, 186, 1, 0.38063
310, 2, wb, attraction, a-b-db, 9, 1, 1, 15, 60, 135, 57, 129, 135, 60, 2, 1.21116
310, 2, wb, attraction, a-b-db, 9, 1, 1, 15, 60, 135, 57, 129, 135, 60, 3, 0.401439
310, 2, wb, filler, NA, 999, 999, 1, 16, 188, 158, 135, 104, 74, 77, 3, 0.951133
310, 2, wb, filler, NA, 999, 999, 1, 16, 188, 158, 135, 104, 74, 77, 1, 0.328245
310, 2, wb, catch, NA, 999, 999, 1, 17, 107, 148, 123, 72, 169, 146, 2, 1.55266
310, 2, wb, catch, NA, 999, 999, 1, 17, 107, 148, 123, 72, 169, 146, 3, 0.425503
310, 2, wb, attraction, a-b-db, 5, 3, 1, 18, 195, 120, 117, 190, 120, 195, 2, 1.59004
310, 2, wb, attraction, a-b-db, 5, 3, 1, 18, 195, 120, 117, 190, 120, 195, 1, 0.35688
310, 2, wb, attraction, a-b-db, 2, 3, 1, 19, 195, 120, 119, 193, 120, 195, 2, 0.787928
310, 2, wb, attraction, a-b-db, 2, 3, 1, 19, 195, 120, 119, 193, 120, 195, 1, 0.387063
310, 2, wb, attraction, a-b-da, 2, 3, 1, 20, 193, 119, 120, 195, 195, 120, 1, 1.20159
310, 2, wb, attraction, a-b-da, 2, 3, 1, 20, 193, 119, 120, 195, 195, 120, 2, 0.320472
310, 2, wb, attraction, a-b-db, 2, 1, 1, 21, 59, 134, 60, 135, 135, 60, 1, 1.15364
310, 2, wb, attraction, a-b-db, 2, 1, 1, 21, 59, 134, 60, 135, 135, 60, 2, 0.346628
310, 2, wb, attraction, a-b-db, 14, 2, 1, 22, 165, 90, 83, 153, 90, 165, 2, 0.850469
310, 2, wb, attraction, a-b-db, 14, 2, 1, 22, 165, 90, 83, 153, 90, 165, 1, 0.383618
310, 2, wb, catch, NA, 999, 999, 1, 23, 133, 182, 134, 121, 106, 89, 3, 0.781948
310, 2, wb, catch, NA, 999, 999, 1, 23, 133, 182, 134, 121, 106, 89, 1, 0.469675
310, 2, wb, attraction, a-b-da, 5, 1, 1, 24, 132, 58, 60, 135, 135, 60, 2, 0.752895
310, 2, wb, attraction, a-b-da, 5, 1, 1, 24, 132, 58, 60, 135, 135, 60, 1, 0.433854
310, 2, wb, attraction, a-b-da, 9, 3, 1, 25, 120, 195, 186, 114, 195, 120, 2, 1.54235
310, 2, wb, attraction, a-b-da, 9, 3, 1, 25, 120, 195, 186, 114, 195, 120, 3, 0.663222
310, 2, wb, attraction, a-b-da, 2, 2, 1, 26, 163, 89, 90, 165, 165, 90, 1, 1.41021
310, 2, wb, attraction, a-b-da, 2, 2, 1, 26, 163, 89, 90, 165, 165, 90, 2, 0.312433
310, 2, wb, attraction, a-b-da, 14, 2, 1, 27, 165, 90, 90, 165, 153, 83, 3, 0.953639
310, 2, wb, attraction, a-b-da, 14, 2, 1, 27, 165, 90, 90, 165, 153, 83, 2, 0.737976
310, 2, wb, attraction, a-b-db, 14, 1, 1, 28, 56, 125, 135, 60, 60, 135, 1, 1.35434
310, 2, wb, attraction, a-b-db, 14, 1, 1, 28, 56, 125, 135, 60, 60, 135, 3, 0.450553
310, 2, wb, attraction, a-b-db, 5, 1, 1, 29, 60, 135, 135, 60, 58, 132, 3, 0.902342
310, 2, wb, attraction, a-b-db, 5, 1, 1, 29, 60, 135, 135, 60, 58, 132, 1, 0.889434
310, 2, wb, filler, NA, 999, 999, 1, 30, 120, 60, 109, 69, 141, 81, 2, 0.819037
310, 2, wb, filler, NA, 999, 999, 1, 30, 120, 60, 109, 69, 141, 81, 3, 0.305451
310, 2, wb, filler, NA, 999, 999, 1, 31, 164, 93, 58, 101, 60, 71, 3, 0.787321
310, 2, wb, filler, NA, 999, 999, 1, 31, 164, 93, 58, 101, 60, 71, 1, 0.426378
310, 2, wb, filler, NA, 999, 999, 1, 32, 174, 125, 127, 157, 121, 182, 2, 1.11083
310, 2, wb, filler, NA, 999, 999, 1, 32, 174, 125, 127, 157, 121, 182, 1, 0.353142
310, 2, wb, attraction, a-b-db, 14, 3, 1, 33, 195, 120, 120, 195, 111, 181, 2, 0.72896
310, 2, wb, attraction, a-b-db, 14, 3, 1, 33, 195, 120, 120, 195, 111, 181, 1, 1.68264
310, 2, wb, attraction, a-b-da, 14, 1, 1, 34, 135, 60, 60, 135, 125, 56, 3, 2.85289
310, 2, wb, attraction, a-b-da, 14, 1, 1, 34, 135, 60, 60, 135, 125, 56, 1, 0.689289
310, 2, wb, attraction, a-b-db, 9, 2, 1, 35, 86, 157, 165, 90, 90, 165, 2, 1.70754
310, 2, wb, attraction, a-b-db, 9, 2, 1, 35, 86, 157, 165, 90, 90, 165, 3, 0.877677
310, 2, wb, filler, NA, 999, 999, 1, 36, 173, 193, 161, 93, 58, 188, 3, 0.951979
310, 2, wb, filler, NA, 999, 999, 1, 36, 173, 193, 161, 93, 58, 188, 1, 0.417034
310, 2, wb, attraction, a-b-da, 9, 1, 1, 37, 60, 135, 135, 60, 129, 57, 3, 1.17413
310, 2, wb, attraction, a-b-da, 9, 1, 1, 37, 60, 135, 135, 60, 129, 57, 2, 0.413797
310, 2, wb, attraction, a-b-da, 2, 2, 2, 1, 165, 90, 163, 89, 90, 165, 2, 3.09088
310, 2, wb, attraction, a-b-da, 2, 2, 2, 1, 165, 90, 163, 89, 90, 165, 1, 0.365222
310, 2, wb, attraction, a-b-db, 5, 3, 2, 2, 117, 190, 120, 195, 195, 120, 1, 1.61239
310, 2, wb, attraction, a-b-db, 5, 3, 2, 2, 117, 190, 120, 195, 195, 120, 2, 0.370547
310, 2, wb, filler, NA, 999, 999, 2, 3, 80, 76, 195, 141, 68, 174, 1, 0.689646
310, 2, wb, filler, NA, 999, 999, 2, 3, 80, 76, 195, 141, 68, 174, 2, 0.412794
310, 2, wb, attraction, a-b-db, 14, 2, 2, 4, 165, 90, 90, 165, 83, 153, 2, 1.11405
310, 2, wb, attraction, a-b-db, 14, 2, 2, 4, 165, 90, 90, 165, 83, 153, 1, 0.380264
310, 2, wb, attraction, a-b-db, 9, 1, 2, 5, 57, 129, 135, 60, 60, 135, 1, 1.69866
310, 2, wb, attraction, a-b-db, 9, 1, 2, 5, 57, 129, 135, 60, 60, 135, 2, 0.349528
310, 2, wb, attraction, a-b-da, 14, 2, 2, 6, 165, 90, 153, 83, 90, 165, 2, 1.10941
310, 2, wb, attraction, a-b-da, 14, 2, 2, 6, 165, 90, 153, 83, 90, 165, 1, 0.367651
310, 2, wb, catch, NA, 999, 999, 2, 7, 61, 134, 138, 117, 186, 129, 1, 0.726769
310, 2, wb, catch, NA, 999, 999, 2, 7, 61, 134, 138, 117, 186, 129, 3, 0.424532
310, 2, wb, attraction, a-b-db, 5, 1, 2, 8, 58, 132, 135, 60, 60, 135, 2, 0.853006
310, 2, wb, attraction, a-b-db, 5, 1, 2, 8, 58, 132, 135, 60, 60, 135, 1, 0.37016
310, 2, wb, attraction, a-b-da, 14, 1, 2, 9, 125, 56, 135, 60, 60, 135, 3, 0.91328
310, 2, wb, attraction, a-b-da, 14, 1, 2, 9, 125, 56, 135, 60, 60, 135, 1, 0.635559
310, 2, wb, attraction, a-b-da, 14, 3, 2, 10, 120, 195, 181, 111, 195, 120, 2, 1.02395
310, 2, wb, attraction, a-b-da, 14, 3, 2, 10, 120, 195, 181, 111, 195, 120, 1, 0.589623
310, 2, wb, filler, NA, 999, 999, 2, 11, 137, 193, 149, 115, 100, 79, 3, 0.627419
310, 2, wb, filler, NA, 999, 999, 2, 11, 137, 193, 149, 115, 100, 79, 1, 0.38516
310, 2, wb, attraction, a-b-da, 2, 3, 2, 12, 195, 120, 193, 119, 120, 195, 3, 11.5197
310, 2, wb, attraction, a-b-da, 2, 3, 2, 12, 195, 120, 193, 119, 120, 195, 1, 0.558666
310, 2, wb, attraction, a-b-da, 5, 1, 2, 13, 135, 60, 132, 58, 60, 135, 2, 0.64583
310, 2, wb, attraction, a-b-da, 5, 1, 2, 13, 135, 60, 132, 58, 60, 135, 1, 0.37103
310, 2, wb, catch, NA, 999, 999, 2, 14, 120, 135, 90, 105, 172, 143, 2, 0.610193
310, 2, wb, catch, NA, 999, 999, 2, 14, 120, 135, 90, 105, 172, 143, 3, 0.35247
310, 2, wb, attraction, a-b-db, 2, 3, 2, 15, 120, 195, 119, 193, 195, 120, 1, 0.736327
310, 2, wb, attraction, a-b-db, 2, 3, 2, 15, 120, 195, 119, 193, 195, 120, 2, 0.426124
310, 2, wb, attraction, a-b-db, 14, 1, 2, 16, 60, 135, 135, 60, 56, 125, 3, 0.870632
310, 2, wb, attraction, a-b-db, 14, 1, 2, 16, 60, 135, 135, 60, 56, 125, 1, 1.61022
310, 2, wb, catch, NA, 999, 999, 2, 17, 110, 85, 155, 100, 166, 149, 1, 15.5271
310, 2, wb, catch, NA, 999, 999, 2, 17, 110, 85, 155, 100, 166, 149, 3, 0.38813
310, 2, wb, filler, NA, 999, 999, 2, 18, 151, 145, 145, 136, 165, 109, 3, 0.978627
310, 2, wb, filler, NA, 999, 999, 2, 18, 151, 145, 145, 136, 165, 109, 1, 0.330273
310, 2, wb, filler, NA, 999, 999, 2, 19, 187, 123, 69, 188, 157, 134, 2, 0.627025
310, 2, wb, filler, NA, 999, 999, 2, 19, 187, 123, 69, 188, 157, 134, 3, 0.456667
310, 2, wb, attraction, a-b-db, 9, 2, 2, 20, 86, 157, 165, 90, 90, 165, 1, 0.707725
310, 2, wb, attraction, a-b-db, 9, 2, 2, 20, 86, 157, 165, 90, 90, 165, 3, 0.622231
310, 2, wb, filler, NA, 999, 999, 2, 21, 56, 103, 133, 152, 150, 194, 1, 0.515172
310, 2, wb, filler, NA, 999, 999, 2, 21, 56, 103, 133, 152, 150, 194, 3, 0.621703
310, 2, wb, attraction, a-b-da, 2, 1, 2, 22, 60, 135, 134, 59, 135, 60, 2, 2.16273
310, 2, wb, attraction, a-b-da, 2, 1, 2, 22, 60, 135, 134, 59, 135, 60, 1, 0.346747
310, 2, wb, attraction, a-b-db, 14, 3, 2, 23, 120, 195, 195, 120, 111, 181, 3, 0.834592
310, 2, wb, attraction, a-b-db, 14, 3, 2, 23, 120, 195, 195, 120, 111, 181, 1, 0.328304
310, 2, wb, filler, NA, 999, 999, 2, 24, 177, 136, 178, 195, 160, 181, 1, 1.3208
310, 2, wb, filler, NA, 999, 999, 2, 24, 177, 136, 178, 195, 160, 181, 2, 0.402496
310, 2, wb, attraction, a-b-db, 9, 3, 2, 25, 195, 120, 114, 186, 120, 195, 2, 1.36026
310, 2, wb, attraction, a-b-db, 9, 3, 2, 25, 195, 120, 114, 186, 120, 195, 1, 0.336378
310, 2, wb, attraction, a-b-db, 2, 2, 2, 26, 89, 163, 165, 90, 90, 165, 2, 1.40886
310, 2, wb, attraction, a-b-db, 2, 2, 2, 26, 89, 163, 165, 90, 90, 165, 3, 0.367069
310, 2, wb, attraction, a-b-da, 5, 3, 2, 27, 120, 195, 190, 117, 195, 120, 2, 0.798379
310, 2, wb, attraction, a-b-da, 5, 3, 2, 27, 120, 195, 190, 117, 195, 120, 1, 0.285319
310, 2, wb, attraction, a-b-db, 2, 1, 2, 28, 135, 60, 60, 135, 59, 134, 1, 1.31185
310, 2, wb, attraction, a-b-db, 2, 1, 2, 28, 135, 60, 60, 135, 59, 134, 2, 0.418071
310, 2, wb, filler, NA, 999, 999, 2, 29, 104, 195, 107, 181, 180, 92, 3, 0.831186
310, 2, wb, filler, NA, 999, 999, 2, 29, 104, 195, 107, 181, 180, 92, 2, 0.468935
310, 2, wb, attraction, a-b-da, 9, 1, 2, 30, 60, 135, 129, 57, 135, 60, 2, 1.01598
310, 2, wb, attraction, a-b-da, 9, 1, 2, 30, 60, 135, 129, 57, 135, 60, 1, 0.462353
310, 2, wb, attraction, a-b-da, 9, 2, 2, 31, 90, 165, 157, 86, 165, 90, 2, 0.585581
310, 2, wb, attraction, a-b-da, 9, 2, 2, 31, 90, 165, 157, 86, 165, 90, 1, 0.457264
310, 2, wb, attraction, a-b-db, 5, 2, 2, 32, 88, 161, 90, 165, 165, 90, 2, 0.644472
310, 2, wb, attraction, a-b-db, 5, 2, 2, 32, 88, 161, 90, 165, 165, 90, 3, 0.457591
310, 2, wb, filler, NA, 999, 999, 2, 33, 161, 125, 117, 111, 88, 135, 2, 0.924654
310, 2, wb, filler, NA, 999, 999, 2, 33, 161, 125, 117, 111, 88, 135, 1, 0.318481
310, 2, wb, attraction, a-b-da, 5, 2, 2, 34, 161, 88, 90, 165, 165, 90, 1, 1.19149
310, 2, wb, attraction, a-b-da, 5, 2, 2, 34, 161, 88, 90, 165, 165, 90, 2, 0.294453
310, 2, wb, filler, NA, 999, 999, 2, 35, 184, 130, 183, 136, 163, 91, 3, 0.632258
310, 2, wb, filler, NA, 999, 999, 2, 35, 184, 130, 183, 136, 163, 91, 1, 0.65407
310, 2, wb, attraction, a-b-da, 9, 3, 2, 36, 120, 195, 195, 120, 186, 114, 1, 1.16986
310, 2, wb, attraction, a-b-da, 9, 3, 2, 36, 120, 195, 195, 120, 186, 114, 2, 0.298099
310, 2, wb, filler, NA, 999, 999, 2, 37, 164, 79, 129, 87, 62, 184, 3, 0.995956
310, 2, wb, filler, NA, 999, 999, 2, 37, 164, 79, 129, 87, 62, 184, 1, 0.698951
310, 2, wb, filler, NA, 999, 999, 3, 1, 58, 169, 114, 107, 124, 67, 3, 1.12472
310, 2, wb, filler, NA, 999, 999, 3, 1, 58, 169, 114, 107, 124, 67, 2, 0.36625
310, 2, wb, attraction, a-b-db, 2, 3, 3, 2, 119, 193, 120, 195, 195, 120, 2, 1.10147
310, 2, wb, attraction, a-b-db, 2, 3, 3, 2, 119, 193, 120, 195, 195, 120, 3, 0.336424
310, 2, wb, attraction, a-b-db, 9, 1, 3, 3, 135, 60, 60, 135, 57, 129, 2, 0.632903
310, 2, wb, attraction, a-b-db, 9, 1, 3, 3, 135, 60, 60, 135, 57, 129, 1, 1.03078
310, 2, wb, attraction, a-b-db, 14, 1, 3, 4, 135, 60, 56, 125, 60, 135, 2, 0.562956
310, 2, wb, attraction, a-b-db, 14, 1, 3, 4, 135, 60, 56, 125, 60, 135, 1, 0.379418
310, 2, wb, filler, NA, 999, 999, 3, 5, 82, 150, 90, 114, 82, 173, 2, 0.505901
310, 2, wb, filler, NA, 999, 999, 3, 5, 82, 150, 90, 114, 82, 173, 3, 0.452457
310, 2, wb, attraction, a-b-db, 14, 3, 3, 6, 195, 120, 111, 181, 120, 195, 2, 0.51227
310, 2, wb, attraction, a-b-db, 14, 3, 3, 6, 195, 120, 111, 181, 120, 195, 1, 0.330713
310, 2, wb, attraction, a-b-da, 9, 3, 3, 7, 195, 120, 120, 195, 186, 114, 2, 0.483144
310, 2, wb, attraction, a-b-da, 9, 3, 3, 7, 195, 120, 120, 195, 186, 114, 3, 0.326981
310, 2, wb, attraction, a-b-da, 14, 1, 3, 8, 125, 56, 135, 60, 60, 135, 2, 0.655491
310, 2, wb, attraction, a-b-da, 14, 1, 3, 8, 125, 56, 135, 60, 60, 135, 1, 0.356042
310, 2, wb, attraction, a-b-db, 9, 3, 3, 9, 120, 195, 114, 186, 195, 120, 1, 0.611037
310, 2, wb, attraction, a-b-db, 9, 3, 3, 9, 120, 195, 114, 186, 195, 120, 2, 0.385598
310, 2, wb, attraction, a-b-da, 2, 1, 3, 10, 135, 60, 60, 135, 134, 59, 3, 0.536152
310, 2, wb, attraction, a-b-da, 2, 1, 3, 10, 135, 60, 60, 135, 134, 59, 1, 0.545863
310, 2, wb, filler, NA, 999, 999, 3, 11, 161, 182, 75, 123, 97, 121, 2, 0.593568
310, 2, wb, filler, NA, 999, 999, 3, 11, 161, 182, 75, 123, 97, 121, 1, 0.376739
310, 2, wb, attraction, a-b-db, 2, 2, 3, 12, 165, 90, 90, 165, 89, 163, 1, 1.60719
310, 2, wb, attraction, a-b-db, 2, 2, 3, 12, 165, 90, 90, 165, 89, 163, 2, 0.26151
310, 2, wb, attraction, a-b-db, 5, 3, 3, 13, 120, 195, 117, 190, 195, 120, 1, 0.704556
310, 2, wb, attraction, a-b-db, 5, 3, 3, 13, 120, 195, 117, 190, 195, 120, 3, 0.307006
310, 2, wb, attraction, a-b-da, 5, 1, 3, 14, 132, 58, 135, 60, 60, 135, 2, 0.65211
310, 2, wb, attraction, a-b-da, 5, 1, 3, 14, 132, 58, 135, 60, 60, 135, 1, 0.337296
310, 2, wb, filler, NA, 999, 999, 3, 15, 98, 100, 69, 66, 147, 58, 2, 0.617777
310, 2, wb, filler, NA, 999, 999, 3, 15, 98, 100, 69, 66, 147, 58, 1, 0.39272
310, 2, wb, attraction, a-b-da, 9, 1, 3, 16, 60, 135, 135, 60, 129, 57, 2, 0.557969
310, 2, wb, attraction, a-b-da, 9, 1, 3, 16, 60, 135, 135, 60, 129, 57, 3, 0.50248
310, 2, wb, filler, NA, 999, 999, 3, 17, 96, 136, 115, 159, 189, 66, 1, 0.744378
310, 2, wb, filler, NA, 999, 999, 3, 17, 96, 136, 115, 159, 189, 66, 2, 0.329467
310, 2, wb, catch, NA, 999, 999, 3, 18, 189, 126, 109, 86, 109, 146, 2, 0.513821
310, 2, wb, catch, NA, 999, 999, 3, 18, 189, 126, 109, 86, 109, 146, 1, 0.340308
310, 2, wb, attraction, a-b-da, 2, 3, 3, 19, 193, 119, 195, 120, 120, 195, 1, 0.948112
310, 2, wb, attraction, a-b-da, 2, 3, 3, 19, 193, 119, 195, 120, 120, 195, 2, 0.30916
310, 2, wb, attraction, a-b-db, 2, 1, 3, 20, 60, 135, 59, 134, 135, 60, 2, 0.838362
310, 2, wb, attraction, a-b-db, 2, 1, 3, 20, 60, 135, 59, 134, 135, 60, 3, 0.451448
310, 2, wb, attraction, a-b-da, 5, 3, 3, 21, 190, 117, 195, 120, 120, 195, 1, 0.607188
310, 2, wb, attraction, a-b-da, 5, 3, 3, 21, 190, 117, 195, 120, 120, 195, 2, 0.253779
310, 2, wb, attraction, a-b-da, 9, 2, 3, 22, 90, 165, 157, 86, 165, 90, 1, 0.585514
310, 2, wb, attraction, a-b-da, 9, 2, 3, 22, 90, 165, 157, 86, 165, 90, 2, 0.265352
310, 2, wb, attraction, a-b-da, 2, 2, 3, 23, 90, 165, 165, 90, 163, 89, 3, 0.420524
310, 2, wb, attraction, a-b-da, 2, 2, 3, 23, 90, 165, 165, 90, 163, 89, 1, 0.314963
310, 2, wb, attraction, a-b-da, 14, 3, 3, 24, 120, 195, 181, 111, 195, 120, 3, 0.324169
310, 2, wb, attraction, a-b-da, 14, 3, 3, 24, 120, 195, 181, 111, 195, 120, 2, 0.318222
310, 2, wb, filler, NA, 999, 999, 3, 25, 111, 139, 166, 178, 97, 172, 3, 1.04725
310, 2, wb, filler, NA, 999, 999, 3, 25, 111, 139, 166, 178, 97, 172, 2, 0.308418
310, 2, wb, filler, NA, 999, 999, 3, 26, 90, 183, 184, 155, 96, 147, 3, 0.533547
310, 2, wb, filler, NA, 999, 999, 3, 26, 90, 183, 184, 155, 96, 147, 2, 0.303197
310, 2, wb, filler, NA, 999, 999, 3, 27, 173, 163, 121, 165, 155, 177, 2, 0.505028
310, 2, wb, filler, NA, 999, 999, 3, 27, 173, 163, 121, 165, 155, 177, 3, 0.411592
310, 2, wb, filler, NA, 999, 999, 3, 28, 89, 159, 78, 162, 71, 195, 3, 1.7047
310, 2, wb, filler, NA, 999, 999, 3, 28, 89, 159, 78, 162, 71, 195, 1, 0.314719
310, 2, wb, attraction, a-b-da, 14, 2, 3, 29, 165, 90, 90, 165, 153, 83, 2, 0.57993
310, 2, wb, attraction, a-b-da, 14, 2, 3, 29, 165, 90, 90, 165, 153, 83, 1, 0.683726
310, 2, wb, attraction, a-b-db, 5, 2, 3, 30, 88, 161, 165, 90, 90, 165, 1, 0.718067
310, 2, wb, attraction, a-b-db, 5, 2, 3, 30, 88, 161, 165, 90, 90, 165, 2, 0.528594
310, 2, wb, attraction, a-b-da, 5, 2, 3, 31, 165, 90, 90, 165, 161, 88, 2, 0.59311
310, 2, wb, attraction, a-b-da, 5, 2, 3, 31, 165, 90, 90, 165, 161, 88, 1, 0.320227
310, 2, wb, attraction, a-b-db, 5, 1, 3, 32, 135, 60, 60, 135, 58, 132, 2, 0.393272
310, 2, wb, attraction, a-b-db, 5, 1, 3, 32, 135, 60, 60, 135, 58, 132, 1, 0.488437
310, 2, wb, attraction, a-b-db, 9, 2, 3, 33, 165, 90, 86, 157, 90, 165, 1, 0.506866
310, 2, wb, attraction, a-b-db, 9, 2, 3, 33, 165, 90, 86, 157, 90, 165, 2, 0.309396
310, 2, wb, catch, NA, 999, 999, 3, 34, 106, 149, 144, 171, 74, 121, 1, 0.430574
310, 2, wb, catch, NA, 999, 999, 3, 34, 106, 149, 144, 171, 74, 121, 3, 0.340438
310, 2, wb, attraction, a-b-db, 14, 2, 3, 35, 165, 90, 83, 153, 90, 165, 3, 0.51627
310, 2, wb, attraction, a-b-db, 14, 2, 3, 35, 165, 90, 83, 153, 90, 165, 2, 0.326761
310, 2, wb, filler, NA, 999, 999, 3, 36, 81, 99, 143, 122, 107, 90, 1, 0.583232
310, 2, wb, filler, NA, 999, 999, 3, 36, 81, 99, 143, 122, 107, 90, 2, 0.319014
310, 2, wb, catch, NA, 999, 999, 3, 37, 88, 107, 145, 170, 92, 163, 1, 0.584209
310, 2, wb, catch, NA, 999, 999, 3, 37, 88, 107, 145, 170, 92, 163, 2, 0.384019
310, 2, wb, filler, NA, 999, 999, 4, 1, 195, 115, 110, 72, 83, 149, 2, 0.958477
310, 2, wb, filler, NA, 999, 999, 4, 1, 195, 115, 110, 72, 83, 149, 1, 0.326779
310, 2, wb, filler, NA, 999, 999, 4, 2, 184, 63, 148, 115, 93, 168, 1, 0.775286
310, 2, wb, filler, NA, 999, 999, 4, 2, 184, 63, 148, 115, 93, 168, 2, 0.343135
310, 2, wb, attraction, a-b-db, 9, 2, 4, 3, 165, 90, 86, 157, 90, 165, 3, 0.990929
310, 2, wb, attraction, a-b-db, 9, 2, 4, 3, 165, 90, 86, 157, 90, 165, 2, 0.325917
310, 2, wb, attraction, a-b-da, 2, 2, 4, 4, 165, 90, 90, 165, 163, 89, 1, 0.510404
310, 2, wb, attraction, a-b-da, 2, 2, 4, 4, 165, 90, 90, 165, 163, 89, 2, 0.312896
310, 2, wb, attraction, a-b-db, 2, 3, 4, 5, 119, 193, 195, 120, 120, 195, 1, 0.450064
310, 2, wb, attraction, a-b-db, 2, 3, 4, 5, 119, 193, 195, 120, 120, 195, 2, 0.463264
310, 2, wb, attraction, a-b-db, 2, 1, 4, 6, 60, 135, 135, 60, 59, 134, 3, 0.69033
310, 2, wb, attraction, a-b-db, 2, 1, 4, 6, 60, 135, 135, 60, 59, 134, 2, 0.405413
310, 2, wb, attraction, a-b-db, 2, 2, 4, 7, 90, 165, 89, 163, 165, 90, 3, 0.547389
310, 2, wb, attraction, a-b-db, 2, 2, 4, 7, 90, 165, 89, 163, 165, 90, 2, 0.324412
310, 2, wb, attraction, a-b-db, 14, 3, 4, 8, 120, 195, 195, 120, 111, 181, 3, 0.428904
310, 2, wb, attraction, a-b-db, 14, 3, 4, 8, 120, 195, 195, 120, 111, 181, 2, 0.362759
310, 2, wb, filler, NA, 999, 999, 4, 9, 162, 118, 164, 98, 62, 75, 3, 0.441849
310, 2, wb, filler, NA, 999, 999, 4, 9, 162, 118, 164, 98, 62, 75, 1, 0.295063
310, 2, wb, attraction, a-b-da, 9, 1, 4, 10, 129, 57, 135, 60, 60, 135, 1, 0.784986
310, 2, wb, attraction, a-b-da, 9, 1, 4, 10, 129, 57, 135, 60, 60, 135, 2, 0.288649
310, 2, wb, attraction, a-b-da, 9, 3, 4, 11, 120, 195, 195, 120, 186, 114, 3, 0.731156
310, 2, wb, attraction, a-b-da, 9, 3, 4, 11, 120, 195, 195, 120, 186, 114, 2, 0.268872
310, 2, wb, catch, NA, 999, 999, 4, 12, 90, 165, 168, 147, 85, 110, 3, 0.416186
310, 2, wb, catch, NA, 999, 999, 4, 12, 90, 165, 168, 147, 85, 110, 2, 0.414624
310, 2, wb, catch, NA, 999, 999, 4, 13, 147, 108, 87, 108, 128, 187, 2, 0.467766
310, 2, wb, catch, NA, 999, 999, 4, 13, 147, 108, 87, 108, 128, 187, 3, 0.256259
310, 2, wb, filler, NA, 999, 999, 4, 14, 129, 113, 193, 120, 56, 114, 3, 0.787553
310, 2, wb, filler, NA, 999, 999, 4, 14, 129, 113, 193, 120, 56, 114, 2, 0.562587
310, 2, wb, attraction, a-b-db, 14, 2, 4, 15, 90, 165, 83, 153, 165, 90, 3, 1.40956
310, 2, wb, attraction, a-b-db, 14, 2, 4, 15, 90, 165, 83, 153, 165, 90, 1, 0.311763
310, 2, wb, attraction, a-b-da, 2, 3, 4, 16, 195, 120, 193, 119, 120, 195, 1, 0.760959
310, 2, wb, attraction, a-b-da, 2, 3, 4, 16, 195, 120, 193, 119, 120, 195, 2, 0.281384
310, 2, wb, attraction, a-b-da, 14, 3, 4, 17, 181, 111, 195, 120, 120, 195, 1, 0.68384
310, 2, wb, attraction, a-b-da, 14, 3, 4, 17, 181, 111, 195, 120, 120, 195, 3, 0.30364
310, 2, wb, attraction, a-b-da, 5, 1, 4, 18, 60, 135, 135, 60, 132, 58, 3, 1.20149
310, 2, wb, attraction, a-b-da, 5, 1, 4, 18, 60, 135, 135, 60, 132, 58, 1, 0.320384
310, 2, wb, attraction, a-b-da, 2, 1, 4, 19, 134, 59, 60, 135, 135, 60, 3, 0.46561
310, 2, wb, attraction, a-b-da, 2, 1, 4, 19, 134, 59, 60, 135, 135, 60, 2, 0.326135
310, 2, wb, filler, NA, 999, 999, 4, 20, 187, 129, 79, 90, 105, 78, 1, 0.990551
310, 2, wb, filler, NA, 999, 999, 4, 20, 187, 129, 79, 90, 105, 78, 2, 0.677606
310, 2, wb, attraction, a-b-db, 5, 1, 4, 21, 60, 135, 58, 132, 135, 60, 3, 0.856106
310, 2, wb, attraction, a-b-db, 5, 1, 4, 21, 60, 135, 58, 132, 135, 60, 2, 0.268361
310, 2, wb, filler, NA, 999, 999, 4, 22, 91, 131, 186, 134, 80, 85, 3, 0.503602
310, 2, wb, filler, NA, 999, 999, 4, 22, 91, 131, 186, 134, 80, 85, 2, 0.282021
310, 2, wb, attraction, a-b-da, 14, 2, 4, 23, 90, 165, 165, 90, 153, 83, 3, 0.524536
310, 2, wb, attraction, a-b-da, 14, 2, 4, 23, 90, 165, 165, 90, 153, 83, 2, 0.30256
310, 2, wb, attraction, a-b-da, 5, 2, 4, 24, 161, 88, 90, 165, 165, 90, 3, 0.632188
310, 2, wb, attraction, a-b-da, 5, 2, 4, 24, 161, 88, 90, 165, 165, 90, 2, 0.366034
310, 2, wb, attraction, a-b-da, 14, 1, 4, 25, 125, 56, 60, 135, 135, 60, 1, 0.509179
310, 2, wb, attraction, a-b-da, 14, 1, 4, 25, 125, 56, 60, 135, 135, 60, 2, 0.375649
310, 2, wb, filler, NA, 999, 999, 4, 26, 139, 96, 139, 77, 58, 146, 2, 0.454106
310, 2, wb, filler, NA, 999, 999, 4, 26, 139, 96, 139, 77, 58, 146, 1, 0.794611
310, 2, wb, attraction, a-b-db, 14, 1, 4, 27, 56, 125, 135, 60, 60, 135, 1, 0.832272
310, 2, wb, attraction, a-b-db, 14, 1, 4, 27, 56, 125, 135, 60, 60, 135, 3, 0.310218
310, 2, wb, attraction, a-b-db, 9, 3, 4, 28, 120, 195, 114, 186, 195, 120, 2, 1.6472
310, 2, wb, attraction, a-b-db, 9, 3, 4, 28, 120, 195, 114, 186, 195, 120, 1, 0.348071
310, 2, wb, filler, NA, 999, 999, 4, 29, 105, 192, 98, 177, 171, 130, 2, 1.00384
310, 2, wb, filler, NA, 999, 999, 4, 29, 105, 192, 98, 177, 171, 130, 3, 0.378852
310, 2, wb, attraction, a-b-da, 9, 2, 4, 30, 157, 86, 165, 90, 90, 165, 3, 0.801336
310, 2, wb, attraction, a-b-da, 9, 2, 4, 30, 157, 86, 165, 90, 90, 165, 2, 0.312402
310, 2, wb, catch, NA, 999, 999, 4, 31, 122, 73, 131, 184, 160, 95, 2, 0.417657
310, 2, wb, catch, NA, 999, 999, 4, 31, 122, 73, 131, 184, 160, 95, 1, 0.984041
310, 2, wb, filler, NA, 999, 999, 4, 32, 185, 166, 141, 59, 182, 121, 2, 0.942365
310, 2, wb, filler, NA, 999, 999, 4, 32, 185, 166, 141, 59, 182, 121, 1, 0.607366
310, 2, wb, attraction, a-b-da, 5, 3, 4, 33, 195, 120, 190, 117, 120, 195, 2, 1.37243
310, 2, wb, attraction, a-b-da, 5, 3, 4, 33, 195, 120, 190, 117, 120, 195, 1, 0.508097
310, 2, wb, attraction, a-b-db, 5, 3, 4, 34, 195, 120, 120, 195, 117, 190, 1, 0.845107
310, 2, wb, attraction, a-b-db, 5, 3, 4, 34, 195, 120, 120, 195, 117, 190, 2, 0.250232
310, 2, wb, filler, NA, 999, 999, 4, 35, 187, 95, 150, 65, 148, 128, 2, 0.510021
310, 2, wb, filler, NA, 999, 999, 4, 35, 187, 95, 150, 65, 148, 128, 1, 0.512478
310, 2, wb, attraction, a-b-db, 5, 2, 4, 36, 165, 90, 88, 161, 90, 165, 2, 0.58565
310, 2, wb, attraction, a-b-db, 5, 2, 4, 36, 165, 90, 88, 161, 90, 165, 1, 0.505456
310, 2, wb, attraction, a-b-db, 9, 1, 4, 37, 60, 135, 135, 60, 57, 129, 2, 0.667341
310, 2, wb, attraction, a-b-db, 9, 1, 4, 37, 60, 135, 135, 60, 57, 129, 3, 0.46367
310, 2, wb, catch, NA, 999, 999, 5, 1, 78, 117, 177, 138, 117, 138, 1, 2.08145
310, 2, wb, catch, NA, 999, 999, 5, 1, 78, 117, 177, 138, 117, 138, 2, 0.484739
310, 2, wb, attraction, a-b-db, 2, 3, 5, 2, 120, 195, 119, 193, 195, 120, 2, 1.02316
310, 2, wb, attraction, a-b-db, 2, 3, 5, 2, 120, 195, 119, 193, 195, 120, 3, 0.564891
310, 2, wb, attraction, a-b-da, 14, 1, 5, 3, 135, 60, 60, 135, 125, 56, 2, 1.12388
310, 2, wb, attraction, a-b-da, 14, 1, 5, 3, 135, 60, 60, 135, 125, 56, 1, 0.477538
310, 2, wb, attraction, a-b-da, 2, 1, 5, 4, 60, 135, 134, 59, 135, 60, 2, 0.679916
310, 2, wb, attraction, a-b-da, 2, 1, 5, 4, 60, 135, 134, 59, 135, 60, 1, 0.443695
310, 2, wb, attraction, a-b-db, 2, 2, 5, 5, 90, 165, 89, 163, 165, 90, 2, 0.863537
310, 2, wb, attraction, a-b-db, 2, 2, 5, 5, 90, 165, 89, 163, 165, 90, 1, 0.347984
310, 2, wb, attraction, a-b-db, 14, 2, 5, 6, 90, 165, 83, 153, 165, 90, 2, 0.63579
310, 2, wb, attraction, a-b-db, 14, 2, 5, 6, 90, 165, 83, 153, 165, 90, 3, 0.329694
310, 2, wb, attraction, a-b-da, 9, 1, 5, 7, 135, 60, 129, 57, 60, 135, 2, 0.842022
310, 2, wb, attraction, a-b-da, 9, 1, 5, 7, 135, 60, 129, 57, 60, 135, 1, 0.327091
310, 2, wb, filler, NA, 999, 999, 5, 8, 95, 183, 83, 111, 126, 93, 2, 0.823563
310, 2, wb, filler, NA, 999, 999, 5, 8, 95, 183, 83, 111, 126, 93, 1, 0.373254
310, 2, wb, attraction, a-b-da, 9, 2, 5, 9, 165, 90, 157, 86, 90, 165, 2, 0.651766
310, 2, wb, attraction, a-b-da, 9, 2, 5, 9, 165, 90, 157, 86, 90, 165, 1, 0.424994
310, 2, wb, attraction, a-b-db, 5, 2, 5, 10, 165, 90, 90, 165, 88, 161, 2, 0.781426
310, 2, wb, attraction, a-b-db, 5, 2, 5, 10, 165, 90, 90, 165, 88, 161, 1, 0.389122
310, 2, wb, filler, NA, 999, 999, 5, 11, 89, 176, 58, 92, 156, 88, 2, 0.683654
310, 2, wb, filler, NA, 999, 999, 5, 11, 89, 176, 58, 92, 156, 88, 1, 0.543375
310, 2, wb, attraction, a-b-da, 5, 2, 5, 12, 90, 165, 165, 90, 161, 88, 2, 1.14309
310, 2, wb, attraction, a-b-da, 5, 2, 5, 12, 90, 165, 165, 90, 161, 88, 1, 0.368106
310, 2, wb, attraction, a-b-db, 9, 2, 5, 13, 165, 90, 90, 165, 86, 157, 2, 0.599155
310, 2, wb, attraction, a-b-db, 9, 2, 5, 13, 165, 90, 90, 165, 86, 157, 1, 0.678295
310, 2, wb, filler, NA, 999, 999, 5, 14, 144, 143, 170, 146, 56, 179, 3, 0.744734
310, 2, wb, filler, NA, 999, 999, 5, 14, 144, 143, 170, 146, 56, 179, 2, 0.481772
310, 2, wb, attraction, a-b-db, 2, 1, 5, 15, 60, 135, 135, 60, 59, 134, 2, 0.876239
310, 2, wb, attraction, a-b-db, 2, 1, 5, 15, 60, 135, 135, 60, 59, 134, 1, 0.416139
310, 2, wb, attraction, a-b-da, 14, 2, 5, 16, 90, 165, 153, 83, 165, 90, 2, 1.01601
310, 2, wb, attraction, a-b-da, 14, 2, 5, 16, 90, 165, 153, 83, 165, 90, 1, 0.499449
310, 2, wb, attraction, a-b-db, 9, 3, 5, 17, 114, 186, 195, 120, 120, 195, 2, 1.08525
310, 2, wb, attraction, a-b-db, 9, 3, 5, 17, 114, 186, 195, 120, 120, 195, 3, 0.512909
310, 2, wb, attraction, a-b-db, 9, 1, 5, 18, 60, 135, 135, 60, 57, 129, 2, 0.842004
310, 2, wb, attraction, a-b-db, 9, 1, 5, 18, 60, 135, 135, 60, 57, 129, 1, 0.511164
310, 2, wb, attraction, a-b-db, 14, 1, 5, 19, 135, 60, 56, 125, 60, 135, 2, 0.592085
310, 2, wb, attraction, a-b-db, 14, 1, 5, 19, 135, 60, 56, 125, 60, 135, 1, 0.983285
310, 2, wb, filler, NA, 999, 999, 5, 20, 69, 182, 99, 76, 85, 112, 2, 0.549556
310, 2, wb, filler, NA, 999, 999, 5, 20, 69, 182, 99, 76, 85, 112, 1, 0.622707
310, 2, wb, attraction, a-b-da, 14, 3, 5, 21, 120, 195, 195, 120, 181, 111, 3, 0.803083
310, 2, wb, attraction, a-b-da, 14, 3, 5, 21, 120, 195, 195, 120, 181, 111, 2, 0.370099
310, 2, wb, filler, NA, 999, 999, 5, 22, 85, 115, 106, 168, 69, 112, 3, 1.2333
310, 2, wb, filler, NA, 999, 999, 5, 22, 85, 115, 106, 168, 69, 112, 2, 0.406892
310, 2, wb, attraction, a-b-db, 5, 3, 5, 23, 117, 190, 195, 120, 120, 195, 2, 0.70002
310, 2, wb, attraction, a-b-db, 5, 3, 5, 23, 117, 190, 195, 120, 120, 195, 1, 0.375104
310, 2, wb, catch, NA, 999, 999, 5, 24, 115, 80, 125, 130, 182, 133, 1, 0.805715
310, 2, wb, catch, NA, 999, 999, 5, 24, 115, 80, 125, 130, 182, 133, 3, 0.428117
310, 2, wb, attraction, a-b-db, 14, 3, 5, 25, 111, 181, 120, 195, 195, 120, 1, 0.648489
310, 2, wb, attraction, a-b-db, 14, 3, 5, 25, 111, 181, 120, 195, 195, 120, 3, 0.549607
310, 2, wb, attraction, a-b-da, 5, 1, 5, 26, 132, 58, 135, 60, 60, 135, 2, 0.637377
310, 2, wb, attraction, a-b-da, 5, 1, 5, 26, 132, 58, 135, 60, 60, 135, 1, 0.378414
310, 2, wb, attraction, a-b-db, 5, 1, 5, 27, 58, 132, 60, 135, 135, 60, 2, 0.577133
310, 2, wb, attraction, a-b-db, 5, 1, 5, 27, 58, 132, 60, 135, 135, 60, 1, 0.480857
310, 2, wb, filler, NA, 999, 999, 5, 28, 120, 102, 70, 79, 121, 77, 2, 0.707244
310, 2, wb, filler, NA, 999, 999, 5, 28, 120, 102, 70, 79, 121, 77, 1, 0.53363
310, 2, wb, attraction, a-b-da, 5, 3, 5, 29, 195, 120, 190, 117, 120, 195, 2, 1.02206
310, 2, wb, attraction, a-b-da, 5, 3, 5, 29, 195, 120, 190, 117, 120, 195, 1, 0.411815
310, 2, wb, catch, NA, 999, 999, 5, 30, 116, 139, 70, 125, 147, 168, 2, 0.792888
310, 2, wb, catch, NA, 999, 999, 5, 30, 116, 139, 70, 125, 147, 168, 3, 0.471956
310, 2, wb, filler, NA, 999, 999, 5, 31, 97, 110, 144, 86, 116, 194, 1, 0.835058
310, 2, wb, filler, NA, 999, 999, 5, 31, 97, 110, 144, 86, 116, 194, 3, 0.576797
310, 2, wb, filler, NA, 999, 999, 5, 32, 148, 71, 109, 187, 82, 71, 3, 0.855212
310, 2, wb, filler, NA, 999, 999, 5, 32, 148, 71, 109, 187, 82, 71, 2, 0.435574
310, 2, wb, filler, NA, 999, 999, 5, 33, 145, 94, 91, 153, 124, 120, 3, 12.0321
310, 2, wb, filler, NA, 999, 999, 5, 33, 145, 94, 91, 153, 124, 120, 2, 0.514325
310, 2, wb, attraction, a-b-da, 9, 3, 5, 34, 195, 120, 186, 114, 120, 195, 2, 1.11534
310, 2, wb, attraction, a-b-da, 9, 3, 5, 34, 195, 120, 186, 114, 120, 195, 1, 1.00566
310, 2, wb, filler, NA, 999, 999, 5, 35, 99, 72, 83, 173, 109, 151, 1, 0.915213
310, 2, wb, filler, NA, 999, 999, 5, 35, 99, 72, 83, 173, 109, 151, 3, 0.469628
310, 2, wb, attraction, a-b-da, 2, 2, 5, 36, 90, 165, 165, 90, 163, 89, 2, 2.76874
310, 2, wb, attraction, a-b-da, 2, 2, 5, 36, 90, 165, 165, 90, 163, 89, 1, 0.568529
310, 2, wb, attraction, a-b-da, 2, 3, 5, 37, 195, 120, 193, 119, 120, 195, 3, 1.40778
310, 2, wb, attraction, a-b-da, 2, 3, 5, 37, 195, 120, 193, 119, 120, 195, 1, 0.653861
310, 2, wb, attraction, a-b-da, 9, 2, 6, 1, 90, 165, 165, 90, 157, 86, 3, 1.12161
310, 2, wb, attraction, a-b-da, 9, 2, 6, 1, 90, 165, 165, 90, 157, 86, 2, 1.17922
310, 2, wb, filler, NA, 999, 999, 6, 2, 152, 89, 178, 153, 191, 176, 1, 0.913488
310, 2, wb, filler, NA, 999, 999, 6, 2, 152, 89, 178, 153, 191, 176, 3, 0.77182
310, 2, wb, attraction, a-b-da, 5, 1, 6, 3, 60, 135, 132, 58, 135, 60, 2, 1.18684
310, 2, wb, attraction, a-b-da, 5, 1, 6, 3, 60, 135, 132, 58, 135, 60, 1, 0.530438
310, 2, wb, filler, NA, 999, 999, 6, 4, 124, 168, 95, 120, 59, 121, 3, 0.762953
310, 2, wb, filler, NA, 999, 999, 6, 4, 124, 168, 95, 120, 59, 121, 1, 0.49933
310, 2, wb, filler, NA, 999, 999, 6, 5, 159, 103, 133, 186, 159, 156, 1, 0.757159
310, 2, wb, filler, NA, 999, 999, 6, 5, 159, 103, 133, 186, 159, 156, 2, 0.789476
310, 2, wb, attraction, a-b-da, 14, 1, 6, 6, 60, 135, 135, 60, 125, 56, 2, 1.58709
310, 2, wb, attraction, a-b-da, 14, 1, 6, 6, 60, 135, 135, 60, 125, 56, 3, 0.842756
310, 2, wb, attraction, a-b-da, 2, 2, 6, 7, 90, 165, 165, 90, 163, 89, 1, 2.40648
310, 2, wb, attraction, a-b-da, 2, 2, 6, 7, 90, 165, 165, 90, 163, 89, 3, 0.396432
310, 2, wb, attraction, a-b-da, 5, 3, 6, 8, 190, 117, 120, 195, 195, 120, 2, 2.41812
310, 2, wb, attraction, a-b-da, 5, 3, 6, 8, 190, 117, 120, 195, 195, 120, 3, 0.663891
310, 2, wb, attraction, a-b-db, 5, 2, 6, 9, 90, 165, 88, 161, 165, 90, 2, 1.195
310, 2, wb, attraction, a-b-db, 5, 2, 6, 9, 90, 165, 88, 161, 165, 90, 3, 1.48191
310, 2, wb, attraction, a-b-db, 2, 1, 6, 10, 59, 134, 135, 60, 60, 135, 2, 0.748084
310, 2, wb, attraction, a-b-db, 2, 1, 6, 10, 59, 134, 135, 60, 60, 135, 3, 0.565284
310, 2, wb, attraction, a-b-db, 14, 1, 6, 11, 56, 125, 135, 60, 60, 135, 1, 1.20425
310, 2, wb, attraction, a-b-db, 14, 1, 6, 11, 56, 125, 135, 60, 60, 135, 3, 0.562467
310, 2, wb, catch, NA, 999, 999, 6, 12, 72, 123, 103, 152, 149, 166, 1, 0.761601
310, 2, wb, catch, NA, 999, 999, 6, 12, 72, 123, 103, 152, 149, 166, 3, 0.530066
310, 2, wb, attraction, a-b-da, 14, 3, 6, 13, 181, 111, 120, 195, 195, 120, 1, 2.74645
310, 2, wb, attraction, a-b-da, 14, 3, 6, 13, 181, 111, 120, 195, 195, 120, 2, 0.370931
310, 2, wb, attraction, a-b-db, 5, 1, 6, 14, 60, 135, 58, 132, 135, 60, 2, 1.83401
310, 2, wb, attraction, a-b-db, 5, 1, 6, 14, 60, 135, 58, 132, 135, 60, 3, 0.775466
310, 2, wb, filler, NA, 999, 999, 6, 15, 86, 186, 142, 173, 139, 91, 3, 1.2938
310, 2, wb, filler, NA, 999, 999, 6, 15, 86, 186, 142, 173, 139, 91, 2, 0.424727
310, 2, wb, attraction, a-b-db, 14, 2, 6, 16, 165, 90, 83, 153, 90, 165, 2, 1.07714
310, 2, wb, attraction, a-b-db, 14, 2, 6, 16, 165, 90, 83, 153, 90, 165, 1, 0.408953
310, 2, wb, attraction, a-b-da, 5, 2, 6, 17, 165, 90, 90, 165, 161, 88, 3, 1.39006
310, 2, wb, attraction, a-b-da, 5, 2, 6, 17, 165, 90, 90, 165, 161, 88, 2, 0.460851
310, 2, wb, attraction, a-b-db, 14, 3, 6, 18, 111, 181, 195, 120, 120, 195, 2, 1.15204
310, 2, wb, attraction, a-b-db, 14, 3, 6, 18, 111, 181, 195, 120, 120, 195, 3, 0.456924
310, 2, wb, filler, NA, 999, 999, 6, 19, 105, 127, 149, 136, 178, 194, 1, 0.668027
310, 2, wb, filler, NA, 999, 999, 6, 19, 105, 127, 149, 136, 178, 194, 3, 0.424451
310, 2, wb, attraction, a-b-da, 14, 2, 6, 20, 165, 90, 153, 83, 90, 165, 2, 1.04496
310, 2, wb, attraction, a-b-da, 14, 2, 6, 20, 165, 90, 153, 83, 90, 165, 1, 0.362019
310, 2, wb, attraction, a-b-db, 2, 2, 6, 21, 165, 90, 90, 165, 89, 163, 3, 0.857111
310, 2, wb, attraction, a-b-db, 2, 2, 6, 21, 165, 90, 90, 165, 89, 163, 1, 0.80561
310, 2, wb, filler, NA, 999, 999, 6, 22, 74, 146, 69, 150, 125, 182, 2, 0.603145
310, 2, wb, filler, NA, 999, 999, 6, 22, 74, 146, 69, 150, 125, 182, 3, 0.43357
310, 2, wb, attraction, a-b-da, 2, 1, 6, 23, 60, 135, 134, 59, 135, 60, 2, 1.22216
310, 2, wb, attraction, a-b-da, 2, 1, 6, 23, 60, 135, 134, 59, 135, 60, 1, 0.355761
310, 2, wb, filler, NA, 999, 999, 6, 24, 188, 154, 188, 121, 111, 132, 3, 0.699451
310, 2, wb, filler, NA, 999, 999, 6, 24, 188, 154, 188, 121, 111, 132, 1, 0.462561
310, 2, wb, filler, NA, 999, 999, 6, 25, 182, 141, 65, 146, 109, 156, 2, 0.705739
310, 2, wb, filler, NA, 999, 999, 6, 25, 182, 141, 65, 146, 109, 156, 1, 0.764135
310, 2, wb, filler, NA, 999, 999, 6, 26, 180, 57, 167, 93, 125, 186, 1, 0.715132
310, 2, wb, filler, NA, 999, 999, 6, 26, 180, 57, 167, 93, 125, 186, 3, 0.413721
310, 2, wb, catch, NA, 999, 999, 6, 27, 159, 96, 121, 194, 87, 108, 3, 0.610754
310, 2, wb, catch, NA, 999, 999, 6, 27, 159, 96, 121, 194, 87, 108, 2, 0.345196
310, 2, wb, attraction, a-b-db, 9, 1, 6, 28, 135, 60, 60, 135, 57, 129, 2, 0.68103
310, 2, wb, attraction, a-b-db, 9, 1, 6, 28, 135, 60, 60, 135, 57, 129, 1, 0.420789
310, 2, wb, attraction, a-b-da, 9, 3, 6, 29, 186, 114, 195, 120, 120, 195, 2, 0.817969
310, 2, wb, attraction, a-b-da, 9, 3, 6, 29, 186, 114, 195, 120, 120, 195, 1, 0.400382
310, 2, wb, attraction, a-b-db, 2, 3, 6, 30, 195, 120, 120, 195, 119, 193, 2, 0.62213
310, 2, wb, attraction, a-b-db, 2, 3, 6, 30, 195, 120, 120, 195, 119, 193, 1, 0.443866
310, 2, wb, attraction, a-b-da, 9, 1, 6, 31, 129, 57, 60, 135, 135, 60, 2, 0.591635
310, 2, wb, attraction, a-b-da, 9, 1, 6, 31, 129, 57, 60, 135, 135, 60, 3, 0.662991
310, 2, wb, attraction, a-b-da, 2, 3, 6, 32, 195, 120, 120, 195, 193, 119, 3, 0.674044
310, 2, wb, attraction, a-b-da, 2, 3, 6, 32, 195, 120, 120, 195, 193, 119, 2, 0.421676
310, 2, wb, attraction, a-b-db, 9, 3, 6, 33, 120, 195, 114, 186, 195, 120, 2, 1.08288
310, 2, wb, attraction, a-b-db, 9, 3, 6, 33, 120, 195, 114, 186, 195, 120, 3, 0.358486
310, 2, wb, attraction, a-b-db, 9, 2, 6, 34, 90, 165, 165, 90, 86, 157, 2, 0.54955
310, 2, wb, attraction, a-b-db, 9, 2, 6, 34, 90, 165, 165, 90, 86, 157, 1, 0.438701
310, 2, wb, attraction, a-b-db, 5, 3, 6, 35, 117, 190, 120, 195, 195, 120, 2, 0.723209
310, 2, wb, attraction, a-b-db, 5, 3, 6, 35, 117, 190, 120, 195, 195, 120, 3, 0.837075
310, 2, wb, catch, NA, 999, 999, 6, 36, 131, 64, 155, 100, 188, 127, 1, 1.13723
310, 2, wb, catch, NA, 999, 999, 6, 36, 131, 64, 155, 100, 188, 127, 3, 0.466248
310, 2, wb, filler, NA, 999, 999, 6, 37, 102, 69, 177, 145, 101, 170, 1, 0.765346
310, 2, wb, filler, NA, 999, 999, 6, 37, 102, 69, 177, 145, 101, 170, 2, 0.42194
310, 2, wb, filler, NA, 999, 999, 7, 1, 157, 158, 103, 190, 151, 157, 2, 0.698954
310, 2, wb, filler, NA, 999, 999, 7, 1, 157, 158, 103, 190, 151, 157, 1, 0.333945
310, 2, wb, catch, NA, 999, 999, 7, 2, 178, 137, 83, 112, 104, 151, 2, 0.750491
310, 2, wb, catch, NA, 999, 999, 7, 2, 178, 137, 83, 112, 104, 151, 1, 0.463544
310, 2, wb, attraction, a-b-db, 14, 3, 7, 3, 120, 195, 111, 181, 195, 120, 2, 0.714654
310, 2, wb, attraction, a-b-db, 14, 3, 7, 3, 120, 195, 111, 181, 195, 120, 1, 0.4931
310, 2, wb, attraction, a-b-da, 9, 1, 7, 4, 129, 57, 60, 135, 135, 60, 1, 1.01496
310, 2, wb, attraction, a-b-da, 9, 1, 7, 4, 129, 57, 60, 135, 135, 60, 2, 0.357337
310, 2, wb, attraction, a-b-da, 14, 2, 7, 5, 165, 90, 90, 165, 153, 83, 3, 1.31649
310, 2, wb, attraction, a-b-da, 14, 2, 7, 5, 165, 90, 90, 165, 153, 83, 2, 0.374676
310, 2, wb, attraction, a-b-da, 5, 2, 7, 6, 90, 165, 161, 88, 165, 90, 2, 0.557081
310, 2, wb, attraction, a-b-da, 5, 2, 7, 6, 90, 165, 161, 88, 165, 90, 3, 0.46155
310, 2, wb, attraction, a-b-db, 14, 1, 7, 7, 135, 60, 60, 135, 56, 125, 2, 0.84872
310, 2, wb, attraction, a-b-db, 14, 1, 7, 7, 135, 60, 60, 135, 56, 125, 1, 0.765788
310, 2, wb, attraction, a-b-db, 9, 2, 7, 8, 90, 165, 165, 90, 86, 157, 3, 1.00479
310, 2, wb, attraction, a-b-db, 9, 2, 7, 8, 90, 165, 165, 90, 86, 157, 1, 0.699128
310, 2, wb, filler, NA, 999, 999, 7, 9, 56, 97, 106, 145, 86, 113, 1, 0.780824
310, 2, wb, filler, NA, 999, 999, 7, 9, 56, 97, 106, 145, 86, 113, 3, 0.484726
310, 2, wb, filler, NA, 999, 999, 7, 10, 152, 175, 193, 56, 137, 183, 2, 1.19104
310, 2, wb, filler, NA, 999, 999, 7, 10, 152, 175, 193, 56, 137, 183, 1, 0.422001
310, 2, wb, filler, NA, 999, 999, 7, 11, 126, 123, 93, 59, 69, 139, 2, 0.611134
310, 2, wb, filler, NA, 999, 999, 7, 11, 126, 123, 93, 59, 69, 139, 1, 0.569491
310, 2, wb, attraction, a-b-db, 5, 1, 7, 12, 60, 135, 58, 132, 135, 60, 1, 1.24075
310, 2, wb, attraction, a-b-db, 5, 1, 7, 12, 60, 135, 58, 132, 135, 60, 3, 0.43773
310, 2, wb, attraction, a-b-da, 2, 3, 7, 13, 195, 120, 193, 119, 120, 195, 2, 1.43406
310, 2, wb, attraction, a-b-da, 2, 3, 7, 13, 195, 120, 193, 119, 120, 195, 3, 0.487561
310, 2, wb, attraction, a-b-db, 5, 3, 7, 14, 120, 195, 195, 120, 117, 190, 2, 1.65005
310, 2, wb, attraction, a-b-db, 5, 3, 7, 14, 120, 195, 195, 120, 117, 190, 1, 0.414801
310, 2, wb, filler, NA, 999, 999, 7, 15, 191, 97, 74, 58, 72, 106, 2, 0.643939
310, 2, wb, filler, NA, 999, 999, 7, 15, 191, 97, 74, 58, 72, 106, 1, 0.489233
310, 2, wb, attraction, a-b-da, 2, 2, 7, 16, 163, 89, 90, 165, 165, 90, 2, 0.906884
310, 2, wb, attraction, a-b-da, 2, 2, 7, 16, 163, 89, 90, 165, 165, 90, 1, 0.461348
310, 2, wb, catch, NA, 999, 999, 7, 17, 75, 120, 128, 127, 127, 188, 1, 0.672305
310, 2, wb, catch, NA, 999, 999, 7, 17, 75, 120, 128, 127, 127, 188, 3, 0.492141
310, 2, wb, attraction, a-b-db, 9, 3, 7, 18, 195, 120, 120, 195, 114, 186, 3, 0.973924
310, 2, wb, attraction, a-b-db, 9, 3, 7, 18, 195, 120, 120, 195, 114, 186, 1, 0.445554
310, 2, wb, attraction, a-b-da, 2, 1, 7, 19, 135, 60, 134, 59, 60, 135, 2, 1.04955
310, 2, wb, attraction, a-b-da, 2, 1, 7, 19, 135, 60, 134, 59, 60, 135, 3, 0.774398
310, 2, wb, attraction, a-b-db, 2, 2, 7, 20, 89, 163, 90, 165, 165, 90, 2, 0.852799
310, 2, wb, attraction, a-b-db, 2, 2, 7, 20, 89, 163, 90, 165, 165, 90, 1, 0.401781
310, 2, wb, attraction, a-b-da, 14, 1, 7, 21, 60, 135, 135, 60, 125, 56, 2, 0.895661
310, 2, wb, attraction, a-b-da, 14, 1, 7, 21, 60, 135, 135, 60, 125, 56, 1, 0.586682
310, 2, wb, attraction, a-b-db, 5, 2, 7, 22, 88, 161, 90, 165, 165, 90, 2, 0.545023
310, 2, wb, attraction, a-b-db, 5, 2, 7, 22, 88, 161, 90, 165, 165, 90, 3, 0.282169
310, 2, wb, attraction, a-b-da, 9, 2, 7, 23, 90, 165, 165, 90, 157, 86, 2, 0.50873
310, 2, wb, attraction, a-b-da, 9, 2, 7, 23, 90, 165, 165, 90, 157, 86, 1, 0.327111
310, 2, wb, filler, NA, 999, 999, 7, 24, 195, 104, 87, 193, 156, 96, 3, 1.20759
310, 2, wb, filler, NA, 999, 999, 7, 24, 195, 104, 87, 193, 156, 96, 1, 1.06987
310, 2, wb, attraction, a-b-db, 2, 1, 7, 25, 135, 60, 59, 134, 60, 135, 1, 1.25685
310, 2, wb, attraction, a-b-db, 2, 1, 7, 25, 135, 60, 59, 134, 60, 135, 2, 0.261123
310, 2, wb, catch, NA, 999, 999, 7, 26, 115, 80, 144, 171, 135, 120, 1, 0.840255
310, 2, wb, catch, NA, 999, 999, 7, 26, 115, 80, 144, 171, 135, 120, 2, 0.381355
310, 2, wb, attraction, a-b-db, 2, 3, 7, 27, 120, 195, 195, 120, 119, 193, 2, 0.859845
310, 2, wb, attraction, a-b-db, 2, 3, 7, 27, 120, 195, 195, 120, 119, 193, 1, 0.360173
310, 2, wb, filler, NA, 999, 999, 7, 28, 91, 73, 137, 118, 73, 168, 1, 0.7593
310, 2, wb, filler, NA, 999, 999, 7, 28, 91, 73, 137, 118, 73, 168, 2, 0.303757
310, 2, wb, filler, NA, 999, 999, 7, 29, 113, 179, 186, 76, 141, 138, 2, 0.657663
310, 2, wb, filler, NA, 999, 999, 7, 29, 113, 179, 186, 76, 141, 138, 3, 0.398127
310, 2, wb, filler, NA, 999, 999, 7, 30, 153, 155, 166, 100, 194, 70, 3, 1.0759
310, 2, wb, filler, NA, 999, 999, 7, 30, 153, 155, 166, 100, 194, 70, 1, 0.503632
310, 2, wb, attraction, a-b-da, 9, 3, 7, 31, 120, 195, 186, 114, 195, 120, 2, 0.673287
310, 2, wb, attraction, a-b-da, 9, 3, 7, 31, 120, 195, 186, 114, 195, 120, 1, 0.32506
310, 2, wb, attraction, a-b-da, 14, 3, 7, 32, 195, 120, 120, 195, 181, 111, 3, 0.909542
310, 2, wb, attraction, a-b-da, 14, 3, 7, 32, 195, 120, 120, 195, 181, 111, 2, 0.391973
310, 2, wb, attraction, a-b-da, 5, 3, 7, 33, 190, 117, 120, 195, 195, 120, 3, 0.88581
310, 2, wb, attraction, a-b-da, 5, 3, 7, 33, 190, 117, 120, 195, 195, 120, 1, 1.09739
310, 2, wb, attraction, a-b-db, 9, 1, 7, 34, 57, 129, 135, 60, 60, 135, 1, 1.01116
310, 2, wb, attraction, a-b-db, 9, 1, 7, 34, 57, 129, 135, 60, 60, 135, 2, 0.305354
310, 2, wb, attraction, a-b-db, 14, 2, 7, 35, 165, 90, 90, 165, 83, 153, 2, 0.707231
310, 2, wb, attraction, a-b-db, 14, 2, 7, 35, 165, 90, 90, 165, 83, 153, 1, 0.445649
310, 2, wb, filler, NA, 999, 999, 7, 36, 71, 80, 180, 124, 136, 150, 1, 0.833375
310, 2, wb, filler, NA, 999, 999, 7, 36, 71, 80, 180, 124, 136, 150, 2, 0.911168
310, 2, wb, attraction, a-b-da, 5, 1, 7, 37, 135, 60, 60, 135, 132, 58, 2, 1.03219
310, 2, wb, attraction, a-b-da, 5, 1, 7, 37, 135, 60, 60, 135, 132, 58, 1, 0.645807
310, 2, wb, filler, NA, 999, 999, 8, 1, 173, 180, 114, 62, 118, 167, 2, 1.52153
310, 2, wb, filler, NA, 999, 999, 8, 1, 173, 180, 114, 62, 118, 167, 1, 0.347088
310, 2, wb, filler, NA, 999, 999, 8, 2, 61, 194, 134, 122, 132, 58, 3, 1.15484
310, 2, wb, filler, NA, 999, 999, 8, 2, 61, 194, 134, 122, 132, 58, 2, 0.315245
310, 2, wb, attraction, a-b-da, 14, 2, 8, 3, 165, 90, 153, 83, 90, 165, 2, 1.02026
310, 2, wb, attraction, a-b-da, 14, 2, 8, 3, 165, 90, 153, 83, 90, 165, 1, 0.506623
310, 2, wb, attraction, a-b-db, 2, 1, 8, 4, 135, 60, 60, 135, 59, 134, 1, 1.81173
310, 2, wb, attraction, a-b-db, 2, 1, 8, 4, 135, 60, 60, 135, 59, 134, 2, 0.785822
310, 2, wb, attraction, a-b-db, 14, 2, 8, 5, 90, 165, 83, 153, 165, 90, 2, 1.32032
310, 2, wb, attraction, a-b-db, 14, 2, 8, 5, 90, 165, 83, 153, 165, 90, 3, 1.49846
310, 2, wb, filler, NA, 999, 999, 8, 6, 78, 162, 92, 117, 179, 162, 1, 2.87585
310, 2, wb, filler, NA, 999, 999, 8, 6, 78, 162, 92, 117, 179, 162, 3, 0.358918
310, 2, wb, filler, NA, 999, 999, 8, 7, 120, 93, 182, 179, 141, 69, 3, 1.14209
310, 2, wb, filler, NA, 999, 999, 8, 7, 120, 93, 182, 179, 141, 69, 2, 0.335051
310, 2, wb, attraction, a-b-da, 2, 3, 8, 8, 193, 119, 195, 120, 120, 195, 2, 0.927475
310, 2, wb, attraction, a-b-da, 2, 3, 8, 8, 193, 119, 195, 120, 120, 195, 1, 0.329245
310, 2, wb, filler, NA, 999, 999, 8, 9, 107, 140, 78, 136, 176, 161, 2, 0.425673
310, 2, wb, filler, NA, 999, 999, 8, 9, 107, 140, 78, 136, 176, 161, 3, 0.343526
310, 2, wb, catch, NA, 999, 999, 8, 10, 179, 136, 151, 104, 66, 129, 3, 0.599334
310, 2, wb, catch, NA, 999, 999, 8, 10, 179, 136, 151, 104, 66, 129, 1, 0.51853
310, 2, wb, filler, NA, 999, 999, 8, 11, 110, 99, 165, 116, 66, 94, 3, 0.679763
310, 2, wb, filler, NA, 999, 999, 8, 11, 110, 99, 165, 116, 66, 94, 2, 0.411408
310, 2, wb, attraction, a-b-da, 9, 3, 8, 12, 186, 114, 120, 195, 195, 120, 1, 16.0646
310, 2, wb, attraction, a-b-da, 9, 3, 8, 12, 186, 114, 120, 195, 195, 120, 2, 0.33615
310, 2, wb, attraction, a-b-da, 5, 1, 8, 13, 60, 135, 135, 60, 132, 58, 2, 0.888601
310, 2, wb, attraction, a-b-da, 5, 1, 8, 13, 60, 135, 135, 60, 132, 58, 1, 0.467715
310, 2, wb, attraction, a-b-da, 2, 1, 8, 14, 135, 60, 60, 135, 134, 59, 3, 1.58285
310, 2, wb, attraction, a-b-da, 2, 1, 8, 14, 135, 60, 60, 135, 134, 59, 2, 0.398344
310, 2, wb, attraction, a-b-db, 14, 3, 8, 15, 111, 181, 120, 195, 195, 120, 1, 1.86805
310, 2, wb, attraction, a-b-db, 14, 3, 8, 15, 111, 181, 120, 195, 195, 120, 3, 0.656163
310, 2, wb, filler, NA, 999, 999, 8, 16, 58, 152, 172, 113, 103, 182, 1, 0.659407
310, 2, wb, filler, NA, 999, 999, 8, 16, 58, 152, 172, 113, 103, 182, 2, 1.4558
310, 2, wb, attraction, a-b-db, 14, 1, 8, 17, 60, 135, 135, 60, 56, 125, 3, 1.48315
310, 2, wb, attraction, a-b-db, 14, 1, 8, 17, 60, 135, 135, 60, 56, 125, 1, 0.662765
310, 2, wb, attraction, a-b-da, 5, 3, 8, 18, 190, 117, 195, 120, 120, 195, 2, 1.55388
310, 2, wb, attraction, a-b-da, 5, 3, 8, 18, 190, 117, 195, 120, 120, 195, 3, 0.450006
310, 2, wb, attraction, a-b-da, 5, 2, 8, 19, 165, 90, 90, 165, 161, 88, 3, 1.59778
310, 2, wb, attraction, a-b-da, 5, 2, 8, 19, 165, 90, 90, 165, 161, 88, 2, 0.380548
310, 2, wb, filler, NA, 999, 999, 8, 20, 177, 67, 134, 166, 91, 95, 3, 0.954924
310, 2, wb, filler, NA, 999, 999, 8, 20, 177, 67, 134, 166, 91, 95, 2, 0.419271
310, 2, wb, catch, NA, 999, 999, 8, 21, 94, 161, 144, 171, 105, 90, 3, 0.712522
310, 2, wb, catch, NA, 999, 999, 8, 21, 94, 161, 144, 171, 105, 90, 2, 0.330865
310, 2, wb, attraction, a-b-da, 2, 2, 8, 22, 90, 165, 163, 89, 165, 90, 1, 1.67537
310, 2, wb, attraction, a-b-da, 2, 2, 8, 22, 90, 165, 163, 89, 165, 90, 3, 0.39092
310, 2, wb, attraction, a-b-db, 9, 1, 8, 23, 135, 60, 57, 129, 60, 135, 2, 0.676791
310, 2, wb, attraction, a-b-db, 9, 1, 8, 23, 135, 60, 57, 129, 60, 135, 1, 0.432409
310, 2, wb, attraction, a-b-da, 9, 2, 8, 24, 165, 90, 157, 86, 90, 165, 2, 1.18089
310, 2, wb, attraction, a-b-da, 9, 2, 8, 24, 165, 90, 157, 86, 90, 165, 1, 0.692556
310, 2, wb, attraction, a-b-db, 9, 2, 8, 25, 165, 90, 86, 157, 90, 165, 2, 2.3742
310, 2, wb, attraction, a-b-db, 9, 2, 8, 25, 165, 90, 86, 157, 90, 165, 1, 0.981416
310, 2, wb, catch, NA, 999, 999, 8, 26, 141, 174, 107, 88, 99, 156, 2, 0.475776
310, 2, wb, catch, NA, 999, 999, 8, 26, 141, 174, 107, 88, 99, 156, 1, 0.391622
310, 2, wb, attraction, a-b-da, 9, 1, 8, 27, 60, 135, 135, 60, 129, 57, 3, 1.83737
310, 2, wb, attraction, a-b-da, 9, 1, 8, 27, 60, 135, 135, 60, 129, 57, 1, 0.402143
310, 2, wb, filler, NA, 999, 999, 8, 28, 142, 129, 177, 140, 140, 139, 1, 1.84802
310, 2, wb, filler, NA, 999, 999, 8, 28, 142, 129, 177, 140, 140, 139, 2, 0.428804
310, 2, wb, attraction, a-b-db, 5, 2, 8, 29, 165, 90, 90, 165, 88, 161, 1, 1.04914
310, 2, wb, attraction, a-b-db, 5, 2, 8, 29, 165, 90, 90, 165, 88, 161, 2, 0.350156
310, 2, wb, attraction, a-b-da, 14, 1, 8, 30, 135, 60, 125, 56, 60, 135, 2, 0.917878
310, 2, wb, attraction, a-b-da, 14, 1, 8, 30, 135, 60, 125, 56, 60, 135, 1, 0.824303
310, 2, wb, attraction, a-b-da, 14, 3, 8, 31, 120, 195, 195, 120, 181, 111, 2, 0.700625
310, 2, wb, attraction, a-b-da, 14, 3, 8, 31, 120, 195, 195, 120, 181, 111, 3, 0.303804
310, 2, wb, attraction, a-b-db, 2, 3, 8, 32, 195, 120, 119, 193, 120, 195, 3, 1.15355
310, 2, wb, attraction, a-b-db, 2, 3, 8, 32, 195, 120, 119, 193, 120, 195, 2, 0.33799
310, 2, wb, attraction, a-b-db, 2, 2, 8, 33, 165, 90, 89, 163, 90, 165, 1, 1.80235
310, 2, wb, attraction, a-b-db, 2, 2, 8, 33, 165, 90, 89, 163, 90, 165, 2, 0.201243
310, 2, wb, attraction, a-b-db, 9, 3, 8, 34, 114, 186, 120, 195, 195, 120, 1, 0.646932
310, 2, wb, attraction, a-b-db, 9, 3, 8, 34, 114, 186, 120, 195, 195, 120, 2, 0.580146
310, 2, wb, filler, NA, 999, 999, 8, 35, 152, 160, 77, 89, 116, 78, 2, 0.602508
310, 2, wb, filler, NA, 999, 999, 8, 35, 152, 160, 77, 89, 116, 78, 1, 0.281778
310, 2, wb, attraction, a-b-db, 5, 1, 8, 36, 60, 135, 58, 132, 135, 60, 2, 0.580308
310, 2, wb, attraction, a-b-db, 5, 1, 8, 36, 60, 135, 58, 132, 135, 60, 1, 0.34009
310, 2, wb, attraction, a-b-db, 5, 3, 8, 37, 195, 120, 120, 195, 117, 190, 2, 0.867829
310, 2, wb, attraction, a-b-db, 5, 3, 8, 37, 195, 120, 120, 195, 117, 190, 1, 0.344223
