sub_n, computer_n, bw_cond, effect, set, distance, diag, block_n, trial_n, h1, w1, h2, w2, h3, w3, choice, rt 
386, 2, wb, practice, NA, 999, 999, 0, 1, 66, 127, 158, 80, 173, 169, 1, 4.14053
386, 2, wb, practice, NA, 999, 999, 0, 1, 66, 127, 158, 80, 173, 169, 3, 1.97142
386, 2, wb, practice, NA, 999, 999, 0, 2, 66, 149, 63, 163, 105, 121, 1, 3.06404
386, 2, wb, practice, NA, 999, 999, 0, 2, 66, 149, 63, 163, 105, 121, 3, 6.36495
386, 2, wb, practice, NA, 999, 999, 0, 3, 73, 159, 61, 64, 68, 150, 2, 2.23778
386, 2, wb, practice, NA, 999, 999, 0, 3, 73, 159, 61, 64, 68, 150, 1, 1.20207
386, 2, wb, attraction, a-b-da, 14, 2, 1, 1, 165, 90, 153, 83, 90, 165, 2, 6.22943
386, 2, wb, attraction, a-b-da, 14, 2, 1, 1, 165, 90, 153, 83, 90, 165, 1, 2.34542
386, 2, wb, catch, NA, 999, 999, 1, 2, 122, 73, 129, 186, 150, 105, 1, 1.68058
386, 2, wb, catch, NA, 999, 999, 1, 2, 122, 73, 129, 186, 150, 105, 2, 1.10001
386, 2, wb, attraction, a-b-da, 9, 1, 1, 3, 135, 60, 129, 57, 60, 135, 2, 5.66966
386, 2, wb, attraction, a-b-da, 9, 1, 1, 3, 135, 60, 129, 57, 60, 135, 1, 1.04855
386, 2, wb, attraction, a-b-db, 9, 3, 1, 4, 120, 195, 195, 120, 114, 186, 3, 6.87626
386, 2, wb, attraction, a-b-db, 9, 3, 1, 4, 120, 195, 195, 120, 114, 186, 2, 1.06197
386, 2, wb, filler, NA, 999, 999, 1, 5, 176, 116, 134, 95, 74, 171, 2, 2.27287
386, 2, wb, filler, NA, 999, 999, 1, 5, 176, 116, 134, 95, 74, 171, 1, 0.780153
386, 2, wb, attraction, a-b-db, 5, 2, 1, 6, 90, 165, 165, 90, 88, 161, 3, 4.86671
386, 2, wb, attraction, a-b-db, 5, 2, 1, 6, 90, 165, 165, 90, 88, 161, 1, 1.69371
386, 2, wb, filler, NA, 999, 999, 1, 7, 92, 94, 104, 79, 67, 70, 3, 1.31106
386, 2, wb, filler, NA, 999, 999, 1, 7, 92, 94, 104, 79, 67, 70, 1, 3.79331
386, 2, wb, attraction, a-b-db, 2, 3, 1, 8, 120, 195, 119, 193, 195, 120, 1, 2.47009
386, 2, wb, attraction, a-b-db, 2, 3, 1, 8, 120, 195, 119, 193, 195, 120, 3, 0.849306
386, 2, wb, attraction, a-b-db, 5, 3, 1, 9, 195, 120, 117, 190, 120, 195, 2, 1.99696
386, 2, wb, attraction, a-b-db, 5, 3, 1, 9, 195, 120, 117, 190, 120, 195, 1, 0.451633
386, 2, wb, catch, NA, 999, 999, 1, 10, 69, 126, 193, 122, 117, 138, 1, 0.823392
386, 2, wb, catch, NA, 999, 999, 1, 10, 69, 126, 193, 122, 117, 138, 2, 1.45316
386, 2, wb, attraction, a-b-db, 14, 3, 1, 11, 111, 181, 195, 120, 120, 195, 1, 1.39257
386, 2, wb, attraction, a-b-db, 14, 3, 1, 11, 111, 181, 195, 120, 120, 195, 3, 1.17546
386, 2, wb, attraction, a-b-db, 5, 1, 1, 12, 58, 132, 135, 60, 60, 135, 1, 1.62177
386, 2, wb, attraction, a-b-db, 5, 1, 1, 12, 58, 132, 135, 60, 60, 135, 2, 0.507262
386, 2, wb, filler, NA, 999, 999, 1, 13, 148, 178, 77, 173, 80, 140, 3, 1.40432
386, 2, wb, filler, NA, 999, 999, 1, 13, 148, 178, 77, 173, 80, 140, 1, 0.882511
386, 2, wb, filler, NA, 999, 999, 1, 14, 163, 113, 90, 94, 63, 103, 3, 0.956829
386, 2, wb, filler, NA, 999, 999, 1, 14, 163, 113, 90, 94, 63, 103, 1, 0.621319
386, 2, wb, filler, NA, 999, 999, 1, 15, 98, 120, 66, 189, 87, 108, 3, 1.99431
386, 2, wb, filler, NA, 999, 999, 1, 15, 98, 120, 66, 189, 87, 108, 2, 3.11295
386, 2, wb, attraction, a-b-da, 14, 1, 1, 16, 125, 56, 135, 60, 60, 135, 1, 1.80933
386, 2, wb, attraction, a-b-da, 14, 1, 1, 16, 125, 56, 135, 60, 60, 135, 3, 0.50335
386, 2, wb, attraction, a-b-db, 14, 1, 1, 17, 60, 135, 56, 125, 135, 60, 2, 2.85708
386, 2, wb, attraction, a-b-db, 14, 1, 1, 17, 60, 135, 56, 125, 135, 60, 3, 1.01294
386, 2, wb, filler, NA, 999, 999, 1, 18, 149, 167, 74, 125, 168, 104, 2, 2.6738
386, 2, wb, filler, NA, 999, 999, 1, 18, 149, 167, 74, 125, 168, 104, 1, 2.04508
386, 2, wb, filler, NA, 999, 999, 1, 19, 115, 109, 189, 133, 112, 193, 1, 0.888244
386, 2, wb, filler, NA, 999, 999, 1, 19, 115, 109, 189, 133, 112, 193, 2, 0.435232
386, 2, wb, attraction, a-b-da, 2, 1, 1, 20, 60, 135, 135, 60, 134, 59, 1, 1.59978
386, 2, wb, attraction, a-b-da, 2, 1, 1, 20, 60, 135, 135, 60, 134, 59, 2, 1.25459
386, 2, wb, attraction, a-b-da, 9, 3, 1, 21, 186, 114, 195, 120, 120, 195, 3, 1.7941
386, 2, wb, attraction, a-b-da, 9, 3, 1, 21, 186, 114, 195, 120, 120, 195, 2, 0.552872
386, 2, wb, attraction, a-b-da, 5, 2, 1, 22, 90, 165, 161, 88, 165, 90, 1, 1.18462
386, 2, wb, attraction, a-b-da, 5, 2, 1, 22, 90, 165, 161, 88, 165, 90, 3, 2.10442
386, 2, wb, attraction, a-b-da, 5, 1, 1, 23, 132, 58, 60, 135, 135, 60, 1, 1.68955
386, 2, wb, attraction, a-b-da, 5, 1, 1, 23, 132, 58, 60, 135, 135, 60, 3, 0.980307
386, 2, wb, attraction, a-b-db, 9, 2, 1, 24, 86, 157, 165, 90, 90, 165, 1, 4.12267
386, 2, wb, attraction, a-b-db, 9, 2, 1, 24, 86, 157, 165, 90, 90, 165, 2, 2.19527
386, 2, wb, attraction, a-b-db, 14, 2, 1, 25, 83, 153, 90, 165, 165, 90, 1, 1.21656
386, 2, wb, attraction, a-b-db, 14, 2, 1, 25, 83, 153, 90, 165, 165, 90, 3, 1.09485
386, 2, wb, filler, NA, 999, 999, 1, 26, 177, 75, 71, 192, 104, 150, 3, 2.10444
386, 2, wb, filler, NA, 999, 999, 1, 26, 177, 75, 71, 192, 104, 150, 1, 1.20234
386, 2, wb, catch, NA, 999, 999, 1, 27, 154, 101, 128, 67, 127, 188, 2, 1.68795
386, 2, wb, catch, NA, 999, 999, 1, 27, 154, 101, 128, 67, 127, 188, 3, 0.6747
386, 2, wb, filler, NA, 999, 999, 1, 28, 125, 133, 120, 158, 175, 108, 1, 2.57314
386, 2, wb, filler, NA, 999, 999, 1, 28, 125, 133, 120, 158, 175, 108, 3, 1.97238
386, 2, wb, filler, NA, 999, 999, 1, 29, 122, 179, 56, 174, 189, 110, 2, 1.79498
386, 2, wb, filler, NA, 999, 999, 1, 29, 122, 179, 56, 174, 189, 110, 3, 2.49776
386, 2, wb, attraction, a-b-da, 14, 3, 1, 30, 195, 120, 181, 111, 120, 195, 2, 1.90679
386, 2, wb, attraction, a-b-da, 14, 3, 1, 30, 195, 120, 181, 111, 120, 195, 1, 0.388804
386, 2, wb, attraction, a-b-db, 2, 1, 1, 31, 135, 60, 60, 135, 59, 134, 2, 2.44334
386, 2, wb, attraction, a-b-db, 2, 1, 1, 31, 135, 60, 60, 135, 59, 134, 1, 0.367842
386, 2, wb, attraction, a-b-db, 9, 1, 1, 32, 60, 135, 135, 60, 57, 129, 1, 1.0951
386, 2, wb, attraction, a-b-db, 9, 1, 1, 32, 60, 135, 135, 60, 57, 129, 2, 0.394071
386, 2, wb, attraction, a-b-db, 2, 2, 1, 33, 89, 163, 165, 90, 90, 165, 1, 2.75997
386, 2, wb, attraction, a-b-db, 2, 2, 1, 33, 89, 163, 165, 90, 90, 165, 2, 0.391591
386, 2, wb, attraction, a-b-da, 2, 3, 1, 34, 193, 119, 120, 195, 195, 120, 3, 3.79751
386, 2, wb, attraction, a-b-da, 2, 3, 1, 34, 193, 119, 120, 195, 195, 120, 2, 1.40365
386, 2, wb, attraction, a-b-da, 5, 3, 1, 35, 195, 120, 190, 117, 120, 195, 2, 2.09724
386, 2, wb, attraction, a-b-da, 5, 3, 1, 35, 195, 120, 190, 117, 120, 195, 1, 0.323721
386, 2, wb, attraction, a-b-da, 2, 2, 1, 36, 165, 90, 90, 165, 163, 89, 2, 1.32423
386, 2, wb, attraction, a-b-da, 2, 2, 1, 36, 165, 90, 90, 165, 163, 89, 1, 0.645799
386, 2, wb, attraction, a-b-da, 9, 2, 1, 37, 157, 86, 165, 90, 90, 165, 1, 1.23357
386, 2, wb, attraction, a-b-da, 9, 2, 1, 37, 157, 86, 165, 90, 90, 165, 2, 0.383044
386, 2, wb, attraction, a-b-db, 9, 2, 2, 1, 86, 157, 90, 165, 165, 90, 2, 1.93364
386, 2, wb, attraction, a-b-db, 9, 2, 2, 1, 86, 157, 90, 165, 165, 90, 3, 0.991047
386, 2, wb, catch, NA, 999, 999, 2, 2, 110, 85, 148, 107, 154, 161, 1, 1.0526
386, 2, wb, catch, NA, 999, 999, 2, 2, 110, 85, 148, 107, 154, 161, 3, 0.777594
386, 2, wb, filler, NA, 999, 999, 2, 3, 80, 173, 133, 97, 160, 157, 2, 1.24794
386, 2, wb, filler, NA, 999, 999, 2, 3, 80, 173, 133, 97, 160, 157, 3, 0.316991
386, 2, wb, filler, NA, 999, 999, 2, 4, 193, 63, 114, 59, 69, 142, 2, 0.782026
386, 2, wb, filler, NA, 999, 999, 2, 4, 193, 63, 114, 59, 69, 142, 1, 0.549881
386, 2, wb, filler, NA, 999, 999, 2, 5, 171, 72, 142, 105, 83, 171, 3, 2.72557
386, 2, wb, filler, NA, 999, 999, 2, 5, 171, 72, 142, 105, 83, 171, 1, 0.830647
386, 2, wb, filler, NA, 999, 999, 2, 6, 151, 170, 132, 160, 93, 192, 3, 0.963057
386, 2, wb, filler, NA, 999, 999, 2, 6, 151, 170, 132, 160, 93, 192, 1, 0.539378
386, 2, wb, attraction, a-b-db, 9, 3, 2, 7, 114, 186, 120, 195, 195, 120, 1, 3.50706
386, 2, wb, attraction, a-b-db, 9, 3, 2, 7, 114, 186, 120, 195, 195, 120, 3, 0.540636
386, 2, wb, attraction, a-b-db, 5, 1, 2, 8, 135, 60, 58, 132, 60, 135, 2, 2.92447
386, 2, wb, attraction, a-b-db, 5, 1, 2, 8, 135, 60, 58, 132, 60, 135, 1, 0.589603
386, 2, wb, attraction, a-b-db, 2, 1, 2, 9, 59, 134, 60, 135, 135, 60, 1, 0.771253
386, 2, wb, attraction, a-b-db, 2, 1, 2, 9, 59, 134, 60, 135, 135, 60, 3, 0.530934
386, 2, wb, attraction, a-b-da, 5, 3, 2, 10, 190, 117, 120, 195, 195, 120, 3, 1.34742
386, 2, wb, attraction, a-b-da, 5, 3, 2, 10, 190, 117, 120, 195, 195, 120, 1, 0.900272
386, 2, wb, attraction, a-b-db, 14, 2, 2, 11, 165, 90, 83, 153, 90, 165, 2, 1.30996
386, 2, wb, attraction, a-b-db, 14, 2, 2, 11, 165, 90, 83, 153, 90, 165, 1, 0.640302
386, 2, wb, attraction, a-b-da, 14, 1, 2, 12, 60, 135, 125, 56, 135, 60, 2, 1.04391
386, 2, wb, attraction, a-b-da, 14, 1, 2, 12, 60, 135, 125, 56, 135, 60, 3, 0.512917
386, 2, wb, filler, NA, 999, 999, 2, 13, 185, 76, 127, 69, 151, 174, 2, 0.762143
386, 2, wb, filler, NA, 999, 999, 2, 13, 185, 76, 127, 69, 151, 174, 3, 0.474415
386, 2, wb, attraction, a-b-da, 14, 3, 2, 14, 195, 120, 120, 195, 181, 111, 3, 1.94904
386, 2, wb, attraction, a-b-da, 14, 3, 2, 14, 195, 120, 120, 195, 181, 111, 2, 0.59761
386, 2, wb, attraction, a-b-db, 2, 2, 2, 15, 89, 163, 165, 90, 90, 165, 3, 4.04345
386, 2, wb, attraction, a-b-db, 2, 2, 2, 15, 89, 163, 165, 90, 90, 165, 2, 0.727352
386, 2, wb, catch, NA, 999, 999, 2, 16, 104, 91, 160, 155, 131, 124, 1, 0.855695
386, 2, wb, catch, NA, 999, 999, 2, 16, 104, 91, 160, 155, 131, 124, 2, 0.436133
386, 2, wb, attraction, a-b-da, 2, 2, 2, 17, 90, 165, 163, 89, 165, 90, 2, 2.51255
386, 2, wb, attraction, a-b-da, 2, 2, 2, 17, 90, 165, 163, 89, 165, 90, 3, 0.314497
386, 2, wb, attraction, a-b-db, 14, 1, 2, 18, 135, 60, 56, 125, 60, 135, 2, 1.47559
386, 2, wb, attraction, a-b-db, 14, 1, 2, 18, 135, 60, 56, 125, 60, 135, 1, 0.639131
386, 2, wb, filler, NA, 999, 999, 2, 19, 188, 108, 65, 188, 131, 149, 2, 3.45158
386, 2, wb, filler, NA, 999, 999, 2, 19, 188, 108, 65, 188, 131, 149, 1, 1.84782
386, 2, wb, attraction, a-b-db, 9, 1, 2, 20, 57, 129, 60, 135, 135, 60, 1, 2.01911
386, 2, wb, attraction, a-b-db, 9, 1, 2, 20, 57, 129, 60, 135, 135, 60, 2, 0.537191
386, 2, wb, attraction, a-b-da, 5, 1, 2, 21, 60, 135, 132, 58, 135, 60, 2, 0.953566
386, 2, wb, attraction, a-b-da, 5, 1, 2, 21, 60, 135, 132, 58, 135, 60, 3, 1.12267
386, 2, wb, filler, NA, 999, 999, 2, 22, 64, 115, 59, 174, 149, 161, 1, 0.867495
386, 2, wb, filler, NA, 999, 999, 2, 22, 64, 115, 59, 174, 149, 161, 3, 0.487903
386, 2, wb, attraction, a-b-da, 5, 2, 2, 23, 165, 90, 90, 165, 161, 88, 2, 2.73839
386, 2, wb, attraction, a-b-da, 5, 2, 2, 23, 165, 90, 90, 165, 161, 88, 1, 0.418829
386, 2, wb, attraction, a-b-da, 9, 2, 2, 24, 90, 165, 157, 86, 165, 90, 2, 1.91992
386, 2, wb, attraction, a-b-da, 9, 2, 2, 24, 90, 165, 157, 86, 165, 90, 1, 0.410052
386, 2, wb, catch, NA, 999, 999, 2, 25, 128, 67, 115, 140, 139, 176, 1, 0.863068
386, 2, wb, catch, NA, 999, 999, 2, 25, 128, 67, 115, 140, 139, 176, 3, 0.323525
386, 2, wb, attraction, a-b-da, 2, 1, 2, 26, 134, 59, 135, 60, 60, 135, 2, 1.10805
386, 2, wb, attraction, a-b-da, 2, 1, 2, 26, 134, 59, 135, 60, 60, 135, 1, 0.470251
386, 2, wb, filler, NA, 999, 999, 2, 27, 174, 72, 141, 76, 89, 132, 2, 2.18544
386, 2, wb, filler, NA, 999, 999, 2, 27, 174, 72, 141, 76, 89, 132, 1, 0.664862
386, 2, wb, attraction, a-b-db, 5, 2, 2, 28, 90, 165, 88, 161, 165, 90, 1, 2.19585
386, 2, wb, attraction, a-b-db, 5, 2, 2, 28, 90, 165, 88, 161, 165, 90, 3, 0.482356
386, 2, wb, attraction, a-b-db, 14, 3, 2, 29, 195, 120, 120, 195, 111, 181, 3, 2.01283
386, 2, wb, attraction, a-b-db, 14, 3, 2, 29, 195, 120, 120, 195, 111, 181, 1, 1.03497
386, 2, wb, attraction, a-b-da, 2, 3, 2, 30, 120, 195, 193, 119, 195, 120, 1, 2.64725
386, 2, wb, attraction, a-b-da, 2, 3, 2, 30, 120, 195, 193, 119, 195, 120, 2, 0.963611
386, 2, wb, filler, NA, 999, 999, 2, 31, 62, 71, 133, 143, 181, 125, 1, 0.786596
386, 2, wb, filler, NA, 999, 999, 2, 31, 62, 71, 133, 143, 181, 125, 3, 0.514422
386, 2, wb, attraction, a-b-da, 14, 2, 2, 32, 90, 165, 165, 90, 153, 83, 2, 0.947552
386, 2, wb, attraction, a-b-da, 14, 2, 2, 32, 90, 165, 165, 90, 153, 83, 1, 0.444541
386, 2, wb, attraction, a-b-da, 9, 3, 2, 33, 120, 195, 195, 120, 186, 114, 1, 1.8244
386, 2, wb, attraction, a-b-da, 9, 3, 2, 33, 120, 195, 195, 120, 186, 114, 3, 1.39765
386, 2, wb, attraction, a-b-da, 9, 1, 2, 34, 60, 135, 129, 57, 135, 60, 1, 0.979131
386, 2, wb, attraction, a-b-da, 9, 1, 2, 34, 60, 135, 129, 57, 135, 60, 2, 0.514861
386, 2, wb, attraction, a-b-db, 5, 3, 2, 35, 120, 195, 195, 120, 117, 190, 2, 4.82795
386, 2, wb, attraction, a-b-db, 5, 3, 2, 35, 120, 195, 195, 120, 117, 190, 1, 0.360398
386, 2, wb, filler, NA, 999, 999, 2, 36, 130, 94, 171, 135, 111, 118, 1, 1.06357
386, 2, wb, filler, NA, 999, 999, 2, 36, 130, 94, 171, 135, 111, 118, 2, 0.331858
386, 2, wb, attraction, a-b-db, 2, 3, 2, 37, 195, 120, 119, 193, 120, 195, 2, 12.5804
386, 2, wb, attraction, a-b-db, 2, 3, 2, 37, 195, 120, 119, 193, 120, 195, 1, 0.328372
386, 2, wb, attraction, a-b-da, 2, 2, 3, 1, 165, 90, 163, 89, 90, 165, 2, 1.44108
386, 2, wb, attraction, a-b-da, 2, 2, 3, 1, 165, 90, 163, 89, 90, 165, 1, 0.453779
386, 2, wb, attraction, a-b-db, 2, 2, 3, 2, 89, 163, 90, 165, 165, 90, 1, 1.59356
386, 2, wb, attraction, a-b-db, 2, 2, 3, 2, 89, 163, 90, 165, 165, 90, 3, 0.52861
386, 2, wb, filler, NA, 999, 999, 3, 3, 127, 195, 146, 62, 150, 80, 2, 1.24883
386, 2, wb, filler, NA, 999, 999, 3, 3, 127, 195, 146, 62, 150, 80, 1, 0.51783
386, 2, wb, attraction, a-b-da, 2, 1, 3, 4, 135, 60, 134, 59, 60, 135, 1, 1.48686
386, 2, wb, attraction, a-b-da, 2, 1, 3, 4, 135, 60, 134, 59, 60, 135, 3, 1.09054
386, 2, wb, attraction, a-b-da, 5, 1, 3, 5, 132, 58, 135, 60, 60, 135, 2, 0.796058
386, 2, wb, attraction, a-b-da, 5, 1, 3, 5, 132, 58, 135, 60, 60, 135, 1, 0.411085
386, 2, wb, attraction, a-b-da, 9, 1, 3, 6, 60, 135, 135, 60, 129, 57, 1, 1.08823
386, 2, wb, attraction, a-b-da, 9, 1, 3, 6, 60, 135, 135, 60, 129, 57, 2, 0.467195
386, 2, wb, attraction, a-b-da, 14, 3, 3, 7, 195, 120, 120, 195, 181, 111, 1, 5.58228
386, 2, wb, attraction, a-b-da, 14, 3, 3, 7, 195, 120, 120, 195, 181, 111, 2, 0.436506
386, 2, wb, attraction, a-b-db, 9, 3, 3, 8, 120, 195, 195, 120, 114, 186, 2, 2.19298
386, 2, wb, attraction, a-b-db, 9, 3, 3, 8, 120, 195, 195, 120, 114, 186, 1, 0.375759
386, 2, wb, filler, NA, 999, 999, 3, 9, 108, 87, 166, 61, 180, 163, 1, 2.46211
386, 2, wb, filler, NA, 999, 999, 3, 9, 108, 87, 166, 61, 180, 163, 3, 0.378016
386, 2, wb, attraction, a-b-db, 9, 1, 3, 10, 135, 60, 60, 135, 57, 129, 1, 8.30454
386, 2, wb, attraction, a-b-db, 9, 1, 3, 10, 135, 60, 60, 135, 57, 129, 2, 0.305154
386, 2, wb, attraction, a-b-da, 9, 3, 3, 11, 120, 195, 195, 120, 186, 114, 1, 5.00309
386, 2, wb, attraction, a-b-da, 9, 3, 3, 11, 120, 195, 195, 120, 186, 114, 2, 0.464813
386, 2, wb, attraction, a-b-db, 9, 2, 3, 12, 90, 165, 165, 90, 86, 157, 3, 1.22794
386, 2, wb, attraction, a-b-db, 9, 2, 3, 12, 90, 165, 165, 90, 86, 157, 2, 0.94557
386, 2, wb, catch, NA, 999, 999, 3, 13, 158, 97, 95, 100, 168, 147, 2, 0.993188
386, 2, wb, catch, NA, 999, 999, 3, 13, 158, 97, 95, 100, 168, 147, 3, 0.704294
386, 2, wb, filler, NA, 999, 999, 3, 14, 191, 158, 185, 182, 118, 106, 3, 1.00191
386, 2, wb, filler, NA, 999, 999, 3, 14, 191, 158, 185, 182, 118, 106, 2, 0.76089
386, 2, wb, attraction, a-b-db, 2, 1, 3, 15, 60, 135, 59, 134, 135, 60, 2, 2.78392
386, 2, wb, attraction, a-b-db, 2, 1, 3, 15, 60, 135, 59, 134, 135, 60, 3, 0.943009
386, 2, wb, filler, NA, 999, 999, 3, 16, 63, 81, 99, 133, 59, 83, 3, 1.31885
386, 2, wb, filler, NA, 999, 999, 3, 16, 63, 81, 99, 133, 59, 83, 2, 0.38489
386, 2, wb, filler, NA, 999, 999, 3, 17, 117, 168, 121, 72, 128, 72, 2, 0.911327
386, 2, wb, filler, NA, 999, 999, 3, 17, 117, 168, 121, 72, 128, 72, 1, 0.433684
386, 2, wb, attraction, a-b-db, 2, 3, 3, 18, 119, 193, 120, 195, 195, 120, 1, 8.51811
386, 2, wb, attraction, a-b-db, 2, 3, 3, 18, 119, 193, 120, 195, 195, 120, 2, 1.27017
386, 2, wb, catch, NA, 999, 999, 3, 19, 136, 179, 92, 103, 100, 155, 2, 0.713057
386, 2, wb, catch, NA, 999, 999, 3, 19, 136, 179, 92, 103, 100, 155, 1, 0.339476
386, 2, wb, attraction, a-b-db, 5, 2, 3, 20, 165, 90, 88, 161, 90, 165, 1, 0.939269
386, 2, wb, attraction, a-b-db, 5, 2, 3, 20, 165, 90, 88, 161, 90, 165, 2, 0.316332
386, 2, wb, attraction, a-b-db, 5, 3, 3, 21, 120, 195, 195, 120, 117, 190, 1, 1.66958
386, 2, wb, attraction, a-b-db, 5, 3, 3, 21, 120, 195, 195, 120, 117, 190, 2, 0.313581
386, 2, wb, attraction, a-b-da, 9, 2, 3, 22, 90, 165, 157, 86, 165, 90, 1, 0.826716
386, 2, wb, attraction, a-b-da, 9, 2, 3, 22, 90, 165, 157, 86, 165, 90, 3, 0.584556
386, 2, wb, filler, NA, 999, 999, 3, 23, 169, 161, 68, 168, 160, 99, 2, 1.20692
386, 2, wb, filler, NA, 999, 999, 3, 23, 169, 161, 68, 168, 160, 99, 1, 0.469229
386, 2, wb, filler, NA, 999, 999, 3, 24, 151, 128, 71, 140, 178, 154, 2, 0.792361
386, 2, wb, filler, NA, 999, 999, 3, 24, 151, 128, 71, 140, 178, 154, 3, 0.463448
386, 2, wb, attraction, a-b-db, 14, 2, 3, 25, 90, 165, 165, 90, 83, 153, 3, 1.2506
386, 2, wb, attraction, a-b-db, 14, 2, 3, 25, 90, 165, 165, 90, 83, 153, 2, 0.439407
386, 2, wb, attraction, a-b-db, 14, 1, 3, 26, 135, 60, 60, 135, 56, 125, 1, 1.1393
386, 2, wb, attraction, a-b-db, 14, 1, 3, 26, 135, 60, 60, 135, 56, 125, 2, 0.892156
386, 2, wb, filler, NA, 999, 999, 3, 27, 108, 110, 134, 179, 95, 95, 3, 1.16585
386, 2, wb, filler, NA, 999, 999, 3, 27, 108, 110, 134, 179, 95, 95, 2, 0.518291
386, 2, wb, filler, NA, 999, 999, 3, 28, 129, 149, 152, 58, 64, 161, 2, 0.855255
386, 2, wb, filler, NA, 999, 999, 3, 28, 129, 149, 152, 58, 64, 161, 1, 0.49156
386, 2, wb, catch, NA, 999, 999, 3, 29, 140, 115, 183, 132, 109, 86, 3, 0.789438
386, 2, wb, catch, NA, 999, 999, 3, 29, 140, 115, 183, 132, 109, 86, 2, 0.492522
386, 2, wb, attraction, a-b-da, 14, 1, 3, 30, 135, 60, 60, 135, 125, 56, 1, 3.3662
386, 2, wb, attraction, a-b-da, 14, 1, 3, 30, 135, 60, 60, 135, 125, 56, 2, 0.525883
386, 2, wb, attraction, a-b-da, 2, 3, 3, 31, 193, 119, 195, 120, 120, 195, 3, 3.99035
386, 2, wb, attraction, a-b-da, 2, 3, 3, 31, 193, 119, 195, 120, 120, 195, 2, 0.404311
386, 2, wb, attraction, a-b-da, 14, 2, 3, 32, 90, 165, 153, 83, 165, 90, 1, 1.30624
386, 2, wb, attraction, a-b-da, 14, 2, 3, 32, 90, 165, 153, 83, 165, 90, 3, 0.436362
386, 2, wb, attraction, a-b-db, 5, 1, 3, 33, 135, 60, 58, 132, 60, 135, 2, 0.944782
386, 2, wb, attraction, a-b-db, 5, 1, 3, 33, 135, 60, 58, 132, 60, 135, 1, 0.609858
386, 2, wb, attraction, a-b-da, 5, 3, 3, 34, 190, 117, 195, 120, 120, 195, 2, 0.871056
386, 2, wb, attraction, a-b-da, 5, 3, 3, 34, 190, 117, 195, 120, 120, 195, 3, 0.49063
386, 2, wb, attraction, a-b-da, 5, 2, 3, 35, 90, 165, 165, 90, 161, 88, 2, 0.812489
386, 2, wb, attraction, a-b-da, 5, 2, 3, 35, 90, 165, 165, 90, 161, 88, 3, 0.586756
386, 2, wb, attraction, a-b-db, 14, 3, 3, 36, 195, 120, 111, 181, 120, 195, 2, 1.30529
386, 2, wb, attraction, a-b-db, 14, 3, 3, 36, 195, 120, 111, 181, 120, 195, 1, 0.483431
386, 2, wb, filler, NA, 999, 999, 3, 37, 141, 68, 128, 167, 136, 191, 1, 0.878042
386, 2, wb, filler, NA, 999, 999, 3, 37, 141, 68, 128, 167, 136, 191, 3, 0.729599
386, 2, wb, attraction, a-b-db, 14, 3, 4, 1, 120, 195, 195, 120, 111, 181, 3, 1.53803
386, 2, wb, attraction, a-b-db, 14, 3, 4, 1, 120, 195, 195, 120, 111, 181, 2, 0.698817
386, 2, wb, attraction, a-b-da, 5, 1, 4, 2, 60, 135, 132, 58, 135, 60, 1, 0.812578
386, 2, wb, attraction, a-b-da, 5, 1, 4, 2, 60, 135, 132, 58, 135, 60, 2, 0.562927
386, 2, wb, attraction, a-b-da, 5, 2, 4, 3, 90, 165, 165, 90, 161, 88, 2, 0.946048
386, 2, wb, attraction, a-b-da, 5, 2, 4, 3, 90, 165, 165, 90, 161, 88, 3, 0.499046
386, 2, wb, filler, NA, 999, 999, 4, 4, 121, 97, 172, 160, 70, 140, 1, 1.55681
386, 2, wb, filler, NA, 999, 999, 4, 4, 121, 97, 172, 160, 70, 140, 2, 0.308952
386, 2, wb, attraction, a-b-db, 5, 1, 4, 5, 135, 60, 60, 135, 58, 132, 2, 1.22222
386, 2, wb, attraction, a-b-db, 5, 1, 4, 5, 135, 60, 60, 135, 58, 132, 1, 0.675852
386, 2, wb, attraction, a-b-da, 9, 3, 4, 6, 120, 195, 195, 120, 186, 114, 1, 0.990062
386, 2, wb, attraction, a-b-da, 9, 3, 4, 6, 120, 195, 195, 120, 186, 114, 2, 0.597141
386, 2, wb, filler, NA, 999, 999, 4, 7, 139, 169, 69, 178, 124, 87, 2, 0.89091
386, 2, wb, filler, NA, 999, 999, 4, 7, 139, 169, 69, 178, 124, 87, 1, 1.41394
386, 2, wb, attraction, a-b-da, 2, 1, 4, 8, 60, 135, 135, 60, 134, 59, 2, 0.842743
386, 2, wb, attraction, a-b-da, 2, 1, 4, 8, 60, 135, 135, 60, 134, 59, 3, 0.567766
386, 2, wb, attraction, a-b-da, 14, 1, 4, 9, 125, 56, 60, 135, 135, 60, 1, 0.758929
386, 2, wb, attraction, a-b-da, 14, 1, 4, 9, 125, 56, 60, 135, 135, 60, 2, 0.447275
386, 2, wb, attraction, a-b-db, 2, 1, 4, 10, 135, 60, 60, 135, 59, 134, 1, 1.1312
386, 2, wb, attraction, a-b-db, 2, 1, 4, 10, 135, 60, 60, 135, 59, 134, 2, 0.516729
386, 2, wb, attraction, a-b-da, 9, 1, 4, 11, 60, 135, 129, 57, 135, 60, 1, 0.717764
386, 2, wb, attraction, a-b-da, 9, 1, 4, 11, 60, 135, 129, 57, 135, 60, 3, 0.560318
386, 2, wb, filler, NA, 999, 999, 4, 12, 146, 139, 108, 69, 104, 142, 2, 0.703386
386, 2, wb, filler, NA, 999, 999, 4, 12, 146, 139, 108, 69, 104, 142, 1, 0.481746
386, 2, wb, attraction, a-b-db, 2, 3, 4, 13, 119, 193, 120, 195, 195, 120, 1, 0.836189
386, 2, wb, attraction, a-b-db, 2, 3, 4, 13, 119, 193, 120, 195, 195, 120, 2, 0.713266
386, 2, wb, attraction, a-b-db, 5, 3, 4, 14, 120, 195, 117, 190, 195, 120, 1, 1.2263
386, 2, wb, attraction, a-b-db, 5, 3, 4, 14, 120, 195, 117, 190, 195, 120, 2, 0.375893
386, 2, wb, filler, NA, 999, 999, 4, 15, 130, 80, 122, 135, 63, 74, 3, 1.33444
386, 2, wb, filler, NA, 999, 999, 4, 15, 130, 80, 122, 135, 63, 74, 2, 0.81608
386, 2, wb, attraction, a-b-db, 9, 3, 4, 16, 120, 195, 114, 186, 195, 120, 1, 2.429
386, 2, wb, attraction, a-b-db, 9, 3, 4, 16, 120, 195, 114, 186, 195, 120, 2, 0.49018
386, 2, wb, filler, NA, 999, 999, 4, 17, 134, 102, 60, 69, 193, 125, 2, 0.875962
386, 2, wb, filler, NA, 999, 999, 4, 17, 134, 102, 60, 69, 193, 125, 3, 0.671656
386, 2, wb, attraction, a-b-da, 14, 3, 4, 18, 120, 195, 195, 120, 181, 111, 1, 1.13887
386, 2, wb, attraction, a-b-da, 14, 3, 4, 18, 120, 195, 195, 120, 181, 111, 2, 0.483702
386, 2, wb, attraction, a-b-da, 2, 2, 4, 19, 163, 89, 90, 165, 165, 90, 1, 1.37419
386, 2, wb, attraction, a-b-da, 2, 2, 4, 19, 163, 89, 90, 165, 165, 90, 2, 0.509688
386, 2, wb, attraction, a-b-da, 2, 3, 4, 20, 195, 120, 193, 119, 120, 195, 1, 0.750993
386, 2, wb, attraction, a-b-da, 2, 3, 4, 20, 195, 120, 193, 119, 120, 195, 2, 0.40781
386, 2, wb, catch, NA, 999, 999, 4, 21, 75, 120, 152, 103, 189, 126, 1, 0.772921
386, 2, wb, catch, NA, 999, 999, 4, 21, 75, 120, 152, 103, 189, 126, 3, 0.532778
386, 2, wb, attraction, a-b-db, 14, 1, 4, 22, 135, 60, 56, 125, 60, 135, 2, 0.709125
386, 2, wb, attraction, a-b-db, 14, 1, 4, 22, 135, 60, 56, 125, 60, 135, 1, 0.887614
386, 2, wb, catch, NA, 999, 999, 4, 23, 125, 130, 84, 111, 174, 141, 2, 0.577904
386, 2, wb, catch, NA, 999, 999, 4, 23, 125, 130, 84, 111, 174, 141, 3, 0.62568
386, 2, wb, attraction, a-b-db, 9, 2, 4, 24, 165, 90, 86, 157, 90, 165, 2, 0.846168
386, 2, wb, attraction, a-b-db, 9, 2, 4, 24, 165, 90, 86, 157, 90, 165, 1, 0.451144
386, 2, wb, filler, NA, 999, 999, 4, 25, 79, 177, 158, 98, 190, 144, 2, 0.750923
386, 2, wb, filler, NA, 999, 999, 4, 25, 79, 177, 158, 98, 190, 144, 3, 1.07208
386, 2, wb, catch, NA, 999, 999, 4, 26, 160, 155, 154, 101, 129, 66, 3, 1.14703
386, 2, wb, catch, NA, 999, 999, 4, 26, 160, 155, 154, 101, 129, 66, 1, 0.363967
386, 2, wb, attraction, a-b-db, 9, 1, 4, 27, 135, 60, 57, 129, 60, 135, 2, 0.595114
386, 2, wb, attraction, a-b-db, 9, 1, 4, 27, 135, 60, 57, 129, 60, 135, 1, 0.402283
386, 2, wb, filler, NA, 999, 999, 4, 28, 117, 75, 125, 142, 60, 157, 1, 1.24812
386, 2, wb, filler, NA, 999, 999, 4, 28, 117, 75, 125, 142, 60, 157, 2, 0.317032
386, 2, wb, filler, NA, 999, 999, 4, 29, 185, 123, 89, 75, 140, 160, 2, 0.702154
386, 2, wb, filler, NA, 999, 999, 4, 29, 185, 123, 89, 75, 140, 160, 1, 3.68918
386, 2, wb, attraction, a-b-db, 14, 2, 4, 30, 83, 153, 165, 90, 90, 165, 1, 4.95464
386, 2, wb, attraction, a-b-db, 14, 2, 4, 30, 83, 153, 165, 90, 90, 165, 2, 0.34643
386, 2, wb, attraction, a-b-da, 9, 2, 4, 31, 157, 86, 90, 165, 165, 90, 2, 1.08226
386, 2, wb, attraction, a-b-da, 9, 2, 4, 31, 157, 86, 90, 165, 165, 90, 1, 0.437947
386, 2, wb, attraction, a-b-db, 2, 2, 4, 32, 165, 90, 90, 165, 89, 163, 2, 0.498362
386, 2, wb, attraction, a-b-db, 2, 2, 4, 32, 165, 90, 90, 165, 89, 163, 1, 0.557627
386, 2, wb, attraction, a-b-da, 5, 3, 4, 33, 195, 120, 120, 195, 190, 117, 2, 1.07667
386, 2, wb, attraction, a-b-da, 5, 3, 4, 33, 195, 120, 120, 195, 190, 117, 1, 0.336226
386, 2, wb, attraction, a-b-da, 14, 2, 4, 34, 165, 90, 90, 165, 153, 83, 2, 0.656682
386, 2, wb, attraction, a-b-da, 14, 2, 4, 34, 165, 90, 90, 165, 153, 83, 1, 1.21321
386, 2, wb, filler, NA, 999, 999, 4, 35, 63, 93, 162, 124, 142, 66, 1, 0.786089
386, 2, wb, filler, NA, 999, 999, 4, 35, 63, 93, 162, 124, 142, 66, 2, 0.46583
386, 2, wb, filler, NA, 999, 999, 4, 36, 185, 182, 65, 60, 186, 125, 2, 0.964947
386, 2, wb, filler, NA, 999, 999, 4, 36, 185, 182, 65, 60, 186, 125, 1, 0.477351
386, 2, wb, attraction, a-b-db, 5, 2, 4, 37, 90, 165, 88, 161, 165, 90, 1, 0.967807
386, 2, wb, attraction, a-b-db, 5, 2, 4, 37, 90, 165, 88, 161, 165, 90, 2, 0.824125
386, 2, wb, attraction, a-b-da, 2, 2, 5, 1, 165, 90, 163, 89, 90, 165, 3, 4.03511
386, 2, wb, attraction, a-b-da, 2, 2, 5, 1, 165, 90, 163, 89, 90, 165, 2, 0.479821
386, 2, wb, attraction, a-b-db, 9, 2, 5, 2, 90, 165, 86, 157, 165, 90, 2, 1.50618
386, 2, wb, attraction, a-b-db, 9, 2, 5, 2, 90, 165, 86, 157, 165, 90, 3, 1.23641
386, 2, wb, attraction, a-b-db, 14, 2, 5, 3, 165, 90, 83, 153, 90, 165, 2, 0.992708
386, 2, wb, attraction, a-b-db, 14, 2, 5, 3, 165, 90, 83, 153, 90, 165, 1, 0.335611
386, 2, wb, filler, NA, 999, 999, 5, 4, 89, 183, 173, 172, 183, 112, 1, 0.904249
386, 2, wb, filler, NA, 999, 999, 5, 4, 89, 183, 173, 172, 183, 112, 2, 0.386546
386, 2, wb, attraction, a-b-db, 5, 3, 5, 5, 195, 120, 117, 190, 120, 195, 2, 0.745019
386, 2, wb, attraction, a-b-db, 5, 3, 5, 5, 195, 120, 117, 190, 120, 195, 1, 0.522029
386, 2, wb, catch, NA, 999, 999, 5, 6, 173, 142, 77, 118, 102, 153, 2, 0.811142
386, 2, wb, catch, NA, 999, 999, 5, 6, 173, 142, 77, 118, 102, 153, 1, 0.449612
386, 2, wb, filler, NA, 999, 999, 5, 7, 168, 79, 194, 73, 99, 82, 3, 0.79742
386, 2, wb, filler, NA, 999, 999, 5, 7, 168, 79, 194, 73, 99, 82, 2, 0.492502
386, 2, wb, filler, NA, 999, 999, 5, 8, 154, 98, 153, 193, 80, 139, 3, 0.838207
386, 2, wb, filler, NA, 999, 999, 5, 8, 154, 98, 153, 193, 80, 139, 2, 0.379347
386, 2, wb, attraction, a-b-da, 5, 3, 5, 9, 195, 120, 190, 117, 120, 195, 1, 2.87368
386, 2, wb, attraction, a-b-da, 5, 3, 5, 9, 195, 120, 190, 117, 120, 195, 3, 0.620805
386, 2, wb, filler, NA, 999, 999, 5, 10, 104, 92, 82, 147, 142, 143, 1, 0.681856
386, 2, wb, filler, NA, 999, 999, 5, 10, 104, 92, 82, 147, 142, 143, 3, 0.437707
386, 2, wb, attraction, a-b-da, 9, 1, 5, 11, 60, 135, 135, 60, 129, 57, 3, 1.25027
386, 2, wb, attraction, a-b-da, 9, 1, 5, 11, 60, 135, 135, 60, 129, 57, 2, 0.327115
386, 2, wb, attraction, a-b-db, 14, 1, 5, 12, 135, 60, 56, 125, 60, 135, 1, 1.63159
386, 2, wb, attraction, a-b-db, 14, 1, 5, 12, 135, 60, 56, 125, 60, 135, 3, 1.14911
386, 2, wb, attraction, a-b-db, 2, 3, 5, 13, 119, 193, 195, 120, 120, 195, 3, 3.29278
386, 2, wb, attraction, a-b-db, 2, 3, 5, 13, 119, 193, 195, 120, 120, 195, 1, 0.838881
386, 2, wb, attraction, a-b-db, 14, 3, 5, 14, 195, 120, 120, 195, 111, 181, 2, 1.92323
386, 2, wb, attraction, a-b-db, 14, 3, 5, 14, 195, 120, 120, 195, 111, 181, 1, 0.452571
386, 2, wb, attraction, a-b-da, 2, 3, 5, 15, 120, 195, 195, 120, 193, 119, 2, 1.24043
386, 2, wb, attraction, a-b-da, 2, 3, 5, 15, 120, 195, 195, 120, 193, 119, 1, 0.677269
386, 2, wb, filler, NA, 999, 999, 5, 16, 84, 172, 143, 63, 87, 178, 2, 0.919657
386, 2, wb, filler, NA, 999, 999, 5, 16, 84, 172, 143, 63, 87, 178, 1, 0.506156
386, 2, wb, attraction, a-b-db, 2, 1, 5, 17, 135, 60, 60, 135, 59, 134, 1, 1.0752
386, 2, wb, attraction, a-b-db, 2, 1, 5, 17, 135, 60, 60, 135, 59, 134, 2, 0.398817
386, 2, wb, filler, NA, 999, 999, 5, 18, 69, 194, 111, 66, 110, 124, 2, 0.812626
386, 2, wb, filler, NA, 999, 999, 5, 18, 69, 194, 111, 66, 110, 124, 1, 0.739178
386, 2, wb, catch, NA, 999, 999, 5, 19, 174, 141, 110, 145, 89, 106, 3, 0.739457
386, 2, wb, catch, NA, 999, 999, 5, 19, 174, 141, 110, 145, 89, 106, 1, 0.380506
386, 2, wb, filler, NA, 999, 999, 5, 20, 169, 84, 139, 176, 150, 150, 1, 2.29095
386, 2, wb, filler, NA, 999, 999, 5, 20, 169, 84, 139, 176, 150, 150, 2, 0.389529
386, 2, wb, attraction, a-b-da, 14, 1, 5, 21, 135, 60, 60, 135, 125, 56, 1, 0.955284
386, 2, wb, attraction, a-b-da, 14, 1, 5, 21, 135, 60, 60, 135, 125, 56, 2, 1.0037
386, 2, wb, attraction, a-b-da, 2, 1, 5, 22, 135, 60, 60, 135, 134, 59, 2, 1.19334
386, 2, wb, attraction, a-b-da, 2, 1, 5, 22, 135, 60, 60, 135, 134, 59, 1, 1.2803
386, 2, wb, attraction, a-b-da, 5, 2, 5, 23, 90, 165, 165, 90, 161, 88, 1, 1.46648
386, 2, wb, attraction, a-b-da, 5, 2, 5, 23, 90, 165, 165, 90, 161, 88, 2, 0.350666
386, 2, wb, filler, NA, 999, 999, 5, 24, 122, 187, 99, 106, 74, 122, 3, 2.75843
386, 2, wb, filler, NA, 999, 999, 5, 24, 122, 187, 99, 106, 74, 122, 1, 0.350202
386, 2, wb, attraction, a-b-db, 2, 2, 5, 25, 89, 163, 165, 90, 90, 165, 1, 2.42209
386, 2, wb, attraction, a-b-db, 2, 2, 5, 25, 89, 163, 165, 90, 90, 165, 2, 0.795265
386, 2, wb, attraction, a-b-db, 5, 1, 5, 26, 58, 132, 135, 60, 60, 135, 1, 0.993153
386, 2, wb, attraction, a-b-db, 5, 1, 5, 26, 58, 132, 135, 60, 60, 135, 2, 0.384027
386, 2, wb, catch, NA, 999, 999, 5, 27, 182, 133, 95, 100, 130, 125, 2, 0.950553
386, 2, wb, catch, NA, 999, 999, 5, 27, 182, 133, 95, 100, 130, 125, 1, 0.431427
386, 2, wb, filler, NA, 999, 999, 5, 28, 149, 63, 163, 126, 145, 126, 1, 1.09194
386, 2, wb, filler, NA, 999, 999, 5, 28, 149, 63, 163, 126, 145, 126, 2, 0.406966
386, 2, wb, attraction, a-b-db, 9, 3, 5, 29, 114, 186, 120, 195, 195, 120, 1, 1.67607
386, 2, wb, attraction, a-b-db, 9, 3, 5, 29, 114, 186, 120, 195, 195, 120, 2, 0.831538
386, 2, wb, attraction, a-b-da, 14, 2, 5, 30, 165, 90, 90, 165, 153, 83, 2, 0.739852
386, 2, wb, attraction, a-b-da, 14, 2, 5, 30, 165, 90, 90, 165, 153, 83, 1, 0.332996
386, 2, wb, attraction, a-b-db, 5, 2, 5, 31, 165, 90, 90, 165, 88, 161, 2, 0.797481
386, 2, wb, attraction, a-b-db, 5, 2, 5, 31, 165, 90, 90, 165, 88, 161, 1, 0.428565
386, 2, wb, attraction, a-b-db, 9, 1, 5, 32, 60, 135, 135, 60, 57, 129, 1, 0.984908
386, 2, wb, attraction, a-b-db, 9, 1, 5, 32, 60, 135, 135, 60, 57, 129, 2, 0.336665
386, 2, wb, attraction, a-b-da, 9, 3, 5, 33, 186, 114, 120, 195, 195, 120, 1, 1.5212
386, 2, wb, attraction, a-b-da, 9, 3, 5, 33, 186, 114, 120, 195, 195, 120, 2, 0.330792
386, 2, wb, attraction, a-b-da, 5, 1, 5, 34, 135, 60, 132, 58, 60, 135, 2, 0.827205
386, 2, wb, attraction, a-b-da, 5, 1, 5, 34, 135, 60, 132, 58, 60, 135, 1, 0.680845
386, 2, wb, attraction, a-b-da, 14, 3, 5, 35, 181, 111, 120, 195, 195, 120, 1, 1.19526
386, 2, wb, attraction, a-b-da, 14, 3, 5, 35, 181, 111, 120, 195, 195, 120, 2, 0.394169
386, 2, wb, filler, NA, 999, 999, 5, 36, 115, 152, 131, 69, 142, 121, 2, 1.11998
386, 2, wb, filler, NA, 999, 999, 5, 36, 115, 152, 131, 69, 142, 121, 3, 0.626421
386, 2, wb, attraction, a-b-da, 9, 2, 5, 37, 157, 86, 165, 90, 90, 165, 2, 0.646655
386, 2, wb, attraction, a-b-da, 9, 2, 5, 37, 157, 86, 165, 90, 90, 165, 1, 0.4038
386, 2, wb, attraction, a-b-db, 9, 2, 6, 1, 90, 165, 165, 90, 86, 157, 2, 0.817621
386, 2, wb, attraction, a-b-db, 9, 2, 6, 1, 90, 165, 165, 90, 86, 157, 1, 0.360043
386, 2, wb, attraction, a-b-db, 9, 3, 6, 2, 195, 120, 120, 195, 114, 186, 2, 0.855158
386, 2, wb, attraction, a-b-db, 9, 3, 6, 2, 195, 120, 120, 195, 114, 186, 1, 0.515557
386, 2, wb, attraction, a-b-da, 2, 1, 6, 3, 60, 135, 135, 60, 134, 59, 2, 0.868617
386, 2, wb, attraction, a-b-da, 2, 1, 6, 3, 60, 135, 135, 60, 134, 59, 1, 0.465088
386, 2, wb, attraction, a-b-da, 5, 1, 6, 4, 135, 60, 132, 58, 60, 135, 1, 0.764252
386, 2, wb, attraction, a-b-da, 5, 1, 6, 4, 135, 60, 132, 58, 60, 135, 2, 0.804693
386, 2, wb, attraction, a-b-da, 14, 1, 6, 5, 125, 56, 135, 60, 60, 135, 1, 0.546272
386, 2, wb, attraction, a-b-da, 14, 1, 6, 5, 125, 56, 135, 60, 60, 135, 2, 0.531425
386, 2, wb, attraction, a-b-db, 5, 3, 6, 6, 195, 120, 117, 190, 120, 195, 1, 0.651865
386, 2, wb, attraction, a-b-db, 5, 3, 6, 6, 195, 120, 117, 190, 120, 195, 2, 0.608903
386, 2, wb, attraction, a-b-da, 5, 2, 6, 7, 161, 88, 165, 90, 90, 165, 1, 0.57399
386, 2, wb, attraction, a-b-da, 5, 2, 6, 7, 161, 88, 165, 90, 90, 165, 2, 0.573942
386, 2, wb, attraction, a-b-db, 2, 3, 6, 8, 195, 120, 120, 195, 119, 193, 2, 1.22829
386, 2, wb, attraction, a-b-db, 2, 3, 6, 8, 195, 120, 120, 195, 119, 193, 1, 0.489792
386, 2, wb, attraction, a-b-da, 9, 2, 6, 9, 90, 165, 157, 86, 165, 90, 2, 1.27562
386, 2, wb, attraction, a-b-da, 9, 2, 6, 9, 90, 165, 157, 86, 165, 90, 1, 0.567121
386, 2, wb, filler, NA, 999, 999, 6, 10, 195, 106, 148, 125, 161, 61, 3, 1.13446
386, 2, wb, filler, NA, 999, 999, 6, 10, 195, 106, 148, 125, 161, 61, 1, 0.431964
386, 2, wb, filler, NA, 999, 999, 6, 11, 57, 194, 154, 88, 88, 137, 1, 2.64449
386, 2, wb, filler, NA, 999, 999, 6, 11, 57, 194, 154, 88, 88, 137, 2, 1.26488
386, 2, wb, attraction, a-b-da, 2, 2, 6, 12, 90, 165, 163, 89, 165, 90, 1, 1.80369
386, 2, wb, attraction, a-b-da, 2, 2, 6, 12, 90, 165, 163, 89, 165, 90, 2, 0.410468
386, 2, wb, attraction, a-b-db, 14, 2, 6, 13, 90, 165, 165, 90, 83, 153, 3, 0.919721
386, 2, wb, attraction, a-b-db, 14, 2, 6, 13, 90, 165, 165, 90, 83, 153, 2, 0.529346
386, 2, wb, attraction, a-b-da, 5, 3, 6, 14, 120, 195, 195, 120, 190, 117, 3, 1.41774
386, 2, wb, attraction, a-b-da, 5, 3, 6, 14, 120, 195, 195, 120, 190, 117, 1, 1.24794
386, 2, wb, filler, NA, 999, 999, 6, 15, 126, 129, 113, 66, 92, 124, 2, 1.37953
386, 2, wb, filler, NA, 999, 999, 6, 15, 126, 129, 113, 66, 92, 124, 1, 0.563081
386, 2, wb, catch, NA, 999, 999, 6, 16, 116, 79, 129, 126, 147, 168, 1, 0.858084
386, 2, wb, catch, NA, 999, 999, 6, 16, 116, 79, 129, 126, 147, 168, 3, 0.422626
386, 2, wb, filler, NA, 999, 999, 6, 17, 56, 150, 88, 82, 123, 140, 1, 1.01097
386, 2, wb, filler, NA, 999, 999, 6, 17, 56, 150, 88, 82, 123, 140, 3, 0.457466
386, 2, wb, attraction, a-b-db, 14, 1, 6, 18, 135, 60, 56, 125, 60, 135, 2, 0.948386
386, 2, wb, attraction, a-b-db, 14, 1, 6, 18, 135, 60, 56, 125, 60, 135, 1, 0.453539
386, 2, wb, attraction, a-b-da, 9, 1, 6, 19, 60, 135, 135, 60, 129, 57, 2, 0.889261
386, 2, wb, attraction, a-b-da, 9, 1, 6, 19, 60, 135, 135, 60, 129, 57, 1, 0.348292
386, 2, wb, filler, NA, 999, 999, 6, 20, 114, 178, 129, 96, 62, 148, 3, 0.844118
386, 2, wb, filler, NA, 999, 999, 6, 20, 114, 178, 129, 96, 62, 148, 1, 0.489175
386, 2, wb, attraction, a-b-db, 5, 1, 6, 21, 135, 60, 60, 135, 58, 132, 3, 1.30765
386, 2, wb, attraction, a-b-db, 5, 1, 6, 21, 135, 60, 60, 135, 58, 132, 2, 0.517792
386, 2, wb, filler, NA, 999, 999, 6, 22, 138, 193, 166, 116, 59, 108, 3, 0.599023
386, 2, wb, filler, NA, 999, 999, 6, 22, 138, 193, 166, 116, 59, 108, 1, 0.51002
386, 2, wb, attraction, a-b-da, 2, 3, 6, 23, 195, 120, 120, 195, 193, 119, 3, 1.01513
386, 2, wb, attraction, a-b-da, 2, 3, 6, 23, 195, 120, 120, 195, 193, 119, 2, 0.365488
386, 2, wb, attraction, a-b-da, 14, 2, 6, 24, 153, 83, 90, 165, 165, 90, 1, 1.35668
386, 2, wb, attraction, a-b-da, 14, 2, 6, 24, 153, 83, 90, 165, 165, 90, 2, 0.324896
386, 2, wb, filler, NA, 999, 999, 6, 25, 171, 192, 191, 96, 87, 138, 3, 0.613363
386, 2, wb, filler, NA, 999, 999, 6, 25, 171, 192, 191, 96, 87, 138, 1, 0.355873
386, 2, wb, attraction, a-b-db, 9, 1, 6, 26, 57, 129, 135, 60, 60, 135, 3, 0.867658
386, 2, wb, attraction, a-b-db, 9, 1, 6, 26, 57, 129, 135, 60, 60, 135, 2, 0.360105
386, 2, wb, filler, NA, 999, 999, 6, 27, 109, 91, 78, 109, 135, 100, 2, 0.703277
386, 2, wb, filler, NA, 999, 999, 6, 27, 109, 91, 78, 109, 135, 100, 3, 0.322315
386, 2, wb, attraction, a-b-db, 2, 2, 6, 28, 165, 90, 89, 163, 90, 165, 2, 1.43546
386, 2, wb, attraction, a-b-db, 2, 2, 6, 28, 165, 90, 89, 163, 90, 165, 3, 1.129
386, 2, wb, attraction, a-b-db, 2, 1, 6, 29, 135, 60, 60, 135, 59, 134, 2, 1.30532
386, 2, wb, attraction, a-b-db, 2, 1, 6, 29, 135, 60, 60, 135, 59, 134, 1, 0.595603
386, 2, wb, attraction, a-b-db, 14, 3, 6, 30, 195, 120, 120, 195, 111, 181, 3, 2.36923
386, 2, wb, attraction, a-b-db, 14, 3, 6, 30, 195, 120, 120, 195, 111, 181, 1, 0.777124
386, 2, wb, attraction, a-b-da, 9, 3, 6, 31, 186, 114, 120, 195, 195, 120, 1, 1.40755
386, 2, wb, attraction, a-b-da, 9, 3, 6, 31, 186, 114, 120, 195, 195, 120, 2, 0.413727
386, 2, wb, catch, NA, 999, 999, 6, 32, 112, 83, 149, 106, 177, 138, 1, 0.994863
386, 2, wb, catch, NA, 999, 999, 6, 32, 112, 83, 149, 106, 177, 138, 3, 0.393932
386, 2, wb, attraction, a-b-db, 5, 2, 6, 33, 165, 90, 88, 161, 90, 165, 2, 0.599644
386, 2, wb, attraction, a-b-db, 5, 2, 6, 33, 165, 90, 88, 161, 90, 165, 1, 0.398735
386, 2, wb, filler, NA, 999, 999, 6, 34, 56, 157, 106, 105, 182, 69, 1, 0.828557
386, 2, wb, filler, NA, 999, 999, 6, 34, 56, 157, 106, 105, 182, 69, 3, 0.730401
386, 2, wb, filler, NA, 999, 999, 6, 35, 164, 69, 118, 65, 72, 66, 3, 0.674744
386, 2, wb, filler, NA, 999, 999, 6, 35, 164, 69, 118, 65, 72, 66, 1, 0.502398
386, 2, wb, attraction, a-b-da, 14, 3, 6, 36, 120, 195, 181, 111, 195, 120, 2, 0.904307
386, 2, wb, attraction, a-b-da, 14, 3, 6, 36, 120, 195, 181, 111, 195, 120, 3, 0.426604
386, 2, wb, catch, NA, 999, 999, 6, 37, 163, 152, 67, 128, 136, 119, 2, 0.679291
386, 2, wb, catch, NA, 999, 999, 6, 37, 163, 152, 67, 128, 136, 119, 1, 0.538794
386, 2, wb, attraction, a-b-da, 14, 2, 7, 1, 90, 165, 153, 83, 165, 90, 1, 0.827343
386, 2, wb, attraction, a-b-da, 14, 2, 7, 1, 90, 165, 153, 83, 165, 90, 3, 0.849061
386, 2, wb, attraction, a-b-da, 9, 2, 7, 2, 165, 90, 157, 86, 90, 165, 2, 1.48471
386, 2, wb, attraction, a-b-da, 9, 2, 7, 2, 165, 90, 157, 86, 90, 165, 3, 0.344267
386, 2, wb, attraction, a-b-da, 5, 1, 7, 3, 60, 135, 135, 60, 132, 58, 1, 0.592016
386, 2, wb, attraction, a-b-da, 5, 1, 7, 3, 60, 135, 135, 60, 132, 58, 2, 0.551156
386, 2, wb, attraction, a-b-da, 9, 1, 7, 4, 60, 135, 135, 60, 129, 57, 1, 0.863051
386, 2, wb, attraction, a-b-da, 9, 1, 7, 4, 60, 135, 135, 60, 129, 57, 2, 0.427266
386, 2, wb, filler, NA, 999, 999, 7, 5, 102, 175, 189, 126, 59, 140, 3, 0.871744
386, 2, wb, filler, NA, 999, 999, 7, 5, 102, 175, 189, 126, 59, 140, 2, 0.403561
386, 2, wb, attraction, a-b-db, 9, 3, 7, 6, 195, 120, 120, 195, 114, 186, 2, 1.18538
386, 2, wb, attraction, a-b-db, 9, 3, 7, 6, 195, 120, 120, 195, 114, 186, 1, 0.984807
386, 2, wb, attraction, a-b-da, 5, 2, 7, 7, 161, 88, 165, 90, 90, 165, 1, 0.703172
386, 2, wb, attraction, a-b-da, 5, 2, 7, 7, 161, 88, 165, 90, 90, 165, 2, 0.370248
386, 2, wb, attraction, a-b-da, 9, 3, 7, 8, 195, 120, 120, 195, 186, 114, 2, 1.23354
386, 2, wb, attraction, a-b-da, 9, 3, 7, 8, 195, 120, 120, 195, 186, 114, 1, 0.414963
386, 2, wb, attraction, a-b-db, 2, 2, 7, 9, 165, 90, 90, 165, 89, 163, 2, 0.636124
386, 2, wb, attraction, a-b-db, 2, 2, 7, 9, 165, 90, 90, 165, 89, 163, 1, 0.465892
386, 2, wb, attraction, a-b-db, 9, 2, 7, 10, 165, 90, 90, 165, 86, 157, 2, 0.58107
386, 2, wb, attraction, a-b-db, 9, 2, 7, 10, 165, 90, 90, 165, 86, 157, 1, 0.388824
386, 2, wb, attraction, a-b-da, 14, 1, 7, 11, 125, 56, 60, 135, 135, 60, 1, 0.675302
386, 2, wb, attraction, a-b-da, 14, 1, 7, 11, 125, 56, 60, 135, 135, 60, 2, 0.871095
386, 2, wb, attraction, a-b-da, 2, 1, 7, 12, 135, 60, 60, 135, 134, 59, 1, 1.58613
386, 2, wb, attraction, a-b-da, 2, 1, 7, 12, 135, 60, 60, 135, 134, 59, 2, 0.393566
386, 2, wb, attraction, a-b-da, 14, 3, 7, 13, 195, 120, 120, 195, 181, 111, 1, 2.19951
386, 2, wb, attraction, a-b-da, 14, 3, 7, 13, 195, 120, 120, 195, 181, 111, 2, 0.446032
386, 2, wb, attraction, a-b-db, 5, 2, 7, 14, 165, 90, 88, 161, 90, 165, 2, 3.12993
386, 2, wb, attraction, a-b-db, 5, 2, 7, 14, 165, 90, 88, 161, 90, 165, 1, 0.434898
386, 2, wb, attraction, a-b-db, 14, 2, 7, 15, 90, 165, 83, 153, 165, 90, 2, 0.7593
386, 2, wb, attraction, a-b-db, 14, 2, 7, 15, 90, 165, 83, 153, 165, 90, 3, 0.999875
386, 2, wb, attraction, a-b-db, 14, 1, 7, 16, 56, 125, 135, 60, 60, 135, 1, 0.765298
386, 2, wb, attraction, a-b-db, 14, 1, 7, 16, 56, 125, 135, 60, 60, 135, 2, 0.533821
386, 2, wb, filler, NA, 999, 999, 7, 17, 98, 134, 167, 89, 66, 158, 3, 1.99022
386, 2, wb, filler, NA, 999, 999, 7, 17, 98, 134, 167, 89, 66, 158, 2, 0.508847
386, 2, wb, attraction, a-b-db, 9, 1, 7, 18, 60, 135, 135, 60, 57, 129, 3, 1.80609
386, 2, wb, attraction, a-b-db, 9, 1, 7, 18, 60, 135, 135, 60, 57, 129, 2, 0.324031
386, 2, wb, attraction, a-b-db, 2, 1, 7, 19, 135, 60, 60, 135, 59, 134, 1, 1.28459
386, 2, wb, attraction, a-b-db, 2, 1, 7, 19, 135, 60, 60, 135, 59, 134, 2, 0.464154
386, 2, wb, filler, NA, 999, 999, 7, 20, 181, 84, 156, 87, 114, 68, 3, 0.859271
386, 2, wb, filler, NA, 999, 999, 7, 20, 181, 84, 156, 87, 114, 68, 2, 0.455655
386, 2, wb, attraction, a-b-da, 2, 2, 7, 21, 163, 89, 165, 90, 90, 165, 1, 0.931514
386, 2, wb, attraction, a-b-da, 2, 2, 7, 21, 163, 89, 165, 90, 90, 165, 2, 0.373146
386, 2, wb, filler, NA, 999, 999, 7, 22, 96, 113, 74, 85, 97, 183, 2, 0.987678
386, 2, wb, filler, NA, 999, 999, 7, 22, 96, 113, 74, 85, 97, 183, 3, 0.386635
386, 2, wb, filler, NA, 999, 999, 7, 23, 147, 192, 109, 114, 171, 183, 2, 0.753121
386, 2, wb, filler, NA, 999, 999, 7, 23, 147, 192, 109, 114, 171, 183, 3, 0.994245
386, 2, wb, catch, NA, 999, 999, 7, 24, 125, 190, 145, 110, 110, 85, 3, 1.0399
386, 2, wb, catch, NA, 999, 999, 7, 24, 125, 190, 145, 110, 110, 85, 1, 0.612811
386, 2, wb, attraction, a-b-da, 5, 3, 7, 25, 120, 195, 190, 117, 195, 120, 2, 1.72989
386, 2, wb, attraction, a-b-da, 5, 3, 7, 25, 120, 195, 190, 117, 195, 120, 3, 0.523316
386, 2, wb, attraction, a-b-da, 2, 3, 7, 26, 120, 195, 195, 120, 193, 119, 3, 1.05171
386, 2, wb, attraction, a-b-da, 2, 3, 7, 26, 120, 195, 195, 120, 193, 119, 2, 0.512841
386, 2, wb, attraction, a-b-db, 5, 3, 7, 27, 117, 190, 120, 195, 195, 120, 2, 0.865819
386, 2, wb, attraction, a-b-db, 5, 3, 7, 27, 117, 190, 120, 195, 195, 120, 3, 0.446289
386, 2, wb, catch, NA, 999, 999, 7, 28, 158, 157, 107, 148, 100, 95, 3, 0.778112
386, 2, wb, catch, NA, 999, 999, 7, 28, 158, 157, 107, 148, 100, 95, 1, 0.545715
386, 2, wb, attraction, a-b-db, 2, 3, 7, 29, 195, 120, 119, 193, 120, 195, 2, 0.969508
386, 2, wb, attraction, a-b-db, 2, 3, 7, 29, 195, 120, 119, 193, 120, 195, 1, 0.665896
386, 2, wb, filler, NA, 999, 999, 7, 30, 114, 141, 110, 136, 160, 90, 2, 0.892883
386, 2, wb, filler, NA, 999, 999, 7, 30, 114, 141, 110, 136, 160, 90, 3, 0.504046
386, 2, wb, filler, NA, 999, 999, 7, 31, 162, 184, 139, 185, 116, 131, 3, 1.11376
386, 2, wb, filler, NA, 999, 999, 7, 31, 162, 184, 139, 185, 116, 131, 1, 0.739987
386, 2, wb, filler, NA, 999, 999, 7, 32, 191, 140, 56, 94, 124, 83, 2, 0.6117
386, 2, wb, filler, NA, 999, 999, 7, 32, 191, 140, 56, 94, 124, 83, 1, 0.562158
386, 2, wb, attraction, a-b-db, 5, 1, 7, 33, 58, 132, 60, 135, 135, 60, 1, 0.769184
386, 2, wb, attraction, a-b-db, 5, 1, 7, 33, 58, 132, 60, 135, 135, 60, 2, 0.96161
386, 2, wb, attraction, a-b-db, 14, 3, 7, 34, 120, 195, 111, 181, 195, 120, 2, 1.45664
386, 2, wb, attraction, a-b-db, 14, 3, 7, 34, 120, 195, 111, 181, 195, 120, 3, 1.98094
386, 2, wb, filler, NA, 999, 999, 7, 35, 99, 123, 185, 158, 92, 166, 1, 0.594774
386, 2, wb, filler, NA, 999, 999, 7, 35, 99, 123, 185, 158, 92, 166, 2, 0.313907
386, 2, wb, catch, NA, 999, 999, 7, 36, 121, 134, 105, 90, 188, 127, 2, 0.739075
386, 2, wb, catch, NA, 999, 999, 7, 36, 121, 134, 105, 90, 188, 127, 3, 0.428171
386, 2, wb, filler, NA, 999, 999, 7, 37, 129, 117, 81, 131, 131, 144, 2, 0.648761
386, 2, wb, filler, NA, 999, 999, 7, 37, 129, 117, 81, 131, 131, 144, 3, 0.485875
386, 2, wb, attraction, a-b-da, 9, 3, 8, 1, 120, 195, 186, 114, 195, 120, 2, 1.16035
386, 2, wb, attraction, a-b-da, 9, 3, 8, 1, 120, 195, 186, 114, 195, 120, 3, 0.472426
386, 2, wb, attraction, a-b-da, 5, 1, 8, 2, 135, 60, 60, 135, 132, 58, 1, 1.23559
386, 2, wb, attraction, a-b-da, 5, 1, 8, 2, 135, 60, 60, 135, 132, 58, 2, 0.425257
386, 2, wb, filler, NA, 999, 999, 8, 3, 190, 116, 78, 159, 184, 97, 2, 1.42169
386, 2, wb, filler, NA, 999, 999, 8, 3, 190, 116, 78, 159, 184, 97, 1, 0.499156
386, 2, wb, attraction, a-b-da, 9, 2, 8, 4, 165, 90, 90, 165, 157, 86, 2, 1.99711
386, 2, wb, attraction, a-b-da, 9, 2, 8, 4, 165, 90, 90, 165, 157, 86, 1, 0.355752
386, 2, wb, attraction, a-b-db, 2, 1, 8, 5, 59, 134, 135, 60, 60, 135, 1, 1.44342
386, 2, wb, attraction, a-b-db, 2, 1, 8, 5, 59, 134, 135, 60, 60, 135, 2, 0.392429
386, 2, wb, filler, NA, 999, 999, 8, 6, 144, 109, 99, 128, 94, 115, 3, 1.3582
386, 2, wb, filler, NA, 999, 999, 8, 6, 144, 109, 99, 128, 94, 115, 1, 0.51837
386, 2, wb, attraction, a-b-da, 5, 3, 8, 7, 195, 120, 120, 195, 190, 117, 1, 3.8475
386, 2, wb, attraction, a-b-da, 5, 3, 8, 7, 195, 120, 120, 195, 190, 117, 2, 0.291531
386, 2, wb, attraction, a-b-db, 2, 3, 8, 8, 120, 195, 119, 193, 195, 120, 2, 1.50149
386, 2, wb, attraction, a-b-db, 2, 3, 8, 8, 120, 195, 119, 193, 195, 120, 1, 0.400257
386, 2, wb, catch, NA, 999, 999, 8, 9, 126, 129, 144, 171, 115, 80, 3, 1.15023
386, 2, wb, catch, NA, 999, 999, 8, 9, 126, 129, 144, 171, 115, 80, 2, 0.471114
386, 2, wb, attraction, a-b-da, 2, 3, 8, 10, 193, 119, 120, 195, 195, 120, 1, 1.3943
386, 2, wb, attraction, a-b-da, 2, 3, 8, 10, 193, 119, 120, 195, 195, 120, 2, 1.08118
386, 2, wb, catch, NA, 999, 999, 8, 11, 122, 133, 125, 190, 99, 96, 3, 0.643265
386, 2, wb, catch, NA, 999, 999, 8, 11, 122, 133, 125, 190, 99, 96, 2, 0.528559
386, 2, wb, attraction, a-b-db, 14, 3, 8, 12, 111, 181, 195, 120, 120, 195, 1, 2.46481
386, 2, wb, attraction, a-b-db, 14, 3, 8, 12, 111, 181, 195, 120, 120, 195, 2, 0.724728
386, 2, wb, attraction, a-b-da, 9, 1, 8, 13, 60, 135, 129, 57, 135, 60, 1, 0.701138
386, 2, wb, attraction, a-b-da, 9, 1, 8, 13, 60, 135, 129, 57, 135, 60, 2, 0.392212
386, 2, wb, attraction, a-b-db, 9, 1, 8, 14, 60, 135, 135, 60, 57, 129, 1, 1.89404
386, 2, wb, attraction, a-b-db, 9, 1, 8, 14, 60, 135, 135, 60, 57, 129, 2, 0.816739
386, 2, wb, attraction, a-b-da, 14, 3, 8, 15, 181, 111, 195, 120, 120, 195, 1, 1.15781
386, 2, wb, attraction, a-b-da, 14, 3, 8, 15, 181, 111, 195, 120, 120, 195, 2, 1.11806
386, 2, wb, filler, NA, 999, 999, 8, 16, 95, 184, 109, 115, 112, 116, 2, 0.742953
386, 2, wb, filler, NA, 999, 999, 8, 16, 95, 184, 109, 115, 112, 116, 1, 0.544021
386, 2, wb, filler, NA, 999, 999, 8, 17, 172, 126, 178, 186, 100, 154, 3, 1.00785
386, 2, wb, filler, NA, 999, 999, 8, 17, 172, 126, 178, 186, 100, 154, 2, 0.614062
386, 2, wb, catch, NA, 999, 999, 8, 18, 164, 151, 80, 115, 153, 102, 2, 0.771224
386, 2, wb, catch, NA, 999, 999, 8, 18, 164, 151, 80, 115, 153, 102, 1, 0.410993
386, 2, wb, filler, NA, 999, 999, 8, 19, 125, 85, 181, 192, 167, 76, 1, 0.816087
386, 2, wb, filler, NA, 999, 999, 8, 19, 125, 85, 181, 192, 167, 76, 2, 0.398433
386, 2, wb, filler, NA, 999, 999, 8, 20, 133, 83, 195, 92, 83, 138, 1, 0.724235
386, 2, wb, filler, NA, 999, 999, 8, 20, 133, 83, 195, 92, 83, 138, 2, 0.438188
386, 2, wb, attraction, a-b-da, 2, 1, 8, 21, 60, 135, 135, 60, 134, 59, 1, 0.7385
386, 2, wb, attraction, a-b-da, 2, 1, 8, 21, 60, 135, 135, 60, 134, 59, 2, 0.427576
386, 2, wb, attraction, a-b-da, 14, 2, 8, 22, 153, 83, 90, 165, 165, 90, 1, 0.696014
386, 2, wb, attraction, a-b-da, 14, 2, 8, 22, 153, 83, 90, 165, 165, 90, 2, 0.403154
386, 2, wb, attraction, a-b-da, 2, 2, 8, 23, 90, 165, 163, 89, 165, 90, 1, 0.784912
386, 2, wb, attraction, a-b-da, 2, 2, 8, 23, 90, 165, 163, 89, 165, 90, 2, 0.50477
386, 2, wb, attraction, a-b-da, 5, 2, 8, 24, 165, 90, 90, 165, 161, 88, 1, 1.37848
386, 2, wb, attraction, a-b-da, 5, 2, 8, 24, 165, 90, 90, 165, 161, 88, 2, 0.586018
386, 2, wb, filler, NA, 999, 999, 8, 25, 91, 121, 85, 164, 174, 101, 1, 0.760381
386, 2, wb, filler, NA, 999, 999, 8, 25, 91, 121, 85, 164, 174, 101, 2, 0.35285
386, 2, wb, attraction, a-b-db, 9, 2, 8, 26, 86, 157, 165, 90, 90, 165, 1, 0.680593
386, 2, wb, attraction, a-b-db, 9, 2, 8, 26, 86, 157, 165, 90, 90, 165, 2, 0.396494
386, 2, wb, attraction, a-b-db, 5, 1, 8, 27, 135, 60, 60, 135, 58, 132, 1, 0.81022
386, 2, wb, attraction, a-b-db, 5, 1, 8, 27, 135, 60, 60, 135, 58, 132, 2, 2.95269
386, 2, wb, attraction, a-b-db, 5, 2, 8, 28, 88, 161, 165, 90, 90, 165, 1, 1.36762
386, 2, wb, attraction, a-b-db, 5, 2, 8, 28, 88, 161, 165, 90, 90, 165, 2, 0.415839
386, 2, wb, filler, NA, 999, 999, 8, 29, 114, 62, 155, 60, 130, 93, 1, 0.56494
386, 2, wb, filler, NA, 999, 999, 8, 29, 114, 62, 155, 60, 130, 93, 3, 2.48554
386, 2, wb, attraction, a-b-da, 14, 1, 8, 30, 60, 135, 125, 56, 135, 60, 1, 0.719345
386, 2, wb, attraction, a-b-da, 14, 1, 8, 30, 60, 135, 125, 56, 135, 60, 2, 0.51378
386, 2, wb, attraction, a-b-db, 14, 2, 8, 31, 83, 153, 165, 90, 90, 165, 1, 0.586857
386, 2, wb, attraction, a-b-db, 14, 2, 8, 31, 83, 153, 165, 90, 90, 165, 2, 0.306677
386, 2, wb, attraction, a-b-db, 5, 3, 8, 32, 120, 195, 117, 190, 195, 120, 2, 2.60376
386, 2, wb, attraction, a-b-db, 5, 3, 8, 32, 120, 195, 117, 190, 195, 120, 3, 0.305614
386, 2, wb, filler, NA, 999, 999, 8, 33, 69, 175, 190, 85, 125, 132, 1, 1.12361
386, 2, wb, filler, NA, 999, 999, 8, 33, 69, 175, 190, 85, 125, 132, 2, 0.341177
386, 2, wb, attraction, a-b-db, 14, 1, 8, 34, 135, 60, 60, 135, 56, 125, 1, 0.845062
386, 2, wb, attraction, a-b-db, 14, 1, 8, 34, 135, 60, 60, 135, 56, 125, 2, 1.31401
386, 2, wb, attraction, a-b-db, 9, 3, 8, 35, 114, 186, 195, 120, 120, 195, 1, 1.87482
386, 2, wb, attraction, a-b-db, 9, 3, 8, 35, 114, 186, 195, 120, 120, 195, 2, 0.302598
386, 2, wb, attraction, a-b-db, 2, 2, 8, 36, 89, 163, 90, 165, 165, 90, 1, 0.776009
386, 2, wb, attraction, a-b-db, 2, 2, 8, 36, 89, 163, 90, 165, 165, 90, 2, 0.327898
386, 2, wb, filler, NA, 999, 999, 8, 37, 195, 127, 172, 58, 94, 74, 3, 0.888388
386, 2, wb, filler, NA, 999, 999, 8, 37, 195, 127, 172, 58, 94, 74, 1, 0.355386
