sub_n, computer_n, bw_cond, effect, set, distance, diag, block_n, trial_n, h1, w1, h2, w2, h3, w3, choice, rt 
306, 2, wb, practice, NA, 999, 999, 0, 1, 117, 79, 166, 109, 158, 118, 1, 3.52842
306, 2, wb, practice, NA, 999, 999, 0, 1, 117, 79, 166, 109, 158, 118, 3, 2.56819
306, 2, wb, practice, NA, 999, 999, 0, 2, 166, 83, 111, 130, 148, 166, 2, 2.41057
306, 2, wb, practice, NA, 999, 999, 0, 2, 166, 83, 111, 130, 148, 166, 3, 0.89
306, 2, wb, practice, NA, 999, 999, 0, 3, 144, 87, 112, 170, 186, 188, 1, 3.48033
306, 2, wb, practice, NA, 999, 999, 0, 3, 144, 87, 112, 170, 186, 188, 3, 4.57186
306, 2, wb, filler, NA, 999, 999, 1, 1, 82, 136, 172, 136, 164, 100, 1, 1.47625
306, 2, wb, filler, NA, 999, 999, 1, 1, 82, 136, 172, 136, 164, 100, 2, 1.19983
306, 2, wb, catch, NA, 999, 999, 1, 2, 102, 93, 192, 123, 104, 151, 1, 1.06057
306, 2, wb, catch, NA, 999, 999, 1, 2, 102, 93, 192, 123, 104, 151, 2, 0.576955
306, 2, wb, attraction, a-b-db, 14, 3, 1, 3, 120, 195, 111, 181, 195, 120, 2, 2.89548
306, 2, wb, attraction, a-b-db, 14, 3, 1, 3, 120, 195, 111, 181, 195, 120, 1, 2.59391
306, 2, wb, attraction, a-b-da, 9, 1, 1, 4, 129, 57, 135, 60, 60, 135, 1, 2.38293
306, 2, wb, attraction, a-b-da, 9, 1, 1, 4, 129, 57, 135, 60, 60, 135, 3, 1.14214
306, 2, wb, attraction, a-b-da, 2, 1, 1, 5, 60, 135, 135, 60, 134, 59, 1, 1.68568
306, 2, wb, attraction, a-b-da, 2, 1, 1, 5, 60, 135, 135, 60, 134, 59, 2, 1.88929
306, 2, wb, filler, NA, 999, 999, 1, 6, 152, 177, 93, 131, 130, 166, 2, 1.11517
306, 2, wb, filler, NA, 999, 999, 1, 6, 152, 177, 93, 131, 130, 166, 1, 0.573486
306, 2, wb, catch, NA, 999, 999, 1, 7, 142, 113, 142, 173, 112, 83, 3, 2.16399
306, 2, wb, catch, NA, 999, 999, 1, 7, 142, 113, 142, 173, 112, 83, 2, 0.483969
306, 2, wb, filler, NA, 999, 999, 1, 8, 81, 120, 84, 58, 172, 108, 2, 1.9663
306, 2, wb, filler, NA, 999, 999, 1, 8, 81, 120, 84, 58, 172, 108, 3, 0.670448
306, 2, wb, attraction, a-b-db, 2, 3, 1, 9, 119, 193, 195, 120, 120, 195, 2, 2.3296
306, 2, wb, attraction, a-b-db, 2, 3, 1, 9, 119, 193, 195, 120, 120, 195, 1, 1.17877
306, 2, wb, attraction, a-b-da, 14, 2, 1, 10, 153, 83, 165, 90, 90, 165, 1, 3.74487
306, 2, wb, attraction, a-b-da, 14, 2, 1, 10, 153, 83, 165, 90, 90, 165, 3, 0.449026
306, 2, wb, attraction, a-b-db, 5, 3, 1, 11, 120, 195, 117, 190, 195, 120, 2, 1.54081
306, 2, wb, attraction, a-b-db, 5, 3, 1, 11, 120, 195, 117, 190, 195, 120, 1, 0.989712
306, 2, wb, filler, NA, 999, 999, 1, 12, 67, 102, 122, 59, 128, 107, 1, 0.915276
306, 2, wb, filler, NA, 999, 999, 1, 12, 67, 102, 122, 59, 128, 107, 3, 1.02165
306, 2, wb, attraction, a-b-da, 2, 2, 1, 13, 165, 90, 90, 165, 163, 89, 3, 2.47466
306, 2, wb, attraction, a-b-da, 2, 2, 1, 13, 165, 90, 90, 165, 163, 89, 2, 0.685851
306, 2, wb, filler, NA, 999, 999, 1, 14, 182, 122, 165, 176, 138, 74, 3, 0.848185
306, 2, wb, filler, NA, 999, 999, 1, 14, 182, 122, 165, 176, 138, 74, 2, 0.485425
306, 2, wb, attraction, a-b-db, 9, 2, 1, 15, 90, 165, 165, 90, 86, 157, 3, 1.66379
306, 2, wb, attraction, a-b-db, 9, 2, 1, 15, 90, 165, 165, 90, 86, 157, 1, 0.603843
306, 2, wb, attraction, a-b-db, 9, 1, 1, 16, 135, 60, 60, 135, 57, 129, 2, 1.67358
306, 2, wb, attraction, a-b-db, 9, 1, 1, 16, 135, 60, 60, 135, 57, 129, 1, 1.36508
306, 2, wb, filler, NA, 999, 999, 1, 17, 148, 164, 135, 74, 167, 139, 2, 1.13191
306, 2, wb, filler, NA, 999, 999, 1, 17, 148, 164, 135, 74, 167, 139, 1, 0.821505
306, 2, wb, attraction, a-b-da, 9, 3, 1, 18, 186, 114, 195, 120, 120, 195, 1, 3.02663
306, 2, wb, attraction, a-b-da, 9, 3, 1, 18, 186, 114, 195, 120, 120, 195, 3, 0.431574
306, 2, wb, attraction, a-b-db, 14, 1, 1, 19, 60, 135, 135, 60, 56, 125, 3, 1.67598
306, 2, wb, attraction, a-b-db, 14, 1, 1, 19, 60, 135, 135, 60, 56, 125, 1, 0.487563
306, 2, wb, attraction, a-b-da, 2, 3, 1, 20, 120, 195, 193, 119, 195, 120, 3, 1.38588
306, 2, wb, attraction, a-b-da, 2, 3, 1, 20, 120, 195, 193, 119, 195, 120, 1, 0.361488
306, 2, wb, attraction, a-b-da, 5, 1, 1, 21, 60, 135, 132, 58, 135, 60, 2, 1.77664
306, 2, wb, attraction, a-b-da, 5, 1, 1, 21, 60, 135, 132, 58, 135, 60, 3, 1.64002
306, 2, wb, attraction, a-b-db, 2, 1, 1, 22, 135, 60, 60, 135, 59, 134, 2, 1.4595
306, 2, wb, attraction, a-b-db, 2, 1, 1, 22, 135, 60, 60, 135, 59, 134, 1, 0.911635
306, 2, wb, filler, NA, 999, 999, 1, 23, 95, 129, 167, 175, 132, 149, 1, 0.776773
306, 2, wb, filler, NA, 999, 999, 1, 23, 95, 129, 167, 175, 132, 149, 2, 0.432358
306, 2, wb, attraction, a-b-da, 9, 2, 1, 24, 90, 165, 157, 86, 165, 90, 2, 1.28478
306, 2, wb, attraction, a-b-da, 9, 2, 1, 24, 90, 165, 157, 86, 165, 90, 3, 1.1124
306, 2, wb, attraction, a-b-db, 14, 2, 1, 25, 90, 165, 83, 153, 165, 90, 2, 0.793432
306, 2, wb, attraction, a-b-db, 14, 2, 1, 25, 90, 165, 83, 153, 165, 90, 3, 0.464463
306, 2, wb, attraction, a-b-db, 9, 3, 1, 26, 120, 195, 195, 120, 114, 186, 2, 1.24349
306, 2, wb, attraction, a-b-db, 9, 3, 1, 26, 120, 195, 195, 120, 114, 186, 1, 0.320416
306, 2, wb, attraction, a-b-db, 5, 2, 1, 27, 165, 90, 88, 161, 90, 165, 1, 1.96159
306, 2, wb, attraction, a-b-db, 5, 2, 1, 27, 165, 90, 88, 161, 90, 165, 2, 0.52963
306, 2, wb, filler, NA, 999, 999, 1, 28, 149, 172, 182, 118, 57, 134, 3, 2.01804
306, 2, wb, filler, NA, 999, 999, 1, 28, 149, 172, 182, 118, 57, 134, 1, 0.592079
306, 2, wb, attraction, a-b-db, 5, 1, 1, 29, 135, 60, 60, 135, 58, 132, 1, 3.14181
306, 2, wb, attraction, a-b-db, 5, 1, 1, 29, 135, 60, 60, 135, 58, 132, 2, 0.654168
306, 2, wb, attraction, a-b-db, 2, 2, 1, 30, 89, 163, 165, 90, 90, 165, 2, 1.53785
306, 2, wb, attraction, a-b-db, 2, 2, 1, 30, 89, 163, 165, 90, 90, 165, 1, 0.72277
306, 2, wb, attraction, a-b-da, 5, 2, 1, 31, 90, 165, 165, 90, 161, 88, 2, 1.56316
306, 2, wb, attraction, a-b-da, 5, 2, 1, 31, 90, 165, 165, 90, 161, 88, 1, 0.723227
306, 2, wb, attraction, a-b-da, 14, 1, 1, 32, 60, 135, 125, 56, 135, 60, 2, 1.05164
306, 2, wb, attraction, a-b-da, 14, 1, 1, 32, 60, 135, 125, 56, 135, 60, 1, 0.832611
306, 2, wb, filler, NA, 999, 999, 1, 33, 141, 136, 75, 114, 103, 57, 3, 1.53292
306, 2, wb, filler, NA, 999, 999, 1, 33, 141, 136, 75, 114, 103, 57, 1, 0.494438
306, 2, wb, filler, NA, 999, 999, 1, 34, 159, 163, 68, 67, 188, 90, 2, 0.752245
306, 2, wb, filler, NA, 999, 999, 1, 34, 159, 163, 68, 67, 188, 90, 1, 0.441314
306, 2, wb, attraction, a-b-da, 5, 3, 1, 35, 120, 195, 190, 117, 195, 120, 1, 1.75711
306, 2, wb, attraction, a-b-da, 5, 3, 1, 35, 120, 195, 190, 117, 195, 120, 2, 0.941258
306, 2, wb, attraction, a-b-da, 14, 3, 1, 36, 181, 111, 195, 120, 120, 195, 2, 1.76484
306, 2, wb, attraction, a-b-da, 14, 3, 1, 36, 181, 111, 195, 120, 120, 195, 3, 0.461027
306, 2, wb, catch, NA, 999, 999, 1, 37, 91, 104, 175, 140, 151, 104, 1, 0.816041
306, 2, wb, catch, NA, 999, 999, 1, 37, 91, 104, 175, 140, 151, 104, 2, 0.366464
306, 2, wb, filler, NA, 999, 999, 2, 1, 141, 100, 100, 192, 161, 173, 1, 1.02964
306, 2, wb, filler, NA, 999, 999, 2, 1, 141, 100, 100, 192, 161, 173, 3, 0.419398
306, 2, wb, attraction, a-b-da, 5, 3, 2, 2, 190, 117, 195, 120, 120, 195, 2, 1.32039
306, 2, wb, attraction, a-b-da, 5, 3, 2, 2, 190, 117, 195, 120, 120, 195, 1, 0.386637
306, 2, wb, attraction, a-b-db, 2, 2, 2, 3, 89, 163, 165, 90, 90, 165, 2, 1.12924
306, 2, wb, attraction, a-b-db, 2, 2, 2, 3, 89, 163, 165, 90, 90, 165, 1, 0.434886
306, 2, wb, attraction, a-b-da, 9, 2, 2, 4, 165, 90, 90, 165, 157, 86, 2, 1.18325
306, 2, wb, attraction, a-b-da, 9, 2, 2, 4, 165, 90, 90, 165, 157, 86, 3, 0.470886
306, 2, wb, filler, NA, 999, 999, 2, 5, 172, 114, 168, 127, 103, 84, 3, 0.882142
306, 2, wb, filler, NA, 999, 999, 2, 5, 172, 114, 168, 127, 103, 84, 2, 0.629688
306, 2, wb, attraction, a-b-da, 5, 1, 2, 6, 132, 58, 60, 135, 135, 60, 1, 1.74603
306, 2, wb, attraction, a-b-da, 5, 1, 2, 6, 132, 58, 60, 135, 135, 60, 2, 0.450808
306, 2, wb, filler, NA, 999, 999, 2, 7, 191, 183, 73, 126, 81, 96, 3, 1.14267
306, 2, wb, filler, NA, 999, 999, 2, 7, 191, 183, 73, 126, 81, 96, 1, 0.48767
306, 2, wb, attraction, a-b-da, 14, 3, 2, 8, 181, 111, 195, 120, 120, 195, 2, 1.21804
306, 2, wb, attraction, a-b-da, 14, 3, 2, 8, 181, 111, 195, 120, 120, 195, 1, 0.416323
306, 2, wb, catch, NA, 999, 999, 2, 9, 123, 192, 98, 97, 126, 129, 2, 0.613456
306, 2, wb, catch, NA, 999, 999, 2, 9, 123, 192, 98, 97, 126, 129, 1, 0.411911
306, 2, wb, filler, NA, 999, 999, 2, 10, 89, 128, 83, 102, 121, 104, 2, 0.984981
306, 2, wb, filler, NA, 999, 999, 2, 10, 89, 128, 83, 102, 121, 104, 3, 0.71269
306, 2, wb, filler, NA, 999, 999, 2, 11, 108, 115, 127, 126, 115, 143, 1, 1.2658
306, 2, wb, filler, NA, 999, 999, 2, 11, 108, 115, 127, 126, 115, 143, 3, 0.526024
306, 2, wb, attraction, a-b-db, 5, 1, 2, 12, 58, 132, 60, 135, 135, 60, 1, 1.02247
306, 2, wb, attraction, a-b-db, 5, 1, 2, 12, 58, 132, 60, 135, 135, 60, 2, 0.468063
306, 2, wb, attraction, a-b-da, 2, 2, 2, 13, 163, 89, 165, 90, 90, 165, 2, 1.08737
306, 2, wb, attraction, a-b-da, 2, 2, 2, 13, 163, 89, 165, 90, 90, 165, 3, 0.458214
306, 2, wb, catch, NA, 999, 999, 2, 14, 132, 123, 151, 164, 118, 77, 3, 1.03742
306, 2, wb, catch, NA, 999, 999, 2, 14, 132, 123, 151, 164, 118, 77, 2, 0.322322
306, 2, wb, filler, NA, 999, 999, 2, 15, 170, 190, 99, 145, 129, 183, 2, 0.715656
306, 2, wb, filler, NA, 999, 999, 2, 15, 170, 190, 99, 145, 129, 183, 1, 0.373924
306, 2, wb, attraction, a-b-da, 14, 1, 2, 16, 135, 60, 60, 135, 125, 56, 2, 1.21242
306, 2, wb, attraction, a-b-da, 14, 1, 2, 16, 135, 60, 60, 135, 125, 56, 3, 0.506835
306, 2, wb, attraction, a-b-db, 14, 2, 2, 17, 165, 90, 83, 153, 90, 165, 2, 1.47588
306, 2, wb, attraction, a-b-db, 14, 2, 2, 17, 165, 90, 83, 153, 90, 165, 1, 0.471252
306, 2, wb, attraction, a-b-db, 5, 2, 2, 18, 88, 161, 90, 165, 165, 90, 1, 2.23445
306, 2, wb, attraction, a-b-db, 5, 2, 2, 18, 88, 161, 90, 165, 165, 90, 2, 0.799713
306, 2, wb, attraction, a-b-db, 2, 1, 2, 19, 59, 134, 135, 60, 60, 135, 3, 2.02136
306, 2, wb, attraction, a-b-db, 2, 1, 2, 19, 59, 134, 135, 60, 60, 135, 1, 0.474694
306, 2, wb, filler, NA, 999, 999, 2, 20, 190, 188, 169, 144, 70, 195, 3, 1.14921
306, 2, wb, filler, NA, 999, 999, 2, 20, 190, 188, 169, 144, 70, 195, 1, 0.974122
306, 2, wb, attraction, a-b-da, 2, 3, 2, 21, 193, 119, 120, 195, 195, 120, 2, 4.34046
306, 2, wb, attraction, a-b-da, 2, 3, 2, 21, 193, 119, 120, 195, 195, 120, 1, 0.484411
306, 2, wb, attraction, a-b-da, 14, 2, 2, 22, 153, 83, 90, 165, 165, 90, 1, 0.854893
306, 2, wb, attraction, a-b-da, 14, 2, 2, 22, 153, 83, 90, 165, 165, 90, 2, 0.355162
306, 2, wb, attraction, a-b-da, 5, 2, 2, 23, 161, 88, 165, 90, 90, 165, 1, 1.49904
306, 2, wb, attraction, a-b-da, 5, 2, 2, 23, 161, 88, 165, 90, 90, 165, 3, 0.373874
306, 2, wb, filler, NA, 999, 999, 2, 24, 63, 127, 75, 174, 75, 93, 1, 1.3644
306, 2, wb, filler, NA, 999, 999, 2, 24, 63, 127, 75, 174, 75, 93, 2, 0.620571
306, 2, wb, attraction, a-b-db, 9, 2, 2, 25, 86, 157, 90, 165, 165, 90, 1, 2.08966
306, 2, wb, attraction, a-b-db, 9, 2, 2, 25, 86, 157, 90, 165, 165, 90, 3, 0.388266
306, 2, wb, attraction, a-b-db, 14, 1, 2, 26, 135, 60, 56, 125, 60, 135, 1, 1.55493
306, 2, wb, attraction, a-b-db, 14, 1, 2, 26, 135, 60, 56, 125, 60, 135, 2, 0.354938
306, 2, wb, attraction, a-b-db, 14, 3, 2, 27, 120, 195, 195, 120, 111, 181, 2, 1.75478
306, 2, wb, attraction, a-b-db, 14, 3, 2, 27, 120, 195, 195, 120, 111, 181, 1, 0.402808
306, 2, wb, filler, NA, 999, 999, 2, 28, 82, 145, 94, 96, 83, 71, 3, 0.928715
306, 2, wb, filler, NA, 999, 999, 2, 28, 82, 145, 94, 96, 83, 71, 1, 1.0664
306, 2, wb, attraction, a-b-da, 9, 3, 2, 29, 186, 114, 195, 120, 120, 195, 1, 1.90924
306, 2, wb, attraction, a-b-da, 9, 3, 2, 29, 186, 114, 195, 120, 120, 195, 3, 0.567331
306, 2, wb, attraction, a-b-db, 9, 3, 2, 30, 195, 120, 114, 186, 120, 195, 3, 3.08643
306, 2, wb, attraction, a-b-db, 9, 3, 2, 30, 195, 120, 114, 186, 120, 195, 1, 0.393552
306, 2, wb, attraction, a-b-da, 9, 1, 2, 31, 129, 57, 60, 135, 135, 60, 1, 2.42329
306, 2, wb, attraction, a-b-da, 9, 1, 2, 31, 129, 57, 60, 135, 135, 60, 3, 0.428491
306, 2, wb, attraction, a-b-db, 9, 1, 2, 32, 60, 135, 57, 129, 135, 60, 2, 1.17708
306, 2, wb, attraction, a-b-db, 9, 1, 2, 32, 60, 135, 57, 129, 135, 60, 1, 0.680569
306, 2, wb, filler, NA, 999, 999, 2, 33, 75, 194, 73, 149, 111, 142, 2, 0.866984
306, 2, wb, filler, NA, 999, 999, 2, 33, 75, 194, 73, 149, 111, 142, 3, 0.519367
306, 2, wb, attraction, a-b-da, 2, 1, 2, 34, 134, 59, 60, 135, 135, 60, 2, 0.872421
306, 2, wb, attraction, a-b-da, 2, 1, 2, 34, 134, 59, 60, 135, 135, 60, 3, 0.428192
306, 2, wb, attraction, a-b-db, 5, 3, 2, 35, 120, 195, 195, 120, 117, 190, 2, 0.984665
306, 2, wb, attraction, a-b-db, 5, 3, 2, 35, 120, 195, 195, 120, 117, 190, 1, 0.328345
306, 2, wb, attraction, a-b-db, 2, 3, 2, 36, 120, 195, 195, 120, 119, 193, 2, 1.24876
306, 2, wb, attraction, a-b-db, 2, 3, 2, 36, 120, 195, 195, 120, 119, 193, 1, 0.389685
306, 2, wb, catch, NA, 999, 999, 2, 37, 151, 164, 99, 156, 102, 93, 3, 0.683487
306, 2, wb, catch, NA, 999, 999, 2, 37, 151, 164, 99, 156, 102, 93, 1, 0.359389
306, 2, wb, attraction, a-b-da, 14, 2, 3, 1, 90, 165, 165, 90, 153, 83, 2, 0.998486
306, 2, wb, attraction, a-b-da, 14, 2, 3, 1, 90, 165, 165, 90, 153, 83, 3, 0.789437
306, 2, wb, attraction, a-b-db, 2, 1, 3, 2, 135, 60, 60, 135, 59, 134, 2, 0.739265
306, 2, wb, attraction, a-b-db, 2, 1, 3, 2, 135, 60, 60, 135, 59, 134, 1, 0.348155
306, 2, wb, attraction, a-b-da, 14, 3, 3, 3, 120, 195, 181, 111, 195, 120, 2, 1.66797
306, 2, wb, attraction, a-b-da, 14, 3, 3, 3, 120, 195, 181, 111, 195, 120, 1, 0.360554
306, 2, wb, catch, NA, 999, 999, 3, 4, 185, 130, 127, 128, 88, 107, 3, 0.783281
306, 2, wb, catch, NA, 999, 999, 3, 4, 185, 130, 127, 128, 88, 107, 1, 0.391217
306, 2, wb, attraction, a-b-db, 14, 2, 3, 5, 83, 153, 90, 165, 165, 90, 1, 1.39683
306, 2, wb, attraction, a-b-db, 14, 2, 3, 5, 83, 153, 90, 165, 165, 90, 2, 0.643771
306, 2, wb, attraction, a-b-db, 5, 1, 3, 6, 60, 135, 135, 60, 58, 132, 2, 1.08757
306, 2, wb, attraction, a-b-db, 5, 1, 3, 6, 60, 135, 135, 60, 58, 132, 1, 0.634535
306, 2, wb, attraction, a-b-da, 2, 1, 3, 7, 135, 60, 60, 135, 134, 59, 3, 1.37483
306, 2, wb, attraction, a-b-da, 2, 1, 3, 7, 135, 60, 60, 135, 134, 59, 1, 0.390405
306, 2, wb, filler, NA, 999, 999, 3, 8, 124, 69, 137, 172, 191, 77, 1, 0.916354
306, 2, wb, filler, NA, 999, 999, 3, 8, 124, 69, 137, 172, 191, 77, 2, 0.374665
306, 2, wb, attraction, a-b-db, 14, 3, 3, 9, 120, 195, 195, 120, 111, 181, 3, 2.46112
306, 2, wb, attraction, a-b-db, 14, 3, 3, 9, 120, 195, 195, 120, 111, 181, 1, 0.336964
306, 2, wb, attraction, a-b-da, 5, 1, 3, 10, 60, 135, 132, 58, 135, 60, 2, 0.937435
306, 2, wb, attraction, a-b-da, 5, 1, 3, 10, 60, 135, 132, 58, 135, 60, 1, 0.834548
306, 2, wb, attraction, a-b-da, 9, 1, 3, 11, 60, 135, 135, 60, 129, 57, 3, 1.52674
306, 2, wb, attraction, a-b-da, 9, 1, 3, 11, 60, 135, 135, 60, 129, 57, 1, 0.464261
306, 2, wb, attraction, a-b-db, 9, 3, 3, 12, 114, 186, 195, 120, 120, 195, 2, 1.61958
306, 2, wb, attraction, a-b-db, 9, 3, 3, 12, 114, 186, 195, 120, 120, 195, 3, 0.545606
306, 2, wb, attraction, a-b-da, 5, 2, 3, 13, 165, 90, 90, 165, 161, 88, 1, 1.36929
306, 2, wb, attraction, a-b-da, 5, 2, 3, 13, 165, 90, 90, 165, 161, 88, 2, 1.56951
306, 2, wb, filler, NA, 999, 999, 3, 14, 144, 119, 163, 87, 173, 145, 2, 1.67231
306, 2, wb, filler, NA, 999, 999, 3, 14, 144, 119, 163, 87, 173, 145, 3, 0.363776
306, 2, wb, filler, NA, 999, 999, 3, 15, 87, 77, 116, 153, 149, 109, 1, 1.01098
306, 2, wb, filler, NA, 999, 999, 3, 15, 87, 77, 116, 153, 149, 109, 2, 0.497282
306, 2, wb, attraction, a-b-db, 9, 1, 3, 16, 135, 60, 57, 129, 60, 135, 2, 1.51501
306, 2, wb, attraction, a-b-db, 9, 1, 3, 16, 135, 60, 57, 129, 60, 135, 1, 0.453228
306, 2, wb, filler, NA, 999, 999, 3, 17, 128, 141, 142, 58, 149, 84, 2, 0.913029
306, 2, wb, filler, NA, 999, 999, 3, 17, 128, 141, 142, 58, 149, 84, 1, 0.419394
306, 2, wb, filler, NA, 999, 999, 3, 18, 174, 70, 135, 143, 188, 109, 1, 0.888473
306, 2, wb, filler, NA, 999, 999, 3, 18, 174, 70, 135, 143, 188, 109, 2, 1.72358
306, 2, wb, filler, NA, 999, 999, 3, 19, 103, 178, 89, 98, 125, 57, 2, 1.86761
306, 2, wb, filler, NA, 999, 999, 3, 19, 103, 178, 89, 98, 125, 57, 1, 0.735696
306, 2, wb, attraction, a-b-da, 2, 2, 3, 20, 90, 165, 163, 89, 165, 90, 2, 1.8961
306, 2, wb, attraction, a-b-da, 2, 2, 3, 20, 90, 165, 163, 89, 165, 90, 1, 0.722741
306, 2, wb, attraction, a-b-db, 2, 3, 3, 21, 195, 120, 120, 195, 119, 193, 2, 3.08323
306, 2, wb, attraction, a-b-db, 2, 3, 3, 21, 195, 120, 120, 195, 119, 193, 1, 0.966264
306, 2, wb, attraction, a-b-da, 9, 3, 3, 22, 120, 195, 195, 120, 186, 114, 2, 1.02124
306, 2, wb, attraction, a-b-da, 9, 3, 3, 22, 120, 195, 195, 120, 186, 114, 3, 0.578833
306, 2, wb, filler, NA, 999, 999, 3, 23, 171, 86, 129, 175, 174, 77, 1, 1.60121
306, 2, wb, filler, NA, 999, 999, 3, 23, 171, 86, 129, 175, 174, 77, 2, 0.936013
306, 2, wb, attraction, a-b-db, 9, 2, 3, 24, 165, 90, 90, 165, 86, 157, 1, 1.00033
306, 2, wb, attraction, a-b-db, 9, 2, 3, 24, 165, 90, 90, 165, 86, 157, 2, 0.647309
306, 2, wb, filler, NA, 999, 999, 3, 25, 88, 133, 61, 148, 96, 184, 1, 1.89105
306, 2, wb, filler, NA, 999, 999, 3, 25, 88, 133, 61, 148, 96, 184, 2, 0.693768
306, 2, wb, catch, NA, 999, 999, 3, 26, 169, 146, 127, 128, 75, 120, 3, 1.20762
306, 2, wb, catch, NA, 999, 999, 3, 26, 169, 146, 127, 128, 75, 120, 1, 0.405793
306, 2, wb, filler, NA, 999, 999, 3, 27, 145, 92, 118, 111, 161, 124, 1, 1.2356
306, 2, wb, filler, NA, 999, 999, 3, 27, 145, 92, 118, 111, 161, 124, 2, 0.665172
306, 2, wb, catch, NA, 999, 999, 3, 28, 109, 146, 161, 154, 95, 100, 3, 1.54829
306, 2, wb, catch, NA, 999, 999, 3, 28, 109, 146, 161, 154, 95, 100, 2, 0.573077
306, 2, wb, attraction, a-b-da, 14, 1, 3, 29, 60, 135, 135, 60, 125, 56, 1, 1.17144
306, 2, wb, attraction, a-b-da, 14, 1, 3, 29, 60, 135, 135, 60, 125, 56, 2, 0.755128
306, 2, wb, attraction, a-b-da, 2, 3, 3, 30, 195, 120, 120, 195, 193, 119, 1, 1.91481
306, 2, wb, attraction, a-b-da, 2, 3, 3, 30, 195, 120, 120, 195, 193, 119, 2, 0.532874
306, 2, wb, attraction, a-b-db, 5, 3, 3, 31, 195, 120, 120, 195, 117, 190, 1, 1.38141
306, 2, wb, attraction, a-b-db, 5, 3, 3, 31, 195, 120, 120, 195, 117, 190, 2, 0.644873
306, 2, wb, filler, NA, 999, 999, 3, 32, 144, 106, 127, 83, 124, 99, 2, 1.11255
306, 2, wb, filler, NA, 999, 999, 3, 32, 144, 106, 127, 83, 124, 99, 1, 1.02683
306, 2, wb, attraction, a-b-db, 2, 2, 3, 33, 89, 163, 90, 165, 165, 90, 1, 3.12713
306, 2, wb, attraction, a-b-db, 2, 2, 3, 33, 89, 163, 90, 165, 165, 90, 2, 0.376086
306, 2, wb, attraction, a-b-db, 5, 2, 3, 34, 90, 165, 165, 90, 88, 161, 1, 0.694685
306, 2, wb, attraction, a-b-db, 5, 2, 3, 34, 90, 165, 165, 90, 88, 161, 2, 0.39384
306, 2, wb, attraction, a-b-da, 9, 2, 3, 35, 157, 86, 90, 165, 165, 90, 2, 0.95159
306, 2, wb, attraction, a-b-da, 9, 2, 3, 35, 157, 86, 90, 165, 165, 90, 1, 0.768581
306, 2, wb, attraction, a-b-da, 5, 3, 3, 36, 195, 120, 120, 195, 190, 117, 2, 1.57574
306, 2, wb, attraction, a-b-da, 5, 3, 3, 36, 195, 120, 120, 195, 190, 117, 3, 0.383067
306, 2, wb, attraction, a-b-db, 14, 1, 3, 37, 56, 125, 60, 135, 135, 60, 1, 0.78151
306, 2, wb, attraction, a-b-db, 14, 1, 3, 37, 56, 125, 60, 135, 135, 60, 2, 0.397255
306, 2, wb, filler, NA, 999, 999, 4, 1, 75, 86, 115, 66, 104, 147, 1, 0.771204
306, 2, wb, filler, NA, 999, 999, 4, 1, 75, 86, 115, 66, 104, 147, 3, 0.378933
306, 2, wb, catch, NA, 999, 999, 4, 2, 189, 126, 71, 124, 159, 96, 2, 0.713343
306, 2, wb, catch, NA, 999, 999, 4, 2, 189, 126, 71, 124, 159, 96, 1, 0.347653
306, 2, wb, attraction, a-b-db, 14, 2, 4, 3, 90, 165, 165, 90, 83, 153, 2, 0.627612
306, 2, wb, attraction, a-b-db, 14, 2, 4, 3, 90, 165, 165, 90, 83, 153, 1, 0.569308
306, 2, wb, attraction, a-b-da, 9, 3, 4, 4, 120, 195, 195, 120, 186, 114, 2, 1.09645
306, 2, wb, attraction, a-b-da, 9, 3, 4, 4, 120, 195, 195, 120, 186, 114, 1, 0.307377
306, 2, wb, attraction, a-b-da, 2, 3, 4, 5, 195, 120, 193, 119, 120, 195, 2, 0.684679
306, 2, wb, attraction, a-b-da, 2, 3, 4, 5, 195, 120, 193, 119, 120, 195, 3, 0.408426
306, 2, wb, attraction, a-b-da, 9, 1, 4, 6, 135, 60, 129, 57, 60, 135, 2, 1.05362
306, 2, wb, attraction, a-b-da, 9, 1, 4, 6, 135, 60, 129, 57, 60, 135, 3, 0.738551
306, 2, wb, filler, NA, 999, 999, 4, 7, 163, 76, 160, 141, 140, 123, 1, 0.850822
306, 2, wb, filler, NA, 999, 999, 4, 7, 163, 76, 160, 141, 140, 123, 2, 0.367891
306, 2, wb, attraction, a-b-db, 9, 3, 4, 8, 120, 195, 114, 186, 195, 120, 2, 1.05513
306, 2, wb, attraction, a-b-db, 9, 3, 4, 8, 120, 195, 114, 186, 195, 120, 3, 0.347333
306, 2, wb, attraction, a-b-db, 2, 2, 4, 9, 165, 90, 89, 163, 90, 165, 2, 0.667153
306, 2, wb, attraction, a-b-db, 2, 2, 4, 9, 165, 90, 89, 163, 90, 165, 1, 0.375585
306, 2, wb, catch, NA, 999, 999, 4, 10, 73, 122, 144, 171, 126, 129, 1, 0.646079
306, 2, wb, catch, NA, 999, 999, 4, 10, 73, 122, 144, 171, 126, 129, 2, 0.259178
306, 2, wb, attraction, a-b-db, 2, 3, 4, 11, 195, 120, 119, 193, 120, 195, 1, 1.36642
306, 2, wb, attraction, a-b-db, 2, 3, 4, 11, 195, 120, 119, 193, 120, 195, 2, 0.334688
306, 2, wb, attraction, a-b-db, 5, 2, 4, 12, 88, 161, 90, 165, 165, 90, 1, 0.983131
306, 2, wb, attraction, a-b-db, 5, 2, 4, 12, 88, 161, 90, 165, 165, 90, 2, 0.36682
306, 2, wb, filler, NA, 999, 999, 4, 13, 128, 100, 146, 58, 73, 159, 2, 1.14209
306, 2, wb, filler, NA, 999, 999, 4, 13, 128, 100, 146, 58, 73, 159, 1, 0.366864
306, 2, wb, attraction, a-b-db, 2, 1, 4, 14, 135, 60, 59, 134, 60, 135, 1, 1.15807
306, 2, wb, attraction, a-b-db, 2, 1, 4, 14, 135, 60, 59, 134, 60, 135, 2, 0.614485
306, 2, wb, attraction, a-b-da, 14, 1, 4, 15, 135, 60, 125, 56, 60, 135, 3, 1.14739
306, 2, wb, attraction, a-b-da, 14, 1, 4, 15, 135, 60, 125, 56, 60, 135, 2, 0.348401
306, 2, wb, filler, NA, 999, 999, 4, 16, 159, 177, 174, 187, 160, 94, 3, 1.1402
306, 2, wb, filler, NA, 999, 999, 4, 16, 159, 177, 174, 187, 160, 94, 2, 0.397205
306, 2, wb, attraction, a-b-db, 5, 1, 4, 17, 58, 132, 60, 135, 135, 60, 3, 1.57104
306, 2, wb, attraction, a-b-db, 5, 1, 4, 17, 58, 132, 60, 135, 135, 60, 2, 0.530463
306, 2, wb, attraction, a-b-da, 2, 1, 4, 18, 135, 60, 134, 59, 60, 135, 3, 1.43493
306, 2, wb, attraction, a-b-da, 2, 1, 4, 18, 135, 60, 134, 59, 60, 135, 1, 0.536422
306, 2, wb, attraction, a-b-da, 5, 2, 4, 19, 165, 90, 90, 165, 161, 88, 1, 1.97684
306, 2, wb, attraction, a-b-da, 5, 2, 4, 19, 165, 90, 90, 165, 161, 88, 2, 0.952256
306, 2, wb, filler, NA, 999, 999, 4, 20, 62, 86, 77, 132, 192, 104, 1, 0.847887
306, 2, wb, filler, NA, 999, 999, 4, 20, 62, 86, 77, 132, 192, 104, 3, 0.428918
306, 2, wb, attraction, a-b-da, 14, 2, 4, 21, 153, 83, 165, 90, 90, 165, 1, 1.4814
306, 2, wb, attraction, a-b-da, 14, 2, 4, 21, 153, 83, 165, 90, 90, 165, 3, 0.388942
306, 2, wb, attraction, a-b-da, 2, 2, 4, 22, 90, 165, 165, 90, 163, 89, 3, 1.93934
306, 2, wb, attraction, a-b-da, 2, 2, 4, 22, 90, 165, 165, 90, 163, 89, 1, 0.372158
306, 2, wb, attraction, a-b-da, 9, 2, 4, 23, 165, 90, 157, 86, 90, 165, 2, 1.27525
306, 2, wb, attraction, a-b-da, 9, 2, 4, 23, 165, 90, 157, 86, 90, 165, 1, 0.414815
306, 2, wb, filler, NA, 999, 999, 4, 24, 130, 72, 78, 151, 127, 124, 1, 1.21192
306, 2, wb, filler, NA, 999, 999, 4, 24, 130, 72, 78, 151, 127, 124, 3, 0.402365
306, 2, wb, filler, NA, 999, 999, 4, 25, 76, 118, 144, 138, 170, 189, 1, 0.616004
306, 2, wb, filler, NA, 999, 999, 4, 25, 76, 118, 144, 138, 170, 189, 3, 0.318533
306, 2, wb, filler, NA, 999, 999, 4, 26, 191, 195, 105, 134, 133, 177, 2, 0.871749
306, 2, wb, filler, NA, 999, 999, 4, 26, 191, 195, 105, 134, 133, 177, 1, 0.41145
306, 2, wb, attraction, a-b-db, 9, 1, 4, 27, 60, 135, 57, 129, 135, 60, 2, 1.08853
306, 2, wb, attraction, a-b-db, 9, 1, 4, 27, 60, 135, 57, 129, 135, 60, 1, 0.49149
306, 2, wb, attraction, a-b-da, 14, 3, 4, 28, 181, 111, 120, 195, 195, 120, 2, 0.725263
306, 2, wb, attraction, a-b-da, 14, 3, 4, 28, 181, 111, 120, 195, 195, 120, 1, 0.519035
306, 2, wb, attraction, a-b-db, 14, 3, 4, 29, 195, 120, 120, 195, 111, 181, 2, 1.12011
306, 2, wb, attraction, a-b-db, 14, 3, 4, 29, 195, 120, 120, 195, 111, 181, 3, 0.578513
306, 2, wb, attraction, a-b-da, 5, 1, 4, 30, 60, 135, 132, 58, 135, 60, 2, 0.800915
306, 2, wb, attraction, a-b-da, 5, 1, 4, 30, 60, 135, 132, 58, 135, 60, 1, 0.463854
306, 2, wb, attraction, a-b-db, 14, 1, 4, 31, 56, 125, 60, 135, 135, 60, 2, 0.987109
306, 2, wb, attraction, a-b-db, 14, 1, 4, 31, 56, 125, 60, 135, 135, 60, 3, 0.530814
306, 2, wb, catch, NA, 999, 999, 4, 32, 129, 186, 128, 127, 133, 62, 3, 1.01117
306, 2, wb, catch, NA, 999, 999, 4, 32, 129, 186, 128, 127, 133, 62, 1, 0.385384
306, 2, wb, filler, NA, 999, 999, 4, 33, 65, 151, 192, 58, 107, 127, 1, 1.30396
306, 2, wb, filler, NA, 999, 999, 4, 33, 65, 151, 192, 58, 107, 127, 3, 0.39424
306, 2, wb, attraction, a-b-db, 5, 3, 4, 34, 117, 190, 195, 120, 120, 195, 2, 2.02394
306, 2, wb, attraction, a-b-db, 5, 3, 4, 34, 117, 190, 195, 120, 120, 195, 1, 0.317315
306, 2, wb, attraction, a-b-da, 5, 3, 4, 35, 195, 120, 190, 117, 120, 195, 2, 1.00644
306, 2, wb, attraction, a-b-da, 5, 3, 4, 35, 195, 120, 190, 117, 120, 195, 3, 0.292792
306, 2, wb, attraction, a-b-db, 9, 2, 4, 36, 165, 90, 90, 165, 86, 157, 2, 0.91871
306, 2, wb, attraction, a-b-db, 9, 2, 4, 36, 165, 90, 90, 165, 86, 157, 1, 0.377009
306, 2, wb, filler, NA, 999, 999, 4, 37, 175, 87, 130, 117, 95, 137, 1, 1.01553
306, 2, wb, filler, NA, 999, 999, 4, 37, 175, 87, 130, 117, 95, 137, 2, 0.381884
306, 2, wb, attraction, a-b-da, 14, 2, 5, 1, 153, 83, 90, 165, 165, 90, 1, 2.81894
306, 2, wb, attraction, a-b-da, 14, 2, 5, 1, 153, 83, 90, 165, 165, 90, 2, 0.456711
306, 2, wb, filler, NA, 999, 999, 5, 2, 135, 71, 102, 169, 192, 149, 1, 0.643788
306, 2, wb, filler, NA, 999, 999, 5, 2, 135, 71, 102, 169, 192, 149, 3, 0.528988
306, 2, wb, attraction, a-b-db, 5, 3, 5, 3, 195, 120, 117, 190, 120, 195, 1, 1.30548
306, 2, wb, attraction, a-b-db, 5, 3, 5, 3, 195, 120, 117, 190, 120, 195, 3, 0.387629
306, 2, wb, attraction, a-b-da, 2, 1, 5, 4, 134, 59, 135, 60, 60, 135, 3, 0.77018
306, 2, wb, attraction, a-b-da, 2, 1, 5, 4, 134, 59, 135, 60, 60, 135, 1, 0.578522
306, 2, wb, attraction, a-b-db, 2, 1, 5, 5, 59, 134, 135, 60, 60, 135, 1, 0.872956
306, 2, wb, attraction, a-b-db, 2, 1, 5, 5, 59, 134, 135, 60, 60, 135, 3, 0.412838
306, 2, wb, attraction, a-b-da, 5, 2, 5, 6, 161, 88, 90, 165, 165, 90, 1, 0.721893
306, 2, wb, attraction, a-b-da, 5, 2, 5, 6, 161, 88, 90, 165, 165, 90, 2, 0.331563
306, 2, wb, attraction, a-b-da, 14, 1, 5, 7, 135, 60, 60, 135, 125, 56, 1, 0.81205
306, 2, wb, attraction, a-b-da, 14, 1, 5, 7, 135, 60, 60, 135, 125, 56, 2, 0.33043
306, 2, wb, attraction, a-b-db, 2, 2, 5, 8, 89, 163, 90, 165, 165, 90, 1, 0.682926
306, 2, wb, attraction, a-b-db, 2, 2, 5, 8, 89, 163, 90, 165, 165, 90, 3, 1.28685
306, 2, wb, filler, NA, 999, 999, 5, 9, 137, 188, 108, 131, 66, 167, 3, 1.06177
306, 2, wb, filler, NA, 999, 999, 5, 9, 137, 188, 108, 131, 66, 167, 1, 0.589188
306, 2, wb, attraction, a-b-da, 9, 3, 5, 10, 120, 195, 186, 114, 195, 120, 2, 1.05164
306, 2, wb, attraction, a-b-da, 9, 3, 5, 10, 120, 195, 186, 114, 195, 120, 1, 0.384559
306, 2, wb, filler, NA, 999, 999, 5, 11, 92, 184, 192, 58, 124, 142, 2, 0.599111
306, 2, wb, filler, NA, 999, 999, 5, 11, 92, 184, 192, 58, 124, 142, 3, 0.374252
306, 2, wb, attraction, a-b-da, 14, 3, 5, 12, 195, 120, 181, 111, 120, 195, 2, 1.19665
306, 2, wb, attraction, a-b-da, 14, 3, 5, 12, 195, 120, 181, 111, 120, 195, 3, 0.267668
306, 2, wb, attraction, a-b-da, 9, 1, 5, 13, 60, 135, 135, 60, 129, 57, 1, 0.854946
306, 2, wb, attraction, a-b-da, 9, 1, 5, 13, 60, 135, 135, 60, 129, 57, 2, 0.291305
306, 2, wb, attraction, a-b-db, 2, 3, 5, 14, 120, 195, 119, 193, 195, 120, 1, 0.925069
306, 2, wb, attraction, a-b-db, 2, 3, 5, 14, 120, 195, 119, 193, 195, 120, 2, 0.230748
306, 2, wb, filler, NA, 999, 999, 5, 15, 193, 177, 116, 166, 122, 175, 2, 1.07532
306, 2, wb, filler, NA, 999, 999, 5, 15, 193, 177, 116, 166, 122, 175, 1, 0.278961
306, 2, wb, filler, NA, 999, 999, 5, 16, 78, 135, 123, 100, 148, 150, 1, 1.04944
306, 2, wb, filler, NA, 999, 999, 5, 16, 78, 135, 123, 100, 148, 150, 3, 0.534594
306, 2, wb, filler, NA, 999, 999, 5, 17, 64, 188, 65, 68, 67, 195, 2, 1.08683
306, 2, wb, filler, NA, 999, 999, 5, 17, 64, 188, 65, 68, 67, 195, 3, 0.826512
306, 2, wb, attraction, a-b-db, 5, 2, 5, 18, 165, 90, 90, 165, 88, 161, 1, 2.95886
306, 2, wb, attraction, a-b-db, 5, 2, 5, 18, 165, 90, 90, 165, 88, 161, 2, 0.358605
306, 2, wb, attraction, a-b-db, 9, 2, 5, 19, 90, 165, 86, 157, 165, 90, 2, 2.09371
306, 2, wb, attraction, a-b-db, 9, 2, 5, 19, 90, 165, 86, 157, 165, 90, 3, 1.68045
306, 2, wb, attraction, a-b-da, 9, 2, 5, 20, 90, 165, 157, 86, 165, 90, 2, 1.62637
306, 2, wb, attraction, a-b-da, 9, 2, 5, 20, 90, 165, 157, 86, 165, 90, 1, 0.608007
306, 2, wb, attraction, a-b-da, 5, 1, 5, 21, 135, 60, 60, 135, 132, 58, 1, 2.261
306, 2, wb, attraction, a-b-da, 5, 1, 5, 21, 135, 60, 60, 135, 132, 58, 2, 0.440874
306, 2, wb, catch, NA, 999, 999, 5, 22, 151, 164, 137, 118, 92, 103, 3, 0.796838
306, 2, wb, catch, NA, 999, 999, 5, 22, 151, 164, 137, 118, 92, 103, 1, 0.427809
306, 2, wb, catch, NA, 999, 999, 5, 23, 103, 152, 64, 131, 178, 137, 2, 0.912268
306, 2, wb, catch, NA, 999, 999, 5, 23, 103, 152, 64, 131, 178, 137, 3, 0.394667
306, 2, wb, attraction, a-b-da, 2, 3, 5, 24, 120, 195, 193, 119, 195, 120, 1, 2.15245
306, 2, wb, attraction, a-b-da, 2, 3, 5, 24, 120, 195, 193, 119, 195, 120, 2, 0.441032
306, 2, wb, filler, NA, 999, 999, 5, 25, 127, 182, 159, 64, 68, 128, 3, 0.812886
306, 2, wb, filler, NA, 999, 999, 5, 25, 127, 182, 159, 64, 68, 128, 1, 0.347269
306, 2, wb, attraction, a-b-db, 9, 3, 5, 26, 114, 186, 195, 120, 120, 195, 1, 1.44307
306, 2, wb, attraction, a-b-db, 9, 3, 5, 26, 114, 186, 195, 120, 120, 195, 3, 0.479987
306, 2, wb, attraction, a-b-db, 14, 2, 5, 27, 83, 153, 165, 90, 90, 165, 1, 2.16239
306, 2, wb, attraction, a-b-db, 14, 2, 5, 27, 83, 153, 165, 90, 90, 165, 2, 0.650383
306, 2, wb, filler, NA, 999, 999, 5, 28, 157, 163, 143, 131, 184, 117, 2, 1.34216
306, 2, wb, filler, NA, 999, 999, 5, 28, 157, 163, 143, 131, 184, 117, 1, 0.310959
306, 2, wb, attraction, a-b-da, 5, 3, 5, 29, 190, 117, 120, 195, 195, 120, 3, 2.39209
306, 2, wb, attraction, a-b-da, 5, 3, 5, 29, 190, 117, 120, 195, 195, 120, 2, 0.342747
306, 2, wb, catch, NA, 999, 999, 5, 30, 130, 125, 100, 95, 130, 185, 2, 0.902559
306, 2, wb, catch, NA, 999, 999, 5, 30, 130, 125, 100, 95, 130, 185, 3, 0.585653
306, 2, wb, attraction, a-b-db, 5, 1, 5, 31, 58, 132, 135, 60, 60, 135, 1, 0.752037
306, 2, wb, attraction, a-b-db, 5, 1, 5, 31, 58, 132, 135, 60, 60, 135, 2, 0.985197
306, 2, wb, filler, NA, 999, 999, 5, 32, 183, 156, 66, 133, 184, 142, 2, 0.999415
306, 2, wb, filler, NA, 999, 999, 5, 32, 183, 156, 66, 133, 184, 142, 1, 0.534418
306, 2, wb, attraction, a-b-db, 9, 1, 5, 33, 60, 135, 57, 129, 135, 60, 1, 1.35082
306, 2, wb, attraction, a-b-db, 9, 1, 5, 33, 60, 135, 57, 129, 135, 60, 2, 0.439729
306, 2, wb, attraction, a-b-db, 14, 1, 5, 34, 135, 60, 56, 125, 60, 135, 1, 2.31553
306, 2, wb, attraction, a-b-db, 14, 1, 5, 34, 135, 60, 56, 125, 60, 135, 3, 0.645396
306, 2, wb, attraction, a-b-da, 2, 2, 5, 35, 163, 89, 90, 165, 165, 90, 1, 1.69421
306, 2, wb, attraction, a-b-da, 2, 2, 5, 35, 163, 89, 90, 165, 165, 90, 2, 0.476053
306, 2, wb, filler, NA, 999, 999, 5, 36, 192, 187, 174, 89, 125, 93, 3, 1.0785
306, 2, wb, filler, NA, 999, 999, 5, 36, 192, 187, 174, 89, 125, 93, 1, 0.346131
306, 2, wb, attraction, a-b-db, 14, 3, 5, 37, 120, 195, 111, 181, 195, 120, 1, 1.03397
306, 2, wb, attraction, a-b-db, 14, 3, 5, 37, 120, 195, 111, 181, 195, 120, 3, 0.567533
306, 2, wb, filler, NA, 999, 999, 6, 1, 132, 163, 116, 156, 180, 130, 2, 0.878612
306, 2, wb, filler, NA, 999, 999, 6, 1, 132, 163, 116, 156, 180, 130, 3, 0.482362
306, 2, wb, filler, NA, 999, 999, 6, 2, 148, 61, 121, 174, 124, 140, 1, 0.900755
306, 2, wb, filler, NA, 999, 999, 6, 2, 148, 61, 121, 174, 124, 140, 2, 0.479831
306, 2, wb, attraction, a-b-da, 14, 2, 6, 3, 165, 90, 90, 165, 153, 83, 3, 1.50628
306, 2, wb, attraction, a-b-da, 14, 2, 6, 3, 165, 90, 90, 165, 153, 83, 2, 0.940405
306, 2, wb, attraction, a-b-db, 2, 3, 6, 4, 195, 120, 119, 193, 120, 195, 2, 1.89213
306, 2, wb, attraction, a-b-db, 2, 3, 6, 4, 195, 120, 119, 193, 120, 195, 1, 0.670799
306, 2, wb, attraction, a-b-db, 14, 3, 6, 5, 111, 181, 195, 120, 120, 195, 1, 1.0979
306, 2, wb, attraction, a-b-db, 14, 3, 6, 5, 111, 181, 195, 120, 120, 195, 2, 0.372908
306, 2, wb, attraction, a-b-da, 14, 3, 6, 6, 195, 120, 181, 111, 120, 195, 2, 0.955282
306, 2, wb, attraction, a-b-da, 14, 3, 6, 6, 195, 120, 181, 111, 120, 195, 1, 0.387626
306, 2, wb, attraction, a-b-da, 2, 2, 6, 7, 165, 90, 163, 89, 90, 165, 2, 0.690145
306, 2, wb, attraction, a-b-da, 2, 2, 6, 7, 165, 90, 163, 89, 90, 165, 1, 0.437323
306, 2, wb, attraction, a-b-da, 2, 3, 6, 8, 120, 195, 193, 119, 195, 120, 2, 2.09772
306, 2, wb, attraction, a-b-da, 2, 3, 6, 8, 120, 195, 193, 119, 195, 120, 1, 0.428444
306, 2, wb, attraction, a-b-db, 2, 2, 6, 9, 90, 165, 89, 163, 165, 90, 1, 0.976818
306, 2, wb, attraction, a-b-db, 2, 2, 6, 9, 90, 165, 89, 163, 165, 90, 3, 0.59246
306, 2, wb, filler, NA, 999, 999, 6, 10, 92, 154, 101, 181, 86, 183, 1, 0.838271
306, 2, wb, filler, NA, 999, 999, 6, 10, 92, 154, 101, 181, 86, 183, 2, 0.29146
306, 2, wb, attraction, a-b-db, 9, 1, 6, 11, 57, 129, 60, 135, 135, 60, 1, 0.821109
306, 2, wb, attraction, a-b-db, 9, 1, 6, 11, 57, 129, 60, 135, 135, 60, 2, 0.32293
306, 2, wb, filler, NA, 999, 999, 6, 12, 149, 135, 61, 119, 81, 78, 3, 1.57152
306, 2, wb, filler, NA, 999, 999, 6, 12, 149, 135, 61, 119, 81, 78, 1, 0.642864
306, 2, wb, attraction, a-b-da, 2, 1, 6, 13, 60, 135, 135, 60, 134, 59, 1, 1.00657
306, 2, wb, attraction, a-b-da, 2, 1, 6, 13, 60, 135, 135, 60, 134, 59, 2, 0.572933
306, 2, wb, catch, NA, 999, 999, 6, 14, 123, 132, 162, 153, 92, 103, 3, 2.21136
306, 2, wb, catch, NA, 999, 999, 6, 14, 123, 132, 162, 153, 92, 103, 2, 0.537301
306, 2, wb, attraction, a-b-db, 9, 3, 6, 15, 195, 120, 114, 186, 120, 195, 1, 1.34569
306, 2, wb, attraction, a-b-db, 9, 3, 6, 15, 195, 120, 114, 186, 120, 195, 2, 0.53869
306, 2, wb, attraction, a-b-da, 9, 2, 6, 16, 90, 165, 157, 86, 165, 90, 1, 2.37909
306, 2, wb, attraction, a-b-da, 9, 2, 6, 16, 90, 165, 157, 86, 165, 90, 2, 0.426275
306, 2, wb, filler, NA, 999, 999, 6, 17, 108, 119, 106, 138, 56, 144, 1, 1.1667
306, 2, wb, filler, NA, 999, 999, 6, 17, 108, 119, 106, 138, 56, 144, 2, 0.375101
306, 2, wb, filler, NA, 999, 999, 6, 18, 159, 140, 80, 141, 142, 105, 2, 1.07758
306, 2, wb, filler, NA, 999, 999, 6, 18, 159, 140, 80, 141, 142, 105, 1, 0.385095
306, 2, wb, attraction, a-b-db, 14, 1, 6, 19, 135, 60, 60, 135, 56, 125, 1, 1.36765
306, 2, wb, attraction, a-b-db, 14, 1, 6, 19, 135, 60, 60, 135, 56, 125, 2, 0.615878
306, 2, wb, attraction, a-b-da, 5, 3, 6, 20, 190, 117, 195, 120, 120, 195, 1, 1.9969
306, 2, wb, attraction, a-b-da, 5, 3, 6, 20, 190, 117, 195, 120, 120, 195, 3, 0.419626
306, 2, wb, attraction, a-b-db, 5, 1, 6, 21, 135, 60, 60, 135, 58, 132, 1, 1.22477
306, 2, wb, attraction, a-b-db, 5, 1, 6, 21, 135, 60, 60, 135, 58, 132, 2, 2.0624
306, 2, wb, catch, NA, 999, 999, 6, 22, 113, 82, 149, 166, 95, 160, 1, 1.13698
306, 2, wb, catch, NA, 999, 999, 6, 22, 113, 82, 149, 166, 95, 160, 2, 0.378539
306, 2, wb, catch, NA, 999, 999, 6, 23, 94, 101, 131, 184, 91, 164, 1, 0.745095
306, 2, wb, catch, NA, 999, 999, 6, 23, 94, 101, 131, 184, 91, 164, 2, 0.322121
306, 2, wb, attraction, a-b-da, 5, 2, 6, 24, 161, 88, 165, 90, 90, 165, 2, 2.0513
306, 2, wb, attraction, a-b-da, 5, 2, 6, 24, 161, 88, 165, 90, 90, 165, 1, 0.295941
306, 2, wb, filler, NA, 999, 999, 6, 25, 146, 112, 140, 156, 124, 139, 1, 0.745787
306, 2, wb, filler, NA, 999, 999, 6, 25, 146, 112, 140, 156, 124, 139, 2, 0.266878
306, 2, wb, attraction, a-b-da, 5, 1, 6, 26, 132, 58, 135, 60, 60, 135, 2, 0.998046
306, 2, wb, attraction, a-b-da, 5, 1, 6, 26, 132, 58, 135, 60, 60, 135, 1, 0.373113
306, 2, wb, filler, NA, 999, 999, 6, 27, 127, 87, 133, 141, 121, 144, 1, 1.05156
306, 2, wb, filler, NA, 999, 999, 6, 27, 127, 87, 133, 141, 121, 144, 2, 0.288626
306, 2, wb, filler, NA, 999, 999, 6, 28, 158, 174, 151, 167, 56, 132, 3, 1.73113
306, 2, wb, filler, NA, 999, 999, 6, 28, 158, 174, 151, 167, 56, 132, 1, 1.10857
306, 2, wb, attraction, a-b-da, 9, 3, 6, 29, 120, 195, 195, 120, 186, 114, 1, 2.02941
306, 2, wb, attraction, a-b-da, 9, 3, 6, 29, 120, 195, 195, 120, 186, 114, 2, 0.610889
306, 2, wb, attraction, a-b-db, 9, 2, 6, 30, 165, 90, 90, 165, 86, 157, 1, 1.71196
306, 2, wb, attraction, a-b-db, 9, 2, 6, 30, 165, 90, 90, 165, 86, 157, 2, 0.682081
306, 2, wb, attraction, a-b-da, 14, 1, 6, 31, 135, 60, 60, 135, 125, 56, 1, 2.38833
306, 2, wb, attraction, a-b-da, 14, 1, 6, 31, 135, 60, 60, 135, 125, 56, 2, 0.890936
306, 2, wb, attraction, a-b-da, 9, 1, 6, 32, 60, 135, 129, 57, 135, 60, 1, 0.884589
306, 2, wb, attraction, a-b-da, 9, 1, 6, 32, 60, 135, 129, 57, 135, 60, 2, 1.16831
306, 2, wb, attraction, a-b-db, 5, 2, 6, 33, 88, 161, 90, 165, 165, 90, 1, 0.879199
306, 2, wb, attraction, a-b-db, 5, 2, 6, 33, 88, 161, 90, 165, 165, 90, 3, 0.394866
306, 2, wb, attraction, a-b-db, 2, 1, 6, 34, 135, 60, 60, 135, 59, 134, 2, 1.71279
306, 2, wb, attraction, a-b-db, 2, 1, 6, 34, 135, 60, 60, 135, 59, 134, 1, 0.820514
306, 2, wb, attraction, a-b-db, 5, 3, 6, 35, 195, 120, 117, 190, 120, 195, 1, 2.25585
306, 2, wb, attraction, a-b-db, 5, 3, 6, 35, 195, 120, 117, 190, 120, 195, 2, 0.395893
306, 2, wb, attraction, a-b-db, 14, 2, 6, 36, 83, 153, 165, 90, 90, 165, 1, 0.929688
306, 2, wb, attraction, a-b-db, 14, 2, 6, 36, 83, 153, 165, 90, 90, 165, 2, 0.595303
306, 2, wb, filler, NA, 999, 999, 6, 37, 111, 126, 88, 113, 153, 93, 2, 1.52105
306, 2, wb, filler, NA, 999, 999, 6, 37, 111, 126, 88, 113, 153, 93, 3, 0.71464
306, 2, wb, attraction, a-b-da, 9, 3, 7, 1, 186, 114, 120, 195, 195, 120, 2, 1.18752
306, 2, wb, attraction, a-b-da, 9, 3, 7, 1, 186, 114, 120, 195, 195, 120, 1, 0.378481
306, 2, wb, filler, NA, 999, 999, 7, 2, 120, 151, 147, 121, 63, 95, 3, 0.888963
306, 2, wb, filler, NA, 999, 999, 7, 2, 120, 151, 147, 121, 63, 95, 1, 0.372035
306, 2, wb, attraction, a-b-da, 14, 2, 7, 3, 165, 90, 153, 83, 90, 165, 2, 2.37128
306, 2, wb, attraction, a-b-da, 14, 2, 7, 3, 165, 90, 153, 83, 90, 165, 1, 0.522516
306, 2, wb, filler, NA, 999, 999, 7, 4, 102, 154, 62, 102, 69, 108, 2, 0.707507
306, 2, wb, filler, NA, 999, 999, 7, 4, 102, 154, 62, 102, 69, 108, 1, 0.293923
306, 2, wb, filler, NA, 999, 999, 7, 5, 97, 90, 173, 79, 71, 70, 3, 1.67186
306, 2, wb, filler, NA, 999, 999, 7, 5, 97, 90, 173, 79, 71, 70, 2, 0.339258
306, 2, wb, attraction, a-b-db, 5, 2, 7, 6, 90, 165, 88, 161, 165, 90, 3, 3.09944
306, 2, wb, attraction, a-b-db, 5, 2, 7, 6, 90, 165, 88, 161, 165, 90, 1, 0.677397
306, 2, wb, attraction, a-b-da, 5, 2, 7, 7, 161, 88, 90, 165, 165, 90, 1, 2.83195
306, 2, wb, attraction, a-b-da, 5, 2, 7, 7, 161, 88, 90, 165, 165, 90, 2, 0.388919
306, 2, wb, attraction, a-b-db, 2, 2, 7, 8, 89, 163, 90, 165, 165, 90, 2, 2.69941
306, 2, wb, attraction, a-b-db, 2, 2, 7, 8, 89, 163, 90, 165, 165, 90, 3, 0.957876
306, 2, wb, attraction, a-b-da, 14, 1, 7, 9, 125, 56, 60, 135, 135, 60, 1, 1.37285
306, 2, wb, attraction, a-b-da, 14, 1, 7, 9, 125, 56, 60, 135, 135, 60, 2, 0.284391
306, 2, wb, attraction, a-b-db, 9, 1, 7, 10, 135, 60, 57, 129, 60, 135, 1, 1.15093
306, 2, wb, attraction, a-b-db, 9, 1, 7, 10, 135, 60, 57, 129, 60, 135, 2, 0.263995
306, 2, wb, attraction, a-b-da, 9, 1, 7, 11, 60, 135, 129, 57, 135, 60, 1, 0.71516
306, 2, wb, attraction, a-b-da, 9, 1, 7, 11, 60, 135, 129, 57, 135, 60, 3, 0.621515
306, 2, wb, attraction, a-b-db, 9, 3, 7, 12, 114, 186, 120, 195, 195, 120, 1, 1.03458
306, 2, wb, attraction, a-b-db, 9, 3, 7, 12, 114, 186, 120, 195, 195, 120, 3, 0.840366
306, 2, wb, filler, NA, 999, 999, 7, 13, 130, 168, 80, 103, 118, 176, 2, 0.931847
306, 2, wb, filler, NA, 999, 999, 7, 13, 130, 168, 80, 103, 118, 176, 1, 0.277523
306, 2, wb, filler, NA, 999, 999, 7, 14, 166, 95, 86, 165, 193, 77, 2, 1.09608
306, 2, wb, filler, NA, 999, 999, 7, 14, 166, 95, 86, 165, 193, 77, 1, 0.40302
306, 2, wb, filler, NA, 999, 999, 7, 15, 192, 85, 128, 157, 142, 92, 3, 1.02486
306, 2, wb, filler, NA, 999, 999, 7, 15, 192, 85, 128, 157, 142, 92, 2, 0.470559
306, 2, wb, catch, NA, 999, 999, 7, 16, 163, 92, 81, 114, 127, 188, 2, 1.04162
306, 2, wb, catch, NA, 999, 999, 7, 16, 163, 92, 81, 114, 127, 188, 3, 0.83064
306, 2, wb, filler, NA, 999, 999, 7, 17, 154, 57, 138, 110, 163, 58, 1, 0.930985
306, 2, wb, filler, NA, 999, 999, 7, 17, 154, 57, 138, 110, 163, 58, 2, 0.428592
306, 2, wb, attraction, a-b-db, 14, 2, 7, 18, 90, 165, 83, 153, 165, 90, 3, 1.46516
306, 2, wb, attraction, a-b-db, 14, 2, 7, 18, 90, 165, 83, 153, 165, 90, 1, 0.581335
306, 2, wb, attraction, a-b-da, 9, 2, 7, 19, 165, 90, 157, 86, 90, 165, 2, 1.86776
306, 2, wb, attraction, a-b-da, 9, 2, 7, 19, 165, 90, 157, 86, 90, 165, 3, 0.927847
306, 2, wb, attraction, a-b-db, 9, 2, 7, 20, 86, 157, 90, 165, 165, 90, 1, 1.72827
306, 2, wb, attraction, a-b-db, 9, 2, 7, 20, 86, 157, 90, 165, 165, 90, 2, 0.529567
306, 2, wb, filler, NA, 999, 999, 7, 21, 110, 111, 97, 195, 147, 65, 1, 1.27407
306, 2, wb, filler, NA, 999, 999, 7, 21, 110, 111, 97, 195, 147, 65, 2, 0.501595
306, 2, wb, attraction, a-b-db, 2, 1, 7, 22, 59, 134, 60, 135, 135, 60, 1, 1.15136
306, 2, wb, attraction, a-b-db, 2, 1, 7, 22, 59, 134, 60, 135, 135, 60, 2, 0.392331
306, 2, wb, catch, NA, 999, 999, 7, 23, 161, 94, 139, 176, 65, 130, 3, 1.0621
306, 2, wb, catch, NA, 999, 999, 7, 23, 161, 94, 139, 176, 65, 130, 2, 0.562419
306, 2, wb, attraction, a-b-db, 14, 3, 7, 24, 120, 195, 195, 120, 111, 181, 2, 2.37761
306, 2, wb, attraction, a-b-db, 14, 3, 7, 24, 120, 195, 195, 120, 111, 181, 1, 0.488866
306, 2, wb, catch, NA, 999, 999, 7, 25, 122, 73, 181, 134, 144, 111, 1, 1.0752
306, 2, wb, catch, NA, 999, 999, 7, 25, 122, 73, 181, 134, 144, 111, 2, 0.430948
306, 2, wb, attraction, a-b-db, 2, 3, 7, 26, 120, 195, 119, 193, 195, 120, 2, 1.8273
306, 2, wb, attraction, a-b-db, 2, 3, 7, 26, 120, 195, 119, 193, 195, 120, 1, 0.504721
306, 2, wb, attraction, a-b-db, 14, 1, 7, 27, 135, 60, 56, 125, 60, 135, 2, 0.866457
306, 2, wb, attraction, a-b-db, 14, 1, 7, 27, 135, 60, 56, 125, 60, 135, 1, 0.550811
306, 2, wb, attraction, a-b-da, 2, 2, 7, 28, 163, 89, 165, 90, 90, 165, 2, 0.854629
306, 2, wb, attraction, a-b-da, 2, 2, 7, 28, 163, 89, 165, 90, 90, 165, 1, 0.403005
306, 2, wb, attraction, a-b-da, 2, 1, 7, 29, 135, 60, 60, 135, 134, 59, 1, 1.07274
306, 2, wb, attraction, a-b-da, 2, 1, 7, 29, 135, 60, 60, 135, 134, 59, 2, 0.356473
306, 2, wb, attraction, a-b-da, 2, 3, 7, 30, 195, 120, 193, 119, 120, 195, 1, 1.50755
306, 2, wb, attraction, a-b-da, 2, 3, 7, 30, 195, 120, 193, 119, 120, 195, 3, 0.373792
306, 2, wb, filler, NA, 999, 999, 7, 31, 189, 74, 152, 137, 189, 118, 1, 3.09236
306, 2, wb, filler, NA, 999, 999, 7, 31, 189, 74, 152, 137, 189, 118, 2, 0.310675
306, 2, wb, attraction, a-b-da, 5, 3, 7, 32, 190, 117, 120, 195, 195, 120, 1, 1.11977
306, 2, wb, attraction, a-b-da, 5, 3, 7, 32, 190, 117, 120, 195, 195, 120, 2, 0.314059
306, 2, wb, attraction, a-b-da, 14, 3, 7, 33, 195, 120, 181, 111, 120, 195, 2, 1.06731
306, 2, wb, attraction, a-b-da, 14, 3, 7, 33, 195, 120, 181, 111, 120, 195, 3, 0.343561
306, 2, wb, attraction, a-b-db, 5, 3, 7, 34, 195, 120, 117, 190, 120, 195, 1, 0.927365
306, 2, wb, attraction, a-b-db, 5, 3, 7, 34, 195, 120, 117, 190, 120, 195, 2, 0.32905
306, 2, wb, attraction, a-b-da, 5, 1, 7, 35, 135, 60, 132, 58, 60, 135, 2, 1.38571
306, 2, wb, attraction, a-b-da, 5, 1, 7, 35, 135, 60, 132, 58, 60, 135, 1, 0.537114
306, 2, wb, attraction, a-b-db, 5, 1, 7, 36, 58, 132, 135, 60, 60, 135, 2, 1.15358
306, 2, wb, attraction, a-b-db, 5, 1, 7, 36, 58, 132, 135, 60, 60, 135, 1, 0.570545
306, 2, wb, filler, NA, 999, 999, 7, 37, 156, 78, 165, 170, 161, 118, 1, 1.12956
306, 2, wb, filler, NA, 999, 999, 7, 37, 156, 78, 165, 170, 161, 118, 2, 0.403293
306, 2, wb, catch, NA, 999, 999, 8, 1, 102, 153, 147, 168, 104, 91, 3, 1.77709
306, 2, wb, catch, NA, 999, 999, 8, 1, 102, 153, 147, 168, 104, 91, 2, 0.736538
306, 2, wb, attraction, a-b-db, 2, 2, 8, 2, 165, 90, 90, 165, 89, 163, 1, 1.43281
306, 2, wb, attraction, a-b-db, 2, 2, 8, 2, 165, 90, 90, 165, 89, 163, 2, 1.41442
306, 2, wb, attraction, a-b-db, 14, 2, 8, 3, 165, 90, 90, 165, 83, 153, 1, 3.01118
306, 2, wb, attraction, a-b-db, 14, 2, 8, 3, 165, 90, 90, 165, 83, 153, 2, 0.528888
306, 2, wb, attraction, a-b-db, 9, 2, 8, 4, 86, 157, 90, 165, 165, 90, 1, 1.83348
306, 2, wb, attraction, a-b-db, 9, 2, 8, 4, 86, 157, 90, 165, 165, 90, 2, 0.334814
306, 2, wb, attraction, a-b-db, 2, 1, 8, 5, 60, 135, 59, 134, 135, 60, 1, 1.12735
306, 2, wb, attraction, a-b-db, 2, 1, 8, 5, 60, 135, 59, 134, 135, 60, 2, 0.920927
306, 2, wb, attraction, a-b-db, 14, 1, 8, 6, 56, 125, 60, 135, 135, 60, 1, 0.913823
306, 2, wb, attraction, a-b-db, 14, 1, 8, 6, 56, 125, 60, 135, 135, 60, 2, 0.332247
306, 2, wb, attraction, a-b-da, 5, 3, 8, 7, 195, 120, 190, 117, 120, 195, 2, 1.2927
306, 2, wb, attraction, a-b-da, 5, 3, 8, 7, 195, 120, 190, 117, 120, 195, 3, 0.495678
306, 2, wb, filler, NA, 999, 999, 8, 8, 127, 132, 120, 114, 110, 149, 2, 0.905454
306, 2, wb, filler, NA, 999, 999, 8, 8, 127, 132, 120, 114, 110, 149, 1, 0.371792
306, 2, wb, filler, NA, 999, 999, 8, 9, 135, 85, 157, 103, 76, 148, 3, 0.842963
306, 2, wb, filler, NA, 999, 999, 8, 9, 135, 85, 157, 103, 76, 148, 2, 0.512018
306, 2, wb, filler, NA, 999, 999, 8, 10, 62, 60, 148, 88, 127, 162, 1, 1.96902
306, 2, wb, filler, NA, 999, 999, 8, 10, 62, 60, 148, 88, 127, 162, 3, 0.697165
306, 2, wb, attraction, a-b-db, 14, 3, 8, 11, 120, 195, 111, 181, 195, 120, 2, 2.47485
306, 2, wb, attraction, a-b-db, 14, 3, 8, 11, 120, 195, 111, 181, 195, 120, 1, 0.630004
306, 2, wb, filler, NA, 999, 999, 8, 12, 70, 162, 149, 162, 172, 91, 1, 1.06644
306, 2, wb, filler, NA, 999, 999, 8, 12, 70, 162, 149, 162, 172, 91, 2, 0.446784
306, 2, wb, attraction, a-b-da, 9, 2, 8, 13, 157, 86, 165, 90, 90, 165, 2, 2.99456
306, 2, wb, attraction, a-b-da, 9, 2, 8, 13, 157, 86, 165, 90, 90, 165, 3, 0.361023
306, 2, wb, attraction, a-b-db, 5, 2, 8, 14, 165, 90, 90, 165, 88, 161, 1, 1.77605
306, 2, wb, attraction, a-b-db, 5, 2, 8, 14, 165, 90, 90, 165, 88, 161, 2, 0.351488
306, 2, wb, filler, NA, 999, 999, 8, 15, 121, 88, 99, 130, 164, 154, 1, 1.70331
306, 2, wb, filler, NA, 999, 999, 8, 15, 121, 88, 99, 130, 164, 154, 3, 0.815229
306, 2, wb, attraction, a-b-db, 2, 3, 8, 16, 120, 195, 119, 193, 195, 120, 2, 5.11915
306, 2, wb, attraction, a-b-db, 2, 3, 8, 16, 120, 195, 119, 193, 195, 120, 3, 0.856163
306, 2, wb, attraction, a-b-da, 14, 1, 8, 17, 135, 60, 125, 56, 60, 135, 2, 2.80313
306, 2, wb, attraction, a-b-da, 14, 1, 8, 17, 135, 60, 125, 56, 60, 135, 1, 0.537696
306, 2, wb, attraction, a-b-da, 14, 3, 8, 18, 181, 111, 120, 195, 195, 120, 1, 0.994073
306, 2, wb, attraction, a-b-da, 14, 3, 8, 18, 181, 111, 120, 195, 195, 120, 2, 0.297027
306, 2, wb, filler, NA, 999, 999, 8, 19, 187, 186, 100, 182, 110, 78, 3, 1.1229
306, 2, wb, filler, NA, 999, 999, 8, 19, 187, 186, 100, 182, 110, 78, 1, 0.484471
306, 2, wb, catch, NA, 999, 999, 8, 20, 129, 66, 168, 147, 143, 112, 1, 0.694927
306, 2, wb, catch, NA, 999, 999, 8, 20, 129, 66, 168, 147, 143, 112, 2, 0.282051
306, 2, wb, filler, NA, 999, 999, 8, 21, 176, 85, 154, 56, 157, 157, 2, 0.788549
306, 2, wb, filler, NA, 999, 999, 8, 21, 176, 85, 154, 56, 157, 157, 3, 0.347731
306, 2, wb, attraction, a-b-db, 5, 3, 8, 22, 120, 195, 195, 120, 117, 190, 1, 0.939494
306, 2, wb, attraction, a-b-db, 5, 3, 8, 22, 120, 195, 195, 120, 117, 190, 2, 1.12452
306, 2, wb, filler, NA, 999, 999, 8, 23, 148, 108, 77, 128, 137, 83, 2, 0.844697
306, 2, wb, filler, NA, 999, 999, 8, 23, 148, 108, 77, 128, 137, 83, 1, 0.449795
306, 2, wb, attraction, a-b-da, 2, 3, 8, 24, 195, 120, 193, 119, 120, 195, 2, 4.18158
306, 2, wb, attraction, a-b-da, 2, 3, 8, 24, 195, 120, 193, 119, 120, 195, 1, 0.484246
306, 2, wb, filler, NA, 999, 999, 8, 25, 74, 147, 80, 118, 73, 167, 2, 0.910723
306, 2, wb, filler, NA, 999, 999, 8, 25, 74, 147, 80, 118, 73, 167, 3, 0.473017
306, 2, wb, attraction, a-b-db, 9, 1, 8, 26, 60, 135, 135, 60, 57, 129, 3, 1.20346
306, 2, wb, attraction, a-b-db, 9, 1, 8, 26, 60, 135, 135, 60, 57, 129, 1, 0.714399
306, 2, wb, filler, NA, 999, 999, 8, 27, 109, 189, 142, 77, 182, 93, 2, 1.01148
306, 2, wb, filler, NA, 999, 999, 8, 27, 109, 189, 142, 77, 182, 93, 1, 0.465795
306, 2, wb, attraction, a-b-da, 5, 2, 8, 28, 90, 165, 165, 90, 161, 88, 2, 3.58104
306, 2, wb, attraction, a-b-da, 5, 2, 8, 28, 90, 165, 165, 90, 161, 88, 1, 0.339826
306, 2, wb, attraction, a-b-da, 14, 2, 8, 29, 90, 165, 165, 90, 153, 83, 2, 2.05165
306, 2, wb, attraction, a-b-da, 14, 2, 8, 29, 90, 165, 165, 90, 153, 83, 1, 0.40826
306, 2, wb, attraction, a-b-da, 2, 1, 8, 30, 134, 59, 135, 60, 60, 135, 1, 2.06943
306, 2, wb, attraction, a-b-da, 2, 1, 8, 30, 134, 59, 135, 60, 60, 135, 3, 0.409463
306, 2, wb, attraction, a-b-da, 9, 3, 8, 31, 195, 120, 186, 114, 120, 195, 2, 2.12662
306, 2, wb, attraction, a-b-da, 9, 3, 8, 31, 195, 120, 186, 114, 120, 195, 1, 0.415936
306, 2, wb, catch, NA, 999, 999, 8, 32, 139, 116, 141, 174, 100, 95, 3, 1.48503
306, 2, wb, catch, NA, 999, 999, 8, 32, 139, 116, 141, 174, 100, 95, 2, 0.280523
306, 2, wb, attraction, a-b-db, 9, 3, 8, 33, 120, 195, 114, 186, 195, 120, 2, 3.0831
306, 2, wb, attraction, a-b-db, 9, 3, 8, 33, 120, 195, 114, 186, 195, 120, 1, 0.862181
306, 2, wb, attraction, a-b-db, 5, 1, 8, 34, 60, 135, 58, 132, 135, 60, 2, 1.3051
306, 2, wb, attraction, a-b-db, 5, 1, 8, 34, 60, 135, 58, 132, 135, 60, 1, 1.46736
306, 2, wb, attraction, a-b-da, 2, 2, 8, 35, 163, 89, 165, 90, 90, 165, 2, 1.55016
306, 2, wb, attraction, a-b-da, 2, 2, 8, 35, 163, 89, 165, 90, 90, 165, 1, 0.886902
306, 2, wb, attraction, a-b-da, 5, 1, 8, 36, 60, 135, 132, 58, 135, 60, 2, 3.70535
306, 2, wb, attraction, a-b-da, 5, 1, 8, 36, 60, 135, 132, 58, 135, 60, 1, 0.510953
306, 2, wb, attraction, a-b-da, 9, 1, 8, 37, 129, 57, 60, 135, 135, 60, 2, 1.3885
306, 2, wb, attraction, a-b-da, 9, 1, 8, 37, 129, 57, 60, 135, 135, 60, 1, 0.459376
