sub_n, computer_n, bw_cond, effect, set, distance, diag, block_n, trial_n, h1, w1, h2, w2, h3, w3, choice, rt 
351, 2, bw, practice, NA, 999, 999, 0, 1, 174, 93, 97, 188, 72, 122, 2, 4.70959
351, 2, bw, practice, NA, 999, 999, 0, 1, 174, 93, 97, 188, 72, 122, 3, 2.52643
351, 2, bw, practice, NA, 999, 999, 0, 2, 90, 183, 87, 157, 72, 137, 1, 4.84321
351, 2, bw, practice, NA, 999, 999, 0, 2, 90, 183, 87, 157, 72, 137, 3, 1.31323
351, 2, bw, practice, NA, 999, 999, 0, 3, 123, 135, 78, 111, 123, 170, 3, 2.82937
351, 2, bw, practice, NA, 999, 999, 0, 3, 123, 135, 78, 111, 123, 170, 2, 1.21136
351, 2, bw, filler, NA, 999, 999, 1, 1, 102, 187, 88, 147, 120, 83, 1, 2.38651
351, 2, bw, filler, NA, 999, 999, 1, 1, 102, 187, 88, 147, 120, 83, 3, 1.19386
351, 2, bw, attraction, a-b-da, 14, 1, 1, 2, 125, 56, 60, 135, 135, 60, 2, 2.78344
351, 2, bw, attraction, a-b-da, 14, 1, 1, 2, 125, 56, 60, 135, 135, 60, 1, 0.974471
351, 2, bw, attraction, a-b-da, 9, 3, 1, 3, 120, 195, 186, 114, 195, 120, 2, 4.46874
351, 2, bw, attraction, a-b-da, 9, 3, 1, 3, 120, 195, 186, 114, 195, 120, 1, 5.51999
351, 2, bw, attraction, a-b-db, 14, 3, 1, 4, 111, 181, 120, 195, 195, 120, 2, 2.37552
351, 2, bw, attraction, a-b-db, 14, 3, 1, 4, 111, 181, 120, 195, 195, 120, 1, 2.83876
351, 2, bw, attraction, a-b-db, 5, 3, 1, 5, 195, 120, 117, 190, 120, 195, 2, 2.05044
351, 2, bw, attraction, a-b-db, 5, 3, 1, 5, 195, 120, 117, 190, 120, 195, 1, 7.60724
351, 2, bw, attraction, a-b-da, 14, 2, 1, 6, 165, 90, 90, 165, 153, 83, 2, 2.65072
351, 2, bw, attraction, a-b-da, 14, 2, 1, 6, 165, 90, 90, 165, 153, 83, 3, 1.15915
351, 2, bw, attraction, a-b-da, 2, 1, 1, 7, 134, 59, 135, 60, 60, 135, 2, 3.20609
351, 2, bw, attraction, a-b-da, 2, 1, 1, 7, 134, 59, 135, 60, 60, 135, 1, 0.635727
351, 2, bw, filler, NA, 999, 999, 1, 8, 100, 192, 175, 75, 84, 139, 1, 2.44014
351, 2, bw, filler, NA, 999, 999, 1, 8, 100, 192, 175, 75, 84, 139, 3, 0.668712
351, 2, bw, attraction, a-b-da, 5, 3, 1, 9, 120, 195, 190, 117, 195, 120, 1, 2.03179
351, 2, bw, attraction, a-b-da, 5, 3, 1, 9, 120, 195, 190, 117, 195, 120, 2, 0.997248
351, 2, bw, filler, NA, 999, 999, 1, 10, 120, 69, 169, 152, 122, 180, 2, 1.38675
351, 2, bw, filler, NA, 999, 999, 1, 10, 120, 69, 169, 152, 122, 180, 1, 0.482231
351, 2, bw, attraction, a-b-db, 2, 1, 1, 11, 59, 134, 135, 60, 60, 135, 1, 3.15689
351, 2, bw, attraction, a-b-db, 2, 1, 1, 11, 59, 134, 135, 60, 60, 135, 2, 1.09237
351, 2, bw, attraction, a-b-da, 5, 1, 1, 12, 132, 58, 60, 135, 135, 60, 2, 4.20594
351, 2, bw, attraction, a-b-da, 5, 1, 1, 12, 132, 58, 60, 135, 135, 60, 1, 1.97926
351, 2, bw, attraction, a-b-da, 14, 3, 1, 13, 120, 195, 181, 111, 195, 120, 1, 1.62536
351, 2, bw, attraction, a-b-da, 14, 3, 1, 13, 120, 195, 181, 111, 195, 120, 2, 0.726836
351, 2, bw, filler, NA, 999, 999, 1, 14, 97, 106, 98, 61, 119, 106, 3, 3.00714
351, 2, bw, filler, NA, 999, 999, 1, 14, 97, 106, 98, 61, 119, 106, 2, 0.684772
351, 2, bw, attraction, a-b-da, 9, 2, 1, 15, 165, 90, 157, 86, 90, 165, 3, 3.92723
351, 2, bw, attraction, a-b-da, 9, 2, 1, 15, 165, 90, 157, 86, 90, 165, 2, 0.488014
351, 2, bw, attraction, a-b-db, 14, 1, 1, 16, 56, 125, 60, 135, 135, 60, 2, 2.06642
351, 2, bw, attraction, a-b-db, 14, 1, 1, 16, 56, 125, 60, 135, 135, 60, 1, 0.66255
351, 2, bw, attraction, a-b-da, 5, 2, 1, 17, 90, 165, 161, 88, 165, 90, 1, 1.6175
351, 2, bw, attraction, a-b-da, 5, 2, 1, 17, 90, 165, 161, 88, 165, 90, 2, 1.64768
351, 2, bw, attraction, a-b-db, 9, 2, 1, 18, 86, 157, 90, 165, 165, 90, 2, 2.0352
351, 2, bw, attraction, a-b-db, 9, 2, 1, 18, 86, 157, 90, 165, 165, 90, 3, 1.75254
351, 2, bw, attraction, a-b-da, 9, 1, 1, 19, 60, 135, 135, 60, 129, 57, 1, 3.05589
351, 2, bw, attraction, a-b-da, 9, 1, 1, 19, 60, 135, 135, 60, 129, 57, 3, 0.579435
351, 2, bw, attraction, a-b-db, 2, 2, 1, 20, 89, 163, 90, 165, 165, 90, 2, 2.20994
351, 2, bw, attraction, a-b-db, 2, 2, 1, 20, 89, 163, 90, 165, 165, 90, 3, 1.51208
351, 2, bw, attraction, a-b-db, 5, 2, 1, 21, 165, 90, 90, 165, 88, 161, 2, 10.5126
351, 2, bw, attraction, a-b-db, 5, 2, 1, 21, 165, 90, 90, 165, 88, 161, 1, 2.12806
351, 2, bw, attraction, a-b-da, 2, 2, 1, 22, 90, 165, 163, 89, 165, 90, 1, 10.2321
351, 2, bw, attraction, a-b-da, 2, 2, 1, 22, 90, 165, 163, 89, 165, 90, 2, 1.03489
351, 2, bw, filler, NA, 999, 999, 1, 23, 78, 116, 159, 68, 177, 129, 3, 0.879153
351, 2, bw, filler, NA, 999, 999, 1, 23, 78, 116, 159, 68, 177, 129, 1, 0.490755
351, 2, bw, filler, NA, 999, 999, 1, 24, 161, 119, 94, 193, 187, 184, 3, 0.94847
351, 2, bw, filler, NA, 999, 999, 1, 24, 161, 119, 94, 193, 187, 184, 1, 0.893456
351, 2, bw, attraction, a-b-db, 9, 1, 1, 25, 60, 135, 57, 129, 135, 60, 2, 4.27131
351, 2, bw, attraction, a-b-db, 9, 1, 1, 25, 60, 135, 57, 129, 135, 60, 3, 0.513828
351, 2, bw, filler, NA, 999, 999, 1, 26, 152, 174, 89, 126, 109, 77, 1, 0.570835
351, 2, bw, filler, NA, 999, 999, 1, 26, 152, 174, 89, 126, 109, 77, 3, 1.03487
351, 2, bw, attraction, a-b-db, 5, 1, 1, 27, 58, 132, 60, 135, 135, 60, 2, 1.50299
351, 2, bw, attraction, a-b-db, 5, 1, 1, 27, 58, 132, 60, 135, 135, 60, 1, 2.72182
351, 2, bw, catch, NA, 999, 999, 1, 28, 162, 93, 113, 82, 175, 140, 3, 0.682336
351, 2, bw, catch, NA, 999, 999, 1, 28, 162, 93, 113, 82, 175, 140, 2, 0.470167
351, 2, bw, attraction, a-b-db, 14, 2, 1, 29, 165, 90, 83, 153, 90, 165, 1, 9.10517
351, 2, bw, attraction, a-b-db, 14, 2, 1, 29, 165, 90, 83, 153, 90, 165, 2, 0.329708
351, 2, bw, attraction, a-b-da, 2, 3, 1, 30, 193, 119, 120, 195, 195, 120, 2, 4.52232
351, 2, bw, attraction, a-b-da, 2, 3, 1, 30, 193, 119, 120, 195, 195, 120, 1, 3.85076
351, 2, bw, filler, NA, 999, 999, 1, 31, 189, 160, 166, 88, 134, 152, 1, 0.773405
351, 2, bw, filler, NA, 999, 999, 1, 31, 189, 160, 166, 88, 134, 152, 2, 0.413111
351, 2, bw, attraction, a-b-db, 9, 3, 1, 32, 114, 186, 195, 120, 120, 195, 3, 1.25029
351, 2, bw, attraction, a-b-db, 9, 3, 1, 32, 114, 186, 195, 120, 120, 195, 1, 1.26329
351, 2, bw, attraction, a-b-db, 2, 3, 1, 33, 195, 120, 120, 195, 119, 193, 2, 2.05013
351, 2, bw, attraction, a-b-db, 2, 3, 1, 33, 195, 120, 120, 195, 119, 193, 1, 0.446843
351, 2, bw, filler, NA, 999, 999, 1, 34, 143, 149, 137, 89, 116, 115, 1, 0.80258
351, 2, bw, filler, NA, 999, 999, 1, 34, 143, 149, 137, 89, 116, 115, 3, 0.585736
351, 2, bw, filler, NA, 999, 999, 1, 35, 178, 96, 191, 103, 87, 119, 2, 1.26405
351, 2, bw, filler, NA, 999, 999, 1, 35, 178, 96, 191, 103, 87, 119, 3, 0.492259
351, 2, bw, catch, NA, 999, 999, 1, 36, 168, 147, 106, 149, 89, 106, 1, 0.622019
351, 2, bw, catch, NA, 999, 999, 1, 36, 168, 147, 106, 149, 89, 106, 3, 0.427853
351, 2, bw, catch, NA, 999, 999, 1, 37, 132, 123, 182, 133, 91, 104, 2, 0.888478
351, 2, bw, catch, NA, 999, 999, 1, 37, 132, 123, 182, 133, 91, 104, 3, 0.371286
351, 2, bw, attraction, a-b-db, 2, 1, 2, 1, 135, 60, 59, 134, 60, 135, 2, 1.94654
351, 2, bw, attraction, a-b-db, 2, 1, 2, 1, 135, 60, 59, 134, 60, 135, 1, 0.915214
351, 2, bw, attraction, a-b-da, 14, 3, 2, 2, 120, 195, 181, 111, 195, 120, 1, 1.01226
351, 2, bw, attraction, a-b-da, 14, 3, 2, 2, 120, 195, 181, 111, 195, 120, 2, 0.618509
351, 2, bw, catch, NA, 999, 999, 2, 3, 104, 151, 159, 156, 129, 66, 2, 0.727643
351, 2, bw, catch, NA, 999, 999, 2, 3, 104, 151, 159, 156, 129, 66, 3, 0.329332
351, 2, bw, attraction, a-b-da, 9, 2, 2, 4, 157, 86, 165, 90, 90, 165, 3, 1.50594
351, 2, bw, attraction, a-b-da, 9, 2, 2, 4, 157, 86, 165, 90, 90, 165, 1, 0.428047
351, 2, bw, filler, NA, 999, 999, 2, 5, 131, 84, 190, 80, 189, 149, 3, 0.576496
351, 2, bw, filler, NA, 999, 999, 2, 5, 131, 84, 190, 80, 189, 149, 1, 0.392269
351, 2, bw, attraction, a-b-da, 14, 1, 2, 6, 135, 60, 125, 56, 60, 135, 3, 1.66212
351, 2, bw, attraction, a-b-da, 14, 1, 2, 6, 135, 60, 125, 56, 60, 135, 2, 0.410137
351, 2, bw, attraction, a-b-da, 14, 2, 2, 7, 153, 83, 90, 165, 165, 90, 2, 1.43136
351, 2, bw, attraction, a-b-da, 14, 2, 2, 7, 153, 83, 90, 165, 165, 90, 1, 0.716873
351, 2, bw, attraction, a-b-da, 9, 3, 2, 8, 120, 195, 195, 120, 186, 114, 1, 1.78997
351, 2, bw, attraction, a-b-da, 9, 3, 2, 8, 120, 195, 195, 120, 186, 114, 3, 0.948694
351, 2, bw, attraction, a-b-db, 2, 3, 2, 9, 120, 195, 119, 193, 195, 120, 2, 2.16437
351, 2, bw, attraction, a-b-db, 2, 3, 2, 9, 120, 195, 119, 193, 195, 120, 3, 2.26035
351, 2, bw, attraction, a-b-db, 2, 2, 2, 10, 90, 165, 165, 90, 89, 163, 3, 1.33497
351, 2, bw, attraction, a-b-db, 2, 2, 2, 10, 90, 165, 165, 90, 89, 163, 1, 0.424466
351, 2, bw, attraction, a-b-db, 5, 2, 2, 11, 88, 161, 90, 165, 165, 90, 2, 1.45305
351, 2, bw, attraction, a-b-db, 5, 2, 2, 11, 88, 161, 90, 165, 165, 90, 3, 0.98587
351, 2, bw, attraction, a-b-db, 5, 3, 2, 12, 195, 120, 117, 190, 120, 195, 2, 1.1523
351, 2, bw, attraction, a-b-db, 5, 3, 2, 12, 195, 120, 117, 190, 120, 195, 1, 2.08114
351, 2, bw, filler, NA, 999, 999, 2, 13, 139, 158, 98, 116, 74, 145, 1, 0.802952
351, 2, bw, filler, NA, 999, 999, 2, 13, 139, 158, 98, 116, 74, 145, 2, 0.513991
351, 2, bw, attraction, a-b-da, 5, 1, 2, 14, 60, 135, 132, 58, 135, 60, 3, 2.13928
351, 2, bw, attraction, a-b-da, 5, 1, 2, 14, 60, 135, 132, 58, 135, 60, 2, 0.787848
351, 2, bw, attraction, a-b-db, 14, 3, 2, 15, 195, 120, 111, 181, 120, 195, 2, 1.37011
351, 2, bw, attraction, a-b-db, 14, 3, 2, 15, 195, 120, 111, 181, 120, 195, 1, 2.64974
351, 2, bw, catch, NA, 999, 999, 2, 16, 151, 164, 165, 90, 123, 72, 1, 0.884793
351, 2, bw, catch, NA, 999, 999, 2, 16, 151, 164, 165, 90, 123, 72, 3, 0.824509
351, 2, bw, filler, NA, 999, 999, 2, 17, 117, 108, 155, 169, 100, 96, 2, 0.572866
351, 2, bw, filler, NA, 999, 999, 2, 17, 117, 108, 155, 169, 100, 96, 3, 0.804692
351, 2, bw, filler, NA, 999, 999, 2, 18, 58, 193, 160, 180, 127, 155, 2, 1.47432
351, 2, bw, filler, NA, 999, 999, 2, 18, 58, 193, 160, 180, 127, 155, 1, 2.11784
351, 2, bw, attraction, a-b-db, 9, 2, 2, 19, 90, 165, 165, 90, 86, 157, 1, 1.76644
351, 2, bw, attraction, a-b-db, 9, 2, 2, 19, 90, 165, 165, 90, 86, 157, 3, 0.582525
351, 2, bw, filler, NA, 999, 999, 2, 20, 104, 118, 123, 125, 75, 149, 2, 3.38912
351, 2, bw, filler, NA, 999, 999, 2, 20, 104, 118, 123, 125, 75, 149, 1, 0.339182
351, 2, bw, attraction, a-b-db, 5, 1, 2, 21, 135, 60, 60, 135, 58, 132, 2, 2.46775
351, 2, bw, attraction, a-b-db, 5, 1, 2, 21, 135, 60, 60, 135, 58, 132, 1, 0.431648
351, 2, bw, attraction, a-b-da, 5, 3, 2, 22, 195, 120, 190, 117, 120, 195, 3, 1.0441
351, 2, bw, attraction, a-b-da, 5, 3, 2, 22, 195, 120, 190, 117, 120, 195, 2, 0.737091
351, 2, bw, attraction, a-b-db, 9, 3, 2, 23, 195, 120, 120, 195, 114, 186, 2, 2.88943
351, 2, bw, attraction, a-b-db, 9, 3, 2, 23, 195, 120, 120, 195, 114, 186, 1, 0.62786
351, 2, bw, filler, NA, 999, 999, 2, 24, 69, 133, 158, 189, 96, 102, 2, 0.792273
351, 2, bw, filler, NA, 999, 999, 2, 24, 69, 133, 158, 189, 96, 102, 3, 0.319676
351, 2, bw, attraction, a-b-db, 14, 1, 2, 25, 60, 135, 135, 60, 56, 125, 1, 1.45659
351, 2, bw, attraction, a-b-db, 14, 1, 2, 25, 60, 135, 135, 60, 56, 125, 2, 0.604648
351, 2, bw, attraction, a-b-da, 5, 2, 2, 26, 161, 88, 90, 165, 165, 90, 2, 1.45839
351, 2, bw, attraction, a-b-da, 5, 2, 2, 26, 161, 88, 90, 165, 165, 90, 1, 1.19057
351, 2, bw, filler, NA, 999, 999, 2, 27, 172, 149, 73, 182, 169, 140, 1, 2.02814
351, 2, bw, filler, NA, 999, 999, 2, 27, 172, 149, 73, 182, 169, 140, 2, 0.425504
351, 2, bw, catch, NA, 999, 999, 2, 28, 123, 132, 193, 122, 119, 76, 2, 2.17401
351, 2, bw, catch, NA, 999, 999, 2, 28, 123, 132, 193, 122, 119, 76, 3, 0.301313
351, 2, bw, attraction, a-b-db, 9, 1, 2, 29, 135, 60, 57, 129, 60, 135, 2, 1.14314
351, 2, bw, attraction, a-b-db, 9, 1, 2, 29, 135, 60, 57, 129, 60, 135, 1, 0.607992
351, 2, bw, attraction, a-b-da, 9, 1, 2, 30, 129, 57, 135, 60, 60, 135, 2, 1.10117
351, 2, bw, attraction, a-b-da, 9, 1, 2, 30, 129, 57, 135, 60, 60, 135, 1, 0.896126
351, 2, bw, attraction, a-b-da, 2, 2, 2, 31, 90, 165, 165, 90, 163, 89, 1, 2.55379
351, 2, bw, attraction, a-b-da, 2, 2, 2, 31, 90, 165, 165, 90, 163, 89, 3, 0.354388
351, 2, bw, attraction, a-b-da, 2, 3, 2, 32, 193, 119, 120, 195, 195, 120, 3, 2.33816
351, 2, bw, attraction, a-b-da, 2, 3, 2, 32, 193, 119, 120, 195, 195, 120, 1, 2.96264
351, 2, bw, attraction, a-b-da, 2, 1, 2, 33, 60, 135, 134, 59, 135, 60, 2, 1.08104
351, 2, bw, attraction, a-b-da, 2, 1, 2, 33, 60, 135, 134, 59, 135, 60, 3, 0.620671
351, 2, bw, attraction, a-b-db, 14, 2, 2, 34, 165, 90, 90, 165, 83, 153, 2, 1.27383
351, 2, bw, attraction, a-b-db, 14, 2, 2, 34, 165, 90, 90, 165, 83, 153, 3, 0.373301
351, 2, bw, filler, NA, 999, 999, 2, 35, 87, 83, 179, 73, 84, 180, 3, 3.13986
351, 2, bw, filler, NA, 999, 999, 2, 35, 87, 83, 179, 73, 84, 180, 1, 0.444087
351, 2, bw, filler, NA, 999, 999, 2, 36, 59, 71, 93, 129, 90, 171, 3, 0.823923
351, 2, bw, filler, NA, 999, 999, 2, 36, 59, 71, 93, 129, 90, 171, 1, 0.477625
351, 2, bw, filler, NA, 999, 999, 2, 37, 66, 189, 152, 133, 97, 104, 2, 2.1522
351, 2, bw, filler, NA, 999, 999, 2, 37, 66, 189, 152, 133, 97, 104, 3, 1.3848
351, 2, bw, filler, NA, 999, 999, 3, 1, 126, 130, 139, 86, 191, 185, 3, 0.710907
351, 2, bw, filler, NA, 999, 999, 3, 1, 126, 130, 139, 86, 191, 185, 2, 0.849467
351, 2, bw, attraction, a-b-db, 14, 2, 3, 2, 165, 90, 90, 165, 83, 153, 2, 1.78906
351, 2, bw, attraction, a-b-db, 14, 2, 3, 2, 165, 90, 90, 165, 83, 153, 3, 2.3447
351, 2, bw, attraction, a-b-da, 14, 2, 3, 3, 90, 165, 165, 90, 153, 83, 1, 2.34707
351, 2, bw, attraction, a-b-da, 14, 2, 3, 3, 90, 165, 165, 90, 153, 83, 3, 0.491505
351, 2, bw, attraction, a-b-db, 5, 2, 3, 4, 88, 161, 165, 90, 90, 165, 3, 1.05343
351, 2, bw, attraction, a-b-db, 5, 2, 3, 4, 88, 161, 165, 90, 90, 165, 2, 0.905767
351, 2, bw, attraction, a-b-da, 14, 3, 3, 5, 181, 111, 120, 195, 195, 120, 2, 2.80327
351, 2, bw, attraction, a-b-da, 14, 3, 3, 5, 181, 111, 120, 195, 195, 120, 1, 0.753735
351, 2, bw, attraction, a-b-da, 5, 2, 3, 6, 165, 90, 90, 165, 161, 88, 2, 4.91345
351, 2, bw, attraction, a-b-da, 5, 2, 3, 6, 165, 90, 90, 165, 161, 88, 1, 3.54657
351, 2, bw, filler, NA, 999, 999, 3, 7, 124, 178, 178, 137, 131, 71, 2, 1.35338
351, 2, bw, filler, NA, 999, 999, 3, 7, 124, 178, 178, 137, 131, 71, 3, 0.401587
351, 2, bw, attraction, a-b-da, 2, 3, 3, 8, 120, 195, 193, 119, 195, 120, 3, 1.28741
351, 2, bw, attraction, a-b-da, 2, 3, 3, 8, 120, 195, 193, 119, 195, 120, 1, 0.458282
351, 2, bw, attraction, a-b-da, 2, 2, 3, 9, 90, 165, 165, 90, 163, 89, 2, 2.20541
351, 2, bw, attraction, a-b-da, 2, 2, 3, 9, 90, 165, 165, 90, 163, 89, 3, 0.291396
351, 2, bw, attraction, a-b-db, 5, 3, 3, 10, 117, 190, 120, 195, 195, 120, 3, 4.06922
351, 2, bw, attraction, a-b-db, 5, 3, 3, 10, 117, 190, 120, 195, 195, 120, 1, 0.376609
351, 2, bw, attraction, a-b-db, 9, 3, 3, 11, 195, 120, 120, 195, 114, 186, 1, 8.65506
351, 2, bw, attraction, a-b-db, 9, 3, 3, 11, 195, 120, 120, 195, 114, 186, 3, 0.76174
351, 2, bw, attraction, a-b-da, 9, 2, 3, 12, 90, 165, 165, 90, 157, 86, 2, 3.00071
351, 2, bw, attraction, a-b-da, 9, 2, 3, 12, 90, 165, 165, 90, 157, 86, 1, 0.631039
351, 2, bw, attraction, a-b-da, 9, 1, 3, 13, 135, 60, 60, 135, 129, 57, 2, 2.45154
351, 2, bw, attraction, a-b-da, 9, 1, 3, 13, 135, 60, 60, 135, 129, 57, 3, 0.464092
351, 2, bw, filler, NA, 999, 999, 3, 14, 128, 94, 113, 64, 159, 94, 3, 0.851149
351, 2, bw, filler, NA, 999, 999, 3, 14, 128, 94, 113, 64, 159, 94, 2, 0.432177
351, 2, bw, attraction, a-b-da, 9, 3, 3, 15, 120, 195, 186, 114, 195, 120, 2, 0.940807
351, 2, bw, attraction, a-b-da, 9, 3, 3, 15, 120, 195, 186, 114, 195, 120, 1, 0.469688
351, 2, bw, attraction, a-b-db, 14, 3, 3, 16, 111, 181, 120, 195, 195, 120, 2, 1.51283
351, 2, bw, attraction, a-b-db, 14, 3, 3, 16, 111, 181, 120, 195, 195, 120, 1, 0.387014
351, 2, bw, filler, NA, 999, 999, 3, 17, 72, 192, 157, 97, 84, 133, 2, 1.4975
351, 2, bw, filler, NA, 999, 999, 3, 17, 72, 192, 157, 97, 84, 133, 3, 0.876422
351, 2, bw, filler, NA, 999, 999, 3, 18, 187, 74, 177, 194, 66, 101, 2, 0.614652
351, 2, bw, filler, NA, 999, 999, 3, 18, 187, 74, 177, 194, 66, 101, 3, 0.557096
351, 2, bw, filler, NA, 999, 999, 3, 19, 165, 80, 148, 120, 115, 99, 2, 1.50821
351, 2, bw, filler, NA, 999, 999, 3, 19, 165, 80, 148, 120, 115, 99, 3, 4.77455
351, 2, bw, attraction, a-b-db, 5, 1, 3, 20, 58, 132, 135, 60, 60, 135, 2, 1.75556
351, 2, bw, attraction, a-b-db, 5, 1, 3, 20, 58, 132, 135, 60, 60, 135, 1, 1.15562
351, 2, bw, filler, NA, 999, 999, 3, 21, 83, 74, 153, 112, 160, 95, 2, 1.17919
351, 2, bw, filler, NA, 999, 999, 3, 21, 83, 74, 153, 112, 160, 95, 1, 0.554787
351, 2, bw, attraction, a-b-da, 5, 3, 3, 22, 190, 117, 120, 195, 195, 120, 2, 1.53054
351, 2, bw, attraction, a-b-da, 5, 3, 3, 22, 190, 117, 120, 195, 195, 120, 1, 1.95609
351, 2, bw, attraction, a-b-da, 14, 1, 3, 23, 125, 56, 60, 135, 135, 60, 2, 2.20337
351, 2, bw, attraction, a-b-da, 14, 1, 3, 23, 125, 56, 60, 135, 135, 60, 1, 0.346118
351, 2, bw, catch, NA, 999, 999, 3, 24, 75, 120, 144, 111, 185, 130, 3, 0.681791
351, 2, bw, catch, NA, 999, 999, 3, 24, 75, 120, 144, 111, 185, 130, 1, 0.597499
351, 2, bw, attraction, a-b-db, 2, 2, 3, 25, 165, 90, 89, 163, 90, 165, 2, 2.11534
351, 2, bw, attraction, a-b-db, 2, 2, 3, 25, 165, 90, 89, 163, 90, 165, 1, 0.549497
351, 2, bw, attraction, a-b-db, 9, 1, 3, 26, 60, 135, 135, 60, 57, 129, 1, 4.11708
351, 2, bw, attraction, a-b-db, 9, 1, 3, 26, 60, 135, 135, 60, 57, 129, 2, 0.40645
351, 2, bw, catch, NA, 999, 999, 3, 27, 179, 136, 110, 145, 83, 112, 1, 0.763594
351, 2, bw, catch, NA, 999, 999, 3, 27, 179, 136, 110, 145, 83, 112, 3, 0.457531
351, 2, bw, catch, NA, 999, 999, 3, 28, 96, 159, 120, 195, 71, 124, 2, 0.703181
351, 2, bw, catch, NA, 999, 999, 3, 28, 96, 159, 120, 195, 71, 124, 3, 0.378264
351, 2, bw, attraction, a-b-da, 2, 1, 3, 29, 135, 60, 60, 135, 134, 59, 2, 1.22471
351, 2, bw, attraction, a-b-da, 2, 1, 3, 29, 135, 60, 60, 135, 134, 59, 3, 0.774293
351, 2, bw, attraction, a-b-da, 5, 1, 3, 30, 60, 135, 132, 58, 135, 60, 1, 1.3647
351, 2, bw, attraction, a-b-da, 5, 1, 3, 30, 60, 135, 132, 58, 135, 60, 2, 0.420808
351, 2, bw, attraction, a-b-db, 2, 3, 3, 31, 195, 120, 120, 195, 119, 193, 1, 3.59425
351, 2, bw, attraction, a-b-db, 2, 3, 3, 31, 195, 120, 120, 195, 119, 193, 2, 0.864285
351, 2, bw, filler, NA, 999, 999, 3, 32, 102, 92, 113, 60, 119, 192, 3, 0.739293
351, 2, bw, filler, NA, 999, 999, 3, 32, 102, 92, 113, 60, 119, 192, 2, 0.756299
351, 2, bw, attraction, a-b-db, 9, 2, 3, 33, 86, 157, 90, 165, 165, 90, 2, 1.79538
351, 2, bw, attraction, a-b-db, 9, 2, 3, 33, 86, 157, 90, 165, 165, 90, 3, 1.07412
351, 2, bw, filler, NA, 999, 999, 3, 34, 176, 148, 144, 177, 194, 195, 3, 0.812365
351, 2, bw, filler, NA, 999, 999, 3, 34, 176, 148, 144, 177, 194, 195, 2, 0.570696
351, 2, bw, attraction, a-b-db, 14, 1, 3, 35, 135, 60, 60, 135, 56, 125, 2, 1.96184
351, 2, bw, attraction, a-b-db, 14, 1, 3, 35, 135, 60, 60, 135, 56, 125, 3, 1.10594
351, 2, bw, filler, NA, 999, 999, 3, 36, 146, 68, 155, 176, 146, 56, 2, 1.19548
351, 2, bw, filler, NA, 999, 999, 3, 36, 146, 68, 155, 176, 146, 56, 1, 0.458307
351, 2, bw, attraction, a-b-db, 2, 1, 3, 37, 60, 135, 135, 60, 59, 134, 2, 2.95753
351, 2, bw, attraction, a-b-db, 2, 1, 3, 37, 60, 135, 135, 60, 59, 134, 3, 0.421215
351, 2, bw, attraction, a-b-db, 14, 1, 4, 1, 60, 135, 56, 125, 135, 60, 3, 0.866418
351, 2, bw, attraction, a-b-db, 14, 1, 4, 1, 60, 135, 56, 125, 135, 60, 2, 0.494714
351, 2, bw, attraction, a-b-da, 2, 3, 4, 2, 120, 195, 193, 119, 195, 120, 1, 2.04051
351, 2, bw, attraction, a-b-da, 2, 3, 4, 2, 120, 195, 193, 119, 195, 120, 2, 1.22914
351, 2, bw, attraction, a-b-db, 9, 2, 4, 3, 165, 90, 90, 165, 86, 157, 2, 1.37739
351, 2, bw, attraction, a-b-db, 9, 2, 4, 3, 165, 90, 90, 165, 86, 157, 1, 0.400884
351, 2, bw, filler, NA, 999, 999, 4, 4, 64, 60, 59, 121, 140, 78, 3, 1.07091
351, 2, bw, filler, NA, 999, 999, 4, 4, 64, 60, 59, 121, 140, 78, 1, 0.57849
351, 2, bw, attraction, a-b-db, 2, 1, 4, 5, 59, 134, 60, 135, 135, 60, 2, 6.74483
351, 2, bw, attraction, a-b-db, 2, 1, 4, 5, 59, 134, 60, 135, 135, 60, 3, 0.888078
351, 2, bw, filler, NA, 999, 999, 4, 6, 96, 179, 130, 187, 189, 177, 3, 0.826446
351, 2, bw, filler, NA, 999, 999, 4, 6, 96, 179, 130, 187, 189, 177, 1, 0.600107
351, 2, bw, filler, NA, 999, 999, 4, 7, 64, 170, 61, 139, 74, 178, 3, 0.821898
351, 2, bw, filler, NA, 999, 999, 4, 7, 64, 170, 61, 139, 74, 178, 2, 0.387514
351, 2, bw, attraction, a-b-db, 2, 3, 4, 8, 195, 120, 119, 193, 120, 195, 1, 2.17013
351, 2, bw, attraction, a-b-db, 2, 3, 4, 8, 195, 120, 119, 193, 120, 195, 3, 0.698015
351, 2, bw, attraction, a-b-da, 14, 2, 4, 9, 165, 90, 153, 83, 90, 165, 3, 1.7558
351, 2, bw, attraction, a-b-da, 14, 2, 4, 9, 165, 90, 153, 83, 90, 165, 2, 0.467803
351, 2, bw, attraction, a-b-db, 2, 2, 4, 10, 89, 163, 90, 165, 165, 90, 1, 1.39899
351, 2, bw, attraction, a-b-db, 2, 2, 4, 10, 89, 163, 90, 165, 165, 90, 3, 2.99785
351, 2, bw, filler, NA, 999, 999, 4, 11, 98, 115, 99, 64, 183, 93, 3, 1.55487
351, 2, bw, filler, NA, 999, 999, 4, 11, 98, 115, 99, 64, 183, 93, 2, 0.322983
351, 2, bw, attraction, a-b-da, 9, 1, 4, 12, 129, 57, 60, 135, 135, 60, 2, 2.33944
351, 2, bw, attraction, a-b-da, 9, 1, 4, 12, 129, 57, 60, 135, 135, 60, 3, 0.428283
351, 2, bw, catch, NA, 999, 999, 4, 13, 98, 97, 153, 162, 127, 128, 2, 0.952519
351, 2, bw, catch, NA, 999, 999, 4, 13, 98, 97, 153, 162, 127, 128, 1, 0.417459
351, 2, bw, attraction, a-b-da, 9, 2, 4, 14, 157, 86, 165, 90, 90, 165, 3, 1.26279
351, 2, bw, attraction, a-b-da, 9, 2, 4, 14, 157, 86, 165, 90, 90, 165, 1, 1.299
351, 2, bw, attraction, a-b-da, 2, 1, 4, 15, 135, 60, 60, 135, 134, 59, 1, 1.95644
351, 2, bw, attraction, a-b-da, 2, 1, 4, 15, 135, 60, 60, 135, 134, 59, 2, 0.380447
351, 2, bw, filler, NA, 999, 999, 4, 16, 172, 78, 185, 88, 124, 75, 2, 0.754963
351, 2, bw, filler, NA, 999, 999, 4, 16, 172, 78, 185, 88, 124, 75, 3, 0.323318
351, 2, bw, attraction, a-b-db, 5, 1, 4, 17, 135, 60, 58, 132, 60, 135, 2, 1.83584
351, 2, bw, attraction, a-b-db, 5, 1, 4, 17, 135, 60, 58, 132, 60, 135, 1, 2.93727
351, 2, bw, attraction, a-b-db, 5, 3, 4, 18, 120, 195, 195, 120, 117, 190, 1, 1.93695
351, 2, bw, attraction, a-b-db, 5, 3, 4, 18, 120, 195, 195, 120, 117, 190, 2, 0.761691
351, 2, bw, filler, NA, 999, 999, 4, 19, 187, 136, 97, 117, 146, 98, 1, 0.584697
351, 2, bw, filler, NA, 999, 999, 4, 19, 187, 136, 97, 117, 146, 98, 2, 0.480467
351, 2, bw, filler, NA, 999, 999, 4, 20, 127, 154, 150, 124, 64, 144, 2, 1.58702
351, 2, bw, filler, NA, 999, 999, 4, 20, 127, 154, 150, 124, 64, 144, 3, 1.31389
351, 2, bw, filler, NA, 999, 999, 4, 21, 131, 152, 134, 171, 91, 109, 2, 1.0746
351, 2, bw, filler, NA, 999, 999, 4, 21, 131, 152, 134, 171, 91, 109, 3, 0.510262
351, 2, bw, attraction, a-b-da, 2, 2, 4, 22, 163, 89, 90, 165, 165, 90, 2, 3.78341
351, 2, bw, attraction, a-b-da, 2, 2, 4, 22, 163, 89, 90, 165, 165, 90, 1, 0.814137
351, 2, bw, attraction, a-b-db, 9, 3, 4, 23, 114, 186, 120, 195, 195, 120, 2, 1.2193
351, 2, bw, attraction, a-b-db, 9, 3, 4, 23, 114, 186, 120, 195, 195, 120, 1, 4.56162
351, 2, bw, attraction, a-b-da, 14, 1, 4, 24, 125, 56, 60, 135, 135, 60, 2, 2.76726
351, 2, bw, attraction, a-b-da, 14, 1, 4, 24, 125, 56, 60, 135, 135, 60, 3, 0.68721
351, 2, bw, filler, NA, 999, 999, 4, 25, 121, 88, 127, 101, 87, 90, 2, 1.08157
351, 2, bw, filler, NA, 999, 999, 4, 25, 121, 88, 127, 101, 87, 90, 3, 0.541027
351, 2, bw, attraction, a-b-db, 5, 2, 4, 26, 88, 161, 165, 90, 90, 165, 3, 1.00488
351, 2, bw, attraction, a-b-db, 5, 2, 4, 26, 88, 161, 165, 90, 90, 165, 1, 0.41125
351, 2, bw, catch, NA, 999, 999, 4, 27, 107, 148, 125, 190, 124, 71, 2, 0.912348
351, 2, bw, catch, NA, 999, 999, 4, 27, 107, 148, 125, 190, 124, 71, 3, 1.10673
351, 2, bw, attraction, a-b-da, 9, 3, 4, 28, 195, 120, 186, 114, 120, 195, 1, 1.5076
351, 2, bw, attraction, a-b-da, 9, 3, 4, 28, 195, 120, 186, 114, 120, 195, 2, 0.49376
351, 2, bw, attraction, a-b-da, 5, 3, 4, 29, 190, 117, 120, 195, 195, 120, 2, 1.60752
351, 2, bw, attraction, a-b-da, 5, 3, 4, 29, 190, 117, 120, 195, 195, 120, 1, 1.4697
351, 2, bw, catch, NA, 999, 999, 4, 30, 110, 145, 75, 120, 160, 155, 3, 0.672449
351, 2, bw, catch, NA, 999, 999, 4, 30, 110, 145, 75, 120, 160, 155, 2, 0.412203
351, 2, bw, attraction, a-b-db, 14, 3, 4, 31, 111, 181, 195, 120, 120, 195, 3, 1.70547
351, 2, bw, attraction, a-b-db, 14, 3, 4, 31, 111, 181, 195, 120, 120, 195, 2, 0.699654
351, 2, bw, filler, NA, 999, 999, 4, 32, 56, 147, 119, 64, 169, 160, 3, 0.541315
351, 2, bw, filler, NA, 999, 999, 4, 32, 56, 147, 119, 64, 169, 160, 2, 0.454437
351, 2, bw, attraction, a-b-da, 5, 1, 4, 33, 132, 58, 135, 60, 60, 135, 2, 1.15413
351, 2, bw, attraction, a-b-da, 5, 1, 4, 33, 132, 58, 135, 60, 60, 135, 3, 0.362544
351, 2, bw, attraction, a-b-db, 14, 2, 4, 34, 165, 90, 90, 165, 83, 153, 2, 2.12163
351, 2, bw, attraction, a-b-db, 14, 2, 4, 34, 165, 90, 90, 165, 83, 153, 3, 0.331002
351, 2, bw, attraction, a-b-da, 14, 3, 4, 35, 120, 195, 195, 120, 181, 111, 1, 1.29148
351, 2, bw, attraction, a-b-da, 14, 3, 4, 35, 120, 195, 195, 120, 181, 111, 3, 1.07839
351, 2, bw, attraction, a-b-db, 9, 1, 4, 36, 135, 60, 57, 129, 60, 135, 2, 2.82463
351, 2, bw, attraction, a-b-db, 9, 1, 4, 36, 135, 60, 57, 129, 60, 135, 3, 1.28585
351, 2, bw, attraction, a-b-da, 5, 2, 4, 37, 161, 88, 90, 165, 165, 90, 2, 1.77599
351, 2, bw, attraction, a-b-da, 5, 2, 4, 37, 161, 88, 90, 165, 165, 90, 3, 0.599453
351, 2, bw, attraction, a-b-da, 2, 2, 5, 1, 90, 165, 163, 89, 165, 90, 1, 2.54788
351, 2, bw, attraction, a-b-da, 2, 2, 5, 1, 90, 165, 163, 89, 165, 90, 2, 0.348301
351, 2, bw, attraction, a-b-db, 2, 1, 5, 2, 60, 135, 59, 134, 135, 60, 2, 1.39609
351, 2, bw, attraction, a-b-db, 2, 1, 5, 2, 60, 135, 59, 134, 135, 60, 1, 0.874984
351, 2, bw, attraction, a-b-da, 2, 3, 5, 3, 195, 120, 120, 195, 193, 119, 1, 1.86134
351, 2, bw, attraction, a-b-da, 2, 3, 5, 3, 195, 120, 120, 195, 193, 119, 2, 0.37734
351, 2, bw, catch, NA, 999, 999, 5, 4, 132, 183, 91, 164, 90, 105, 1, 1.19978
351, 2, bw, catch, NA, 999, 999, 5, 4, 132, 183, 91, 164, 90, 105, 3, 0.582783
351, 2, bw, attraction, a-b-da, 14, 2, 5, 5, 90, 165, 165, 90, 153, 83, 1, 2.33331
351, 2, bw, attraction, a-b-da, 14, 2, 5, 5, 90, 165, 165, 90, 153, 83, 3, 0.774533
351, 2, bw, filler, NA, 999, 999, 5, 6, 76, 136, 105, 64, 70, 115, 1, 1.11675
351, 2, bw, filler, NA, 999, 999, 5, 6, 76, 136, 105, 64, 70, 115, 2, 0.463106
351, 2, bw, attraction, a-b-db, 5, 2, 5, 7, 165, 90, 88, 161, 90, 165, 3, 5.58622
351, 2, bw, attraction, a-b-db, 5, 2, 5, 7, 165, 90, 88, 161, 90, 165, 1, 0.864396
351, 2, bw, filler, NA, 999, 999, 5, 8, 69, 170, 112, 78, 187, 138, 3, 0.563507
351, 2, bw, filler, NA, 999, 999, 5, 8, 69, 170, 112, 78, 187, 138, 2, 0.411848
351, 2, bw, attraction, a-b-db, 2, 2, 5, 9, 90, 165, 89, 163, 165, 90, 2, 3.23308
351, 2, bw, attraction, a-b-db, 2, 2, 5, 9, 90, 165, 89, 163, 165, 90, 1, 0.414005
351, 2, bw, filler, NA, 999, 999, 5, 10, 159, 123, 94, 189, 110, 181, 3, 2.50725
351, 2, bw, filler, NA, 999, 999, 5, 10, 159, 123, 94, 189, 110, 181, 2, 0.445096
351, 2, bw, attraction, a-b-da, 9, 3, 5, 11, 120, 195, 186, 114, 195, 120, 3, 1.61688
351, 2, bw, attraction, a-b-da, 9, 3, 5, 11, 120, 195, 186, 114, 195, 120, 2, 0.566938
351, 2, bw, filler, NA, 999, 999, 5, 12, 70, 134, 91, 94, 75, 126, 3, 5.39015
351, 2, bw, filler, NA, 999, 999, 5, 12, 70, 134, 91, 94, 75, 126, 2, 0.875702
351, 2, bw, attraction, a-b-db, 14, 2, 5, 13, 90, 165, 83, 153, 165, 90, 1, 5.1981
351, 2, bw, attraction, a-b-db, 14, 2, 5, 13, 90, 165, 83, 153, 165, 90, 3, 0.507745
351, 2, bw, attraction, a-b-da, 14, 1, 5, 14, 125, 56, 60, 135, 135, 60, 2, 3.461
351, 2, bw, attraction, a-b-da, 14, 1, 5, 14, 125, 56, 60, 135, 135, 60, 3, 1.44836
351, 2, bw, filler, NA, 999, 999, 5, 15, 99, 157, 192, 102, 71, 192, 2, 1.59585
351, 2, bw, filler, NA, 999, 999, 5, 15, 99, 157, 192, 102, 71, 192, 3, 2.70668
351, 2, bw, catch, NA, 999, 999, 5, 16, 159, 156, 115, 80, 155, 100, 1, 0.883065
351, 2, bw, catch, NA, 999, 999, 5, 16, 159, 156, 115, 80, 155, 100, 2, 0.45473
351, 2, bw, attraction, a-b-da, 2, 1, 5, 17, 135, 60, 60, 135, 134, 59, 1, 1.02662
351, 2, bw, attraction, a-b-da, 2, 1, 5, 17, 135, 60, 60, 135, 134, 59, 2, 0.512196
351, 2, bw, catch, NA, 999, 999, 5, 18, 98, 157, 84, 111, 151, 164, 3, 0.785451
351, 2, bw, catch, NA, 999, 999, 5, 18, 98, 157, 84, 111, 151, 164, 2, 0.513042
351, 2, bw, attraction, a-b-db, 9, 1, 5, 19, 135, 60, 60, 135, 57, 129, 1, 3.30614
351, 2, bw, attraction, a-b-db, 9, 1, 5, 19, 135, 60, 60, 135, 57, 129, 3, 0.587791
351, 2, bw, attraction, a-b-db, 9, 2, 5, 20, 165, 90, 86, 157, 90, 165, 1, 2.5062
351, 2, bw, attraction, a-b-db, 9, 2, 5, 20, 165, 90, 86, 157, 90, 165, 3, 0.636033
351, 2, bw, attraction, a-b-da, 9, 1, 5, 21, 129, 57, 135, 60, 60, 135, 2, 1.68045
351, 2, bw, attraction, a-b-da, 9, 1, 5, 21, 129, 57, 135, 60, 60, 135, 1, 0.595923
351, 2, bw, attraction, a-b-db, 14, 1, 5, 22, 135, 60, 56, 125, 60, 135, 1, 1.6577
351, 2, bw, attraction, a-b-db, 14, 1, 5, 22, 135, 60, 56, 125, 60, 135, 2, 0.89375
351, 2, bw, attraction, a-b-db, 5, 3, 5, 23, 195, 120, 120, 195, 117, 190, 1, 1.66346
351, 2, bw, attraction, a-b-db, 5, 3, 5, 23, 195, 120, 120, 195, 117, 190, 2, 0.651597
351, 2, bw, filler, NA, 999, 999, 5, 24, 176, 135, 93, 114, 104, 158, 1, 1.05531
351, 2, bw, filler, NA, 999, 999, 5, 24, 176, 135, 93, 114, 104, 158, 2, 0.611647
351, 2, bw, attraction, a-b-db, 2, 3, 5, 25, 195, 120, 119, 193, 120, 195, 1, 1.54472
351, 2, bw, attraction, a-b-db, 2, 3, 5, 25, 195, 120, 119, 193, 120, 195, 3, 0.793566
351, 2, bw, filler, NA, 999, 999, 5, 26, 118, 150, 93, 120, 194, 107, 3, 1.55923
351, 2, bw, filler, NA, 999, 999, 5, 26, 118, 150, 93, 120, 194, 107, 2, 0.343403
351, 2, bw, attraction, a-b-da, 5, 1, 5, 27, 60, 135, 132, 58, 135, 60, 1, 1.53518
351, 2, bw, attraction, a-b-da, 5, 1, 5, 27, 60, 135, 132, 58, 135, 60, 2, 0.632611
351, 2, bw, attraction, a-b-db, 9, 3, 5, 28, 195, 120, 114, 186, 120, 195, 1, 1.54113
351, 2, bw, attraction, a-b-db, 9, 3, 5, 28, 195, 120, 114, 186, 120, 195, 2, 0.35798
351, 2, bw, attraction, a-b-da, 9, 2, 5, 29, 157, 86, 165, 90, 90, 165, 3, 2.34114
351, 2, bw, attraction, a-b-da, 9, 2, 5, 29, 157, 86, 165, 90, 90, 165, 2, 0.533704
351, 2, bw, filler, NA, 999, 999, 5, 30, 77, 57, 191, 160, 132, 160, 2, 1.27008
351, 2, bw, filler, NA, 999, 999, 5, 30, 77, 57, 191, 160, 132, 160, 1, 0.537662
351, 2, bw, attraction, a-b-da, 5, 3, 5, 31, 120, 195, 195, 120, 190, 117, 1, 2.53024
351, 2, bw, attraction, a-b-da, 5, 3, 5, 31, 120, 195, 195, 120, 190, 117, 3, 0.659446
351, 2, bw, attraction, a-b-da, 14, 3, 5, 32, 195, 120, 120, 195, 181, 111, 2, 3.59038
351, 2, bw, attraction, a-b-da, 14, 3, 5, 32, 195, 120, 120, 195, 181, 111, 3, 0.868549
351, 2, bw, attraction, a-b-da, 5, 2, 5, 33, 90, 165, 165, 90, 161, 88, 3, 2.33557
351, 2, bw, attraction, a-b-da, 5, 2, 5, 33, 90, 165, 165, 90, 161, 88, 2, 0.440891
351, 2, bw, filler, NA, 999, 999, 5, 34, 177, 56, 131, 165, 69, 191, 2, 0.876608
351, 2, bw, filler, NA, 999, 999, 5, 34, 177, 56, 131, 165, 69, 191, 1, 0.52827
351, 2, bw, attraction, a-b-db, 14, 3, 5, 35, 195, 120, 120, 195, 111, 181, 1, 2.06472
351, 2, bw, attraction, a-b-db, 14, 3, 5, 35, 195, 120, 120, 195, 111, 181, 3, 1.03678
351, 2, bw, attraction, a-b-db, 5, 1, 5, 36, 135, 60, 58, 132, 60, 135, 3, 3.48911
351, 2, bw, attraction, a-b-db, 5, 1, 5, 36, 135, 60, 58, 132, 60, 135, 2, 0.363358
351, 2, bw, filler, NA, 999, 999, 5, 37, 191, 124, 141, 81, 191, 171, 3, 0.874429
351, 2, bw, filler, NA, 999, 999, 5, 37, 191, 124, 141, 81, 191, 171, 2, 0.358124
351, 2, bw, attraction, a-b-db, 5, 3, 6, 1, 195, 120, 117, 190, 120, 195, 1, 1.16525
351, 2, bw, attraction, a-b-db, 5, 3, 6, 1, 195, 120, 117, 190, 120, 195, 3, 0.597533
351, 2, bw, attraction, a-b-db, 2, 3, 6, 2, 120, 195, 119, 193, 195, 120, 3, 2.05143
351, 2, bw, attraction, a-b-db, 2, 3, 6, 2, 120, 195, 119, 193, 195, 120, 1, 0.655956
351, 2, bw, attraction, a-b-db, 2, 2, 6, 3, 165, 90, 90, 165, 89, 163, 2, 2.77974
351, 2, bw, attraction, a-b-db, 2, 2, 6, 3, 165, 90, 90, 165, 89, 163, 3, 1.09878
351, 2, bw, attraction, a-b-da, 14, 1, 6, 4, 135, 60, 125, 56, 60, 135, 3, 2.01259
351, 2, bw, attraction, a-b-da, 14, 1, 6, 4, 135, 60, 125, 56, 60, 135, 2, 0.473259
351, 2, bw, attraction, a-b-db, 9, 2, 6, 5, 90, 165, 86, 157, 165, 90, 2, 2.22089
351, 2, bw, attraction, a-b-db, 9, 2, 6, 5, 90, 165, 86, 157, 165, 90, 3, 1.00218
351, 2, bw, filler, NA, 999, 999, 6, 6, 131, 82, 100, 88, 162, 108, 3, 0.7758
351, 2, bw, filler, NA, 999, 999, 6, 6, 131, 82, 100, 88, 162, 108, 2, 0.71169
351, 2, bw, filler, NA, 999, 999, 6, 7, 181, 97, 150, 166, 71, 141, 2, 0.944541
351, 2, bw, filler, NA, 999, 999, 6, 7, 181, 97, 150, 166, 71, 141, 3, 0.377543
351, 2, bw, attraction, a-b-db, 14, 2, 6, 8, 165, 90, 83, 153, 90, 165, 3, 3.12018
351, 2, bw, attraction, a-b-db, 14, 2, 6, 8, 165, 90, 83, 153, 90, 165, 2, 0.369723
351, 2, bw, filler, NA, 999, 999, 6, 9, 57, 124, 91, 101, 192, 66, 2, 5.10486
351, 2, bw, filler, NA, 999, 999, 6, 9, 57, 124, 91, 101, 192, 66, 3, 0.314119
351, 2, bw, attraction, a-b-da, 2, 1, 6, 10, 134, 59, 135, 60, 60, 135, 3, 2.51538
351, 2, bw, attraction, a-b-da, 2, 1, 6, 10, 134, 59, 135, 60, 60, 135, 2, 0.501027
351, 2, bw, attraction, a-b-da, 2, 3, 6, 11, 193, 119, 195, 120, 120, 195, 3, 5.49487
351, 2, bw, attraction, a-b-da, 2, 3, 6, 11, 193, 119, 195, 120, 120, 195, 2, 0.376389
351, 2, bw, catch, NA, 999, 999, 6, 12, 85, 110, 146, 169, 150, 105, 2, 1.53499
351, 2, bw, catch, NA, 999, 999, 6, 12, 85, 110, 146, 169, 150, 105, 1, 0.472299
351, 2, bw, attraction, a-b-db, 14, 3, 6, 13, 111, 181, 195, 120, 120, 195, 3, 1.29942
351, 2, bw, attraction, a-b-db, 14, 3, 6, 13, 111, 181, 195, 120, 120, 195, 2, 0.36636
351, 2, bw, attraction, a-b-db, 5, 1, 6, 14, 135, 60, 60, 135, 58, 132, 2, 1.53347
351, 2, bw, attraction, a-b-db, 5, 1, 6, 14, 135, 60, 60, 135, 58, 132, 3, 0.391003
351, 2, bw, attraction, a-b-da, 2, 2, 6, 15, 90, 165, 165, 90, 163, 89, 1, 1.59684
351, 2, bw, attraction, a-b-da, 2, 2, 6, 15, 90, 165, 165, 90, 163, 89, 3, 0.795863
351, 2, bw, attraction, a-b-da, 9, 2, 6, 16, 90, 165, 165, 90, 157, 86, 3, 4.65731
351, 2, bw, attraction, a-b-da, 9, 2, 6, 16, 90, 165, 165, 90, 157, 86, 2, 0.660461
351, 2, bw, filler, NA, 999, 999, 6, 17, 177, 110, 104, 90, 171, 121, 3, 1.94377
351, 2, bw, filler, NA, 999, 999, 6, 17, 177, 110, 104, 90, 171, 121, 2, 0.384271
351, 2, bw, attraction, a-b-da, 9, 1, 6, 18, 129, 57, 135, 60, 60, 135, 3, 1.03891
351, 2, bw, attraction, a-b-da, 9, 1, 6, 18, 129, 57, 135, 60, 60, 135, 1, 1.58775
351, 2, bw, attraction, a-b-da, 14, 2, 6, 19, 90, 165, 153, 83, 165, 90, 1, 1.52988
351, 2, bw, attraction, a-b-da, 14, 2, 6, 19, 90, 165, 153, 83, 165, 90, 2, 0.78752
351, 2, bw, attraction, a-b-db, 9, 1, 6, 20, 135, 60, 57, 129, 60, 135, 2, 2.28984
351, 2, bw, attraction, a-b-db, 9, 1, 6, 20, 135, 60, 57, 129, 60, 135, 1, 0.396302
351, 2, bw, attraction, a-b-da, 9, 3, 6, 21, 120, 195, 195, 120, 186, 114, 1, 1.41817
351, 2, bw, attraction, a-b-da, 9, 3, 6, 21, 120, 195, 195, 120, 186, 114, 3, 0.97631
351, 2, bw, attraction, a-b-db, 5, 2, 6, 22, 165, 90, 88, 161, 90, 165, 3, 2.26271
351, 2, bw, attraction, a-b-db, 5, 2, 6, 22, 165, 90, 88, 161, 90, 165, 1, 0.906601
351, 2, bw, catch, NA, 999, 999, 6, 23, 125, 130, 95, 100, 138, 177, 3, 0.947571
351, 2, bw, catch, NA, 999, 999, 6, 23, 125, 130, 95, 100, 138, 177, 2, 0.668685
351, 2, bw, filler, NA, 999, 999, 6, 24, 173, 161, 104, 103, 82, 126, 1, 0.719567
351, 2, bw, filler, NA, 999, 999, 6, 24, 173, 161, 104, 103, 82, 126, 2, 0.722054
351, 2, bw, catch, NA, 999, 999, 6, 25, 84, 111, 167, 148, 125, 130, 2, 0.779138
351, 2, bw, catch, NA, 999, 999, 6, 25, 84, 111, 167, 148, 125, 130, 1, 0.546947
351, 2, bw, filler, NA, 999, 999, 6, 26, 56, 113, 163, 176, 194, 152, 3, 0.690646
351, 2, bw, filler, NA, 999, 999, 6, 26, 56, 113, 163, 176, 194, 152, 1, 0.645763
351, 2, bw, attraction, a-b-da, 5, 3, 6, 27, 120, 195, 190, 117, 195, 120, 1, 1.04148
351, 2, bw, attraction, a-b-da, 5, 3, 6, 27, 120, 195, 190, 117, 195, 120, 2, 0.454427
351, 2, bw, filler, NA, 999, 999, 6, 28, 61, 62, 57, 191, 145, 156, 3, 0.6903
351, 2, bw, filler, NA, 999, 999, 6, 28, 61, 62, 57, 191, 145, 156, 1, 0.541294
351, 2, bw, filler, NA, 999, 999, 6, 29, 82, 95, 112, 142, 137, 190, 3, 0.477111
351, 2, bw, filler, NA, 999, 999, 6, 29, 82, 95, 112, 142, 137, 190, 1, 0.55295
351, 2, bw, filler, NA, 999, 999, 6, 30, 70, 186, 66, 136, 101, 101, 1, 1.64067
351, 2, bw, filler, NA, 999, 999, 6, 30, 70, 186, 66, 136, 101, 101, 2, 2.90949
351, 2, bw, attraction, a-b-da, 5, 1, 6, 31, 132, 58, 135, 60, 60, 135, 2, 0.997785
351, 2, bw, attraction, a-b-da, 5, 1, 6, 31, 132, 58, 135, 60, 60, 135, 1, 0.956929
351, 2, bw, attraction, a-b-da, 5, 2, 6, 32, 165, 90, 161, 88, 90, 165, 3, 1.16379
351, 2, bw, attraction, a-b-da, 5, 2, 6, 32, 165, 90, 161, 88, 90, 165, 1, 1.61207
351, 2, bw, attraction, a-b-db, 2, 1, 6, 33, 60, 135, 135, 60, 59, 134, 1, 1.63282
351, 2, bw, attraction, a-b-db, 2, 1, 6, 33, 60, 135, 135, 60, 59, 134, 2, 0.438296
351, 2, bw, attraction, a-b-db, 9, 3, 6, 34, 114, 186, 195, 120, 120, 195, 3, 1.0828
351, 2, bw, attraction, a-b-db, 9, 3, 6, 34, 114, 186, 195, 120, 120, 195, 1, 1.1344
351, 2, bw, attraction, a-b-da, 14, 3, 6, 35, 120, 195, 181, 111, 195, 120, 1, 1.40682
351, 2, bw, attraction, a-b-da, 14, 3, 6, 35, 120, 195, 181, 111, 195, 120, 2, 0.636913
351, 2, bw, filler, NA, 999, 999, 6, 36, 109, 70, 129, 179, 126, 93, 2, 1.20128
351, 2, bw, filler, NA, 999, 999, 6, 36, 109, 70, 129, 179, 126, 93, 1, 0.76827
351, 2, bw, attraction, a-b-db, 14, 1, 6, 37, 60, 135, 56, 125, 135, 60, 2, 1.96728
351, 2, bw, attraction, a-b-db, 14, 1, 6, 37, 60, 135, 56, 125, 135, 60, 3, 0.415305
351, 2, bw, filler, NA, 999, 999, 7, 1, 125, 106, 91, 187, 63, 87, 2, 1.26041
351, 2, bw, filler, NA, 999, 999, 7, 1, 125, 106, 91, 187, 63, 87, 3, 0.592805
351, 2, bw, attraction, a-b-da, 5, 1, 7, 2, 135, 60, 60, 135, 132, 58, 2, 1.96641
351, 2, bw, attraction, a-b-da, 5, 1, 7, 2, 135, 60, 60, 135, 132, 58, 1, 0.734404
351, 2, bw, catch, NA, 999, 999, 7, 3, 187, 128, 90, 105, 106, 149, 1, 0.782768
351, 2, bw, catch, NA, 999, 999, 7, 3, 187, 128, 90, 105, 106, 149, 2, 0.366501
351, 2, bw, catch, NA, 999, 999, 7, 4, 128, 127, 186, 129, 85, 110, 2, 0.629678
351, 2, bw, catch, NA, 999, 999, 7, 4, 128, 127, 186, 129, 85, 110, 3, 0.355576
351, 2, bw, attraction, a-b-da, 2, 3, 7, 5, 193, 119, 195, 120, 120, 195, 3, 1.06738
351, 2, bw, attraction, a-b-da, 2, 3, 7, 5, 193, 119, 195, 120, 120, 195, 2, 0.535715
351, 2, bw, attraction, a-b-da, 2, 1, 7, 6, 134, 59, 135, 60, 60, 135, 1, 1.04018
351, 2, bw, attraction, a-b-da, 2, 1, 7, 6, 134, 59, 135, 60, 60, 135, 2, 1.0691
351, 2, bw, filler, NA, 999, 999, 7, 7, 126, 120, 188, 194, 101, 120, 2, 0.871959
351, 2, bw, filler, NA, 999, 999, 7, 7, 126, 120, 188, 194, 101, 120, 3, 0.779649
351, 2, bw, attraction, a-b-da, 2, 2, 7, 8, 90, 165, 163, 89, 165, 90, 3, 0.818107
351, 2, bw, attraction, a-b-da, 2, 2, 7, 8, 90, 165, 163, 89, 165, 90, 2, 0.384373
351, 2, bw, filler, NA, 999, 999, 7, 9, 182, 139, 57, 62, 97, 169, 1, 0.614912
351, 2, bw, filler, NA, 999, 999, 7, 9, 182, 139, 57, 62, 97, 169, 2, 0.517534
351, 2, bw, attraction, a-b-db, 9, 2, 7, 10, 165, 90, 86, 157, 90, 165, 2, 2.62255
351, 2, bw, attraction, a-b-db, 9, 2, 7, 10, 165, 90, 86, 157, 90, 165, 3, 0.415707
351, 2, bw, attraction, a-b-db, 9, 1, 7, 11, 60, 135, 57, 129, 135, 60, 2, 1.15284
351, 2, bw, attraction, a-b-db, 9, 1, 7, 11, 60, 135, 57, 129, 135, 60, 3, 0.577771
351, 2, bw, filler, NA, 999, 999, 7, 12, 131, 132, 100, 84, 122, 69, 1, 0.776131
351, 2, bw, filler, NA, 999, 999, 7, 12, 131, 132, 100, 84, 122, 69, 2, 0.751947
351, 2, bw, attraction, a-b-db, 5, 3, 7, 13, 195, 120, 120, 195, 117, 190, 1, 3.96757
351, 2, bw, attraction, a-b-db, 5, 3, 7, 13, 195, 120, 120, 195, 117, 190, 2, 0.350972
351, 2, bw, filler, NA, 999, 999, 7, 14, 123, 184, 147, 62, 91, 172, 1, 0.710821
351, 2, bw, filler, NA, 999, 999, 7, 14, 123, 184, 147, 62, 91, 172, 2, 0.32126
351, 2, bw, attraction, a-b-da, 9, 3, 7, 15, 186, 114, 195, 120, 120, 195, 2, 3.29849
351, 2, bw, attraction, a-b-da, 9, 3, 7, 15, 186, 114, 195, 120, 120, 195, 3, 0.356712
351, 2, bw, attraction, a-b-da, 9, 2, 7, 16, 90, 165, 165, 90, 157, 86, 3, 3.64388
351, 2, bw, attraction, a-b-da, 9, 2, 7, 16, 90, 165, 165, 90, 157, 86, 2, 0.592003
351, 2, bw, attraction, a-b-db, 14, 3, 7, 17, 120, 195, 111, 181, 195, 120, 1, 1.84578
351, 2, bw, attraction, a-b-db, 14, 3, 7, 17, 120, 195, 111, 181, 195, 120, 3, 1.04247
351, 2, bw, attraction, a-b-db, 2, 2, 7, 18, 90, 165, 165, 90, 89, 163, 3, 1.26214
351, 2, bw, attraction, a-b-db, 2, 2, 7, 18, 90, 165, 165, 90, 89, 163, 2, 0.514324
351, 2, bw, attraction, a-b-da, 14, 3, 7, 19, 120, 195, 181, 111, 195, 120, 1, 1.3956
351, 2, bw, attraction, a-b-da, 14, 3, 7, 19, 120, 195, 181, 111, 195, 120, 3, 0.866473
351, 2, bw, filler, NA, 999, 999, 7, 20, 87, 100, 162, 57, 80, 58, 1, 4.14141
351, 2, bw, filler, NA, 999, 999, 7, 20, 87, 100, 162, 57, 80, 58, 3, 0.685384
351, 2, bw, filler, NA, 999, 999, 7, 21, 92, 57, 149, 110, 97, 186, 3, 1.24778
351, 2, bw, filler, NA, 999, 999, 7, 21, 92, 57, 149, 110, 97, 186, 1, 0.556784
351, 2, bw, attraction, a-b-da, 14, 1, 7, 22, 60, 135, 125, 56, 135, 60, 3, 4.01983
351, 2, bw, attraction, a-b-da, 14, 1, 7, 22, 60, 135, 125, 56, 135, 60, 2, 0.665173
351, 2, bw, attraction, a-b-db, 2, 1, 7, 23, 135, 60, 60, 135, 59, 134, 2, 1.10838
351, 2, bw, attraction, a-b-db, 2, 1, 7, 23, 135, 60, 60, 135, 59, 134, 1, 0.584985
351, 2, bw, attraction, a-b-da, 5, 3, 7, 24, 190, 117, 195, 120, 120, 195, 1, 1.269
351, 2, bw, attraction, a-b-da, 5, 3, 7, 24, 190, 117, 195, 120, 120, 195, 2, 0.553295
351, 2, bw, attraction, a-b-da, 14, 2, 7, 25, 165, 90, 153, 83, 90, 165, 3, 2.16099
351, 2, bw, attraction, a-b-da, 14, 2, 7, 25, 165, 90, 153, 83, 90, 165, 2, 0.864932
351, 2, bw, attraction, a-b-da, 9, 1, 7, 26, 135, 60, 129, 57, 60, 135, 3, 1.53998
351, 2, bw, attraction, a-b-da, 9, 1, 7, 26, 135, 60, 129, 57, 60, 135, 2, 0.380845
351, 2, bw, filler, NA, 999, 999, 7, 27, 98, 71, 111, 113, 71, 66, 2, 1.08331
351, 2, bw, filler, NA, 999, 999, 7, 27, 98, 71, 111, 113, 71, 66, 3, 0.774819
351, 2, bw, attraction, a-b-da, 5, 2, 7, 28, 161, 88, 90, 165, 165, 90, 3, 0.997229
351, 2, bw, attraction, a-b-da, 5, 2, 7, 28, 161, 88, 90, 165, 165, 90, 1, 0.588262
351, 2, bw, attraction, a-b-db, 5, 1, 7, 29, 58, 132, 60, 135, 135, 60, 1, 1.42671
351, 2, bw, attraction, a-b-db, 5, 1, 7, 29, 58, 132, 60, 135, 135, 60, 3, 2.37632
351, 2, bw, attraction, a-b-db, 5, 2, 7, 30, 88, 161, 165, 90, 90, 165, 3, 1.79008
351, 2, bw, attraction, a-b-db, 5, 2, 7, 30, 88, 161, 165, 90, 90, 165, 2, 0.820759
351, 2, bw, filler, NA, 999, 999, 7, 31, 70, 97, 142, 172, 60, 88, 2, 1.42582
351, 2, bw, filler, NA, 999, 999, 7, 31, 70, 97, 142, 172, 60, 88, 1, 0.655458
351, 2, bw, attraction, a-b-db, 9, 3, 7, 32, 114, 186, 195, 120, 120, 195, 1, 1.73111
351, 2, bw, attraction, a-b-db, 9, 3, 7, 32, 114, 186, 195, 120, 120, 195, 2, 0.596581
351, 2, bw, filler, NA, 999, 999, 7, 33, 79, 148, 165, 174, 65, 57, 2, 0.858266
351, 2, bw, filler, NA, 999, 999, 7, 33, 79, 148, 165, 174, 65, 57, 3, 0.638621
351, 2, bw, catch, NA, 999, 999, 7, 34, 145, 170, 95, 100, 155, 100, 1, 1.32313
351, 2, bw, catch, NA, 999, 999, 7, 34, 145, 170, 95, 100, 155, 100, 2, 0.404762
351, 2, bw, attraction, a-b-db, 2, 3, 7, 35, 119, 193, 195, 120, 120, 195, 3, 1.01861
351, 2, bw, attraction, a-b-db, 2, 3, 7, 35, 119, 193, 195, 120, 120, 195, 2, 0.552847
351, 2, bw, attraction, a-b-db, 14, 1, 7, 36, 60, 135, 56, 125, 135, 60, 2, 1.52054
351, 2, bw, attraction, a-b-db, 14, 1, 7, 36, 60, 135, 56, 125, 135, 60, 3, 0.418883
351, 2, bw, attraction, a-b-db, 14, 2, 7, 37, 83, 153, 90, 165, 165, 90, 2, 1.81584
351, 2, bw, attraction, a-b-db, 14, 2, 7, 37, 83, 153, 90, 165, 165, 90, 1, 0.805903
351, 2, bw, filler, NA, 999, 999, 8, 1, 119, 169, 56, 140, 112, 74, 1, 1.13163
351, 2, bw, filler, NA, 999, 999, 8, 1, 119, 169, 56, 140, 112, 74, 2, 0.965228
351, 2, bw, attraction, a-b-db, 9, 2, 8, 2, 90, 165, 165, 90, 86, 157, 1, 1.30812
351, 2, bw, attraction, a-b-db, 9, 2, 8, 2, 90, 165, 165, 90, 86, 157, 2, 0.702482
351, 2, bw, catch, NA, 999, 999, 8, 3, 146, 109, 104, 91, 191, 124, 3, 0.84021
351, 2, bw, catch, NA, 999, 999, 8, 3, 146, 109, 104, 91, 191, 124, 2, 0.54121
351, 2, bw, attraction, a-b-db, 14, 1, 8, 4, 60, 135, 135, 60, 56, 125, 1, 1.06894
351, 2, bw, attraction, a-b-db, 14, 1, 8, 4, 60, 135, 135, 60, 56, 125, 2, 0.449453
351, 2, bw, attraction, a-b-db, 2, 3, 8, 5, 195, 120, 119, 193, 120, 195, 3, 1.58927
351, 2, bw, attraction, a-b-db, 2, 3, 8, 5, 195, 120, 119, 193, 120, 195, 1, 0.563868
351, 2, bw, attraction, a-b-db, 5, 3, 8, 6, 195, 120, 117, 190, 120, 195, 1, 1.29093
351, 2, bw, attraction, a-b-db, 5, 3, 8, 6, 195, 120, 117, 190, 120, 195, 3, 3.046
351, 2, bw, attraction, a-b-da, 2, 2, 8, 7, 165, 90, 163, 89, 90, 165, 1, 3.70489
351, 2, bw, attraction, a-b-da, 2, 2, 8, 7, 165, 90, 163, 89, 90, 165, 2, 0.466488
351, 2, bw, attraction, a-b-da, 5, 1, 8, 8, 135, 60, 132, 58, 60, 135, 3, 1.62972
351, 2, bw, attraction, a-b-da, 5, 1, 8, 8, 135, 60, 132, 58, 60, 135, 2, 0.643021
351, 2, bw, attraction, a-b-db, 14, 2, 8, 9, 165, 90, 90, 165, 83, 153, 2, 1.47886
351, 2, bw, attraction, a-b-db, 14, 2, 8, 9, 165, 90, 90, 165, 83, 153, 1, 0.538219
351, 2, bw, attraction, a-b-db, 9, 1, 8, 10, 60, 135, 57, 129, 135, 60, 2, 1.85869
351, 2, bw, attraction, a-b-db, 9, 1, 8, 10, 60, 135, 57, 129, 135, 60, 1, 0.886878
351, 2, bw, attraction, a-b-da, 5, 3, 8, 11, 190, 117, 195, 120, 120, 195, 1, 1.44902
351, 2, bw, attraction, a-b-da, 5, 3, 8, 11, 190, 117, 195, 120, 120, 195, 2, 0.789927
351, 2, bw, filler, NA, 999, 999, 8, 12, 179, 95, 162, 161, 168, 164, 3, 3.43565
351, 2, bw, filler, NA, 999, 999, 8, 12, 179, 95, 162, 161, 168, 164, 2, 0.544488
351, 2, bw, catch, NA, 999, 999, 8, 13, 188, 127, 106, 149, 66, 129, 1, 1.52831
351, 2, bw, catch, NA, 999, 999, 8, 13, 188, 127, 106, 149, 66, 129, 3, 0.801718
351, 2, bw, attraction, a-b-db, 2, 1, 8, 14, 60, 135, 135, 60, 59, 134, 1, 1.34348
351, 2, bw, attraction, a-b-db, 2, 1, 8, 14, 60, 135, 135, 60, 59, 134, 2, 0.488335
351, 2, bw, attraction, a-b-db, 2, 2, 8, 15, 89, 163, 90, 165, 165, 90, 2, 2.57077
351, 2, bw, attraction, a-b-db, 2, 2, 8, 15, 89, 163, 90, 165, 165, 90, 3, 0.490056
351, 2, bw, attraction, a-b-da, 9, 2, 8, 16, 157, 86, 165, 90, 90, 165, 3, 1.1157
351, 2, bw, attraction, a-b-da, 9, 2, 8, 16, 157, 86, 165, 90, 90, 165, 1, 1.47013
351, 2, bw, attraction, a-b-db, 14, 3, 8, 17, 120, 195, 195, 120, 111, 181, 1, 1.1688
351, 2, bw, attraction, a-b-db, 14, 3, 8, 17, 120, 195, 195, 120, 111, 181, 3, 0.553291
351, 2, bw, attraction, a-b-db, 5, 1, 8, 18, 135, 60, 58, 132, 60, 135, 2, 2.09696
351, 2, bw, attraction, a-b-db, 5, 1, 8, 18, 135, 60, 58, 132, 60, 135, 1, 0.531598
351, 2, bw, filler, NA, 999, 999, 8, 19, 163, 115, 114, 84, 127, 118, 1, 1.10003
351, 2, bw, filler, NA, 999, 999, 8, 19, 163, 115, 114, 84, 127, 118, 2, 0.45492
351, 2, bw, filler, NA, 999, 999, 8, 20, 112, 69, 179, 88, 94, 169, 3, 1.6989
351, 2, bw, filler, NA, 999, 999, 8, 20, 112, 69, 179, 88, 94, 169, 1, 0.629535
351, 2, bw, attraction, a-b-da, 9, 3, 8, 21, 186, 114, 195, 120, 120, 195, 3, 2.96205
351, 2, bw, attraction, a-b-da, 9, 3, 8, 21, 186, 114, 195, 120, 120, 195, 1, 1.23372
351, 2, bw, attraction, a-b-db, 9, 3, 8, 22, 114, 186, 120, 195, 195, 120, 2, 5.25392
351, 2, bw, attraction, a-b-db, 9, 3, 8, 22, 114, 186, 120, 195, 195, 120, 1, 0.753528
351, 2, bw, filler, NA, 999, 999, 8, 23, 79, 164, 161, 134, 161, 150, 3, 1.1773
351, 2, bw, filler, NA, 999, 999, 8, 23, 79, 164, 161, 134, 161, 150, 1, 0.520796
351, 2, bw, attraction, a-b-da, 5, 2, 8, 24, 161, 88, 165, 90, 90, 165, 1, 1.91405
351, 2, bw, attraction, a-b-da, 5, 2, 8, 24, 161, 88, 165, 90, 90, 165, 2, 1.38002
351, 2, bw, filler, NA, 999, 999, 8, 25, 64, 146, 112, 194, 165, 137, 2, 1.31419
351, 2, bw, filler, NA, 999, 999, 8, 25, 64, 146, 112, 194, 165, 137, 1, 0.612389
351, 2, bw, attraction, a-b-db, 5, 2, 8, 26, 88, 161, 165, 90, 90, 165, 1, 1.44946
351, 2, bw, attraction, a-b-db, 5, 2, 8, 26, 88, 161, 165, 90, 90, 165, 2, 0.854342
351, 2, bw, filler, NA, 999, 999, 8, 27, 59, 83, 151, 98, 132, 167, 3, 0.698071
351, 2, bw, filler, NA, 999, 999, 8, 27, 59, 83, 151, 98, 132, 167, 1, 0.605964
351, 2, bw, attraction, a-b-da, 14, 2, 8, 28, 165, 90, 90, 165, 153, 83, 3, 1.17824
351, 2, bw, attraction, a-b-da, 14, 2, 8, 28, 165, 90, 90, 165, 153, 83, 1, 1.70585
351, 2, bw, catch, NA, 999, 999, 8, 29, 168, 147, 108, 87, 138, 117, 1, 0.81928
351, 2, bw, catch, NA, 999, 999, 8, 29, 168, 147, 108, 87, 138, 117, 2, 0.641655
351, 2, bw, attraction, a-b-da, 14, 3, 8, 30, 120, 195, 181, 111, 195, 120, 1, 1.16532
351, 2, bw, attraction, a-b-da, 14, 3, 8, 30, 120, 195, 181, 111, 195, 120, 2, 0.613647
351, 2, bw, filler, NA, 999, 999, 8, 31, 168, 148, 105, 194, 192, 63, 2, 1.13873
351, 2, bw, filler, NA, 999, 999, 8, 31, 168, 148, 105, 194, 192, 63, 3, 1.14786
351, 2, bw, attraction, a-b-da, 14, 1, 8, 32, 125, 56, 135, 60, 60, 135, 3, 1.26731
351, 2, bw, attraction, a-b-da, 14, 1, 8, 32, 125, 56, 135, 60, 60, 135, 1, 0.86363
351, 2, bw, attraction, a-b-da, 2, 3, 8, 33, 193, 119, 120, 195, 195, 120, 2, 1.45859
351, 2, bw, attraction, a-b-da, 2, 3, 8, 33, 193, 119, 120, 195, 195, 120, 1, 0.646666
351, 2, bw, attraction, a-b-da, 2, 1, 8, 34, 60, 135, 134, 59, 135, 60, 3, 1.84241
351, 2, bw, attraction, a-b-da, 2, 1, 8, 34, 60, 135, 134, 59, 135, 60, 2, 0.647188
351, 2, bw, attraction, a-b-da, 9, 1, 8, 35, 60, 135, 135, 60, 129, 57, 1, 3.51495
351, 2, bw, attraction, a-b-da, 9, 1, 8, 35, 60, 135, 135, 60, 129, 57, 2, 0.588419
351, 2, bw, filler, NA, 999, 999, 8, 36, 83, 147, 81, 82, 191, 91, 3, 10.8988
351, 2, bw, filler, NA, 999, 999, 8, 36, 83, 147, 81, 82, 191, 91, 2, 0.426704
351, 2, bw, filler, NA, 999, 999, 8, 37, 138, 150, 59, 126, 121, 112, 1, 0.783176
351, 2, bw, filler, NA, 999, 999, 8, 37, 138, 150, 59, 126, 121, 112, 2, 0.567056
