sub_n, computer_n, bw_cond, effect, set, distance, diag, block_n, trial_n, h1, w1, h2, w2, h3, w3, choice, rt 
367, 2, bw, practice, NA, 999, 999, 0, 1, 88, 93, 106, 132, 168, 138, 3, 1.66527
367, 2, bw, practice, NA, 999, 999, 0, 1, 88, 93, 106, 132, 168, 138, 1, 1.83713
367, 2, bw, practice, NA, 999, 999, 0, 2, 193, 70, 189, 192, 173, 90, 2, 1.95588
367, 2, bw, practice, NA, 999, 999, 0, 2, 193, 70, 189, 192, 173, 90, 1, 1.54089
367, 2, bw, practice, NA, 999, 999, 0, 3, 113, 133, 167, 104, 189, 63, 1, 9.28068
367, 2, bw, practice, NA, 999, 999, 0, 3, 113, 133, 167, 104, 189, 63, 3, 3.64417
367, 2, bw, attraction, a-b-da, 2, 3, 1, 1, 195, 120, 193, 119, 120, 195, 2, 9.53791
367, 2, bw, attraction, a-b-da, 2, 3, 1, 1, 195, 120, 193, 119, 120, 195, 1, 2.60893
367, 2, bw, attraction, a-b-da, 5, 3, 1, 2, 195, 120, 120, 195, 190, 117, 2, 5.70937
367, 2, bw, attraction, a-b-da, 5, 3, 1, 2, 195, 120, 120, 195, 190, 117, 3, 0.654384
367, 2, bw, filler, NA, 999, 999, 1, 3, 153, 156, 187, 132, 124, 173, 1, 2.44989
367, 2, bw, filler, NA, 999, 999, 1, 3, 153, 156, 187, 132, 124, 173, 3, 0.974444
367, 2, bw, attraction, a-b-db, 5, 1, 1, 4, 58, 132, 135, 60, 60, 135, 1, 2.0847
367, 2, bw, attraction, a-b-db, 5, 1, 1, 4, 58, 132, 135, 60, 60, 135, 2, 1.04815
367, 2, bw, attraction, a-b-db, 14, 3, 1, 5, 195, 120, 111, 181, 120, 195, 3, 1.34765
367, 2, bw, attraction, a-b-db, 14, 3, 1, 5, 195, 120, 111, 181, 120, 195, 1, 0.524553
367, 2, bw, catch, NA, 999, 999, 1, 6, 147, 168, 99, 156, 69, 126, 1, 1.54114
367, 2, bw, catch, NA, 999, 999, 1, 6, 147, 168, 99, 156, 69, 126, 3, 0.68585
367, 2, bw, filler, NA, 999, 999, 1, 7, 106, 66, 98, 140, 84, 60, 2, 1.51228
367, 2, bw, filler, NA, 999, 999, 1, 7, 106, 66, 98, 140, 84, 60, 3, 1.21839
367, 2, bw, filler, NA, 999, 999, 1, 8, 68, 68, 72, 180, 154, 173, 3, 1.01526
367, 2, bw, filler, NA, 999, 999, 1, 8, 68, 68, 72, 180, 154, 173, 1, 0.613681
367, 2, bw, attraction, a-b-db, 2, 1, 1, 9, 135, 60, 60, 135, 59, 134, 2, 3.88272
367, 2, bw, attraction, a-b-db, 2, 1, 1, 9, 135, 60, 60, 135, 59, 134, 1, 0.373468
367, 2, bw, attraction, a-b-da, 14, 3, 1, 10, 181, 111, 195, 120, 120, 195, 3, 1.30801
367, 2, bw, attraction, a-b-da, 14, 3, 1, 10, 181, 111, 195, 120, 120, 195, 2, 0.430295
367, 2, bw, attraction, a-b-db, 9, 2, 1, 11, 86, 157, 90, 165, 165, 90, 2, 1.85876
367, 2, bw, attraction, a-b-db, 9, 2, 1, 11, 86, 157, 90, 165, 165, 90, 3, 0.44664
367, 2, bw, attraction, a-b-db, 9, 3, 1, 12, 120, 195, 195, 120, 114, 186, 1, 1.21844
367, 2, bw, attraction, a-b-db, 9, 3, 1, 12, 120, 195, 195, 120, 114, 186, 2, 0.328832
367, 2, bw, filler, NA, 999, 999, 1, 13, 122, 154, 121, 175, 144, 70, 2, 1.6253
367, 2, bw, filler, NA, 999, 999, 1, 13, 122, 154, 121, 175, 144, 70, 3, 0.662775
367, 2, bw, filler, NA, 999, 999, 1, 14, 139, 108, 89, 101, 127, 137, 3, 1.76179
367, 2, bw, filler, NA, 999, 999, 1, 14, 139, 108, 89, 101, 127, 137, 2, 0.401963
367, 2, bw, catch, NA, 999, 999, 1, 15, 102, 153, 108, 87, 141, 174, 3, 1.8397
367, 2, bw, catch, NA, 999, 999, 1, 15, 102, 153, 108, 87, 141, 174, 2, 0.556401
367, 2, bw, attraction, a-b-da, 9, 1, 1, 16, 60, 135, 135, 60, 129, 57, 1, 1.85952
367, 2, bw, attraction, a-b-da, 9, 1, 1, 16, 60, 135, 135, 60, 129, 57, 3, 0.439683
367, 2, bw, attraction, a-b-da, 9, 3, 1, 17, 186, 114, 195, 120, 120, 195, 3, 1.65148
367, 2, bw, attraction, a-b-da, 9, 3, 1, 17, 186, 114, 195, 120, 120, 195, 1, 0.320275
367, 2, bw, attraction, a-b-da, 5, 2, 1, 18, 161, 88, 90, 165, 165, 90, 2, 2.18539
367, 2, bw, attraction, a-b-da, 5, 2, 1, 18, 161, 88, 90, 165, 165, 90, 1, 1.68072
367, 2, bw, filler, NA, 999, 999, 1, 19, 90, 84, 166, 103, 190, 107, 3, 1.85079
367, 2, bw, filler, NA, 999, 999, 1, 19, 90, 84, 166, 103, 190, 107, 1, 0.55959
367, 2, bw, filler, NA, 999, 999, 1, 20, 173, 94, 180, 149, 145, 78, 2, 0.822579
367, 2, bw, filler, NA, 999, 999, 1, 20, 173, 94, 180, 149, 145, 78, 3, 0.404331
367, 2, bw, attraction, a-b-db, 9, 1, 1, 21, 60, 135, 135, 60, 57, 129, 1, 1.82603
367, 2, bw, attraction, a-b-db, 9, 1, 1, 21, 60, 135, 135, 60, 57, 129, 2, 0.727507
367, 2, bw, attraction, a-b-db, 5, 3, 1, 22, 120, 195, 117, 190, 195, 120, 1, 2.69587
367, 2, bw, attraction, a-b-db, 5, 3, 1, 22, 120, 195, 117, 190, 195, 120, 3, 0.85026
367, 2, bw, attraction, a-b-db, 14, 1, 1, 23, 135, 60, 60, 135, 56, 125, 2, 0.966028
367, 2, bw, attraction, a-b-db, 14, 1, 1, 23, 135, 60, 60, 135, 56, 125, 3, 0.638376
367, 2, bw, filler, NA, 999, 999, 1, 24, 83, 145, 72, 186, 160, 78, 2, 1.50675
367, 2, bw, filler, NA, 999, 999, 1, 24, 83, 145, 72, 186, 160, 78, 1, 1.99693
367, 2, bw, attraction, a-b-da, 2, 2, 1, 25, 165, 90, 163, 89, 90, 165, 3, 1.80224
367, 2, bw, attraction, a-b-da, 2, 2, 1, 25, 165, 90, 163, 89, 90, 165, 1, 0.352962
367, 2, bw, catch, NA, 999, 999, 1, 26, 150, 105, 92, 103, 185, 130, 3, 0.904835
367, 2, bw, catch, NA, 999, 999, 1, 26, 150, 105, 92, 103, 185, 130, 2, 0.291195
367, 2, bw, filler, NA, 999, 999, 1, 27, 72, 121, 76, 121, 186, 174, 3, 0.717019
367, 2, bw, filler, NA, 999, 999, 1, 27, 72, 121, 76, 121, 186, 174, 1, 0.423403
367, 2, bw, filler, NA, 999, 999, 1, 28, 187, 132, 86, 121, 188, 146, 1, 1.52395
367, 2, bw, filler, NA, 999, 999, 1, 28, 187, 132, 86, 121, 188, 146, 3, 0.989514
367, 2, bw, attraction, a-b-da, 2, 1, 1, 29, 134, 59, 135, 60, 60, 135, 1, 2.68319
367, 2, bw, attraction, a-b-da, 2, 1, 1, 29, 134, 59, 135, 60, 60, 135, 3, 0.270266
367, 2, bw, attraction, a-b-db, 2, 3, 1, 30, 195, 120, 119, 193, 120, 195, 2, 1.14542
367, 2, bw, attraction, a-b-db, 2, 3, 1, 30, 195, 120, 119, 193, 120, 195, 1, 0.282391
367, 2, bw, attraction, a-b-db, 14, 2, 1, 31, 83, 153, 165, 90, 90, 165, 3, 0.964867
367, 2, bw, attraction, a-b-db, 14, 2, 1, 31, 83, 153, 165, 90, 90, 165, 1, 0.269199
367, 2, bw, attraction, a-b-da, 5, 1, 1, 32, 132, 58, 135, 60, 60, 135, 3, 0.656388
367, 2, bw, attraction, a-b-da, 5, 1, 1, 32, 132, 58, 135, 60, 60, 135, 2, 0.604829
367, 2, bw, attraction, a-b-da, 9, 2, 1, 33, 165, 90, 90, 165, 157, 86, 1, 2.9707
367, 2, bw, attraction, a-b-da, 9, 2, 1, 33, 165, 90, 90, 165, 157, 86, 2, 0.314323
367, 2, bw, attraction, a-b-da, 14, 1, 1, 34, 125, 56, 60, 135, 135, 60, 1, 4.47548
367, 2, bw, attraction, a-b-da, 14, 1, 1, 34, 125, 56, 60, 135, 135, 60, 2, 0.502051
367, 2, bw, attraction, a-b-db, 2, 2, 1, 35, 90, 165, 165, 90, 89, 163, 1, 1.02382
367, 2, bw, attraction, a-b-db, 2, 2, 1, 35, 90, 165, 165, 90, 89, 163, 2, 0.261479
367, 2, bw, attraction, a-b-db, 5, 2, 1, 36, 90, 165, 88, 161, 165, 90, 2, 1.26465
367, 2, bw, attraction, a-b-db, 5, 2, 1, 36, 90, 165, 88, 161, 165, 90, 3, 0.460961
367, 2, bw, attraction, a-b-da, 14, 2, 1, 37, 165, 90, 153, 83, 90, 165, 3, 0.808079
367, 2, bw, attraction, a-b-da, 14, 2, 1, 37, 165, 90, 153, 83, 90, 165, 2, 0.694408
367, 2, bw, filler, NA, 999, 999, 2, 1, 68, 163, 158, 110, 99, 59, 2, 0.968238
367, 2, bw, filler, NA, 999, 999, 2, 1, 68, 163, 158, 110, 99, 59, 3, 0.392478
367, 2, bw, filler, NA, 999, 999, 2, 2, 134, 180, 68, 181, 155, 135, 1, 0.942282
367, 2, bw, filler, NA, 999, 999, 2, 2, 134, 180, 68, 181, 155, 135, 3, 1.27934
367, 2, bw, filler, NA, 999, 999, 2, 3, 57, 108, 125, 74, 72, 147, 3, 1.93752
367, 2, bw, filler, NA, 999, 999, 2, 3, 57, 108, 125, 74, 72, 147, 1, 0.35424
367, 2, bw, catch, NA, 999, 999, 2, 4, 104, 151, 101, 94, 139, 176, 3, 0.714049
367, 2, bw, catch, NA, 999, 999, 2, 4, 104, 151, 101, 94, 139, 176, 2, 0.300618
367, 2, bw, filler, NA, 999, 999, 2, 5, 94, 146, 63, 114, 137, 99, 1, 1.0463
367, 2, bw, filler, NA, 999, 999, 2, 5, 94, 146, 63, 114, 137, 99, 2, 0.435296
367, 2, bw, catch, NA, 999, 999, 2, 6, 132, 183, 102, 93, 121, 134, 1, 0.983739
367, 2, bw, catch, NA, 999, 999, 2, 6, 132, 183, 102, 93, 121, 134, 2, 0.303446
367, 2, bw, attraction, a-b-da, 2, 1, 2, 7, 134, 59, 60, 135, 135, 60, 2, 1.07327
367, 2, bw, attraction, a-b-da, 2, 1, 2, 7, 134, 59, 60, 135, 135, 60, 3, 0.324886
367, 2, bw, attraction, a-b-db, 2, 2, 2, 8, 165, 90, 90, 165, 89, 163, 2, 2.10944
367, 2, bw, attraction, a-b-db, 2, 2, 2, 8, 165, 90, 90, 165, 89, 163, 3, 0.815444
367, 2, bw, filler, NA, 999, 999, 2, 9, 86, 128, 137, 179, 87, 176, 2, 0.876442
367, 2, bw, filler, NA, 999, 999, 2, 9, 86, 128, 137, 179, 87, 176, 1, 0.592073
367, 2, bw, filler, NA, 999, 999, 2, 10, 108, 63, 181, 66, 167, 76, 3, 2.03794
367, 2, bw, filler, NA, 999, 999, 2, 10, 108, 63, 181, 66, 167, 76, 1, 0.378568
367, 2, bw, filler, NA, 999, 999, 2, 11, 147, 111, 164, 119, 93, 179, 2, 1.48097
367, 2, bw, filler, NA, 999, 999, 2, 11, 147, 111, 164, 119, 93, 179, 1, 0.780508
367, 2, bw, attraction, a-b-da, 14, 2, 2, 12, 153, 83, 90, 165, 165, 90, 2, 2.15489
367, 2, bw, attraction, a-b-da, 14, 2, 2, 12, 153, 83, 90, 165, 165, 90, 1, 0.747013
367, 2, bw, attraction, a-b-da, 5, 1, 2, 13, 135, 60, 60, 135, 132, 58, 2, 1.89064
367, 2, bw, attraction, a-b-da, 5, 1, 2, 13, 135, 60, 60, 135, 132, 58, 3, 0.845271
367, 2, bw, attraction, a-b-db, 9, 1, 2, 14, 135, 60, 60, 135, 57, 129, 2, 2.95317
367, 2, bw, attraction, a-b-db, 9, 1, 2, 14, 135, 60, 60, 135, 57, 129, 1, 0.473283
367, 2, bw, attraction, a-b-db, 5, 1, 2, 15, 58, 132, 60, 135, 135, 60, 2, 2.1158
367, 2, bw, attraction, a-b-db, 5, 1, 2, 15, 58, 132, 60, 135, 135, 60, 1, 5.74181
367, 2, bw, attraction, a-b-db, 2, 3, 2, 16, 119, 193, 120, 195, 195, 120, 2, 2.53995
367, 2, bw, attraction, a-b-db, 2, 3, 2, 16, 119, 193, 120, 195, 195, 120, 1, 0.540478
367, 2, bw, attraction, a-b-da, 9, 2, 2, 17, 165, 90, 157, 86, 90, 165, 1, 1.15624
367, 2, bw, attraction, a-b-da, 9, 2, 2, 17, 165, 90, 157, 86, 90, 165, 2, 0.356458
367, 2, bw, attraction, a-b-db, 9, 3, 2, 18, 114, 186, 120, 195, 195, 120, 2, 1.51571
367, 2, bw, attraction, a-b-db, 9, 3, 2, 18, 114, 186, 120, 195, 195, 120, 1, 0.429812
367, 2, bw, attraction, a-b-da, 14, 3, 2, 19, 195, 120, 181, 111, 120, 195, 3, 1.99437
367, 2, bw, attraction, a-b-da, 14, 3, 2, 19, 195, 120, 181, 111, 120, 195, 1, 0.73707
367, 2, bw, attraction, a-b-db, 14, 2, 2, 20, 90, 165, 165, 90, 83, 153, 1, 2.20944
367, 2, bw, attraction, a-b-db, 14, 2, 2, 20, 90, 165, 165, 90, 83, 153, 2, 0.255273
367, 2, bw, attraction, a-b-db, 5, 2, 2, 21, 88, 161, 165, 90, 90, 165, 3, 1.40332
367, 2, bw, attraction, a-b-db, 5, 2, 2, 21, 88, 161, 165, 90, 90, 165, 1, 0.258046
367, 2, bw, attraction, a-b-db, 14, 1, 2, 22, 56, 125, 60, 135, 135, 60, 2, 1.82934
367, 2, bw, attraction, a-b-db, 14, 1, 2, 22, 56, 125, 60, 135, 135, 60, 1, 0.410613
367, 2, bw, attraction, a-b-db, 2, 1, 2, 23, 135, 60, 59, 134, 60, 135, 3, 2.30382
367, 2, bw, attraction, a-b-db, 2, 1, 2, 23, 135, 60, 59, 134, 60, 135, 1, 0.522319
367, 2, bw, filler, NA, 999, 999, 2, 24, 72, 66, 142, 155, 170, 148, 3, 5.15546
367, 2, bw, filler, NA, 999, 999, 2, 24, 72, 66, 142, 155, 170, 148, 1, 0.874468
367, 2, bw, attraction, a-b-da, 14, 1, 2, 25, 135, 60, 60, 135, 125, 56, 2, 4.30085
367, 2, bw, attraction, a-b-da, 14, 1, 2, 25, 135, 60, 60, 135, 125, 56, 3, 1.41493
367, 2, bw, attraction, a-b-da, 2, 3, 2, 26, 120, 195, 195, 120, 193, 119, 1, 0.875578
367, 2, bw, attraction, a-b-da, 2, 3, 2, 26, 120, 195, 195, 120, 193, 119, 2, 0.935369
367, 2, bw, catch, NA, 999, 999, 2, 27, 73, 122, 143, 172, 163, 92, 2, 0.703633
367, 2, bw, catch, NA, 999, 999, 2, 27, 73, 122, 143, 172, 163, 92, 1, 0.386047
367, 2, bw, attraction, a-b-da, 9, 1, 2, 28, 60, 135, 129, 57, 135, 60, 1, 1.10457
367, 2, bw, attraction, a-b-da, 9, 1, 2, 28, 60, 135, 129, 57, 135, 60, 2, 0.442894
367, 2, bw, attraction, a-b-da, 5, 3, 2, 29, 120, 195, 195, 120, 190, 117, 1, 1.23866
367, 2, bw, attraction, a-b-da, 5, 3, 2, 29, 120, 195, 195, 120, 190, 117, 2, 0.563634
367, 2, bw, attraction, a-b-db, 5, 3, 2, 30, 120, 195, 195, 120, 117, 190, 1, 2.25872
367, 2, bw, attraction, a-b-db, 5, 3, 2, 30, 120, 195, 195, 120, 117, 190, 3, 0.638559
367, 2, bw, filler, NA, 999, 999, 2, 31, 70, 97, 168, 99, 121, 175, 3, 1.06695
367, 2, bw, filler, NA, 999, 999, 2, 31, 70, 97, 168, 99, 121, 175, 1, 0.452515
367, 2, bw, attraction, a-b-da, 5, 2, 2, 32, 90, 165, 165, 90, 161, 88, 2, 4.08316
367, 2, bw, attraction, a-b-da, 5, 2, 2, 32, 90, 165, 165, 90, 161, 88, 3, 0.277788
367, 2, bw, attraction, a-b-da, 2, 2, 2, 33, 163, 89, 165, 90, 90, 165, 1, 1.16832
367, 2, bw, attraction, a-b-da, 2, 2, 2, 33, 163, 89, 165, 90, 90, 165, 2, 0.448642
367, 2, bw, filler, NA, 999, 999, 2, 34, 100, 172, 77, 69, 91, 112, 1, 1.87641
367, 2, bw, filler, NA, 999, 999, 2, 34, 100, 172, 77, 69, 91, 112, 2, 0.583793
367, 2, bw, attraction, a-b-db, 14, 3, 2, 35, 111, 181, 195, 120, 120, 195, 2, 5.17429
367, 2, bw, attraction, a-b-db, 14, 3, 2, 35, 111, 181, 195, 120, 120, 195, 1, 0.90057
367, 2, bw, attraction, a-b-db, 9, 2, 2, 36, 86, 157, 90, 165, 165, 90, 2, 2.83839
367, 2, bw, attraction, a-b-db, 9, 2, 2, 36, 86, 157, 90, 165, 165, 90, 1, 0.77886
367, 2, bw, attraction, a-b-da, 9, 3, 2, 37, 120, 195, 186, 114, 195, 120, 3, 4.54507
367, 2, bw, attraction, a-b-da, 9, 3, 2, 37, 120, 195, 186, 114, 195, 120, 1, 0.312832
367, 2, bw, attraction, a-b-db, 5, 2, 3, 1, 90, 165, 165, 90, 88, 161, 1, 2.31412
367, 2, bw, attraction, a-b-db, 5, 2, 3, 1, 90, 165, 165, 90, 88, 161, 2, 0.58797
367, 2, bw, catch, NA, 999, 999, 3, 2, 145, 170, 135, 120, 106, 89, 1, 0.890398
367, 2, bw, catch, NA, 999, 999, 3, 2, 145, 170, 135, 120, 106, 89, 3, 0.34947
367, 2, bw, filler, NA, 999, 999, 3, 3, 127, 119, 181, 163, 60, 56, 2, 1.07734
367, 2, bw, filler, NA, 999, 999, 3, 3, 127, 119, 181, 163, 60, 56, 3, 0.464927
367, 2, bw, attraction, a-b-db, 14, 3, 3, 4, 195, 120, 120, 195, 111, 181, 2, 1.34017
367, 2, bw, attraction, a-b-db, 14, 3, 3, 4, 195, 120, 120, 195, 111, 181, 3, 0.972991
367, 2, bw, attraction, a-b-da, 9, 2, 3, 5, 157, 86, 165, 90, 90, 165, 2, 3.81934
367, 2, bw, attraction, a-b-da, 9, 2, 3, 5, 157, 86, 165, 90, 90, 165, 1, 0.848684
367, 2, bw, attraction, a-b-da, 5, 3, 3, 6, 195, 120, 120, 195, 190, 117, 2, 5.03647
367, 2, bw, attraction, a-b-da, 5, 3, 3, 6, 195, 120, 120, 195, 190, 117, 3, 0.256907
367, 2, bw, attraction, a-b-db, 2, 3, 3, 7, 195, 120, 119, 193, 120, 195, 3, 2.17205
367, 2, bw, attraction, a-b-db, 2, 3, 3, 7, 195, 120, 119, 193, 120, 195, 2, 1.37923
367, 2, bw, filler, NA, 999, 999, 3, 8, 193, 78, 111, 185, 92, 92, 2, 1.32946
367, 2, bw, filler, NA, 999, 999, 3, 8, 193, 78, 111, 185, 92, 92, 3, 0.515019
367, 2, bw, catch, NA, 999, 999, 3, 9, 95, 160, 109, 86, 126, 189, 3, 1.17217
367, 2, bw, catch, NA, 999, 999, 3, 9, 95, 160, 109, 86, 126, 189, 2, 1.49979
367, 2, bw, filler, NA, 999, 999, 3, 10, 108, 175, 121, 127, 97, 84, 1, 1.69326
367, 2, bw, filler, NA, 999, 999, 3, 10, 108, 175, 121, 127, 97, 84, 3, 0.328015
367, 2, bw, attraction, a-b-db, 9, 3, 3, 11, 195, 120, 114, 186, 120, 195, 3, 3.16848
367, 2, bw, attraction, a-b-db, 9, 3, 3, 11, 195, 120, 114, 186, 120, 195, 2, 0.824145
367, 2, bw, filler, NA, 999, 999, 3, 12, 109, 79, 138, 115, 88, 61, 2, 1.09247
367, 2, bw, filler, NA, 999, 999, 3, 12, 109, 79, 138, 115, 88, 61, 3, 0.423398
367, 2, bw, attraction, a-b-db, 9, 2, 3, 13, 165, 90, 90, 165, 86, 157, 2, 4.98796
367, 2, bw, attraction, a-b-db, 9, 2, 3, 13, 165, 90, 90, 165, 86, 157, 3, 0.281668
367, 2, bw, attraction, a-b-db, 2, 1, 3, 14, 135, 60, 59, 134, 60, 135, 2, 3.29222
367, 2, bw, attraction, a-b-db, 2, 1, 3, 14, 135, 60, 59, 134, 60, 135, 1, 0.68642
367, 2, bw, attraction, a-b-da, 5, 1, 3, 15, 135, 60, 132, 58, 60, 135, 1, 4.73688
367, 2, bw, attraction, a-b-da, 5, 1, 3, 15, 135, 60, 132, 58, 60, 135, 2, 0.633332
367, 2, bw, attraction, a-b-da, 5, 2, 3, 16, 161, 88, 165, 90, 90, 165, 3, 4.14972
367, 2, bw, attraction, a-b-da, 5, 2, 3, 16, 161, 88, 165, 90, 90, 165, 1, 0.573778
367, 2, bw, attraction, a-b-da, 2, 2, 3, 17, 163, 89, 165, 90, 90, 165, 3, 2.32431
367, 2, bw, attraction, a-b-da, 2, 2, 3, 17, 163, 89, 165, 90, 90, 165, 1, 0.581551
367, 2, bw, filler, NA, 999, 999, 3, 18, 176, 112, 172, 81, 79, 195, 1, 3.75182
367, 2, bw, filler, NA, 999, 999, 3, 18, 176, 112, 172, 81, 79, 195, 2, 0.803338
367, 2, bw, filler, NA, 999, 999, 3, 19, 92, 124, 183, 109, 96, 161, 2, 1.37707
367, 2, bw, filler, NA, 999, 999, 3, 19, 92, 124, 183, 109, 96, 161, 1, 0.312674
367, 2, bw, filler, NA, 999, 999, 3, 20, 146, 76, 146, 100, 162, 125, 3, 1.04978
367, 2, bw, filler, NA, 999, 999, 3, 20, 146, 76, 146, 100, 162, 125, 1, 0.382761
367, 2, bw, filler, NA, 999, 999, 3, 21, 151, 80, 179, 109, 171, 121, 3, 0.909219
367, 2, bw, filler, NA, 999, 999, 3, 21, 151, 80, 179, 109, 171, 121, 1, 0.775576
367, 2, bw, attraction, a-b-da, 2, 1, 3, 22, 135, 60, 60, 135, 134, 59, 3, 3.47798
367, 2, bw, attraction, a-b-da, 2, 1, 3, 22, 135, 60, 60, 135, 134, 59, 2, 0.416791
367, 2, bw, attraction, a-b-db, 14, 1, 3, 23, 135, 60, 56, 125, 60, 135, 2, 1.23797
367, 2, bw, attraction, a-b-db, 14, 1, 3, 23, 135, 60, 56, 125, 60, 135, 3, 0.370868
367, 2, bw, attraction, a-b-da, 14, 1, 3, 24, 125, 56, 135, 60, 60, 135, 3, 6.36201
367, 2, bw, attraction, a-b-da, 14, 1, 3, 24, 125, 56, 135, 60, 60, 135, 1, 0.456641
367, 2, bw, attraction, a-b-da, 9, 1, 3, 25, 135, 60, 60, 135, 129, 57, 2, 1.81187
367, 2, bw, attraction, a-b-da, 9, 1, 3, 25, 135, 60, 60, 135, 129, 57, 3, 1.13807
367, 2, bw, filler, NA, 999, 999, 3, 26, 123, 116, 131, 130, 190, 78, 2, 3.56224
367, 2, bw, filler, NA, 999, 999, 3, 26, 123, 116, 131, 130, 190, 78, 1, 0.28969
367, 2, bw, filler, NA, 999, 999, 3, 27, 101, 130, 135, 94, 101, 74, 1, 5.24348
367, 2, bw, filler, NA, 999, 999, 3, 27, 101, 130, 135, 94, 101, 74, 3, 0.423266
367, 2, bw, attraction, a-b-da, 14, 3, 3, 28, 181, 111, 120, 195, 195, 120, 2, 1.13967
367, 2, bw, attraction, a-b-da, 14, 3, 3, 28, 181, 111, 120, 195, 195, 120, 1, 0.3646
367, 2, bw, attraction, a-b-db, 9, 1, 3, 29, 60, 135, 135, 60, 57, 129, 1, 1.10782
367, 2, bw, attraction, a-b-db, 9, 1, 3, 29, 60, 135, 135, 60, 57, 129, 2, 1.11804
367, 2, bw, attraction, a-b-da, 9, 3, 3, 30, 195, 120, 120, 195, 186, 114, 2, 2.36707
367, 2, bw, attraction, a-b-da, 9, 3, 3, 30, 195, 120, 120, 195, 186, 114, 3, 0.734902
367, 2, bw, attraction, a-b-da, 2, 3, 3, 31, 193, 119, 120, 195, 195, 120, 2, 1.07933
367, 2, bw, attraction, a-b-da, 2, 3, 3, 31, 193, 119, 120, 195, 195, 120, 1, 0.906885
367, 2, bw, attraction, a-b-db, 14, 2, 3, 32, 90, 165, 83, 153, 165, 90, 1, 2.32392
367, 2, bw, attraction, a-b-db, 14, 2, 3, 32, 90, 165, 83, 153, 165, 90, 2, 1.20519
367, 2, bw, attraction, a-b-db, 5, 3, 3, 33, 117, 190, 120, 195, 195, 120, 2, 1.7388
367, 2, bw, attraction, a-b-db, 5, 3, 3, 33, 117, 190, 120, 195, 195, 120, 1, 0.411585
367, 2, bw, attraction, a-b-da, 14, 2, 3, 34, 165, 90, 153, 83, 90, 165, 1, 2.24869
367, 2, bw, attraction, a-b-da, 14, 2, 3, 34, 165, 90, 153, 83, 90, 165, 2, 0.221227
367, 2, bw, attraction, a-b-db, 5, 1, 3, 35, 58, 132, 135, 60, 60, 135, 3, 3.58644
367, 2, bw, attraction, a-b-db, 5, 1, 3, 35, 58, 132, 135, 60, 60, 135, 2, 0.433402
367, 2, bw, catch, NA, 999, 999, 3, 36, 123, 132, 67, 128, 176, 139, 3, 2.05375
367, 2, bw, catch, NA, 999, 999, 3, 36, 123, 132, 67, 128, 176, 139, 2, 0.561736
367, 2, bw, attraction, a-b-db, 2, 2, 3, 37, 165, 90, 90, 165, 89, 163, 2, 8.74489
367, 2, bw, attraction, a-b-db, 2, 2, 3, 37, 165, 90, 90, 165, 89, 163, 1, 0.951442
367, 2, bw, catch, NA, 999, 999, 4, 1, 190, 125, 130, 65, 96, 159, 1, 1.25514
367, 2, bw, catch, NA, 999, 999, 4, 1, 190, 125, 130, 65, 96, 159, 2, 0.331239
367, 2, bw, attraction, a-b-da, 5, 2, 4, 2, 165, 90, 90, 165, 161, 88, 2, 2.6118
367, 2, bw, attraction, a-b-da, 5, 2, 4, 2, 165, 90, 90, 165, 161, 88, 3, 1.00169
367, 2, bw, attraction, a-b-db, 2, 3, 4, 3, 119, 193, 195, 120, 120, 195, 2, 4.92729
367, 2, bw, attraction, a-b-db, 2, 3, 4, 3, 119, 193, 195, 120, 120, 195, 1, 0.863805
367, 2, bw, attraction, a-b-db, 14, 3, 4, 4, 111, 181, 120, 195, 195, 120, 3, 1.78688
367, 2, bw, attraction, a-b-db, 14, 3, 4, 4, 111, 181, 120, 195, 195, 120, 1, 0.402088
367, 2, bw, attraction, a-b-db, 2, 2, 4, 5, 89, 163, 90, 165, 165, 90, 2, 10.4559
367, 2, bw, attraction, a-b-db, 2, 2, 4, 5, 89, 163, 90, 165, 165, 90, 1, 1.02603
367, 2, bw, attraction, a-b-db, 9, 1, 4, 6, 135, 60, 60, 135, 57, 129, 2, 1.99826
367, 2, bw, attraction, a-b-db, 9, 1, 4, 6, 135, 60, 60, 135, 57, 129, 1, 0.367868
367, 2, bw, filler, NA, 999, 999, 4, 7, 172, 162, 92, 96, 155, 176, 1, 3.25225
367, 2, bw, filler, NA, 999, 999, 4, 7, 172, 162, 92, 96, 155, 176, 2, 0.368389
367, 2, bw, attraction, a-b-da, 14, 1, 4, 8, 125, 56, 135, 60, 60, 135, 1, 4.63967
367, 2, bw, attraction, a-b-da, 14, 1, 4, 8, 125, 56, 135, 60, 60, 135, 2, 1.09149
367, 2, bw, filler, NA, 999, 999, 4, 9, 97, 177, 90, 136, 185, 153, 3, 1.04496
367, 2, bw, filler, NA, 999, 999, 4, 9, 97, 177, 90, 136, 185, 153, 2, 1.24208
367, 2, bw, attraction, a-b-da, 5, 3, 4, 10, 195, 120, 190, 117, 120, 195, 1, 1.69358
367, 2, bw, attraction, a-b-da, 5, 3, 4, 10, 195, 120, 190, 117, 120, 195, 2, 0.800286
367, 2, bw, attraction, a-b-db, 2, 1, 4, 11, 135, 60, 59, 134, 60, 135, 2, 2.92603
367, 2, bw, attraction, a-b-db, 2, 1, 4, 11, 135, 60, 59, 134, 60, 135, 1, 1.23912
367, 2, bw, catch, NA, 999, 999, 4, 12, 140, 115, 194, 121, 85, 110, 2, 1.3953
367, 2, bw, catch, NA, 999, 999, 4, 12, 140, 115, 194, 121, 85, 110, 3, 0.482183
367, 2, bw, filler, NA, 999, 999, 4, 13, 138, 114, 127, 61, 63, 191, 1, 1.0126
367, 2, bw, filler, NA, 999, 999, 4, 13, 138, 114, 127, 61, 63, 191, 2, 0.658992
367, 2, bw, attraction, a-b-da, 9, 1, 4, 14, 135, 60, 60, 135, 129, 57, 2, 1.758
367, 2, bw, attraction, a-b-da, 9, 1, 4, 14, 135, 60, 60, 135, 129, 57, 1, 0.470163
367, 2, bw, filler, NA, 999, 999, 4, 15, 138, 194, 65, 194, 63, 74, 1, 0.905237
367, 2, bw, filler, NA, 999, 999, 4, 15, 138, 194, 65, 194, 63, 74, 3, 0.411589
367, 2, bw, filler, NA, 999, 999, 4, 16, 137, 68, 86, 148, 76, 128, 2, 1.27271
367, 2, bw, filler, NA, 999, 999, 4, 16, 137, 68, 86, 148, 76, 128, 3, 0.820294
367, 2, bw, attraction, a-b-da, 5, 1, 4, 17, 60, 135, 135, 60, 132, 58, 1, 1.30536
367, 2, bw, attraction, a-b-da, 5, 1, 4, 17, 60, 135, 135, 60, 132, 58, 2, 0.355661
367, 2, bw, attraction, a-b-da, 14, 2, 4, 18, 90, 165, 153, 83, 165, 90, 1, 1.29135
367, 2, bw, attraction, a-b-da, 14, 2, 4, 18, 90, 165, 153, 83, 165, 90, 2, 0.398351
367, 2, bw, attraction, a-b-da, 9, 2, 4, 19, 90, 165, 165, 90, 157, 86, 1, 1.19612
367, 2, bw, attraction, a-b-da, 9, 2, 4, 19, 90, 165, 165, 90, 157, 86, 2, 0.659055
367, 2, bw, attraction, a-b-da, 2, 1, 4, 20, 135, 60, 60, 135, 134, 59, 3, 1.8141
367, 2, bw, attraction, a-b-da, 2, 1, 4, 20, 135, 60, 60, 135, 134, 59, 2, 2.45218
367, 2, bw, attraction, a-b-db, 5, 1, 4, 21, 60, 135, 135, 60, 58, 132, 1, 1.30332
367, 2, bw, attraction, a-b-db, 5, 1, 4, 21, 60, 135, 135, 60, 58, 132, 2, 0.338222
367, 2, bw, filler, NA, 999, 999, 4, 22, 105, 105, 85, 130, 141, 119, 3, 2.09085
367, 2, bw, filler, NA, 999, 999, 4, 22, 105, 105, 85, 130, 141, 119, 1, 1.06938
367, 2, bw, attraction, a-b-da, 9, 3, 4, 23, 120, 195, 195, 120, 186, 114, 1, 1.19235
367, 2, bw, attraction, a-b-da, 9, 3, 4, 23, 120, 195, 195, 120, 186, 114, 3, 1.30335
367, 2, bw, attraction, a-b-db, 5, 3, 4, 24, 195, 120, 120, 195, 117, 190, 2, 1.09676
367, 2, bw, attraction, a-b-db, 5, 3, 4, 24, 195, 120, 120, 195, 117, 190, 3, 0.771771
367, 2, bw, attraction, a-b-da, 2, 2, 4, 25, 90, 165, 163, 89, 165, 90, 1, 2.5149
367, 2, bw, attraction, a-b-da, 2, 2, 4, 25, 90, 165, 163, 89, 165, 90, 2, 0.436667
367, 2, bw, attraction, a-b-db, 9, 2, 4, 26, 90, 165, 165, 90, 86, 157, 1, 2.13719
367, 2, bw, attraction, a-b-db, 9, 2, 4, 26, 90, 165, 165, 90, 86, 157, 2, 0.314485
367, 2, bw, attraction, a-b-db, 14, 2, 4, 27, 90, 165, 165, 90, 83, 153, 1, 1.46761
367, 2, bw, attraction, a-b-db, 14, 2, 4, 27, 90, 165, 165, 90, 83, 153, 3, 0.823915
367, 2, bw, attraction, a-b-db, 9, 3, 4, 28, 120, 195, 114, 186, 195, 120, 3, 1.47629
367, 2, bw, attraction, a-b-db, 9, 3, 4, 28, 120, 195, 114, 186, 195, 120, 1, 0.511705
367, 2, bw, attraction, a-b-db, 5, 2, 4, 29, 88, 161, 90, 165, 165, 90, 3, 0.712761
367, 2, bw, attraction, a-b-db, 5, 2, 4, 29, 88, 161, 90, 165, 165, 90, 1, 0.555173
367, 2, bw, attraction, a-b-da, 2, 3, 4, 30, 195, 120, 193, 119, 120, 195, 1, 3.84293
367, 2, bw, attraction, a-b-da, 2, 3, 4, 30, 195, 120, 193, 119, 120, 195, 3, 0.37515
367, 2, bw, attraction, a-b-da, 14, 3, 4, 31, 195, 120, 120, 195, 181, 111, 2, 2.81365
367, 2, bw, attraction, a-b-da, 14, 3, 4, 31, 195, 120, 120, 195, 181, 111, 3, 0.563289
367, 2, bw, filler, NA, 999, 999, 4, 32, 131, 142, 170, 120, 189, 180, 3, 0.770476
367, 2, bw, filler, NA, 999, 999, 4, 32, 131, 142, 170, 120, 189, 180, 1, 0.658134
367, 2, bw, catch, NA, 999, 999, 4, 33, 76, 119, 119, 136, 141, 174, 3, 1.29326
367, 2, bw, catch, NA, 999, 999, 4, 33, 76, 119, 119, 136, 141, 174, 1, 0.440113
367, 2, bw, attraction, a-b-db, 14, 1, 4, 34, 56, 125, 135, 60, 60, 135, 3, 2.69994
367, 2, bw, attraction, a-b-db, 14, 1, 4, 34, 56, 125, 135, 60, 60, 135, 1, 0.582452
367, 2, bw, filler, NA, 999, 999, 4, 35, 125, 130, 112, 118, 74, 141, 1, 1.61286
367, 2, bw, filler, NA, 999, 999, 4, 35, 125, 130, 112, 118, 74, 141, 2, 0.211083
367, 2, bw, filler, NA, 999, 999, 4, 36, 163, 118, 59, 130, 57, 180, 1, 1.12017
367, 2, bw, filler, NA, 999, 999, 4, 36, 163, 118, 59, 130, 57, 180, 2, 0.54671
367, 2, bw, filler, NA, 999, 999, 4, 37, 142, 126, 90, 122, 140, 131, 3, 2.22625
367, 2, bw, filler, NA, 999, 999, 4, 37, 142, 126, 90, 122, 140, 131, 2, 0.679543
367, 2, bw, attraction, a-b-db, 5, 1, 5, 1, 135, 60, 60, 135, 58, 132, 2, 1.44053
367, 2, bw, attraction, a-b-db, 5, 1, 5, 1, 135, 60, 60, 135, 58, 132, 3, 0.749369
367, 2, bw, attraction, a-b-da, 9, 3, 5, 2, 186, 114, 195, 120, 120, 195, 3, 1.11703
367, 2, bw, attraction, a-b-da, 9, 3, 5, 2, 186, 114, 195, 120, 120, 195, 1, 0.335395
367, 2, bw, filler, NA, 999, 999, 5, 3, 172, 139, 76, 136, 74, 105, 1, 0.655801
367, 2, bw, filler, NA, 999, 999, 5, 3, 172, 139, 76, 136, 74, 105, 3, 0.300353
367, 2, bw, catch, NA, 999, 999, 5, 4, 143, 172, 98, 97, 165, 90, 1, 0.854172
367, 2, bw, catch, NA, 999, 999, 5, 4, 143, 172, 98, 97, 165, 90, 2, 0.546498
367, 2, bw, attraction, a-b-da, 2, 3, 5, 5, 195, 120, 193, 119, 120, 195, 2, 0.88231
367, 2, bw, attraction, a-b-da, 2, 3, 5, 5, 195, 120, 193, 119, 120, 195, 1, 0.806157
367, 2, bw, attraction, a-b-da, 14, 3, 5, 6, 195, 120, 181, 111, 120, 195, 3, 0.684044
367, 2, bw, attraction, a-b-da, 14, 3, 5, 6, 195, 120, 181, 111, 120, 195, 1, 0.575471
367, 2, bw, attraction, a-b-db, 9, 1, 5, 7, 57, 129, 135, 60, 60, 135, 3, 2.6139
367, 2, bw, attraction, a-b-db, 9, 1, 5, 7, 57, 129, 135, 60, 60, 135, 1, 0.251753
367, 2, bw, attraction, a-b-db, 5, 2, 5, 8, 165, 90, 90, 165, 88, 161, 2, 1.17559
367, 2, bw, attraction, a-b-db, 5, 2, 5, 8, 165, 90, 90, 165, 88, 161, 3, 0.575166
367, 2, bw, filler, NA, 999, 999, 5, 9, 122, 188, 157, 74, 70, 91, 1, 0.805732
367, 2, bw, filler, NA, 999, 999, 5, 9, 122, 188, 157, 74, 70, 91, 3, 0.292005
367, 2, bw, attraction, a-b-db, 2, 2, 5, 10, 89, 163, 165, 90, 90, 165, 3, 0.861821
367, 2, bw, attraction, a-b-db, 2, 2, 5, 10, 89, 163, 165, 90, 90, 165, 1, 0.242169
367, 2, bw, attraction, a-b-da, 2, 1, 5, 11, 134, 59, 60, 135, 135, 60, 2, 1.67805
367, 2, bw, attraction, a-b-da, 2, 1, 5, 11, 134, 59, 60, 135, 135, 60, 1, 0.305511
367, 2, bw, catch, NA, 999, 999, 5, 12, 146, 109, 133, 62, 125, 190, 3, 1.49938
367, 2, bw, catch, NA, 999, 999, 5, 12, 146, 109, 133, 62, 125, 190, 2, 0.726233
367, 2, bw, attraction, a-b-da, 14, 1, 5, 13, 125, 56, 135, 60, 60, 135, 2, 2.2226
367, 2, bw, attraction, a-b-da, 14, 1, 5, 13, 125, 56, 135, 60, 60, 135, 1, 1.11587
367, 2, bw, filler, NA, 999, 999, 5, 14, 66, 138, 107, 161, 186, 102, 3, 0.972821
367, 2, bw, filler, NA, 999, 999, 5, 14, 66, 138, 107, 161, 186, 102, 1, 1.29243
367, 2, bw, attraction, a-b-db, 14, 1, 5, 15, 60, 135, 56, 125, 135, 60, 1, 2.03804
367, 2, bw, attraction, a-b-db, 14, 1, 5, 15, 60, 135, 56, 125, 135, 60, 2, 2.08266
367, 2, bw, filler, NA, 999, 999, 5, 16, 167, 95, 71, 182, 139, 136, 3, 1.95662
367, 2, bw, filler, NA, 999, 999, 5, 16, 167, 95, 71, 182, 139, 136, 2, 0.740671
367, 2, bw, filler, NA, 999, 999, 5, 17, 107, 163, 108, 119, 125, 145, 3, 0.996465
367, 2, bw, filler, NA, 999, 999, 5, 17, 107, 163, 108, 119, 125, 145, 2, 0.37934
367, 2, bw, filler, NA, 999, 999, 5, 18, 127, 102, 131, 177, 123, 145, 2, 1.2498
367, 2, bw, filler, NA, 999, 999, 5, 18, 127, 102, 131, 177, 123, 145, 1, 0.614762
367, 2, bw, attraction, a-b-da, 9, 1, 5, 19, 135, 60, 129, 57, 60, 135, 3, 1.70779
367, 2, bw, attraction, a-b-da, 9, 1, 5, 19, 135, 60, 129, 57, 60, 135, 2, 0.749907
367, 2, bw, filler, NA, 999, 999, 5, 20, 195, 137, 189, 134, 183, 180, 3, 1.83764
367, 2, bw, filler, NA, 999, 999, 5, 20, 195, 137, 189, 134, 183, 180, 2, 1.73045
367, 2, bw, attraction, a-b-da, 9, 2, 5, 21, 90, 165, 165, 90, 157, 86, 1, 1.32256
367, 2, bw, attraction, a-b-da, 9, 2, 5, 21, 90, 165, 165, 90, 157, 86, 3, 0.772048
367, 2, bw, attraction, a-b-db, 14, 3, 5, 22, 120, 195, 195, 120, 111, 181, 1, 2.31514
367, 2, bw, attraction, a-b-db, 14, 3, 5, 22, 120, 195, 195, 120, 111, 181, 3, 0.83702
367, 2, bw, filler, NA, 999, 999, 5, 23, 85, 129, 153, 157, 60, 169, 2, 2.11328
367, 2, bw, filler, NA, 999, 999, 5, 23, 85, 129, 153, 157, 60, 169, 1, 0.46723
367, 2, bw, attraction, a-b-db, 14, 2, 5, 24, 83, 153, 165, 90, 90, 165, 3, 1.8305
367, 2, bw, attraction, a-b-db, 14, 2, 5, 24, 83, 153, 165, 90, 90, 165, 1, 0.635808
367, 2, bw, attraction, a-b-db, 9, 3, 5, 25, 195, 120, 114, 186, 120, 195, 3, 2.03227
367, 2, bw, attraction, a-b-db, 9, 3, 5, 25, 195, 120, 114, 186, 120, 195, 2, 0.797598
367, 2, bw, catch, NA, 999, 999, 5, 26, 133, 122, 159, 156, 68, 127, 2, 0.787338
367, 2, bw, catch, NA, 999, 999, 5, 26, 133, 122, 159, 156, 68, 127, 3, 0.4184
367, 2, bw, filler, NA, 999, 999, 5, 27, 111, 151, 81, 183, 72, 154, 2, 2.0714
367, 2, bw, filler, NA, 999, 999, 5, 27, 111, 151, 81, 183, 72, 154, 3, 1.03481
367, 2, bw, attraction, a-b-da, 2, 2, 5, 28, 163, 89, 165, 90, 90, 165, 3, 1.58316
367, 2, bw, attraction, a-b-da, 2, 2, 5, 28, 163, 89, 165, 90, 90, 165, 2, 0.30257
367, 2, bw, attraction, a-b-da, 5, 3, 5, 29, 120, 195, 190, 117, 195, 120, 1, 2.18446
367, 2, bw, attraction, a-b-da, 5, 3, 5, 29, 120, 195, 190, 117, 195, 120, 2, 1.03169
367, 2, bw, attraction, a-b-da, 5, 1, 5, 30, 132, 58, 60, 135, 135, 60, 2, 1.25998
367, 2, bw, attraction, a-b-da, 5, 1, 5, 30, 132, 58, 60, 135, 135, 60, 1, 0.448288
367, 2, bw, attraction, a-b-db, 5, 3, 5, 31, 195, 120, 117, 190, 120, 195, 3, 1.60409
367, 2, bw, attraction, a-b-db, 5, 3, 5, 31, 195, 120, 117, 190, 120, 195, 1, 0.690157
367, 2, bw, attraction, a-b-da, 5, 2, 5, 32, 161, 88, 165, 90, 90, 165, 3, 4.09999
367, 2, bw, attraction, a-b-da, 5, 2, 5, 32, 161, 88, 165, 90, 90, 165, 1, 0.373831
367, 2, bw, filler, NA, 999, 999, 5, 33, 91, 146, 159, 124, 75, 145, 2, 0.94035
367, 2, bw, filler, NA, 999, 999, 5, 33, 91, 146, 159, 124, 75, 145, 1, 0.325382
367, 2, bw, attraction, a-b-da, 14, 2, 5, 34, 165, 90, 153, 83, 90, 165, 1, 3.90199
367, 2, bw, attraction, a-b-da, 14, 2, 5, 34, 165, 90, 153, 83, 90, 165, 2, 0.368145
367, 2, bw, attraction, a-b-db, 9, 2, 5, 35, 90, 165, 86, 157, 165, 90, 1, 1.29522
367, 2, bw, attraction, a-b-db, 9, 2, 5, 35, 90, 165, 86, 157, 165, 90, 2, 0.242057
367, 2, bw, attraction, a-b-db, 2, 3, 5, 36, 195, 120, 120, 195, 119, 193, 2, 1.06996
367, 2, bw, attraction, a-b-db, 2, 3, 5, 36, 195, 120, 120, 195, 119, 193, 3, 0.474256
367, 2, bw, attraction, a-b-db, 2, 1, 5, 37, 60, 135, 135, 60, 59, 134, 1, 1.56471
367, 2, bw, attraction, a-b-db, 2, 1, 5, 37, 60, 135, 135, 60, 59, 134, 2, 0.276851
367, 2, bw, filler, NA, 999, 999, 6, 1, 191, 77, 168, 171, 109, 105, 2, 0.6313
367, 2, bw, filler, NA, 999, 999, 6, 1, 191, 77, 168, 171, 109, 105, 3, 0.293121
367, 2, bw, filler, NA, 999, 999, 6, 2, 68, 102, 156, 117, 148, 72, 2, 0.742985
367, 2, bw, filler, NA, 999, 999, 6, 2, 68, 102, 156, 117, 148, 72, 1, 0.608077
367, 2, bw, attraction, a-b-db, 9, 1, 6, 3, 60, 135, 57, 129, 135, 60, 1, 1.73329
367, 2, bw, attraction, a-b-db, 9, 1, 6, 3, 60, 135, 57, 129, 135, 60, 3, 0.374768
367, 2, bw, attraction, a-b-da, 5, 3, 6, 4, 195, 120, 190, 117, 120, 195, 1, 3.12512
367, 2, bw, attraction, a-b-da, 5, 3, 6, 4, 195, 120, 190, 117, 120, 195, 3, 0.37406
367, 2, bw, attraction, a-b-da, 5, 2, 6, 5, 90, 165, 165, 90, 161, 88, 1, 1.3005
367, 2, bw, attraction, a-b-da, 5, 2, 6, 5, 90, 165, 165, 90, 161, 88, 3, 0.27155
367, 2, bw, filler, NA, 999, 999, 6, 6, 118, 177, 173, 191, 191, 134, 2, 1.19473
367, 2, bw, filler, NA, 999, 999, 6, 6, 118, 177, 173, 191, 191, 134, 1, 0.249607
367, 2, bw, filler, NA, 999, 999, 6, 7, 109, 148, 176, 102, 185, 115, 3, 1.71749
367, 2, bw, filler, NA, 999, 999, 6, 7, 109, 148, 176, 102, 185, 115, 1, 3.63959
367, 2, bw, catch, NA, 999, 999, 6, 8, 75, 120, 145, 170, 140, 115, 2, 0.858951
367, 2, bw, catch, NA, 999, 999, 6, 8, 75, 120, 145, 170, 140, 115, 1, 0.247401
367, 2, bw, attraction, a-b-db, 2, 2, 6, 9, 89, 163, 165, 90, 90, 165, 3, 1.29129
367, 2, bw, attraction, a-b-db, 2, 2, 6, 9, 89, 163, 165, 90, 90, 165, 2, 1.18223
367, 2, bw, attraction, a-b-da, 9, 1, 6, 10, 129, 57, 60, 135, 135, 60, 2, 0.996343
367, 2, bw, attraction, a-b-da, 9, 1, 6, 10, 129, 57, 60, 135, 135, 60, 1, 0.49938
367, 2, bw, filler, NA, 999, 999, 6, 11, 89, 57, 66, 124, 149, 133, 3, 1.15713
367, 2, bw, filler, NA, 999, 999, 6, 11, 89, 57, 66, 124, 149, 133, 1, 0.677646
367, 2, bw, attraction, a-b-db, 14, 2, 6, 12, 83, 153, 90, 165, 165, 90, 2, 1.33586
367, 2, bw, attraction, a-b-db, 14, 2, 6, 12, 83, 153, 90, 165, 165, 90, 3, 0.57754
367, 2, bw, attraction, a-b-da, 14, 3, 6, 13, 120, 195, 195, 120, 181, 111, 1, 2.54386
367, 2, bw, attraction, a-b-da, 14, 3, 6, 13, 120, 195, 195, 120, 181, 111, 2, 0.328404
367, 2, bw, attraction, a-b-da, 2, 1, 6, 14, 134, 59, 135, 60, 60, 135, 1, 2.41687
367, 2, bw, attraction, a-b-da, 2, 1, 6, 14, 134, 59, 135, 60, 60, 135, 2, 0.712425
367, 2, bw, attraction, a-b-da, 2, 2, 6, 15, 163, 89, 90, 165, 165, 90, 3, 2.83979
367, 2, bw, attraction, a-b-da, 2, 2, 6, 15, 163, 89, 90, 165, 165, 90, 2, 0.3698
367, 2, bw, attraction, a-b-da, 9, 3, 6, 16, 195, 120, 120, 195, 186, 114, 1, 1.24355
367, 2, bw, attraction, a-b-da, 9, 3, 6, 16, 195, 120, 120, 195, 186, 114, 2, 0.448319
367, 2, bw, filler, NA, 999, 999, 6, 17, 85, 155, 92, 140, 97, 94, 2, 1.21216
367, 2, bw, filler, NA, 999, 999, 6, 17, 85, 155, 92, 140, 97, 94, 3, 0.330381
367, 2, bw, catch, NA, 999, 999, 6, 18, 117, 78, 173, 142, 127, 128, 2, 1.21097
367, 2, bw, catch, NA, 999, 999, 6, 18, 117, 78, 173, 142, 127, 128, 1, 0.337059
367, 2, bw, attraction, a-b-db, 2, 3, 6, 19, 119, 193, 120, 195, 195, 120, 2, 1.78568
367, 2, bw, attraction, a-b-db, 2, 3, 6, 19, 119, 193, 120, 195, 195, 120, 1, 0.409061
367, 2, bw, attraction, a-b-db, 14, 3, 6, 20, 111, 181, 195, 120, 120, 195, 3, 1.7022
367, 2, bw, attraction, a-b-db, 14, 3, 6, 20, 111, 181, 195, 120, 120, 195, 1, 0.272968
367, 2, bw, attraction, a-b-db, 9, 3, 6, 21, 120, 195, 114, 186, 195, 120, 1, 1.92351
367, 2, bw, attraction, a-b-db, 9, 3, 6, 21, 120, 195, 114, 186, 195, 120, 2, 0.236856
367, 2, bw, attraction, a-b-da, 9, 2, 6, 22, 90, 165, 165, 90, 157, 86, 1, 3.50543
367, 2, bw, attraction, a-b-da, 9, 2, 6, 22, 90, 165, 165, 90, 157, 86, 3, 0.330978
367, 2, bw, attraction, a-b-db, 5, 2, 6, 23, 88, 161, 90, 165, 165, 90, 2, 1.81945
367, 2, bw, attraction, a-b-db, 5, 2, 6, 23, 88, 161, 90, 165, 165, 90, 1, 0.497577
367, 2, bw, filler, NA, 999, 999, 6, 24, 186, 112, 143, 123, 126, 63, 1, 1.88336
367, 2, bw, filler, NA, 999, 999, 6, 24, 186, 112, 143, 123, 126, 63, 3, 0.614758
367, 2, bw, attraction, a-b-db, 14, 1, 6, 25, 56, 125, 135, 60, 60, 135, 3, 1.61988
367, 2, bw, attraction, a-b-db, 14, 1, 6, 25, 56, 125, 135, 60, 60, 135, 1, 0.321942
367, 2, bw, filler, NA, 999, 999, 6, 26, 120, 192, 154, 61, 181, 182, 3, 1.29909
367, 2, bw, filler, NA, 999, 999, 6, 26, 120, 192, 154, 61, 181, 182, 2, 0.429986
367, 2, bw, attraction, a-b-db, 9, 2, 6, 27, 86, 157, 90, 165, 165, 90, 2, 3.33865
367, 2, bw, attraction, a-b-db, 9, 2, 6, 27, 86, 157, 90, 165, 165, 90, 1, 0.570746
367, 2, bw, filler, NA, 999, 999, 6, 28, 187, 150, 184, 59, 130, 124, 1, 1.50592
367, 2, bw, filler, NA, 999, 999, 6, 28, 187, 150, 184, 59, 130, 124, 2, 3.17202
367, 2, bw, filler, NA, 999, 999, 6, 29, 119, 66, 95, 147, 138, 144, 3, 0.930207
367, 2, bw, filler, NA, 999, 999, 6, 29, 119, 66, 95, 147, 138, 144, 1, 0.420077
367, 2, bw, catch, NA, 999, 999, 6, 30, 102, 93, 143, 112, 159, 156, 3, 0.809185
367, 2, bw, catch, NA, 999, 999, 6, 30, 102, 93, 143, 112, 159, 156, 1, 0.383948
367, 2, bw, attraction, a-b-da, 14, 1, 6, 31, 135, 60, 60, 135, 125, 56, 2, 1.33399
367, 2, bw, attraction, a-b-da, 14, 1, 6, 31, 135, 60, 60, 135, 125, 56, 3, 0.543618
367, 2, bw, attraction, a-b-db, 5, 1, 6, 32, 58, 132, 135, 60, 60, 135, 3, 1.7993
367, 2, bw, attraction, a-b-db, 5, 1, 6, 32, 58, 132, 135, 60, 60, 135, 1, 0.821974
367, 2, bw, attraction, a-b-da, 5, 1, 6, 33, 60, 135, 132, 58, 135, 60, 1, 0.890974
367, 2, bw, attraction, a-b-da, 5, 1, 6, 33, 60, 135, 132, 58, 135, 60, 2, 0.566125
367, 2, bw, attraction, a-b-db, 2, 1, 6, 34, 60, 135, 135, 60, 59, 134, 1, 0.901222
367, 2, bw, attraction, a-b-db, 2, 1, 6, 34, 60, 135, 135, 60, 59, 134, 2, 0.560173
367, 2, bw, attraction, a-b-da, 14, 2, 6, 35, 165, 90, 90, 165, 153, 83, 1, 2.50338
367, 2, bw, attraction, a-b-da, 14, 2, 6, 35, 165, 90, 90, 165, 153, 83, 2, 0.481862
367, 2, bw, attraction, a-b-db, 5, 3, 6, 36, 117, 190, 120, 195, 195, 120, 3, 1.66834
367, 2, bw, attraction, a-b-db, 5, 3, 6, 36, 117, 190, 120, 195, 195, 120, 1, 0.472488
367, 2, bw, attraction, a-b-da, 2, 3, 6, 37, 195, 120, 193, 119, 120, 195, 2, 1.69959
367, 2, bw, attraction, a-b-da, 2, 3, 6, 37, 195, 120, 193, 119, 120, 195, 3, 0.614437
367, 2, bw, attraction, a-b-db, 2, 1, 7, 1, 135, 60, 60, 135, 59, 134, 2, 1.73945
367, 2, bw, attraction, a-b-db, 2, 1, 7, 1, 135, 60, 60, 135, 59, 134, 1, 0.78027
367, 2, bw, filler, NA, 999, 999, 7, 2, 56, 192, 169, 94, 132, 144, 3, 2.30657
367, 2, bw, filler, NA, 999, 999, 7, 2, 56, 192, 169, 94, 132, 144, 1, 1.19641
367, 2, bw, filler, NA, 999, 999, 7, 3, 184, 104, 134, 114, 69, 61, 1, 2.0101
367, 2, bw, filler, NA, 999, 999, 7, 3, 184, 104, 134, 114, 69, 61, 3, 0.744065
367, 2, bw, attraction, a-b-db, 2, 2, 7, 4, 165, 90, 89, 163, 90, 165, 2, 2.37568
367, 2, bw, attraction, a-b-db, 2, 2, 7, 4, 165, 90, 89, 163, 90, 165, 1, 0.815018
367, 2, bw, catch, NA, 999, 999, 7, 5, 124, 131, 122, 73, 123, 192, 3, 1.06033
367, 2, bw, catch, NA, 999, 999, 7, 5, 124, 131, 122, 73, 123, 192, 2, 0.672473
367, 2, bw, attraction, a-b-da, 9, 1, 7, 6, 135, 60, 129, 57, 60, 135, 2, 1.15535
367, 2, bw, attraction, a-b-da, 9, 1, 7, 6, 135, 60, 129, 57, 60, 135, 3, 2.66768
367, 2, bw, filler, NA, 999, 999, 7, 7, 79, 154, 142, 138, 160, 103, 2, 1.31016
367, 2, bw, filler, NA, 999, 999, 7, 7, 79, 154, 142, 138, 160, 103, 1, 0.624276
367, 2, bw, attraction, a-b-db, 14, 2, 7, 8, 83, 153, 165, 90, 90, 165, 3, 2.26873
367, 2, bw, attraction, a-b-db, 14, 2, 7, 8, 83, 153, 165, 90, 90, 165, 1, 0.752656
367, 2, bw, attraction, a-b-db, 5, 3, 7, 9, 120, 195, 195, 120, 117, 190, 2, 9.78437
367, 2, bw, attraction, a-b-db, 5, 3, 7, 9, 120, 195, 195, 120, 117, 190, 1, 0.517326
367, 2, bw, attraction, a-b-da, 14, 3, 7, 10, 120, 195, 195, 120, 181, 111, 2, 2.29437
367, 2, bw, attraction, a-b-da, 14, 3, 7, 10, 120, 195, 195, 120, 181, 111, 1, 0.288951
367, 2, bw, attraction, a-b-da, 5, 1, 7, 11, 135, 60, 60, 135, 132, 58, 1, 1.98768
367, 2, bw, attraction, a-b-da, 5, 1, 7, 11, 135, 60, 60, 135, 132, 58, 2, 0.274123
367, 2, bw, filler, NA, 999, 999, 7, 12, 139, 167, 185, 136, 167, 75, 2, 1.61271
367, 2, bw, filler, NA, 999, 999, 7, 12, 139, 167, 185, 136, 167, 75, 1, 0.234928
367, 2, bw, filler, NA, 999, 999, 7, 13, 152, 145, 154, 105, 152, 144, 3, 0.951481
367, 2, bw, filler, NA, 999, 999, 7, 13, 152, 145, 154, 105, 152, 144, 2, 1.10441
367, 2, bw, attraction, a-b-da, 14, 2, 7, 14, 165, 90, 90, 165, 153, 83, 1, 0.962071
367, 2, bw, attraction, a-b-da, 14, 2, 7, 14, 165, 90, 90, 165, 153, 83, 2, 0.306431
367, 2, bw, attraction, a-b-db, 14, 1, 7, 15, 56, 125, 60, 135, 135, 60, 2, 1.58744
367, 2, bw, attraction, a-b-db, 14, 1, 7, 15, 56, 125, 60, 135, 135, 60, 1, 0.522301
367, 2, bw, attraction, a-b-da, 2, 2, 7, 16, 165, 90, 90, 165, 163, 89, 2, 0.923355
367, 2, bw, attraction, a-b-da, 2, 2, 7, 16, 165, 90, 90, 165, 163, 89, 3, 0.629156
367, 2, bw, attraction, a-b-da, 2, 1, 7, 17, 60, 135, 135, 60, 134, 59, 1, 1.19355
367, 2, bw, attraction, a-b-da, 2, 1, 7, 17, 60, 135, 135, 60, 134, 59, 3, 0.616469
367, 2, bw, filler, NA, 999, 999, 7, 18, 122, 158, 89, 161, 120, 74, 1, 0.813629
367, 2, bw, filler, NA, 999, 999, 7, 18, 122, 158, 89, 161, 120, 74, 3, 0.587977
367, 2, bw, catch, NA, 999, 999, 7, 19, 60, 135, 139, 116, 166, 149, 3, 1.05836
367, 2, bw, catch, NA, 999, 999, 7, 19, 60, 135, 139, 116, 166, 149, 1, 0.408937
367, 2, bw, attraction, a-b-db, 9, 2, 7, 20, 90, 165, 86, 157, 165, 90, 1, 1.20377
367, 2, bw, attraction, a-b-db, 9, 2, 7, 20, 90, 165, 86, 157, 165, 90, 3, 1.2187
367, 2, bw, filler, NA, 999, 999, 7, 21, 88, 72, 63, 59, 147, 83, 3, 0.951707
367, 2, bw, filler, NA, 999, 999, 7, 21, 88, 72, 63, 59, 147, 83, 2, 0.520618
367, 2, bw, attraction, a-b-da, 2, 3, 7, 22, 193, 119, 195, 120, 120, 195, 1, 3.00976
367, 2, bw, attraction, a-b-da, 2, 3, 7, 22, 193, 119, 195, 120, 120, 195, 3, 0.223436
367, 2, bw, filler, NA, 999, 999, 7, 23, 195, 123, 72, 132, 154, 82, 1, 0.82001
367, 2, bw, filler, NA, 999, 999, 7, 23, 195, 123, 72, 132, 154, 82, 2, 0.306428
367, 2, bw, attraction, a-b-da, 9, 2, 7, 24, 90, 165, 157, 86, 165, 90, 1, 1.49151
367, 2, bw, attraction, a-b-da, 9, 2, 7, 24, 90, 165, 157, 86, 165, 90, 2, 0.662364
367, 2, bw, attraction, a-b-da, 9, 3, 7, 25, 186, 114, 120, 195, 195, 120, 2, 2.09742
367, 2, bw, attraction, a-b-da, 9, 3, 7, 25, 186, 114, 120, 195, 195, 120, 1, 0.708114
367, 2, bw, attraction, a-b-da, 5, 3, 7, 26, 190, 117, 120, 195, 195, 120, 2, 2.97318
367, 2, bw, attraction, a-b-da, 5, 3, 7, 26, 190, 117, 120, 195, 195, 120, 1, 0.644162
367, 2, bw, attraction, a-b-db, 2, 3, 7, 27, 119, 193, 120, 195, 195, 120, 1, 1.77605
367, 2, bw, attraction, a-b-db, 2, 3, 7, 27, 119, 193, 120, 195, 195, 120, 3, 0.423304
367, 2, bw, attraction, a-b-da, 14, 1, 7, 28, 135, 60, 60, 135, 125, 56, 2, 0.907826
367, 2, bw, attraction, a-b-da, 14, 1, 7, 28, 135, 60, 60, 135, 125, 56, 3, 0.782274
367, 2, bw, filler, NA, 999, 999, 7, 29, 91, 163, 159, 169, 169, 104, 2, 1.74855
367, 2, bw, filler, NA, 999, 999, 7, 29, 91, 163, 159, 169, 169, 104, 1, 0.493303
367, 2, bw, attraction, a-b-da, 5, 2, 7, 30, 161, 88, 165, 90, 90, 165, 1, 1.07909
367, 2, bw, attraction, a-b-da, 5, 2, 7, 30, 161, 88, 165, 90, 90, 165, 3, 1.21075
367, 2, bw, filler, NA, 999, 999, 7, 31, 137, 100, 92, 109, 84, 58, 1, 1.04761
367, 2, bw, filler, NA, 999, 999, 7, 31, 137, 100, 92, 109, 84, 58, 3, 0.836678
367, 2, bw, attraction, a-b-db, 14, 3, 7, 32, 120, 195, 195, 120, 111, 181, 1, 6.29705
367, 2, bw, attraction, a-b-db, 14, 3, 7, 32, 120, 195, 195, 120, 111, 181, 2, 0.394247
367, 2, bw, catch, NA, 999, 999, 7, 33, 154, 161, 144, 111, 109, 86, 1, 0.984087
367, 2, bw, catch, NA, 999, 999, 7, 33, 154, 161, 144, 111, 109, 86, 3, 0.359759
367, 2, bw, attraction, a-b-db, 9, 3, 7, 34, 195, 120, 114, 186, 120, 195, 2, 3.65504
367, 2, bw, attraction, a-b-db, 9, 3, 7, 34, 195, 120, 114, 186, 120, 195, 3, 0.682495
367, 2, bw, attraction, a-b-db, 9, 1, 7, 35, 60, 135, 57, 129, 135, 60, 1, 1.82079
367, 2, bw, attraction, a-b-db, 9, 1, 7, 35, 60, 135, 57, 129, 135, 60, 3, 0.418943
367, 2, bw, attraction, a-b-db, 5, 2, 7, 36, 165, 90, 90, 165, 88, 161, 2, 1.66412
367, 2, bw, attraction, a-b-db, 5, 2, 7, 36, 165, 90, 90, 165, 88, 161, 1, 0.300169
367, 2, bw, attraction, a-b-db, 5, 1, 7, 37, 60, 135, 135, 60, 58, 132, 1, 0.869999
367, 2, bw, attraction, a-b-db, 5, 1, 7, 37, 60, 135, 135, 60, 58, 132, 3, 0.554461
367, 2, bw, attraction, a-b-da, 2, 1, 8, 1, 134, 59, 135, 60, 60, 135, 3, 7.42632
367, 2, bw, attraction, a-b-da, 2, 1, 8, 1, 134, 59, 135, 60, 60, 135, 2, 0.605808
367, 2, bw, filler, NA, 999, 999, 8, 2, 150, 111, 157, 177, 167, 85, 2, 0.923611
367, 2, bw, filler, NA, 999, 999, 8, 2, 150, 111, 157, 177, 167, 85, 3, 1.77326
367, 2, bw, filler, NA, 999, 999, 8, 3, 149, 82, 195, 113, 182, 114, 3, 1.41931
367, 2, bw, filler, NA, 999, 999, 8, 3, 149, 82, 195, 113, 182, 114, 1, 0.457562
367, 2, bw, attraction, a-b-da, 2, 2, 8, 4, 163, 89, 90, 165, 165, 90, 2, 1.07656
367, 2, bw, attraction, a-b-da, 2, 2, 8, 4, 163, 89, 90, 165, 165, 90, 3, 0.264302
367, 2, bw, attraction, a-b-db, 2, 1, 8, 5, 59, 134, 135, 60, 60, 135, 1, 1.26753
367, 2, bw, attraction, a-b-db, 2, 1, 8, 5, 59, 134, 135, 60, 60, 135, 2, 0.287754
367, 2, bw, catch, NA, 999, 999, 8, 6, 179, 136, 66, 129, 101, 154, 1, 0.610154
367, 2, bw, catch, NA, 999, 999, 8, 6, 179, 136, 66, 129, 101, 154, 2, 0.400661
367, 2, bw, attraction, a-b-db, 14, 2, 8, 7, 165, 90, 83, 153, 90, 165, 3, 3.18248
367, 2, bw, attraction, a-b-db, 14, 2, 8, 7, 165, 90, 83, 153, 90, 165, 1, 0.261591
367, 2, bw, filler, NA, 999, 999, 8, 8, 107, 121, 137, 187, 87, 160, 2, 0.75269
367, 2, bw, filler, NA, 999, 999, 8, 8, 107, 121, 137, 187, 87, 160, 1, 0.281687
367, 2, bw, attraction, a-b-da, 14, 2, 8, 9, 165, 90, 153, 83, 90, 165, 1, 0.788268
367, 2, bw, attraction, a-b-da, 14, 2, 8, 9, 165, 90, 153, 83, 90, 165, 2, 0.307336
367, 2, bw, catch, NA, 999, 999, 8, 10, 95, 160, 166, 149, 67, 128, 2, 0.756473
367, 2, bw, catch, NA, 999, 999, 8, 10, 95, 160, 166, 149, 67, 128, 1, 0.300929
367, 2, bw, attraction, a-b-da, 14, 3, 8, 11, 120, 195, 181, 111, 195, 120, 1, 0.838816
367, 2, bw, attraction, a-b-da, 14, 3, 8, 11, 120, 195, 181, 111, 195, 120, 2, 0.419791
367, 2, bw, filler, NA, 999, 999, 8, 12, 178, 61, 87, 128, 111, 174, 3, 0.96886
367, 2, bw, filler, NA, 999, 999, 8, 12, 178, 61, 87, 128, 111, 174, 1, 0.297254
367, 2, bw, attraction, a-b-db, 5, 3, 8, 13, 195, 120, 120, 195, 117, 190, 2, 1.70715
367, 2, bw, attraction, a-b-db, 5, 3, 8, 13, 195, 120, 120, 195, 117, 190, 3, 0.9173
367, 2, bw, attraction, a-b-da, 5, 2, 8, 14, 90, 165, 165, 90, 161, 88, 1, 1.38222
367, 2, bw, attraction, a-b-da, 5, 2, 8, 14, 90, 165, 165, 90, 161, 88, 3, 0.717684
367, 2, bw, attraction, a-b-da, 5, 1, 8, 15, 60, 135, 132, 58, 135, 60, 1, 1.38287
367, 2, bw, attraction, a-b-da, 5, 1, 8, 15, 60, 135, 132, 58, 135, 60, 2, 0.438356
367, 2, bw, filler, NA, 999, 999, 8, 16, 87, 75, 70, 76, 195, 136, 3, 0.59481
367, 2, bw, filler, NA, 999, 999, 8, 16, 87, 75, 70, 76, 195, 136, 2, 0.810062
367, 2, bw, catch, NA, 999, 999, 8, 17, 85, 110, 102, 153, 193, 122, 3, 2.21496
367, 2, bw, catch, NA, 999, 999, 8, 17, 85, 110, 102, 153, 193, 122, 1, 0.34093
367, 2, bw, attraction, a-b-da, 9, 1, 8, 18, 129, 57, 135, 60, 60, 135, 1, 1.10864
367, 2, bw, attraction, a-b-da, 9, 1, 8, 18, 129, 57, 135, 60, 60, 135, 2, 0.943027
367, 2, bw, attraction, a-b-db, 14, 3, 8, 19, 120, 195, 195, 120, 111, 181, 2, 2.59077
367, 2, bw, attraction, a-b-db, 14, 3, 8, 19, 120, 195, 195, 120, 111, 181, 3, 0.613211
367, 2, bw, attraction, a-b-db, 2, 3, 8, 20, 195, 120, 120, 195, 119, 193, 3, 1.96225
367, 2, bw, attraction, a-b-db, 2, 3, 8, 20, 195, 120, 120, 195, 119, 193, 2, 0.402221
367, 2, bw, attraction, a-b-da, 9, 3, 8, 21, 120, 195, 195, 120, 186, 114, 2, 1.87231
367, 2, bw, attraction, a-b-da, 9, 3, 8, 21, 120, 195, 195, 120, 186, 114, 1, 0.387497
367, 2, bw, filler, NA, 999, 999, 8, 22, 146, 117, 100, 118, 124, 106, 1, 4.578
367, 2, bw, filler, NA, 999, 999, 8, 22, 146, 117, 100, 118, 124, 106, 3, 0.208528
367, 2, bw, attraction, a-b-db, 9, 3, 8, 23, 120, 195, 195, 120, 114, 186, 1, 8.06974
367, 2, bw, attraction, a-b-db, 9, 3, 8, 23, 120, 195, 195, 120, 114, 186, 3, 0.295847
367, 2, bw, filler, NA, 999, 999, 8, 24, 136, 160, 57, 176, 127, 83, 1, 1.6802
367, 2, bw, filler, NA, 999, 999, 8, 24, 136, 160, 57, 176, 127, 83, 3, 0.725168
367, 2, bw, filler, NA, 999, 999, 8, 25, 184, 139, 82, 128, 91, 123, 1, 1.43762
367, 2, bw, filler, NA, 999, 999, 8, 25, 184, 139, 82, 128, 91, 123, 3, 0.618365
367, 2, bw, attraction, a-b-db, 5, 2, 8, 26, 90, 165, 165, 90, 88, 161, 2, 11.0475
367, 2, bw, attraction, a-b-db, 5, 2, 8, 26, 90, 165, 165, 90, 88, 161, 3, 0.729337
367, 2, bw, attraction, a-b-da, 9, 2, 8, 27, 157, 86, 165, 90, 90, 165, 2, 1.08974
367, 2, bw, attraction, a-b-da, 9, 2, 8, 27, 157, 86, 165, 90, 90, 165, 1, 0.236736
367, 2, bw, attraction, a-b-da, 14, 1, 8, 28, 60, 135, 125, 56, 135, 60, 1, 1.4572
367, 2, bw, attraction, a-b-da, 14, 1, 8, 28, 60, 135, 125, 56, 135, 60, 2, 0.309552
367, 2, bw, attraction, a-b-db, 5, 1, 8, 29, 135, 60, 60, 135, 58, 132, 2, 1.27866
367, 2, bw, attraction, a-b-db, 5, 1, 8, 29, 135, 60, 60, 135, 58, 132, 3, 0.810169
367, 2, bw, attraction, a-b-da, 5, 3, 8, 30, 195, 120, 190, 117, 120, 195, 1, 1.44716
367, 2, bw, attraction, a-b-da, 5, 3, 8, 30, 195, 120, 190, 117, 120, 195, 3, 0.20409
367, 2, bw, filler, NA, 999, 999, 8, 31, 181, 91, 150, 105, 172, 78, 2, 2.71384
367, 2, bw, filler, NA, 999, 999, 8, 31, 181, 91, 150, 105, 172, 78, 3, 1.05962
367, 2, bw, filler, NA, 999, 999, 8, 32, 132, 155, 169, 136, 153, 130, 2, 1.7586
367, 2, bw, filler, NA, 999, 999, 8, 32, 132, 155, 169, 136, 153, 130, 1, 0.262623
367, 2, bw, attraction, a-b-db, 14, 1, 8, 33, 135, 60, 60, 135, 56, 125, 2, 2.20201
367, 2, bw, attraction, a-b-db, 14, 1, 8, 33, 135, 60, 60, 135, 56, 125, 3, 0.21645
367, 2, bw, attraction, a-b-da, 2, 3, 8, 34, 195, 120, 120, 195, 193, 119, 1, 2.08574
367, 2, bw, attraction, a-b-da, 2, 3, 8, 34, 195, 120, 120, 195, 193, 119, 3, 0.400969
367, 2, bw, attraction, a-b-db, 9, 1, 8, 35, 57, 129, 135, 60, 60, 135, 3, 2.62286
367, 2, bw, attraction, a-b-db, 9, 1, 8, 35, 57, 129, 135, 60, 60, 135, 2, 0.275976
367, 2, bw, attraction, a-b-db, 2, 2, 8, 36, 165, 90, 89, 163, 90, 165, 1, 2.49447
367, 2, bw, attraction, a-b-db, 2, 2, 8, 36, 165, 90, 89, 163, 90, 165, 3, 0.657079
367, 2, bw, attraction, a-b-db, 9, 2, 8, 37, 86, 157, 165, 90, 90, 165, 3, 0.956075
367, 2, bw, attraction, a-b-db, 9, 2, 8, 37, 86, 157, 165, 90, 90, 165, 1, 0.532441
