sub_n, computer_n, bw_cond, effect, set, distance, diag, block_n, trial_n, h1, w1, h2, w2, h3, w3, choice, rt 
341, 2, bw, practice, NA, 999, 999, 0, 1, 190, 77, 108, 117, 185, 105, 3, 3.22028
341, 2, bw, practice, NA, 999, 999, 0, 1, 190, 77, 108, 117, 185, 105, 1, 1.77754
341, 2, bw, practice, NA, 999, 999, 0, 2, 162, 184, 145, 158, 157, 124, 1, 1.85938
341, 2, bw, practice, NA, 999, 999, 0, 2, 162, 184, 145, 158, 157, 124, 3, 1.09416
341, 2, bw, practice, NA, 999, 999, 0, 3, 102, 111, 181, 123, 126, 187, 3, 2.18087
341, 2, bw, practice, NA, 999, 999, 0, 3, 102, 111, 181, 123, 126, 187, 1, 0.909543
341, 2, bw, attraction, a-b-da, 9, 1, 1, 1, 135, 60, 129, 57, 60, 135, 3, 2.20461
341, 2, bw, attraction, a-b-da, 9, 1, 1, 1, 135, 60, 129, 57, 60, 135, 2, 1.0826
341, 2, bw, attraction, a-b-db, 9, 1, 1, 2, 57, 129, 135, 60, 60, 135, 3, 0.980853
341, 2, bw, attraction, a-b-db, 9, 1, 1, 2, 57, 129, 135, 60, 60, 135, 2, 1.09253
341, 2, bw, attraction, a-b-db, 2, 3, 1, 3, 119, 193, 120, 195, 195, 120, 2, 2.11811
341, 2, bw, attraction, a-b-db, 2, 3, 1, 3, 119, 193, 120, 195, 195, 120, 3, 1.5441
341, 2, bw, attraction, a-b-da, 14, 2, 1, 4, 153, 83, 165, 90, 90, 165, 3, 1.21553
341, 2, bw, attraction, a-b-da, 14, 2, 1, 4, 153, 83, 165, 90, 90, 165, 1, 0.579069
341, 2, bw, attraction, a-b-da, 2, 2, 1, 5, 163, 89, 165, 90, 90, 165, 3, 1.46823
341, 2, bw, attraction, a-b-da, 2, 2, 1, 5, 163, 89, 165, 90, 90, 165, 2, 0.504349
341, 2, bw, attraction, a-b-da, 5, 2, 1, 6, 161, 88, 90, 165, 165, 90, 2, 1.30615
341, 2, bw, attraction, a-b-da, 5, 2, 1, 6, 161, 88, 90, 165, 165, 90, 1, 1.34842
341, 2, bw, attraction, a-b-da, 14, 3, 1, 7, 120, 195, 195, 120, 181, 111, 1, 1.46798
341, 2, bw, attraction, a-b-da, 14, 3, 1, 7, 120, 195, 195, 120, 181, 111, 3, 0.816068
341, 2, bw, attraction, a-b-da, 5, 1, 1, 8, 135, 60, 132, 58, 60, 135, 3, 1.62115
341, 2, bw, attraction, a-b-da, 5, 1, 1, 8, 135, 60, 132, 58, 60, 135, 2, 0.685944
341, 2, bw, attraction, a-b-db, 14, 1, 1, 9, 135, 60, 60, 135, 56, 125, 1, 1.693
341, 2, bw, attraction, a-b-db, 14, 1, 1, 9, 135, 60, 60, 135, 56, 125, 3, 0.527919
341, 2, bw, filler, NA, 999, 999, 1, 10, 133, 192, 157, 93, 67, 143, 1, 0.704238
341, 2, bw, filler, NA, 999, 999, 1, 10, 133, 192, 157, 93, 67, 143, 3, 0.426819
341, 2, bw, catch, NA, 999, 999, 1, 11, 156, 159, 153, 102, 128, 67, 1, 0.527095
341, 2, bw, catch, NA, 999, 999, 1, 11, 156, 159, 153, 102, 128, 67, 3, 0.825043
341, 2, bw, filler, NA, 999, 999, 1, 12, 63, 75, 126, 83, 126, 68, 2, 0.933519
341, 2, bw, filler, NA, 999, 999, 1, 12, 63, 75, 126, 83, 126, 68, 1, 0.83104
341, 2, bw, attraction, a-b-db, 5, 1, 1, 13, 60, 135, 58, 132, 135, 60, 2, 1.58732
341, 2, bw, attraction, a-b-db, 5, 1, 1, 13, 60, 135, 58, 132, 135, 60, 3, 0.426804
341, 2, bw, attraction, a-b-da, 9, 2, 1, 14, 157, 86, 165, 90, 90, 165, 3, 1.95938
341, 2, bw, attraction, a-b-da, 9, 2, 1, 14, 157, 86, 165, 90, 90, 165, 1, 0.503281
341, 2, bw, filler, NA, 999, 999, 1, 15, 89, 77, 95, 168, 89, 119, 2, 1.23309
341, 2, bw, filler, NA, 999, 999, 1, 15, 89, 77, 95, 168, 89, 119, 1, 0.486609
341, 2, bw, attraction, a-b-da, 5, 3, 1, 16, 120, 195, 190, 117, 195, 120, 1, 1.11311
341, 2, bw, attraction, a-b-da, 5, 3, 1, 16, 120, 195, 190, 117, 195, 120, 3, 0.427409
341, 2, bw, catch, NA, 999, 999, 1, 17, 132, 123, 123, 72, 192, 123, 3, 1.22383
341, 2, bw, catch, NA, 999, 999, 1, 17, 132, 123, 123, 72, 192, 123, 2, 0.453457
341, 2, bw, attraction, a-b-da, 2, 1, 1, 18, 134, 59, 60, 135, 135, 60, 2, 1.18524
341, 2, bw, attraction, a-b-da, 2, 1, 1, 18, 134, 59, 60, 135, 135, 60, 3, 0.456856
341, 2, bw, attraction, a-b-db, 5, 3, 1, 19, 120, 195, 117, 190, 195, 120, 1, 1.70003
341, 2, bw, attraction, a-b-db, 5, 3, 1, 19, 120, 195, 117, 190, 195, 120, 3, 0.486735
341, 2, bw, catch, NA, 999, 999, 1, 20, 192, 123, 125, 70, 115, 140, 1, 0.865174
341, 2, bw, catch, NA, 999, 999, 1, 20, 192, 123, 125, 70, 115, 140, 2, 0.765599
341, 2, bw, attraction, a-b-db, 2, 1, 1, 21, 135, 60, 59, 134, 60, 135, 3, 2.23661
341, 2, bw, attraction, a-b-db, 2, 1, 1, 21, 135, 60, 59, 134, 60, 135, 1, 0.537194
341, 2, bw, attraction, a-b-db, 2, 2, 1, 22, 89, 163, 165, 90, 90, 165, 3, 1.61666
341, 2, bw, attraction, a-b-db, 2, 2, 1, 22, 89, 163, 165, 90, 90, 165, 2, 0.479851
341, 2, bw, attraction, a-b-db, 5, 2, 1, 23, 165, 90, 90, 165, 88, 161, 2, 1.81033
341, 2, bw, attraction, a-b-db, 5, 2, 1, 23, 165, 90, 90, 165, 88, 161, 3, 1.08036
341, 2, bw, attraction, a-b-db, 14, 3, 1, 24, 111, 181, 195, 120, 120, 195, 2, 0.762629
341, 2, bw, attraction, a-b-db, 14, 3, 1, 24, 111, 181, 195, 120, 120, 195, 1, 0.387056
341, 2, bw, attraction, a-b-db, 9, 3, 1, 25, 120, 195, 195, 120, 114, 186, 1, 1.40148
341, 2, bw, attraction, a-b-db, 9, 3, 1, 25, 120, 195, 195, 120, 114, 186, 2, 0.384343
341, 2, bw, filler, NA, 999, 999, 1, 26, 178, 119, 154, 106, 181, 84, 1, 1.0469
341, 2, bw, filler, NA, 999, 999, 1, 26, 178, 119, 154, 106, 181, 84, 3, 0.395892
341, 2, bw, attraction, a-b-da, 2, 3, 1, 27, 120, 195, 195, 120, 193, 119, 3, 1.94568
341, 2, bw, attraction, a-b-da, 2, 3, 1, 27, 120, 195, 195, 120, 193, 119, 2, 0.522388
341, 2, bw, attraction, a-b-db, 9, 2, 1, 28, 90, 165, 165, 90, 86, 157, 1, 1.84344
341, 2, bw, attraction, a-b-db, 9, 2, 1, 28, 90, 165, 165, 90, 86, 157, 3, 0.328165
341, 2, bw, attraction, a-b-da, 14, 1, 1, 29, 60, 135, 125, 56, 135, 60, 3, 0.856739
341, 2, bw, attraction, a-b-da, 14, 1, 1, 29, 60, 135, 125, 56, 135, 60, 2, 0.429079
341, 2, bw, attraction, a-b-db, 14, 2, 1, 30, 83, 153, 90, 165, 165, 90, 2, 1.00957
341, 2, bw, attraction, a-b-db, 14, 2, 1, 30, 83, 153, 90, 165, 165, 90, 3, 0.624032
341, 2, bw, attraction, a-b-da, 9, 3, 1, 31, 120, 195, 186, 114, 195, 120, 1, 0.572297
341, 2, bw, attraction, a-b-da, 9, 3, 1, 31, 120, 195, 186, 114, 195, 120, 3, 0.332112
341, 2, bw, filler, NA, 999, 999, 1, 32, 87, 114, 156, 74, 109, 163, 3, 0.756748
341, 2, bw, filler, NA, 999, 999, 1, 32, 87, 114, 156, 74, 109, 163, 1, 0.33299
341, 2, bw, filler, NA, 999, 999, 1, 33, 163, 166, 183, 97, 122, 186, 1, 0.589454
341, 2, bw, filler, NA, 999, 999, 1, 33, 163, 166, 183, 97, 122, 186, 2, 0.324642
341, 2, bw, filler, NA, 999, 999, 1, 34, 179, 95, 56, 87, 179, 139, 3, 0.501159
341, 2, bw, filler, NA, 999, 999, 1, 34, 179, 95, 56, 87, 179, 139, 2, 0.616432
341, 2, bw, filler, NA, 999, 999, 1, 35, 62, 148, 140, 131, 122, 67, 2, 1.25331
341, 2, bw, filler, NA, 999, 999, 1, 35, 62, 148, 140, 131, 122, 67, 3, 0.314278
341, 2, bw, filler, NA, 999, 999, 1, 36, 119, 171, 92, 67, 74, 131, 1, 0.475476
341, 2, bw, filler, NA, 999, 999, 1, 36, 119, 171, 92, 67, 74, 131, 2, 0.311424
341, 2, bw, filler, NA, 999, 999, 1, 37, 74, 83, 140, 128, 126, 73, 2, 0.472432
341, 2, bw, filler, NA, 999, 999, 1, 37, 74, 83, 140, 128, 126, 73, 1, 0.52425
341, 2, bw, attraction, a-b-da, 9, 3, 2, 1, 186, 114, 120, 195, 195, 120, 2, 1.34866
341, 2, bw, attraction, a-b-da, 9, 3, 2, 1, 186, 114, 120, 195, 195, 120, 1, 0.349591
341, 2, bw, attraction, a-b-da, 14, 3, 2, 2, 195, 120, 120, 195, 181, 111, 1, 1.07735
341, 2, bw, attraction, a-b-da, 14, 3, 2, 2, 195, 120, 120, 195, 181, 111, 3, 0.689074
341, 2, bw, catch, NA, 999, 999, 2, 3, 131, 64, 161, 94, 177, 138, 3, 0.699463
341, 2, bw, catch, NA, 999, 999, 2, 3, 131, 64, 161, 94, 177, 138, 1, 0.374546
341, 2, bw, attraction, a-b-db, 9, 3, 2, 4, 120, 195, 195, 120, 114, 186, 1, 0.725026
341, 2, bw, attraction, a-b-db, 9, 3, 2, 4, 120, 195, 195, 120, 114, 186, 3, 0.7028
341, 2, bw, attraction, a-b-da, 9, 2, 2, 5, 157, 86, 90, 165, 165, 90, 2, 1.17653
341, 2, bw, attraction, a-b-da, 9, 2, 2, 5, 157, 86, 90, 165, 165, 90, 3, 0.496122
341, 2, bw, filler, NA, 999, 999, 2, 6, 106, 176, 180, 69, 74, 68, 1, 0.553917
341, 2, bw, filler, NA, 999, 999, 2, 6, 106, 176, 180, 69, 74, 68, 3, 0.458394
341, 2, bw, attraction, a-b-da, 14, 2, 2, 7, 90, 165, 153, 83, 165, 90, 3, 0.709473
341, 2, bw, attraction, a-b-da, 14, 2, 2, 7, 90, 165, 153, 83, 165, 90, 2, 0.695976
341, 2, bw, attraction, a-b-db, 2, 2, 2, 8, 165, 90, 90, 165, 89, 163, 2, 1.46565
341, 2, bw, attraction, a-b-db, 2, 2, 2, 8, 165, 90, 90, 165, 89, 163, 1, 0.525748
341, 2, bw, attraction, a-b-db, 5, 3, 2, 9, 120, 195, 195, 120, 117, 190, 3, 0.702244
341, 2, bw, attraction, a-b-db, 5, 3, 2, 9, 120, 195, 195, 120, 117, 190, 2, 0.361381
341, 2, bw, attraction, a-b-db, 9, 1, 2, 10, 135, 60, 57, 129, 60, 135, 1, 2.38449
341, 2, bw, attraction, a-b-db, 9, 1, 2, 10, 135, 60, 57, 129, 60, 135, 2, 0.399739
341, 2, bw, filler, NA, 999, 999, 2, 11, 179, 82, 175, 183, 132, 81, 2, 0.829639
341, 2, bw, filler, NA, 999, 999, 2, 11, 179, 82, 175, 183, 132, 81, 3, 0.459277
341, 2, bw, attraction, a-b-db, 14, 3, 2, 12, 111, 181, 195, 120, 120, 195, 3, 0.830445
341, 2, bw, attraction, a-b-db, 14, 3, 2, 12, 111, 181, 195, 120, 120, 195, 2, 0.404242
341, 2, bw, filler, NA, 999, 999, 2, 13, 109, 149, 169, 152, 142, 64, 2, 0.745873
341, 2, bw, filler, NA, 999, 999, 2, 13, 109, 149, 169, 152, 142, 64, 3, 0.403076
341, 2, bw, filler, NA, 999, 999, 2, 14, 158, 188, 189, 179, 164, 161, 2, 0.792905
341, 2, bw, filler, NA, 999, 999, 2, 14, 158, 188, 189, 179, 164, 161, 3, 0.328012
341, 2, bw, catch, NA, 999, 999, 2, 15, 96, 99, 182, 133, 128, 127, 2, 0.872322
341, 2, bw, catch, NA, 999, 999, 2, 15, 96, 99, 182, 133, 128, 127, 1, 0.372214
341, 2, bw, attraction, a-b-db, 5, 1, 2, 16, 135, 60, 58, 132, 60, 135, 1, 1.93126
341, 2, bw, attraction, a-b-db, 5, 1, 2, 16, 135, 60, 58, 132, 60, 135, 2, 0.308648
341, 2, bw, catch, NA, 999, 999, 2, 17, 119, 136, 112, 83, 148, 167, 3, 0.485723
341, 2, bw, catch, NA, 999, 999, 2, 17, 119, 136, 112, 83, 148, 167, 2, 0.377624
341, 2, bw, filler, NA, 999, 999, 2, 18, 129, 125, 175, 110, 98, 164, 2, 1.40008
341, 2, bw, filler, NA, 999, 999, 2, 18, 129, 125, 175, 110, 98, 164, 3, 0.438966
341, 2, bw, attraction, a-b-da, 5, 1, 2, 19, 135, 60, 60, 135, 132, 58, 3, 1.53159
341, 2, bw, attraction, a-b-da, 5, 1, 2, 19, 135, 60, 60, 135, 132, 58, 2, 0.309108
341, 2, bw, attraction, a-b-da, 2, 1, 2, 20, 134, 59, 60, 135, 135, 60, 2, 1.09414
341, 2, bw, attraction, a-b-da, 2, 1, 2, 20, 134, 59, 60, 135, 135, 60, 3, 0.329212
341, 2, bw, attraction, a-b-da, 2, 2, 2, 21, 165, 90, 163, 89, 90, 165, 1, 0.841601
341, 2, bw, attraction, a-b-da, 2, 2, 2, 21, 165, 90, 163, 89, 90, 165, 2, 0.278661
341, 2, bw, attraction, a-b-db, 9, 2, 2, 22, 165, 90, 90, 165, 86, 157, 2, 1.32118
341, 2, bw, attraction, a-b-db, 9, 2, 2, 22, 165, 90, 90, 165, 86, 157, 1, 0.338839
341, 2, bw, attraction, a-b-da, 14, 1, 2, 23, 125, 56, 60, 135, 135, 60, 2, 0.923216
341, 2, bw, attraction, a-b-da, 14, 1, 2, 23, 125, 56, 60, 135, 135, 60, 3, 0.60494
341, 2, bw, attraction, a-b-db, 2, 1, 2, 24, 59, 134, 135, 60, 60, 135, 3, 1.64265
341, 2, bw, attraction, a-b-db, 2, 1, 2, 24, 59, 134, 135, 60, 60, 135, 2, 0.607588
341, 2, bw, filler, NA, 999, 999, 2, 25, 85, 156, 85, 110, 100, 194, 3, 1.00451
341, 2, bw, filler, NA, 999, 999, 2, 25, 85, 156, 85, 110, 100, 194, 2, 0.378916
341, 2, bw, attraction, a-b-db, 14, 1, 2, 26, 60, 135, 135, 60, 56, 125, 2, 0.977256
341, 2, bw, attraction, a-b-db, 14, 1, 2, 26, 60, 135, 135, 60, 56, 125, 3, 0.336958
341, 2, bw, attraction, a-b-da, 5, 3, 2, 27, 195, 120, 190, 117, 120, 195, 3, 1.0255
341, 2, bw, attraction, a-b-da, 5, 3, 2, 27, 195, 120, 190, 117, 120, 195, 2, 0.407122
341, 2, bw, attraction, a-b-da, 2, 3, 2, 28, 195, 120, 193, 119, 120, 195, 3, 1.11634
341, 2, bw, attraction, a-b-da, 2, 3, 2, 28, 195, 120, 193, 119, 120, 195, 2, 0.286618
341, 2, bw, filler, NA, 999, 999, 2, 29, 109, 87, 101, 65, 183, 142, 3, 0.569153
341, 2, bw, filler, NA, 999, 999, 2, 29, 109, 87, 101, 65, 183, 142, 2, 0.497592
341, 2, bw, attraction, a-b-db, 14, 2, 2, 30, 165, 90, 90, 165, 83, 153, 2, 1.76338
341, 2, bw, attraction, a-b-db, 14, 2, 2, 30, 165, 90, 90, 165, 83, 153, 3, 0.34747
341, 2, bw, attraction, a-b-db, 2, 3, 2, 31, 119, 193, 195, 120, 120, 195, 3, 0.843331
341, 2, bw, attraction, a-b-db, 2, 3, 2, 31, 119, 193, 195, 120, 120, 195, 2, 0.384278
341, 2, bw, filler, NA, 999, 999, 2, 32, 170, 103, 57, 183, 124, 97, 1, 1.04677
341, 2, bw, filler, NA, 999, 999, 2, 32, 170, 103, 57, 183, 124, 97, 2, 0.547757
341, 2, bw, attraction, a-b-db, 5, 2, 2, 33, 90, 165, 165, 90, 88, 161, 3, 1.12361
341, 2, bw, attraction, a-b-db, 5, 2, 2, 33, 90, 165, 165, 90, 88, 161, 2, 0.477205
341, 2, bw, filler, NA, 999, 999, 2, 34, 89, 157, 117, 67, 118, 141, 3, 0.535649
341, 2, bw, filler, NA, 999, 999, 2, 34, 89, 157, 117, 67, 118, 141, 2, 0.889533
341, 2, bw, attraction, a-b-da, 9, 1, 2, 35, 60, 135, 135, 60, 129, 57, 1, 1.52378
341, 2, bw, attraction, a-b-da, 9, 1, 2, 35, 60, 135, 135, 60, 129, 57, 3, 0.629335
341, 2, bw, attraction, a-b-da, 5, 2, 2, 36, 161, 88, 90, 165, 165, 90, 2, 0.697658
341, 2, bw, attraction, a-b-da, 5, 2, 2, 36, 161, 88, 90, 165, 165, 90, 3, 0.388896
341, 2, bw, filler, NA, 999, 999, 2, 37, 187, 56, 117, 112, 188, 192, 3, 0.507273
341, 2, bw, filler, NA, 999, 999, 2, 37, 187, 56, 117, 112, 188, 192, 1, 0.55777
341, 2, bw, filler, NA, 999, 999, 3, 1, 72, 178, 135, 161, 116, 191, 2, 0.82891
341, 2, bw, filler, NA, 999, 999, 3, 1, 72, 178, 135, 161, 116, 191, 1, 0.354561
341, 2, bw, filler, NA, 999, 999, 3, 2, 61, 140, 171, 192, 193, 73, 2, 0.850396
341, 2, bw, filler, NA, 999, 999, 3, 2, 61, 140, 171, 192, 193, 73, 1, 0.359394
341, 2, bw, filler, NA, 999, 999, 3, 3, 133, 83, 187, 185, 132, 162, 2, 0.822652
341, 2, bw, filler, NA, 999, 999, 3, 3, 133, 83, 187, 185, 132, 162, 1, 0.324302
341, 2, bw, attraction, a-b-da, 5, 2, 3, 4, 165, 90, 90, 165, 161, 88, 2, 1.38079
341, 2, bw, attraction, a-b-da, 5, 2, 3, 4, 165, 90, 90, 165, 161, 88, 1, 0.364358
341, 2, bw, attraction, a-b-da, 9, 2, 3, 5, 165, 90, 157, 86, 90, 165, 3, 1.80361
341, 2, bw, attraction, a-b-da, 9, 2, 3, 5, 165, 90, 157, 86, 90, 165, 2, 0.770266
341, 2, bw, attraction, a-b-da, 14, 3, 3, 6, 195, 120, 120, 195, 181, 111, 2, 0.801274
341, 2, bw, attraction, a-b-da, 14, 3, 3, 6, 195, 120, 120, 195, 181, 111, 3, 0.336382
341, 2, bw, attraction, a-b-db, 14, 1, 3, 7, 135, 60, 60, 135, 56, 125, 2, 0.960913
341, 2, bw, attraction, a-b-db, 14, 1, 3, 7, 135, 60, 60, 135, 56, 125, 1, 0.361194
341, 2, bw, attraction, a-b-da, 2, 1, 3, 8, 135, 60, 134, 59, 60, 135, 1, 1.6244
341, 2, bw, attraction, a-b-da, 2, 1, 3, 8, 135, 60, 134, 59, 60, 135, 2, 0.59777
341, 2, bw, catch, NA, 999, 999, 3, 9, 60, 135, 130, 185, 103, 152, 2, 0.483555
341, 2, bw, catch, NA, 999, 999, 3, 9, 60, 135, 130, 185, 103, 152, 1, 0.471384
341, 2, bw, filler, NA, 999, 999, 3, 10, 63, 161, 56, 172, 131, 172, 3, 0.594507
341, 2, bw, filler, NA, 999, 999, 3, 10, 63, 161, 56, 172, 131, 172, 1, 0.553637
341, 2, bw, attraction, a-b-db, 5, 3, 3, 11, 117, 190, 120, 195, 195, 120, 1, 1.03353
341, 2, bw, attraction, a-b-db, 5, 3, 3, 11, 117, 190, 120, 195, 195, 120, 3, 0.423204
341, 2, bw, filler, NA, 999, 999, 3, 12, 155, 130, 68, 166, 151, 96, 1, 0.53164
341, 2, bw, filler, NA, 999, 999, 3, 12, 155, 130, 68, 166, 151, 96, 2, 0.373362
341, 2, bw, filler, NA, 999, 999, 3, 13, 72, 152, 129, 73, 110, 143, 3, 0.603803
341, 2, bw, filler, NA, 999, 999, 3, 13, 72, 152, 129, 73, 110, 143, 1, 0.490268
341, 2, bw, attraction, a-b-db, 14, 2, 3, 14, 165, 90, 83, 153, 90, 165, 1, 0.66808
341, 2, bw, attraction, a-b-db, 14, 2, 3, 14, 165, 90, 83, 153, 90, 165, 2, 0.704488
341, 2, bw, attraction, a-b-da, 9, 3, 3, 15, 186, 114, 195, 120, 120, 195, 1, 0.610408
341, 2, bw, attraction, a-b-da, 9, 3, 3, 15, 186, 114, 195, 120, 120, 195, 2, 0.312682
341, 2, bw, attraction, a-b-db, 2, 3, 3, 16, 120, 195, 195, 120, 119, 193, 1, 0.985967
341, 2, bw, attraction, a-b-db, 2, 3, 3, 16, 120, 195, 195, 120, 119, 193, 2, 0.273547
341, 2, bw, attraction, a-b-db, 5, 2, 3, 17, 88, 161, 165, 90, 90, 165, 2, 0.89208
341, 2, bw, attraction, a-b-db, 5, 2, 3, 17, 88, 161, 165, 90, 90, 165, 3, 0.303098
341, 2, bw, attraction, a-b-da, 2, 3, 3, 18, 120, 195, 193, 119, 195, 120, 3, 0.601035
341, 2, bw, attraction, a-b-da, 2, 3, 3, 18, 120, 195, 193, 119, 195, 120, 1, 0.584064
341, 2, bw, attraction, a-b-da, 5, 3, 3, 19, 190, 117, 120, 195, 195, 120, 2, 0.99848
341, 2, bw, attraction, a-b-da, 5, 3, 3, 19, 190, 117, 120, 195, 195, 120, 1, 0.301436
341, 2, bw, attraction, a-b-da, 14, 2, 3, 20, 153, 83, 90, 165, 165, 90, 2, 0.647326
341, 2, bw, attraction, a-b-da, 14, 2, 3, 20, 153, 83, 90, 165, 165, 90, 1, 0.348388
341, 2, bw, filler, NA, 999, 999, 3, 21, 127, 100, 60, 100, 107, 165, 3, 0.700289
341, 2, bw, filler, NA, 999, 999, 3, 21, 127, 100, 60, 100, 107, 165, 2, 0.583339
341, 2, bw, attraction, a-b-da, 9, 1, 3, 22, 135, 60, 129, 57, 60, 135, 2, 1.2138
341, 2, bw, attraction, a-b-da, 9, 1, 3, 22, 135, 60, 129, 57, 60, 135, 3, 0.396027
341, 2, bw, attraction, a-b-db, 14, 3, 3, 23, 111, 181, 120, 195, 195, 120, 2, 0.673879
341, 2, bw, attraction, a-b-db, 14, 3, 3, 23, 111, 181, 120, 195, 195, 120, 3, 0.317576
341, 2, bw, attraction, a-b-db, 5, 1, 3, 24, 58, 132, 60, 135, 135, 60, 2, 0.726879
341, 2, bw, attraction, a-b-db, 5, 1, 3, 24, 58, 132, 60, 135, 135, 60, 3, 0.848527
341, 2, bw, attraction, a-b-db, 9, 3, 3, 25, 195, 120, 120, 195, 114, 186, 1, 1.04416
341, 2, bw, attraction, a-b-db, 9, 3, 3, 25, 195, 120, 120, 195, 114, 186, 2, 0.273186
341, 2, bw, catch, NA, 999, 999, 3, 26, 124, 71, 133, 182, 157, 98, 2, 0.595877
341, 2, bw, catch, NA, 999, 999, 3, 26, 124, 71, 133, 182, 157, 98, 1, 0.610852
341, 2, bw, filler, NA, 999, 999, 3, 27, 90, 80, 80, 129, 127, 157, 3, 0.543921
341, 2, bw, filler, NA, 999, 999, 3, 27, 90, 80, 80, 129, 127, 157, 1, 0.505061
341, 2, bw, attraction, a-b-da, 5, 1, 3, 28, 135, 60, 60, 135, 132, 58, 2, 0.650795
341, 2, bw, attraction, a-b-da, 5, 1, 3, 28, 135, 60, 60, 135, 132, 58, 1, 0.335942
341, 2, bw, filler, NA, 999, 999, 3, 29, 81, 71, 174, 71, 146, 103, 3, 0.432426
341, 2, bw, filler, NA, 999, 999, 3, 29, 81, 71, 174, 71, 146, 103, 1, 0.662251
341, 2, bw, attraction, a-b-da, 14, 1, 3, 30, 135, 60, 125, 56, 60, 135, 1, 0.937367
341, 2, bw, attraction, a-b-da, 14, 1, 3, 30, 135, 60, 125, 56, 60, 135, 2, 0.607811
341, 2, bw, attraction, a-b-db, 2, 1, 3, 31, 59, 134, 60, 135, 135, 60, 2, 0.768132
341, 2, bw, attraction, a-b-db, 2, 1, 3, 31, 59, 134, 60, 135, 135, 60, 3, 0.352512
341, 2, bw, catch, NA, 999, 999, 3, 32, 116, 139, 193, 122, 73, 122, 2, 0.51229
341, 2, bw, catch, NA, 999, 999, 3, 32, 116, 139, 193, 122, 73, 122, 1, 0.314927
341, 2, bw, attraction, a-b-db, 9, 2, 3, 33, 165, 90, 90, 165, 86, 157, 1, 0.988073
341, 2, bw, attraction, a-b-db, 9, 2, 3, 33, 165, 90, 90, 165, 86, 157, 2, 0.683016
341, 2, bw, attraction, a-b-da, 2, 2, 3, 34, 90, 165, 163, 89, 165, 90, 1, 0.661317
341, 2, bw, attraction, a-b-da, 2, 2, 3, 34, 90, 165, 163, 89, 165, 90, 3, 0.377868
341, 2, bw, attraction, a-b-db, 9, 1, 3, 35, 57, 129, 135, 60, 60, 135, 2, 0.584279
341, 2, bw, attraction, a-b-db, 9, 1, 3, 35, 57, 129, 135, 60, 60, 135, 1, 0.328085
341, 2, bw, filler, NA, 999, 999, 3, 36, 113, 175, 145, 64, 132, 188, 1, 0.536553
341, 2, bw, filler, NA, 999, 999, 3, 36, 113, 175, 145, 64, 132, 188, 2, 0.354437
341, 2, bw, attraction, a-b-db, 2, 2, 3, 37, 165, 90, 90, 165, 89, 163, 2, 0.706232
341, 2, bw, attraction, a-b-db, 2, 2, 3, 37, 165, 90, 90, 165, 89, 163, 1, 0.292733
341, 2, bw, filler, NA, 999, 999, 4, 1, 98, 122, 79, 182, 96, 107, 2, 1.24654
341, 2, bw, filler, NA, 999, 999, 4, 1, 98, 122, 79, 182, 96, 107, 3, 0.33943
341, 2, bw, attraction, a-b-da, 5, 2, 4, 2, 165, 90, 161, 88, 90, 165, 1, 0.587238
341, 2, bw, attraction, a-b-da, 5, 2, 4, 2, 165, 90, 161, 88, 90, 165, 2, 0.29049
341, 2, bw, filler, NA, 999, 999, 4, 3, 105, 89, 164, 172, 106, 134, 2, 0.484183
341, 2, bw, filler, NA, 999, 999, 4, 3, 105, 89, 164, 172, 106, 134, 1, 0.33615
341, 2, bw, filler, NA, 999, 999, 4, 4, 150, 58, 102, 95, 157, 106, 3, 0.576583
341, 2, bw, filler, NA, 999, 999, 4, 4, 150, 58, 102, 95, 157, 106, 1, 1.23238
341, 2, bw, attraction, a-b-db, 14, 3, 4, 5, 195, 120, 111, 181, 120, 195, 1, 0.916536
341, 2, bw, attraction, a-b-db, 14, 3, 4, 5, 195, 120, 111, 181, 120, 195, 2, 0.310958
341, 2, bw, attraction, a-b-da, 14, 2, 4, 6, 90, 165, 153, 83, 165, 90, 1, 0.792126
341, 2, bw, attraction, a-b-da, 14, 2, 4, 6, 90, 165, 153, 83, 165, 90, 3, 0.343258
341, 2, bw, attraction, a-b-db, 9, 2, 4, 7, 165, 90, 90, 165, 86, 157, 2, 0.543029
341, 2, bw, attraction, a-b-db, 9, 2, 4, 7, 165, 90, 90, 165, 86, 157, 1, 0.272176
341, 2, bw, attraction, a-b-da, 14, 3, 4, 8, 181, 111, 195, 120, 120, 195, 2, 0.587336
341, 2, bw, attraction, a-b-da, 14, 3, 4, 8, 181, 111, 195, 120, 120, 195, 1, 0.298424
341, 2, bw, attraction, a-b-db, 5, 1, 4, 9, 60, 135, 135, 60, 58, 132, 1, 0.622698
341, 2, bw, attraction, a-b-db, 5, 1, 4, 9, 60, 135, 135, 60, 58, 132, 2, 0.330064
341, 2, bw, catch, NA, 999, 999, 4, 10, 102, 93, 193, 122, 157, 98, 2, 0.682696
341, 2, bw, catch, NA, 999, 999, 4, 10, 102, 93, 193, 122, 157, 98, 1, 0.286436
341, 2, bw, attraction, a-b-da, 14, 1, 4, 11, 125, 56, 60, 135, 135, 60, 2, 0.896936
341, 2, bw, attraction, a-b-da, 14, 1, 4, 11, 125, 56, 60, 135, 135, 60, 1, 0.331993
341, 2, bw, attraction, a-b-db, 9, 1, 4, 12, 135, 60, 57, 129, 60, 135, 2, 0.860538
341, 2, bw, attraction, a-b-db, 9, 1, 4, 12, 135, 60, 57, 129, 60, 135, 1, 0.296816
341, 2, bw, filler, NA, 999, 999, 4, 13, 142, 139, 77, 70, 98, 103, 1, 0.498533
341, 2, bw, filler, NA, 999, 999, 4, 13, 142, 139, 77, 70, 98, 103, 2, 0.38176
341, 2, bw, attraction, a-b-db, 9, 3, 4, 14, 195, 120, 120, 195, 114, 186, 2, 0.764231
341, 2, bw, attraction, a-b-db, 9, 3, 4, 14, 195, 120, 120, 195, 114, 186, 1, 0.276645
341, 2, bw, attraction, a-b-db, 2, 3, 4, 15, 119, 193, 195, 120, 120, 195, 2, 0.631167
341, 2, bw, attraction, a-b-db, 2, 3, 4, 15, 119, 193, 195, 120, 120, 195, 1, 0.276901
341, 2, bw, catch, NA, 999, 999, 4, 16, 157, 158, 132, 63, 95, 160, 1, 0.575436
341, 2, bw, catch, NA, 999, 999, 4, 16, 157, 158, 132, 63, 95, 160, 2, 0.383289
341, 2, bw, attraction, a-b-da, 9, 2, 4, 17, 165, 90, 157, 86, 90, 165, 1, 0.741874
341, 2, bw, attraction, a-b-da, 9, 2, 4, 17, 165, 90, 157, 86, 90, 165, 2, 0.670832
341, 2, bw, attraction, a-b-da, 2, 3, 4, 18, 120, 195, 195, 120, 193, 119, 2, 0.625893
341, 2, bw, attraction, a-b-da, 2, 3, 4, 18, 120, 195, 195, 120, 193, 119, 1, 1.17573
341, 2, bw, attraction, a-b-db, 5, 3, 4, 19, 117, 190, 195, 120, 120, 195, 1, 0.621872
341, 2, bw, attraction, a-b-db, 5, 3, 4, 19, 117, 190, 195, 120, 120, 195, 2, 0.267759
341, 2, bw, attraction, a-b-db, 2, 1, 4, 20, 135, 60, 59, 134, 60, 135, 2, 0.902874
341, 2, bw, attraction, a-b-db, 2, 1, 4, 20, 135, 60, 59, 134, 60, 135, 1, 0.313848
341, 2, bw, attraction, a-b-da, 9, 1, 4, 21, 135, 60, 129, 57, 60, 135, 1, 0.713612
341, 2, bw, attraction, a-b-da, 9, 1, 4, 21, 135, 60, 129, 57, 60, 135, 2, 0.253614
341, 2, bw, filler, NA, 999, 999, 4, 22, 72, 165, 74, 152, 135, 108, 2, 0.953298
341, 2, bw, filler, NA, 999, 999, 4, 22, 72, 165, 74, 152, 135, 108, 1, 0.290367
341, 2, bw, filler, NA, 999, 999, 4, 23, 74, 183, 171, 114, 137, 94, 2, 0.54821
341, 2, bw, filler, NA, 999, 999, 4, 23, 74, 183, 171, 114, 137, 94, 1, 0.285346
341, 2, bw, attraction, a-b-da, 5, 1, 4, 24, 135, 60, 132, 58, 60, 135, 1, 0.639999
341, 2, bw, attraction, a-b-da, 5, 1, 4, 24, 135, 60, 132, 58, 60, 135, 2, 0.317086
341, 2, bw, attraction, a-b-db, 5, 2, 4, 25, 90, 165, 165, 90, 88, 161, 1, 0.638131
341, 2, bw, attraction, a-b-db, 5, 2, 4, 25, 90, 165, 165, 90, 88, 161, 2, 0.971227
341, 2, bw, attraction, a-b-da, 2, 2, 4, 26, 90, 165, 163, 89, 165, 90, 1, 0.682311
341, 2, bw, attraction, a-b-da, 2, 2, 4, 26, 90, 165, 163, 89, 165, 90, 2, 0.382007
341, 2, bw, filler, NA, 999, 999, 4, 27, 168, 106, 162, 154, 132, 186, 3, 0.916529
341, 2, bw, filler, NA, 999, 999, 4, 27, 168, 106, 162, 154, 132, 186, 1, 0.318869
341, 2, bw, attraction, a-b-db, 2, 2, 4, 28, 90, 165, 89, 163, 165, 90, 1, 0.848046
341, 2, bw, attraction, a-b-db, 2, 2, 4, 28, 90, 165, 89, 163, 165, 90, 2, 0.309102
341, 2, bw, attraction, a-b-da, 9, 3, 4, 29, 195, 120, 186, 114, 120, 195, 1, 0.558229
341, 2, bw, attraction, a-b-da, 9, 3, 4, 29, 195, 120, 186, 114, 120, 195, 2, 0.438736
341, 2, bw, catch, NA, 999, 999, 4, 30, 109, 86, 161, 94, 185, 130, 3, 0.523211
341, 2, bw, catch, NA, 999, 999, 4, 30, 109, 86, 161, 94, 185, 130, 1, 0.40496
341, 2, bw, filler, NA, 999, 999, 4, 31, 103, 77, 104, 110, 96, 73, 2, 0.562901
341, 2, bw, filler, NA, 999, 999, 4, 31, 103, 77, 104, 110, 96, 73, 1, 0.315317
341, 2, bw, attraction, a-b-db, 14, 1, 4, 32, 135, 60, 56, 125, 60, 135, 3, 1.14843
341, 2, bw, attraction, a-b-db, 14, 1, 4, 32, 135, 60, 56, 125, 60, 135, 2, 0.613425
341, 2, bw, attraction, a-b-da, 2, 1, 4, 33, 60, 135, 135, 60, 134, 59, 2, 0.930409
341, 2, bw, attraction, a-b-da, 2, 1, 4, 33, 60, 135, 135, 60, 134, 59, 3, 0.388148
341, 2, bw, filler, NA, 999, 999, 4, 34, 160, 195, 101, 120, 67, 63, 1, 0.418699
341, 2, bw, filler, NA, 999, 999, 4, 34, 160, 195, 101, 120, 67, 63, 2, 0.305212
341, 2, bw, attraction, a-b-db, 14, 2, 4, 35, 165, 90, 83, 153, 90, 165, 1, 0.898987
341, 2, bw, attraction, a-b-db, 14, 2, 4, 35, 165, 90, 83, 153, 90, 165, 2, 0.382117
341, 2, bw, attraction, a-b-da, 5, 3, 4, 36, 190, 117, 195, 120, 120, 195, 3, 0.58052
341, 2, bw, attraction, a-b-da, 5, 3, 4, 36, 190, 117, 195, 120, 120, 195, 1, 0.300327
341, 2, bw, filler, NA, 999, 999, 4, 37, 158, 194, 108, 179, 79, 172, 1, 0.454121
341, 2, bw, filler, NA, 999, 999, 4, 37, 158, 194, 108, 179, 79, 172, 3, 0.642702
341, 2, bw, attraction, a-b-db, 2, 3, 5, 1, 120, 195, 195, 120, 119, 193, 3, 2.293
341, 2, bw, attraction, a-b-db, 2, 3, 5, 1, 120, 195, 195, 120, 119, 193, 2, 0.319632
341, 2, bw, attraction, a-b-da, 2, 3, 5, 2, 193, 119, 120, 195, 195, 120, 2, 0.656795
341, 2, bw, attraction, a-b-da, 2, 3, 5, 2, 193, 119, 120, 195, 195, 120, 3, 0.333376
341, 2, bw, filler, NA, 999, 999, 5, 3, 108, 92, 187, 158, 65, 132, 2, 0.413727
341, 2, bw, filler, NA, 999, 999, 5, 3, 108, 92, 187, 158, 65, 132, 3, 1.03628
341, 2, bw, catch, NA, 999, 999, 5, 4, 91, 164, 61, 134, 192, 123, 3, 0.824559
341, 2, bw, catch, NA, 999, 999, 5, 4, 91, 164, 61, 134, 192, 123, 2, 0.454324
341, 2, bw, attraction, a-b-da, 9, 2, 5, 5, 157, 86, 90, 165, 165, 90, 2, 0.586052
341, 2, bw, attraction, a-b-da, 9, 2, 5, 5, 157, 86, 90, 165, 165, 90, 1, 0.393893
341, 2, bw, filler, NA, 999, 999, 5, 6, 172, 171, 133, 149, 133, 86, 1, 0.511655
341, 2, bw, filler, NA, 999, 999, 5, 6, 172, 171, 133, 149, 133, 86, 3, 0.330096
341, 2, bw, attraction, a-b-db, 9, 1, 5, 7, 60, 135, 135, 60, 57, 129, 2, 0.666645
341, 2, bw, attraction, a-b-db, 9, 1, 5, 7, 60, 135, 135, 60, 57, 129, 1, 0.303049
341, 2, bw, attraction, a-b-db, 9, 2, 5, 8, 90, 165, 165, 90, 86, 157, 2, 0.552894
341, 2, bw, attraction, a-b-db, 9, 2, 5, 8, 90, 165, 165, 90, 86, 157, 1, 0.258138
341, 2, bw, attraction, a-b-da, 2, 1, 5, 9, 134, 59, 135, 60, 60, 135, 3, 0.709248
341, 2, bw, attraction, a-b-da, 2, 1, 5, 9, 134, 59, 135, 60, 60, 135, 1, 0.4292
341, 2, bw, filler, NA, 999, 999, 5, 10, 109, 93, 135, 139, 187, 148, 3, 0.52417
341, 2, bw, filler, NA, 999, 999, 5, 10, 109, 93, 135, 139, 187, 148, 1, 0.477941
341, 2, bw, attraction, a-b-db, 14, 2, 5, 11, 90, 165, 83, 153, 165, 90, 1, 0.648407
341, 2, bw, attraction, a-b-db, 14, 2, 5, 11, 90, 165, 83, 153, 165, 90, 2, 0.661517
341, 2, bw, attraction, a-b-da, 14, 1, 5, 12, 135, 60, 125, 56, 60, 135, 3, 0.800571
341, 2, bw, attraction, a-b-da, 14, 1, 5, 12, 135, 60, 125, 56, 60, 135, 2, 0.415587
341, 2, bw, filler, NA, 999, 999, 5, 13, 60, 154, 167, 174, 92, 145, 2, 0.532703
341, 2, bw, filler, NA, 999, 999, 5, 13, 60, 154, 167, 174, 92, 145, 1, 0.526527
341, 2, bw, attraction, a-b-da, 5, 1, 5, 14, 132, 58, 135, 60, 60, 135, 3, 0.775022
341, 2, bw, attraction, a-b-da, 5, 1, 5, 14, 132, 58, 135, 60, 60, 135, 2, 0.566757
341, 2, bw, attraction, a-b-db, 14, 1, 5, 15, 135, 60, 56, 125, 60, 135, 1, 0.853853
341, 2, bw, attraction, a-b-db, 14, 1, 5, 15, 135, 60, 56, 125, 60, 135, 2, 0.60298
341, 2, bw, filler, NA, 999, 999, 5, 16, 64, 189, 144, 167, 139, 106, 2, 0.544612
341, 2, bw, filler, NA, 999, 999, 5, 16, 64, 189, 144, 167, 139, 106, 1, 0.361796
341, 2, bw, attraction, a-b-da, 9, 3, 5, 17, 186, 114, 195, 120, 120, 195, 3, 1.2809
341, 2, bw, attraction, a-b-da, 9, 3, 5, 17, 186, 114, 195, 120, 120, 195, 2, 0.292556
341, 2, bw, filler, NA, 999, 999, 5, 18, 163, 161, 95, 83, 155, 128, 1, 0.582376
341, 2, bw, filler, NA, 999, 999, 5, 18, 163, 161, 95, 83, 155, 128, 2, 0.694181
341, 2, bw, filler, NA, 999, 999, 5, 19, 146, 190, 101, 112, 126, 179, 1, 0.551836
341, 2, bw, filler, NA, 999, 999, 5, 19, 146, 190, 101, 112, 126, 179, 2, 0.585018
341, 2, bw, attraction, a-b-da, 14, 3, 5, 20, 120, 195, 195, 120, 181, 111, 2, 1.19147
341, 2, bw, attraction, a-b-da, 14, 3, 5, 20, 120, 195, 195, 120, 181, 111, 1, 0.230368
341, 2, bw, attraction, a-b-db, 14, 3, 5, 21, 120, 195, 195, 120, 111, 181, 2, 0.514947
341, 2, bw, attraction, a-b-db, 14, 3, 5, 21, 120, 195, 195, 120, 111, 181, 1, 0.301391
341, 2, bw, attraction, a-b-da, 5, 2, 5, 22, 90, 165, 165, 90, 161, 88, 2, 0.7833
341, 2, bw, attraction, a-b-da, 5, 2, 5, 22, 90, 165, 165, 90, 161, 88, 3, 0.62306
341, 2, bw, catch, NA, 999, 999, 5, 23, 142, 113, 146, 169, 131, 64, 2, 0.467417
341, 2, bw, catch, NA, 999, 999, 5, 23, 142, 113, 146, 169, 131, 64, 3, 0.463961
341, 2, bw, filler, NA, 999, 999, 5, 24, 117, 136, 175, 117, 191, 127, 3, 0.739079
341, 2, bw, filler, NA, 999, 999, 5, 24, 117, 136, 175, 117, 191, 127, 1, 0.348094
341, 2, bw, attraction, a-b-db, 5, 1, 5, 25, 58, 132, 135, 60, 60, 135, 2, 0.531932
341, 2, bw, attraction, a-b-db, 5, 1, 5, 25, 58, 132, 135, 60, 60, 135, 1, 0.309703
341, 2, bw, filler, NA, 999, 999, 5, 26, 172, 141, 120, 84, 109, 119, 1, 0.478865
341, 2, bw, filler, NA, 999, 999, 5, 26, 172, 141, 120, 84, 109, 119, 2, 0.290711
341, 2, bw, attraction, a-b-da, 14, 2, 5, 27, 153, 83, 165, 90, 90, 165, 2, 0.892557
341, 2, bw, attraction, a-b-da, 14, 2, 5, 27, 153, 83, 165, 90, 90, 165, 1, 1.02358
341, 2, bw, attraction, a-b-da, 9, 1, 5, 28, 129, 57, 135, 60, 60, 135, 2, 1.00384
341, 2, bw, attraction, a-b-da, 9, 1, 5, 28, 129, 57, 135, 60, 60, 135, 1, 0.290861
341, 2, bw, attraction, a-b-da, 5, 3, 5, 29, 120, 195, 190, 117, 195, 120, 1, 0.612759
341, 2, bw, attraction, a-b-da, 5, 3, 5, 29, 120, 195, 190, 117, 195, 120, 3, 0.32328
341, 2, bw, catch, NA, 999, 999, 5, 30, 81, 114, 139, 176, 111, 144, 2, 0.467638
341, 2, bw, catch, NA, 999, 999, 5, 30, 81, 114, 139, 176, 111, 144, 1, 0.288162
341, 2, bw, attraction, a-b-db, 2, 2, 5, 31, 89, 163, 90, 165, 165, 90, 2, 0.610629
341, 2, bw, attraction, a-b-db, 2, 2, 5, 31, 89, 163, 90, 165, 165, 90, 3, 0.337184
341, 2, bw, attraction, a-b-db, 2, 1, 5, 32, 60, 135, 135, 60, 59, 134, 1, 0.545648
341, 2, bw, attraction, a-b-db, 2, 1, 5, 32, 60, 135, 135, 60, 59, 134, 2, 0.282857
341, 2, bw, attraction, a-b-da, 2, 2, 5, 33, 163, 89, 90, 165, 165, 90, 1, 1.25338
341, 2, bw, attraction, a-b-da, 2, 2, 5, 33, 163, 89, 90, 165, 165, 90, 2, 0.265651
341, 2, bw, attraction, a-b-db, 5, 3, 5, 34, 120, 195, 195, 120, 117, 190, 3, 0.548821
341, 2, bw, attraction, a-b-db, 5, 3, 5, 34, 120, 195, 195, 120, 117, 190, 1, 0.366007
341, 2, bw, filler, NA, 999, 999, 5, 35, 90, 90, 118, 117, 166, 148, 3, 0.621066
341, 2, bw, filler, NA, 999, 999, 5, 35, 90, 90, 118, 117, 166, 148, 1, 0.314841
341, 2, bw, attraction, a-b-db, 5, 2, 5, 36, 88, 161, 165, 90, 90, 165, 3, 0.980003
341, 2, bw, attraction, a-b-db, 5, 2, 5, 36, 88, 161, 165, 90, 90, 165, 2, 0.339657
341, 2, bw, attraction, a-b-db, 9, 3, 5, 37, 120, 195, 114, 186, 195, 120, 1, 0.683466
341, 2, bw, attraction, a-b-db, 9, 3, 5, 37, 120, 195, 114, 186, 195, 120, 3, 0.983288
341, 2, bw, catch, NA, 999, 999, 6, 1, 192, 123, 109, 146, 125, 70, 1, 0.509536
341, 2, bw, catch, NA, 999, 999, 6, 1, 192, 123, 109, 146, 125, 70, 3, 0.520103
341, 2, bw, attraction, a-b-da, 9, 2, 6, 2, 157, 86, 165, 90, 90, 165, 3, 0.737232
341, 2, bw, attraction, a-b-da, 9, 2, 6, 2, 157, 86, 165, 90, 90, 165, 1, 0.63425
341, 2, bw, filler, NA, 999, 999, 6, 3, 191, 177, 92, 185, 109, 133, 1, 0.622587
341, 2, bw, filler, NA, 999, 999, 6, 3, 191, 177, 92, 185, 109, 133, 2, 0.492463
341, 2, bw, attraction, a-b-da, 5, 1, 6, 4, 135, 60, 60, 135, 132, 58, 2, 0.990179
341, 2, bw, attraction, a-b-da, 5, 1, 6, 4, 135, 60, 60, 135, 132, 58, 1, 0.453274
341, 2, bw, filler, NA, 999, 999, 6, 5, 135, 68, 106, 137, 186, 67, 2, 0.681006
341, 2, bw, filler, NA, 999, 999, 6, 5, 135, 68, 106, 137, 186, 67, 1, 0.500882
341, 2, bw, filler, NA, 999, 999, 6, 6, 143, 74, 91, 86, 188, 88, 3, 0.590466
341, 2, bw, filler, NA, 999, 999, 6, 6, 143, 74, 91, 86, 188, 88, 1, 0.997637
341, 2, bw, attraction, a-b-db, 14, 3, 6, 7, 195, 120, 120, 195, 111, 181, 2, 0.795241
341, 2, bw, attraction, a-b-db, 14, 3, 6, 7, 195, 120, 120, 195, 111, 181, 3, 0.330323
341, 2, bw, attraction, a-b-db, 5, 3, 6, 8, 195, 120, 120, 195, 117, 190, 2, 0.786906
341, 2, bw, attraction, a-b-db, 5, 3, 6, 8, 195, 120, 120, 195, 117, 190, 3, 0.482633
341, 2, bw, attraction, a-b-da, 5, 3, 6, 9, 190, 117, 120, 195, 195, 120, 2, 0.805037
341, 2, bw, attraction, a-b-da, 5, 3, 6, 9, 190, 117, 120, 195, 195, 120, 1, 0.371522
341, 2, bw, filler, NA, 999, 999, 6, 10, 178, 171, 162, 133, 94, 106, 1, 0.634637
341, 2, bw, filler, NA, 999, 999, 6, 10, 178, 171, 162, 133, 94, 106, 3, 0.416417
341, 2, bw, attraction, a-b-da, 9, 3, 6, 11, 120, 195, 195, 120, 186, 114, 1, 1.59748
341, 2, bw, attraction, a-b-da, 9, 3, 6, 11, 120, 195, 195, 120, 186, 114, 2, 0.268338
341, 2, bw, catch, NA, 999, 999, 6, 12, 129, 126, 178, 137, 129, 66, 2, 0.591441
341, 2, bw, catch, NA, 999, 999, 6, 12, 129, 126, 178, 137, 129, 66, 3, 0.510626
341, 2, bw, catch, NA, 999, 999, 6, 13, 130, 185, 115, 140, 81, 114, 1, 0.631723
341, 2, bw, catch, NA, 999, 999, 6, 13, 130, 185, 115, 140, 81, 114, 3, 0.309498
341, 2, bw, attraction, a-b-db, 5, 1, 6, 14, 58, 132, 135, 60, 60, 135, 3, 0.72677
341, 2, bw, attraction, a-b-db, 5, 1, 6, 14, 58, 132, 135, 60, 60, 135, 2, 0.384474
341, 2, bw, attraction, a-b-da, 2, 3, 6, 15, 195, 120, 193, 119, 120, 195, 3, 0.606928
341, 2, bw, attraction, a-b-da, 2, 3, 6, 15, 195, 120, 193, 119, 120, 195, 2, 0.357354
341, 2, bw, attraction, a-b-db, 9, 3, 6, 16, 195, 120, 114, 186, 120, 195, 3, 1.18855
341, 2, bw, attraction, a-b-db, 9, 3, 6, 16, 195, 120, 114, 186, 120, 195, 1, 0.723439
341, 2, bw, attraction, a-b-da, 14, 1, 6, 17, 60, 135, 125, 56, 135, 60, 3, 1.00393
341, 2, bw, attraction, a-b-da, 14, 1, 6, 17, 60, 135, 125, 56, 135, 60, 2, 0.498187
341, 2, bw, attraction, a-b-db, 9, 1, 6, 18, 60, 135, 135, 60, 57, 129, 3, 1.42796
341, 2, bw, attraction, a-b-db, 9, 1, 6, 18, 60, 135, 135, 60, 57, 129, 2, 0.337476
341, 2, bw, attraction, a-b-db, 14, 1, 6, 19, 135, 60, 56, 125, 60, 135, 3, 1.64193
341, 2, bw, attraction, a-b-db, 14, 1, 6, 19, 135, 60, 56, 125, 60, 135, 1, 0.414844
341, 2, bw, attraction, a-b-da, 9, 1, 6, 20, 129, 57, 135, 60, 60, 135, 3, 0.556056
341, 2, bw, attraction, a-b-da, 9, 1, 6, 20, 129, 57, 135, 60, 60, 135, 1, 0.356361
341, 2, bw, filler, NA, 999, 999, 6, 21, 75, 77, 170, 179, 121, 80, 2, 0.523538
341, 2, bw, filler, NA, 999, 999, 6, 21, 75, 77, 170, 179, 121, 80, 1, 0.381371
341, 2, bw, attraction, a-b-db, 5, 2, 6, 22, 88, 161, 90, 165, 165, 90, 1, 0.779807
341, 2, bw, attraction, a-b-db, 5, 2, 6, 22, 88, 161, 90, 165, 165, 90, 3, 0.467595
341, 2, bw, attraction, a-b-db, 9, 2, 6, 23, 90, 165, 86, 157, 165, 90, 2, 0.814869
341, 2, bw, attraction, a-b-db, 9, 2, 6, 23, 90, 165, 86, 157, 165, 90, 3, 0.333073
341, 2, bw, attraction, a-b-da, 2, 1, 6, 24, 135, 60, 60, 135, 134, 59, 2, 0.845565
341, 2, bw, attraction, a-b-da, 2, 1, 6, 24, 135, 60, 60, 135, 134, 59, 3, 0.391765
341, 2, bw, attraction, a-b-db, 2, 2, 6, 25, 89, 163, 90, 165, 165, 90, 2, 0.448434
341, 2, bw, attraction, a-b-db, 2, 2, 6, 25, 89, 163, 90, 165, 165, 90, 3, 0.34163
341, 2, bw, attraction, a-b-da, 2, 2, 6, 26, 90, 165, 163, 89, 165, 90, 1, 0.973477
341, 2, bw, attraction, a-b-da, 2, 2, 6, 26, 90, 165, 163, 89, 165, 90, 2, 0.325108
341, 2, bw, filler, NA, 999, 999, 6, 27, 126, 100, 195, 137, 181, 187, 3, 0.677623
341, 2, bw, filler, NA, 999, 999, 6, 27, 126, 100, 195, 137, 181, 187, 1, 0.361405
341, 2, bw, attraction, a-b-db, 2, 3, 6, 28, 120, 195, 119, 193, 195, 120, 1, 0.888616
341, 2, bw, attraction, a-b-db, 2, 3, 6, 28, 120, 195, 119, 193, 195, 120, 3, 0.715715
341, 2, bw, attraction, a-b-db, 14, 2, 6, 29, 165, 90, 83, 153, 90, 165, 3, 0.772603
341, 2, bw, attraction, a-b-db, 14, 2, 6, 29, 165, 90, 83, 153, 90, 165, 2, 0.300303
341, 2, bw, attraction, a-b-da, 5, 2, 6, 30, 90, 165, 165, 90, 161, 88, 2, 0.742243
341, 2, bw, attraction, a-b-da, 5, 2, 6, 30, 90, 165, 165, 90, 161, 88, 3, 0.343282
341, 2, bw, filler, NA, 999, 999, 6, 31, 63, 166, 86, 119, 182, 105, 3, 0.583155
341, 2, bw, filler, NA, 999, 999, 6, 31, 63, 166, 86, 119, 182, 105, 1, 0.358935
341, 2, bw, attraction, a-b-db, 2, 1, 6, 32, 135, 60, 60, 135, 59, 134, 2, 1.18207
341, 2, bw, attraction, a-b-db, 2, 1, 6, 32, 135, 60, 60, 135, 59, 134, 1, 0.421651
341, 2, bw, filler, NA, 999, 999, 6, 33, 167, 135, 161, 96, 164, 63, 1, 0.586788
341, 2, bw, filler, NA, 999, 999, 6, 33, 167, 135, 161, 96, 164, 63, 3, 0.442582
341, 2, bw, filler, NA, 999, 999, 6, 34, 72, 121, 146, 147, 181, 162, 3, 0.59042
341, 2, bw, filler, NA, 999, 999, 6, 34, 72, 121, 146, 147, 181, 162, 1, 0.341543
341, 2, bw, attraction, a-b-da, 14, 2, 6, 35, 153, 83, 90, 165, 165, 90, 2, 0.861461
341, 2, bw, attraction, a-b-da, 14, 2, 6, 35, 153, 83, 90, 165, 165, 90, 1, 0.545733
341, 2, bw, attraction, a-b-da, 14, 3, 6, 36, 195, 120, 120, 195, 181, 111, 2, 1.02551
341, 2, bw, attraction, a-b-da, 14, 3, 6, 36, 195, 120, 120, 195, 181, 111, 3, 0.327218
341, 2, bw, filler, NA, 999, 999, 6, 37, 63, 108, 60, 173, 96, 159, 3, 0.775677
341, 2, bw, filler, NA, 999, 999, 6, 37, 63, 108, 60, 173, 96, 159, 1, 0.75138
341, 2, bw, attraction, a-b-db, 9, 1, 7, 1, 60, 135, 57, 129, 135, 60, 1, 1.37504
341, 2, bw, attraction, a-b-db, 9, 1, 7, 1, 60, 135, 57, 129, 135, 60, 3, 0.470606
341, 2, bw, attraction, a-b-db, 9, 3, 7, 2, 114, 186, 195, 120, 120, 195, 3, 1.07387
341, 2, bw, attraction, a-b-db, 9, 3, 7, 2, 114, 186, 195, 120, 120, 195, 2, 0.557484
341, 2, bw, attraction, a-b-da, 5, 1, 7, 3, 60, 135, 132, 58, 135, 60, 2, 0.61255
341, 2, bw, attraction, a-b-da, 5, 1, 7, 3, 60, 135, 132, 58, 135, 60, 1, 0.80301
341, 2, bw, attraction, a-b-db, 2, 2, 7, 4, 165, 90, 90, 165, 89, 163, 2, 0.632767
341, 2, bw, attraction, a-b-db, 2, 2, 7, 4, 165, 90, 90, 165, 89, 163, 1, 0.334492
341, 2, bw, catch, NA, 999, 999, 7, 5, 69, 126, 129, 126, 193, 122, 3, 0.582941
341, 2, bw, catch, NA, 999, 999, 7, 5, 69, 126, 129, 126, 193, 122, 1, 0.582704
341, 2, bw, attraction, a-b-da, 2, 3, 7, 6, 120, 195, 193, 119, 195, 120, 1, 0.629121
341, 2, bw, attraction, a-b-da, 2, 3, 7, 6, 120, 195, 193, 119, 195, 120, 2, 0.57891
341, 2, bw, attraction, a-b-db, 14, 1, 7, 7, 56, 125, 135, 60, 60, 135, 2, 0.52138
341, 2, bw, attraction, a-b-db, 14, 1, 7, 7, 56, 125, 135, 60, 60, 135, 3, 1.28329
341, 2, bw, filler, NA, 999, 999, 7, 8, 81, 107, 77, 173, 150, 102, 3, 0.581369
341, 2, bw, filler, NA, 999, 999, 7, 8, 81, 107, 77, 173, 150, 102, 1, 0.29315
341, 2, bw, attraction, a-b-db, 5, 3, 7, 9, 120, 195, 195, 120, 117, 190, 1, 1.04713
341, 2, bw, attraction, a-b-db, 5, 3, 7, 9, 120, 195, 195, 120, 117, 190, 2, 0.260004
341, 2, bw, attraction, a-b-da, 5, 3, 7, 10, 195, 120, 190, 117, 120, 195, 3, 1.39924
341, 2, bw, attraction, a-b-da, 5, 3, 7, 10, 195, 120, 190, 117, 120, 195, 2, 0.27799
341, 2, bw, attraction, a-b-da, 5, 2, 7, 11, 90, 165, 165, 90, 161, 88, 1, 0.624586
341, 2, bw, attraction, a-b-da, 5, 2, 7, 11, 90, 165, 165, 90, 161, 88, 3, 0.366416
341, 2, bw, attraction, a-b-da, 14, 1, 7, 12, 60, 135, 125, 56, 135, 60, 1, 0.813495
341, 2, bw, attraction, a-b-da, 14, 1, 7, 12, 60, 135, 125, 56, 135, 60, 2, 0.531984
341, 2, bw, filler, NA, 999, 999, 7, 13, 68, 176, 116, 135, 158, 103, 2, 0.884315
341, 2, bw, filler, NA, 999, 999, 7, 13, 68, 176, 116, 135, 158, 103, 1, 0.416026
341, 2, bw, attraction, a-b-db, 9, 2, 7, 14, 86, 157, 165, 90, 90, 165, 3, 0.477151
341, 2, bw, attraction, a-b-db, 9, 2, 7, 14, 86, 157, 165, 90, 90, 165, 1, 0.273082
341, 2, bw, attraction, a-b-db, 14, 3, 7, 15, 111, 181, 120, 195, 195, 120, 3, 0.563607
341, 2, bw, attraction, a-b-db, 14, 3, 7, 15, 111, 181, 120, 195, 195, 120, 1, 0.58795
341, 2, bw, attraction, a-b-db, 5, 1, 7, 16, 135, 60, 58, 132, 60, 135, 3, 0.730541
341, 2, bw, attraction, a-b-db, 5, 1, 7, 16, 135, 60, 58, 132, 60, 135, 1, 0.388139
341, 2, bw, attraction, a-b-db, 2, 3, 7, 17, 120, 195, 119, 193, 195, 120, 2, 0.738666
341, 2, bw, attraction, a-b-db, 2, 3, 7, 17, 120, 195, 119, 193, 195, 120, 3, 0.299699
341, 2, bw, attraction, a-b-da, 9, 3, 7, 18, 195, 120, 120, 195, 186, 114, 1, 0.869514
341, 2, bw, attraction, a-b-da, 9, 3, 7, 18, 195, 120, 120, 195, 186, 114, 2, 0.265976
341, 2, bw, attraction, a-b-da, 14, 3, 7, 19, 195, 120, 120, 195, 181, 111, 1, 0.837163
341, 2, bw, attraction, a-b-da, 14, 3, 7, 19, 195, 120, 120, 195, 181, 111, 3, 0.44222
341, 2, bw, attraction, a-b-db, 2, 1, 7, 20, 59, 134, 60, 135, 135, 60, 2, 0.83
341, 2, bw, attraction, a-b-db, 2, 1, 7, 20, 59, 134, 60, 135, 135, 60, 3, 1.29975
341, 2, bw, attraction, a-b-da, 9, 1, 7, 21, 135, 60, 129, 57, 60, 135, 3, 0.741277
341, 2, bw, attraction, a-b-da, 9, 1, 7, 21, 135, 60, 129, 57, 60, 135, 2, 0.638443
341, 2, bw, filler, NA, 999, 999, 7, 22, 93, 70, 104, 193, 129, 182, 3, 0.682738
341, 2, bw, filler, NA, 999, 999, 7, 22, 93, 70, 104, 193, 129, 182, 1, 0.342491
341, 2, bw, catch, NA, 999, 999, 7, 23, 70, 125, 122, 133, 145, 170, 3, 0.494254
341, 2, bw, catch, NA, 999, 999, 7, 23, 70, 125, 122, 133, 145, 170, 1, 0.417435
341, 2, bw, catch, NA, 999, 999, 7, 24, 97, 98, 158, 97, 132, 183, 3, 0.35857
341, 2, bw, catch, NA, 999, 999, 7, 24, 97, 98, 158, 97, 132, 183, 1, 0.439094
341, 2, bw, attraction, a-b-da, 2, 1, 7, 25, 134, 59, 135, 60, 60, 135, 3, 0.611594
341, 2, bw, attraction, a-b-da, 2, 1, 7, 25, 134, 59, 135, 60, 60, 135, 2, 0.538075
341, 2, bw, filler, NA, 999, 999, 7, 26, 87, 65, 166, 96, 141, 184, 3, 0.410468
341, 2, bw, filler, NA, 999, 999, 7, 26, 87, 65, 166, 96, 141, 184, 1, 0.344992
341, 2, bw, attraction, a-b-da, 2, 2, 7, 27, 165, 90, 163, 89, 90, 165, 3, 0.49687
341, 2, bw, attraction, a-b-da, 2, 2, 7, 27, 165, 90, 163, 89, 90, 165, 2, 0.316032
341, 2, bw, filler, NA, 999, 999, 7, 28, 152, 104, 125, 156, 118, 133, 2, 0.685168
341, 2, bw, filler, NA, 999, 999, 7, 28, 152, 104, 125, 156, 118, 133, 1, 0.352943
341, 2, bw, filler, NA, 999, 999, 7, 29, 125, 131, 125, 127, 160, 123, 3, 0.67274
341, 2, bw, filler, NA, 999, 999, 7, 29, 125, 131, 125, 127, 160, 123, 2, 0.292504
341, 2, bw, attraction, a-b-da, 9, 2, 7, 30, 157, 86, 90, 165, 165, 90, 2, 0.670365
341, 2, bw, attraction, a-b-da, 9, 2, 7, 30, 157, 86, 90, 165, 165, 90, 1, 0.346842
341, 2, bw, filler, NA, 999, 999, 7, 31, 82, 117, 91, 185, 77, 187, 2, 0.706606
341, 2, bw, filler, NA, 999, 999, 7, 31, 82, 117, 91, 185, 77, 187, 1, 0.450156
341, 2, bw, filler, NA, 999, 999, 7, 32, 123, 176, 145, 169, 72, 128, 2, 1.03297
341, 2, bw, filler, NA, 999, 999, 7, 32, 123, 176, 145, 169, 72, 128, 3, 0.366501
341, 2, bw, attraction, a-b-db, 5, 2, 7, 33, 88, 161, 165, 90, 90, 165, 1, 0.69363
341, 2, bw, attraction, a-b-db, 5, 2, 7, 33, 88, 161, 165, 90, 90, 165, 2, 0.304742
341, 2, bw, attraction, a-b-db, 14, 2, 7, 34, 90, 165, 83, 153, 165, 90, 2, 0.786596
341, 2, bw, attraction, a-b-db, 14, 2, 7, 34, 90, 165, 83, 153, 165, 90, 3, 1.17037
341, 2, bw, attraction, a-b-da, 14, 2, 7, 35, 90, 165, 165, 90, 153, 83, 1, 0.54523
341, 2, bw, attraction, a-b-da, 14, 2, 7, 35, 90, 165, 165, 90, 153, 83, 3, 0.634371
341, 2, bw, filler, NA, 999, 999, 7, 36, 56, 136, 166, 124, 148, 170, 3, 0.718731
341, 2, bw, filler, NA, 999, 999, 7, 36, 56, 136, 166, 124, 148, 170, 1, 0.353338
341, 2, bw, filler, NA, 999, 999, 7, 37, 88, 127, 67, 115, 86, 56, 1, 0.561021
341, 2, bw, filler, NA, 999, 999, 7, 37, 88, 127, 67, 115, 86, 56, 3, 0.409523
341, 2, bw, attraction, a-b-da, 14, 1, 8, 1, 135, 60, 125, 56, 60, 135, 3, 1.07868
341, 2, bw, attraction, a-b-da, 14, 1, 8, 1, 135, 60, 125, 56, 60, 135, 2, 0.290318
341, 2, bw, attraction, a-b-da, 14, 3, 8, 2, 120, 195, 195, 120, 181, 111, 1, 0.884159
341, 2, bw, attraction, a-b-da, 14, 3, 8, 2, 120, 195, 195, 120, 181, 111, 3, 0.343803
341, 2, bw, attraction, a-b-da, 5, 1, 8, 3, 60, 135, 132, 58, 135, 60, 3, 0.759663
341, 2, bw, attraction, a-b-da, 5, 1, 8, 3, 60, 135, 132, 58, 135, 60, 2, 1.0241
341, 2, bw, attraction, a-b-db, 2, 2, 8, 4, 165, 90, 89, 163, 90, 165, 1, 1.20092
341, 2, bw, attraction, a-b-db, 2, 2, 8, 4, 165, 90, 89, 163, 90, 165, 2, 0.291295
341, 2, bw, attraction, a-b-da, 5, 2, 8, 5, 161, 88, 90, 165, 165, 90, 3, 0.485177
341, 2, bw, attraction, a-b-da, 5, 2, 8, 5, 161, 88, 90, 165, 165, 90, 2, 0.416941
341, 2, bw, filler, NA, 999, 999, 8, 6, 86, 187, 159, 160, 185, 183, 3, 0.462132
341, 2, bw, filler, NA, 999, 999, 8, 6, 86, 187, 159, 160, 185, 183, 1, 0.442564
341, 2, bw, catch, NA, 999, 999, 8, 7, 125, 70, 102, 153, 136, 179, 3, 0.590406
341, 2, bw, catch, NA, 999, 999, 8, 7, 125, 70, 102, 153, 136, 179, 1, 0.373477
341, 2, bw, attraction, a-b-db, 5, 2, 8, 8, 90, 165, 165, 90, 88, 161, 2, 0.716078
341, 2, bw, attraction, a-b-db, 5, 2, 8, 8, 90, 165, 165, 90, 88, 161, 1, 0.710399
341, 2, bw, attraction, a-b-da, 9, 1, 8, 9, 60, 135, 129, 57, 135, 60, 3, 0.543497
341, 2, bw, attraction, a-b-da, 9, 1, 8, 9, 60, 135, 129, 57, 135, 60, 2, 0.33661
341, 2, bw, filler, NA, 999, 999, 8, 10, 56, 56, 163, 158, 120, 147, 2, 0.705142
341, 2, bw, filler, NA, 999, 999, 8, 10, 56, 56, 163, 158, 120, 147, 1, 0.475559
341, 2, bw, filler, NA, 999, 999, 8, 11, 105, 133, 137, 97, 78, 106, 1, 1.03001
341, 2, bw, filler, NA, 999, 999, 8, 11, 105, 133, 137, 97, 78, 106, 3, 0.355698
341, 2, bw, attraction, a-b-db, 14, 2, 8, 12, 83, 153, 90, 165, 165, 90, 2, 1.01145
341, 2, bw, attraction, a-b-db, 14, 2, 8, 12, 83, 153, 90, 165, 165, 90, 3, 0.393797
341, 2, bw, catch, NA, 999, 999, 8, 13, 90, 165, 70, 125, 171, 144, 3, 0.639686
341, 2, bw, catch, NA, 999, 999, 8, 13, 90, 165, 70, 125, 171, 144, 2, 0.324815
341, 2, bw, attraction, a-b-db, 2, 3, 8, 14, 120, 195, 119, 193, 195, 120, 2, 0.709268
341, 2, bw, attraction, a-b-db, 2, 3, 8, 14, 120, 195, 119, 193, 195, 120, 3, 0.895788
341, 2, bw, attraction, a-b-da, 2, 1, 8, 15, 60, 135, 135, 60, 134, 59, 1, 1.00928
341, 2, bw, attraction, a-b-da, 2, 1, 8, 15, 60, 135, 135, 60, 134, 59, 2, 0.407705
341, 2, bw, filler, NA, 999, 999, 8, 16, 183, 162, 141, 162, 194, 161, 3, 1.1568
341, 2, bw, filler, NA, 999, 999, 8, 16, 183, 162, 141, 162, 194, 161, 2, 0.341069
341, 2, bw, attraction, a-b-db, 5, 3, 8, 17, 120, 195, 117, 190, 195, 120, 3, 1.58103
341, 2, bw, attraction, a-b-db, 5, 3, 8, 17, 120, 195, 117, 190, 195, 120, 2, 0.540481
341, 2, bw, attraction, a-b-db, 5, 1, 8, 18, 135, 60, 60, 135, 58, 132, 2, 1.19613
341, 2, bw, attraction, a-b-db, 5, 1, 8, 18, 135, 60, 60, 135, 58, 132, 1, 0.763061
341, 2, bw, filler, NA, 999, 999, 8, 19, 149, 89, 134, 163, 158, 59, 2, 0.434087
341, 2, bw, filler, NA, 999, 999, 8, 19, 149, 89, 134, 163, 158, 59, 3, 0.631976
341, 2, bw, attraction, a-b-db, 2, 1, 8, 20, 59, 134, 135, 60, 60, 135, 2, 0.756385
341, 2, bw, attraction, a-b-db, 2, 1, 8, 20, 59, 134, 135, 60, 60, 135, 1, 0.468747
341, 2, bw, filler, NA, 999, 999, 8, 21, 168, 77, 176, 185, 145, 93, 2, 0.543849
341, 2, bw, filler, NA, 999, 999, 8, 21, 168, 77, 176, 185, 145, 93, 3, 0.521132
341, 2, bw, attraction, a-b-da, 9, 2, 8, 22, 157, 86, 165, 90, 90, 165, 3, 0.682194
341, 2, bw, attraction, a-b-da, 9, 2, 8, 22, 157, 86, 165, 90, 90, 165, 2, 0.453855
341, 2, bw, filler, NA, 999, 999, 8, 23, 178, 165, 171, 92, 144, 70, 1, 0.721662
341, 2, bw, filler, NA, 999, 999, 8, 23, 178, 165, 171, 92, 144, 70, 3, 0.403415
341, 2, bw, attraction, a-b-db, 9, 1, 8, 24, 57, 129, 135, 60, 60, 135, 3, 0.585362
341, 2, bw, attraction, a-b-db, 9, 1, 8, 24, 57, 129, 135, 60, 60, 135, 2, 0.369
341, 2, bw, attraction, a-b-db, 14, 1, 8, 25, 56, 125, 135, 60, 60, 135, 3, 0.70426
341, 2, bw, attraction, a-b-db, 14, 1, 8, 25, 56, 125, 135, 60, 60, 135, 2, 0.314619
341, 2, bw, attraction, a-b-da, 5, 3, 8, 26, 195, 120, 120, 195, 190, 117, 2, 1.41976
341, 2, bw, attraction, a-b-da, 5, 3, 8, 26, 195, 120, 120, 195, 190, 117, 3, 0.690136
341, 2, bw, attraction, a-b-db, 9, 3, 8, 27, 114, 186, 195, 120, 120, 195, 3, 0.883738
341, 2, bw, attraction, a-b-db, 9, 3, 8, 27, 114, 186, 195, 120, 120, 195, 2, 0.263424
341, 2, bw, filler, NA, 999, 999, 8, 28, 125, 153, 135, 164, 84, 161, 2, 0.754568
341, 2, bw, filler, NA, 999, 999, 8, 28, 125, 153, 135, 164, 84, 161, 3, 0.348026
341, 2, bw, attraction, a-b-db, 14, 3, 8, 29, 195, 120, 120, 195, 111, 181, 2, 1.67486
341, 2, bw, attraction, a-b-db, 14, 3, 8, 29, 195, 120, 120, 195, 111, 181, 3, 0.294297
341, 2, bw, filler, NA, 999, 999, 8, 30, 182, 171, 162, 65, 166, 151, 1, 0.552164
341, 2, bw, filler, NA, 999, 999, 8, 30, 182, 171, 162, 65, 166, 151, 2, 0.337402
341, 2, bw, filler, NA, 999, 999, 8, 31, 67, 194, 65, 109, 97, 129, 3, 0.609762
341, 2, bw, filler, NA, 999, 999, 8, 31, 67, 194, 65, 109, 97, 129, 1, 0.848272
341, 2, bw, attraction, a-b-da, 14, 2, 8, 32, 165, 90, 90, 165, 153, 83, 2, 0.523947
341, 2, bw, attraction, a-b-da, 14, 2, 8, 32, 165, 90, 90, 165, 153, 83, 3, 0.381738
341, 2, bw, attraction, a-b-da, 2, 2, 8, 33, 165, 90, 90, 165, 163, 89, 2, 0.596202
341, 2, bw, attraction, a-b-da, 2, 2, 8, 33, 165, 90, 90, 165, 163, 89, 3, 0.699444
341, 2, bw, catch, NA, 999, 999, 8, 34, 124, 71, 144, 111, 169, 146, 3, 0.565081
341, 2, bw, catch, NA, 999, 999, 8, 34, 124, 71, 144, 111, 169, 146, 1, 0.421554
341, 2, bw, attraction, a-b-da, 2, 3, 8, 35, 195, 120, 120, 195, 193, 119, 2, 0.866839
341, 2, bw, attraction, a-b-da, 2, 3, 8, 35, 195, 120, 120, 195, 193, 119, 3, 0.351076
341, 2, bw, attraction, a-b-db, 9, 2, 8, 36, 90, 165, 86, 157, 165, 90, 1, 1.53496
341, 2, bw, attraction, a-b-db, 9, 2, 8, 36, 90, 165, 86, 157, 165, 90, 3, 0.352498
341, 2, bw, attraction, a-b-da, 9, 3, 8, 37, 120, 195, 195, 120, 186, 114, 1, 0.904156
341, 2, bw, attraction, a-b-da, 9, 3, 8, 37, 120, 195, 195, 120, 186, 114, 2, 1.12263
