sub_n, computer_n, bw_cond, effect, set, distance, diag, block_n, trial_n, h1, w1, h2, w2, h3, w3, choice, rt 
44, 2, wb, practice, NA, 999, 999, 0, 1, 69, 165, 129, 135, 152, 125, 1, 7.5885
44, 2, wb, practice, NA, 999, 999, 0, 1, 69, 165, 129, 135, 152, 125, 2, 3.89102
44, 2, wb, practice, NA, 999, 999, 0, 2, 147, 158, 100, 160, 152, 58, 3, 3.11299
44, 2, wb, practice, NA, 999, 999, 0, 2, 147, 158, 100, 160, 152, 58, 1, 1.47467
44, 2, wb, practice, NA, 999, 999, 0, 3, 56, 64, 145, 96, 120, 109, 1, 1.84772
44, 2, wb, practice, NA, 999, 999, 0, 3, 56, 64, 145, 96, 120, 109, 2, 2.54226
44, 2, wb, attraction, a-b-db, 5, 2, 1, 1, 165, 90, 88, 161, 90, 165, 1, 3.66249
44, 2, wb, attraction, a-b-db, 5, 2, 1, 1, 165, 90, 88, 161, 90, 165, 2, 1.13807
44, 2, wb, attraction, a-b-db, 14, 1, 1, 2, 135, 60, 60, 135, 56, 125, 3, 2.04225
44, 2, wb, attraction, a-b-db, 14, 1, 1, 2, 135, 60, 60, 135, 56, 125, 2, 2.31095
44, 2, wb, attraction, a-b-da, 2, 2, 1, 3, 165, 90, 90, 165, 163, 89, 1, 7.80746
44, 2, wb, attraction, a-b-da, 2, 2, 1, 3, 165, 90, 90, 165, 163, 89, 2, 0.939632
44, 2, wb, attraction, a-b-da, 9, 3, 1, 4, 186, 114, 120, 195, 195, 120, 1, 2.53921
44, 2, wb, attraction, a-b-da, 9, 3, 1, 4, 186, 114, 120, 195, 195, 120, 2, 1.01988
44, 2, wb, attraction, a-b-da, 5, 3, 1, 5, 195, 120, 120, 195, 190, 117, 1, 5.16075
44, 2, wb, attraction, a-b-da, 5, 3, 1, 5, 195, 120, 120, 195, 190, 117, 2, 1.14383
44, 2, wb, attraction, a-b-da, 14, 3, 1, 6, 181, 111, 195, 120, 120, 195, 1, 13.6477
44, 2, wb, attraction, a-b-da, 14, 3, 1, 6, 181, 111, 195, 120, 120, 195, 3, 0.97644
44, 2, wb, filler, NA, 999, 999, 1, 7, 128, 65, 176, 70, 90, 188, 1, 1.72673
44, 2, wb, filler, NA, 999, 999, 1, 7, 128, 65, 176, 70, 90, 188, 3, 0.568279
44, 2, wb, filler, NA, 999, 999, 1, 8, 86, 69, 177, 145, 65, 152, 1, 1.35922
44, 2, wb, filler, NA, 999, 999, 1, 8, 86, 69, 177, 145, 65, 152, 2, 0.735467
44, 2, wb, filler, NA, 999, 999, 1, 9, 139, 146, 182, 184, 186, 130, 3, 2.28784
44, 2, wb, filler, NA, 999, 999, 1, 9, 139, 146, 182, 184, 186, 130, 2, 0.970377
44, 2, wb, filler, NA, 999, 999, 1, 10, 193, 161, 71, 189, 130, 98, 3, 1.71343
44, 2, wb, filler, NA, 999, 999, 1, 10, 193, 161, 71, 189, 130, 98, 1, 0.411611
44, 2, wb, filler, NA, 999, 999, 1, 11, 56, 118, 81, 62, 109, 80, 2, 1.80068
44, 2, wb, filler, NA, 999, 999, 1, 11, 56, 118, 81, 62, 109, 80, 3, 1.07146
44, 2, wb, attraction, a-b-db, 2, 2, 1, 12, 90, 165, 89, 163, 165, 90, 3, 17.6344
44, 2, wb, attraction, a-b-db, 2, 2, 1, 12, 90, 165, 89, 163, 165, 90, 2, 0.666751
44, 2, wb, attraction, a-b-db, 9, 1, 1, 13, 60, 135, 57, 129, 135, 60, 2, 3.46999
44, 2, wb, attraction, a-b-db, 9, 1, 1, 13, 60, 135, 57, 129, 135, 60, 1, 2.91343
44, 2, wb, attraction, a-b-db, 14, 2, 1, 14, 165, 90, 83, 153, 90, 165, 2, 3.73791
44, 2, wb, attraction, a-b-db, 14, 2, 1, 14, 165, 90, 83, 153, 90, 165, 3, 1.88995
44, 2, wb, catch, NA, 999, 999, 1, 15, 98, 97, 128, 187, 156, 99, 1, 1.69131
44, 2, wb, catch, NA, 999, 999, 1, 15, 98, 97, 128, 187, 156, 99, 2, 0.782011
44, 2, wb, attraction, a-b-db, 9, 2, 1, 16, 165, 90, 86, 157, 90, 165, 2, 3.06842
44, 2, wb, attraction, a-b-db, 9, 2, 1, 16, 165, 90, 86, 157, 90, 165, 3, 0.624126
44, 2, wb, attraction, a-b-db, 2, 3, 1, 17, 195, 120, 120, 195, 119, 193, 1, 5.56461
44, 2, wb, attraction, a-b-db, 2, 3, 1, 17, 195, 120, 120, 195, 119, 193, 2, 0.827451
44, 2, wb, attraction, a-b-db, 5, 1, 1, 18, 58, 132, 60, 135, 135, 60, 1, 3.00781
44, 2, wb, attraction, a-b-db, 5, 1, 1, 18, 58, 132, 60, 135, 135, 60, 2, 1.82142
44, 2, wb, attraction, a-b-db, 5, 3, 1, 19, 120, 195, 117, 190, 195, 120, 3, 4.1302
44, 2, wb, attraction, a-b-db, 5, 3, 1, 19, 120, 195, 117, 190, 195, 120, 1, 0.842874
44, 2, wb, attraction, a-b-da, 14, 1, 1, 20, 135, 60, 125, 56, 60, 135, 2, 2.45454
44, 2, wb, attraction, a-b-da, 14, 1, 1, 20, 135, 60, 125, 56, 60, 135, 1, 1.3544
44, 2, wb, attraction, a-b-da, 5, 1, 1, 21, 135, 60, 60, 135, 132, 58, 2, 2.38595
44, 2, wb, attraction, a-b-da, 5, 1, 1, 21, 135, 60, 60, 135, 132, 58, 1, 5.86525
44, 2, wb, filler, NA, 999, 999, 1, 22, 152, 71, 63, 74, 181, 141, 2, 1.66653
44, 2, wb, filler, NA, 999, 999, 1, 22, 152, 71, 63, 74, 181, 141, 3, 0.542747
44, 2, wb, attraction, a-b-da, 2, 1, 1, 23, 60, 135, 135, 60, 134, 59, 1, 9.70244
44, 2, wb, attraction, a-b-da, 2, 1, 1, 23, 60, 135, 135, 60, 134, 59, 2, 0.806835
44, 2, wb, filler, NA, 999, 999, 1, 24, 181, 73, 64, 131, 111, 64, 3, 1.34773
44, 2, wb, filler, NA, 999, 999, 1, 24, 181, 73, 64, 131, 111, 64, 1, 1.99668
44, 2, wb, attraction, a-b-db, 9, 3, 1, 25, 120, 195, 114, 186, 195, 120, 2, 11.466
44, 2, wb, attraction, a-b-db, 9, 3, 1, 25, 120, 195, 114, 186, 195, 120, 3, 0.771054
44, 2, wb, filler, NA, 999, 999, 1, 26, 175, 182, 77, 96, 138, 190, 2, 1.09808
44, 2, wb, filler, NA, 999, 999, 1, 26, 175, 182, 77, 96, 138, 190, 1, 0.501148
44, 2, wb, filler, NA, 999, 999, 1, 27, 79, 61, 147, 141, 60, 102, 1, 1.36676
44, 2, wb, filler, NA, 999, 999, 1, 27, 79, 61, 147, 141, 60, 102, 2, 0.423011
44, 2, wb, attraction, a-b-da, 9, 1, 1, 28, 135, 60, 129, 57, 60, 135, 2, 3.51551
44, 2, wb, attraction, a-b-da, 9, 1, 1, 28, 135, 60, 129, 57, 60, 135, 3, 2.70905
44, 2, wb, attraction, a-b-da, 14, 2, 1, 29, 153, 83, 90, 165, 165, 90, 1, 2.23746
44, 2, wb, attraction, a-b-da, 14, 2, 1, 29, 153, 83, 90, 165, 165, 90, 2, 2.08268
44, 2, wb, attraction, a-b-db, 14, 3, 1, 30, 120, 195, 195, 120, 111, 181, 2, 4.94874
44, 2, wb, attraction, a-b-db, 14, 3, 1, 30, 120, 195, 195, 120, 111, 181, 1, 0.716489
44, 2, wb, attraction, a-b-db, 2, 1, 1, 31, 59, 134, 135, 60, 60, 135, 1, 3.5576
44, 2, wb, attraction, a-b-db, 2, 1, 1, 31, 59, 134, 135, 60, 60, 135, 2, 2.38912
44, 2, wb, attraction, a-b-da, 9, 2, 1, 32, 90, 165, 157, 86, 165, 90, 1, 3.3309
44, 2, wb, attraction, a-b-da, 9, 2, 1, 32, 90, 165, 157, 86, 165, 90, 3, 0.61187
44, 2, wb, catch, NA, 999, 999, 1, 33, 141, 174, 76, 119, 124, 131, 2, 1.66499
44, 2, wb, catch, NA, 999, 999, 1, 33, 141, 174, 76, 119, 124, 131, 1, 1.0211
44, 2, wb, filler, NA, 999, 999, 1, 34, 73, 120, 120, 56, 147, 70, 2, 2.89799
44, 2, wb, filler, NA, 999, 999, 1, 34, 73, 120, 120, 56, 147, 70, 1, 1.07634
44, 2, wb, attraction, a-b-da, 5, 2, 1, 35, 90, 165, 165, 90, 161, 88, 1, 9.91873
44, 2, wb, attraction, a-b-da, 5, 2, 1, 35, 90, 165, 165, 90, 161, 88, 2, 1.55829
44, 2, wb, attraction, a-b-da, 2, 3, 1, 36, 193, 119, 195, 120, 120, 195, 1, 3.07702
44, 2, wb, attraction, a-b-da, 2, 3, 1, 36, 193, 119, 195, 120, 120, 195, 3, 0.616069
44, 2, wb, catch, NA, 999, 999, 1, 37, 68, 127, 101, 154, 166, 149, 1, 1.27706
44, 2, wb, catch, NA, 999, 999, 1, 37, 68, 127, 101, 154, 166, 149, 3, 0.544831
44, 2, wb, filler, NA, 999, 999, 2, 1, 134, 97, 106, 90, 59, 178, 2, 1.60843
44, 2, wb, filler, NA, 999, 999, 2, 1, 134, 97, 106, 90, 59, 178, 1, 0.806525
44, 2, wb, attraction, a-b-da, 14, 2, 2, 2, 90, 165, 165, 90, 153, 83, 3, 3.45961
44, 2, wb, attraction, a-b-da, 14, 2, 2, 2, 90, 165, 165, 90, 153, 83, 2, 1.15115
44, 2, wb, attraction, a-b-da, 5, 2, 2, 3, 90, 165, 165, 90, 161, 88, 3, 2.85492
44, 2, wb, attraction, a-b-da, 5, 2, 2, 3, 90, 165, 165, 90, 161, 88, 1, 1.79446
44, 2, wb, attraction, a-b-da, 9, 2, 2, 4, 157, 86, 165, 90, 90, 165, 1, 3.77588
44, 2, wb, attraction, a-b-da, 9, 2, 2, 4, 157, 86, 165, 90, 90, 165, 3, 0.686683
44, 2, wb, attraction, a-b-da, 9, 1, 2, 5, 60, 135, 135, 60, 129, 57, 1, 3.3531
44, 2, wb, attraction, a-b-da, 9, 1, 2, 5, 60, 135, 135, 60, 129, 57, 2, 0.745322
44, 2, wb, attraction, a-b-da, 9, 3, 2, 6, 186, 114, 195, 120, 120, 195, 1, 3.29701
44, 2, wb, attraction, a-b-da, 9, 3, 2, 6, 186, 114, 195, 120, 120, 195, 3, 0.795406
44, 2, wb, attraction, a-b-db, 14, 2, 2, 7, 165, 90, 83, 153, 90, 165, 2, 2.78499
44, 2, wb, attraction, a-b-db, 14, 2, 2, 7, 165, 90, 83, 153, 90, 165, 1, 2.98409
44, 2, wb, attraction, a-b-db, 14, 3, 2, 8, 195, 120, 111, 181, 120, 195, 2, 3.46982
44, 2, wb, attraction, a-b-db, 14, 3, 2, 8, 195, 120, 111, 181, 120, 195, 1, 1.35333
44, 2, wb, attraction, a-b-db, 14, 1, 2, 9, 56, 125, 135, 60, 60, 135, 1, 5.11288
44, 2, wb, attraction, a-b-db, 14, 1, 2, 9, 56, 125, 135, 60, 60, 135, 2, 2.77792
44, 2, wb, filler, NA, 999, 999, 2, 10, 180, 124, 187, 161, 179, 61, 3, 3.93562
44, 2, wb, filler, NA, 999, 999, 2, 10, 180, 124, 187, 161, 179, 61, 2, 0.736389
44, 2, wb, attraction, a-b-db, 9, 3, 2, 11, 114, 186, 120, 195, 195, 120, 1, 7.62493
44, 2, wb, attraction, a-b-db, 9, 3, 2, 11, 114, 186, 120, 195, 195, 120, 2, 1.65241
44, 2, wb, filler, NA, 999, 999, 2, 12, 119, 160, 131, 187, 185, 77, 1, 1.65576
44, 2, wb, filler, NA, 999, 999, 2, 12, 119, 160, 131, 187, 185, 77, 2, 0.548031
44, 2, wb, attraction, a-b-db, 9, 2, 2, 13, 86, 157, 90, 165, 165, 90, 1, 1.49184
44, 2, wb, attraction, a-b-db, 9, 2, 2, 13, 86, 157, 90, 165, 165, 90, 2, 0.838531
44, 2, wb, attraction, a-b-da, 14, 3, 2, 14, 181, 111, 120, 195, 195, 120, 1, 2.24283
44, 2, wb, attraction, a-b-da, 14, 3, 2, 14, 181, 111, 120, 195, 195, 120, 2, 0.551507
44, 2, wb, attraction, a-b-db, 5, 2, 2, 15, 90, 165, 165, 90, 88, 161, 3, 2.7513
44, 2, wb, attraction, a-b-db, 5, 2, 2, 15, 90, 165, 165, 90, 88, 161, 1, 1.2238
44, 2, wb, catch, NA, 999, 999, 2, 16, 164, 91, 125, 190, 77, 118, 3, 1.60397
44, 2, wb, catch, NA, 999, 999, 2, 16, 164, 91, 125, 190, 77, 118, 2, 1.09804
44, 2, wb, attraction, a-b-db, 2, 3, 2, 17, 120, 195, 195, 120, 119, 193, 2, 2.72362
44, 2, wb, attraction, a-b-db, 2, 3, 2, 17, 120, 195, 195, 120, 119, 193, 1, 0.508753
44, 2, wb, filler, NA, 999, 999, 2, 18, 171, 69, 98, 174, 74, 118, 3, 1.81386
44, 2, wb, filler, NA, 999, 999, 2, 18, 171, 69, 98, 174, 74, 118, 2, 2.82798
44, 2, wb, attraction, a-b-da, 2, 2, 2, 19, 165, 90, 163, 89, 90, 165, 2, 4.36776
44, 2, wb, attraction, a-b-da, 2, 2, 2, 19, 165, 90, 163, 89, 90, 165, 3, 0.478962
44, 2, wb, attraction, a-b-db, 9, 1, 2, 20, 57, 129, 60, 135, 135, 60, 1, 2.1134
44, 2, wb, attraction, a-b-db, 9, 1, 2, 20, 57, 129, 60, 135, 135, 60, 3, 0.787455
44, 2, wb, filler, NA, 999, 999, 2, 21, 129, 174, 131, 191, 76, 188, 3, 4.47374
44, 2, wb, filler, NA, 999, 999, 2, 21, 129, 174, 131, 191, 76, 188, 2, 0.404322
44, 2, wb, attraction, a-b-db, 2, 2, 2, 22, 90, 165, 89, 163, 165, 90, 2, 3.69011
44, 2, wb, attraction, a-b-db, 2, 2, 2, 22, 90, 165, 89, 163, 165, 90, 3, 2.25241
44, 2, wb, filler, NA, 999, 999, 2, 23, 64, 97, 81, 157, 119, 178, 1, 0.855492
44, 2, wb, filler, NA, 999, 999, 2, 23, 64, 97, 81, 157, 119, 178, 3, 0.843958
44, 2, wb, catch, NA, 999, 999, 2, 24, 132, 123, 164, 151, 133, 62, 3, 1.51966
44, 2, wb, catch, NA, 999, 999, 2, 24, 132, 123, 164, 151, 133, 62, 2, 0.713858
44, 2, wb, filler, NA, 999, 999, 2, 25, 162, 119, 173, 120, 58, 94, 3, 0.866847
44, 2, wb, filler, NA, 999, 999, 2, 25, 162, 119, 173, 120, 58, 94, 2, 0.591223
44, 2, wb, filler, NA, 999, 999, 2, 26, 140, 188, 73, 180, 181, 63, 3, 4.81295
44, 2, wb, filler, NA, 999, 999, 2, 26, 140, 188, 73, 180, 181, 63, 1, 0.498096
44, 2, wb, filler, NA, 999, 999, 2, 27, 149, 71, 94, 125, 89, 153, 2, 3.87575
44, 2, wb, filler, NA, 999, 999, 2, 27, 149, 71, 94, 125, 89, 153, 3, 2.00668
44, 2, wb, attraction, a-b-da, 5, 3, 2, 28, 120, 195, 190, 117, 195, 120, 1, 2.44321
44, 2, wb, attraction, a-b-da, 5, 3, 2, 28, 120, 195, 190, 117, 195, 120, 2, 0.735851
44, 2, wb, attraction, a-b-da, 2, 3, 2, 29, 195, 120, 193, 119, 120, 195, 1, 4.0802
44, 2, wb, attraction, a-b-da, 2, 3, 2, 29, 195, 120, 193, 119, 120, 195, 3, 0.706889
44, 2, wb, attraction, a-b-da, 5, 1, 2, 30, 132, 58, 135, 60, 60, 135, 1, 3.1079
44, 2, wb, attraction, a-b-da, 5, 1, 2, 30, 132, 58, 135, 60, 60, 135, 3, 0.437575
44, 2, wb, attraction, a-b-db, 2, 1, 2, 31, 135, 60, 60, 135, 59, 134, 3, 2.2741
44, 2, wb, attraction, a-b-db, 2, 1, 2, 31, 135, 60, 60, 135, 59, 134, 1, 1.77333
44, 2, wb, catch, NA, 999, 999, 2, 32, 186, 129, 82, 113, 90, 165, 2, 0.883284
44, 2, wb, catch, NA, 999, 999, 2, 32, 186, 129, 82, 113, 90, 165, 1, 0.815107
44, 2, wb, attraction, a-b-da, 14, 1, 2, 33, 60, 135, 125, 56, 135, 60, 2, 1.51612
44, 2, wb, attraction, a-b-da, 14, 1, 2, 33, 60, 135, 125, 56, 135, 60, 1, 0.702288
44, 2, wb, attraction, a-b-da, 2, 1, 2, 34, 135, 60, 134, 59, 60, 135, 3, 4.65601
44, 2, wb, attraction, a-b-da, 2, 1, 2, 34, 135, 60, 134, 59, 60, 135, 1, 0.779172
44, 2, wb, attraction, a-b-db, 5, 1, 2, 35, 58, 132, 135, 60, 60, 135, 1, 6.84154
44, 2, wb, attraction, a-b-db, 5, 1, 2, 35, 58, 132, 135, 60, 60, 135, 2, 0.676713
44, 2, wb, attraction, a-b-db, 5, 3, 2, 36, 195, 120, 120, 195, 117, 190, 3, 3.17511
44, 2, wb, attraction, a-b-db, 5, 3, 2, 36, 195, 120, 120, 195, 117, 190, 2, 2.29424
44, 2, wb, filler, NA, 999, 999, 2, 37, 173, 189, 56, 72, 120, 149, 2, 1.71935
44, 2, wb, filler, NA, 999, 999, 2, 37, 173, 189, 56, 72, 120, 149, 1, 0.49744
44, 2, wb, attraction, a-b-db, 2, 1, 3, 1, 135, 60, 60, 135, 59, 134, 2, 3.57924
44, 2, wb, attraction, a-b-db, 2, 1, 3, 1, 135, 60, 60, 135, 59, 134, 1, 2.34599
44, 2, wb, attraction, a-b-da, 5, 3, 3, 2, 120, 195, 190, 117, 195, 120, 2, 2.20925
44, 2, wb, attraction, a-b-da, 5, 3, 3, 2, 120, 195, 190, 117, 195, 120, 1, 0.743257
44, 2, wb, filler, NA, 999, 999, 3, 3, 171, 72, 80, 71, 142, 135, 2, 1.23097
44, 2, wb, filler, NA, 999, 999, 3, 3, 171, 72, 80, 71, 142, 135, 3, 0.468606
44, 2, wb, attraction, a-b-db, 2, 2, 3, 4, 89, 163, 165, 90, 90, 165, 1, 1.67161
44, 2, wb, attraction, a-b-db, 2, 2, 3, 4, 89, 163, 165, 90, 90, 165, 3, 0.595169
44, 2, wb, attraction, a-b-db, 14, 1, 3, 5, 60, 135, 56, 125, 135, 60, 2, 2.08885
44, 2, wb, attraction, a-b-db, 14, 1, 3, 5, 60, 135, 56, 125, 135, 60, 1, 3.41947
44, 2, wb, filler, NA, 999, 999, 3, 6, 102, 114, 68, 174, 162, 62, 3, 10.1037
44, 2, wb, filler, NA, 999, 999, 3, 6, 102, 114, 68, 174, 162, 62, 2, 0.879841
44, 2, wb, filler, NA, 999, 999, 3, 7, 108, 122, 143, 87, 176, 142, 1, 5.80217
44, 2, wb, filler, NA, 999, 999, 3, 7, 108, 122, 143, 87, 176, 142, 3, 0.567679
44, 2, wb, attraction, a-b-da, 2, 3, 3, 8, 193, 119, 195, 120, 120, 195, 1, 2.95883
44, 2, wb, attraction, a-b-da, 2, 3, 3, 8, 193, 119, 195, 120, 120, 195, 3, 0.982604
44, 2, wb, attraction, a-b-da, 14, 2, 3, 9, 153, 83, 165, 90, 90, 165, 1, 1.00477
44, 2, wb, attraction, a-b-da, 14, 2, 3, 9, 153, 83, 165, 90, 90, 165, 3, 0.579105
44, 2, wb, filler, NA, 999, 999, 3, 10, 183, 91, 155, 114, 110, 160, 1, 1.8895
44, 2, wb, filler, NA, 999, 999, 3, 10, 183, 91, 155, 114, 110, 160, 3, 0.708361
44, 2, wb, filler, NA, 999, 999, 3, 11, 92, 179, 134, 158, 100, 120, 3, 6.22136
44, 2, wb, filler, NA, 999, 999, 3, 11, 92, 179, 134, 158, 100, 120, 2, 0.361999
44, 2, wb, attraction, a-b-da, 9, 3, 3, 12, 195, 120, 186, 114, 120, 195, 1, 2.88117
44, 2, wb, attraction, a-b-da, 9, 3, 3, 12, 195, 120, 186, 114, 120, 195, 3, 0.492171
44, 2, wb, attraction, a-b-db, 9, 1, 3, 13, 57, 129, 135, 60, 60, 135, 1, 2.06201
44, 2, wb, attraction, a-b-db, 9, 1, 3, 13, 57, 129, 135, 60, 60, 135, 3, 1.08207
44, 2, wb, attraction, a-b-da, 5, 2, 3, 14, 161, 88, 90, 165, 165, 90, 1, 5.09232
44, 2, wb, attraction, a-b-da, 5, 2, 3, 14, 161, 88, 90, 165, 165, 90, 2, 0.493901
44, 2, wb, filler, NA, 999, 999, 3, 15, 79, 83, 74, 168, 156, 110, 1, 1.47977
44, 2, wb, filler, NA, 999, 999, 3, 15, 79, 83, 74, 168, 156, 110, 3, 0.483286
44, 2, wb, attraction, a-b-db, 2, 3, 3, 16, 119, 193, 195, 120, 120, 195, 2, 2.05374
44, 2, wb, attraction, a-b-db, 2, 3, 3, 16, 119, 193, 195, 120, 120, 195, 3, 0.697876
44, 2, wb, attraction, a-b-db, 5, 3, 3, 17, 195, 120, 117, 190, 120, 195, 1, 2.36358
44, 2, wb, attraction, a-b-db, 5, 3, 3, 17, 195, 120, 117, 190, 120, 195, 2, 1.03537
44, 2, wb, attraction, a-b-db, 9, 2, 3, 18, 90, 165, 86, 157, 165, 90, 3, 2.43968
44, 2, wb, attraction, a-b-db, 9, 2, 3, 18, 90, 165, 86, 157, 165, 90, 2, 0.708243
44, 2, wb, catch, NA, 999, 999, 3, 19, 91, 164, 191, 124, 120, 75, 3, 0.869391
44, 2, wb, catch, NA, 999, 999, 3, 19, 91, 164, 191, 124, 120, 75, 2, 0.61766
44, 2, wb, catch, NA, 999, 999, 3, 20, 94, 161, 129, 186, 90, 105, 3, 1.00669
44, 2, wb, catch, NA, 999, 999, 3, 20, 94, 161, 129, 186, 90, 105, 2, 1.221
44, 2, wb, attraction, a-b-db, 14, 2, 3, 21, 165, 90, 83, 153, 90, 165, 1, 3.35391
44, 2, wb, attraction, a-b-db, 14, 2, 3, 21, 165, 90, 83, 153, 90, 165, 3, 0.722204
44, 2, wb, attraction, a-b-da, 14, 3, 3, 22, 120, 195, 195, 120, 181, 111, 3, 2.34729
44, 2, wb, attraction, a-b-da, 14, 3, 3, 22, 120, 195, 195, 120, 181, 111, 1, 0.451822
44, 2, wb, filler, NA, 999, 999, 3, 23, 94, 61, 59, 92, 140, 136, 2, 2.80761
44, 2, wb, filler, NA, 999, 999, 3, 23, 94, 61, 59, 92, 140, 136, 3, 0.413429
44, 2, wb, attraction, a-b-da, 9, 1, 3, 24, 60, 135, 129, 57, 135, 60, 1, 1.41851
44, 2, wb, attraction, a-b-da, 9, 1, 3, 24, 60, 135, 129, 57, 135, 60, 3, 0.680657
44, 2, wb, filler, NA, 999, 999, 3, 25, 96, 101, 70, 65, 61, 130, 2, 1.01917
44, 2, wb, filler, NA, 999, 999, 3, 25, 96, 101, 70, 65, 61, 130, 1, 0.505638
44, 2, wb, attraction, a-b-db, 9, 3, 3, 26, 120, 195, 114, 186, 195, 120, 3, 3.16327
44, 2, wb, attraction, a-b-db, 9, 3, 3, 26, 120, 195, 114, 186, 195, 120, 1, 0.562877
44, 2, wb, attraction, a-b-db, 5, 1, 3, 27, 60, 135, 58, 132, 135, 60, 1, 1.83397
44, 2, wb, attraction, a-b-db, 5, 1, 3, 27, 60, 135, 58, 132, 135, 60, 3, 0.74341
44, 2, wb, filler, NA, 999, 999, 3, 28, 105, 93, 193, 180, 113, 180, 1, 0.975052
44, 2, wb, filler, NA, 999, 999, 3, 28, 105, 93, 193, 180, 113, 180, 2, 0.406919
44, 2, wb, attraction, a-b-db, 5, 2, 3, 29, 90, 165, 88, 161, 165, 90, 3, 2.1079
44, 2, wb, attraction, a-b-db, 5, 2, 3, 29, 90, 165, 88, 161, 165, 90, 1, 1.24587
44, 2, wb, filler, NA, 999, 999, 3, 30, 173, 191, 167, 143, 90, 126, 3, 0.88939
44, 2, wb, filler, NA, 999, 999, 3, 30, 173, 191, 167, 143, 90, 126, 1, 0.732444
44, 2, wb, catch, NA, 999, 999, 3, 31, 195, 120, 153, 102, 93, 102, 3, 1.44484
44, 2, wb, catch, NA, 999, 999, 3, 31, 195, 120, 153, 102, 93, 102, 1, 1.06569
44, 2, wb, attraction, a-b-db, 14, 3, 3, 32, 195, 120, 111, 181, 120, 195, 1, 1.83657
44, 2, wb, attraction, a-b-db, 14, 3, 3, 32, 195, 120, 111, 181, 120, 195, 3, 1.41808
44, 2, wb, attraction, a-b-da, 9, 2, 3, 33, 165, 90, 157, 86, 90, 165, 1, 4.5508
44, 2, wb, attraction, a-b-da, 9, 2, 3, 33, 165, 90, 157, 86, 90, 165, 3, 1.14279
44, 2, wb, attraction, a-b-da, 5, 1, 3, 34, 135, 60, 132, 58, 60, 135, 2, 2.35031
44, 2, wb, attraction, a-b-da, 5, 1, 3, 34, 135, 60, 132, 58, 60, 135, 3, 1.36691
44, 2, wb, attraction, a-b-da, 2, 2, 3, 35, 163, 89, 165, 90, 90, 165, 3, 1.86975
44, 2, wb, attraction, a-b-da, 2, 2, 3, 35, 163, 89, 165, 90, 90, 165, 1, 0.921797
44, 2, wb, attraction, a-b-da, 14, 1, 3, 36, 125, 56, 60, 135, 135, 60, 1, 1.41077
44, 2, wb, attraction, a-b-da, 14, 1, 3, 36, 125, 56, 60, 135, 135, 60, 3, 1.16109
44, 2, wb, attraction, a-b-da, 2, 1, 3, 37, 134, 59, 135, 60, 60, 135, 1, 1.10393
44, 2, wb, attraction, a-b-da, 2, 1, 3, 37, 134, 59, 135, 60, 60, 135, 2, 0.506229
44, 2, wb, attraction, a-b-da, 9, 1, 4, 1, 129, 57, 60, 135, 135, 60, 2, 0.939312
44, 2, wb, attraction, a-b-da, 9, 1, 4, 1, 129, 57, 60, 135, 135, 60, 3, 1.2764
44, 2, wb, attraction, a-b-da, 5, 1, 4, 2, 60, 135, 135, 60, 132, 58, 3, 1.94267
44, 2, wb, attraction, a-b-da, 5, 1, 4, 2, 60, 135, 135, 60, 132, 58, 1, 1.07127
44, 2, wb, attraction, a-b-da, 9, 3, 4, 3, 195, 120, 186, 114, 120, 195, 2, 3.76225
44, 2, wb, attraction, a-b-da, 9, 3, 4, 3, 195, 120, 186, 114, 120, 195, 3, 0.601676
44, 2, wb, attraction, a-b-db, 9, 3, 4, 4, 114, 186, 120, 195, 195, 120, 1, 1.78343
44, 2, wb, attraction, a-b-db, 9, 3, 4, 4, 114, 186, 120, 195, 195, 120, 2, 0.745713
44, 2, wb, attraction, a-b-da, 2, 2, 4, 5, 165, 90, 90, 165, 163, 89, 3, 1.91053
44, 2, wb, attraction, a-b-da, 2, 2, 4, 5, 165, 90, 90, 165, 163, 89, 2, 0.76057
44, 2, wb, attraction, a-b-db, 14, 2, 4, 6, 90, 165, 83, 153, 165, 90, 3, 4.07161
44, 2, wb, attraction, a-b-db, 14, 2, 4, 6, 90, 165, 83, 153, 165, 90, 1, 0.538309
44, 2, wb, attraction, a-b-da, 2, 1, 4, 7, 134, 59, 60, 135, 135, 60, 1, 2.53073
44, 2, wb, attraction, a-b-da, 2, 1, 4, 7, 134, 59, 60, 135, 135, 60, 2, 2.99592
44, 2, wb, attraction, a-b-db, 14, 3, 4, 8, 111, 181, 120, 195, 195, 120, 1, 1.93691
44, 2, wb, attraction, a-b-db, 14, 3, 4, 8, 111, 181, 120, 195, 195, 120, 2, 0.609728
44, 2, wb, attraction, a-b-db, 5, 2, 4, 9, 90, 165, 88, 161, 165, 90, 3, 1.35076
44, 2, wb, attraction, a-b-db, 5, 2, 4, 9, 90, 165, 88, 161, 165, 90, 2, 0.583592
44, 2, wb, attraction, a-b-db, 5, 1, 4, 10, 135, 60, 60, 135, 58, 132, 1, 2.70213
44, 2, wb, attraction, a-b-db, 5, 1, 4, 10, 135, 60, 60, 135, 58, 132, 3, 1.3045
44, 2, wb, attraction, a-b-da, 5, 2, 4, 11, 165, 90, 161, 88, 90, 165, 3, 1.76199
44, 2, wb, attraction, a-b-da, 5, 2, 4, 11, 165, 90, 161, 88, 90, 165, 2, 1.22612
44, 2, wb, filler, NA, 999, 999, 4, 12, 92, 77, 190, 99, 65, 123, 1, 5.26231
44, 2, wb, filler, NA, 999, 999, 4, 12, 92, 77, 190, 99, 65, 123, 2, 1.04138
44, 2, wb, filler, NA, 999, 999, 4, 13, 145, 66, 99, 66, 146, 147, 2, 1.26904
44, 2, wb, filler, NA, 999, 999, 4, 13, 145, 66, 99, 66, 146, 147, 3, 0.617248
44, 2, wb, attraction, a-b-da, 14, 3, 4, 14, 181, 111, 195, 120, 120, 195, 1, 2.1183
44, 2, wb, attraction, a-b-da, 14, 3, 4, 14, 181, 111, 195, 120, 120, 195, 3, 0.45621
44, 2, wb, attraction, a-b-db, 2, 3, 4, 15, 119, 193, 195, 120, 120, 195, 2, 3.12339
44, 2, wb, attraction, a-b-db, 2, 3, 4, 15, 119, 193, 195, 120, 120, 195, 3, 0.444395
44, 2, wb, attraction, a-b-db, 2, 1, 4, 16, 59, 134, 135, 60, 60, 135, 1, 3.60817
44, 2, wb, attraction, a-b-db, 2, 1, 4, 16, 59, 134, 135, 60, 60, 135, 3, 1.19771
44, 2, wb, attraction, a-b-da, 2, 3, 4, 17, 120, 195, 195, 120, 193, 119, 1, 2.68324
44, 2, wb, attraction, a-b-da, 2, 3, 4, 17, 120, 195, 195, 120, 193, 119, 2, 0.598452
44, 2, wb, filler, NA, 999, 999, 4, 18, 92, 65, 77, 178, 78, 111, 1, 0.964159
44, 2, wb, filler, NA, 999, 999, 4, 18, 92, 65, 77, 178, 78, 111, 2, 0.948507
44, 2, wb, attraction, a-b-db, 9, 2, 4, 19, 90, 165, 86, 157, 165, 90, 2, 6.16415
44, 2, wb, attraction, a-b-db, 9, 2, 4, 19, 90, 165, 86, 157, 165, 90, 3, 0.482904
44, 2, wb, attraction, a-b-db, 5, 3, 4, 20, 117, 190, 195, 120, 120, 195, 1, 1.65332
44, 2, wb, attraction, a-b-db, 5, 3, 4, 20, 117, 190, 195, 120, 120, 195, 2, 0.95408
44, 2, wb, attraction, a-b-da, 5, 3, 4, 21, 190, 117, 195, 120, 120, 195, 3, 1.51386
44, 2, wb, attraction, a-b-da, 5, 3, 4, 21, 190, 117, 195, 120, 120, 195, 2, 0.699915
44, 2, wb, filler, NA, 999, 999, 4, 22, 101, 146, 174, 158, 172, 106, 1, 1.04569
44, 2, wb, filler, NA, 999, 999, 4, 22, 101, 146, 174, 158, 172, 106, 2, 0.490606
44, 2, wb, attraction, a-b-da, 14, 1, 4, 23, 135, 60, 125, 56, 60, 135, 2, 1.99644
44, 2, wb, attraction, a-b-da, 14, 1, 4, 23, 135, 60, 125, 56, 60, 135, 3, 0.819122
44, 2, wb, attraction, a-b-db, 14, 1, 4, 24, 60, 135, 135, 60, 56, 125, 1, 5.26409
44, 2, wb, attraction, a-b-db, 14, 1, 4, 24, 60, 135, 135, 60, 56, 125, 3, 1.33111
44, 2, wb, attraction, a-b-da, 9, 2, 4, 25, 157, 86, 90, 165, 165, 90, 1, 1.3472
44, 2, wb, attraction, a-b-da, 9, 2, 4, 25, 157, 86, 90, 165, 165, 90, 2, 1.3002
44, 2, wb, filler, NA, 999, 999, 4, 26, 101, 178, 143, 158, 74, 100, 3, 0.885785
44, 2, wb, filler, NA, 999, 999, 4, 26, 101, 178, 143, 158, 74, 100, 2, 0.585473
44, 2, wb, filler, NA, 999, 999, 4, 27, 117, 174, 68, 188, 131, 150, 2, 0.96781
44, 2, wb, filler, NA, 999, 999, 4, 27, 117, 174, 68, 188, 131, 150, 1, 1.40026
44, 2, wb, attraction, a-b-da, 14, 2, 4, 28, 165, 90, 90, 165, 153, 83, 3, 1.90174
44, 2, wb, attraction, a-b-da, 14, 2, 4, 28, 165, 90, 90, 165, 153, 83, 2, 0.744397
44, 2, wb, catch, NA, 999, 999, 4, 29, 95, 100, 138, 117, 194, 121, 1, 0.832158
44, 2, wb, catch, NA, 999, 999, 4, 29, 95, 100, 138, 117, 194, 121, 2, 0.757841
44, 2, wb, attraction, a-b-db, 2, 2, 4, 30, 165, 90, 89, 163, 90, 165, 1, 3.06078
44, 2, wb, attraction, a-b-db, 2, 2, 4, 30, 165, 90, 89, 163, 90, 165, 2, 0.976565
44, 2, wb, catch, NA, 999, 999, 4, 31, 134, 181, 125, 130, 114, 81, 3, 1.19885
44, 2, wb, catch, NA, 999, 999, 4, 31, 134, 181, 125, 130, 114, 81, 1, 0.789748
44, 2, wb, attraction, a-b-db, 9, 1, 4, 32, 57, 129, 135, 60, 60, 135, 1, 1.32344
44, 2, wb, attraction, a-b-db, 9, 1, 4, 32, 57, 129, 135, 60, 60, 135, 3, 0.861132
44, 2, wb, filler, NA, 999, 999, 4, 33, 130, 189, 69, 134, 185, 77, 2, 1.9922
44, 2, wb, filler, NA, 999, 999, 4, 33, 130, 189, 69, 134, 185, 77, 1, 0.56673
44, 2, wb, filler, NA, 999, 999, 4, 34, 127, 64, 146, 95, 100, 158, 1, 0.821759
44, 2, wb, filler, NA, 999, 999, 4, 34, 127, 64, 146, 95, 100, 158, 3, 0.507569
44, 2, wb, filler, NA, 999, 999, 4, 35, 70, 113, 64, 126, 71, 58, 3, 0.996679
44, 2, wb, filler, NA, 999, 999, 4, 35, 70, 113, 64, 126, 71, 58, 2, 0.827599
44, 2, wb, filler, NA, 999, 999, 4, 36, 156, 109, 100, 64, 185, 178, 2, 0.64796
44, 2, wb, filler, NA, 999, 999, 4, 36, 156, 109, 100, 64, 185, 178, 3, 0.325081
44, 2, wb, catch, NA, 999, 999, 4, 37, 90, 165, 125, 190, 80, 115, 3, 0.861585
44, 2, wb, catch, NA, 999, 999, 4, 37, 90, 165, 125, 190, 80, 115, 2, 0.537919
44, 2, wb, attraction, a-b-da, 2, 3, 5, 1, 120, 195, 193, 119, 195, 120, 3, 8.46439
44, 2, wb, attraction, a-b-da, 2, 3, 5, 1, 120, 195, 193, 119, 195, 120, 2, 4.10641
44, 2, wb, attraction, a-b-db, 9, 3, 5, 2, 195, 120, 120, 195, 114, 186, 3, 3.74701
44, 2, wb, attraction, a-b-db, 9, 3, 5, 2, 195, 120, 120, 195, 114, 186, 2, 1.42717
44, 2, wb, attraction, a-b-db, 14, 1, 5, 3, 135, 60, 60, 135, 56, 125, 3, 5.35935
44, 2, wb, attraction, a-b-db, 14, 1, 5, 3, 135, 60, 60, 135, 56, 125, 2, 1.64631
44, 2, wb, attraction, a-b-db, 2, 2, 5, 4, 89, 163, 165, 90, 90, 165, 2, 6.87372
44, 2, wb, attraction, a-b-db, 2, 2, 5, 4, 89, 163, 165, 90, 90, 165, 3, 0.82767
44, 2, wb, attraction, a-b-da, 5, 3, 5, 5, 195, 120, 190, 117, 120, 195, 1, 4.12784
44, 2, wb, attraction, a-b-da, 5, 3, 5, 5, 195, 120, 190, 117, 120, 195, 3, 2.35257
44, 2, wb, attraction, a-b-da, 9, 2, 5, 6, 157, 86, 165, 90, 90, 165, 1, 2.35968
44, 2, wb, attraction, a-b-da, 9, 2, 5, 6, 157, 86, 165, 90, 90, 165, 2, 1.99181
44, 2, wb, filler, NA, 999, 999, 5, 7, 158, 187, 131, 163, 180, 92, 3, 4.64503
44, 2, wb, filler, NA, 999, 999, 5, 7, 158, 187, 131, 163, 180, 92, 1, 0.776816
44, 2, wb, attraction, a-b-db, 2, 1, 5, 8, 135, 60, 59, 134, 60, 135, 3, 4.57522
44, 2, wb, attraction, a-b-db, 2, 1, 5, 8, 135, 60, 59, 134, 60, 135, 1, 1.1177
44, 2, wb, attraction, a-b-db, 2, 3, 5, 9, 119, 193, 195, 120, 120, 195, 1, 5.87874
44, 2, wb, attraction, a-b-db, 2, 3, 5, 9, 119, 193, 195, 120, 120, 195, 2, 3.17686
44, 2, wb, catch, NA, 999, 999, 5, 10, 162, 93, 183, 132, 118, 77, 3, 0.958435
44, 2, wb, catch, NA, 999, 999, 5, 10, 162, 93, 183, 132, 118, 77, 2, 0.758761
44, 2, wb, filler, NA, 999, 999, 5, 11, 169, 105, 148, 137, 179, 76, 3, 3.1338
44, 2, wb, filler, NA, 999, 999, 5, 11, 169, 105, 148, 137, 179, 76, 1, 1.97482
44, 2, wb, attraction, a-b-db, 5, 2, 5, 12, 88, 161, 165, 90, 90, 165, 1, 4.86874
44, 2, wb, attraction, a-b-db, 5, 2, 5, 12, 88, 161, 165, 90, 90, 165, 3, 0.663863
44, 2, wb, filler, NA, 999, 999, 5, 13, 74, 182, 145, 149, 138, 150, 1, 3.73095
44, 2, wb, filler, NA, 999, 999, 5, 13, 74, 182, 145, 149, 138, 150, 2, 0.771854
44, 2, wb, attraction, a-b-da, 9, 3, 5, 14, 186, 114, 120, 195, 195, 120, 1, 10.9548
44, 2, wb, attraction, a-b-da, 9, 3, 5, 14, 186, 114, 120, 195, 195, 120, 2, 0.896845
44, 2, wb, attraction, a-b-db, 5, 1, 5, 15, 60, 135, 135, 60, 58, 132, 1, 1.53834
44, 2, wb, attraction, a-b-db, 5, 1, 5, 15, 60, 135, 135, 60, 58, 132, 3, 0.651172
44, 2, wb, attraction, a-b-da, 2, 2, 5, 16, 90, 165, 165, 90, 163, 89, 3, 2.28693
44, 2, wb, attraction, a-b-da, 2, 2, 5, 16, 90, 165, 165, 90, 163, 89, 1, 0.44165
44, 2, wb, attraction, a-b-db, 14, 3, 5, 17, 120, 195, 195, 120, 111, 181, 3, 1.66934
44, 2, wb, attraction, a-b-db, 14, 3, 5, 17, 120, 195, 195, 120, 111, 181, 2, 1.26544
44, 2, wb, attraction, a-b-db, 5, 3, 5, 18, 195, 120, 117, 190, 120, 195, 1, 7.34828
44, 2, wb, attraction, a-b-db, 5, 3, 5, 18, 195, 120, 117, 190, 120, 195, 2, 0.731334
44, 2, wb, attraction, a-b-da, 2, 1, 5, 19, 134, 59, 60, 135, 135, 60, 1, 2.44369
44, 2, wb, attraction, a-b-da, 2, 1, 5, 19, 134, 59, 60, 135, 135, 60, 2, 0.408231
44, 2, wb, attraction, a-b-da, 9, 1, 5, 20, 135, 60, 60, 135, 129, 57, 2, 1.64538
44, 2, wb, attraction, a-b-da, 9, 1, 5, 20, 135, 60, 60, 135, 129, 57, 1, 0.922163
44, 2, wb, attraction, a-b-db, 9, 2, 5, 21, 165, 90, 86, 157, 90, 165, 2, 2.95526
44, 2, wb, attraction, a-b-db, 9, 2, 5, 21, 165, 90, 86, 157, 90, 165, 3, 1.41089
44, 2, wb, attraction, a-b-db, 9, 1, 5, 22, 57, 129, 60, 135, 135, 60, 1, 1.2717
44, 2, wb, attraction, a-b-db, 9, 1, 5, 22, 57, 129, 60, 135, 135, 60, 2, 1.07538
44, 2, wb, attraction, a-b-da, 5, 2, 5, 23, 161, 88, 90, 165, 165, 90, 1, 2.8135
44, 2, wb, attraction, a-b-da, 5, 2, 5, 23, 161, 88, 90, 165, 165, 90, 2, 1.35537
44, 2, wb, attraction, a-b-db, 14, 2, 5, 24, 83, 153, 165, 90, 90, 165, 1, 2.16281
44, 2, wb, attraction, a-b-db, 14, 2, 5, 24, 83, 153, 165, 90, 90, 165, 3, 4.88288
44, 2, wb, filler, NA, 999, 999, 5, 25, 151, 71, 79, 104, 195, 92, 2, 2.86787
44, 2, wb, filler, NA, 999, 999, 5, 25, 151, 71, 79, 104, 195, 92, 3, 0.735652
44, 2, wb, attraction, a-b-da, 14, 2, 5, 26, 165, 90, 90, 165, 153, 83, 3, 3.51201
44, 2, wb, attraction, a-b-da, 14, 2, 5, 26, 165, 90, 90, 165, 153, 83, 2, 1.56158
44, 2, wb, attraction, a-b-da, 5, 1, 5, 27, 132, 58, 60, 135, 135, 60, 1, 6.58432
44, 2, wb, attraction, a-b-da, 5, 1, 5, 27, 132, 58, 60, 135, 135, 60, 2, 0.566287
44, 2, wb, filler, NA, 999, 999, 5, 28, 169, 106, 67, 66, 120, 109, 2, 1.36538
44, 2, wb, filler, NA, 999, 999, 5, 28, 169, 106, 67, 66, 120, 109, 1, 1.38961
44, 2, wb, filler, NA, 999, 999, 5, 29, 186, 105, 75, 63, 126, 65, 2, 0.907099
44, 2, wb, filler, NA, 999, 999, 5, 29, 186, 105, 75, 63, 126, 65, 1, 0.701561
44, 2, wb, catch, NA, 999, 999, 5, 30, 160, 95, 70, 125, 141, 174, 2, 1.31116
44, 2, wb, catch, NA, 999, 999, 5, 30, 160, 95, 70, 125, 141, 174, 3, 0.505377
44, 2, wb, filler, NA, 999, 999, 5, 31, 158, 195, 188, 124, 104, 129, 3, 1.61122
44, 2, wb, filler, NA, 999, 999, 5, 31, 158, 195, 188, 124, 104, 129, 1, 4.35336
44, 2, wb, catch, NA, 999, 999, 5, 32, 97, 158, 114, 81, 128, 187, 2, 0.999861
44, 2, wb, catch, NA, 999, 999, 5, 32, 97, 158, 114, 81, 128, 187, 3, 1.335
44, 2, wb, filler, NA, 999, 999, 5, 33, 72, 76, 162, 144, 87, 94, 1, 1.22306
44, 2, wb, filler, NA, 999, 999, 5, 33, 72, 76, 162, 144, 87, 94, 2, 0.844593
44, 2, wb, attraction, a-b-da, 14, 3, 5, 34, 195, 120, 120, 195, 181, 111, 3, 4.00043
44, 2, wb, attraction, a-b-da, 14, 3, 5, 34, 195, 120, 120, 195, 181, 111, 2, 1.20637
44, 2, wb, attraction, a-b-da, 14, 1, 5, 35, 135, 60, 60, 135, 125, 56, 3, 1.54723
44, 2, wb, attraction, a-b-da, 14, 1, 5, 35, 135, 60, 60, 135, 125, 56, 2, 1.02816
44, 2, wb, filler, NA, 999, 999, 5, 36, 80, 193, 127, 156, 77, 56, 3, 1.66442
44, 2, wb, filler, NA, 999, 999, 5, 36, 80, 193, 127, 156, 77, 56, 2, 1.06061
44, 2, wb, filler, NA, 999, 999, 5, 37, 115, 145, 169, 159, 146, 145, 1, 1.24742
44, 2, wb, filler, NA, 999, 999, 5, 37, 115, 145, 169, 159, 146, 145, 2, 0.796442
44, 2, wb, attraction, a-b-da, 14, 1, 6, 1, 135, 60, 125, 56, 60, 135, 1, 30.6901
44, 2, wb, attraction, a-b-da, 14, 1, 6, 1, 135, 60, 125, 56, 60, 135, 3, 0.924478
44, 2, wb, attraction, a-b-db, 9, 1, 6, 2, 57, 129, 60, 135, 135, 60, 1, 20.1808
44, 2, wb, attraction, a-b-db, 9, 1, 6, 2, 57, 129, 60, 135, 135, 60, 2, 1.35046
44, 2, wb, filler, NA, 999, 999, 6, 3, 105, 184, 160, 112, 64, 128, 3, 1.86996
44, 2, wb, filler, NA, 999, 999, 6, 3, 105, 184, 160, 112, 64, 128, 1, 1.27337
44, 2, wb, attraction, a-b-db, 14, 2, 6, 4, 90, 165, 165, 90, 83, 153, 3, 2.77957
44, 2, wb, attraction, a-b-db, 14, 2, 6, 4, 90, 165, 165, 90, 83, 153, 1, 2.23465
44, 2, wb, attraction, a-b-da, 5, 3, 6, 5, 195, 120, 190, 117, 120, 195, 2, 3.99864
44, 2, wb, attraction, a-b-da, 5, 3, 6, 5, 195, 120, 190, 117, 120, 195, 3, 2.97281
44, 2, wb, attraction, a-b-db, 5, 1, 6, 6, 58, 132, 135, 60, 60, 135, 1, 4.77094
44, 2, wb, attraction, a-b-db, 5, 1, 6, 6, 58, 132, 135, 60, 60, 135, 2, 3.90625
44, 2, wb, filler, NA, 999, 999, 6, 7, 160, 64, 115, 129, 184, 162, 2, 11.5468
44, 2, wb, filler, NA, 999, 999, 6, 7, 160, 64, 115, 129, 184, 162, 3, 2.29662
44, 2, wb, attraction, a-b-db, 2, 3, 6, 8, 120, 195, 119, 193, 195, 120, 3, 4.32183
44, 2, wb, attraction, a-b-db, 2, 3, 6, 8, 120, 195, 119, 193, 195, 120, 2, 0.938437
44, 2, wb, filler, NA, 999, 999, 6, 9, 155, 121, 92, 126, 159, 155, 2, 2.36274
44, 2, wb, filler, NA, 999, 999, 6, 9, 155, 121, 92, 126, 159, 155, 3, 1.29062
44, 2, wb, attraction, a-b-db, 9, 3, 6, 10, 114, 186, 120, 195, 195, 120, 1, 2.15606
44, 2, wb, attraction, a-b-db, 9, 3, 6, 10, 114, 186, 120, 195, 195, 120, 2, 1.58837
44, 2, wb, attraction, a-b-da, 9, 1, 6, 11, 60, 135, 129, 57, 135, 60, 1, 1.49023
44, 2, wb, attraction, a-b-da, 9, 1, 6, 11, 60, 135, 129, 57, 135, 60, 3, 0.565158
44, 2, wb, catch, NA, 999, 999, 6, 12, 193, 122, 116, 79, 164, 91, 2, 1.02018
44, 2, wb, catch, NA, 999, 999, 6, 12, 193, 122, 116, 79, 164, 91, 1, 0.705853
44, 2, wb, attraction, a-b-da, 2, 3, 6, 13, 193, 119, 120, 195, 195, 120, 1, 10.2115
44, 2, wb, attraction, a-b-da, 2, 3, 6, 13, 193, 119, 120, 195, 195, 120, 2, 1.18314
44, 2, wb, filler, NA, 999, 999, 6, 14, 165, 82, 143, 87, 95, 164, 2, 5.10934
44, 2, wb, filler, NA, 999, 999, 6, 14, 165, 82, 143, 87, 95, 164, 3, 1.70231
44, 2, wb, attraction, a-b-da, 14, 3, 6, 15, 181, 111, 195, 120, 120, 195, 1, 4.31172
44, 2, wb, attraction, a-b-da, 14, 3, 6, 15, 181, 111, 195, 120, 120, 195, 2, 0.840996
44, 2, wb, filler, NA, 999, 999, 6, 16, 144, 68, 165, 134, 107, 133, 3, 14.0367
44, 2, wb, filler, NA, 999, 999, 6, 16, 144, 68, 165, 134, 107, 133, 2, 0.542384
44, 2, wb, attraction, a-b-db, 14, 3, 6, 17, 120, 195, 195, 120, 111, 181, 3, 7.82999
44, 2, wb, attraction, a-b-db, 14, 3, 6, 17, 120, 195, 195, 120, 111, 181, 1, 0.97752
44, 2, wb, filler, NA, 999, 999, 6, 18, 113, 144, 145, 145, 194, 195, 1, 1.19975
44, 2, wb, filler, NA, 999, 999, 6, 18, 113, 144, 145, 145, 194, 195, 3, 0.486813
44, 2, wb, attraction, a-b-db, 5, 2, 6, 19, 165, 90, 90, 165, 88, 161, 3, 4.42532
44, 2, wb, attraction, a-b-db, 5, 2, 6, 19, 165, 90, 90, 165, 88, 161, 2, 0.893883
44, 2, wb, attraction, a-b-db, 14, 1, 6, 20, 135, 60, 56, 125, 60, 135, 2, 2.77551
44, 2, wb, attraction, a-b-db, 14, 1, 6, 20, 135, 60, 56, 125, 60, 135, 1, 0.622598
44, 2, wb, attraction, a-b-da, 2, 2, 6, 21, 165, 90, 90, 165, 163, 89, 3, 3.50765
44, 2, wb, attraction, a-b-da, 2, 2, 6, 21, 165, 90, 90, 165, 163, 89, 2, 2.18126
44, 2, wb, filler, NA, 999, 999, 6, 22, 113, 183, 151, 125, 99, 96, 3, 1.51511
44, 2, wb, filler, NA, 999, 999, 6, 22, 113, 183, 151, 125, 99, 96, 1, 0.693315
44, 2, wb, attraction, a-b-db, 5, 3, 6, 23, 120, 195, 195, 120, 117, 190, 3, 7.46326
44, 2, wb, attraction, a-b-db, 5, 3, 6, 23, 120, 195, 195, 120, 117, 190, 1, 1.32935
44, 2, wb, attraction, a-b-db, 2, 2, 6, 24, 165, 90, 90, 165, 89, 163, 3, 7.04949
44, 2, wb, attraction, a-b-db, 2, 2, 6, 24, 165, 90, 90, 165, 89, 163, 1, 0.4367
44, 2, wb, filler, NA, 999, 999, 6, 25, 68, 186, 127, 101, 85, 103, 3, 1.35316
44, 2, wb, filler, NA, 999, 999, 6, 25, 68, 186, 127, 101, 85, 103, 2, 0.490141
44, 2, wb, attraction, a-b-da, 9, 3, 6, 26, 120, 195, 195, 120, 186, 114, 3, 2.21987
44, 2, wb, attraction, a-b-da, 9, 3, 6, 26, 120, 195, 195, 120, 186, 114, 1, 2.08168
44, 2, wb, attraction, a-b-da, 2, 1, 6, 27, 135, 60, 60, 135, 134, 59, 3, 7.16375
44, 2, wb, attraction, a-b-da, 2, 1, 6, 27, 135, 60, 60, 135, 134, 59, 2, 1.73017
44, 2, wb, attraction, a-b-da, 9, 2, 6, 28, 165, 90, 90, 165, 157, 86, 3, 3.01016
44, 2, wb, attraction, a-b-da, 9, 2, 6, 28, 165, 90, 90, 165, 157, 86, 2, 0.6
44, 2, wb, attraction, a-b-da, 5, 1, 6, 29, 60, 135, 132, 58, 135, 60, 3, 3.62165
44, 2, wb, attraction, a-b-da, 5, 1, 6, 29, 60, 135, 132, 58, 135, 60, 1, 0.538442
44, 2, wb, catch, NA, 999, 999, 6, 30, 115, 80, 141, 114, 171, 144, 1, 0.938888
44, 2, wb, catch, NA, 999, 999, 6, 30, 115, 80, 141, 114, 171, 144, 3, 0.515916
44, 2, wb, filler, NA, 999, 999, 6, 31, 95, 173, 79, 153, 91, 153, 2, 0.949014
44, 2, wb, filler, NA, 999, 999, 6, 31, 95, 173, 79, 153, 91, 153, 1, 0.637998
44, 2, wb, catch, NA, 999, 999, 6, 32, 95, 100, 171, 144, 139, 116, 1, 0.778396
44, 2, wb, catch, NA, 999, 999, 6, 32, 95, 100, 171, 144, 139, 116, 2, 0.490164
44, 2, wb, filler, NA, 999, 999, 6, 33, 120, 117, 153, 77, 150, 169, 1, 4.51593
44, 2, wb, filler, NA, 999, 999, 6, 33, 120, 117, 153, 77, 150, 169, 3, 0.36516
44, 2, wb, attraction, a-b-db, 9, 2, 6, 34, 86, 157, 165, 90, 90, 165, 1, 1.88423
44, 2, wb, attraction, a-b-db, 9, 2, 6, 34, 86, 157, 165, 90, 90, 165, 3, 1.08794
44, 2, wb, attraction, a-b-db, 2, 1, 6, 35, 60, 135, 59, 134, 135, 60, 1, 6.81001
44, 2, wb, attraction, a-b-db, 2, 1, 6, 35, 60, 135, 59, 134, 135, 60, 2, 1.88655
44, 2, wb, attraction, a-b-da, 5, 2, 6, 36, 165, 90, 161, 88, 90, 165, 1, 2.51257
44, 2, wb, attraction, a-b-da, 5, 2, 6, 36, 165, 90, 161, 88, 90, 165, 3, 0.722415
44, 2, wb, attraction, a-b-da, 14, 2, 6, 37, 165, 90, 90, 165, 153, 83, 3, 1.69141
44, 2, wb, attraction, a-b-da, 14, 2, 6, 37, 165, 90, 90, 165, 153, 83, 2, 0.726229
44, 2, wb, filler, NA, 999, 999, 7, 1, 166, 183, 152, 176, 141, 82, 3, 1.51063
44, 2, wb, filler, NA, 999, 999, 7, 1, 166, 183, 152, 176, 141, 82, 1, 2.61675
44, 2, wb, attraction, a-b-db, 5, 3, 7, 2, 195, 120, 120, 195, 117, 190, 3, 2.17331
44, 2, wb, attraction, a-b-db, 5, 3, 7, 2, 195, 120, 120, 195, 117, 190, 2, 1.8925
44, 2, wb, attraction, a-b-da, 14, 3, 7, 3, 120, 195, 181, 111, 195, 120, 2, 5.49393
44, 2, wb, attraction, a-b-da, 14, 3, 7, 3, 120, 195, 181, 111, 195, 120, 1, 1.72755
44, 2, wb, attraction, a-b-da, 2, 1, 7, 4, 134, 59, 60, 135, 135, 60, 2, 1.60767
44, 2, wb, attraction, a-b-da, 2, 1, 7, 4, 134, 59, 60, 135, 135, 60, 3, 1.02161
44, 2, wb, filler, NA, 999, 999, 7, 5, 56, 148, 159, 129, 100, 148, 1, 0.946671
44, 2, wb, filler, NA, 999, 999, 7, 5, 56, 148, 159, 129, 100, 148, 2, 1.0196
44, 2, wb, attraction, a-b-db, 14, 2, 7, 6, 165, 90, 90, 165, 83, 153, 3, 2.36073
44, 2, wb, attraction, a-b-db, 14, 2, 7, 6, 165, 90, 90, 165, 83, 153, 2, 0.776469
44, 2, wb, attraction, a-b-da, 5, 3, 7, 7, 190, 117, 120, 195, 195, 120, 1, 1.35091
44, 2, wb, attraction, a-b-da, 5, 3, 7, 7, 190, 117, 120, 195, 195, 120, 3, 2.07975
44, 2, wb, filler, NA, 999, 999, 7, 8, 69, 125, 58, 149, 137, 91, 1, 2.33769
44, 2, wb, filler, NA, 999, 999, 7, 8, 69, 125, 58, 149, 137, 91, 3, 0.434364
44, 2, wb, catch, NA, 999, 999, 7, 9, 123, 72, 97, 158, 180, 135, 1, 0.734687
44, 2, wb, catch, NA, 999, 999, 7, 9, 123, 72, 97, 158, 180, 135, 3, 0.656543
44, 2, wb, attraction, a-b-db, 5, 1, 7, 10, 58, 132, 60, 135, 135, 60, 3, 2.14756
44, 2, wb, attraction, a-b-db, 5, 1, 7, 10, 58, 132, 60, 135, 135, 60, 1, 1.32423
44, 2, wb, attraction, a-b-da, 5, 2, 7, 11, 161, 88, 165, 90, 90, 165, 1, 6.16443
44, 2, wb, attraction, a-b-da, 5, 2, 7, 11, 161, 88, 165, 90, 90, 165, 3, 1.33109
44, 2, wb, attraction, a-b-db, 9, 3, 7, 12, 195, 120, 120, 195, 114, 186, 1, 2.9713
44, 2, wb, attraction, a-b-db, 9, 3, 7, 12, 195, 120, 120, 195, 114, 186, 2, 0.994348
44, 2, wb, attraction, a-b-da, 14, 2, 7, 13, 90, 165, 165, 90, 153, 83, 1, 2.07992
44, 2, wb, attraction, a-b-da, 14, 2, 7, 13, 90, 165, 165, 90, 153, 83, 2, 1.65929
44, 2, wb, attraction, a-b-db, 9, 2, 7, 14, 165, 90, 86, 157, 90, 165, 1, 3.58197
44, 2, wb, attraction, a-b-db, 9, 2, 7, 14, 165, 90, 86, 157, 90, 165, 2, 1.13286
44, 2, wb, attraction, a-b-da, 9, 1, 7, 15, 135, 60, 129, 57, 60, 135, 3, 4.0932
44, 2, wb, attraction, a-b-da, 9, 1, 7, 15, 135, 60, 129, 57, 60, 135, 1, 1.49514
44, 2, wb, filler, NA, 999, 999, 7, 16, 122, 161, 175, 139, 105, 75, 3, 1.10452
44, 2, wb, filler, NA, 999, 999, 7, 16, 122, 161, 175, 139, 105, 75, 2, 0.626976
44, 2, wb, attraction, a-b-db, 2, 3, 7, 17, 119, 193, 120, 195, 195, 120, 3, 2.49545
44, 2, wb, attraction, a-b-db, 2, 3, 7, 17, 119, 193, 120, 195, 195, 120, 2, 0.593869
44, 2, wb, catch, NA, 999, 999, 7, 18, 125, 70, 147, 108, 186, 129, 1, 1.40763
44, 2, wb, catch, NA, 999, 999, 7, 18, 125, 70, 147, 108, 186, 129, 3, 1.25396
44, 2, wb, catch, NA, 999, 999, 7, 19, 70, 125, 136, 119, 153, 162, 1, 1.34529
44, 2, wb, catch, NA, 999, 999, 7, 19, 70, 125, 136, 119, 153, 162, 3, 0.578258
44, 2, wb, attraction, a-b-db, 9, 1, 7, 20, 57, 129, 135, 60, 60, 135, 1, 4.12873
44, 2, wb, attraction, a-b-db, 9, 1, 7, 20, 57, 129, 135, 60, 60, 135, 2, 1.37736
44, 2, wb, attraction, a-b-db, 2, 2, 7, 21, 165, 90, 90, 165, 89, 163, 3, 3.67157
44, 2, wb, attraction, a-b-db, 2, 2, 7, 21, 165, 90, 90, 165, 89, 163, 1, 0.81037
44, 2, wb, attraction, a-b-da, 2, 3, 7, 22, 120, 195, 193, 119, 195, 120, 2, 6.39941
44, 2, wb, attraction, a-b-da, 2, 3, 7, 22, 120, 195, 193, 119, 195, 120, 1, 0.812711
44, 2, wb, attraction, a-b-da, 2, 2, 7, 23, 165, 90, 163, 89, 90, 165, 2, 2.72174
44, 2, wb, attraction, a-b-da, 2, 2, 7, 23, 165, 90, 163, 89, 90, 165, 3, 0.706919
44, 2, wb, filler, NA, 999, 999, 7, 24, 179, 162, 122, 150, 68, 194, 2, 2.51589
44, 2, wb, filler, NA, 999, 999, 7, 24, 179, 162, 122, 150, 68, 194, 1, 0.413739
44, 2, wb, attraction, a-b-da, 5, 1, 7, 25, 132, 58, 60, 135, 135, 60, 1, 1.65899
44, 2, wb, attraction, a-b-da, 5, 1, 7, 25, 132, 58, 60, 135, 135, 60, 2, 0.582993
44, 2, wb, attraction, a-b-db, 2, 1, 7, 26, 59, 134, 60, 135, 135, 60, 1, 2.61341
44, 2, wb, attraction, a-b-db, 2, 1, 7, 26, 59, 134, 60, 135, 135, 60, 2, 0.587299
44, 2, wb, attraction, a-b-da, 9, 2, 7, 27, 157, 86, 165, 90, 90, 165, 1, 2.4497
44, 2, wb, attraction, a-b-da, 9, 2, 7, 27, 157, 86, 165, 90, 90, 165, 3, 0.518233
44, 2, wb, filler, NA, 999, 999, 7, 28, 97, 193, 139, 158, 56, 131, 3, 0.711323
44, 2, wb, filler, NA, 999, 999, 7, 28, 97, 193, 139, 158, 56, 131, 2, 0.633777
44, 2, wb, attraction, a-b-db, 14, 3, 7, 29, 120, 195, 111, 181, 195, 120, 3, 4.31827
44, 2, wb, attraction, a-b-db, 14, 3, 7, 29, 120, 195, 111, 181, 195, 120, 1, 0.471589
44, 2, wb, filler, NA, 999, 999, 7, 30, 163, 143, 167, 124, 150, 88, 3, 1.57873
44, 2, wb, filler, NA, 999, 999, 7, 30, 163, 143, 167, 124, 150, 88, 1, 0.730099
44, 2, wb, filler, NA, 999, 999, 7, 31, 106, 135, 127, 66, 97, 79, 3, 2.54651
44, 2, wb, filler, NA, 999, 999, 7, 31, 106, 135, 127, 66, 97, 79, 1, 0.467001
44, 2, wb, filler, NA, 999, 999, 7, 32, 63, 166, 138, 186, 73, 100, 3, 1.15808
44, 2, wb, filler, NA, 999, 999, 7, 32, 63, 166, 138, 186, 73, 100, 2, 0.454395
44, 2, wb, attraction, a-b-da, 9, 3, 7, 33, 195, 120, 186, 114, 120, 195, 2, 4.16211
44, 2, wb, attraction, a-b-da, 9, 3, 7, 33, 195, 120, 186, 114, 120, 195, 3, 0.721519
44, 2, wb, attraction, a-b-da, 14, 1, 7, 34, 125, 56, 60, 135, 135, 60, 1, 1.83455
44, 2, wb, attraction, a-b-da, 14, 1, 7, 34, 125, 56, 60, 135, 135, 60, 2, 1.18399
44, 2, wb, attraction, a-b-db, 5, 2, 7, 35, 88, 161, 165, 90, 90, 165, 1, 3.11825
44, 2, wb, attraction, a-b-db, 5, 2, 7, 35, 88, 161, 165, 90, 90, 165, 3, 1.29592
44, 2, wb, attraction, a-b-db, 14, 1, 7, 36, 60, 135, 135, 60, 56, 125, 3, 2.4654
44, 2, wb, attraction, a-b-db, 14, 1, 7, 36, 60, 135, 135, 60, 56, 125, 1, 2.88529
44, 2, wb, filler, NA, 999, 999, 7, 37, 194, 158, 191, 162, 72, 60, 3, 1.31898
44, 2, wb, filler, NA, 999, 999, 7, 37, 194, 158, 191, 162, 72, 60, 2, 0.689223
44, 2, wb, filler, NA, 999, 999, 8, 1, 146, 154, 79, 126, 108, 95, 3, 2.67493
44, 2, wb, filler, NA, 999, 999, 8, 1, 146, 154, 79, 126, 108, 95, 1, 0.694072
44, 2, wb, attraction, a-b-da, 14, 3, 8, 2, 195, 120, 181, 111, 120, 195, 2, 2.04776
44, 2, wb, attraction, a-b-da, 14, 3, 8, 2, 195, 120, 181, 111, 120, 195, 3, 0.540511
44, 2, wb, attraction, a-b-db, 14, 1, 8, 3, 60, 135, 56, 125, 135, 60, 3, 1.56421
44, 2, wb, attraction, a-b-db, 14, 1, 8, 3, 60, 135, 56, 125, 135, 60, 1, 0.956378
44, 2, wb, attraction, a-b-db, 14, 3, 8, 4, 120, 195, 111, 181, 195, 120, 3, 1.56335
44, 2, wb, attraction, a-b-db, 14, 3, 8, 4, 120, 195, 111, 181, 195, 120, 1, 0.491646
44, 2, wb, attraction, a-b-da, 5, 3, 8, 5, 190, 117, 120, 195, 195, 120, 1, 2.10932
44, 2, wb, attraction, a-b-da, 5, 3, 8, 5, 190, 117, 120, 195, 195, 120, 2, 0.503303
44, 2, wb, attraction, a-b-db, 2, 1, 8, 6, 60, 135, 135, 60, 59, 134, 3, 3.87312
44, 2, wb, attraction, a-b-db, 2, 1, 8, 6, 60, 135, 135, 60, 59, 134, 2, 3.41188
44, 2, wb, filler, NA, 999, 999, 8, 7, 139, 154, 172, 163, 108, 131, 3, 3.77602
44, 2, wb, filler, NA, 999, 999, 8, 7, 139, 154, 172, 163, 108, 131, 2, 0.806732
44, 2, wb, attraction, a-b-db, 5, 1, 8, 8, 58, 132, 60, 135, 135, 60, 1, 2.01981
44, 2, wb, attraction, a-b-db, 5, 1, 8, 8, 58, 132, 60, 135, 135, 60, 2, 1.71398
44, 2, wb, attraction, a-b-da, 2, 1, 8, 9, 134, 59, 135, 60, 60, 135, 1, 3.57857
44, 2, wb, attraction, a-b-da, 2, 1, 8, 9, 134, 59, 135, 60, 60, 135, 3, 0.977374
44, 2, wb, filler, NA, 999, 999, 8, 10, 104, 128, 70, 108, 163, 167, 2, 0.983723
44, 2, wb, filler, NA, 999, 999, 8, 10, 104, 128, 70, 108, 163, 167, 3, 0.511425
44, 2, wb, attraction, a-b-da, 9, 2, 8, 11, 90, 165, 157, 86, 165, 90, 2, 4.07247
44, 2, wb, attraction, a-b-da, 9, 2, 8, 11, 90, 165, 157, 86, 165, 90, 3, 0.627198
44, 2, wb, filler, NA, 999, 999, 8, 12, 173, 153, 112, 125, 173, 101, 2, 0.999692
44, 2, wb, filler, NA, 999, 999, 8, 12, 173, 153, 112, 125, 173, 101, 1, 0.446685
44, 2, wb, attraction, a-b-db, 9, 1, 8, 13, 135, 60, 57, 129, 60, 135, 3, 1.91445
44, 2, wb, attraction, a-b-db, 9, 1, 8, 13, 135, 60, 57, 129, 60, 135, 2, 1.02051
44, 2, wb, filler, NA, 999, 999, 8, 14, 177, 125, 156, 74, 188, 169, 2, 1.31345
44, 2, wb, filler, NA, 999, 999, 8, 14, 177, 125, 156, 74, 188, 169, 3, 0.555697
44, 2, wb, attraction, a-b-da, 5, 2, 8, 15, 165, 90, 90, 165, 161, 88, 2, 2.76344
44, 2, wb, attraction, a-b-da, 5, 2, 8, 15, 165, 90, 90, 165, 161, 88, 1, 0.699243
44, 2, wb, catch, NA, 999, 999, 8, 16, 69, 126, 95, 160, 166, 149, 1, 0.804877
44, 2, wb, catch, NA, 999, 999, 8, 16, 69, 126, 95, 160, 166, 149, 3, 0.555462
44, 2, wb, attraction, a-b-da, 5, 1, 8, 17, 60, 135, 135, 60, 132, 58, 3, 2.47515
44, 2, wb, attraction, a-b-da, 5, 1, 8, 17, 60, 135, 135, 60, 132, 58, 1, 0.646293
44, 2, wb, attraction, a-b-db, 5, 3, 8, 18, 195, 120, 117, 190, 120, 195, 1, 0.858058
44, 2, wb, attraction, a-b-db, 5, 3, 8, 18, 195, 120, 117, 190, 120, 195, 3, 0.510596
44, 2, wb, filler, NA, 999, 999, 8, 19, 62, 135, 78, 165, 120, 167, 1, 0.719522
44, 2, wb, filler, NA, 999, 999, 8, 19, 62, 135, 78, 165, 120, 167, 3, 0.738052
44, 2, wb, filler, NA, 999, 999, 8, 20, 127, 138, 147, 98, 155, 193, 1, 0.794303
44, 2, wb, filler, NA, 999, 999, 8, 20, 127, 138, 147, 98, 155, 193, 3, 0.42537
44, 2, wb, filler, NA, 999, 999, 8, 21, 175, 91, 120, 98, 189, 157, 2, 0.717916
44, 2, wb, filler, NA, 999, 999, 8, 21, 175, 91, 120, 98, 189, 157, 3, 0.600273
44, 2, wb, filler, NA, 999, 999, 8, 22, 162, 174, 188, 106, 84, 123, 3, 0.725963
44, 2, wb, filler, NA, 999, 999, 8, 22, 162, 174, 188, 106, 84, 123, 1, 0.447761
44, 2, wb, filler, NA, 999, 999, 8, 23, 141, 85, 106, 147, 127, 57, 3, 1.77152
44, 2, wb, filler, NA, 999, 999, 8, 23, 141, 85, 106, 147, 127, 57, 2, 0.443075
44, 2, wb, attraction, a-b-da, 9, 1, 8, 24, 60, 135, 135, 60, 129, 57, 1, 2.46274
44, 2, wb, attraction, a-b-da, 9, 1, 8, 24, 60, 135, 135, 60, 129, 57, 2, 0.842628
44, 2, wb, attraction, a-b-da, 14, 1, 8, 25, 135, 60, 60, 135, 125, 56, 3, 3.72634
44, 2, wb, attraction, a-b-da, 14, 1, 8, 25, 135, 60, 60, 135, 125, 56, 2, 1.24722
44, 2, wb, attraction, a-b-db, 2, 2, 8, 26, 90, 165, 89, 163, 165, 90, 3, 1.85869
44, 2, wb, attraction, a-b-db, 2, 2, 8, 26, 90, 165, 89, 163, 165, 90, 2, 0.75883
44, 2, wb, catch, NA, 999, 999, 8, 27, 128, 187, 85, 110, 115, 140, 2, 1.06974
44, 2, wb, catch, NA, 999, 999, 8, 27, 128, 187, 85, 110, 115, 140, 1, 0.914108
44, 2, wb, attraction, a-b-db, 2, 3, 8, 28, 120, 195, 195, 120, 119, 193, 2, 2.48304
44, 2, wb, attraction, a-b-db, 2, 3, 8, 28, 120, 195, 195, 120, 119, 193, 1, 1.16626
44, 2, wb, attraction, a-b-da, 9, 3, 8, 29, 186, 114, 195, 120, 120, 195, 1, 1.68521
44, 2, wb, attraction, a-b-da, 9, 3, 8, 29, 186, 114, 195, 120, 120, 195, 3, 0.68869
44, 2, wb, attraction, a-b-da, 2, 3, 8, 30, 195, 120, 193, 119, 120, 195, 1, 2.5151
44, 2, wb, attraction, a-b-da, 2, 3, 8, 30, 195, 120, 193, 119, 120, 195, 3, 1.52495
44, 2, wb, attraction, a-b-da, 14, 2, 8, 31, 165, 90, 153, 83, 90, 165, 1, 1.125
44, 2, wb, attraction, a-b-da, 14, 2, 8, 31, 165, 90, 153, 83, 90, 165, 3, 0.654607
44, 2, wb, attraction, a-b-db, 5, 2, 8, 32, 165, 90, 90, 165, 88, 161, 1, 1.88253
44, 2, wb, attraction, a-b-db, 5, 2, 8, 32, 165, 90, 90, 165, 88, 161, 2, 0.741808
44, 2, wb, attraction, a-b-db, 9, 3, 8, 33, 114, 186, 195, 120, 120, 195, 1, 0.973432
44, 2, wb, attraction, a-b-db, 9, 3, 8, 33, 114, 186, 195, 120, 120, 195, 3, 0.949127
44, 2, wb, attraction, a-b-db, 14, 2, 8, 34, 165, 90, 90, 165, 83, 153, 2, 2.06079
44, 2, wb, attraction, a-b-db, 14, 2, 8, 34, 165, 90, 90, 165, 83, 153, 3, 0.712783
44, 2, wb, attraction, a-b-da, 2, 2, 8, 35, 163, 89, 165, 90, 90, 165, 3, 1.1539
44, 2, wb, attraction, a-b-da, 2, 2, 8, 35, 163, 89, 165, 90, 90, 165, 2, 0.490237
44, 2, wb, catch, NA, 999, 999, 8, 36, 150, 105, 172, 143, 108, 87, 3, 0.716024
44, 2, wb, catch, NA, 999, 999, 8, 36, 150, 105, 172, 143, 108, 87, 2, 0.526296
44, 2, wb, attraction, a-b-db, 9, 2, 8, 37, 165, 90, 90, 165, 86, 157, 3, 5.94274
44, 2, wb, attraction, a-b-db, 9, 2, 8, 37, 165, 90, 90, 165, 86, 157, 2, 0.646185
