sub_n, computer_n, bw_cond, effect, set, distance, diag, block_n, trial_n, h1, w1, h2, w2, h3, w3, choice, rt 
47, 2, bw, practice, NA, 999, 999, 0, 1, 112, 152, 194, 127, 165, 158, 3, 4.27287
47, 2, bw, practice, NA, 999, 999, 0, 1, 112, 152, 194, 127, 165, 158, 1, 2.27781
47, 2, bw, practice, NA, 999, 999, 0, 2, 67, 78, 108, 123, 67, 154, 2, 2.83509
47, 2, bw, practice, NA, 999, 999, 0, 2, 67, 78, 108, 123, 67, 154, 1, 2.05754
47, 2, bw, practice, NA, 999, 999, 0, 3, 176, 167, 151, 123, 122, 136, 1, 2.2735
47, 2, bw, practice, NA, 999, 999, 0, 3, 176, 167, 151, 123, 122, 136, 3, 3.43907
47, 2, bw, filler, NA, 999, 999, 1, 1, 184, 82, 76, 97, 168, 154, 3, 1.62149
47, 2, bw, filler, NA, 999, 999, 1, 1, 184, 82, 76, 97, 168, 154, 2, 1.36308
47, 2, bw, catch, NA, 999, 999, 1, 2, 185, 130, 131, 64, 116, 139, 1, 1.97786
47, 2, bw, catch, NA, 999, 999, 1, 2, 185, 130, 131, 64, 116, 139, 2, 0.985249
47, 2, bw, attraction, a-b-db, 9, 1, 1, 3, 60, 135, 57, 129, 135, 60, 1, 2.82349
47, 2, bw, attraction, a-b-db, 9, 1, 1, 3, 60, 135, 57, 129, 135, 60, 2, 4.35652
47, 2, bw, attraction, a-b-da, 2, 1, 1, 4, 135, 60, 60, 135, 134, 59, 2, 4.72335
47, 2, bw, attraction, a-b-da, 2, 1, 1, 4, 135, 60, 60, 135, 134, 59, 3, 2.49968
47, 2, bw, attraction, a-b-db, 14, 2, 1, 5, 90, 165, 165, 90, 83, 153, 1, 4.65284
47, 2, bw, attraction, a-b-db, 14, 2, 1, 5, 90, 165, 165, 90, 83, 153, 3, 1.60871
47, 2, bw, attraction, a-b-db, 9, 2, 1, 6, 90, 165, 165, 90, 86, 157, 2, 4.30945
47, 2, bw, attraction, a-b-db, 9, 2, 1, 6, 90, 165, 165, 90, 86, 157, 3, 1.4709
47, 2, bw, filler, NA, 999, 999, 1, 7, 85, 93, 79, 93, 75, 137, 3, 5.10564
47, 2, bw, filler, NA, 999, 999, 1, 7, 85, 93, 79, 93, 75, 137, 2, 1.3706
47, 2, bw, attraction, a-b-da, 5, 3, 1, 8, 195, 120, 190, 117, 120, 195, 3, 3.60147
47, 2, bw, attraction, a-b-da, 5, 3, 1, 8, 195, 120, 190, 117, 120, 195, 1, 1.42365
47, 2, bw, attraction, a-b-db, 14, 1, 1, 9, 135, 60, 56, 125, 60, 135, 2, 3.24395
47, 2, bw, attraction, a-b-db, 14, 1, 1, 9, 135, 60, 56, 125, 60, 135, 1, 2.36808
47, 2, bw, attraction, a-b-db, 5, 2, 1, 10, 165, 90, 90, 165, 88, 161, 1, 7.4388
47, 2, bw, attraction, a-b-db, 5, 2, 1, 10, 165, 90, 90, 165, 88, 161, 3, 1.25844
47, 2, bw, attraction, a-b-db, 2, 1, 1, 11, 60, 135, 59, 134, 135, 60, 1, 6.49319
47, 2, bw, attraction, a-b-db, 2, 1, 1, 11, 60, 135, 59, 134, 135, 60, 3, 0.510423
47, 2, bw, filler, NA, 999, 999, 1, 12, 76, 63, 136, 184, 193, 122, 2, 1.67954
47, 2, bw, filler, NA, 999, 999, 1, 12, 76, 63, 136, 184, 193, 122, 1, 1.01908
47, 2, bw, filler, NA, 999, 999, 1, 13, 106, 151, 194, 149, 181, 189, 3, 2.91196
47, 2, bw, filler, NA, 999, 999, 1, 13, 106, 151, 194, 149, 181, 189, 1, 0.817795
47, 2, bw, attraction, a-b-da, 14, 2, 1, 14, 90, 165, 153, 83, 165, 90, 1, 11.5907
47, 2, bw, attraction, a-b-da, 14, 2, 1, 14, 90, 165, 153, 83, 165, 90, 2, 1.24251
47, 2, bw, attraction, a-b-db, 14, 3, 1, 15, 120, 195, 111, 181, 195, 120, 3, 4.59806
47, 2, bw, attraction, a-b-db, 14, 3, 1, 15, 120, 195, 111, 181, 195, 120, 2, 1.88377
47, 2, bw, filler, NA, 999, 999, 1, 16, 161, 77, 140, 65, 169, 157, 3, 1.57396
47, 2, bw, filler, NA, 999, 999, 1, 16, 161, 77, 140, 65, 169, 157, 2, 1.08534
47, 2, bw, filler, NA, 999, 999, 1, 17, 186, 182, 185, 88, 155, 172, 1, 0.895945
47, 2, bw, filler, NA, 999, 999, 1, 17, 186, 182, 185, 88, 155, 172, 2, 0.818701
47, 2, bw, attraction, a-b-db, 9, 3, 1, 18, 114, 186, 195, 120, 120, 195, 3, 9.24773
47, 2, bw, attraction, a-b-db, 9, 3, 1, 18, 114, 186, 195, 120, 120, 195, 1, 1.70605
47, 2, bw, attraction, a-b-da, 2, 2, 1, 19, 165, 90, 163, 89, 90, 165, 3, 4.25948
47, 2, bw, attraction, a-b-da, 2, 2, 1, 19, 165, 90, 163, 89, 90, 165, 2, 2.27091
47, 2, bw, attraction, a-b-db, 2, 3, 1, 20, 195, 120, 120, 195, 119, 193, 2, 4.82547
47, 2, bw, attraction, a-b-db, 2, 3, 1, 20, 195, 120, 120, 195, 119, 193, 1, 3.2138
47, 2, bw, attraction, a-b-db, 2, 2, 1, 21, 165, 90, 89, 163, 90, 165, 2, 6.0182
47, 2, bw, attraction, a-b-db, 2, 2, 1, 21, 165, 90, 89, 163, 90, 165, 1, 0.590875
47, 2, bw, attraction, a-b-db, 5, 3, 1, 22, 117, 190, 120, 195, 195, 120, 2, 3.66056
47, 2, bw, attraction, a-b-db, 5, 3, 1, 22, 117, 190, 120, 195, 195, 120, 1, 2.92008
47, 2, bw, attraction, a-b-da, 9, 1, 1, 23, 135, 60, 129, 57, 60, 135, 3, 3.04049
47, 2, bw, attraction, a-b-da, 9, 1, 1, 23, 135, 60, 129, 57, 60, 135, 2, 1.46084
47, 2, bw, catch, NA, 999, 999, 1, 24, 93, 102, 162, 153, 127, 128, 2, 1.42365
47, 2, bw, catch, NA, 999, 999, 1, 24, 93, 102, 162, 153, 127, 128, 1, 0.781209
47, 2, bw, attraction, a-b-da, 14, 3, 1, 25, 195, 120, 181, 111, 120, 195, 3, 2.37946
47, 2, bw, attraction, a-b-da, 14, 3, 1, 25, 195, 120, 181, 111, 120, 195, 2, 2.33885
47, 2, bw, attraction, a-b-da, 2, 3, 1, 26, 120, 195, 195, 120, 193, 119, 1, 7.87462
47, 2, bw, attraction, a-b-da, 2, 3, 1, 26, 120, 195, 195, 120, 193, 119, 3, 0.812088
47, 2, bw, attraction, a-b-da, 9, 2, 1, 27, 157, 86, 90, 165, 165, 90, 2, 9.28915
47, 2, bw, attraction, a-b-da, 9, 2, 1, 27, 157, 86, 90, 165, 165, 90, 1, 1.81831
47, 2, bw, attraction, a-b-da, 9, 3, 1, 28, 186, 114, 120, 195, 195, 120, 2, 2.85501
47, 2, bw, attraction, a-b-da, 9, 3, 1, 28, 186, 114, 120, 195, 195, 120, 1, 0.762639
47, 2, bw, attraction, a-b-da, 14, 1, 1, 29, 125, 56, 135, 60, 60, 135, 2, 7.29772
47, 2, bw, attraction, a-b-da, 14, 1, 1, 29, 125, 56, 135, 60, 60, 135, 1, 1.87479
47, 2, bw, attraction, a-b-da, 5, 1, 1, 30, 132, 58, 135, 60, 60, 135, 3, 5.80475
47, 2, bw, attraction, a-b-da, 5, 1, 1, 30, 132, 58, 135, 60, 60, 135, 1, 1.79354
47, 2, bw, filler, NA, 999, 999, 1, 31, 56, 79, 80, 126, 151, 149, 3, 0.974906
47, 2, bw, filler, NA, 999, 999, 1, 31, 56, 79, 80, 126, 151, 149, 1, 0.54266
47, 2, bw, catch, NA, 999, 999, 1, 32, 130, 185, 109, 146, 102, 93, 1, 0.926357
47, 2, bw, catch, NA, 999, 999, 1, 32, 130, 185, 109, 146, 102, 93, 3, 0.424038
47, 2, bw, filler, NA, 999, 999, 1, 33, 85, 66, 71, 138, 148, 104, 3, 0.940788
47, 2, bw, filler, NA, 999, 999, 1, 33, 85, 66, 71, 138, 148, 104, 1, 1.09347
47, 2, bw, filler, NA, 999, 999, 1, 34, 122, 123, 85, 126, 184, 88, 3, 7.76728
47, 2, bw, filler, NA, 999, 999, 1, 34, 122, 123, 85, 126, 184, 88, 1, 0.253461
47, 2, bw, attraction, a-b-da, 5, 2, 1, 35, 90, 165, 161, 88, 165, 90, 1, 5.18517
47, 2, bw, attraction, a-b-da, 5, 2, 1, 35, 90, 165, 161, 88, 165, 90, 2, 0.695548
47, 2, bw, attraction, a-b-db, 5, 1, 1, 36, 135, 60, 60, 135, 58, 132, 2, 3.10535
47, 2, bw, attraction, a-b-db, 5, 1, 1, 36, 135, 60, 60, 135, 58, 132, 1, 1.88304
47, 2, bw, filler, NA, 999, 999, 1, 37, 168, 99, 169, 142, 167, 176, 3, 0.821019
47, 2, bw, filler, NA, 999, 999, 1, 37, 168, 99, 169, 142, 167, 176, 1, 0.522866
47, 2, bw, attraction, a-b-da, 14, 1, 2, 1, 60, 135, 125, 56, 135, 60, 3, 5.41913
47, 2, bw, attraction, a-b-da, 14, 1, 2, 1, 60, 135, 125, 56, 135, 60, 2, 1.55216
47, 2, bw, attraction, a-b-db, 5, 2, 2, 2, 90, 165, 88, 161, 165, 90, 1, 2.90355
47, 2, bw, attraction, a-b-db, 5, 2, 2, 2, 90, 165, 88, 161, 165, 90, 3, 2.82594
47, 2, bw, catch, NA, 999, 999, 2, 3, 156, 99, 81, 114, 132, 183, 3, 8.20568
47, 2, bw, catch, NA, 999, 999, 2, 3, 156, 99, 81, 114, 132, 183, 2, 0.394407
47, 2, bw, attraction, a-b-da, 9, 3, 2, 4, 120, 195, 186, 114, 195, 120, 1, 3.62421
47, 2, bw, attraction, a-b-da, 9, 3, 2, 4, 120, 195, 186, 114, 195, 120, 2, 3.50902
47, 2, bw, attraction, a-b-db, 5, 3, 2, 5, 195, 120, 117, 190, 120, 195, 2, 5.5173
47, 2, bw, attraction, a-b-db, 5, 3, 2, 5, 195, 120, 117, 190, 120, 195, 1, 3.91017
47, 2, bw, attraction, a-b-db, 14, 1, 2, 6, 56, 125, 135, 60, 60, 135, 2, 4.03022
47, 2, bw, attraction, a-b-db, 14, 1, 2, 6, 56, 125, 135, 60, 60, 135, 1, 1.83495
47, 2, bw, filler, NA, 999, 999, 2, 7, 170, 184, 64, 180, 97, 89, 1, 0.798928
47, 2, bw, filler, NA, 999, 999, 2, 7, 170, 184, 64, 180, 97, 89, 3, 0.334075
47, 2, bw, attraction, a-b-da, 2, 2, 2, 8, 90, 165, 165, 90, 163, 89, 1, 4.75856
47, 2, bw, attraction, a-b-da, 2, 2, 2, 8, 90, 165, 165, 90, 163, 89, 3, 2.34178
47, 2, bw, attraction, a-b-db, 2, 2, 2, 9, 89, 163, 90, 165, 165, 90, 2, 3.18887
47, 2, bw, attraction, a-b-db, 2, 2, 2, 9, 89, 163, 90, 165, 165, 90, 3, 1.7072
47, 2, bw, attraction, a-b-db, 9, 3, 2, 10, 195, 120, 120, 195, 114, 186, 2, 3.26801
47, 2, bw, attraction, a-b-db, 9, 3, 2, 10, 195, 120, 120, 195, 114, 186, 1, 2.86363
47, 2, bw, catch, NA, 999, 999, 2, 11, 106, 149, 124, 71, 177, 138, 3, 1.38591
47, 2, bw, catch, NA, 999, 999, 2, 11, 106, 149, 124, 71, 177, 138, 2, 0.75346
47, 2, bw, filler, NA, 999, 999, 2, 12, 84, 153, 115, 114, 103, 189, 3, 1.4413
47, 2, bw, filler, NA, 999, 999, 2, 12, 84, 153, 115, 114, 103, 189, 1, 3.60603
47, 2, bw, filler, NA, 999, 999, 2, 13, 135, 58, 97, 76, 125, 178, 3, 1.13101
47, 2, bw, filler, NA, 999, 999, 2, 13, 135, 58, 97, 76, 125, 178, 2, 0.500563
47, 2, bw, filler, NA, 999, 999, 2, 14, 138, 125, 64, 119, 164, 145, 3, 1.10244
47, 2, bw, filler, NA, 999, 999, 2, 14, 138, 125, 64, 119, 164, 145, 2, 0.489262
47, 2, bw, attraction, a-b-db, 5, 1, 2, 15, 135, 60, 58, 132, 60, 135, 3, 6.8037
47, 2, bw, attraction, a-b-db, 5, 1, 2, 15, 135, 60, 58, 132, 60, 135, 1, 0.440812
47, 2, bw, attraction, a-b-da, 2, 1, 2, 16, 60, 135, 135, 60, 134, 59, 2, 5.70865
47, 2, bw, attraction, a-b-da, 2, 1, 2, 16, 60, 135, 135, 60, 134, 59, 1, 2.45361
47, 2, bw, attraction, a-b-da, 9, 1, 2, 17, 60, 135, 135, 60, 129, 57, 1, 2.39277
47, 2, bw, attraction, a-b-da, 9, 1, 2, 17, 60, 135, 135, 60, 129, 57, 3, 1.76742
47, 2, bw, attraction, a-b-db, 2, 1, 2, 18, 59, 134, 60, 135, 135, 60, 3, 4.58997
47, 2, bw, attraction, a-b-db, 2, 1, 2, 18, 59, 134, 60, 135, 135, 60, 1, 1.81988
47, 2, bw, filler, NA, 999, 999, 2, 19, 79, 151, 160, 158, 173, 64, 2, 0.632549
47, 2, bw, filler, NA, 999, 999, 2, 19, 79, 151, 160, 158, 173, 64, 1, 1.27839
47, 2, bw, filler, NA, 999, 999, 2, 20, 148, 89, 178, 82, 164, 147, 3, 0.968633
47, 2, bw, filler, NA, 999, 999, 2, 20, 148, 89, 178, 82, 164, 147, 1, 1.27306
47, 2, bw, attraction, a-b-da, 14, 2, 2, 21, 165, 90, 153, 83, 90, 165, 3, 3.10718
47, 2, bw, attraction, a-b-da, 14, 2, 2, 21, 165, 90, 153, 83, 90, 165, 2, 0.796719
47, 2, bw, attraction, a-b-da, 2, 3, 2, 22, 195, 120, 193, 119, 120, 195, 3, 3.95459
47, 2, bw, attraction, a-b-da, 2, 3, 2, 22, 195, 120, 193, 119, 120, 195, 1, 0.754537
47, 2, bw, attraction, a-b-db, 9, 1, 2, 23, 135, 60, 60, 135, 57, 129, 2, 2.94627
47, 2, bw, attraction, a-b-db, 9, 1, 2, 23, 135, 60, 60, 135, 57, 129, 3, 0.65062
47, 2, bw, attraction, a-b-da, 5, 2, 2, 24, 90, 165, 161, 88, 165, 90, 1, 3.63856
47, 2, bw, attraction, a-b-da, 5, 2, 2, 24, 90, 165, 161, 88, 165, 90, 3, 1.74652
47, 2, bw, attraction, a-b-da, 14, 3, 2, 25, 195, 120, 120, 195, 181, 111, 2, 4.20206
47, 2, bw, attraction, a-b-da, 14, 3, 2, 25, 195, 120, 120, 195, 181, 111, 3, 1.17599
47, 2, bw, attraction, a-b-db, 14, 3, 2, 26, 120, 195, 195, 120, 111, 181, 1, 2.43029
47, 2, bw, attraction, a-b-db, 14, 3, 2, 26, 120, 195, 195, 120, 111, 181, 3, 0.227416
47, 2, bw, filler, NA, 999, 999, 2, 27, 143, 122, 93, 119, 195, 183, 3, 0.903953
47, 2, bw, filler, NA, 999, 999, 2, 27, 143, 122, 93, 119, 195, 183, 2, 0.266305
47, 2, bw, attraction, a-b-da, 9, 2, 2, 28, 157, 86, 165, 90, 90, 165, 3, 3.59746
47, 2, bw, attraction, a-b-da, 9, 2, 2, 28, 157, 86, 165, 90, 90, 165, 1, 0.995718
47, 2, bw, filler, NA, 999, 999, 2, 29, 80, 163, 91, 146, 187, 135, 3, 1.60128
47, 2, bw, filler, NA, 999, 999, 2, 29, 80, 163, 91, 146, 187, 135, 2, 0.416167
47, 2, bw, attraction, a-b-db, 9, 2, 2, 30, 86, 157, 90, 165, 165, 90, 2, 2.96516
47, 2, bw, attraction, a-b-db, 9, 2, 2, 30, 86, 157, 90, 165, 165, 90, 3, 0.461009
47, 2, bw, catch, NA, 999, 999, 2, 31, 120, 135, 114, 81, 165, 150, 3, 0.952045
47, 2, bw, catch, NA, 999, 999, 2, 31, 120, 135, 114, 81, 165, 150, 2, 0.297094
47, 2, bw, attraction, a-b-da, 5, 3, 2, 32, 195, 120, 190, 117, 120, 195, 3, 1.34691
47, 2, bw, attraction, a-b-da, 5, 3, 2, 32, 195, 120, 190, 117, 120, 195, 2, 0.283806
47, 2, bw, attraction, a-b-da, 5, 1, 2, 33, 60, 135, 132, 58, 135, 60, 1, 2.74236
47, 2, bw, attraction, a-b-da, 5, 1, 2, 33, 60, 135, 132, 58, 135, 60, 2, 1.55906
47, 2, bw, attraction, a-b-db, 14, 2, 2, 34, 165, 90, 83, 153, 90, 165, 1, 3.59759
47, 2, bw, attraction, a-b-db, 14, 2, 2, 34, 165, 90, 83, 153, 90, 165, 3, 0.251888
47, 2, bw, attraction, a-b-db, 2, 3, 2, 35, 120, 195, 119, 193, 195, 120, 1, 3.03957
47, 2, bw, attraction, a-b-db, 2, 3, 2, 35, 120, 195, 119, 193, 195, 120, 3, 0.355958
47, 2, bw, filler, NA, 999, 999, 2, 36, 172, 137, 132, 68, 156, 160, 3, 3.3792
47, 2, bw, filler, NA, 999, 999, 2, 36, 172, 137, 132, 68, 156, 160, 2, 0.569997
47, 2, bw, filler, NA, 999, 999, 2, 37, 106, 152, 147, 56, 75, 114, 1, 0.793151
47, 2, bw, filler, NA, 999, 999, 2, 37, 106, 152, 147, 56, 75, 114, 3, 0.264254
47, 2, bw, filler, NA, 999, 999, 3, 1, 94, 113, 159, 166, 186, 129, 2, 1.2754
47, 2, bw, filler, NA, 999, 999, 3, 1, 94, 113, 159, 166, 186, 129, 1, 0.374993
47, 2, bw, attraction, a-b-da, 5, 3, 3, 2, 190, 117, 195, 120, 120, 195, 2, 9.8535
47, 2, bw, attraction, a-b-da, 5, 3, 3, 2, 190, 117, 195, 120, 120, 195, 3, 0.27163
47, 2, bw, attraction, a-b-da, 5, 2, 3, 3, 165, 90, 90, 165, 161, 88, 2, 5.44287
47, 2, bw, attraction, a-b-da, 5, 2, 3, 3, 165, 90, 90, 165, 161, 88, 3, 0.49456
47, 2, bw, attraction, a-b-da, 14, 1, 3, 4, 60, 135, 125, 56, 135, 60, 1, 4.85627
47, 2, bw, attraction, a-b-da, 14, 1, 3, 4, 60, 135, 125, 56, 135, 60, 2, 0.523562
47, 2, bw, filler, NA, 999, 999, 3, 5, 166, 107, 192, 105, 187, 97, 2, 3.03602
47, 2, bw, filler, NA, 999, 999, 3, 5, 166, 107, 192, 105, 187, 97, 1, 0.976859
47, 2, bw, filler, NA, 999, 999, 3, 6, 163, 66, 165, 95, 84, 163, 2, 2.22313
47, 2, bw, filler, NA, 999, 999, 3, 6, 163, 66, 165, 95, 84, 163, 1, 1.9324
47, 2, bw, attraction, a-b-da, 2, 3, 3, 7, 120, 195, 193, 119, 195, 120, 1, 6.54848
47, 2, bw, attraction, a-b-da, 2, 3, 3, 7, 120, 195, 193, 119, 195, 120, 3, 0.355746
47, 2, bw, attraction, a-b-da, 5, 1, 3, 8, 135, 60, 60, 135, 132, 58, 1, 1.60292
47, 2, bw, attraction, a-b-da, 5, 1, 3, 8, 135, 60, 60, 135, 132, 58, 3, 1.73769
47, 2, bw, attraction, a-b-db, 2, 3, 3, 9, 120, 195, 195, 120, 119, 193, 1, 2.23373
47, 2, bw, attraction, a-b-db, 2, 3, 3, 9, 120, 195, 195, 120, 119, 193, 2, 1.70305
47, 2, bw, attraction, a-b-db, 5, 3, 3, 10, 117, 190, 120, 195, 195, 120, 2, 3.84844
47, 2, bw, attraction, a-b-db, 5, 3, 3, 10, 117, 190, 120, 195, 195, 120, 1, 0.2125
47, 2, bw, attraction, a-b-db, 5, 1, 3, 11, 60, 135, 58, 132, 135, 60, 3, 10.2338
47, 2, bw, attraction, a-b-db, 5, 1, 3, 11, 60, 135, 58, 132, 135, 60, 1, 0.820492
47, 2, bw, attraction, a-b-db, 5, 2, 3, 12, 90, 165, 88, 161, 165, 90, 1, 5.71359
47, 2, bw, attraction, a-b-db, 5, 2, 3, 12, 90, 165, 88, 161, 165, 90, 3, 0.42645
47, 2, bw, filler, NA, 999, 999, 3, 13, 152, 137, 150, 90, 126, 180, 1, 0.75085
47, 2, bw, filler, NA, 999, 999, 3, 13, 152, 137, 150, 90, 126, 180, 3, 0.255881
47, 2, bw, attraction, a-b-da, 2, 2, 3, 14, 165, 90, 163, 89, 90, 165, 2, 4.79576
47, 2, bw, attraction, a-b-da, 2, 2, 3, 14, 165, 90, 163, 89, 90, 165, 1, 2.00965
47, 2, bw, attraction, a-b-da, 9, 1, 3, 15, 129, 57, 135, 60, 60, 135, 2, 2.11022
47, 2, bw, attraction, a-b-da, 9, 1, 3, 15, 129, 57, 135, 60, 60, 135, 1, 1.49631
47, 2, bw, filler, NA, 999, 999, 3, 16, 87, 190, 115, 192, 80, 101, 2, 1.5059
47, 2, bw, filler, NA, 999, 999, 3, 16, 87, 190, 115, 192, 80, 101, 3, 0.323932
47, 2, bw, catch, NA, 999, 999, 3, 17, 95, 100, 127, 128, 152, 163, 3, 0.940417
47, 2, bw, catch, NA, 999, 999, 3, 17, 95, 100, 127, 128, 152, 163, 1, 0.269425
47, 2, bw, attraction, a-b-db, 2, 2, 3, 18, 165, 90, 89, 163, 90, 165, 2, 2.40861
47, 2, bw, attraction, a-b-db, 2, 2, 3, 18, 165, 90, 89, 163, 90, 165, 1, 0.646573
47, 2, bw, attraction, a-b-da, 2, 1, 3, 19, 135, 60, 134, 59, 60, 135, 1, 1.49823
47, 2, bw, attraction, a-b-da, 2, 1, 3, 19, 135, 60, 134, 59, 60, 135, 3, 1.94123
47, 2, bw, filler, NA, 999, 999, 3, 20, 161, 155, 155, 131, 120, 86, 1, 0.788328
47, 2, bw, filler, NA, 999, 999, 3, 20, 161, 155, 155, 131, 120, 86, 3, 0.763406
47, 2, bw, catch, NA, 999, 999, 3, 21, 84, 111, 172, 143, 136, 119, 2, 1.8585
47, 2, bw, catch, NA, 999, 999, 3, 21, 84, 111, 172, 143, 136, 119, 1, 0.414572
47, 2, bw, attraction, a-b-db, 9, 3, 3, 22, 114, 186, 195, 120, 120, 195, 2, 2.45973
47, 2, bw, attraction, a-b-db, 9, 3, 3, 22, 114, 186, 195, 120, 120, 195, 1, 1.22363
47, 2, bw, attraction, a-b-db, 9, 2, 3, 23, 90, 165, 86, 157, 165, 90, 1, 7.33981
47, 2, bw, attraction, a-b-db, 9, 2, 3, 23, 90, 165, 86, 157, 165, 90, 3, 1.37878
47, 2, bw, filler, NA, 999, 999, 3, 24, 99, 161, 67, 117, 159, 69, 1, 1.56891
47, 2, bw, filler, NA, 999, 999, 3, 24, 99, 161, 67, 117, 159, 69, 2, 0.769133
47, 2, bw, attraction, a-b-db, 14, 1, 3, 25, 135, 60, 60, 135, 56, 125, 1, 3.36825
47, 2, bw, attraction, a-b-db, 14, 1, 3, 25, 135, 60, 60, 135, 56, 125, 2, 0.783778
47, 2, bw, attraction, a-b-da, 9, 3, 3, 26, 120, 195, 186, 114, 195, 120, 3, 2.98217
47, 2, bw, attraction, a-b-da, 9, 3, 3, 26, 120, 195, 186, 114, 195, 120, 2, 2.07717
47, 2, bw, filler, NA, 999, 999, 3, 27, 106, 94, 177, 181, 87, 60, 2, 0.831224
47, 2, bw, filler, NA, 999, 999, 3, 27, 106, 94, 177, 181, 87, 60, 3, 0.708827
47, 2, bw, attraction, a-b-da, 14, 3, 3, 28, 181, 111, 120, 195, 195, 120, 3, 4.67791
47, 2, bw, attraction, a-b-da, 14, 3, 3, 28, 181, 111, 120, 195, 195, 120, 1, 0.560442
47, 2, bw, attraction, a-b-db, 14, 3, 3, 29, 120, 195, 111, 181, 195, 120, 3, 4.87951
47, 2, bw, attraction, a-b-db, 14, 3, 3, 29, 120, 195, 111, 181, 195, 120, 2, 0.777934
47, 2, bw, attraction, a-b-db, 2, 1, 3, 30, 135, 60, 59, 134, 60, 135, 3, 4.80829
47, 2, bw, attraction, a-b-db, 2, 1, 3, 30, 135, 60, 59, 134, 60, 135, 1, 3.16546
47, 2, bw, attraction, a-b-db, 14, 2, 3, 31, 83, 153, 90, 165, 165, 90, 2, 7.0837
47, 2, bw, attraction, a-b-db, 14, 2, 3, 31, 83, 153, 90, 165, 165, 90, 1, 2.13345
47, 2, bw, catch, NA, 999, 999, 3, 32, 100, 95, 133, 122, 181, 134, 3, 1.48562
47, 2, bw, catch, NA, 999, 999, 3, 32, 100, 95, 133, 122, 181, 134, 1, 0.417076
47, 2, bw, attraction, a-b-da, 9, 2, 3, 33, 90, 165, 157, 86, 165, 90, 1, 2.15013
47, 2, bw, attraction, a-b-da, 9, 2, 3, 33, 90, 165, 157, 86, 165, 90, 2, 0.63074
47, 2, bw, filler, NA, 999, 999, 3, 34, 59, 57, 71, 102, 165, 166, 3, 0.635161
47, 2, bw, filler, NA, 999, 999, 3, 34, 59, 57, 71, 102, 165, 166, 1, 0.60095
47, 2, bw, filler, NA, 999, 999, 3, 35, 67, 177, 152, 95, 68, 154, 1, 1.15867
47, 2, bw, filler, NA, 999, 999, 3, 35, 67, 177, 152, 95, 68, 154, 3, 0.454876
47, 2, bw, attraction, a-b-da, 14, 2, 3, 36, 90, 165, 153, 83, 165, 90, 1, 2.41874
47, 2, bw, attraction, a-b-da, 14, 2, 3, 36, 90, 165, 153, 83, 165, 90, 3, 0.704589
47, 2, bw, attraction, a-b-db, 9, 1, 3, 37, 135, 60, 60, 135, 57, 129, 2, 2.97837
47, 2, bw, attraction, a-b-db, 9, 1, 3, 37, 135, 60, 60, 135, 57, 129, 3, 4.25744
47, 2, bw, filler, NA, 999, 999, 4, 1, 121, 84, 56, 135, 131, 83, 3, 2.58736
47, 2, bw, filler, NA, 999, 999, 4, 1, 121, 84, 56, 135, 131, 83, 2, 2.13054
47, 2, bw, catch, NA, 999, 999, 4, 2, 167, 148, 104, 151, 60, 135, 1, 0.746418
47, 2, bw, catch, NA, 999, 999, 4, 2, 167, 148, 104, 151, 60, 135, 3, 0.467483
47, 2, bw, catch, NA, 999, 999, 4, 3, 98, 157, 150, 165, 135, 60, 2, 0.982606
47, 2, bw, catch, NA, 999, 999, 4, 3, 98, 157, 150, 165, 135, 60, 3, 0.630274
47, 2, bw, attraction, a-b-db, 14, 2, 4, 4, 165, 90, 90, 165, 83, 153, 2, 1.71467
47, 2, bw, attraction, a-b-db, 14, 2, 4, 4, 165, 90, 90, 165, 83, 153, 3, 3.26988
47, 2, bw, filler, NA, 999, 999, 4, 5, 138, 152, 66, 187, 93, 84, 1, 0.663033
47, 2, bw, filler, NA, 999, 999, 4, 5, 138, 152, 66, 187, 93, 84, 3, 0.411509
47, 2, bw, attraction, a-b-db, 5, 3, 4, 6, 117, 190, 120, 195, 195, 120, 2, 6.24078
47, 2, bw, attraction, a-b-db, 5, 3, 4, 6, 117, 190, 120, 195, 195, 120, 1, 0.50808
47, 2, bw, attraction, a-b-da, 5, 3, 4, 7, 195, 120, 120, 195, 190, 117, 1, 2.74908
47, 2, bw, attraction, a-b-da, 5, 3, 4, 7, 195, 120, 120, 195, 190, 117, 2, 1.85357
47, 2, bw, attraction, a-b-db, 5, 1, 4, 8, 60, 135, 135, 60, 58, 132, 1, 2.62508
47, 2, bw, attraction, a-b-db, 5, 1, 4, 8, 60, 135, 135, 60, 58, 132, 2, 1.56608
47, 2, bw, attraction, a-b-db, 9, 2, 4, 9, 90, 165, 165, 90, 86, 157, 1, 3.36491
47, 2, bw, attraction, a-b-db, 9, 2, 4, 9, 90, 165, 165, 90, 86, 157, 3, 1.7645
47, 2, bw, filler, NA, 999, 999, 4, 10, 108, 142, 180, 58, 57, 139, 2, 1.70727
47, 2, bw, filler, NA, 999, 999, 4, 10, 108, 142, 180, 58, 57, 139, 3, 0.941423
47, 2, bw, filler, NA, 999, 999, 4, 11, 82, 185, 98, 155, 64, 68, 2, 3.24497
47, 2, bw, filler, NA, 999, 999, 4, 11, 82, 185, 98, 155, 64, 68, 3, 0.641364
47, 2, bw, attraction, a-b-da, 14, 1, 4, 12, 135, 60, 125, 56, 60, 135, 3, 1.58098
47, 2, bw, attraction, a-b-da, 14, 1, 4, 12, 135, 60, 125, 56, 60, 135, 2, 1.26038
47, 2, bw, filler, NA, 999, 999, 4, 13, 85, 131, 93, 61, 192, 96, 3, 1.24739
47, 2, bw, filler, NA, 999, 999, 4, 13, 85, 131, 93, 61, 192, 96, 2, 0.508242
47, 2, bw, attraction, a-b-db, 14, 3, 4, 14, 120, 195, 111, 181, 195, 120, 1, 2.13336
47, 2, bw, attraction, a-b-db, 14, 3, 4, 14, 120, 195, 111, 181, 195, 120, 2, 2.5747
47, 2, bw, attraction, a-b-da, 14, 2, 4, 15, 165, 90, 153, 83, 90, 165, 3, 2.70848
47, 2, bw, attraction, a-b-da, 14, 2, 4, 15, 165, 90, 153, 83, 90, 165, 2, 0.55025
47, 2, bw, filler, NA, 999, 999, 4, 16, 71, 98, 182, 134, 192, 103, 2, 1.59005
47, 2, bw, filler, NA, 999, 999, 4, 16, 71, 98, 182, 134, 192, 103, 1, 0.540878
47, 2, bw, attraction, a-b-db, 2, 1, 4, 17, 135, 60, 60, 135, 59, 134, 2, 5.45265
47, 2, bw, attraction, a-b-db, 2, 1, 4, 17, 135, 60, 60, 135, 59, 134, 3, 1.56027
47, 2, bw, filler, NA, 999, 999, 4, 18, 188, 98, 62, 137, 77, 175, 1, 1.27892
47, 2, bw, filler, NA, 999, 999, 4, 18, 188, 98, 62, 137, 77, 175, 2, 0.514702
47, 2, bw, attraction, a-b-da, 9, 2, 4, 19, 165, 90, 157, 86, 90, 165, 1, 8.66772
47, 2, bw, attraction, a-b-da, 9, 2, 4, 19, 165, 90, 157, 86, 90, 165, 2, 0.957598
47, 2, bw, attraction, a-b-da, 14, 3, 4, 20, 120, 195, 181, 111, 195, 120, 1, 2.38056
47, 2, bw, attraction, a-b-da, 14, 3, 4, 20, 120, 195, 181, 111, 195, 120, 3, 0.275794
47, 2, bw, attraction, a-b-db, 2, 2, 4, 21, 90, 165, 89, 163, 165, 90, 1, 3.75049
47, 2, bw, attraction, a-b-db, 2, 2, 4, 21, 90, 165, 89, 163, 165, 90, 3, 0.670446
47, 2, bw, attraction, a-b-da, 2, 3, 4, 22, 193, 119, 195, 120, 120, 195, 2, 2.24957
47, 2, bw, attraction, a-b-da, 2, 3, 4, 22, 193, 119, 195, 120, 120, 195, 3, 1.82217
47, 2, bw, attraction, a-b-da, 2, 2, 4, 23, 90, 165, 165, 90, 163, 89, 1, 1.84293
47, 2, bw, attraction, a-b-da, 2, 2, 4, 23, 90, 165, 165, 90, 163, 89, 3, 0.543618
47, 2, bw, filler, NA, 999, 999, 4, 24, 73, 136, 109, 151, 64, 63, 2, 1.06339
47, 2, bw, filler, NA, 999, 999, 4, 24, 73, 136, 109, 151, 64, 63, 3, 0.667613
47, 2, bw, attraction, a-b-da, 2, 1, 4, 25, 135, 60, 60, 135, 134, 59, 3, 2.28675
47, 2, bw, attraction, a-b-da, 2, 1, 4, 25, 135, 60, 60, 135, 134, 59, 2, 0.441994
47, 2, bw, attraction, a-b-da, 5, 2, 4, 26, 90, 165, 165, 90, 161, 88, 1, 4.0538
47, 2, bw, attraction, a-b-da, 5, 2, 4, 26, 90, 165, 165, 90, 161, 88, 3, 0.457975
47, 2, bw, attraction, a-b-db, 9, 1, 4, 27, 135, 60, 60, 135, 57, 129, 2, 4.20496
47, 2, bw, attraction, a-b-db, 9, 1, 4, 27, 135, 60, 60, 135, 57, 129, 3, 2.59429
47, 2, bw, attraction, a-b-db, 9, 3, 4, 28, 195, 120, 114, 186, 120, 195, 3, 2.60745
47, 2, bw, attraction, a-b-db, 9, 3, 4, 28, 195, 120, 114, 186, 120, 195, 2, 2.32526
47, 2, bw, attraction, a-b-da, 5, 1, 4, 29, 135, 60, 132, 58, 60, 135, 2, 1.83709
47, 2, bw, attraction, a-b-da, 5, 1, 4, 29, 135, 60, 132, 58, 60, 135, 1, 1.40269
47, 2, bw, attraction, a-b-db, 5, 2, 4, 30, 90, 165, 165, 90, 88, 161, 1, 1.70404
47, 2, bw, attraction, a-b-db, 5, 2, 4, 30, 90, 165, 165, 90, 88, 161, 2, 0.667091
47, 2, bw, filler, NA, 999, 999, 4, 31, 127, 156, 71, 74, 110, 65, 1, 1.71729
47, 2, bw, filler, NA, 999, 999, 4, 31, 127, 156, 71, 74, 110, 65, 2, 0.351341
47, 2, bw, attraction, a-b-db, 2, 3, 4, 32, 119, 193, 120, 195, 195, 120, 1, 1.81512
47, 2, bw, attraction, a-b-db, 2, 3, 4, 32, 119, 193, 120, 195, 195, 120, 2, 2.02925
47, 2, bw, attraction, a-b-db, 14, 1, 4, 33, 60, 135, 135, 60, 56, 125, 2, 1.36917
47, 2, bw, attraction, a-b-db, 14, 1, 4, 33, 60, 135, 135, 60, 56, 125, 3, 0.833388
47, 2, bw, attraction, a-b-da, 9, 1, 4, 34, 129, 57, 135, 60, 60, 135, 3, 1.59783
47, 2, bw, attraction, a-b-da, 9, 1, 4, 34, 129, 57, 135, 60, 60, 135, 1, 1.78861
47, 2, bw, attraction, a-b-da, 9, 3, 4, 35, 195, 120, 186, 114, 120, 195, 3, 1.8906
47, 2, bw, attraction, a-b-da, 9, 3, 4, 35, 195, 120, 186, 114, 120, 195, 2, 0.741223
47, 2, bw, filler, NA, 999, 999, 4, 36, 134, 104, 88, 84, 149, 161, 3, 0.97313
47, 2, bw, filler, NA, 999, 999, 4, 36, 134, 104, 88, 84, 149, 161, 2, 0.46867
47, 2, bw, catch, NA, 999, 999, 4, 37, 137, 118, 98, 97, 174, 141, 3, 0.759777
47, 2, bw, catch, NA, 999, 999, 4, 37, 137, 118, 98, 97, 174, 141, 2, 0.4804
47, 2, bw, filler, NA, 999, 999, 5, 1, 57, 192, 86, 154, 90, 111, 1, 5.68126
47, 2, bw, filler, NA, 999, 999, 5, 1, 57, 192, 86, 154, 90, 111, 3, 0.611484
47, 2, bw, attraction, a-b-da, 2, 1, 5, 2, 135, 60, 134, 59, 60, 135, 2, 3.30481
47, 2, bw, attraction, a-b-da, 2, 1, 5, 2, 135, 60, 134, 59, 60, 135, 3, 1.9142
47, 2, bw, attraction, a-b-da, 9, 2, 5, 3, 157, 86, 165, 90, 90, 165, 2, 1.65093
47, 2, bw, attraction, a-b-da, 9, 2, 5, 3, 157, 86, 165, 90, 90, 165, 3, 1.77573
47, 2, bw, filler, NA, 999, 999, 5, 4, 142, 132, 75, 144, 167, 171, 3, 0.909862
47, 2, bw, filler, NA, 999, 999, 5, 4, 142, 132, 75, 144, 167, 171, 2, 0.512155
47, 2, bw, attraction, a-b-da, 2, 3, 5, 5, 193, 119, 120, 195, 195, 120, 2, 1.28116
47, 2, bw, attraction, a-b-da, 2, 3, 5, 5, 193, 119, 120, 195, 195, 120, 3, 0.412788
47, 2, bw, filler, NA, 999, 999, 5, 6, 148, 98, 171, 151, 85, 155, 2, 0.889872
47, 2, bw, filler, NA, 999, 999, 5, 6, 148, 98, 171, 151, 85, 155, 3, 0.348974
47, 2, bw, filler, NA, 999, 999, 5, 7, 114, 143, 173, 88, 170, 68, 1, 1.17278
47, 2, bw, filler, NA, 999, 999, 5, 7, 114, 143, 173, 88, 170, 68, 3, 0.604398
47, 2, bw, attraction, a-b-db, 9, 3, 5, 8, 195, 120, 114, 186, 120, 195, 3, 1.4982
47, 2, bw, attraction, a-b-db, 9, 3, 5, 8, 195, 120, 114, 186, 120, 195, 1, 0.50898
47, 2, bw, attraction, a-b-db, 14, 1, 5, 9, 56, 125, 60, 135, 135, 60, 2, 8.08615
47, 2, bw, attraction, a-b-db, 14, 1, 5, 9, 56, 125, 60, 135, 135, 60, 1, 0.487496
47, 2, bw, filler, NA, 999, 999, 5, 10, 66, 69, 99, 122, 185, 155, 3, 0.737997
47, 2, bw, filler, NA, 999, 999, 5, 10, 66, 69, 99, 122, 185, 155, 1, 0.651102
47, 2, bw, attraction, a-b-da, 5, 3, 5, 11, 120, 195, 195, 120, 190, 117, 2, 4.76683
47, 2, bw, attraction, a-b-da, 5, 3, 5, 11, 120, 195, 195, 120, 190, 117, 3, 1.1661
47, 2, bw, filler, NA, 999, 999, 5, 12, 182, 141, 111, 170, 123, 132, 1, 1.39698
47, 2, bw, filler, NA, 999, 999, 5, 12, 182, 141, 111, 170, 123, 132, 3, 0.75572
47, 2, bw, attraction, a-b-db, 14, 2, 5, 13, 90, 165, 165, 90, 83, 153, 1, 3.05945
47, 2, bw, attraction, a-b-db, 14, 2, 5, 13, 90, 165, 165, 90, 83, 153, 3, 0.391099
47, 2, bw, attraction, a-b-db, 2, 3, 5, 14, 120, 195, 195, 120, 119, 193, 3, 10.565
47, 2, bw, attraction, a-b-db, 2, 3, 5, 14, 120, 195, 195, 120, 119, 193, 2, 0.370274
47, 2, bw, attraction, a-b-db, 2, 2, 5, 15, 165, 90, 89, 163, 90, 165, 2, 6.80947
47, 2, bw, attraction, a-b-db, 2, 2, 5, 15, 165, 90, 89, 163, 90, 165, 3, 4.53398
47, 2, bw, attraction, a-b-da, 9, 3, 5, 16, 186, 114, 120, 195, 195, 120, 3, 6.93316
47, 2, bw, attraction, a-b-da, 9, 3, 5, 16, 186, 114, 120, 195, 195, 120, 1, 0.476935
47, 2, bw, attraction, a-b-da, 5, 1, 5, 17, 60, 135, 132, 58, 135, 60, 1, 1.60743
47, 2, bw, attraction, a-b-da, 5, 1, 5, 17, 60, 135, 132, 58, 135, 60, 3, 0.605513
47, 2, bw, filler, NA, 999, 999, 5, 18, 104, 120, 67, 192, 172, 148, 3, 1.17128
47, 2, bw, filler, NA, 999, 999, 5, 18, 104, 120, 67, 192, 172, 148, 1, 0.682832
47, 2, bw, catch, NA, 999, 999, 5, 19, 102, 153, 161, 154, 77, 118, 2, 0.821251
47, 2, bw, catch, NA, 999, 999, 5, 19, 102, 153, 161, 154, 77, 118, 3, 0.483057
47, 2, bw, filler, NA, 999, 999, 5, 20, 114, 174, 143, 176, 164, 90, 2, 1.38153
47, 2, bw, filler, NA, 999, 999, 5, 20, 114, 174, 143, 176, 164, 90, 3, 1.80504
47, 2, bw, attraction, a-b-da, 14, 1, 5, 21, 60, 135, 125, 56, 135, 60, 3, 4.91451
47, 2, bw, attraction, a-b-da, 14, 1, 5, 21, 60, 135, 125, 56, 135, 60, 2, 0.339465
47, 2, bw, catch, NA, 999, 999, 5, 22, 124, 191, 99, 156, 60, 135, 1, 0.683306
47, 2, bw, catch, NA, 999, 999, 5, 22, 124, 191, 99, 156, 60, 135, 3, 0.439132
47, 2, bw, attraction, a-b-db, 9, 1, 5, 23, 60, 135, 57, 129, 135, 60, 1, 2.17968
47, 2, bw, attraction, a-b-db, 9, 1, 5, 23, 60, 135, 57, 129, 135, 60, 3, 0.626913
47, 2, bw, attraction, a-b-da, 14, 2, 5, 24, 165, 90, 90, 165, 153, 83, 1, 5.56732
47, 2, bw, attraction, a-b-da, 14, 2, 5, 24, 165, 90, 90, 165, 153, 83, 3, 0.630234
47, 2, bw, attraction, a-b-da, 2, 2, 5, 25, 90, 165, 165, 90, 163, 89, 3, 2.53061
47, 2, bw, attraction, a-b-da, 2, 2, 5, 25, 90, 165, 165, 90, 163, 89, 2, 0.36375
47, 2, bw, filler, NA, 999, 999, 5, 26, 70, 182, 192, 119, 108, 107, 2, 0.803083
47, 2, bw, filler, NA, 999, 999, 5, 26, 70, 182, 192, 119, 108, 107, 3, 0.585363
47, 2, bw, catch, NA, 999, 999, 5, 27, 128, 127, 131, 64, 136, 179, 2, 0.799797
47, 2, bw, catch, NA, 999, 999, 5, 27, 128, 127, 131, 64, 136, 179, 3, 0.206697
47, 2, bw, attraction, a-b-da, 9, 1, 5, 28, 60, 135, 129, 57, 135, 60, 3, 4.41204
47, 2, bw, attraction, a-b-da, 9, 1, 5, 28, 60, 135, 129, 57, 135, 60, 2, 2.09724
47, 2, bw, filler, NA, 999, 999, 5, 29, 75, 101, 80, 142, 77, 190, 3, 1.37864
47, 2, bw, filler, NA, 999, 999, 5, 29, 75, 101, 80, 142, 77, 190, 1, 0.338114
47, 2, bw, attraction, a-b-da, 5, 2, 5, 30, 165, 90, 90, 165, 161, 88, 1, 2.95466
47, 2, bw, attraction, a-b-da, 5, 2, 5, 30, 165, 90, 90, 165, 161, 88, 3, 1.3383
47, 2, bw, attraction, a-b-db, 14, 3, 5, 31, 111, 181, 120, 195, 195, 120, 3, 1.77046
47, 2, bw, attraction, a-b-db, 14, 3, 5, 31, 111, 181, 120, 195, 195, 120, 1, 0.593911
47, 2, bw, attraction, a-b-db, 5, 2, 5, 32, 165, 90, 90, 165, 88, 161, 3, 4.49573
47, 2, bw, attraction, a-b-db, 5, 2, 5, 32, 165, 90, 90, 165, 88, 161, 1, 2.67363
47, 2, bw, attraction, a-b-da, 14, 3, 5, 33, 195, 120, 181, 111, 120, 195, 3, 8.26744
47, 2, bw, attraction, a-b-da, 14, 3, 5, 33, 195, 120, 181, 111, 120, 195, 2, 2.34143
47, 2, bw, attraction, a-b-db, 2, 1, 5, 34, 59, 134, 135, 60, 60, 135, 1, 3.83655
47, 2, bw, attraction, a-b-db, 2, 1, 5, 34, 59, 134, 135, 60, 60, 135, 3, 0.761385
47, 2, bw, attraction, a-b-db, 9, 2, 5, 35, 165, 90, 86, 157, 90, 165, 3, 8.68853
47, 2, bw, attraction, a-b-db, 9, 2, 5, 35, 165, 90, 86, 157, 90, 165, 2, 0.297693
47, 2, bw, attraction, a-b-db, 5, 1, 5, 36, 135, 60, 58, 132, 60, 135, 1, 7.53954
47, 2, bw, attraction, a-b-db, 5, 1, 5, 36, 135, 60, 58, 132, 60, 135, 2, 0.586584
47, 2, bw, attraction, a-b-db, 5, 3, 5, 37, 120, 195, 117, 190, 195, 120, 1, 5.71291
47, 2, bw, attraction, a-b-db, 5, 3, 5, 37, 120, 195, 117, 190, 195, 120, 3, 2.21769
47, 2, bw, attraction, a-b-db, 14, 3, 6, 1, 195, 120, 120, 195, 111, 181, 2, 9.47033
47, 2, bw, attraction, a-b-db, 14, 3, 6, 1, 195, 120, 120, 195, 111, 181, 3, 0.344059
47, 2, bw, filler, NA, 999, 999, 6, 2, 102, 124, 123, 150, 175, 81, 2, 1.03982
47, 2, bw, filler, NA, 999, 999, 6, 2, 102, 124, 123, 150, 175, 81, 1, 4.09283
47, 2, bw, attraction, a-b-db, 14, 2, 6, 3, 165, 90, 90, 165, 83, 153, 1, 7.30949
47, 2, bw, attraction, a-b-db, 14, 2, 6, 3, 165, 90, 90, 165, 83, 153, 3, 0.781871
47, 2, bw, attraction, a-b-da, 14, 1, 6, 4, 135, 60, 60, 135, 125, 56, 2, 11.6602
47, 2, bw, attraction, a-b-da, 14, 1, 6, 4, 135, 60, 60, 135, 125, 56, 3, 1.02117
47, 2, bw, filler, NA, 999, 999, 6, 5, 160, 77, 158, 161, 156, 164, 2, 1.55417
47, 2, bw, filler, NA, 999, 999, 6, 5, 160, 77, 158, 161, 156, 164, 1, 0.690424
47, 2, bw, filler, NA, 999, 999, 6, 6, 182, 136, 133, 190, 147, 99, 2, 2.41219
47, 2, bw, filler, NA, 999, 999, 6, 6, 182, 136, 133, 190, 147, 99, 3, 0.833932
47, 2, bw, attraction, a-b-db, 5, 2, 6, 7, 88, 161, 90, 165, 165, 90, 2, 5.56641
47, 2, bw, attraction, a-b-db, 5, 2, 6, 7, 88, 161, 90, 165, 165, 90, 1, 0.381229
47, 2, bw, catch, NA, 999, 999, 6, 8, 156, 99, 126, 69, 131, 184, 3, 1.65972
47, 2, bw, catch, NA, 999, 999, 6, 8, 156, 99, 126, 69, 131, 184, 2, 0.527787
47, 2, bw, catch, NA, 999, 999, 6, 9, 149, 106, 62, 133, 185, 130, 2, 1.30431
47, 2, bw, catch, NA, 999, 999, 6, 9, 149, 106, 62, 133, 185, 130, 3, 1.6904
47, 2, bw, attraction, a-b-da, 2, 1, 6, 10, 134, 59, 135, 60, 60, 135, 3, 13.9079
47, 2, bw, attraction, a-b-da, 2, 1, 6, 10, 134, 59, 135, 60, 60, 135, 2, 0.61029
47, 2, bw, attraction, a-b-db, 2, 1, 6, 11, 60, 135, 59, 134, 135, 60, 1, 2.08723
47, 2, bw, attraction, a-b-db, 2, 1, 6, 11, 60, 135, 59, 134, 135, 60, 3, 1.49073
47, 2, bw, attraction, a-b-da, 14, 2, 6, 12, 165, 90, 153, 83, 90, 165, 3, 3.27609
47, 2, bw, attraction, a-b-da, 14, 2, 6, 12, 165, 90, 153, 83, 90, 165, 2, 2.76703
47, 2, bw, filler, NA, 999, 999, 6, 13, 174, 100, 132, 113, 151, 104, 1, 4.24535
47, 2, bw, filler, NA, 999, 999, 6, 13, 174, 100, 132, 113, 151, 104, 2, 0.345363
47, 2, bw, attraction, a-b-da, 5, 3, 6, 14, 190, 117, 195, 120, 120, 195, 2, 2.48137
47, 2, bw, attraction, a-b-da, 5, 3, 6, 14, 190, 117, 195, 120, 120, 195, 1, 0.324406
47, 2, bw, filler, NA, 999, 999, 6, 15, 91, 183, 92, 64, 99, 66, 1, 1.01293
47, 2, bw, filler, NA, 999, 999, 6, 15, 91, 183, 92, 64, 99, 66, 2, 0.339199
47, 2, bw, attraction, a-b-db, 2, 3, 6, 16, 119, 193, 120, 195, 195, 120, 3, 2.21193
47, 2, bw, attraction, a-b-db, 2, 3, 6, 16, 119, 193, 120, 195, 195, 120, 2, 1.95375
47, 2, bw, attraction, a-b-db, 5, 1, 6, 17, 135, 60, 58, 132, 60, 135, 1, 7.20899
47, 2, bw, attraction, a-b-db, 5, 1, 6, 17, 135, 60, 58, 132, 60, 135, 2, 0.605345
47, 2, bw, attraction, a-b-db, 9, 2, 6, 18, 90, 165, 86, 157, 165, 90, 3, 3.61118
47, 2, bw, attraction, a-b-db, 9, 2, 6, 18, 90, 165, 86, 157, 165, 90, 2, 0.768641
47, 2, bw, attraction, a-b-da, 9, 2, 6, 19, 165, 90, 90, 165, 157, 86, 1, 5.78374
47, 2, bw, attraction, a-b-da, 9, 2, 6, 19, 165, 90, 90, 165, 157, 86, 3, 0.533919
47, 2, bw, attraction, a-b-db, 14, 1, 6, 20, 135, 60, 60, 135, 56, 125, 1, 6.4625
47, 2, bw, attraction, a-b-db, 14, 1, 6, 20, 135, 60, 60, 135, 56, 125, 3, 0.472919
47, 2, bw, filler, NA, 999, 999, 6, 21, 192, 163, 177, 137, 79, 64, 1, 1.22742
47, 2, bw, filler, NA, 999, 999, 6, 21, 192, 163, 177, 137, 79, 64, 3, 0.449049
47, 2, bw, filler, NA, 999, 999, 6, 22, 158, 78, 88, 136, 93, 121, 2, 1.81283
47, 2, bw, filler, NA, 999, 999, 6, 22, 158, 78, 88, 136, 93, 121, 1, 1.61901
47, 2, bw, attraction, a-b-db, 5, 3, 6, 23, 120, 195, 195, 120, 117, 190, 1, 3.10367
47, 2, bw, attraction, a-b-db, 5, 3, 6, 23, 120, 195, 195, 120, 117, 190, 2, 2.88198
47, 2, bw, attraction, a-b-da, 2, 3, 6, 24, 120, 195, 193, 119, 195, 120, 3, 13.4917
47, 2, bw, attraction, a-b-da, 2, 3, 6, 24, 120, 195, 193, 119, 195, 120, 2, 0.402717
47, 2, bw, attraction, a-b-da, 14, 3, 6, 25, 195, 120, 181, 111, 120, 195, 1, 2.36856
47, 2, bw, attraction, a-b-da, 14, 3, 6, 25, 195, 120, 181, 111, 120, 195, 2, 0.536487
47, 2, bw, attraction, a-b-da, 9, 1, 6, 26, 135, 60, 129, 57, 60, 135, 1, 4.3689
47, 2, bw, attraction, a-b-da, 9, 1, 6, 26, 135, 60, 129, 57, 60, 135, 3, 2.52829
47, 2, bw, attraction, a-b-db, 9, 1, 6, 27, 57, 129, 60, 135, 135, 60, 3, 18.672
47, 2, bw, attraction, a-b-db, 9, 1, 6, 27, 57, 129, 60, 135, 135, 60, 2, 0.662854
47, 2, bw, attraction, a-b-da, 9, 3, 6, 28, 120, 195, 195, 120, 186, 114, 1, 1.46585
47, 2, bw, attraction, a-b-da, 9, 3, 6, 28, 120, 195, 195, 120, 186, 114, 2, 0.638036
47, 2, bw, attraction, a-b-da, 5, 1, 6, 29, 135, 60, 132, 58, 60, 135, 1, 2.62643
47, 2, bw, attraction, a-b-da, 5, 1, 6, 29, 135, 60, 132, 58, 60, 135, 2, 2.99162
47, 2, bw, catch, NA, 999, 999, 6, 30, 142, 113, 68, 127, 187, 128, 3, 0.996639
47, 2, bw, catch, NA, 999, 999, 6, 30, 142, 113, 68, 127, 187, 128, 2, 0.787642
47, 2, bw, attraction, a-b-db, 9, 3, 6, 31, 114, 186, 120, 195, 195, 120, 2, 8.08998
47, 2, bw, attraction, a-b-db, 9, 3, 6, 31, 114, 186, 120, 195, 195, 120, 1, 0.434717
47, 2, bw, filler, NA, 999, 999, 6, 32, 172, 169, 143, 112, 163, 131, 1, 1.2072
47, 2, bw, filler, NA, 999, 999, 6, 32, 172, 169, 143, 112, 163, 131, 2, 0.605543
47, 2, bw, filler, NA, 999, 999, 6, 33, 150, 122, 130, 177, 88, 123, 2, 0.947242
47, 2, bw, filler, NA, 999, 999, 6, 33, 150, 122, 130, 177, 88, 123, 3, 0.316304
47, 2, bw, attraction, a-b-da, 5, 2, 6, 34, 165, 90, 161, 88, 90, 165, 2, 2.42955
47, 2, bw, attraction, a-b-da, 5, 2, 6, 34, 165, 90, 161, 88, 90, 165, 1, 2.3949
47, 2, bw, attraction, a-b-db, 2, 2, 6, 35, 89, 163, 90, 165, 165, 90, 2, 5.07182
47, 2, bw, attraction, a-b-db, 2, 2, 6, 35, 89, 163, 90, 165, 165, 90, 3, 2.41822
47, 2, bw, attraction, a-b-da, 2, 2, 6, 36, 165, 90, 163, 89, 90, 165, 2, 7.31874
47, 2, bw, attraction, a-b-da, 2, 2, 6, 36, 165, 90, 163, 89, 90, 165, 3, 0.271143
47, 2, bw, filler, NA, 999, 999, 6, 37, 193, 142, 85, 79, 161, 172, 3, 1.07437
47, 2, bw, filler, NA, 999, 999, 6, 37, 193, 142, 85, 79, 161, 172, 2, 0.245972
47, 2, bw, attraction, a-b-da, 14, 3, 7, 1, 120, 195, 181, 111, 195, 120, 1, 9.23382
47, 2, bw, attraction, a-b-da, 14, 3, 7, 1, 120, 195, 181, 111, 195, 120, 2, 0.780859
47, 2, bw, catch, NA, 999, 999, 7, 2, 151, 164, 91, 164, 128, 67, 1, 0.92328
47, 2, bw, catch, NA, 999, 999, 7, 2, 151, 164, 91, 164, 128, 67, 3, 0.38895
47, 2, bw, attraction, a-b-da, 5, 2, 7, 3, 165, 90, 161, 88, 90, 165, 2, 2.17149
47, 2, bw, attraction, a-b-da, 5, 2, 7, 3, 165, 90, 161, 88, 90, 165, 1, 0.410799
47, 2, bw, filler, NA, 999, 999, 7, 4, 119, 155, 173, 107, 170, 116, 1, 7.59189
47, 2, bw, filler, NA, 999, 999, 7, 4, 119, 155, 173, 107, 170, 116, 3, 0.692925
47, 2, bw, attraction, a-b-da, 9, 2, 7, 5, 157, 86, 165, 90, 90, 165, 3, 1.29451
47, 2, bw, attraction, a-b-da, 9, 2, 7, 5, 157, 86, 165, 90, 90, 165, 1, 0.345423
47, 2, bw, attraction, a-b-da, 9, 1, 7, 6, 135, 60, 60, 135, 129, 57, 1, 3.73732
47, 2, bw, attraction, a-b-da, 9, 1, 7, 6, 135, 60, 60, 135, 129, 57, 3, 1.28214
47, 2, bw, attraction, a-b-da, 14, 1, 7, 7, 125, 56, 135, 60, 60, 135, 3, 2.18036
47, 2, bw, attraction, a-b-da, 14, 1, 7, 7, 125, 56, 135, 60, 60, 135, 1, 2.29156
47, 2, bw, attraction, a-b-da, 9, 3, 7, 8, 120, 195, 186, 114, 195, 120, 1, 1.86093
47, 2, bw, attraction, a-b-da, 9, 3, 7, 8, 120, 195, 186, 114, 195, 120, 2, 0.624891
47, 2, bw, attraction, a-b-db, 14, 1, 7, 9, 60, 135, 56, 125, 135, 60, 3, 5.01333
47, 2, bw, attraction, a-b-db, 14, 1, 7, 9, 60, 135, 56, 125, 135, 60, 2, 0.642446
47, 2, bw, attraction, a-b-db, 14, 2, 7, 10, 83, 153, 90, 165, 165, 90, 3, 7.03014
47, 2, bw, attraction, a-b-db, 14, 2, 7, 10, 83, 153, 90, 165, 165, 90, 2, 4.92988
47, 2, bw, attraction, a-b-db, 2, 1, 7, 11, 135, 60, 59, 134, 60, 135, 3, 6.26497
47, 2, bw, attraction, a-b-db, 2, 1, 7, 11, 135, 60, 59, 134, 60, 135, 1, 0.523623
47, 2, bw, attraction, a-b-db, 5, 3, 7, 12, 120, 195, 117, 190, 195, 120, 3, 6.78015
47, 2, bw, attraction, a-b-db, 5, 3, 7, 12, 120, 195, 117, 190, 195, 120, 2, 1.62595
47, 2, bw, attraction, a-b-da, 14, 2, 7, 13, 165, 90, 153, 83, 90, 165, 3, 1.78204
47, 2, bw, attraction, a-b-da, 14, 2, 7, 13, 165, 90, 153, 83, 90, 165, 2, 0.293503
47, 2, bw, filler, NA, 999, 999, 7, 14, 97, 126, 179, 161, 193, 171, 3, 0.871316
47, 2, bw, filler, NA, 999, 999, 7, 14, 97, 126, 179, 161, 193, 171, 1, 0.883014
47, 2, bw, filler, NA, 999, 999, 7, 15, 86, 102, 123, 180, 61, 194, 2, 0.997379
47, 2, bw, filler, NA, 999, 999, 7, 15, 86, 102, 123, 180, 61, 194, 1, 0.53238
47, 2, bw, attraction, a-b-da, 5, 3, 7, 16, 120, 195, 190, 117, 195, 120, 2, 1.66088
47, 2, bw, attraction, a-b-da, 5, 3, 7, 16, 120, 195, 190, 117, 195, 120, 1, 2.22487
47, 2, bw, attraction, a-b-db, 14, 3, 7, 17, 120, 195, 111, 181, 195, 120, 3, 8.60476
47, 2, bw, attraction, a-b-db, 14, 3, 7, 17, 120, 195, 111, 181, 195, 120, 2, 0.521425
47, 2, bw, attraction, a-b-db, 5, 1, 7, 18, 135, 60, 58, 132, 60, 135, 3, 2.5225
47, 2, bw, attraction, a-b-db, 5, 1, 7, 18, 135, 60, 58, 132, 60, 135, 1, 1.87569
47, 2, bw, attraction, a-b-db, 9, 2, 7, 19, 90, 165, 165, 90, 86, 157, 1, 3.66166
47, 2, bw, attraction, a-b-db, 9, 2, 7, 19, 90, 165, 165, 90, 86, 157, 3, 1.91341
47, 2, bw, catch, NA, 999, 999, 7, 20, 164, 151, 129, 126, 69, 126, 1, 1.24188
47, 2, bw, catch, NA, 999, 999, 7, 20, 164, 151, 129, 126, 69, 126, 3, 1.1988
47, 2, bw, filler, NA, 999, 999, 7, 21, 97, 124, 189, 89, 92, 58, 2, 2.57235
47, 2, bw, filler, NA, 999, 999, 7, 21, 97, 124, 189, 89, 92, 58, 3, 0.339535
47, 2, bw, attraction, a-b-db, 5, 2, 7, 22, 88, 161, 165, 90, 90, 165, 2, 2.1315
47, 2, bw, attraction, a-b-db, 5, 2, 7, 22, 88, 161, 165, 90, 90, 165, 3, 1.62901
47, 2, bw, filler, NA, 999, 999, 7, 23, 103, 76, 104, 148, 69, 137, 2, 1.16077
47, 2, bw, filler, NA, 999, 999, 7, 23, 103, 76, 104, 148, 69, 137, 1, 0.558753
47, 2, bw, filler, NA, 999, 999, 7, 24, 164, 124, 181, 191, 186, 104, 2, 1.88015
47, 2, bw, filler, NA, 999, 999, 7, 24, 164, 124, 181, 191, 186, 104, 3, 0.619572
47, 2, bw, attraction, a-b-da, 2, 2, 7, 25, 90, 165, 163, 89, 165, 90, 2, 3.30455
47, 2, bw, attraction, a-b-da, 2, 2, 7, 25, 90, 165, 163, 89, 165, 90, 1, 4.1702
47, 2, bw, filler, NA, 999, 999, 7, 26, 79, 64, 122, 186, 191, 76, 2, 0.976339
47, 2, bw, filler, NA, 999, 999, 7, 26, 79, 64, 122, 186, 191, 76, 1, 0.551813
47, 2, bw, attraction, a-b-da, 5, 1, 7, 27, 60, 135, 132, 58, 135, 60, 2, 1.71968
47, 2, bw, attraction, a-b-da, 5, 1, 7, 27, 60, 135, 132, 58, 135, 60, 1, 1.37774
47, 2, bw, attraction, a-b-db, 2, 3, 7, 28, 120, 195, 119, 193, 195, 120, 3, 9.70396
47, 2, bw, attraction, a-b-db, 2, 3, 7, 28, 120, 195, 119, 193, 195, 120, 2, 0.328294
47, 2, bw, attraction, a-b-db, 9, 1, 7, 29, 60, 135, 135, 60, 57, 129, 1, 4.71289
47, 2, bw, attraction, a-b-db, 9, 1, 7, 29, 60, 135, 135, 60, 57, 129, 3, 0.321827
47, 2, bw, filler, NA, 999, 999, 7, 30, 100, 92, 65, 87, 165, 86, 3, 2.05107
47, 2, bw, filler, NA, 999, 999, 7, 30, 100, 92, 65, 87, 165, 86, 2, 0.271768
47, 2, bw, attraction, a-b-da, 2, 3, 7, 31, 193, 119, 120, 195, 195, 120, 2, 3.291
47, 2, bw, attraction, a-b-da, 2, 3, 7, 31, 193, 119, 120, 195, 195, 120, 3, 2.84531
47, 2, bw, catch, NA, 999, 999, 7, 32, 93, 162, 195, 120, 76, 119, 2, 2.77634
47, 2, bw, catch, NA, 999, 999, 7, 32, 93, 162, 195, 120, 76, 119, 3, 0.463327
47, 2, bw, filler, NA, 999, 999, 7, 33, 119, 190, 59, 193, 148, 146, 3, 1.45855
47, 2, bw, filler, NA, 999, 999, 7, 33, 119, 190, 59, 193, 148, 146, 2, 0.334753
47, 2, bw, attraction, a-b-db, 9, 3, 7, 34, 195, 120, 120, 195, 114, 186, 3, 5.63915
47, 2, bw, attraction, a-b-db, 9, 3, 7, 34, 195, 120, 120, 195, 114, 186, 1, 1.18665
47, 2, bw, filler, NA, 999, 999, 7, 35, 121, 92, 89, 185, 63, 160, 1, 2.20895
47, 2, bw, filler, NA, 999, 999, 7, 35, 121, 92, 89, 185, 63, 160, 3, 0.518896
47, 2, bw, attraction, a-b-db, 2, 2, 7, 36, 89, 163, 165, 90, 90, 165, 2, 4.15997
47, 2, bw, attraction, a-b-db, 2, 2, 7, 36, 89, 163, 165, 90, 90, 165, 1, 0.375355
47, 2, bw, attraction, a-b-da, 2, 1, 7, 37, 134, 59, 135, 60, 60, 135, 2, 11.0059
47, 2, bw, attraction, a-b-da, 2, 1, 7, 37, 134, 59, 135, 60, 60, 135, 1, 0.593793
47, 2, bw, attraction, a-b-db, 2, 3, 8, 1, 195, 120, 119, 193, 120, 195, 2, 6.55147
47, 2, bw, attraction, a-b-db, 2, 3, 8, 1, 195, 120, 119, 193, 120, 195, 3, 3.65474
47, 2, bw, attraction, a-b-da, 9, 1, 8, 2, 60, 135, 135, 60, 129, 57, 2, 4.38547
47, 2, bw, attraction, a-b-da, 9, 1, 8, 2, 60, 135, 135, 60, 129, 57, 3, 0.429906
47, 2, bw, filler, NA, 999, 999, 8, 3, 110, 71, 148, 103, 154, 82, 2, 1.21259
47, 2, bw, filler, NA, 999, 999, 8, 3, 110, 71, 148, 103, 154, 82, 1, 0.346935
47, 2, bw, filler, NA, 999, 999, 8, 4, 81, 121, 149, 167, 165, 181, 3, 0.882739
47, 2, bw, filler, NA, 999, 999, 8, 4, 81, 121, 149, 167, 165, 181, 1, 0.470329
47, 2, bw, attraction, a-b-db, 2, 2, 8, 5, 89, 163, 90, 165, 165, 90, 2, 4.8975
47, 2, bw, attraction, a-b-db, 2, 2, 8, 5, 89, 163, 90, 165, 165, 90, 3, 0.243334
47, 2, bw, filler, NA, 999, 999, 8, 6, 79, 137, 181, 189, 181, 78, 2, 0.783152
47, 2, bw, filler, NA, 999, 999, 8, 6, 79, 137, 181, 189, 181, 78, 1, 0.302824
47, 2, bw, attraction, a-b-da, 14, 2, 8, 7, 153, 83, 90, 165, 165, 90, 2, 2.17673
47, 2, bw, attraction, a-b-da, 14, 2, 8, 7, 153, 83, 90, 165, 165, 90, 3, 0.536021
47, 2, bw, attraction, a-b-da, 5, 2, 8, 8, 90, 165, 165, 90, 161, 88, 1, 5.70451
47, 2, bw, attraction, a-b-da, 5, 2, 8, 8, 90, 165, 165, 90, 161, 88, 3, 0.433981
47, 2, bw, attraction, a-b-da, 14, 3, 8, 9, 195, 120, 181, 111, 120, 195, 3, 3.07847
47, 2, bw, attraction, a-b-da, 14, 3, 8, 9, 195, 120, 181, 111, 120, 195, 1, 0.305474
47, 2, bw, filler, NA, 999, 999, 8, 10, 63, 59, 167, 142, 170, 106, 2, 0.739272
47, 2, bw, filler, NA, 999, 999, 8, 10, 63, 59, 167, 142, 170, 106, 1, 0.284477
47, 2, bw, attraction, a-b-db, 2, 1, 8, 11, 135, 60, 60, 135, 59, 134, 2, 4.30307
47, 2, bw, attraction, a-b-db, 2, 1, 8, 11, 135, 60, 60, 135, 59, 134, 3, 0.344944
47, 2, bw, filler, NA, 999, 999, 8, 12, 106, 131, 145, 155, 170, 143, 2, 1.32877
47, 2, bw, filler, NA, 999, 999, 8, 12, 106, 131, 145, 155, 170, 143, 1, 0.290224
47, 2, bw, attraction, a-b-da, 9, 2, 8, 13, 165, 90, 90, 165, 157, 86, 2, 6.84425
47, 2, bw, attraction, a-b-da, 9, 2, 8, 13, 165, 90, 90, 165, 157, 86, 3, 0.263328
47, 2, bw, attraction, a-b-db, 5, 3, 8, 14, 120, 195, 195, 120, 117, 190, 2, 3.2986
47, 2, bw, attraction, a-b-db, 5, 3, 8, 14, 120, 195, 195, 120, 117, 190, 3, 0.270377
47, 2, bw, attraction, a-b-db, 14, 3, 8, 15, 111, 181, 120, 195, 195, 120, 2, 6.83197
47, 2, bw, attraction, a-b-db, 14, 3, 8, 15, 111, 181, 120, 195, 195, 120, 1, 0.235898
47, 2, bw, filler, NA, 999, 999, 8, 16, 78, 172, 108, 113, 72, 190, 3, 1.91246
47, 2, bw, filler, NA, 999, 999, 8, 16, 78, 172, 108, 113, 72, 190, 2, 0.250389
47, 2, bw, attraction, a-b-db, 9, 3, 8, 17, 195, 120, 114, 186, 120, 195, 1, 2.61423
47, 2, bw, attraction, a-b-db, 9, 3, 8, 17, 195, 120, 114, 186, 120, 195, 3, 0.252055
47, 2, bw, attraction, a-b-db, 5, 2, 8, 18, 88, 161, 90, 165, 165, 90, 2, 2.10396
47, 2, bw, attraction, a-b-db, 5, 2, 8, 18, 88, 161, 90, 165, 165, 90, 3, 0.746534
47, 2, bw, attraction, a-b-da, 5, 1, 8, 19, 60, 135, 132, 58, 135, 60, 3, 2.04233
47, 2, bw, attraction, a-b-da, 5, 1, 8, 19, 60, 135, 132, 58, 135, 60, 1, 0.96696
47, 2, bw, attraction, a-b-db, 14, 2, 8, 20, 90, 165, 83, 153, 165, 90, 3, 4.08605
47, 2, bw, attraction, a-b-db, 14, 2, 8, 20, 90, 165, 83, 153, 165, 90, 2, 0.216717
47, 2, bw, filler, NA, 999, 999, 8, 21, 168, 184, 137, 186, 127, 188, 1, 1.44585
47, 2, bw, filler, NA, 999, 999, 8, 21, 168, 184, 137, 186, 127, 188, 3, 1.05884
47, 2, bw, attraction, a-b-db, 14, 1, 8, 22, 135, 60, 56, 125, 60, 135, 1, 1.16565
47, 2, bw, attraction, a-b-db, 14, 1, 8, 22, 135, 60, 56, 125, 60, 135, 2, 1.05394
47, 2, bw, filler, NA, 999, 999, 8, 23, 95, 149, 147, 60, 92, 166, 3, 1.27352
47, 2, bw, filler, NA, 999, 999, 8, 23, 95, 149, 147, 60, 92, 166, 2, 0.813032
47, 2, bw, catch, NA, 999, 999, 8, 24, 153, 162, 112, 83, 139, 116, 1, 0.786102
47, 2, bw, catch, NA, 999, 999, 8, 24, 153, 162, 112, 83, 139, 116, 2, 0.401783
47, 2, bw, catch, NA, 999, 999, 8, 25, 110, 145, 182, 133, 103, 92, 2, 0.879656
47, 2, bw, catch, NA, 999, 999, 8, 25, 110, 145, 182, 133, 103, 92, 3, 0.323292
47, 2, bw, filler, NA, 999, 999, 8, 26, 116, 184, 135, 119, 102, 63, 2, 0.93993
47, 2, bw, filler, NA, 999, 999, 8, 26, 116, 184, 135, 119, 102, 63, 3, 0.380841
47, 2, bw, attraction, a-b-db, 5, 1, 8, 27, 58, 132, 60, 135, 135, 60, 3, 9.3954
47, 2, bw, attraction, a-b-db, 5, 1, 8, 27, 58, 132, 60, 135, 135, 60, 1, 0.311689
47, 2, bw, catch, NA, 999, 999, 8, 28, 60, 135, 165, 150, 156, 99, 2, 0.872828
47, 2, bw, catch, NA, 999, 999, 8, 28, 60, 135, 165, 150, 156, 99, 1, 0.340537
47, 2, bw, attraction, a-b-db, 9, 1, 8, 29, 57, 129, 135, 60, 60, 135, 3, 2.14842
47, 2, bw, attraction, a-b-db, 9, 1, 8, 29, 57, 129, 135, 60, 60, 135, 1, 0.813133
47, 2, bw, attraction, a-b-da, 2, 3, 8, 30, 195, 120, 120, 195, 193, 119, 1, 6.86625
47, 2, bw, attraction, a-b-da, 2, 3, 8, 30, 195, 120, 120, 195, 193, 119, 2, 0.796576
47, 2, bw, attraction, a-b-da, 2, 1, 8, 31, 134, 59, 135, 60, 60, 135, 2, 2.43424
47, 2, bw, attraction, a-b-da, 2, 1, 8, 31, 134, 59, 135, 60, 60, 135, 1, 0.383493
47, 2, bw, attraction, a-b-da, 9, 3, 8, 32, 195, 120, 186, 114, 120, 195, 2, 2.82198
47, 2, bw, attraction, a-b-da, 9, 3, 8, 32, 195, 120, 186, 114, 120, 195, 1, 0.48306
47, 2, bw, attraction, a-b-da, 2, 2, 8, 33, 90, 165, 165, 90, 163, 89, 2, 3.7336
47, 2, bw, attraction, a-b-da, 2, 2, 8, 33, 90, 165, 165, 90, 163, 89, 1, 0.470338
47, 2, bw, attraction, a-b-db, 9, 2, 8, 34, 86, 157, 90, 165, 165, 90, 2, 2.41739
47, 2, bw, attraction, a-b-db, 9, 2, 8, 34, 86, 157, 90, 165, 165, 90, 3, 0.543309
47, 2, bw, filler, NA, 999, 999, 8, 35, 163, 167, 147, 127, 94, 186, 1, 0.951103
47, 2, bw, filler, NA, 999, 999, 8, 35, 163, 167, 147, 127, 94, 186, 2, 0.288259
47, 2, bw, attraction, a-b-da, 14, 1, 8, 36, 135, 60, 125, 56, 60, 135, 1, 4.69865
47, 2, bw, attraction, a-b-da, 14, 1, 8, 36, 135, 60, 125, 56, 60, 135, 2, 0.308631
47, 2, bw, attraction, a-b-da, 5, 3, 8, 37, 195, 120, 120, 195, 190, 117, 2, 5.02972
47, 2, bw, attraction, a-b-da, 5, 3, 8, 37, 195, 120, 120, 195, 190, 117, 3, 1.50608
