sub_n, computer_n, bw_cond, effect, set, distance, diag, block_n, trial_n, h1, w1, h2, w2, h3, w3, choice, rt 
41, 2, bw, practice, NA, 999, 999, 0, 1, 109, 99, 95, 157, 113, 88, 2, 5.86154
41, 2, bw, practice, NA, 999, 999, 0, 1, 109, 99, 95, 157, 113, 88, 3, 3.28029
41, 2, bw, practice, NA, 999, 999, 0, 2, 96, 179, 107, 85, 151, 133, 3, 2.4226
41, 2, bw, practice, NA, 999, 999, 0, 2, 96, 179, 107, 85, 151, 133, 2, 4.45204
41, 2, bw, practice, NA, 999, 999, 0, 3, 67, 141, 192, 136, 120, 165, 2, 1.49236
41, 2, bw, practice, NA, 999, 999, 0, 3, 67, 141, 192, 136, 120, 165, 1, 1.84017
41, 2, bw, attraction, a-b-da, 9, 2, 1, 1, 157, 86, 90, 165, 165, 90, 2, 23.6205
41, 2, bw, attraction, a-b-da, 9, 2, 1, 1, 157, 86, 90, 165, 165, 90, 1, 1.4438
41, 2, bw, attraction, a-b-db, 9, 1, 1, 2, 60, 135, 57, 129, 135, 60, 3, 1.27123
41, 2, bw, attraction, a-b-db, 9, 1, 1, 2, 60, 135, 57, 129, 135, 60, 2, 1.94678
41, 2, bw, filler, NA, 999, 999, 1, 3, 157, 152, 153, 110, 79, 122, 1, 0.922205
41, 2, bw, filler, NA, 999, 999, 1, 3, 157, 152, 153, 110, 79, 122, 3, 1.26798
41, 2, bw, attraction, a-b-da, 5, 1, 1, 4, 60, 135, 132, 58, 135, 60, 1, 1.80688
41, 2, bw, attraction, a-b-da, 5, 1, 1, 4, 60, 135, 132, 58, 135, 60, 2, 0.828809
41, 2, bw, catch, NA, 999, 999, 1, 5, 125, 70, 112, 143, 160, 155, 3, 1.14518
41, 2, bw, catch, NA, 999, 999, 1, 5, 125, 70, 112, 143, 160, 155, 1, 1.2901
41, 2, bw, attraction, a-b-db, 2, 1, 1, 6, 60, 135, 59, 134, 135, 60, 1, 1.43558
41, 2, bw, attraction, a-b-db, 2, 1, 1, 6, 60, 135, 59, 134, 135, 60, 2, 1.05717
41, 2, bw, attraction, a-b-da, 14, 1, 1, 7, 60, 135, 125, 56, 135, 60, 1, 2.84061
41, 2, bw, attraction, a-b-da, 14, 1, 1, 7, 60, 135, 125, 56, 135, 60, 2, 0.84057
41, 2, bw, attraction, a-b-da, 2, 1, 1, 8, 134, 59, 135, 60, 60, 135, 2, 2.08418
41, 2, bw, attraction, a-b-da, 2, 1, 1, 8, 134, 59, 135, 60, 60, 135, 3, 0.479619
41, 2, bw, attraction, a-b-da, 9, 1, 1, 9, 60, 135, 135, 60, 129, 57, 2, 1.1941
41, 2, bw, attraction, a-b-da, 9, 1, 1, 9, 60, 135, 135, 60, 129, 57, 1, 0.689015
41, 2, bw, attraction, a-b-da, 2, 3, 1, 10, 193, 119, 120, 195, 195, 120, 2, 3.81932
41, 2, bw, attraction, a-b-da, 2, 3, 1, 10, 193, 119, 120, 195, 195, 120, 1, 0.880758
41, 2, bw, attraction, a-b-db, 9, 2, 1, 11, 165, 90, 90, 165, 86, 157, 3, 1.53911
41, 2, bw, attraction, a-b-db, 9, 2, 1, 11, 165, 90, 90, 165, 86, 157, 1, 1.07599
41, 2, bw, attraction, a-b-da, 14, 2, 1, 12, 90, 165, 153, 83, 165, 90, 1, 1.23817
41, 2, bw, attraction, a-b-da, 14, 2, 1, 12, 90, 165, 153, 83, 165, 90, 2, 0.659117
41, 2, bw, catch, NA, 999, 999, 1, 13, 123, 72, 153, 102, 146, 169, 3, 1.35816
41, 2, bw, catch, NA, 999, 999, 1, 13, 123, 72, 153, 102, 146, 169, 1, 1.01441
41, 2, bw, filler, NA, 999, 999, 1, 14, 131, 141, 175, 78, 96, 182, 1, 1.19536
41, 2, bw, filler, NA, 999, 999, 1, 14, 131, 141, 175, 78, 96, 182, 2, 0.79428
41, 2, bw, attraction, a-b-da, 2, 2, 1, 15, 90, 165, 165, 90, 163, 89, 1, 1.36795
41, 2, bw, attraction, a-b-da, 2, 2, 1, 15, 90, 165, 165, 90, 163, 89, 2, 0.632206
41, 2, bw, filler, NA, 999, 999, 1, 16, 76, 60, 68, 57, 172, 87, 3, 0.82858
41, 2, bw, filler, NA, 999, 999, 1, 16, 76, 60, 68, 57, 172, 87, 2, 0.986327
41, 2, bw, attraction, a-b-db, 5, 3, 1, 17, 117, 190, 120, 195, 195, 120, 2, 1.03258
41, 2, bw, attraction, a-b-db, 5, 3, 1, 17, 117, 190, 120, 195, 195, 120, 1, 0.614258
41, 2, bw, filler, NA, 999, 999, 1, 18, 60, 193, 103, 166, 113, 97, 2, 0.891246
41, 2, bw, filler, NA, 999, 999, 1, 18, 60, 193, 103, 166, 113, 97, 3, 0.750505
41, 2, bw, attraction, a-b-db, 5, 2, 1, 19, 165, 90, 88, 161, 90, 165, 1, 1.96604
41, 2, bw, attraction, a-b-db, 5, 2, 1, 19, 165, 90, 88, 161, 90, 165, 2, 0.750102
41, 2, bw, attraction, a-b-db, 5, 1, 1, 20, 58, 132, 60, 135, 135, 60, 2, 0.917749
41, 2, bw, attraction, a-b-db, 5, 1, 1, 20, 58, 132, 60, 135, 135, 60, 1, 0.672076
41, 2, bw, filler, NA, 999, 999, 1, 21, 145, 169, 142, 154, 194, 121, 3, 1.78729
41, 2, bw, filler, NA, 999, 999, 1, 21, 145, 169, 142, 154, 194, 121, 2, 0.370649
41, 2, bw, attraction, a-b-db, 9, 3, 1, 22, 195, 120, 114, 186, 120, 195, 3, 2.02579
41, 2, bw, attraction, a-b-db, 9, 3, 1, 22, 195, 120, 114, 186, 120, 195, 1, 1.08718
41, 2, bw, attraction, a-b-da, 14, 3, 1, 23, 120, 195, 181, 111, 195, 120, 3, 0.953424
41, 2, bw, attraction, a-b-da, 14, 3, 1, 23, 120, 195, 181, 111, 195, 120, 1, 2.23443
41, 2, bw, attraction, a-b-db, 14, 3, 1, 24, 120, 195, 195, 120, 111, 181, 1, 1.06231
41, 2, bw, attraction, a-b-db, 14, 3, 1, 24, 120, 195, 195, 120, 111, 181, 2, 0.57883
41, 2, bw, attraction, a-b-db, 2, 2, 1, 25, 90, 165, 165, 90, 89, 163, 3, 0.793068
41, 2, bw, attraction, a-b-db, 2, 2, 1, 25, 90, 165, 165, 90, 89, 163, 1, 1.24004
41, 2, bw, filler, NA, 999, 999, 1, 26, 100, 163, 81, 148, 59, 178, 1, 0.819664
41, 2, bw, filler, NA, 999, 999, 1, 26, 100, 163, 81, 148, 59, 178, 3, 0.642144
41, 2, bw, filler, NA, 999, 999, 1, 27, 183, 163, 129, 115, 88, 132, 1, 0.621898
41, 2, bw, filler, NA, 999, 999, 1, 27, 183, 163, 129, 115, 88, 132, 3, 0.499584
41, 2, bw, attraction, a-b-db, 2, 3, 1, 28, 120, 195, 119, 193, 195, 120, 2, 1.22936
41, 2, bw, attraction, a-b-db, 2, 3, 1, 28, 120, 195, 119, 193, 195, 120, 1, 0.515094
41, 2, bw, attraction, a-b-da, 5, 3, 1, 29, 120, 195, 195, 120, 190, 117, 1, 1.06001
41, 2, bw, attraction, a-b-da, 5, 3, 1, 29, 120, 195, 195, 120, 190, 117, 2, 0.480355
41, 2, bw, attraction, a-b-da, 9, 3, 1, 30, 186, 114, 120, 195, 195, 120, 2, 0.770817
41, 2, bw, attraction, a-b-da, 9, 3, 1, 30, 186, 114, 120, 195, 195, 120, 1, 0.410729
41, 2, bw, attraction, a-b-db, 14, 2, 1, 31, 90, 165, 165, 90, 83, 153, 1, 1.35167
41, 2, bw, attraction, a-b-db, 14, 2, 1, 31, 90, 165, 165, 90, 83, 153, 2, 0.61663
41, 2, bw, filler, NA, 999, 999, 1, 32, 140, 170, 71, 83, 188, 61, 1, 0.797713
41, 2, bw, filler, NA, 999, 999, 1, 32, 140, 170, 71, 83, 188, 61, 2, 1.07682
41, 2, bw, catch, NA, 999, 999, 1, 33, 175, 140, 100, 155, 134, 61, 1, 0.719072
41, 2, bw, catch, NA, 999, 999, 1, 33, 175, 140, 100, 155, 134, 61, 3, 0.897438
41, 2, bw, filler, NA, 999, 999, 1, 34, 57, 194, 63, 70, 114, 127, 3, 0.835026
41, 2, bw, filler, NA, 999, 999, 1, 34, 57, 194, 63, 70, 114, 127, 2, 0.71283
41, 2, bw, attraction, a-b-da, 5, 2, 1, 35, 90, 165, 165, 90, 161, 88, 1, 0.809885
41, 2, bw, attraction, a-b-da, 5, 2, 1, 35, 90, 165, 165, 90, 161, 88, 2, 0.632247
41, 2, bw, attraction, a-b-db, 14, 1, 1, 36, 60, 135, 135, 60, 56, 125, 2, 0.78865
41, 2, bw, attraction, a-b-db, 14, 1, 1, 36, 60, 135, 135, 60, 56, 125, 1, 0.563818
41, 2, bw, filler, NA, 999, 999, 1, 37, 121, 105, 87, 153, 82, 179, 3, 1.66679
41, 2, bw, filler, NA, 999, 999, 1, 37, 121, 105, 87, 153, 82, 179, 1, 0.878927
41, 2, bw, attraction, a-b-da, 5, 3, 2, 1, 120, 195, 190, 117, 195, 120, 2, 0.737309
41, 2, bw, attraction, a-b-da, 5, 3, 2, 1, 120, 195, 190, 117, 195, 120, 1, 0.538402
41, 2, bw, filler, NA, 999, 999, 2, 2, 184, 126, 127, 111, 77, 192, 1, 1.61874
41, 2, bw, filler, NA, 999, 999, 2, 2, 184, 126, 127, 111, 77, 192, 2, 0.400908
41, 2, bw, filler, NA, 999, 999, 2, 3, 186, 114, 136, 156, 190, 121, 2, 0.806764
41, 2, bw, filler, NA, 999, 999, 2, 3, 186, 114, 136, 156, 190, 121, 1, 0.429135
41, 2, bw, filler, NA, 999, 999, 2, 4, 170, 119, 127, 83, 94, 104, 1, 0.753645
41, 2, bw, filler, NA, 999, 999, 2, 4, 170, 119, 127, 83, 94, 104, 3, 0.914015
41, 2, bw, attraction, a-b-da, 9, 1, 2, 5, 129, 57, 135, 60, 60, 135, 3, 0.947157
41, 2, bw, attraction, a-b-da, 9, 1, 2, 5, 129, 57, 135, 60, 60, 135, 1, 0.892039
41, 2, bw, filler, NA, 999, 999, 2, 6, 73, 148, 71, 185, 156, 143, 3, 0.645768
41, 2, bw, filler, NA, 999, 999, 2, 6, 73, 148, 71, 185, 156, 143, 1, 0.586759
41, 2, bw, filler, NA, 999, 999, 2, 7, 114, 165, 192, 183, 64, 108, 2, 0.601109
41, 2, bw, filler, NA, 999, 999, 2, 7, 114, 165, 192, 183, 64, 108, 3, 0.552297
41, 2, bw, attraction, a-b-db, 5, 3, 2, 8, 120, 195, 195, 120, 117, 190, 1, 0.720049
41, 2, bw, attraction, a-b-db, 5, 3, 2, 8, 120, 195, 195, 120, 117, 190, 2, 0.418508
41, 2, bw, attraction, a-b-da, 2, 1, 2, 9, 134, 59, 60, 135, 135, 60, 2, 0.751657
41, 2, bw, attraction, a-b-da, 2, 1, 2, 9, 134, 59, 60, 135, 135, 60, 1, 0.624768
41, 2, bw, attraction, a-b-db, 9, 3, 2, 10, 114, 186, 195, 120, 120, 195, 3, 0.629149
41, 2, bw, attraction, a-b-db, 9, 3, 2, 10, 114, 186, 195, 120, 120, 195, 1, 1.19492
41, 2, bw, attraction, a-b-da, 14, 1, 2, 11, 60, 135, 125, 56, 135, 60, 1, 1.04057
41, 2, bw, attraction, a-b-da, 14, 1, 2, 11, 60, 135, 125, 56, 135, 60, 2, 0.509448
41, 2, bw, attraction, a-b-db, 9, 2, 2, 12, 86, 157, 90, 165, 165, 90, 2, 0.69014
41, 2, bw, attraction, a-b-db, 9, 2, 2, 12, 86, 157, 90, 165, 165, 90, 1, 0.401649
41, 2, bw, attraction, a-b-db, 14, 2, 2, 13, 83, 153, 165, 90, 90, 165, 3, 0.591602
41, 2, bw, attraction, a-b-db, 14, 2, 2, 13, 83, 153, 165, 90, 90, 165, 1, 0.958552
41, 2, bw, filler, NA, 999, 999, 2, 14, 66, 170, 95, 92, 107, 144, 3, 0.39756
41, 2, bw, filler, NA, 999, 999, 2, 14, 66, 170, 95, 92, 107, 144, 2, 0.572774
41, 2, bw, attraction, a-b-da, 5, 2, 2, 15, 165, 90, 161, 88, 90, 165, 2, 0.883352
41, 2, bw, attraction, a-b-da, 5, 2, 2, 15, 165, 90, 161, 88, 90, 165, 3, 0.550849
41, 2, bw, attraction, a-b-da, 2, 2, 2, 16, 90, 165, 163, 89, 165, 90, 1, 0.774588
41, 2, bw, attraction, a-b-da, 2, 2, 2, 16, 90, 165, 163, 89, 165, 90, 2, 0.590384
41, 2, bw, filler, NA, 999, 999, 2, 17, 94, 116, 97, 194, 86, 135, 2, 0.700184
41, 2, bw, filler, NA, 999, 999, 2, 17, 94, 116, 97, 194, 86, 135, 1, 0.599239
41, 2, bw, attraction, a-b-db, 14, 3, 2, 18, 195, 120, 120, 195, 111, 181, 2, 0.748993
41, 2, bw, attraction, a-b-db, 14, 3, 2, 18, 195, 120, 120, 195, 111, 181, 1, 0.542128
41, 2, bw, attraction, a-b-da, 14, 3, 2, 19, 120, 195, 181, 111, 195, 120, 1, 0.893771
41, 2, bw, attraction, a-b-da, 14, 3, 2, 19, 120, 195, 181, 111, 195, 120, 2, 0.360867
41, 2, bw, attraction, a-b-da, 5, 1, 2, 20, 135, 60, 60, 135, 132, 58, 2, 0.879981
41, 2, bw, attraction, a-b-da, 5, 1, 2, 20, 135, 60, 60, 135, 132, 58, 1, 0.539712
41, 2, bw, attraction, a-b-da, 2, 3, 2, 21, 195, 120, 193, 119, 120, 195, 3, 0.811517
41, 2, bw, attraction, a-b-da, 2, 3, 2, 21, 195, 120, 193, 119, 120, 195, 2, 0.409857
41, 2, bw, attraction, a-b-da, 9, 3, 2, 22, 195, 120, 186, 114, 120, 195, 2, 0.871002
41, 2, bw, attraction, a-b-da, 9, 3, 2, 22, 195, 120, 186, 114, 120, 195, 3, 2.15469
41, 2, bw, attraction, a-b-da, 9, 2, 2, 23, 165, 90, 157, 86, 90, 165, 1, 1.30594
41, 2, bw, attraction, a-b-da, 9, 2, 2, 23, 165, 90, 157, 86, 90, 165, 2, 0.588183
41, 2, bw, filler, NA, 999, 999, 2, 24, 113, 71, 146, 94, 185, 72, 2, 0.994706
41, 2, bw, filler, NA, 999, 999, 2, 24, 113, 71, 146, 94, 185, 72, 1, 0.673634
41, 2, bw, attraction, a-b-db, 5, 2, 2, 25, 90, 165, 165, 90, 88, 161, 1, 0.844
41, 2, bw, attraction, a-b-db, 5, 2, 2, 25, 90, 165, 165, 90, 88, 161, 2, 0.569078
41, 2, bw, attraction, a-b-db, 2, 2, 2, 26, 89, 163, 90, 165, 165, 90, 2, 1.29615
41, 2, bw, attraction, a-b-db, 2, 2, 2, 26, 89, 163, 90, 165, 165, 90, 3, 1.26705
41, 2, bw, attraction, a-b-db, 9, 1, 2, 27, 60, 135, 135, 60, 57, 129, 1, 1.62205
41, 2, bw, attraction, a-b-db, 9, 1, 2, 27, 60, 135, 135, 60, 57, 129, 2, 0.57141
41, 2, bw, catch, NA, 999, 999, 2, 28, 189, 126, 134, 121, 60, 135, 1, 0.730507
41, 2, bw, catch, NA, 999, 999, 2, 28, 189, 126, 134, 121, 60, 135, 3, 0.588238
41, 2, bw, attraction, a-b-db, 14, 1, 2, 29, 60, 135, 135, 60, 56, 125, 1, 0.93057
41, 2, bw, attraction, a-b-db, 14, 1, 2, 29, 60, 135, 135, 60, 56, 125, 2, 0.700382
41, 2, bw, attraction, a-b-db, 5, 1, 2, 30, 58, 132, 135, 60, 60, 135, 3, 1.05406
41, 2, bw, attraction, a-b-db, 5, 1, 2, 30, 58, 132, 135, 60, 60, 135, 2, 0.562462
41, 2, bw, attraction, a-b-db, 2, 3, 2, 31, 120, 195, 119, 193, 195, 120, 2, 1.04147
41, 2, bw, attraction, a-b-db, 2, 3, 2, 31, 120, 195, 119, 193, 195, 120, 3, 0.406478
41, 2, bw, filler, NA, 999, 999, 2, 32, 166, 132, 84, 60, 168, 151, 3, 0.995694
41, 2, bw, filler, NA, 999, 999, 2, 32, 166, 132, 84, 60, 168, 151, 2, 1.05065
41, 2, bw, catch, NA, 999, 999, 2, 33, 131, 184, 68, 127, 108, 147, 1, 0.774213
41, 2, bw, catch, NA, 999, 999, 2, 33, 131, 184, 68, 127, 108, 147, 2, 0.613939
41, 2, bw, attraction, a-b-db, 2, 1, 2, 34, 135, 60, 60, 135, 59, 134, 2, 1.06707
41, 2, bw, attraction, a-b-db, 2, 1, 2, 34, 135, 60, 60, 135, 59, 134, 1, 0.599362
41, 2, bw, catch, NA, 999, 999, 2, 35, 90, 165, 127, 188, 123, 72, 2, 0.613127
41, 2, bw, catch, NA, 999, 999, 2, 35, 90, 165, 127, 188, 123, 72, 3, 0.835602
41, 2, bw, filler, NA, 999, 999, 2, 36, 126, 195, 119, 118, 117, 120, 1, 0.583897
41, 2, bw, filler, NA, 999, 999, 2, 36, 126, 195, 119, 118, 117, 120, 2, 0.711718
41, 2, bw, attraction, a-b-da, 14, 2, 2, 37, 165, 90, 90, 165, 153, 83, 2, 1.04871
41, 2, bw, attraction, a-b-da, 14, 2, 2, 37, 165, 90, 90, 165, 153, 83, 3, 0.701768
41, 2, bw, filler, NA, 999, 999, 3, 1, 124, 84, 116, 69, 80, 152, 3, 0.719484
41, 2, bw, filler, NA, 999, 999, 3, 1, 124, 84, 116, 69, 80, 152, 2, 0.59384
41, 2, bw, attraction, a-b-db, 5, 3, 3, 2, 195, 120, 120, 195, 117, 190, 2, 2.9917
41, 2, bw, attraction, a-b-db, 5, 3, 3, 2, 195, 120, 120, 195, 117, 190, 1, 0.718008
41, 2, bw, filler, NA, 999, 999, 3, 3, 98, 124, 163, 123, 183, 157, 3, 0.599142
41, 2, bw, filler, NA, 999, 999, 3, 3, 98, 124, 163, 123, 183, 157, 1, 0.494156
41, 2, bw, attraction, a-b-db, 5, 1, 3, 4, 60, 135, 58, 132, 135, 60, 1, 0.807863
41, 2, bw, attraction, a-b-db, 5, 1, 3, 4, 60, 135, 58, 132, 135, 60, 2, 0.982337
41, 2, bw, attraction, a-b-db, 9, 1, 3, 5, 60, 135, 135, 60, 57, 129, 1, 1.8047
41, 2, bw, attraction, a-b-db, 9, 1, 3, 5, 60, 135, 135, 60, 57, 129, 2, 0.578693
41, 2, bw, attraction, a-b-db, 2, 3, 3, 6, 120, 195, 195, 120, 119, 193, 3, 2.40913
41, 2, bw, attraction, a-b-db, 2, 3, 3, 6, 120, 195, 195, 120, 119, 193, 2, 0.518929
41, 2, bw, catch, NA, 999, 999, 3, 7, 168, 147, 97, 158, 101, 94, 1, 0.816043
41, 2, bw, catch, NA, 999, 999, 3, 7, 168, 147, 97, 158, 101, 94, 3, 0.566617
41, 2, bw, filler, NA, 999, 999, 3, 8, 162, 109, 109, 193, 56, 113, 2, 0.765631
41, 2, bw, filler, NA, 999, 999, 3, 8, 162, 109, 109, 193, 56, 113, 3, 0.766032
41, 2, bw, filler, NA, 999, 999, 3, 9, 144, 92, 108, 162, 67, 118, 2, 0.885079
41, 2, bw, filler, NA, 999, 999, 3, 9, 144, 92, 108, 162, 67, 118, 3, 0.520905
41, 2, bw, attraction, a-b-db, 14, 3, 3, 10, 111, 181, 195, 120, 120, 195, 3, 0.673937
41, 2, bw, attraction, a-b-db, 14, 3, 3, 10, 111, 181, 195, 120, 120, 195, 2, 1.21372
41, 2, bw, filler, NA, 999, 999, 3, 11, 105, 154, 122, 62, 158, 110, 3, 1.24253
41, 2, bw, filler, NA, 999, 999, 3, 11, 105, 154, 122, 62, 158, 110, 2, 0.583431
41, 2, bw, attraction, a-b-db, 5, 2, 3, 12, 88, 161, 165, 90, 90, 165, 2, 0.653906
41, 2, bw, attraction, a-b-db, 5, 2, 3, 12, 88, 161, 165, 90, 90, 165, 3, 1.23443
41, 2, bw, filler, NA, 999, 999, 3, 13, 64, 138, 175, 78, 138, 64, 2, 0.646521
41, 2, bw, filler, NA, 999, 999, 3, 13, 64, 138, 175, 78, 138, 64, 3, 0.675688
41, 2, bw, filler, NA, 999, 999, 3, 14, 130, 195, 131, 183, 122, 69, 2, 0.718005
41, 2, bw, filler, NA, 999, 999, 3, 14, 130, 195, 131, 183, 122, 69, 3, 0.600437
41, 2, bw, attraction, a-b-da, 5, 3, 3, 15, 195, 120, 120, 195, 190, 117, 1, 1.13426
41, 2, bw, attraction, a-b-da, 5, 3, 3, 15, 195, 120, 120, 195, 190, 117, 2, 0.815836
41, 2, bw, attraction, a-b-da, 9, 3, 3, 16, 186, 114, 120, 195, 195, 120, 2, 0.76484
41, 2, bw, attraction, a-b-da, 9, 3, 3, 16, 186, 114, 120, 195, 195, 120, 3, 0.613244
41, 2, bw, catch, NA, 999, 999, 3, 17, 70, 125, 158, 97, 194, 121, 3, 0.730322
41, 2, bw, catch, NA, 999, 999, 3, 17, 70, 125, 158, 97, 194, 121, 1, 0.60415
41, 2, bw, attraction, a-b-db, 14, 1, 3, 18, 60, 135, 56, 125, 135, 60, 2, 0.745796
41, 2, bw, attraction, a-b-db, 14, 1, 3, 18, 60, 135, 56, 125, 135, 60, 1, 1.09903
41, 2, bw, attraction, a-b-da, 2, 2, 3, 19, 165, 90, 163, 89, 90, 165, 3, 0.940493
41, 2, bw, attraction, a-b-da, 2, 2, 3, 19, 165, 90, 163, 89, 90, 165, 2, 0.44552
41, 2, bw, attraction, a-b-db, 9, 2, 3, 20, 90, 165, 86, 157, 165, 90, 2, 0.889299
41, 2, bw, attraction, a-b-db, 9, 2, 3, 20, 90, 165, 86, 157, 165, 90, 3, 0.508338
41, 2, bw, attraction, a-b-da, 2, 3, 3, 21, 120, 195, 195, 120, 193, 119, 2, 0.717399
41, 2, bw, attraction, a-b-da, 2, 3, 3, 21, 120, 195, 195, 120, 193, 119, 3, 0.495876
41, 2, bw, attraction, a-b-da, 5, 2, 3, 22, 161, 88, 90, 165, 165, 90, 2, 0.801638
41, 2, bw, attraction, a-b-da, 5, 2, 3, 22, 161, 88, 90, 165, 165, 90, 1, 1.39271
41, 2, bw, attraction, a-b-da, 14, 1, 3, 23, 60, 135, 125, 56, 135, 60, 2, 0.926262
41, 2, bw, attraction, a-b-da, 14, 1, 3, 23, 60, 135, 125, 56, 135, 60, 3, 0.607944
41, 2, bw, attraction, a-b-db, 14, 2, 3, 24, 83, 153, 165, 90, 90, 165, 3, 0.772961
41, 2, bw, attraction, a-b-db, 14, 2, 3, 24, 83, 153, 165, 90, 90, 165, 2, 0.404629
41, 2, bw, attraction, a-b-db, 2, 2, 3, 25, 90, 165, 165, 90, 89, 163, 2, 0.906508
41, 2, bw, attraction, a-b-db, 2, 2, 3, 25, 90, 165, 165, 90, 89, 163, 1, 2.10088
41, 2, bw, attraction, a-b-db, 9, 3, 3, 26, 120, 195, 195, 120, 114, 186, 2, 0.998198
41, 2, bw, attraction, a-b-db, 9, 3, 3, 26, 120, 195, 195, 120, 114, 186, 1, 0.661181
41, 2, bw, catch, NA, 999, 999, 3, 27, 114, 81, 178, 137, 102, 153, 2, 0.568184
41, 2, bw, catch, NA, 999, 999, 3, 27, 114, 81, 178, 137, 102, 153, 1, 0.672841
41, 2, bw, attraction, a-b-db, 2, 1, 3, 28, 135, 60, 59, 134, 60, 135, 3, 1.97906
41, 2, bw, attraction, a-b-db, 2, 1, 3, 28, 135, 60, 59, 134, 60, 135, 1, 0.890436
41, 2, bw, attraction, a-b-da, 2, 1, 3, 29, 134, 59, 135, 60, 60, 135, 1, 2.22015
41, 2, bw, attraction, a-b-da, 2, 1, 3, 29, 134, 59, 135, 60, 60, 135, 2, 1.16935
41, 2, bw, attraction, a-b-da, 9, 1, 3, 30, 60, 135, 129, 57, 135, 60, 2, 0.680231
41, 2, bw, attraction, a-b-da, 9, 1, 3, 30, 60, 135, 129, 57, 135, 60, 3, 0.932105
41, 2, bw, attraction, a-b-da, 14, 2, 3, 31, 165, 90, 153, 83, 90, 165, 1, 0.964343
41, 2, bw, attraction, a-b-da, 14, 2, 3, 31, 165, 90, 153, 83, 90, 165, 2, 1.43678
41, 2, bw, filler, NA, 999, 999, 3, 32, 122, 104, 98, 173, 160, 109, 2, 0.840893
41, 2, bw, filler, NA, 999, 999, 3, 32, 122, 104, 98, 173, 160, 109, 1, 0.581916
41, 2, bw, attraction, a-b-da, 5, 1, 3, 33, 60, 135, 132, 58, 135, 60, 1, 1.24437
41, 2, bw, attraction, a-b-da, 5, 1, 3, 33, 60, 135, 132, 58, 135, 60, 2, 0.497257
41, 2, bw, filler, NA, 999, 999, 3, 34, 114, 161, 129, 76, 155, 191, 3, 0.771065
41, 2, bw, filler, NA, 999, 999, 3, 34, 114, 161, 129, 76, 155, 191, 2, 0.650788
41, 2, bw, filler, NA, 999, 999, 3, 35, 188, 59, 195, 147, 186, 114, 2, 1.20653
41, 2, bw, filler, NA, 999, 999, 3, 35, 188, 59, 195, 147, 186, 114, 1, 1.48474
41, 2, bw, attraction, a-b-da, 14, 3, 3, 36, 181, 111, 195, 120, 120, 195, 3, 3.15902
41, 2, bw, attraction, a-b-da, 14, 3, 3, 36, 181, 111, 195, 120, 120, 195, 1, 0.902626
41, 2, bw, attraction, a-b-da, 9, 2, 3, 37, 165, 90, 90, 165, 157, 86, 1, 0.864203
41, 2, bw, attraction, a-b-da, 9, 2, 3, 37, 165, 90, 90, 165, 157, 86, 2, 0.380597
41, 2, bw, attraction, a-b-da, 9, 1, 4, 1, 129, 57, 60, 135, 135, 60, 2, 0.827096
41, 2, bw, attraction, a-b-da, 9, 1, 4, 1, 129, 57, 60, 135, 135, 60, 1, 0.560787
41, 2, bw, attraction, a-b-da, 14, 1, 4, 2, 125, 56, 60, 135, 135, 60, 3, 1.43994
41, 2, bw, attraction, a-b-da, 14, 1, 4, 2, 125, 56, 60, 135, 135, 60, 1, 1.00475
41, 2, bw, attraction, a-b-db, 9, 1, 4, 3, 135, 60, 57, 129, 60, 135, 1, 1.93835
41, 2, bw, attraction, a-b-db, 9, 1, 4, 3, 135, 60, 57, 129, 60, 135, 2, 0.707089
41, 2, bw, attraction, a-b-da, 2, 3, 4, 4, 195, 120, 193, 119, 120, 195, 2, 0.8761
41, 2, bw, attraction, a-b-da, 2, 3, 4, 4, 195, 120, 193, 119, 120, 195, 3, 0.583858
41, 2, bw, filler, NA, 999, 999, 4, 5, 81, 153, 65, 100, 167, 142, 3, 1.15022
41, 2, bw, filler, NA, 999, 999, 4, 5, 81, 153, 65, 100, 167, 142, 2, 0.535203
41, 2, bw, catch, NA, 999, 999, 4, 6, 102, 93, 166, 149, 125, 130, 2, 0.727674
41, 2, bw, catch, NA, 999, 999, 4, 6, 102, 93, 166, 149, 125, 130, 1, 0.649405
41, 2, bw, filler, NA, 999, 999, 4, 7, 108, 138, 132, 135, 119, 134, 2, 3.87712
41, 2, bw, filler, NA, 999, 999, 4, 7, 108, 138, 132, 135, 119, 134, 1, 0.495874
41, 2, bw, attraction, a-b-db, 5, 3, 4, 8, 195, 120, 117, 190, 120, 195, 2, 1.04965
41, 2, bw, attraction, a-b-db, 5, 3, 4, 8, 195, 120, 117, 190, 120, 195, 1, 0.526678
41, 2, bw, filler, NA, 999, 999, 4, 9, 174, 98, 173, 59, 61, 188, 1, 2.10308
41, 2, bw, filler, NA, 999, 999, 4, 9, 174, 98, 173, 59, 61, 188, 2, 0.449745
41, 2, bw, filler, NA, 999, 999, 4, 10, 69, 166, 67, 91, 157, 71, 1, 1.6456
41, 2, bw, filler, NA, 999, 999, 4, 10, 69, 166, 67, 91, 157, 71, 2, 1.09849
41, 2, bw, attraction, a-b-da, 5, 1, 4, 11, 132, 58, 60, 135, 135, 60, 3, 4.33995
41, 2, bw, attraction, a-b-da, 5, 1, 4, 11, 132, 58, 60, 135, 135, 60, 1, 0.475922
41, 2, bw, attraction, a-b-db, 5, 2, 4, 12, 90, 165, 165, 90, 88, 161, 1, 0.942273
41, 2, bw, attraction, a-b-db, 5, 2, 4, 12, 90, 165, 165, 90, 88, 161, 2, 0.775429
41, 2, bw, attraction, a-b-db, 9, 2, 4, 13, 90, 165, 165, 90, 86, 157, 2, 0.797642
41, 2, bw, attraction, a-b-db, 9, 2, 4, 13, 90, 165, 165, 90, 86, 157, 1, 0.588806
41, 2, bw, attraction, a-b-da, 5, 2, 4, 14, 165, 90, 161, 88, 90, 165, 1, 0.683302
41, 2, bw, attraction, a-b-da, 5, 2, 4, 14, 165, 90, 161, 88, 90, 165, 2, 0.503083
41, 2, bw, attraction, a-b-db, 2, 3, 4, 15, 195, 120, 119, 193, 120, 195, 2, 1.17985
41, 2, bw, attraction, a-b-db, 2, 3, 4, 15, 195, 120, 119, 193, 120, 195, 1, 0.480482
41, 2, bw, attraction, a-b-da, 5, 3, 4, 16, 120, 195, 190, 117, 195, 120, 2, 0.842791
41, 2, bw, attraction, a-b-da, 5, 3, 4, 16, 120, 195, 190, 117, 195, 120, 3, 0.415773
41, 2, bw, catch, NA, 999, 999, 4, 17, 102, 153, 143, 172, 88, 107, 2, 0.581012
41, 2, bw, catch, NA, 999, 999, 4, 17, 102, 153, 143, 172, 88, 107, 3, 0.37281
41, 2, bw, filler, NA, 999, 999, 4, 18, 109, 139, 180, 144, 82, 173, 2, 0.563269
41, 2, bw, filler, NA, 999, 999, 4, 18, 109, 139, 180, 144, 82, 173, 3, 0.571785
41, 2, bw, attraction, a-b-db, 5, 1, 4, 19, 58, 132, 135, 60, 60, 135, 2, 0.60288
41, 2, bw, attraction, a-b-db, 5, 1, 4, 19, 58, 132, 135, 60, 60, 135, 1, 1.0253
41, 2, bw, catch, NA, 999, 999, 4, 20, 160, 95, 103, 92, 175, 140, 3, 1.10169
41, 2, bw, catch, NA, 999, 999, 4, 20, 160, 95, 103, 92, 175, 140, 2, 0.56056
41, 2, bw, attraction, a-b-da, 9, 2, 4, 21, 165, 90, 90, 165, 157, 86, 2, 1.30364
41, 2, bw, attraction, a-b-da, 9, 2, 4, 21, 165, 90, 90, 165, 157, 86, 1, 0.482574
41, 2, bw, filler, NA, 999, 999, 4, 22, 88, 133, 129, 154, 140, 165, 3, 0.7892
41, 2, bw, filler, NA, 999, 999, 4, 22, 88, 133, 129, 154, 140, 165, 1, 0.515989
41, 2, bw, attraction, a-b-db, 2, 1, 4, 23, 59, 134, 60, 135, 135, 60, 2, 0.765189
41, 2, bw, attraction, a-b-db, 2, 1, 4, 23, 59, 134, 60, 135, 135, 60, 3, 0.397604
41, 2, bw, attraction, a-b-da, 9, 3, 4, 24, 186, 114, 120, 195, 195, 120, 2, 0.739421
41, 2, bw, attraction, a-b-da, 9, 3, 4, 24, 186, 114, 120, 195, 195, 120, 1, 0.996495
41, 2, bw, attraction, a-b-da, 14, 2, 4, 25, 90, 165, 153, 83, 165, 90, 1, 0.842276
41, 2, bw, attraction, a-b-da, 14, 2, 4, 25, 90, 165, 153, 83, 165, 90, 2, 0.471146
41, 2, bw, attraction, a-b-db, 2, 2, 4, 26, 165, 90, 89, 163, 90, 165, 3, 0.962482
41, 2, bw, attraction, a-b-db, 2, 2, 4, 26, 165, 90, 89, 163, 90, 165, 2, 0.754561
41, 2, bw, attraction, a-b-da, 2, 1, 4, 27, 134, 59, 135, 60, 60, 135, 2, 0.946369
41, 2, bw, attraction, a-b-da, 2, 1, 4, 27, 134, 59, 135, 60, 60, 135, 3, 0.427251
41, 2, bw, attraction, a-b-db, 9, 3, 4, 28, 195, 120, 120, 195, 114, 186, 2, 0.527802
41, 2, bw, attraction, a-b-db, 9, 3, 4, 28, 195, 120, 120, 195, 114, 186, 3, 0.897666
41, 2, bw, filler, NA, 999, 999, 4, 29, 127, 106, 194, 89, 116, 173, 3, 1.3792
41, 2, bw, filler, NA, 999, 999, 4, 29, 127, 106, 194, 89, 116, 173, 1, 1.37894
41, 2, bw, attraction, a-b-db, 14, 2, 4, 30, 83, 153, 90, 165, 165, 90, 2, 0.601004
41, 2, bw, attraction, a-b-db, 14, 2, 4, 30, 83, 153, 90, 165, 165, 90, 3, 0.576237
41, 2, bw, attraction, a-b-da, 14, 3, 4, 31, 181, 111, 195, 120, 120, 195, 2, 0.574488
41, 2, bw, attraction, a-b-da, 14, 3, 4, 31, 181, 111, 195, 120, 120, 195, 1, 0.590338
41, 2, bw, filler, NA, 999, 999, 4, 32, 63, 99, 141, 130, 83, 131, 2, 0.730534
41, 2, bw, filler, NA, 999, 999, 4, 32, 63, 99, 141, 130, 83, 131, 1, 1.49394
41, 2, bw, attraction, a-b-da, 2, 2, 4, 33, 90, 165, 163, 89, 165, 90, 2, 1.35933
41, 2, bw, attraction, a-b-da, 2, 2, 4, 33, 90, 165, 163, 89, 165, 90, 3, 0.783607
41, 2, bw, attraction, a-b-db, 14, 1, 4, 34, 56, 125, 135, 60, 60, 135, 2, 0.542
41, 2, bw, attraction, a-b-db, 14, 1, 4, 34, 56, 125, 135, 60, 60, 135, 1, 0.583017
41, 2, bw, attraction, a-b-db, 14, 3, 4, 35, 111, 181, 195, 120, 120, 195, 2, 0.629401
41, 2, bw, attraction, a-b-db, 14, 3, 4, 35, 111, 181, 195, 120, 120, 195, 1, 0.675304
41, 2, bw, filler, NA, 999, 999, 4, 36, 190, 91, 91, 176, 83, 188, 2, 1.41366
41, 2, bw, filler, NA, 999, 999, 4, 36, 190, 91, 91, 176, 83, 188, 1, 0.379836
41, 2, bw, filler, NA, 999, 999, 4, 37, 94, 71, 148, 75, 124, 185, 3, 0.490242
41, 2, bw, filler, NA, 999, 999, 4, 37, 94, 71, 148, 75, 124, 185, 1, 0.557458
41, 2, bw, filler, NA, 999, 999, 5, 1, 170, 119, 159, 187, 74, 171, 2, 9.01119
41, 2, bw, filler, NA, 999, 999, 5, 1, 170, 119, 159, 187, 74, 171, 3, 1.01503
41, 2, bw, attraction, a-b-db, 14, 2, 5, 2, 83, 153, 90, 165, 165, 90, 2, 0.787996
41, 2, bw, attraction, a-b-db, 14, 2, 5, 2, 83, 153, 90, 165, 165, 90, 1, 0.435074
41, 2, bw, filler, NA, 999, 999, 5, 3, 161, 117, 151, 128, 161, 177, 3, 0.559454
41, 2, bw, filler, NA, 999, 999, 5, 3, 161, 117, 151, 128, 161, 177, 2, 0.503939
41, 2, bw, attraction, a-b-db, 2, 1, 5, 4, 59, 134, 135, 60, 60, 135, 2, 0.649687
41, 2, bw, attraction, a-b-db, 2, 1, 5, 4, 59, 134, 135, 60, 60, 135, 1, 0.702998
41, 2, bw, attraction, a-b-da, 9, 3, 5, 5, 195, 120, 120, 195, 186, 114, 2, 0.600547
41, 2, bw, attraction, a-b-da, 9, 3, 5, 5, 195, 120, 120, 195, 186, 114, 3, 0.887806
41, 2, bw, filler, NA, 999, 999, 5, 6, 189, 131, 188, 171, 118, 121, 2, 0.449978
41, 2, bw, filler, NA, 999, 999, 5, 6, 189, 131, 188, 171, 118, 121, 3, 0.527205
41, 2, bw, attraction, a-b-db, 9, 1, 5, 7, 135, 60, 57, 129, 60, 135, 3, 1.03164
41, 2, bw, attraction, a-b-db, 9, 1, 5, 7, 135, 60, 57, 129, 60, 135, 2, 0.51727
41, 2, bw, filler, NA, 999, 999, 5, 8, 113, 66, 78, 104, 178, 142, 3, 0.558406
41, 2, bw, filler, NA, 999, 999, 5, 8, 113, 66, 78, 104, 178, 142, 2, 0.52696
41, 2, bw, attraction, a-b-da, 14, 3, 5, 9, 120, 195, 195, 120, 181, 111, 1, 1.90325
41, 2, bw, attraction, a-b-da, 14, 3, 5, 9, 120, 195, 195, 120, 181, 111, 2, 0.474114
41, 2, bw, attraction, a-b-db, 9, 2, 5, 10, 165, 90, 90, 165, 86, 157, 2, 0.692558
41, 2, bw, attraction, a-b-db, 9, 2, 5, 10, 165, 90, 90, 165, 86, 157, 1, 0.423548
41, 2, bw, filler, NA, 999, 999, 5, 11, 166, 135, 195, 164, 62, 80, 2, 0.444029
41, 2, bw, filler, NA, 999, 999, 5, 11, 166, 135, 195, 164, 62, 80, 3, 0.569251
41, 2, bw, attraction, a-b-da, 2, 1, 5, 12, 135, 60, 60, 135, 134, 59, 1, 0.888313
41, 2, bw, attraction, a-b-da, 2, 1, 5, 12, 135, 60, 60, 135, 134, 59, 2, 0.611361
41, 2, bw, filler, NA, 999, 999, 5, 13, 195, 176, 193, 117, 147, 144, 1, 0.744412
41, 2, bw, filler, NA, 999, 999, 5, 13, 195, 176, 193, 117, 147, 144, 2, 0.78555
41, 2, bw, attraction, a-b-da, 2, 3, 5, 14, 195, 120, 193, 119, 120, 195, 3, 0.679841
41, 2, bw, attraction, a-b-da, 2, 3, 5, 14, 195, 120, 193, 119, 120, 195, 2, 0.403598
41, 2, bw, attraction, a-b-db, 5, 3, 5, 15, 120, 195, 117, 190, 195, 120, 2, 0.729425
41, 2, bw, attraction, a-b-db, 5, 3, 5, 15, 120, 195, 117, 190, 195, 120, 1, 0.371173
41, 2, bw, filler, NA, 999, 999, 5, 16, 146, 83, 181, 89, 152, 111, 3, 0.402325
41, 2, bw, filler, NA, 999, 999, 5, 16, 146, 83, 181, 89, 152, 111, 1, 0.586323
41, 2, bw, filler, NA, 999, 999, 5, 17, 118, 65, 162, 90, 117, 158, 3, 0.440066
41, 2, bw, filler, NA, 999, 999, 5, 17, 118, 65, 162, 90, 117, 158, 1, 0.557135
41, 2, bw, attraction, a-b-da, 2, 2, 5, 18, 165, 90, 163, 89, 90, 165, 3, 1.2362
41, 2, bw, attraction, a-b-da, 2, 2, 5, 18, 165, 90, 163, 89, 90, 165, 1, 0.601806
41, 2, bw, attraction, a-b-da, 14, 2, 5, 19, 90, 165, 153, 83, 165, 90, 1, 0.743595
41, 2, bw, attraction, a-b-da, 14, 2, 5, 19, 90, 165, 153, 83, 165, 90, 2, 0.544674
41, 2, bw, catch, NA, 999, 999, 5, 20, 89, 106, 130, 125, 193, 122, 3, 0.584343
41, 2, bw, catch, NA, 999, 999, 5, 20, 89, 106, 130, 125, 193, 122, 1, 0.616186
41, 2, bw, attraction, a-b-db, 2, 3, 5, 21, 119, 193, 120, 195, 195, 120, 2, 0.693239
41, 2, bw, attraction, a-b-db, 2, 3, 5, 21, 119, 193, 120, 195, 195, 120, 3, 0.424337
41, 2, bw, attraction, a-b-db, 2, 2, 5, 22, 89, 163, 165, 90, 90, 165, 2, 0.924924
41, 2, bw, attraction, a-b-db, 2, 2, 5, 22, 89, 163, 165, 90, 90, 165, 1, 0.60655
41, 2, bw, attraction, a-b-db, 14, 3, 5, 23, 111, 181, 195, 120, 120, 195, 3, 0.523649
41, 2, bw, attraction, a-b-db, 14, 3, 5, 23, 111, 181, 195, 120, 120, 195, 1, 0.837408
41, 2, bw, attraction, a-b-db, 5, 2, 5, 24, 88, 161, 90, 165, 165, 90, 2, 1.20984
41, 2, bw, attraction, a-b-db, 5, 2, 5, 24, 88, 161, 90, 165, 165, 90, 1, 0.896014
41, 2, bw, attraction, a-b-da, 14, 1, 5, 25, 135, 60, 60, 135, 125, 56, 2, 1.13765
41, 2, bw, attraction, a-b-da, 14, 1, 5, 25, 135, 60, 60, 135, 125, 56, 3, 0.546618
41, 2, bw, attraction, a-b-da, 5, 2, 5, 26, 161, 88, 90, 165, 165, 90, 2, 0.61841
41, 2, bw, attraction, a-b-da, 5, 2, 5, 26, 161, 88, 90, 165, 165, 90, 1, 1.49683
41, 2, bw, attraction, a-b-db, 9, 3, 5, 27, 120, 195, 195, 120, 114, 186, 2, 1.04258
41, 2, bw, attraction, a-b-db, 9, 3, 5, 27, 120, 195, 195, 120, 114, 186, 3, 0.455307
41, 2, bw, catch, NA, 999, 999, 5, 28, 151, 104, 132, 63, 130, 185, 3, 1.37112
41, 2, bw, catch, NA, 999, 999, 5, 28, 151, 104, 132, 63, 130, 185, 2, 0.770625
41, 2, bw, attraction, a-b-da, 9, 2, 5, 29, 90, 165, 157, 86, 165, 90, 2, 1.96964
41, 2, bw, attraction, a-b-da, 9, 2, 5, 29, 90, 165, 157, 86, 165, 90, 1, 1.08168
41, 2, bw, catch, NA, 999, 999, 5, 30, 98, 97, 109, 146, 189, 126, 3, 0.852061
41, 2, bw, catch, NA, 999, 999, 5, 30, 98, 97, 109, 146, 189, 126, 1, 0.513011
41, 2, bw, attraction, a-b-da, 9, 1, 5, 31, 129, 57, 135, 60, 60, 135, 2, 2.9701
41, 2, bw, attraction, a-b-da, 9, 1, 5, 31, 129, 57, 135, 60, 60, 135, 1, 0.4498
41, 2, bw, attraction, a-b-db, 14, 1, 5, 32, 135, 60, 56, 125, 60, 135, 3, 1.30972
41, 2, bw, attraction, a-b-db, 14, 1, 5, 32, 135, 60, 56, 125, 60, 135, 2, 0.823908
41, 2, bw, attraction, a-b-da, 5, 3, 5, 33, 195, 120, 120, 195, 190, 117, 3, 2.76417
41, 2, bw, attraction, a-b-da, 5, 3, 5, 33, 195, 120, 120, 195, 190, 117, 1, 1.17201
41, 2, bw, filler, NA, 999, 999, 5, 34, 119, 71, 173, 193, 124, 175, 2, 0.666861
41, 2, bw, filler, NA, 999, 999, 5, 34, 119, 71, 173, 193, 124, 175, 1, 0.562672
41, 2, bw, attraction, a-b-da, 5, 1, 5, 35, 132, 58, 135, 60, 60, 135, 2, 0.558449
41, 2, bw, attraction, a-b-da, 5, 1, 5, 35, 132, 58, 135, 60, 60, 135, 3, 0.390932
41, 2, bw, filler, NA, 999, 999, 5, 36, 169, 98, 149, 109, 189, 151, 3, 0.820824
41, 2, bw, filler, NA, 999, 999, 5, 36, 169, 98, 149, 109, 189, 151, 1, 0.586411
41, 2, bw, attraction, a-b-db, 5, 1, 5, 37, 58, 132, 135, 60, 60, 135, 2, 0.688851
41, 2, bw, attraction, a-b-db, 5, 1, 5, 37, 58, 132, 135, 60, 60, 135, 1, 0.483979
41, 2, bw, attraction, a-b-db, 5, 3, 6, 1, 120, 195, 195, 120, 117, 190, 3, 1.01451
41, 2, bw, attraction, a-b-db, 5, 3, 6, 1, 120, 195, 195, 120, 117, 190, 2, 0.444743
41, 2, bw, attraction, a-b-db, 14, 3, 6, 2, 120, 195, 111, 181, 195, 120, 1, 1.43259
41, 2, bw, attraction, a-b-db, 14, 3, 6, 2, 120, 195, 111, 181, 195, 120, 2, 0.949997
41, 2, bw, attraction, a-b-da, 2, 2, 6, 3, 90, 165, 163, 89, 165, 90, 1, 0.989691
41, 2, bw, attraction, a-b-da, 2, 2, 6, 3, 90, 165, 163, 89, 165, 90, 2, 0.500703
41, 2, bw, attraction, a-b-db, 9, 1, 6, 4, 135, 60, 57, 129, 60, 135, 3, 1.11054
41, 2, bw, attraction, a-b-db, 9, 1, 6, 4, 135, 60, 57, 129, 60, 135, 2, 1.39276
41, 2, bw, attraction, a-b-db, 14, 2, 6, 5, 165, 90, 90, 165, 83, 153, 2, 1.90225
41, 2, bw, attraction, a-b-db, 14, 2, 6, 5, 165, 90, 90, 165, 83, 153, 3, 0.449012
41, 2, bw, attraction, a-b-da, 9, 1, 6, 6, 60, 135, 129, 57, 135, 60, 1, 0.65279
41, 2, bw, attraction, a-b-da, 9, 1, 6, 6, 60, 135, 129, 57, 135, 60, 2, 0.434014
41, 2, bw, attraction, a-b-db, 9, 2, 6, 7, 86, 157, 90, 165, 165, 90, 2, 1.50246
41, 2, bw, attraction, a-b-db, 9, 2, 6, 7, 86, 157, 90, 165, 165, 90, 1, 0.529224
41, 2, bw, attraction, a-b-db, 14, 1, 6, 8, 135, 60, 60, 135, 56, 125, 2, 0.825701
41, 2, bw, attraction, a-b-db, 14, 1, 6, 8, 135, 60, 60, 135, 56, 125, 3, 0.543494
41, 2, bw, attraction, a-b-da, 9, 3, 6, 9, 195, 120, 186, 114, 120, 195, 3, 1.27113
41, 2, bw, attraction, a-b-da, 9, 3, 6, 9, 195, 120, 186, 114, 120, 195, 2, 1.21873
41, 2, bw, attraction, a-b-da, 14, 3, 6, 10, 120, 195, 195, 120, 181, 111, 1, 1.41571
41, 2, bw, attraction, a-b-da, 14, 3, 6, 10, 120, 195, 195, 120, 181, 111, 3, 0.631981
41, 2, bw, attraction, a-b-da, 5, 3, 6, 11, 120, 195, 190, 117, 195, 120, 3, 3.32225
41, 2, bw, attraction, a-b-da, 5, 3, 6, 11, 120, 195, 190, 117, 195, 120, 2, 0.747166
41, 2, bw, attraction, a-b-da, 14, 2, 6, 12, 165, 90, 90, 165, 153, 83, 2, 1.37884
41, 2, bw, attraction, a-b-da, 14, 2, 6, 12, 165, 90, 90, 165, 153, 83, 3, 0.522405
41, 2, bw, filler, NA, 999, 999, 6, 13, 114, 113, 75, 175, 75, 136, 1, 2.09959
41, 2, bw, filler, NA, 999, 999, 6, 13, 114, 113, 75, 175, 75, 136, 3, 0.934299
41, 2, bw, attraction, a-b-db, 2, 2, 6, 14, 165, 90, 90, 165, 89, 163, 2, 1.45448
41, 2, bw, attraction, a-b-db, 2, 2, 6, 14, 165, 90, 90, 165, 89, 163, 1, 0.570688
41, 2, bw, attraction, a-b-db, 5, 2, 6, 15, 165, 90, 88, 161, 90, 165, 3, 0.753986
41, 2, bw, attraction, a-b-db, 5, 2, 6, 15, 165, 90, 88, 161, 90, 165, 2, 1.39418
41, 2, bw, filler, NA, 999, 999, 6, 16, 118, 80, 124, 65, 144, 113, 3, 0.543695
41, 2, bw, filler, NA, 999, 999, 6, 16, 118, 80, 124, 65, 144, 113, 2, 0.704825
41, 2, bw, attraction, a-b-da, 14, 1, 6, 17, 135, 60, 60, 135, 125, 56, 2, 0.898505
41, 2, bw, attraction, a-b-da, 14, 1, 6, 17, 135, 60, 60, 135, 125, 56, 3, 0.405568
41, 2, bw, attraction, a-b-db, 9, 3, 6, 18, 120, 195, 114, 186, 195, 120, 3, 0.995469
41, 2, bw, attraction, a-b-db, 9, 3, 6, 18, 120, 195, 114, 186, 195, 120, 2, 0.490371
41, 2, bw, attraction, a-b-da, 9, 2, 6, 19, 157, 86, 165, 90, 90, 165, 3, 1.05209
41, 2, bw, attraction, a-b-da, 9, 2, 6, 19, 157, 86, 165, 90, 90, 165, 1, 0.489132
41, 2, bw, attraction, a-b-da, 2, 3, 6, 20, 195, 120, 120, 195, 193, 119, 2, 0.555677
41, 2, bw, attraction, a-b-da, 2, 3, 6, 20, 195, 120, 120, 195, 193, 119, 1, 0.484104
41, 2, bw, filler, NA, 999, 999, 6, 21, 143, 186, 118, 77, 145, 172, 3, 0.542415
41, 2, bw, filler, NA, 999, 999, 6, 21, 143, 186, 118, 77, 145, 172, 2, 0.47174
41, 2, bw, attraction, a-b-da, 2, 1, 6, 22, 135, 60, 134, 59, 60, 135, 2, 0.802822
41, 2, bw, attraction, a-b-da, 2, 1, 6, 22, 135, 60, 134, 59, 60, 135, 3, 0.489859
41, 2, bw, attraction, a-b-db, 5, 1, 6, 23, 135, 60, 60, 135, 58, 132, 2, 0.747681
41, 2, bw, attraction, a-b-db, 5, 1, 6, 23, 135, 60, 60, 135, 58, 132, 3, 0.436725
41, 2, bw, filler, NA, 999, 999, 6, 24, 118, 110, 89, 190, 159, 93, 2, 0.697179
41, 2, bw, filler, NA, 999, 999, 6, 24, 118, 110, 89, 190, 159, 93, 1, 0.444229
41, 2, bw, attraction, a-b-da, 5, 1, 6, 25, 132, 58, 135, 60, 60, 135, 3, 0.752163
41, 2, bw, attraction, a-b-da, 5, 1, 6, 25, 132, 58, 135, 60, 60, 135, 1, 0.641275
41, 2, bw, catch, NA, 999, 999, 6, 26, 123, 192, 134, 61, 103, 152, 1, 0.676885
41, 2, bw, catch, NA, 999, 999, 6, 26, 123, 192, 134, 61, 103, 152, 2, 0.344713
41, 2, bw, filler, NA, 999, 999, 6, 27, 173, 119, 105, 129, 159, 157, 3, 0.592471
41, 2, bw, filler, NA, 999, 999, 6, 27, 173, 119, 105, 129, 159, 157, 2, 0.455588
41, 2, bw, filler, NA, 999, 999, 6, 28, 150, 128, 130, 158, 83, 63, 2, 0.659484
41, 2, bw, filler, NA, 999, 999, 6, 28, 150, 128, 130, 158, 83, 63, 3, 0.463942
41, 2, bw, catch, NA, 999, 999, 6, 29, 162, 93, 195, 120, 80, 115, 2, 0.658989
41, 2, bw, catch, NA, 999, 999, 6, 29, 162, 93, 195, 120, 80, 115, 3, 0.367444
41, 2, bw, filler, NA, 999, 999, 6, 30, 60, 169, 173, 163, 131, 63, 2, 0.790534
41, 2, bw, filler, NA, 999, 999, 6, 30, 60, 169, 173, 163, 131, 63, 3, 0.525628
41, 2, bw, attraction, a-b-db, 2, 1, 6, 31, 59, 134, 135, 60, 60, 135, 2, 0.750028
41, 2, bw, attraction, a-b-db, 2, 1, 6, 31, 59, 134, 135, 60, 60, 135, 1, 0.759117
41, 2, bw, attraction, a-b-da, 5, 2, 6, 32, 161, 88, 165, 90, 90, 165, 2, 0.574217
41, 2, bw, attraction, a-b-da, 5, 2, 6, 32, 161, 88, 165, 90, 90, 165, 1, 1.08724
41, 2, bw, filler, NA, 999, 999, 6, 33, 137, 183, 167, 102, 188, 156, 3, 0.6242
41, 2, bw, filler, NA, 999, 999, 6, 33, 137, 183, 167, 102, 188, 156, 2, 0.774005
41, 2, bw, filler, NA, 999, 999, 6, 34, 127, 192, 195, 107, 77, 158, 2, 0.660377
41, 2, bw, filler, NA, 999, 999, 6, 34, 127, 192, 195, 107, 77, 158, 3, 0.608834
41, 2, bw, catch, NA, 999, 999, 6, 35, 135, 180, 124, 131, 71, 124, 1, 0.82184
41, 2, bw, catch, NA, 999, 999, 6, 35, 135, 180, 124, 131, 71, 124, 3, 0.475589
41, 2, bw, filler, NA, 999, 999, 6, 36, 127, 97, 117, 188, 140, 67, 2, 0.71
41, 2, bw, filler, NA, 999, 999, 6, 36, 127, 97, 117, 188, 140, 67, 3, 0.768568
41, 2, bw, attraction, a-b-db, 2, 3, 6, 37, 120, 195, 195, 120, 119, 193, 3, 1.00748
41, 2, bw, attraction, a-b-db, 2, 3, 6, 37, 120, 195, 195, 120, 119, 193, 2, 0.893896
41, 2, bw, filler, NA, 999, 999, 7, 1, 147, 126, 72, 140, 106, 107, 1, 0.815517
41, 2, bw, filler, NA, 999, 999, 7, 1, 147, 126, 72, 140, 106, 107, 2, 0.533951
41, 2, bw, attraction, a-b-da, 14, 1, 7, 2, 60, 135, 125, 56, 135, 60, 1, 1.48632
41, 2, bw, attraction, a-b-da, 14, 1, 7, 2, 60, 135, 125, 56, 135, 60, 2, 0.569855
41, 2, bw, attraction, a-b-db, 14, 3, 7, 3, 120, 195, 111, 181, 195, 120, 3, 1.23295
41, 2, bw, attraction, a-b-db, 14, 3, 7, 3, 120, 195, 111, 181, 195, 120, 2, 0.430537
41, 2, bw, attraction, a-b-db, 5, 2, 7, 4, 90, 165, 165, 90, 88, 161, 1, 3.23495
41, 2, bw, attraction, a-b-db, 5, 2, 7, 4, 90, 165, 165, 90, 88, 161, 3, 0.559963
41, 2, bw, filler, NA, 999, 999, 7, 5, 89, 70, 176, 117, 65, 126, 2, 0.895055
41, 2, bw, filler, NA, 999, 999, 7, 5, 89, 70, 176, 117, 65, 126, 1, 1.13805
41, 2, bw, catch, NA, 999, 999, 7, 6, 185, 130, 156, 99, 91, 104, 1, 0.986397
41, 2, bw, catch, NA, 999, 999, 7, 6, 185, 130, 156, 99, 91, 104, 3, 0.594012
41, 2, bw, filler, NA, 999, 999, 7, 7, 175, 159, 122, 175, 139, 120, 1, 1.07973
41, 2, bw, filler, NA, 999, 999, 7, 7, 175, 159, 122, 175, 139, 120, 3, 0.875413
41, 2, bw, attraction, a-b-db, 2, 3, 7, 8, 120, 195, 195, 120, 119, 193, 3, 0.685752
41, 2, bw, attraction, a-b-db, 2, 3, 7, 8, 120, 195, 195, 120, 119, 193, 1, 0.449481
41, 2, bw, attraction, a-b-db, 2, 1, 7, 9, 135, 60, 59, 134, 60, 135, 3, 1.14932
41, 2, bw, attraction, a-b-db, 2, 1, 7, 9, 135, 60, 59, 134, 60, 135, 1, 0.782256
41, 2, bw, attraction, a-b-da, 5, 3, 7, 10, 190, 117, 195, 120, 120, 195, 3, 0.77259
41, 2, bw, attraction, a-b-da, 5, 3, 7, 10, 190, 117, 195, 120, 120, 195, 2, 0.724308
41, 2, bw, attraction, a-b-da, 14, 3, 7, 11, 120, 195, 195, 120, 181, 111, 2, 0.54886
41, 2, bw, attraction, a-b-da, 14, 3, 7, 11, 120, 195, 195, 120, 181, 111, 3, 0.389824
41, 2, bw, filler, NA, 999, 999, 7, 12, 112, 119, 154, 120, 127, 57, 2, 0.723768
41, 2, bw, filler, NA, 999, 999, 7, 12, 112, 119, 154, 120, 127, 57, 1, 0.36553
41, 2, bw, attraction, a-b-da, 2, 3, 7, 13, 195, 120, 193, 119, 120, 195, 3, 0.836666
41, 2, bw, attraction, a-b-da, 2, 3, 7, 13, 195, 120, 193, 119, 120, 195, 1, 0.457588
41, 2, bw, attraction, a-b-db, 9, 1, 7, 14, 135, 60, 60, 135, 57, 129, 2, 0.740756
41, 2, bw, attraction, a-b-db, 9, 1, 7, 14, 135, 60, 60, 135, 57, 129, 1, 0.7338
41, 2, bw, catch, NA, 999, 999, 7, 15, 139, 116, 94, 101, 175, 140, 3, 0.582308
41, 2, bw, catch, NA, 999, 999, 7, 15, 139, 116, 94, 101, 175, 140, 2, 0.390103
41, 2, bw, attraction, a-b-db, 9, 3, 7, 16, 120, 195, 195, 120, 114, 186, 3, 0.947778
41, 2, bw, attraction, a-b-db, 9, 3, 7, 16, 120, 195, 195, 120, 114, 186, 2, 0.388813
41, 2, bw, attraction, a-b-da, 9, 1, 7, 17, 60, 135, 135, 60, 129, 57, 2, 0.827302
41, 2, bw, attraction, a-b-da, 9, 1, 7, 17, 60, 135, 135, 60, 129, 57, 3, 0.921065
41, 2, bw, attraction, a-b-db, 14, 1, 7, 18, 135, 60, 56, 125, 60, 135, 1, 0.769987
41, 2, bw, attraction, a-b-db, 14, 1, 7, 18, 135, 60, 56, 125, 60, 135, 2, 0.458417
41, 2, bw, filler, NA, 999, 999, 7, 19, 96, 96, 85, 190, 88, 173, 2, 0.941513
41, 2, bw, filler, NA, 999, 999, 7, 19, 96, 96, 85, 190, 88, 173, 1, 0.510569
41, 2, bw, attraction, a-b-db, 9, 2, 7, 20, 165, 90, 86, 157, 90, 165, 3, 0.89559
41, 2, bw, attraction, a-b-db, 9, 2, 7, 20, 165, 90, 86, 157, 90, 165, 2, 0.786792
41, 2, bw, attraction, a-b-da, 14, 2, 7, 21, 90, 165, 153, 83, 165, 90, 1, 1.63302
41, 2, bw, attraction, a-b-da, 14, 2, 7, 21, 90, 165, 153, 83, 165, 90, 2, 0.494519
41, 2, bw, filler, NA, 999, 999, 7, 22, 143, 149, 146, 112, 145, 81, 1, 0.528286
41, 2, bw, filler, NA, 999, 999, 7, 22, 143, 149, 146, 112, 145, 81, 2, 0.498068
41, 2, bw, filler, NA, 999, 999, 7, 23, 172, 121, 121, 156, 89, 62, 1, 0.747872
41, 2, bw, filler, NA, 999, 999, 7, 23, 172, 121, 121, 156, 89, 62, 3, 0.940911
41, 2, bw, attraction, a-b-db, 2, 2, 7, 24, 89, 163, 165, 90, 90, 165, 3, 0.79658
41, 2, bw, attraction, a-b-db, 2, 2, 7, 24, 89, 163, 165, 90, 90, 165, 2, 0.419662
41, 2, bw, attraction, a-b-db, 5, 3, 7, 25, 120, 195, 195, 120, 117, 190, 3, 0.544907
41, 2, bw, attraction, a-b-db, 5, 3, 7, 25, 120, 195, 195, 120, 117, 190, 1, 0.99393
41, 2, bw, attraction, a-b-da, 5, 1, 7, 26, 60, 135, 135, 60, 132, 58, 2, 0.519548
41, 2, bw, attraction, a-b-da, 5, 1, 7, 26, 60, 135, 135, 60, 132, 58, 1, 0.337389
41, 2, bw, attraction, a-b-da, 5, 2, 7, 27, 165, 90, 90, 165, 161, 88, 2, 0.641908
41, 2, bw, attraction, a-b-da, 5, 2, 7, 27, 165, 90, 90, 165, 161, 88, 1, 0.391024
41, 2, bw, attraction, a-b-da, 2, 1, 7, 28, 134, 59, 135, 60, 60, 135, 3, 0.620881
41, 2, bw, attraction, a-b-da, 2, 1, 7, 28, 134, 59, 135, 60, 60, 135, 2, 0.378587
41, 2, bw, attraction, a-b-db, 5, 1, 7, 29, 60, 135, 58, 132, 135, 60, 1, 1.06508
41, 2, bw, attraction, a-b-db, 5, 1, 7, 29, 60, 135, 58, 132, 135, 60, 2, 0.389411
41, 2, bw, attraction, a-b-db, 14, 2, 7, 30, 165, 90, 90, 165, 83, 153, 2, 2.35522
41, 2, bw, attraction, a-b-db, 14, 2, 7, 30, 165, 90, 90, 165, 83, 153, 3, 0.403149
41, 2, bw, catch, NA, 999, 999, 7, 31, 165, 90, 120, 195, 117, 78, 2, 2.07294
41, 2, bw, catch, NA, 999, 999, 7, 31, 165, 90, 120, 195, 117, 78, 3, 0.388247
41, 2, bw, filler, NA, 999, 999, 7, 32, 143, 59, 63, 75, 140, 111, 3, 0.946751
41, 2, bw, filler, NA, 999, 999, 7, 32, 143, 59, 63, 75, 140, 111, 2, 0.395712
41, 2, bw, filler, NA, 999, 999, 7, 33, 160, 75, 132, 136, 177, 74, 2, 0.609582
41, 2, bw, filler, NA, 999, 999, 7, 33, 160, 75, 132, 136, 177, 74, 1, 0.432028
41, 2, bw, attraction, a-b-da, 9, 3, 7, 34, 195, 120, 120, 195, 186, 114, 2, 0.476445
41, 2, bw, attraction, a-b-da, 9, 3, 7, 34, 195, 120, 120, 195, 186, 114, 3, 0.441266
41, 2, bw, filler, NA, 999, 999, 7, 35, 149, 86, 184, 97, 128, 83, 2, 1.34812
41, 2, bw, filler, NA, 999, 999, 7, 35, 149, 86, 184, 97, 128, 83, 3, 0.373018
41, 2, bw, attraction, a-b-da, 9, 2, 7, 36, 165, 90, 157, 86, 90, 165, 3, 1.38754
41, 2, bw, attraction, a-b-da, 9, 2, 7, 36, 165, 90, 157, 86, 90, 165, 2, 0.682339
41, 2, bw, attraction, a-b-da, 2, 2, 7, 37, 90, 165, 165, 90, 163, 89, 2, 0.60471
41, 2, bw, attraction, a-b-da, 2, 2, 7, 37, 90, 165, 165, 90, 163, 89, 1, 0.403247
41, 2, bw, filler, NA, 999, 999, 8, 1, 182, 157, 150, 166, 119, 145, 2, 0.66508
41, 2, bw, filler, NA, 999, 999, 8, 1, 182, 157, 150, 166, 119, 145, 3, 0.518617
41, 2, bw, filler, NA, 999, 999, 8, 2, 187, 125, 155, 129, 148, 139, 3, 1.41463
41, 2, bw, filler, NA, 999, 999, 8, 2, 187, 125, 155, 129, 148, 139, 2, 0.340832
41, 2, bw, attraction, a-b-da, 9, 1, 8, 3, 129, 57, 135, 60, 60, 135, 2, 0.852573
41, 2, bw, attraction, a-b-da, 9, 1, 8, 3, 129, 57, 135, 60, 60, 135, 3, 0.361643
41, 2, bw, attraction, a-b-da, 14, 3, 8, 4, 195, 120, 120, 195, 181, 111, 1, 1.67277
41, 2, bw, attraction, a-b-da, 14, 3, 8, 4, 195, 120, 120, 195, 181, 111, 2, 0.564253
41, 2, bw, filler, NA, 999, 999, 8, 5, 56, 194, 138, 94, 118, 77, 2, 0.64331
41, 2, bw, filler, NA, 999, 999, 8, 5, 56, 194, 138, 94, 118, 77, 1, 0.456469
41, 2, bw, attraction, a-b-db, 14, 1, 8, 6, 135, 60, 60, 135, 56, 125, 1, 1.00359
41, 2, bw, attraction, a-b-db, 14, 1, 8, 6, 135, 60, 60, 135, 56, 125, 2, 0.562596
41, 2, bw, attraction, a-b-db, 14, 2, 8, 7, 165, 90, 90, 165, 83, 153, 2, 2.70574
41, 2, bw, attraction, a-b-db, 14, 2, 8, 7, 165, 90, 90, 165, 83, 153, 3, 0.787472
41, 2, bw, attraction, a-b-db, 5, 3, 8, 8, 195, 120, 120, 195, 117, 190, 2, 1.25783
41, 2, bw, attraction, a-b-db, 5, 3, 8, 8, 195, 120, 120, 195, 117, 190, 3, 0.910093
41, 2, bw, attraction, a-b-db, 2, 2, 8, 9, 89, 163, 165, 90, 90, 165, 3, 0.767059
41, 2, bw, attraction, a-b-db, 2, 2, 8, 9, 89, 163, 165, 90, 90, 165, 2, 1.10362
41, 2, bw, filler, NA, 999, 999, 8, 10, 191, 118, 67, 107, 158, 192, 3, 0.553094
41, 2, bw, filler, NA, 999, 999, 8, 10, 191, 118, 67, 107, 158, 192, 2, 0.450356
41, 2, bw, attraction, a-b-da, 2, 1, 8, 11, 135, 60, 60, 135, 134, 59, 2, 0.902175
41, 2, bw, attraction, a-b-da, 2, 1, 8, 11, 135, 60, 60, 135, 134, 59, 3, 0.557475
41, 2, bw, attraction, a-b-da, 9, 3, 8, 12, 186, 114, 195, 120, 120, 195, 2, 0.624143
41, 2, bw, attraction, a-b-da, 9, 3, 8, 12, 186, 114, 195, 120, 120, 195, 1, 1.02189
41, 2, bw, filler, NA, 999, 999, 8, 13, 93, 66, 164, 81, 107, 183, 3, 0.714822
41, 2, bw, filler, NA, 999, 999, 8, 13, 93, 66, 164, 81, 107, 183, 1, 1.03128
41, 2, bw, catch, NA, 999, 999, 8, 14, 125, 130, 195, 120, 76, 119, 2, 1.45756
41, 2, bw, catch, NA, 999, 999, 8, 14, 125, 130, 195, 120, 76, 119, 3, 0.65388
41, 2, bw, attraction, a-b-db, 9, 1, 8, 15, 60, 135, 135, 60, 57, 129, 3, 0.825497
41, 2, bw, attraction, a-b-db, 9, 1, 8, 15, 60, 135, 135, 60, 57, 129, 2, 0.711205
41, 2, bw, attraction, a-b-db, 9, 2, 8, 16, 165, 90, 90, 165, 86, 157, 2, 0.752156
41, 2, bw, attraction, a-b-db, 9, 2, 8, 16, 165, 90, 90, 165, 86, 157, 3, 1.04928
41, 2, bw, attraction, a-b-da, 2, 2, 8, 17, 165, 90, 90, 165, 163, 89, 2, 0.780949
41, 2, bw, attraction, a-b-da, 2, 2, 8, 17, 165, 90, 90, 165, 163, 89, 1, 1.48469
41, 2, bw, attraction, a-b-db, 14, 3, 8, 18, 111, 181, 195, 120, 120, 195, 3, 0.734824
41, 2, bw, attraction, a-b-db, 14, 3, 8, 18, 111, 181, 195, 120, 120, 195, 1, 1.24857
41, 2, bw, filler, NA, 999, 999, 8, 19, 170, 181, 157, 91, 166, 87, 1, 1.47611
41, 2, bw, filler, NA, 999, 999, 8, 19, 170, 181, 157, 91, 166, 87, 2, 0.831646
41, 2, bw, attraction, a-b-db, 2, 3, 8, 20, 120, 195, 195, 120, 119, 193, 2, 0.947954
41, 2, bw, attraction, a-b-db, 2, 3, 8, 20, 120, 195, 195, 120, 119, 193, 1, 0.573136
41, 2, bw, attraction, a-b-db, 9, 3, 8, 21, 195, 120, 114, 186, 120, 195, 1, 0.931544
41, 2, bw, attraction, a-b-db, 9, 3, 8, 21, 195, 120, 114, 186, 120, 195, 2, 0.933102
41, 2, bw, attraction, a-b-da, 5, 1, 8, 22, 132, 58, 135, 60, 60, 135, 3, 0.78935
41, 2, bw, attraction, a-b-da, 5, 1, 8, 22, 132, 58, 135, 60, 60, 135, 1, 0.844486
41, 2, bw, attraction, a-b-da, 5, 2, 8, 23, 161, 88, 90, 165, 165, 90, 2, 0.624145
41, 2, bw, attraction, a-b-da, 5, 2, 8, 23, 161, 88, 90, 165, 165, 90, 1, 0.773958
41, 2, bw, catch, NA, 999, 999, 8, 24, 140, 175, 117, 138, 101, 94, 2, 0.988283
41, 2, bw, catch, NA, 999, 999, 8, 24, 140, 175, 117, 138, 101, 94, 3, 0.835387
41, 2, bw, attraction, a-b-db, 2, 1, 8, 25, 60, 135, 135, 60, 59, 134, 3, 1.0476
41, 2, bw, attraction, a-b-db, 2, 1, 8, 25, 60, 135, 135, 60, 59, 134, 2, 0.740718
41, 2, bw, filler, NA, 999, 999, 8, 26, 144, 111, 63, 194, 140, 165, 3, 1.11633
41, 2, bw, filler, NA, 999, 999, 8, 26, 144, 111, 63, 194, 140, 165, 2, 0.710714
41, 2, bw, attraction, a-b-db, 5, 1, 8, 27, 58, 132, 135, 60, 60, 135, 2, 0.863644
41, 2, bw, attraction, a-b-db, 5, 1, 8, 27, 58, 132, 135, 60, 60, 135, 1, 0.572228
41, 2, bw, attraction, a-b-da, 14, 1, 8, 28, 60, 135, 125, 56, 135, 60, 3, 1.18713
41, 2, bw, attraction, a-b-da, 14, 1, 8, 28, 60, 135, 125, 56, 135, 60, 2, 0.570848
41, 2, bw, filler, NA, 999, 999, 8, 29, 140, 138, 171, 100, 59, 95, 2, 0.865842
41, 2, bw, filler, NA, 999, 999, 8, 29, 140, 138, 171, 100, 59, 95, 3, 0.63017
41, 2, bw, attraction, a-b-da, 14, 2, 8, 30, 90, 165, 153, 83, 165, 90, 3, 1.02667
41, 2, bw, attraction, a-b-da, 14, 2, 8, 30, 90, 165, 153, 83, 165, 90, 2, 0.616258
41, 2, bw, attraction, a-b-da, 5, 3, 8, 31, 120, 195, 190, 117, 195, 120, 3, 2.14965
41, 2, bw, attraction, a-b-da, 5, 3, 8, 31, 120, 195, 190, 117, 195, 120, 2, 0.709974
41, 2, bw, filler, NA, 999, 999, 8, 32, 167, 93, 118, 121, 143, 137, 3, 1.26302
41, 2, bw, filler, NA, 999, 999, 8, 32, 167, 93, 118, 121, 143, 137, 2, 0.907263
41, 2, bw, attraction, a-b-db, 5, 2, 8, 33, 165, 90, 90, 165, 88, 161, 3, 4.70035
41, 2, bw, attraction, a-b-db, 5, 2, 8, 33, 165, 90, 90, 165, 88, 161, 2, 0.694127
41, 2, bw, filler, NA, 999, 999, 8, 34, 180, 115, 156, 118, 67, 93, 2, 0.591865
41, 2, bw, filler, NA, 999, 999, 8, 34, 180, 115, 156, 118, 67, 93, 3, 0.542985
41, 2, bw, catch, NA, 999, 999, 8, 35, 144, 111, 82, 113, 178, 137, 3, 0.646729
41, 2, bw, catch, NA, 999, 999, 8, 35, 144, 111, 82, 113, 178, 137, 2, 0.44385
41, 2, bw, attraction, a-b-da, 2, 3, 8, 36, 193, 119, 195, 120, 120, 195, 2, 0.639611
41, 2, bw, attraction, a-b-da, 2, 3, 8, 36, 193, 119, 195, 120, 120, 195, 1, 0.420751
41, 2, bw, attraction, a-b-da, 9, 2, 8, 37, 90, 165, 157, 86, 165, 90, 3, 1.48988
41, 2, bw, attraction, a-b-da, 9, 2, 8, 37, 90, 165, 157, 86, 165, 90, 2, 0.372726
