sub_n, computer_n, bw_cond, effect, set, distance, diag, block_n, trial_n, h1, w1, h2, w2, h3, w3, choice, rt 
4, 2, wb, practice, NA, 999, 999, 0, 1, 128, 192, 74, 136, 131, 122, 2, 4.52538
4, 2, wb, practice, NA, 999, 999, 0, 1, 128, 192, 74, 136, 131, 122, 1, 4.01321
4, 2, wb, practice, NA, 999, 999, 0, 2, 59, 90, 117, 90, 102, 92, 1, 1.78319
4, 2, wb, practice, NA, 999, 999, 0, 2, 59, 90, 117, 90, 102, 92, 2, 2.03628
4, 2, wb, practice, NA, 999, 999, 0, 3, 111, 68, 131, 118, 165, 181, 1, 1.89415
4, 2, wb, practice, NA, 999, 999, 0, 3, 111, 68, 131, 118, 165, 181, 3, 1.26446
4, 2, wb, attraction, a-b-db, 14, 1, 1, 1, 56, 125, 60, 135, 135, 60, 1, 4.42362
4, 2, wb, attraction, a-b-db, 14, 1, 1, 1, 56, 125, 60, 135, 135, 60, 2, 2.7009
4, 2, wb, attraction, a-b-db, 5, 2, 1, 2, 90, 165, 88, 161, 165, 90, 2, 30.8769
4, 2, wb, attraction, a-b-db, 5, 2, 1, 2, 90, 165, 88, 161, 165, 90, 1, 2.20734
4, 2, wb, attraction, a-b-da, 9, 1, 1, 3, 129, 57, 60, 135, 135, 60, 2, 5.87039
4, 2, wb, attraction, a-b-da, 9, 1, 1, 3, 129, 57, 60, 135, 135, 60, 3, 2.54406
4, 2, wb, filler, NA, 999, 999, 1, 4, 63, 137, 154, 100, 162, 152, 1, 4.11109
4, 2, wb, filler, NA, 999, 999, 1, 4, 63, 137, 154, 100, 162, 152, 3, 1.19493
4, 2, wb, attraction, a-b-db, 9, 1, 1, 5, 135, 60, 57, 129, 60, 135, 2, 4.60897
4, 2, wb, attraction, a-b-db, 9, 1, 1, 5, 135, 60, 57, 129, 60, 135, 1, 1.84612
4, 2, wb, catch, NA, 999, 999, 1, 6, 136, 119, 114, 81, 184, 131, 2, 1.65901
4, 2, wb, catch, NA, 999, 999, 1, 6, 136, 119, 114, 81, 184, 131, 3, 1.26849
4, 2, wb, filler, NA, 999, 999, 1, 7, 123, 147, 148, 181, 163, 127, 1, 4.27473
4, 2, wb, filler, NA, 999, 999, 1, 7, 123, 147, 148, 181, 163, 127, 2, 0.732587
4, 2, wb, attraction, a-b-da, 5, 2, 1, 8, 161, 88, 90, 165, 165, 90, 1, 11.844
4, 2, wb, attraction, a-b-da, 5, 2, 1, 8, 161, 88, 90, 165, 165, 90, 2, 0.647953
4, 2, wb, filler, NA, 999, 999, 1, 9, 144, 80, 158, 132, 132, 148, 1, 1.45849
4, 2, wb, filler, NA, 999, 999, 1, 9, 144, 80, 158, 132, 132, 148, 2, 0.800199
4, 2, wb, attraction, a-b-da, 2, 2, 1, 10, 90, 165, 163, 89, 165, 90, 2, 4.66761
4, 2, wb, attraction, a-b-da, 2, 2, 1, 10, 90, 165, 163, 89, 165, 90, 1, 1.35308
4, 2, wb, attraction, a-b-da, 2, 1, 1, 11, 134, 59, 135, 60, 60, 135, 2, 3.79377
4, 2, wb, attraction, a-b-da, 2, 1, 1, 11, 134, 59, 135, 60, 60, 135, 3, 1.15059
4, 2, wb, attraction, a-b-db, 2, 2, 1, 12, 89, 163, 165, 90, 90, 165, 2, 6.19968
4, 2, wb, attraction, a-b-db, 2, 2, 1, 12, 89, 163, 165, 90, 90, 165, 3, 0.82757
4, 2, wb, filler, NA, 999, 999, 1, 13, 106, 87, 144, 110, 94, 148, 1, 1.32942
4, 2, wb, filler, NA, 999, 999, 1, 13, 106, 87, 144, 110, 94, 148, 2, 0.939063
4, 2, wb, attraction, a-b-db, 9, 2, 1, 14, 90, 165, 86, 157, 165, 90, 2, 4.7645
4, 2, wb, attraction, a-b-db, 9, 2, 1, 14, 90, 165, 86, 157, 165, 90, 1, 0.697992
4, 2, wb, attraction, a-b-da, 9, 3, 1, 15, 186, 114, 120, 195, 195, 120, 1, 3.39556
4, 2, wb, attraction, a-b-da, 9, 3, 1, 15, 186, 114, 120, 195, 195, 120, 2, 1.1457
4, 2, wb, attraction, a-b-db, 2, 1, 1, 16, 59, 134, 135, 60, 60, 135, 2, 2.16327
4, 2, wb, attraction, a-b-db, 2, 1, 1, 16, 59, 134, 135, 60, 60, 135, 3, 1.34507
4, 2, wb, filler, NA, 999, 999, 1, 17, 69, 111, 172, 147, 85, 163, 1, 1.19272
4, 2, wb, filler, NA, 999, 999, 1, 17, 69, 111, 172, 147, 85, 163, 2, 0.680213
4, 2, wb, attraction, a-b-db, 2, 3, 1, 18, 195, 120, 120, 195, 119, 193, 3, 7.57205
4, 2, wb, attraction, a-b-db, 2, 3, 1, 18, 195, 120, 120, 195, 119, 193, 1, 2.93884
4, 2, wb, filler, NA, 999, 999, 1, 19, 139, 158, 63, 81, 157, 126, 2, 1.09534
4, 2, wb, filler, NA, 999, 999, 1, 19, 139, 158, 63, 81, 157, 126, 1, 0.541322
4, 2, wb, attraction, a-b-da, 5, 3, 1, 20, 195, 120, 120, 195, 190, 117, 3, 2.00629
4, 2, wb, attraction, a-b-da, 5, 3, 1, 20, 195, 120, 120, 195, 190, 117, 2, 1.63606
4, 2, wb, attraction, a-b-db, 14, 2, 1, 21, 83, 153, 90, 165, 165, 90, 1, 3.94446
4, 2, wb, attraction, a-b-db, 14, 2, 1, 21, 83, 153, 90, 165, 165, 90, 2, 0.646869
4, 2, wb, attraction, a-b-da, 14, 2, 1, 22, 153, 83, 165, 90, 90, 165, 1, 1.56399
4, 2, wb, attraction, a-b-da, 14, 2, 1, 22, 153, 83, 165, 90, 90, 165, 3, 0.83615
4, 2, wb, filler, NA, 999, 999, 1, 23, 106, 194, 139, 103, 78, 89, 3, 1.27988
4, 2, wb, filler, NA, 999, 999, 1, 23, 106, 194, 139, 103, 78, 89, 1, 1.78008
4, 2, wb, attraction, a-b-da, 14, 1, 1, 24, 60, 135, 125, 56, 135, 60, 2, 2.44345
4, 2, wb, attraction, a-b-da, 14, 1, 1, 24, 60, 135, 125, 56, 135, 60, 1, 2.48953
4, 2, wb, attraction, a-b-da, 14, 3, 1, 25, 181, 111, 120, 195, 195, 120, 1, 1.71318
4, 2, wb, attraction, a-b-da, 14, 3, 1, 25, 181, 111, 120, 195, 195, 120, 2, 1.05809
4, 2, wb, catch, NA, 999, 999, 1, 26, 104, 151, 158, 157, 71, 124, 3, 1.39871
4, 2, wb, catch, NA, 999, 999, 1, 26, 104, 151, 158, 157, 71, 124, 2, 0.647399
4, 2, wb, attraction, a-b-db, 14, 3, 1, 27, 111, 181, 195, 120, 120, 195, 1, 5.13822
4, 2, wb, attraction, a-b-db, 14, 3, 1, 27, 111, 181, 195, 120, 120, 195, 3, 0.707106
4, 2, wb, attraction, a-b-da, 5, 1, 1, 28, 60, 135, 132, 58, 135, 60, 1, 17.0764
4, 2, wb, attraction, a-b-da, 5, 1, 1, 28, 60, 135, 132, 58, 135, 60, 2, 1.01212
4, 2, wb, catch, NA, 999, 999, 1, 29, 165, 90, 131, 184, 82, 113, 3, 4.08129
4, 2, wb, catch, NA, 999, 999, 1, 29, 165, 90, 131, 184, 82, 113, 2, 0.691734
4, 2, wb, attraction, a-b-da, 9, 2, 1, 30, 90, 165, 157, 86, 165, 90, 1, 2.34339
4, 2, wb, attraction, a-b-da, 9, 2, 1, 30, 90, 165, 157, 86, 165, 90, 2, 0.791385
4, 2, wb, filler, NA, 999, 999, 1, 31, 167, 105, 136, 135, 80, 180, 3, 5.08526
4, 2, wb, filler, NA, 999, 999, 1, 31, 167, 105, 136, 135, 80, 180, 2, 0.710711
4, 2, wb, attraction, a-b-db, 5, 3, 1, 32, 120, 195, 117, 190, 195, 120, 1, 2.44014
4, 2, wb, attraction, a-b-db, 5, 3, 1, 32, 120, 195, 117, 190, 195, 120, 2, 1.70122
4, 2, wb, filler, NA, 999, 999, 1, 33, 190, 194, 61, 166, 62, 130, 3, 1.14418
4, 2, wb, filler, NA, 999, 999, 1, 33, 190, 194, 61, 166, 62, 130, 1, 0.680124
4, 2, wb, attraction, a-b-db, 5, 1, 1, 34, 60, 135, 58, 132, 135, 60, 1, 4.68432
4, 2, wb, attraction, a-b-db, 5, 1, 1, 34, 60, 135, 58, 132, 135, 60, 3, 1.26272
4, 2, wb, filler, NA, 999, 999, 1, 35, 129, 65, 77, 74, 112, 193, 2, 1.17984
4, 2, wb, filler, NA, 999, 999, 1, 35, 129, 65, 77, 74, 112, 193, 3, 0.688454
4, 2, wb, attraction, a-b-da, 2, 3, 1, 36, 120, 195, 193, 119, 195, 120, 3, 1.81907
4, 2, wb, attraction, a-b-da, 2, 3, 1, 36, 120, 195, 193, 119, 195, 120, 1, 0.697753
4, 2, wb, attraction, a-b-db, 9, 3, 1, 37, 195, 120, 114, 186, 120, 195, 1, 1.39564
4, 2, wb, attraction, a-b-db, 9, 3, 1, 37, 195, 120, 114, 186, 120, 195, 3, 1.28122
4, 2, wb, filler, NA, 999, 999, 2, 1, 81, 187, 104, 67, 69, 90, 3, 1.49303
4, 2, wb, filler, NA, 999, 999, 2, 1, 81, 187, 104, 67, 69, 90, 1, 0.617252
4, 2, wb, attraction, a-b-db, 9, 3, 2, 2, 114, 186, 195, 120, 120, 195, 1, 1.13477
4, 2, wb, attraction, a-b-db, 9, 3, 2, 2, 114, 186, 195, 120, 120, 195, 3, 0.904268
4, 2, wb, filler, NA, 999, 999, 2, 3, 184, 189, 155, 87, 67, 61, 3, 1.14613
4, 2, wb, filler, NA, 999, 999, 2, 3, 184, 189, 155, 87, 67, 61, 1, 0.671288
4, 2, wb, attraction, a-b-da, 14, 3, 2, 4, 195, 120, 181, 111, 120, 195, 2, 1.70141
4, 2, wb, attraction, a-b-da, 14, 3, 2, 4, 195, 120, 181, 111, 120, 195, 1, 0.854785
4, 2, wb, attraction, a-b-da, 2, 3, 2, 5, 195, 120, 193, 119, 120, 195, 1, 1.67491
4, 2, wb, attraction, a-b-da, 2, 3, 2, 5, 195, 120, 193, 119, 120, 195, 2, 1.01453
4, 2, wb, filler, NA, 999, 999, 2, 6, 84, 114, 177, 132, 184, 84, 1, 1.25883
4, 2, wb, filler, NA, 999, 999, 2, 6, 84, 114, 177, 132, 184, 84, 2, 0.631365
4, 2, wb, filler, NA, 999, 999, 2, 7, 69, 58, 65, 122, 62, 143, 1, 1.06025
4, 2, wb, filler, NA, 999, 999, 2, 7, 69, 58, 65, 122, 62, 143, 3, 1.38626
4, 2, wb, attraction, a-b-da, 14, 1, 2, 8, 60, 135, 125, 56, 135, 60, 3, 3.15896
4, 2, wb, attraction, a-b-da, 14, 1, 2, 8, 60, 135, 125, 56, 135, 60, 1, 0.687292
4, 2, wb, attraction, a-b-db, 9, 2, 2, 9, 90, 165, 86, 157, 165, 90, 1, 1.01115
4, 2, wb, attraction, a-b-db, 9, 2, 2, 9, 90, 165, 86, 157, 165, 90, 3, 0.77122
4, 2, wb, catch, NA, 999, 999, 2, 10, 106, 149, 164, 151, 115, 80, 3, 1.52749
4, 2, wb, catch, NA, 999, 999, 2, 10, 106, 149, 164, 151, 115, 80, 2, 0.696802
4, 2, wb, catch, NA, 999, 999, 2, 11, 114, 141, 109, 86, 120, 195, 2, 1.20424
4, 2, wb, catch, NA, 999, 999, 2, 11, 114, 141, 109, 86, 120, 195, 3, 0.641842
4, 2, wb, filler, NA, 999, 999, 2, 12, 137, 170, 86, 84, 163, 118, 2, 1.14913
4, 2, wb, filler, NA, 999, 999, 2, 12, 137, 170, 86, 84, 163, 118, 1, 0.591581
4, 2, wb, attraction, a-b-db, 2, 3, 2, 13, 120, 195, 119, 193, 195, 120, 2, 4.5185
4, 2, wb, attraction, a-b-db, 2, 3, 2, 13, 120, 195, 119, 193, 195, 120, 3, 1.53654
4, 2, wb, attraction, a-b-da, 2, 1, 2, 14, 60, 135, 135, 60, 134, 59, 2, 1.52703
4, 2, wb, attraction, a-b-da, 2, 1, 2, 14, 60, 135, 135, 60, 134, 59, 3, 0.655427
4, 2, wb, attraction, a-b-da, 14, 2, 2, 15, 165, 90, 90, 165, 153, 83, 2, 1.05452
4, 2, wb, attraction, a-b-da, 14, 2, 2, 15, 165, 90, 90, 165, 153, 83, 3, 0.538589
4, 2, wb, attraction, a-b-da, 5, 3, 2, 16, 120, 195, 195, 120, 190, 117, 2, 1.0985
4, 2, wb, attraction, a-b-da, 5, 3, 2, 16, 120, 195, 195, 120, 190, 117, 1, 0.524851
4, 2, wb, attraction, a-b-db, 14, 3, 2, 17, 111, 181, 120, 195, 195, 120, 2, 0.982097
4, 2, wb, attraction, a-b-db, 14, 3, 2, 17, 111, 181, 120, 195, 195, 120, 1, 0.542261
4, 2, wb, filler, NA, 999, 999, 2, 18, 179, 181, 125, 104, 188, 159, 2, 2.31999
4, 2, wb, filler, NA, 999, 999, 2, 18, 179, 181, 125, 104, 188, 159, 1, 0.657047
4, 2, wb, attraction, a-b-da, 9, 2, 2, 19, 165, 90, 90, 165, 157, 86, 2, 1.09304
4, 2, wb, attraction, a-b-da, 9, 2, 2, 19, 165, 90, 90, 165, 157, 86, 3, 0.655683
4, 2, wb, attraction, a-b-db, 14, 1, 2, 20, 56, 125, 135, 60, 60, 135, 1, 1.26505
4, 2, wb, attraction, a-b-db, 14, 1, 2, 20, 56, 125, 135, 60, 60, 135, 2, 0.590386
4, 2, wb, catch, NA, 999, 999, 2, 21, 66, 129, 179, 136, 120, 135, 1, 1.02901
4, 2, wb, catch, NA, 999, 999, 2, 21, 66, 129, 179, 136, 120, 135, 2, 0.57888
4, 2, wb, attraction, a-b-da, 9, 3, 2, 22, 195, 120, 120, 195, 186, 114, 2, 1.36936
4, 2, wb, attraction, a-b-da, 9, 3, 2, 22, 195, 120, 120, 195, 186, 114, 1, 0.947488
4, 2, wb, filler, NA, 999, 999, 2, 23, 138, 163, 74, 93, 159, 58, 2, 1.18004
4, 2, wb, filler, NA, 999, 999, 2, 23, 138, 163, 74, 93, 159, 58, 1, 0.674533
4, 2, wb, filler, NA, 999, 999, 2, 24, 112, 188, 104, 91, 164, 134, 2, 1.07719
4, 2, wb, filler, NA, 999, 999, 2, 24, 112, 188, 104, 91, 164, 134, 3, 0.631854
4, 2, wb, attraction, a-b-db, 9, 1, 2, 25, 60, 135, 57, 129, 135, 60, 2, 1.26785
4, 2, wb, attraction, a-b-db, 9, 1, 2, 25, 60, 135, 57, 129, 135, 60, 3, 0.6184
4, 2, wb, attraction, a-b-db, 5, 2, 2, 26, 90, 165, 88, 161, 165, 90, 2, 0.999268
4, 2, wb, attraction, a-b-db, 5, 2, 2, 26, 90, 165, 88, 161, 165, 90, 3, 0.771824
4, 2, wb, attraction, a-b-da, 9, 1, 2, 27, 60, 135, 129, 57, 135, 60, 2, 1.02868
4, 2, wb, attraction, a-b-da, 9, 1, 2, 27, 60, 135, 129, 57, 135, 60, 3, 0.69802
4, 2, wb, attraction, a-b-db, 14, 2, 2, 28, 165, 90, 90, 165, 83, 153, 1, 1.40365
4, 2, wb, attraction, a-b-db, 14, 2, 2, 28, 165, 90, 90, 165, 83, 153, 2, 0.636261
4, 2, wb, attraction, a-b-db, 2, 2, 2, 29, 89, 163, 90, 165, 165, 90, 2, 1.01545
4, 2, wb, attraction, a-b-db, 2, 2, 2, 29, 89, 163, 90, 165, 165, 90, 3, 0.565406
4, 2, wb, attraction, a-b-da, 5, 2, 2, 30, 165, 90, 90, 165, 161, 88, 3, 3.1236
4, 2, wb, attraction, a-b-da, 5, 2, 2, 30, 165, 90, 90, 165, 161, 88, 2, 2.46338
4, 2, wb, attraction, a-b-db, 5, 1, 2, 31, 135, 60, 60, 135, 58, 132, 3, 2.82459
4, 2, wb, attraction, a-b-db, 5, 1, 2, 31, 135, 60, 60, 135, 58, 132, 1, 0.662407
4, 2, wb, filler, NA, 999, 999, 2, 32, 106, 56, 93, 125, 113, 74, 1, 1.36159
4, 2, wb, filler, NA, 999, 999, 2, 32, 106, 56, 93, 125, 113, 74, 3, 1.45136
4, 2, wb, filler, NA, 999, 999, 2, 33, 139, 57, 129, 177, 101, 72, 3, 1.9579
4, 2, wb, filler, NA, 999, 999, 2, 33, 139, 57, 129, 177, 101, 72, 2, 0.64792
4, 2, wb, attraction, a-b-db, 5, 3, 2, 34, 195, 120, 120, 195, 117, 190, 2, 5.2184
4, 2, wb, attraction, a-b-db, 5, 3, 2, 34, 195, 120, 120, 195, 117, 190, 1, 1.38322
4, 2, wb, attraction, a-b-da, 5, 1, 2, 35, 60, 135, 132, 58, 135, 60, 2, 1.38909
4, 2, wb, attraction, a-b-da, 5, 1, 2, 35, 60, 135, 132, 58, 135, 60, 1, 0.652737
4, 2, wb, attraction, a-b-db, 2, 1, 2, 36, 60, 135, 135, 60, 59, 134, 2, 1.08802
4, 2, wb, attraction, a-b-db, 2, 1, 2, 36, 60, 135, 135, 60, 59, 134, 1, 0.707183
4, 2, wb, attraction, a-b-da, 2, 2, 2, 37, 90, 165, 163, 89, 165, 90, 2, 2.28767
4, 2, wb, attraction, a-b-da, 2, 2, 2, 37, 90, 165, 163, 89, 165, 90, 1, 1.20209
4, 2, wb, attraction, a-b-db, 5, 3, 3, 1, 120, 195, 195, 120, 117, 190, 1, 1.02272
4, 2, wb, attraction, a-b-db, 5, 3, 3, 1, 120, 195, 195, 120, 117, 190, 3, 0.582453
4, 2, wb, filler, NA, 999, 999, 3, 2, 140, 162, 96, 61, 132, 152, 1, 0.947377
4, 2, wb, filler, NA, 999, 999, 3, 2, 140, 162, 96, 61, 132, 152, 2, 1.64354
4, 2, wb, attraction, a-b-da, 14, 3, 3, 3, 120, 195, 181, 111, 195, 120, 1, 0.970165
4, 2, wb, attraction, a-b-da, 14, 3, 3, 3, 120, 195, 181, 111, 195, 120, 2, 1.32028
4, 2, wb, filler, NA, 999, 999, 3, 4, 79, 118, 88, 82, 180, 136, 2, 1.14572
4, 2, wb, filler, NA, 999, 999, 3, 4, 79, 118, 88, 82, 180, 136, 3, 0.619683
4, 2, wb, filler, NA, 999, 999, 3, 5, 181, 118, 107, 96, 101, 120, 2, 1.08848
4, 2, wb, filler, NA, 999, 999, 3, 5, 181, 118, 107, 96, 101, 120, 1, 0.74184
4, 2, wb, attraction, a-b-da, 14, 1, 3, 6, 125, 56, 135, 60, 60, 135, 2, 1.60481
4, 2, wb, attraction, a-b-da, 14, 1, 3, 6, 125, 56, 135, 60, 60, 135, 1, 1.15657
4, 2, wb, attraction, a-b-db, 5, 1, 3, 7, 58, 132, 135, 60, 60, 135, 2, 4.32102
4, 2, wb, attraction, a-b-db, 5, 1, 3, 7, 58, 132, 135, 60, 60, 135, 3, 1.10864
4, 2, wb, attraction, a-b-da, 5, 3, 3, 8, 120, 195, 195, 120, 190, 117, 2, 1.30897
4, 2, wb, attraction, a-b-da, 5, 3, 3, 8, 120, 195, 195, 120, 190, 117, 1, 1.11317
4, 2, wb, attraction, a-b-da, 5, 1, 3, 9, 132, 58, 135, 60, 60, 135, 1, 1.42735
4, 2, wb, attraction, a-b-da, 5, 1, 3, 9, 132, 58, 135, 60, 60, 135, 2, 0.609015
4, 2, wb, attraction, a-b-da, 9, 3, 3, 10, 186, 114, 120, 195, 195, 120, 1, 1.23741
4, 2, wb, attraction, a-b-da, 9, 3, 3, 10, 186, 114, 120, 195, 195, 120, 2, 0.788809
4, 2, wb, attraction, a-b-db, 14, 1, 3, 11, 60, 135, 56, 125, 135, 60, 2, 1.24241
4, 2, wb, attraction, a-b-db, 14, 1, 3, 11, 60, 135, 56, 125, 135, 60, 3, 0.777891
4, 2, wb, attraction, a-b-da, 9, 2, 3, 12, 90, 165, 157, 86, 165, 90, 1, 19.8787
4, 2, wb, attraction, a-b-da, 9, 2, 3, 12, 90, 165, 157, 86, 165, 90, 3, 0.844964
4, 2, wb, attraction, a-b-db, 14, 2, 3, 13, 90, 165, 165, 90, 83, 153, 3, 2.50477
4, 2, wb, attraction, a-b-db, 14, 2, 3, 13, 90, 165, 165, 90, 83, 153, 1, 1.36315
4, 2, wb, attraction, a-b-db, 9, 1, 3, 14, 60, 135, 135, 60, 57, 129, 3, 1.88352
4, 2, wb, attraction, a-b-db, 9, 1, 3, 14, 60, 135, 135, 60, 57, 129, 1, 0.838883
4, 2, wb, catch, NA, 999, 999, 3, 15, 112, 143, 99, 96, 151, 164, 2, 1.39505
4, 2, wb, catch, NA, 999, 999, 3, 15, 112, 143, 99, 96, 151, 164, 3, 0.706025
4, 2, wb, attraction, a-b-db, 2, 3, 3, 16, 195, 120, 120, 195, 119, 193, 2, 3.8532
4, 2, wb, attraction, a-b-db, 2, 3, 3, 16, 195, 120, 120, 195, 119, 193, 1, 0.920377
4, 2, wb, filler, NA, 999, 999, 3, 17, 64, 152, 70, 184, 182, 59, 2, 1.39381
4, 2, wb, filler, NA, 999, 999, 3, 17, 64, 152, 70, 184, 182, 59, 1, 0.568378
4, 2, wb, filler, NA, 999, 999, 3, 18, 68, 111, 85, 156, 192, 185, 1, 1.18445
4, 2, wb, filler, NA, 999, 999, 3, 18, 68, 111, 85, 156, 192, 185, 3, 0.63107
4, 2, wb, filler, NA, 999, 999, 3, 19, 123, 195, 155, 159, 171, 156, 1, 1.64517
4, 2, wb, filler, NA, 999, 999, 3, 19, 123, 195, 155, 159, 171, 156, 3, 1.15089
4, 2, wb, attraction, a-b-da, 2, 1, 3, 20, 60, 135, 134, 59, 135, 60, 2, 2.02399
4, 2, wb, attraction, a-b-da, 2, 1, 3, 20, 60, 135, 134, 59, 135, 60, 1, 1.1084
4, 2, wb, attraction, a-b-da, 2, 3, 3, 21, 193, 119, 120, 195, 195, 120, 1, 1.71952
4, 2, wb, attraction, a-b-da, 2, 3, 3, 21, 193, 119, 120, 195, 195, 120, 2, 0.897575
4, 2, wb, filler, NA, 999, 999, 3, 22, 104, 93, 106, 150, 186, 163, 3, 2.26841
4, 2, wb, filler, NA, 999, 999, 3, 22, 104, 93, 106, 150, 186, 163, 2, 2.69382
4, 2, wb, attraction, a-b-db, 9, 2, 3, 23, 90, 165, 165, 90, 86, 157, 3, 1.67334
4, 2, wb, attraction, a-b-db, 9, 2, 3, 23, 90, 165, 165, 90, 86, 157, 2, 0.611624
4, 2, wb, attraction, a-b-da, 9, 1, 3, 24, 129, 57, 60, 135, 135, 60, 1, 1.20273
4, 2, wb, attraction, a-b-da, 9, 1, 3, 24, 129, 57, 60, 135, 135, 60, 2, 0.683193
4, 2, wb, catch, NA, 999, 999, 3, 25, 165, 150, 156, 99, 99, 96, 3, 1.2218
4, 2, wb, catch, NA, 999, 999, 3, 25, 165, 150, 156, 99, 99, 96, 1, 0.689687
4, 2, wb, attraction, a-b-db, 2, 1, 3, 26, 60, 135, 59, 134, 135, 60, 2, 2.34877
4, 2, wb, attraction, a-b-db, 2, 1, 3, 26, 60, 135, 59, 134, 135, 60, 3, 0.711197
4, 2, wb, attraction, a-b-db, 2, 2, 3, 27, 165, 90, 90, 165, 89, 163, 3, 2.24007
4, 2, wb, attraction, a-b-db, 2, 2, 3, 27, 165, 90, 90, 165, 89, 163, 2, 0.926336
4, 2, wb, attraction, a-b-db, 14, 3, 3, 28, 120, 195, 195, 120, 111, 181, 1, 1.1973
4, 2, wb, attraction, a-b-db, 14, 3, 3, 28, 120, 195, 195, 120, 111, 181, 3, 0.644118
4, 2, wb, catch, NA, 999, 999, 3, 29, 111, 144, 178, 137, 101, 94, 3, 1.20771
4, 2, wb, catch, NA, 999, 999, 3, 29, 111, 144, 178, 137, 101, 94, 2, 0.7116
4, 2, wb, attraction, a-b-da, 14, 2, 3, 30, 90, 165, 165, 90, 153, 83, 2, 1.83329
4, 2, wb, attraction, a-b-da, 14, 2, 3, 30, 90, 165, 165, 90, 153, 83, 3, 0.574765
4, 2, wb, filler, NA, 999, 999, 3, 31, 116, 159, 102, 187, 95, 72, 3, 1.26272
4, 2, wb, filler, NA, 999, 999, 3, 31, 116, 159, 102, 187, 95, 72, 2, 1.22489
4, 2, wb, attraction, a-b-db, 9, 3, 3, 32, 120, 195, 195, 120, 114, 186, 3, 2.05476
4, 2, wb, attraction, a-b-db, 9, 3, 3, 32, 120, 195, 195, 120, 114, 186, 1, 0.628655
4, 2, wb, filler, NA, 999, 999, 3, 33, 69, 80, 127, 180, 190, 119, 1, 1.16099
4, 2, wb, filler, NA, 999, 999, 3, 33, 69, 80, 127, 180, 190, 119, 2, 0.59143
4, 2, wb, attraction, a-b-db, 5, 2, 3, 34, 165, 90, 90, 165, 88, 161, 2, 1.86513
4, 2, wb, attraction, a-b-db, 5, 2, 3, 34, 165, 90, 90, 165, 88, 161, 3, 1.68465
4, 2, wb, attraction, a-b-da, 5, 2, 3, 35, 90, 165, 165, 90, 161, 88, 1, 1.08023
4, 2, wb, attraction, a-b-da, 5, 2, 3, 35, 90, 165, 165, 90, 161, 88, 2, 0.632172
4, 2, wb, filler, NA, 999, 999, 3, 36, 194, 195, 160, 181, 98, 151, 2, 0.852847
4, 2, wb, filler, NA, 999, 999, 3, 36, 194, 195, 160, 181, 98, 151, 1, 1.36994
4, 2, wb, attraction, a-b-da, 2, 2, 3, 37, 90, 165, 165, 90, 163, 89, 3, 2.21837
4, 2, wb, attraction, a-b-da, 2, 2, 3, 37, 90, 165, 165, 90, 163, 89, 2, 0.825122
4, 2, wb, attraction, a-b-db, 9, 2, 4, 1, 165, 90, 90, 165, 86, 157, 3, 1.09305
4, 2, wb, attraction, a-b-db, 9, 2, 4, 1, 165, 90, 90, 165, 86, 157, 1, 0.568855
4, 2, wb, filler, NA, 999, 999, 4, 2, 151, 103, 155, 93, 158, 83, 2, 1.3121
4, 2, wb, filler, NA, 999, 999, 4, 2, 151, 103, 155, 93, 158, 83, 1, 0.570102
4, 2, wb, attraction, a-b-da, 5, 2, 4, 3, 165, 90, 90, 165, 161, 88, 2, 0.935212
4, 2, wb, attraction, a-b-da, 5, 2, 4, 3, 165, 90, 90, 165, 161, 88, 1, 0.659896
4, 2, wb, attraction, a-b-db, 2, 3, 4, 4, 120, 195, 195, 120, 119, 193, 2, 1.24462
4, 2, wb, attraction, a-b-db, 2, 3, 4, 4, 120, 195, 195, 120, 119, 193, 3, 0.595207
4, 2, wb, attraction, a-b-db, 5, 3, 4, 5, 195, 120, 120, 195, 117, 190, 3, 2.00045
4, 2, wb, attraction, a-b-db, 5, 3, 4, 5, 195, 120, 120, 195, 117, 190, 1, 0.559435
4, 2, wb, catch, NA, 999, 999, 4, 6, 100, 155, 86, 109, 130, 185, 2, 0.918734
4, 2, wb, catch, NA, 999, 999, 4, 6, 100, 155, 86, 109, 130, 185, 3, 0.619372
4, 2, wb, filler, NA, 999, 999, 4, 7, 184, 121, 118, 145, 94, 74, 3, 1.15105
4, 2, wb, filler, NA, 999, 999, 4, 7, 184, 121, 118, 145, 94, 74, 2, 0.729211
4, 2, wb, filler, NA, 999, 999, 4, 8, 160, 115, 110, 190, 76, 141, 2, 2.11237
4, 2, wb, filler, NA, 999, 999, 4, 8, 160, 115, 110, 190, 76, 141, 1, 3.45191
4, 2, wb, attraction, a-b-db, 14, 3, 4, 9, 111, 181, 120, 195, 195, 120, 1, 2.26916
4, 2, wb, attraction, a-b-db, 14, 3, 4, 9, 111, 181, 120, 195, 195, 120, 2, 0.553114
4, 2, wb, filler, NA, 999, 999, 4, 10, 79, 174, 129, 153, 193, 182, 1, 1.21769
4, 2, wb, filler, NA, 999, 999, 4, 10, 79, 174, 129, 153, 193, 182, 3, 0.679324
4, 2, wb, attraction, a-b-da, 14, 1, 4, 11, 135, 60, 60, 135, 125, 56, 3, 2.01889
4, 2, wb, attraction, a-b-da, 14, 1, 4, 11, 135, 60, 60, 135, 125, 56, 1, 0.985237
4, 2, wb, attraction, a-b-da, 2, 2, 4, 12, 163, 89, 165, 90, 90, 165, 3, 1.62423
4, 2, wb, attraction, a-b-da, 2, 2, 4, 12, 163, 89, 165, 90, 90, 165, 1, 0.870622
4, 2, wb, attraction, a-b-da, 5, 3, 4, 13, 195, 120, 190, 117, 120, 195, 3, 1.36057
4, 2, wb, attraction, a-b-da, 5, 3, 4, 13, 195, 120, 190, 117, 120, 195, 2, 0.617127
4, 2, wb, attraction, a-b-db, 2, 2, 4, 14, 90, 165, 89, 163, 165, 90, 1, 1.64635
4, 2, wb, attraction, a-b-db, 2, 2, 4, 14, 90, 165, 89, 163, 165, 90, 3, 0.618699
4, 2, wb, attraction, a-b-db, 9, 3, 4, 15, 114, 186, 120, 195, 195, 120, 3, 1.74581
4, 2, wb, attraction, a-b-db, 9, 3, 4, 15, 114, 186, 120, 195, 195, 120, 1, 0.607774
4, 2, wb, catch, NA, 999, 999, 4, 16, 116, 79, 187, 128, 119, 136, 1, 1.15806
4, 2, wb, catch, NA, 999, 999, 4, 16, 116, 79, 187, 128, 119, 136, 2, 0.598966
4, 2, wb, attraction, a-b-da, 5, 1, 4, 17, 135, 60, 60, 135, 132, 58, 2, 3.32613
4, 2, wb, attraction, a-b-da, 5, 1, 4, 17, 135, 60, 60, 135, 132, 58, 1, 1.19932
4, 2, wb, filler, NA, 999, 999, 4, 18, 188, 119, 164, 177, 179, 86, 3, 2.53246
4, 2, wb, filler, NA, 999, 999, 4, 18, 188, 119, 164, 177, 179, 86, 2, 1.70107
4, 2, wb, attraction, a-b-db, 9, 1, 4, 19, 135, 60, 57, 129, 60, 135, 2, 3.56879
4, 2, wb, attraction, a-b-db, 9, 1, 4, 19, 135, 60, 57, 129, 60, 135, 1, 0.83058
4, 2, wb, filler, NA, 999, 999, 4, 20, 96, 132, 166, 94, 187, 143, 1, 2.0364
4, 2, wb, filler, NA, 999, 999, 4, 20, 96, 132, 166, 94, 187, 143, 3, 0.586208
4, 2, wb, catch, NA, 999, 999, 4, 21, 125, 70, 154, 101, 124, 191, 1, 1.91181
4, 2, wb, catch, NA, 999, 999, 4, 21, 125, 70, 154, 101, 124, 191, 3, 0.715971
4, 2, wb, filler, NA, 999, 999, 4, 22, 158, 67, 100, 185, 116, 90, 3, 1.34668
4, 2, wb, filler, NA, 999, 999, 4, 22, 158, 67, 100, 185, 116, 90, 2, 0.650587
4, 2, wb, attraction, a-b-db, 2, 1, 4, 23, 59, 134, 135, 60, 60, 135, 2, 5.34333
4, 2, wb, attraction, a-b-db, 2, 1, 4, 23, 59, 134, 135, 60, 60, 135, 1, 0.680634
4, 2, wb, attraction, a-b-da, 14, 3, 4, 24, 120, 195, 181, 111, 195, 120, 2, 2.30677
4, 2, wb, attraction, a-b-da, 14, 3, 4, 24, 120, 195, 181, 111, 195, 120, 1, 0.549973
4, 2, wb, attraction, a-b-da, 9, 2, 4, 25, 90, 165, 157, 86, 165, 90, 2, 1.43714
4, 2, wb, attraction, a-b-da, 9, 2, 4, 25, 90, 165, 157, 86, 165, 90, 1, 1.23708
4, 2, wb, filler, NA, 999, 999, 4, 26, 164, 118, 115, 90, 76, 164, 2, 1.06276
4, 2, wb, filler, NA, 999, 999, 4, 26, 164, 118, 115, 90, 76, 164, 1, 0.618485
4, 2, wb, filler, NA, 999, 999, 4, 27, 129, 161, 142, 69, 150, 80, 2, 3.76748
4, 2, wb, filler, NA, 999, 999, 4, 27, 129, 161, 142, 69, 150, 80, 1, 0.546052
4, 2, wb, filler, NA, 999, 999, 4, 28, 114, 150, 96, 171, 74, 166, 2, 1.75198
4, 2, wb, filler, NA, 999, 999, 4, 28, 114, 150, 96, 171, 74, 166, 1, 0.7752
4, 2, wb, attraction, a-b-db, 5, 1, 4, 29, 60, 135, 135, 60, 58, 132, 2, 1.25424
4, 2, wb, attraction, a-b-db, 5, 1, 4, 29, 60, 135, 135, 60, 58, 132, 3, 0.59663
4, 2, wb, attraction, a-b-da, 9, 3, 4, 30, 120, 195, 186, 114, 195, 120, 2, 0.98611
4, 2, wb, attraction, a-b-da, 9, 3, 4, 30, 120, 195, 186, 114, 195, 120, 1, 0.603864
4, 2, wb, attraction, a-b-da, 9, 1, 4, 31, 60, 135, 129, 57, 135, 60, 2, 0.978069
4, 2, wb, attraction, a-b-da, 9, 1, 4, 31, 60, 135, 129, 57, 135, 60, 3, 0.713047
4, 2, wb, attraction, a-b-da, 2, 3, 4, 32, 193, 119, 120, 195, 195, 120, 2, 1.13256
4, 2, wb, attraction, a-b-da, 2, 3, 4, 32, 193, 119, 120, 195, 195, 120, 1, 0.725874
4, 2, wb, attraction, a-b-da, 14, 2, 4, 33, 165, 90, 153, 83, 90, 165, 2, 0.82844
4, 2, wb, attraction, a-b-da, 14, 2, 4, 33, 165, 90, 153, 83, 90, 165, 1, 0.658456
4, 2, wb, attraction, a-b-db, 14, 2, 4, 34, 83, 153, 90, 165, 165, 90, 3, 1.30951
4, 2, wb, attraction, a-b-db, 14, 2, 4, 34, 83, 153, 90, 165, 165, 90, 1, 0.577217
4, 2, wb, attraction, a-b-da, 2, 1, 4, 35, 134, 59, 60, 135, 135, 60, 3, 1.49612
4, 2, wb, attraction, a-b-da, 2, 1, 4, 35, 134, 59, 60, 135, 135, 60, 2, 0.563844
4, 2, wb, attraction, a-b-db, 14, 1, 4, 36, 56, 125, 60, 135, 135, 60, 1, 1.17131
4, 2, wb, attraction, a-b-db, 14, 1, 4, 36, 56, 125, 60, 135, 135, 60, 2, 1.07508
4, 2, wb, attraction, a-b-db, 5, 2, 4, 37, 88, 161, 90, 165, 165, 90, 3, 1.47887
4, 2, wb, attraction, a-b-db, 5, 2, 4, 37, 88, 161, 90, 165, 165, 90, 2, 0.681537
4, 2, wb, attraction, a-b-db, 2, 1, 5, 1, 135, 60, 60, 135, 59, 134, 1, 4.05156
4, 2, wb, attraction, a-b-db, 2, 1, 5, 1, 135, 60, 60, 135, 59, 134, 2, 0.576002
4, 2, wb, catch, NA, 999, 999, 5, 2, 141, 174, 113, 82, 151, 104, 2, 1.08569
4, 2, wb, catch, NA, 999, 999, 5, 2, 141, 174, 113, 82, 151, 104, 1, 1.52765
4, 2, wb, attraction, a-b-db, 14, 3, 5, 3, 195, 120, 120, 195, 111, 181, 3, 2.6278
4, 2, wb, attraction, a-b-db, 14, 3, 5, 3, 195, 120, 120, 195, 111, 181, 2, 0.586529
4, 2, wb, catch, NA, 999, 999, 5, 4, 189, 126, 66, 129, 97, 158, 2, 1.31179
4, 2, wb, catch, NA, 999, 999, 5, 4, 189, 126, 66, 129, 97, 158, 1, 1.47907
4, 2, wb, attraction, a-b-da, 14, 1, 5, 5, 125, 56, 60, 135, 135, 60, 1, 1.06974
4, 2, wb, attraction, a-b-da, 14, 1, 5, 5, 125, 56, 60, 135, 135, 60, 2, 0.542264
4, 2, wb, attraction, a-b-db, 2, 3, 5, 6, 119, 193, 195, 120, 120, 195, 1, 2.34391
4, 2, wb, attraction, a-b-db, 2, 3, 5, 6, 119, 193, 195, 120, 120, 195, 2, 0.553129
4, 2, wb, attraction, a-b-da, 2, 1, 5, 7, 135, 60, 60, 135, 134, 59, 2, 2.31311
4, 2, wb, attraction, a-b-da, 2, 1, 5, 7, 135, 60, 60, 135, 134, 59, 3, 0.667442
4, 2, wb, attraction, a-b-da, 9, 2, 5, 8, 157, 86, 90, 165, 165, 90, 1, 1.36632
4, 2, wb, attraction, a-b-da, 9, 2, 5, 8, 157, 86, 90, 165, 165, 90, 2, 1.88651
4, 2, wb, filler, NA, 999, 999, 5, 9, 152, 100, 97, 169, 111, 192, 2, 2.36031
4, 2, wb, filler, NA, 999, 999, 5, 9, 152, 100, 97, 169, 111, 192, 3, 0.610567
4, 2, wb, catch, NA, 999, 999, 5, 10, 66, 129, 139, 116, 156, 159, 1, 1.29584
4, 2, wb, catch, NA, 999, 999, 5, 10, 66, 129, 139, 116, 156, 159, 3, 0.673042
4, 2, wb, attraction, a-b-da, 5, 1, 5, 11, 132, 58, 60, 135, 135, 60, 1, 1.30917
4, 2, wb, attraction, a-b-da, 5, 1, 5, 11, 132, 58, 60, 135, 135, 60, 3, 0.574782
4, 2, wb, attraction, a-b-db, 14, 1, 5, 12, 56, 125, 135, 60, 60, 135, 1, 1.1036
4, 2, wb, attraction, a-b-db, 14, 1, 5, 12, 56, 125, 135, 60, 60, 135, 3, 1.66547
4, 2, wb, attraction, a-b-db, 9, 2, 5, 13, 90, 165, 86, 157, 165, 90, 3, 2.50875
4, 2, wb, attraction, a-b-db, 9, 2, 5, 13, 90, 165, 86, 157, 165, 90, 2, 0.848577
4, 2, wb, attraction, a-b-db, 9, 3, 5, 14, 195, 120, 120, 195, 114, 186, 1, 1.89046
4, 2, wb, attraction, a-b-db, 9, 3, 5, 14, 195, 120, 120, 195, 114, 186, 2, 1.39983
4, 2, wb, filler, NA, 999, 999, 5, 15, 157, 165, 119, 68, 109, 114, 2, 1.08355
4, 2, wb, filler, NA, 999, 999, 5, 15, 157, 165, 119, 68, 109, 114, 1, 0.696097
4, 2, wb, filler, NA, 999, 999, 5, 16, 193, 148, 181, 80, 154, 69, 3, 1.33767
4, 2, wb, filler, NA, 999, 999, 5, 16, 193, 148, 181, 80, 154, 69, 1, 0.515688
4, 2, wb, filler, NA, 999, 999, 5, 17, 106, 170, 171, 114, 110, 181, 2, 1.71474
4, 2, wb, filler, NA, 999, 999, 5, 17, 106, 170, 171, 114, 110, 181, 1, 0.520197
4, 2, wb, attraction, a-b-da, 9, 3, 5, 18, 186, 114, 195, 120, 120, 195, 1, 1.94409
4, 2, wb, attraction, a-b-da, 9, 3, 5, 18, 186, 114, 195, 120, 120, 195, 2, 0.840424
4, 2, wb, attraction, a-b-db, 9, 1, 5, 19, 60, 135, 135, 60, 57, 129, 1, 1.01299
4, 2, wb, attraction, a-b-db, 9, 1, 5, 19, 60, 135, 135, 60, 57, 129, 2, 0.764437
4, 2, wb, attraction, a-b-db, 5, 2, 5, 20, 88, 161, 90, 165, 165, 90, 3, 1.3552
4, 2, wb, attraction, a-b-db, 5, 2, 5, 20, 88, 161, 90, 165, 165, 90, 1, 0.557924
4, 2, wb, attraction, a-b-db, 5, 1, 5, 21, 60, 135, 58, 132, 135, 60, 2, 1.12248
4, 2, wb, attraction, a-b-db, 5, 1, 5, 21, 60, 135, 58, 132, 135, 60, 1, 0.550222
4, 2, wb, attraction, a-b-da, 14, 2, 5, 22, 90, 165, 153, 83, 165, 90, 2, 0.859321
4, 2, wb, attraction, a-b-da, 14, 2, 5, 22, 90, 165, 153, 83, 165, 90, 1, 0.64377
4, 2, wb, filler, NA, 999, 999, 5, 23, 59, 137, 86, 159, 146, 88, 1, 1.13685
4, 2, wb, filler, NA, 999, 999, 5, 23, 59, 137, 86, 159, 146, 88, 2, 0.616109
4, 2, wb, attraction, a-b-da, 2, 2, 5, 24, 163, 89, 165, 90, 90, 165, 1, 1.77428
4, 2, wb, attraction, a-b-da, 2, 2, 5, 24, 163, 89, 165, 90, 90, 165, 3, 1.38985
4, 2, wb, attraction, a-b-da, 14, 3, 5, 25, 181, 111, 120, 195, 195, 120, 1, 1.14728
4, 2, wb, attraction, a-b-da, 14, 3, 5, 25, 181, 111, 120, 195, 195, 120, 3, 0.628648
4, 2, wb, filler, NA, 999, 999, 5, 26, 131, 70, 80, 129, 134, 99, 1, 1.10622
4, 2, wb, filler, NA, 999, 999, 5, 26, 131, 70, 80, 129, 134, 99, 2, 0.73123
4, 2, wb, attraction, a-b-da, 9, 1, 5, 27, 60, 135, 129, 57, 135, 60, 1, 2.80416
4, 2, wb, attraction, a-b-da, 9, 1, 5, 27, 60, 135, 129, 57, 135, 60, 2, 0.996193
4, 2, wb, attraction, a-b-da, 2, 3, 5, 28, 193, 119, 195, 120, 120, 195, 1, 1.27227
4, 2, wb, attraction, a-b-da, 2, 3, 5, 28, 193, 119, 195, 120, 120, 195, 3, 0.687315
4, 2, wb, filler, NA, 999, 999, 5, 29, 94, 62, 142, 157, 176, 161, 1, 1.04711
4, 2, wb, filler, NA, 999, 999, 5, 29, 94, 62, 142, 157, 176, 161, 3, 0.653388
4, 2, wb, filler, NA, 999, 999, 5, 30, 112, 187, 182, 68, 146, 66, 3, 1.25064
4, 2, wb, filler, NA, 999, 999, 5, 30, 112, 187, 182, 68, 146, 66, 1, 0.582806
4, 2, wb, attraction, a-b-db, 14, 2, 5, 31, 83, 153, 90, 165, 165, 90, 1, 1.01965
4, 2, wb, attraction, a-b-db, 14, 2, 5, 31, 83, 153, 90, 165, 165, 90, 2, 0.572105
4, 2, wb, filler, NA, 999, 999, 5, 32, 153, 94, 104, 125, 99, 83, 3, 1.04078
4, 2, wb, filler, NA, 999, 999, 5, 32, 153, 94, 104, 125, 99, 83, 1, 0.608834
4, 2, wb, attraction, a-b-da, 5, 2, 5, 33, 165, 90, 90, 165, 161, 88, 3, 1.64423
4, 2, wb, attraction, a-b-da, 5, 2, 5, 33, 165, 90, 90, 165, 161, 88, 2, 0.729768
4, 2, wb, attraction, a-b-db, 2, 2, 5, 34, 165, 90, 90, 165, 89, 163, 1, 1.57002
4, 2, wb, attraction, a-b-db, 2, 2, 5, 34, 165, 90, 90, 165, 89, 163, 2, 0.859511
4, 2, wb, attraction, a-b-da, 5, 3, 5, 35, 120, 195, 190, 117, 195, 120, 3, 1.61679
4, 2, wb, attraction, a-b-da, 5, 3, 5, 35, 120, 195, 190, 117, 195, 120, 1, 0.56579
4, 2, wb, attraction, a-b-db, 5, 3, 5, 36, 120, 195, 195, 120, 117, 190, 2, 1.98879
4, 2, wb, attraction, a-b-db, 5, 3, 5, 36, 120, 195, 195, 120, 117, 190, 1, 0.851904
4, 2, wb, filler, NA, 999, 999, 5, 37, 106, 112, 136, 189, 136, 169, 1, 1.07974
4, 2, wb, filler, NA, 999, 999, 5, 37, 106, 112, 136, 189, 136, 169, 2, 0.604881
4, 2, wb, attraction, a-b-db, 14, 2, 6, 1, 90, 165, 83, 153, 165, 90, 2, 1.78606
4, 2, wb, attraction, a-b-db, 14, 2, 6, 1, 90, 165, 83, 153, 165, 90, 1, 0.649402
4, 2, wb, attraction, a-b-db, 5, 1, 6, 2, 60, 135, 135, 60, 58, 132, 1, 1.58856
4, 2, wb, attraction, a-b-db, 5, 1, 6, 2, 60, 135, 135, 60, 58, 132, 2, 0.541651
4, 2, wb, attraction, a-b-db, 9, 3, 6, 3, 114, 186, 195, 120, 120, 195, 1, 1.0444
4, 2, wb, attraction, a-b-db, 9, 3, 6, 3, 114, 186, 195, 120, 120, 195, 2, 0.633699
4, 2, wb, catch, NA, 999, 999, 6, 4, 109, 146, 105, 90, 185, 130, 2, 0.982382
4, 2, wb, catch, NA, 999, 999, 6, 4, 109, 146, 105, 90, 185, 130, 3, 0.542838
4, 2, wb, attraction, a-b-db, 2, 1, 6, 5, 59, 134, 135, 60, 60, 135, 2, 1.50882
4, 2, wb, attraction, a-b-db, 2, 1, 6, 5, 59, 134, 135, 60, 60, 135, 3, 0.842819
4, 2, wb, attraction, a-b-db, 9, 1, 6, 6, 135, 60, 57, 129, 60, 135, 2, 1.37418
4, 2, wb, attraction, a-b-db, 9, 1, 6, 6, 135, 60, 57, 129, 60, 135, 1, 0.564934
4, 2, wb, filler, NA, 999, 999, 6, 7, 87, 187, 127, 77, 190, 124, 2, 1.07764
4, 2, wb, filler, NA, 999, 999, 6, 7, 87, 187, 127, 77, 190, 124, 3, 0.655553
4, 2, wb, filler, NA, 999, 999, 6, 8, 63, 185, 187, 101, 125, 165, 1, 1.13155
4, 2, wb, filler, NA, 999, 999, 6, 8, 63, 185, 187, 101, 125, 165, 3, 0.517358
4, 2, wb, filler, NA, 999, 999, 6, 9, 177, 114, 176, 62, 180, 68, 2, 0.96643
4, 2, wb, filler, NA, 999, 999, 6, 9, 177, 114, 176, 62, 180, 68, 1, 0.559173
4, 2, wb, filler, NA, 999, 999, 6, 10, 75, 98, 116, 181, 100, 175, 1, 1.19691
4, 2, wb, filler, NA, 999, 999, 6, 10, 75, 98, 116, 181, 100, 175, 2, 0.542236
4, 2, wb, attraction, a-b-db, 14, 3, 6, 11, 195, 120, 120, 195, 111, 181, 3, 1.47691
4, 2, wb, attraction, a-b-db, 14, 3, 6, 11, 195, 120, 120, 195, 111, 181, 1, 0.602933
4, 2, wb, attraction, a-b-da, 5, 1, 6, 12, 132, 58, 135, 60, 60, 135, 3, 1.31948
4, 2, wb, attraction, a-b-da, 5, 1, 6, 12, 132, 58, 135, 60, 60, 135, 1, 1.36982
4, 2, wb, attraction, a-b-da, 9, 2, 6, 13, 157, 86, 90, 165, 165, 90, 1, 1.13707
4, 2, wb, attraction, a-b-da, 9, 2, 6, 13, 157, 86, 90, 165, 165, 90, 2, 0.588172
4, 2, wb, attraction, a-b-da, 5, 2, 6, 14, 161, 88, 90, 165, 165, 90, 3, 1.49121
4, 2, wb, attraction, a-b-da, 5, 2, 6, 14, 161, 88, 90, 165, 165, 90, 2, 0.558065
4, 2, wb, attraction, a-b-db, 2, 2, 6, 15, 165, 90, 89, 163, 90, 165, 2, 1.0993
4, 2, wb, attraction, a-b-db, 2, 2, 6, 15, 165, 90, 89, 163, 90, 165, 1, 0.552969
4, 2, wb, attraction, a-b-db, 9, 2, 6, 16, 90, 165, 86, 157, 165, 90, 2, 1.10456
4, 2, wb, attraction, a-b-db, 9, 2, 6, 16, 90, 165, 86, 157, 165, 90, 3, 0.61128
4, 2, wb, filler, NA, 999, 999, 6, 17, 96, 194, 114, 143, 187, 161, 2, 0.993056
4, 2, wb, filler, NA, 999, 999, 6, 17, 96, 194, 114, 143, 187, 161, 3, 0.590412
4, 2, wb, attraction, a-b-da, 14, 2, 6, 18, 153, 83, 90, 165, 165, 90, 2, 1.2215
4, 2, wb, attraction, a-b-da, 14, 2, 6, 18, 153, 83, 90, 165, 165, 90, 3, 0.556742
4, 2, wb, attraction, a-b-da, 9, 1, 6, 19, 135, 60, 60, 135, 129, 57, 2, 1.02178
4, 2, wb, attraction, a-b-da, 9, 1, 6, 19, 135, 60, 60, 135, 129, 57, 1, 0.570199
4, 2, wb, attraction, a-b-da, 2, 2, 6, 20, 90, 165, 163, 89, 165, 90, 2, 1.08042
4, 2, wb, attraction, a-b-da, 2, 2, 6, 20, 90, 165, 163, 89, 165, 90, 3, 0.565024
4, 2, wb, attraction, a-b-da, 2, 1, 6, 21, 135, 60, 134, 59, 60, 135, 2, 2.86928
4, 2, wb, attraction, a-b-da, 2, 1, 6, 21, 135, 60, 134, 59, 60, 135, 1, 1.59945
4, 2, wb, attraction, a-b-db, 2, 3, 6, 22, 119, 193, 120, 195, 195, 120, 2, 0.949889
4, 2, wb, attraction, a-b-db, 2, 3, 6, 22, 119, 193, 120, 195, 195, 120, 3, 0.557722
4, 2, wb, filler, NA, 999, 999, 6, 23, 185, 170, 138, 188, 167, 85, 3, 1.45394
4, 2, wb, filler, NA, 999, 999, 6, 23, 185, 170, 138, 188, 167, 85, 1, 0.756855
4, 2, wb, filler, NA, 999, 999, 6, 24, 194, 169, 187, 137, 158, 108, 3, 1.36241
4, 2, wb, filler, NA, 999, 999, 6, 24, 194, 169, 187, 137, 158, 108, 2, 0.658026
4, 2, wb, catch, NA, 999, 999, 6, 25, 160, 155, 79, 116, 118, 137, 2, 1.05431
4, 2, wb, catch, NA, 999, 999, 6, 25, 160, 155, 79, 116, 118, 137, 1, 0.538177
4, 2, wb, catch, NA, 999, 999, 6, 26, 124, 131, 172, 143, 121, 74, 3, 1.19604
4, 2, wb, catch, NA, 999, 999, 6, 26, 124, 131, 172, 143, 121, 74, 2, 1.3242
4, 2, wb, attraction, a-b-da, 9, 3, 6, 27, 195, 120, 186, 114, 120, 195, 3, 1.56405
4, 2, wb, attraction, a-b-da, 9, 3, 6, 27, 195, 120, 186, 114, 120, 195, 1, 0.596691
4, 2, wb, filler, NA, 999, 999, 6, 28, 129, 169, 111, 170, 149, 70, 3, 1.20319
4, 2, wb, filler, NA, 999, 999, 6, 28, 129, 169, 111, 170, 149, 70, 2, 0.536411
4, 2, wb, attraction, a-b-db, 5, 2, 6, 29, 90, 165, 88, 161, 165, 90, 2, 0.994863
4, 2, wb, attraction, a-b-db, 5, 2, 6, 29, 90, 165, 88, 161, 165, 90, 3, 0.56192
4, 2, wb, attraction, a-b-da, 14, 1, 6, 30, 125, 56, 135, 60, 60, 135, 3, 1.39311
4, 2, wb, attraction, a-b-da, 14, 1, 6, 30, 125, 56, 135, 60, 60, 135, 2, 0.58606
4, 2, wb, attraction, a-b-db, 14, 1, 6, 31, 135, 60, 56, 125, 60, 135, 2, 1.01407
4, 2, wb, attraction, a-b-db, 14, 1, 6, 31, 135, 60, 56, 125, 60, 135, 3, 0.756846
4, 2, wb, attraction, a-b-da, 14, 3, 6, 32, 181, 111, 120, 195, 195, 120, 1, 1.60532
4, 2, wb, attraction, a-b-da, 14, 3, 6, 32, 181, 111, 120, 195, 195, 120, 2, 0.725877
4, 2, wb, attraction, a-b-db, 5, 3, 6, 33, 195, 120, 117, 190, 120, 195, 1, 1.82014
4, 2, wb, attraction, a-b-db, 5, 3, 6, 33, 195, 120, 117, 190, 120, 195, 2, 0.795086
4, 2, wb, attraction, a-b-da, 2, 3, 6, 34, 195, 120, 120, 195, 193, 119, 1, 1.34635
4, 2, wb, attraction, a-b-da, 2, 3, 6, 34, 195, 120, 120, 195, 193, 119, 2, 0.571048
4, 2, wb, filler, NA, 999, 999, 6, 35, 110, 150, 187, 160, 59, 140, 3, 2.01694
4, 2, wb, filler, NA, 999, 999, 6, 35, 110, 150, 187, 160, 59, 140, 2, 1.53552
4, 2, wb, attraction, a-b-da, 5, 3, 6, 36, 120, 195, 195, 120, 190, 117, 2, 2.86921
4, 2, wb, attraction, a-b-da, 5, 3, 6, 36, 120, 195, 195, 120, 190, 117, 1, 0.938399
4, 2, wb, filler, NA, 999, 999, 6, 37, 168, 148, 98, 160, 68, 107, 3, 1.3249
4, 2, wb, filler, NA, 999, 999, 6, 37, 168, 148, 98, 160, 68, 107, 1, 0.694365
4, 2, wb, attraction, a-b-da, 5, 3, 7, 1, 120, 195, 190, 117, 195, 120, 3, 1.71126
4, 2, wb, attraction, a-b-da, 5, 3, 7, 1, 120, 195, 190, 117, 195, 120, 1, 2.16954
4, 2, wb, attraction, a-b-db, 14, 1, 7, 2, 135, 60, 60, 135, 56, 125, 2, 1.67345
4, 2, wb, attraction, a-b-db, 14, 1, 7, 2, 135, 60, 60, 135, 56, 125, 3, 2.01361
4, 2, wb, attraction, a-b-db, 2, 3, 7, 3, 119, 193, 195, 120, 120, 195, 2, 0.970852
4, 2, wb, attraction, a-b-db, 2, 3, 7, 3, 119, 193, 195, 120, 120, 195, 3, 0.658798
4, 2, wb, filler, NA, 999, 999, 7, 4, 64, 175, 183, 82, 78, 61, 3, 1.42901
4, 2, wb, filler, NA, 999, 999, 7, 4, 64, 175, 183, 82, 78, 61, 2, 0.547324
4, 2, wb, filler, NA, 999, 999, 7, 5, 163, 94, 132, 175, 171, 177, 1, 1.21053
4, 2, wb, filler, NA, 999, 999, 7, 5, 163, 94, 132, 175, 171, 177, 3, 1.48935
4, 2, wb, filler, NA, 999, 999, 7, 6, 110, 74, 109, 131, 100, 68, 1, 1.30884
4, 2, wb, filler, NA, 999, 999, 7, 6, 110, 74, 109, 131, 100, 68, 2, 1.23177
4, 2, wb, attraction, a-b-da, 2, 1, 7, 7, 135, 60, 134, 59, 60, 135, 2, 2.02737
4, 2, wb, attraction, a-b-da, 2, 1, 7, 7, 135, 60, 134, 59, 60, 135, 3, 0.514005
4, 2, wb, attraction, a-b-db, 5, 2, 7, 8, 88, 161, 165, 90, 90, 165, 2, 1.50664
4, 2, wb, attraction, a-b-db, 5, 2, 7, 8, 88, 161, 165, 90, 90, 165, 3, 0.564785
4, 2, wb, attraction, a-b-db, 9, 1, 7, 9, 57, 129, 135, 60, 60, 135, 1, 1.57125
4, 2, wb, attraction, a-b-db, 9, 1, 7, 9, 57, 129, 135, 60, 60, 135, 2, 0.620283
4, 2, wb, filler, NA, 999, 999, 7, 10, 152, 69, 141, 119, 133, 168, 1, 1.11285
4, 2, wb, filler, NA, 999, 999, 7, 10, 152, 69, 141, 119, 133, 168, 3, 0.716929
4, 2, wb, filler, NA, 999, 999, 7, 11, 181, 178, 97, 90, 116, 124, 2, 1.24663
4, 2, wb, filler, NA, 999, 999, 7, 11, 181, 178, 97, 90, 116, 124, 1, 0.556127
4, 2, wb, filler, NA, 999, 999, 7, 12, 92, 60, 96, 122, 88, 174, 1, 1.15365
4, 2, wb, filler, NA, 999, 999, 7, 12, 92, 60, 96, 122, 88, 174, 3, 0.729757
4, 2, wb, filler, NA, 999, 999, 7, 13, 169, 78, 160, 56, 177, 103, 2, 1.19526
4, 2, wb, filler, NA, 999, 999, 7, 13, 169, 78, 160, 56, 177, 103, 3, 0.652116
4, 2, wb, attraction, a-b-db, 9, 3, 7, 14, 114, 186, 120, 195, 195, 120, 2, 1.99791
4, 2, wb, attraction, a-b-db, 9, 3, 7, 14, 114, 186, 120, 195, 195, 120, 1, 0.725432
4, 2, wb, attraction, a-b-da, 5, 2, 7, 15, 90, 165, 165, 90, 161, 88, 1, 7.75947
4, 2, wb, attraction, a-b-da, 5, 2, 7, 15, 90, 165, 165, 90, 161, 88, 2, 1.38146
4, 2, wb, attraction, a-b-da, 14, 3, 7, 16, 181, 111, 120, 195, 195, 120, 1, 2.4187
4, 2, wb, attraction, a-b-da, 14, 3, 7, 16, 181, 111, 120, 195, 195, 120, 2, 1.22523
4, 2, wb, attraction, a-b-db, 14, 2, 7, 17, 83, 153, 165, 90, 90, 165, 1, 2.42176
4, 2, wb, attraction, a-b-db, 14, 2, 7, 17, 83, 153, 165, 90, 90, 165, 3, 0.627552
4, 2, wb, attraction, a-b-db, 5, 3, 7, 18, 117, 190, 120, 195, 195, 120, 1, 1.04135
4, 2, wb, attraction, a-b-db, 5, 3, 7, 18, 117, 190, 120, 195, 195, 120, 2, 0.646661
4, 2, wb, filler, NA, 999, 999, 7, 19, 64, 143, 155, 121, 195, 146, 1, 0.99384
4, 2, wb, filler, NA, 999, 999, 7, 19, 64, 143, 155, 121, 195, 146, 3, 0.552884
4, 2, wb, attraction, a-b-da, 2, 3, 7, 20, 195, 120, 193, 119, 120, 195, 2, 3.08362
4, 2, wb, attraction, a-b-da, 2, 3, 7, 20, 195, 120, 193, 119, 120, 195, 3, 0.901664
4, 2, wb, attraction, a-b-db, 9, 2, 7, 21, 90, 165, 165, 90, 86, 157, 3, 1.24803
4, 2, wb, attraction, a-b-db, 9, 2, 7, 21, 90, 165, 165, 90, 86, 157, 1, 0.684629
4, 2, wb, filler, NA, 999, 999, 7, 22, 140, 88, 88, 61, 116, 170, 2, 1.01484
4, 2, wb, filler, NA, 999, 999, 7, 22, 140, 88, 88, 61, 116, 170, 3, 0.620311
4, 2, wb, attraction, a-b-db, 2, 1, 7, 23, 135, 60, 59, 134, 60, 135, 1, 1.91346
4, 2, wb, attraction, a-b-db, 2, 1, 7, 23, 135, 60, 59, 134, 60, 135, 2, 0.555065
4, 2, wb, attraction, a-b-da, 9, 3, 7, 24, 186, 114, 120, 195, 195, 120, 3, 1.66715
4, 2, wb, attraction, a-b-da, 9, 3, 7, 24, 186, 114, 120, 195, 195, 120, 2, 0.535954
4, 2, wb, attraction, a-b-db, 14, 3, 7, 25, 111, 181, 195, 120, 120, 195, 1, 1.032
4, 2, wb, attraction, a-b-db, 14, 3, 7, 25, 111, 181, 195, 120, 120, 195, 3, 1.69284
4, 2, wb, attraction, a-b-da, 9, 1, 7, 26, 135, 60, 129, 57, 60, 135, 2, 1.24742
4, 2, wb, attraction, a-b-da, 9, 1, 7, 26, 135, 60, 129, 57, 60, 135, 3, 0.685135
4, 2, wb, catch, NA, 999, 999, 7, 27, 97, 158, 134, 181, 135, 60, 3, 1.12782
4, 2, wb, catch, NA, 999, 999, 7, 27, 97, 158, 134, 181, 135, 60, 2, 0.631776
4, 2, wb, attraction, a-b-db, 2, 2, 7, 28, 90, 165, 165, 90, 89, 163, 1, 1.67785
4, 2, wb, attraction, a-b-db, 2, 2, 7, 28, 90, 165, 165, 90, 89, 163, 3, 0.650461
4, 2, wb, attraction, a-b-db, 5, 1, 7, 29, 58, 132, 135, 60, 60, 135, 1, 1.01407
4, 2, wb, attraction, a-b-db, 5, 1, 7, 29, 58, 132, 135, 60, 60, 135, 2, 0.546708
4, 2, wb, catch, NA, 999, 999, 7, 30, 139, 116, 152, 163, 115, 80, 3, 1.2451
4, 2, wb, catch, NA, 999, 999, 7, 30, 139, 116, 152, 163, 115, 80, 2, 0.67169
4, 2, wb, attraction, a-b-da, 2, 2, 7, 31, 165, 90, 90, 165, 163, 89, 2, 1.77245
4, 2, wb, attraction, a-b-da, 2, 2, 7, 31, 165, 90, 90, 165, 163, 89, 1, 1.12387
4, 2, wb, attraction, a-b-da, 9, 2, 7, 32, 157, 86, 90, 165, 165, 90, 1, 1.26083
4, 2, wb, attraction, a-b-da, 9, 2, 7, 32, 157, 86, 90, 165, 165, 90, 2, 0.681571
4, 2, wb, attraction, a-b-da, 14, 2, 7, 33, 153, 83, 90, 165, 165, 90, 1, 1.35523
4, 2, wb, attraction, a-b-da, 14, 2, 7, 33, 153, 83, 90, 165, 165, 90, 2, 0.581894
4, 2, wb, attraction, a-b-da, 5, 1, 7, 34, 60, 135, 135, 60, 132, 58, 1, 1.45774
4, 2, wb, attraction, a-b-da, 5, 1, 7, 34, 60, 135, 135, 60, 132, 58, 2, 0.583118
4, 2, wb, catch, NA, 999, 999, 7, 35, 139, 176, 93, 102, 161, 94, 2, 0.998057
4, 2, wb, catch, NA, 999, 999, 7, 35, 139, 176, 93, 102, 161, 94, 1, 0.651926
4, 2, wb, attraction, a-b-da, 14, 1, 7, 36, 125, 56, 60, 135, 135, 60, 2, 2.53723
4, 2, wb, attraction, a-b-da, 14, 1, 7, 36, 125, 56, 60, 135, 135, 60, 3, 0.545251
4, 2, wb, filler, NA, 999, 999, 7, 37, 143, 176, 151, 71, 149, 163, 2, 1.04868
4, 2, wb, filler, NA, 999, 999, 7, 37, 143, 176, 151, 71, 149, 163, 1, 1.30526
4, 2, wb, catch, NA, 999, 999, 8, 1, 150, 105, 162, 153, 82, 113, 3, 1.33022
4, 2, wb, catch, NA, 999, 999, 8, 1, 150, 105, 162, 153, 82, 113, 2, 0.587121
4, 2, wb, attraction, a-b-da, 5, 2, 8, 2, 90, 165, 165, 90, 161, 88, 3, 1.37746
4, 2, wb, attraction, a-b-da, 5, 2, 8, 2, 90, 165, 165, 90, 161, 88, 2, 0.562667
4, 2, wb, attraction, a-b-da, 9, 1, 8, 3, 135, 60, 129, 57, 60, 135, 2, 1.06462
4, 2, wb, attraction, a-b-da, 9, 1, 8, 3, 135, 60, 129, 57, 60, 135, 3, 1.05315
4, 2, wb, filler, NA, 999, 999, 8, 4, 111, 163, 72, 146, 98, 138, 2, 0.992684
4, 2, wb, filler, NA, 999, 999, 8, 4, 111, 163, 72, 146, 98, 138, 1, 0.67397
4, 2, wb, filler, NA, 999, 999, 8, 5, 61, 166, 173, 165, 118, 82, 1, 1.15667
4, 2, wb, filler, NA, 999, 999, 8, 5, 61, 166, 173, 165, 118, 82, 2, 2.01122
4, 2, wb, filler, NA, 999, 999, 8, 6, 69, 175, 159, 131, 167, 84, 1, 1.25098
4, 2, wb, filler, NA, 999, 999, 8, 6, 69, 175, 159, 131, 167, 84, 2, 0.615144
4, 2, wb, attraction, a-b-da, 14, 3, 8, 7, 181, 111, 195, 120, 120, 195, 1, 2.19478
4, 2, wb, attraction, a-b-da, 14, 3, 8, 7, 181, 111, 195, 120, 120, 195, 3, 1.45039
4, 2, wb, attraction, a-b-db, 14, 3, 8, 8, 111, 181, 120, 195, 195, 120, 1, 2.4942
4, 2, wb, attraction, a-b-db, 14, 3, 8, 8, 111, 181, 120, 195, 195, 120, 2, 0.609614
4, 2, wb, attraction, a-b-da, 9, 3, 8, 9, 195, 120, 186, 114, 120, 195, 1, 1.03279
4, 2, wb, attraction, a-b-da, 9, 3, 8, 9, 195, 120, 186, 114, 120, 195, 3, 2.34779
4, 2, wb, attraction, a-b-da, 5, 3, 8, 10, 195, 120, 120, 195, 190, 117, 2, 2.17868
4, 2, wb, attraction, a-b-da, 5, 3, 8, 10, 195, 120, 120, 195, 190, 117, 3, 0.66654
4, 2, wb, filler, NA, 999, 999, 8, 11, 66, 68, 177, 192, 117, 60, 1, 1.01465
4, 2, wb, filler, NA, 999, 999, 8, 11, 66, 68, 177, 192, 117, 60, 2, 0.685999
4, 2, wb, filler, NA, 999, 999, 8, 12, 96, 104, 152, 117, 115, 56, 1, 1.51881
4, 2, wb, filler, NA, 999, 999, 8, 12, 96, 104, 152, 117, 115, 56, 2, 0.608231
4, 2, wb, attraction, a-b-db, 5, 2, 8, 13, 90, 165, 165, 90, 88, 161, 1, 1.71994
4, 2, wb, attraction, a-b-db, 5, 2, 8, 13, 90, 165, 165, 90, 88, 161, 2, 0.601406
4, 2, wb, attraction, a-b-da, 9, 2, 8, 14, 157, 86, 90, 165, 165, 90, 3, 3.01435
4, 2, wb, attraction, a-b-da, 9, 2, 8, 14, 157, 86, 90, 165, 165, 90, 2, 1.89281
4, 2, wb, attraction, a-b-da, 14, 1, 8, 15, 60, 135, 125, 56, 135, 60, 2, 1.36761
4, 2, wb, attraction, a-b-da, 14, 1, 8, 15, 60, 135, 125, 56, 135, 60, 3, 0.56009
4, 2, wb, catch, NA, 999, 999, 8, 16, 121, 194, 148, 107, 134, 61, 3, 1.51013
4, 2, wb, catch, NA, 999, 999, 8, 16, 121, 194, 148, 107, 134, 61, 1, 0.704349
4, 2, wb, filler, NA, 999, 999, 8, 17, 89, 69, 104, 113, 99, 87, 1, 1.45794
4, 2, wb, filler, NA, 999, 999, 8, 17, 89, 69, 104, 113, 99, 87, 2, 0.655013
4, 2, wb, filler, NA, 999, 999, 8, 18, 61, 190, 163, 138, 121, 149, 1, 1.28217
4, 2, wb, filler, NA, 999, 999, 8, 18, 61, 190, 163, 138, 121, 149, 2, 1.69492
4, 2, wb, attraction, a-b-db, 14, 2, 8, 19, 90, 165, 83, 153, 165, 90, 2, 2.61857
4, 2, wb, attraction, a-b-db, 14, 2, 8, 19, 90, 165, 83, 153, 165, 90, 1, 0.83017
4, 2, wb, attraction, a-b-da, 14, 2, 8, 20, 90, 165, 165, 90, 153, 83, 3, 1.98687
4, 2, wb, attraction, a-b-da, 14, 2, 8, 20, 90, 165, 165, 90, 153, 83, 1, 0.561503
4, 2, wb, filler, NA, 999, 999, 8, 21, 168, 95, 118, 59, 103, 63, 2, 1.56298
4, 2, wb, filler, NA, 999, 999, 8, 21, 168, 95, 118, 59, 103, 63, 1, 0.57012
4, 2, wb, attraction, a-b-da, 5, 1, 8, 22, 60, 135, 132, 58, 135, 60, 2, 4.61168
4, 2, wb, attraction, a-b-da, 5, 1, 8, 22, 60, 135, 132, 58, 135, 60, 3, 0.753658
4, 2, wb, attraction, a-b-db, 2, 1, 8, 23, 135, 60, 60, 135, 59, 134, 3, 1.91207
4, 2, wb, attraction, a-b-db, 2, 1, 8, 23, 135, 60, 60, 135, 59, 134, 1, 0.738624
4, 2, wb, attraction, a-b-db, 2, 3, 8, 24, 120, 195, 119, 193, 195, 120, 3, 3.89906
4, 2, wb, attraction, a-b-db, 2, 3, 8, 24, 120, 195, 119, 193, 195, 120, 1, 0.86065
4, 2, wb, attraction, a-b-db, 9, 2, 8, 25, 165, 90, 86, 157, 90, 165, 1, 1.53705
4, 2, wb, attraction, a-b-db, 9, 2, 8, 25, 165, 90, 86, 157, 90, 165, 3, 0.768033
4, 2, wb, attraction, a-b-db, 5, 3, 8, 26, 120, 195, 117, 190, 195, 120, 2, 1.83332
4, 2, wb, attraction, a-b-db, 5, 3, 8, 26, 120, 195, 117, 190, 195, 120, 1, 0.637481
4, 2, wb, attraction, a-b-db, 9, 3, 8, 27, 120, 195, 195, 120, 114, 186, 1, 1.26588
4, 2, wb, attraction, a-b-db, 9, 3, 8, 27, 120, 195, 195, 120, 114, 186, 2, 0.560196
4, 2, wb, filler, NA, 999, 999, 8, 28, 98, 191, 107, 120, 110, 68, 3, 1.32513
4, 2, wb, filler, NA, 999, 999, 8, 28, 98, 191, 107, 120, 110, 68, 1, 0.640608
4, 2, wb, attraction, a-b-da, 2, 3, 8, 29, 195, 120, 193, 119, 120, 195, 2, 2.50768
4, 2, wb, attraction, a-b-da, 2, 3, 8, 29, 195, 120, 193, 119, 120, 195, 1, 0.710652
4, 2, wb, attraction, a-b-db, 2, 2, 8, 30, 90, 165, 89, 163, 165, 90, 3, 1.60116
4, 2, wb, attraction, a-b-db, 2, 2, 8, 30, 90, 165, 89, 163, 165, 90, 1, 0.927847
4, 2, wb, catch, NA, 999, 999, 8, 31, 82, 113, 138, 177, 119, 136, 1, 1.79207
4, 2, wb, catch, NA, 999, 999, 8, 31, 82, 113, 138, 177, 119, 136, 2, 0.59244
4, 2, wb, attraction, a-b-da, 2, 2, 8, 32, 165, 90, 90, 165, 163, 89, 3, 1.79118
4, 2, wb, attraction, a-b-da, 2, 2, 8, 32, 165, 90, 90, 165, 163, 89, 2, 0.67033
4, 2, wb, filler, NA, 999, 999, 8, 33, 139, 181, 162, 86, 192, 137, 2, 1.42667
4, 2, wb, filler, NA, 999, 999, 8, 33, 139, 181, 162, 86, 192, 137, 3, 0.785183
4, 2, wb, attraction, a-b-db, 14, 1, 8, 34, 60, 135, 56, 125, 135, 60, 2, 1.58212
4, 2, wb, attraction, a-b-db, 14, 1, 8, 34, 60, 135, 56, 125, 135, 60, 3, 0.662848
4, 2, wb, attraction, a-b-db, 9, 1, 8, 35, 60, 135, 57, 129, 135, 60, 1, 2.16032
4, 2, wb, attraction, a-b-db, 9, 1, 8, 35, 60, 135, 57, 129, 135, 60, 2, 0.86595
4, 2, wb, attraction, a-b-da, 2, 1, 8, 36, 134, 59, 135, 60, 60, 135, 2, 1.12551
4, 2, wb, attraction, a-b-da, 2, 1, 8, 36, 134, 59, 135, 60, 60, 135, 1, 0.702248
4, 2, wb, attraction, a-b-db, 5, 1, 8, 37, 135, 60, 58, 132, 60, 135, 2, 1.06411
4, 2, wb, attraction, a-b-db, 5, 1, 8, 37, 135, 60, 58, 132, 60, 135, 1, 0.590638
