sub_n, computer_n, bw_cond, effect, set, distance, diag, block_n, trial_n, h1, w1, h2, w2, h3, w3, choice, rt 
57, 2, bw, practice, NA, 999, 999, 0, 1, 81, 148, 80, 186, 147, 99, 2, 3.45864
57, 2, bw, practice, NA, 999, 999, 0, 1, 81, 148, 80, 186, 147, 99, 1, 2.59708
57, 2, bw, practice, NA, 999, 999, 0, 2, 168, 176, 119, 154, 76, 77, 1, 2.06977
57, 2, bw, practice, NA, 999, 999, 0, 2, 168, 176, 119, 154, 76, 77, 3, 1.38773
57, 2, bw, practice, NA, 999, 999, 0, 3, 146, 120, 153, 112, 133, 110, 2, 2.67975
57, 2, bw, practice, NA, 999, 999, 0, 3, 146, 120, 153, 112, 133, 110, 3, 1.56128
57, 2, bw, attraction, a-b-db, 9, 2, 1, 1, 165, 90, 90, 165, 86, 157, 1, 3.93991
57, 2, bw, attraction, a-b-db, 9, 2, 1, 1, 165, 90, 90, 165, 86, 157, 3, 1.50796
57, 2, bw, attraction, a-b-db, 9, 3, 1, 2, 195, 120, 114, 186, 120, 195, 1, 4.22073
57, 2, bw, attraction, a-b-db, 9, 3, 1, 2, 195, 120, 114, 186, 120, 195, 3, 1.33007
57, 2, bw, catch, NA, 999, 999, 1, 3, 118, 77, 193, 122, 138, 117, 2, 1.68224
57, 2, bw, catch, NA, 999, 999, 1, 3, 118, 77, 193, 122, 138, 117, 1, 0.661673
57, 2, bw, filler, NA, 999, 999, 1, 4, 99, 194, 178, 131, 193, 160, 3, 1.03285
57, 2, bw, filler, NA, 999, 999, 1, 4, 99, 194, 178, 131, 193, 160, 1, 0.830431
57, 2, bw, attraction, a-b-da, 5, 1, 1, 5, 132, 58, 135, 60, 60, 135, 3, 1.44284
57, 2, bw, attraction, a-b-da, 5, 1, 1, 5, 132, 58, 135, 60, 60, 135, 1, 1.99173
57, 2, bw, attraction, a-b-db, 2, 3, 1, 6, 195, 120, 120, 195, 119, 193, 1, 1.72492
57, 2, bw, attraction, a-b-db, 2, 3, 1, 6, 195, 120, 120, 195, 119, 193, 3, 0.830495
57, 2, bw, attraction, a-b-da, 2, 1, 1, 7, 60, 135, 135, 60, 134, 59, 3, 2.08267
57, 2, bw, attraction, a-b-da, 2, 1, 1, 7, 60, 135, 135, 60, 134, 59, 1, 0.382064
57, 2, bw, filler, NA, 999, 999, 1, 8, 153, 70, 146, 85, 72, 185, 2, 1.98851
57, 2, bw, filler, NA, 999, 999, 1, 8, 153, 70, 146, 85, 72, 185, 1, 1.33147
57, 2, bw, filler, NA, 999, 999, 1, 9, 179, 150, 72, 66, 148, 119, 1, 0.891417
57, 2, bw, filler, NA, 999, 999, 1, 9, 179, 150, 72, 66, 148, 119, 2, 0.694542
57, 2, bw, attraction, a-b-da, 9, 1, 1, 10, 60, 135, 135, 60, 129, 57, 2, 1.40821
57, 2, bw, attraction, a-b-da, 9, 1, 1, 10, 60, 135, 135, 60, 129, 57, 1, 0.462455
57, 2, bw, attraction, a-b-db, 5, 2, 1, 11, 90, 165, 165, 90, 88, 161, 1, 1.22556
57, 2, bw, attraction, a-b-db, 5, 2, 1, 11, 90, 165, 165, 90, 88, 161, 3, 0.527184
57, 2, bw, attraction, a-b-da, 14, 1, 1, 12, 135, 60, 60, 135, 125, 56, 1, 1.11155
57, 2, bw, attraction, a-b-da, 14, 1, 1, 12, 135, 60, 60, 135, 125, 56, 2, 1.3059
57, 2, bw, filler, NA, 999, 999, 1, 13, 92, 122, 159, 71, 158, 80, 3, 1.73935
57, 2, bw, filler, NA, 999, 999, 1, 13, 92, 122, 159, 71, 158, 80, 1, 1.08425
57, 2, bw, attraction, a-b-da, 2, 2, 1, 14, 90, 165, 163, 89, 165, 90, 1, 1.27845
57, 2, bw, attraction, a-b-da, 2, 2, 1, 14, 90, 165, 163, 89, 165, 90, 2, 0.577975
57, 2, bw, attraction, a-b-db, 9, 1, 1, 15, 60, 135, 57, 129, 135, 60, 1, 1.16039
57, 2, bw, attraction, a-b-db, 9, 1, 1, 15, 60, 135, 57, 129, 135, 60, 2, 0.728699
57, 2, bw, filler, NA, 999, 999, 1, 16, 111, 107, 186, 143, 164, 147, 2, 1.35316
57, 2, bw, filler, NA, 999, 999, 1, 16, 111, 107, 186, 143, 164, 147, 1, 0.425936
57, 2, bw, attraction, a-b-db, 14, 3, 1, 17, 111, 181, 120, 195, 195, 120, 3, 2.22252
57, 2, bw, attraction, a-b-db, 14, 3, 1, 17, 111, 181, 120, 195, 195, 120, 1, 0.539697
57, 2, bw, catch, NA, 999, 999, 1, 18, 106, 89, 92, 163, 131, 184, 3, 0.827453
57, 2, bw, catch, NA, 999, 999, 1, 18, 106, 89, 92, 163, 131, 184, 1, 0.337309
57, 2, bw, filler, NA, 999, 999, 1, 19, 154, 180, 194, 176, 180, 60, 1, 0.777687
57, 2, bw, filler, NA, 999, 999, 1, 19, 154, 180, 194, 176, 180, 60, 3, 3.24147
57, 2, bw, attraction, a-b-da, 5, 2, 1, 20, 90, 165, 165, 90, 161, 88, 1, 1.94041
57, 2, bw, attraction, a-b-da, 5, 2, 1, 20, 90, 165, 165, 90, 161, 88, 3, 0.797058
57, 2, bw, filler, NA, 999, 999, 1, 21, 135, 174, 153, 103, 186, 189, 3, 1.38679
57, 2, bw, filler, NA, 999, 999, 1, 21, 135, 174, 153, 103, 186, 189, 2, 0.722335
57, 2, bw, attraction, a-b-db, 2, 2, 1, 22, 165, 90, 89, 163, 90, 165, 2, 1.41135
57, 2, bw, attraction, a-b-db, 2, 2, 1, 22, 165, 90, 89, 163, 90, 165, 1, 0.841573
57, 2, bw, attraction, a-b-db, 5, 3, 1, 23, 195, 120, 117, 190, 120, 195, 1, 2.01324
57, 2, bw, attraction, a-b-db, 5, 3, 1, 23, 195, 120, 117, 190, 120, 195, 3, 0.29121
57, 2, bw, attraction, a-b-da, 2, 3, 1, 24, 195, 120, 193, 119, 120, 195, 3, 1.62915
57, 2, bw, attraction, a-b-da, 2, 3, 1, 24, 195, 120, 193, 119, 120, 195, 2, 0.4265
57, 2, bw, attraction, a-b-db, 2, 1, 1, 25, 135, 60, 59, 134, 60, 135, 2, 0.934963
57, 2, bw, attraction, a-b-db, 2, 1, 1, 25, 135, 60, 59, 134, 60, 135, 1, 0.632655
57, 2, bw, filler, NA, 999, 999, 1, 26, 139, 146, 103, 153, 123, 115, 1, 0.757083
57, 2, bw, filler, NA, 999, 999, 1, 26, 139, 146, 103, 153, 123, 115, 3, 0.365465
57, 2, bw, attraction, a-b-da, 9, 3, 1, 27, 186, 114, 120, 195, 195, 120, 2, 0.772748
57, 2, bw, attraction, a-b-da, 9, 3, 1, 27, 186, 114, 120, 195, 195, 120, 1, 0.372381
57, 2, bw, attraction, a-b-da, 9, 2, 1, 28, 165, 90, 90, 165, 157, 86, 2, 1.34755
57, 2, bw, attraction, a-b-da, 9, 2, 1, 28, 165, 90, 90, 165, 157, 86, 1, 0.30038
57, 2, bw, attraction, a-b-db, 5, 1, 1, 29, 60, 135, 58, 132, 135, 60, 1, 1.27024
57, 2, bw, attraction, a-b-db, 5, 1, 1, 29, 60, 135, 58, 132, 135, 60, 3, 0.594485
57, 2, bw, catch, NA, 999, 999, 1, 30, 118, 137, 137, 178, 91, 104, 2, 0.552276
57, 2, bw, catch, NA, 999, 999, 1, 30, 118, 137, 137, 178, 91, 104, 3, 0.497464
57, 2, bw, attraction, a-b-db, 14, 1, 1, 31, 56, 125, 135, 60, 60, 135, 2, 0.523194
57, 2, bw, attraction, a-b-db, 14, 1, 1, 31, 56, 125, 135, 60, 60, 135, 3, 0.373032
57, 2, bw, filler, NA, 999, 999, 1, 32, 131, 132, 179, 56, 99, 148, 1, 0.787559
57, 2, bw, filler, NA, 999, 999, 1, 32, 131, 132, 179, 56, 99, 148, 2, 0.466472
57, 2, bw, attraction, a-b-da, 14, 3, 1, 33, 120, 195, 181, 111, 195, 120, 1, 1.63765
57, 2, bw, attraction, a-b-da, 14, 3, 1, 33, 120, 195, 181, 111, 195, 120, 2, 0.418572
57, 2, bw, filler, NA, 999, 999, 1, 34, 71, 171, 156, 151, 176, 170, 3, 0.879566
57, 2, bw, filler, NA, 999, 999, 1, 34, 71, 171, 156, 151, 176, 170, 1, 0.48333
57, 2, bw, attraction, a-b-da, 5, 3, 1, 35, 190, 117, 195, 120, 120, 195, 1, 1.32576
57, 2, bw, attraction, a-b-da, 5, 3, 1, 35, 190, 117, 195, 120, 120, 195, 3, 0.335313
57, 2, bw, attraction, a-b-db, 14, 2, 1, 36, 165, 90, 83, 153, 90, 165, 1, 0.87978
57, 2, bw, attraction, a-b-db, 14, 2, 1, 36, 165, 90, 83, 153, 90, 165, 3, 0.371556
57, 2, bw, attraction, a-b-da, 14, 2, 1, 37, 165, 90, 90, 165, 153, 83, 2, 0.786836
57, 2, bw, attraction, a-b-da, 14, 2, 1, 37, 165, 90, 90, 165, 153, 83, 1, 0.44182
57, 2, bw, attraction, a-b-db, 5, 2, 2, 1, 88, 161, 165, 90, 90, 165, 3, 0.72558
57, 2, bw, attraction, a-b-db, 5, 2, 2, 1, 88, 161, 165, 90, 90, 165, 1, 0.751321
57, 2, bw, filler, NA, 999, 999, 2, 2, 62, 132, 135, 67, 114, 66, 2, 2.7111
57, 2, bw, filler, NA, 999, 999, 2, 2, 62, 132, 135, 67, 114, 66, 3, 0.400753
57, 2, bw, filler, NA, 999, 999, 2, 3, 151, 144, 130, 191, 132, 158, 1, 2.2707
57, 2, bw, filler, NA, 999, 999, 2, 3, 151, 144, 130, 191, 132, 158, 2, 0.346004
57, 2, bw, attraction, a-b-db, 14, 2, 2, 4, 90, 165, 165, 90, 83, 153, 2, 1.84972
57, 2, bw, attraction, a-b-db, 14, 2, 2, 4, 90, 165, 165, 90, 83, 153, 3, 0.294443
57, 2, bw, filler, NA, 999, 999, 2, 5, 74, 118, 112, 87, 184, 182, 3, 0.76033
57, 2, bw, filler, NA, 999, 999, 2, 5, 74, 118, 112, 87, 184, 182, 1, 0.47274
57, 2, bw, attraction, a-b-da, 5, 3, 2, 6, 120, 195, 190, 117, 195, 120, 1, 2.14725
57, 2, bw, attraction, a-b-da, 5, 3, 2, 6, 120, 195, 190, 117, 195, 120, 2, 0.851776
57, 2, bw, attraction, a-b-db, 5, 1, 2, 7, 60, 135, 58, 132, 135, 60, 3, 2.83164
57, 2, bw, attraction, a-b-db, 5, 1, 2, 7, 60, 135, 58, 132, 135, 60, 2, 0.68459
57, 2, bw, attraction, a-b-db, 9, 1, 2, 8, 57, 129, 60, 135, 135, 60, 2, 1.63905
57, 2, bw, attraction, a-b-db, 9, 1, 2, 8, 57, 129, 60, 135, 135, 60, 3, 0.635815
57, 2, bw, attraction, a-b-da, 2, 1, 2, 9, 135, 60, 60, 135, 134, 59, 2, 1.02417
57, 2, bw, attraction, a-b-da, 2, 1, 2, 9, 135, 60, 60, 135, 134, 59, 1, 1.07784
57, 2, bw, catch, NA, 999, 999, 2, 10, 81, 114, 157, 158, 116, 139, 2, 0.488092
57, 2, bw, catch, NA, 999, 999, 2, 10, 81, 114, 157, 158, 116, 139, 1, 0.56334
57, 2, bw, filler, NA, 999, 999, 2, 11, 93, 142, 131, 99, 77, 178, 1, 0.930438
57, 2, bw, filler, NA, 999, 999, 2, 11, 93, 142, 131, 99, 77, 178, 2, 0.628049
57, 2, bw, filler, NA, 999, 999, 2, 12, 120, 155, 142, 191, 87, 62, 2, 0.920433
57, 2, bw, filler, NA, 999, 999, 2, 12, 120, 155, 142, 191, 87, 62, 3, 0.594887
57, 2, bw, attraction, a-b-db, 14, 3, 2, 13, 120, 195, 111, 181, 195, 120, 1, 1.18455
57, 2, bw, attraction, a-b-db, 14, 3, 2, 13, 120, 195, 111, 181, 195, 120, 2, 0.944071
57, 2, bw, attraction, a-b-da, 14, 2, 2, 14, 153, 83, 90, 165, 165, 90, 2, 3.69579
57, 2, bw, attraction, a-b-da, 14, 2, 2, 14, 153, 83, 90, 165, 165, 90, 1, 0.473891
57, 2, bw, filler, NA, 999, 999, 2, 15, 106, 75, 130, 150, 125, 155, 3, 2.63639
57, 2, bw, filler, NA, 999, 999, 2, 15, 106, 75, 130, 150, 125, 155, 1, 1.06561
57, 2, bw, attraction, a-b-db, 2, 3, 2, 16, 195, 120, 120, 195, 119, 193, 2, 1.4285
57, 2, bw, attraction, a-b-db, 2, 3, 2, 16, 195, 120, 120, 195, 119, 193, 3, 0.361983
57, 2, bw, filler, NA, 999, 999, 2, 17, 133, 110, 61, 79, 95, 86, 1, 0.561164
57, 2, bw, filler, NA, 999, 999, 2, 17, 133, 110, 61, 79, 95, 86, 2, 0.521666
57, 2, bw, catch, NA, 999, 999, 2, 18, 143, 172, 134, 121, 105, 90, 1, 0.714802
57, 2, bw, catch, NA, 999, 999, 2, 18, 143, 172, 134, 121, 105, 90, 3, 0.373131
57, 2, bw, catch, NA, 999, 999, 2, 19, 159, 96, 102, 93, 191, 124, 3, 0.547636
57, 2, bw, catch, NA, 999, 999, 2, 19, 159, 96, 102, 93, 191, 124, 2, 1.0048
57, 2, bw, attraction, a-b-da, 14, 1, 2, 20, 135, 60, 125, 56, 60, 135, 3, 3.56253
57, 2, bw, attraction, a-b-da, 14, 1, 2, 20, 135, 60, 125, 56, 60, 135, 1, 0.770057
57, 2, bw, attraction, a-b-da, 9, 1, 2, 21, 135, 60, 129, 57, 60, 135, 2, 1.00903
57, 2, bw, attraction, a-b-da, 9, 1, 2, 21, 135, 60, 129, 57, 60, 135, 1, 0.559302
57, 2, bw, attraction, a-b-da, 5, 1, 2, 22, 135, 60, 60, 135, 132, 58, 1, 1.41441
57, 2, bw, attraction, a-b-da, 5, 1, 2, 22, 135, 60, 60, 135, 132, 58, 2, 0.412589
57, 2, bw, attraction, a-b-db, 9, 2, 2, 23, 90, 165, 86, 157, 165, 90, 1, 0.785681
57, 2, bw, attraction, a-b-db, 9, 2, 2, 23, 90, 165, 86, 157, 165, 90, 3, 0.321469
57, 2, bw, attraction, a-b-db, 5, 3, 2, 24, 120, 195, 195, 120, 117, 190, 1, 1.06662
57, 2, bw, attraction, a-b-db, 5, 3, 2, 24, 120, 195, 195, 120, 117, 190, 3, 0.375032
57, 2, bw, attraction, a-b-db, 9, 3, 2, 25, 120, 195, 114, 186, 195, 120, 1, 0.613441
57, 2, bw, attraction, a-b-db, 9, 3, 2, 25, 120, 195, 114, 186, 195, 120, 2, 0.243929
57, 2, bw, filler, NA, 999, 999, 2, 26, 64, 149, 87, 97, 146, 97, 3, 2.30385
57, 2, bw, filler, NA, 999, 999, 2, 26, 64, 149, 87, 97, 146, 97, 2, 1.30568
57, 2, bw, filler, NA, 999, 999, 2, 27, 182, 154, 129, 126, 172, 72, 1, 0.691262
57, 2, bw, filler, NA, 999, 999, 2, 27, 182, 154, 129, 126, 172, 72, 2, 0.726299
57, 2, bw, attraction, a-b-da, 14, 3, 2, 28, 120, 195, 181, 111, 195, 120, 1, 1.27065
57, 2, bw, attraction, a-b-da, 14, 3, 2, 28, 120, 195, 181, 111, 195, 120, 2, 0.506271
57, 2, bw, attraction, a-b-da, 5, 2, 2, 29, 161, 88, 90, 165, 165, 90, 1, 1.3234
57, 2, bw, attraction, a-b-da, 5, 2, 2, 29, 161, 88, 90, 165, 165, 90, 2, 0.380946
57, 2, bw, attraction, a-b-da, 9, 3, 2, 30, 186, 114, 195, 120, 120, 195, 1, 1.02741
57, 2, bw, attraction, a-b-da, 9, 3, 2, 30, 186, 114, 195, 120, 120, 195, 2, 0.425078
57, 2, bw, attraction, a-b-da, 2, 2, 2, 31, 163, 89, 165, 90, 90, 165, 2, 0.709539
57, 2, bw, attraction, a-b-da, 2, 2, 2, 31, 163, 89, 165, 90, 90, 165, 1, 0.359907
57, 2, bw, attraction, a-b-db, 2, 2, 2, 32, 90, 165, 89, 163, 165, 90, 2, 0.671106
57, 2, bw, attraction, a-b-db, 2, 2, 2, 32, 90, 165, 89, 163, 165, 90, 1, 0.44299
57, 2, bw, attraction, a-b-da, 2, 3, 2, 33, 195, 120, 193, 119, 120, 195, 2, 0.814722
57, 2, bw, attraction, a-b-da, 2, 3, 2, 33, 195, 120, 193, 119, 120, 195, 1, 0.893115
57, 2, bw, attraction, a-b-db, 2, 1, 2, 34, 135, 60, 60, 135, 59, 134, 1, 3.3267
57, 2, bw, attraction, a-b-db, 2, 1, 2, 34, 135, 60, 60, 135, 59, 134, 2, 0.303668
57, 2, bw, attraction, a-b-db, 14, 1, 2, 35, 56, 125, 60, 135, 135, 60, 2, 1.83356
57, 2, bw, attraction, a-b-db, 14, 1, 2, 35, 56, 125, 60, 135, 135, 60, 1, 0.598922
57, 2, bw, filler, NA, 999, 999, 2, 36, 190, 98, 104, 64, 74, 56, 1, 2.62063
57, 2, bw, filler, NA, 999, 999, 2, 36, 190, 98, 104, 64, 74, 56, 3, 0.618567
57, 2, bw, attraction, a-b-da, 9, 2, 2, 37, 157, 86, 165, 90, 90, 165, 1, 0.535548
57, 2, bw, attraction, a-b-da, 9, 2, 2, 37, 157, 86, 165, 90, 90, 165, 3, 0.56135
57, 2, bw, attraction, a-b-da, 2, 1, 3, 1, 134, 59, 60, 135, 135, 60, 3, 0.824458
57, 2, bw, attraction, a-b-da, 2, 1, 3, 1, 134, 59, 60, 135, 135, 60, 2, 0.38226
57, 2, bw, attraction, a-b-db, 14, 3, 3, 2, 195, 120, 120, 195, 111, 181, 2, 0.812704
57, 2, bw, attraction, a-b-db, 14, 3, 3, 2, 195, 120, 120, 195, 111, 181, 3, 0.467149
57, 2, bw, filler, NA, 999, 999, 3, 3, 121, 149, 110, 136, 152, 61, 1, 0.710212
57, 2, bw, filler, NA, 999, 999, 3, 3, 121, 149, 110, 136, 152, 61, 3, 0.43266
57, 2, bw, filler, NA, 999, 999, 3, 4, 195, 125, 194, 163, 142, 129, 2, 0.653152
57, 2, bw, filler, NA, 999, 999, 3, 4, 195, 125, 194, 163, 142, 129, 3, 0.914263
57, 2, bw, filler, NA, 999, 999, 3, 5, 188, 163, 189, 157, 103, 70, 1, 0.747127
57, 2, bw, filler, NA, 999, 999, 3, 5, 188, 163, 189, 157, 103, 70, 3, 0.716252
57, 2, bw, attraction, a-b-da, 14, 2, 3, 6, 90, 165, 165, 90, 153, 83, 1, 1.29334
57, 2, bw, attraction, a-b-da, 14, 2, 3, 6, 90, 165, 165, 90, 153, 83, 3, 0.496288
57, 2, bw, attraction, a-b-db, 2, 1, 3, 7, 59, 134, 60, 135, 135, 60, 2, 1.47395
57, 2, bw, attraction, a-b-db, 2, 1, 3, 7, 59, 134, 60, 135, 135, 60, 3, 0.381559
57, 2, bw, catch, NA, 999, 999, 3, 8, 118, 77, 142, 173, 97, 158, 2, 0.619999
57, 2, bw, catch, NA, 999, 999, 3, 8, 118, 77, 142, 173, 97, 158, 1, 0.945832
57, 2, bw, attraction, a-b-da, 2, 2, 3, 9, 165, 90, 163, 89, 90, 165, 1, 0.681456
57, 2, bw, attraction, a-b-da, 2, 2, 3, 9, 165, 90, 163, 89, 90, 165, 2, 0.69311
57, 2, bw, attraction, a-b-da, 5, 3, 3, 10, 190, 117, 195, 120, 120, 195, 2, 2.94293
57, 2, bw, attraction, a-b-da, 5, 3, 3, 10, 190, 117, 195, 120, 120, 195, 1, 0.335309
57, 2, bw, attraction, a-b-da, 14, 3, 3, 11, 120, 195, 195, 120, 181, 111, 2, 0.535773
57, 2, bw, attraction, a-b-da, 14, 3, 3, 11, 120, 195, 195, 120, 181, 111, 3, 1.28171
57, 2, bw, filler, NA, 999, 999, 3, 12, 147, 134, 115, 187, 175, 74, 1, 0.659803
57, 2, bw, filler, NA, 999, 999, 3, 12, 147, 134, 115, 187, 175, 74, 3, 1.26434
57, 2, bw, attraction, a-b-db, 2, 2, 3, 13, 165, 90, 90, 165, 89, 163, 1, 0.555154
57, 2, bw, attraction, a-b-db, 2, 2, 3, 13, 165, 90, 90, 165, 89, 163, 3, 0.483653
57, 2, bw, filler, NA, 999, 999, 3, 14, 168, 154, 119, 68, 102, 155, 1, 0.638
57, 2, bw, filler, NA, 999, 999, 3, 14, 168, 154, 119, 68, 102, 155, 2, 0.371305
57, 2, bw, filler, NA, 999, 999, 3, 15, 150, 148, 149, 119, 93, 59, 1, 1.05835
57, 2, bw, filler, NA, 999, 999, 3, 15, 150, 148, 149, 119, 93, 59, 3, 0.470643
57, 2, bw, attraction, a-b-db, 5, 3, 3, 16, 195, 120, 117, 190, 120, 195, 2, 1.4017
57, 2, bw, attraction, a-b-db, 5, 3, 3, 16, 195, 120, 117, 190, 120, 195, 3, 0.36859
57, 2, bw, attraction, a-b-da, 2, 3, 3, 17, 120, 195, 195, 120, 193, 119, 1, 0.671706
57, 2, bw, attraction, a-b-da, 2, 3, 3, 17, 120, 195, 195, 120, 193, 119, 2, 0.339459
57, 2, bw, attraction, a-b-db, 14, 2, 3, 18, 83, 153, 90, 165, 165, 90, 1, 1.2273
57, 2, bw, attraction, a-b-db, 14, 2, 3, 18, 83, 153, 90, 165, 165, 90, 2, 0.312988
57, 2, bw, attraction, a-b-db, 5, 1, 3, 19, 58, 132, 60, 135, 135, 60, 1, 0.674178
57, 2, bw, attraction, a-b-db, 5, 1, 3, 19, 58, 132, 60, 135, 135, 60, 2, 0.373874
57, 2, bw, attraction, a-b-da, 5, 1, 3, 20, 135, 60, 60, 135, 132, 58, 1, 1.08446
57, 2, bw, attraction, a-b-da, 5, 1, 3, 20, 135, 60, 60, 135, 132, 58, 2, 0.423939
57, 2, bw, attraction, a-b-db, 9, 2, 3, 21, 90, 165, 86, 157, 165, 90, 1, 0.628515
57, 2, bw, attraction, a-b-db, 9, 2, 3, 21, 90, 165, 86, 157, 165, 90, 2, 0.370279
57, 2, bw, attraction, a-b-da, 14, 1, 3, 22, 125, 56, 60, 135, 135, 60, 2, 0.713427
57, 2, bw, attraction, a-b-da, 14, 1, 3, 22, 125, 56, 60, 135, 135, 60, 1, 0.523836
57, 2, bw, filler, NA, 999, 999, 3, 23, 94, 150, 107, 190, 58, 179, 2, 1.09227
57, 2, bw, filler, NA, 999, 999, 3, 23, 94, 150, 107, 190, 58, 179, 1, 0.37523
57, 2, bw, attraction, a-b-db, 2, 3, 3, 24, 195, 120, 119, 193, 120, 195, 1, 0.669762
57, 2, bw, attraction, a-b-db, 2, 3, 3, 24, 195, 120, 119, 193, 120, 195, 2, 0.865602
57, 2, bw, attraction, a-b-da, 5, 2, 3, 25, 90, 165, 165, 90, 161, 88, 2, 1.38854
57, 2, bw, attraction, a-b-da, 5, 2, 3, 25, 90, 165, 165, 90, 161, 88, 3, 0.6354
57, 2, bw, attraction, a-b-db, 9, 3, 3, 26, 114, 186, 195, 120, 120, 195, 3, 0.983786
57, 2, bw, attraction, a-b-db, 9, 3, 3, 26, 114, 186, 195, 120, 120, 195, 1, 0.775578
57, 2, bw, catch, NA, 999, 999, 3, 27, 165, 150, 102, 93, 116, 139, 1, 0.525746
57, 2, bw, catch, NA, 999, 999, 3, 27, 165, 150, 102, 93, 116, 139, 2, 0.263565
57, 2, bw, filler, NA, 999, 999, 3, 28, 190, 121, 155, 167, 100, 102, 2, 0.658842
57, 2, bw, filler, NA, 999, 999, 3, 28, 190, 121, 155, 167, 100, 102, 1, 0.319242
57, 2, bw, attraction, a-b-da, 9, 3, 3, 29, 195, 120, 186, 114, 120, 195, 1, 0.720412
57, 2, bw, attraction, a-b-da, 9, 3, 3, 29, 195, 120, 186, 114, 120, 195, 2, 0.338262
57, 2, bw, catch, NA, 999, 999, 3, 30, 179, 136, 136, 119, 63, 132, 1, 0.450614
57, 2, bw, catch, NA, 999, 999, 3, 30, 179, 136, 136, 119, 63, 132, 2, 0.287866
57, 2, bw, attraction, a-b-db, 9, 1, 3, 31, 135, 60, 60, 135, 57, 129, 1, 0.514291
57, 2, bw, attraction, a-b-db, 9, 1, 3, 31, 135, 60, 60, 135, 57, 129, 2, 0.26081
57, 2, bw, attraction, a-b-db, 5, 2, 3, 32, 90, 165, 88, 161, 165, 90, 1, 1.23218
57, 2, bw, attraction, a-b-db, 5, 2, 3, 32, 90, 165, 88, 161, 165, 90, 2, 0.325629
57, 2, bw, filler, NA, 999, 999, 3, 33, 149, 59, 94, 173, 194, 194, 3, 0.52619
57, 2, bw, filler, NA, 999, 999, 3, 33, 149, 59, 94, 173, 194, 194, 1, 0.440041
57, 2, bw, attraction, a-b-db, 14, 1, 3, 34, 60, 135, 56, 125, 135, 60, 1, 0.699805
57, 2, bw, attraction, a-b-db, 14, 1, 3, 34, 60, 135, 56, 125, 135, 60, 2, 0.582896
57, 2, bw, attraction, a-b-da, 9, 2, 3, 35, 165, 90, 90, 165, 157, 86, 1, 0.565283
57, 2, bw, attraction, a-b-da, 9, 2, 3, 35, 165, 90, 90, 165, 157, 86, 2, 0.405752
57, 2, bw, filler, NA, 999, 999, 3, 36, 167, 61, 175, 96, 124, 174, 3, 0.931574
57, 2, bw, filler, NA, 999, 999, 3, 36, 167, 61, 175, 96, 124, 174, 1, 0.757197
57, 2, bw, attraction, a-b-da, 9, 1, 3, 37, 129, 57, 60, 135, 135, 60, 1, 1.12425
57, 2, bw, attraction, a-b-da, 9, 1, 3, 37, 129, 57, 60, 135, 135, 60, 2, 0.309801
57, 2, bw, attraction, a-b-db, 5, 3, 4, 1, 117, 190, 120, 195, 195, 120, 1, 0.647014
57, 2, bw, attraction, a-b-db, 5, 3, 4, 1, 117, 190, 120, 195, 195, 120, 2, 0.644134
57, 2, bw, attraction, a-b-db, 2, 1, 4, 2, 59, 134, 135, 60, 60, 135, 2, 0.743866
57, 2, bw, attraction, a-b-db, 2, 1, 4, 2, 59, 134, 135, 60, 60, 135, 1, 0.312902
57, 2, bw, attraction, a-b-db, 14, 2, 4, 3, 83, 153, 90, 165, 165, 90, 2, 1.0901
57, 2, bw, attraction, a-b-db, 14, 2, 4, 3, 83, 153, 90, 165, 165, 90, 1, 0.34926
57, 2, bw, attraction, a-b-da, 5, 2, 4, 4, 90, 165, 161, 88, 165, 90, 2, 0.500999
57, 2, bw, attraction, a-b-da, 5, 2, 4, 4, 90, 165, 161, 88, 165, 90, 1, 0.280074
57, 2, bw, attraction, a-b-da, 2, 1, 4, 5, 135, 60, 60, 135, 134, 59, 1, 0.666635
57, 2, bw, attraction, a-b-da, 2, 1, 4, 5, 135, 60, 60, 135, 134, 59, 2, 0.311218
57, 2, bw, filler, NA, 999, 999, 4, 6, 155, 71, 90, 85, 77, 119, 1, 1.44043
57, 2, bw, filler, NA, 999, 999, 4, 6, 155, 71, 90, 85, 77, 119, 2, 0.229087
57, 2, bw, filler, NA, 999, 999, 4, 7, 192, 158, 154, 87, 129, 66, 1, 0.609658
57, 2, bw, filler, NA, 999, 999, 4, 7, 192, 158, 154, 87, 129, 66, 3, 0.360147
57, 2, bw, attraction, a-b-db, 5, 1, 4, 8, 58, 132, 60, 135, 135, 60, 3, 1.24725
57, 2, bw, attraction, a-b-db, 5, 1, 4, 8, 58, 132, 60, 135, 135, 60, 2, 0.292116
57, 2, bw, filler, NA, 999, 999, 4, 9, 147, 134, 172, 93, 147, 119, 1, 0.541969
57, 2, bw, filler, NA, 999, 999, 4, 9, 147, 134, 172, 93, 147, 119, 3, 0.903088
57, 2, bw, attraction, a-b-da, 14, 3, 4, 10, 181, 111, 195, 120, 120, 195, 1, 0.400726
57, 2, bw, attraction, a-b-da, 14, 3, 4, 10, 181, 111, 195, 120, 120, 195, 3, 0.632065
57, 2, bw, attraction, a-b-da, 5, 1, 4, 11, 60, 135, 132, 58, 135, 60, 3, 0.860392
57, 2, bw, attraction, a-b-da, 5, 1, 4, 11, 60, 135, 132, 58, 135, 60, 1, 0.424716
57, 2, bw, attraction, a-b-da, 2, 3, 4, 12, 195, 120, 193, 119, 120, 195, 1, 1.4933
57, 2, bw, attraction, a-b-da, 2, 3, 4, 12, 195, 120, 193, 119, 120, 195, 3, 0.392029
57, 2, bw, attraction, a-b-db, 2, 2, 4, 13, 165, 90, 89, 163, 90, 165, 1, 0.749938
57, 2, bw, attraction, a-b-db, 2, 2, 4, 13, 165, 90, 89, 163, 90, 165, 2, 0.310938
57, 2, bw, filler, NA, 999, 999, 4, 14, 177, 150, 62, 60, 175, 91, 1, 0.560268
57, 2, bw, filler, NA, 999, 999, 4, 14, 177, 150, 62, 60, 175, 91, 2, 0.464642
57, 2, bw, catch, NA, 999, 999, 4, 15, 150, 165, 158, 97, 65, 130, 1, 0.563717
57, 2, bw, catch, NA, 999, 999, 4, 15, 150, 165, 158, 97, 65, 130, 3, 0.340215
57, 2, bw, filler, NA, 999, 999, 4, 16, 160, 103, 68, 159, 150, 156, 3, 0.756042
57, 2, bw, filler, NA, 999, 999, 4, 16, 160, 103, 68, 159, 150, 156, 2, 0.332385
57, 2, bw, filler, NA, 999, 999, 4, 17, 171, 163, 133, 191, 122, 117, 1, 0.524879
57, 2, bw, filler, NA, 999, 999, 4, 17, 171, 163, 133, 191, 122, 117, 3, 0.75868
57, 2, bw, attraction, a-b-db, 5, 2, 4, 18, 88, 161, 165, 90, 90, 165, 1, 0.765725
57, 2, bw, attraction, a-b-db, 5, 2, 4, 18, 88, 161, 165, 90, 90, 165, 3, 0.302175
57, 2, bw, attraction, a-b-da, 9, 3, 4, 19, 195, 120, 120, 195, 186, 114, 1, 0.47999
57, 2, bw, attraction, a-b-da, 9, 3, 4, 19, 195, 120, 120, 195, 186, 114, 2, 0.339891
57, 2, bw, attraction, a-b-da, 9, 2, 4, 20, 165, 90, 157, 86, 90, 165, 1, 0.475773
57, 2, bw, attraction, a-b-da, 9, 2, 4, 20, 165, 90, 157, 86, 90, 165, 2, 0.951545
57, 2, bw, attraction, a-b-db, 14, 1, 4, 21, 56, 125, 60, 135, 135, 60, 3, 0.743154
57, 2, bw, attraction, a-b-db, 14, 1, 4, 21, 56, 125, 60, 135, 135, 60, 1, 0.472193
57, 2, bw, catch, NA, 999, 999, 4, 22, 135, 60, 143, 172, 108, 147, 2, 0.667349
57, 2, bw, catch, NA, 999, 999, 4, 22, 135, 60, 143, 172, 108, 147, 1, 0.775938
57, 2, bw, attraction, a-b-da, 14, 1, 4, 23, 60, 135, 135, 60, 125, 56, 2, 0.910264
57, 2, bw, attraction, a-b-da, 14, 1, 4, 23, 60, 135, 135, 60, 125, 56, 3, 0.272545
57, 2, bw, attraction, a-b-db, 14, 3, 4, 24, 120, 195, 195, 120, 111, 181, 1, 0.755767
57, 2, bw, attraction, a-b-db, 14, 3, 4, 24, 120, 195, 195, 120, 111, 181, 2, 0.244063
57, 2, bw, filler, NA, 999, 999, 4, 25, 191, 104, 140, 87, 99, 154, 1, 0.407902
57, 2, bw, filler, NA, 999, 999, 4, 25, 191, 104, 140, 87, 99, 154, 3, 0.36646
57, 2, bw, attraction, a-b-db, 9, 2, 4, 26, 90, 165, 165, 90, 86, 157, 1, 0.42965
57, 2, bw, attraction, a-b-db, 9, 2, 4, 26, 90, 165, 165, 90, 86, 157, 3, 0.283519
57, 2, bw, attraction, a-b-da, 2, 2, 4, 27, 90, 165, 163, 89, 165, 90, 2, 0.334007
57, 2, bw, attraction, a-b-da, 2, 2, 4, 27, 90, 165, 163, 89, 165, 90, 3, 1.06379
57, 2, bw, filler, NA, 999, 999, 4, 28, 122, 92, 82, 110, 172, 127, 3, 0.77881
57, 2, bw, filler, NA, 999, 999, 4, 28, 122, 92, 82, 110, 172, 127, 2, 0.338449
57, 2, bw, attraction, a-b-db, 9, 3, 4, 29, 114, 186, 195, 120, 120, 195, 2, 0.843
57, 2, bw, attraction, a-b-db, 9, 3, 4, 29, 114, 186, 195, 120, 120, 195, 1, 0.608108
57, 2, bw, attraction, a-b-da, 14, 2, 4, 30, 165, 90, 153, 83, 90, 165, 1, 0.589158
57, 2, bw, attraction, a-b-da, 14, 2, 4, 30, 165, 90, 153, 83, 90, 165, 3, 0.540323
57, 2, bw, attraction, a-b-db, 9, 1, 4, 31, 60, 135, 135, 60, 57, 129, 2, 0.804066
57, 2, bw, attraction, a-b-db, 9, 1, 4, 31, 60, 135, 135, 60, 57, 129, 1, 0.290461
57, 2, bw, filler, NA, 999, 999, 4, 32, 105, 82, 156, 123, 60, 157, 2, 0.436291
57, 2, bw, filler, NA, 999, 999, 4, 32, 105, 82, 156, 123, 60, 157, 1, 0.32954
57, 2, bw, filler, NA, 999, 999, 4, 33, 109, 133, 127, 135, 189, 105, 3, 0.818137
57, 2, bw, filler, NA, 999, 999, 4, 33, 109, 133, 127, 135, 189, 105, 1, 0.304315
57, 2, bw, attraction, a-b-da, 9, 1, 4, 34, 60, 135, 135, 60, 129, 57, 1, 0.778188
57, 2, bw, attraction, a-b-da, 9, 1, 4, 34, 60, 135, 135, 60, 129, 57, 2, 0.625928
57, 2, bw, catch, NA, 999, 999, 4, 35, 140, 175, 64, 131, 116, 139, 1, 0.350419
57, 2, bw, catch, NA, 999, 999, 4, 35, 140, 175, 64, 131, 116, 139, 2, 0.767514
57, 2, bw, attraction, a-b-db, 2, 3, 4, 36, 195, 120, 120, 195, 119, 193, 1, 0.486557
57, 2, bw, attraction, a-b-db, 2, 3, 4, 36, 195, 120, 120, 195, 119, 193, 2, 0.354397
57, 2, bw, attraction, a-b-da, 5, 3, 4, 37, 190, 117, 120, 195, 195, 120, 2, 0.586239
57, 2, bw, attraction, a-b-da, 5, 3, 4, 37, 190, 117, 120, 195, 195, 120, 1, 0.386046
57, 2, bw, filler, NA, 999, 999, 5, 1, 130, 167, 166, 186, 171, 91, 2, 5.42314
57, 2, bw, filler, NA, 999, 999, 5, 1, 130, 167, 166, 186, 171, 91, 3, 0.331393
57, 2, bw, filler, NA, 999, 999, 5, 2, 193, 168, 104, 193, 103, 138, 1, 0.507844
57, 2, bw, filler, NA, 999, 999, 5, 2, 193, 168, 104, 193, 103, 138, 3, 0.302571
57, 2, bw, attraction, a-b-db, 2, 3, 5, 3, 120, 195, 119, 193, 195, 120, 3, 0.696314
57, 2, bw, attraction, a-b-db, 2, 3, 5, 3, 120, 195, 119, 193, 195, 120, 2, 0.275406
57, 2, bw, filler, NA, 999, 999, 5, 4, 133, 81, 73, 191, 56, 60, 2, 0.533938
57, 2, bw, filler, NA, 999, 999, 5, 4, 133, 81, 73, 191, 56, 60, 3, 0.871673
57, 2, bw, attraction, a-b-db, 9, 2, 5, 5, 90, 165, 86, 157, 165, 90, 1, 0.482643
57, 2, bw, attraction, a-b-db, 9, 2, 5, 5, 90, 165, 86, 157, 165, 90, 2, 0.430511
57, 2, bw, attraction, a-b-da, 9, 2, 5, 6, 165, 90, 157, 86, 90, 165, 1, 0.554914
57, 2, bw, attraction, a-b-da, 9, 2, 5, 6, 165, 90, 157, 86, 90, 165, 2, 0.243401
57, 2, bw, attraction, a-b-db, 9, 3, 5, 7, 120, 195, 195, 120, 114, 186, 1, 0.903448
57, 2, bw, attraction, a-b-db, 9, 3, 5, 7, 120, 195, 195, 120, 114, 186, 3, 0.370307
57, 2, bw, attraction, a-b-da, 9, 1, 5, 8, 135, 60, 60, 135, 129, 57, 1, 0.625452
57, 2, bw, attraction, a-b-da, 9, 1, 5, 8, 135, 60, 60, 135, 129, 57, 2, 0.311244
57, 2, bw, catch, NA, 999, 999, 5, 9, 184, 131, 85, 110, 111, 144, 1, 0.39244
57, 2, bw, catch, NA, 999, 999, 5, 9, 184, 131, 85, 110, 111, 144, 2, 0.415591
57, 2, bw, attraction, a-b-db, 5, 3, 5, 10, 195, 120, 117, 190, 120, 195, 2, 0.748691
57, 2, bw, attraction, a-b-db, 5, 3, 5, 10, 195, 120, 117, 190, 120, 195, 3, 0.517825
57, 2, bw, catch, NA, 999, 999, 5, 11, 130, 65, 189, 126, 136, 119, 2, 0.502919
57, 2, bw, catch, NA, 999, 999, 5, 11, 130, 65, 189, 126, 136, 119, 1, 0.29007
57, 2, bw, attraction, a-b-db, 2, 2, 5, 12, 89, 163, 165, 90, 90, 165, 3, 0.763948
57, 2, bw, attraction, a-b-db, 2, 2, 5, 12, 89, 163, 165, 90, 90, 165, 2, 0.692343
57, 2, bw, attraction, a-b-db, 9, 1, 5, 13, 135, 60, 57, 129, 60, 135, 1, 0.710174
57, 2, bw, attraction, a-b-db, 9, 1, 5, 13, 135, 60, 57, 129, 60, 135, 3, 0.304519
57, 2, bw, attraction, a-b-da, 2, 3, 5, 14, 193, 119, 195, 120, 120, 195, 2, 0.83433
57, 2, bw, attraction, a-b-da, 2, 3, 5, 14, 193, 119, 195, 120, 120, 195, 3, 0.551999
57, 2, bw, filler, NA, 999, 999, 5, 15, 187, 152, 162, 113, 175, 189, 1, 0.407816
57, 2, bw, filler, NA, 999, 999, 5, 15, 187, 152, 162, 113, 175, 189, 2, 0.950382
57, 2, bw, attraction, a-b-da, 14, 1, 5, 16, 135, 60, 125, 56, 60, 135, 1, 0.525978
57, 2, bw, attraction, a-b-da, 14, 1, 5, 16, 135, 60, 125, 56, 60, 135, 3, 0.311847
57, 2, bw, attraction, a-b-da, 5, 2, 5, 17, 90, 165, 161, 88, 165, 90, 1, 1.09699
57, 2, bw, attraction, a-b-da, 5, 2, 5, 17, 90, 165, 161, 88, 165, 90, 2, 0.299879
57, 2, bw, filler, NA, 999, 999, 5, 18, 132, 118, 140, 114, 66, 132, 1, 1.54176
57, 2, bw, filler, NA, 999, 999, 5, 18, 132, 118, 140, 114, 66, 132, 3, 0.678577
57, 2, bw, attraction, a-b-db, 14, 3, 5, 19, 195, 120, 120, 195, 111, 181, 2, 0.848992
57, 2, bw, attraction, a-b-db, 14, 3, 5, 19, 195, 120, 120, 195, 111, 181, 3, 0.549993
57, 2, bw, filler, NA, 999, 999, 5, 20, 190, 58, 113, 114, 120, 82, 2, 0.637826
57, 2, bw, filler, NA, 999, 999, 5, 20, 190, 58, 113, 114, 120, 82, 1, 0.930848
57, 2, bw, catch, NA, 999, 999, 5, 21, 184, 131, 79, 116, 157, 98, 1, 0.699222
57, 2, bw, catch, NA, 999, 999, 5, 21, 184, 131, 79, 116, 157, 98, 2, 0.398326
57, 2, bw, attraction, a-b-da, 9, 3, 5, 22, 186, 114, 195, 120, 120, 195, 2, 2.68416
57, 2, bw, attraction, a-b-da, 9, 3, 5, 22, 186, 114, 195, 120, 120, 195, 1, 1.47933
57, 2, bw, attraction, a-b-db, 14, 1, 5, 23, 56, 125, 135, 60, 60, 135, 3, 1.40143
57, 2, bw, attraction, a-b-db, 14, 1, 5, 23, 56, 125, 135, 60, 60, 135, 1, 0.408322
57, 2, bw, attraction, a-b-da, 14, 2, 5, 24, 90, 165, 165, 90, 153, 83, 1, 0.981496
57, 2, bw, attraction, a-b-da, 14, 2, 5, 24, 90, 165, 165, 90, 153, 83, 2, 0.269194
57, 2, bw, attraction, a-b-db, 14, 2, 5, 25, 83, 153, 165, 90, 90, 165, 1, 0.536338
57, 2, bw, attraction, a-b-db, 14, 2, 5, 25, 83, 153, 165, 90, 90, 165, 2, 0.586114
57, 2, bw, attraction, a-b-db, 5, 1, 5, 26, 135, 60, 58, 132, 60, 135, 1, 0.60856
57, 2, bw, attraction, a-b-db, 5, 1, 5, 26, 135, 60, 58, 132, 60, 135, 2, 0.406994
57, 2, bw, filler, NA, 999, 999, 5, 27, 165, 108, 142, 150, 87, 140, 2, 0.596069
57, 2, bw, filler, NA, 999, 999, 5, 27, 165, 108, 142, 150, 87, 140, 3, 0.451222
57, 2, bw, attraction, a-b-da, 2, 1, 5, 28, 135, 60, 134, 59, 60, 135, 3, 1.15106
57, 2, bw, attraction, a-b-da, 2, 1, 5, 28, 135, 60, 134, 59, 60, 135, 2, 0.448018
57, 2, bw, filler, NA, 999, 999, 5, 29, 189, 78, 66, 92, 149, 129, 3, 1.45188
57, 2, bw, filler, NA, 999, 999, 5, 29, 189, 78, 66, 92, 149, 129, 2, 0.792791
57, 2, bw, filler, NA, 999, 999, 5, 30, 143, 140, 131, 139, 165, 90, 1, 1.41427
57, 2, bw, filler, NA, 999, 999, 5, 30, 143, 140, 131, 139, 165, 90, 2, 0.460486
57, 2, bw, attraction, a-b-db, 5, 2, 5, 31, 90, 165, 88, 161, 165, 90, 1, 1.11966
57, 2, bw, attraction, a-b-db, 5, 2, 5, 31, 90, 165, 88, 161, 165, 90, 2, 0.329879
57, 2, bw, attraction, a-b-db, 2, 1, 5, 32, 60, 135, 59, 134, 135, 60, 1, 1.01047
57, 2, bw, attraction, a-b-db, 2, 1, 5, 32, 60, 135, 59, 134, 135, 60, 2, 0.440771
57, 2, bw, attraction, a-b-da, 14, 3, 5, 33, 181, 111, 195, 120, 120, 195, 1, 0.804648
57, 2, bw, attraction, a-b-da, 14, 3, 5, 33, 181, 111, 195, 120, 120, 195, 2, 0.290948
57, 2, bw, attraction, a-b-da, 5, 3, 5, 34, 195, 120, 190, 117, 120, 195, 1, 0.724866
57, 2, bw, attraction, a-b-da, 5, 3, 5, 34, 195, 120, 190, 117, 120, 195, 2, 0.278529
57, 2, bw, attraction, a-b-da, 2, 2, 5, 35, 165, 90, 90, 165, 163, 89, 1, 0.553074
57, 2, bw, attraction, a-b-da, 2, 2, 5, 35, 165, 90, 90, 165, 163, 89, 3, 0.746253
57, 2, bw, attraction, a-b-da, 5, 1, 5, 36, 60, 135, 132, 58, 135, 60, 3, 1.08205
57, 2, bw, attraction, a-b-da, 5, 1, 5, 36, 60, 135, 132, 58, 135, 60, 2, 0.485507
57, 2, bw, filler, NA, 999, 999, 5, 37, 172, 139, 66, 125, 74, 94, 1, 0.560028
57, 2, bw, filler, NA, 999, 999, 5, 37, 172, 139, 66, 125, 74, 94, 3, 0.976563
57, 2, bw, filler, NA, 999, 999, 6, 1, 160, 180, 193, 190, 138, 104, 2, 0.598781
57, 2, bw, filler, NA, 999, 999, 6, 1, 160, 180, 193, 190, 138, 104, 3, 0.477939
57, 2, bw, catch, NA, 999, 999, 6, 2, 100, 95, 137, 178, 136, 119, 2, 0.71231
57, 2, bw, catch, NA, 999, 999, 6, 2, 100, 95, 137, 178, 136, 119, 1, 1.02686
57, 2, bw, attraction, a-b-da, 14, 3, 6, 3, 195, 120, 120, 195, 181, 111, 1, 0.655046
57, 2, bw, attraction, a-b-da, 14, 3, 6, 3, 195, 120, 120, 195, 181, 111, 2, 0.33948
57, 2, bw, attraction, a-b-db, 5, 2, 6, 4, 90, 165, 165, 90, 88, 161, 2, 0.59533
57, 2, bw, attraction, a-b-db, 5, 2, 6, 4, 90, 165, 165, 90, 88, 161, 1, 0.3227
57, 2, bw, attraction, a-b-db, 14, 3, 6, 5, 111, 181, 195, 120, 120, 195, 3, 0.635085
57, 2, bw, attraction, a-b-db, 14, 3, 6, 5, 111, 181, 195, 120, 120, 195, 2, 0.272843
57, 2, bw, attraction, a-b-da, 5, 1, 6, 6, 135, 60, 132, 58, 60, 135, 1, 0.491307
57, 2, bw, attraction, a-b-da, 5, 1, 6, 6, 135, 60, 132, 58, 60, 135, 2, 0.326341
57, 2, bw, attraction, a-b-da, 5, 2, 6, 7, 165, 90, 161, 88, 90, 165, 1, 0.382869
57, 2, bw, attraction, a-b-da, 5, 2, 6, 7, 165, 90, 161, 88, 90, 165, 3, 0.438784
57, 2, bw, filler, NA, 999, 999, 6, 8, 86, 100, 148, 104, 103, 80, 2, 0.523297
57, 2, bw, filler, NA, 999, 999, 6, 8, 86, 100, 148, 104, 103, 80, 1, 0.525079
57, 2, bw, catch, NA, 999, 999, 6, 9, 115, 80, 144, 111, 156, 159, 3, 0.50155
57, 2, bw, catch, NA, 999, 999, 6, 9, 115, 80, 144, 111, 156, 159, 1, 0.584615
57, 2, bw, filler, NA, 999, 999, 6, 10, 135, 172, 171, 86, 134, 115, 1, 0.631078
57, 2, bw, filler, NA, 999, 999, 6, 10, 135, 172, 171, 86, 134, 115, 2, 0.364842
57, 2, bw, filler, NA, 999, 999, 6, 11, 136, 182, 194, 144, 192, 117, 1, 0.635954
57, 2, bw, filler, NA, 999, 999, 6, 11, 136, 182, 194, 144, 192, 117, 3, 0.569773
57, 2, bw, filler, NA, 999, 999, 6, 12, 132, 144, 131, 144, 137, 99, 1, 0.656943
57, 2, bw, filler, NA, 999, 999, 6, 12, 132, 144, 131, 144, 137, 99, 3, 0.597308
57, 2, bw, attraction, a-b-da, 2, 1, 6, 13, 134, 59, 135, 60, 60, 135, 3, 0.955186
57, 2, bw, attraction, a-b-da, 2, 1, 6, 13, 134, 59, 135, 60, 60, 135, 2, 0.435368
57, 2, bw, filler, NA, 999, 999, 6, 14, 131, 165, 169, 113, 173, 60, 1, 0.8719
57, 2, bw, filler, NA, 999, 999, 6, 14, 131, 165, 169, 113, 173, 60, 3, 0.691637
57, 2, bw, attraction, a-b-da, 9, 3, 6, 15, 120, 195, 195, 120, 186, 114, 1, 1.18134
57, 2, bw, attraction, a-b-da, 9, 3, 6, 15, 120, 195, 195, 120, 186, 114, 2, 0.732998
57, 2, bw, attraction, a-b-db, 14, 2, 6, 16, 83, 153, 90, 165, 165, 90, 3, 0.901345
57, 2, bw, attraction, a-b-db, 14, 2, 6, 16, 83, 153, 90, 165, 165, 90, 1, 0.480243
57, 2, bw, attraction, a-b-db, 9, 1, 6, 17, 57, 129, 60, 135, 135, 60, 2, 1.71488
57, 2, bw, attraction, a-b-db, 9, 1, 6, 17, 57, 129, 60, 135, 135, 60, 1, 0.57293
57, 2, bw, attraction, a-b-db, 14, 1, 6, 18, 60, 135, 135, 60, 56, 125, 1, 0.755232
57, 2, bw, attraction, a-b-db, 14, 1, 6, 18, 60, 135, 135, 60, 56, 125, 3, 0.26776
57, 2, bw, attraction, a-b-da, 14, 1, 6, 19, 60, 135, 135, 60, 125, 56, 2, 0.647092
57, 2, bw, attraction, a-b-da, 14, 1, 6, 19, 60, 135, 135, 60, 125, 56, 1, 0.388021
57, 2, bw, attraction, a-b-db, 2, 3, 6, 20, 119, 193, 195, 120, 120, 195, 1, 0.946525
57, 2, bw, attraction, a-b-db, 2, 3, 6, 20, 119, 193, 195, 120, 120, 195, 3, 0.499642
57, 2, bw, attraction, a-b-db, 5, 3, 6, 21, 195, 120, 117, 190, 120, 195, 1, 0.701334
57, 2, bw, attraction, a-b-db, 5, 3, 6, 21, 195, 120, 117, 190, 120, 195, 2, 0.280593
57, 2, bw, catch, NA, 999, 999, 6, 22, 99, 96, 150, 105, 130, 185, 3, 0.714858
57, 2, bw, catch, NA, 999, 999, 6, 22, 99, 96, 150, 105, 130, 185, 1, 0.605325
57, 2, bw, attraction, a-b-da, 5, 3, 6, 23, 195, 120, 120, 195, 190, 117, 1, 0.691065
57, 2, bw, attraction, a-b-da, 5, 3, 6, 23, 195, 120, 120, 195, 190, 117, 3, 0.38215
57, 2, bw, attraction, a-b-da, 2, 3, 6, 24, 195, 120, 120, 195, 193, 119, 2, 0.476578
57, 2, bw, attraction, a-b-da, 2, 3, 6, 24, 195, 120, 120, 195, 193, 119, 1, 0.304553
57, 2, bw, attraction, a-b-da, 9, 2, 6, 25, 157, 86, 165, 90, 90, 165, 1, 0.698371
57, 2, bw, attraction, a-b-da, 9, 2, 6, 25, 157, 86, 165, 90, 90, 165, 3, 0.261519
57, 2, bw, attraction, a-b-da, 14, 2, 6, 26, 90, 165, 165, 90, 153, 83, 2, 0.656715
57, 2, bw, attraction, a-b-da, 14, 2, 6, 26, 90, 165, 165, 90, 153, 83, 3, 0.43705
57, 2, bw, attraction, a-b-db, 2, 1, 6, 27, 59, 134, 135, 60, 60, 135, 3, 1.01766
57, 2, bw, attraction, a-b-db, 2, 1, 6, 27, 59, 134, 135, 60, 60, 135, 1, 0.367845
57, 2, bw, attraction, a-b-db, 5, 1, 6, 28, 58, 132, 135, 60, 60, 135, 1, 0.966997
57, 2, bw, attraction, a-b-db, 5, 1, 6, 28, 58, 132, 135, 60, 60, 135, 3, 0.31936
57, 2, bw, filler, NA, 999, 999, 6, 29, 145, 80, 116, 166, 97, 178, 2, 0.600468
57, 2, bw, filler, NA, 999, 999, 6, 29, 145, 80, 116, 166, 97, 178, 3, 0.255633
57, 2, bw, attraction, a-b-da, 2, 2, 6, 30, 165, 90, 163, 89, 90, 165, 1, 1.30765
57, 2, bw, attraction, a-b-da, 2, 2, 6, 30, 165, 90, 163, 89, 90, 165, 2, 0.453831
57, 2, bw, filler, NA, 999, 999, 6, 31, 125, 85, 105, 73, 73, 65, 1, 0.729587
57, 2, bw, filler, NA, 999, 999, 6, 31, 125, 85, 105, 73, 73, 65, 3, 0.595324
57, 2, bw, filler, NA, 999, 999, 6, 32, 133, 176, 80, 75, 102, 139, 1, 1.473
57, 2, bw, filler, NA, 999, 999, 6, 32, 133, 176, 80, 75, 102, 139, 2, 0.548591
57, 2, bw, attraction, a-b-db, 9, 2, 6, 33, 90, 165, 165, 90, 86, 157, 1, 1.33234
57, 2, bw, attraction, a-b-db, 9, 2, 6, 33, 90, 165, 165, 90, 86, 157, 3, 0.317927
57, 2, bw, filler, NA, 999, 999, 6, 34, 95, 182, 121, 139, 172, 158, 3, 0.551061
57, 2, bw, filler, NA, 999, 999, 6, 34, 95, 182, 121, 139, 172, 158, 2, 0.416254
57, 2, bw, attraction, a-b-da, 9, 1, 6, 35, 135, 60, 60, 135, 129, 57, 1, 0.509418
57, 2, bw, attraction, a-b-da, 9, 1, 6, 35, 135, 60, 60, 135, 129, 57, 2, 0.359801
57, 2, bw, attraction, a-b-db, 9, 3, 6, 36, 114, 186, 120, 195, 195, 120, 2, 0.686963
57, 2, bw, attraction, a-b-db, 9, 3, 6, 36, 114, 186, 120, 195, 195, 120, 3, 0.25074
57, 2, bw, attraction, a-b-db, 2, 2, 6, 37, 90, 165, 89, 163, 165, 90, 3, 0.55861
57, 2, bw, attraction, a-b-db, 2, 2, 6, 37, 90, 165, 89, 163, 165, 90, 1, 0.479025
57, 2, bw, attraction, a-b-db, 9, 1, 7, 1, 60, 135, 135, 60, 57, 129, 1, 0.66547
57, 2, bw, attraction, a-b-db, 9, 1, 7, 1, 60, 135, 135, 60, 57, 129, 2, 0.317875
57, 2, bw, attraction, a-b-da, 14, 1, 7, 2, 125, 56, 135, 60, 60, 135, 1, 0.415109
57, 2, bw, attraction, a-b-da, 14, 1, 7, 2, 125, 56, 135, 60, 60, 135, 2, 0.301565
57, 2, bw, attraction, a-b-da, 5, 1, 7, 3, 135, 60, 132, 58, 60, 135, 1, 0.471585
57, 2, bw, attraction, a-b-da, 5, 1, 7, 3, 135, 60, 132, 58, 60, 135, 2, 0.307292
57, 2, bw, catch, NA, 999, 999, 7, 4, 111, 84, 166, 149, 93, 162, 2, 0.660467
57, 2, bw, catch, NA, 999, 999, 7, 4, 111, 84, 166, 149, 93, 162, 1, 0.32886
57, 2, bw, filler, NA, 999, 999, 7, 5, 81, 101, 112, 104, 188, 151, 3, 0.457451
57, 2, bw, filler, NA, 999, 999, 7, 5, 81, 101, 112, 104, 188, 151, 1, 0.37394
57, 2, bw, attraction, a-b-da, 2, 1, 7, 6, 135, 60, 134, 59, 60, 135, 1, 0.596572
57, 2, bw, attraction, a-b-da, 2, 1, 7, 6, 135, 60, 134, 59, 60, 135, 3, 0.24354
57, 2, bw, catch, NA, 999, 999, 7, 7, 92, 163, 122, 193, 70, 125, 2, 0.591411
57, 2, bw, catch, NA, 999, 999, 7, 7, 92, 163, 122, 193, 70, 125, 3, 1.0625
57, 2, bw, filler, NA, 999, 999, 7, 8, 133, 80, 135, 145, 160, 96, 2, 0.561455
57, 2, bw, filler, NA, 999, 999, 7, 8, 133, 80, 135, 145, 160, 96, 1, 0.505886
57, 2, bw, attraction, a-b-da, 9, 1, 7, 9, 60, 135, 129, 57, 135, 60, 1, 1.10774
57, 2, bw, attraction, a-b-da, 9, 1, 7, 9, 60, 135, 129, 57, 135, 60, 2, 0.950001
57, 2, bw, attraction, a-b-db, 14, 1, 7, 10, 56, 125, 135, 60, 60, 135, 2, 0.709667
57, 2, bw, attraction, a-b-db, 14, 1, 7, 10, 56, 125, 135, 60, 60, 135, 3, 0.354365
57, 2, bw, filler, NA, 999, 999, 7, 11, 163, 56, 190, 60, 74, 113, 1, 0.583878
57, 2, bw, filler, NA, 999, 999, 7, 11, 163, 56, 190, 60, 74, 113, 3, 0.615665
57, 2, bw, catch, NA, 999, 999, 7, 12, 127, 188, 159, 96, 93, 102, 1, 0.292804
57, 2, bw, catch, NA, 999, 999, 7, 12, 127, 188, 159, 96, 93, 102, 3, 0.327997
57, 2, bw, attraction, a-b-da, 5, 2, 7, 13, 90, 165, 165, 90, 161, 88, 3, 0.616491
57, 2, bw, attraction, a-b-da, 5, 2, 7, 13, 90, 165, 165, 90, 161, 88, 2, 0.478928
57, 2, bw, attraction, a-b-da, 14, 2, 7, 14, 90, 165, 153, 83, 165, 90, 3, 0.385351
57, 2, bw, attraction, a-b-da, 14, 2, 7, 14, 90, 165, 153, 83, 165, 90, 2, 0.289293
57, 2, bw, attraction, a-b-db, 9, 2, 7, 15, 165, 90, 90, 165, 86, 157, 2, 0.963097
57, 2, bw, attraction, a-b-db, 9, 2, 7, 15, 165, 90, 90, 165, 86, 157, 1, 0.307423
57, 2, bw, attraction, a-b-db, 5, 2, 7, 16, 165, 90, 90, 165, 88, 161, 2, 0.444691
57, 2, bw, attraction, a-b-db, 5, 2, 7, 16, 165, 90, 90, 165, 88, 161, 1, 0.289769
57, 2, bw, attraction, a-b-db, 2, 3, 7, 17, 195, 120, 119, 193, 120, 195, 1, 0.363561
57, 2, bw, attraction, a-b-db, 2, 3, 7, 17, 195, 120, 119, 193, 120, 195, 2, 0.268209
57, 2, bw, filler, NA, 999, 999, 7, 18, 167, 100, 134, 155, 184, 61, 1, 0.375345
57, 2, bw, filler, NA, 999, 999, 7, 18, 167, 100, 134, 155, 184, 61, 2, 0.287262
57, 2, bw, filler, NA, 999, 999, 7, 19, 187, 148, 191, 190, 93, 147, 2, 0.585684
57, 2, bw, filler, NA, 999, 999, 7, 19, 187, 148, 191, 190, 93, 147, 3, 0.41749
57, 2, bw, attraction, a-b-da, 9, 3, 7, 20, 186, 114, 195, 120, 120, 195, 3, 0.622669
57, 2, bw, attraction, a-b-da, 9, 3, 7, 20, 186, 114, 195, 120, 120, 195, 2, 0.356428
57, 2, bw, filler, NA, 999, 999, 7, 21, 195, 195, 189, 184, 90, 168, 2, 0.54762
57, 2, bw, filler, NA, 999, 999, 7, 21, 195, 195, 189, 184, 90, 168, 1, 0.412844
57, 2, bw, attraction, a-b-db, 5, 3, 7, 22, 120, 195, 117, 190, 195, 120, 3, 2.54586
57, 2, bw, attraction, a-b-db, 5, 3, 7, 22, 120, 195, 117, 190, 195, 120, 2, 0.626385
57, 2, bw, attraction, a-b-da, 5, 3, 7, 23, 120, 195, 195, 120, 190, 117, 2, 0.766891
57, 2, bw, attraction, a-b-da, 5, 3, 7, 23, 120, 195, 195, 120, 190, 117, 1, 0.359145
57, 2, bw, filler, NA, 999, 999, 7, 24, 192, 187, 114, 110, 141, 60, 2, 1.03031
57, 2, bw, filler, NA, 999, 999, 7, 24, 192, 187, 114, 110, 141, 60, 3, 1.54003
57, 2, bw, attraction, a-b-db, 14, 3, 7, 25, 120, 195, 195, 120, 111, 181, 2, 0.747458
57, 2, bw, attraction, a-b-db, 14, 3, 7, 25, 120, 195, 195, 120, 111, 181, 1, 0.316505
57, 2, bw, attraction, a-b-db, 2, 1, 7, 26, 135, 60, 60, 135, 59, 134, 1, 0.701469
57, 2, bw, attraction, a-b-db, 2, 1, 7, 26, 135, 60, 60, 135, 59, 134, 2, 0.248182
57, 2, bw, attraction, a-b-db, 2, 2, 7, 27, 89, 163, 165, 90, 90, 165, 1, 0.484006
57, 2, bw, attraction, a-b-db, 2, 2, 7, 27, 89, 163, 165, 90, 90, 165, 2, 0.239817
57, 2, bw, attraction, a-b-da, 14, 3, 7, 28, 195, 120, 120, 195, 181, 111, 2, 0.603693
57, 2, bw, attraction, a-b-da, 14, 3, 7, 28, 195, 120, 120, 195, 181, 111, 1, 0.618119
57, 2, bw, attraction, a-b-da, 9, 2, 7, 29, 165, 90, 90, 165, 157, 86, 1, 1.56726
57, 2, bw, attraction, a-b-da, 9, 2, 7, 29, 165, 90, 90, 165, 157, 86, 2, 0.311448
57, 2, bw, attraction, a-b-db, 5, 1, 7, 30, 60, 135, 135, 60, 58, 132, 1, 0.952519
57, 2, bw, attraction, a-b-db, 5, 1, 7, 30, 60, 135, 135, 60, 58, 132, 2, 0.633552
57, 2, bw, attraction, a-b-da, 2, 3, 7, 31, 193, 119, 120, 195, 195, 120, 1, 0.845969
57, 2, bw, attraction, a-b-da, 2, 3, 7, 31, 193, 119, 120, 195, 195, 120, 2, 0.346958
57, 2, bw, filler, NA, 999, 999, 7, 32, 191, 99, 135, 162, 123, 142, 2, 0.658783
57, 2, bw, filler, NA, 999, 999, 7, 32, 191, 99, 135, 162, 123, 142, 1, 1.98332
57, 2, bw, attraction, a-b-db, 9, 3, 7, 33, 195, 120, 114, 186, 120, 195, 1, 0.837206
57, 2, bw, attraction, a-b-db, 9, 3, 7, 33, 195, 120, 114, 186, 120, 195, 2, 0.498362
57, 2, bw, filler, NA, 999, 999, 7, 34, 106, 126, 193, 70, 98, 119, 1, 2.1322
57, 2, bw, filler, NA, 999, 999, 7, 34, 106, 126, 193, 70, 98, 119, 2, 0.621509
57, 2, bw, filler, NA, 999, 999, 7, 35, 162, 87, 82, 62, 91, 62, 1, 0.706448
57, 2, bw, filler, NA, 999, 999, 7, 35, 162, 87, 82, 62, 91, 62, 2, 0.916891
57, 2, bw, attraction, a-b-db, 14, 2, 7, 36, 165, 90, 90, 165, 83, 153, 1, 0.597812
57, 2, bw, attraction, a-b-db, 14, 2, 7, 36, 165, 90, 90, 165, 83, 153, 3, 0.492965
57, 2, bw, attraction, a-b-da, 2, 2, 7, 37, 163, 89, 90, 165, 165, 90, 1, 0.718814
57, 2, bw, attraction, a-b-da, 2, 2, 7, 37, 163, 89, 90, 165, 165, 90, 2, 0.665274
57, 2, bw, attraction, a-b-db, 2, 2, 8, 1, 165, 90, 89, 163, 90, 165, 1, 0.524384
57, 2, bw, attraction, a-b-db, 2, 2, 8, 1, 165, 90, 89, 163, 90, 165, 2, 0.63809
57, 2, bw, attraction, a-b-db, 14, 1, 8, 2, 135, 60, 60, 135, 56, 125, 2, 0.81845
57, 2, bw, attraction, a-b-db, 14, 1, 8, 2, 135, 60, 60, 135, 56, 125, 3, 0.305087
57, 2, bw, attraction, a-b-db, 5, 2, 8, 3, 165, 90, 90, 165, 88, 161, 2, 0.70678
57, 2, bw, attraction, a-b-db, 5, 2, 8, 3, 165, 90, 90, 165, 88, 161, 3, 0.485184
57, 2, bw, attraction, a-b-da, 14, 1, 8, 4, 135, 60, 60, 135, 125, 56, 1, 0.575558
57, 2, bw, attraction, a-b-da, 14, 1, 8, 4, 135, 60, 60, 135, 125, 56, 2, 0.359401
57, 2, bw, attraction, a-b-da, 14, 2, 8, 5, 153, 83, 165, 90, 90, 165, 2, 1.01454
57, 2, bw, attraction, a-b-da, 14, 2, 8, 5, 153, 83, 165, 90, 90, 165, 3, 0.308954
57, 2, bw, attraction, a-b-db, 5, 1, 8, 6, 58, 132, 60, 135, 135, 60, 1, 1.03
57, 2, bw, attraction, a-b-db, 5, 1, 8, 6, 58, 132, 60, 135, 135, 60, 2, 0.675673
57, 2, bw, attraction, a-b-da, 5, 2, 8, 7, 165, 90, 161, 88, 90, 165, 2, 0.774074
57, 2, bw, attraction, a-b-da, 5, 2, 8, 7, 165, 90, 161, 88, 90, 165, 3, 0.341829
57, 2, bw, attraction, a-b-da, 14, 3, 8, 8, 120, 195, 181, 111, 195, 120, 1, 0.541714
57, 2, bw, attraction, a-b-da, 14, 3, 8, 8, 120, 195, 181, 111, 195, 120, 2, 0.622883
57, 2, bw, attraction, a-b-db, 9, 2, 8, 9, 90, 165, 165, 90, 86, 157, 2, 0.73917
57, 2, bw, attraction, a-b-db, 9, 2, 8, 9, 90, 165, 165, 90, 86, 157, 3, 0.420228
57, 2, bw, filler, NA, 999, 999, 8, 10, 69, 127, 122, 87, 111, 116, 3, 1.21746
57, 2, bw, filler, NA, 999, 999, 8, 10, 69, 127, 122, 87, 111, 116, 1, 0.351762
57, 2, bw, attraction, a-b-db, 2, 3, 8, 11, 120, 195, 195, 120, 119, 193, 3, 1.37554
57, 2, bw, attraction, a-b-db, 2, 3, 8, 11, 120, 195, 195, 120, 119, 193, 1, 0.455081
57, 2, bw, filler, NA, 999, 999, 8, 12, 132, 86, 157, 129, 136, 140, 3, 0.786838
57, 2, bw, filler, NA, 999, 999, 8, 12, 132, 86, 157, 129, 136, 140, 1, 0.641927
57, 2, bw, filler, NA, 999, 999, 8, 13, 163, 82, 75, 132, 109, 142, 3, 1.10173
57, 2, bw, filler, NA, 999, 999, 8, 13, 163, 82, 75, 132, 109, 142, 2, 1.11267
57, 2, bw, filler, NA, 999, 999, 8, 14, 68, 117, 187, 169, 122, 56, 2, 0.7695
57, 2, bw, filler, NA, 999, 999, 8, 14, 68, 117, 187, 169, 122, 56, 1, 0.434046
57, 2, bw, catch, NA, 999, 999, 8, 15, 135, 60, 112, 143, 127, 188, 3, 0.686467
57, 2, bw, catch, NA, 999, 999, 8, 15, 135, 60, 112, 143, 127, 188, 1, 0.346205
57, 2, bw, attraction, a-b-da, 2, 2, 8, 16, 90, 165, 165, 90, 163, 89, 1, 0.706041
57, 2, bw, attraction, a-b-da, 2, 2, 8, 16, 90, 165, 165, 90, 163, 89, 2, 0.716443
57, 2, bw, attraction, a-b-db, 14, 3, 8, 17, 120, 195, 195, 120, 111, 181, 2, 0.677507
57, 2, bw, attraction, a-b-db, 14, 3, 8, 17, 120, 195, 195, 120, 111, 181, 1, 0.433319
57, 2, bw, attraction, a-b-db, 2, 1, 8, 18, 60, 135, 135, 60, 59, 134, 1, 0.621866
57, 2, bw, attraction, a-b-db, 2, 1, 8, 18, 60, 135, 135, 60, 59, 134, 2, 0.451746
57, 2, bw, attraction, a-b-db, 9, 3, 8, 19, 120, 195, 114, 186, 195, 120, 1, 0.927286
57, 2, bw, attraction, a-b-db, 9, 3, 8, 19, 120, 195, 114, 186, 195, 120, 2, 1.03301
57, 2, bw, attraction, a-b-db, 14, 2, 8, 20, 90, 165, 83, 153, 165, 90, 3, 0.917382
57, 2, bw, attraction, a-b-db, 14, 2, 8, 20, 90, 165, 83, 153, 165, 90, 2, 0.799622
57, 2, bw, attraction, a-b-da, 5, 1, 8, 21, 132, 58, 135, 60, 60, 135, 1, 1.17326
57, 2, bw, attraction, a-b-da, 5, 1, 8, 21, 132, 58, 135, 60, 60, 135, 2, 0.652979
57, 2, bw, attraction, a-b-da, 9, 3, 8, 22, 195, 120, 120, 195, 186, 114, 2, 1.04069
57, 2, bw, attraction, a-b-da, 9, 3, 8, 22, 195, 120, 120, 195, 186, 114, 3, 0.493701
57, 2, bw, catch, NA, 999, 999, 8, 23, 147, 108, 114, 81, 124, 191, 3, 0.727453
57, 2, bw, catch, NA, 999, 999, 8, 23, 147, 108, 114, 81, 124, 191, 2, 0.321165
57, 2, bw, filler, NA, 999, 999, 8, 24, 190, 64, 145, 56, 85, 111, 1, 1.13828
57, 2, bw, filler, NA, 999, 999, 8, 24, 190, 64, 145, 56, 85, 111, 3, 0.275307
57, 2, bw, attraction, a-b-da, 2, 1, 8, 25, 134, 59, 60, 135, 135, 60, 2, 0.781864
57, 2, bw, attraction, a-b-da, 2, 1, 8, 25, 134, 59, 60, 135, 135, 60, 1, 0.293594
57, 2, bw, attraction, a-b-da, 2, 3, 8, 26, 193, 119, 120, 195, 195, 120, 3, 0.631366
57, 2, bw, attraction, a-b-da, 2, 3, 8, 26, 193, 119, 120, 195, 195, 120, 2, 0.333205
57, 2, bw, filler, NA, 999, 999, 8, 27, 102, 66, 147, 64, 107, 142, 3, 0.53372
57, 2, bw, filler, NA, 999, 999, 8, 27, 102, 66, 147, 64, 107, 142, 1, 0.571002
57, 2, bw, filler, NA, 999, 999, 8, 28, 61, 127, 161, 180, 188, 63, 2, 1.1665
57, 2, bw, filler, NA, 999, 999, 8, 28, 61, 127, 161, 180, 188, 63, 1, 0.302789
57, 2, bw, filler, NA, 999, 999, 8, 29, 137, 152, 176, 66, 124, 101, 1, 0.512772
57, 2, bw, filler, NA, 999, 999, 8, 29, 137, 152, 176, 66, 124, 101, 2, 0.843227
57, 2, bw, catch, NA, 999, 999, 8, 30, 148, 167, 72, 123, 145, 110, 1, 0.686895
57, 2, bw, catch, NA, 999, 999, 8, 30, 148, 167, 72, 123, 145, 110, 2, 0.474601
57, 2, bw, attraction, a-b-da, 5, 3, 8, 31, 195, 120, 120, 195, 190, 117, 2, 0.701141
57, 2, bw, attraction, a-b-da, 5, 3, 8, 31, 195, 120, 120, 195, 190, 117, 3, 0.368314
57, 2, bw, filler, NA, 999, 999, 8, 32, 171, 71, 120, 61, 73, 148, 1, 0.788582
57, 2, bw, filler, NA, 999, 999, 8, 32, 171, 71, 120, 61, 73, 148, 2, 0.40644
57, 2, bw, attraction, a-b-da, 9, 1, 8, 33, 135, 60, 60, 135, 129, 57, 1, 0.435564
57, 2, bw, attraction, a-b-da, 9, 1, 8, 33, 135, 60, 60, 135, 129, 57, 2, 0.289373
57, 2, bw, attraction, a-b-db, 9, 1, 8, 34, 57, 129, 135, 60, 60, 135, 1, 1.05128
57, 2, bw, attraction, a-b-db, 9, 1, 8, 34, 57, 129, 135, 60, 60, 135, 3, 0.304272
57, 2, bw, attraction, a-b-db, 5, 3, 8, 35, 117, 190, 120, 195, 195, 120, 1, 1.04209
57, 2, bw, attraction, a-b-db, 5, 3, 8, 35, 117, 190, 120, 195, 195, 120, 2, 0.263048
57, 2, bw, attraction, a-b-da, 9, 2, 8, 36, 90, 165, 157, 86, 165, 90, 3, 1.58634
57, 2, bw, attraction, a-b-da, 9, 2, 8, 36, 90, 165, 157, 86, 165, 90, 2, 0.433882
57, 2, bw, filler, NA, 999, 999, 8, 37, 79, 156, 146, 165, 70, 181, 2, 0.550233
57, 2, bw, filler, NA, 999, 999, 8, 37, 79, 156, 146, 165, 70, 181, 1, 0.383303
