sub_n, computer_n, bw_cond, effect, set, distance, diag, block_n, trial_n, h1, w1, h2, w2, h3, w3, choice, rt 
50, 2, wb, practice, NA, 999, 999, 0, 1, 118, 188, 186, 110, 131, 173, 2, 5.39739
50, 2, wb, practice, NA, 999, 999, 0, 1, 118, 188, 186, 110, 131, 173, 1, 2.3549
50, 2, wb, practice, NA, 999, 999, 0, 2, 146, 61, 167, 192, 102, 149, 1, 2.46868
50, 2, wb, practice, NA, 999, 999, 0, 2, 146, 61, 167, 192, 102, 149, 2, 1.23301
50, 2, wb, practice, NA, 999, 999, 0, 3, 147, 173, 180, 112, 178, 162, 2, 4.40099
50, 2, wb, practice, NA, 999, 999, 0, 3, 147, 173, 180, 112, 178, 162, 3, 1.78323
50, 2, wb, attraction, a-b-da, 2, 1, 1, 1, 134, 59, 60, 135, 135, 60, 3, 8.27703
50, 2, wb, attraction, a-b-da, 2, 1, 1, 1, 134, 59, 60, 135, 135, 60, 2, 1.12645
50, 2, wb, filler, NA, 999, 999, 1, 2, 69, 166, 175, 56, 71, 91, 3, 5.92667
50, 2, wb, filler, NA, 999, 999, 1, 2, 69, 166, 175, 56, 71, 91, 1, 0.982751
50, 2, wb, attraction, a-b-db, 5, 2, 1, 3, 90, 165, 165, 90, 88, 161, 3, 6.76516
50, 2, wb, attraction, a-b-db, 5, 2, 1, 3, 90, 165, 165, 90, 88, 161, 2, 0.419663
50, 2, wb, attraction, a-b-db, 5, 1, 1, 4, 58, 132, 135, 60, 60, 135, 2, 5.43279
50, 2, wb, attraction, a-b-db, 5, 1, 1, 4, 58, 132, 135, 60, 60, 135, 3, 1.045
50, 2, wb, attraction, a-b-db, 2, 2, 1, 5, 165, 90, 90, 165, 89, 163, 2, 17.2487
50, 2, wb, attraction, a-b-db, 2, 2, 1, 5, 165, 90, 90, 165, 89, 163, 3, 1.43259
50, 2, wb, attraction, a-b-da, 5, 3, 1, 6, 120, 195, 195, 120, 190, 117, 1, 5.02878
50, 2, wb, attraction, a-b-da, 5, 3, 1, 6, 120, 195, 195, 120, 190, 117, 2, 0.361128
50, 2, wb, attraction, a-b-da, 14, 2, 1, 7, 90, 165, 153, 83, 165, 90, 2, 3.39224
50, 2, wb, attraction, a-b-da, 14, 2, 1, 7, 90, 165, 153, 83, 165, 90, 1, 0.35857
50, 2, wb, catch, NA, 999, 999, 1, 8, 182, 133, 97, 158, 73, 122, 3, 1.38969
50, 2, wb, catch, NA, 999, 999, 1, 8, 182, 133, 97, 158, 73, 122, 1, 0.372755
50, 2, wb, filler, NA, 999, 999, 1, 9, 147, 81, 83, 165, 90, 161, 1, 1.90718
50, 2, wb, filler, NA, 999, 999, 1, 9, 147, 81, 83, 165, 90, 161, 2, 1.46912
50, 2, wb, attraction, a-b-da, 2, 2, 1, 10, 90, 165, 165, 90, 163, 89, 1, 16.1439
50, 2, wb, attraction, a-b-da, 2, 2, 1, 10, 90, 165, 165, 90, 163, 89, 2, 0.364144
50, 2, wb, attraction, a-b-db, 9, 3, 1, 11, 114, 186, 120, 195, 195, 120, 2, 2.38737
50, 2, wb, attraction, a-b-db, 9, 3, 1, 11, 114, 186, 120, 195, 195, 120, 3, 0.409933
50, 2, wb, attraction, a-b-da, 9, 1, 1, 12, 60, 135, 135, 60, 129, 57, 2, 8.15902
50, 2, wb, attraction, a-b-da, 9, 1, 1, 12, 60, 135, 135, 60, 129, 57, 1, 0.365119
50, 2, wb, attraction, a-b-da, 14, 1, 1, 13, 60, 135, 125, 56, 135, 60, 2, 1.13237
50, 2, wb, attraction, a-b-da, 14, 1, 1, 13, 60, 135, 125, 56, 135, 60, 1, 1.11788
50, 2, wb, catch, NA, 999, 999, 1, 14, 105, 150, 107, 88, 146, 169, 2, 2.35083
50, 2, wb, catch, NA, 999, 999, 1, 14, 105, 150, 107, 88, 146, 169, 3, 0.279412
50, 2, wb, attraction, a-b-db, 9, 1, 1, 15, 60, 135, 57, 129, 135, 60, 2, 2.19399
50, 2, wb, attraction, a-b-db, 9, 1, 1, 15, 60, 135, 57, 129, 135, 60, 3, 0.616587
50, 2, wb, attraction, a-b-db, 14, 2, 1, 16, 165, 90, 83, 153, 90, 165, 3, 1.57371
50, 2, wb, attraction, a-b-db, 14, 2, 1, 16, 165, 90, 83, 153, 90, 165, 1, 0.94125
50, 2, wb, attraction, a-b-db, 9, 2, 1, 17, 90, 165, 165, 90, 86, 157, 1, 3.05281
50, 2, wb, attraction, a-b-db, 9, 2, 1, 17, 90, 165, 165, 90, 86, 157, 2, 0.385145
50, 2, wb, filler, NA, 999, 999, 1, 18, 181, 132, 161, 141, 91, 92, 3, 2.59964
50, 2, wb, filler, NA, 999, 999, 1, 18, 181, 132, 161, 141, 91, 92, 2, 0.726112
50, 2, wb, filler, NA, 999, 999, 1, 19, 162, 144, 118, 74, 184, 77, 2, 1.27045
50, 2, wb, filler, NA, 999, 999, 1, 19, 162, 144, 118, 74, 184, 77, 1, 0.37075
50, 2, wb, attraction, a-b-da, 5, 1, 1, 20, 60, 135, 135, 60, 132, 58, 3, 7.48988
50, 2, wb, attraction, a-b-da, 5, 1, 1, 20, 60, 135, 135, 60, 132, 58, 1, 0.539468
50, 2, wb, filler, NA, 999, 999, 1, 21, 69, 193, 88, 102, 163, 109, 2, 2.80339
50, 2, wb, filler, NA, 999, 999, 1, 21, 69, 193, 88, 102, 163, 109, 3, 0.329053
50, 2, wb, attraction, a-b-db, 2, 3, 1, 22, 119, 193, 195, 120, 120, 195, 2, 5.84162
50, 2, wb, attraction, a-b-db, 2, 3, 1, 22, 119, 193, 195, 120, 120, 195, 3, 0.333105
50, 2, wb, filler, NA, 999, 999, 1, 23, 90, 74, 138, 69, 157, 71, 1, 10.2054
50, 2, wb, filler, NA, 999, 999, 1, 23, 90, 74, 138, 69, 157, 71, 3, 0.641652
50, 2, wb, attraction, a-b-da, 14, 3, 1, 24, 195, 120, 120, 195, 181, 111, 2, 11.4294
50, 2, wb, attraction, a-b-da, 14, 3, 1, 24, 195, 120, 120, 195, 181, 111, 1, 0.767687
50, 2, wb, attraction, a-b-db, 14, 1, 1, 25, 135, 60, 56, 125, 60, 135, 2, 1.29485
50, 2, wb, attraction, a-b-db, 14, 1, 1, 25, 135, 60, 56, 125, 60, 135, 1, 2.42695
50, 2, wb, attraction, a-b-da, 2, 3, 1, 26, 195, 120, 193, 119, 120, 195, 3, 4.27763
50, 2, wb, attraction, a-b-da, 2, 3, 1, 26, 195, 120, 193, 119, 120, 195, 2, 0.264184
50, 2, wb, filler, NA, 999, 999, 1, 27, 64, 161, 91, 124, 124, 79, 3, 3.25143
50, 2, wb, filler, NA, 999, 999, 1, 27, 64, 161, 91, 124, 124, 79, 1, 0.351706
50, 2, wb, attraction, a-b-da, 9, 2, 1, 28, 165, 90, 157, 86, 90, 165, 1, 10.0395
50, 2, wb, attraction, a-b-da, 9, 2, 1, 28, 165, 90, 157, 86, 90, 165, 3, 0.642356
50, 2, wb, attraction, a-b-da, 9, 3, 1, 29, 120, 195, 195, 120, 186, 114, 2, 3.3661
50, 2, wb, attraction, a-b-da, 9, 3, 1, 29, 120, 195, 195, 120, 186, 114, 3, 0.285689
50, 2, wb, filler, NA, 999, 999, 1, 30, 156, 109, 134, 121, 120, 70, 3, 1.10418
50, 2, wb, filler, NA, 999, 999, 1, 30, 156, 109, 134, 121, 120, 70, 1, 0.91457
50, 2, wb, attraction, a-b-db, 14, 3, 1, 31, 195, 120, 120, 195, 111, 181, 3, 3.97948
50, 2, wb, attraction, a-b-db, 14, 3, 1, 31, 195, 120, 120, 195, 111, 181, 1, 0.258224
50, 2, wb, catch, NA, 999, 999, 1, 32, 190, 125, 143, 112, 131, 64, 3, 1.22137
50, 2, wb, catch, NA, 999, 999, 1, 32, 190, 125, 143, 112, 131, 64, 1, 0.258945
50, 2, wb, attraction, a-b-db, 2, 1, 1, 33, 59, 134, 135, 60, 60, 135, 1, 1.80628
50, 2, wb, attraction, a-b-db, 2, 1, 1, 33, 59, 134, 135, 60, 60, 135, 3, 0.500261
50, 2, wb, filler, NA, 999, 999, 1, 34, 191, 140, 102, 80, 120, 132, 2, 1.38213
50, 2, wb, filler, NA, 999, 999, 1, 34, 191, 140, 102, 80, 120, 132, 1, 0.277641
50, 2, wb, attraction, a-b-da, 5, 2, 1, 35, 165, 90, 90, 165, 161, 88, 2, 2.73619
50, 2, wb, attraction, a-b-da, 5, 2, 1, 35, 165, 90, 90, 165, 161, 88, 3, 0.185207
50, 2, wb, attraction, a-b-db, 5, 3, 1, 36, 195, 120, 120, 195, 117, 190, 2, 1.63181
50, 2, wb, attraction, a-b-db, 5, 3, 1, 36, 195, 120, 120, 195, 117, 190, 1, 0.277269
50, 2, wb, filler, NA, 999, 999, 1, 37, 69, 184, 111, 147, 169, 60, 2, 3.64787
50, 2, wb, filler, NA, 999, 999, 1, 37, 69, 184, 111, 147, 169, 60, 3, 0.283956
50, 2, wb, filler, NA, 999, 999, 2, 1, 57, 166, 164, 67, 180, 108, 2, 4.94256
50, 2, wb, filler, NA, 999, 999, 2, 1, 57, 166, 164, 67, 180, 108, 3, 0.254289
50, 2, wb, filler, NA, 999, 999, 2, 2, 107, 84, 69, 97, 94, 105, 2, 9.24224
50, 2, wb, filler, NA, 999, 999, 2, 2, 107, 84, 69, 97, 94, 105, 1, 1.26861
50, 2, wb, filler, NA, 999, 999, 2, 3, 89, 171, 88, 113, 93, 143, 2, 1.0074
50, 2, wb, filler, NA, 999, 999, 2, 3, 89, 171, 88, 113, 93, 143, 1, 0.757691
50, 2, wb, attraction, a-b-da, 5, 3, 2, 4, 190, 117, 120, 195, 195, 120, 3, 2.7168
50, 2, wb, attraction, a-b-da, 5, 3, 2, 4, 190, 117, 120, 195, 195, 120, 2, 0.798578
50, 2, wb, attraction, a-b-da, 14, 1, 2, 5, 135, 60, 125, 56, 60, 135, 2, 1.74036
50, 2, wb, attraction, a-b-da, 14, 1, 2, 5, 135, 60, 125, 56, 60, 135, 3, 0.892998
50, 2, wb, attraction, a-b-db, 14, 2, 2, 6, 165, 90, 90, 165, 83, 153, 1, 5.19875
50, 2, wb, attraction, a-b-db, 14, 2, 2, 6, 165, 90, 90, 165, 83, 153, 2, 0.292348
50, 2, wb, attraction, a-b-da, 2, 3, 2, 7, 193, 119, 195, 120, 120, 195, 2, 3.9104
50, 2, wb, attraction, a-b-da, 2, 3, 2, 7, 193, 119, 195, 120, 120, 195, 3, 0.391615
50, 2, wb, catch, NA, 999, 999, 2, 8, 133, 62, 158, 157, 96, 159, 1, 2.38142
50, 2, wb, catch, NA, 999, 999, 2, 8, 133, 62, 158, 157, 96, 159, 2, 0.516713
50, 2, wb, attraction, a-b-da, 5, 2, 2, 9, 90, 165, 161, 88, 165, 90, 2, 3.32572
50, 2, wb, attraction, a-b-da, 5, 2, 2, 9, 90, 165, 161, 88, 165, 90, 1, 0.486717
50, 2, wb, attraction, a-b-da, 14, 2, 2, 10, 90, 165, 165, 90, 153, 83, 3, 1.80922
50, 2, wb, attraction, a-b-da, 14, 2, 2, 10, 90, 165, 165, 90, 153, 83, 1, 0.655265
50, 2, wb, attraction, a-b-db, 14, 1, 2, 11, 135, 60, 60, 135, 56, 125, 2, 1.65905
50, 2, wb, attraction, a-b-db, 14, 1, 2, 11, 135, 60, 60, 135, 56, 125, 1, 0.83121
50, 2, wb, catch, NA, 999, 999, 2, 12, 91, 104, 132, 183, 141, 114, 1, 1.56343
50, 2, wb, catch, NA, 999, 999, 2, 12, 91, 104, 132, 183, 141, 114, 2, 0.243559
50, 2, wb, filler, NA, 999, 999, 2, 13, 111, 67, 87, 146, 76, 154, 1, 6.03941
50, 2, wb, filler, NA, 999, 999, 2, 13, 111, 67, 87, 146, 76, 154, 2, 0.851717
50, 2, wb, attraction, a-b-db, 2, 3, 2, 14, 195, 120, 120, 195, 119, 193, 2, 2.53533
50, 2, wb, attraction, a-b-db, 2, 3, 2, 14, 195, 120, 120, 195, 119, 193, 1, 1.33649
50, 2, wb, attraction, a-b-da, 5, 1, 2, 15, 60, 135, 135, 60, 132, 58, 2, 1.22469
50, 2, wb, attraction, a-b-da, 5, 1, 2, 15, 60, 135, 135, 60, 132, 58, 3, 0.678263
50, 2, wb, attraction, a-b-db, 9, 1, 2, 16, 57, 129, 135, 60, 60, 135, 2, 9.98457
50, 2, wb, attraction, a-b-db, 9, 1, 2, 16, 57, 129, 135, 60, 60, 135, 3, 0.357383
50, 2, wb, attraction, a-b-db, 9, 2, 2, 17, 90, 165, 165, 90, 86, 157, 2, 3.50055
50, 2, wb, attraction, a-b-db, 9, 2, 2, 17, 90, 165, 165, 90, 86, 157, 3, 0.406898
50, 2, wb, attraction, a-b-da, 9, 3, 2, 18, 120, 195, 195, 120, 186, 114, 3, 4.13192
50, 2, wb, attraction, a-b-da, 9, 3, 2, 18, 120, 195, 195, 120, 186, 114, 1, 0.252625
50, 2, wb, attraction, a-b-db, 5, 1, 2, 19, 60, 135, 135, 60, 58, 132, 2, 2.03265
50, 2, wb, attraction, a-b-db, 5, 1, 2, 19, 60, 135, 135, 60, 58, 132, 3, 0.285824
50, 2, wb, attraction, a-b-db, 5, 3, 2, 20, 120, 195, 195, 120, 117, 190, 3, 2.72034
50, 2, wb, attraction, a-b-db, 5, 3, 2, 20, 120, 195, 195, 120, 117, 190, 2, 0.266181
50, 2, wb, attraction, a-b-da, 2, 2, 2, 21, 165, 90, 90, 165, 163, 89, 2, 2.22133
50, 2, wb, attraction, a-b-da, 2, 2, 2, 21, 165, 90, 90, 165, 163, 89, 3, 0.250574
50, 2, wb, attraction, a-b-db, 14, 3, 2, 22, 195, 120, 120, 195, 111, 181, 1, 16.0146
50, 2, wb, attraction, a-b-db, 14, 3, 2, 22, 195, 120, 120, 195, 111, 181, 2, 0.208164
50, 2, wb, attraction, a-b-db, 2, 1, 2, 23, 135, 60, 59, 134, 60, 135, 2, 6.86138
50, 2, wb, attraction, a-b-db, 2, 1, 2, 23, 135, 60, 59, 134, 60, 135, 1, 0.503861
50, 2, wb, attraction, a-b-db, 5, 2, 2, 24, 88, 161, 165, 90, 90, 165, 2, 1.40165
50, 2, wb, attraction, a-b-db, 5, 2, 2, 24, 88, 161, 165, 90, 90, 165, 1, 0.432452
50, 2, wb, attraction, a-b-da, 14, 3, 2, 25, 195, 120, 181, 111, 120, 195, 2, 1.54897
50, 2, wb, attraction, a-b-da, 14, 3, 2, 25, 195, 120, 181, 111, 120, 195, 3, 0.397865
50, 2, wb, catch, NA, 999, 999, 2, 26, 76, 119, 123, 192, 96, 159, 1, 0.923548
50, 2, wb, catch, NA, 999, 999, 2, 26, 76, 119, 123, 192, 96, 159, 2, 0.861381
50, 2, wb, attraction, a-b-da, 9, 2, 2, 27, 90, 165, 157, 86, 165, 90, 2, 2.95234
50, 2, wb, attraction, a-b-da, 9, 2, 2, 27, 90, 165, 157, 86, 165, 90, 1, 0.264665
50, 2, wb, attraction, a-b-da, 9, 1, 2, 28, 60, 135, 135, 60, 129, 57, 2, 4.66793
50, 2, wb, attraction, a-b-da, 9, 1, 2, 28, 60, 135, 135, 60, 129, 57, 1, 0.359063
50, 2, wb, filler, NA, 999, 999, 2, 29, 147, 146, 61, 133, 79, 195, 2, 2.02252
50, 2, wb, filler, NA, 999, 999, 2, 29, 147, 146, 61, 133, 79, 195, 1, 0.731681
50, 2, wb, filler, NA, 999, 999, 2, 30, 111, 181, 108, 134, 82, 58, 3, 0.875954
50, 2, wb, filler, NA, 999, 999, 2, 30, 111, 181, 108, 134, 82, 58, 1, 0.399621
50, 2, wb, filler, NA, 999, 999, 2, 31, 61, 146, 132, 151, 137, 164, 1, 1.11747
50, 2, wb, filler, NA, 999, 999, 2, 31, 61, 146, 132, 151, 137, 164, 3, 0.303745
50, 2, wb, attraction, a-b-db, 9, 3, 2, 32, 195, 120, 120, 195, 114, 186, 3, 2.52162
50, 2, wb, attraction, a-b-db, 9, 3, 2, 32, 195, 120, 120, 195, 114, 186, 1, 0.290738
50, 2, wb, filler, NA, 999, 999, 2, 33, 163, 100, 78, 192, 159, 87, 1, 2.1806
50, 2, wb, filler, NA, 999, 999, 2, 33, 163, 100, 78, 192, 159, 87, 2, 0.179833
50, 2, wb, filler, NA, 999, 999, 2, 34, 183, 62, 119, 191, 160, 184, 1, 1.93855
50, 2, wb, filler, NA, 999, 999, 2, 34, 183, 62, 119, 191, 160, 184, 3, 0.251142
50, 2, wb, filler, NA, 999, 999, 2, 35, 76, 126, 117, 123, 79, 79, 3, 1.44708
50, 2, wb, filler, NA, 999, 999, 2, 35, 76, 126, 117, 123, 79, 79, 2, 0.228044
50, 2, wb, attraction, a-b-da, 2, 1, 2, 36, 135, 60, 60, 135, 134, 59, 1, 4.40043
50, 2, wb, attraction, a-b-da, 2, 1, 2, 36, 135, 60, 60, 135, 134, 59, 2, 0.254368
50, 2, wb, attraction, a-b-db, 2, 2, 2, 37, 165, 90, 90, 165, 89, 163, 1, 4.09819
50, 2, wb, attraction, a-b-db, 2, 2, 2, 37, 165, 90, 90, 165, 89, 163, 3, 0.500266
50, 2, wb, attraction, a-b-db, 2, 3, 3, 1, 195, 120, 119, 193, 120, 195, 2, 1.32597
50, 2, wb, attraction, a-b-db, 2, 3, 3, 1, 195, 120, 119, 193, 120, 195, 1, 0.231739
50, 2, wb, attraction, a-b-da, 14, 2, 3, 2, 90, 165, 153, 83, 165, 90, 2, 1.94015
50, 2, wb, attraction, a-b-da, 14, 2, 3, 2, 90, 165, 153, 83, 165, 90, 3, 0.116915
50, 2, wb, attraction, a-b-db, 5, 1, 3, 3, 60, 135, 135, 60, 58, 132, 1, 1.47005
50, 2, wb, attraction, a-b-db, 5, 1, 3, 3, 60, 135, 135, 60, 58, 132, 2, 1.25835
50, 2, wb, attraction, a-b-db, 5, 2, 3, 4, 90, 165, 165, 90, 88, 161, 1, 0.892496
50, 2, wb, attraction, a-b-db, 5, 2, 3, 4, 90, 165, 165, 90, 88, 161, 2, 4.00745
50, 2, wb, attraction, a-b-db, 9, 2, 3, 5, 165, 90, 90, 165, 86, 157, 1, 2.74752
50, 2, wb, attraction, a-b-db, 9, 2, 3, 5, 165, 90, 90, 165, 86, 157, 2, 0.235893
50, 2, wb, catch, NA, 999, 999, 3, 6, 165, 90, 75, 120, 174, 141, 2, 1.4484
50, 2, wb, catch, NA, 999, 999, 3, 6, 165, 90, 75, 120, 174, 141, 3, 0.221437
50, 2, wb, filler, NA, 999, 999, 3, 7, 106, 160, 190, 88, 112, 191, 2, 7.25868
50, 2, wb, filler, NA, 999, 999, 3, 7, 106, 160, 190, 88, 112, 191, 3, 0.28502
50, 2, wb, attraction, a-b-da, 9, 1, 3, 8, 60, 135, 129, 57, 135, 60, 2, 1.88749
50, 2, wb, attraction, a-b-da, 9, 1, 3, 8, 60, 135, 129, 57, 135, 60, 3, 1.26616
50, 2, wb, attraction, a-b-db, 2, 2, 3, 9, 89, 163, 90, 165, 165, 90, 3, 3.94096
50, 2, wb, attraction, a-b-db, 2, 2, 3, 9, 89, 163, 90, 165, 165, 90, 1, 0.245037
50, 2, wb, attraction, a-b-da, 2, 2, 3, 10, 90, 165, 163, 89, 165, 90, 3, 2.78495
50, 2, wb, attraction, a-b-da, 2, 2, 3, 10, 90, 165, 163, 89, 165, 90, 1, 0.207985
50, 2, wb, attraction, a-b-da, 5, 2, 3, 11, 161, 88, 165, 90, 90, 165, 1, 1.5173
50, 2, wb, attraction, a-b-da, 5, 2, 3, 11, 161, 88, 165, 90, 90, 165, 3, 0.415462
50, 2, wb, attraction, a-b-db, 9, 1, 3, 12, 57, 129, 135, 60, 60, 135, 2, 3.57257
50, 2, wb, attraction, a-b-db, 9, 1, 3, 12, 57, 129, 135, 60, 60, 135, 1, 0.163359
50, 2, wb, attraction, a-b-db, 9, 3, 3, 13, 114, 186, 195, 120, 120, 195, 3, 3.0907
50, 2, wb, attraction, a-b-db, 9, 3, 3, 13, 114, 186, 195, 120, 120, 195, 2, 0.149049
50, 2, wb, filler, NA, 999, 999, 3, 14, 139, 84, 188, 187, 96, 64, 3, 1.30093
50, 2, wb, filler, NA, 999, 999, 3, 14, 139, 84, 188, 187, 96, 64, 2, 0.247876
50, 2, wb, filler, NA, 999, 999, 3, 15, 104, 157, 190, 171, 88, 87, 3, 0.867762
50, 2, wb, filler, NA, 999, 999, 3, 15, 104, 157, 190, 171, 88, 87, 2, 0.232189
50, 2, wb, attraction, a-b-db, 14, 3, 3, 16, 120, 195, 195, 120, 111, 181, 2, 2.90868
50, 2, wb, attraction, a-b-db, 14, 3, 3, 16, 120, 195, 195, 120, 111, 181, 3, 0.150445
50, 2, wb, attraction, a-b-da, 5, 3, 3, 17, 120, 195, 195, 120, 190, 117, 2, 1.53412
50, 2, wb, attraction, a-b-da, 5, 3, 3, 17, 120, 195, 195, 120, 190, 117, 1, 0.135651
50, 2, wb, attraction, a-b-da, 2, 1, 3, 18, 60, 135, 134, 59, 135, 60, 1, 1.87229
50, 2, wb, attraction, a-b-da, 2, 1, 3, 18, 60, 135, 134, 59, 135, 60, 3, 0.662568
50, 2, wb, filler, NA, 999, 999, 3, 19, 104, 103, 178, 58, 86, 111, 1, 2.58272
50, 2, wb, filler, NA, 999, 999, 3, 19, 104, 103, 178, 58, 86, 111, 3, 0.258312
50, 2, wb, attraction, a-b-db, 5, 3, 3, 20, 117, 190, 120, 195, 195, 120, 3, 2.89709
50, 2, wb, attraction, a-b-db, 5, 3, 3, 20, 117, 190, 120, 195, 195, 120, 2, 0.155482
50, 2, wb, attraction, a-b-da, 5, 1, 3, 21, 135, 60, 60, 135, 132, 58, 2, 3.4834
50, 2, wb, attraction, a-b-da, 5, 1, 3, 21, 135, 60, 60, 135, 132, 58, 1, 0.414235
50, 2, wb, attraction, a-b-db, 14, 1, 3, 22, 135, 60, 56, 125, 60, 135, 1, 1.61138
50, 2, wb, attraction, a-b-db, 14, 1, 3, 22, 135, 60, 56, 125, 60, 135, 2, 0.513536
50, 2, wb, filler, NA, 999, 999, 3, 23, 120, 144, 185, 188, 122, 169, 1, 1.39467
50, 2, wb, filler, NA, 999, 999, 3, 23, 120, 144, 185, 188, 122, 169, 2, 0.345524
50, 2, wb, attraction, a-b-da, 14, 3, 3, 24, 195, 120, 181, 111, 120, 195, 3, 1.60937
50, 2, wb, attraction, a-b-da, 14, 3, 3, 24, 195, 120, 181, 111, 120, 195, 1, 0.319458
50, 2, wb, attraction, a-b-db, 2, 1, 3, 25, 59, 134, 135, 60, 60, 135, 2, 7.41669
50, 2, wb, attraction, a-b-db, 2, 1, 3, 25, 59, 134, 135, 60, 60, 135, 3, 0.484936
50, 2, wb, attraction, a-b-da, 9, 3, 3, 26, 120, 195, 195, 120, 186, 114, 3, 2.86342
50, 2, wb, attraction, a-b-da, 9, 3, 3, 26, 120, 195, 195, 120, 186, 114, 1, 0.187164
50, 2, wb, attraction, a-b-da, 2, 3, 3, 27, 120, 195, 195, 120, 193, 119, 3, 1.9218
50, 2, wb, attraction, a-b-da, 2, 3, 3, 27, 120, 195, 195, 120, 193, 119, 1, 0.179121
50, 2, wb, attraction, a-b-db, 14, 2, 3, 28, 165, 90, 83, 153, 90, 165, 1, 2.06562
50, 2, wb, attraction, a-b-db, 14, 2, 3, 28, 165, 90, 83, 153, 90, 165, 3, 0.269643
50, 2, wb, filler, NA, 999, 999, 3, 29, 142, 119, 87, 178, 129, 148, 2, 1.52081
50, 2, wb, filler, NA, 999, 999, 3, 29, 142, 119, 87, 178, 129, 148, 1, 0.786275
50, 2, wb, catch, NA, 999, 999, 3, 30, 159, 96, 158, 157, 99, 96, 3, 1.24552
50, 2, wb, catch, NA, 999, 999, 3, 30, 159, 96, 158, 157, 99, 96, 2, 0.461582
50, 2, wb, filler, NA, 999, 999, 3, 31, 177, 136, 67, 92, 114, 84, 2, 0.640721
50, 2, wb, filler, NA, 999, 999, 3, 31, 177, 136, 67, 92, 114, 84, 1, 0.301829
50, 2, wb, filler, NA, 999, 999, 3, 32, 127, 166, 167, 195, 177, 128, 1, 1.50371
50, 2, wb, filler, NA, 999, 999, 3, 32, 127, 166, 167, 195, 177, 128, 2, 0.842587
50, 2, wb, attraction, a-b-da, 9, 2, 3, 33, 165, 90, 90, 165, 157, 86, 2, 2.3103
50, 2, wb, attraction, a-b-da, 9, 2, 3, 33, 165, 90, 90, 165, 157, 86, 3, 0.624138
50, 2, wb, catch, NA, 999, 999, 3, 34, 129, 126, 181, 134, 121, 74, 3, 1.36468
50, 2, wb, catch, NA, 999, 999, 3, 34, 129, 126, 181, 134, 121, 74, 2, 0.524778
50, 2, wb, filler, NA, 999, 999, 3, 35, 102, 72, 145, 153, 121, 72, 1, 0.757268
50, 2, wb, filler, NA, 999, 999, 3, 35, 102, 72, 145, 153, 121, 72, 2, 0.477579
50, 2, wb, filler, NA, 999, 999, 3, 36, 97, 96, 138, 168, 117, 186, 1, 0.928085
50, 2, wb, filler, NA, 999, 999, 3, 36, 97, 96, 138, 168, 117, 186, 3, 0.329802
50, 2, wb, attraction, a-b-da, 14, 1, 3, 37, 125, 56, 60, 135, 135, 60, 2, 0.922317
50, 2, wb, attraction, a-b-da, 14, 1, 3, 37, 125, 56, 60, 135, 135, 60, 1, 0.347942
50, 2, wb, catch, NA, 999, 999, 4, 1, 130, 185, 89, 106, 132, 123, 2, 2.0117
50, 2, wb, catch, NA, 999, 999, 4, 1, 130, 185, 89, 106, 132, 123, 1, 0.225737
50, 2, wb, filler, NA, 999, 999, 4, 2, 81, 100, 125, 118, 132, 64, 1, 1.12634
50, 2, wb, filler, NA, 999, 999, 4, 2, 81, 100, 125, 118, 132, 64, 2, 0.327922
50, 2, wb, attraction, a-b-db, 5, 1, 4, 3, 60, 135, 58, 132, 135, 60, 2, 2.76054
50, 2, wb, attraction, a-b-db, 5, 1, 4, 3, 60, 135, 58, 132, 135, 60, 3, 0.264452
50, 2, wb, attraction, a-b-da, 2, 3, 4, 4, 195, 120, 120, 195, 193, 119, 2, 3.57138
50, 2, wb, attraction, a-b-da, 2, 3, 4, 4, 195, 120, 120, 195, 193, 119, 3, 0.282954
50, 2, wb, attraction, a-b-da, 9, 2, 4, 5, 90, 165, 157, 86, 165, 90, 1, 1.60544
50, 2, wb, attraction, a-b-da, 9, 2, 4, 5, 90, 165, 157, 86, 165, 90, 2, 0.243791
50, 2, wb, attraction, a-b-db, 9, 3, 4, 6, 120, 195, 114, 186, 195, 120, 2, 3.03944
50, 2, wb, attraction, a-b-db, 9, 3, 4, 6, 120, 195, 114, 186, 195, 120, 3, 0.275845
50, 2, wb, attraction, a-b-db, 9, 1, 4, 7, 57, 129, 60, 135, 135, 60, 2, 1.1663
50, 2, wb, attraction, a-b-db, 9, 1, 4, 7, 57, 129, 60, 135, 135, 60, 3, 0.822663
50, 2, wb, filler, NA, 999, 999, 4, 8, 96, 155, 194, 146, 118, 147, 1, 1.09967
50, 2, wb, filler, NA, 999, 999, 4, 8, 96, 155, 194, 146, 118, 147, 2, 0.286611
50, 2, wb, attraction, a-b-da, 9, 1, 4, 9, 135, 60, 129, 57, 60, 135, 3, 2.48912
50, 2, wb, attraction, a-b-da, 9, 1, 4, 9, 135, 60, 129, 57, 60, 135, 1, 0.211592
50, 2, wb, attraction, a-b-da, 5, 1, 4, 10, 135, 60, 60, 135, 132, 58, 2, 2.75282
50, 2, wb, attraction, a-b-da, 5, 1, 4, 10, 135, 60, 60, 135, 132, 58, 3, 0.353309
50, 2, wb, filler, NA, 999, 999, 4, 11, 161, 170, 101, 117, 112, 151, 2, 1.60919
50, 2, wb, filler, NA, 999, 999, 4, 11, 161, 170, 101, 117, 112, 151, 1, 0.207258
50, 2, wb, attraction, a-b-db, 2, 2, 4, 12, 89, 163, 90, 165, 165, 90, 2, 1.54853
50, 2, wb, attraction, a-b-db, 2, 2, 4, 12, 89, 163, 90, 165, 165, 90, 3, 0.301336
50, 2, wb, attraction, a-b-db, 9, 2, 4, 13, 165, 90, 90, 165, 86, 157, 2, 1.6313
50, 2, wb, attraction, a-b-db, 9, 2, 4, 13, 165, 90, 90, 165, 86, 157, 1, 0.268597
50, 2, wb, filler, NA, 999, 999, 4, 14, 194, 167, 120, 105, 194, 144, 2, 1.70394
50, 2, wb, filler, NA, 999, 999, 4, 14, 194, 167, 120, 105, 194, 144, 1, 0.314578
50, 2, wb, catch, NA, 999, 999, 4, 15, 170, 145, 112, 83, 156, 99, 2, 0.843737
50, 2, wb, catch, NA, 999, 999, 4, 15, 170, 145, 112, 83, 156, 99, 1, 0.240948
50, 2, wb, attraction, a-b-da, 14, 1, 4, 16, 60, 135, 135, 60, 125, 56, 2, 12.4847
50, 2, wb, attraction, a-b-da, 14, 1, 4, 16, 60, 135, 135, 60, 125, 56, 3, 0.652796
50, 2, wb, attraction, a-b-da, 14, 2, 4, 17, 153, 83, 165, 90, 90, 165, 2, 2.68856
50, 2, wb, attraction, a-b-da, 14, 2, 4, 17, 153, 83, 165, 90, 90, 165, 3, 0.523043
50, 2, wb, filler, NA, 999, 999, 4, 18, 187, 184, 87, 120, 132, 103, 2, 1.95546
50, 2, wb, filler, NA, 999, 999, 4, 18, 187, 184, 87, 120, 132, 103, 1, 0.507399
50, 2, wb, filler, NA, 999, 999, 4, 19, 85, 65, 66, 123, 78, 93, 1, 3.78052
50, 2, wb, filler, NA, 999, 999, 4, 19, 85, 65, 66, 123, 78, 93, 3, 0.667368
50, 2, wb, attraction, a-b-da, 9, 3, 4, 20, 195, 120, 186, 114, 120, 195, 1, 1.6016
50, 2, wb, attraction, a-b-da, 9, 3, 4, 20, 195, 120, 186, 114, 120, 195, 3, 0.1892
50, 2, wb, filler, NA, 999, 999, 4, 21, 66, 75, 184, 180, 174, 76, 1, 1.40364
50, 2, wb, filler, NA, 999, 999, 4, 21, 66, 75, 184, 180, 174, 76, 2, 0.234677
50, 2, wb, attraction, a-b-da, 2, 2, 4, 22, 165, 90, 163, 89, 90, 165, 3, 1.27121
50, 2, wb, attraction, a-b-da, 2, 2, 4, 22, 165, 90, 163, 89, 90, 165, 1, 0.394709
50, 2, wb, attraction, a-b-da, 5, 3, 4, 23, 190, 117, 120, 195, 195, 120, 2, 1.78453
50, 2, wb, attraction, a-b-da, 5, 3, 4, 23, 190, 117, 120, 195, 195, 120, 3, 0.255926
50, 2, wb, attraction, a-b-da, 2, 1, 4, 24, 134, 59, 60, 135, 135, 60, 1, 4.40387
50, 2, wb, attraction, a-b-da, 2, 1, 4, 24, 134, 59, 60, 135, 135, 60, 2, 0.673792
50, 2, wb, filler, NA, 999, 999, 4, 25, 106, 60, 99, 178, 66, 60, 3, 1.22019
50, 2, wb, filler, NA, 999, 999, 4, 25, 106, 60, 99, 178, 66, 60, 2, 0.314389
50, 2, wb, filler, NA, 999, 999, 4, 26, 192, 129, 85, 118, 97, 80, 2, 1.2117
50, 2, wb, filler, NA, 999, 999, 4, 26, 192, 129, 85, 118, 97, 80, 1, 0.393844
50, 2, wb, attraction, a-b-db, 2, 3, 4, 27, 119, 193, 120, 195, 195, 120, 2, 7.12767
50, 2, wb, attraction, a-b-db, 2, 3, 4, 27, 119, 193, 120, 195, 195, 120, 3, 0.583404
50, 2, wb, catch, NA, 999, 999, 4, 28, 170, 145, 121, 74, 114, 141, 3, 4.33382
50, 2, wb, catch, NA, 999, 999, 4, 28, 170, 145, 121, 74, 114, 141, 1, 0.238442
50, 2, wb, attraction, a-b-db, 2, 1, 4, 29, 135, 60, 60, 135, 59, 134, 2, 2.41104
50, 2, wb, attraction, a-b-db, 2, 1, 4, 29, 135, 60, 60, 135, 59, 134, 1, 0.233036
50, 2, wb, attraction, a-b-db, 5, 2, 4, 30, 165, 90, 90, 165, 88, 161, 1, 3.27747
50, 2, wb, attraction, a-b-db, 5, 2, 4, 30, 165, 90, 90, 165, 88, 161, 2, 0.17636
50, 2, wb, attraction, a-b-db, 14, 2, 4, 31, 83, 153, 90, 165, 165, 90, 2, 4.52687
50, 2, wb, attraction, a-b-db, 14, 2, 4, 31, 83, 153, 90, 165, 165, 90, 3, 0.415425
50, 2, wb, attraction, a-b-da, 14, 3, 4, 32, 181, 111, 195, 120, 120, 195, 3, 2.38867
50, 2, wb, attraction, a-b-da, 14, 3, 4, 32, 181, 111, 195, 120, 120, 195, 2, 0.195345
50, 2, wb, attraction, a-b-db, 5, 3, 4, 33, 117, 190, 195, 120, 120, 195, 3, 9.31699
50, 2, wb, attraction, a-b-db, 5, 3, 4, 33, 117, 190, 195, 120, 120, 195, 2, 1.05626
50, 2, wb, attraction, a-b-da, 5, 2, 4, 34, 90, 165, 165, 90, 161, 88, 1, 2.57912
50, 2, wb, attraction, a-b-da, 5, 2, 4, 34, 90, 165, 165, 90, 161, 88, 2, 0.618197
50, 2, wb, attraction, a-b-db, 14, 1, 4, 35, 60, 135, 135, 60, 56, 125, 2, 3.16734
50, 2, wb, attraction, a-b-db, 14, 1, 4, 35, 60, 135, 135, 60, 56, 125, 1, 0.358991
50, 2, wb, attraction, a-b-db, 14, 3, 4, 36, 111, 181, 120, 195, 195, 120, 3, 2.95814
50, 2, wb, attraction, a-b-db, 14, 3, 4, 36, 111, 181, 120, 195, 195, 120, 2, 0.173804
50, 2, wb, filler, NA, 999, 999, 4, 37, 115, 97, 182, 134, 106, 56, 3, 1.88443
50, 2, wb, filler, NA, 999, 999, 4, 37, 115, 97, 182, 134, 106, 56, 2, 0.239738
50, 2, wb, attraction, a-b-db, 9, 1, 5, 1, 57, 129, 135, 60, 60, 135, 2, 7.63429
50, 2, wb, attraction, a-b-db, 9, 1, 5, 1, 57, 129, 135, 60, 60, 135, 3, 0.773842
50, 2, wb, attraction, a-b-da, 5, 2, 5, 2, 165, 90, 90, 165, 161, 88, 2, 2.98824
50, 2, wb, attraction, a-b-da, 5, 2, 5, 2, 165, 90, 90, 165, 161, 88, 1, 0.658596
50, 2, wb, attraction, a-b-db, 5, 2, 5, 3, 165, 90, 88, 161, 90, 165, 2, 1.35759
50, 2, wb, attraction, a-b-db, 5, 2, 5, 3, 165, 90, 88, 161, 90, 165, 1, 0.173875
50, 2, wb, attraction, a-b-da, 14, 3, 5, 4, 195, 120, 181, 111, 120, 195, 2, 3.70842
50, 2, wb, attraction, a-b-da, 14, 3, 5, 4, 195, 120, 181, 111, 120, 195, 3, 0.341852
50, 2, wb, attraction, a-b-db, 2, 2, 5, 5, 90, 165, 165, 90, 89, 163, 2, 1.10176
50, 2, wb, attraction, a-b-db, 2, 2, 5, 5, 90, 165, 165, 90, 89, 163, 3, 0.440644
50, 2, wb, attraction, a-b-db, 9, 3, 5, 6, 114, 186, 195, 120, 120, 195, 2, 1.50045
50, 2, wb, attraction, a-b-db, 9, 3, 5, 6, 114, 186, 195, 120, 120, 195, 3, 0.28726
50, 2, wb, attraction, a-b-db, 2, 3, 5, 7, 195, 120, 119, 193, 120, 195, 1, 1.51389
50, 2, wb, attraction, a-b-db, 2, 3, 5, 7, 195, 120, 119, 193, 120, 195, 2, 0.172057
50, 2, wb, filler, NA, 999, 999, 5, 8, 130, 138, 125, 184, 173, 92, 3, 1.8114
50, 2, wb, filler, NA, 999, 999, 5, 8, 130, 138, 125, 184, 173, 92, 2, 0.257351
50, 2, wb, attraction, a-b-da, 2, 3, 5, 9, 195, 120, 193, 119, 120, 195, 2, 1.76455
50, 2, wb, attraction, a-b-da, 2, 3, 5, 9, 195, 120, 193, 119, 120, 195, 3, 0.212667
50, 2, wb, catch, NA, 999, 999, 5, 10, 124, 71, 144, 171, 109, 146, 2, 2.72184
50, 2, wb, catch, NA, 999, 999, 5, 10, 124, 71, 144, 171, 109, 146, 1, 0.602873
50, 2, wb, attraction, a-b-da, 2, 2, 5, 11, 90, 165, 163, 89, 165, 90, 1, 2.43273
50, 2, wb, attraction, a-b-da, 2, 2, 5, 11, 90, 165, 163, 89, 165, 90, 2, 0.55786
50, 2, wb, attraction, a-b-da, 9, 2, 5, 12, 90, 165, 157, 86, 165, 90, 1, 1.64514
50, 2, wb, attraction, a-b-da, 9, 2, 5, 12, 90, 165, 157, 86, 165, 90, 3, 0.2498
50, 2, wb, attraction, a-b-da, 14, 2, 5, 13, 165, 90, 90, 165, 153, 83, 2, 1.22168
50, 2, wb, attraction, a-b-da, 14, 2, 5, 13, 165, 90, 90, 165, 153, 83, 1, 0.427372
50, 2, wb, attraction, a-b-db, 14, 2, 5, 14, 90, 165, 83, 153, 165, 90, 2, 0.679775
50, 2, wb, attraction, a-b-db, 14, 2, 5, 14, 90, 165, 83, 153, 165, 90, 3, 0.187436
50, 2, wb, filler, NA, 999, 999, 5, 15, 102, 180, 136, 93, 122, 106, 2, 1.61802
50, 2, wb, filler, NA, 999, 999, 5, 15, 102, 180, 136, 93, 122, 106, 1, 0.44012
50, 2, wb, filler, NA, 999, 999, 5, 16, 116, 183, 85, 107, 163, 72, 3, 1.764
50, 2, wb, filler, NA, 999, 999, 5, 16, 116, 183, 85, 107, 163, 72, 1, 0.228058
50, 2, wb, attraction, a-b-db, 14, 1, 5, 17, 60, 135, 135, 60, 56, 125, 2, 1.01662
50, 2, wb, attraction, a-b-db, 14, 1, 5, 17, 60, 135, 135, 60, 56, 125, 3, 0.294924
50, 2, wb, attraction, a-b-da, 9, 1, 5, 18, 129, 57, 135, 60, 60, 135, 1, 3.08085
50, 2, wb, attraction, a-b-da, 9, 1, 5, 18, 129, 57, 135, 60, 60, 135, 3, 0.211793
50, 2, wb, filler, NA, 999, 999, 5, 19, 147, 175, 143, 173, 66, 191, 3, 1.81703
50, 2, wb, filler, NA, 999, 999, 5, 19, 147, 175, 143, 173, 66, 191, 2, 0.175062
50, 2, wb, filler, NA, 999, 999, 5, 20, 159, 93, 129, 86, 114, 112, 2, 1.69358
50, 2, wb, filler, NA, 999, 999, 5, 20, 159, 93, 129, 86, 114, 112, 1, 0.35239
50, 2, wb, attraction, a-b-db, 2, 1, 5, 21, 60, 135, 135, 60, 59, 134, 3, 2.01621
50, 2, wb, attraction, a-b-db, 2, 1, 5, 21, 60, 135, 135, 60, 59, 134, 2, 0.166291
50, 2, wb, catch, NA, 999, 999, 5, 22, 115, 80, 186, 129, 160, 95, 2, 1.57354
50, 2, wb, catch, NA, 999, 999, 5, 22, 115, 80, 186, 129, 160, 95, 3, 3.19051
50, 2, wb, attraction, a-b-da, 5, 3, 5, 23, 120, 195, 190, 117, 195, 120, 2, 2.13779
50, 2, wb, attraction, a-b-da, 5, 3, 5, 23, 120, 195, 190, 117, 195, 120, 3, 0.213861
50, 2, wb, filler, NA, 999, 999, 5, 24, 76, 68, 93, 70, 193, 85, 1, 3.04039
50, 2, wb, filler, NA, 999, 999, 5, 24, 76, 68, 93, 70, 193, 85, 3, 0.12606
50, 2, wb, attraction, a-b-db, 5, 1, 5, 25, 135, 60, 60, 135, 58, 132, 2, 1.6613
50, 2, wb, attraction, a-b-db, 5, 1, 5, 25, 135, 60, 60, 135, 58, 132, 1, 0.216858
50, 2, wb, attraction, a-b-da, 2, 1, 5, 26, 134, 59, 60, 135, 135, 60, 2, 5.41461
50, 2, wb, attraction, a-b-da, 2, 1, 5, 26, 134, 59, 60, 135, 135, 60, 3, 0.427561
50, 2, wb, attraction, a-b-db, 5, 3, 5, 27, 195, 120, 120, 195, 117, 190, 2, 1.7921
50, 2, wb, attraction, a-b-db, 5, 3, 5, 27, 195, 120, 120, 195, 117, 190, 1, 0.246798
50, 2, wb, filler, NA, 999, 999, 5, 28, 103, 107, 187, 60, 120, 112, 1, 3.61859
50, 2, wb, filler, NA, 999, 999, 5, 28, 103, 107, 187, 60, 120, 112, 2, 0.248261
50, 2, wb, attraction, a-b-db, 9, 2, 5, 29, 165, 90, 90, 165, 86, 157, 2, 4.33202
50, 2, wb, attraction, a-b-db, 9, 2, 5, 29, 165, 90, 90, 165, 86, 157, 1, 0.26863
50, 2, wb, attraction, a-b-da, 5, 1, 5, 30, 132, 58, 60, 135, 135, 60, 2, 0.599848
50, 2, wb, attraction, a-b-da, 5, 1, 5, 30, 132, 58, 60, 135, 135, 60, 1, 0.263066
50, 2, wb, attraction, a-b-da, 14, 1, 5, 31, 60, 135, 135, 60, 125, 56, 3, 1.17016
50, 2, wb, attraction, a-b-da, 14, 1, 5, 31, 60, 135, 135, 60, 125, 56, 2, 0.473976
50, 2, wb, attraction, a-b-db, 14, 3, 5, 32, 120, 195, 195, 120, 111, 181, 2, 0.612391
50, 2, wb, attraction, a-b-db, 14, 3, 5, 32, 120, 195, 195, 120, 111, 181, 3, 0.25864
50, 2, wb, attraction, a-b-da, 9, 3, 5, 33, 186, 114, 120, 195, 195, 120, 2, 0.549864
50, 2, wb, attraction, a-b-da, 9, 3, 5, 33, 186, 114, 120, 195, 195, 120, 1, 0.247022
50, 2, wb, filler, NA, 999, 999, 5, 34, 129, 56, 183, 186, 84, 134, 1, 3.42682
50, 2, wb, filler, NA, 999, 999, 5, 34, 129, 56, 183, 186, 84, 134, 2, 0.15175
50, 2, wb, filler, NA, 999, 999, 5, 35, 138, 180, 89, 143, 57, 75, 3, 1.20767
50, 2, wb, filler, NA, 999, 999, 5, 35, 138, 180, 89, 143, 57, 75, 1, 0.149929
50, 2, wb, filler, NA, 999, 999, 5, 36, 96, 164, 127, 177, 136, 81, 1, 7.00579
50, 2, wb, filler, NA, 999, 999, 5, 36, 96, 164, 127, 177, 136, 81, 2, 0.170303
50, 2, wb, catch, NA, 999, 999, 5, 37, 170, 145, 96, 99, 153, 102, 2, 1.1695
50, 2, wb, catch, NA, 999, 999, 5, 37, 170, 145, 96, 99, 153, 102, 1, 0.553766
50, 2, wb, attraction, a-b-da, 14, 2, 6, 1, 90, 165, 153, 83, 165, 90, 2, 0.945494
50, 2, wb, attraction, a-b-da, 14, 2, 6, 1, 90, 165, 153, 83, 165, 90, 3, 0.234632
50, 2, wb, attraction, a-b-db, 5, 1, 6, 2, 58, 132, 135, 60, 60, 135, 2, 4.59107
50, 2, wb, attraction, a-b-db, 5, 1, 6, 2, 58, 132, 135, 60, 60, 135, 1, 0.063055
50, 2, wb, attraction, a-b-db, 14, 3, 6, 3, 195, 120, 111, 181, 120, 195, 1, 1.72031
50, 2, wb, attraction, a-b-db, 14, 3, 6, 3, 195, 120, 111, 181, 120, 195, 2, 0.393689
50, 2, wb, filler, NA, 999, 999, 6, 4, 78, 121, 183, 174, 73, 192, 1, 1.67157
50, 2, wb, filler, NA, 999, 999, 6, 4, 78, 121, 183, 174, 73, 192, 2, 0.210872
50, 2, wb, catch, NA, 999, 999, 6, 5, 152, 163, 91, 104, 159, 96, 2, 0.832115
50, 2, wb, catch, NA, 999, 999, 6, 5, 152, 163, 91, 104, 159, 96, 1, 0.459682
50, 2, wb, filler, NA, 999, 999, 6, 6, 157, 115, 96, 143, 128, 120, 2, 1.18494
50, 2, wb, filler, NA, 999, 999, 6, 6, 157, 115, 96, 143, 128, 120, 1, 0.592556
50, 2, wb, attraction, a-b-da, 14, 1, 6, 7, 60, 135, 135, 60, 125, 56, 2, 2.97426
50, 2, wb, attraction, a-b-da, 14, 1, 6, 7, 60, 135, 135, 60, 125, 56, 3, 0.837404
50, 2, wb, attraction, a-b-db, 2, 1, 6, 8, 60, 135, 59, 134, 135, 60, 2, 3.77773
50, 2, wb, attraction, a-b-db, 2, 1, 6, 8, 60, 135, 59, 134, 135, 60, 1, 0.155039
50, 2, wb, attraction, a-b-da, 2, 1, 6, 9, 135, 60, 134, 59, 60, 135, 1, 2.35241
50, 2, wb, attraction, a-b-da, 2, 1, 6, 9, 135, 60, 134, 59, 60, 135, 2, 0.120832
50, 2, wb, attraction, a-b-da, 9, 2, 6, 10, 157, 86, 90, 165, 165, 90, 2, 1.86627
50, 2, wb, attraction, a-b-da, 9, 2, 6, 10, 157, 86, 90, 165, 165, 90, 3, 0.131542
50, 2, wb, attraction, a-b-db, 2, 2, 6, 11, 165, 90, 89, 163, 90, 165, 1, 4.95749
50, 2, wb, attraction, a-b-db, 2, 2, 6, 11, 165, 90, 89, 163, 90, 165, 2, 0.415292
50, 2, wb, attraction, a-b-db, 9, 3, 6, 12, 195, 120, 114, 186, 120, 195, 2, 1.73919
50, 2, wb, attraction, a-b-db, 9, 3, 6, 12, 195, 120, 114, 186, 120, 195, 1, 0.73258
50, 2, wb, attraction, a-b-db, 2, 3, 6, 13, 195, 120, 120, 195, 119, 193, 3, 1.42014
50, 2, wb, attraction, a-b-db, 2, 3, 6, 13, 195, 120, 120, 195, 119, 193, 1, 0.138245
50, 2, wb, attraction, a-b-da, 5, 1, 6, 14, 135, 60, 60, 135, 132, 58, 2, 0.850909
50, 2, wb, attraction, a-b-da, 5, 1, 6, 14, 135, 60, 60, 135, 132, 58, 1, 0.475752
50, 2, wb, filler, NA, 999, 999, 6, 15, 157, 125, 195, 67, 164, 110, 2, 2.21045
50, 2, wb, filler, NA, 999, 999, 6, 15, 157, 125, 195, 67, 164, 110, 1, 0.133705
50, 2, wb, attraction, a-b-db, 14, 2, 6, 16, 90, 165, 83, 153, 165, 90, 3, 1.12901
50, 2, wb, attraction, a-b-db, 14, 2, 6, 16, 90, 165, 83, 153, 165, 90, 1, 0.135363
50, 2, wb, attraction, a-b-da, 9, 1, 6, 17, 135, 60, 129, 57, 60, 135, 3, 1.86716
50, 2, wb, attraction, a-b-da, 9, 1, 6, 17, 135, 60, 129, 57, 60, 135, 2, 2.32835
50, 2, wb, filler, NA, 999, 999, 6, 18, 183, 107, 167, 97, 151, 100, 3, 6.03113
50, 2, wb, filler, NA, 999, 999, 6, 18, 183, 107, 167, 97, 151, 100, 1, 0.115457
50, 2, wb, catch, NA, 999, 999, 6, 19, 138, 177, 154, 101, 127, 68, 3, 1.51652
50, 2, wb, catch, NA, 999, 999, 6, 19, 138, 177, 154, 101, 127, 68, 1, 0.121535
50, 2, wb, attraction, a-b-da, 5, 2, 6, 20, 161, 88, 90, 165, 165, 90, 2, 1.53594
50, 2, wb, attraction, a-b-da, 5, 2, 6, 20, 161, 88, 90, 165, 165, 90, 3, 0.290016
50, 2, wb, filler, NA, 999, 999, 6, 21, 69, 103, 133, 71, 72, 158, 1, 1.4512
50, 2, wb, filler, NA, 999, 999, 6, 21, 69, 103, 133, 71, 72, 158, 3, 0.864124
50, 2, wb, attraction, a-b-da, 14, 3, 6, 22, 195, 120, 120, 195, 181, 111, 3, 2.31495
50, 2, wb, attraction, a-b-da, 14, 3, 6, 22, 195, 120, 120, 195, 181, 111, 1, 0.196956
50, 2, wb, attraction, a-b-da, 2, 3, 6, 23, 195, 120, 120, 195, 193, 119, 3, 1.34686
50, 2, wb, attraction, a-b-da, 2, 3, 6, 23, 195, 120, 120, 195, 193, 119, 1, 0.243682
50, 2, wb, attraction, a-b-da, 2, 2, 6, 24, 163, 89, 165, 90, 90, 165, 3, 0.927639
50, 2, wb, attraction, a-b-da, 2, 2, 6, 24, 163, 89, 165, 90, 90, 165, 1, 0.641411
50, 2, wb, attraction, a-b-db, 14, 1, 6, 25, 135, 60, 56, 125, 60, 135, 3, 1.8851
50, 2, wb, attraction, a-b-db, 14, 1, 6, 25, 135, 60, 56, 125, 60, 135, 1, 0.744428
50, 2, wb, catch, NA, 999, 999, 6, 26, 164, 91, 147, 168, 69, 126, 3, 0.608091
50, 2, wb, catch, NA, 999, 999, 6, 26, 164, 91, 147, 168, 69, 126, 1, 0.286533
50, 2, wb, attraction, a-b-db, 5, 3, 6, 27, 117, 190, 195, 120, 120, 195, 1, 2.00104
50, 2, wb, attraction, a-b-db, 5, 3, 6, 27, 117, 190, 195, 120, 120, 195, 2, 0.223916
50, 2, wb, attraction, a-b-db, 9, 1, 6, 28, 135, 60, 60, 135, 57, 129, 3, 1.63635
50, 2, wb, attraction, a-b-db, 9, 1, 6, 28, 135, 60, 60, 135, 57, 129, 1, 0.649835
50, 2, wb, filler, NA, 999, 999, 6, 29, 162, 132, 144, 157, 178, 93, 3, 5.84569
50, 2, wb, filler, NA, 999, 999, 6, 29, 162, 132, 144, 157, 178, 93, 2, 0.130596
50, 2, wb, attraction, a-b-da, 5, 3, 6, 30, 120, 195, 190, 117, 195, 120, 3, 3.80952
50, 2, wb, attraction, a-b-da, 5, 3, 6, 30, 120, 195, 190, 117, 195, 120, 2, 0.231015
50, 2, wb, filler, NA, 999, 999, 6, 31, 147, 180, 155, 140, 149, 158, 2, 2.11558
50, 2, wb, filler, NA, 999, 999, 6, 31, 147, 180, 155, 140, 149, 158, 1, 0.301653
50, 2, wb, attraction, a-b-db, 5, 2, 6, 32, 165, 90, 88, 161, 90, 165, 3, 1.21551
50, 2, wb, attraction, a-b-db, 5, 2, 6, 32, 165, 90, 88, 161, 90, 165, 1, 0.189637
50, 2, wb, filler, NA, 999, 999, 6, 33, 121, 141, 124, 76, 60, 101, 3, 0.955526
50, 2, wb, filler, NA, 999, 999, 6, 33, 121, 141, 124, 76, 60, 101, 1, 0.235905
50, 2, wb, attraction, a-b-db, 9, 2, 6, 34, 86, 157, 90, 165, 165, 90, 3, 1.41647
50, 2, wb, attraction, a-b-db, 9, 2, 6, 34, 86, 157, 90, 165, 165, 90, 2, 0.222615
50, 2, wb, filler, NA, 999, 999, 6, 35, 173, 92, 86, 107, 70, 180, 2, 0.979133
50, 2, wb, filler, NA, 999, 999, 6, 35, 173, 92, 86, 107, 70, 180, 1, 0.290808
50, 2, wb, filler, NA, 999, 999, 6, 36, 105, 62, 79, 68, 151, 108, 2, 0.972668
50, 2, wb, filler, NA, 999, 999, 6, 36, 105, 62, 79, 68, 151, 108, 3, 0.180266
50, 2, wb, attraction, a-b-da, 9, 3, 6, 37, 186, 114, 120, 195, 195, 120, 2, 1.4158
50, 2, wb, attraction, a-b-da, 9, 3, 6, 37, 186, 114, 120, 195, 195, 120, 3, 0.537011
50, 2, wb, filler, NA, 999, 999, 7, 1, 114, 118, 86, 56, 77, 99, 2, 4.39352
50, 2, wb, filler, NA, 999, 999, 7, 1, 114, 118, 86, 56, 77, 99, 1, 0.271418
50, 2, wb, filler, NA, 999, 999, 7, 2, 185, 66, 102, 108, 169, 81, 1, 1.68256
50, 2, wb, filler, NA, 999, 999, 7, 2, 185, 66, 102, 108, 169, 81, 2, 0.206007
50, 2, wb, filler, NA, 999, 999, 7, 3, 98, 169, 100, 116, 138, 80, 3, 2.55603
50, 2, wb, filler, NA, 999, 999, 7, 3, 98, 169, 100, 116, 138, 80, 1, 0.2278
50, 2, wb, attraction, a-b-da, 5, 2, 7, 4, 161, 88, 90, 165, 165, 90, 3, 2.54654
50, 2, wb, attraction, a-b-da, 5, 2, 7, 4, 161, 88, 90, 165, 165, 90, 2, 0.393938
50, 2, wb, attraction, a-b-db, 5, 2, 7, 5, 88, 161, 90, 165, 165, 90, 3, 3.80662
50, 2, wb, attraction, a-b-db, 5, 2, 7, 5, 88, 161, 90, 165, 165, 90, 2, 0.219975
50, 2, wb, filler, NA, 999, 999, 7, 6, 142, 195, 84, 98, 93, 139, 2, 0.617353
50, 2, wb, filler, NA, 999, 999, 7, 6, 142, 195, 84, 98, 93, 139, 1, 0.175843
50, 2, wb, attraction, a-b-db, 2, 2, 7, 7, 165, 90, 90, 165, 89, 163, 2, 1.50233
50, 2, wb, attraction, a-b-db, 2, 2, 7, 7, 165, 90, 90, 165, 89, 163, 1, 0.177123
50, 2, wb, filler, NA, 999, 999, 7, 8, 88, 185, 184, 61, 152, 116, 2, 1.19171
50, 2, wb, filler, NA, 999, 999, 7, 8, 88, 185, 184, 61, 152, 116, 3, 0.150677
50, 2, wb, attraction, a-b-da, 14, 2, 7, 9, 90, 165, 165, 90, 153, 83, 2, 1.01448
50, 2, wb, attraction, a-b-da, 14, 2, 7, 9, 90, 165, 165, 90, 153, 83, 1, 0.356853
50, 2, wb, attraction, a-b-db, 9, 2, 7, 10, 165, 90, 90, 165, 86, 157, 1, 4.05996
50, 2, wb, attraction, a-b-db, 9, 2, 7, 10, 165, 90, 90, 165, 86, 157, 2, 0.191383
50, 2, wb, attraction, a-b-db, 9, 1, 7, 11, 57, 129, 135, 60, 60, 135, 1, 3.26925
50, 2, wb, attraction, a-b-db, 9, 1, 7, 11, 57, 129, 135, 60, 60, 135, 2, 0.329528
50, 2, wb, attraction, a-b-db, 9, 3, 7, 12, 120, 195, 195, 120, 114, 186, 2, 8.73735
50, 2, wb, attraction, a-b-db, 9, 3, 7, 12, 120, 195, 195, 120, 114, 186, 3, 0.216579
50, 2, wb, filler, NA, 999, 999, 7, 13, 178, 89, 169, 124, 157, 175, 3, 2.0618
50, 2, wb, filler, NA, 999, 999, 7, 13, 178, 89, 169, 124, 157, 175, 1, 0.34658
50, 2, wb, filler, NA, 999, 999, 7, 14, 103, 140, 173, 185, 73, 177, 3, 6.25765
50, 2, wb, filler, NA, 999, 999, 7, 14, 103, 140, 173, 185, 73, 177, 2, 0.188452
50, 2, wb, attraction, a-b-db, 2, 3, 7, 15, 195, 120, 120, 195, 119, 193, 1, 3.23506
50, 2, wb, attraction, a-b-db, 2, 3, 7, 15, 195, 120, 120, 195, 119, 193, 2, 2.13615
50, 2, wb, attraction, a-b-da, 14, 1, 7, 16, 125, 56, 60, 135, 135, 60, 2, 2.28794
50, 2, wb, attraction, a-b-da, 14, 1, 7, 16, 125, 56, 60, 135, 135, 60, 3, 0.682446
50, 2, wb, attraction, a-b-db, 14, 2, 7, 17, 90, 165, 165, 90, 83, 153, 3, 3.60485
50, 2, wb, attraction, a-b-db, 14, 2, 7, 17, 90, 165, 165, 90, 83, 153, 2, 0.498385
50, 2, wb, filler, NA, 999, 999, 7, 18, 183, 155, 107, 150, 139, 135, 3, 1.5722
50, 2, wb, filler, NA, 999, 999, 7, 18, 183, 155, 107, 150, 139, 135, 1, 1.41162
50, 2, wb, attraction, a-b-da, 5, 3, 7, 19, 190, 117, 120, 195, 195, 120, 2, 1.1524
50, 2, wb, attraction, a-b-da, 5, 3, 7, 19, 190, 117, 120, 195, 195, 120, 1, 0.185312
50, 2, wb, catch, NA, 999, 999, 7, 20, 133, 182, 69, 126, 112, 143, 2, 0.967932
50, 2, wb, catch, NA, 999, 999, 7, 20, 133, 182, 69, 126, 112, 143, 1, 0.528706
50, 2, wb, attraction, a-b-da, 9, 1, 7, 21, 60, 135, 129, 57, 135, 60, 2, 0.768734
50, 2, wb, attraction, a-b-da, 9, 1, 7, 21, 60, 135, 129, 57, 135, 60, 3, 0.449179
50, 2, wb, catch, NA, 999, 999, 7, 22, 100, 95, 144, 111, 151, 164, 1, 1.56499
50, 2, wb, catch, NA, 999, 999, 7, 22, 100, 95, 144, 111, 151, 164, 3, 0.229163
50, 2, wb, attraction, a-b-da, 9, 2, 7, 23, 165, 90, 157, 86, 90, 165, 2, 1.41757
50, 2, wb, attraction, a-b-da, 9, 2, 7, 23, 165, 90, 157, 86, 90, 165, 3, 0.215759
50, 2, wb, attraction, a-b-db, 2, 1, 7, 24, 60, 135, 135, 60, 59, 134, 2, 1.07711
50, 2, wb, attraction, a-b-db, 2, 1, 7, 24, 60, 135, 135, 60, 59, 134, 3, 0.217136
50, 2, wb, attraction, a-b-db, 14, 1, 7, 25, 60, 135, 56, 125, 135, 60, 2, 0.821835
50, 2, wb, attraction, a-b-db, 14, 1, 7, 25, 60, 135, 56, 125, 135, 60, 3, 0.502379
50, 2, wb, attraction, a-b-da, 2, 2, 7, 26, 165, 90, 163, 89, 90, 165, 3, 2.09328
50, 2, wb, attraction, a-b-da, 2, 2, 7, 26, 165, 90, 163, 89, 90, 165, 1, 0.279925
50, 2, wb, catch, NA, 999, 999, 7, 27, 171, 144, 127, 68, 157, 98, 2, 1.12244
50, 2, wb, catch, NA, 999, 999, 7, 27, 171, 144, 127, 68, 157, 98, 1, 0.268103
50, 2, wb, filler, NA, 999, 999, 7, 28, 168, 85, 176, 104, 100, 190, 2, 3.15944
50, 2, wb, filler, NA, 999, 999, 7, 28, 168, 85, 176, 104, 100, 190, 3, 0.958939
50, 2, wb, attraction, a-b-da, 14, 3, 7, 29, 195, 120, 181, 111, 120, 195, 2, 1.49392
50, 2, wb, attraction, a-b-da, 14, 3, 7, 29, 195, 120, 181, 111, 120, 195, 1, 0.192693
50, 2, wb, attraction, a-b-da, 2, 1, 7, 30, 135, 60, 134, 59, 60, 135, 2, 1.83873
50, 2, wb, attraction, a-b-da, 2, 1, 7, 30, 135, 60, 134, 59, 60, 135, 1, 0.771421
50, 2, wb, attraction, a-b-db, 14, 3, 7, 31, 111, 181, 195, 120, 120, 195, 1, 4.87442
50, 2, wb, attraction, a-b-db, 14, 3, 7, 31, 111, 181, 195, 120, 120, 195, 2, 0.868863
50, 2, wb, filler, NA, 999, 999, 7, 32, 128, 60, 56, 112, 106, 193, 2, 1.63193
50, 2, wb, filler, NA, 999, 999, 7, 32, 128, 60, 56, 112, 106, 193, 3, 0.261363
50, 2, wb, attraction, a-b-da, 9, 3, 7, 33, 195, 120, 186, 114, 120, 195, 2, 5.84051
50, 2, wb, attraction, a-b-da, 9, 3, 7, 33, 195, 120, 186, 114, 120, 195, 3, 0.740173
50, 2, wb, attraction, a-b-db, 5, 1, 7, 34, 58, 132, 135, 60, 60, 135, 2, 1.02783
50, 2, wb, attraction, a-b-db, 5, 1, 7, 34, 58, 132, 135, 60, 60, 135, 3, 0.393371
50, 2, wb, attraction, a-b-da, 5, 1, 7, 35, 60, 135, 132, 58, 135, 60, 2, 2.92733
50, 2, wb, attraction, a-b-da, 5, 1, 7, 35, 60, 135, 132, 58, 135, 60, 1, 0.176232
50, 2, wb, attraction, a-b-db, 5, 3, 7, 36, 120, 195, 195, 120, 117, 190, 3, 1.8468
50, 2, wb, attraction, a-b-db, 5, 3, 7, 36, 120, 195, 195, 120, 117, 190, 1, 0.291642
50, 2, wb, attraction, a-b-da, 2, 3, 7, 37, 193, 119, 195, 120, 120, 195, 3, 1.30947
50, 2, wb, attraction, a-b-da, 2, 3, 7, 37, 193, 119, 195, 120, 120, 195, 2, 0.415608
50, 2, wb, filler, NA, 999, 999, 8, 1, 175, 156, 185, 162, 59, 170, 3, 0.76473
50, 2, wb, filler, NA, 999, 999, 8, 1, 175, 156, 185, 162, 59, 170, 2, 0.589242
50, 2, wb, filler, NA, 999, 999, 8, 2, 70, 99, 93, 91, 61, 182, 2, 2.98755
50, 2, wb, filler, NA, 999, 999, 8, 2, 70, 99, 93, 91, 61, 182, 3, 1.66606
50, 2, wb, attraction, a-b-db, 14, 3, 8, 3, 120, 195, 111, 181, 195, 120, 2, 3.02073
50, 2, wb, attraction, a-b-db, 14, 3, 8, 3, 120, 195, 111, 181, 195, 120, 3, 0.474378
50, 2, wb, attraction, a-b-da, 9, 3, 8, 4, 195, 120, 120, 195, 186, 114, 2, 1.53308
50, 2, wb, attraction, a-b-da, 9, 3, 8, 4, 195, 120, 120, 195, 186, 114, 1, 0.478375
50, 2, wb, attraction, a-b-da, 2, 1, 8, 5, 60, 135, 135, 60, 134, 59, 2, 1.50482
50, 2, wb, attraction, a-b-da, 2, 1, 8, 5, 60, 135, 135, 60, 134, 59, 3, 0.658993
50, 2, wb, filler, NA, 999, 999, 8, 6, 157, 177, 87, 130, 71, 181, 2, 0.965994
50, 2, wb, filler, NA, 999, 999, 8, 6, 157, 177, 87, 130, 71, 181, 1, 0.246396
50, 2, wb, attraction, a-b-db, 2, 3, 8, 7, 195, 120, 119, 193, 120, 195, 2, 3.77027
50, 2, wb, attraction, a-b-db, 2, 3, 8, 7, 195, 120, 119, 193, 120, 195, 1, 0.41775
50, 2, wb, filler, NA, 999, 999, 8, 8, 78, 170, 185, 136, 193, 147, 2, 1.22294
50, 2, wb, filler, NA, 999, 999, 8, 8, 78, 170, 185, 136, 193, 147, 3, 0.196582
50, 2, wb, filler, NA, 999, 999, 8, 9, 130, 69, 100, 105, 184, 59, 1, 1.45035
50, 2, wb, filler, NA, 999, 999, 8, 9, 130, 69, 100, 105, 184, 59, 2, 0.175189
50, 2, wb, attraction, a-b-da, 9, 2, 8, 10, 165, 90, 90, 165, 157, 86, 2, 1.33378
50, 2, wb, attraction, a-b-da, 9, 2, 8, 10, 165, 90, 90, 165, 157, 86, 1, 0.247369
50, 2, wb, catch, NA, 999, 999, 8, 11, 189, 126, 111, 144, 75, 120, 3, 1.56319
50, 2, wb, catch, NA, 999, 999, 8, 11, 189, 126, 111, 144, 75, 120, 1, 0.171308
50, 2, wb, attraction, a-b-da, 2, 2, 8, 12, 163, 89, 90, 165, 165, 90, 2, 0.874637
50, 2, wb, attraction, a-b-da, 2, 2, 8, 12, 163, 89, 90, 165, 165, 90, 3, 0.174232
50, 2, wb, attraction, a-b-db, 9, 1, 8, 13, 60, 135, 135, 60, 57, 129, 3, 1.61293
50, 2, wb, attraction, a-b-db, 9, 1, 8, 13, 60, 135, 135, 60, 57, 129, 2, 0.146901
50, 2, wb, attraction, a-b-da, 2, 3, 8, 14, 195, 120, 120, 195, 193, 119, 2, 2.11481
50, 2, wb, attraction, a-b-da, 2, 3, 8, 14, 195, 120, 120, 195, 193, 119, 3, 0.372794
50, 2, wb, attraction, a-b-da, 5, 2, 8, 15, 90, 165, 165, 90, 161, 88, 1, 1.34732
50, 2, wb, attraction, a-b-da, 5, 2, 8, 15, 90, 165, 165, 90, 161, 88, 3, 0.23626
50, 2, wb, attraction, a-b-db, 2, 2, 8, 16, 89, 163, 90, 165, 165, 90, 2, 1.16871
50, 2, wb, attraction, a-b-db, 2, 2, 8, 16, 89, 163, 90, 165, 165, 90, 3, 0.192935
50, 2, wb, attraction, a-b-db, 14, 1, 8, 17, 56, 125, 60, 135, 135, 60, 2, 0.750859
50, 2, wb, attraction, a-b-db, 14, 1, 8, 17, 56, 125, 60, 135, 135, 60, 3, 0.439945
50, 2, wb, attraction, a-b-da, 14, 3, 8, 18, 195, 120, 120, 195, 181, 111, 1, 1.13212
50, 2, wb, attraction, a-b-da, 14, 3, 8, 18, 195, 120, 120, 195, 181, 111, 2, 0.389361
50, 2, wb, attraction, a-b-da, 14, 2, 8, 19, 165, 90, 153, 83, 90, 165, 2, 1.92328
50, 2, wb, attraction, a-b-da, 14, 2, 8, 19, 165, 90, 153, 83, 90, 165, 1, 0.228562
50, 2, wb, catch, NA, 999, 999, 8, 20, 152, 163, 129, 66, 165, 90, 2, 1.95317
50, 2, wb, catch, NA, 999, 999, 8, 20, 152, 163, 129, 66, 165, 90, 1, 0.201864
50, 2, wb, attraction, a-b-db, 9, 2, 8, 21, 90, 165, 165, 90, 86, 157, 2, 2.57565
50, 2, wb, attraction, a-b-db, 9, 2, 8, 21, 90, 165, 165, 90, 86, 157, 1, 0.214943
50, 2, wb, attraction, a-b-da, 5, 3, 8, 22, 120, 195, 195, 120, 190, 117, 2, 4.20401
50, 2, wb, attraction, a-b-da, 5, 3, 8, 22, 120, 195, 195, 120, 190, 117, 1, 0.194164
50, 2, wb, filler, NA, 999, 999, 8, 23, 114, 188, 71, 159, 121, 123, 2, 2.11986
50, 2, wb, filler, NA, 999, 999, 8, 23, 114, 188, 71, 159, 121, 123, 1, 0.225838
50, 2, wb, attraction, a-b-db, 5, 2, 8, 24, 88, 161, 90, 165, 165, 90, 2, 0.638358
50, 2, wb, attraction, a-b-db, 5, 2, 8, 24, 88, 161, 90, 165, 165, 90, 3, 0.403541
50, 2, wb, filler, NA, 999, 999, 8, 25, 193, 154, 88, 75, 77, 154, 2, 0.977328
50, 2, wb, filler, NA, 999, 999, 8, 25, 193, 154, 88, 75, 77, 154, 1, 0.201102
50, 2, wb, attraction, a-b-db, 9, 3, 8, 26, 195, 120, 114, 186, 120, 195, 1, 2.38286
50, 2, wb, attraction, a-b-db, 9, 3, 8, 26, 195, 120, 114, 186, 120, 195, 2, 0.182091
50, 2, wb, attraction, a-b-db, 2, 1, 8, 27, 59, 134, 135, 60, 60, 135, 2, 2.66871
50, 2, wb, attraction, a-b-db, 2, 1, 8, 27, 59, 134, 135, 60, 60, 135, 1, 0.408467
50, 2, wb, attraction, a-b-db, 5, 1, 8, 28, 135, 60, 60, 135, 58, 132, 2, 0.645628
50, 2, wb, attraction, a-b-db, 5, 1, 8, 28, 135, 60, 60, 135, 58, 132, 1, 0.394768
50, 2, wb, attraction, a-b-da, 14, 1, 8, 29, 135, 60, 60, 135, 125, 56, 2, 1.93653
50, 2, wb, attraction, a-b-da, 14, 1, 8, 29, 135, 60, 60, 135, 125, 56, 1, 0.569943
50, 2, wb, attraction, a-b-db, 14, 2, 8, 30, 165, 90, 90, 165, 83, 153, 2, 3.14498
50, 2, wb, attraction, a-b-db, 14, 2, 8, 30, 165, 90, 90, 165, 83, 153, 1, 0.657504
50, 2, wb, catch, NA, 999, 999, 8, 31, 132, 63, 150, 165, 164, 91, 1, 2.30041
50, 2, wb, catch, NA, 999, 999, 8, 31, 132, 63, 150, 165, 164, 91, 2, 0.367086
50, 2, wb, attraction, a-b-db, 5, 3, 8, 32, 195, 120, 120, 195, 117, 190, 3, 1.58211
50, 2, wb, attraction, a-b-db, 5, 3, 8, 32, 195, 120, 120, 195, 117, 190, 2, 0.597622
50, 2, wb, attraction, a-b-da, 5, 1, 8, 33, 132, 58, 135, 60, 60, 135, 3, 1.82739
50, 2, wb, attraction, a-b-da, 5, 1, 8, 33, 132, 58, 135, 60, 60, 135, 1, 0.53689
50, 2, wb, filler, NA, 999, 999, 8, 34, 132, 131, 68, 96, 149, 110, 2, 1.12928
50, 2, wb, filler, NA, 999, 999, 8, 34, 132, 131, 68, 96, 149, 110, 1, 1.69891
50, 2, wb, filler, NA, 999, 999, 8, 35, 132, 79, 73, 80, 79, 162, 2, 0.812271
50, 2, wb, filler, NA, 999, 999, 8, 35, 132, 79, 73, 80, 79, 162, 3, 1.01889
50, 2, wb, attraction, a-b-da, 9, 1, 8, 36, 60, 135, 135, 60, 129, 57, 1, 6.8316
50, 2, wb, attraction, a-b-da, 9, 1, 8, 36, 60, 135, 135, 60, 129, 57, 2, 0.307462
50, 2, wb, filler, NA, 999, 999, 8, 37, 144, 170, 74, 133, 109, 138, 2, 1.46062
50, 2, wb, filler, NA, 999, 999, 8, 37, 144, 170, 74, 133, 109, 138, 1, 0.288819
