sub_n, computer_n, bw_cond, effect, set, distance, diag, block_n, trial_n, h1, w1, h2, w2, h3, w3, choice, rt 
53, 2, bw, practice, NA, 999, 999, 0, 1, 181, 98, 79, 115, 56, 84, 1, 3.40551
53, 2, bw, practice, NA, 999, 999, 0, 1, 181, 98, 79, 115, 56, 84, 3, 2.34662
53, 2, bw, practice, NA, 999, 999, 0, 2, 162, 57, 93, 165, 92, 66, 2, 5.27984
53, 2, bw, practice, NA, 999, 999, 0, 2, 162, 57, 93, 165, 92, 66, 3, 1.93155
53, 2, bw, practice, NA, 999, 999, 0, 3, 69, 179, 134, 63, 56, 71, 1, 1.51076
53, 2, bw, practice, NA, 999, 999, 0, 3, 69, 179, 134, 63, 56, 71, 3, 0.85788
53, 2, bw, attraction, a-b-da, 5, 3, 1, 1, 120, 195, 190, 117, 195, 120, 3, 7.525
53, 2, bw, attraction, a-b-da, 5, 3, 1, 1, 120, 195, 190, 117, 195, 120, 2, 3.51655
53, 2, bw, attraction, a-b-db, 2, 3, 1, 2, 119, 193, 195, 120, 120, 195, 3, 8.26887
53, 2, bw, attraction, a-b-db, 2, 3, 1, 2, 119, 193, 195, 120, 120, 195, 2, 1.1828
53, 2, bw, filler, NA, 999, 999, 1, 3, 79, 56, 72, 172, 106, 99, 2, 2.83697
53, 2, bw, filler, NA, 999, 999, 1, 3, 79, 56, 72, 172, 106, 99, 1, 1.17008
53, 2, bw, filler, NA, 999, 999, 1, 4, 92, 83, 126, 100, 81, 72, 2, 0.792914
53, 2, bw, filler, NA, 999, 999, 1, 4, 92, 83, 126, 100, 81, 72, 3, 0.608138
53, 2, bw, attraction, a-b-db, 2, 1, 1, 5, 60, 135, 135, 60, 59, 134, 2, 1.78121
53, 2, bw, attraction, a-b-db, 2, 1, 1, 5, 60, 135, 135, 60, 59, 134, 1, 1.64453
53, 2, bw, attraction, a-b-db, 14, 2, 1, 6, 83, 153, 90, 165, 165, 90, 2, 1.07996
53, 2, bw, attraction, a-b-db, 14, 2, 1, 6, 83, 153, 90, 165, 165, 90, 3, 1.19568
53, 2, bw, attraction, a-b-db, 5, 3, 1, 7, 195, 120, 117, 190, 120, 195, 1, 1.15316
53, 2, bw, attraction, a-b-db, 5, 3, 1, 7, 195, 120, 117, 190, 120, 195, 3, 0.889489
53, 2, bw, filler, NA, 999, 999, 1, 8, 96, 101, 87, 171, 186, 68, 2, 1.3078
53, 2, bw, filler, NA, 999, 999, 1, 8, 96, 101, 87, 171, 186, 68, 1, 0.397985
53, 2, bw, attraction, a-b-da, 14, 1, 1, 9, 60, 135, 125, 56, 135, 60, 2, 1.12383
53, 2, bw, attraction, a-b-da, 14, 1, 1, 9, 60, 135, 125, 56, 135, 60, 1, 0.437574
53, 2, bw, filler, NA, 999, 999, 1, 10, 86, 89, 140, 161, 63, 83, 2, 0.529935
53, 2, bw, filler, NA, 999, 999, 1, 10, 86, 89, 140, 161, 63, 83, 3, 0.387776
53, 2, bw, attraction, a-b-db, 9, 1, 1, 11, 135, 60, 60, 135, 57, 129, 1, 1.37821
53, 2, bw, attraction, a-b-db, 9, 1, 1, 11, 135, 60, 60, 135, 57, 129, 3, 0.793798
53, 2, bw, filler, NA, 999, 999, 1, 12, 116, 123, 94, 63, 69, 174, 1, 0.855501
53, 2, bw, filler, NA, 999, 999, 1, 12, 116, 123, 94, 63, 69, 174, 2, 0.707839
53, 2, bw, attraction, a-b-db, 5, 2, 1, 13, 88, 161, 90, 165, 165, 90, 3, 0.900899
53, 2, bw, attraction, a-b-db, 5, 2, 1, 13, 88, 161, 90, 165, 165, 90, 1, 0.383975
53, 2, bw, attraction, a-b-db, 5, 1, 1, 14, 135, 60, 60, 135, 58, 132, 1, 0.854363
53, 2, bw, attraction, a-b-db, 5, 1, 1, 14, 135, 60, 60, 135, 58, 132, 2, 0.314759
53, 2, bw, attraction, a-b-db, 14, 3, 1, 15, 111, 181, 195, 120, 120, 195, 1, 0.587867
53, 2, bw, attraction, a-b-db, 14, 3, 1, 15, 111, 181, 195, 120, 120, 195, 2, 0.611053
53, 2, bw, attraction, a-b-db, 9, 2, 1, 16, 90, 165, 165, 90, 86, 157, 1, 1.32816
53, 2, bw, attraction, a-b-db, 9, 2, 1, 16, 90, 165, 165, 90, 86, 157, 2, 0.353742
53, 2, bw, attraction, a-b-da, 2, 1, 1, 17, 135, 60, 60, 135, 134, 59, 2, 1.20166
53, 2, bw, attraction, a-b-da, 2, 1, 1, 17, 135, 60, 60, 135, 134, 59, 1, 0.784417
53, 2, bw, filler, NA, 999, 999, 1, 18, 176, 125, 187, 71, 148, 132, 1, 0.958869
53, 2, bw, filler, NA, 999, 999, 1, 18, 176, 125, 187, 71, 148, 132, 2, 0.495178
53, 2, bw, attraction, a-b-da, 14, 2, 1, 19, 165, 90, 153, 83, 90, 165, 3, 1.68105
53, 2, bw, attraction, a-b-da, 14, 2, 1, 19, 165, 90, 153, 83, 90, 165, 2, 0.348356
53, 2, bw, attraction, a-b-da, 5, 1, 1, 20, 132, 58, 135, 60, 60, 135, 3, 1.11631
53, 2, bw, attraction, a-b-da, 5, 1, 1, 20, 132, 58, 135, 60, 60, 135, 1, 0.766541
53, 2, bw, attraction, a-b-da, 5, 2, 1, 21, 165, 90, 161, 88, 90, 165, 2, 0.66162
53, 2, bw, attraction, a-b-da, 5, 2, 1, 21, 165, 90, 161, 88, 90, 165, 3, 0.458087
53, 2, bw, attraction, a-b-db, 14, 1, 1, 22, 56, 125, 60, 135, 135, 60, 2, 0.589116
53, 2, bw, attraction, a-b-db, 14, 1, 1, 22, 56, 125, 60, 135, 135, 60, 3, 1.5483
53, 2, bw, filler, NA, 999, 999, 1, 23, 61, 174, 94, 79, 71, 102, 1, 1.49168
53, 2, bw, filler, NA, 999, 999, 1, 23, 61, 174, 94, 79, 71, 102, 2, 0.438726
53, 2, bw, attraction, a-b-da, 2, 2, 1, 24, 90, 165, 163, 89, 165, 90, 3, 1.01903
53, 2, bw, attraction, a-b-da, 2, 2, 1, 24, 90, 165, 163, 89, 165, 90, 1, 0.505367
53, 2, bw, attraction, a-b-db, 2, 2, 1, 25, 90, 165, 165, 90, 89, 163, 3, 0.491176
53, 2, bw, attraction, a-b-db, 2, 2, 1, 25, 90, 165, 165, 90, 89, 163, 1, 0.406288
53, 2, bw, catch, NA, 999, 999, 1, 26, 156, 99, 164, 151, 85, 110, 2, 1.23536
53, 2, bw, catch, NA, 999, 999, 1, 26, 156, 99, 164, 151, 85, 110, 3, 0.672916
53, 2, bw, attraction, a-b-da, 9, 3, 1, 27, 195, 120, 186, 114, 120, 195, 3, 0.979386
53, 2, bw, attraction, a-b-da, 9, 3, 1, 27, 195, 120, 186, 114, 120, 195, 2, 0.451066
53, 2, bw, attraction, a-b-da, 2, 3, 1, 28, 195, 120, 120, 195, 193, 119, 2, 0.990906
53, 2, bw, attraction, a-b-da, 2, 3, 1, 28, 195, 120, 120, 195, 193, 119, 3, 0.413886
53, 2, bw, attraction, a-b-da, 9, 1, 1, 29, 135, 60, 129, 57, 60, 135, 3, 0.811072
53, 2, bw, attraction, a-b-da, 9, 1, 1, 29, 135, 60, 129, 57, 60, 135, 2, 0.305434
53, 2, bw, filler, NA, 999, 999, 1, 30, 123, 73, 128, 169, 92, 129, 2, 0.555369
53, 2, bw, filler, NA, 999, 999, 1, 30, 123, 73, 128, 169, 92, 129, 1, 0.443668
53, 2, bw, attraction, a-b-da, 14, 3, 1, 31, 181, 111, 195, 120, 120, 195, 2, 0.623636
53, 2, bw, attraction, a-b-da, 14, 3, 1, 31, 181, 111, 195, 120, 120, 195, 1, 0.501429
53, 2, bw, filler, NA, 999, 999, 1, 32, 177, 179, 61, 136, 194, 106, 1, 0.751104
53, 2, bw, filler, NA, 999, 999, 1, 32, 177, 179, 61, 136, 194, 106, 2, 0.408206
53, 2, bw, attraction, a-b-da, 9, 2, 1, 33, 157, 86, 165, 90, 90, 165, 2, 0.517321
53, 2, bw, attraction, a-b-da, 9, 2, 1, 33, 157, 86, 165, 90, 90, 165, 1, 0.171935
53, 2, bw, filler, NA, 999, 999, 1, 34, 79, 125, 118, 77, 105, 194, 2, 1.03032
53, 2, bw, filler, NA, 999, 999, 1, 34, 79, 125, 118, 77, 105, 194, 1, 0.372036
53, 2, bw, attraction, a-b-db, 9, 3, 1, 35, 114, 186, 120, 195, 195, 120, 2, 0.659158
53, 2, bw, attraction, a-b-db, 9, 3, 1, 35, 114, 186, 120, 195, 195, 120, 3, 0.687562
53, 2, bw, catch, NA, 999, 999, 1, 36, 190, 125, 101, 154, 74, 121, 1, 0.882035
53, 2, bw, catch, NA, 999, 999, 1, 36, 190, 125, 101, 154, 74, 121, 3, 0.589686
53, 2, bw, catch, NA, 999, 999, 1, 37, 138, 177, 106, 149, 67, 128, 1, 0.731361
53, 2, bw, catch, NA, 999, 999, 1, 37, 138, 177, 106, 149, 67, 128, 3, 0.789275
53, 2, bw, filler, NA, 999, 999, 2, 1, 74, 176, 108, 125, 66, 132, 2, 1.13957
53, 2, bw, filler, NA, 999, 999, 2, 1, 74, 176, 108, 125, 66, 132, 1, 0.510109
53, 2, bw, filler, NA, 999, 999, 2, 2, 99, 86, 169, 168, 112, 69, 2, 0.413635
53, 2, bw, filler, NA, 999, 999, 2, 2, 99, 86, 169, 168, 112, 69, 1, 0.468091
53, 2, bw, filler, NA, 999, 999, 2, 3, 179, 102, 115, 57, 86, 179, 1, 0.81528
53, 2, bw, filler, NA, 999, 999, 2, 3, 179, 102, 115, 57, 86, 179, 2, 0.421633
53, 2, bw, filler, NA, 999, 999, 2, 4, 77, 106, 115, 122, 168, 179, 2, 0.802915
53, 2, bw, filler, NA, 999, 999, 2, 4, 77, 106, 115, 122, 168, 179, 3, 0.793213
53, 2, bw, attraction, a-b-db, 5, 3, 2, 5, 120, 195, 117, 190, 195, 120, 1, 1.40679
53, 2, bw, attraction, a-b-db, 5, 3, 2, 5, 120, 195, 117, 190, 195, 120, 3, 0.573115
53, 2, bw, catch, NA, 999, 999, 2, 6, 150, 105, 116, 79, 172, 143, 3, 1.16346
53, 2, bw, catch, NA, 999, 999, 2, 6, 150, 105, 116, 79, 172, 143, 2, 0.467658
53, 2, bw, attraction, a-b-db, 5, 2, 2, 7, 88, 161, 90, 165, 165, 90, 3, 1.24686
53, 2, bw, attraction, a-b-db, 5, 2, 2, 7, 88, 161, 90, 165, 165, 90, 1, 0.435727
53, 2, bw, attraction, a-b-db, 14, 1, 2, 8, 56, 125, 60, 135, 135, 60, 3, 1.45635
53, 2, bw, attraction, a-b-db, 14, 1, 2, 8, 56, 125, 60, 135, 135, 60, 1, 0.572513
53, 2, bw, attraction, a-b-da, 2, 1, 2, 9, 134, 59, 60, 135, 135, 60, 3, 1.03552
53, 2, bw, attraction, a-b-da, 2, 1, 2, 9, 134, 59, 60, 135, 135, 60, 1, 0.633347
53, 2, bw, attraction, a-b-da, 14, 2, 2, 10, 153, 83, 165, 90, 90, 165, 1, 1.10975
53, 2, bw, attraction, a-b-da, 14, 2, 2, 10, 153, 83, 165, 90, 90, 165, 2, 0.375874
53, 2, bw, attraction, a-b-da, 5, 3, 2, 11, 190, 117, 120, 195, 195, 120, 1, 0.854352
53, 2, bw, attraction, a-b-da, 5, 3, 2, 11, 190, 117, 120, 195, 195, 120, 2, 0.322916
53, 2, bw, filler, NA, 999, 999, 2, 12, 74, 130, 58, 155, 151, 112, 3, 1.07529
53, 2, bw, filler, NA, 999, 999, 2, 12, 74, 130, 58, 155, 151, 112, 2, 0.502907
53, 2, bw, attraction, a-b-db, 9, 3, 2, 13, 114, 186, 120, 195, 195, 120, 2, 0.840645
53, 2, bw, attraction, a-b-db, 9, 3, 2, 13, 114, 186, 120, 195, 195, 120, 3, 0.397763
53, 2, bw, attraction, a-b-da, 9, 3, 2, 14, 120, 195, 195, 120, 186, 114, 1, 0.867594
53, 2, bw, attraction, a-b-da, 9, 3, 2, 14, 120, 195, 195, 120, 186, 114, 2, 0.367963
53, 2, bw, attraction, a-b-db, 9, 2, 2, 15, 86, 157, 90, 165, 165, 90, 3, 1.27148
53, 2, bw, attraction, a-b-db, 9, 2, 2, 15, 86, 157, 90, 165, 165, 90, 2, 0.402671
53, 2, bw, catch, NA, 999, 999, 2, 16, 127, 68, 164, 91, 162, 153, 3, 0.848467
53, 2, bw, catch, NA, 999, 999, 2, 16, 127, 68, 164, 91, 162, 153, 1, 1.17353
53, 2, bw, attraction, a-b-da, 9, 1, 2, 17, 60, 135, 129, 57, 135, 60, 3, 0.531763
53, 2, bw, attraction, a-b-da, 9, 1, 2, 17, 60, 135, 129, 57, 135, 60, 1, 0.5575
53, 2, bw, attraction, a-b-da, 14, 3, 2, 18, 195, 120, 120, 195, 181, 111, 2, 0.580794
53, 2, bw, attraction, a-b-da, 14, 3, 2, 18, 195, 120, 120, 195, 181, 111, 3, 0.388463
53, 2, bw, attraction, a-b-da, 5, 2, 2, 19, 90, 165, 165, 90, 161, 88, 1, 0.738974
53, 2, bw, attraction, a-b-da, 5, 2, 2, 19, 90, 165, 165, 90, 161, 88, 2, 0.364092
53, 2, bw, attraction, a-b-db, 14, 3, 2, 20, 120, 195, 111, 181, 195, 120, 1, 0.483101
53, 2, bw, attraction, a-b-db, 14, 3, 2, 20, 120, 195, 111, 181, 195, 120, 3, 0.423023
53, 2, bw, catch, NA, 999, 999, 2, 21, 170, 145, 104, 91, 118, 137, 1, 0.603395
53, 2, bw, catch, NA, 999, 999, 2, 21, 170, 145, 104, 91, 118, 137, 2, 0.273946
53, 2, bw, filler, NA, 999, 999, 2, 22, 57, 64, 106, 91, 190, 139, 3, 0.924372
53, 2, bw, filler, NA, 999, 999, 2, 22, 57, 64, 106, 91, 190, 139, 1, 0.734198
53, 2, bw, attraction, a-b-da, 2, 2, 2, 23, 163, 89, 165, 90, 90, 165, 1, 0.64649
53, 2, bw, attraction, a-b-da, 2, 2, 2, 23, 163, 89, 165, 90, 90, 165, 3, 0.38757
53, 2, bw, filler, NA, 999, 999, 2, 24, 144, 115, 170, 103, 67, 192, 1, 0.642077
53, 2, bw, filler, NA, 999, 999, 2, 24, 144, 115, 170, 103, 67, 192, 3, 0.567154
53, 2, bw, attraction, a-b-db, 2, 2, 2, 25, 165, 90, 89, 163, 90, 165, 3, 0.878326
53, 2, bw, attraction, a-b-db, 2, 2, 2, 25, 165, 90, 89, 163, 90, 165, 1, 0.834068
53, 2, bw, attraction, a-b-da, 9, 2, 2, 26, 90, 165, 165, 90, 157, 86, 1, 0.654387
53, 2, bw, attraction, a-b-da, 9, 2, 2, 26, 90, 165, 165, 90, 157, 86, 3, 0.426781
53, 2, bw, attraction, a-b-da, 2, 3, 2, 27, 195, 120, 120, 195, 193, 119, 1, 0.551312
53, 2, bw, attraction, a-b-da, 2, 3, 2, 27, 195, 120, 120, 195, 193, 119, 2, 0.97642
53, 2, bw, filler, NA, 999, 999, 2, 28, 172, 175, 97, 69, 131, 74, 1, 0.734793
53, 2, bw, filler, NA, 999, 999, 2, 28, 172, 175, 97, 69, 131, 74, 2, 0.656387
53, 2, bw, attraction, a-b-db, 2, 3, 2, 29, 120, 195, 195, 120, 119, 193, 3, 0.859481
53, 2, bw, attraction, a-b-db, 2, 3, 2, 29, 120, 195, 195, 120, 119, 193, 2, 0.295881
53, 2, bw, filler, NA, 999, 999, 2, 30, 69, 130, 160, 122, 110, 181, 2, 1.20171
53, 2, bw, filler, NA, 999, 999, 2, 30, 69, 130, 160, 122, 110, 181, 1, 0.496701
53, 2, bw, filler, NA, 999, 999, 2, 31, 127, 147, 185, 145, 160, 147, 1, 0.666447
53, 2, bw, filler, NA, 999, 999, 2, 31, 127, 147, 185, 145, 160, 147, 2, 1.25492
53, 2, bw, attraction, a-b-db, 14, 2, 2, 32, 83, 153, 165, 90, 90, 165, 3, 1.07447
53, 2, bw, attraction, a-b-db, 14, 2, 2, 32, 83, 153, 165, 90, 90, 165, 2, 0.525996
53, 2, bw, attraction, a-b-db, 5, 1, 2, 33, 58, 132, 135, 60, 60, 135, 3, 0.806715
53, 2, bw, attraction, a-b-db, 5, 1, 2, 33, 58, 132, 135, 60, 60, 135, 2, 0.332945
53, 2, bw, attraction, a-b-da, 14, 1, 2, 34, 60, 135, 125, 56, 135, 60, 1, 0.789441
53, 2, bw, attraction, a-b-da, 14, 1, 2, 34, 60, 135, 125, 56, 135, 60, 2, 0.468445
53, 2, bw, attraction, a-b-db, 9, 1, 2, 35, 60, 135, 57, 129, 135, 60, 3, 1.99157
53, 2, bw, attraction, a-b-db, 9, 1, 2, 35, 60, 135, 57, 129, 135, 60, 2, 0.550305
53, 2, bw, attraction, a-b-da, 5, 1, 2, 36, 60, 135, 135, 60, 132, 58, 3, 1.0861
53, 2, bw, attraction, a-b-da, 5, 1, 2, 36, 60, 135, 135, 60, 132, 58, 1, 0.529751
53, 2, bw, attraction, a-b-db, 2, 1, 2, 37, 60, 135, 135, 60, 59, 134, 3, 0.818178
53, 2, bw, attraction, a-b-db, 2, 1, 2, 37, 60, 135, 135, 60, 59, 134, 2, 0.608476
53, 2, bw, filler, NA, 999, 999, 3, 1, 152, 144, 101, 135, 133, 63, 1, 0.973636
53, 2, bw, filler, NA, 999, 999, 3, 1, 152, 144, 101, 135, 133, 63, 3, 0.661215
53, 2, bw, filler, NA, 999, 999, 3, 2, 186, 112, 137, 157, 160, 171, 3, 0.776271
53, 2, bw, filler, NA, 999, 999, 3, 2, 186, 112, 137, 157, 160, 171, 1, 0.424116
53, 2, bw, attraction, a-b-db, 14, 1, 3, 3, 135, 60, 60, 135, 56, 125, 1, 1.36455
53, 2, bw, attraction, a-b-db, 14, 1, 3, 3, 135, 60, 60, 135, 56, 125, 3, 0.468768
53, 2, bw, filler, NA, 999, 999, 3, 4, 143, 80, 132, 102, 145, 184, 3, 1.39981
53, 2, bw, filler, NA, 999, 999, 3, 4, 143, 80, 132, 102, 145, 184, 1, 0.446734
53, 2, bw, attraction, a-b-db, 2, 3, 3, 5, 120, 195, 119, 193, 195, 120, 1, 0.866544
53, 2, bw, attraction, a-b-db, 2, 3, 3, 5, 120, 195, 119, 193, 195, 120, 3, 0.510852
53, 2, bw, attraction, a-b-db, 2, 1, 3, 6, 135, 60, 59, 134, 60, 135, 3, 0.895959
53, 2, bw, attraction, a-b-db, 2, 1, 3, 6, 135, 60, 59, 134, 60, 135, 1, 0.475024
53, 2, bw, attraction, a-b-db, 5, 3, 3, 7, 117, 190, 195, 120, 120, 195, 1, 0.725501
53, 2, bw, attraction, a-b-db, 5, 3, 3, 7, 117, 190, 195, 120, 120, 195, 3, 0.431271
53, 2, bw, catch, NA, 999, 999, 3, 8, 150, 105, 96, 99, 137, 178, 3, 1.06785
53, 2, bw, catch, NA, 999, 999, 3, 8, 150, 105, 96, 99, 137, 178, 2, 0.791998
53, 2, bw, attraction, a-b-db, 5, 1, 3, 9, 60, 135, 58, 132, 135, 60, 1, 0.829664
53, 2, bw, attraction, a-b-db, 5, 1, 3, 9, 60, 135, 58, 132, 135, 60, 2, 0.379494
53, 2, bw, attraction, a-b-da, 2, 1, 3, 10, 134, 59, 135, 60, 60, 135, 3, 1.03393
53, 2, bw, attraction, a-b-da, 2, 1, 3, 10, 134, 59, 135, 60, 60, 135, 1, 0.495536
53, 2, bw, attraction, a-b-da, 14, 1, 3, 11, 135, 60, 125, 56, 60, 135, 3, 0.745302
53, 2, bw, attraction, a-b-da, 14, 1, 3, 11, 135, 60, 125, 56, 60, 135, 1, 0.754555
53, 2, bw, filler, NA, 999, 999, 3, 12, 57, 180, 161, 70, 154, 99, 3, 1.46615
53, 2, bw, filler, NA, 999, 999, 3, 12, 57, 180, 161, 70, 154, 99, 1, 0.542503
53, 2, bw, attraction, a-b-db, 14, 2, 3, 13, 83, 153, 90, 165, 165, 90, 1, 0.73415
53, 2, bw, attraction, a-b-db, 14, 2, 3, 13, 83, 153, 90, 165, 165, 90, 3, 0.711976
53, 2, bw, attraction, a-b-da, 9, 2, 3, 14, 157, 86, 165, 90, 90, 165, 3, 0.784956
53, 2, bw, attraction, a-b-da, 9, 2, 3, 14, 157, 86, 165, 90, 90, 165, 1, 0.424616
53, 2, bw, attraction, a-b-da, 14, 3, 3, 15, 120, 195, 195, 120, 181, 111, 1, 0.773
53, 2, bw, attraction, a-b-da, 14, 3, 3, 15, 120, 195, 195, 120, 181, 111, 3, 0.55676
53, 2, bw, attraction, a-b-db, 14, 3, 3, 16, 120, 195, 195, 120, 111, 181, 1, 2.08391
53, 2, bw, attraction, a-b-db, 14, 3, 3, 16, 120, 195, 195, 120, 111, 181, 2, 0.399216
53, 2, bw, catch, NA, 999, 999, 3, 17, 143, 172, 94, 101, 110, 145, 1, 0.556991
53, 2, bw, catch, NA, 999, 999, 3, 17, 143, 172, 94, 101, 110, 145, 2, 0.533539
53, 2, bw, filler, NA, 999, 999, 3, 18, 90, 63, 187, 187, 84, 110, 2, 0.765972
53, 2, bw, filler, NA, 999, 999, 3, 18, 90, 63, 187, 187, 84, 110, 1, 0.950331
53, 2, bw, attraction, a-b-db, 9, 2, 3, 19, 165, 90, 90, 165, 86, 157, 1, 1.06998
53, 2, bw, attraction, a-b-db, 9, 2, 3, 19, 165, 90, 90, 165, 86, 157, 2, 0.481672
53, 2, bw, attraction, a-b-db, 5, 2, 3, 20, 90, 165, 88, 161, 165, 90, 3, 1.02016
53, 2, bw, attraction, a-b-db, 5, 2, 3, 20, 90, 165, 88, 161, 165, 90, 2, 0.650512
53, 2, bw, attraction, a-b-db, 2, 2, 3, 21, 89, 163, 90, 165, 165, 90, 2, 5.69435
53, 2, bw, attraction, a-b-db, 2, 2, 3, 21, 89, 163, 90, 165, 165, 90, 1, 0.415679
53, 2, bw, attraction, a-b-da, 2, 3, 3, 22, 120, 195, 193, 119, 195, 120, 1, 0.852768
53, 2, bw, attraction, a-b-da, 2, 3, 3, 22, 120, 195, 193, 119, 195, 120, 2, 0.297882
53, 2, bw, filler, NA, 999, 999, 3, 23, 73, 119, 126, 119, 74, 115, 2, 0.78774
53, 2, bw, filler, NA, 999, 999, 3, 23, 73, 119, 126, 119, 74, 115, 1, 0.418723
53, 2, bw, attraction, a-b-da, 9, 3, 3, 24, 195, 120, 120, 195, 186, 114, 2, 0.591887
53, 2, bw, attraction, a-b-da, 9, 3, 3, 24, 195, 120, 120, 195, 186, 114, 1, 0.485123
53, 2, bw, attraction, a-b-da, 5, 3, 3, 25, 120, 195, 190, 117, 195, 120, 2, 0.721483
53, 2, bw, attraction, a-b-da, 5, 3, 3, 25, 120, 195, 190, 117, 195, 120, 1, 0.387397
53, 2, bw, attraction, a-b-da, 9, 1, 3, 26, 135, 60, 129, 57, 60, 135, 2, 0.633646
53, 2, bw, attraction, a-b-da, 9, 1, 3, 26, 135, 60, 129, 57, 60, 135, 1, 0.375534
53, 2, bw, attraction, a-b-da, 5, 2, 3, 27, 165, 90, 90, 165, 161, 88, 2, 0.438089
53, 2, bw, attraction, a-b-da, 5, 2, 3, 27, 165, 90, 90, 165, 161, 88, 1, 0.635214
53, 2, bw, filler, NA, 999, 999, 3, 28, 116, 97, 80, 75, 188, 178, 3, 1.46367
53, 2, bw, filler, NA, 999, 999, 3, 28, 116, 97, 80, 75, 188, 178, 2, 0.715739
53, 2, bw, filler, NA, 999, 999, 3, 29, 79, 71, 190, 83, 129, 102, 2, 1.11694
53, 2, bw, filler, NA, 999, 999, 3, 29, 79, 71, 190, 83, 129, 102, 1, 0.487039
53, 2, bw, attraction, a-b-da, 5, 1, 3, 30, 132, 58, 135, 60, 60, 135, 3, 0.665601
53, 2, bw, attraction, a-b-da, 5, 1, 3, 30, 132, 58, 135, 60, 60, 135, 2, 0.63003
53, 2, bw, attraction, a-b-db, 9, 3, 3, 31, 114, 186, 195, 120, 120, 195, 1, 0.586384
53, 2, bw, attraction, a-b-db, 9, 3, 3, 31, 114, 186, 195, 120, 120, 195, 2, 0.329533
53, 2, bw, attraction, a-b-da, 14, 2, 3, 32, 153, 83, 165, 90, 90, 165, 1, 0.426029
53, 2, bw, attraction, a-b-da, 14, 2, 3, 32, 153, 83, 165, 90, 90, 165, 2, 0.75986
53, 2, bw, catch, NA, 999, 999, 3, 33, 68, 127, 121, 194, 125, 130, 2, 1.19084
53, 2, bw, catch, NA, 999, 999, 3, 33, 68, 127, 121, 194, 125, 130, 1, 0.509798
53, 2, bw, filler, NA, 999, 999, 3, 34, 191, 66, 186, 177, 74, 104, 2, 0.719084
53, 2, bw, filler, NA, 999, 999, 3, 34, 191, 66, 186, 177, 74, 104, 3, 0.865475
53, 2, bw, attraction, a-b-da, 2, 2, 3, 35, 90, 165, 163, 89, 165, 90, 2, 0.964405
53, 2, bw, attraction, a-b-da, 2, 2, 3, 35, 90, 165, 163, 89, 165, 90, 3, 0.684724
53, 2, bw, attraction, a-b-db, 9, 1, 3, 36, 60, 135, 135, 60, 57, 129, 2, 0.623142
53, 2, bw, attraction, a-b-db, 9, 1, 3, 36, 60, 135, 135, 60, 57, 129, 3, 0.740879
53, 2, bw, filler, NA, 999, 999, 3, 37, 135, 159, 85, 91, 79, 68, 1, 0.812661
53, 2, bw, filler, NA, 999, 999, 3, 37, 135, 159, 85, 91, 79, 68, 2, 0.506949
53, 2, bw, attraction, a-b-da, 9, 3, 4, 1, 186, 114, 195, 120, 120, 195, 3, 1.38019
53, 2, bw, attraction, a-b-da, 9, 3, 4, 1, 186, 114, 195, 120, 120, 195, 1, 0.563605
53, 2, bw, attraction, a-b-da, 14, 2, 4, 2, 165, 90, 153, 83, 90, 165, 3, 0.738746
53, 2, bw, attraction, a-b-da, 14, 2, 4, 2, 165, 90, 153, 83, 90, 165, 1, 0.515797
53, 2, bw, attraction, a-b-db, 5, 1, 4, 3, 60, 135, 58, 132, 135, 60, 3, 0.676932
53, 2, bw, attraction, a-b-db, 5, 1, 4, 3, 60, 135, 58, 132, 135, 60, 2, 0.472697
53, 2, bw, attraction, a-b-da, 2, 3, 4, 4, 193, 119, 120, 195, 195, 120, 2, 28.4912
53, 2, bw, attraction, a-b-da, 2, 3, 4, 4, 193, 119, 120, 195, 195, 120, 1, 0.382218
53, 2, bw, attraction, a-b-da, 2, 2, 4, 5, 163, 89, 165, 90, 90, 165, 3, 0.884622
53, 2, bw, attraction, a-b-da, 2, 2, 4, 5, 163, 89, 165, 90, 90, 165, 2, 0.400503
53, 2, bw, attraction, a-b-da, 14, 3, 4, 6, 195, 120, 181, 111, 120, 195, 1, 0.71822
53, 2, bw, attraction, a-b-da, 14, 3, 4, 6, 195, 120, 181, 111, 120, 195, 2, 0.328613
53, 2, bw, attraction, a-b-da, 5, 3, 4, 7, 190, 117, 195, 120, 120, 195, 1, 0.457099
53, 2, bw, attraction, a-b-da, 5, 3, 4, 7, 190, 117, 195, 120, 120, 195, 2, 0.2856
53, 2, bw, filler, NA, 999, 999, 4, 8, 58, 133, 76, 170, 93, 56, 2, 0.784257
53, 2, bw, filler, NA, 999, 999, 4, 8, 58, 133, 76, 170, 93, 56, 3, 0.591928
53, 2, bw, filler, NA, 999, 999, 4, 9, 85, 88, 76, 82, 174, 101, 3, 0.93357
53, 2, bw, filler, NA, 999, 999, 4, 9, 85, 88, 76, 82, 174, 101, 2, 0.439461
53, 2, bw, filler, NA, 999, 999, 4, 10, 137, 160, 177, 85, 140, 175, 3, 0.779247
53, 2, bw, filler, NA, 999, 999, 4, 10, 137, 160, 177, 85, 140, 175, 2, 0.338874
53, 2, bw, attraction, a-b-db, 9, 2, 4, 11, 165, 90, 86, 157, 90, 165, 1, 0.683343
53, 2, bw, attraction, a-b-db, 9, 2, 4, 11, 165, 90, 86, 157, 90, 165, 2, 0.399138
53, 2, bw, attraction, a-b-db, 2, 3, 4, 12, 120, 195, 119, 193, 195, 120, 1, 1.18087
53, 2, bw, attraction, a-b-db, 2, 3, 4, 12, 120, 195, 119, 193, 195, 120, 3, 0.420596
53, 2, bw, attraction, a-b-db, 9, 3, 4, 13, 114, 186, 120, 195, 195, 120, 1, 0.489741
53, 2, bw, attraction, a-b-db, 9, 3, 4, 13, 114, 186, 120, 195, 195, 120, 3, 0.412918
53, 2, bw, attraction, a-b-db, 5, 2, 4, 14, 90, 165, 88, 161, 165, 90, 1, 0.513985
53, 2, bw, attraction, a-b-db, 5, 2, 4, 14, 90, 165, 88, 161, 165, 90, 3, 0.46856
53, 2, bw, filler, NA, 999, 999, 4, 15, 186, 177, 194, 82, 142, 147, 1, 0.839639
53, 2, bw, filler, NA, 999, 999, 4, 15, 186, 177, 194, 82, 142, 147, 2, 0.804662
53, 2, bw, filler, NA, 999, 999, 4, 16, 182, 61, 87, 98, 116, 184, 3, 1.06632
53, 2, bw, filler, NA, 999, 999, 4, 16, 182, 61, 87, 98, 116, 184, 2, 0.486646
53, 2, bw, attraction, a-b-db, 14, 1, 4, 17, 56, 125, 60, 135, 135, 60, 1, 1.31308
53, 2, bw, attraction, a-b-db, 14, 1, 4, 17, 56, 125, 60, 135, 135, 60, 3, 0.691362
53, 2, bw, filler, NA, 999, 999, 4, 18, 168, 187, 110, 149, 129, 68, 1, 0.564987
53, 2, bw, filler, NA, 999, 999, 4, 18, 168, 187, 110, 149, 129, 68, 3, 0.781628
53, 2, bw, attraction, a-b-da, 9, 2, 4, 19, 157, 86, 90, 165, 165, 90, 2, 0.699835
53, 2, bw, attraction, a-b-da, 9, 2, 4, 19, 157, 86, 90, 165, 165, 90, 3, 0.654964
53, 2, bw, attraction, a-b-db, 14, 3, 4, 20, 120, 195, 195, 120, 111, 181, 1, 0.746573
53, 2, bw, attraction, a-b-db, 14, 3, 4, 20, 120, 195, 195, 120, 111, 181, 2, 0.379806
53, 2, bw, catch, NA, 999, 999, 4, 21, 82, 113, 93, 162, 132, 183, 3, 0.970345
53, 2, bw, catch, NA, 999, 999, 4, 21, 82, 113, 93, 162, 132, 183, 1, 0.538744
53, 2, bw, attraction, a-b-da, 5, 1, 4, 22, 132, 58, 135, 60, 60, 135, 1, 1.28298
53, 2, bw, attraction, a-b-da, 5, 1, 4, 22, 132, 58, 135, 60, 60, 135, 2, 0.758682
53, 2, bw, attraction, a-b-db, 14, 2, 4, 23, 165, 90, 90, 165, 83, 153, 2, 0.941667
53, 2, bw, attraction, a-b-db, 14, 2, 4, 23, 165, 90, 90, 165, 83, 153, 3, 1.02268
53, 2, bw, filler, NA, 999, 999, 4, 24, 140, 97, 173, 193, 68, 194, 2, 0.539641
53, 2, bw, filler, NA, 999, 999, 4, 24, 140, 97, 173, 193, 68, 194, 1, 0.444757
53, 2, bw, filler, NA, 999, 999, 4, 25, 110, 143, 195, 168, 114, 171, 2, 0.440584
53, 2, bw, filler, NA, 999, 999, 4, 25, 110, 143, 195, 168, 114, 171, 1, 0.405705
53, 2, bw, filler, NA, 999, 999, 4, 26, 92, 93, 112, 148, 102, 152, 2, 0.563675
53, 2, bw, filler, NA, 999, 999, 4, 26, 92, 93, 112, 148, 102, 152, 3, 2.22013
53, 2, bw, attraction, a-b-db, 2, 1, 4, 27, 60, 135, 135, 60, 59, 134, 2, 1.11257
53, 2, bw, attraction, a-b-db, 2, 1, 4, 27, 60, 135, 135, 60, 59, 134, 3, 1.17101
53, 2, bw, attraction, a-b-db, 5, 3, 4, 28, 117, 190, 195, 120, 120, 195, 2, 0.585909
53, 2, bw, attraction, a-b-db, 5, 3, 4, 28, 117, 190, 195, 120, 120, 195, 3, 0.34565
53, 2, bw, attraction, a-b-da, 2, 1, 4, 29, 134, 59, 60, 135, 135, 60, 1, 0.54539
53, 2, bw, attraction, a-b-da, 2, 1, 4, 29, 134, 59, 60, 135, 135, 60, 2, 0.346506
53, 2, bw, attraction, a-b-db, 9, 1, 4, 30, 57, 129, 135, 60, 60, 135, 1, 0.586513
53, 2, bw, attraction, a-b-db, 9, 1, 4, 30, 57, 129, 135, 60, 60, 135, 2, 0.394236
53, 2, bw, filler, NA, 999, 999, 4, 31, 130, 91, 142, 175, 88, 81, 2, 1.4641
53, 2, bw, filler, NA, 999, 999, 4, 31, 130, 91, 142, 175, 88, 81, 3, 0.476196
53, 2, bw, catch, NA, 999, 999, 4, 32, 81, 114, 129, 186, 156, 99, 2, 0.550598
53, 2, bw, catch, NA, 999, 999, 4, 32, 81, 114, 129, 186, 156, 99, 1, 0.391774
53, 2, bw, attraction, a-b-da, 5, 2, 4, 33, 161, 88, 165, 90, 90, 165, 3, 0.9176
53, 2, bw, attraction, a-b-da, 5, 2, 4, 33, 161, 88, 165, 90, 90, 165, 1, 0.599978
53, 2, bw, catch, NA, 999, 999, 4, 34, 102, 93, 169, 146, 94, 161, 2, 0.461918
53, 2, bw, catch, NA, 999, 999, 4, 34, 102, 93, 169, 146, 94, 161, 1, 0.618131
53, 2, bw, attraction, a-b-da, 14, 1, 4, 35, 135, 60, 125, 56, 60, 135, 1, 0.78334
53, 2, bw, attraction, a-b-da, 14, 1, 4, 35, 135, 60, 125, 56, 60, 135, 2, 0.454972
53, 2, bw, attraction, a-b-db, 2, 2, 4, 36, 165, 90, 90, 165, 89, 163, 2, 1.35478
53, 2, bw, attraction, a-b-db, 2, 2, 4, 36, 165, 90, 90, 165, 89, 163, 1, 0.427135
53, 2, bw, attraction, a-b-da, 9, 1, 4, 37, 60, 135, 129, 57, 135, 60, 1, 0.927545
53, 2, bw, attraction, a-b-da, 9, 1, 4, 37, 60, 135, 129, 57, 135, 60, 2, 0.721225
53, 2, bw, attraction, a-b-da, 9, 3, 5, 1, 186, 114, 120, 195, 195, 120, 2, 2.60818
53, 2, bw, attraction, a-b-da, 9, 3, 5, 1, 186, 114, 120, 195, 195, 120, 1, 0.574036
53, 2, bw, filler, NA, 999, 999, 5, 2, 70, 171, 97, 90, 194, 147, 3, 0.62047
53, 2, bw, filler, NA, 999, 999, 5, 2, 70, 171, 97, 90, 194, 147, 2, 0.346188
53, 2, bw, attraction, a-b-da, 14, 2, 5, 3, 90, 165, 165, 90, 153, 83, 1, 0.826056
53, 2, bw, attraction, a-b-da, 14, 2, 5, 3, 90, 165, 165, 90, 153, 83, 3, 0.327908
53, 2, bw, attraction, a-b-da, 14, 3, 5, 4, 120, 195, 195, 120, 181, 111, 1, 0.512373
53, 2, bw, attraction, a-b-da, 14, 3, 5, 4, 120, 195, 195, 120, 181, 111, 3, 0.442739
53, 2, bw, attraction, a-b-da, 9, 1, 5, 5, 129, 57, 60, 135, 135, 60, 2, 0.638594
53, 2, bw, attraction, a-b-da, 9, 1, 5, 5, 129, 57, 60, 135, 135, 60, 1, 0.635659
53, 2, bw, attraction, a-b-da, 14, 1, 5, 6, 135, 60, 60, 135, 125, 56, 2, 0.44803
53, 2, bw, attraction, a-b-da, 14, 1, 5, 6, 135, 60, 60, 135, 125, 56, 1, 0.797239
53, 2, bw, catch, NA, 999, 999, 5, 7, 64, 131, 124, 191, 102, 153, 2, 0.546926
53, 2, bw, catch, NA, 999, 999, 5, 7, 64, 131, 124, 191, 102, 153, 1, 0.540091
53, 2, bw, attraction, a-b-db, 9, 3, 5, 8, 120, 195, 114, 186, 195, 120, 2, 0.475767
53, 2, bw, attraction, a-b-db, 9, 3, 5, 8, 120, 195, 114, 186, 195, 120, 1, 0.591623
53, 2, bw, catch, NA, 999, 999, 5, 9, 177, 138, 78, 117, 90, 165, 1, 0.757441
53, 2, bw, catch, NA, 999, 999, 5, 9, 177, 138, 78, 117, 90, 165, 2, 0.373843
53, 2, bw, attraction, a-b-db, 2, 2, 5, 10, 89, 163, 90, 165, 165, 90, 3, 0.948294
53, 2, bw, attraction, a-b-db, 2, 2, 5, 10, 89, 163, 90, 165, 165, 90, 2, 0.381299
53, 2, bw, attraction, a-b-da, 5, 3, 5, 11, 120, 195, 190, 117, 195, 120, 1, 0.579821
53, 2, bw, attraction, a-b-da, 5, 3, 5, 11, 120, 195, 190, 117, 195, 120, 2, 0.379593
53, 2, bw, attraction, a-b-db, 5, 3, 5, 12, 120, 195, 195, 120, 117, 190, 1, 0.530255
53, 2, bw, attraction, a-b-db, 5, 3, 5, 12, 120, 195, 195, 120, 117, 190, 2, 0.456138
53, 2, bw, filler, NA, 999, 999, 5, 13, 108, 97, 181, 155, 192, 94, 2, 1.23096
53, 2, bw, filler, NA, 999, 999, 5, 13, 108, 97, 181, 155, 192, 94, 1, 0.53257
53, 2, bw, filler, NA, 999, 999, 5, 14, 173, 68, 96, 128, 102, 155, 3, 1.18107
53, 2, bw, filler, NA, 999, 999, 5, 14, 173, 68, 96, 128, 102, 155, 2, 0.508637
53, 2, bw, attraction, a-b-db, 9, 1, 5, 15, 60, 135, 135, 60, 57, 129, 2, 0.765809
53, 2, bw, attraction, a-b-db, 9, 1, 5, 15, 60, 135, 135, 60, 57, 129, 1, 0.606235
53, 2, bw, attraction, a-b-da, 5, 1, 5, 16, 132, 58, 135, 60, 60, 135, 1, 0.9232
53, 2, bw, attraction, a-b-da, 5, 1, 5, 16, 132, 58, 135, 60, 60, 135, 2, 0.972986
53, 2, bw, filler, NA, 999, 999, 5, 17, 59, 85, 102, 116, 134, 85, 2, 0.763263
53, 2, bw, filler, NA, 999, 999, 5, 17, 59, 85, 102, 116, 134, 85, 1, 0.667703
53, 2, bw, attraction, a-b-db, 2, 3, 5, 18, 120, 195, 119, 193, 195, 120, 2, 0.774693
53, 2, bw, attraction, a-b-db, 2, 3, 5, 18, 120, 195, 119, 193, 195, 120, 1, 0.414389
53, 2, bw, attraction, a-b-db, 14, 2, 5, 19, 90, 165, 83, 153, 165, 90, 2, 0.707842
53, 2, bw, attraction, a-b-db, 14, 2, 5, 19, 90, 165, 83, 153, 165, 90, 1, 0.654037
53, 2, bw, attraction, a-b-db, 9, 2, 5, 20, 90, 165, 86, 157, 165, 90, 3, 1.76975
53, 2, bw, attraction, a-b-db, 9, 2, 5, 20, 90, 165, 86, 157, 165, 90, 2, 0.673881
53, 2, bw, attraction, a-b-da, 2, 1, 5, 21, 134, 59, 135, 60, 60, 135, 1, 0.588247
53, 2, bw, attraction, a-b-da, 2, 1, 5, 21, 134, 59, 135, 60, 60, 135, 2, 0.547768
53, 2, bw, catch, NA, 999, 999, 5, 22, 166, 149, 124, 71, 132, 123, 1, 0.843048
53, 2, bw, catch, NA, 999, 999, 5, 22, 166, 149, 124, 71, 132, 123, 3, 0.680111
53, 2, bw, filler, NA, 999, 999, 5, 23, 163, 90, 79, 140, 98, 121, 1, 2.11471
53, 2, bw, filler, NA, 999, 999, 5, 23, 163, 90, 79, 140, 98, 121, 2, 0.588577
53, 2, bw, filler, NA, 999, 999, 5, 24, 143, 172, 127, 134, 104, 125, 1, 0.530962
53, 2, bw, filler, NA, 999, 999, 5, 24, 143, 172, 127, 134, 104, 125, 3, 0.652773
53, 2, bw, filler, NA, 999, 999, 5, 25, 131, 181, 165, 74, 103, 106, 1, 0.680469
53, 2, bw, filler, NA, 999, 999, 5, 25, 131, 181, 165, 74, 103, 106, 3, 0.452414
53, 2, bw, filler, NA, 999, 999, 5, 26, 179, 161, 174, 160, 179, 132, 2, 1.99228
53, 2, bw, filler, NA, 999, 999, 5, 26, 179, 161, 174, 160, 179, 132, 3, 1.4467
53, 2, bw, attraction, a-b-db, 14, 1, 5, 27, 60, 135, 56, 125, 135, 60, 3, 0.818286
53, 2, bw, attraction, a-b-db, 14, 1, 5, 27, 60, 135, 56, 125, 135, 60, 2, 0.624649
53, 2, bw, attraction, a-b-da, 2, 3, 5, 28, 195, 120, 193, 119, 120, 195, 3, 0.581062
53, 2, bw, attraction, a-b-da, 2, 3, 5, 28, 195, 120, 193, 119, 120, 195, 1, 0.412772
53, 2, bw, attraction, a-b-da, 5, 2, 5, 29, 90, 165, 165, 90, 161, 88, 1, 1.05811
53, 2, bw, attraction, a-b-da, 5, 2, 5, 29, 90, 165, 165, 90, 161, 88, 3, 0.654455
53, 2, bw, attraction, a-b-da, 9, 2, 5, 30, 165, 90, 157, 86, 90, 165, 3, 0.914072
53, 2, bw, attraction, a-b-da, 9, 2, 5, 30, 165, 90, 157, 86, 90, 165, 1, 0.604453
53, 2, bw, attraction, a-b-db, 14, 3, 5, 31, 120, 195, 195, 120, 111, 181, 2, 0.546118
53, 2, bw, attraction, a-b-db, 14, 3, 5, 31, 120, 195, 195, 120, 111, 181, 1, 0.475265
53, 2, bw, attraction, a-b-db, 2, 1, 5, 32, 135, 60, 59, 134, 60, 135, 2, 1.06971
53, 2, bw, attraction, a-b-db, 2, 1, 5, 32, 135, 60, 59, 134, 60, 135, 1, 1.0013
53, 2, bw, filler, NA, 999, 999, 5, 33, 120, 161, 65, 157, 118, 186, 3, 1.135
53, 2, bw, filler, NA, 999, 999, 5, 33, 120, 161, 65, 157, 118, 186, 2, 0.504641
53, 2, bw, attraction, a-b-da, 2, 2, 5, 34, 165, 90, 163, 89, 90, 165, 3, 0.690429
53, 2, bw, attraction, a-b-da, 2, 2, 5, 34, 165, 90, 163, 89, 90, 165, 1, 0.509591
53, 2, bw, filler, NA, 999, 999, 5, 35, 109, 122, 97, 151, 76, 177, 2, 1.49457
53, 2, bw, filler, NA, 999, 999, 5, 35, 109, 122, 97, 151, 76, 177, 3, 0.489467
53, 2, bw, attraction, a-b-db, 5, 2, 5, 36, 165, 90, 88, 161, 90, 165, 2, 1.03516
53, 2, bw, attraction, a-b-db, 5, 2, 5, 36, 165, 90, 88, 161, 90, 165, 1, 0.464851
53, 2, bw, attraction, a-b-db, 5, 1, 5, 37, 135, 60, 60, 135, 58, 132, 2, 0.532004
53, 2, bw, attraction, a-b-db, 5, 1, 5, 37, 135, 60, 60, 135, 58, 132, 1, 0.413754
53, 2, bw, attraction, a-b-db, 14, 2, 6, 1, 165, 90, 90, 165, 83, 153, 2, 0.378884
53, 2, bw, attraction, a-b-db, 14, 2, 6, 1, 165, 90, 90, 165, 83, 153, 1, 0.530827
53, 2, bw, catch, NA, 999, 999, 6, 2, 120, 75, 158, 157, 164, 91, 2, 0.64335
53, 2, bw, catch, NA, 999, 999, 6, 2, 120, 75, 158, 157, 164, 91, 1, 0.48833
53, 2, bw, filler, NA, 999, 999, 6, 3, 129, 69, 71, 98, 188, 129, 3, 0.674768
53, 2, bw, filler, NA, 999, 999, 6, 3, 129, 69, 71, 98, 188, 129, 2, 0.414597
53, 2, bw, catch, NA, 999, 999, 6, 4, 159, 156, 110, 145, 80, 115, 1, 0.963768
53, 2, bw, catch, NA, 999, 999, 6, 4, 159, 156, 110, 145, 80, 115, 3, 0.716199
53, 2, bw, attraction, a-b-db, 2, 3, 6, 5, 119, 193, 120, 195, 195, 120, 3, 1.08504
53, 2, bw, attraction, a-b-db, 2, 3, 6, 5, 119, 193, 120, 195, 195, 120, 1, 0.520753
53, 2, bw, attraction, a-b-da, 14, 3, 6, 6, 181, 111, 195, 120, 120, 195, 3, 1.26579
53, 2, bw, attraction, a-b-da, 14, 3, 6, 6, 181, 111, 195, 120, 120, 195, 1, 0.494081
53, 2, bw, attraction, a-b-da, 14, 1, 6, 7, 60, 135, 135, 60, 125, 56, 1, 0.735833
53, 2, bw, attraction, a-b-da, 14, 1, 6, 7, 60, 135, 135, 60, 125, 56, 3, 0.825698
53, 2, bw, attraction, a-b-db, 14, 3, 6, 8, 120, 195, 195, 120, 111, 181, 3, 0.95797
53, 2, bw, attraction, a-b-db, 14, 3, 6, 8, 120, 195, 195, 120, 111, 181, 1, 0.574414
53, 2, bw, attraction, a-b-da, 5, 2, 6, 9, 161, 88, 90, 165, 165, 90, 2, 1.49286
53, 2, bw, attraction, a-b-da, 5, 2, 6, 9, 161, 88, 90, 165, 165, 90, 1, 0.879622
53, 2, bw, attraction, a-b-da, 5, 3, 6, 10, 190, 117, 195, 120, 120, 195, 2, 0.489982
53, 2, bw, attraction, a-b-da, 5, 3, 6, 10, 190, 117, 195, 120, 120, 195, 1, 0.605095
53, 2, bw, attraction, a-b-da, 9, 2, 6, 11, 157, 86, 90, 165, 165, 90, 2, 0.426825
53, 2, bw, attraction, a-b-da, 9, 2, 6, 11, 157, 86, 90, 165, 165, 90, 1, 0.464608
53, 2, bw, attraction, a-b-da, 2, 2, 6, 12, 163, 89, 90, 165, 165, 90, 2, 0.427828
53, 2, bw, attraction, a-b-da, 2, 2, 6, 12, 163, 89, 90, 165, 165, 90, 1, 0.513606
53, 2, bw, attraction, a-b-db, 14, 1, 6, 13, 135, 60, 60, 135, 56, 125, 2, 0.338667
53, 2, bw, attraction, a-b-db, 14, 1, 6, 13, 135, 60, 60, 135, 56, 125, 1, 0.443928
53, 2, bw, filler, NA, 999, 999, 6, 14, 119, 117, 89, 140, 93, 130, 3, 1.07188
53, 2, bw, filler, NA, 999, 999, 6, 14, 119, 117, 89, 140, 93, 130, 2, 0.347381
53, 2, bw, attraction, a-b-da, 14, 2, 6, 15, 153, 83, 90, 165, 165, 90, 1, 1.09917
53, 2, bw, attraction, a-b-da, 14, 2, 6, 15, 153, 83, 90, 165, 165, 90, 2, 0.414169
53, 2, bw, filler, NA, 999, 999, 6, 16, 69, 189, 154, 83, 70, 159, 2, 1.33127
53, 2, bw, filler, NA, 999, 999, 6, 16, 69, 189, 154, 83, 70, 159, 3, 0.540975
53, 2, bw, filler, NA, 999, 999, 6, 17, 138, 145, 102, 174, 92, 131, 2, 0.564662
53, 2, bw, filler, NA, 999, 999, 6, 17, 138, 145, 102, 174, 92, 131, 3, 1.26114
53, 2, bw, filler, NA, 999, 999, 6, 18, 184, 164, 77, 186, 131, 162, 3, 1.03203
53, 2, bw, filler, NA, 999, 999, 6, 18, 184, 164, 77, 186, 131, 162, 2, 0.397644
53, 2, bw, catch, NA, 999, 999, 6, 19, 123, 72, 105, 150, 142, 173, 3, 1.40358
53, 2, bw, catch, NA, 999, 999, 6, 19, 123, 72, 105, 150, 142, 173, 1, 0.530391
53, 2, bw, attraction, a-b-db, 9, 3, 6, 20, 114, 186, 120, 195, 195, 120, 2, 1.14682
53, 2, bw, attraction, a-b-db, 9, 3, 6, 20, 114, 186, 120, 195, 195, 120, 1, 0.419723
53, 2, bw, filler, NA, 999, 999, 6, 21, 62, 120, 92, 64, 137, 175, 3, 0.944882
53, 2, bw, filler, NA, 999, 999, 6, 21, 62, 120, 92, 64, 137, 175, 2, 0.865924
53, 2, bw, attraction, a-b-db, 2, 2, 6, 22, 165, 90, 89, 163, 90, 165, 1, 0.724971
53, 2, bw, attraction, a-b-db, 2, 2, 6, 22, 165, 90, 89, 163, 90, 165, 3, 0.414698
53, 2, bw, attraction, a-b-da, 5, 1, 6, 23, 60, 135, 135, 60, 132, 58, 3, 1.12377
53, 2, bw, attraction, a-b-da, 5, 1, 6, 23, 60, 135, 135, 60, 132, 58, 1, 0.485432
53, 2, bw, attraction, a-b-db, 5, 3, 6, 24, 120, 195, 117, 190, 195, 120, 3, 0.719837
53, 2, bw, attraction, a-b-db, 5, 3, 6, 24, 120, 195, 117, 190, 195, 120, 2, 0.361687
53, 2, bw, attraction, a-b-db, 5, 2, 6, 25, 90, 165, 165, 90, 88, 161, 1, 0.456738
53, 2, bw, attraction, a-b-db, 5, 2, 6, 25, 90, 165, 165, 90, 88, 161, 2, 1.79729
53, 2, bw, attraction, a-b-da, 9, 1, 6, 26, 129, 57, 60, 135, 135, 60, 2, 0.698604
53, 2, bw, attraction, a-b-da, 9, 1, 6, 26, 129, 57, 60, 135, 135, 60, 3, 0.493901
53, 2, bw, attraction, a-b-db, 9, 1, 6, 27, 57, 129, 135, 60, 60, 135, 2, 0.655492
53, 2, bw, attraction, a-b-db, 9, 1, 6, 27, 57, 129, 135, 60, 60, 135, 3, 0.619941
53, 2, bw, attraction, a-b-da, 2, 3, 6, 28, 195, 120, 120, 195, 193, 119, 2, 0.528999
53, 2, bw, attraction, a-b-da, 2, 3, 6, 28, 195, 120, 120, 195, 193, 119, 1, 0.450853
53, 2, bw, filler, NA, 999, 999, 6, 29, 132, 148, 89, 91, 84, 80, 1, 0.910711
53, 2, bw, filler, NA, 999, 999, 6, 29, 132, 148, 89, 91, 84, 80, 3, 0.536996
53, 2, bw, attraction, a-b-db, 9, 2, 6, 30, 90, 165, 165, 90, 86, 157, 2, 0.793451
53, 2, bw, attraction, a-b-db, 9, 2, 6, 30, 90, 165, 165, 90, 86, 157, 1, 0.416503
53, 2, bw, filler, NA, 999, 999, 6, 31, 60, 135, 170, 84, 70, 89, 2, 0.653608
53, 2, bw, filler, NA, 999, 999, 6, 31, 60, 135, 170, 84, 70, 89, 3, 0.458072
53, 2, bw, filler, NA, 999, 999, 6, 32, 139, 61, 132, 79, 156, 84, 2, 0.517206
53, 2, bw, filler, NA, 999, 999, 6, 32, 139, 61, 132, 79, 156, 84, 1, 0.999859
53, 2, bw, attraction, a-b-da, 2, 1, 6, 33, 60, 135, 134, 59, 135, 60, 1, 0.749328
53, 2, bw, attraction, a-b-da, 2, 1, 6, 33, 60, 135, 134, 59, 135, 60, 2, 0.702814
53, 2, bw, filler, NA, 999, 999, 6, 34, 195, 173, 125, 117, 57, 69, 1, 1.27206
53, 2, bw, filler, NA, 999, 999, 6, 34, 195, 173, 125, 117, 57, 69, 3, 0.699742
53, 2, bw, attraction, a-b-da, 9, 3, 6, 35, 120, 195, 186, 114, 195, 120, 1, 0.757534
53, 2, bw, attraction, a-b-da, 9, 3, 6, 35, 120, 195, 186, 114, 195, 120, 3, 0.509993
53, 2, bw, attraction, a-b-db, 5, 1, 6, 36, 60, 135, 135, 60, 58, 132, 2, 0.806921
53, 2, bw, attraction, a-b-db, 5, 1, 6, 36, 60, 135, 135, 60, 58, 132, 1, 0.445312
53, 2, bw, attraction, a-b-db, 2, 1, 6, 37, 59, 134, 60, 135, 135, 60, 1, 0.929092
53, 2, bw, attraction, a-b-db, 2, 1, 6, 37, 59, 134, 60, 135, 135, 60, 2, 0.802826
53, 2, bw, filler, NA, 999, 999, 7, 1, 130, 130, 175, 163, 181, 151, 2, 0.680437
53, 2, bw, filler, NA, 999, 999, 7, 1, 130, 130, 175, 163, 181, 151, 1, 0.372225
53, 2, bw, attraction, a-b-db, 5, 2, 7, 2, 90, 165, 165, 90, 88, 161, 2, 0.611517
53, 2, bw, attraction, a-b-db, 5, 2, 7, 2, 90, 165, 165, 90, 88, 161, 1, 0.378063
53, 2, bw, filler, NA, 999, 999, 7, 3, 136, 175, 136, 61, 90, 136, 1, 0.904352
53, 2, bw, filler, NA, 999, 999, 7, 3, 136, 175, 136, 61, 90, 136, 2, 0.442652
53, 2, bw, filler, NA, 999, 999, 7, 4, 66, 158, 69, 81, 171, 148, 3, 1.03856
53, 2, bw, filler, NA, 999, 999, 7, 4, 66, 158, 69, 81, 171, 148, 2, 0.371544
53, 2, bw, attraction, a-b-db, 5, 3, 7, 5, 120, 195, 195, 120, 117, 190, 1, 0.930638
53, 2, bw, attraction, a-b-db, 5, 3, 7, 5, 120, 195, 195, 120, 117, 190, 2, 0.356321
53, 2, bw, attraction, a-b-db, 14, 2, 7, 6, 83, 153, 165, 90, 90, 165, 1, 1.04348
53, 2, bw, attraction, a-b-db, 14, 2, 7, 6, 83, 153, 165, 90, 90, 165, 2, 0.408406
53, 2, bw, filler, NA, 999, 999, 7, 7, 132, 95, 158, 129, 56, 91, 2, 0.781538
53, 2, bw, filler, NA, 999, 999, 7, 7, 132, 95, 158, 129, 56, 91, 3, 0.557336
53, 2, bw, attraction, a-b-da, 9, 2, 7, 8, 90, 165, 165, 90, 157, 86, 3, 1.10041
53, 2, bw, attraction, a-b-da, 9, 2, 7, 8, 90, 165, 165, 90, 157, 86, 2, 0.383422
53, 2, bw, attraction, a-b-db, 14, 3, 7, 9, 195, 120, 111, 181, 120, 195, 3, 0.909873
53, 2, bw, attraction, a-b-db, 14, 3, 7, 9, 195, 120, 111, 181, 120, 195, 2, 0.394453
53, 2, bw, attraction, a-b-da, 9, 3, 7, 10, 186, 114, 120, 195, 195, 120, 1, 0.597996
53, 2, bw, attraction, a-b-da, 9, 3, 7, 10, 186, 114, 120, 195, 195, 120, 2, 0.421169
53, 2, bw, attraction, a-b-db, 14, 1, 7, 11, 135, 60, 60, 135, 56, 125, 3, 1.61231
53, 2, bw, attraction, a-b-db, 14, 1, 7, 11, 135, 60, 60, 135, 56, 125, 1, 1.1285
53, 2, bw, catch, NA, 999, 999, 7, 12, 127, 128, 125, 70, 167, 148, 3, 0.576644
53, 2, bw, catch, NA, 999, 999, 7, 12, 127, 128, 125, 70, 167, 148, 2, 0.664505
53, 2, bw, filler, NA, 999, 999, 7, 13, 182, 122, 120, 133, 167, 84, 1, 1.2596
53, 2, bw, filler, NA, 999, 999, 7, 13, 182, 122, 120, 133, 167, 84, 2, 0.527962
53, 2, bw, attraction, a-b-db, 9, 2, 7, 14, 90, 165, 86, 157, 165, 90, 3, 1.00032
53, 2, bw, attraction, a-b-db, 9, 2, 7, 14, 90, 165, 86, 157, 165, 90, 1, 0.423227
53, 2, bw, attraction, a-b-db, 2, 2, 7, 15, 90, 165, 165, 90, 89, 163, 3, 1.17171
53, 2, bw, attraction, a-b-db, 2, 2, 7, 15, 90, 165, 165, 90, 89, 163, 2, 0.307413
53, 2, bw, filler, NA, 999, 999, 7, 16, 171, 85, 69, 72, 103, 73, 1, 1.1405
53, 2, bw, filler, NA, 999, 999, 7, 16, 171, 85, 69, 72, 103, 73, 2, 0.46948
53, 2, bw, attraction, a-b-db, 5, 1, 7, 17, 60, 135, 58, 132, 135, 60, 3, 0.720691
53, 2, bw, attraction, a-b-db, 5, 1, 7, 17, 60, 135, 58, 132, 135, 60, 1, 0.554344
53, 2, bw, filler, NA, 999, 999, 7, 18, 139, 147, 156, 114, 132, 185, 3, 1.04226
53, 2, bw, filler, NA, 999, 999, 7, 18, 139, 147, 156, 114, 132, 185, 2, 0.591154
53, 2, bw, attraction, a-b-da, 9, 1, 7, 19, 135, 60, 129, 57, 60, 135, 3, 0.828879
53, 2, bw, attraction, a-b-da, 9, 1, 7, 19, 135, 60, 129, 57, 60, 135, 1, 0.54656
53, 2, bw, attraction, a-b-da, 5, 3, 7, 20, 195, 120, 120, 195, 190, 117, 3, 0.570454
53, 2, bw, attraction, a-b-da, 5, 3, 7, 20, 195, 120, 120, 195, 190, 117, 2, 0.762264
53, 2, bw, attraction, a-b-da, 14, 3, 7, 21, 120, 195, 181, 111, 195, 120, 1, 0.945171
53, 2, bw, attraction, a-b-da, 14, 3, 7, 21, 120, 195, 181, 111, 195, 120, 2, 0.490206
53, 2, bw, catch, NA, 999, 999, 7, 22, 105, 90, 135, 180, 107, 148, 2, 0.77193
53, 2, bw, catch, NA, 999, 999, 7, 22, 105, 90, 135, 180, 107, 148, 1, 0.419746
53, 2, bw, attraction, a-b-da, 14, 1, 7, 23, 60, 135, 125, 56, 135, 60, 1, 0.752801
53, 2, bw, attraction, a-b-da, 14, 1, 7, 23, 60, 135, 125, 56, 135, 60, 2, 0.401281
53, 2, bw, attraction, a-b-da, 5, 1, 7, 24, 132, 58, 135, 60, 60, 135, 1, 0.647012
53, 2, bw, attraction, a-b-da, 5, 1, 7, 24, 132, 58, 135, 60, 60, 135, 2, 0.452137
53, 2, bw, attraction, a-b-da, 5, 2, 7, 25, 165, 90, 161, 88, 90, 165, 2, 1.15194
53, 2, bw, attraction, a-b-da, 5, 2, 7, 25, 165, 90, 161, 88, 90, 165, 1, 1.08901
53, 2, bw, attraction, a-b-db, 2, 1, 7, 26, 135, 60, 60, 135, 59, 134, 1, 0.883087
53, 2, bw, attraction, a-b-db, 2, 1, 7, 26, 135, 60, 60, 135, 59, 134, 2, 0.494879
53, 2, bw, filler, NA, 999, 999, 7, 27, 184, 155, 160, 144, 190, 96, 2, 0.872624
53, 2, bw, filler, NA, 999, 999, 7, 27, 184, 155, 160, 144, 190, 96, 3, 0.436405
53, 2, bw, filler, NA, 999, 999, 7, 28, 175, 71, 72, 161, 88, 120, 2, 0.800806
53, 2, bw, filler, NA, 999, 999, 7, 28, 175, 71, 72, 161, 88, 120, 3, 0.623867
53, 2, bw, catch, NA, 999, 999, 7, 29, 164, 151, 108, 87, 140, 115, 1, 0.644312
53, 2, bw, catch, NA, 999, 999, 7, 29, 164, 151, 108, 87, 140, 115, 2, 0.657416
53, 2, bw, attraction, a-b-db, 9, 3, 7, 30, 114, 186, 120, 195, 195, 120, 2, 0.636573
53, 2, bw, attraction, a-b-db, 9, 3, 7, 30, 114, 186, 120, 195, 195, 120, 1, 0.402216
53, 2, bw, attraction, a-b-da, 2, 1, 7, 31, 134, 59, 60, 135, 135, 60, 2, 0.856088
53, 2, bw, attraction, a-b-da, 2, 1, 7, 31, 134, 59, 60, 135, 135, 60, 1, 0.716437
53, 2, bw, attraction, a-b-da, 2, 3, 7, 32, 193, 119, 195, 120, 120, 195, 2, 0.525558
53, 2, bw, attraction, a-b-da, 2, 3, 7, 32, 193, 119, 195, 120, 120, 195, 1, 0.423321
53, 2, bw, attraction, a-b-db, 9, 1, 7, 33, 135, 60, 57, 129, 60, 135, 2, 1.1638
53, 2, bw, attraction, a-b-db, 9, 1, 7, 33, 135, 60, 57, 129, 60, 135, 1, 0.444062
53, 2, bw, attraction, a-b-da, 2, 2, 7, 34, 90, 165, 165, 90, 163, 89, 2, 0.551856
53, 2, bw, attraction, a-b-da, 2, 2, 7, 34, 90, 165, 165, 90, 163, 89, 1, 0.377041
53, 2, bw, attraction, a-b-db, 2, 3, 7, 35, 195, 120, 120, 195, 119, 193, 2, 0.591467
53, 2, bw, attraction, a-b-db, 2, 3, 7, 35, 195, 120, 120, 195, 119, 193, 1, 1.53458
53, 2, bw, filler, NA, 999, 999, 7, 36, 88, 57, 120, 135, 118, 107, 2, 1.31074
53, 2, bw, filler, NA, 999, 999, 7, 36, 88, 57, 120, 135, 118, 107, 1, 0.593811
53, 2, bw, attraction, a-b-da, 14, 2, 7, 37, 90, 165, 153, 83, 165, 90, 2, 0.566678
53, 2, bw, attraction, a-b-da, 14, 2, 7, 37, 90, 165, 153, 83, 165, 90, 1, 0.404174
53, 2, bw, filler, NA, 999, 999, 8, 1, 192, 179, 163, 118, 117, 138, 1, 1.05681
53, 2, bw, filler, NA, 999, 999, 8, 1, 192, 179, 163, 118, 117, 138, 3, 0.593367
53, 2, bw, attraction, a-b-db, 14, 3, 8, 2, 195, 120, 111, 181, 120, 195, 3, 1.12707
53, 2, bw, attraction, a-b-db, 14, 3, 8, 2, 195, 120, 111, 181, 120, 195, 1, 0.568637
53, 2, bw, catch, NA, 999, 999, 8, 3, 154, 101, 88, 107, 152, 163, 3, 1.27992
53, 2, bw, catch, NA, 999, 999, 8, 3, 154, 101, 88, 107, 152, 163, 2, 0.355433
53, 2, bw, attraction, a-b-da, 2, 2, 8, 4, 90, 165, 165, 90, 163, 89, 1, 0.763202
53, 2, bw, attraction, a-b-da, 2, 2, 8, 4, 90, 165, 165, 90, 163, 89, 3, 0.47561
53, 2, bw, attraction, a-b-da, 14, 1, 8, 5, 60, 135, 125, 56, 135, 60, 2, 0.534046
53, 2, bw, attraction, a-b-da, 14, 1, 8, 5, 60, 135, 125, 56, 135, 60, 1, 0.519868
53, 2, bw, attraction, a-b-da, 14, 3, 8, 6, 120, 195, 195, 120, 181, 111, 2, 0.633099
53, 2, bw, attraction, a-b-da, 14, 3, 8, 6, 120, 195, 195, 120, 181, 111, 1, 0.358799
53, 2, bw, attraction, a-b-da, 14, 2, 8, 7, 165, 90, 153, 83, 90, 165, 2, 0.677846
53, 2, bw, attraction, a-b-da, 14, 2, 8, 7, 165, 90, 153, 83, 90, 165, 3, 0.433631
53, 2, bw, attraction, a-b-da, 9, 1, 8, 8, 60, 135, 129, 57, 135, 60, 2, 0.5022
53, 2, bw, attraction, a-b-da, 9, 1, 8, 8, 60, 135, 129, 57, 135, 60, 1, 0.164505
53, 2, bw, filler, NA, 999, 999, 8, 9, 147, 104, 80, 130, 59, 181, 2, 0.688451
53, 2, bw, filler, NA, 999, 999, 8, 9, 147, 104, 80, 130, 59, 181, 1, 0.331552
53, 2, bw, filler, NA, 999, 999, 8, 10, 174, 160, 113, 157, 102, 172, 2, 0.324015
53, 2, bw, filler, NA, 999, 999, 8, 10, 174, 160, 113, 157, 102, 172, 1, 0.974044
53, 2, bw, attraction, a-b-db, 2, 3, 8, 11, 195, 120, 120, 195, 119, 193, 2, 1.97139
53, 2, bw, attraction, a-b-db, 2, 3, 8, 11, 195, 120, 120, 195, 119, 193, 1, 0.427559
53, 2, bw, catch, NA, 999, 999, 8, 12, 107, 88, 129, 126, 179, 136, 3, 1.08006
53, 2, bw, catch, NA, 999, 999, 8, 12, 107, 88, 129, 126, 179, 136, 1, 0.39581
53, 2, bw, attraction, a-b-da, 5, 3, 8, 13, 190, 117, 195, 120, 120, 195, 3, 0.58553
53, 2, bw, attraction, a-b-da, 5, 3, 8, 13, 190, 117, 195, 120, 120, 195, 1, 0.361261
53, 2, bw, attraction, a-b-db, 5, 2, 8, 14, 165, 90, 88, 161, 90, 165, 2, 0.632578
53, 2, bw, attraction, a-b-db, 5, 2, 8, 14, 165, 90, 88, 161, 90, 165, 1, 0.430376
53, 2, bw, attraction, a-b-db, 5, 3, 8, 15, 117, 190, 120, 195, 195, 120, 2, 0.52276
53, 2, bw, attraction, a-b-db, 5, 3, 8, 15, 117, 190, 120, 195, 195, 120, 1, 0.428554
53, 2, bw, attraction, a-b-da, 5, 2, 8, 16, 165, 90, 161, 88, 90, 165, 2, 0.497035
53, 2, bw, attraction, a-b-da, 5, 2, 8, 16, 165, 90, 161, 88, 90, 165, 3, 0.428268
53, 2, bw, attraction, a-b-da, 2, 1, 8, 17, 135, 60, 134, 59, 60, 135, 2, 0.592739
53, 2, bw, attraction, a-b-da, 2, 1, 8, 17, 135, 60, 134, 59, 60, 135, 3, 0.391846
53, 2, bw, filler, NA, 999, 999, 8, 18, 159, 66, 140, 163, 59, 174, 2, 0.46167
53, 2, bw, filler, NA, 999, 999, 8, 18, 159, 66, 140, 163, 59, 174, 1, 0.442159
53, 2, bw, attraction, a-b-da, 2, 3, 8, 19, 193, 119, 120, 195, 195, 120, 3, 1.11795
53, 2, bw, attraction, a-b-da, 2, 3, 8, 19, 193, 119, 120, 195, 195, 120, 2, 0.360251
53, 2, bw, attraction, a-b-db, 9, 1, 8, 20, 57, 129, 135, 60, 60, 135, 1, 0.799293
53, 2, bw, attraction, a-b-db, 9, 1, 8, 20, 57, 129, 135, 60, 60, 135, 2, 0.374327
53, 2, bw, attraction, a-b-da, 9, 3, 8, 21, 120, 195, 186, 114, 195, 120, 1, 0.876968
53, 2, bw, attraction, a-b-da, 9, 3, 8, 21, 120, 195, 186, 114, 195, 120, 2, 0.616538
53, 2, bw, attraction, a-b-db, 2, 1, 8, 22, 135, 60, 60, 135, 59, 134, 2, 0.675879
53, 2, bw, attraction, a-b-db, 2, 1, 8, 22, 135, 60, 60, 135, 59, 134, 1, 1.02668
53, 2, bw, attraction, a-b-db, 2, 2, 8, 23, 165, 90, 89, 163, 90, 165, 3, 1.88576
53, 2, bw, attraction, a-b-db, 2, 2, 8, 23, 165, 90, 89, 163, 90, 165, 1, 0.409044
53, 2, bw, filler, NA, 999, 999, 8, 24, 85, 148, 77, 167, 138, 65, 2, 0.678282
53, 2, bw, filler, NA, 999, 999, 8, 24, 85, 148, 77, 167, 138, 65, 3, 0.922132
53, 2, bw, attraction, a-b-db, 9, 3, 8, 25, 114, 186, 120, 195, 195, 120, 1, 0.579055
53, 2, bw, attraction, a-b-db, 9, 3, 8, 25, 114, 186, 120, 195, 195, 120, 3, 0.41883
53, 2, bw, attraction, a-b-da, 5, 1, 8, 26, 135, 60, 132, 58, 60, 135, 2, 0.503956
53, 2, bw, attraction, a-b-da, 5, 1, 8, 26, 135, 60, 132, 58, 60, 135, 1, 0.362499
53, 2, bw, attraction, a-b-db, 9, 2, 8, 27, 86, 157, 90, 165, 165, 90, 2, 0.497643
53, 2, bw, attraction, a-b-db, 9, 2, 8, 27, 86, 157, 90, 165, 165, 90, 3, 0.348824
53, 2, bw, filler, NA, 999, 999, 8, 28, 109, 90, 190, 146, 118, 178, 2, 0.604588
53, 2, bw, filler, NA, 999, 999, 8, 28, 109, 90, 190, 146, 118, 178, 1, 0.419017
53, 2, bw, filler, NA, 999, 999, 8, 29, 60, 60, 67, 185, 67, 170, 2, 0.728176
53, 2, bw, filler, NA, 999, 999, 8, 29, 60, 60, 67, 185, 67, 170, 1, 0.450083
53, 2, bw, filler, NA, 999, 999, 8, 30, 74, 190, 113, 73, 156, 164, 1, 0.685711
53, 2, bw, filler, NA, 999, 999, 8, 30, 74, 190, 113, 73, 156, 164, 2, 0.401492
53, 2, bw, filler, NA, 999, 999, 8, 31, 162, 107, 193, 77, 186, 192, 3, 0.791322
53, 2, bw, filler, NA, 999, 999, 8, 31, 162, 107, 193, 77, 186, 192, 2, 0.374448
53, 2, bw, catch, NA, 999, 999, 8, 32, 139, 116, 158, 157, 122, 73, 2, 0.92484
53, 2, bw, catch, NA, 999, 999, 8, 32, 139, 116, 158, 157, 122, 73, 3, 0.430655
53, 2, bw, attraction, a-b-db, 14, 1, 8, 33, 60, 135, 56, 125, 135, 60, 3, 1.12306
53, 2, bw, attraction, a-b-db, 14, 1, 8, 33, 60, 135, 56, 125, 135, 60, 2, 0.388559
53, 2, bw, attraction, a-b-da, 9, 2, 8, 34, 157, 86, 165, 90, 90, 165, 1, 0.547059
53, 2, bw, attraction, a-b-da, 9, 2, 8, 34, 157, 86, 165, 90, 90, 165, 2, 0.444242
53, 2, bw, filler, NA, 999, 999, 8, 35, 57, 150, 109, 71, 177, 163, 3, 1.24802
53, 2, bw, filler, NA, 999, 999, 8, 35, 57, 150, 109, 71, 177, 163, 2, 0.629019
53, 2, bw, attraction, a-b-db, 5, 1, 8, 36, 60, 135, 135, 60, 58, 132, 3, 0.761341
53, 2, bw, attraction, a-b-db, 5, 1, 8, 36, 60, 135, 135, 60, 58, 132, 2, 0.393785
53, 2, bw, attraction, a-b-db, 14, 2, 8, 37, 90, 165, 83, 153, 165, 90, 1, 0.999633
53, 2, bw, attraction, a-b-db, 14, 2, 8, 37, 90, 165, 83, 153, 165, 90, 3, 0.998664
