sub_n, computer_n, bw_cond, effect, set, distance, diag, block_n, trial_n, h1, w1, h2, w2, h3, w3, choice, rt 
64, 2, wb, practice, NA, 999, 999, 0, 1, 171, 67, 77, 112, 128, 84, 2, 7.33287
64, 2, wb, practice, NA, 999, 999, 0, 1, 171, 67, 77, 112, 128, 84, 1, 4.81198
64, 2, wb, practice, NA, 999, 999, 0, 2, 102, 139, 58, 88, 93, 102, 2, 3.07026
64, 2, wb, practice, NA, 999, 999, 0, 2, 102, 139, 58, 88, 93, 102, 1, 1.85889
64, 2, wb, practice, NA, 999, 999, 0, 3, 103, 92, 164, 119, 81, 82, 3, 2.3638
64, 2, wb, practice, NA, 999, 999, 0, 3, 103, 92, 164, 119, 81, 82, 2, 3.08139
64, 2, wb, catch, NA, 999, 999, 1, 1, 121, 194, 66, 129, 164, 91, 2, 2.38026
64, 2, wb, catch, NA, 999, 999, 1, 1, 121, 194, 66, 129, 164, 91, 1, 1.13959
64, 2, wb, filler, NA, 999, 999, 1, 2, 111, 70, 111, 151, 139, 99, 1, 1.4191
64, 2, wb, filler, NA, 999, 999, 1, 2, 111, 70, 111, 151, 139, 99, 2, 0.905244
64, 2, wb, attraction, a-b-da, 5, 1, 1, 3, 135, 60, 132, 58, 60, 135, 2, 5.56298
64, 2, wb, attraction, a-b-da, 5, 1, 1, 3, 135, 60, 132, 58, 60, 135, 3, 1.15386
64, 2, wb, filler, NA, 999, 999, 1, 4, 146, 174, 62, 61, 141, 156, 2, 1.01736
64, 2, wb, filler, NA, 999, 999, 1, 4, 146, 174, 62, 61, 141, 156, 1, 0.927735
64, 2, wb, attraction, a-b-da, 14, 1, 1, 5, 60, 135, 125, 56, 135, 60, 2, 6.91201
64, 2, wb, attraction, a-b-da, 14, 1, 1, 5, 60, 135, 125, 56, 135, 60, 3, 1.04064
64, 2, wb, filler, NA, 999, 999, 1, 6, 74, 104, 137, 184, 192, 162, 1, 1.18823
64, 2, wb, filler, NA, 999, 999, 1, 6, 74, 104, 137, 184, 192, 162, 3, 2.63524
64, 2, wb, attraction, a-b-da, 14, 3, 1, 7, 195, 120, 120, 195, 181, 111, 3, 4.50288
64, 2, wb, attraction, a-b-da, 14, 3, 1, 7, 195, 120, 120, 195, 181, 111, 2, 1.43275
64, 2, wb, attraction, a-b-da, 5, 2, 1, 8, 161, 88, 165, 90, 90, 165, 1, 3.13294
64, 2, wb, attraction, a-b-da, 5, 2, 1, 8, 161, 88, 165, 90, 90, 165, 3, 1.35784
64, 2, wb, attraction, a-b-db, 14, 2, 1, 9, 83, 153, 165, 90, 90, 165, 1, 3.3407
64, 2, wb, attraction, a-b-db, 14, 2, 1, 9, 83, 153, 165, 90, 90, 165, 3, 0.468972
64, 2, wb, filler, NA, 999, 999, 1, 10, 180, 159, 163, 125, 152, 72, 3, 1.3682
64, 2, wb, filler, NA, 999, 999, 1, 10, 180, 159, 163, 125, 152, 72, 1, 1.05643
64, 2, wb, attraction, a-b-da, 2, 3, 1, 11, 195, 120, 193, 119, 120, 195, 1, 5.71529
64, 2, wb, attraction, a-b-da, 2, 3, 1, 11, 195, 120, 193, 119, 120, 195, 3, 0.892149
64, 2, wb, catch, NA, 999, 999, 1, 12, 138, 117, 125, 190, 67, 128, 3, 1.03779
64, 2, wb, catch, NA, 999, 999, 1, 12, 138, 117, 125, 190, 67, 128, 2, 0.738714
64, 2, wb, attraction, a-b-db, 14, 3, 1, 13, 120, 195, 195, 120, 111, 181, 2, 3.81914
64, 2, wb, attraction, a-b-db, 14, 3, 1, 13, 120, 195, 195, 120, 111, 181, 1, 1.22453
64, 2, wb, attraction, a-b-da, 9, 2, 1, 14, 157, 86, 90, 165, 165, 90, 1, 3.48484
64, 2, wb, attraction, a-b-da, 9, 2, 1, 14, 157, 86, 90, 165, 165, 90, 2, 0.711673
64, 2, wb, attraction, a-b-db, 2, 1, 1, 15, 59, 134, 135, 60, 60, 135, 2, 2.31271
64, 2, wb, attraction, a-b-db, 2, 1, 1, 15, 59, 134, 135, 60, 60, 135, 3, 1.05866
64, 2, wb, attraction, a-b-db, 2, 2, 1, 16, 89, 163, 90, 165, 165, 90, 3, 2.70972
64, 2, wb, attraction, a-b-db, 2, 2, 1, 16, 89, 163, 90, 165, 165, 90, 2, 0.599448
64, 2, wb, attraction, a-b-da, 14, 2, 1, 17, 153, 83, 165, 90, 90, 165, 1, 2.39715
64, 2, wb, attraction, a-b-da, 14, 2, 1, 17, 153, 83, 165, 90, 90, 165, 3, 0.47579
64, 2, wb, filler, NA, 999, 999, 1, 18, 159, 159, 195, 148, 177, 165, 1, 2.82229
64, 2, wb, filler, NA, 999, 999, 1, 18, 159, 159, 195, 148, 177, 165, 3, 2.65136
64, 2, wb, filler, NA, 999, 999, 1, 19, 80, 63, 142, 193, 156, 131, 1, 1.23051
64, 2, wb, filler, NA, 999, 999, 1, 19, 80, 63, 142, 193, 156, 131, 2, 0.732015
64, 2, wb, filler, NA, 999, 999, 1, 20, 190, 152, 127, 63, 107, 130, 2, 1.48447
64, 2, wb, filler, NA, 999, 999, 1, 20, 190, 152, 127, 63, 107, 130, 1, 3.60781
64, 2, wb, attraction, a-b-da, 2, 2, 1, 21, 90, 165, 163, 89, 165, 90, 2, 5.42815
64, 2, wb, attraction, a-b-da, 2, 2, 1, 21, 90, 165, 163, 89, 165, 90, 1, 3.6323
64, 2, wb, filler, NA, 999, 999, 1, 22, 176, 97, 72, 124, 57, 76, 3, 1.01977
64, 2, wb, filler, NA, 999, 999, 1, 22, 176, 97, 72, 124, 57, 76, 1, 0.554072
64, 2, wb, attraction, a-b-db, 9, 3, 1, 23, 195, 120, 120, 195, 114, 186, 1, 2.04182
64, 2, wb, attraction, a-b-db, 9, 3, 1, 23, 195, 120, 120, 195, 114, 186, 2, 0.598608
64, 2, wb, attraction, a-b-db, 5, 1, 1, 24, 60, 135, 135, 60, 58, 132, 2, 3.94834
64, 2, wb, attraction, a-b-db, 5, 1, 1, 24, 60, 135, 135, 60, 58, 132, 1, 0.54036
64, 2, wb, attraction, a-b-db, 2, 3, 1, 25, 119, 193, 195, 120, 120, 195, 2, 4.01212
64, 2, wb, attraction, a-b-db, 2, 3, 1, 25, 119, 193, 195, 120, 120, 195, 3, 1.12944
64, 2, wb, attraction, a-b-db, 9, 2, 1, 26, 165, 90, 90, 165, 86, 157, 1, 3.25789
64, 2, wb, attraction, a-b-db, 9, 2, 1, 26, 165, 90, 90, 165, 86, 157, 2, 0.565408
64, 2, wb, filler, NA, 999, 999, 1, 27, 140, 92, 193, 150, 190, 183, 1, 1.26859
64, 2, wb, filler, NA, 999, 999, 1, 27, 140, 92, 193, 150, 190, 183, 3, 0.536759
64, 2, wb, attraction, a-b-db, 9, 1, 1, 28, 135, 60, 57, 129, 60, 135, 1, 1.56914
64, 2, wb, attraction, a-b-db, 9, 1, 1, 28, 135, 60, 57, 129, 60, 135, 3, 2.75338
64, 2, wb, attraction, a-b-db, 14, 1, 1, 29, 135, 60, 60, 135, 56, 125, 1, 2.40849
64, 2, wb, attraction, a-b-db, 14, 1, 1, 29, 135, 60, 60, 135, 56, 125, 2, 1.35043
64, 2, wb, attraction, a-b-da, 5, 3, 1, 30, 120, 195, 190, 117, 195, 120, 2, 4.80587
64, 2, wb, attraction, a-b-da, 5, 3, 1, 30, 120, 195, 190, 117, 195, 120, 1, 0.914918
64, 2, wb, catch, NA, 999, 999, 1, 31, 165, 90, 127, 188, 113, 82, 3, 1.25202
64, 2, wb, catch, NA, 999, 999, 1, 31, 165, 90, 127, 188, 113, 82, 2, 0.704817
64, 2, wb, attraction, a-b-da, 9, 1, 1, 32, 135, 60, 129, 57, 60, 135, 2, 2.17861
64, 2, wb, attraction, a-b-da, 9, 1, 1, 32, 135, 60, 129, 57, 60, 135, 3, 0.849834
64, 2, wb, attraction, a-b-da, 9, 3, 1, 33, 195, 120, 186, 114, 120, 195, 1, 2.4135
64, 2, wb, attraction, a-b-da, 9, 3, 1, 33, 195, 120, 186, 114, 120, 195, 3, 0.483437
64, 2, wb, attraction, a-b-da, 2, 1, 1, 34, 60, 135, 134, 59, 135, 60, 3, 2.14994
64, 2, wb, attraction, a-b-da, 2, 1, 1, 34, 60, 135, 134, 59, 135, 60, 1, 0.590444
64, 2, wb, attraction, a-b-db, 5, 2, 1, 35, 90, 165, 165, 90, 88, 161, 2, 2.4443
64, 2, wb, attraction, a-b-db, 5, 2, 1, 35, 90, 165, 165, 90, 88, 161, 3, 0.48079
64, 2, wb, attraction, a-b-db, 5, 3, 1, 36, 195, 120, 117, 190, 120, 195, 1, 1.93927
64, 2, wb, attraction, a-b-db, 5, 3, 1, 36, 195, 120, 117, 190, 120, 195, 2, 0.812014
64, 2, wb, filler, NA, 999, 999, 1, 37, 123, 140, 133, 105, 109, 119, 3, 3.28898
64, 2, wb, filler, NA, 999, 999, 1, 37, 123, 140, 133, 105, 109, 119, 1, 3.49126
64, 2, wb, attraction, a-b-da, 14, 1, 2, 1, 135, 60, 60, 135, 125, 56, 3, 2.00411
64, 2, wb, attraction, a-b-da, 14, 1, 2, 1, 135, 60, 60, 135, 125, 56, 2, 1.71418
64, 2, wb, attraction, a-b-da, 2, 1, 2, 2, 60, 135, 135, 60, 134, 59, 1, 2.49885
64, 2, wb, attraction, a-b-da, 2, 1, 2, 2, 60, 135, 135, 60, 134, 59, 2, 0.725452
64, 2, wb, attraction, a-b-db, 9, 3, 2, 3, 114, 186, 195, 120, 120, 195, 1, 2.82185
64, 2, wb, attraction, a-b-db, 9, 3, 2, 3, 114, 186, 195, 120, 120, 195, 3, 0.674854
64, 2, wb, filler, NA, 999, 999, 2, 4, 173, 147, 120, 95, 178, 181, 2, 2.29343
64, 2, wb, filler, NA, 999, 999, 2, 4, 173, 147, 120, 95, 178, 181, 3, 0.711801
64, 2, wb, attraction, a-b-db, 9, 2, 2, 5, 86, 157, 90, 165, 165, 90, 1, 3.77687
64, 2, wb, attraction, a-b-db, 9, 2, 2, 5, 86, 157, 90, 165, 165, 90, 2, 0.607621
64, 2, wb, filler, NA, 999, 999, 2, 6, 157, 132, 91, 63, 161, 159, 2, 1.00481
64, 2, wb, filler, NA, 999, 999, 2, 6, 157, 132, 91, 63, 161, 159, 3, 0.483107
64, 2, wb, filler, NA, 999, 999, 2, 7, 109, 102, 58, 137, 56, 158, 2, 5.67759
64, 2, wb, filler, NA, 999, 999, 2, 7, 109, 102, 58, 137, 56, 158, 1, 0.615745
64, 2, wb, attraction, a-b-db, 14, 1, 2, 8, 56, 125, 60, 135, 135, 60, 1, 2.74098
64, 2, wb, attraction, a-b-db, 14, 1, 2, 8, 56, 125, 60, 135, 135, 60, 2, 0.477263
64, 2, wb, filler, NA, 999, 999, 2, 9, 146, 137, 130, 144, 150, 107, 3, 1.68776
64, 2, wb, filler, NA, 999, 999, 2, 9, 146, 137, 130, 144, 150, 107, 2, 3.07451
64, 2, wb, attraction, a-b-da, 5, 2, 2, 10, 161, 88, 90, 165, 165, 90, 1, 3.11623
64, 2, wb, attraction, a-b-da, 5, 2, 2, 10, 161, 88, 90, 165, 165, 90, 2, 0.645852
64, 2, wb, attraction, a-b-da, 2, 2, 2, 11, 90, 165, 163, 89, 165, 90, 1, 7.5296
64, 2, wb, attraction, a-b-da, 2, 2, 2, 11, 90, 165, 163, 89, 165, 90, 3, 0.881239
64, 2, wb, attraction, a-b-da, 9, 1, 2, 12, 129, 57, 60, 135, 135, 60, 1, 2.85945
64, 2, wb, attraction, a-b-da, 9, 1, 2, 12, 129, 57, 60, 135, 135, 60, 2, 0.983307
64, 2, wb, filler, NA, 999, 999, 2, 13, 110, 184, 169, 79, 149, 132, 2, 1.48563
64, 2, wb, filler, NA, 999, 999, 2, 13, 110, 184, 169, 79, 149, 132, 1, 2.01705
64, 2, wb, attraction, a-b-da, 9, 2, 2, 14, 157, 86, 90, 165, 165, 90, 1, 2.4778
64, 2, wb, attraction, a-b-da, 9, 2, 2, 14, 157, 86, 90, 165, 165, 90, 2, 0.528945
64, 2, wb, attraction, a-b-da, 9, 3, 2, 15, 186, 114, 120, 195, 195, 120, 1, 1.53731
64, 2, wb, attraction, a-b-da, 9, 3, 2, 15, 186, 114, 120, 195, 195, 120, 2, 0.874859
64, 2, wb, attraction, a-b-db, 5, 1, 2, 16, 60, 135, 135, 60, 58, 132, 2, 2.67731
64, 2, wb, attraction, a-b-db, 5, 1, 2, 16, 60, 135, 135, 60, 58, 132, 1, 0.528293
64, 2, wb, catch, NA, 999, 999, 2, 17, 98, 97, 101, 154, 154, 161, 1, 2.12076
64, 2, wb, catch, NA, 999, 999, 2, 17, 98, 97, 101, 154, 154, 161, 3, 0.530701
64, 2, wb, attraction, a-b-da, 14, 3, 2, 18, 181, 111, 120, 195, 195, 120, 1, 6.99517
64, 2, wb, attraction, a-b-da, 14, 3, 2, 18, 181, 111, 120, 195, 195, 120, 3, 2.32838
64, 2, wb, attraction, a-b-db, 9, 1, 2, 19, 135, 60, 57, 129, 60, 135, 2, 1.98419
64, 2, wb, attraction, a-b-db, 9, 1, 2, 19, 135, 60, 57, 129, 60, 135, 3, 1.17552
64, 2, wb, filler, NA, 999, 999, 2, 20, 122, 175, 84, 56, 77, 96, 2, 1.32596
64, 2, wb, filler, NA, 999, 999, 2, 20, 122, 175, 84, 56, 77, 96, 1, 1.01534
64, 2, wb, catch, NA, 999, 999, 2, 21, 175, 140, 125, 70, 135, 120, 2, 1.42025
64, 2, wb, catch, NA, 999, 999, 2, 21, 175, 140, 125, 70, 135, 120, 1, 1.79443
64, 2, wb, attraction, a-b-da, 2, 3, 2, 22, 120, 195, 195, 120, 193, 119, 1, 3.06388
64, 2, wb, attraction, a-b-da, 2, 3, 2, 22, 120, 195, 195, 120, 193, 119, 3, 1.67551
64, 2, wb, attraction, a-b-da, 14, 2, 2, 23, 165, 90, 153, 83, 90, 165, 1, 6.07772
64, 2, wb, attraction, a-b-da, 14, 2, 2, 23, 165, 90, 153, 83, 90, 165, 3, 0.559681
64, 2, wb, filler, NA, 999, 999, 2, 24, 60, 95, 163, 116, 166, 141, 1, 0.702857
64, 2, wb, filler, NA, 999, 999, 2, 24, 60, 95, 163, 116, 166, 141, 3, 1.25793
64, 2, wb, attraction, a-b-db, 14, 3, 2, 25, 120, 195, 195, 120, 111, 181, 3, 3.09277
64, 2, wb, attraction, a-b-db, 14, 3, 2, 25, 120, 195, 195, 120, 111, 181, 1, 0.55116
64, 2, wb, attraction, a-b-da, 5, 3, 2, 26, 190, 117, 195, 120, 120, 195, 1, 4.53488
64, 2, wb, attraction, a-b-da, 5, 3, 2, 26, 190, 117, 195, 120, 120, 195, 2, 0.743407
64, 2, wb, filler, NA, 999, 999, 2, 27, 56, 106, 150, 140, 192, 102, 1, 1.55112
64, 2, wb, filler, NA, 999, 999, 2, 27, 56, 106, 150, 140, 192, 102, 2, 0.615962
64, 2, wb, attraction, a-b-db, 2, 3, 2, 28, 119, 193, 120, 195, 195, 120, 1, 2.4931
64, 2, wb, attraction, a-b-db, 2, 3, 2, 28, 119, 193, 120, 195, 195, 120, 3, 0.663594
64, 2, wb, filler, NA, 999, 999, 2, 29, 146, 134, 113, 143, 144, 86, 3, 1.08261
64, 2, wb, filler, NA, 999, 999, 2, 29, 146, 134, 113, 143, 144, 86, 1, 0.734494
64, 2, wb, catch, NA, 999, 999, 2, 30, 140, 175, 106, 89, 149, 106, 2, 0.894686
64, 2, wb, catch, NA, 999, 999, 2, 30, 140, 175, 106, 89, 149, 106, 1, 0.577728
64, 2, wb, attraction, a-b-db, 14, 2, 2, 31, 90, 165, 83, 153, 165, 90, 3, 1.68024
64, 2, wb, attraction, a-b-db, 14, 2, 2, 31, 90, 165, 83, 153, 165, 90, 1, 0.715544
64, 2, wb, attraction, a-b-db, 2, 1, 2, 32, 59, 134, 60, 135, 135, 60, 3, 2.10065
64, 2, wb, attraction, a-b-db, 2, 1, 2, 32, 59, 134, 60, 135, 135, 60, 1, 3.78329
64, 2, wb, filler, NA, 999, 999, 2, 33, 78, 146, 77, 113, 96, 131, 2, 1.89284
64, 2, wb, filler, NA, 999, 999, 2, 33, 78, 146, 77, 113, 96, 131, 3, 0.647406
64, 2, wb, attraction, a-b-db, 5, 2, 2, 34, 90, 165, 88, 161, 165, 90, 2, 4.05113
64, 2, wb, attraction, a-b-db, 5, 2, 2, 34, 90, 165, 88, 161, 165, 90, 1, 0.703189
64, 2, wb, attraction, a-b-db, 5, 3, 2, 35, 195, 120, 120, 195, 117, 190, 1, 10.8889
64, 2, wb, attraction, a-b-db, 5, 3, 2, 35, 195, 120, 120, 195, 117, 190, 3, 0.569491
64, 2, wb, attraction, a-b-da, 5, 1, 2, 36, 60, 135, 135, 60, 132, 58, 3, 5.17657
64, 2, wb, attraction, a-b-da, 5, 1, 2, 36, 60, 135, 135, 60, 132, 58, 1, 0.990934
64, 2, wb, attraction, a-b-db, 2, 2, 2, 37, 89, 163, 165, 90, 90, 165, 2, 2.46856
64, 2, wb, attraction, a-b-db, 2, 2, 2, 37, 89, 163, 165, 90, 90, 165, 1, 0.880442
64, 2, wb, attraction, a-b-da, 2, 3, 3, 1, 120, 195, 195, 120, 193, 119, 3, 10.5228
64, 2, wb, attraction, a-b-da, 2, 3, 3, 1, 120, 195, 195, 120, 193, 119, 1, 0.746069
64, 2, wb, attraction, a-b-da, 9, 1, 3, 2, 135, 60, 129, 57, 60, 135, 2, 2.45789
64, 2, wb, attraction, a-b-da, 9, 1, 3, 2, 135, 60, 129, 57, 60, 135, 3, 0.49368
64, 2, wb, attraction, a-b-db, 9, 1, 3, 3, 60, 135, 135, 60, 57, 129, 1, 3.9916
64, 2, wb, attraction, a-b-db, 9, 1, 3, 3, 60, 135, 135, 60, 57, 129, 2, 0.94962
64, 2, wb, filler, NA, 999, 999, 3, 4, 162, 97, 76, 136, 172, 101, 2, 1.26128
64, 2, wb, filler, NA, 999, 999, 3, 4, 162, 97, 76, 136, 172, 101, 3, 1.05748
64, 2, wb, attraction, a-b-da, 2, 1, 3, 5, 60, 135, 134, 59, 135, 60, 1, 4.3564
64, 2, wb, attraction, a-b-da, 2, 1, 3, 5, 60, 135, 134, 59, 135, 60, 2, 2.42764
64, 2, wb, catch, NA, 999, 999, 3, 6, 143, 172, 87, 108, 105, 150, 2, 1.15162
64, 2, wb, catch, NA, 999, 999, 3, 6, 143, 172, 87, 108, 105, 150, 1, 0.712417
64, 2, wb, attraction, a-b-da, 14, 3, 3, 7, 195, 120, 120, 195, 181, 111, 3, 1.78558
64, 2, wb, attraction, a-b-da, 14, 3, 3, 7, 195, 120, 120, 195, 181, 111, 2, 0.881116
64, 2, wb, attraction, a-b-db, 14, 3, 3, 8, 120, 195, 111, 181, 195, 120, 3, 4.47523
64, 2, wb, attraction, a-b-db, 14, 3, 3, 8, 120, 195, 111, 181, 195, 120, 1, 0.653801
64, 2, wb, catch, NA, 999, 999, 3, 9, 181, 134, 157, 98, 110, 85, 3, 0.76955
64, 2, wb, catch, NA, 999, 999, 3, 9, 181, 134, 157, 98, 110, 85, 1, 0.857959
64, 2, wb, filler, NA, 999, 999, 3, 10, 160, 191, 60, 159, 90, 126, 2, 4.54096
64, 2, wb, filler, NA, 999, 999, 3, 10, 160, 191, 60, 159, 90, 126, 1, 0.57279
64, 2, wb, attraction, a-b-db, 9, 3, 3, 11, 195, 120, 120, 195, 114, 186, 1, 2.64331
64, 2, wb, attraction, a-b-db, 9, 3, 3, 11, 195, 120, 120, 195, 114, 186, 2, 0.631874
64, 2, wb, attraction, a-b-da, 14, 2, 3, 12, 153, 83, 90, 165, 165, 90, 1, 2.50821
64, 2, wb, attraction, a-b-da, 14, 2, 3, 12, 153, 83, 90, 165, 165, 90, 2, 3.76609
64, 2, wb, filler, NA, 999, 999, 3, 13, 152, 175, 138, 110, 94, 175, 2, 4.0362
64, 2, wb, filler, NA, 999, 999, 3, 13, 152, 175, 138, 110, 94, 175, 3, 1.61763
64, 2, wb, attraction, a-b-da, 14, 1, 3, 14, 60, 135, 125, 56, 135, 60, 2, 7.18158
64, 2, wb, attraction, a-b-da, 14, 1, 3, 14, 60, 135, 125, 56, 135, 60, 1, 0.476369
64, 2, wb, attraction, a-b-da, 5, 2, 3, 15, 90, 165, 161, 88, 165, 90, 1, 2.10991
64, 2, wb, attraction, a-b-da, 5, 2, 3, 15, 90, 165, 161, 88, 165, 90, 2, 0.241687
64, 2, wb, filler, NA, 999, 999, 3, 16, 89, 109, 89, 178, 163, 76, 1, 4.98774
64, 2, wb, filler, NA, 999, 999, 3, 16, 89, 109, 89, 178, 163, 76, 2, 0.394026
64, 2, wb, attraction, a-b-da, 2, 2, 3, 17, 163, 89, 165, 90, 90, 165, 1, 2.94391
64, 2, wb, attraction, a-b-da, 2, 2, 3, 17, 163, 89, 165, 90, 90, 165, 3, 0.520294
64, 2, wb, filler, NA, 999, 999, 3, 18, 81, 159, 68, 92, 106, 173, 2, 1.02553
64, 2, wb, filler, NA, 999, 999, 3, 18, 81, 159, 68, 92, 106, 173, 3, 0.951056
64, 2, wb, attraction, a-b-db, 9, 2, 3, 19, 90, 165, 86, 157, 165, 90, 3, 2.80669
64, 2, wb, attraction, a-b-db, 9, 2, 3, 19, 90, 165, 86, 157, 165, 90, 2, 0.380469
64, 2, wb, filler, NA, 999, 999, 3, 20, 88, 81, 112, 188, 135, 191, 1, 0.666934
64, 2, wb, filler, NA, 999, 999, 3, 20, 88, 81, 112, 188, 135, 191, 3, 1.08741
64, 2, wb, attraction, a-b-db, 14, 2, 3, 21, 90, 165, 83, 153, 165, 90, 2, 5.43376
64, 2, wb, attraction, a-b-db, 14, 2, 3, 21, 90, 165, 83, 153, 165, 90, 1, 0.845906
64, 2, wb, filler, NA, 999, 999, 3, 22, 96, 194, 82, 105, 101, 122, 2, 0.897616
64, 2, wb, filler, NA, 999, 999, 3, 22, 96, 194, 82, 105, 101, 122, 1, 1.44464
64, 2, wb, attraction, a-b-da, 5, 1, 3, 23, 132, 58, 135, 60, 60, 135, 1, 1.29619
64, 2, wb, attraction, a-b-da, 5, 1, 3, 23, 132, 58, 135, 60, 60, 135, 3, 0.635038
64, 2, wb, attraction, a-b-db, 5, 2, 3, 24, 165, 90, 90, 165, 88, 161, 1, 1.8155
64, 2, wb, attraction, a-b-db, 5, 2, 3, 24, 165, 90, 90, 165, 88, 161, 2, 0.573431
64, 2, wb, catch, NA, 999, 999, 3, 25, 187, 128, 143, 112, 101, 94, 3, 0.987948
64, 2, wb, catch, NA, 999, 999, 3, 25, 187, 128, 143, 112, 101, 94, 1, 0.88286
64, 2, wb, attraction, a-b-da, 5, 3, 3, 26, 190, 117, 195, 120, 120, 195, 1, 2.48533
64, 2, wb, attraction, a-b-da, 5, 3, 3, 26, 190, 117, 195, 120, 120, 195, 2, 0.624446
64, 2, wb, filler, NA, 999, 999, 3, 27, 58, 78, 97, 171, 186, 104, 1, 0.724837
64, 2, wb, filler, NA, 999, 999, 3, 27, 58, 78, 97, 171, 186, 104, 2, 0.622527
64, 2, wb, attraction, a-b-db, 5, 3, 3, 28, 120, 195, 195, 120, 117, 190, 3, 3.35566
64, 2, wb, attraction, a-b-db, 5, 3, 3, 28, 120, 195, 195, 120, 117, 190, 2, 0.707212
64, 2, wb, filler, NA, 999, 999, 3, 29, 138, 187, 146, 70, 68, 165, 2, 1.33238
64, 2, wb, filler, NA, 999, 999, 3, 29, 138, 187, 146, 70, 68, 165, 1, 0.637881
64, 2, wb, filler, NA, 999, 999, 3, 30, 76, 171, 76, 159, 152, 106, 1, 6.05023
64, 2, wb, filler, NA, 999, 999, 3, 30, 76, 171, 76, 159, 152, 106, 3, 0.781698
64, 2, wb, attraction, a-b-db, 2, 2, 3, 31, 90, 165, 89, 163, 165, 90, 1, 4.08407
64, 2, wb, attraction, a-b-db, 2, 2, 3, 31, 90, 165, 89, 163, 165, 90, 2, 0.694839
64, 2, wb, attraction, a-b-db, 5, 1, 3, 32, 60, 135, 58, 132, 135, 60, 3, 1.60045
64, 2, wb, attraction, a-b-db, 5, 1, 3, 32, 60, 135, 58, 132, 135, 60, 2, 0.39931
64, 2, wb, attraction, a-b-da, 9, 3, 3, 33, 186, 114, 195, 120, 120, 195, 1, 0.79715
64, 2, wb, attraction, a-b-da, 9, 3, 3, 33, 186, 114, 195, 120, 120, 195, 2, 1.02017
64, 2, wb, attraction, a-b-db, 2, 3, 3, 34, 120, 195, 119, 193, 195, 120, 3, 1.02512
64, 2, wb, attraction, a-b-db, 2, 3, 3, 34, 120, 195, 119, 193, 195, 120, 1, 0.518784
64, 2, wb, attraction, a-b-da, 9, 2, 3, 35, 165, 90, 157, 86, 90, 165, 1, 1.08785
64, 2, wb, attraction, a-b-da, 9, 2, 3, 35, 165, 90, 157, 86, 90, 165, 2, 0.450864
64, 2, wb, attraction, a-b-db, 14, 1, 3, 36, 60, 135, 135, 60, 56, 125, 3, 1.27065
64, 2, wb, attraction, a-b-db, 14, 1, 3, 36, 60, 135, 135, 60, 56, 125, 1, 0.418941
64, 2, wb, attraction, a-b-db, 2, 1, 3, 37, 59, 134, 60, 135, 135, 60, 1, 2.04802
64, 2, wb, attraction, a-b-db, 2, 1, 3, 37, 59, 134, 60, 135, 135, 60, 3, 1.23672
64, 2, wb, attraction, a-b-da, 5, 2, 4, 1, 165, 90, 90, 165, 161, 88, 1, 5.14498
64, 2, wb, attraction, a-b-da, 5, 2, 4, 1, 165, 90, 90, 165, 161, 88, 2, 0.792746
64, 2, wb, attraction, a-b-da, 2, 3, 4, 2, 120, 195, 193, 119, 195, 120, 2, 1.90231
64, 2, wb, attraction, a-b-da, 2, 3, 4, 2, 120, 195, 193, 119, 195, 120, 1, 0.505049
64, 2, wb, attraction, a-b-da, 2, 1, 4, 3, 135, 60, 60, 135, 134, 59, 3, 1.53087
64, 2, wb, attraction, a-b-da, 2, 1, 4, 3, 135, 60, 60, 135, 134, 59, 2, 0.828402
64, 2, wb, attraction, a-b-db, 9, 3, 4, 4, 120, 195, 195, 120, 114, 186, 2, 1.79271
64, 2, wb, attraction, a-b-db, 9, 3, 4, 4, 120, 195, 195, 120, 114, 186, 1, 0.399391
64, 2, wb, attraction, a-b-da, 2, 2, 4, 5, 163, 89, 165, 90, 90, 165, 2, 4.82129
64, 2, wb, attraction, a-b-da, 2, 2, 4, 5, 163, 89, 165, 90, 90, 165, 1, 0.657691
64, 2, wb, filler, NA, 999, 999, 4, 6, 137, 127, 146, 185, 70, 139, 3, 2.58097
64, 2, wb, filler, NA, 999, 999, 4, 6, 137, 127, 146, 185, 70, 139, 2, 0.41186
64, 2, wb, attraction, a-b-da, 14, 1, 4, 7, 60, 135, 135, 60, 125, 56, 3, 1.12913
64, 2, wb, attraction, a-b-da, 14, 1, 4, 7, 60, 135, 135, 60, 125, 56, 1, 0.450708
64, 2, wb, attraction, a-b-db, 14, 3, 4, 8, 120, 195, 195, 120, 111, 181, 3, 3.62254
64, 2, wb, attraction, a-b-db, 14, 3, 4, 8, 120, 195, 195, 120, 111, 181, 2, 0.363397
64, 2, wb, filler, NA, 999, 999, 4, 9, 132, 62, 175, 124, 89, 67, 3, 1.09057
64, 2, wb, filler, NA, 999, 999, 4, 9, 132, 62, 175, 124, 89, 67, 2, 0.469497
64, 2, wb, filler, NA, 999, 999, 4, 10, 128, 101, 176, 83, 145, 119, 2, 5.68857
64, 2, wb, filler, NA, 999, 999, 4, 10, 128, 101, 176, 83, 145, 119, 3, 0.370918
64, 2, wb, attraction, a-b-db, 5, 1, 4, 11, 60, 135, 135, 60, 58, 132, 2, 3.69796
64, 2, wb, attraction, a-b-db, 5, 1, 4, 11, 60, 135, 135, 60, 58, 132, 1, 1.36409
64, 2, wb, catch, NA, 999, 999, 4, 12, 128, 127, 78, 117, 122, 193, 2, 0.962976
64, 2, wb, catch, NA, 999, 999, 4, 12, 128, 127, 78, 117, 122, 193, 3, 0.299287
64, 2, wb, filler, NA, 999, 999, 4, 13, 75, 81, 169, 193, 88, 163, 1, 0.877103
64, 2, wb, filler, NA, 999, 999, 4, 13, 75, 81, 169, 193, 88, 163, 2, 0.792805
64, 2, wb, attraction, a-b-da, 5, 3, 4, 14, 190, 117, 195, 120, 120, 195, 1, 3.56653
64, 2, wb, attraction, a-b-da, 5, 3, 4, 14, 190, 117, 195, 120, 120, 195, 3, 0.390074
64, 2, wb, attraction, a-b-db, 2, 1, 4, 15, 59, 134, 135, 60, 60, 135, 2, 1.41187
64, 2, wb, attraction, a-b-db, 2, 1, 4, 15, 59, 134, 135, 60, 60, 135, 1, 0.738334
64, 2, wb, filler, NA, 999, 999, 4, 16, 56, 87, 106, 68, 128, 156, 1, 0.730442
64, 2, wb, filler, NA, 999, 999, 4, 16, 56, 87, 106, 68, 128, 156, 3, 0.484231
64, 2, wb, attraction, a-b-db, 2, 2, 4, 17, 89, 163, 90, 165, 165, 90, 3, 4.18276
64, 2, wb, attraction, a-b-db, 2, 2, 4, 17, 89, 163, 90, 165, 165, 90, 1, 1.20529
64, 2, wb, attraction, a-b-da, 9, 3, 4, 18, 195, 120, 120, 195, 186, 114, 3, 4.25103
64, 2, wb, attraction, a-b-da, 9, 3, 4, 18, 195, 120, 120, 195, 186, 114, 2, 0.718895
64, 2, wb, filler, NA, 999, 999, 4, 19, 104, 115, 150, 74, 97, 60, 3, 5.15994
64, 2, wb, filler, NA, 999, 999, 4, 19, 104, 115, 150, 74, 97, 60, 2, 0.406927
64, 2, wb, filler, NA, 999, 999, 4, 20, 139, 104, 111, 105, 163, 93, 2, 3.00417
64, 2, wb, filler, NA, 999, 999, 4, 20, 139, 104, 111, 105, 163, 93, 3, 0.521803
64, 2, wb, attraction, a-b-db, 9, 1, 4, 21, 135, 60, 57, 129, 60, 135, 1, 3.82691
64, 2, wb, attraction, a-b-db, 9, 1, 4, 21, 135, 60, 57, 129, 60, 135, 2, 0.783682
64, 2, wb, attraction, a-b-db, 9, 2, 4, 22, 86, 157, 90, 165, 165, 90, 3, 2.01414
64, 2, wb, attraction, a-b-db, 9, 2, 4, 22, 86, 157, 90, 165, 165, 90, 2, 0.82014
64, 2, wb, attraction, a-b-da, 9, 2, 4, 23, 157, 86, 90, 165, 165, 90, 1, 3.08914
64, 2, wb, attraction, a-b-da, 9, 2, 4, 23, 157, 86, 90, 165, 165, 90, 2, 0.547441
64, 2, wb, attraction, a-b-db, 2, 3, 4, 24, 195, 120, 120, 195, 119, 193, 1, 4.30716
64, 2, wb, attraction, a-b-db, 2, 3, 4, 24, 195, 120, 120, 195, 119, 193, 2, 0.932523
64, 2, wb, filler, NA, 999, 999, 4, 25, 155, 175, 87, 137, 60, 106, 3, 0.860805
64, 2, wb, filler, NA, 999, 999, 4, 25, 155, 175, 87, 137, 60, 106, 1, 0.561193
64, 2, wb, catch, NA, 999, 999, 4, 26, 94, 101, 153, 102, 120, 195, 2, 3.53629
64, 2, wb, catch, NA, 999, 999, 4, 26, 94, 101, 153, 102, 120, 195, 3, 0.913153
64, 2, wb, attraction, a-b-db, 5, 2, 4, 27, 90, 165, 88, 161, 165, 90, 3, 2.84222
64, 2, wb, attraction, a-b-db, 5, 2, 4, 27, 90, 165, 88, 161, 165, 90, 2, 0.614582
64, 2, wb, attraction, a-b-db, 14, 1, 4, 28, 56, 125, 135, 60, 60, 135, 2, 0.891677
64, 2, wb, attraction, a-b-db, 14, 1, 4, 28, 56, 125, 135, 60, 60, 135, 3, 0.646665
64, 2, wb, filler, NA, 999, 999, 4, 29, 63, 75, 185, 187, 58, 182, 1, 1.2984
64, 2, wb, filler, NA, 999, 999, 4, 29, 63, 75, 185, 187, 58, 182, 2, 2.25334
64, 2, wb, attraction, a-b-db, 5, 3, 4, 30, 195, 120, 117, 190, 120, 195, 2, 4.10449
64, 2, wb, attraction, a-b-db, 5, 3, 4, 30, 195, 120, 117, 190, 120, 195, 3, 0.697883
64, 2, wb, filler, NA, 999, 999, 4, 31, 62, 117, 87, 60, 188, 113, 2, 1.77981
64, 2, wb, filler, NA, 999, 999, 4, 31, 62, 117, 87, 60, 188, 113, 3, 0.81107
64, 2, wb, attraction, a-b-da, 5, 1, 4, 32, 135, 60, 132, 58, 60, 135, 2, 3.76012
64, 2, wb, attraction, a-b-da, 5, 1, 4, 32, 135, 60, 132, 58, 60, 135, 3, 0.487608
64, 2, wb, catch, NA, 999, 999, 4, 33, 111, 144, 89, 106, 130, 185, 2, 0.906025
64, 2, wb, catch, NA, 999, 999, 4, 33, 111, 144, 89, 106, 130, 185, 3, 0.67627
64, 2, wb, attraction, a-b-da, 14, 2, 4, 34, 90, 165, 153, 83, 165, 90, 2, 1.95874
64, 2, wb, attraction, a-b-da, 14, 2, 4, 34, 90, 165, 153, 83, 165, 90, 1, 0.430722
64, 2, wb, attraction, a-b-db, 14, 2, 4, 35, 165, 90, 90, 165, 83, 153, 1, 1.09122
64, 2, wb, attraction, a-b-db, 14, 2, 4, 35, 165, 90, 90, 165, 83, 153, 2, 0.438174
64, 2, wb, attraction, a-b-da, 9, 1, 4, 36, 60, 135, 129, 57, 135, 60, 2, 1.98684
64, 2, wb, attraction, a-b-da, 9, 1, 4, 36, 60, 135, 129, 57, 135, 60, 1, 0.546023
64, 2, wb, attraction, a-b-da, 14, 3, 4, 37, 195, 120, 181, 111, 120, 195, 2, 1.84975
64, 2, wb, attraction, a-b-da, 14, 3, 4, 37, 195, 120, 181, 111, 120, 195, 3, 0.382501
64, 2, wb, attraction, a-b-db, 5, 2, 5, 1, 90, 165, 165, 90, 88, 161, 1, 6.98763
64, 2, wb, attraction, a-b-db, 5, 2, 5, 1, 90, 165, 165, 90, 88, 161, 3, 0.993386
64, 2, wb, filler, NA, 999, 999, 5, 2, 157, 128, 183, 171, 110, 93, 3, 1.19116
64, 2, wb, filler, NA, 999, 999, 5, 2, 157, 128, 183, 171, 110, 93, 2, 0.93406
64, 2, wb, attraction, a-b-da, 14, 2, 5, 3, 153, 83, 90, 165, 165, 90, 1, 1.41442
64, 2, wb, attraction, a-b-da, 14, 2, 5, 3, 153, 83, 90, 165, 165, 90, 2, 0.796637
64, 2, wb, catch, NA, 999, 999, 5, 4, 121, 74, 141, 114, 143, 172, 1, 1.38622
64, 2, wb, catch, NA, 999, 999, 5, 4, 121, 74, 141, 114, 143, 172, 3, 2.00181
64, 2, wb, attraction, a-b-da, 9, 3, 5, 5, 120, 195, 186, 114, 195, 120, 2, 2.28711
64, 2, wb, attraction, a-b-da, 9, 3, 5, 5, 120, 195, 186, 114, 195, 120, 1, 0.873663
64, 2, wb, filler, NA, 999, 999, 5, 6, 116, 169, 192, 168, 108, 176, 1, 4.45195
64, 2, wb, filler, NA, 999, 999, 5, 6, 116, 169, 192, 168, 108, 176, 2, 0.71188
64, 2, wb, attraction, a-b-db, 9, 3, 5, 7, 120, 195, 114, 186, 195, 120, 3, 5.46496
64, 2, wb, attraction, a-b-db, 9, 3, 5, 7, 120, 195, 114, 186, 195, 120, 2, 1.06789
64, 2, wb, attraction, a-b-db, 14, 3, 5, 8, 111, 181, 195, 120, 120, 195, 1, 1.88684
64, 2, wb, attraction, a-b-db, 14, 3, 5, 8, 111, 181, 195, 120, 120, 195, 3, 0.386205
64, 2, wb, attraction, a-b-da, 2, 2, 5, 9, 90, 165, 165, 90, 163, 89, 2, 1.69671
64, 2, wb, attraction, a-b-da, 2, 2, 5, 9, 90, 165, 165, 90, 163, 89, 3, 0.451464
64, 2, wb, filler, NA, 999, 999, 5, 10, 125, 161, 145, 92, 73, 129, 3, 1.83931
64, 2, wb, filler, NA, 999, 999, 5, 10, 125, 161, 145, 92, 73, 129, 1, 0.492007
64, 2, wb, filler, NA, 999, 999, 5, 11, 152, 118, 112, 71, 72, 73, 2, 11.4218
64, 2, wb, filler, NA, 999, 999, 5, 11, 152, 118, 112, 71, 72, 73, 1, 0.424823
64, 2, wb, attraction, a-b-db, 14, 2, 5, 12, 90, 165, 83, 153, 165, 90, 2, 2.16542
64, 2, wb, attraction, a-b-db, 14, 2, 5, 12, 90, 165, 83, 153, 165, 90, 1, 1.87734
64, 2, wb, attraction, a-b-db, 5, 3, 5, 13, 120, 195, 117, 190, 195, 120, 1, 1.85541
64, 2, wb, attraction, a-b-db, 5, 3, 5, 13, 120, 195, 117, 190, 195, 120, 2, 0.395355
64, 2, wb, filler, NA, 999, 999, 5, 14, 169, 169, 143, 165, 73, 181, 3, 1.32127
64, 2, wb, filler, NA, 999, 999, 5, 14, 169, 169, 143, 165, 73, 181, 1, 1.25078
64, 2, wb, attraction, a-b-db, 9, 1, 5, 15, 135, 60, 57, 129, 60, 135, 1, 1.95036
64, 2, wb, attraction, a-b-db, 9, 1, 5, 15, 135, 60, 57, 129, 60, 135, 2, 1.18298
64, 2, wb, attraction, a-b-db, 5, 1, 5, 16, 60, 135, 135, 60, 58, 132, 2, 7.51745
64, 2, wb, attraction, a-b-db, 5, 1, 5, 16, 60, 135, 135, 60, 58, 132, 1, 2.48555
64, 2, wb, attraction, a-b-da, 9, 1, 5, 17, 129, 57, 135, 60, 60, 135, 1, 11.1835
64, 2, wb, attraction, a-b-da, 9, 1, 5, 17, 129, 57, 135, 60, 60, 135, 3, 1.52395
64, 2, wb, catch, NA, 999, 999, 5, 18, 140, 115, 63, 132, 145, 170, 2, 3.03601
64, 2, wb, catch, NA, 999, 999, 5, 18, 140, 115, 63, 132, 145, 170, 3, 0.537024
64, 2, wb, filler, NA, 999, 999, 5, 19, 70, 161, 119, 68, 67, 119, 3, 1.8015
64, 2, wb, filler, NA, 999, 999, 5, 19, 70, 161, 119, 68, 67, 119, 1, 0.840276
64, 2, wb, attraction, a-b-db, 14, 1, 5, 20, 135, 60, 56, 125, 60, 135, 2, 1.52381
64, 2, wb, attraction, a-b-db, 14, 1, 5, 20, 135, 60, 56, 125, 60, 135, 3, 3.40552
64, 2, wb, attraction, a-b-da, 2, 1, 5, 21, 134, 59, 135, 60, 60, 135, 1, 3.53828
64, 2, wb, attraction, a-b-da, 2, 1, 5, 21, 134, 59, 135, 60, 60, 135, 3, 0.778416
64, 2, wb, attraction, a-b-da, 5, 2, 5, 22, 165, 90, 161, 88, 90, 165, 2, 4.58486
64, 2, wb, attraction, a-b-da, 5, 2, 5, 22, 165, 90, 161, 88, 90, 165, 3, 1.46337
64, 2, wb, catch, NA, 999, 999, 5, 23, 128, 67, 154, 101, 147, 168, 1, 1.24215
64, 2, wb, catch, NA, 999, 999, 5, 23, 128, 67, 154, 101, 147, 168, 3, 0.447165
64, 2, wb, attraction, a-b-db, 9, 2, 5, 24, 165, 90, 90, 165, 86, 157, 3, 1.83487
64, 2, wb, attraction, a-b-db, 9, 2, 5, 24, 165, 90, 90, 165, 86, 157, 2, 0.44843
64, 2, wb, attraction, a-b-da, 2, 3, 5, 25, 120, 195, 195, 120, 193, 119, 2, 4.14808
64, 2, wb, attraction, a-b-da, 2, 3, 5, 25, 120, 195, 195, 120, 193, 119, 1, 2.41223
64, 2, wb, attraction, a-b-db, 2, 1, 5, 26, 135, 60, 60, 135, 59, 134, 2, 1.7446
64, 2, wb, attraction, a-b-db, 2, 1, 5, 26, 135, 60, 60, 135, 59, 134, 1, 0.625517
64, 2, wb, filler, NA, 999, 999, 5, 27, 141, 101, 70, 103, 125, 183, 2, 0.725804
64, 2, wb, filler, NA, 999, 999, 5, 27, 141, 101, 70, 103, 125, 183, 3, 0.359641
64, 2, wb, filler, NA, 999, 999, 5, 28, 95, 94, 129, 92, 119, 77, 3, 3.63875
64, 2, wb, filler, NA, 999, 999, 5, 28, 95, 94, 129, 92, 119, 77, 2, 1.9709
64, 2, wb, attraction, a-b-db, 2, 2, 5, 29, 89, 163, 165, 90, 90, 165, 2, 3.00954
64, 2, wb, attraction, a-b-db, 2, 2, 5, 29, 89, 163, 165, 90, 90, 165, 3, 0.599259
64, 2, wb, attraction, a-b-db, 2, 3, 5, 30, 120, 195, 119, 193, 195, 120, 1, 7.037
64, 2, wb, attraction, a-b-db, 2, 3, 5, 30, 120, 195, 119, 193, 195, 120, 2, 2.0249
64, 2, wb, attraction, a-b-da, 9, 2, 5, 31, 165, 90, 90, 165, 157, 86, 2, 3.55693
64, 2, wb, attraction, a-b-da, 9, 2, 5, 31, 165, 90, 90, 165, 157, 86, 1, 0.940246
64, 2, wb, filler, NA, 999, 999, 5, 32, 93, 169, 113, 148, 140, 178, 2, 3.50799
64, 2, wb, filler, NA, 999, 999, 5, 32, 93, 169, 113, 148, 140, 178, 3, 0.445449
64, 2, wb, filler, NA, 999, 999, 5, 33, 122, 84, 163, 179, 60, 69, 3, 2.02521
64, 2, wb, filler, NA, 999, 999, 5, 33, 122, 84, 163, 179, 60, 69, 2, 0.470679
64, 2, wb, attraction, a-b-da, 5, 1, 5, 34, 60, 135, 135, 60, 132, 58, 3, 4.76975
64, 2, wb, attraction, a-b-da, 5, 1, 5, 34, 60, 135, 135, 60, 132, 58, 2, 0.704888
64, 2, wb, attraction, a-b-da, 5, 3, 5, 35, 190, 117, 120, 195, 195, 120, 1, 2.09057
64, 2, wb, attraction, a-b-da, 5, 3, 5, 35, 190, 117, 120, 195, 195, 120, 2, 0.509254
64, 2, wb, attraction, a-b-da, 14, 3, 5, 36, 195, 120, 181, 111, 120, 195, 1, 6.10236
64, 2, wb, attraction, a-b-da, 14, 3, 5, 36, 195, 120, 181, 111, 120, 195, 3, 0.775748
64, 2, wb, attraction, a-b-da, 14, 1, 5, 37, 135, 60, 125, 56, 60, 135, 2, 5.17407
64, 2, wb, attraction, a-b-da, 14, 1, 5, 37, 135, 60, 125, 56, 60, 135, 3, 2.44451
64, 2, wb, attraction, a-b-da, 5, 2, 6, 1, 165, 90, 161, 88, 90, 165, 1, 2.27969
64, 2, wb, attraction, a-b-da, 5, 2, 6, 1, 165, 90, 161, 88, 90, 165, 3, 0.763073
64, 2, wb, catch, NA, 999, 999, 6, 2, 60, 135, 191, 124, 130, 125, 1, 0.569894
64, 2, wb, catch, NA, 999, 999, 6, 2, 60, 135, 191, 124, 130, 125, 2, 0.394438
64, 2, wb, filler, NA, 999, 999, 6, 3, 174, 75, 145, 98, 97, 65, 3, 0.952276
64, 2, wb, filler, NA, 999, 999, 6, 3, 174, 75, 145, 98, 97, 65, 2, 0.497291
64, 2, wb, attraction, a-b-da, 14, 2, 6, 4, 90, 165, 165, 90, 153, 83, 3, 4.23506
64, 2, wb, attraction, a-b-da, 14, 2, 6, 4, 90, 165, 165, 90, 153, 83, 1, 0.727692
64, 2, wb, filler, NA, 999, 999, 6, 5, 194, 149, 165, 81, 143, 154, 2, 0.832095
64, 2, wb, filler, NA, 999, 999, 6, 5, 194, 149, 165, 81, 143, 154, 1, 0.677776
64, 2, wb, attraction, a-b-da, 14, 1, 6, 6, 125, 56, 135, 60, 60, 135, 1, 2.82418
64, 2, wb, attraction, a-b-da, 14, 1, 6, 6, 125, 56, 135, 60, 60, 135, 2, 1.14942
64, 2, wb, filler, NA, 999, 999, 6, 7, 93, 144, 140, 160, 107, 91, 3, 0.868857
64, 2, wb, filler, NA, 999, 999, 6, 7, 93, 144, 140, 160, 107, 91, 2, 0.665284
64, 2, wb, attraction, a-b-db, 5, 2, 6, 8, 90, 165, 165, 90, 88, 161, 2, 2.58826
64, 2, wb, attraction, a-b-db, 5, 2, 6, 8, 90, 165, 165, 90, 88, 161, 1, 0.97881
64, 2, wb, filler, NA, 999, 999, 6, 9, 165, 105, 138, 66, 154, 183, 2, 0.817004
64, 2, wb, filler, NA, 999, 999, 6, 9, 165, 105, 138, 66, 154, 183, 3, 0.751584
64, 2, wb, filler, NA, 999, 999, 6, 10, 186, 179, 146, 147, 143, 79, 3, 1.02312
64, 2, wb, filler, NA, 999, 999, 6, 10, 186, 179, 146, 147, 143, 79, 1, 0.972778
64, 2, wb, filler, NA, 999, 999, 6, 11, 57, 71, 146, 130, 130, 68, 1, 1.37974
64, 2, wb, filler, NA, 999, 999, 6, 11, 57, 71, 146, 130, 130, 68, 2, 0.587319
64, 2, wb, filler, NA, 999, 999, 6, 12, 175, 180, 151, 141, 190, 116, 3, 1.38576
64, 2, wb, filler, NA, 999, 999, 6, 12, 175, 180, 151, 141, 190, 116, 1, 0.801315
64, 2, wb, attraction, a-b-da, 2, 1, 6, 13, 135, 60, 60, 135, 134, 59, 3, 4.62309
64, 2, wb, attraction, a-b-da, 2, 1, 6, 13, 135, 60, 60, 135, 134, 59, 2, 0.715491
64, 2, wb, attraction, a-b-db, 14, 1, 6, 14, 135, 60, 60, 135, 56, 125, 1, 2.90862
64, 2, wb, attraction, a-b-db, 14, 1, 6, 14, 135, 60, 60, 135, 56, 125, 2, 0.758334
64, 2, wb, attraction, a-b-da, 2, 2, 6, 15, 90, 165, 163, 89, 165, 90, 2, 5.97335
64, 2, wb, attraction, a-b-da, 2, 2, 6, 15, 90, 165, 163, 89, 165, 90, 3, 0.339512
64, 2, wb, attraction, a-b-db, 2, 1, 6, 16, 135, 60, 60, 135, 59, 134, 1, 0.787259
64, 2, wb, attraction, a-b-db, 2, 1, 6, 16, 135, 60, 60, 135, 59, 134, 3, 0.458486
64, 2, wb, attraction, a-b-da, 9, 3, 6, 17, 186, 114, 120, 195, 195, 120, 1, 0.717517
64, 2, wb, attraction, a-b-da, 9, 3, 6, 17, 186, 114, 120, 195, 195, 120, 2, 0.455922
64, 2, wb, attraction, a-b-db, 5, 1, 6, 18, 60, 135, 135, 60, 58, 132, 2, 1.12371
64, 2, wb, attraction, a-b-db, 5, 1, 6, 18, 60, 135, 135, 60, 58, 132, 3, 0.653358
64, 2, wb, attraction, a-b-da, 5, 3, 6, 19, 195, 120, 190, 117, 120, 195, 2, 2.44101
64, 2, wb, attraction, a-b-da, 5, 3, 6, 19, 195, 120, 190, 117, 120, 195, 1, 1.14953
64, 2, wb, filler, NA, 999, 999, 6, 20, 187, 128, 113, 146, 159, 88, 3, 1.79724
64, 2, wb, filler, NA, 999, 999, 6, 20, 187, 128, 113, 146, 159, 88, 1, 1.34799
64, 2, wb, attraction, a-b-db, 9, 1, 6, 21, 60, 135, 57, 129, 135, 60, 3, 1.32339
64, 2, wb, attraction, a-b-db, 9, 1, 6, 21, 60, 135, 57, 129, 135, 60, 1, 1.53309
64, 2, wb, attraction, a-b-da, 2, 3, 6, 22, 120, 195, 195, 120, 193, 119, 3, 3.6371
64, 2, wb, attraction, a-b-da, 2, 3, 6, 22, 120, 195, 195, 120, 193, 119, 1, 0.497983
64, 2, wb, attraction, a-b-da, 14, 3, 6, 23, 195, 120, 120, 195, 181, 111, 3, 1.65181
64, 2, wb, attraction, a-b-da, 14, 3, 6, 23, 195, 120, 120, 195, 181, 111, 2, 0.456527
64, 2, wb, attraction, a-b-db, 14, 3, 6, 24, 111, 181, 120, 195, 195, 120, 3, 1.33163
64, 2, wb, attraction, a-b-db, 14, 3, 6, 24, 111, 181, 120, 195, 195, 120, 2, 0.677277
64, 2, wb, catch, NA, 999, 999, 6, 25, 82, 113, 183, 132, 136, 119, 1, 2.3036
64, 2, wb, catch, NA, 999, 999, 6, 25, 82, 113, 183, 132, 136, 119, 2, 0.754201
64, 2, wb, attraction, a-b-da, 5, 1, 6, 26, 135, 60, 132, 58, 60, 135, 2, 1.85793
64, 2, wb, attraction, a-b-da, 5, 1, 6, 26, 135, 60, 132, 58, 60, 135, 1, 0.838008
64, 2, wb, filler, NA, 999, 999, 6, 27, 126, 89, 78, 80, 119, 103, 2, 1.27437
64, 2, wb, filler, NA, 999, 999, 6, 27, 126, 89, 78, 80, 119, 103, 3, 0.941898
64, 2, wb, attraction, a-b-db, 9, 2, 6, 28, 86, 157, 90, 165, 165, 90, 3, 4.14154
64, 2, wb, attraction, a-b-db, 9, 2, 6, 28, 86, 157, 90, 165, 165, 90, 2, 0.373607
64, 2, wb, attraction, a-b-db, 5, 3, 6, 29, 120, 195, 195, 120, 117, 190, 2, 2.17207
64, 2, wb, attraction, a-b-db, 5, 3, 6, 29, 120, 195, 195, 120, 117, 190, 1, 0.627288
64, 2, wb, attraction, a-b-db, 14, 2, 6, 30, 83, 153, 165, 90, 90, 165, 2, 6.02369
64, 2, wb, attraction, a-b-db, 14, 2, 6, 30, 83, 153, 165, 90, 90, 165, 3, 0.355806
64, 2, wb, attraction, a-b-da, 9, 1, 6, 31, 60, 135, 135, 60, 129, 57, 2, 1.49908
64, 2, wb, attraction, a-b-da, 9, 1, 6, 31, 60, 135, 135, 60, 129, 57, 1, 1.12593
64, 2, wb, attraction, a-b-db, 9, 3, 6, 32, 114, 186, 120, 195, 195, 120, 3, 4.53425
64, 2, wb, attraction, a-b-db, 9, 3, 6, 32, 114, 186, 120, 195, 195, 120, 2, 0.798712
64, 2, wb, catch, NA, 999, 999, 6, 33, 90, 165, 192, 123, 107, 88, 3, 1.04432
64, 2, wb, catch, NA, 999, 999, 6, 33, 90, 165, 192, 123, 107, 88, 2, 0.577315
64, 2, wb, attraction, a-b-da, 9, 2, 6, 34, 165, 90, 90, 165, 157, 86, 3, 22.4558
64, 2, wb, attraction, a-b-da, 9, 2, 6, 34, 165, 90, 90, 165, 157, 86, 2, 0.414015
64, 2, wb, attraction, a-b-db, 2, 2, 6, 35, 89, 163, 90, 165, 165, 90, 3, 1.22712
64, 2, wb, attraction, a-b-db, 2, 2, 6, 35, 89, 163, 90, 165, 165, 90, 2, 0.496742
64, 2, wb, filler, NA, 999, 999, 6, 36, 60, 150, 61, 65, 171, 64, 2, 1.00257
64, 2, wb, filler, NA, 999, 999, 6, 36, 60, 150, 61, 65, 171, 64, 3, 0.753677
64, 2, wb, attraction, a-b-db, 2, 3, 6, 37, 119, 193, 120, 195, 195, 120, 3, 1.41733
64, 2, wb, attraction, a-b-db, 2, 3, 6, 37, 119, 193, 120, 195, 195, 120, 2, 0.543529
64, 2, wb, attraction, a-b-da, 14, 3, 7, 1, 195, 120, 120, 195, 181, 111, 3, 1.29522
64, 2, wb, attraction, a-b-da, 14, 3, 7, 1, 195, 120, 120, 195, 181, 111, 2, 0.698141
64, 2, wb, attraction, a-b-db, 9, 2, 7, 2, 165, 90, 86, 157, 90, 165, 1, 1.69992
64, 2, wb, attraction, a-b-db, 9, 2, 7, 2, 165, 90, 86, 157, 90, 165, 2, 0.502667
64, 2, wb, filler, NA, 999, 999, 7, 3, 115, 116, 92, 157, 106, 67, 3, 0.880425
64, 2, wb, filler, NA, 999, 999, 7, 3, 115, 116, 92, 157, 106, 67, 2, 0.876145
64, 2, wb, filler, NA, 999, 999, 7, 4, 72, 107, 89, 171, 57, 173, 1, 1.47051
64, 2, wb, filler, NA, 999, 999, 7, 4, 72, 107, 89, 171, 57, 173, 2, 0.634133
64, 2, wb, attraction, a-b-db, 5, 3, 7, 5, 195, 120, 117, 190, 120, 195, 1, 4.69442
64, 2, wb, attraction, a-b-db, 5, 3, 7, 5, 195, 120, 117, 190, 120, 195, 2, 0.584252
64, 2, wb, catch, NA, 999, 999, 7, 6, 101, 154, 159, 156, 92, 103, 3, 0.686688
64, 2, wb, catch, NA, 999, 999, 7, 6, 101, 154, 159, 156, 92, 103, 2, 0.394444
64, 2, wb, filler, NA, 999, 999, 7, 7, 155, 141, 129, 134, 92, 180, 2, 1.03222
64, 2, wb, filler, NA, 999, 999, 7, 7, 155, 141, 129, 134, 92, 180, 1, 1.86998
64, 2, wb, filler, NA, 999, 999, 7, 8, 120, 151, 57, 100, 59, 122, 2, 0.69649
64, 2, wb, filler, NA, 999, 999, 7, 8, 120, 151, 57, 100, 59, 122, 1, 0.451578
64, 2, wb, attraction, a-b-db, 9, 1, 7, 9, 57, 129, 135, 60, 60, 135, 1, 6.03155
64, 2, wb, attraction, a-b-db, 9, 1, 7, 9, 57, 129, 135, 60, 60, 135, 3, 0.547573
64, 2, wb, attraction, a-b-da, 2, 3, 7, 10, 195, 120, 193, 119, 120, 195, 2, 1.14732
64, 2, wb, attraction, a-b-da, 2, 3, 7, 10, 195, 120, 193, 119, 120, 195, 3, 0.540233
64, 2, wb, filler, NA, 999, 999, 7, 11, 180, 70, 193, 133, 187, 91, 1, 0.539997
64, 2, wb, filler, NA, 999, 999, 7, 11, 180, 70, 193, 133, 187, 91, 2, 0.437203
64, 2, wb, attraction, a-b-db, 14, 1, 7, 12, 135, 60, 60, 135, 56, 125, 3, 5.64972
64, 2, wb, attraction, a-b-db, 14, 1, 7, 12, 135, 60, 60, 135, 56, 125, 2, 2.18926
64, 2, wb, attraction, a-b-da, 5, 3, 7, 13, 120, 195, 190, 117, 195, 120, 2, 1.79513
64, 2, wb, attraction, a-b-da, 5, 3, 7, 13, 120, 195, 190, 117, 195, 120, 1, 0.393869
64, 2, wb, catch, NA, 999, 999, 7, 14, 73, 122, 161, 94, 195, 120, 1, 0.967609
64, 2, wb, catch, NA, 999, 999, 7, 14, 73, 122, 161, 94, 195, 120, 3, 0.663971
64, 2, wb, attraction, a-b-da, 9, 2, 7, 15, 90, 165, 157, 86, 165, 90, 2, 4.98718
64, 2, wb, attraction, a-b-da, 9, 2, 7, 15, 90, 165, 157, 86, 165, 90, 1, 0.40145
64, 2, wb, attraction, a-b-db, 2, 2, 7, 16, 90, 165, 89, 163, 165, 90, 3, 5.11134
64, 2, wb, attraction, a-b-db, 2, 2, 7, 16, 90, 165, 89, 163, 165, 90, 1, 0.552424
64, 2, wb, filler, NA, 999, 999, 7, 17, 172, 80, 59, 107, 152, 191, 2, 0.768094
64, 2, wb, filler, NA, 999, 999, 7, 17, 172, 80, 59, 107, 152, 191, 3, 0.328551
64, 2, wb, attraction, a-b-db, 14, 3, 7, 18, 111, 181, 120, 195, 195, 120, 3, 9.36107
64, 2, wb, attraction, a-b-db, 14, 3, 7, 18, 111, 181, 120, 195, 195, 120, 2, 0.45474
64, 2, wb, attraction, a-b-da, 2, 1, 7, 19, 135, 60, 134, 59, 60, 135, 2, 2.08262
64, 2, wb, attraction, a-b-da, 2, 1, 7, 19, 135, 60, 134, 59, 60, 135, 1, 1.94995
64, 2, wb, attraction, a-b-da, 5, 2, 7, 20, 161, 88, 165, 90, 90, 165, 3, 2.62928
64, 2, wb, attraction, a-b-da, 5, 2, 7, 20, 161, 88, 165, 90, 90, 165, 2, 0.778327
64, 2, wb, attraction, a-b-da, 5, 1, 7, 21, 135, 60, 132, 58, 60, 135, 2, 8.72076
64, 2, wb, attraction, a-b-da, 5, 1, 7, 21, 135, 60, 132, 58, 60, 135, 3, 1.46457
64, 2, wb, filler, NA, 999, 999, 7, 22, 123, 69, 144, 140, 191, 57, 3, 2.83551
64, 2, wb, filler, NA, 999, 999, 7, 22, 123, 69, 144, 140, 191, 57, 2, 0.480565
64, 2, wb, attraction, a-b-db, 2, 1, 7, 23, 135, 60, 59, 134, 60, 135, 1, 6.99504
64, 2, wb, attraction, a-b-db, 2, 1, 7, 23, 135, 60, 59, 134, 60, 135, 2, 0.448213
64, 2, wb, attraction, a-b-da, 9, 1, 7, 24, 60, 135, 135, 60, 129, 57, 3, 1.42789
64, 2, wb, attraction, a-b-da, 9, 1, 7, 24, 60, 135, 135, 60, 129, 57, 2, 0.657474
64, 2, wb, attraction, a-b-db, 14, 2, 7, 25, 83, 153, 165, 90, 90, 165, 2, 4.75655
64, 2, wb, attraction, a-b-db, 14, 2, 7, 25, 83, 153, 165, 90, 90, 165, 3, 0.499731
64, 2, wb, attraction, a-b-da, 9, 3, 7, 26, 195, 120, 186, 114, 120, 195, 3, 6.92551
64, 2, wb, attraction, a-b-da, 9, 3, 7, 26, 195, 120, 186, 114, 120, 195, 1, 0.413203
64, 2, wb, filler, NA, 999, 999, 7, 27, 166, 194, 169, 66, 185, 103, 2, 0.826377
64, 2, wb, filler, NA, 999, 999, 7, 27, 166, 194, 169, 66, 185, 103, 1, 0.336047
64, 2, wb, attraction, a-b-da, 14, 1, 7, 28, 60, 135, 135, 60, 125, 56, 3, 2.70456
64, 2, wb, attraction, a-b-da, 14, 1, 7, 28, 60, 135, 135, 60, 125, 56, 1, 0.450434
64, 2, wb, attraction, a-b-db, 9, 3, 7, 29, 114, 186, 195, 120, 120, 195, 2, 2.71025
64, 2, wb, attraction, a-b-db, 9, 3, 7, 29, 114, 186, 195, 120, 120, 195, 3, 0.74408
64, 2, wb, attraction, a-b-da, 2, 2, 7, 30, 90, 165, 165, 90, 163, 89, 2, 2.1038
64, 2, wb, attraction, a-b-da, 2, 2, 7, 30, 90, 165, 165, 90, 163, 89, 1, 1.01834
64, 2, wb, filler, NA, 999, 999, 7, 31, 147, 164, 187, 65, 152, 120, 2, 1.81541
64, 2, wb, filler, NA, 999, 999, 7, 31, 147, 164, 187, 65, 152, 120, 1, 0.68539
64, 2, wb, attraction, a-b-db, 5, 1, 7, 32, 60, 135, 58, 132, 135, 60, 3, 1.23976
64, 2, wb, attraction, a-b-db, 5, 1, 7, 32, 60, 135, 58, 132, 135, 60, 2, 0.724745
64, 2, wb, filler, NA, 999, 999, 7, 33, 158, 97, 111, 94, 57, 148, 3, 9.37318
64, 2, wb, filler, NA, 999, 999, 7, 33, 158, 97, 111, 94, 57, 148, 1, 0.57891
64, 2, wb, attraction, a-b-da, 14, 2, 7, 34, 153, 83, 90, 165, 165, 90, 1, 1.92931
64, 2, wb, attraction, a-b-da, 14, 2, 7, 34, 153, 83, 90, 165, 165, 90, 2, 0.722564
64, 2, wb, catch, NA, 999, 999, 7, 35, 86, 109, 132, 123, 138, 177, 1, 1.73167
64, 2, wb, catch, NA, 999, 999, 7, 35, 86, 109, 132, 123, 138, 177, 3, 1.05309
64, 2, wb, attraction, a-b-db, 2, 3, 7, 36, 119, 193, 120, 195, 195, 120, 3, 2.04883
64, 2, wb, attraction, a-b-db, 2, 3, 7, 36, 119, 193, 120, 195, 195, 120, 1, 0.405359
64, 2, wb, attraction, a-b-db, 5, 2, 7, 37, 165, 90, 90, 165, 88, 161, 3, 4.06723
64, 2, wb, attraction, a-b-db, 5, 2, 7, 37, 165, 90, 90, 165, 88, 161, 1, 0.990495
64, 2, wb, attraction, a-b-db, 9, 3, 8, 1, 120, 195, 114, 186, 195, 120, 1, 4.26018
64, 2, wb, attraction, a-b-db, 9, 3, 8, 1, 120, 195, 114, 186, 195, 120, 3, 1.43154
64, 2, wb, attraction, a-b-da, 14, 3, 8, 2, 120, 195, 195, 120, 181, 111, 3, 4.7557
64, 2, wb, attraction, a-b-da, 14, 3, 8, 2, 120, 195, 195, 120, 181, 111, 1, 0.642794
64, 2, wb, catch, NA, 999, 999, 8, 3, 124, 191, 157, 98, 70, 125, 3, 0.95848
64, 2, wb, catch, NA, 999, 999, 8, 3, 124, 191, 157, 98, 70, 125, 1, 1.03884
64, 2, wb, filler, NA, 999, 999, 8, 4, 88, 144, 164, 153, 142, 125, 1, 0.715127
64, 2, wb, filler, NA, 999, 999, 8, 4, 88, 144, 164, 153, 142, 125, 2, 0.461558
64, 2, wb, attraction, a-b-da, 2, 3, 8, 5, 193, 119, 195, 120, 120, 195, 2, 2.9767
64, 2, wb, attraction, a-b-da, 2, 3, 8, 5, 193, 119, 195, 120, 120, 195, 1, 0.863777
64, 2, wb, catch, NA, 999, 999, 8, 6, 180, 135, 100, 95, 118, 137, 2, 2.05877
64, 2, wb, catch, NA, 999, 999, 8, 6, 180, 135, 100, 95, 118, 137, 1, 0.59071
64, 2, wb, attraction, a-b-db, 5, 2, 8, 7, 88, 161, 90, 165, 165, 90, 3, 10.1245
64, 2, wb, attraction, a-b-db, 5, 2, 8, 7, 88, 161, 90, 165, 165, 90, 2, 0.723298
64, 2, wb, attraction, a-b-da, 9, 1, 8, 8, 129, 57, 135, 60, 60, 135, 1, 17.2038
64, 2, wb, attraction, a-b-da, 9, 1, 8, 8, 129, 57, 135, 60, 60, 135, 3, 0.997635
64, 2, wb, filler, NA, 999, 999, 8, 9, 95, 62, 156, 155, 71, 79, 3, 0.819307
64, 2, wb, filler, NA, 999, 999, 8, 9, 95, 62, 156, 155, 71, 79, 2, 0.385647
64, 2, wb, filler, NA, 999, 999, 8, 10, 58, 169, 81, 166, 74, 193, 1, 1.58409
64, 2, wb, filler, NA, 999, 999, 8, 10, 58, 169, 81, 166, 74, 193, 2, 0.6076
64, 2, wb, attraction, a-b-db, 14, 3, 8, 11, 111, 181, 120, 195, 195, 120, 3, 2.73273
64, 2, wb, attraction, a-b-db, 14, 3, 8, 11, 111, 181, 120, 195, 195, 120, 2, 1.32578
64, 2, wb, attraction, a-b-da, 5, 3, 8, 12, 190, 117, 120, 195, 195, 120, 1, 7.27008
64, 2, wb, attraction, a-b-da, 5, 3, 8, 12, 190, 117, 120, 195, 195, 120, 2, 0.488496
64, 2, wb, attraction, a-b-da, 9, 2, 8, 13, 165, 90, 157, 86, 90, 165, 2, 3.54693
64, 2, wb, attraction, a-b-da, 9, 2, 8, 13, 165, 90, 157, 86, 90, 165, 3, 0.603149
64, 2, wb, filler, NA, 999, 999, 8, 14, 188, 103, 164, 99, 136, 150, 2, 7.32075
64, 2, wb, filler, NA, 999, 999, 8, 14, 188, 103, 164, 99, 136, 150, 3, 1.02525
64, 2, wb, attraction, a-b-da, 5, 1, 8, 15, 132, 58, 60, 135, 135, 60, 1, 8.36543
64, 2, wb, attraction, a-b-da, 5, 1, 8, 15, 132, 58, 60, 135, 135, 60, 2, 0.331506
64, 2, wb, catch, NA, 999, 999, 8, 16, 132, 63, 161, 94, 157, 158, 1, 0.628049
64, 2, wb, catch, NA, 999, 999, 8, 16, 132, 63, 161, 94, 157, 158, 3, 0.593727
64, 2, wb, attraction, a-b-db, 9, 1, 8, 17, 135, 60, 60, 135, 57, 129, 1, 1.22349
64, 2, wb, attraction, a-b-db, 9, 1, 8, 17, 135, 60, 60, 135, 57, 129, 2, 0.78107
64, 2, wb, filler, NA, 999, 999, 8, 18, 110, 174, 131, 120, 112, 64, 3, 1.69146
64, 2, wb, filler, NA, 999, 999, 8, 18, 110, 174, 131, 120, 112, 64, 1, 0.91828
64, 2, wb, attraction, a-b-db, 5, 1, 8, 19, 135, 60, 60, 135, 58, 132, 1, 1.2393
64, 2, wb, attraction, a-b-db, 5, 1, 8, 19, 135, 60, 60, 135, 58, 132, 2, 0.52412
64, 2, wb, attraction, a-b-da, 14, 2, 8, 20, 153, 83, 165, 90, 90, 165, 1, 3.21274
64, 2, wb, attraction, a-b-da, 14, 2, 8, 20, 153, 83, 165, 90, 90, 165, 3, 0.794363
64, 2, wb, attraction, a-b-da, 2, 2, 8, 21, 90, 165, 163, 89, 165, 90, 1, 3.88009
64, 2, wb, attraction, a-b-da, 2, 2, 8, 21, 90, 165, 163, 89, 165, 90, 2, 0.530749
64, 2, wb, attraction, a-b-db, 5, 3, 8, 22, 120, 195, 195, 120, 117, 190, 3, 2.18708
64, 2, wb, attraction, a-b-db, 5, 3, 8, 22, 120, 195, 195, 120, 117, 190, 1, 0.658376
64, 2, wb, filler, NA, 999, 999, 8, 23, 172, 91, 193, 88, 135, 82, 3, 0.957455
64, 2, wb, filler, NA, 999, 999, 8, 23, 172, 91, 193, 88, 135, 82, 2, 0.549743
64, 2, wb, attraction, a-b-da, 9, 3, 8, 24, 186, 114, 195, 120, 120, 195, 1, 2.82973
64, 2, wb, attraction, a-b-da, 9, 3, 8, 24, 186, 114, 195, 120, 120, 195, 3, 2.39468
64, 2, wb, filler, NA, 999, 999, 8, 25, 182, 156, 84, 133, 73, 192, 2, 6.70381
64, 2, wb, filler, NA, 999, 999, 8, 25, 182, 156, 84, 133, 73, 192, 1, 0.457059
64, 2, wb, attraction, a-b-db, 2, 1, 8, 26, 135, 60, 59, 134, 60, 135, 1, 1.94022
64, 2, wb, attraction, a-b-db, 2, 1, 8, 26, 135, 60, 59, 134, 60, 135, 2, 1.34898
64, 2, wb, filler, NA, 999, 999, 8, 27, 108, 102, 189, 110, 164, 110, 1, 0.812384
64, 2, wb, filler, NA, 999, 999, 8, 27, 108, 102, 189, 110, 164, 110, 2, 0.578855
64, 2, wb, filler, NA, 999, 999, 8, 28, 171, 78, 89, 74, 70, 121, 2, 3.20142
64, 2, wb, filler, NA, 999, 999, 8, 28, 171, 78, 89, 74, 70, 121, 1, 3.36758
64, 2, wb, attraction, a-b-db, 2, 2, 8, 29, 165, 90, 90, 165, 89, 163, 1, 2.46184
64, 2, wb, attraction, a-b-db, 2, 2, 8, 29, 165, 90, 90, 165, 89, 163, 3, 0.545689
64, 2, wb, filler, NA, 999, 999, 8, 30, 158, 102, 113, 77, 157, 144, 2, 2.5854
64, 2, wb, filler, NA, 999, 999, 8, 30, 158, 102, 113, 77, 157, 144, 3, 0.464652
64, 2, wb, attraction, a-b-db, 2, 3, 8, 31, 195, 120, 120, 195, 119, 193, 3, 2.61981
64, 2, wb, attraction, a-b-db, 2, 3, 8, 31, 195, 120, 120, 195, 119, 193, 2, 0.481564
64, 2, wb, attraction, a-b-da, 2, 1, 8, 32, 60, 135, 135, 60, 134, 59, 2, 2.75597
64, 2, wb, attraction, a-b-da, 2, 1, 8, 32, 60, 135, 135, 60, 134, 59, 3, 0.483739
64, 2, wb, attraction, a-b-da, 5, 2, 8, 33, 90, 165, 165, 90, 161, 88, 3, 1.50216
64, 2, wb, attraction, a-b-da, 5, 2, 8, 33, 90, 165, 165, 90, 161, 88, 1, 0.40122
64, 2, wb, attraction, a-b-da, 14, 1, 8, 34, 60, 135, 135, 60, 125, 56, 3, 2.41825
64, 2, wb, attraction, a-b-da, 14, 1, 8, 34, 60, 135, 135, 60, 125, 56, 1, 0.948776
64, 2, wb, attraction, a-b-db, 14, 1, 8, 35, 135, 60, 60, 135, 56, 125, 1, 1.70834
64, 2, wb, attraction, a-b-db, 14, 1, 8, 35, 135, 60, 60, 135, 56, 125, 2, 0.446487
64, 2, wb, attraction, a-b-db, 14, 2, 8, 36, 165, 90, 83, 153, 90, 165, 1, 1.99451
64, 2, wb, attraction, a-b-db, 14, 2, 8, 36, 165, 90, 83, 153, 90, 165, 2, 0.801024
64, 2, wb, attraction, a-b-db, 9, 2, 8, 37, 86, 157, 165, 90, 90, 165, 1, 11.2387
64, 2, wb, attraction, a-b-db, 9, 2, 8, 37, 86, 157, 165, 90, 90, 165, 3, 0.609272
