sub_n, computer_n, bw_cond, effect, set, distance, diag, block_n, trial_n, h1, w1, h2, w2, h3, w3, choice, rt 
68, 2, wb, practice, NA, 999, 999, 0, 1, 148, 115, 115, 92, 153, 88, 2, 2.44166
68, 2, wb, practice, NA, 999, 999, 0, 1, 148, 115, 115, 92, 153, 88, 1, 3.43816
68, 2, wb, practice, NA, 999, 999, 0, 2, 173, 156, 131, 138, 116, 160, 2, 4.55661
68, 2, wb, practice, NA, 999, 999, 0, 2, 173, 156, 131, 138, 116, 160, 1, 1.84503
68, 2, wb, practice, NA, 999, 999, 0, 3, 112, 154, 143, 152, 66, 168, 3, 3.69257
68, 2, wb, practice, NA, 999, 999, 0, 3, 112, 154, 143, 152, 66, 168, 2, 0.950675
68, 2, wb, attraction, a-b-da, 2, 3, 1, 1, 120, 195, 193, 119, 195, 120, 3, 8.28192
68, 2, wb, attraction, a-b-da, 2, 3, 1, 1, 120, 195, 193, 119, 195, 120, 1, 2.53122
68, 2, wb, attraction, a-b-db, 5, 2, 1, 2, 165, 90, 88, 161, 90, 165, 2, 2.45896
68, 2, wb, attraction, a-b-db, 5, 2, 1, 2, 165, 90, 88, 161, 90, 165, 1, 2.62286
68, 2, wb, attraction, a-b-db, 5, 1, 1, 3, 58, 132, 135, 60, 60, 135, 2, 3.05131
68, 2, wb, attraction, a-b-db, 5, 1, 1, 3, 58, 132, 135, 60, 60, 135, 3, 1.09563
68, 2, wb, catch, NA, 999, 999, 1, 4, 96, 159, 152, 163, 69, 126, 3, 1.57718
68, 2, wb, catch, NA, 999, 999, 1, 4, 96, 159, 152, 163, 69, 126, 2, 0.632859
68, 2, wb, attraction, a-b-da, 5, 2, 1, 5, 165, 90, 161, 88, 90, 165, 2, 2.80516
68, 2, wb, attraction, a-b-da, 5, 2, 1, 5, 165, 90, 161, 88, 90, 165, 3, 1.39488
68, 2, wb, filler, NA, 999, 999, 1, 6, 134, 82, 75, 164, 140, 97, 1, 3.70455
68, 2, wb, filler, NA, 999, 999, 1, 6, 134, 82, 75, 164, 140, 97, 3, 1.0179
68, 2, wb, filler, NA, 999, 999, 1, 7, 114, 123, 163, 71, 161, 60, 3, 2.42276
68, 2, wb, filler, NA, 999, 999, 1, 7, 114, 123, 163, 71, 161, 60, 1, 0.748035
68, 2, wb, attraction, a-b-db, 14, 2, 1, 8, 83, 153, 90, 165, 165, 90, 1, 2.90777
68, 2, wb, attraction, a-b-db, 14, 2, 1, 8, 83, 153, 90, 165, 165, 90, 2, 0.973559
68, 2, wb, attraction, a-b-da, 14, 3, 1, 9, 195, 120, 120, 195, 181, 111, 3, 2.04384
68, 2, wb, attraction, a-b-da, 14, 3, 1, 9, 195, 120, 120, 195, 181, 111, 2, 0.712439
68, 2, wb, attraction, a-b-db, 9, 3, 1, 10, 120, 195, 195, 120, 114, 186, 3, 1.80945
68, 2, wb, attraction, a-b-db, 9, 3, 1, 10, 120, 195, 195, 120, 114, 186, 1, 1.04753
68, 2, wb, attraction, a-b-da, 9, 3, 1, 11, 186, 114, 120, 195, 195, 120, 1, 2.96329
68, 2, wb, attraction, a-b-da, 9, 3, 1, 11, 186, 114, 120, 195, 195, 120, 2, 0.914905
68, 2, wb, attraction, a-b-da, 2, 2, 1, 12, 163, 89, 90, 165, 165, 90, 3, 2.43585
68, 2, wb, attraction, a-b-da, 2, 2, 1, 12, 163, 89, 90, 165, 165, 90, 2, 0.945146
68, 2, wb, filler, NA, 999, 999, 1, 13, 176, 136, 123, 165, 128, 83, 3, 1.14476
68, 2, wb, filler, NA, 999, 999, 1, 13, 176, 136, 123, 165, 128, 83, 1, 0.681685
68, 2, wb, filler, NA, 999, 999, 1, 14, 99, 61, 177, 156, 152, 99, 1, 1.4521
68, 2, wb, filler, NA, 999, 999, 1, 14, 99, 61, 177, 156, 152, 99, 2, 0.609148
68, 2, wb, filler, NA, 999, 999, 1, 15, 134, 94, 100, 130, 143, 62, 3, 1.47014
68, 2, wb, filler, NA, 999, 999, 1, 15, 134, 94, 100, 130, 143, 62, 1, 1.61759
68, 2, wb, attraction, a-b-da, 14, 1, 1, 16, 135, 60, 125, 56, 60, 135, 2, 1.55031
68, 2, wb, attraction, a-b-da, 14, 1, 1, 16, 135, 60, 125, 56, 60, 135, 1, 1.47119
68, 2, wb, attraction, a-b-da, 5, 3, 1, 17, 190, 117, 195, 120, 120, 195, 2, 3.80204
68, 2, wb, attraction, a-b-da, 5, 3, 1, 17, 190, 117, 195, 120, 120, 195, 3, 0.480141
68, 2, wb, catch, NA, 999, 999, 1, 18, 126, 129, 65, 130, 153, 162, 2, 1.81858
68, 2, wb, catch, NA, 999, 999, 1, 18, 126, 129, 65, 130, 153, 162, 3, 0.456696
68, 2, wb, filler, NA, 999, 999, 1, 19, 127, 105, 143, 136, 86, 76, 3, 1.10772
68, 2, wb, filler, NA, 999, 999, 1, 19, 127, 105, 143, 136, 86, 76, 2, 0.517952
68, 2, wb, attraction, a-b-da, 9, 2, 1, 20, 165, 90, 90, 165, 157, 86, 3, 2.83921
68, 2, wb, attraction, a-b-da, 9, 2, 1, 20, 165, 90, 90, 165, 157, 86, 2, 1.32356
68, 2, wb, attraction, a-b-db, 2, 3, 1, 21, 119, 193, 120, 195, 195, 120, 1, 3.45174
68, 2, wb, attraction, a-b-db, 2, 3, 1, 21, 119, 193, 120, 195, 195, 120, 2, 1.36004
68, 2, wb, attraction, a-b-db, 14, 3, 1, 22, 111, 181, 195, 120, 120, 195, 1, 1.8949
68, 2, wb, attraction, a-b-db, 14, 3, 1, 22, 111, 181, 195, 120, 120, 195, 2, 0.657532
68, 2, wb, attraction, a-b-da, 2, 1, 1, 23, 134, 59, 60, 135, 135, 60, 2, 3.66055
68, 2, wb, attraction, a-b-da, 2, 1, 1, 23, 134, 59, 60, 135, 135, 60, 3, 1.07223
68, 2, wb, catch, NA, 999, 999, 1, 24, 137, 178, 127, 68, 97, 158, 2, 0.819128
68, 2, wb, catch, NA, 999, 999, 1, 24, 137, 178, 127, 68, 97, 158, 1, 0.801593
68, 2, wb, attraction, a-b-db, 5, 3, 1, 25, 195, 120, 117, 190, 120, 195, 2, 2.27907
68, 2, wb, attraction, a-b-db, 5, 3, 1, 25, 195, 120, 117, 190, 120, 195, 1, 0.586356
68, 2, wb, attraction, a-b-db, 2, 1, 1, 26, 135, 60, 59, 134, 60, 135, 2, 1.24878
68, 2, wb, attraction, a-b-db, 2, 1, 1, 26, 135, 60, 59, 134, 60, 135, 1, 2.05376
68, 2, wb, filler, NA, 999, 999, 1, 27, 101, 67, 113, 182, 147, 73, 1, 1.24109
68, 2, wb, filler, NA, 999, 999, 1, 27, 101, 67, 113, 182, 147, 73, 2, 0.709998
68, 2, wb, filler, NA, 999, 999, 1, 28, 146, 122, 66, 111, 75, 167, 2, 1.11908
68, 2, wb, filler, NA, 999, 999, 1, 28, 146, 122, 66, 111, 75, 167, 1, 0.705309
68, 2, wb, attraction, a-b-da, 9, 1, 1, 29, 129, 57, 60, 135, 135, 60, 1, 1.73909
68, 2, wb, attraction, a-b-da, 9, 1, 1, 29, 129, 57, 60, 135, 135, 60, 3, 1.03582
68, 2, wb, attraction, a-b-db, 9, 2, 1, 30, 86, 157, 165, 90, 90, 165, 1, 1.67209
68, 2, wb, attraction, a-b-db, 9, 2, 1, 30, 86, 157, 165, 90, 90, 165, 3, 2.1316
68, 2, wb, filler, NA, 999, 999, 1, 31, 146, 63, 174, 174, 175, 138, 1, 0.79552
68, 2, wb, filler, NA, 999, 999, 1, 31, 146, 63, 174, 174, 175, 138, 2, 0.930566
68, 2, wb, attraction, a-b-db, 2, 2, 1, 32, 89, 163, 165, 90, 90, 165, 3, 1.99489
68, 2, wb, attraction, a-b-db, 2, 2, 1, 32, 89, 163, 165, 90, 90, 165, 2, 1.08955
68, 2, wb, attraction, a-b-db, 14, 1, 1, 33, 56, 125, 60, 135, 135, 60, 1, 1.70714
68, 2, wb, attraction, a-b-db, 14, 1, 1, 33, 56, 125, 60, 135, 135, 60, 3, 0.789339
68, 2, wb, attraction, a-b-da, 14, 2, 1, 34, 165, 90, 90, 165, 153, 83, 3, 2.58705
68, 2, wb, attraction, a-b-da, 14, 2, 1, 34, 165, 90, 90, 165, 153, 83, 1, 0.802133
68, 2, wb, attraction, a-b-da, 5, 1, 1, 35, 135, 60, 60, 135, 132, 58, 3, 4.19991
68, 2, wb, attraction, a-b-da, 5, 1, 1, 35, 135, 60, 60, 135, 132, 58, 2, 0.621761
68, 2, wb, filler, NA, 999, 999, 1, 36, 178, 153, 132, 107, 128, 128, 2, 1.40288
68, 2, wb, filler, NA, 999, 999, 1, 36, 178, 153, 132, 107, 128, 128, 1, 0.449675
68, 2, wb, attraction, a-b-db, 9, 1, 1, 37, 57, 129, 135, 60, 60, 135, 1, 1.77355
68, 2, wb, attraction, a-b-db, 9, 1, 1, 37, 57, 129, 135, 60, 60, 135, 2, 0.580856
68, 2, wb, attraction, a-b-da, 5, 3, 2, 1, 195, 120, 120, 195, 190, 117, 3, 2.69141
68, 2, wb, attraction, a-b-da, 5, 3, 2, 1, 195, 120, 120, 195, 190, 117, 2, 0.46982
68, 2, wb, attraction, a-b-db, 9, 2, 2, 2, 86, 157, 165, 90, 90, 165, 1, 1.84105
68, 2, wb, attraction, a-b-db, 9, 2, 2, 2, 86, 157, 165, 90, 90, 165, 3, 0.733759
68, 2, wb, filler, NA, 999, 999, 2, 3, 79, 151, 153, 117, 171, 172, 1, 0.686026
68, 2, wb, filler, NA, 999, 999, 2, 3, 79, 151, 153, 117, 171, 172, 3, 0.833828
68, 2, wb, catch, NA, 999, 999, 2, 4, 83, 112, 154, 161, 160, 95, 1, 0.782095
68, 2, wb, catch, NA, 999, 999, 2, 4, 83, 112, 154, 161, 160, 95, 2, 0.51791
68, 2, wb, filler, NA, 999, 999, 2, 5, 104, 132, 83, 85, 78, 142, 2, 1.063
68, 2, wb, filler, NA, 999, 999, 2, 5, 104, 132, 83, 85, 78, 142, 1, 0.459299
68, 2, wb, catch, NA, 999, 999, 2, 6, 139, 116, 176, 139, 104, 91, 3, 0.742489
68, 2, wb, catch, NA, 999, 999, 2, 6, 139, 116, 176, 139, 104, 91, 2, 0.687519
68, 2, wb, attraction, a-b-da, 9, 3, 2, 7, 186, 114, 195, 120, 120, 195, 1, 3.00996
68, 2, wb, attraction, a-b-da, 9, 3, 2, 7, 186, 114, 195, 120, 120, 195, 3, 0.415712
68, 2, wb, attraction, a-b-db, 14, 1, 2, 8, 60, 135, 56, 125, 135, 60, 2, 1.19674
68, 2, wb, attraction, a-b-db, 14, 1, 2, 8, 60, 135, 56, 125, 135, 60, 3, 0.611675
68, 2, wb, attraction, a-b-da, 2, 2, 2, 9, 165, 90, 163, 89, 90, 165, 3, 1.169
68, 2, wb, attraction, a-b-da, 2, 2, 2, 9, 165, 90, 163, 89, 90, 165, 1, 0.873031
68, 2, wb, filler, NA, 999, 999, 2, 10, 102, 124, 192, 177, 154, 160, 1, 0.883509
68, 2, wb, filler, NA, 999, 999, 2, 10, 102, 124, 192, 177, 154, 160, 2, 0.351141
68, 2, wb, attraction, a-b-da, 14, 3, 2, 11, 181, 111, 120, 195, 195, 120, 1, 1.56702
68, 2, wb, attraction, a-b-da, 14, 3, 2, 11, 181, 111, 120, 195, 195, 120, 2, 0.415174
68, 2, wb, attraction, a-b-db, 9, 3, 2, 12, 120, 195, 114, 186, 195, 120, 2, 1.19621
68, 2, wb, attraction, a-b-db, 9, 3, 2, 12, 120, 195, 114, 186, 195, 120, 1, 0.835304
68, 2, wb, filler, NA, 999, 999, 2, 13, 176, 138, 171, 179, 115, 180, 3, 0.631551
68, 2, wb, filler, NA, 999, 999, 2, 13, 176, 138, 171, 179, 115, 180, 2, 0.365361
68, 2, wb, filler, NA, 999, 999, 2, 14, 180, 170, 120, 86, 96, 97, 3, 0.884428
68, 2, wb, filler, NA, 999, 999, 2, 14, 180, 170, 120, 86, 96, 97, 1, 0.344205
68, 2, wb, attraction, a-b-da, 2, 1, 2, 15, 135, 60, 134, 59, 60, 135, 2, 1.09599
68, 2, wb, attraction, a-b-da, 2, 1, 2, 15, 135, 60, 134, 59, 60, 135, 1, 0.71494
68, 2, wb, attraction, a-b-da, 14, 2, 2, 16, 153, 83, 165, 90, 90, 165, 1, 0.819938
68, 2, wb, attraction, a-b-da, 14, 2, 2, 16, 153, 83, 165, 90, 90, 165, 2, 0.714311
68, 2, wb, filler, NA, 999, 999, 2, 17, 110, 91, 179, 155, 86, 144, 1, 0.64338
68, 2, wb, filler, NA, 999, 999, 2, 17, 110, 91, 179, 155, 86, 144, 2, 0.440531
68, 2, wb, attraction, a-b-db, 14, 2, 2, 18, 83, 153, 90, 165, 165, 90, 1, 1.92445
68, 2, wb, attraction, a-b-db, 14, 2, 2, 18, 83, 153, 90, 165, 165, 90, 3, 0.469705
68, 2, wb, filler, NA, 999, 999, 2, 19, 181, 166, 193, 193, 139, 126, 3, 0.736802
68, 2, wb, filler, NA, 999, 999, 2, 19, 181, 166, 193, 193, 139, 126, 2, 0.290574
68, 2, wb, attraction, a-b-db, 2, 2, 2, 20, 90, 165, 89, 163, 165, 90, 2, 0.868438
68, 2, wb, attraction, a-b-db, 2, 2, 2, 20, 90, 165, 89, 163, 165, 90, 3, 0.544739
68, 2, wb, catch, NA, 999, 999, 2, 21, 171, 144, 70, 125, 160, 95, 2, 0.64852
68, 2, wb, catch, NA, 999, 999, 2, 21, 171, 144, 70, 125, 160, 95, 1, 0.389637
68, 2, wb, attraction, a-b-db, 5, 3, 2, 22, 120, 195, 117, 190, 195, 120, 2, 1.99556
68, 2, wb, attraction, a-b-db, 5, 3, 2, 22, 120, 195, 117, 190, 195, 120, 3, 0.52216
68, 2, wb, attraction, a-b-db, 14, 3, 2, 23, 120, 195, 195, 120, 111, 181, 3, 1.05142
68, 2, wb, attraction, a-b-db, 14, 3, 2, 23, 120, 195, 195, 120, 111, 181, 2, 0.296198
68, 2, wb, attraction, a-b-da, 5, 1, 2, 24, 132, 58, 60, 135, 135, 60, 1, 1.59421
68, 2, wb, attraction, a-b-da, 5, 1, 2, 24, 132, 58, 60, 135, 135, 60, 3, 0.624837
68, 2, wb, attraction, a-b-db, 5, 1, 2, 25, 60, 135, 135, 60, 58, 132, 3, 1.05331
68, 2, wb, attraction, a-b-db, 5, 1, 2, 25, 60, 135, 135, 60, 58, 132, 2, 0.337692
68, 2, wb, filler, NA, 999, 999, 2, 26, 126, 61, 100, 66, 184, 159, 2, 0.994167
68, 2, wb, filler, NA, 999, 999, 2, 26, 126, 61, 100, 66, 184, 159, 3, 0.353194
68, 2, wb, attraction, a-b-da, 5, 2, 2, 27, 161, 88, 90, 165, 165, 90, 1, 1.16892
68, 2, wb, attraction, a-b-da, 5, 2, 2, 27, 161, 88, 90, 165, 165, 90, 2, 0.353208
68, 2, wb, attraction, a-b-da, 2, 3, 2, 28, 195, 120, 120, 195, 193, 119, 3, 0.945032
68, 2, wb, attraction, a-b-da, 2, 3, 2, 28, 195, 120, 120, 195, 193, 119, 2, 0.314076
68, 2, wb, attraction, a-b-db, 9, 1, 2, 29, 135, 60, 57, 129, 60, 135, 2, 0.995249
68, 2, wb, attraction, a-b-db, 9, 1, 2, 29, 135, 60, 57, 129, 60, 135, 1, 0.658332
68, 2, wb, attraction, a-b-db, 5, 2, 2, 30, 165, 90, 90, 165, 88, 161, 3, 1.11729
68, 2, wb, attraction, a-b-db, 5, 2, 2, 30, 165, 90, 90, 165, 88, 161, 1, 0.687625
68, 2, wb, filler, NA, 999, 999, 2, 31, 191, 165, 78, 107, 156, 147, 2, 0.762023
68, 2, wb, filler, NA, 999, 999, 2, 31, 191, 165, 78, 107, 156, 147, 1, 0.698441
68, 2, wb, attraction, a-b-da, 14, 1, 2, 32, 60, 135, 125, 56, 135, 60, 2, 1.97226
68, 2, wb, attraction, a-b-da, 14, 1, 2, 32, 60, 135, 125, 56, 135, 60, 3, 0.491594
68, 2, wb, attraction, a-b-da, 9, 1, 2, 33, 60, 135, 135, 60, 129, 57, 2, 1.38933
68, 2, wb, attraction, a-b-da, 9, 1, 2, 33, 60, 135, 135, 60, 129, 57, 3, 2.42017
68, 2, wb, attraction, a-b-db, 2, 3, 2, 34, 120, 195, 119, 193, 195, 120, 2, 4.41666
68, 2, wb, attraction, a-b-db, 2, 3, 2, 34, 120, 195, 119, 193, 195, 120, 3, 0.549857
68, 2, wb, attraction, a-b-da, 9, 2, 2, 35, 90, 165, 157, 86, 165, 90, 2, 8.24566
68, 2, wb, attraction, a-b-da, 9, 2, 2, 35, 90, 165, 157, 86, 165, 90, 1, 0.384436
68, 2, wb, attraction, a-b-db, 2, 1, 2, 36, 59, 134, 60, 135, 135, 60, 2, 1.01494
68, 2, wb, attraction, a-b-db, 2, 1, 2, 36, 59, 134, 60, 135, 135, 60, 3, 0.405227
68, 2, wb, filler, NA, 999, 999, 2, 37, 108, 119, 79, 194, 56, 63, 3, 0.787114
68, 2, wb, filler, NA, 999, 999, 2, 37, 108, 119, 79, 194, 56, 63, 2, 1.18677
68, 2, wb, attraction, a-b-db, 2, 2, 3, 1, 165, 90, 90, 165, 89, 163, 3, 1.04102
68, 2, wb, attraction, a-b-db, 2, 2, 3, 1, 165, 90, 90, 165, 89, 163, 1, 0.541987
68, 2, wb, attraction, a-b-db, 2, 1, 3, 2, 59, 134, 135, 60, 60, 135, 3, 1.19779
68, 2, wb, attraction, a-b-db, 2, 1, 3, 2, 59, 134, 135, 60, 60, 135, 2, 0.340664
68, 2, wb, catch, NA, 999, 999, 3, 3, 94, 161, 179, 136, 99, 96, 3, 0.708583
68, 2, wb, catch, NA, 999, 999, 3, 3, 94, 161, 179, 136, 99, 96, 2, 0.374971
68, 2, wb, attraction, a-b-da, 2, 2, 3, 4, 90, 165, 163, 89, 165, 90, 2, 4.70147
68, 2, wb, attraction, a-b-da, 2, 2, 3, 4, 90, 165, 163, 89, 165, 90, 1, 0.823231
68, 2, wb, filler, NA, 999, 999, 3, 5, 119, 139, 185, 184, 128, 162, 1, 0.77169
68, 2, wb, filler, NA, 999, 999, 3, 5, 119, 139, 185, 184, 128, 162, 2, 0.355329
68, 2, wb, filler, NA, 999, 999, 3, 6, 61, 122, 87, 58, 60, 91, 2, 1.29121
68, 2, wb, filler, NA, 999, 999, 3, 6, 61, 122, 87, 58, 60, 91, 1, 0.454211
68, 2, wb, catch, NA, 999, 999, 3, 7, 121, 74, 126, 189, 111, 144, 1, 0.76989
68, 2, wb, catch, NA, 999, 999, 3, 7, 121, 74, 126, 189, 111, 144, 2, 0.386385
68, 2, wb, filler, NA, 999, 999, 3, 8, 72, 64, 117, 142, 81, 178, 1, 0.536717
68, 2, wb, filler, NA, 999, 999, 3, 8, 72, 64, 117, 142, 81, 178, 2, 0.610601
68, 2, wb, attraction, a-b-db, 14, 1, 3, 9, 60, 135, 56, 125, 135, 60, 2, 1.43969
68, 2, wb, attraction, a-b-db, 14, 1, 3, 9, 60, 135, 56, 125, 135, 60, 3, 0.348541
68, 2, wb, attraction, a-b-db, 9, 2, 3, 10, 90, 165, 86, 157, 165, 90, 2, 0.732321
68, 2, wb, attraction, a-b-db, 9, 2, 3, 10, 90, 165, 86, 157, 165, 90, 3, 0.342041
68, 2, wb, attraction, a-b-da, 14, 3, 3, 11, 181, 111, 195, 120, 120, 195, 3, 0.87797
68, 2, wb, attraction, a-b-da, 14, 3, 3, 11, 181, 111, 195, 120, 120, 195, 2, 0.369643
68, 2, wb, filler, NA, 999, 999, 3, 12, 73, 190, 117, 94, 103, 176, 2, 0.640829
68, 2, wb, filler, NA, 999, 999, 3, 12, 73, 190, 117, 94, 103, 176, 3, 0.461892
68, 2, wb, attraction, a-b-da, 9, 3, 3, 13, 186, 114, 120, 195, 195, 120, 1, 1.02506
68, 2, wb, attraction, a-b-da, 9, 3, 3, 13, 186, 114, 120, 195, 195, 120, 2, 0.463234
68, 2, wb, attraction, a-b-da, 5, 1, 3, 14, 60, 135, 135, 60, 132, 58, 1, 1.92981
68, 2, wb, attraction, a-b-da, 5, 1, 3, 14, 60, 135, 135, 60, 132, 58, 2, 0.451213
68, 2, wb, filler, NA, 999, 999, 3, 15, 194, 83, 80, 119, 60, 182, 2, 0.814955
68, 2, wb, filler, NA, 999, 999, 3, 15, 194, 83, 80, 119, 60, 182, 1, 0.429505
68, 2, wb, attraction, a-b-db, 9, 3, 3, 16, 114, 186, 120, 195, 195, 120, 1, 0.99387
68, 2, wb, attraction, a-b-db, 9, 3, 3, 16, 114, 186, 120, 195, 195, 120, 3, 0.528788
68, 2, wb, filler, NA, 999, 999, 3, 17, 160, 90, 168, 101, 160, 86, 3, 1.3773
68, 2, wb, filler, NA, 999, 999, 3, 17, 160, 90, 168, 101, 160, 86, 2, 0.352858
68, 2, wb, attraction, a-b-da, 5, 3, 3, 18, 195, 120, 190, 117, 120, 195, 3, 0.688666
68, 2, wb, attraction, a-b-da, 5, 3, 3, 18, 195, 120, 190, 117, 120, 195, 2, 0.347803
68, 2, wb, attraction, a-b-db, 14, 3, 3, 19, 195, 120, 120, 195, 111, 181, 3, 0.915614
68, 2, wb, attraction, a-b-db, 14, 3, 3, 19, 195, 120, 120, 195, 111, 181, 1, 0.358058
68, 2, wb, attraction, a-b-da, 2, 1, 3, 20, 135, 60, 134, 59, 60, 135, 1, 1.33308
68, 2, wb, attraction, a-b-da, 2, 1, 3, 20, 135, 60, 134, 59, 60, 135, 2, 0.614726
68, 2, wb, attraction, a-b-da, 9, 1, 3, 21, 60, 135, 135, 60, 129, 57, 3, 0.835897
68, 2, wb, attraction, a-b-da, 9, 1, 3, 21, 60, 135, 135, 60, 129, 57, 1, 0.929469
68, 2, wb, attraction, a-b-db, 9, 1, 3, 22, 57, 129, 60, 135, 135, 60, 1, 1.16978
68, 2, wb, attraction, a-b-db, 9, 1, 3, 22, 57, 129, 60, 135, 135, 60, 3, 0.754074
68, 2, wb, attraction, a-b-da, 5, 2, 3, 23, 161, 88, 90, 165, 165, 90, 1, 0.793698
68, 2, wb, attraction, a-b-da, 5, 2, 3, 23, 161, 88, 90, 165, 165, 90, 2, 0.36083
68, 2, wb, attraction, a-b-da, 2, 3, 3, 24, 120, 195, 193, 119, 195, 120, 1, 0.799975
68, 2, wb, attraction, a-b-da, 2, 3, 3, 24, 120, 195, 193, 119, 195, 120, 2, 0.4071
68, 2, wb, attraction, a-b-da, 9, 2, 3, 25, 157, 86, 90, 165, 165, 90, 1, 0.852192
68, 2, wb, attraction, a-b-da, 9, 2, 3, 25, 157, 86, 90, 165, 165, 90, 2, 0.393258
68, 2, wb, attraction, a-b-db, 5, 1, 3, 26, 58, 132, 60, 135, 135, 60, 1, 1.24699
68, 2, wb, attraction, a-b-db, 5, 1, 3, 26, 58, 132, 60, 135, 135, 60, 3, 0.547959
68, 2, wb, attraction, a-b-da, 14, 2, 3, 27, 90, 165, 153, 83, 165, 90, 2, 0.659722
68, 2, wb, attraction, a-b-da, 14, 2, 3, 27, 90, 165, 153, 83, 165, 90, 1, 0.47213
68, 2, wb, filler, NA, 999, 999, 3, 28, 56, 86, 172, 183, 117, 142, 1, 0.579307
68, 2, wb, filler, NA, 999, 999, 3, 28, 56, 86, 172, 183, 117, 142, 2, 0.275105
68, 2, wb, attraction, a-b-db, 5, 3, 3, 29, 120, 195, 117, 190, 195, 120, 2, 0.669632
68, 2, wb, attraction, a-b-db, 5, 3, 3, 29, 120, 195, 117, 190, 195, 120, 3, 0.354043
68, 2, wb, filler, NA, 999, 999, 3, 30, 150, 94, 180, 149, 85, 118, 3, 0.754056
68, 2, wb, filler, NA, 999, 999, 3, 30, 150, 94, 180, 149, 85, 118, 2, 0.306532
68, 2, wb, filler, NA, 999, 999, 3, 31, 122, 135, 154, 193, 184, 82, 1, 0.603373
68, 2, wb, filler, NA, 999, 999, 3, 31, 122, 135, 154, 193, 184, 82, 2, 0.314545
68, 2, wb, attraction, a-b-db, 14, 2, 3, 32, 90, 165, 165, 90, 83, 153, 2, 1.21969
68, 2, wb, attraction, a-b-db, 14, 2, 3, 32, 90, 165, 165, 90, 83, 153, 3, 0.54551
68, 2, wb, attraction, a-b-da, 14, 1, 3, 33, 135, 60, 60, 135, 125, 56, 3, 0.865194
68, 2, wb, attraction, a-b-da, 14, 1, 3, 33, 135, 60, 60, 135, 125, 56, 1, 0.989488
68, 2, wb, attraction, a-b-db, 2, 3, 3, 34, 195, 120, 119, 193, 120, 195, 3, 1.01119
68, 2, wb, attraction, a-b-db, 2, 3, 3, 34, 195, 120, 119, 193, 120, 195, 1, 0.497535
68, 2, wb, attraction, a-b-db, 5, 2, 3, 35, 165, 90, 90, 165, 88, 161, 3, 1.16317
68, 2, wb, attraction, a-b-db, 5, 2, 3, 35, 165, 90, 90, 165, 88, 161, 2, 0.547543
68, 2, wb, filler, NA, 999, 999, 3, 36, 73, 113, 156, 166, 191, 85, 1, 0.619238
68, 2, wb, filler, NA, 999, 999, 3, 36, 73, 113, 156, 166, 191, 85, 2, 0.337732
68, 2, wb, catch, NA, 999, 999, 3, 37, 113, 142, 72, 123, 164, 151, 2, 0.586261
68, 2, wb, catch, NA, 999, 999, 3, 37, 113, 142, 72, 123, 164, 151, 3, 0.394014
68, 2, wb, attraction, a-b-da, 5, 2, 4, 1, 90, 165, 165, 90, 161, 88, 2, 1.30389
68, 2, wb, attraction, a-b-da, 5, 2, 4, 1, 90, 165, 165, 90, 161, 88, 3, 0.522781
68, 2, wb, catch, NA, 999, 999, 4, 2, 80, 115, 100, 155, 177, 138, 1, 0.771144
68, 2, wb, catch, NA, 999, 999, 4, 2, 80, 115, 100, 155, 177, 138, 3, 0.346879
68, 2, wb, filler, NA, 999, 999, 4, 3, 187, 182, 75, 71, 69, 121, 2, 0.754764
68, 2, wb, filler, NA, 999, 999, 4, 3, 187, 182, 75, 71, 69, 121, 1, 0.315149
68, 2, wb, filler, NA, 999, 999, 4, 4, 125, 68, 143, 86, 126, 150, 1, 0.612324
68, 2, wb, filler, NA, 999, 999, 4, 4, 125, 68, 143, 86, 126, 150, 3, 0.418771
68, 2, wb, attraction, a-b-da, 2, 1, 4, 5, 60, 135, 134, 59, 135, 60, 3, 1.71988
68, 2, wb, attraction, a-b-da, 2, 1, 4, 5, 60, 135, 134, 59, 135, 60, 2, 0.3294
68, 2, wb, catch, NA, 999, 999, 4, 6, 144, 171, 96, 99, 129, 126, 2, 0.56183
68, 2, wb, catch, NA, 999, 999, 4, 6, 144, 171, 96, 99, 129, 126, 1, 0.29827
68, 2, wb, attraction, a-b-db, 14, 3, 4, 7, 195, 120, 120, 195, 111, 181, 3, 0.804144
68, 2, wb, attraction, a-b-db, 14, 3, 4, 7, 195, 120, 120, 195, 111, 181, 1, 0.346519
68, 2, wb, attraction, a-b-da, 9, 1, 4, 8, 60, 135, 135, 60, 129, 57, 3, 0.85035
68, 2, wb, attraction, a-b-da, 9, 1, 4, 8, 60, 135, 135, 60, 129, 57, 1, 0.751407
68, 2, wb, attraction, a-b-da, 5, 1, 4, 9, 135, 60, 60, 135, 132, 58, 2, 1.68722
68, 2, wb, attraction, a-b-da, 5, 1, 4, 9, 135, 60, 60, 135, 132, 58, 3, 0.433834
68, 2, wb, attraction, a-b-da, 2, 2, 4, 10, 90, 165, 165, 90, 163, 89, 3, 0.694288
68, 2, wb, attraction, a-b-da, 2, 2, 4, 10, 90, 165, 165, 90, 163, 89, 1, 0.417476
68, 2, wb, attraction, a-b-db, 2, 3, 4, 11, 119, 193, 120, 195, 195, 120, 1, 1.19854
68, 2, wb, attraction, a-b-db, 2, 3, 4, 11, 119, 193, 120, 195, 195, 120, 3, 0.41353
68, 2, wb, attraction, a-b-db, 14, 1, 4, 12, 56, 125, 135, 60, 60, 135, 1, 0.970636
68, 2, wb, attraction, a-b-db, 14, 1, 4, 12, 56, 125, 135, 60, 60, 135, 2, 0.354985
68, 2, wb, attraction, a-b-da, 14, 3, 4, 13, 181, 111, 195, 120, 120, 195, 1, 1.00279
68, 2, wb, attraction, a-b-da, 14, 3, 4, 13, 181, 111, 195, 120, 120, 195, 2, 0.35382
68, 2, wb, attraction, a-b-db, 2, 2, 4, 14, 165, 90, 90, 165, 89, 163, 1, 0.913636
68, 2, wb, attraction, a-b-db, 2, 2, 4, 14, 165, 90, 90, 165, 89, 163, 2, 0.492131
68, 2, wb, attraction, a-b-db, 2, 1, 4, 15, 59, 134, 135, 60, 60, 135, 1, 0.837757
68, 2, wb, attraction, a-b-db, 2, 1, 4, 15, 59, 134, 135, 60, 60, 135, 3, 0.49885
68, 2, wb, attraction, a-b-da, 2, 3, 4, 16, 193, 119, 195, 120, 120, 195, 1, 0.764648
68, 2, wb, attraction, a-b-da, 2, 3, 4, 16, 193, 119, 195, 120, 120, 195, 2, 0.32508
68, 2, wb, filler, NA, 999, 999, 4, 17, 184, 74, 192, 168, 153, 161, 1, 0.749554
68, 2, wb, filler, NA, 999, 999, 4, 17, 184, 74, 192, 168, 153, 161, 2, 0.350647
68, 2, wb, catch, NA, 999, 999, 4, 18, 150, 165, 106, 89, 125, 130, 2, 0.622467
68, 2, wb, catch, NA, 999, 999, 4, 18, 150, 165, 106, 89, 125, 130, 1, 0.300177
68, 2, wb, filler, NA, 999, 999, 4, 19, 115, 147, 172, 93, 187, 186, 2, 0.630089
68, 2, wb, filler, NA, 999, 999, 4, 19, 115, 147, 172, 93, 187, 186, 3, 0.363882
68, 2, wb, attraction, a-b-db, 9, 3, 4, 20, 195, 120, 120, 195, 114, 186, 3, 0.915169
68, 2, wb, attraction, a-b-db, 9, 3, 4, 20, 195, 120, 120, 195, 114, 186, 1, 0.397369
68, 2, wb, attraction, a-b-db, 14, 2, 4, 21, 83, 153, 165, 90, 90, 165, 1, 0.691111
68, 2, wb, attraction, a-b-db, 14, 2, 4, 21, 83, 153, 165, 90, 90, 165, 2, 0.286275
68, 2, wb, filler, NA, 999, 999, 4, 22, 92, 94, 63, 65, 147, 141, 2, 0.648725
68, 2, wb, filler, NA, 999, 999, 4, 22, 92, 94, 63, 65, 147, 141, 3, 0.277982
68, 2, wb, filler, NA, 999, 999, 4, 23, 109, 160, 62, 109, 170, 101, 2, 0.560395
68, 2, wb, filler, NA, 999, 999, 4, 23, 109, 160, 62, 109, 170, 101, 3, 0.424904
68, 2, wb, filler, NA, 999, 999, 4, 24, 61, 67, 121, 95, 168, 91, 1, 0.949371
68, 2, wb, filler, NA, 999, 999, 4, 24, 61, 67, 121, 95, 168, 91, 3, 0.28638
68, 2, wb, attraction, a-b-da, 14, 2, 4, 25, 153, 83, 165, 90, 90, 165, 1, 1.10485
68, 2, wb, attraction, a-b-da, 14, 2, 4, 25, 153, 83, 165, 90, 90, 165, 2, 0.61135
68, 2, wb, attraction, a-b-da, 14, 1, 4, 26, 125, 56, 135, 60, 60, 135, 1, 0.856268
68, 2, wb, attraction, a-b-da, 14, 1, 4, 26, 125, 56, 135, 60, 60, 135, 2, 0.676732
68, 2, wb, attraction, a-b-db, 5, 3, 4, 27, 120, 195, 195, 120, 117, 190, 1, 1.36696
68, 2, wb, attraction, a-b-db, 5, 3, 4, 27, 120, 195, 195, 120, 117, 190, 2, 0.39127
68, 2, wb, attraction, a-b-db, 5, 1, 4, 28, 58, 132, 60, 135, 135, 60, 1, 0.845138
68, 2, wb, attraction, a-b-db, 5, 1, 4, 28, 58, 132, 60, 135, 135, 60, 3, 0.68216
68, 2, wb, filler, NA, 999, 999, 4, 29, 124, 70, 192, 114, 110, 83, 1, 0.572458
68, 2, wb, filler, NA, 999, 999, 4, 29, 124, 70, 192, 114, 110, 83, 2, 0.356273
68, 2, wb, attraction, a-b-db, 9, 1, 4, 30, 57, 129, 60, 135, 135, 60, 1, 0.667439
68, 2, wb, attraction, a-b-db, 9, 1, 4, 30, 57, 129, 60, 135, 135, 60, 3, 1.06389
68, 2, wb, attraction, a-b-da, 9, 3, 4, 31, 186, 114, 195, 120, 120, 195, 1, 0.506782
68, 2, wb, attraction, a-b-da, 9, 3, 4, 31, 186, 114, 195, 120, 120, 195, 2, 0.325236
68, 2, wb, attraction, a-b-da, 5, 3, 4, 32, 195, 120, 190, 117, 120, 195, 3, 0.606017
68, 2, wb, attraction, a-b-da, 5, 3, 4, 32, 195, 120, 190, 117, 120, 195, 2, 1.09228
68, 2, wb, filler, NA, 999, 999, 4, 33, 182, 123, 132, 93, 73, 89, 3, 0.613994
68, 2, wb, filler, NA, 999, 999, 4, 33, 182, 123, 132, 93, 73, 89, 1, 0.40426
68, 2, wb, filler, NA, 999, 999, 4, 34, 154, 102, 141, 157, 84, 170, 3, 0.890115
68, 2, wb, filler, NA, 999, 999, 4, 34, 154, 102, 141, 157, 84, 170, 2, 0.405117
68, 2, wb, attraction, a-b-db, 9, 2, 4, 35, 165, 90, 86, 157, 90, 165, 3, 1.16292
68, 2, wb, attraction, a-b-db, 9, 2, 4, 35, 165, 90, 86, 157, 90, 165, 1, 0.507356
68, 2, wb, attraction, a-b-da, 9, 2, 4, 36, 90, 165, 165, 90, 157, 86, 3, 1.04438
68, 2, wb, attraction, a-b-da, 9, 2, 4, 36, 90, 165, 165, 90, 157, 86, 2, 0.393313
68, 2, wb, attraction, a-b-db, 5, 2, 4, 37, 88, 161, 165, 90, 90, 165, 3, 1.15916
68, 2, wb, attraction, a-b-db, 5, 2, 4, 37, 88, 161, 165, 90, 90, 165, 2, 1.12762
68, 2, wb, attraction, a-b-db, 5, 3, 5, 1, 117, 190, 120, 195, 195, 120, 1, 36.9024
68, 2, wb, attraction, a-b-db, 5, 3, 5, 1, 117, 190, 120, 195, 195, 120, 3, 1.8061
68, 2, wb, attraction, a-b-da, 9, 2, 5, 2, 165, 90, 157, 86, 90, 165, 2, 4.1635
68, 2, wb, attraction, a-b-da, 9, 2, 5, 2, 165, 90, 157, 86, 90, 165, 1, 0.754843
68, 2, wb, filler, NA, 999, 999, 5, 3, 57, 59, 144, 79, 125, 184, 1, 1.3625
68, 2, wb, filler, NA, 999, 999, 5, 3, 57, 59, 144, 79, 125, 184, 3, 0.674803
68, 2, wb, attraction, a-b-db, 5, 2, 5, 4, 88, 161, 165, 90, 90, 165, 3, 1.66911
68, 2, wb, attraction, a-b-db, 5, 2, 5, 4, 88, 161, 165, 90, 90, 165, 2, 5.00125
68, 2, wb, filler, NA, 999, 999, 5, 5, 158, 123, 97, 87, 167, 71, 2, 1.36557
68, 2, wb, filler, NA, 999, 999, 5, 5, 158, 123, 97, 87, 167, 71, 1, 0.893866
68, 2, wb, attraction, a-b-db, 5, 1, 5, 6, 135, 60, 58, 132, 60, 135, 2, 1.23143
68, 2, wb, attraction, a-b-db, 5, 1, 5, 6, 135, 60, 58, 132, 60, 135, 1, 0.605128
68, 2, wb, attraction, a-b-da, 2, 2, 5, 7, 163, 89, 90, 165, 165, 90, 2, 2.70689
68, 2, wb, attraction, a-b-da, 2, 2, 5, 7, 163, 89, 90, 165, 165, 90, 1, 0.412571
68, 2, wb, attraction, a-b-da, 14, 2, 5, 8, 90, 165, 165, 90, 153, 83, 3, 0.809979
68, 2, wb, attraction, a-b-da, 14, 2, 5, 8, 90, 165, 165, 90, 153, 83, 1, 1.1442
68, 2, wb, attraction, a-b-db, 2, 2, 5, 9, 90, 165, 89, 163, 165, 90, 2, 1.14377
68, 2, wb, attraction, a-b-db, 2, 2, 5, 9, 90, 165, 89, 163, 165, 90, 3, 0.44077
68, 2, wb, attraction, a-b-da, 9, 1, 5, 10, 135, 60, 129, 57, 60, 135, 2, 1.57249
68, 2, wb, attraction, a-b-da, 9, 1, 5, 10, 135, 60, 129, 57, 60, 135, 1, 0.356051
68, 2, wb, attraction, a-b-db, 14, 3, 5, 11, 111, 181, 195, 120, 120, 195, 1, 0.843177
68, 2, wb, attraction, a-b-db, 14, 3, 5, 11, 111, 181, 195, 120, 120, 195, 2, 0.39217
68, 2, wb, attraction, a-b-db, 9, 3, 5, 12, 120, 195, 114, 186, 195, 120, 2, 1.07004
68, 2, wb, attraction, a-b-db, 9, 3, 5, 12, 120, 195, 114, 186, 195, 120, 3, 0.433656
68, 2, wb, filler, NA, 999, 999, 5, 13, 120, 119, 147, 74, 178, 91, 2, 0.694084
68, 2, wb, filler, NA, 999, 999, 5, 13, 120, 119, 147, 74, 178, 91, 3, 0.529227
68, 2, wb, attraction, a-b-da, 14, 3, 5, 14, 195, 120, 120, 195, 181, 111, 3, 1.11366
68, 2, wb, attraction, a-b-da, 14, 3, 5, 14, 195, 120, 120, 195, 181, 111, 1, 1.25202
68, 2, wb, attraction, a-b-da, 2, 1, 5, 15, 135, 60, 60, 135, 134, 59, 2, 2.43952
68, 2, wb, attraction, a-b-da, 2, 1, 5, 15, 135, 60, 60, 135, 134, 59, 3, 0.628234
68, 2, wb, attraction, a-b-da, 5, 1, 5, 16, 135, 60, 132, 58, 60, 135, 2, 2.04848
68, 2, wb, attraction, a-b-da, 5, 1, 5, 16, 135, 60, 132, 58, 60, 135, 1, 0.525174
68, 2, wb, catch, NA, 999, 999, 5, 17, 122, 193, 141, 114, 110, 85, 3, 0.997689
68, 2, wb, catch, NA, 999, 999, 5, 17, 122, 193, 141, 114, 110, 85, 1, 0.492488
68, 2, wb, attraction, a-b-db, 2, 3, 5, 18, 195, 120, 120, 195, 119, 193, 3, 26.9343
68, 2, wb, attraction, a-b-db, 2, 3, 5, 18, 195, 120, 120, 195, 119, 193, 1, 0.711908
68, 2, wb, filler, NA, 999, 999, 5, 19, 166, 128, 167, 97, 109, 104, 3, 0.67295
68, 2, wb, filler, NA, 999, 999, 5, 19, 166, 128, 167, 97, 109, 104, 1, 0.628786
68, 2, wb, filler, NA, 999, 999, 5, 20, 148, 110, 177, 81, 57, 149, 3, 0.697155
68, 2, wb, filler, NA, 999, 999, 5, 20, 148, 110, 177, 81, 57, 149, 1, 0.676208
68, 2, wb, filler, NA, 999, 999, 5, 21, 167, 112, 128, 121, 179, 139, 2, 0.870607
68, 2, wb, filler, NA, 999, 999, 5, 21, 167, 112, 128, 121, 179, 139, 3, 0.482277
68, 2, wb, attraction, a-b-db, 14, 2, 5, 22, 83, 153, 90, 165, 165, 90, 1, 0.780847
68, 2, wb, attraction, a-b-db, 14, 2, 5, 22, 83, 153, 90, 165, 165, 90, 2, 0.812467
68, 2, wb, attraction, a-b-da, 5, 3, 5, 23, 120, 195, 195, 120, 190, 117, 3, 1.00164
68, 2, wb, attraction, a-b-da, 5, 3, 5, 23, 120, 195, 195, 120, 190, 117, 1, 0.496553
68, 2, wb, attraction, a-b-db, 9, 1, 5, 24, 60, 135, 57, 129, 135, 60, 2, 1.51429
68, 2, wb, attraction, a-b-db, 9, 1, 5, 24, 60, 135, 57, 129, 135, 60, 1, 0.868601
68, 2, wb, attraction, a-b-db, 14, 1, 5, 25, 60, 135, 135, 60, 56, 125, 3, 0.687383
68, 2, wb, attraction, a-b-db, 14, 1, 5, 25, 60, 135, 135, 60, 56, 125, 1, 0.682522
68, 2, wb, filler, NA, 999, 999, 5, 26, 109, 141, 103, 77, 95, 66, 3, 0.580928
68, 2, wb, filler, NA, 999, 999, 5, 26, 109, 141, 103, 77, 95, 66, 1, 0.916743
68, 2, wb, attraction, a-b-da, 9, 3, 5, 27, 195, 120, 186, 114, 120, 195, 1, 2.71778
68, 2, wb, attraction, a-b-da, 9, 3, 5, 27, 195, 120, 186, 114, 120, 195, 2, 0.415505
68, 2, wb, attraction, a-b-db, 2, 1, 5, 28, 60, 135, 135, 60, 59, 134, 3, 1.27672
68, 2, wb, attraction, a-b-db, 2, 1, 5, 28, 60, 135, 135, 60, 59, 134, 2, 0.424216
68, 2, wb, filler, NA, 999, 999, 5, 29, 79, 175, 85, 93, 100, 147, 2, 0.628673
68, 2, wb, filler, NA, 999, 999, 5, 29, 79, 175, 85, 93, 100, 147, 3, 2.02667
68, 2, wb, attraction, a-b-da, 2, 3, 5, 30, 195, 120, 193, 119, 120, 195, 3, 0.95861
68, 2, wb, attraction, a-b-da, 2, 3, 5, 30, 195, 120, 193, 119, 120, 195, 2, 0.678817
68, 2, wb, catch, NA, 999, 999, 5, 31, 132, 63, 160, 95, 151, 164, 1, 0.641311
68, 2, wb, catch, NA, 999, 999, 5, 31, 132, 63, 160, 95, 151, 164, 3, 0.486262
68, 2, wb, attraction, a-b-da, 14, 1, 5, 32, 60, 135, 135, 60, 125, 56, 3, 1.00089
68, 2, wb, attraction, a-b-da, 14, 1, 5, 32, 60, 135, 135, 60, 125, 56, 1, 1.21595
68, 2, wb, attraction, a-b-da, 5, 2, 5, 33, 165, 90, 161, 88, 90, 165, 2, 34.4527
68, 2, wb, attraction, a-b-da, 5, 2, 5, 33, 165, 90, 161, 88, 90, 165, 3, 0.391177
68, 2, wb, attraction, a-b-db, 9, 2, 5, 34, 86, 157, 165, 90, 90, 165, 1, 0.788932
68, 2, wb, attraction, a-b-db, 9, 2, 5, 34, 86, 157, 165, 90, 90, 165, 2, 0.388017
68, 2, wb, filler, NA, 999, 999, 5, 35, 151, 105, 165, 137, 133, 89, 3, 0.56249
68, 2, wb, filler, NA, 999, 999, 5, 35, 151, 105, 165, 137, 133, 89, 2, 0.419059
68, 2, wb, filler, NA, 999, 999, 5, 36, 169, 113, 149, 141, 142, 190, 1, 1.12023
68, 2, wb, filler, NA, 999, 999, 5, 36, 169, 113, 149, 141, 142, 190, 3, 0.369773
68, 2, wb, catch, NA, 999, 999, 5, 37, 124, 191, 100, 95, 141, 114, 2, 0.576927
68, 2, wb, catch, NA, 999, 999, 5, 37, 124, 191, 100, 95, 141, 114, 1, 0.320871
68, 2, wb, filler, NA, 999, 999, 6, 1, 56, 168, 67, 65, 102, 89, 2, 0.625828
68, 2, wb, filler, NA, 999, 999, 6, 1, 56, 168, 67, 65, 102, 89, 3, 0.583625
68, 2, wb, filler, NA, 999, 999, 6, 2, 62, 167, 65, 195, 173, 181, 1, 0.846044
68, 2, wb, filler, NA, 999, 999, 6, 2, 62, 167, 65, 195, 173, 181, 3, 0.491113
68, 2, wb, attraction, a-b-db, 2, 1, 6, 3, 60, 135, 135, 60, 59, 134, 3, 1.13295
68, 2, wb, attraction, a-b-db, 2, 1, 6, 3, 60, 135, 135, 60, 59, 134, 2, 0.662565
68, 2, wb, attraction, a-b-da, 14, 1, 6, 4, 125, 56, 60, 135, 135, 60, 1, 0.857627
68, 2, wb, attraction, a-b-da, 14, 1, 6, 4, 125, 56, 60, 135, 135, 60, 2, 0.54195
68, 2, wb, attraction, a-b-da, 5, 1, 6, 5, 132, 58, 135, 60, 60, 135, 3, 1.03786
68, 2, wb, attraction, a-b-da, 5, 1, 6, 5, 132, 58, 135, 60, 60, 135, 2, 0.458711
68, 2, wb, attraction, a-b-db, 5, 2, 6, 6, 165, 90, 88, 161, 90, 165, 3, 1.02988
68, 2, wb, attraction, a-b-db, 5, 2, 6, 6, 165, 90, 88, 161, 90, 165, 1, 0.475552
68, 2, wb, filler, NA, 999, 999, 6, 7, 147, 162, 154, 95, 67, 176, 3, 0.710024
68, 2, wb, filler, NA, 999, 999, 6, 7, 147, 162, 154, 95, 67, 176, 1, 0.384402
68, 2, wb, attraction, a-b-da, 9, 3, 6, 8, 186, 114, 120, 195, 195, 120, 1, 0.89484
68, 2, wb, attraction, a-b-da, 9, 3, 6, 8, 186, 114, 120, 195, 195, 120, 2, 0.33796
68, 2, wb, catch, NA, 999, 999, 6, 9, 160, 95, 89, 106, 136, 179, 2, 0.682361
68, 2, wb, catch, NA, 999, 999, 6, 9, 160, 95, 89, 106, 136, 179, 3, 0.430163
68, 2, wb, filler, NA, 999, 999, 6, 10, 79, 134, 116, 108, 186, 174, 1, 0.586647
68, 2, wb, filler, NA, 999, 999, 6, 10, 79, 134, 116, 108, 186, 174, 3, 0.393763
68, 2, wb, attraction, a-b-db, 2, 3, 6, 11, 120, 195, 195, 120, 119, 193, 3, 0.847605
68, 2, wb, attraction, a-b-db, 2, 3, 6, 11, 120, 195, 195, 120, 119, 193, 2, 0.396661
68, 2, wb, filler, NA, 999, 999, 6, 12, 144, 95, 77, 185, 177, 81, 1, 0.794434
68, 2, wb, filler, NA, 999, 999, 6, 12, 144, 95, 77, 185, 177, 81, 2, 0.321528
68, 2, wb, attraction, a-b-da, 14, 2, 6, 13, 165, 90, 90, 165, 153, 83, 3, 0.986777
68, 2, wb, attraction, a-b-da, 14, 2, 6, 13, 165, 90, 90, 165, 153, 83, 1, 0.650351
68, 2, wb, attraction, a-b-db, 9, 1, 6, 14, 60, 135, 135, 60, 57, 129, 3, 1.19853
68, 2, wb, attraction, a-b-db, 9, 1, 6, 14, 60, 135, 135, 60, 57, 129, 1, 0.949163
68, 2, wb, attraction, a-b-da, 5, 3, 6, 15, 195, 120, 190, 117, 120, 195, 3, 0.556669
68, 2, wb, attraction, a-b-da, 5, 3, 6, 15, 195, 120, 190, 117, 120, 195, 2, 0.413163
68, 2, wb, filler, NA, 999, 999, 6, 16, 172, 136, 136, 126, 154, 105, 3, 0.570337
68, 2, wb, filler, NA, 999, 999, 6, 16, 172, 136, 136, 126, 154, 105, 1, 0.354771
68, 2, wb, attraction, a-b-db, 14, 2, 6, 17, 90, 165, 83, 153, 165, 90, 3, 0.650562
68, 2, wb, attraction, a-b-db, 14, 2, 6, 17, 90, 165, 83, 153, 165, 90, 1, 0.399666
68, 2, wb, attraction, a-b-db, 14, 3, 6, 18, 111, 181, 195, 120, 120, 195, 1, 0.645599
68, 2, wb, attraction, a-b-db, 14, 3, 6, 18, 111, 181, 195, 120, 120, 195, 2, 0.298603
68, 2, wb, filler, NA, 999, 999, 6, 19, 105, 139, 120, 180, 137, 183, 1, 0.652677
68, 2, wb, filler, NA, 999, 999, 6, 19, 105, 139, 120, 180, 137, 183, 2, 0.353684
68, 2, wb, attraction, a-b-db, 9, 3, 6, 20, 120, 195, 195, 120, 114, 186, 3, 0.817318
68, 2, wb, attraction, a-b-db, 9, 3, 6, 20, 120, 195, 195, 120, 114, 186, 1, 0.415886
68, 2, wb, attraction, a-b-db, 5, 1, 6, 21, 135, 60, 60, 135, 58, 132, 3, 1.37293
68, 2, wb, attraction, a-b-db, 5, 1, 6, 21, 135, 60, 60, 135, 58, 132, 1, 0.628555
68, 2, wb, attraction, a-b-db, 5, 3, 6, 22, 195, 120, 120, 195, 117, 190, 3, 0.84898
68, 2, wb, attraction, a-b-db, 5, 3, 6, 22, 195, 120, 120, 195, 117, 190, 2, 0.358013
68, 2, wb, attraction, a-b-db, 2, 2, 6, 23, 90, 165, 165, 90, 89, 163, 3, 0.589098
68, 2, wb, attraction, a-b-db, 2, 2, 6, 23, 90, 165, 165, 90, 89, 163, 2, 0.588249
68, 2, wb, catch, NA, 999, 999, 6, 24, 124, 71, 171, 144, 155, 100, 1, 0.706571
68, 2, wb, catch, NA, 999, 999, 6, 24, 124, 71, 171, 144, 155, 100, 2, 0.301052
68, 2, wb, attraction, a-b-da, 9, 1, 6, 25, 60, 135, 135, 60, 129, 57, 3, 0.606956
68, 2, wb, attraction, a-b-da, 9, 1, 6, 25, 60, 135, 135, 60, 129, 57, 2, 0.741292
68, 2, wb, filler, NA, 999, 999, 6, 26, 133, 103, 61, 102, 86, 63, 3, 0.549003
68, 2, wb, filler, NA, 999, 999, 6, 26, 133, 103, 61, 102, 86, 63, 1, 0.422181
68, 2, wb, attraction, a-b-da, 2, 3, 6, 27, 193, 119, 120, 195, 195, 120, 1, 0.923371
68, 2, wb, attraction, a-b-da, 2, 3, 6, 27, 193, 119, 120, 195, 195, 120, 2, 0.317076
68, 2, wb, catch, NA, 999, 999, 6, 28, 115, 140, 176, 139, 113, 82, 3, 0.654259
68, 2, wb, catch, NA, 999, 999, 6, 28, 115, 140, 176, 139, 113, 82, 2, 0.330685
68, 2, wb, attraction, a-b-da, 14, 3, 6, 29, 181, 111, 195, 120, 120, 195, 3, 0.491175
68, 2, wb, attraction, a-b-da, 14, 3, 6, 29, 181, 111, 195, 120, 120, 195, 2, 0.342245
68, 2, wb, attraction, a-b-db, 9, 2, 6, 30, 90, 165, 165, 90, 86, 157, 3, 0.606051
68, 2, wb, attraction, a-b-db, 9, 2, 6, 30, 90, 165, 165, 90, 86, 157, 2, 0.396601
68, 2, wb, filler, NA, 999, 999, 6, 31, 117, 179, 135, 71, 160, 67, 3, 0.538481
68, 2, wb, filler, NA, 999, 999, 6, 31, 117, 179, 135, 71, 160, 67, 1, 0.323524
68, 2, wb, attraction, a-b-db, 14, 1, 6, 32, 60, 135, 135, 60, 56, 125, 3, 0.588048
68, 2, wb, attraction, a-b-db, 14, 1, 6, 32, 60, 135, 135, 60, 56, 125, 1, 0.987152
68, 2, wb, attraction, a-b-da, 5, 2, 6, 33, 165, 90, 90, 165, 161, 88, 3, 1.13738
68, 2, wb, attraction, a-b-da, 5, 2, 6, 33, 165, 90, 90, 165, 161, 88, 2, 0.38636
68, 2, wb, attraction, a-b-da, 2, 1, 6, 34, 135, 60, 134, 59, 60, 135, 3, 0.488869
68, 2, wb, attraction, a-b-da, 2, 1, 6, 34, 135, 60, 134, 59, 60, 135, 2, 0.348096
68, 2, wb, filler, NA, 999, 999, 6, 35, 124, 116, 73, 120, 167, 183, 2, 0.827932
68, 2, wb, filler, NA, 999, 999, 6, 35, 124, 116, 73, 120, 167, 183, 3, 0.30562
68, 2, wb, attraction, a-b-da, 9, 2, 6, 36, 165, 90, 90, 165, 157, 86, 3, 1.31555
68, 2, wb, attraction, a-b-da, 9, 2, 6, 36, 165, 90, 90, 165, 157, 86, 2, 0.325734
68, 2, wb, attraction, a-b-da, 2, 2, 6, 37, 165, 90, 90, 165, 163, 89, 3, 0.91816
68, 2, wb, attraction, a-b-da, 2, 2, 6, 37, 165, 90, 90, 165, 163, 89, 1, 0.47255
68, 2, wb, attraction, a-b-da, 9, 2, 7, 1, 165, 90, 90, 165, 157, 86, 3, 0.675055
68, 2, wb, attraction, a-b-da, 9, 2, 7, 1, 165, 90, 90, 165, 157, 86, 2, 0.326749
68, 2, wb, attraction, a-b-da, 5, 1, 7, 2, 135, 60, 132, 58, 60, 135, 3, 1.29526
68, 2, wb, attraction, a-b-da, 5, 1, 7, 2, 135, 60, 132, 58, 60, 135, 2, 0.306176
68, 2, wb, attraction, a-b-db, 14, 2, 7, 3, 90, 165, 83, 153, 165, 90, 3, 0.819278
68, 2, wb, attraction, a-b-db, 14, 2, 7, 3, 90, 165, 83, 153, 165, 90, 1, 0.649729
68, 2, wb, attraction, a-b-da, 14, 2, 7, 4, 153, 83, 90, 165, 165, 90, 1, 0.869496
68, 2, wb, attraction, a-b-da, 14, 2, 7, 4, 153, 83, 90, 165, 165, 90, 2, 0.46589
68, 2, wb, filler, NA, 999, 999, 7, 5, 141, 133, 188, 123, 187, 159, 1, 0.764953
68, 2, wb, filler, NA, 999, 999, 7, 5, 141, 133, 188, 123, 187, 159, 3, 0.365336
68, 2, wb, filler, NA, 999, 999, 7, 6, 193, 95, 65, 72, 171, 179, 2, 0.596517
68, 2, wb, filler, NA, 999, 999, 7, 6, 193, 95, 65, 72, 171, 179, 3, 0.283673
68, 2, wb, filler, NA, 999, 999, 7, 7, 74, 156, 121, 65, 160, 120, 2, 0.622239
68, 2, wb, filler, NA, 999, 999, 7, 7, 74, 156, 121, 65, 160, 120, 3, 0.469272
68, 2, wb, attraction, a-b-db, 5, 3, 7, 8, 120, 195, 117, 190, 195, 120, 3, 0.927025
68, 2, wb, attraction, a-b-db, 5, 3, 7, 8, 120, 195, 117, 190, 195, 120, 2, 0.360726
68, 2, wb, attraction, a-b-db, 2, 2, 7, 9, 90, 165, 89, 163, 165, 90, 3, 0.679862
68, 2, wb, attraction, a-b-db, 2, 2, 7, 9, 90, 165, 89, 163, 165, 90, 2, 0.403637
68, 2, wb, attraction, a-b-db, 9, 3, 7, 10, 120, 195, 195, 120, 114, 186, 3, 0.521461
68, 2, wb, attraction, a-b-db, 9, 3, 7, 10, 120, 195, 195, 120, 114, 186, 2, 0.315255
68, 2, wb, filler, NA, 999, 999, 7, 11, 125, 146, 168, 118, 145, 95, 3, 0.628434
68, 2, wb, filler, NA, 999, 999, 7, 11, 125, 146, 168, 118, 145, 95, 2, 0.346243
68, 2, wb, attraction, a-b-db, 2, 3, 7, 12, 120, 195, 195, 120, 119, 193, 2, 1.45813
68, 2, wb, attraction, a-b-db, 2, 3, 7, 12, 120, 195, 195, 120, 119, 193, 1, 3.19821
68, 2, wb, catch, NA, 999, 999, 7, 13, 125, 130, 109, 86, 157, 158, 2, 0.603184
68, 2, wb, catch, NA, 999, 999, 7, 13, 125, 130, 109, 86, 157, 158, 3, 0.290306
68, 2, wb, attraction, a-b-da, 14, 1, 7, 14, 125, 56, 60, 135, 135, 60, 1, 2.14011
68, 2, wb, attraction, a-b-da, 14, 1, 7, 14, 125, 56, 60, 135, 135, 60, 3, 0.51683
68, 2, wb, catch, NA, 999, 999, 7, 15, 116, 79, 122, 133, 122, 193, 1, 87.2699
68, 2, wb, catch, NA, 999, 999, 7, 15, 116, 79, 122, 133, 122, 193, 3, 0.447946
68, 2, wb, attraction, a-b-da, 2, 2, 7, 16, 165, 90, 163, 89, 90, 165, 3, 0.803749
68, 2, wb, attraction, a-b-da, 2, 2, 7, 16, 165, 90, 163, 89, 90, 165, 2, 0.402087
68, 2, wb, attraction, a-b-db, 14, 1, 7, 17, 56, 125, 60, 135, 135, 60, 1, 1.14392
68, 2, wb, attraction, a-b-db, 14, 1, 7, 17, 56, 125, 60, 135, 135, 60, 3, 0.569044
68, 2, wb, attraction, a-b-da, 9, 1, 7, 18, 60, 135, 129, 57, 135, 60, 2, 2.42401
68, 2, wb, attraction, a-b-da, 9, 1, 7, 18, 60, 135, 129, 57, 135, 60, 1, 0.533217
68, 2, wb, attraction, a-b-db, 2, 1, 7, 19, 60, 135, 135, 60, 59, 134, 1, 1.2376
68, 2, wb, attraction, a-b-db, 2, 1, 7, 19, 60, 135, 135, 60, 59, 134, 2, 0.41052
68, 2, wb, filler, NA, 999, 999, 7, 20, 191, 89, 185, 136, 172, 164, 1, 1.25575
68, 2, wb, filler, NA, 999, 999, 7, 20, 191, 89, 185, 136, 172, 164, 3, 0.739986
68, 2, wb, filler, NA, 999, 999, 7, 21, 110, 158, 112, 60, 115, 145, 2, 0.963671
68, 2, wb, filler, NA, 999, 999, 7, 21, 110, 158, 112, 60, 115, 145, 1, 0.460043
68, 2, wb, attraction, a-b-db, 5, 1, 7, 22, 58, 132, 60, 135, 135, 60, 3, 0.631192
68, 2, wb, attraction, a-b-db, 5, 1, 7, 22, 58, 132, 60, 135, 135, 60, 2, 1.125
68, 2, wb, filler, NA, 999, 999, 7, 23, 161, 152, 160, 150, 138, 103, 3, 0.597315
68, 2, wb, filler, NA, 999, 999, 7, 23, 161, 152, 160, 150, 138, 103, 2, 0.460319
68, 2, wb, attraction, a-b-db, 9, 2, 7, 24, 90, 165, 86, 157, 165, 90, 2, 1.43145
68, 2, wb, attraction, a-b-db, 9, 2, 7, 24, 90, 165, 86, 157, 165, 90, 3, 0.885045
68, 2, wb, attraction, a-b-db, 14, 3, 7, 25, 120, 195, 195, 120, 111, 181, 3, 0.791291
68, 2, wb, attraction, a-b-db, 14, 3, 7, 25, 120, 195, 195, 120, 111, 181, 1, 0.654373
68, 2, wb, attraction, a-b-da, 5, 3, 7, 26, 120, 195, 190, 117, 195, 120, 3, 1.12219
68, 2, wb, attraction, a-b-da, 5, 3, 7, 26, 120, 195, 190, 117, 195, 120, 1, 0.451687
68, 2, wb, attraction, a-b-db, 9, 1, 7, 27, 57, 129, 135, 60, 60, 135, 3, 1.28756
68, 2, wb, attraction, a-b-db, 9, 1, 7, 27, 57, 129, 135, 60, 60, 135, 2, 0.770466
68, 2, wb, attraction, a-b-da, 9, 3, 7, 28, 120, 195, 195, 120, 186, 114, 3, 0.745445
68, 2, wb, attraction, a-b-da, 9, 3, 7, 28, 120, 195, 195, 120, 186, 114, 2, 0.554496
68, 2, wb, filler, NA, 999, 999, 7, 29, 114, 173, 123, 177, 66, 116, 3, 0.68226
68, 2, wb, filler, NA, 999, 999, 7, 29, 114, 173, 123, 177, 66, 116, 2, 0.670059
68, 2, wb, attraction, a-b-da, 14, 3, 7, 30, 181, 111, 195, 120, 120, 195, 1, 1.13724
68, 2, wb, attraction, a-b-da, 14, 3, 7, 30, 181, 111, 195, 120, 120, 195, 2, 0.546116
68, 2, wb, attraction, a-b-da, 2, 3, 7, 31, 195, 120, 193, 119, 120, 195, 3, 1.25777
68, 2, wb, attraction, a-b-da, 2, 3, 7, 31, 195, 120, 193, 119, 120, 195, 2, 0.55019
68, 2, wb, filler, NA, 999, 999, 7, 32, 113, 180, 188, 111, 59, 78, 3, 0.629954
68, 2, wb, filler, NA, 999, 999, 7, 32, 113, 180, 188, 111, 59, 78, 1, 0.611681
68, 2, wb, catch, NA, 999, 999, 7, 33, 170, 145, 108, 87, 146, 109, 2, 0.952819
68, 2, wb, catch, NA, 999, 999, 7, 33, 170, 145, 108, 87, 146, 109, 1, 0.481748
68, 2, wb, attraction, a-b-db, 5, 2, 7, 34, 88, 161, 165, 90, 90, 165, 1, 0.868219
68, 2, wb, attraction, a-b-db, 5, 2, 7, 34, 88, 161, 165, 90, 90, 165, 2, 0.456553
68, 2, wb, attraction, a-b-da, 5, 2, 7, 35, 165, 90, 90, 165, 161, 88, 3, 101.436
68, 2, wb, attraction, a-b-da, 5, 2, 7, 35, 165, 90, 90, 165, 161, 88, 1, 0.482573
68, 2, wb, attraction, a-b-da, 2, 1, 7, 36, 135, 60, 60, 135, 134, 59, 2, 1.37306
68, 2, wb, attraction, a-b-da, 2, 1, 7, 36, 135, 60, 60, 135, 134, 59, 1, 0.98064
68, 2, wb, filler, NA, 999, 999, 7, 37, 190, 64, 118, 162, 131, 183, 1, 1.77094
68, 2, wb, filler, NA, 999, 999, 7, 37, 190, 64, 118, 162, 131, 183, 3, 0.474335
68, 2, wb, attraction, a-b-da, 5, 1, 8, 1, 135, 60, 60, 135, 132, 58, 2, 2.30072
68, 2, wb, attraction, a-b-da, 5, 1, 8, 1, 135, 60, 60, 135, 132, 58, 3, 0.511395
68, 2, wb, catch, NA, 999, 999, 8, 2, 153, 102, 127, 68, 195, 120, 2, 0.616506
68, 2, wb, catch, NA, 999, 999, 8, 2, 153, 102, 127, 68, 195, 120, 3, 0.47902
68, 2, wb, attraction, a-b-db, 2, 3, 8, 3, 195, 120, 120, 195, 119, 193, 3, 0.697346
68, 2, wb, attraction, a-b-db, 2, 3, 8, 3, 195, 120, 120, 195, 119, 193, 1, 0.708436
68, 2, wb, attraction, a-b-db, 9, 1, 8, 4, 135, 60, 60, 135, 57, 129, 3, 0.837504
68, 2, wb, attraction, a-b-db, 9, 1, 8, 4, 135, 60, 60, 135, 57, 129, 1, 0.490573
68, 2, wb, attraction, a-b-da, 9, 2, 8, 5, 90, 165, 157, 86, 165, 90, 3, 0.620494
68, 2, wb, attraction, a-b-da, 9, 2, 8, 5, 90, 165, 157, 86, 165, 90, 2, 0.354189
68, 2, wb, catch, NA, 999, 999, 8, 6, 127, 128, 129, 186, 78, 117, 3, 0.498039
68, 2, wb, catch, NA, 999, 999, 8, 6, 127, 128, 129, 186, 78, 117, 2, 0.469076
68, 2, wb, attraction, a-b-db, 9, 3, 8, 7, 120, 195, 114, 186, 195, 120, 2, 0.968365
68, 2, wb, attraction, a-b-db, 9, 3, 8, 7, 120, 195, 114, 186, 195, 120, 3, 0.312611
68, 2, wb, filler, NA, 999, 999, 8, 8, 195, 106, 169, 157, 179, 166, 1, 0.857711
68, 2, wb, filler, NA, 999, 999, 8, 8, 195, 106, 169, 157, 179, 166, 3, 0.518099
68, 2, wb, attraction, a-b-db, 2, 1, 8, 9, 59, 134, 135, 60, 60, 135, 3, 0.935391
68, 2, wb, attraction, a-b-db, 2, 1, 8, 9, 59, 134, 135, 60, 60, 135, 2, 0.392939
68, 2, wb, attraction, a-b-da, 9, 3, 8, 10, 120, 195, 186, 114, 195, 120, 3, 1.36673
68, 2, wb, attraction, a-b-da, 9, 3, 8, 10, 120, 195, 186, 114, 195, 120, 1, 0.471054
68, 2, wb, filler, NA, 999, 999, 8, 11, 97, 192, 57, 179, 56, 166, 3, 1.73011
68, 2, wb, filler, NA, 999, 999, 8, 11, 97, 192, 57, 179, 56, 166, 1, 0.491544
68, 2, wb, filler, NA, 999, 999, 8, 12, 102, 83, 132, 131, 130, 115, 1, 0.805481
68, 2, wb, filler, NA, 999, 999, 8, 12, 102, 83, 132, 131, 130, 115, 2, 0.523741
68, 2, wb, attraction, a-b-db, 5, 2, 8, 13, 165, 90, 90, 165, 88, 161, 3, 0.540213
68, 2, wb, attraction, a-b-db, 5, 2, 8, 13, 165, 90, 90, 165, 88, 161, 1, 0.781315
68, 2, wb, attraction, a-b-db, 2, 2, 8, 14, 165, 90, 90, 165, 89, 163, 3, 0.50765
68, 2, wb, attraction, a-b-db, 2, 2, 8, 14, 165, 90, 90, 165, 89, 163, 2, 0.478123
68, 2, wb, filler, NA, 999, 999, 8, 15, 110, 106, 134, 180, 85, 154, 1, 0.776609
68, 2, wb, filler, NA, 999, 999, 8, 15, 110, 106, 134, 180, 85, 154, 2, 0.384334
68, 2, wb, filler, NA, 999, 999, 8, 16, 176, 74, 141, 76, 107, 152, 2, 1.06286
68, 2, wb, filler, NA, 999, 999, 8, 16, 176, 74, 141, 76, 107, 152, 1, 0.79516
68, 2, wb, attraction, a-b-db, 9, 2, 8, 17, 165, 90, 90, 165, 86, 157, 3, 0.512821
68, 2, wb, attraction, a-b-db, 9, 2, 8, 17, 165, 90, 90, 165, 86, 157, 1, 0.77933
68, 2, wb, filler, NA, 999, 999, 8, 18, 123, 72, 93, 102, 76, 74, 3, 0.425732
68, 2, wb, filler, NA, 999, 999, 8, 18, 123, 72, 93, 102, 76, 74, 2, 0.431538
68, 2, wb, attraction, a-b-db, 14, 2, 8, 19, 165, 90, 90, 165, 83, 153, 3, 0.508013
68, 2, wb, attraction, a-b-db, 14, 2, 8, 19, 165, 90, 90, 165, 83, 153, 1, 0.494469
68, 2, wb, attraction, a-b-da, 2, 1, 8, 20, 135, 60, 60, 135, 134, 59, 2, 1.19219
68, 2, wb, attraction, a-b-da, 2, 1, 8, 20, 135, 60, 60, 135, 134, 59, 1, 0.887211
68, 2, wb, attraction, a-b-da, 2, 3, 8, 21, 195, 120, 193, 119, 120, 195, 3, 0.489553
68, 2, wb, attraction, a-b-da, 2, 3, 8, 21, 195, 120, 193, 119, 120, 195, 2, 0.61264
68, 2, wb, filler, NA, 999, 999, 8, 22, 82, 145, 131, 166, 88, 186, 1, 0.713794
68, 2, wb, filler, NA, 999, 999, 8, 22, 82, 145, 131, 166, 88, 186, 2, 0.556191
68, 2, wb, attraction, a-b-db, 5, 1, 8, 23, 60, 135, 58, 132, 135, 60, 2, 1.04329
68, 2, wb, attraction, a-b-db, 5, 1, 8, 23, 60, 135, 58, 132, 135, 60, 3, 0.440288
68, 2, wb, attraction, a-b-db, 5, 3, 8, 24, 120, 195, 195, 120, 117, 190, 3, 0.780052
68, 2, wb, attraction, a-b-db, 5, 3, 8, 24, 120, 195, 195, 120, 117, 190, 2, 0.323885
68, 2, wb, catch, NA, 999, 999, 8, 25, 190, 125, 144, 111, 77, 118, 3, 0.500182
68, 2, wb, catch, NA, 999, 999, 8, 25, 190, 125, 144, 111, 77, 118, 1, 0.447413
68, 2, wb, attraction, a-b-da, 9, 1, 8, 26, 60, 135, 129, 57, 135, 60, 3, 1.17926
68, 2, wb, attraction, a-b-da, 9, 1, 8, 26, 60, 135, 129, 57, 135, 60, 1, 1.09093
68, 2, wb, attraction, a-b-db, 14, 3, 8, 27, 195, 120, 120, 195, 111, 181, 3, 0.772462
68, 2, wb, attraction, a-b-db, 14, 3, 8, 27, 195, 120, 120, 195, 111, 181, 1, 0.468169
68, 2, wb, filler, NA, 999, 999, 8, 28, 190, 98, 98, 121, 85, 177, 2, 0.679303
68, 2, wb, filler, NA, 999, 999, 8, 28, 190, 98, 98, 121, 85, 177, 1, 0.395027
68, 2, wb, filler, NA, 999, 999, 8, 29, 161, 64, 156, 75, 97, 66, 3, 0.600892
68, 2, wb, filler, NA, 999, 999, 8, 29, 161, 64, 156, 75, 97, 66, 2, 0.312018
68, 2, wb, attraction, a-b-da, 5, 3, 8, 30, 190, 117, 195, 120, 120, 195, 3, 0.825189
68, 2, wb, attraction, a-b-da, 5, 3, 8, 30, 190, 117, 195, 120, 120, 195, 2, 0.470849
68, 2, wb, attraction, a-b-da, 14, 2, 8, 31, 153, 83, 165, 90, 90, 165, 3, 0.433935
68, 2, wb, attraction, a-b-da, 14, 2, 8, 31, 153, 83, 165, 90, 90, 165, 2, 0.375843
68, 2, wb, attraction, a-b-db, 14, 1, 8, 32, 135, 60, 60, 135, 56, 125, 3, 0.606347
68, 2, wb, attraction, a-b-db, 14, 1, 8, 32, 135, 60, 60, 135, 56, 125, 1, 0.532871
68, 2, wb, attraction, a-b-da, 14, 3, 8, 33, 195, 120, 181, 111, 120, 195, 3, 1.01317
68, 2, wb, attraction, a-b-da, 14, 3, 8, 33, 195, 120, 181, 111, 120, 195, 1, 0.691607
68, 2, wb, attraction, a-b-da, 14, 1, 8, 34, 125, 56, 60, 135, 135, 60, 1, 1.34128
68, 2, wb, attraction, a-b-da, 14, 1, 8, 34, 125, 56, 60, 135, 135, 60, 2, 0.430117
68, 2, wb, attraction, a-b-da, 2, 2, 8, 35, 165, 90, 163, 89, 90, 165, 3, 0.402657
68, 2, wb, attraction, a-b-da, 2, 2, 8, 35, 165, 90, 163, 89, 90, 165, 2, 0.321204
68, 2, wb, filler, NA, 999, 999, 8, 36, 192, 132, 173, 64, 145, 149, 2, 0.738334
68, 2, wb, filler, NA, 999, 999, 8, 36, 192, 132, 173, 64, 145, 149, 1, 0.307374
68, 2, wb, attraction, a-b-da, 5, 2, 8, 37, 165, 90, 161, 88, 90, 165, 3, 0.588573
68, 2, wb, attraction, a-b-da, 5, 2, 8, 37, 165, 90, 161, 88, 90, 165, 2, 0.363576
