sub_n, computer_n, bw_cond, effect, set, distance, diag, block_n, trial_n, h1, w1, h2, w2, h3, w3, choice, rt 
61, 2, bw, practice, NA, 999, 999, 0, 1, 157, 121, 58, 144, 160, 126, 3, 2.38462
61, 2, bw, practice, NA, 999, 999, 0, 1, 157, 121, 58, 144, 160, 126, 2, 2.4793
61, 2, bw, practice, NA, 999, 999, 0, 2, 190, 76, 127, 162, 65, 186, 2, 2.06463
61, 2, bw, practice, NA, 999, 999, 0, 2, 190, 76, 127, 162, 65, 186, 1, 2.68973
61, 2, bw, practice, NA, 999, 999, 0, 3, 124, 159, 173, 58, 73, 186, 1, 3.67283
61, 2, bw, practice, NA, 999, 999, 0, 3, 124, 159, 173, 58, 73, 186, 2, 1.5156
61, 2, bw, catch, NA, 999, 999, 1, 1, 99, 156, 134, 181, 135, 60, 2, 1.05118
61, 2, bw, catch, NA, 999, 999, 1, 1, 99, 156, 134, 181, 135, 60, 3, 1.55214
61, 2, bw, attraction, a-b-db, 2, 2, 1, 2, 89, 163, 90, 165, 165, 90, 2, 1.64758
61, 2, bw, attraction, a-b-db, 2, 2, 1, 2, 89, 163, 90, 165, 165, 90, 1, 0.788257
61, 2, bw, attraction, a-b-da, 14, 1, 1, 3, 135, 60, 125, 56, 60, 135, 3, 1.88277
61, 2, bw, attraction, a-b-da, 14, 1, 1, 3, 135, 60, 125, 56, 60, 135, 2, 0.870052
61, 2, bw, attraction, a-b-da, 2, 2, 1, 4, 90, 165, 165, 90, 163, 89, 1, 2.08109
61, 2, bw, attraction, a-b-da, 2, 2, 1, 4, 90, 165, 165, 90, 163, 89, 3, 2.71646
61, 2, bw, filler, NA, 999, 999, 1, 5, 152, 133, 172, 186, 189, 118, 2, 1.71688
61, 2, bw, filler, NA, 999, 999, 1, 5, 152, 133, 172, 186, 189, 118, 1, 0.894888
61, 2, bw, catch, NA, 999, 999, 1, 6, 188, 127, 106, 89, 123, 132, 1, 1.94461
61, 2, bw, catch, NA, 999, 999, 1, 6, 188, 127, 106, 89, 123, 132, 2, 0.649369
61, 2, bw, attraction, a-b-da, 5, 1, 1, 7, 132, 58, 135, 60, 60, 135, 3, 2.56514
61, 2, bw, attraction, a-b-da, 5, 1, 1, 7, 132, 58, 135, 60, 60, 135, 1, 1.20501
61, 2, bw, attraction, a-b-db, 9, 1, 1, 8, 135, 60, 57, 129, 60, 135, 3, 1.33843
61, 2, bw, attraction, a-b-db, 9, 1, 1, 8, 135, 60, 57, 129, 60, 135, 1, 1.80342
61, 2, bw, filler, NA, 999, 999, 1, 9, 62, 116, 116, 86, 88, 169, 3, 1.30469
61, 2, bw, filler, NA, 999, 999, 1, 9, 62, 116, 116, 86, 88, 169, 1, 0.69894
61, 2, bw, attraction, a-b-db, 5, 3, 1, 10, 120, 195, 117, 190, 195, 120, 1, 2.66875
61, 2, bw, attraction, a-b-db, 5, 3, 1, 10, 120, 195, 117, 190, 195, 120, 3, 1.59259
61, 2, bw, attraction, a-b-db, 2, 1, 1, 11, 135, 60, 60, 135, 59, 134, 2, 4.54194
61, 2, bw, attraction, a-b-db, 2, 1, 1, 11, 135, 60, 60, 135, 59, 134, 1, 1.0938
61, 2, bw, attraction, a-b-da, 9, 3, 1, 12, 186, 114, 120, 195, 195, 120, 2, 2.09545
61, 2, bw, attraction, a-b-da, 9, 3, 1, 12, 186, 114, 120, 195, 195, 120, 1, 1.59409
61, 2, bw, attraction, a-b-db, 5, 2, 1, 13, 165, 90, 88, 161, 90, 165, 3, 2.19956
61, 2, bw, attraction, a-b-db, 5, 2, 1, 13, 165, 90, 88, 161, 90, 165, 1, 1.10216
61, 2, bw, attraction, a-b-db, 9, 2, 1, 14, 90, 165, 86, 157, 165, 90, 3, 3.34378
61, 2, bw, attraction, a-b-db, 9, 2, 1, 14, 90, 165, 86, 157, 165, 90, 2, 0.968031
61, 2, bw, attraction, a-b-db, 5, 1, 1, 15, 135, 60, 60, 135, 58, 132, 3, 3.75894
61, 2, bw, attraction, a-b-db, 5, 1, 1, 15, 135, 60, 60, 135, 58, 132, 1, 0.694403
61, 2, bw, filler, NA, 999, 999, 1, 16, 161, 164, 179, 75, 162, 91, 1, 2.72015
61, 2, bw, filler, NA, 999, 999, 1, 16, 161, 164, 179, 75, 162, 91, 2, 1.10596
61, 2, bw, filler, NA, 999, 999, 1, 17, 64, 176, 92, 134, 182, 128, 3, 0.979472
61, 2, bw, filler, NA, 999, 999, 1, 17, 64, 176, 92, 134, 182, 128, 2, 1.65926
61, 2, bw, filler, NA, 999, 999, 1, 18, 63, 103, 95, 132, 118, 180, 3, 1.89391
61, 2, bw, filler, NA, 999, 999, 1, 18, 63, 103, 95, 132, 118, 180, 1, 0.736684
61, 2, bw, attraction, a-b-da, 9, 1, 1, 19, 60, 135, 129, 57, 135, 60, 1, 1.52111
61, 2, bw, attraction, a-b-da, 9, 1, 1, 19, 60, 135, 129, 57, 135, 60, 2, 1.09851
61, 2, bw, attraction, a-b-da, 2, 1, 1, 20, 134, 59, 60, 135, 135, 60, 2, 1.78824
61, 2, bw, attraction, a-b-da, 2, 1, 1, 20, 134, 59, 60, 135, 135, 60, 1, 1.22683
61, 2, bw, filler, NA, 999, 999, 1, 21, 118, 64, 162, 136, 98, 153, 2, 1.09511
61, 2, bw, filler, NA, 999, 999, 1, 21, 118, 64, 162, 136, 98, 153, 1, 0.866185
61, 2, bw, attraction, a-b-db, 2, 3, 1, 22, 195, 120, 119, 193, 120, 195, 2, 2.75706
61, 2, bw, attraction, a-b-db, 2, 3, 1, 22, 195, 120, 119, 193, 120, 195, 1, 1.1969
61, 2, bw, filler, NA, 999, 999, 1, 23, 101, 103, 87, 189, 132, 165, 3, 0.602439
61, 2, bw, filler, NA, 999, 999, 1, 23, 101, 103, 87, 189, 132, 165, 1, 0.617588
61, 2, bw, attraction, a-b-db, 9, 3, 1, 24, 114, 186, 195, 120, 120, 195, 3, 2.3106
61, 2, bw, attraction, a-b-db, 9, 3, 1, 24, 114, 186, 195, 120, 120, 195, 1, 0.648522
61, 2, bw, attraction, a-b-da, 14, 3, 1, 25, 120, 195, 195, 120, 181, 111, 1, 3.0683
61, 2, bw, attraction, a-b-da, 14, 3, 1, 25, 120, 195, 195, 120, 181, 111, 3, 0.544038
61, 2, bw, attraction, a-b-da, 5, 3, 1, 26, 195, 120, 120, 195, 190, 117, 2, 4.03177
61, 2, bw, attraction, a-b-da, 5, 3, 1, 26, 195, 120, 120, 195, 190, 117, 3, 0.372457
61, 2, bw, attraction, a-b-db, 14, 1, 1, 27, 56, 125, 60, 135, 135, 60, 3, 2.3476
61, 2, bw, attraction, a-b-db, 14, 1, 1, 27, 56, 125, 60, 135, 135, 60, 1, 0.708107
61, 2, bw, filler, NA, 999, 999, 1, 28, 171, 114, 87, 91, 97, 151, 1, 1.4852
61, 2, bw, filler, NA, 999, 999, 1, 28, 171, 114, 87, 91, 97, 151, 2, 0.49679
61, 2, bw, filler, NA, 999, 999, 1, 29, 109, 78, 168, 136, 98, 87, 2, 1.28264
61, 2, bw, filler, NA, 999, 999, 1, 29, 109, 78, 168, 136, 98, 87, 3, 1.62207
61, 2, bw, attraction, a-b-da, 5, 2, 1, 30, 165, 90, 90, 165, 161, 88, 1, 3.06688
61, 2, bw, attraction, a-b-da, 5, 2, 1, 30, 165, 90, 90, 165, 161, 88, 3, 0.614578
61, 2, bw, attraction, a-b-da, 14, 2, 1, 31, 90, 165, 153, 83, 165, 90, 1, 2.65976
61, 2, bw, attraction, a-b-da, 14, 2, 1, 31, 90, 165, 153, 83, 165, 90, 2, 0.543588
61, 2, bw, attraction, a-b-db, 14, 3, 1, 32, 195, 120, 111, 181, 120, 195, 1, 2.07137
61, 2, bw, attraction, a-b-db, 14, 3, 1, 32, 195, 120, 111, 181, 120, 195, 2, 0.602515
61, 2, bw, attraction, a-b-da, 2, 3, 1, 33, 120, 195, 195, 120, 193, 119, 1, 2.02436
61, 2, bw, attraction, a-b-da, 2, 3, 1, 33, 120, 195, 195, 120, 193, 119, 3, 0.413711
61, 2, bw, catch, NA, 999, 999, 1, 34, 118, 137, 93, 102, 148, 167, 3, 1.17883
61, 2, bw, catch, NA, 999, 999, 1, 34, 118, 137, 93, 102, 148, 167, 2, 0.498361
61, 2, bw, attraction, a-b-da, 9, 2, 1, 35, 157, 86, 90, 165, 165, 90, 2, 1.79626
61, 2, bw, attraction, a-b-da, 9, 2, 1, 35, 157, 86, 90, 165, 165, 90, 1, 0.498962
61, 2, bw, filler, NA, 999, 999, 1, 36, 170, 62, 98, 171, 181, 183, 3, 1.31683
61, 2, bw, filler, NA, 999, 999, 1, 36, 170, 62, 98, 171, 181, 183, 1, 0.942932
61, 2, bw, attraction, a-b-db, 14, 2, 1, 37, 83, 153, 165, 90, 90, 165, 3, 1.86257
61, 2, bw, attraction, a-b-db, 14, 2, 1, 37, 83, 153, 165, 90, 90, 165, 1, 0.890657
61, 2, bw, attraction, a-b-db, 14, 1, 2, 1, 60, 135, 56, 125, 135, 60, 3, 2.3163
61, 2, bw, attraction, a-b-db, 14, 1, 2, 1, 60, 135, 56, 125, 135, 60, 2, 0.598264
61, 2, bw, filler, NA, 999, 999, 2, 2, 140, 83, 172, 132, 85, 175, 2, 0.715948
61, 2, bw, filler, NA, 999, 999, 2, 2, 140, 83, 172, 132, 85, 175, 1, 0.526401
61, 2, bw, attraction, a-b-db, 9, 2, 2, 3, 86, 157, 165, 90, 90, 165, 1, 1.86288
61, 2, bw, attraction, a-b-db, 9, 2, 2, 3, 86, 157, 165, 90, 90, 165, 2, 1.93095
61, 2, bw, attraction, a-b-da, 5, 1, 2, 4, 132, 58, 135, 60, 60, 135, 3, 1.363
61, 2, bw, attraction, a-b-da, 5, 1, 2, 4, 132, 58, 135, 60, 60, 135, 1, 0.8031
61, 2, bw, attraction, a-b-da, 9, 3, 2, 5, 186, 114, 120, 195, 195, 120, 3, 1.33678
61, 2, bw, attraction, a-b-da, 9, 3, 2, 5, 186, 114, 120, 195, 195, 120, 2, 0.578397
61, 2, bw, filler, NA, 999, 999, 2, 6, 123, 162, 169, 148, 163, 129, 2, 2.21677
61, 2, bw, filler, NA, 999, 999, 2, 6, 123, 162, 169, 148, 163, 129, 3, 0.758747
61, 2, bw, filler, NA, 999, 999, 2, 7, 166, 126, 192, 103, 190, 177, 3, 0.877747
61, 2, bw, filler, NA, 999, 999, 2, 7, 166, 126, 192, 103, 190, 177, 1, 0.937452
61, 2, bw, attraction, a-b-db, 5, 2, 2, 8, 165, 90, 90, 165, 88, 161, 2, 3.70583
61, 2, bw, attraction, a-b-db, 5, 2, 2, 8, 165, 90, 90, 165, 88, 161, 1, 0.435263
61, 2, bw, attraction, a-b-da, 9, 2, 2, 9, 157, 86, 165, 90, 90, 165, 3, 1.66391
61, 2, bw, attraction, a-b-da, 9, 2, 2, 9, 157, 86, 165, 90, 90, 165, 1, 0.603823
61, 2, bw, attraction, a-b-da, 2, 2, 2, 10, 163, 89, 90, 165, 165, 90, 2, 2.92963
61, 2, bw, attraction, a-b-da, 2, 2, 2, 10, 163, 89, 90, 165, 165, 90, 1, 0.506622
61, 2, bw, attraction, a-b-db, 2, 2, 2, 11, 165, 90, 89, 163, 90, 165, 1, 2.9958
61, 2, bw, attraction, a-b-db, 2, 2, 2, 11, 165, 90, 89, 163, 90, 165, 2, 0.418163
61, 2, bw, filler, NA, 999, 999, 2, 12, 170, 118, 121, 172, 163, 84, 2, 2.01529
61, 2, bw, filler, NA, 999, 999, 2, 12, 170, 118, 121, 172, 163, 84, 3, 0.749324
61, 2, bw, attraction, a-b-db, 2, 3, 2, 13, 120, 195, 195, 120, 119, 193, 1, 3.61304
61, 2, bw, attraction, a-b-db, 2, 3, 2, 13, 120, 195, 195, 120, 119, 193, 2, 0.546482
61, 2, bw, attraction, a-b-da, 14, 2, 2, 14, 165, 90, 90, 165, 153, 83, 2, 3.31428
61, 2, bw, attraction, a-b-da, 14, 2, 2, 14, 165, 90, 90, 165, 153, 83, 3, 0.427881
61, 2, bw, filler, NA, 999, 999, 2, 15, 187, 69, 60, 179, 144, 168, 3, 0.840317
61, 2, bw, filler, NA, 999, 999, 2, 15, 187, 69, 60, 179, 144, 168, 1, 0.501379
61, 2, bw, catch, NA, 999, 999, 2, 16, 102, 93, 99, 156, 165, 150, 3, 1.26319
61, 2, bw, catch, NA, 999, 999, 2, 16, 102, 93, 99, 156, 165, 150, 1, 0.635396
61, 2, bw, attraction, a-b-db, 9, 1, 2, 17, 60, 135, 57, 129, 135, 60, 1, 1.59189
61, 2, bw, attraction, a-b-db, 9, 1, 2, 17, 60, 135, 57, 129, 135, 60, 3, 0.454744
61, 2, bw, attraction, a-b-db, 5, 1, 2, 18, 135, 60, 60, 135, 58, 132, 1, 2.21052
61, 2, bw, attraction, a-b-db, 5, 1, 2, 18, 135, 60, 60, 135, 58, 132, 2, 0.448444
61, 2, bw, attraction, a-b-db, 14, 3, 2, 19, 195, 120, 120, 195, 111, 181, 1, 2.27615
61, 2, bw, attraction, a-b-db, 14, 3, 2, 19, 195, 120, 120, 195, 111, 181, 3, 0.567551
61, 2, bw, filler, NA, 999, 999, 2, 20, 147, 110, 110, 182, 188, 193, 3, 0.974679
61, 2, bw, filler, NA, 999, 999, 2, 20, 147, 110, 110, 182, 188, 193, 1, 0.430276
61, 2, bw, catch, NA, 999, 999, 2, 21, 155, 100, 178, 137, 116, 79, 2, 0.930627
61, 2, bw, catch, NA, 999, 999, 2, 21, 155, 100, 178, 137, 116, 79, 3, 0.428469
61, 2, bw, attraction, a-b-db, 9, 3, 2, 22, 120, 195, 114, 186, 195, 120, 1, 2.36886
61, 2, bw, attraction, a-b-db, 9, 3, 2, 22, 120, 195, 114, 186, 195, 120, 3, 0.576761
61, 2, bw, attraction, a-b-db, 2, 1, 2, 23, 135, 60, 60, 135, 59, 134, 1, 4.48724
61, 2, bw, attraction, a-b-db, 2, 1, 2, 23, 135, 60, 60, 135, 59, 134, 3, 0.617735
61, 2, bw, attraction, a-b-da, 9, 1, 2, 24, 60, 135, 135, 60, 129, 57, 1, 3.61483
61, 2, bw, attraction, a-b-da, 9, 1, 2, 24, 60, 135, 135, 60, 129, 57, 3, 0.700393
61, 2, bw, attraction, a-b-da, 5, 3, 2, 25, 190, 117, 195, 120, 120, 195, 3, 2.44611
61, 2, bw, attraction, a-b-da, 5, 3, 2, 25, 190, 117, 195, 120, 120, 195, 2, 0.866591
61, 2, bw, filler, NA, 999, 999, 2, 26, 81, 194, 75, 159, 148, 186, 3, 0.949615
61, 2, bw, filler, NA, 999, 999, 2, 26, 81, 194, 75, 159, 148, 186, 2, 0.494612
61, 2, bw, filler, NA, 999, 999, 2, 27, 138, 191, 189, 105, 194, 123, 1, 2.8404
61, 2, bw, filler, NA, 999, 999, 2, 27, 138, 191, 189, 105, 194, 123, 2, 1.309
61, 2, bw, filler, NA, 999, 999, 2, 28, 76, 163, 157, 178, 122, 87, 2, 1.18974
61, 2, bw, filler, NA, 999, 999, 2, 28, 76, 163, 157, 178, 122, 87, 3, 0.460687
61, 2, bw, attraction, a-b-da, 2, 3, 2, 29, 193, 119, 195, 120, 120, 195, 3, 2.4878
61, 2, bw, attraction, a-b-da, 2, 3, 2, 29, 193, 119, 195, 120, 120, 195, 1, 0.978301
61, 2, bw, attraction, a-b-db, 14, 2, 2, 30, 165, 90, 90, 165, 83, 153, 2, 2.80075
61, 2, bw, attraction, a-b-db, 14, 2, 2, 30, 165, 90, 90, 165, 83, 153, 3, 0.599164
61, 2, bw, filler, NA, 999, 999, 2, 31, 125, 160, 153, 157, 170, 167, 3, 2.6209
61, 2, bw, filler, NA, 999, 999, 2, 31, 125, 160, 153, 157, 170, 167, 1, 0.882604
61, 2, bw, attraction, a-b-da, 2, 1, 2, 32, 60, 135, 135, 60, 134, 59, 3, 2.41297
61, 2, bw, attraction, a-b-da, 2, 1, 2, 32, 60, 135, 135, 60, 134, 59, 2, 1.53883
61, 2, bw, attraction, a-b-da, 14, 1, 2, 33, 125, 56, 135, 60, 60, 135, 3, 1.47497
61, 2, bw, attraction, a-b-da, 14, 1, 2, 33, 125, 56, 135, 60, 60, 135, 1, 0.718408
61, 2, bw, attraction, a-b-da, 5, 2, 2, 34, 90, 165, 165, 90, 161, 88, 1, 2.83948
61, 2, bw, attraction, a-b-da, 5, 2, 2, 34, 90, 165, 165, 90, 161, 88, 3, 0.596024
61, 2, bw, attraction, a-b-db, 5, 3, 2, 35, 195, 120, 117, 190, 120, 195, 2, 3.6257
61, 2, bw, attraction, a-b-db, 5, 3, 2, 35, 195, 120, 117, 190, 120, 195, 1, 3.58256
61, 2, bw, attraction, a-b-da, 14, 3, 2, 36, 120, 195, 181, 111, 195, 120, 1, 2.41199
61, 2, bw, attraction, a-b-da, 14, 3, 2, 36, 120, 195, 181, 111, 195, 120, 2, 0.545946
61, 2, bw, catch, NA, 999, 999, 2, 37, 74, 121, 175, 140, 129, 126, 2, 1.00171
61, 2, bw, catch, NA, 999, 999, 2, 37, 74, 121, 175, 140, 129, 126, 1, 0.408644
61, 2, bw, attraction, a-b-da, 2, 1, 3, 1, 60, 135, 135, 60, 134, 59, 1, 1.65381
61, 2, bw, attraction, a-b-da, 2, 1, 3, 1, 60, 135, 135, 60, 134, 59, 2, 0.545963
61, 2, bw, attraction, a-b-db, 5, 1, 3, 2, 135, 60, 60, 135, 58, 132, 2, 3.93775
61, 2, bw, attraction, a-b-db, 5, 1, 3, 2, 135, 60, 60, 135, 58, 132, 1, 0.458453
61, 2, bw, attraction, a-b-db, 2, 3, 3, 3, 119, 193, 195, 120, 120, 195, 2, 2.97357
61, 2, bw, attraction, a-b-db, 2, 3, 3, 3, 119, 193, 195, 120, 120, 195, 1, 1.81275
61, 2, bw, filler, NA, 999, 999, 3, 4, 165, 94, 62, 98, 66, 130, 1, 0.937246
61, 2, bw, filler, NA, 999, 999, 3, 4, 165, 94, 62, 98, 66, 130, 2, 0.490381
61, 2, bw, filler, NA, 999, 999, 3, 5, 113, 192, 127, 104, 70, 183, 1, 1.10014
61, 2, bw, filler, NA, 999, 999, 3, 5, 113, 192, 127, 104, 70, 183, 2, 1.26316
61, 2, bw, attraction, a-b-db, 2, 2, 3, 6, 165, 90, 90, 165, 89, 163, 2, 3.67407
61, 2, bw, attraction, a-b-db, 2, 2, 3, 6, 165, 90, 90, 165, 89, 163, 1, 0.532892
61, 2, bw, filler, NA, 999, 999, 3, 7, 162, 147, 159, 74, 105, 93, 1, 0.765268
61, 2, bw, filler, NA, 999, 999, 3, 7, 162, 147, 159, 74, 105, 93, 3, 0.437855
61, 2, bw, attraction, a-b-da, 2, 3, 3, 8, 195, 120, 120, 195, 193, 119, 2, 1.93009
61, 2, bw, attraction, a-b-da, 2, 3, 3, 8, 195, 120, 120, 195, 193, 119, 3, 1.03551
61, 2, bw, filler, NA, 999, 999, 3, 9, 142, 157, 110, 77, 162, 98, 1, 1.0158
61, 2, bw, filler, NA, 999, 999, 3, 9, 142, 157, 110, 77, 162, 98, 2, 0.494132
61, 2, bw, attraction, a-b-db, 14, 2, 3, 10, 90, 165, 165, 90, 83, 153, 1, 4.05595
61, 2, bw, attraction, a-b-db, 14, 2, 3, 10, 90, 165, 165, 90, 83, 153, 3, 0.515326
61, 2, bw, catch, NA, 999, 999, 3, 11, 111, 84, 136, 119, 120, 195, 3, 0.820392
61, 2, bw, catch, NA, 999, 999, 3, 11, 111, 84, 136, 119, 120, 195, 1, 0.473998
61, 2, bw, attraction, a-b-db, 9, 2, 3, 12, 86, 157, 90, 165, 165, 90, 2, 2.86857
61, 2, bw, attraction, a-b-db, 9, 2, 3, 12, 86, 157, 90, 165, 165, 90, 1, 1.35225
61, 2, bw, attraction, a-b-da, 5, 3, 3, 13, 190, 117, 195, 120, 120, 195, 3, 2.81586
61, 2, bw, attraction, a-b-da, 5, 3, 3, 13, 190, 117, 195, 120, 120, 195, 1, 0.8056
61, 2, bw, filler, NA, 999, 999, 3, 14, 59, 61, 193, 78, 120, 63, 2, 1.09935
61, 2, bw, filler, NA, 999, 999, 3, 14, 59, 61, 193, 78, 120, 63, 1, 0.654318
61, 2, bw, attraction, a-b-da, 14, 2, 3, 15, 90, 165, 153, 83, 165, 90, 1, 1.83399
61, 2, bw, attraction, a-b-da, 14, 2, 3, 15, 90, 165, 153, 83, 165, 90, 2, 0.575353
61, 2, bw, attraction, a-b-db, 14, 1, 3, 16, 60, 135, 135, 60, 56, 125, 1, 3.10182
61, 2, bw, attraction, a-b-db, 14, 1, 3, 16, 60, 135, 135, 60, 56, 125, 3, 0.888133
61, 2, bw, attraction, a-b-da, 14, 1, 3, 17, 135, 60, 125, 56, 60, 135, 3, 2.26645
61, 2, bw, attraction, a-b-da, 14, 1, 3, 17, 135, 60, 125, 56, 60, 135, 2, 0.510502
61, 2, bw, attraction, a-b-db, 5, 3, 3, 18, 117, 190, 195, 120, 120, 195, 2, 5.22354
61, 2, bw, attraction, a-b-db, 5, 3, 3, 18, 117, 190, 195, 120, 120, 195, 1, 0.419806
61, 2, bw, attraction, a-b-da, 14, 3, 3, 19, 181, 111, 195, 120, 120, 195, 3, 2.44099
61, 2, bw, attraction, a-b-da, 14, 3, 3, 19, 181, 111, 195, 120, 120, 195, 1, 0.493658
61, 2, bw, attraction, a-b-db, 9, 3, 3, 20, 120, 195, 114, 186, 195, 120, 1, 2.5273
61, 2, bw, attraction, a-b-db, 9, 3, 3, 20, 120, 195, 114, 186, 195, 120, 3, 0.768534
61, 2, bw, attraction, a-b-db, 14, 3, 3, 21, 120, 195, 111, 181, 195, 120, 1, 4.21554
61, 2, bw, attraction, a-b-db, 14, 3, 3, 21, 120, 195, 111, 181, 195, 120, 3, 1.87687
61, 2, bw, attraction, a-b-da, 5, 1, 3, 22, 135, 60, 132, 58, 60, 135, 3, 2.19889
61, 2, bw, attraction, a-b-da, 5, 1, 3, 22, 135, 60, 132, 58, 60, 135, 2, 1.0455
61, 2, bw, filler, NA, 999, 999, 3, 23, 184, 69, 126, 61, 79, 180, 3, 2.03307
61, 2, bw, filler, NA, 999, 999, 3, 23, 184, 69, 126, 61, 79, 180, 2, 0.598457
61, 2, bw, attraction, a-b-da, 2, 2, 3, 24, 165, 90, 163, 89, 90, 165, 3, 2.99632
61, 2, bw, attraction, a-b-da, 2, 2, 3, 24, 165, 90, 163, 89, 90, 165, 2, 1.73866
61, 2, bw, attraction, a-b-db, 2, 1, 3, 25, 59, 134, 60, 135, 135, 60, 3, 2.90675
61, 2, bw, attraction, a-b-db, 2, 1, 3, 25, 59, 134, 60, 135, 135, 60, 1, 1.06843
61, 2, bw, filler, NA, 999, 999, 3, 26, 111, 142, 110, 158, 85, 116, 2, 3.76736
61, 2, bw, filler, NA, 999, 999, 3, 26, 111, 142, 110, 158, 85, 116, 3, 0.502803
61, 2, bw, attraction, a-b-db, 5, 2, 3, 27, 90, 165, 88, 161, 165, 90, 1, 4.30466
61, 2, bw, attraction, a-b-db, 5, 2, 3, 27, 90, 165, 88, 161, 165, 90, 3, 0.449834
61, 2, bw, attraction, a-b-da, 9, 3, 3, 28, 195, 120, 186, 114, 120, 195, 3, 2.34978
61, 2, bw, attraction, a-b-da, 9, 3, 3, 28, 195, 120, 186, 114, 120, 195, 2, 1.20629
61, 2, bw, attraction, a-b-da, 9, 1, 3, 29, 60, 135, 135, 60, 129, 57, 1, 3.33117
61, 2, bw, attraction, a-b-da, 9, 1, 3, 29, 60, 135, 135, 60, 129, 57, 3, 0.70805
61, 2, bw, attraction, a-b-da, 9, 2, 3, 30, 157, 86, 90, 165, 165, 90, 2, 3.26922
61, 2, bw, attraction, a-b-da, 9, 2, 3, 30, 157, 86, 90, 165, 165, 90, 1, 1.02474
61, 2, bw, attraction, a-b-db, 9, 1, 3, 31, 57, 129, 135, 60, 60, 135, 3, 3.14103
61, 2, bw, attraction, a-b-db, 9, 1, 3, 31, 57, 129, 135, 60, 60, 135, 1, 0.469399
61, 2, bw, attraction, a-b-da, 5, 2, 3, 32, 165, 90, 90, 165, 161, 88, 2, 2.10449
61, 2, bw, attraction, a-b-da, 5, 2, 3, 32, 165, 90, 90, 165, 161, 88, 1, 1.56256
61, 2, bw, filler, NA, 999, 999, 3, 33, 173, 169, 118, 185, 125, 64, 1, 1.40121
61, 2, bw, filler, NA, 999, 999, 3, 33, 173, 169, 118, 185, 125, 64, 3, 0.58428
61, 2, bw, filler, NA, 999, 999, 3, 34, 140, 125, 99, 108, 101, 65, 1, 0.950554
61, 2, bw, filler, NA, 999, 999, 3, 34, 140, 125, 99, 108, 101, 65, 3, 0.535614
61, 2, bw, catch, NA, 999, 999, 3, 35, 189, 126, 79, 116, 158, 97, 1, 0.87207
61, 2, bw, catch, NA, 999, 999, 3, 35, 189, 126, 79, 116, 158, 97, 2, 0.355736
61, 2, bw, catch, NA, 999, 999, 3, 36, 147, 168, 145, 110, 126, 69, 1, 0.771495
61, 2, bw, catch, NA, 999, 999, 3, 36, 147, 168, 145, 110, 126, 69, 3, 0.41121
61, 2, bw, filler, NA, 999, 999, 3, 37, 56, 68, 142, 68, 162, 148, 3, 1.22441
61, 2, bw, filler, NA, 999, 999, 3, 37, 56, 68, 142, 68, 162, 148, 1, 0.630022
61, 2, bw, filler, NA, 999, 999, 4, 1, 148, 128, 135, 87, 174, 160, 3, 1.22645
61, 2, bw, filler, NA, 999, 999, 4, 1, 148, 128, 135, 87, 174, 160, 2, 0.560007
61, 2, bw, catch, NA, 999, 999, 4, 2, 69, 126, 140, 175, 156, 99, 2, 1.0631
61, 2, bw, catch, NA, 999, 999, 4, 2, 69, 126, 140, 175, 156, 99, 1, 0.619508
61, 2, bw, attraction, a-b-db, 2, 2, 4, 3, 89, 163, 90, 165, 165, 90, 2, 3.16852
61, 2, bw, attraction, a-b-db, 2, 2, 4, 3, 89, 163, 90, 165, 165, 90, 3, 0.560203
61, 2, bw, filler, NA, 999, 999, 4, 4, 185, 140, 193, 194, 110, 122, 2, 1.03126
61, 2, bw, filler, NA, 999, 999, 4, 4, 185, 140, 193, 194, 110, 122, 3, 0.444943
61, 2, bw, attraction, a-b-db, 5, 3, 4, 5, 120, 195, 117, 190, 195, 120, 2, 2.31273
61, 2, bw, attraction, a-b-db, 5, 3, 4, 5, 120, 195, 117, 190, 195, 120, 3, 1.03456
61, 2, bw, filler, NA, 999, 999, 4, 6, 137, 64, 88, 101, 107, 107, 3, 2.21489
61, 2, bw, filler, NA, 999, 999, 4, 6, 137, 64, 88, 101, 107, 107, 1, 3.06897
61, 2, bw, catch, NA, 999, 999, 4, 7, 160, 155, 106, 149, 123, 72, 1, 1.43917
61, 2, bw, catch, NA, 999, 999, 4, 7, 160, 155, 106, 149, 123, 72, 3, 0.77198
61, 2, bw, attraction, a-b-db, 2, 1, 4, 8, 60, 135, 135, 60, 59, 134, 3, 6.98706
61, 2, bw, attraction, a-b-db, 2, 1, 4, 8, 60, 135, 135, 60, 59, 134, 2, 1.35281
61, 2, bw, attraction, a-b-da, 5, 1, 4, 9, 60, 135, 132, 58, 135, 60, 1, 6.69639
61, 2, bw, attraction, a-b-da, 5, 1, 4, 9, 60, 135, 132, 58, 135, 60, 2, 0.585763
61, 2, bw, filler, NA, 999, 999, 4, 10, 89, 75, 179, 132, 65, 110, 2, 3.96002
61, 2, bw, filler, NA, 999, 999, 4, 10, 89, 75, 179, 132, 65, 110, 1, 0.823505
61, 2, bw, attraction, a-b-da, 14, 1, 4, 11, 135, 60, 60, 135, 125, 56, 2, 4.36387
61, 2, bw, attraction, a-b-da, 14, 1, 4, 11, 135, 60, 60, 135, 125, 56, 3, 0.947151
61, 2, bw, attraction, a-b-db, 9, 2, 4, 12, 90, 165, 165, 90, 86, 157, 1, 1.76262
61, 2, bw, attraction, a-b-db, 9, 2, 4, 12, 90, 165, 165, 90, 86, 157, 3, 1.29086
61, 2, bw, attraction, a-b-db, 9, 3, 4, 13, 195, 120, 114, 186, 120, 195, 3, 2.82036
61, 2, bw, attraction, a-b-db, 9, 3, 4, 13, 195, 120, 114, 186, 120, 195, 1, 5.88211
61, 2, bw, attraction, a-b-db, 14, 3, 4, 14, 195, 120, 120, 195, 111, 181, 1, 3.37085
61, 2, bw, attraction, a-b-db, 14, 3, 4, 14, 195, 120, 120, 195, 111, 181, 3, 0.474527
61, 2, bw, attraction, a-b-da, 9, 2, 4, 15, 157, 86, 165, 90, 90, 165, 3, 3.18101
61, 2, bw, attraction, a-b-da, 9, 2, 4, 15, 157, 86, 165, 90, 90, 165, 1, 0.707887
61, 2, bw, attraction, a-b-da, 5, 3, 4, 16, 190, 117, 120, 195, 195, 120, 3, 3.80495
61, 2, bw, attraction, a-b-da, 5, 3, 4, 16, 190, 117, 120, 195, 195, 120, 1, 0.714339
61, 2, bw, filler, NA, 999, 999, 4, 17, 110, 60, 136, 173, 102, 80, 2, 1.09944
61, 2, bw, filler, NA, 999, 999, 4, 17, 110, 60, 136, 173, 102, 80, 1, 0.494355
61, 2, bw, catch, NA, 999, 999, 4, 18, 183, 132, 141, 114, 133, 62, 1, 0.768249
61, 2, bw, catch, NA, 999, 999, 4, 18, 183, 132, 141, 114, 133, 62, 3, 0.424682
61, 2, bw, attraction, a-b-da, 9, 3, 4, 19, 186, 114, 120, 195, 195, 120, 2, 2.01309
61, 2, bw, attraction, a-b-da, 9, 3, 4, 19, 186, 114, 120, 195, 195, 120, 1, 5.13907
61, 2, bw, attraction, a-b-db, 5, 2, 4, 20, 88, 161, 90, 165, 165, 90, 3, 4.13001
61, 2, bw, attraction, a-b-db, 5, 2, 4, 20, 88, 161, 90, 165, 165, 90, 1, 0.594686
61, 2, bw, filler, NA, 999, 999, 4, 21, 178, 104, 120, 90, 95, 102, 1, 1.31256
61, 2, bw, filler, NA, 999, 999, 4, 21, 178, 104, 120, 90, 95, 102, 3, 0.570816
61, 2, bw, filler, NA, 999, 999, 4, 22, 186, 106, 115, 156, 152, 166, 3, 3.59384
61, 2, bw, filler, NA, 999, 999, 4, 22, 186, 106, 115, 156, 152, 166, 2, 1.31198
61, 2, bw, attraction, a-b-db, 14, 2, 4, 23, 165, 90, 83, 153, 90, 165, 1, 3.69697
61, 2, bw, attraction, a-b-db, 14, 2, 4, 23, 165, 90, 83, 153, 90, 165, 2, 0.555078
61, 2, bw, attraction, a-b-da, 14, 2, 4, 24, 165, 90, 90, 165, 153, 83, 1, 2.29085
61, 2, bw, attraction, a-b-da, 14, 2, 4, 24, 165, 90, 90, 165, 153, 83, 3, 0.58145
61, 2, bw, filler, NA, 999, 999, 4, 25, 174, 193, 93, 137, 90, 165, 1, 1.37188
61, 2, bw, filler, NA, 999, 999, 4, 25, 174, 193, 93, 137, 90, 165, 2, 1.23532
61, 2, bw, attraction, a-b-da, 9, 1, 4, 26, 129, 57, 135, 60, 60, 135, 3, 2.85567
61, 2, bw, attraction, a-b-da, 9, 1, 4, 26, 129, 57, 135, 60, 60, 135, 2, 0.827367
61, 2, bw, filler, NA, 999, 999, 4, 27, 92, 69, 167, 165, 79, 141, 2, 1.74367
61, 2, bw, filler, NA, 999, 999, 4, 27, 92, 69, 167, 165, 79, 141, 1, 0.648361
61, 2, bw, filler, NA, 999, 999, 4, 28, 87, 163, 157, 109, 134, 184, 3, 2.08416
61, 2, bw, filler, NA, 999, 999, 4, 28, 87, 163, 157, 109, 134, 184, 1, 0.527499
61, 2, bw, attraction, a-b-db, 14, 1, 4, 29, 135, 60, 56, 125, 60, 135, 1, 2.76803
61, 2, bw, attraction, a-b-db, 14, 1, 4, 29, 135, 60, 56, 125, 60, 135, 2, 0.511702
61, 2, bw, attraction, a-b-db, 2, 3, 4, 30, 195, 120, 120, 195, 119, 193, 1, 3.32879
61, 2, bw, attraction, a-b-db, 2, 3, 4, 30, 195, 120, 120, 195, 119, 193, 3, 0.705775
61, 2, bw, attraction, a-b-db, 9, 1, 4, 31, 135, 60, 57, 129, 60, 135, 3, 3.89949
61, 2, bw, attraction, a-b-db, 9, 1, 4, 31, 135, 60, 57, 129, 60, 135, 1, 0.741772
61, 2, bw, attraction, a-b-db, 5, 1, 4, 32, 58, 132, 60, 135, 135, 60, 2, 3.68535
61, 2, bw, attraction, a-b-db, 5, 1, 4, 32, 58, 132, 60, 135, 135, 60, 3, 1.12815
61, 2, bw, attraction, a-b-da, 5, 2, 4, 33, 161, 88, 90, 165, 165, 90, 2, 2.89642
61, 2, bw, attraction, a-b-da, 5, 2, 4, 33, 161, 88, 90, 165, 165, 90, 1, 1.75475
61, 2, bw, attraction, a-b-da, 2, 3, 4, 34, 120, 195, 195, 120, 193, 119, 1, 4.68217
61, 2, bw, attraction, a-b-da, 2, 3, 4, 34, 120, 195, 195, 120, 193, 119, 3, 0.700608
61, 2, bw, attraction, a-b-da, 2, 1, 4, 35, 135, 60, 134, 59, 60, 135, 3, 4.77435
61, 2, bw, attraction, a-b-da, 2, 1, 4, 35, 135, 60, 134, 59, 60, 135, 2, 0.844815
61, 2, bw, attraction, a-b-da, 14, 3, 4, 36, 181, 111, 120, 195, 195, 120, 2, 4.13654
61, 2, bw, attraction, a-b-da, 14, 3, 4, 36, 181, 111, 120, 195, 195, 120, 1, 0.641114
61, 2, bw, attraction, a-b-da, 2, 2, 4, 37, 90, 165, 165, 90, 163, 89, 1, 3.46105
61, 2, bw, attraction, a-b-da, 2, 2, 4, 37, 90, 165, 165, 90, 163, 89, 3, 5.10451
61, 2, bw, attraction, a-b-da, 9, 2, 5, 1, 157, 86, 90, 165, 165, 90, 2, 2.15157
61, 2, bw, attraction, a-b-da, 9, 2, 5, 1, 157, 86, 90, 165, 165, 90, 1, 0.784104
61, 2, bw, attraction, a-b-da, 14, 3, 5, 2, 120, 195, 181, 111, 195, 120, 1, 1.61446
61, 2, bw, attraction, a-b-da, 14, 3, 5, 2, 120, 195, 181, 111, 195, 120, 2, 0.564625
61, 2, bw, filler, NA, 999, 999, 5, 3, 168, 89, 58, 156, 74, 151, 1, 1.42771
61, 2, bw, filler, NA, 999, 999, 5, 3, 168, 89, 58, 156, 74, 151, 2, 0.633256
61, 2, bw, attraction, a-b-db, 14, 1, 5, 4, 60, 135, 135, 60, 56, 125, 3, 2.8697
61, 2, bw, attraction, a-b-db, 14, 1, 5, 4, 60, 135, 135, 60, 56, 125, 2, 0.585432
61, 2, bw, attraction, a-b-db, 5, 2, 5, 5, 90, 165, 165, 90, 88, 161, 1, 3.80797
61, 2, bw, attraction, a-b-db, 5, 2, 5, 5, 90, 165, 165, 90, 88, 161, 3, 0.557256
61, 2, bw, attraction, a-b-db, 9, 1, 5, 6, 135, 60, 57, 129, 60, 135, 3, 3.88437
61, 2, bw, attraction, a-b-db, 9, 1, 5, 6, 135, 60, 57, 129, 60, 135, 2, 0.671153
61, 2, bw, attraction, a-b-db, 5, 3, 5, 7, 195, 120, 117, 190, 120, 195, 1, 4.83428
61, 2, bw, attraction, a-b-db, 5, 3, 5, 7, 195, 120, 117, 190, 120, 195, 2, 0.526685
61, 2, bw, attraction, a-b-db, 2, 2, 5, 8, 90, 165, 165, 90, 89, 163, 1, 5.39114
61, 2, bw, attraction, a-b-db, 2, 2, 5, 8, 90, 165, 165, 90, 89, 163, 2, 3.86878
61, 2, bw, catch, NA, 999, 999, 5, 9, 159, 156, 81, 114, 139, 116, 1, 1.03885
61, 2, bw, catch, NA, 999, 999, 5, 9, 159, 156, 81, 114, 139, 116, 2, 0.491784
61, 2, bw, catch, NA, 999, 999, 5, 10, 99, 96, 104, 151, 152, 163, 3, 0.869507
61, 2, bw, catch, NA, 999, 999, 5, 10, 99, 96, 104, 151, 152, 163, 1, 0.71396
61, 2, bw, attraction, a-b-db, 14, 2, 5, 11, 90, 165, 165, 90, 83, 153, 1, 3.28298
61, 2, bw, attraction, a-b-db, 14, 2, 5, 11, 90, 165, 165, 90, 83, 153, 3, 0.421918
61, 2, bw, attraction, a-b-da, 5, 2, 5, 12, 90, 165, 161, 88, 165, 90, 1, 4.54711
61, 2, bw, attraction, a-b-da, 5, 2, 5, 12, 90, 165, 161, 88, 165, 90, 2, 1.53105
61, 2, bw, filler, NA, 999, 999, 5, 13, 149, 123, 59, 181, 83, 191, 1, 1.83537
61, 2, bw, filler, NA, 999, 999, 5, 13, 149, 123, 59, 181, 83, 191, 2, 0.576543
61, 2, bw, attraction, a-b-db, 2, 1, 5, 14, 60, 135, 135, 60, 59, 134, 3, 6.57496
61, 2, bw, attraction, a-b-db, 2, 1, 5, 14, 60, 135, 135, 60, 59, 134, 2, 1.1009
61, 2, bw, filler, NA, 999, 999, 5, 15, 108, 195, 149, 125, 58, 167, 1, 1.06247
61, 2, bw, filler, NA, 999, 999, 5, 15, 108, 195, 149, 125, 58, 167, 3, 0.78672
61, 2, bw, attraction, a-b-da, 2, 1, 5, 16, 134, 59, 60, 135, 135, 60, 2, 4.7051
61, 2, bw, attraction, a-b-da, 2, 1, 5, 16, 134, 59, 60, 135, 135, 60, 1, 0.514295
61, 2, bw, attraction, a-b-da, 5, 3, 5, 17, 120, 195, 190, 117, 195, 120, 1, 5.21139
61, 2, bw, attraction, a-b-da, 5, 3, 5, 17, 120, 195, 190, 117, 195, 120, 2, 0.616451
61, 2, bw, catch, NA, 999, 999, 5, 18, 163, 92, 81, 114, 195, 120, 3, 2.07746
61, 2, bw, catch, NA, 999, 999, 5, 18, 163, 92, 81, 114, 195, 120, 2, 0.432757
61, 2, bw, attraction, a-b-db, 9, 2, 5, 19, 86, 157, 90, 165, 165, 90, 3, 5.79743
61, 2, bw, attraction, a-b-db, 9, 2, 5, 19, 86, 157, 90, 165, 165, 90, 1, 0.546692
61, 2, bw, filler, NA, 999, 999, 5, 20, 105, 126, 173, 195, 130, 124, 2, 0.858464
61, 2, bw, filler, NA, 999, 999, 5, 20, 105, 126, 173, 195, 130, 124, 1, 0.686894
61, 2, bw, filler, NA, 999, 999, 5, 21, 159, 124, 137, 87, 141, 174, 3, 2.38531
61, 2, bw, filler, NA, 999, 999, 5, 21, 159, 124, 137, 87, 141, 174, 2, 0.72051
61, 2, bw, attraction, a-b-da, 5, 1, 5, 22, 135, 60, 60, 135, 132, 58, 1, 4.40161
61, 2, bw, attraction, a-b-da, 5, 1, 5, 22, 135, 60, 60, 135, 132, 58, 3, 3.60758
61, 2, bw, attraction, a-b-da, 14, 1, 5, 23, 125, 56, 60, 135, 135, 60, 2, 3.49176
61, 2, bw, attraction, a-b-da, 14, 1, 5, 23, 125, 56, 60, 135, 135, 60, 1, 0.893872
61, 2, bw, attraction, a-b-db, 14, 3, 5, 24, 195, 120, 120, 195, 111, 181, 1, 2.99161
61, 2, bw, attraction, a-b-db, 14, 3, 5, 24, 195, 120, 120, 195, 111, 181, 3, 0.501965
61, 2, bw, attraction, a-b-db, 5, 1, 5, 25, 135, 60, 58, 132, 60, 135, 1, 2.44766
61, 2, bw, attraction, a-b-db, 5, 1, 5, 25, 135, 60, 58, 132, 60, 135, 3, 0.452215
61, 2, bw, filler, NA, 999, 999, 5, 26, 78, 91, 139, 138, 187, 159, 3, 0.824036
61, 2, bw, filler, NA, 999, 999, 5, 26, 78, 91, 139, 138, 187, 159, 1, 0.453775
61, 2, bw, attraction, a-b-da, 9, 1, 5, 27, 60, 135, 129, 57, 135, 60, 3, 1.68159
61, 2, bw, attraction, a-b-da, 9, 1, 5, 27, 60, 135, 129, 57, 135, 60, 2, 0.533005
61, 2, bw, attraction, a-b-db, 2, 3, 5, 28, 120, 195, 119, 193, 195, 120, 2, 2.14147
61, 2, bw, attraction, a-b-db, 2, 3, 5, 28, 120, 195, 119, 193, 195, 120, 3, 1.87816
61, 2, bw, attraction, a-b-da, 2, 3, 5, 29, 120, 195, 193, 119, 195, 120, 1, 2.67227
61, 2, bw, attraction, a-b-da, 2, 3, 5, 29, 120, 195, 193, 119, 195, 120, 2, 1.20328
61, 2, bw, filler, NA, 999, 999, 5, 30, 98, 171, 140, 150, 88, 97, 2, 1.55276
61, 2, bw, filler, NA, 999, 999, 5, 30, 98, 171, 140, 150, 88, 97, 3, 1.12174
61, 2, bw, filler, NA, 999, 999, 5, 31, 127, 136, 126, 151, 161, 80, 2, 3.86657
61, 2, bw, filler, NA, 999, 999, 5, 31, 127, 136, 126, 151, 161, 80, 3, 0.438019
61, 2, bw, attraction, a-b-da, 2, 2, 5, 32, 165, 90, 163, 89, 90, 165, 3, 3.33058
61, 2, bw, attraction, a-b-da, 2, 2, 5, 32, 165, 90, 163, 89, 90, 165, 1, 0.723482
61, 2, bw, filler, NA, 999, 999, 5, 33, 94, 136, 133, 160, 182, 115, 2, 2.0758
61, 2, bw, filler, NA, 999, 999, 5, 33, 94, 136, 133, 160, 182, 115, 1, 0.511063
61, 2, bw, filler, NA, 999, 999, 5, 34, 141, 107, 68, 146, 135, 167, 3, 1.05622
61, 2, bw, filler, NA, 999, 999, 5, 34, 141, 107, 68, 146, 135, 167, 2, 0.436554
61, 2, bw, attraction, a-b-da, 14, 2, 5, 35, 90, 165, 165, 90, 153, 83, 1, 1.80902
61, 2, bw, attraction, a-b-da, 14, 2, 5, 35, 90, 165, 165, 90, 153, 83, 3, 0.407055
61, 2, bw, attraction, a-b-db, 9, 3, 5, 36, 120, 195, 114, 186, 195, 120, 2, 3.62824
61, 2, bw, attraction, a-b-db, 9, 3, 5, 36, 120, 195, 114, 186, 195, 120, 3, 0.456998
61, 2, bw, attraction, a-b-da, 9, 3, 5, 37, 120, 195, 186, 114, 195, 120, 1, 1.6363
61, 2, bw, attraction, a-b-da, 9, 3, 5, 37, 120, 195, 186, 114, 195, 120, 2, 1.48166
61, 2, bw, filler, NA, 999, 999, 6, 1, 98, 84, 187, 77, 78, 104, 2, 2.76377
61, 2, bw, filler, NA, 999, 999, 6, 1, 98, 84, 187, 77, 78, 104, 3, 1.25958
61, 2, bw, attraction, a-b-db, 9, 1, 6, 2, 135, 60, 57, 129, 60, 135, 3, 4.39047
61, 2, bw, attraction, a-b-db, 9, 1, 6, 2, 135, 60, 57, 129, 60, 135, 2, 1.42035
61, 2, bw, attraction, a-b-da, 5, 1, 6, 3, 60, 135, 135, 60, 132, 58, 1, 5.48926
61, 2, bw, attraction, a-b-da, 5, 1, 6, 3, 60, 135, 135, 60, 132, 58, 3, 0.666846
61, 2, bw, attraction, a-b-db, 5, 1, 6, 4, 60, 135, 58, 132, 135, 60, 1, 3.90183
61, 2, bw, attraction, a-b-db, 5, 1, 6, 4, 60, 135, 58, 132, 135, 60, 2, 0.535968
61, 2, bw, attraction, a-b-da, 14, 1, 6, 5, 125, 56, 135, 60, 60, 135, 2, 2.41645
61, 2, bw, attraction, a-b-da, 14, 1, 6, 5, 125, 56, 135, 60, 60, 135, 3, 1.99828
61, 2, bw, attraction, a-b-db, 9, 2, 6, 6, 86, 157, 90, 165, 165, 90, 2, 4.77965
61, 2, bw, attraction, a-b-db, 9, 2, 6, 6, 86, 157, 90, 165, 165, 90, 1, 0.51411
61, 2, bw, attraction, a-b-da, 5, 3, 6, 7, 120, 195, 190, 117, 195, 120, 1, 3.84324
61, 2, bw, attraction, a-b-da, 5, 3, 6, 7, 120, 195, 190, 117, 195, 120, 3, 0.447338
61, 2, bw, filler, NA, 999, 999, 6, 8, 177, 111, 166, 167, 193, 185, 3, 2.23517
61, 2, bw, filler, NA, 999, 999, 6, 8, 177, 111, 166, 167, 193, 185, 1, 0.696416
61, 2, bw, attraction, a-b-da, 2, 2, 6, 9, 163, 89, 165, 90, 90, 165, 1, 5.44209
61, 2, bw, attraction, a-b-da, 2, 2, 6, 9, 163, 89, 165, 90, 90, 165, 3, 0.373735
61, 2, bw, attraction, a-b-db, 5, 3, 6, 10, 195, 120, 117, 190, 120, 195, 1, 2.09228
61, 2, bw, attraction, a-b-db, 5, 3, 6, 10, 195, 120, 117, 190, 120, 195, 2, 0.750838
61, 2, bw, catch, NA, 999, 999, 6, 11, 123, 192, 102, 93, 95, 160, 1, 0.886486
61, 2, bw, catch, NA, 999, 999, 6, 11, 123, 192, 102, 93, 95, 160, 2, 0.498247
61, 2, bw, catch, NA, 999, 999, 6, 12, 159, 156, 90, 105, 159, 96, 1, 1.27608
61, 2, bw, catch, NA, 999, 999, 6, 12, 159, 156, 90, 105, 159, 96, 2, 0.599653
61, 2, bw, attraction, a-b-da, 9, 3, 6, 13, 186, 114, 195, 120, 120, 195, 3, 1.56543
61, 2, bw, attraction, a-b-da, 9, 3, 6, 13, 186, 114, 195, 120, 120, 195, 1, 1.42153
61, 2, bw, attraction, a-b-db, 2, 2, 6, 14, 89, 163, 165, 90, 90, 165, 1, 4.82636
61, 2, bw, attraction, a-b-db, 2, 2, 6, 14, 89, 163, 165, 90, 90, 165, 3, 3.63088
61, 2, bw, attraction, a-b-da, 14, 2, 6, 15, 165, 90, 153, 83, 90, 165, 3, 1.21823
61, 2, bw, attraction, a-b-da, 14, 2, 6, 15, 165, 90, 153, 83, 90, 165, 2, 1.84057
61, 2, bw, filler, NA, 999, 999, 6, 16, 71, 57, 66, 93, 89, 77, 3, 1.2599
61, 2, bw, filler, NA, 999, 999, 6, 16, 71, 57, 66, 93, 89, 77, 1, 0.744142
61, 2, bw, filler, NA, 999, 999, 6, 17, 156, 162, 61, 123, 112, 148, 1, 1.11988
61, 2, bw, filler, NA, 999, 999, 6, 17, 156, 162, 61, 123, 112, 148, 2, 0.514167
61, 2, bw, attraction, a-b-da, 2, 1, 6, 18, 60, 135, 135, 60, 134, 59, 1, 1.76321
61, 2, bw, attraction, a-b-da, 2, 1, 6, 18, 60, 135, 135, 60, 134, 59, 3, 2.08344
61, 2, bw, attraction, a-b-da, 14, 3, 6, 19, 120, 195, 181, 111, 195, 120, 1, 2.29336
61, 2, bw, attraction, a-b-da, 14, 3, 6, 19, 120, 195, 181, 111, 195, 120, 3, 0.552036
61, 2, bw, attraction, a-b-db, 14, 1, 6, 20, 56, 125, 135, 60, 60, 135, 3, 3.60767
61, 2, bw, attraction, a-b-db, 14, 1, 6, 20, 56, 125, 135, 60, 60, 135, 2, 1.62124
61, 2, bw, filler, NA, 999, 999, 6, 21, 127, 74, 150, 123, 125, 123, 2, 2.01006
61, 2, bw, filler, NA, 999, 999, 6, 21, 127, 74, 150, 123, 125, 123, 3, 0.43204
61, 2, bw, attraction, a-b-db, 2, 1, 6, 22, 60, 135, 135, 60, 59, 134, 3, 5.86059
61, 2, bw, attraction, a-b-db, 2, 1, 6, 22, 60, 135, 135, 60, 59, 134, 2, 2.32726
61, 2, bw, filler, NA, 999, 999, 6, 23, 172, 118, 57, 192, 146, 139, 1, 1.68714
61, 2, bw, filler, NA, 999, 999, 6, 23, 172, 118, 57, 192, 146, 139, 2, 1.28262
61, 2, bw, attraction, a-b-db, 9, 3, 6, 24, 114, 186, 120, 195, 195, 120, 2, 1.94082
61, 2, bw, attraction, a-b-db, 9, 3, 6, 24, 114, 186, 120, 195, 195, 120, 1, 1.2535
61, 2, bw, attraction, a-b-db, 5, 2, 6, 25, 165, 90, 88, 161, 90, 165, 1, 4.23303
61, 2, bw, attraction, a-b-db, 5, 2, 6, 25, 165, 90, 88, 161, 90, 165, 2, 0.541708
61, 2, bw, filler, NA, 999, 999, 6, 26, 75, 87, 156, 93, 67, 91, 2, 1.02961
61, 2, bw, filler, NA, 999, 999, 6, 26, 75, 87, 156, 93, 67, 91, 3, 0.651264
61, 2, bw, attraction, a-b-db, 2, 3, 6, 27, 120, 195, 119, 193, 195, 120, 2, 1.92681
61, 2, bw, attraction, a-b-db, 2, 3, 6, 27, 120, 195, 119, 193, 195, 120, 1, 1.8562
61, 2, bw, filler, NA, 999, 999, 6, 28, 145, 149, 140, 146, 76, 87, 1, 3.91571
61, 2, bw, filler, NA, 999, 999, 6, 28, 145, 149, 140, 146, 76, 87, 3, 0.557065
61, 2, bw, attraction, a-b-db, 14, 3, 6, 29, 111, 181, 195, 120, 120, 195, 3, 6.4041
61, 2, bw, attraction, a-b-db, 14, 3, 6, 29, 111, 181, 195, 120, 120, 195, 1, 0.817336
61, 2, bw, attraction, a-b-db, 14, 2, 6, 30, 83, 153, 90, 165, 165, 90, 2, 1.47046
61, 2, bw, attraction, a-b-db, 14, 2, 6, 30, 83, 153, 90, 165, 165, 90, 1, 0.56194
61, 2, bw, catch, NA, 999, 999, 6, 31, 141, 174, 106, 149, 83, 112, 1, 1.31312
61, 2, bw, catch, NA, 999, 999, 6, 31, 141, 174, 106, 149, 83, 112, 3, 0.50732
61, 2, bw, attraction, a-b-da, 9, 1, 6, 32, 135, 60, 129, 57, 60, 135, 3, 2.54036
61, 2, bw, attraction, a-b-da, 9, 1, 6, 32, 135, 60, 129, 57, 60, 135, 2, 0.476957
61, 2, bw, attraction, a-b-da, 9, 2, 6, 33, 157, 86, 90, 165, 165, 90, 3, 5.17545
61, 2, bw, attraction, a-b-da, 9, 2, 6, 33, 157, 86, 90, 165, 165, 90, 1, 0.597801
61, 2, bw, attraction, a-b-da, 5, 2, 6, 34, 90, 165, 165, 90, 161, 88, 1, 1.65951
61, 2, bw, attraction, a-b-da, 5, 2, 6, 34, 90, 165, 165, 90, 161, 88, 3, 0.407595
61, 2, bw, filler, NA, 999, 999, 6, 35, 162, 128, 67, 144, 75, 101, 1, 0.740727
61, 2, bw, filler, NA, 999, 999, 6, 35, 162, 128, 67, 144, 75, 101, 3, 0.429772
61, 2, bw, filler, NA, 999, 999, 6, 36, 157, 60, 115, 100, 133, 129, 3, 1.21832
61, 2, bw, filler, NA, 999, 999, 6, 36, 157, 60, 115, 100, 133, 129, 1, 1.13656
61, 2, bw, attraction, a-b-da, 2, 3, 6, 37, 193, 119, 195, 120, 120, 195, 3, 1.72887
61, 2, bw, attraction, a-b-da, 2, 3, 6, 37, 193, 119, 195, 120, 120, 195, 2, 0.642176
61, 2, bw, catch, NA, 999, 999, 7, 1, 84, 111, 163, 92, 136, 179, 3, 0.709992
61, 2, bw, catch, NA, 999, 999, 7, 1, 84, 111, 163, 92, 136, 179, 1, 0.448407
61, 2, bw, attraction, a-b-da, 2, 2, 7, 2, 163, 89, 165, 90, 90, 165, 3, 2.50818
61, 2, bw, attraction, a-b-da, 2, 2, 7, 2, 163, 89, 165, 90, 90, 165, 1, 0.870151
61, 2, bw, attraction, a-b-db, 5, 1, 7, 3, 58, 132, 135, 60, 60, 135, 3, 1.16924
61, 2, bw, attraction, a-b-db, 5, 1, 7, 3, 58, 132, 135, 60, 60, 135, 1, 0.505444
61, 2, bw, attraction, a-b-db, 5, 3, 7, 4, 195, 120, 117, 190, 120, 195, 2, 2.58714
61, 2, bw, attraction, a-b-db, 5, 3, 7, 4, 195, 120, 117, 190, 120, 195, 3, 0.722275
61, 2, bw, attraction, a-b-db, 2, 3, 7, 5, 119, 193, 195, 120, 120, 195, 1, 1.38731
61, 2, bw, attraction, a-b-db, 2, 3, 7, 5, 119, 193, 195, 120, 120, 195, 3, 0.418247
61, 2, bw, attraction, a-b-db, 2, 2, 7, 6, 165, 90, 89, 163, 90, 165, 3, 3.35933
61, 2, bw, attraction, a-b-db, 2, 2, 7, 6, 165, 90, 89, 163, 90, 165, 1, 0.470928
61, 2, bw, attraction, a-b-db, 14, 1, 7, 7, 60, 135, 135, 60, 56, 125, 1, 1.83403
61, 2, bw, attraction, a-b-db, 14, 1, 7, 7, 60, 135, 135, 60, 56, 125, 3, 1.06352
61, 2, bw, catch, NA, 999, 999, 7, 8, 122, 193, 110, 145, 127, 68, 1, 0.722438
61, 2, bw, catch, NA, 999, 999, 7, 8, 122, 193, 110, 145, 127, 68, 3, 0.492209
61, 2, bw, attraction, a-b-da, 5, 3, 7, 9, 120, 195, 190, 117, 195, 120, 3, 1.62204
61, 2, bw, attraction, a-b-da, 5, 3, 7, 9, 120, 195, 190, 117, 195, 120, 2, 1.52333
61, 2, bw, attraction, a-b-da, 2, 1, 7, 10, 60, 135, 135, 60, 134, 59, 1, 3.62758
61, 2, bw, attraction, a-b-da, 2, 1, 7, 10, 60, 135, 135, 60, 134, 59, 2, 0.376434
61, 2, bw, filler, NA, 999, 999, 7, 11, 68, 172, 125, 166, 183, 117, 2, 2.59087
61, 2, bw, filler, NA, 999, 999, 7, 11, 68, 172, 125, 166, 183, 117, 1, 0.477481
61, 2, bw, filler, NA, 999, 999, 7, 12, 140, 195, 174, 112, 133, 67, 1, 1.08784
61, 2, bw, filler, NA, 999, 999, 7, 12, 140, 195, 174, 112, 133, 67, 3, 0.418742
61, 2, bw, attraction, a-b-da, 9, 3, 7, 13, 186, 114, 120, 195, 195, 120, 2, 1.944
61, 2, bw, attraction, a-b-da, 9, 3, 7, 13, 186, 114, 120, 195, 195, 120, 1, 0.432618
61, 2, bw, attraction, a-b-da, 14, 1, 7, 14, 60, 135, 135, 60, 125, 56, 1, 2.62112
61, 2, bw, attraction, a-b-da, 14, 1, 7, 14, 60, 135, 135, 60, 125, 56, 3, 0.674296
61, 2, bw, filler, NA, 999, 999, 7, 15, 90, 173, 136, 183, 156, 163, 2, 1.64468
61, 2, bw, filler, NA, 999, 999, 7, 15, 90, 173, 136, 183, 156, 163, 1, 0.457545
61, 2, bw, filler, NA, 999, 999, 7, 16, 84, 109, 143, 191, 158, 194, 2, 1.08453
61, 2, bw, filler, NA, 999, 999, 7, 16, 84, 109, 143, 191, 158, 194, 1, 0.384211
61, 2, bw, attraction, a-b-da, 14, 2, 7, 17, 153, 83, 90, 165, 165, 90, 2, 1.04664
61, 2, bw, attraction, a-b-da, 14, 2, 7, 17, 153, 83, 90, 165, 165, 90, 1, 0.419644
61, 2, bw, catch, NA, 999, 999, 7, 18, 75, 120, 104, 151, 136, 179, 3, 1.29683
61, 2, bw, catch, NA, 999, 999, 7, 18, 75, 120, 104, 151, 136, 179, 1, 0.555727
61, 2, bw, attraction, a-b-da, 2, 3, 7, 19, 195, 120, 193, 119, 120, 195, 3, 1.50755
61, 2, bw, attraction, a-b-da, 2, 3, 7, 19, 195, 120, 193, 119, 120, 195, 2, 0.589706
61, 2, bw, filler, NA, 999, 999, 7, 20, 92, 59, 178, 107, 80, 118, 2, 1.17946
61, 2, bw, filler, NA, 999, 999, 7, 20, 92, 59, 178, 107, 80, 118, 1, 0.547022
61, 2, bw, attraction, a-b-da, 14, 3, 7, 21, 120, 195, 195, 120, 181, 111, 1, 1.85083
61, 2, bw, attraction, a-b-da, 14, 3, 7, 21, 120, 195, 195, 120, 181, 111, 3, 0.663526
61, 2, bw, attraction, a-b-da, 9, 1, 7, 22, 135, 60, 129, 57, 60, 135, 3, 1.6587
61, 2, bw, attraction, a-b-da, 9, 1, 7, 22, 135, 60, 129, 57, 60, 135, 2, 0.3507
61, 2, bw, attraction, a-b-da, 5, 1, 7, 23, 135, 60, 132, 58, 60, 135, 3, 1.51853
61, 2, bw, attraction, a-b-da, 5, 1, 7, 23, 135, 60, 132, 58, 60, 135, 2, 0.640637
61, 2, bw, filler, NA, 999, 999, 7, 24, 81, 131, 173, 109, 179, 142, 3, 1.99645
61, 2, bw, filler, NA, 999, 999, 7, 24, 81, 131, 173, 109, 179, 142, 1, 0.419107
61, 2, bw, filler, NA, 999, 999, 7, 25, 131, 143, 126, 153, 67, 76, 2, 1.99231
61, 2, bw, filler, NA, 999, 999, 7, 25, 131, 143, 126, 153, 67, 76, 3, 0.382959
61, 2, bw, filler, NA, 999, 999, 7, 26, 90, 90, 157, 71, 131, 115, 3, 2.99745
61, 2, bw, filler, NA, 999, 999, 7, 26, 90, 90, 157, 71, 131, 115, 1, 0.715806
61, 2, bw, attraction, a-b-db, 9, 2, 7, 27, 165, 90, 86, 157, 90, 165, 1, 3.10092
61, 2, bw, attraction, a-b-db, 9, 2, 7, 27, 165, 90, 86, 157, 90, 165, 2, 0.591353
61, 2, bw, filler, NA, 999, 999, 7, 28, 152, 166, 164, 126, 74, 130, 1, 1.52497
61, 2, bw, filler, NA, 999, 999, 7, 28, 152, 166, 164, 126, 74, 130, 3, 0.57449
61, 2, bw, attraction, a-b-da, 5, 2, 7, 29, 165, 90, 161, 88, 90, 165, 3, 1.78088
61, 2, bw, attraction, a-b-da, 5, 2, 7, 29, 165, 90, 161, 88, 90, 165, 2, 0.620235
61, 2, bw, attraction, a-b-db, 14, 3, 7, 30, 120, 195, 111, 181, 195, 120, 1, 3.44134
61, 2, bw, attraction, a-b-db, 14, 3, 7, 30, 120, 195, 111, 181, 195, 120, 2, 0.837664
61, 2, bw, attraction, a-b-db, 2, 1, 7, 31, 135, 60, 60, 135, 59, 134, 2, 3.04196
61, 2, bw, attraction, a-b-db, 2, 1, 7, 31, 135, 60, 60, 135, 59, 134, 3, 0.382417
61, 2, bw, attraction, a-b-db, 9, 1, 7, 32, 60, 135, 135, 60, 57, 129, 2, 3.70884
61, 2, bw, attraction, a-b-db, 9, 1, 7, 32, 60, 135, 135, 60, 57, 129, 3, 1.1743
61, 2, bw, filler, NA, 999, 999, 7, 33, 61, 137, 116, 166, 87, 156, 2, 1.50849
61, 2, bw, filler, NA, 999, 999, 7, 33, 61, 137, 116, 166, 87, 156, 1, 0.414625
61, 2, bw, attraction, a-b-db, 5, 2, 7, 34, 165, 90, 88, 161, 90, 165, 3, 1.67583
61, 2, bw, attraction, a-b-db, 5, 2, 7, 34, 165, 90, 88, 161, 90, 165, 2, 0.951272
61, 2, bw, attraction, a-b-db, 14, 2, 7, 35, 90, 165, 83, 153, 165, 90, 1, 1.84695
61, 2, bw, attraction, a-b-db, 14, 2, 7, 35, 90, 165, 83, 153, 165, 90, 3, 0.627767
61, 2, bw, attraction, a-b-da, 9, 2, 7, 36, 157, 86, 165, 90, 90, 165, 3, 2.9841
61, 2, bw, attraction, a-b-da, 9, 2, 7, 36, 157, 86, 165, 90, 90, 165, 2, 0.639146
61, 2, bw, attraction, a-b-db, 9, 3, 7, 37, 114, 186, 120, 195, 195, 120, 2, 2.23561
61, 2, bw, attraction, a-b-db, 9, 3, 7, 37, 114, 186, 120, 195, 195, 120, 3, 1.3609
61, 2, bw, attraction, a-b-db, 5, 1, 8, 1, 58, 132, 60, 135, 135, 60, 2, 2.0876
61, 2, bw, attraction, a-b-db, 5, 1, 8, 1, 58, 132, 60, 135, 135, 60, 1, 1.28229
61, 2, bw, filler, NA, 999, 999, 8, 2, 121, 112, 185, 93, 140, 173, 3, 1.74045
61, 2, bw, filler, NA, 999, 999, 8, 2, 121, 112, 185, 93, 140, 173, 1, 0.381205
61, 2, bw, attraction, a-b-db, 14, 2, 8, 3, 83, 153, 90, 165, 165, 90, 3, 2.23574
61, 2, bw, attraction, a-b-db, 14, 2, 8, 3, 83, 153, 90, 165, 165, 90, 1, 0.473021
61, 2, bw, filler, NA, 999, 999, 8, 4, 176, 119, 195, 137, 90, 149, 2, 1.66754
61, 2, bw, filler, NA, 999, 999, 8, 4, 176, 119, 195, 137, 90, 149, 3, 0.407601
61, 2, bw, attraction, a-b-da, 14, 1, 8, 5, 135, 60, 125, 56, 60, 135, 3, 1.42879
61, 2, bw, attraction, a-b-da, 14, 1, 8, 5, 135, 60, 125, 56, 60, 135, 2, 0.514363
61, 2, bw, filler, NA, 999, 999, 8, 6, 178, 177, 171, 91, 179, 154, 1, 3.11539
61, 2, bw, filler, NA, 999, 999, 8, 6, 178, 177, 171, 91, 179, 154, 2, 0.557063
61, 2, bw, attraction, a-b-da, 2, 3, 8, 7, 195, 120, 120, 195, 193, 119, 2, 1.41218
61, 2, bw, attraction, a-b-da, 2, 3, 8, 7, 195, 120, 120, 195, 193, 119, 3, 0.650425
61, 2, bw, attraction, a-b-db, 9, 3, 8, 8, 120, 195, 114, 186, 195, 120, 1, 2.39009
61, 2, bw, attraction, a-b-db, 9, 3, 8, 8, 120, 195, 114, 186, 195, 120, 2, 0.500687
61, 2, bw, catch, NA, 999, 999, 8, 9, 157, 158, 147, 108, 130, 65, 1, 0.974499
61, 2, bw, catch, NA, 999, 999, 8, 9, 157, 158, 147, 108, 130, 65, 3, 0.478149
61, 2, bw, attraction, a-b-da, 2, 1, 8, 10, 134, 59, 135, 60, 60, 135, 3, 4.19269
61, 2, bw, attraction, a-b-da, 2, 1, 8, 10, 134, 59, 135, 60, 60, 135, 2, 0.430571
61, 2, bw, attraction, a-b-da, 5, 2, 8, 11, 161, 88, 90, 165, 165, 90, 2, 3.29903
61, 2, bw, attraction, a-b-da, 5, 2, 8, 11, 161, 88, 90, 165, 165, 90, 1, 0.365304
61, 2, bw, attraction, a-b-db, 5, 2, 8, 12, 90, 165, 165, 90, 88, 161, 1, 1.65253
61, 2, bw, attraction, a-b-db, 5, 2, 8, 12, 90, 165, 165, 90, 88, 161, 2, 0.385356
61, 2, bw, attraction, a-b-da, 14, 2, 8, 13, 90, 165, 165, 90, 153, 83, 2, 2.21573
61, 2, bw, attraction, a-b-da, 14, 2, 8, 13, 90, 165, 165, 90, 153, 83, 3, 0.413685
61, 2, bw, catch, NA, 999, 999, 8, 14, 62, 133, 192, 123, 117, 138, 2, 1.37092
61, 2, bw, catch, NA, 999, 999, 8, 14, 62, 133, 192, 123, 117, 138, 1, 0.330378
61, 2, bw, attraction, a-b-da, 14, 3, 8, 15, 181, 111, 195, 120, 120, 195, 3, 1.16299
61, 2, bw, attraction, a-b-da, 14, 3, 8, 15, 181, 111, 195, 120, 120, 195, 1, 0.547249
61, 2, bw, filler, NA, 999, 999, 8, 16, 135, 193, 168, 141, 160, 185, 3, 2.81897
61, 2, bw, filler, NA, 999, 999, 8, 16, 135, 193, 168, 141, 160, 185, 2, 0.464712
61, 2, bw, attraction, a-b-db, 2, 1, 8, 17, 59, 134, 60, 135, 135, 60, 3, 3.01188
61, 2, bw, attraction, a-b-db, 2, 1, 8, 17, 59, 134, 60, 135, 135, 60, 2, 0.681489
61, 2, bw, attraction, a-b-db, 9, 2, 8, 18, 90, 165, 86, 157, 165, 90, 1, 2.12394
61, 2, bw, attraction, a-b-db, 9, 2, 8, 18, 90, 165, 86, 157, 165, 90, 3, 0.709281
61, 2, bw, filler, NA, 999, 999, 8, 19, 160, 191, 189, 128, 179, 112, 1, 1.60628
61, 2, bw, filler, NA, 999, 999, 8, 19, 160, 191, 189, 128, 179, 112, 3, 0.548394
61, 2, bw, attraction, a-b-db, 9, 1, 8, 20, 57, 129, 135, 60, 60, 135, 3, 1.95625
61, 2, bw, attraction, a-b-db, 9, 1, 8, 20, 57, 129, 135, 60, 60, 135, 2, 0.436213
61, 2, bw, attraction, a-b-db, 14, 3, 8, 21, 195, 120, 111, 181, 120, 195, 1, 2.02476
61, 2, bw, attraction, a-b-db, 14, 3, 8, 21, 195, 120, 111, 181, 120, 195, 2, 0.86205
61, 2, bw, filler, NA, 999, 999, 8, 22, 136, 113, 195, 155, 67, 90, 2, 1.64903
61, 2, bw, filler, NA, 999, 999, 8, 22, 136, 113, 195, 155, 67, 90, 3, 0.613829
61, 2, bw, filler, NA, 999, 999, 8, 23, 123, 134, 118, 100, 182, 75, 3, 3.78694
61, 2, bw, filler, NA, 999, 999, 8, 23, 123, 134, 118, 100, 182, 75, 2, 0.417629
61, 2, bw, catch, NA, 999, 999, 8, 24, 82, 113, 135, 180, 97, 158, 2, 1.00695
61, 2, bw, catch, NA, 999, 999, 8, 24, 82, 113, 135, 180, 97, 158, 1, 0.373145
61, 2, bw, attraction, a-b-db, 2, 3, 8, 25, 119, 193, 120, 195, 195, 120, 2, 2.69966
61, 2, bw, attraction, a-b-db, 2, 3, 8, 25, 119, 193, 120, 195, 195, 120, 3, 1.24608
61, 2, bw, attraction, a-b-db, 14, 1, 8, 26, 60, 135, 56, 125, 135, 60, 3, 2.92972
61, 2, bw, attraction, a-b-db, 14, 1, 8, 26, 60, 135, 56, 125, 135, 60, 1, 0.554721
61, 2, bw, attraction, a-b-da, 9, 1, 8, 27, 135, 60, 129, 57, 60, 135, 3, 2.42649
61, 2, bw, attraction, a-b-da, 9, 1, 8, 27, 135, 60, 129, 57, 60, 135, 2, 0.455738
61, 2, bw, filler, NA, 999, 999, 8, 28, 187, 164, 183, 124, 176, 193, 1, 2.33951
61, 2, bw, filler, NA, 999, 999, 8, 28, 187, 164, 183, 124, 176, 193, 2, 0.436146
61, 2, bw, filler, NA, 999, 999, 8, 29, 124, 151, 171, 154, 78, 101, 3, 1.36851
61, 2, bw, filler, NA, 999, 999, 8, 29, 124, 151, 171, 154, 78, 101, 1, 5.80901
61, 2, bw, attraction, a-b-da, 5, 1, 8, 30, 135, 60, 60, 135, 132, 58, 2, 3.65223
61, 2, bw, attraction, a-b-da, 5, 1, 8, 30, 135, 60, 60, 135, 132, 58, 1, 1.06442
61, 2, bw, attraction, a-b-da, 9, 2, 8, 31, 90, 165, 157, 86, 165, 90, 1, 2.19535
61, 2, bw, attraction, a-b-da, 9, 2, 8, 31, 90, 165, 157, 86, 165, 90, 2, 1.26591
61, 2, bw, attraction, a-b-da, 5, 3, 8, 32, 120, 195, 195, 120, 190, 117, 1, 2.30083
61, 2, bw, attraction, a-b-da, 5, 3, 8, 32, 120, 195, 195, 120, 190, 117, 3, 0.607484
61, 2, bw, attraction, a-b-da, 9, 3, 8, 33, 195, 120, 120, 195, 186, 114, 2, 1.63655
61, 2, bw, attraction, a-b-da, 9, 3, 8, 33, 195, 120, 120, 195, 186, 114, 3, 0.370094
61, 2, bw, filler, NA, 999, 999, 8, 34, 79, 164, 190, 146, 148, 131, 2, 1.78526
61, 2, bw, filler, NA, 999, 999, 8, 34, 79, 164, 190, 146, 148, 131, 1, 0.752549
61, 2, bw, attraction, a-b-db, 2, 2, 8, 35, 165, 90, 89, 163, 90, 165, 2, 2.16832
61, 2, bw, attraction, a-b-db, 2, 2, 8, 35, 165, 90, 89, 163, 90, 165, 1, 0.472236
61, 2, bw, attraction, a-b-db, 5, 3, 8, 36, 117, 190, 195, 120, 120, 195, 3, 1.5155
61, 2, bw, attraction, a-b-db, 5, 3, 8, 36, 117, 190, 195, 120, 120, 195, 1, 0.917518
61, 2, bw, attraction, a-b-da, 2, 2, 8, 37, 90, 165, 165, 90, 163, 89, 1, 1.68656
61, 2, bw, attraction, a-b-da, 2, 2, 8, 37, 90, 165, 165, 90, 163, 89, 3, 0.434005
