sub_n, computer_n, bw_cond, effect, set, distance, diag, block_n, trial_n, h1, w1, h2, w2, h3, w3, choice, rt 
72, 2, wb, practice, NA, 999, 999, 0, 1, 185, 82, 66, 158, 125, 125, 2, 15.3006
72, 2, wb, practice, NA, 999, 999, 0, 1, 185, 82, 66, 158, 125, 125, 1, 13.8679
72, 2, wb, practice, NA, 999, 999, 0, 2, 126, 172, 184, 84, 112, 110, 3, 14.3748
72, 2, wb, practice, NA, 999, 999, 0, 2, 126, 172, 184, 84, 112, 110, 1, 1.89956
72, 2, wb, practice, NA, 999, 999, 0, 3, 157, 132, 141, 135, 173, 194, 1, 5.39296
72, 2, wb, practice, NA, 999, 999, 0, 3, 157, 132, 141, 135, 173, 194, 3, 1.44939
72, 2, wb, attraction, a-b-da, 2, 1, 1, 1, 134, 59, 60, 135, 135, 60, 1, 3.66443
72, 2, wb, attraction, a-b-da, 2, 1, 1, 1, 134, 59, 60, 135, 135, 60, 3, 4.01996
72, 2, wb, attraction, a-b-db, 14, 2, 1, 2, 83, 153, 90, 165, 165, 90, 1, 7.848
72, 2, wb, attraction, a-b-db, 14, 2, 1, 2, 83, 153, 90, 165, 165, 90, 2, 2.17883
72, 2, wb, catch, NA, 999, 999, 1, 3, 84, 111, 157, 158, 113, 142, 1, 2.33667
72, 2, wb, catch, NA, 999, 999, 1, 3, 84, 111, 157, 158, 113, 142, 2, 1.55397
72, 2, wb, catch, NA, 999, 999, 1, 4, 93, 102, 124, 131, 181, 134, 1, 2.02538
72, 2, wb, catch, NA, 999, 999, 1, 4, 93, 102, 124, 131, 181, 134, 3, 1.98291
72, 2, wb, filler, NA, 999, 999, 1, 5, 99, 137, 149, 115, 132, 127, 1, 4.96477
72, 2, wb, filler, NA, 999, 999, 1, 5, 99, 137, 149, 115, 132, 127, 2, 3.69192
72, 2, wb, attraction, a-b-da, 5, 3, 1, 6, 120, 195, 190, 117, 195, 120, 3, 3.62079
72, 2, wb, attraction, a-b-da, 5, 3, 1, 6, 120, 195, 190, 117, 195, 120, 1, 1.07417
72, 2, wb, attraction, a-b-da, 2, 3, 1, 7, 195, 120, 193, 119, 120, 195, 3, 6.37243
72, 2, wb, attraction, a-b-da, 2, 3, 1, 7, 195, 120, 193, 119, 120, 195, 2, 1.60239
72, 2, wb, filler, NA, 999, 999, 1, 8, 155, 114, 119, 125, 83, 84, 3, 1.7278
72, 2, wb, filler, NA, 999, 999, 1, 8, 155, 114, 119, 125, 83, 84, 2, 1.36122
72, 2, wb, attraction, a-b-da, 5, 2, 1, 9, 161, 88, 90, 165, 165, 90, 1, 3.44008
72, 2, wb, attraction, a-b-da, 5, 2, 1, 9, 161, 88, 90, 165, 165, 90, 2, 1.20432
72, 2, wb, filler, NA, 999, 999, 1, 10, 71, 79, 59, 132, 62, 88, 1, 1.48988
72, 2, wb, filler, NA, 999, 999, 1, 10, 71, 79, 59, 132, 62, 88, 2, 2.16482
72, 2, wb, attraction, a-b-da, 5, 1, 1, 11, 135, 60, 132, 58, 60, 135, 3, 4.54733
72, 2, wb, attraction, a-b-da, 5, 1, 1, 11, 135, 60, 132, 58, 60, 135, 2, 1.60322
72, 2, wb, filler, NA, 999, 999, 1, 12, 62, 154, 171, 189, 122, 60, 3, 3.03269
72, 2, wb, filler, NA, 999, 999, 1, 12, 62, 154, 171, 189, 122, 60, 2, 1.15764
72, 2, wb, attraction, a-b-da, 9, 2, 1, 13, 165, 90, 157, 86, 90, 165, 2, 4.26065
72, 2, wb, attraction, a-b-da, 9, 2, 1, 13, 165, 90, 157, 86, 90, 165, 3, 2.35198
72, 2, wb, attraction, a-b-da, 9, 3, 1, 14, 186, 114, 120, 195, 195, 120, 1, 2.14314
72, 2, wb, attraction, a-b-da, 9, 3, 1, 14, 186, 114, 120, 195, 195, 120, 2, 1.11178
72, 2, wb, filler, NA, 999, 999, 1, 15, 123, 61, 97, 60, 135, 170, 2, 2.0406
72, 2, wb, filler, NA, 999, 999, 1, 15, 123, 61, 97, 60, 135, 170, 3, 0.69332
72, 2, wb, attraction, a-b-db, 5, 1, 1, 16, 135, 60, 58, 132, 60, 135, 3, 3.45512
72, 2, wb, attraction, a-b-db, 5, 1, 1, 16, 135, 60, 58, 132, 60, 135, 2, 0.89062
72, 2, wb, attraction, a-b-db, 9, 1, 1, 17, 135, 60, 57, 129, 60, 135, 1, 2.78829
72, 2, wb, attraction, a-b-db, 9, 1, 1, 17, 135, 60, 57, 129, 60, 135, 2, 1.11474
72, 2, wb, attraction, a-b-db, 9, 2, 1, 18, 86, 157, 90, 165, 165, 90, 1, 3.61965
72, 2, wb, attraction, a-b-db, 9, 2, 1, 18, 86, 157, 90, 165, 165, 90, 2, 1.05719
72, 2, wb, attraction, a-b-da, 14, 1, 1, 19, 135, 60, 125, 56, 60, 135, 2, 2.70011
72, 2, wb, attraction, a-b-da, 14, 1, 1, 19, 135, 60, 125, 56, 60, 135, 3, 3.1746
72, 2, wb, attraction, a-b-db, 2, 1, 1, 20, 60, 135, 135, 60, 59, 134, 1, 3.18809
72, 2, wb, attraction, a-b-db, 2, 1, 1, 20, 60, 135, 135, 60, 59, 134, 2, 0.770405
72, 2, wb, attraction, a-b-db, 5, 3, 1, 21, 195, 120, 117, 190, 120, 195, 1, 3.46561
72, 2, wb, attraction, a-b-db, 5, 3, 1, 21, 195, 120, 117, 190, 120, 195, 2, 1.43719
72, 2, wb, catch, NA, 999, 999, 1, 22, 158, 97, 194, 121, 109, 86, 3, 3.70526
72, 2, wb, catch, NA, 999, 999, 1, 22, 158, 97, 194, 121, 109, 86, 2, 2.71477
72, 2, wb, attraction, a-b-da, 14, 2, 1, 23, 153, 83, 165, 90, 90, 165, 1, 2.50707
72, 2, wb, attraction, a-b-da, 14, 2, 1, 23, 153, 83, 165, 90, 90, 165, 3, 1.40512
72, 2, wb, attraction, a-b-da, 9, 1, 1, 24, 60, 135, 135, 60, 129, 57, 1, 2.8185
72, 2, wb, attraction, a-b-da, 9, 1, 1, 24, 60, 135, 135, 60, 129, 57, 2, 1.10432
72, 2, wb, attraction, a-b-da, 14, 3, 1, 25, 120, 195, 195, 120, 181, 111, 3, 3.11386
72, 2, wb, attraction, a-b-da, 14, 3, 1, 25, 120, 195, 195, 120, 181, 111, 2, 0.97154
72, 2, wb, attraction, a-b-db, 2, 2, 1, 26, 89, 163, 90, 165, 165, 90, 1, 9.73865
72, 2, wb, attraction, a-b-db, 2, 2, 1, 26, 89, 163, 90, 165, 165, 90, 2, 1.46541
72, 2, wb, filler, NA, 999, 999, 1, 27, 157, 110, 83, 144, 186, 59, 3, 7.83625
72, 2, wb, filler, NA, 999, 999, 1, 27, 157, 110, 83, 144, 186, 59, 1, 1.30378
72, 2, wb, attraction, a-b-db, 2, 3, 1, 28, 120, 195, 119, 193, 195, 120, 1, 2.51334
72, 2, wb, attraction, a-b-db, 2, 3, 1, 28, 120, 195, 119, 193, 195, 120, 3, 2.05921
72, 2, wb, filler, NA, 999, 999, 1, 29, 67, 174, 124, 115, 57, 58, 3, 1.38979
72, 2, wb, filler, NA, 999, 999, 1, 29, 67, 174, 124, 115, 57, 58, 2, 1.38873
72, 2, wb, filler, NA, 999, 999, 1, 30, 109, 88, 74, 164, 70, 159, 1, 4.93885
72, 2, wb, filler, NA, 999, 999, 1, 30, 109, 88, 74, 164, 70, 159, 2, 1.78659
72, 2, wb, filler, NA, 999, 999, 1, 31, 57, 176, 141, 66, 125, 170, 1, 4.32862
72, 2, wb, filler, NA, 999, 999, 1, 31, 57, 176, 141, 66, 125, 170, 3, 1.29732
72, 2, wb, attraction, a-b-da, 2, 2, 1, 32, 90, 165, 165, 90, 163, 89, 1, 3.0269
72, 2, wb, attraction, a-b-da, 2, 2, 1, 32, 90, 165, 165, 90, 163, 89, 2, 0.767859
72, 2, wb, attraction, a-b-db, 14, 3, 1, 33, 111, 181, 120, 195, 195, 120, 1, 2.72691
72, 2, wb, attraction, a-b-db, 14, 3, 1, 33, 111, 181, 120, 195, 195, 120, 2, 2.70408
72, 2, wb, attraction, a-b-db, 5, 2, 1, 34, 88, 161, 165, 90, 90, 165, 2, 4.33708
72, 2, wb, attraction, a-b-db, 5, 2, 1, 34, 88, 161, 165, 90, 90, 165, 3, 1.83374
72, 2, wb, filler, NA, 999, 999, 1, 35, 157, 102, 107, 145, 62, 115, 3, 1.42975
72, 2, wb, filler, NA, 999, 999, 1, 35, 157, 102, 107, 145, 62, 115, 2, 3.33139
72, 2, wb, attraction, a-b-db, 9, 3, 1, 36, 120, 195, 195, 120, 114, 186, 3, 5.94684
72, 2, wb, attraction, a-b-db, 9, 3, 1, 36, 120, 195, 195, 120, 114, 186, 1, 0.730232
72, 2, wb, attraction, a-b-db, 14, 1, 1, 37, 135, 60, 56, 125, 60, 135, 2, 2.30665
72, 2, wb, attraction, a-b-db, 14, 1, 1, 37, 135, 60, 56, 125, 60, 135, 1, 1.20453
72, 2, wb, attraction, a-b-da, 2, 1, 2, 1, 134, 59, 135, 60, 60, 135, 2, 5.09812
72, 2, wb, attraction, a-b-da, 2, 1, 2, 1, 134, 59, 135, 60, 60, 135, 3, 1.08395
72, 2, wb, attraction, a-b-da, 9, 1, 2, 2, 135, 60, 60, 135, 129, 57, 3, 5.88613
72, 2, wb, attraction, a-b-da, 9, 1, 2, 2, 135, 60, 60, 135, 129, 57, 1, 1.98419
72, 2, wb, attraction, a-b-db, 5, 2, 2, 3, 165, 90, 90, 165, 88, 161, 3, 5.22225
72, 2, wb, attraction, a-b-db, 5, 2, 2, 3, 165, 90, 90, 165, 88, 161, 2, 0.762606
72, 2, wb, filler, NA, 999, 999, 2, 4, 174, 92, 104, 63, 111, 99, 2, 1.58567
72, 2, wb, filler, NA, 999, 999, 2, 4, 174, 92, 104, 63, 111, 99, 1, 1.02517
72, 2, wb, attraction, a-b-db, 9, 1, 2, 5, 60, 135, 57, 129, 135, 60, 2, 5.0054
72, 2, wb, attraction, a-b-db, 9, 1, 2, 5, 60, 135, 57, 129, 135, 60, 3, 3.63529
72, 2, wb, attraction, a-b-db, 14, 2, 2, 6, 90, 165, 165, 90, 83, 153, 3, 21.6866
72, 2, wb, attraction, a-b-db, 14, 2, 2, 6, 90, 165, 165, 90, 83, 153, 1, 1.04383
72, 2, wb, attraction, a-b-db, 5, 3, 2, 7, 120, 195, 195, 120, 117, 190, 2, 5.51152
72, 2, wb, attraction, a-b-db, 5, 3, 2, 7, 120, 195, 195, 120, 117, 190, 1, 0.704294
72, 2, wb, filler, NA, 999, 999, 2, 8, 103, 188, 154, 164, 138, 86, 3, 1.50602
72, 2, wb, filler, NA, 999, 999, 2, 8, 103, 188, 154, 164, 138, 86, 2, 0.812312
72, 2, wb, attraction, a-b-da, 2, 2, 2, 9, 165, 90, 90, 165, 163, 89, 3, 7.8813
72, 2, wb, attraction, a-b-da, 2, 2, 2, 9, 165, 90, 90, 165, 163, 89, 1, 1.01878
72, 2, wb, filler, NA, 999, 999, 2, 10, 151, 130, 74, 99, 122, 74, 2, 4.88782
72, 2, wb, filler, NA, 999, 999, 2, 10, 151, 130, 74, 99, 122, 74, 1, 0.562079
72, 2, wb, attraction, a-b-db, 2, 1, 2, 11, 59, 134, 135, 60, 60, 135, 3, 5.00133
72, 2, wb, attraction, a-b-db, 2, 1, 2, 11, 59, 134, 135, 60, 60, 135, 1, 0.791014
72, 2, wb, attraction, a-b-db, 9, 2, 2, 12, 90, 165, 165, 90, 86, 157, 3, 1.83662
72, 2, wb, attraction, a-b-db, 9, 2, 2, 12, 90, 165, 165, 90, 86, 157, 1, 0.938139
72, 2, wb, attraction, a-b-db, 5, 1, 2, 13, 58, 132, 60, 135, 135, 60, 1, 1.86644
72, 2, wb, attraction, a-b-db, 5, 1, 2, 13, 58, 132, 60, 135, 135, 60, 2, 1.51054
72, 2, wb, filler, NA, 999, 999, 2, 14, 144, 150, 61, 66, 88, 142, 2, 1.03937
72, 2, wb, filler, NA, 999, 999, 2, 14, 144, 150, 61, 66, 88, 142, 1, 0.588329
72, 2, wb, catch, NA, 999, 999, 2, 15, 145, 110, 147, 168, 129, 66, 3, 2.09867
72, 2, wb, catch, NA, 999, 999, 2, 15, 145, 110, 147, 168, 129, 66, 2, 0.389393
72, 2, wb, catch, NA, 999, 999, 2, 16, 123, 72, 165, 150, 96, 159, 1, 1.69114
72, 2, wb, catch, NA, 999, 999, 2, 16, 123, 72, 165, 150, 96, 159, 2, 0.766039
72, 2, wb, filler, NA, 999, 999, 2, 17, 75, 119, 129, 59, 60, 192, 2, 4.32501
72, 2, wb, filler, NA, 999, 999, 2, 17, 75, 119, 129, 59, 60, 192, 3, 0.509617
72, 2, wb, attraction, a-b-db, 2, 2, 2, 18, 165, 90, 90, 165, 89, 163, 1, 5.27068
72, 2, wb, attraction, a-b-db, 2, 2, 2, 18, 165, 90, 90, 165, 89, 163, 2, 0.873753
72, 2, wb, attraction, a-b-da, 5, 3, 2, 19, 195, 120, 190, 117, 120, 195, 2, 4.30811
72, 2, wb, attraction, a-b-da, 5, 3, 2, 19, 195, 120, 190, 117, 120, 195, 3, 3.09336
72, 2, wb, attraction, a-b-db, 2, 3, 2, 20, 195, 120, 120, 195, 119, 193, 3, 12.9904
72, 2, wb, attraction, a-b-db, 2, 3, 2, 20, 195, 120, 120, 195, 119, 193, 2, 0.930196
72, 2, wb, attraction, a-b-da, 5, 1, 2, 21, 132, 58, 135, 60, 60, 135, 1, 2.34664
72, 2, wb, attraction, a-b-da, 5, 1, 2, 21, 132, 58, 135, 60, 60, 135, 2, 2.1311
72, 2, wb, attraction, a-b-da, 14, 3, 2, 22, 181, 111, 195, 120, 120, 195, 1, 4.45906
72, 2, wb, attraction, a-b-da, 14, 3, 2, 22, 181, 111, 195, 120, 120, 195, 2, 0.670356
72, 2, wb, attraction, a-b-db, 9, 3, 2, 23, 114, 186, 120, 195, 195, 120, 1, 4.44138
72, 2, wb, attraction, a-b-db, 9, 3, 2, 23, 114, 186, 120, 195, 195, 120, 2, 1.14926
72, 2, wb, attraction, a-b-da, 9, 3, 2, 24, 186, 114, 195, 120, 120, 195, 1, 1.26079
72, 2, wb, attraction, a-b-da, 9, 3, 2, 24, 186, 114, 195, 120, 120, 195, 2, 0.769047
72, 2, wb, attraction, a-b-da, 5, 2, 2, 25, 90, 165, 165, 90, 161, 88, 1, 2.20827
72, 2, wb, attraction, a-b-da, 5, 2, 2, 25, 90, 165, 165, 90, 161, 88, 2, 2.03015
72, 2, wb, attraction, a-b-db, 14, 1, 2, 26, 135, 60, 56, 125, 60, 135, 2, 3.21006
72, 2, wb, attraction, a-b-db, 14, 1, 2, 26, 135, 60, 56, 125, 60, 135, 1, 1.74371
72, 2, wb, attraction, a-b-db, 14, 3, 2, 27, 120, 195, 111, 181, 195, 120, 3, 3.43118
72, 2, wb, attraction, a-b-db, 14, 3, 2, 27, 120, 195, 111, 181, 195, 120, 1, 3.62806
72, 2, wb, filler, NA, 999, 999, 2, 28, 133, 98, 85, 96, 98, 170, 2, 1.95945
72, 2, wb, filler, NA, 999, 999, 2, 28, 133, 98, 85, 96, 98, 170, 3, 4.4236
72, 2, wb, filler, NA, 999, 999, 2, 29, 102, 182, 80, 159, 83, 169, 2, 2.5955
72, 2, wb, filler, NA, 999, 999, 2, 29, 102, 182, 80, 159, 83, 169, 1, 0.794045
72, 2, wb, filler, NA, 999, 999, 2, 30, 140, 96, 149, 136, 174, 164, 1, 1.75961
72, 2, wb, filler, NA, 999, 999, 2, 30, 140, 96, 149, 136, 174, 164, 3, 0.375699
72, 2, wb, catch, NA, 999, 999, 2, 31, 70, 125, 122, 193, 148, 107, 1, 1.30222
72, 2, wb, catch, NA, 999, 999, 2, 31, 70, 125, 122, 193, 148, 107, 2, 0.897047
72, 2, wb, attraction, a-b-da, 14, 1, 2, 32, 125, 56, 60, 135, 135, 60, 1, 3.85075
72, 2, wb, attraction, a-b-da, 14, 1, 2, 32, 125, 56, 60, 135, 135, 60, 2, 1.7108
72, 2, wb, attraction, a-b-da, 14, 2, 2, 33, 165, 90, 153, 83, 90, 165, 3, 1.20766
72, 2, wb, attraction, a-b-da, 14, 2, 2, 33, 165, 90, 153, 83, 90, 165, 1, 2.34984
72, 2, wb, attraction, a-b-da, 9, 2, 2, 34, 90, 165, 157, 86, 165, 90, 2, 3.41303
72, 2, wb, attraction, a-b-da, 9, 2, 2, 34, 90, 165, 157, 86, 165, 90, 1, 0.834683
72, 2, wb, filler, NA, 999, 999, 2, 35, 95, 185, 137, 73, 95, 100, 3, 1.96698
72, 2, wb, filler, NA, 999, 999, 2, 35, 95, 185, 137, 73, 95, 100, 1, 0.710953
72, 2, wb, filler, NA, 999, 999, 2, 36, 122, 182, 111, 86, 149, 70, 2, 1.1281
72, 2, wb, filler, NA, 999, 999, 2, 36, 122, 182, 111, 86, 149, 70, 1, 0.745705
72, 2, wb, attraction, a-b-da, 2, 3, 2, 37, 120, 195, 195, 120, 193, 119, 2, 5.1934
72, 2, wb, attraction, a-b-da, 2, 3, 2, 37, 120, 195, 195, 120, 193, 119, 3, 2.4711
72, 2, wb, filler, NA, 999, 999, 3, 1, 174, 153, 136, 104, 161, 123, 2, 3.36953
72, 2, wb, filler, NA, 999, 999, 3, 1, 174, 153, 136, 104, 161, 123, 1, 0.673164
72, 2, wb, filler, NA, 999, 999, 3, 2, 88, 127, 171, 163, 158, 133, 1, 1.17945
72, 2, wb, filler, NA, 999, 999, 3, 2, 88, 127, 171, 163, 158, 133, 2, 0.635245
72, 2, wb, filler, NA, 999, 999, 3, 3, 167, 57, 76, 61, 170, 96, 2, 1.05556
72, 2, wb, filler, NA, 999, 999, 3, 3, 167, 57, 76, 61, 170, 96, 3, 0.939859
72, 2, wb, attraction, a-b-db, 9, 3, 3, 4, 114, 186, 195, 120, 120, 195, 1, 12.3475
72, 2, wb, attraction, a-b-db, 9, 3, 3, 4, 114, 186, 195, 120, 120, 195, 2, 2.001
72, 2, wb, attraction, a-b-db, 5, 2, 3, 5, 165, 90, 90, 165, 88, 161, 3, 2.75823
72, 2, wb, attraction, a-b-db, 5, 2, 3, 5, 165, 90, 90, 165, 88, 161, 1, 0.814031
72, 2, wb, attraction, a-b-da, 5, 2, 3, 6, 90, 165, 165, 90, 161, 88, 2, 3.4911
72, 2, wb, attraction, a-b-da, 5, 2, 3, 6, 90, 165, 165, 90, 161, 88, 1, 1.68532
72, 2, wb, attraction, a-b-db, 14, 2, 3, 7, 83, 153, 165, 90, 90, 165, 1, 1.31949
72, 2, wb, attraction, a-b-db, 14, 2, 3, 7, 83, 153, 165, 90, 90, 165, 3, 0.777563
72, 2, wb, attraction, a-b-da, 9, 1, 3, 8, 135, 60, 60, 135, 129, 57, 3, 4.35998
72, 2, wb, attraction, a-b-da, 9, 1, 3, 8, 135, 60, 60, 135, 129, 57, 1, 2.10321
72, 2, wb, filler, NA, 999, 999, 3, 9, 81, 96, 178, 156, 155, 72, 1, 0.84052
72, 2, wb, filler, NA, 999, 999, 3, 9, 81, 96, 178, 156, 155, 72, 2, 1.0617
72, 2, wb, attraction, a-b-da, 2, 3, 3, 10, 195, 120, 120, 195, 193, 119, 1, 4.01654
72, 2, wb, attraction, a-b-da, 2, 3, 3, 10, 195, 120, 120, 195, 193, 119, 2, 0.557908
72, 2, wb, filler, NA, 999, 999, 3, 11, 86, 94, 138, 166, 83, 149, 1, 1.99695
72, 2, wb, filler, NA, 999, 999, 3, 11, 86, 94, 138, 166, 83, 149, 2, 0.435639
72, 2, wb, filler, NA, 999, 999, 3, 12, 63, 139, 98, 112, 58, 74, 3, 1.00005
72, 2, wb, filler, NA, 999, 999, 3, 12, 63, 139, 98, 112, 58, 74, 1, 0.423093
72, 2, wb, attraction, a-b-db, 2, 3, 3, 13, 195, 120, 120, 195, 119, 193, 1, 7.29163
72, 2, wb, attraction, a-b-db, 2, 3, 3, 13, 195, 120, 120, 195, 119, 193, 2, 1.14065
72, 2, wb, attraction, a-b-da, 14, 3, 3, 14, 181, 111, 120, 195, 195, 120, 1, 4.07629
72, 2, wb, attraction, a-b-da, 14, 3, 3, 14, 181, 111, 120, 195, 195, 120, 3, 0.526956
72, 2, wb, attraction, a-b-db, 2, 2, 3, 15, 89, 163, 165, 90, 90, 165, 2, 2.93542
72, 2, wb, attraction, a-b-db, 2, 2, 3, 15, 89, 163, 165, 90, 90, 165, 1, 2.80862
72, 2, wb, catch, NA, 999, 999, 3, 16, 102, 93, 117, 138, 167, 148, 1, 1.47682
72, 2, wb, catch, NA, 999, 999, 3, 16, 102, 93, 117, 138, 167, 148, 3, 0.392307
72, 2, wb, attraction, a-b-da, 2, 1, 3, 17, 135, 60, 60, 135, 134, 59, 3, 2.25419
72, 2, wb, attraction, a-b-da, 2, 1, 3, 17, 135, 60, 60, 135, 134, 59, 2, 0.86605
72, 2, wb, attraction, a-b-da, 9, 2, 3, 18, 157, 86, 165, 90, 90, 165, 2, 8.32519
72, 2, wb, attraction, a-b-da, 9, 2, 3, 18, 157, 86, 165, 90, 90, 165, 1, 0.436402
72, 2, wb, filler, NA, 999, 999, 3, 19, 193, 113, 117, 134, 165, 67, 3, 4.93704
72, 2, wb, filler, NA, 999, 999, 3, 19, 193, 113, 117, 134, 165, 67, 1, 1.40136
72, 2, wb, attraction, a-b-db, 2, 1, 3, 20, 59, 134, 135, 60, 60, 135, 1, 4.35881
72, 2, wb, attraction, a-b-db, 2, 1, 3, 20, 59, 134, 135, 60, 60, 135, 2, 1.4862
72, 2, wb, attraction, a-b-da, 5, 1, 3, 21, 132, 58, 135, 60, 60, 135, 3, 6.3285
72, 2, wb, attraction, a-b-da, 5, 1, 3, 21, 132, 58, 135, 60, 60, 135, 1, 0.712258
72, 2, wb, attraction, a-b-db, 14, 3, 3, 22, 111, 181, 195, 120, 120, 195, 1, 8.21747
72, 2, wb, attraction, a-b-db, 14, 3, 3, 22, 111, 181, 195, 120, 120, 195, 2, 0.357468
72, 2, wb, catch, NA, 999, 999, 3, 23, 121, 134, 81, 114, 140, 175, 2, 1.50054
72, 2, wb, catch, NA, 999, 999, 3, 23, 121, 134, 81, 114, 140, 175, 3, 0.711455
72, 2, wb, filler, NA, 999, 999, 3, 24, 142, 164, 65, 113, 159, 59, 2, 2.3045
72, 2, wb, filler, NA, 999, 999, 3, 24, 142, 164, 65, 113, 159, 59, 1, 0.746343
72, 2, wb, attraction, a-b-da, 9, 3, 3, 25, 186, 114, 120, 195, 195, 120, 1, 2.22616
72, 2, wb, attraction, a-b-da, 9, 3, 3, 25, 186, 114, 120, 195, 195, 120, 2, 0.807317
72, 2, wb, filler, NA, 999, 999, 3, 26, 185, 195, 57, 190, 166, 91, 2, 1.58846
72, 2, wb, filler, NA, 999, 999, 3, 26, 185, 195, 57, 190, 166, 91, 1, 0.89123
72, 2, wb, attraction, a-b-db, 5, 3, 3, 27, 117, 190, 120, 195, 195, 120, 1, 1.8848
72, 2, wb, attraction, a-b-db, 5, 3, 3, 27, 117, 190, 120, 195, 195, 120, 2, 1.46418
72, 2, wb, attraction, a-b-da, 14, 1, 3, 28, 135, 60, 125, 56, 60, 135, 2, 1.93105
72, 2, wb, attraction, a-b-da, 14, 1, 3, 28, 135, 60, 125, 56, 60, 135, 1, 1.01236
72, 2, wb, attraction, a-b-db, 14, 1, 3, 29, 135, 60, 56, 125, 60, 135, 2, 1.31333
72, 2, wb, attraction, a-b-db, 14, 1, 3, 29, 135, 60, 56, 125, 60, 135, 1, 5.5397
72, 2, wb, attraction, a-b-da, 5, 3, 3, 30, 190, 117, 120, 195, 195, 120, 3, 3.53853
72, 2, wb, attraction, a-b-da, 5, 3, 3, 30, 190, 117, 120, 195, 195, 120, 1, 1.13078
72, 2, wb, attraction, a-b-da, 14, 2, 3, 31, 90, 165, 165, 90, 153, 83, 2, 12.131
72, 2, wb, attraction, a-b-da, 14, 2, 3, 31, 90, 165, 165, 90, 153, 83, 1, 0.777106
72, 2, wb, filler, NA, 999, 999, 3, 32, 189, 120, 180, 140, 84, 156, 3, 2.05559
72, 2, wb, filler, NA, 999, 999, 3, 32, 189, 120, 180, 140, 84, 156, 2, 0.923669
72, 2, wb, attraction, a-b-db, 9, 1, 3, 33, 57, 129, 135, 60, 60, 135, 1, 2.18797
72, 2, wb, attraction, a-b-db, 9, 1, 3, 33, 57, 129, 135, 60, 60, 135, 3, 0.650368
72, 2, wb, attraction, a-b-da, 2, 2, 3, 34, 163, 89, 90, 165, 165, 90, 1, 3.37418
72, 2, wb, attraction, a-b-da, 2, 2, 3, 34, 163, 89, 90, 165, 165, 90, 2, 1.30107
72, 2, wb, catch, NA, 999, 999, 3, 35, 192, 123, 123, 72, 106, 149, 2, 3.27863
72, 2, wb, catch, NA, 999, 999, 3, 35, 192, 123, 123, 72, 106, 149, 1, 0.609494
72, 2, wb, attraction, a-b-db, 5, 1, 3, 36, 58, 132, 135, 60, 60, 135, 3, 3.59065
72, 2, wb, attraction, a-b-db, 5, 1, 3, 36, 58, 132, 135, 60, 60, 135, 1, 1.47684
72, 2, wb, attraction, a-b-db, 9, 2, 3, 37, 86, 157, 90, 165, 165, 90, 1, 2.287
72, 2, wb, attraction, a-b-db, 9, 2, 3, 37, 86, 157, 90, 165, 165, 90, 2, 1.34556
72, 2, wb, filler, NA, 999, 999, 4, 1, 61, 124, 82, 101, 103, 109, 1, 4.25712
72, 2, wb, filler, NA, 999, 999, 4, 1, 61, 124, 82, 101, 103, 109, 3, 0.956374
72, 2, wb, attraction, a-b-db, 14, 2, 4, 2, 83, 153, 165, 90, 90, 165, 1, 5.51543
72, 2, wb, attraction, a-b-db, 14, 2, 4, 2, 83, 153, 165, 90, 90, 165, 3, 0.66829
72, 2, wb, attraction, a-b-db, 14, 3, 4, 3, 195, 120, 111, 181, 120, 195, 2, 13.2635
72, 2, wb, attraction, a-b-db, 14, 3, 4, 3, 195, 120, 111, 181, 120, 195, 1, 1.53595
72, 2, wb, attraction, a-b-da, 14, 1, 4, 4, 135, 60, 60, 135, 125, 56, 1, 3.64802
72, 2, wb, attraction, a-b-da, 14, 1, 4, 4, 135, 60, 60, 135, 125, 56, 2, 1.23626
72, 2, wb, attraction, a-b-db, 5, 3, 4, 5, 117, 190, 195, 120, 120, 195, 2, 45.8884
72, 2, wb, attraction, a-b-db, 5, 3, 4, 5, 117, 190, 195, 120, 120, 195, 3, 2.25396
72, 2, wb, attraction, a-b-da, 9, 2, 4, 6, 157, 86, 90, 165, 165, 90, 1, 6.71331
72, 2, wb, attraction, a-b-da, 9, 2, 4, 6, 157, 86, 90, 165, 165, 90, 2, 0.697779
72, 2, wb, catch, NA, 999, 999, 4, 7, 118, 77, 168, 147, 99, 156, 1, 3.55554
72, 2, wb, catch, NA, 999, 999, 4, 7, 118, 77, 168, 147, 99, 156, 2, 0.458989
72, 2, wb, filler, NA, 999, 999, 4, 8, 178, 94, 68, 108, 195, 77, 2, 3.03022
72, 2, wb, filler, NA, 999, 999, 4, 8, 178, 94, 68, 108, 195, 77, 1, 2.87523
72, 2, wb, attraction, a-b-da, 9, 1, 4, 9, 60, 135, 135, 60, 129, 57, 3, 4.75693
72, 2, wb, attraction, a-b-da, 9, 1, 4, 9, 60, 135, 135, 60, 129, 57, 1, 0.636058
72, 2, wb, filler, NA, 999, 999, 4, 10, 139, 70, 138, 143, 154, 72, 1, 3.46446
72, 2, wb, filler, NA, 999, 999, 4, 10, 139, 70, 138, 143, 154, 72, 2, 1.29206
72, 2, wb, attraction, a-b-da, 2, 1, 4, 11, 135, 60, 60, 135, 134, 59, 1, 2.1896
72, 2, wb, attraction, a-b-da, 2, 1, 4, 11, 135, 60, 60, 135, 134, 59, 3, 1.13221
72, 2, wb, attraction, a-b-db, 9, 2, 4, 12, 86, 157, 165, 90, 90, 165, 2, 4.46051
72, 2, wb, attraction, a-b-db, 9, 2, 4, 12, 86, 157, 165, 90, 90, 165, 3, 2.3756
72, 2, wb, attraction, a-b-db, 14, 1, 4, 13, 56, 125, 60, 135, 135, 60, 1, 5.26965
72, 2, wb, attraction, a-b-db, 14, 1, 4, 13, 56, 125, 60, 135, 135, 60, 2, 1.27253
72, 2, wb, attraction, a-b-da, 5, 3, 4, 14, 195, 120, 190, 117, 120, 195, 1, 2.13958
72, 2, wb, attraction, a-b-da, 5, 3, 4, 14, 195, 120, 190, 117, 120, 195, 2, 0.508096
72, 2, wb, attraction, a-b-db, 2, 3, 4, 15, 120, 195, 195, 120, 119, 193, 2, 2.97317
72, 2, wb, attraction, a-b-db, 2, 3, 4, 15, 120, 195, 195, 120, 119, 193, 1, 0.644179
72, 2, wb, attraction, a-b-da, 5, 1, 4, 16, 132, 58, 60, 135, 135, 60, 2, 1.5039
72, 2, wb, attraction, a-b-da, 5, 1, 4, 16, 132, 58, 60, 135, 135, 60, 1, 2.32215
72, 2, wb, attraction, a-b-da, 5, 2, 4, 17, 90, 165, 161, 88, 165, 90, 2, 2.77876
72, 2, wb, attraction, a-b-da, 5, 2, 4, 17, 90, 165, 161, 88, 165, 90, 3, 0.785825
72, 2, wb, filler, NA, 999, 999, 4, 18, 98, 73, 178, 111, 183, 75, 1, 0.744256
72, 2, wb, filler, NA, 999, 999, 4, 18, 98, 73, 178, 111, 183, 75, 2, 0.91321
72, 2, wb, attraction, a-b-da, 14, 2, 4, 19, 165, 90, 90, 165, 153, 83, 3, 4.32228
72, 2, wb, attraction, a-b-da, 14, 2, 4, 19, 165, 90, 90, 165, 153, 83, 1, 0.883461
72, 2, wb, filler, NA, 999, 999, 4, 20, 188, 156, 143, 109, 104, 147, 2, 4.31783
72, 2, wb, filler, NA, 999, 999, 4, 20, 188, 156, 143, 109, 104, 147, 1, 0.583169
72, 2, wb, attraction, a-b-da, 2, 3, 4, 21, 120, 195, 193, 119, 195, 120, 3, 2.74957
72, 2, wb, attraction, a-b-da, 2, 3, 4, 21, 120, 195, 193, 119, 195, 120, 1, 0.974006
72, 2, wb, catch, NA, 999, 999, 4, 22, 147, 168, 120, 135, 120, 75, 3, 0.980242
72, 2, wb, catch, NA, 999, 999, 4, 22, 147, 168, 120, 135, 120, 75, 1, 0.771877
72, 2, wb, attraction, a-b-db, 2, 1, 4, 23, 60, 135, 59, 134, 135, 60, 1, 1.36303
72, 2, wb, attraction, a-b-db, 2, 1, 4, 23, 60, 135, 59, 134, 135, 60, 3, 0.787193
72, 2, wb, attraction, a-b-db, 9, 1, 4, 24, 60, 135, 135, 60, 57, 129, 1, 2.51368
72, 2, wb, attraction, a-b-db, 9, 1, 4, 24, 60, 135, 135, 60, 57, 129, 2, 0.755456
72, 2, wb, attraction, a-b-da, 9, 3, 4, 25, 186, 114, 120, 195, 195, 120, 1, 1.0191
72, 2, wb, attraction, a-b-da, 9, 3, 4, 25, 186, 114, 120, 195, 195, 120, 2, 0.705506
72, 2, wb, filler, NA, 999, 999, 4, 26, 118, 67, 59, 125, 88, 167, 1, 1.69911
72, 2, wb, filler, NA, 999, 999, 4, 26, 118, 67, 59, 125, 88, 167, 3, 0.429929
72, 2, wb, attraction, a-b-da, 14, 3, 4, 27, 120, 195, 195, 120, 181, 111, 1, 1.13034
72, 2, wb, attraction, a-b-da, 14, 3, 4, 27, 120, 195, 195, 120, 181, 111, 2, 1.99597
72, 2, wb, attraction, a-b-db, 9, 3, 4, 28, 120, 195, 195, 120, 114, 186, 1, 3.16941
72, 2, wb, attraction, a-b-db, 9, 3, 4, 28, 120, 195, 195, 120, 114, 186, 2, 1.46502
72, 2, wb, attraction, a-b-da, 2, 2, 4, 29, 163, 89, 165, 90, 90, 165, 3, 3.15597
72, 2, wb, attraction, a-b-da, 2, 2, 4, 29, 163, 89, 165, 90, 90, 165, 1, 0.563536
72, 2, wb, attraction, a-b-db, 2, 2, 4, 30, 90, 165, 89, 163, 165, 90, 1, 11.5865
72, 2, wb, attraction, a-b-db, 2, 2, 4, 30, 90, 165, 89, 163, 165, 90, 3, 0.486941
72, 2, wb, filler, NA, 999, 999, 4, 31, 149, 86, 177, 155, 60, 144, 3, 3.25745
72, 2, wb, filler, NA, 999, 999, 4, 31, 149, 86, 177, 155, 60, 144, 2, 0.805079
72, 2, wb, filler, NA, 999, 999, 4, 32, 188, 57, 125, 59, 108, 195, 2, 3.83473
72, 2, wb, filler, NA, 999, 999, 4, 32, 188, 57, 125, 59, 108, 195, 3, 0.775671
72, 2, wb, catch, NA, 999, 999, 4, 33, 153, 162, 79, 116, 139, 116, 2, 1.19784
72, 2, wb, catch, NA, 999, 999, 4, 33, 153, 162, 79, 116, 139, 116, 1, 0.86081
72, 2, wb, filler, NA, 999, 999, 4, 34, 62, 124, 170, 108, 179, 93, 1, 1.0478
72, 2, wb, filler, NA, 999, 999, 4, 34, 62, 124, 170, 108, 179, 93, 2, 0.876752
72, 2, wb, attraction, a-b-db, 5, 2, 4, 35, 90, 165, 165, 90, 88, 161, 3, 3.35107
72, 2, wb, attraction, a-b-db, 5, 2, 4, 35, 90, 165, 165, 90, 88, 161, 1, 1.0314
72, 2, wb, attraction, a-b-db, 5, 1, 4, 36, 135, 60, 58, 132, 60, 135, 2, 1.49967
72, 2, wb, attraction, a-b-db, 5, 1, 4, 36, 135, 60, 58, 132, 60, 135, 1, 2.01457
72, 2, wb, filler, NA, 999, 999, 4, 37, 67, 89, 79, 105, 122, 170, 1, 1.09904
72, 2, wb, filler, NA, 999, 999, 4, 37, 67, 89, 79, 105, 122, 170, 3, 0.646109
72, 2, wb, attraction, a-b-db, 2, 3, 5, 1, 120, 195, 119, 193, 195, 120, 1, 17.1525
72, 2, wb, attraction, a-b-db, 2, 3, 5, 1, 120, 195, 119, 193, 195, 120, 2, 2.07634
72, 2, wb, attraction, a-b-db, 14, 3, 5, 2, 120, 195, 195, 120, 111, 181, 3, 2.2144
72, 2, wb, attraction, a-b-db, 14, 3, 5, 2, 120, 195, 195, 120, 111, 181, 1, 7.21233
72, 2, wb, attraction, a-b-da, 2, 2, 5, 3, 163, 89, 165, 90, 90, 165, 1, 4.91937
72, 2, wb, attraction, a-b-da, 2, 2, 5, 3, 163, 89, 165, 90, 90, 165, 2, 1.2645
72, 2, wb, attraction, a-b-db, 2, 1, 5, 4, 59, 134, 60, 135, 135, 60, 1, 2.7954
72, 2, wb, attraction, a-b-db, 2, 1, 5, 4, 59, 134, 60, 135, 135, 60, 3, 2.02576
72, 2, wb, filler, NA, 999, 999, 5, 5, 88, 152, 94, 60, 181, 106, 2, 1.58979
72, 2, wb, filler, NA, 999, 999, 5, 5, 88, 152, 94, 60, 181, 106, 3, 0.492613
72, 2, wb, filler, NA, 999, 999, 5, 6, 58, 66, 82, 145, 92, 77, 1, 1.20629
72, 2, wb, filler, NA, 999, 999, 5, 6, 58, 66, 82, 145, 92, 77, 2, 0.548545
72, 2, wb, attraction, a-b-da, 14, 1, 5, 7, 60, 135, 125, 56, 135, 60, 2, 8.15645
72, 2, wb, attraction, a-b-da, 14, 1, 5, 7, 60, 135, 125, 56, 135, 60, 3, 0.818462
72, 2, wb, attraction, a-b-db, 9, 3, 5, 8, 120, 195, 195, 120, 114, 186, 3, 2.61554
72, 2, wb, attraction, a-b-db, 9, 3, 5, 8, 120, 195, 195, 120, 114, 186, 2, 0.701348
72, 2, wb, filler, NA, 999, 999, 5, 9, 130, 164, 174, 65, 118, 96, 2, 6.76696
72, 2, wb, filler, NA, 999, 999, 5, 9, 130, 164, 174, 65, 118, 96, 1, 0.917527
72, 2, wb, attraction, a-b-db, 5, 1, 5, 10, 60, 135, 58, 132, 135, 60, 1, 6.3025
72, 2, wb, attraction, a-b-db, 5, 1, 5, 10, 60, 135, 58, 132, 135, 60, 3, 2.59191
72, 2, wb, attraction, a-b-db, 5, 2, 5, 11, 88, 161, 165, 90, 90, 165, 2, 6.18113
72, 2, wb, attraction, a-b-db, 5, 2, 5, 11, 88, 161, 165, 90, 90, 165, 1, 0.627212
72, 2, wb, attraction, a-b-da, 5, 1, 5, 12, 60, 135, 135, 60, 132, 58, 1, 3.44748
72, 2, wb, attraction, a-b-da, 5, 1, 5, 12, 60, 135, 135, 60, 132, 58, 2, 0.963686
72, 2, wb, filler, NA, 999, 999, 5, 13, 90, 71, 57, 164, 127, 104, 2, 3.3547
72, 2, wb, filler, NA, 999, 999, 5, 13, 90, 71, 57, 164, 127, 104, 3, 0.858269
72, 2, wb, filler, NA, 999, 999, 5, 14, 135, 74, 131, 98, 183, 183, 1, 3.0292
72, 2, wb, filler, NA, 999, 999, 5, 14, 135, 74, 131, 98, 183, 183, 3, 0.666207
72, 2, wb, attraction, a-b-db, 14, 1, 5, 15, 56, 125, 135, 60, 60, 135, 1, 5.56542
72, 2, wb, attraction, a-b-db, 14, 1, 5, 15, 56, 125, 135, 60, 60, 135, 2, 2.82024
72, 2, wb, catch, NA, 999, 999, 5, 16, 159, 96, 130, 185, 109, 86, 3, 1.99263
72, 2, wb, catch, NA, 999, 999, 5, 16, 159, 96, 130, 185, 109, 86, 2, 2.31936
72, 2, wb, filler, NA, 999, 999, 5, 17, 158, 183, 96, 194, 179, 62, 3, 5.56791
72, 2, wb, filler, NA, 999, 999, 5, 17, 158, 183, 96, 194, 179, 62, 1, 1.39878
72, 2, wb, attraction, a-b-da, 14, 3, 5, 18, 181, 111, 120, 195, 195, 120, 1, 11.7484
72, 2, wb, attraction, a-b-da, 14, 3, 5, 18, 181, 111, 120, 195, 195, 120, 3, 2.16208
72, 2, wb, attraction, a-b-da, 2, 1, 5, 19, 135, 60, 60, 135, 134, 59, 2, 6.24851
72, 2, wb, attraction, a-b-da, 2, 1, 5, 19, 135, 60, 60, 135, 134, 59, 1, 2.01999
72, 2, wb, attraction, a-b-db, 14, 2, 5, 20, 83, 153, 90, 165, 165, 90, 1, 14.9045
72, 2, wb, attraction, a-b-db, 14, 2, 5, 20, 83, 153, 90, 165, 165, 90, 3, 2.70316
72, 2, wb, attraction, a-b-db, 9, 1, 5, 21, 60, 135, 135, 60, 57, 129, 2, 8.48832
72, 2, wb, attraction, a-b-db, 9, 1, 5, 21, 60, 135, 135, 60, 57, 129, 1, 0.48155
72, 2, wb, attraction, a-b-da, 9, 3, 5, 22, 195, 120, 186, 114, 120, 195, 2, 6.02003
72, 2, wb, attraction, a-b-da, 9, 3, 5, 22, 195, 120, 186, 114, 120, 195, 3, 0.648875
72, 2, wb, filler, NA, 999, 999, 5, 23, 122, 82, 120, 150, 57, 117, 3, 5.0606
72, 2, wb, filler, NA, 999, 999, 5, 23, 122, 82, 120, 150, 57, 117, 2, 1.75162
72, 2, wb, attraction, a-b-db, 2, 2, 5, 24, 89, 163, 90, 165, 165, 90, 3, 6.79093
72, 2, wb, attraction, a-b-db, 2, 2, 5, 24, 89, 163, 90, 165, 165, 90, 1, 0.740261
72, 2, wb, filler, NA, 999, 999, 5, 25, 87, 74, 89, 112, 158, 171, 1, 0.923866
72, 2, wb, filler, NA, 999, 999, 5, 25, 87, 74, 89, 112, 158, 171, 3, 0.781511
72, 2, wb, attraction, a-b-da, 9, 2, 5, 26, 157, 86, 90, 165, 165, 90, 1, 3.70786
72, 2, wb, attraction, a-b-da, 9, 2, 5, 26, 157, 86, 90, 165, 165, 90, 2, 0.645437
72, 2, wb, attraction, a-b-db, 9, 2, 5, 27, 165, 90, 90, 165, 86, 157, 1, 3.48917
72, 2, wb, attraction, a-b-db, 9, 2, 5, 27, 165, 90, 90, 165, 86, 157, 2, 1.12337
72, 2, wb, filler, NA, 999, 999, 5, 28, 87, 128, 168, 166, 172, 160, 1, 0.875552
72, 2, wb, filler, NA, 999, 999, 5, 28, 87, 128, 168, 166, 172, 160, 2, 3.87935
72, 2, wb, attraction, a-b-da, 14, 2, 5, 29, 90, 165, 165, 90, 153, 83, 3, 5.37676
72, 2, wb, attraction, a-b-da, 14, 2, 5, 29, 90, 165, 165, 90, 153, 83, 1, 2.00719
72, 2, wb, attraction, a-b-da, 9, 1, 5, 30, 129, 57, 135, 60, 60, 135, 3, 47.4436
72, 2, wb, attraction, a-b-da, 9, 1, 5, 30, 129, 57, 135, 60, 60, 135, 1, 1.14684
72, 2, wb, filler, NA, 999, 999, 5, 31, 190, 195, 116, 77, 80, 173, 2, 9.3544
72, 2, wb, filler, NA, 999, 999, 5, 31, 190, 195, 116, 77, 80, 173, 1, 0.66478
72, 2, wb, attraction, a-b-da, 5, 2, 5, 32, 161, 88, 90, 165, 165, 90, 1, 3.17189
72, 2, wb, attraction, a-b-da, 5, 2, 5, 32, 161, 88, 90, 165, 165, 90, 2, 0.594824
72, 2, wb, catch, NA, 999, 999, 5, 33, 172, 143, 89, 106, 142, 113, 2, 2.96053
72, 2, wb, catch, NA, 999, 999, 5, 33, 172, 143, 89, 106, 142, 113, 1, 0.760341
72, 2, wb, attraction, a-b-da, 5, 3, 5, 34, 195, 120, 190, 117, 120, 195, 2, 6.65526
72, 2, wb, attraction, a-b-da, 5, 3, 5, 34, 195, 120, 190, 117, 120, 195, 3, 3.52182
72, 2, wb, attraction, a-b-da, 2, 3, 5, 35, 193, 119, 120, 195, 195, 120, 1, 6.65008
72, 2, wb, attraction, a-b-da, 2, 3, 5, 35, 193, 119, 120, 195, 195, 120, 2, 0.653279
72, 2, wb, catch, NA, 999, 999, 5, 36, 147, 108, 101, 94, 121, 194, 2, 1.56101
72, 2, wb, catch, NA, 999, 999, 5, 36, 147, 108, 101, 94, 121, 194, 3, 0.953302
72, 2, wb, attraction, a-b-db, 5, 3, 5, 37, 195, 120, 117, 190, 120, 195, 1, 2.95277
72, 2, wb, attraction, a-b-db, 5, 3, 5, 37, 195, 120, 117, 190, 120, 195, 2, 1.47337
72, 2, wb, attraction, a-b-db, 5, 1, 6, 1, 58, 132, 60, 135, 135, 60, 1, 2.42731
72, 2, wb, attraction, a-b-db, 5, 1, 6, 1, 58, 132, 60, 135, 135, 60, 3, 0.632611
72, 2, wb, catch, NA, 999, 999, 6, 2, 134, 121, 162, 153, 101, 94, 3, 1.71694
72, 2, wb, catch, NA, 999, 999, 6, 2, 134, 121, 162, 153, 101, 94, 2, 0.88708
72, 2, wb, attraction, a-b-da, 5, 3, 6, 3, 190, 117, 195, 120, 120, 195, 1, 13.2414
72, 2, wb, attraction, a-b-da, 5, 3, 6, 3, 190, 117, 195, 120, 120, 195, 3, 0.947476
72, 2, wb, attraction, a-b-db, 2, 2, 6, 4, 89, 163, 165, 90, 90, 165, 3, 5.40289
72, 2, wb, attraction, a-b-db, 2, 2, 6, 4, 89, 163, 165, 90, 90, 165, 1, 0.440501
72, 2, wb, filler, NA, 999, 999, 6, 5, 151, 110, 91, 177, 129, 114, 3, 1.46033
72, 2, wb, filler, NA, 999, 999, 6, 5, 151, 110, 91, 177, 129, 114, 1, 4.6966
72, 2, wb, attraction, a-b-da, 9, 2, 6, 6, 157, 86, 90, 165, 165, 90, 1, 6.96899
72, 2, wb, attraction, a-b-da, 9, 2, 6, 6, 157, 86, 90, 165, 165, 90, 2, 0.511478
72, 2, wb, attraction, a-b-da, 14, 3, 6, 7, 181, 111, 120, 195, 195, 120, 1, 2.04051
72, 2, wb, attraction, a-b-da, 14, 3, 6, 7, 181, 111, 120, 195, 195, 120, 2, 0.413214
72, 2, wb, filler, NA, 999, 999, 6, 8, 163, 110, 194, 149, 98, 143, 3, 1.13036
72, 2, wb, filler, NA, 999, 999, 6, 8, 163, 110, 194, 149, 98, 143, 2, 1.08395
72, 2, wb, attraction, a-b-da, 2, 2, 6, 9, 163, 89, 165, 90, 90, 165, 3, 2.6142
72, 2, wb, attraction, a-b-da, 2, 2, 6, 9, 163, 89, 165, 90, 90, 165, 2, 0.596061
72, 2, wb, attraction, a-b-db, 14, 1, 6, 10, 135, 60, 56, 125, 60, 135, 3, 2.94577
72, 2, wb, attraction, a-b-db, 14, 1, 6, 10, 135, 60, 56, 125, 60, 135, 2, 0.57018
72, 2, wb, attraction, a-b-da, 2, 3, 6, 11, 193, 119, 195, 120, 120, 195, 3, 3.23335
72, 2, wb, attraction, a-b-da, 2, 3, 6, 11, 193, 119, 195, 120, 120, 195, 2, 0.646393
72, 2, wb, filler, NA, 999, 999, 6, 12, 82, 69, 88, 175, 166, 180, 1, 1.00203
72, 2, wb, filler, NA, 999, 999, 6, 12, 82, 69, 88, 175, 166, 180, 3, 0.528999
72, 2, wb, filler, NA, 999, 999, 6, 13, 178, 156, 156, 72, 95, 170, 2, 2.10546
72, 2, wb, filler, NA, 999, 999, 6, 13, 178, 156, 156, 72, 95, 170, 1, 1.48358
72, 2, wb, attraction, a-b-db, 9, 3, 6, 14, 120, 195, 195, 120, 114, 186, 3, 6.46972
72, 2, wb, attraction, a-b-db, 9, 3, 6, 14, 120, 195, 195, 120, 114, 186, 1, 0.840133
72, 2, wb, filler, NA, 999, 999, 6, 15, 56, 123, 127, 64, 79, 94, 1, 10.0359
72, 2, wb, filler, NA, 999, 999, 6, 15, 56, 123, 127, 64, 79, 94, 3, 2.27074
72, 2, wb, attraction, a-b-db, 9, 2, 6, 16, 90, 165, 86, 157, 165, 90, 2, 9.30529
72, 2, wb, attraction, a-b-db, 9, 2, 6, 16, 90, 165, 86, 157, 165, 90, 3, 0.793621
72, 2, wb, attraction, a-b-db, 5, 2, 6, 17, 165, 90, 90, 165, 88, 161, 1, 2.65552
72, 2, wb, attraction, a-b-db, 5, 2, 6, 17, 165, 90, 90, 165, 88, 161, 2, 0.675175
72, 2, wb, attraction, a-b-da, 5, 2, 6, 18, 165, 90, 90, 165, 161, 88, 3, 2.47764
72, 2, wb, attraction, a-b-da, 5, 2, 6, 18, 165, 90, 90, 165, 161, 88, 2, 0.600857
72, 2, wb, attraction, a-b-da, 14, 2, 6, 19, 90, 165, 153, 83, 165, 90, 2, 7.6065
72, 2, wb, attraction, a-b-da, 14, 2, 6, 19, 90, 165, 153, 83, 165, 90, 1, 0.538831
72, 2, wb, attraction, a-b-da, 14, 1, 6, 20, 60, 135, 125, 56, 135, 60, 2, 2.4593
72, 2, wb, attraction, a-b-da, 14, 1, 6, 20, 60, 135, 125, 56, 135, 60, 1, 1.25511
72, 2, wb, attraction, a-b-db, 14, 3, 6, 21, 111, 181, 195, 120, 120, 195, 1, 2.68277
72, 2, wb, attraction, a-b-db, 14, 3, 6, 21, 111, 181, 195, 120, 120, 195, 2, 0.717795
72, 2, wb, filler, NA, 999, 999, 6, 22, 93, 164, 133, 67, 154, 193, 2, 1.27891
72, 2, wb, filler, NA, 999, 999, 6, 22, 93, 164, 133, 67, 154, 193, 3, 1.20243
72, 2, wb, attraction, a-b-db, 9, 1, 6, 23, 135, 60, 60, 135, 57, 129, 1, 2.14397
72, 2, wb, attraction, a-b-db, 9, 1, 6, 23, 135, 60, 60, 135, 57, 129, 3, 0.872725
72, 2, wb, attraction, a-b-db, 2, 3, 6, 24, 195, 120, 120, 195, 119, 193, 3, 3.6596
72, 2, wb, attraction, a-b-db, 2, 3, 6, 24, 195, 120, 120, 195, 119, 193, 2, 0.839128
72, 2, wb, attraction, a-b-da, 9, 3, 6, 25, 195, 120, 186, 114, 120, 195, 3, 5.6835
72, 2, wb, attraction, a-b-da, 9, 3, 6, 25, 195, 120, 186, 114, 120, 195, 2, 1.57368
72, 2, wb, attraction, a-b-db, 2, 1, 6, 26, 60, 135, 135, 60, 59, 134, 3, 4.18789
72, 2, wb, attraction, a-b-db, 2, 1, 6, 26, 60, 135, 135, 60, 59, 134, 1, 2.23446
72, 2, wb, attraction, a-b-db, 14, 2, 6, 27, 83, 153, 90, 165, 165, 90, 3, 3.90242
72, 2, wb, attraction, a-b-db, 14, 2, 6, 27, 83, 153, 90, 165, 165, 90, 2, 1.16055
72, 2, wb, attraction, a-b-db, 5, 3, 6, 28, 195, 120, 120, 195, 117, 190, 1, 2.36733
72, 2, wb, attraction, a-b-db, 5, 3, 6, 28, 195, 120, 120, 195, 117, 190, 2, 1.09545
72, 2, wb, attraction, a-b-da, 5, 1, 6, 29, 135, 60, 132, 58, 60, 135, 3, 5.45689
72, 2, wb, attraction, a-b-da, 5, 1, 6, 29, 135, 60, 132, 58, 60, 135, 2, 0.939761
72, 2, wb, filler, NA, 999, 999, 6, 30, 70, 124, 188, 168, 89, 146, 1, 5.45948
72, 2, wb, filler, NA, 999, 999, 6, 30, 70, 124, 188, 168, 89, 146, 2, 1.12635
72, 2, wb, catch, NA, 999, 999, 6, 31, 86, 109, 123, 192, 165, 90, 1, 12.7346
72, 2, wb, catch, NA, 999, 999, 6, 31, 86, 109, 123, 192, 165, 90, 2, 1.52468
72, 2, wb, attraction, a-b-da, 9, 1, 6, 32, 60, 135, 135, 60, 129, 57, 3, 5.08482
72, 2, wb, attraction, a-b-da, 9, 1, 6, 32, 60, 135, 135, 60, 129, 57, 1, 1.26325
72, 2, wb, attraction, a-b-da, 2, 1, 6, 33, 135, 60, 60, 135, 134, 59, 3, 6.77811
72, 2, wb, attraction, a-b-da, 2, 1, 6, 33, 135, 60, 60, 135, 134, 59, 2, 3.64006
72, 2, wb, filler, NA, 999, 999, 6, 34, 116, 59, 105, 106, 194, 101, 1, 2.61147
72, 2, wb, filler, NA, 999, 999, 6, 34, 116, 59, 105, 106, 194, 101, 3, 0.801424
72, 2, wb, catch, NA, 999, 999, 6, 35, 134, 121, 181, 134, 80, 115, 3, 3.66297
72, 2, wb, catch, NA, 999, 999, 6, 35, 134, 121, 181, 134, 80, 115, 2, 0.650316
72, 2, wb, filler, NA, 999, 999, 6, 36, 74, 151, 72, 156, 184, 107, 2, 5.11805
72, 2, wb, filler, NA, 999, 999, 6, 36, 74, 151, 72, 156, 184, 107, 3, 0.615169
72, 2, wb, filler, NA, 999, 999, 6, 37, 128, 96, 169, 154, 179, 97, 1, 2.4443
72, 2, wb, filler, NA, 999, 999, 6, 37, 128, 96, 169, 154, 179, 97, 2, 2.51287
72, 2, wb, attraction, a-b-db, 14, 1, 7, 1, 135, 60, 56, 125, 60, 135, 2, 5.72131
72, 2, wb, attraction, a-b-db, 14, 1, 7, 1, 135, 60, 56, 125, 60, 135, 1, 3.13758
72, 2, wb, attraction, a-b-da, 5, 3, 7, 2, 120, 195, 190, 117, 195, 120, 3, 8.12911
72, 2, wb, attraction, a-b-da, 5, 3, 7, 2, 120, 195, 190, 117, 195, 120, 1, 0.856463
72, 2, wb, filler, NA, 999, 999, 7, 3, 176, 76, 175, 115, 83, 113, 3, 1.60354
72, 2, wb, filler, NA, 999, 999, 7, 3, 176, 76, 175, 115, 83, 113, 2, 0.778325
72, 2, wb, attraction, a-b-db, 2, 2, 7, 4, 165, 90, 89, 163, 90, 165, 1, 3.32074
72, 2, wb, attraction, a-b-db, 2, 2, 7, 4, 165, 90, 89, 163, 90, 165, 2, 1.01828
72, 2, wb, attraction, a-b-da, 9, 2, 7, 5, 165, 90, 157, 86, 90, 165, 2, 43.7593
72, 2, wb, attraction, a-b-da, 9, 2, 7, 5, 165, 90, 157, 86, 90, 165, 1, 1.14685
72, 2, wb, attraction, a-b-da, 9, 1, 7, 6, 60, 135, 135, 60, 129, 57, 2, 5.74648
72, 2, wb, attraction, a-b-da, 9, 1, 7, 6, 60, 135, 135, 60, 129, 57, 1, 1.12995
72, 2, wb, attraction, a-b-db, 5, 1, 7, 7, 58, 132, 135, 60, 60, 135, 1, 2.26629
72, 2, wb, attraction, a-b-db, 5, 1, 7, 7, 58, 132, 135, 60, 60, 135, 2, 2.9022
72, 2, wb, filler, NA, 999, 999, 7, 8, 146, 145, 136, 162, 193, 159, 1, 6.79918
72, 2, wb, filler, NA, 999, 999, 7, 8, 146, 145, 136, 162, 193, 159, 3, 0.492327
72, 2, wb, attraction, a-b-da, 5, 1, 7, 9, 60, 135, 135, 60, 132, 58, 1, 7.6062
72, 2, wb, attraction, a-b-da, 5, 1, 7, 9, 60, 135, 135, 60, 132, 58, 3, 1.47508
72, 2, wb, filler, NA, 999, 999, 7, 10, 115, 156, 93, 188, 100, 190, 2, 10.7813
72, 2, wb, filler, NA, 999, 999, 7, 10, 115, 156, 93, 188, 100, 190, 1, 0.67385
72, 2, wb, attraction, a-b-db, 14, 3, 7, 11, 120, 195, 195, 120, 111, 181, 3, 5.28424
72, 2, wb, attraction, a-b-db, 14, 3, 7, 11, 120, 195, 195, 120, 111, 181, 2, 0.558681
72, 2, wb, attraction, a-b-db, 9, 2, 7, 12, 165, 90, 90, 165, 86, 157, 3, 7.68565
72, 2, wb, attraction, a-b-db, 9, 2, 7, 12, 165, 90, 90, 165, 86, 157, 2, 2.07917
72, 2, wb, attraction, a-b-da, 2, 2, 7, 13, 165, 90, 90, 165, 163, 89, 1, 3.45724
72, 2, wb, attraction, a-b-da, 2, 2, 7, 13, 165, 90, 90, 165, 163, 89, 2, 0.684692
72, 2, wb, attraction, a-b-db, 9, 3, 7, 14, 195, 120, 114, 186, 120, 195, 1, 3.97519
72, 2, wb, attraction, a-b-db, 9, 3, 7, 14, 195, 120, 114, 186, 120, 195, 2, 0.581905
72, 2, wb, attraction, a-b-db, 14, 2, 7, 15, 165, 90, 90, 165, 83, 153, 3, 4.09229
72, 2, wb, attraction, a-b-db, 14, 2, 7, 15, 165, 90, 90, 165, 83, 153, 2, 0.79039
72, 2, wb, catch, NA, 999, 999, 7, 16, 169, 146, 62, 133, 98, 157, 2, 2.58002
72, 2, wb, catch, NA, 999, 999, 7, 16, 169, 146, 62, 133, 98, 157, 1, 1.29915
72, 2, wb, catch, NA, 999, 999, 7, 17, 90, 165, 102, 93, 191, 124, 2, 1.48482
72, 2, wb, catch, NA, 999, 999, 7, 17, 90, 165, 102, 93, 191, 124, 3, 0.760183
72, 2, wb, attraction, a-b-db, 5, 3, 7, 18, 195, 120, 120, 195, 117, 190, 1, 4.59134
72, 2, wb, attraction, a-b-db, 5, 3, 7, 18, 195, 120, 120, 195, 117, 190, 2, 0.541181
72, 2, wb, attraction, a-b-da, 14, 2, 7, 19, 90, 165, 165, 90, 153, 83, 3, 1.55689
72, 2, wb, attraction, a-b-da, 14, 2, 7, 19, 90, 165, 165, 90, 153, 83, 2, 0.645139
72, 2, wb, attraction, a-b-da, 9, 3, 7, 20, 195, 120, 120, 195, 186, 114, 3, 1.37676
72, 2, wb, attraction, a-b-da, 9, 3, 7, 20, 195, 120, 120, 195, 186, 114, 2, 0.608371
72, 2, wb, attraction, a-b-da, 2, 3, 7, 21, 120, 195, 193, 119, 195, 120, 3, 2.70151
72, 2, wb, attraction, a-b-da, 2, 3, 7, 21, 120, 195, 193, 119, 195, 120, 2, 0.67192
72, 2, wb, catch, NA, 999, 999, 7, 22, 93, 162, 107, 88, 162, 153, 2, 2.259
72, 2, wb, catch, NA, 999, 999, 7, 22, 93, 162, 107, 88, 162, 153, 3, 0.454837
72, 2, wb, filler, NA, 999, 999, 7, 23, 90, 63, 137, 149, 194, 138, 1, 1.12266
72, 2, wb, filler, NA, 999, 999, 7, 23, 90, 63, 137, 149, 194, 138, 3, 0.364315
72, 2, wb, attraction, a-b-da, 2, 1, 7, 24, 134, 59, 135, 60, 60, 135, 2, 6.32349
72, 2, wb, attraction, a-b-da, 2, 1, 7, 24, 134, 59, 135, 60, 60, 135, 1, 0.435471
72, 2, wb, attraction, a-b-db, 9, 1, 7, 25, 60, 135, 135, 60, 57, 129, 3, 2.83204
72, 2, wb, attraction, a-b-db, 9, 1, 7, 25, 60, 135, 135, 60, 57, 129, 1, 0.837105
72, 2, wb, filler, NA, 999, 999, 7, 26, 98, 110, 165, 98, 125, 85, 1, 1.6255
72, 2, wb, filler, NA, 999, 999, 7, 26, 98, 110, 165, 98, 125, 85, 2, 2.10294
72, 2, wb, filler, NA, 999, 999, 7, 27, 150, 156, 80, 92, 144, 61, 2, 1.31218
72, 2, wb, filler, NA, 999, 999, 7, 27, 150, 156, 80, 92, 144, 61, 1, 2.44246
72, 2, wb, filler, NA, 999, 999, 7, 28, 115, 113, 105, 171, 128, 152, 1, 7.18954
72, 2, wb, filler, NA, 999, 999, 7, 28, 115, 113, 105, 171, 128, 152, 3, 3.27549
72, 2, wb, filler, NA, 999, 999, 7, 29, 83, 121, 76, 150, 194, 103, 1, 4.18086
72, 2, wb, filler, NA, 999, 999, 7, 29, 83, 121, 76, 150, 194, 103, 3, 0.6115
72, 2, wb, attraction, a-b-da, 14, 3, 7, 30, 120, 195, 181, 111, 195, 120, 2, 5.33666
72, 2, wb, attraction, a-b-da, 14, 3, 7, 30, 120, 195, 181, 111, 195, 120, 3, 0.568917
72, 2, wb, attraction, a-b-da, 14, 1, 7, 31, 60, 135, 135, 60, 125, 56, 2, 2.91206
72, 2, wb, attraction, a-b-da, 14, 1, 7, 31, 60, 135, 135, 60, 125, 56, 1, 0.945873
72, 2, wb, attraction, a-b-da, 5, 2, 7, 32, 90, 165, 165, 90, 161, 88, 3, 3.9853
72, 2, wb, attraction, a-b-da, 5, 2, 7, 32, 90, 165, 165, 90, 161, 88, 1, 1.92816
72, 2, wb, attraction, a-b-db, 5, 2, 7, 33, 165, 90, 88, 161, 90, 165, 1, 3.29605
72, 2, wb, attraction, a-b-db, 5, 2, 7, 33, 165, 90, 88, 161, 90, 165, 3, 0.450342
72, 2, wb, attraction, a-b-db, 2, 3, 7, 34, 119, 193, 120, 195, 195, 120, 1, 4.34226
72, 2, wb, attraction, a-b-db, 2, 3, 7, 34, 119, 193, 120, 195, 195, 120, 3, 1.38221
72, 2, wb, filler, NA, 999, 999, 7, 35, 168, 149, 162, 159, 115, 181, 3, 3.20433
72, 2, wb, filler, NA, 999, 999, 7, 35, 168, 149, 162, 159, 115, 181, 2, 1.76194
72, 2, wb, attraction, a-b-db, 2, 1, 7, 36, 135, 60, 59, 134, 60, 135, 2, 3.90469
72, 2, wb, attraction, a-b-db, 2, 1, 7, 36, 135, 60, 59, 134, 60, 135, 1, 0.666098
72, 2, wb, filler, NA, 999, 999, 7, 37, 99, 128, 91, 195, 96, 119, 2, 7.10918
72, 2, wb, filler, NA, 999, 999, 7, 37, 99, 128, 91, 195, 96, 119, 1, 0.693538
72, 2, wb, attraction, a-b-da, 2, 1, 8, 1, 134, 59, 135, 60, 60, 135, 3, 2.34338
72, 2, wb, attraction, a-b-da, 2, 1, 8, 1, 134, 59, 135, 60, 60, 135, 1, 1.15985
72, 2, wb, attraction, a-b-db, 2, 2, 8, 2, 165, 90, 90, 165, 89, 163, 1, 4.83888
72, 2, wb, attraction, a-b-db, 2, 2, 8, 2, 165, 90, 90, 165, 89, 163, 2, 0.762603
72, 2, wb, attraction, a-b-da, 9, 2, 8, 3, 90, 165, 165, 90, 157, 86, 3, 6.23357
72, 2, wb, attraction, a-b-da, 9, 2, 8, 3, 90, 165, 165, 90, 157, 86, 1, 0.581601
72, 2, wb, attraction, a-b-da, 9, 1, 8, 4, 60, 135, 129, 57, 135, 60, 2, 3.13202
72, 2, wb, attraction, a-b-da, 9, 1, 8, 4, 60, 135, 129, 57, 135, 60, 1, 0.669004
72, 2, wb, attraction, a-b-db, 14, 2, 8, 5, 90, 165, 83, 153, 165, 90, 2, 2.92012
72, 2, wb, attraction, a-b-db, 14, 2, 8, 5, 90, 165, 83, 153, 165, 90, 1, 0.489929
72, 2, wb, attraction, a-b-da, 5, 2, 8, 6, 161, 88, 90, 165, 165, 90, 1, 2.82782
72, 2, wb, attraction, a-b-da, 5, 2, 8, 6, 161, 88, 90, 165, 165, 90, 2, 0.440637
72, 2, wb, attraction, a-b-da, 5, 3, 8, 7, 190, 117, 195, 120, 120, 195, 2, 2.29252
72, 2, wb, attraction, a-b-da, 5, 3, 8, 7, 190, 117, 195, 120, 120, 195, 1, 0.463093
72, 2, wb, attraction, a-b-da, 14, 3, 8, 8, 195, 120, 181, 111, 120, 195, 3, 3.8424
72, 2, wb, attraction, a-b-da, 14, 3, 8, 8, 195, 120, 181, 111, 120, 195, 1, 1.61437
72, 2, wb, attraction, a-b-da, 14, 1, 8, 9, 60, 135, 135, 60, 125, 56, 2, 2.55529
72, 2, wb, attraction, a-b-da, 14, 1, 8, 9, 60, 135, 135, 60, 125, 56, 1, 2.347
72, 2, wb, attraction, a-b-db, 5, 3, 8, 10, 120, 195, 117, 190, 195, 120, 2, 6.82617
72, 2, wb, attraction, a-b-db, 5, 3, 8, 10, 120, 195, 117, 190, 195, 120, 3, 3.01408
72, 2, wb, attraction, a-b-da, 14, 2, 8, 11, 153, 83, 165, 90, 90, 165, 1, 2.13846
72, 2, wb, attraction, a-b-da, 14, 2, 8, 11, 153, 83, 165, 90, 90, 165, 3, 1.89108
72, 2, wb, filler, NA, 999, 999, 8, 12, 149, 138, 143, 98, 80, 136, 3, 4.42842
72, 2, wb, filler, NA, 999, 999, 8, 12, 149, 138, 143, 98, 80, 136, 1, 1.11294
72, 2, wb, filler, NA, 999, 999, 8, 13, 74, 89, 68, 125, 186, 69, 2, 2.40187
72, 2, wb, filler, NA, 999, 999, 8, 13, 74, 89, 68, 125, 186, 69, 3, 2.59245
72, 2, wb, catch, NA, 999, 999, 8, 14, 120, 135, 160, 155, 95, 100, 3, 2.89355
72, 2, wb, catch, NA, 999, 999, 8, 14, 120, 135, 160, 155, 95, 100, 2, 1.32001
72, 2, wb, attraction, a-b-da, 9, 3, 8, 15, 120, 195, 195, 120, 186, 114, 1, 3.52089
72, 2, wb, attraction, a-b-da, 9, 3, 8, 15, 120, 195, 195, 120, 186, 114, 2, 0.37035
72, 2, wb, filler, NA, 999, 999, 8, 16, 144, 96, 98, 138, 111, 86, 3, 0.817602
72, 2, wb, filler, NA, 999, 999, 8, 16, 144, 96, 98, 138, 111, 86, 2, 0.639937
72, 2, wb, attraction, a-b-db, 5, 1, 8, 17, 135, 60, 60, 135, 58, 132, 3, 1.60364
72, 2, wb, attraction, a-b-db, 5, 1, 8, 17, 135, 60, 60, 135, 58, 132, 1, 0.905763
72, 2, wb, filler, NA, 999, 999, 8, 18, 175, 142, 58, 75, 79, 160, 2, 1.40348
72, 2, wb, filler, NA, 999, 999, 8, 18, 175, 142, 58, 75, 79, 160, 1, 0.442323
72, 2, wb, filler, NA, 999, 999, 8, 19, 80, 162, 102, 121, 181, 70, 1, 5.21414
72, 2, wb, filler, NA, 999, 999, 8, 19, 80, 162, 102, 121, 181, 70, 2, 0.843152
72, 2, wb, catch, NA, 999, 999, 8, 20, 195, 120, 100, 95, 103, 152, 2, 2.62293
72, 2, wb, catch, NA, 999, 999, 8, 20, 195, 120, 100, 95, 103, 152, 1, 0.580101
72, 2, wb, attraction, a-b-db, 14, 3, 8, 21, 120, 195, 195, 120, 111, 181, 3, 2.36238
72, 2, wb, attraction, a-b-db, 14, 3, 8, 21, 120, 195, 195, 120, 111, 181, 1, 1.13023
72, 2, wb, attraction, a-b-db, 2, 3, 8, 22, 120, 195, 119, 193, 195, 120, 3, 4.72251
72, 2, wb, attraction, a-b-db, 2, 3, 8, 22, 120, 195, 119, 193, 195, 120, 1, 0.866957
72, 2, wb, filler, NA, 999, 999, 8, 23, 66, 194, 82, 93, 157, 190, 1, 1.66995
72, 2, wb, filler, NA, 999, 999, 8, 23, 66, 194, 82, 93, 157, 190, 3, 0.690157
72, 2, wb, attraction, a-b-db, 9, 1, 8, 24, 135, 60, 60, 135, 57, 129, 3, 5.54793
72, 2, wb, attraction, a-b-db, 9, 1, 8, 24, 135, 60, 60, 135, 57, 129, 1, 3.28349
72, 2, wb, attraction, a-b-db, 9, 3, 8, 25, 195, 120, 120, 195, 114, 186, 1, 5.24503
72, 2, wb, attraction, a-b-db, 9, 3, 8, 25, 195, 120, 120, 195, 114, 186, 2, 0.456691
72, 2, wb, attraction, a-b-da, 2, 3, 8, 26, 195, 120, 120, 195, 193, 119, 2, 5.73985
72, 2, wb, attraction, a-b-da, 2, 3, 8, 26, 195, 120, 120, 195, 193, 119, 1, 0.331327
72, 2, wb, attraction, a-b-db, 5, 2, 8, 27, 165, 90, 88, 161, 90, 165, 1, 1.7319
72, 2, wb, attraction, a-b-db, 5, 2, 8, 27, 165, 90, 88, 161, 90, 165, 2, 1.23733
72, 2, wb, filler, NA, 999, 999, 8, 28, 169, 61, 90, 177, 77, 178, 1, 2.92946
72, 2, wb, filler, NA, 999, 999, 8, 28, 169, 61, 90, 177, 77, 178, 2, 1.37058
72, 2, wb, attraction, a-b-da, 2, 2, 8, 29, 163, 89, 165, 90, 90, 165, 3, 1.92947
72, 2, wb, attraction, a-b-da, 2, 2, 8, 29, 163, 89, 165, 90, 90, 165, 1, 0.762772
72, 2, wb, filler, NA, 999, 999, 8, 30, 171, 79, 128, 129, 139, 79, 3, 3.5458
72, 2, wb, filler, NA, 999, 999, 8, 30, 171, 79, 128, 129, 139, 79, 2, 0.602018
72, 2, wb, catch, NA, 999, 999, 8, 31, 149, 166, 107, 88, 157, 98, 2, 6.07974
72, 2, wb, catch, NA, 999, 999, 8, 31, 149, 166, 107, 88, 157, 98, 1, 0.409763
72, 2, wb, filler, NA, 999, 999, 8, 32, 116, 90, 159, 73, 93, 169, 2, 3.19108
72, 2, wb, filler, NA, 999, 999, 8, 32, 116, 90, 159, 73, 93, 169, 3, 6.49337
72, 2, wb, attraction, a-b-da, 5, 1, 8, 33, 135, 60, 132, 58, 60, 135, 3, 2.79711
72, 2, wb, attraction, a-b-da, 5, 1, 8, 33, 135, 60, 132, 58, 60, 135, 2, 0.69161
72, 2, wb, filler, NA, 999, 999, 8, 34, 143, 60, 62, 135, 130, 113, 2, 2.15734
72, 2, wb, filler, NA, 999, 999, 8, 34, 143, 60, 62, 135, 130, 113, 3, 0.861358
72, 2, wb, attraction, a-b-db, 9, 2, 8, 35, 86, 157, 90, 165, 165, 90, 1, 6.40039
72, 2, wb, attraction, a-b-db, 9, 2, 8, 35, 86, 157, 90, 165, 165, 90, 3, 1.1017
72, 2, wb, attraction, a-b-db, 2, 1, 8, 36, 135, 60, 59, 134, 60, 135, 2, 3.76733
72, 2, wb, attraction, a-b-db, 2, 1, 8, 36, 135, 60, 59, 134, 60, 135, 1, 0.926633
72, 2, wb, attraction, a-b-db, 14, 1, 8, 37, 60, 135, 56, 125, 135, 60, 2, 3.08712
72, 2, wb, attraction, a-b-db, 14, 1, 8, 37, 60, 135, 56, 125, 135, 60, 3, 1.29005
