sub_n, computer_n, bw_cond, effect, set, distance, diag, block_n, trial_n, h1, w1, h2, w2, h3, w3, choice, rt 
76, 2, wb, practice, NA, 999, 999, 0, 1, 82, 60, 142, 188, 158, 110, 1, 4.88815
76, 2, wb, practice, NA, 999, 999, 0, 1, 82, 60, 142, 188, 158, 110, 2, 4.49125
76, 2, wb, practice, NA, 999, 999, 0, 2, 75, 132, 98, 57, 71, 147, 2, 3.09628
76, 2, wb, practice, NA, 999, 999, 0, 2, 75, 132, 98, 57, 71, 147, 1, 5.46613
76, 2, wb, practice, NA, 999, 999, 0, 3, 140, 72, 128, 185, 167, 106, 1, 2.76277
76, 2, wb, practice, NA, 999, 999, 0, 3, 140, 72, 128, 185, 167, 106, 2, 2.15054
76, 2, wb, catch, NA, 999, 999, 1, 1, 152, 163, 101, 154, 87, 108, 3, 1.99043
76, 2, wb, catch, NA, 999, 999, 1, 1, 152, 163, 101, 154, 87, 108, 1, 1.60515
76, 2, wb, attraction, a-b-db, 14, 1, 1, 2, 56, 125, 135, 60, 60, 135, 1, 6.06654
76, 2, wb, attraction, a-b-db, 14, 1, 1, 2, 56, 125, 135, 60, 60, 135, 3, 2.26925
76, 2, wb, filler, NA, 999, 999, 1, 3, 172, 91, 161, 185, 133, 111, 3, 5.27189
76, 2, wb, filler, NA, 999, 999, 1, 3, 172, 91, 161, 185, 133, 111, 2, 1.17016
76, 2, wb, filler, NA, 999, 999, 1, 4, 66, 101, 172, 63, 168, 91, 1, 1.97703
76, 2, wb, filler, NA, 999, 999, 1, 4, 66, 101, 172, 63, 168, 91, 3, 1.5765
76, 2, wb, attraction, a-b-db, 14, 2, 1, 5, 83, 153, 165, 90, 90, 165, 1, 2.83851
76, 2, wb, attraction, a-b-db, 14, 2, 1, 5, 83, 153, 165, 90, 90, 165, 3, 1.89104
76, 2, wb, attraction, a-b-da, 9, 1, 1, 6, 60, 135, 135, 60, 129, 57, 3, 4.21237
76, 2, wb, attraction, a-b-da, 9, 1, 1, 6, 60, 135, 135, 60, 129, 57, 1, 1.5617
76, 2, wb, attraction, a-b-da, 2, 1, 1, 7, 134, 59, 60, 135, 135, 60, 3, 6.35254
76, 2, wb, attraction, a-b-da, 2, 1, 1, 7, 134, 59, 60, 135, 135, 60, 1, 3.31187
76, 2, wb, attraction, a-b-db, 2, 1, 1, 8, 60, 135, 135, 60, 59, 134, 2, 3.36792
76, 2, wb, attraction, a-b-db, 2, 1, 1, 8, 60, 135, 135, 60, 59, 134, 1, 1.99973
76, 2, wb, filler, NA, 999, 999, 1, 9, 163, 77, 165, 73, 191, 185, 2, 4.10086
76, 2, wb, filler, NA, 999, 999, 1, 9, 163, 77, 165, 73, 191, 185, 3, 2.12691
76, 2, wb, attraction, a-b-db, 9, 2, 1, 10, 165, 90, 86, 157, 90, 165, 1, 5.39088
76, 2, wb, attraction, a-b-db, 9, 2, 1, 10, 165, 90, 86, 157, 90, 165, 3, 1.86855
76, 2, wb, attraction, a-b-da, 2, 2, 1, 11, 165, 90, 163, 89, 90, 165, 2, 4.18323
76, 2, wb, attraction, a-b-da, 2, 2, 1, 11, 165, 90, 163, 89, 90, 165, 3, 6.0459
76, 2, wb, attraction, a-b-da, 5, 3, 1, 12, 190, 117, 195, 120, 120, 195, 3, 9.88797
76, 2, wb, attraction, a-b-da, 5, 3, 1, 12, 190, 117, 195, 120, 120, 195, 1, 1.16077
76, 2, wb, filler, NA, 999, 999, 1, 13, 149, 70, 68, 162, 135, 112, 1, 2.9277
76, 2, wb, filler, NA, 999, 999, 1, 13, 149, 70, 68, 162, 135, 112, 3, 1.01681
76, 2, wb, catch, NA, 999, 999, 1, 14, 118, 77, 152, 163, 116, 139, 1, 1.22971
76, 2, wb, catch, NA, 999, 999, 1, 14, 118, 77, 152, 163, 116, 139, 2, 0.947437
76, 2, wb, filler, NA, 999, 999, 1, 15, 160, 177, 72, 82, 67, 157, 2, 1.32301
76, 2, wb, filler, NA, 999, 999, 1, 15, 160, 177, 72, 82, 67, 157, 1, 1.81265
76, 2, wb, attraction, a-b-da, 5, 1, 1, 16, 60, 135, 132, 58, 135, 60, 2, 3.52928
76, 2, wb, attraction, a-b-da, 5, 1, 1, 16, 60, 135, 132, 58, 135, 60, 1, 1.85012
76, 2, wb, filler, NA, 999, 999, 1, 17, 133, 89, 153, 151, 76, 156, 1, 2.77341
76, 2, wb, filler, NA, 999, 999, 1, 17, 133, 89, 153, 151, 76, 156, 2, 0.71658
76, 2, wb, attraction, a-b-db, 9, 1, 1, 18, 57, 129, 60, 135, 135, 60, 3, 3.74163
76, 2, wb, attraction, a-b-db, 9, 1, 1, 18, 57, 129, 60, 135, 135, 60, 2, 0.813747
76, 2, wb, attraction, a-b-da, 14, 3, 1, 19, 120, 195, 181, 111, 195, 120, 2, 3.69089
76, 2, wb, attraction, a-b-da, 14, 3, 1, 19, 120, 195, 181, 111, 195, 120, 1, 0.693011
76, 2, wb, filler, NA, 999, 999, 1, 20, 163, 82, 142, 141, 57, 99, 3, 1.47086
76, 2, wb, filler, NA, 999, 999, 1, 20, 163, 82, 142, 141, 57, 99, 2, 1.1382
76, 2, wb, attraction, a-b-db, 9, 3, 1, 21, 120, 195, 195, 120, 114, 186, 3, 6.61845
76, 2, wb, attraction, a-b-db, 9, 3, 1, 21, 120, 195, 195, 120, 114, 186, 1, 4.26301
76, 2, wb, attraction, a-b-da, 5, 2, 1, 22, 90, 165, 165, 90, 161, 88, 3, 3.5531
76, 2, wb, attraction, a-b-da, 5, 2, 1, 22, 90, 165, 165, 90, 161, 88, 1, 3.7932
76, 2, wb, catch, NA, 999, 999, 1, 23, 121, 74, 172, 143, 146, 109, 1, 2.13392
76, 2, wb, catch, NA, 999, 999, 1, 23, 121, 74, 172, 143, 146, 109, 2, 0.935212
76, 2, wb, attraction, a-b-db, 14, 3, 1, 24, 111, 181, 195, 120, 120, 195, 1, 2.0955
76, 2, wb, attraction, a-b-db, 14, 3, 1, 24, 111, 181, 195, 120, 120, 195, 3, 2.25814
76, 2, wb, attraction, a-b-da, 2, 3, 1, 25, 195, 120, 193, 119, 120, 195, 1, 6.18074
76, 2, wb, attraction, a-b-da, 2, 3, 1, 25, 195, 120, 193, 119, 120, 195, 3, 1.14696
76, 2, wb, attraction, a-b-db, 2, 3, 1, 26, 120, 195, 195, 120, 119, 193, 2, 4.95437
76, 2, wb, attraction, a-b-db, 2, 3, 1, 26, 120, 195, 195, 120, 119, 193, 1, 2.0175
76, 2, wb, filler, NA, 999, 999, 1, 27, 109, 136, 149, 75, 126, 77, 3, 2.73426
76, 2, wb, filler, NA, 999, 999, 1, 27, 109, 136, 149, 75, 126, 77, 1, 1.95932
76, 2, wb, attraction, a-b-da, 9, 3, 1, 28, 120, 195, 186, 114, 195, 120, 2, 7.89386
76, 2, wb, attraction, a-b-da, 9, 3, 1, 28, 120, 195, 186, 114, 195, 120, 1, 1.79088
76, 2, wb, filler, NA, 999, 999, 1, 29, 75, 114, 117, 155, 94, 191, 1, 3.31611
76, 2, wb, filler, NA, 999, 999, 1, 29, 75, 114, 117, 155, 94, 191, 2, 1.90166
76, 2, wb, filler, NA, 999, 999, 1, 30, 102, 135, 158, 150, 192, 147, 1, 2.06303
76, 2, wb, filler, NA, 999, 999, 1, 30, 102, 135, 158, 150, 192, 147, 3, 0.650976
76, 2, wb, attraction, a-b-db, 2, 2, 1, 31, 89, 163, 165, 90, 90, 165, 2, 2.87874
76, 2, wb, attraction, a-b-db, 2, 2, 1, 31, 89, 163, 165, 90, 90, 165, 3, 1.63381
76, 2, wb, attraction, a-b-db, 5, 1, 1, 32, 58, 132, 60, 135, 135, 60, 3, 1.89392
76, 2, wb, attraction, a-b-db, 5, 1, 1, 32, 58, 132, 60, 135, 135, 60, 2, 2.72062
76, 2, wb, attraction, a-b-db, 5, 3, 1, 33, 117, 190, 120, 195, 195, 120, 3, 2.36912
76, 2, wb, attraction, a-b-db, 5, 3, 1, 33, 117, 190, 120, 195, 195, 120, 2, 1.145
76, 2, wb, attraction, a-b-db, 5, 2, 1, 34, 90, 165, 88, 161, 165, 90, 2, 3.88058
76, 2, wb, attraction, a-b-db, 5, 2, 1, 34, 90, 165, 88, 161, 165, 90, 1, 1.41934
76, 2, wb, attraction, a-b-da, 14, 1, 1, 35, 125, 56, 60, 135, 135, 60, 1, 1.64817
76, 2, wb, attraction, a-b-da, 14, 1, 1, 35, 125, 56, 60, 135, 135, 60, 2, 4.89296
76, 2, wb, attraction, a-b-da, 9, 2, 1, 36, 90, 165, 157, 86, 165, 90, 2, 10.7016
76, 2, wb, attraction, a-b-da, 9, 2, 1, 36, 90, 165, 157, 86, 165, 90, 1, 9.84531
76, 2, wb, attraction, a-b-da, 14, 2, 1, 37, 90, 165, 153, 83, 165, 90, 2, 1.44616
76, 2, wb, attraction, a-b-da, 14, 2, 1, 37, 90, 165, 153, 83, 165, 90, 1, 1.52307
76, 2, wb, attraction, a-b-db, 2, 3, 2, 1, 195, 120, 120, 195, 119, 193, 1, 1.34733
76, 2, wb, attraction, a-b-db, 2, 3, 2, 1, 195, 120, 120, 195, 119, 193, 2, 1.75625
76, 2, wb, attraction, a-b-da, 2, 2, 2, 2, 165, 90, 90, 165, 163, 89, 3, 4.0508
76, 2, wb, attraction, a-b-da, 2, 2, 2, 2, 165, 90, 90, 165, 163, 89, 1, 3.55882
76, 2, wb, attraction, a-b-da, 9, 2, 2, 3, 90, 165, 157, 86, 165, 90, 3, 8.01308
76, 2, wb, attraction, a-b-da, 9, 2, 2, 3, 90, 165, 157, 86, 165, 90, 1, 4.40122
76, 2, wb, filler, NA, 999, 999, 2, 4, 123, 153, 110, 157, 163, 114, 2, 4.8378
76, 2, wb, filler, NA, 999, 999, 2, 4, 123, 153, 110, 157, 163, 114, 1, 2.97017
76, 2, wb, attraction, a-b-db, 2, 2, 2, 5, 89, 163, 90, 165, 165, 90, 2, 8.07248
76, 2, wb, attraction, a-b-db, 2, 2, 2, 5, 89, 163, 90, 165, 165, 90, 3, 2.17865
76, 2, wb, filler, NA, 999, 999, 2, 6, 96, 61, 152, 164, 84, 139, 1, 1.36047
76, 2, wb, filler, NA, 999, 999, 2, 6, 96, 61, 152, 164, 84, 139, 2, 0.360733
76, 2, wb, attraction, a-b-da, 9, 1, 2, 7, 129, 57, 60, 135, 135, 60, 1, 3.18412
76, 2, wb, attraction, a-b-da, 9, 1, 2, 7, 129, 57, 60, 135, 135, 60, 3, 3.66297
76, 2, wb, attraction, a-b-db, 5, 2, 2, 8, 88, 161, 90, 165, 165, 90, 3, 3.87303
76, 2, wb, attraction, a-b-db, 5, 2, 2, 8, 88, 161, 90, 165, 165, 90, 2, 1.37981
76, 2, wb, attraction, a-b-db, 14, 3, 2, 9, 111, 181, 195, 120, 120, 195, 1, 3.75403
76, 2, wb, attraction, a-b-db, 14, 3, 2, 9, 111, 181, 195, 120, 120, 195, 3, 1.19341
76, 2, wb, catch, NA, 999, 999, 2, 10, 145, 170, 112, 143, 115, 80, 3, 1.15103
76, 2, wb, catch, NA, 999, 999, 2, 10, 145, 170, 112, 143, 115, 80, 1, 0.479939
76, 2, wb, attraction, a-b-db, 9, 3, 2, 11, 114, 186, 195, 120, 120, 195, 1, 1.65854
76, 2, wb, attraction, a-b-db, 9, 3, 2, 11, 114, 186, 195, 120, 120, 195, 3, 1.31862
76, 2, wb, filler, NA, 999, 999, 2, 12, 179, 124, 150, 93, 150, 96, 3, 5.74345
76, 2, wb, filler, NA, 999, 999, 2, 12, 179, 124, 150, 93, 150, 96, 1, 3.68695
76, 2, wb, attraction, a-b-da, 2, 1, 2, 13, 60, 135, 135, 60, 134, 59, 3, 16.4565
76, 2, wb, attraction, a-b-da, 2, 1, 2, 13, 60, 135, 135, 60, 134, 59, 1, 0.760508
76, 2, wb, attraction, a-b-da, 14, 2, 2, 14, 153, 83, 165, 90, 90, 165, 1, 1.17553
76, 2, wb, attraction, a-b-da, 14, 2, 2, 14, 153, 83, 165, 90, 90, 165, 3, 1.38329
76, 2, wb, attraction, a-b-da, 5, 1, 2, 15, 135, 60, 132, 58, 60, 135, 2, 2.70934
76, 2, wb, attraction, a-b-da, 5, 1, 2, 15, 135, 60, 132, 58, 60, 135, 3, 0.66315
76, 2, wb, attraction, a-b-da, 5, 3, 2, 16, 120, 195, 190, 117, 195, 120, 2, 4.18622
76, 2, wb, attraction, a-b-da, 5, 3, 2, 16, 120, 195, 190, 117, 195, 120, 1, 2.4409
76, 2, wb, filler, NA, 999, 999, 2, 17, 138, 185, 129, 95, 92, 154, 2, 1.24412
76, 2, wb, filler, NA, 999, 999, 2, 17, 138, 185, 129, 95, 92, 154, 1, 0.432965
76, 2, wb, attraction, a-b-da, 9, 3, 2, 18, 195, 120, 120, 195, 186, 114, 3, 3.88546
76, 2, wb, attraction, a-b-da, 9, 3, 2, 18, 195, 120, 120, 195, 186, 114, 1, 0.568242
76, 2, wb, attraction, a-b-db, 2, 1, 2, 19, 59, 134, 135, 60, 60, 135, 2, 5.75933
76, 2, wb, attraction, a-b-db, 2, 1, 2, 19, 59, 134, 135, 60, 60, 135, 3, 1.00611
76, 2, wb, attraction, a-b-da, 5, 2, 2, 20, 165, 90, 161, 88, 90, 165, 2, 4.52381
76, 2, wb, attraction, a-b-da, 5, 2, 2, 20, 165, 90, 161, 88, 90, 165, 3, 1.94031
76, 2, wb, catch, NA, 999, 999, 2, 21, 187, 128, 120, 135, 108, 87, 3, 1.9398
76, 2, wb, catch, NA, 999, 999, 2, 21, 187, 128, 120, 135, 108, 87, 1, 0.380323
76, 2, wb, attraction, a-b-db, 9, 2, 2, 22, 90, 165, 86, 157, 165, 90, 3, 26.6509
76, 2, wb, attraction, a-b-db, 9, 2, 2, 22, 90, 165, 86, 157, 165, 90, 1, 4.88791
76, 2, wb, attraction, a-b-da, 14, 1, 2, 23, 135, 60, 60, 135, 125, 56, 3, 3.53701
76, 2, wb, attraction, a-b-da, 14, 1, 2, 23, 135, 60, 60, 135, 125, 56, 1, 1.35374
76, 2, wb, catch, NA, 999, 999, 2, 24, 95, 160, 75, 120, 138, 177, 2, 1.06532
76, 2, wb, catch, NA, 999, 999, 2, 24, 95, 160, 75, 120, 138, 177, 3, 0.341663
76, 2, wb, filler, NA, 999, 999, 2, 25, 152, 127, 186, 106, 137, 192, 1, 8.63755
76, 2, wb, filler, NA, 999, 999, 2, 25, 152, 127, 186, 106, 137, 192, 3, 0.288688
76, 2, wb, filler, NA, 999, 999, 2, 26, 172, 195, 153, 166, 120, 124, 3, 1.00338
76, 2, wb, filler, NA, 999, 999, 2, 26, 172, 195, 153, 166, 120, 124, 1, 0.714331
76, 2, wb, attraction, a-b-db, 5, 3, 2, 27, 120, 195, 195, 120, 117, 190, 3, 13.1314
76, 2, wb, attraction, a-b-db, 5, 3, 2, 27, 120, 195, 195, 120, 117, 190, 1, 1.27322
76, 2, wb, attraction, a-b-db, 14, 2, 2, 28, 83, 153, 165, 90, 90, 165, 1, 0.987383
76, 2, wb, attraction, a-b-db, 14, 2, 2, 28, 83, 153, 165, 90, 90, 165, 3, 0.642319
76, 2, wb, filler, NA, 999, 999, 2, 29, 59, 58, 87, 178, 138, 170, 1, 0.782093
76, 2, wb, filler, NA, 999, 999, 2, 29, 59, 58, 87, 178, 138, 170, 3, 0.653848
76, 2, wb, attraction, a-b-db, 5, 1, 2, 30, 135, 60, 58, 132, 60, 135, 1, 1.28957
76, 2, wb, attraction, a-b-db, 5, 1, 2, 30, 135, 60, 58, 132, 60, 135, 3, 1.10871
76, 2, wb, attraction, a-b-da, 14, 3, 2, 31, 120, 195, 181, 111, 195, 120, 2, 3.05342
76, 2, wb, attraction, a-b-da, 14, 3, 2, 31, 120, 195, 181, 111, 195, 120, 3, 2.08177
76, 2, wb, attraction, a-b-db, 14, 1, 2, 32, 56, 125, 135, 60, 60, 135, 1, 0.987691
76, 2, wb, attraction, a-b-db, 14, 1, 2, 32, 56, 125, 135, 60, 60, 135, 3, 1.90683
76, 2, wb, filler, NA, 999, 999, 2, 33, 82, 186, 147, 63, 115, 111, 2, 2.93141
76, 2, wb, filler, NA, 999, 999, 2, 33, 82, 186, 147, 63, 115, 111, 1, 0.332574
76, 2, wb, filler, NA, 999, 999, 2, 34, 141, 63, 58, 93, 187, 97, 2, 1.74094
76, 2, wb, filler, NA, 999, 999, 2, 34, 141, 63, 58, 93, 187, 97, 3, 0.661755
76, 2, wb, filler, NA, 999, 999, 2, 35, 86, 74, 143, 122, 182, 194, 1, 0.776835
76, 2, wb, filler, NA, 999, 999, 2, 35, 86, 74, 143, 122, 182, 194, 3, 0.440509
76, 2, wb, attraction, a-b-db, 9, 1, 2, 36, 60, 135, 135, 60, 57, 129, 3, 1.65231
76, 2, wb, attraction, a-b-db, 9, 1, 2, 36, 60, 135, 135, 60, 57, 129, 1, 0.625139
76, 2, wb, attraction, a-b-da, 2, 3, 2, 37, 195, 120, 193, 119, 120, 195, 2, 4.9575
76, 2, wb, attraction, a-b-da, 2, 3, 2, 37, 195, 120, 193, 119, 120, 195, 3, 0.772622
76, 2, wb, catch, NA, 999, 999, 3, 1, 108, 147, 125, 190, 66, 129, 3, 0.978995
76, 2, wb, catch, NA, 999, 999, 3, 1, 108, 147, 125, 190, 66, 129, 2, 0.354634
76, 2, wb, attraction, a-b-db, 5, 2, 3, 2, 90, 165, 165, 90, 88, 161, 2, 8.58647
76, 2, wb, attraction, a-b-db, 5, 2, 3, 2, 90, 165, 165, 90, 88, 161, 1, 0.639838
76, 2, wb, filler, NA, 999, 999, 3, 3, 65, 67, 161, 188, 169, 89, 1, 1.04348
76, 2, wb, filler, NA, 999, 999, 3, 3, 65, 67, 161, 188, 169, 89, 2, 0.40041
76, 2, wb, attraction, a-b-db, 9, 2, 3, 4, 165, 90, 90, 165, 86, 157, 3, 2.92637
76, 2, wb, attraction, a-b-db, 9, 2, 3, 4, 165, 90, 90, 165, 86, 157, 1, 1.57539
76, 2, wb, filler, NA, 999, 999, 3, 5, 170, 149, 91, 110, 78, 137, 2, 2.78153
76, 2, wb, filler, NA, 999, 999, 3, 5, 170, 149, 91, 110, 78, 137, 1, 0.396634
76, 2, wb, attraction, a-b-db, 2, 1, 3, 6, 135, 60, 60, 135, 59, 134, 2, 3.01043
76, 2, wb, attraction, a-b-db, 2, 1, 3, 6, 135, 60, 60, 135, 59, 134, 1, 1.25609
76, 2, wb, catch, NA, 999, 999, 3, 7, 77, 118, 99, 156, 153, 162, 1, 1.70763
76, 2, wb, catch, NA, 999, 999, 3, 7, 77, 118, 99, 156, 153, 162, 3, 0.277742
76, 2, wb, filler, NA, 999, 999, 3, 8, 183, 106, 149, 188, 167, 126, 1, 8.41626
76, 2, wb, filler, NA, 999, 999, 3, 8, 183, 106, 149, 188, 167, 126, 2, 0.260218
76, 2, wb, filler, NA, 999, 999, 3, 9, 84, 91, 76, 67, 166, 76, 2, 1.17548
76, 2, wb, filler, NA, 999, 999, 3, 9, 84, 91, 76, 67, 166, 76, 3, 0.823059
76, 2, wb, attraction, a-b-da, 9, 1, 3, 10, 135, 60, 129, 57, 60, 135, 2, 1.99534
76, 2, wb, attraction, a-b-da, 9, 1, 3, 10, 135, 60, 129, 57, 60, 135, 3, 1.59403
76, 2, wb, attraction, a-b-da, 14, 2, 3, 11, 165, 90, 153, 83, 90, 165, 2, 2.36758
76, 2, wb, attraction, a-b-da, 14, 2, 3, 11, 165, 90, 153, 83, 90, 165, 3, 0.631363
76, 2, wb, attraction, a-b-db, 5, 3, 3, 12, 120, 195, 117, 190, 195, 120, 2, 3.32394
76, 2, wb, attraction, a-b-db, 5, 3, 3, 12, 120, 195, 117, 190, 195, 120, 1, 0.780772
76, 2, wb, attraction, a-b-da, 5, 2, 3, 13, 90, 165, 165, 90, 161, 88, 2, 5.13117
76, 2, wb, attraction, a-b-da, 5, 2, 3, 13, 90, 165, 165, 90, 161, 88, 1, 0.699566
76, 2, wb, attraction, a-b-db, 2, 3, 3, 14, 195, 120, 119, 193, 120, 195, 2, 9.8692
76, 2, wb, attraction, a-b-db, 2, 3, 3, 14, 195, 120, 119, 193, 120, 195, 3, 1.75073
76, 2, wb, catch, NA, 999, 999, 3, 15, 169, 146, 106, 149, 132, 63, 3, 1.78218
76, 2, wb, catch, NA, 999, 999, 3, 15, 169, 146, 106, 149, 132, 63, 1, 0.405655
76, 2, wb, filler, NA, 999, 999, 3, 16, 185, 108, 85, 185, 73, 95, 3, 1.03538
76, 2, wb, filler, NA, 999, 999, 3, 16, 185, 108, 85, 185, 73, 95, 1, 1.11314
76, 2, wb, attraction, a-b-db, 9, 1, 3, 17, 60, 135, 57, 129, 135, 60, 3, 3.06612
76, 2, wb, attraction, a-b-db, 9, 1, 3, 17, 60, 135, 57, 129, 135, 60, 1, 0.493699
76, 2, wb, attraction, a-b-db, 14, 2, 3, 18, 90, 165, 83, 153, 165, 90, 3, 2.14346
76, 2, wb, attraction, a-b-db, 14, 2, 3, 18, 90, 165, 83, 153, 165, 90, 1, 0.58408
76, 2, wb, attraction, a-b-da, 2, 2, 3, 19, 90, 165, 163, 89, 165, 90, 2, 6.23849
76, 2, wb, attraction, a-b-da, 2, 2, 3, 19, 90, 165, 163, 89, 165, 90, 1, 0.409849
76, 2, wb, filler, NA, 999, 999, 3, 20, 182, 56, 149, 147, 147, 90, 1, 1.84707
76, 2, wb, filler, NA, 999, 999, 3, 20, 182, 56, 149, 147, 147, 90, 2, 1.74779
76, 2, wb, attraction, a-b-da, 2, 3, 3, 21, 195, 120, 193, 119, 120, 195, 3, 4.40314
76, 2, wb, attraction, a-b-da, 2, 3, 3, 21, 195, 120, 193, 119, 120, 195, 2, 1.05708
76, 2, wb, filler, NA, 999, 999, 3, 22, 92, 153, 65, 185, 170, 119, 2, 1.05203
76, 2, wb, filler, NA, 999, 999, 3, 22, 92, 153, 65, 185, 170, 119, 3, 0.67304
76, 2, wb, attraction, a-b-db, 5, 1, 3, 23, 135, 60, 60, 135, 58, 132, 2, 5.0035
76, 2, wb, attraction, a-b-db, 5, 1, 3, 23, 135, 60, 60, 135, 58, 132, 1, 1.05716
76, 2, wb, filler, NA, 999, 999, 3, 24, 165, 126, 149, 181, 144, 135, 1, 7.9641
76, 2, wb, filler, NA, 999, 999, 3, 24, 165, 126, 149, 181, 144, 135, 2, 0.298246
76, 2, wb, attraction, a-b-db, 2, 2, 3, 25, 90, 165, 165, 90, 89, 163, 2, 3.92826
76, 2, wb, attraction, a-b-db, 2, 2, 3, 25, 90, 165, 165, 90, 89, 163, 3, 2.50088
76, 2, wb, attraction, a-b-da, 2, 1, 3, 26, 60, 135, 134, 59, 135, 60, 3, 1.95006
76, 2, wb, attraction, a-b-da, 2, 1, 3, 26, 60, 135, 134, 59, 135, 60, 1, 0.670746
76, 2, wb, attraction, a-b-db, 9, 3, 3, 27, 114, 186, 120, 195, 195, 120, 1, 10.4578
76, 2, wb, attraction, a-b-db, 9, 3, 3, 27, 114, 186, 120, 195, 195, 120, 2, 0.299134
76, 2, wb, attraction, a-b-da, 14, 3, 3, 28, 195, 120, 181, 111, 120, 195, 2, 10.3811
76, 2, wb, attraction, a-b-da, 14, 3, 3, 28, 195, 120, 181, 111, 120, 195, 3, 0.289707
76, 2, wb, attraction, a-b-da, 9, 2, 3, 29, 90, 165, 157, 86, 165, 90, 2, 2.95577
76, 2, wb, attraction, a-b-da, 9, 2, 3, 29, 90, 165, 157, 86, 165, 90, 1, 0.963244
76, 2, wb, attraction, a-b-da, 5, 3, 3, 30, 195, 120, 120, 195, 190, 117, 3, 8.69027
76, 2, wb, attraction, a-b-da, 5, 3, 3, 30, 195, 120, 120, 195, 190, 117, 2, 4.00296
76, 2, wb, attraction, a-b-db, 14, 3, 3, 31, 195, 120, 111, 181, 120, 195, 2, 4.88746
76, 2, wb, attraction, a-b-db, 14, 3, 3, 31, 195, 120, 111, 181, 120, 195, 1, 1.72993
76, 2, wb, filler, NA, 999, 999, 3, 32, 96, 184, 85, 149, 179, 61, 3, 2.26603
76, 2, wb, filler, NA, 999, 999, 3, 32, 96, 184, 85, 149, 179, 61, 1, 0.493917
76, 2, wb, attraction, a-b-da, 5, 1, 3, 33, 135, 60, 60, 135, 132, 58, 3, 4.43191
76, 2, wb, attraction, a-b-da, 5, 1, 3, 33, 135, 60, 60, 135, 132, 58, 1, 3.65231
76, 2, wb, attraction, a-b-da, 9, 3, 3, 34, 120, 195, 195, 120, 186, 114, 3, 2.67116
76, 2, wb, attraction, a-b-da, 9, 3, 3, 34, 120, 195, 195, 120, 186, 114, 1, 0.418284
76, 2, wb, filler, NA, 999, 999, 3, 35, 181, 158, 81, 193, 188, 130, 2, 1.84758
76, 2, wb, filler, NA, 999, 999, 3, 35, 181, 158, 81, 193, 188, 130, 1, 0.884186
76, 2, wb, attraction, a-b-da, 14, 1, 3, 36, 60, 135, 125, 56, 135, 60, 2, 13.9904
76, 2, wb, attraction, a-b-da, 14, 1, 3, 36, 60, 135, 125, 56, 135, 60, 3, 0.754093
76, 2, wb, attraction, a-b-db, 14, 1, 3, 37, 56, 125, 60, 135, 135, 60, 1, 4.60185
76, 2, wb, attraction, a-b-db, 14, 1, 3, 37, 56, 125, 60, 135, 135, 60, 2, 1.30376
76, 2, wb, catch, NA, 999, 999, 4, 1, 135, 60, 90, 165, 158, 157, 1, 1.10524
76, 2, wb, catch, NA, 999, 999, 4, 1, 135, 60, 90, 165, 158, 157, 3, 1.08358
76, 2, wb, attraction, a-b-da, 9, 2, 4, 2, 165, 90, 90, 165, 157, 86, 3, 1.51784
76, 2, wb, attraction, a-b-da, 9, 2, 4, 2, 165, 90, 90, 165, 157, 86, 1, 1.27193
76, 2, wb, attraction, a-b-db, 14, 3, 4, 3, 120, 195, 195, 120, 111, 181, 3, 2.78686
76, 2, wb, attraction, a-b-db, 14, 3, 4, 3, 120, 195, 195, 120, 111, 181, 1, 1.258
76, 2, wb, attraction, a-b-da, 5, 2, 4, 4, 165, 90, 161, 88, 90, 165, 1, 4.13282
76, 2, wb, attraction, a-b-da, 5, 2, 4, 4, 165, 90, 161, 88, 90, 165, 3, 0.44558
76, 2, wb, attraction, a-b-da, 5, 3, 4, 5, 195, 120, 190, 117, 120, 195, 2, 5.64149
76, 2, wb, attraction, a-b-da, 5, 3, 4, 5, 195, 120, 190, 117, 120, 195, 3, 3.68483
76, 2, wb, attraction, a-b-da, 9, 1, 4, 6, 60, 135, 135, 60, 129, 57, 3, 1.83029
76, 2, wb, attraction, a-b-da, 9, 1, 4, 6, 60, 135, 135, 60, 129, 57, 1, 0.803776
76, 2, wb, filler, NA, 999, 999, 4, 7, 184, 126, 128, 97, 112, 153, 2, 1.87341
76, 2, wb, filler, NA, 999, 999, 4, 7, 184, 126, 128, 97, 112, 153, 1, 0.380836
76, 2, wb, filler, NA, 999, 999, 4, 8, 183, 94, 168, 83, 178, 135, 2, 1.97929
76, 2, wb, filler, NA, 999, 999, 4, 8, 183, 94, 168, 83, 178, 135, 3, 0.530611
76, 2, wb, attraction, a-b-da, 2, 3, 4, 9, 120, 195, 195, 120, 193, 119, 3, 5.11526
76, 2, wb, attraction, a-b-da, 2, 3, 4, 9, 120, 195, 195, 120, 193, 119, 1, 0.948087
76, 2, wb, attraction, a-b-da, 2, 2, 4, 10, 163, 89, 90, 165, 165, 90, 3, 3.87578
76, 2, wb, attraction, a-b-da, 2, 2, 4, 10, 163, 89, 90, 165, 165, 90, 1, 4.18253
76, 2, wb, attraction, a-b-db, 14, 2, 4, 11, 83, 153, 90, 165, 165, 90, 1, 5.03592
76, 2, wb, attraction, a-b-db, 14, 2, 4, 11, 83, 153, 90, 165, 165, 90, 3, 1.39219
76, 2, wb, attraction, a-b-db, 5, 2, 4, 12, 165, 90, 88, 161, 90, 165, 2, 1.68578
76, 2, wb, attraction, a-b-db, 5, 2, 4, 12, 165, 90, 88, 161, 90, 165, 1, 3.89732
76, 2, wb, attraction, a-b-da, 14, 1, 4, 13, 125, 56, 135, 60, 60, 135, 1, 1.114
76, 2, wb, attraction, a-b-da, 14, 1, 4, 13, 125, 56, 135, 60, 60, 135, 2, 2.15635
76, 2, wb, filler, NA, 999, 999, 4, 14, 112, 145, 118, 180, 191, 66, 1, 2.01948
76, 2, wb, filler, NA, 999, 999, 4, 14, 112, 145, 118, 180, 191, 66, 2, 0.74549
76, 2, wb, filler, NA, 999, 999, 4, 15, 56, 73, 173, 79, 107, 138, 1, 1.00115
76, 2, wb, filler, NA, 999, 999, 4, 15, 56, 73, 173, 79, 107, 138, 3, 1.01613
76, 2, wb, attraction, a-b-db, 2, 3, 4, 16, 119, 193, 195, 120, 120, 195, 3, 3.84513
76, 2, wb, attraction, a-b-db, 2, 3, 4, 16, 119, 193, 195, 120, 120, 195, 1, 1.56919
76, 2, wb, attraction, a-b-db, 5, 1, 4, 17, 58, 132, 135, 60, 60, 135, 2, 5.13607
76, 2, wb, attraction, a-b-db, 5, 1, 4, 17, 58, 132, 135, 60, 60, 135, 3, 1.07243
76, 2, wb, filler, NA, 999, 999, 4, 18, 114, 104, 182, 138, 157, 66, 3, 4.49938
76, 2, wb, filler, NA, 999, 999, 4, 18, 114, 104, 182, 138, 157, 66, 2, 0.429344
76, 2, wb, filler, NA, 999, 999, 4, 19, 139, 130, 152, 188, 100, 191, 1, 3.06583
76, 2, wb, filler, NA, 999, 999, 4, 19, 139, 130, 152, 188, 100, 191, 2, 1.05349
76, 2, wb, attraction, a-b-db, 2, 2, 4, 20, 90, 165, 89, 163, 165, 90, 3, 1.6011
76, 2, wb, attraction, a-b-db, 2, 2, 4, 20, 90, 165, 89, 163, 165, 90, 1, 0.647842
76, 2, wb, filler, NA, 999, 999, 4, 21, 123, 90, 194, 137, 113, 140, 1, 1.85965
76, 2, wb, filler, NA, 999, 999, 4, 21, 123, 90, 194, 137, 113, 140, 2, 0.511636
76, 2, wb, attraction, a-b-db, 2, 1, 4, 22, 59, 134, 60, 135, 135, 60, 3, 3.4807
76, 2, wb, attraction, a-b-db, 2, 1, 4, 22, 59, 134, 60, 135, 135, 60, 1, 0.595621
76, 2, wb, attraction, a-b-db, 14, 1, 4, 23, 56, 125, 135, 60, 60, 135, 1, 2.1215
76, 2, wb, attraction, a-b-db, 14, 1, 4, 23, 56, 125, 135, 60, 60, 135, 3, 1.40267
76, 2, wb, attraction, a-b-db, 9, 2, 4, 24, 86, 157, 165, 90, 90, 165, 3, 4.32016
76, 2, wb, attraction, a-b-db, 9, 2, 4, 24, 86, 157, 165, 90, 90, 165, 2, 0.737526
76, 2, wb, attraction, a-b-db, 9, 3, 4, 25, 195, 120, 120, 195, 114, 186, 1, 5.20186
76, 2, wb, attraction, a-b-db, 9, 3, 4, 25, 195, 120, 120, 195, 114, 186, 2, 1.45547
76, 2, wb, filler, NA, 999, 999, 4, 26, 189, 165, 67, 119, 61, 156, 2, 1.49093
76, 2, wb, filler, NA, 999, 999, 4, 26, 189, 165, 67, 119, 61, 156, 1, 0.34178
76, 2, wb, attraction, a-b-da, 2, 1, 4, 27, 135, 60, 60, 135, 134, 59, 2, 3.46963
76, 2, wb, attraction, a-b-da, 2, 1, 4, 27, 135, 60, 60, 135, 134, 59, 1, 2.02735
76, 2, wb, catch, NA, 999, 999, 4, 28, 181, 134, 108, 147, 121, 74, 3, 0.789202
76, 2, wb, catch, NA, 999, 999, 4, 28, 181, 134, 108, 147, 121, 74, 1, 0.692356
76, 2, wb, attraction, a-b-db, 5, 3, 4, 29, 120, 195, 195, 120, 117, 190, 2, 3.87007
76, 2, wb, attraction, a-b-db, 5, 3, 4, 29, 120, 195, 195, 120, 117, 190, 1, 0.393517
76, 2, wb, attraction, a-b-da, 5, 1, 4, 30, 132, 58, 135, 60, 60, 135, 3, 2.88741
76, 2, wb, attraction, a-b-da, 5, 1, 4, 30, 132, 58, 135, 60, 60, 135, 1, 1.72162
76, 2, wb, filler, NA, 999, 999, 4, 31, 134, 136, 81, 144, 109, 136, 2, 2.29055
76, 2, wb, filler, NA, 999, 999, 4, 31, 134, 136, 81, 144, 109, 136, 1, 0.413088
76, 2, wb, attraction, a-b-da, 14, 3, 4, 32, 120, 195, 181, 111, 195, 120, 2, 4.19412
76, 2, wb, attraction, a-b-da, 14, 3, 4, 32, 120, 195, 181, 111, 195, 120, 3, 0.752234
76, 2, wb, attraction, a-b-db, 9, 1, 4, 33, 60, 135, 135, 60, 57, 129, 3, 9.05587
76, 2, wb, attraction, a-b-db, 9, 1, 4, 33, 60, 135, 135, 60, 57, 129, 1, 0.850332
76, 2, wb, attraction, a-b-da, 14, 2, 4, 34, 165, 90, 153, 83, 90, 165, 2, 1.79003
76, 2, wb, attraction, a-b-da, 14, 2, 4, 34, 165, 90, 153, 83, 90, 165, 1, 1.24469
76, 2, wb, filler, NA, 999, 999, 4, 35, 179, 158, 72, 70, 145, 57, 2, 0.840323
76, 2, wb, filler, NA, 999, 999, 4, 35, 179, 158, 72, 70, 145, 57, 1, 0.573267
76, 2, wb, attraction, a-b-da, 9, 3, 4, 36, 120, 195, 186, 114, 195, 120, 2, 3.60376
76, 2, wb, attraction, a-b-da, 9, 3, 4, 36, 120, 195, 186, 114, 195, 120, 3, 1.21014
76, 2, wb, catch, NA, 999, 999, 4, 37, 125, 130, 102, 93, 182, 133, 2, 0.87078
76, 2, wb, catch, NA, 999, 999, 4, 37, 125, 130, 102, 93, 182, 133, 3, 0.714651
76, 2, wb, filler, NA, 999, 999, 5, 1, 68, 109, 107, 82, 179, 91, 1, 8.56214
76, 2, wb, filler, NA, 999, 999, 5, 1, 68, 109, 107, 82, 179, 91, 3, 1.04825
76, 2, wb, attraction, a-b-db, 5, 3, 5, 2, 195, 120, 117, 190, 120, 195, 1, 7.45981
76, 2, wb, attraction, a-b-db, 5, 3, 5, 2, 195, 120, 117, 190, 120, 195, 3, 0.34211
76, 2, wb, attraction, a-b-da, 14, 1, 5, 3, 135, 60, 125, 56, 60, 135, 2, 2.99815
76, 2, wb, attraction, a-b-da, 14, 1, 5, 3, 135, 60, 125, 56, 60, 135, 3, 0.404247
76, 2, wb, attraction, a-b-db, 2, 1, 5, 4, 135, 60, 59, 134, 60, 135, 2, 4.12214
76, 2, wb, attraction, a-b-db, 2, 1, 5, 4, 135, 60, 59, 134, 60, 135, 3, 1.25888
76, 2, wb, attraction, a-b-db, 2, 2, 5, 5, 90, 165, 165, 90, 89, 163, 2, 2.59785
76, 2, wb, attraction, a-b-db, 2, 2, 5, 5, 90, 165, 165, 90, 89, 163, 1, 2.21211
76, 2, wb, attraction, a-b-da, 9, 2, 5, 6, 90, 165, 165, 90, 157, 86, 1, 4.93678
76, 2, wb, attraction, a-b-da, 9, 2, 5, 6, 90, 165, 165, 90, 157, 86, 2, 0.545212
76, 2, wb, attraction, a-b-db, 5, 1, 5, 7, 58, 132, 60, 135, 135, 60, 1, 8.80902
76, 2, wb, attraction, a-b-db, 5, 1, 5, 7, 58, 132, 60, 135, 135, 60, 2, 0.66086
76, 2, wb, attraction, a-b-db, 2, 3, 5, 8, 119, 193, 120, 195, 195, 120, 3, 2.44
76, 2, wb, attraction, a-b-db, 2, 3, 5, 8, 119, 193, 120, 195, 195, 120, 2, 2.06048
76, 2, wb, catch, NA, 999, 999, 5, 9, 123, 192, 164, 91, 96, 99, 3, 0.959032
76, 2, wb, catch, NA, 999, 999, 5, 9, 123, 192, 164, 91, 96, 99, 1, 0.391416
76, 2, wb, filler, NA, 999, 999, 5, 10, 160, 132, 177, 151, 162, 101, 3, 1.22127
76, 2, wb, filler, NA, 999, 999, 5, 10, 160, 132, 177, 151, 162, 101, 2, 1.19484
76, 2, wb, attraction, a-b-da, 2, 2, 5, 11, 163, 89, 165, 90, 90, 165, 1, 3.36042
76, 2, wb, attraction, a-b-da, 2, 2, 5, 11, 163, 89, 165, 90, 90, 165, 3, 0.504004
76, 2, wb, filler, NA, 999, 999, 5, 12, 114, 60, 128, 187, 119, 87, 1, 0.913785
76, 2, wb, filler, NA, 999, 999, 5, 12, 114, 60, 128, 187, 119, 87, 2, 0.748104
76, 2, wb, attraction, a-b-da, 14, 3, 5, 13, 120, 195, 195, 120, 181, 111, 3, 1.44384
76, 2, wb, attraction, a-b-da, 14, 3, 5, 13, 120, 195, 195, 120, 181, 111, 1, 0.680707
76, 2, wb, filler, NA, 999, 999, 5, 14, 192, 136, 101, 149, 109, 112, 3, 2.83513
76, 2, wb, filler, NA, 999, 999, 5, 14, 192, 136, 101, 149, 109, 112, 1, 0.520164
76, 2, wb, attraction, a-b-da, 5, 1, 5, 15, 60, 135, 132, 58, 135, 60, 3, 4.08137
76, 2, wb, attraction, a-b-da, 5, 1, 5, 15, 60, 135, 132, 58, 135, 60, 1, 0.411986
76, 2, wb, attraction, a-b-da, 9, 3, 5, 16, 186, 114, 120, 195, 195, 120, 1, 1.68115
76, 2, wb, attraction, a-b-da, 9, 3, 5, 16, 186, 114, 120, 195, 195, 120, 3, 3.21266
76, 2, wb, filler, NA, 999, 999, 5, 17, 105, 144, 94, 115, 76, 151, 3, 1.94485
76, 2, wb, filler, NA, 999, 999, 5, 17, 105, 144, 94, 115, 76, 151, 1, 0.313508
76, 2, wb, filler, NA, 999, 999, 5, 18, 96, 94, 190, 87, 122, 140, 1, 3.31477
76, 2, wb, filler, NA, 999, 999, 5, 18, 96, 94, 190, 87, 122, 140, 3, 0.684435
76, 2, wb, catch, NA, 999, 999, 5, 19, 82, 113, 194, 121, 104, 151, 1, 4.72688
76, 2, wb, catch, NA, 999, 999, 5, 19, 82, 113, 194, 121, 104, 151, 2, 0.679192
76, 2, wb, attraction, a-b-da, 14, 2, 5, 20, 90, 165, 153, 83, 165, 90, 2, 2.58565
76, 2, wb, attraction, a-b-da, 14, 2, 5, 20, 90, 165, 153, 83, 165, 90, 3, 1.38484
76, 2, wb, attraction, a-b-da, 5, 3, 5, 21, 190, 117, 120, 195, 195, 120, 1, 3.73498
76, 2, wb, attraction, a-b-da, 5, 3, 5, 21, 190, 117, 120, 195, 195, 120, 3, 0.511774
76, 2, wb, attraction, a-b-db, 14, 1, 5, 22, 60, 135, 135, 60, 56, 125, 3, 2.31292
76, 2, wb, attraction, a-b-db, 14, 1, 5, 22, 60, 135, 135, 60, 56, 125, 1, 0.442777
76, 2, wb, attraction, a-b-da, 9, 1, 5, 23, 60, 135, 135, 60, 129, 57, 3, 2.20659
76, 2, wb, attraction, a-b-da, 9, 1, 5, 23, 60, 135, 135, 60, 129, 57, 1, 0.820512
76, 2, wb, attraction, a-b-da, 5, 2, 5, 24, 165, 90, 161, 88, 90, 165, 2, 4.11368
76, 2, wb, attraction, a-b-da, 5, 2, 5, 24, 165, 90, 161, 88, 90, 165, 3, 0.691111
76, 2, wb, attraction, a-b-da, 2, 1, 5, 25, 134, 59, 60, 135, 135, 60, 2, 4.25277
76, 2, wb, attraction, a-b-da, 2, 1, 5, 25, 134, 59, 60, 135, 135, 60, 1, 2.00058
76, 2, wb, catch, NA, 999, 999, 5, 26, 152, 163, 70, 125, 156, 99, 2, 1.98989
76, 2, wb, catch, NA, 999, 999, 5, 26, 152, 163, 70, 125, 156, 99, 1, 0.492579
76, 2, wb, attraction, a-b-db, 9, 3, 5, 27, 114, 186, 195, 120, 120, 195, 2, 6.64644
76, 2, wb, attraction, a-b-db, 9, 3, 5, 27, 114, 186, 195, 120, 120, 195, 3, 1.76965
76, 2, wb, filler, NA, 999, 999, 5, 28, 191, 154, 108, 86, 111, 72, 3, 1.22432
76, 2, wb, filler, NA, 999, 999, 5, 28, 191, 154, 108, 86, 111, 72, 1, 0.437882
76, 2, wb, attraction, a-b-db, 5, 2, 5, 29, 88, 161, 165, 90, 90, 165, 1, 2.21839
76, 2, wb, attraction, a-b-db, 5, 2, 5, 29, 88, 161, 165, 90, 90, 165, 2, 0.760316
76, 2, wb, attraction, a-b-db, 9, 1, 5, 30, 57, 129, 60, 135, 135, 60, 3, 3.21547
76, 2, wb, attraction, a-b-db, 9, 1, 5, 30, 57, 129, 60, 135, 135, 60, 2, 0.461046
76, 2, wb, filler, NA, 999, 999, 5, 31, 167, 165, 73, 142, 87, 96, 3, 1.16831
76, 2, wb, filler, NA, 999, 999, 5, 31, 167, 165, 73, 142, 87, 96, 1, 0.352451
76, 2, wb, attraction, a-b-db, 14, 3, 5, 32, 111, 181, 195, 120, 120, 195, 1, 1.76831
76, 2, wb, attraction, a-b-db, 14, 3, 5, 32, 111, 181, 195, 120, 120, 195, 3, 0.560442
76, 2, wb, attraction, a-b-db, 9, 2, 5, 33, 90, 165, 165, 90, 86, 157, 3, 2.48746
76, 2, wb, attraction, a-b-db, 9, 2, 5, 33, 90, 165, 165, 90, 86, 157, 2, 1.46674
76, 2, wb, filler, NA, 999, 999, 5, 34, 105, 82, 136, 148, 98, 63, 3, 0.677556
76, 2, wb, filler, NA, 999, 999, 5, 34, 105, 82, 136, 148, 98, 63, 2, 0.569233
76, 2, wb, attraction, a-b-da, 2, 3, 5, 35, 195, 120, 120, 195, 193, 119, 3, 7.58442
76, 2, wb, attraction, a-b-da, 2, 3, 5, 35, 195, 120, 120, 195, 193, 119, 2, 0.558092
76, 2, wb, attraction, a-b-db, 14, 2, 5, 36, 90, 165, 165, 90, 83, 153, 3, 1.13316
76, 2, wb, attraction, a-b-db, 14, 2, 5, 36, 90, 165, 165, 90, 83, 153, 1, 0.606826
76, 2, wb, filler, NA, 999, 999, 5, 37, 136, 148, 192, 138, 186, 173, 1, 2.94777
76, 2, wb, filler, NA, 999, 999, 5, 37, 136, 148, 192, 138, 186, 173, 3, 0.380213
76, 2, wb, attraction, a-b-da, 9, 1, 6, 1, 60, 135, 135, 60, 129, 57, 2, 2.21874
76, 2, wb, attraction, a-b-da, 9, 1, 6, 1, 60, 135, 135, 60, 129, 57, 1, 0.856561
76, 2, wb, attraction, a-b-db, 5, 3, 6, 2, 117, 190, 195, 120, 120, 195, 2, 7.80362
76, 2, wb, attraction, a-b-db, 5, 3, 6, 2, 117, 190, 195, 120, 120, 195, 3, 0.336474
76, 2, wb, attraction, a-b-da, 5, 3, 6, 3, 120, 195, 190, 117, 195, 120, 2, 1.65703
76, 2, wb, attraction, a-b-da, 5, 3, 6, 3, 120, 195, 190, 117, 195, 120, 1, 2.53318
76, 2, wb, attraction, a-b-da, 5, 2, 6, 4, 161, 88, 90, 165, 165, 90, 1, 5.61294
76, 2, wb, attraction, a-b-da, 5, 2, 6, 4, 161, 88, 90, 165, 165, 90, 2, 0.457746
76, 2, wb, attraction, a-b-db, 2, 3, 6, 5, 119, 193, 195, 120, 120, 195, 2, 15.7329
76, 2, wb, attraction, a-b-db, 2, 3, 6, 5, 119, 193, 195, 120, 120, 195, 3, 0.441983
76, 2, wb, catch, NA, 999, 999, 6, 6, 189, 126, 122, 73, 155, 100, 2, 0.797711
76, 2, wb, catch, NA, 999, 999, 6, 6, 189, 126, 122, 73, 155, 100, 1, 0.332808
76, 2, wb, filler, NA, 999, 999, 6, 7, 159, 106, 137, 187, 174, 99, 3, 3.0293
76, 2, wb, filler, NA, 999, 999, 6, 7, 159, 106, 137, 187, 174, 99, 2, 0.386379
76, 2, wb, attraction, a-b-db, 9, 3, 6, 8, 114, 186, 195, 120, 120, 195, 1, 3.95284
76, 2, wb, attraction, a-b-db, 9, 3, 6, 8, 114, 186, 195, 120, 120, 195, 3, 1.02487
76, 2, wb, filler, NA, 999, 999, 6, 9, 179, 133, 191, 57, 83, 145, 2, 3.43717
76, 2, wb, filler, NA, 999, 999, 6, 9, 179, 133, 191, 57, 83, 145, 1, 1.13014
76, 2, wb, attraction, a-b-da, 9, 2, 6, 10, 165, 90, 157, 86, 90, 165, 2, 2.92237
76, 2, wb, attraction, a-b-da, 9, 2, 6, 10, 165, 90, 157, 86, 90, 165, 1, 1.25153
76, 2, wb, attraction, a-b-db, 9, 2, 6, 11, 86, 157, 165, 90, 90, 165, 1, 2.24692
76, 2, wb, attraction, a-b-db, 9, 2, 6, 11, 86, 157, 165, 90, 90, 165, 3, 1.43554
76, 2, wb, attraction, a-b-da, 2, 1, 6, 12, 135, 60, 134, 59, 60, 135, 3, 3.23975
76, 2, wb, attraction, a-b-da, 2, 1, 6, 12, 135, 60, 134, 59, 60, 135, 1, 0.692006
76, 2, wb, attraction, a-b-da, 5, 1, 6, 13, 135, 60, 60, 135, 132, 58, 3, 1.92588
76, 2, wb, attraction, a-b-da, 5, 1, 6, 13, 135, 60, 60, 135, 132, 58, 1, 1.43915
76, 2, wb, attraction, a-b-db, 2, 1, 6, 14, 60, 135, 135, 60, 59, 134, 3, 1.74734
76, 2, wb, attraction, a-b-db, 2, 1, 6, 14, 60, 135, 135, 60, 59, 134, 1, 0.900041
76, 2, wb, catch, NA, 999, 999, 6, 15, 179, 136, 117, 138, 106, 89, 3, 1.16573
76, 2, wb, catch, NA, 999, 999, 6, 15, 179, 136, 117, 138, 106, 89, 1, 1.18209
76, 2, wb, filler, NA, 999, 999, 6, 16, 76, 190, 100, 73, 105, 97, 2, 1.51631
76, 2, wb, filler, NA, 999, 999, 6, 16, 76, 190, 100, 73, 105, 97, 1, 0.734444
76, 2, wb, filler, NA, 999, 999, 6, 17, 79, 144, 132, 182, 164, 160, 1, 1.07075
76, 2, wb, filler, NA, 999, 999, 6, 17, 79, 144, 132, 182, 164, 160, 2, 1.91449
76, 2, wb, attraction, a-b-da, 2, 3, 6, 18, 120, 195, 195, 120, 193, 119, 3, 5.68314
76, 2, wb, attraction, a-b-da, 2, 3, 6, 18, 120, 195, 195, 120, 193, 119, 1, 1.26137
76, 2, wb, attraction, a-b-db, 9, 1, 6, 19, 135, 60, 57, 129, 60, 135, 2, 1.8242
76, 2, wb, attraction, a-b-db, 9, 1, 6, 19, 135, 60, 57, 129, 60, 135, 3, 1.80572
76, 2, wb, attraction, a-b-db, 14, 1, 6, 20, 56, 125, 60, 135, 135, 60, 1, 1.58693
76, 2, wb, attraction, a-b-db, 14, 1, 6, 20, 56, 125, 60, 135, 135, 60, 2, 1.19371
76, 2, wb, attraction, a-b-db, 5, 1, 6, 21, 60, 135, 135, 60, 58, 132, 3, 1.39933
76, 2, wb, attraction, a-b-db, 5, 1, 6, 21, 60, 135, 135, 60, 58, 132, 2, 0.798202
76, 2, wb, catch, NA, 999, 999, 6, 22, 160, 155, 135, 120, 78, 117, 3, 0.940037
76, 2, wb, catch, NA, 999, 999, 6, 22, 160, 155, 135, 120, 78, 117, 1, 0.652961
76, 2, wb, filler, NA, 999, 999, 6, 23, 104, 185, 147, 95, 185, 152, 2, 1.38477
76, 2, wb, filler, NA, 999, 999, 6, 23, 104, 185, 147, 95, 185, 152, 3, 0.712169
76, 2, wb, attraction, a-b-db, 5, 2, 6, 24, 90, 165, 165, 90, 88, 161, 2, 3.66519
76, 2, wb, attraction, a-b-db, 5, 2, 6, 24, 90, 165, 165, 90, 88, 161, 1, 0.604738
76, 2, wb, attraction, a-b-da, 2, 2, 6, 25, 90, 165, 163, 89, 165, 90, 2, 3.32243
76, 2, wb, attraction, a-b-da, 2, 2, 6, 25, 90, 165, 163, 89, 165, 90, 1, 1.34737
76, 2, wb, attraction, a-b-db, 14, 2, 6, 26, 90, 165, 83, 153, 165, 90, 2, 2.01903
76, 2, wb, attraction, a-b-db, 14, 2, 6, 26, 90, 165, 83, 153, 165, 90, 3, 0.776918
76, 2, wb, attraction, a-b-db, 2, 2, 6, 27, 165, 90, 90, 165, 89, 163, 3, 2.37547
76, 2, wb, attraction, a-b-db, 2, 2, 6, 27, 165, 90, 90, 165, 89, 163, 1, 0.710566
76, 2, wb, attraction, a-b-da, 9, 3, 6, 28, 186, 114, 195, 120, 120, 195, 1, 1.11952
76, 2, wb, attraction, a-b-da, 9, 3, 6, 28, 186, 114, 195, 120, 120, 195, 3, 1.23389
76, 2, wb, filler, NA, 999, 999, 6, 29, 91, 106, 56, 94, 128, 67, 2, 0.822113
76, 2, wb, filler, NA, 999, 999, 6, 29, 91, 106, 56, 94, 128, 67, 1, 1.86777
76, 2, wb, attraction, a-b-db, 14, 3, 6, 30, 111, 181, 195, 120, 120, 195, 1, 1.55854
76, 2, wb, attraction, a-b-db, 14, 3, 6, 30, 111, 181, 195, 120, 120, 195, 2, 0.718669
76, 2, wb, attraction, a-b-da, 14, 2, 6, 31, 90, 165, 153, 83, 165, 90, 2, 2.03972
76, 2, wb, attraction, a-b-da, 14, 2, 6, 31, 90, 165, 153, 83, 165, 90, 3, 2.72441
76, 2, wb, attraction, a-b-da, 14, 1, 6, 32, 60, 135, 135, 60, 125, 56, 3, 2.07605
76, 2, wb, attraction, a-b-da, 14, 1, 6, 32, 60, 135, 135, 60, 125, 56, 1, 0.375485
76, 2, wb, filler, NA, 999, 999, 6, 33, 60, 158, 154, 101, 86, 69, 3, 0.933935
76, 2, wb, filler, NA, 999, 999, 6, 33, 60, 158, 154, 101, 86, 69, 2, 0.215636
76, 2, wb, filler, NA, 999, 999, 6, 34, 131, 166, 106, 64, 108, 80, 2, 0.900811
76, 2, wb, filler, NA, 999, 999, 6, 34, 131, 166, 106, 64, 108, 80, 1, 0.303874
76, 2, wb, filler, NA, 999, 999, 6, 35, 99, 98, 126, 193, 107, 73, 3, 1.04163
76, 2, wb, filler, NA, 999, 999, 6, 35, 99, 98, 126, 193, 107, 73, 2, 0.25477
76, 2, wb, attraction, a-b-da, 14, 3, 6, 36, 181, 111, 195, 120, 120, 195, 1, 1.53845
76, 2, wb, attraction, a-b-da, 14, 3, 6, 36, 181, 111, 195, 120, 120, 195, 3, 0.467502
76, 2, wb, filler, NA, 999, 999, 6, 37, 118, 165, 184, 133, 170, 88, 3, 1.85466
76, 2, wb, filler, NA, 999, 999, 6, 37, 118, 165, 184, 133, 170, 88, 2, 0.258546
76, 2, wb, attraction, a-b-db, 14, 1, 7, 1, 135, 60, 60, 135, 56, 125, 3, 7.24572
76, 2, wb, attraction, a-b-db, 14, 1, 7, 1, 135, 60, 60, 135, 56, 125, 1, 2.16082
76, 2, wb, attraction, a-b-da, 2, 3, 7, 2, 195, 120, 120, 195, 193, 119, 3, 1.83152
76, 2, wb, attraction, a-b-da, 2, 3, 7, 2, 195, 120, 120, 195, 193, 119, 1, 1.81281
76, 2, wb, attraction, a-b-db, 5, 1, 7, 3, 135, 60, 60, 135, 58, 132, 3, 5.06552
76, 2, wb, attraction, a-b-db, 5, 1, 7, 3, 135, 60, 60, 135, 58, 132, 1, 1.56467
76, 2, wb, attraction, a-b-db, 14, 2, 7, 4, 165, 90, 83, 153, 90, 165, 2, 3.70742
76, 2, wb, attraction, a-b-db, 14, 2, 7, 4, 165, 90, 83, 153, 90, 165, 3, 0.828885
76, 2, wb, attraction, a-b-db, 9, 3, 7, 5, 195, 120, 120, 195, 114, 186, 2, 9.03322
76, 2, wb, attraction, a-b-db, 9, 3, 7, 5, 195, 120, 120, 195, 114, 186, 3, 3.1324
76, 2, wb, attraction, a-b-da, 5, 2, 7, 6, 90, 165, 165, 90, 161, 88, 3, 4.20397
76, 2, wb, attraction, a-b-da, 5, 2, 7, 6, 90, 165, 165, 90, 161, 88, 1, 2.7299
76, 2, wb, filler, NA, 999, 999, 7, 7, 140, 170, 153, 181, 80, 140, 3, 1.47379
76, 2, wb, filler, NA, 999, 999, 7, 7, 140, 170, 153, 181, 80, 140, 2, 1.66132
76, 2, wb, attraction, a-b-db, 2, 3, 7, 8, 120, 195, 195, 120, 119, 193, 2, 10.912
76, 2, wb, attraction, a-b-db, 2, 3, 7, 8, 120, 195, 195, 120, 119, 193, 1, 0.911223
76, 2, wb, catch, NA, 999, 999, 7, 9, 136, 119, 73, 122, 127, 188, 2, 0.720188
76, 2, wb, catch, NA, 999, 999, 7, 9, 136, 119, 73, 122, 127, 188, 3, 0.385876
76, 2, wb, attraction, a-b-db, 14, 3, 7, 10, 195, 120, 120, 195, 111, 181, 3, 1.97645
76, 2, wb, attraction, a-b-db, 14, 3, 7, 10, 195, 120, 120, 195, 111, 181, 2, 1.50383
76, 2, wb, attraction, a-b-da, 14, 3, 7, 11, 120, 195, 195, 120, 181, 111, 3, 3.33731
76, 2, wb, attraction, a-b-da, 14, 3, 7, 11, 120, 195, 195, 120, 181, 111, 1, 4.65013
76, 2, wb, filler, NA, 999, 999, 7, 12, 147, 63, 151, 159, 143, 172, 1, 1.06062
76, 2, wb, filler, NA, 999, 999, 7, 12, 147, 63, 151, 159, 143, 172, 3, 2.10514
76, 2, wb, attraction, a-b-da, 9, 2, 7, 13, 90, 165, 157, 86, 165, 90, 2, 2.3544
76, 2, wb, attraction, a-b-da, 9, 2, 7, 13, 90, 165, 157, 86, 165, 90, 3, 0.770154
76, 2, wb, attraction, a-b-da, 2, 1, 7, 14, 60, 135, 134, 59, 135, 60, 3, 1.5292
76, 2, wb, attraction, a-b-da, 2, 1, 7, 14, 60, 135, 134, 59, 135, 60, 1, 0.482725
76, 2, wb, filler, NA, 999, 999, 7, 15, 153, 137, 110, 184, 113, 133, 3, 1.63725
76, 2, wb, filler, NA, 999, 999, 7, 15, 153, 137, 110, 184, 113, 133, 1, 0.874017
76, 2, wb, attraction, a-b-db, 5, 2, 7, 16, 88, 161, 165, 90, 90, 165, 3, 3.50835
76, 2, wb, attraction, a-b-db, 5, 2, 7, 16, 88, 161, 165, 90, 90, 165, 1, 0.925778
76, 2, wb, filler, NA, 999, 999, 7, 17, 136, 138, 134, 170, 138, 172, 1, 1.90218
76, 2, wb, filler, NA, 999, 999, 7, 17, 136, 138, 134, 170, 138, 172, 2, 0.99302
76, 2, wb, attraction, a-b-db, 2, 1, 7, 18, 60, 135, 59, 134, 135, 60, 2, 2.51852
76, 2, wb, attraction, a-b-db, 2, 1, 7, 18, 60, 135, 59, 134, 135, 60, 3, 0.536387
76, 2, wb, attraction, a-b-da, 2, 2, 7, 19, 90, 165, 165, 90, 163, 89, 2, 3.03277
76, 2, wb, attraction, a-b-da, 2, 2, 7, 19, 90, 165, 165, 90, 163, 89, 3, 1.24582
76, 2, wb, attraction, a-b-da, 14, 2, 7, 20, 90, 165, 165, 90, 153, 83, 3, 3.59342
76, 2, wb, attraction, a-b-da, 14, 2, 7, 20, 90, 165, 165, 90, 153, 83, 2, 0.591603
76, 2, wb, attraction, a-b-db, 9, 2, 7, 21, 165, 90, 90, 165, 86, 157, 2, 3.17333
76, 2, wb, attraction, a-b-db, 9, 2, 7, 21, 165, 90, 90, 165, 86, 157, 1, 0.732347
76, 2, wb, attraction, a-b-db, 9, 1, 7, 22, 135, 60, 60, 135, 57, 129, 3, 1.87669
76, 2, wb, attraction, a-b-db, 9, 1, 7, 22, 135, 60, 60, 135, 57, 129, 1, 0.704053
76, 2, wb, attraction, a-b-db, 2, 2, 7, 23, 90, 165, 89, 163, 165, 90, 2, 3.71372
76, 2, wb, attraction, a-b-db, 2, 2, 7, 23, 90, 165, 89, 163, 165, 90, 1, 0.651231
76, 2, wb, attraction, a-b-da, 5, 3, 7, 24, 195, 120, 120, 195, 190, 117, 3, 1.67898
76, 2, wb, attraction, a-b-da, 5, 3, 7, 24, 195, 120, 120, 195, 190, 117, 2, 2.65848
76, 2, wb, filler, NA, 999, 999, 7, 25, 183, 58, 85, 125, 154, 107, 2, 2.63687
76, 2, wb, filler, NA, 999, 999, 7, 25, 183, 58, 85, 125, 154, 107, 3, 0.946153
76, 2, wb, attraction, a-b-db, 5, 3, 7, 26, 195, 120, 120, 195, 117, 190, 1, 11.3056
76, 2, wb, attraction, a-b-db, 5, 3, 7, 26, 195, 120, 120, 195, 117, 190, 3, 0.353595
76, 2, wb, filler, NA, 999, 999, 7, 27, 140, 122, 66, 61, 68, 162, 2, 1.7054
76, 2, wb, filler, NA, 999, 999, 7, 27, 140, 122, 66, 61, 68, 162, 1, 2.89945
76, 2, wb, attraction, a-b-da, 14, 1, 7, 28, 135, 60, 125, 56, 60, 135, 3, 4.09254
76, 2, wb, attraction, a-b-da, 14, 1, 7, 28, 135, 60, 125, 56, 60, 135, 1, 0.926533
76, 2, wb, attraction, a-b-da, 5, 1, 7, 29, 60, 135, 132, 58, 135, 60, 2, 4.59889
76, 2, wb, attraction, a-b-da, 5, 1, 7, 29, 60, 135, 132, 58, 135, 60, 3, 0.900639
76, 2, wb, filler, NA, 999, 999, 7, 30, 87, 89, 184, 143, 102, 123, 1, 1.17425
76, 2, wb, filler, NA, 999, 999, 7, 30, 87, 89, 184, 143, 102, 123, 2, 0.693844
76, 2, wb, filler, NA, 999, 999, 7, 31, 115, 141, 132, 113, 70, 63, 3, 1.15958
76, 2, wb, filler, NA, 999, 999, 7, 31, 115, 141, 132, 113, 70, 63, 1, 1.41593
76, 2, wb, catch, NA, 999, 999, 7, 32, 186, 129, 121, 74, 105, 150, 2, 1.86878
76, 2, wb, catch, NA, 999, 999, 7, 32, 186, 129, 121, 74, 105, 150, 1, 0.984836
76, 2, wb, attraction, a-b-da, 9, 1, 7, 33, 129, 57, 60, 135, 135, 60, 1, 2.93501
76, 2, wb, attraction, a-b-da, 9, 1, 7, 33, 129, 57, 60, 135, 135, 60, 3, 1.78417
76, 2, wb, filler, NA, 999, 999, 7, 34, 75, 150, 173, 138, 93, 94, 3, 2.57437
76, 2, wb, filler, NA, 999, 999, 7, 34, 75, 150, 173, 138, 93, 94, 2, 0.40534
76, 2, wb, catch, NA, 999, 999, 7, 35, 171, 144, 73, 122, 135, 120, 2, 0.835172
76, 2, wb, catch, NA, 999, 999, 7, 35, 171, 144, 73, 122, 135, 120, 1, 0.36902
76, 2, wb, filler, NA, 999, 999, 7, 36, 169, 161, 171, 112, 154, 140, 3, 1.64
76, 2, wb, filler, NA, 999, 999, 7, 36, 169, 161, 171, 112, 154, 140, 1, 0.708859
76, 2, wb, attraction, a-b-da, 9, 3, 7, 37, 120, 195, 195, 120, 186, 114, 3, 7.95796
76, 2, wb, attraction, a-b-da, 9, 3, 7, 37, 120, 195, 195, 120, 186, 114, 1, 0.396048
76, 2, wb, attraction, a-b-db, 2, 1, 8, 1, 60, 135, 135, 60, 59, 134, 2, 3.52185
76, 2, wb, attraction, a-b-db, 2, 1, 8, 1, 60, 135, 135, 60, 59, 134, 1, 1.5868
76, 2, wb, attraction, a-b-db, 14, 2, 8, 2, 165, 90, 83, 153, 90, 165, 2, 3.50498
76, 2, wb, attraction, a-b-db, 14, 2, 8, 2, 165, 90, 83, 153, 90, 165, 1, 2.08247
76, 2, wb, catch, NA, 999, 999, 8, 3, 104, 91, 135, 180, 156, 99, 1, 1.37254
76, 2, wb, catch, NA, 999, 999, 8, 3, 104, 91, 135, 180, 156, 99, 2, 1.09194
76, 2, wb, attraction, a-b-db, 5, 1, 8, 4, 60, 135, 58, 132, 135, 60, 2, 1.74957
76, 2, wb, attraction, a-b-db, 5, 1, 8, 4, 60, 135, 58, 132, 135, 60, 3, 0.942282
76, 2, wb, catch, NA, 999, 999, 8, 5, 115, 140, 183, 132, 111, 84, 3, 1.02192
76, 2, wb, catch, NA, 999, 999, 8, 5, 115, 140, 183, 132, 111, 84, 2, 0.539505
76, 2, wb, attraction, a-b-da, 2, 3, 8, 6, 195, 120, 120, 195, 193, 119, 2, 4.74731
76, 2, wb, attraction, a-b-da, 2, 3, 8, 6, 195, 120, 120, 195, 193, 119, 3, 0.723116
76, 2, wb, attraction, a-b-db, 5, 2, 8, 7, 90, 165, 165, 90, 88, 161, 2, 3.85954
76, 2, wb, attraction, a-b-db, 5, 2, 8, 7, 90, 165, 165, 90, 88, 161, 1, 1.76701
76, 2, wb, attraction, a-b-da, 14, 3, 8, 8, 120, 195, 195, 120, 181, 111, 3, 3.09374
76, 2, wb, attraction, a-b-da, 14, 3, 8, 8, 120, 195, 195, 120, 181, 111, 2, 1.14407
76, 2, wb, filler, NA, 999, 999, 8, 9, 173, 181, 81, 132, 159, 174, 2, 0.855724
76, 2, wb, filler, NA, 999, 999, 8, 9, 173, 181, 81, 132, 159, 174, 1, 3.16418
76, 2, wb, attraction, a-b-da, 2, 1, 8, 10, 134, 59, 60, 135, 135, 60, 2, 1.57821
76, 2, wb, attraction, a-b-da, 2, 1, 8, 10, 134, 59, 60, 135, 135, 60, 3, 0.393677
76, 2, wb, attraction, a-b-da, 5, 2, 8, 11, 165, 90, 161, 88, 90, 165, 2, 2.05555
76, 2, wb, attraction, a-b-da, 5, 2, 8, 11, 165, 90, 161, 88, 90, 165, 1, 1.36363
76, 2, wb, filler, NA, 999, 999, 8, 12, 85, 191, 73, 156, 130, 173, 2, 2.06639
76, 2, wb, filler, NA, 999, 999, 8, 12, 85, 191, 73, 156, 130, 173, 3, 0.486368
76, 2, wb, filler, NA, 999, 999, 8, 13, 184, 73, 88, 87, 108, 147, 2, 1.01682
76, 2, wb, filler, NA, 999, 999, 8, 13, 184, 73, 88, 87, 108, 147, 3, 1.39126
76, 2, wb, filler, NA, 999, 999, 8, 14, 70, 101, 102, 111, 161, 172, 1, 1.11662
76, 2, wb, filler, NA, 999, 999, 8, 14, 70, 101, 102, 111, 161, 172, 3, 0.575042
76, 2, wb, attraction, a-b-da, 14, 1, 8, 15, 125, 56, 60, 135, 135, 60, 1, 2.0215
76, 2, wb, attraction, a-b-da, 14, 1, 8, 15, 125, 56, 60, 135, 135, 60, 3, 1.06673
76, 2, wb, attraction, a-b-db, 2, 3, 8, 16, 119, 193, 195, 120, 120, 195, 2, 20.6537
76, 2, wb, attraction, a-b-db, 2, 3, 8, 16, 119, 193, 195, 120, 120, 195, 3, 0.96453
76, 2, wb, attraction, a-b-db, 2, 2, 8, 17, 90, 165, 89, 163, 165, 90, 3, 1.57153
76, 2, wb, attraction, a-b-db, 2, 2, 8, 17, 90, 165, 89, 163, 165, 90, 1, 0.410963
76, 2, wb, filler, NA, 999, 999, 8, 18, 78, 150, 110, 193, 160, 96, 1, 0.912084
76, 2, wb, filler, NA, 999, 999, 8, 18, 78, 150, 110, 193, 160, 96, 2, 0.434448
76, 2, wb, filler, NA, 999, 999, 8, 19, 100, 57, 133, 84, 144, 97, 1, 0.966966
76, 2, wb, filler, NA, 999, 999, 8, 19, 100, 57, 133, 84, 144, 97, 3, 0.383312
76, 2, wb, filler, NA, 999, 999, 8, 20, 104, 170, 104, 144, 170, 124, 2, 1.09376
76, 2, wb, filler, NA, 999, 999, 8, 20, 104, 170, 104, 144, 170, 124, 3, 0.664822
76, 2, wb, attraction, a-b-db, 14, 1, 8, 21, 60, 135, 135, 60, 56, 125, 2, 3.45986
76, 2, wb, attraction, a-b-db, 14, 1, 8, 21, 60, 135, 135, 60, 56, 125, 1, 2.03141
76, 2, wb, catch, NA, 999, 999, 8, 22, 172, 143, 164, 91, 131, 64, 3, 0.827349
76, 2, wb, catch, NA, 999, 999, 8, 22, 172, 143, 164, 91, 131, 64, 1, 0.505046
76, 2, wb, attraction, a-b-da, 5, 1, 8, 23, 135, 60, 60, 135, 132, 58, 3, 2.38686
76, 2, wb, attraction, a-b-da, 5, 1, 8, 23, 135, 60, 60, 135, 132, 58, 1, 0.506081
76, 2, wb, attraction, a-b-da, 5, 3, 8, 24, 195, 120, 190, 117, 120, 195, 2, 2.75544
76, 2, wb, attraction, a-b-da, 5, 3, 8, 24, 195, 120, 190, 117, 120, 195, 1, 2.6352
76, 2, wb, attraction, a-b-db, 14, 3, 8, 25, 111, 181, 120, 195, 195, 120, 1, 10.4707
76, 2, wb, attraction, a-b-db, 14, 3, 8, 25, 111, 181, 120, 195, 195, 120, 2, 0.976117
76, 2, wb, filler, NA, 999, 999, 8, 26, 151, 159, 136, 140, 130, 122, 3, 2.8465
76, 2, wb, filler, NA, 999, 999, 8, 26, 151, 159, 136, 140, 130, 122, 1, 0.946833
76, 2, wb, attraction, a-b-da, 9, 2, 8, 27, 165, 90, 90, 165, 157, 86, 3, 2.5225
76, 2, wb, attraction, a-b-da, 9, 2, 8, 27, 165, 90, 90, 165, 157, 86, 2, 1.69177
76, 2, wb, attraction, a-b-db, 9, 1, 8, 28, 57, 129, 135, 60, 60, 135, 2, 11.8371
76, 2, wb, attraction, a-b-db, 9, 1, 8, 28, 57, 129, 135, 60, 60, 135, 3, 0.551335
76, 2, wb, attraction, a-b-db, 9, 3, 8, 29, 120, 195, 195, 120, 114, 186, 3, 3.29534
76, 2, wb, attraction, a-b-db, 9, 3, 8, 29, 120, 195, 195, 120, 114, 186, 1, 0.441432
76, 2, wb, attraction, a-b-da, 2, 2, 8, 30, 165, 90, 163, 89, 90, 165, 2, 4.96525
76, 2, wb, attraction, a-b-da, 2, 2, 8, 30, 165, 90, 163, 89, 90, 165, 3, 0.796316
76, 2, wb, attraction, a-b-da, 9, 1, 8, 31, 135, 60, 60, 135, 129, 57, 3, 1.55402
76, 2, wb, attraction, a-b-da, 9, 1, 8, 31, 135, 60, 60, 135, 129, 57, 1, 0.698867
76, 2, wb, attraction, a-b-db, 9, 2, 8, 32, 86, 157, 165, 90, 90, 165, 2, 2.54059
76, 2, wb, attraction, a-b-db, 9, 2, 8, 32, 86, 157, 165, 90, 90, 165, 3, 0.613098
76, 2, wb, attraction, a-b-da, 14, 2, 8, 33, 165, 90, 90, 165, 153, 83, 3, 1.29818
76, 2, wb, attraction, a-b-da, 14, 2, 8, 33, 165, 90, 90, 165, 153, 83, 1, 0.725059
76, 2, wb, filler, NA, 999, 999, 8, 34, 127, 61, 87, 114, 116, 161, 1, 0.821418
76, 2, wb, filler, NA, 999, 999, 8, 34, 127, 61, 87, 114, 116, 161, 3, 0.483168
76, 2, wb, filler, NA, 999, 999, 8, 35, 99, 110, 67, 143, 112, 76, 3, 3.43756
76, 2, wb, filler, NA, 999, 999, 8, 35, 99, 110, 67, 143, 112, 76, 1, 0.826575
76, 2, wb, attraction, a-b-db, 5, 3, 8, 36, 120, 195, 117, 190, 195, 120, 2, 2.59884
76, 2, wb, attraction, a-b-db, 5, 3, 8, 36, 120, 195, 117, 190, 195, 120, 3, 1.39748
76, 2, wb, attraction, a-b-da, 9, 3, 8, 37, 195, 120, 120, 195, 186, 114, 3, 1.32279
76, 2, wb, attraction, a-b-da, 9, 3, 8, 37, 195, 120, 120, 195, 186, 114, 1, 1.3485
