sub_n, computer_n, bw_cond, effect, set, distance, diag, block_n, trial_n, h1, w1, h2, w2, h3, w3, choice, rt 
86, 2, wb, practice, NA, 999, 999, 0, 1, 171, 74, 105, 143, 174, 71, 3, 7.48528
86, 2, wb, practice, NA, 999, 999, 0, 1, 171, 74, 105, 143, 174, 71, 2, 2.1612
86, 2, wb, practice, NA, 999, 999, 0, 2, 59, 118, 161, 65, 62, 140, 1, 2.29257
86, 2, wb, practice, NA, 999, 999, 0, 2, 59, 118, 161, 65, 62, 140, 3, 2.08948
86, 2, wb, practice, NA, 999, 999, 0, 3, 193, 101, 126, 149, 144, 90, 3, 2.1109
86, 2, wb, practice, NA, 999, 999, 0, 3, 193, 101, 126, 149, 144, 90, 2, 4.65609
86, 2, wb, attraction, a-b-da, 9, 2, 1, 1, 90, 165, 157, 86, 165, 90, 2, 3.39419
86, 2, wb, attraction, a-b-da, 9, 2, 1, 1, 90, 165, 157, 86, 165, 90, 1, 20.2564
86, 2, wb, attraction, a-b-db, 9, 2, 1, 2, 90, 165, 165, 90, 86, 157, 1, 27.0701
86, 2, wb, attraction, a-b-db, 9, 2, 1, 2, 90, 165, 165, 90, 86, 157, 3, 1.76226
86, 2, wb, attraction, a-b-da, 14, 3, 1, 3, 195, 120, 120, 195, 181, 111, 3, 1.66499
86, 2, wb, attraction, a-b-da, 14, 3, 1, 3, 195, 120, 120, 195, 181, 111, 2, 1.22097
86, 2, wb, filler, NA, 999, 999, 1, 4, 68, 117, 134, 78, 68, 186, 1, 1.26582
86, 2, wb, filler, NA, 999, 999, 1, 4, 68, 117, 134, 78, 68, 186, 3, 1.4222
86, 2, wb, attraction, a-b-da, 2, 3, 1, 5, 120, 195, 195, 120, 193, 119, 3, 3.09904
86, 2, wb, attraction, a-b-da, 2, 3, 1, 5, 120, 195, 195, 120, 193, 119, 1, 1.17334
86, 2, wb, attraction, a-b-db, 14, 1, 1, 6, 135, 60, 56, 125, 60, 135, 2, 1.65953
86, 2, wb, attraction, a-b-db, 14, 1, 1, 6, 135, 60, 56, 125, 60, 135, 1, 0.783691
86, 2, wb, filler, NA, 999, 999, 1, 7, 178, 165, 122, 101, 77, 178, 2, 0.765977
86, 2, wb, filler, NA, 999, 999, 1, 7, 178, 165, 122, 101, 77, 178, 1, 0.70245
86, 2, wb, attraction, a-b-db, 5, 1, 1, 8, 60, 135, 135, 60, 58, 132, 3, 2.18429
86, 2, wb, attraction, a-b-db, 5, 1, 1, 8, 60, 135, 135, 60, 58, 132, 1, 1.77551
86, 2, wb, attraction, a-b-da, 2, 2, 1, 9, 90, 165, 165, 90, 163, 89, 3, 5.62154
86, 2, wb, attraction, a-b-da, 2, 2, 1, 9, 90, 165, 165, 90, 163, 89, 1, 0.506649
86, 2, wb, attraction, a-b-db, 9, 1, 1, 10, 57, 129, 60, 135, 135, 60, 1, 1.9796
86, 2, wb, attraction, a-b-db, 9, 1, 1, 10, 57, 129, 60, 135, 135, 60, 2, 0.626894
86, 2, wb, filler, NA, 999, 999, 1, 11, 146, 118, 87, 78, 178, 65, 2, 1.25531
86, 2, wb, filler, NA, 999, 999, 1, 11, 146, 118, 87, 78, 178, 65, 1, 0.995536
86, 2, wb, filler, NA, 999, 999, 1, 12, 66, 69, 104, 96, 185, 101, 1, 0.825148
86, 2, wb, filler, NA, 999, 999, 1, 12, 66, 69, 104, 96, 185, 101, 3, 0.502905
86, 2, wb, attraction, a-b-db, 9, 3, 1, 13, 114, 186, 120, 195, 195, 120, 3, 2.13664
86, 2, wb, attraction, a-b-db, 9, 3, 1, 13, 114, 186, 120, 195, 195, 120, 1, 0.946052
86, 2, wb, filler, NA, 999, 999, 1, 14, 181, 158, 162, 193, 69, 171, 3, 1.36159
86, 2, wb, filler, NA, 999, 999, 1, 14, 181, 158, 162, 193, 69, 171, 2, 0.63384
86, 2, wb, attraction, a-b-db, 14, 3, 1, 15, 120, 195, 195, 120, 111, 181, 3, 1.28638
86, 2, wb, attraction, a-b-db, 14, 3, 1, 15, 120, 195, 195, 120, 111, 181, 1, 0.43386
86, 2, wb, attraction, a-b-db, 14, 2, 1, 16, 165, 90, 90, 165, 83, 153, 3, 0.926264
86, 2, wb, attraction, a-b-db, 14, 2, 1, 16, 165, 90, 90, 165, 83, 153, 1, 1.336
86, 2, wb, attraction, a-b-db, 2, 3, 1, 17, 119, 193, 120, 195, 195, 120, 2, 1.64018
86, 2, wb, attraction, a-b-db, 2, 3, 1, 17, 119, 193, 120, 195, 195, 120, 3, 0.460947
86, 2, wb, filler, NA, 999, 999, 1, 18, 77, 142, 115, 185, 183, 174, 1, 0.576027
86, 2, wb, filler, NA, 999, 999, 1, 18, 77, 142, 115, 185, 183, 174, 3, 0.431856
86, 2, wb, catch, NA, 999, 999, 1, 19, 126, 189, 142, 113, 122, 73, 3, 0.740305
86, 2, wb, catch, NA, 999, 999, 1, 19, 126, 189, 142, 113, 122, 73, 1, 0.405416
86, 2, wb, attraction, a-b-da, 2, 1, 1, 20, 60, 135, 135, 60, 134, 59, 3, 2.73922
86, 2, wb, attraction, a-b-da, 2, 1, 1, 20, 60, 135, 135, 60, 134, 59, 1, 0.507675
86, 2, wb, filler, NA, 999, 999, 1, 21, 195, 180, 146, 187, 111, 81, 3, 0.548824
86, 2, wb, filler, NA, 999, 999, 1, 21, 195, 180, 146, 187, 111, 81, 1, 0.742067
86, 2, wb, filler, NA, 999, 999, 1, 22, 145, 115, 87, 119, 95, 87, 3, 0.749598
86, 2, wb, filler, NA, 999, 999, 1, 22, 145, 115, 87, 119, 95, 87, 1, 0.406686
86, 2, wb, attraction, a-b-da, 5, 3, 1, 23, 195, 120, 190, 117, 120, 195, 1, 1.77197
86, 2, wb, attraction, a-b-da, 5, 3, 1, 23, 195, 120, 190, 117, 120, 195, 3, 0.387305
86, 2, wb, attraction, a-b-db, 5, 2, 1, 24, 165, 90, 88, 161, 90, 165, 3, 2.09781
86, 2, wb, attraction, a-b-db, 5, 2, 1, 24, 165, 90, 88, 161, 90, 165, 2, 2.95643
86, 2, wb, attraction, a-b-db, 2, 2, 1, 25, 165, 90, 90, 165, 89, 163, 3, 1.22756
86, 2, wb, attraction, a-b-db, 2, 2, 1, 25, 165, 90, 90, 165, 89, 163, 1, 0.609026
86, 2, wb, filler, NA, 999, 999, 1, 26, 82, 171, 69, 86, 66, 107, 2, 0.638134
86, 2, wb, filler, NA, 999, 999, 1, 26, 82, 171, 69, 86, 66, 107, 1, 0.371272
86, 2, wb, attraction, a-b-da, 9, 1, 1, 27, 135, 60, 129, 57, 60, 135, 2, 0.898422
86, 2, wb, attraction, a-b-da, 9, 1, 1, 27, 135, 60, 129, 57, 60, 135, 1, 0.373465
86, 2, wb, attraction, a-b-db, 2, 1, 1, 28, 60, 135, 59, 134, 135, 60, 2, 1.5719
86, 2, wb, attraction, a-b-db, 2, 1, 1, 28, 60, 135, 59, 134, 135, 60, 3, 0.259345
86, 2, wb, filler, NA, 999, 999, 1, 29, 177, 162, 182, 68, 179, 155, 2, 0.878643
86, 2, wb, filler, NA, 999, 999, 1, 29, 177, 162, 182, 68, 179, 155, 1, 0.842267
86, 2, wb, attraction, a-b-da, 14, 1, 1, 30, 135, 60, 60, 135, 125, 56, 3, 0.80589
86, 2, wb, attraction, a-b-da, 14, 1, 1, 30, 135, 60, 60, 135, 125, 56, 1, 0.492314
86, 2, wb, attraction, a-b-da, 5, 1, 1, 31, 60, 135, 132, 58, 135, 60, 2, 1.02206
86, 2, wb, attraction, a-b-da, 5, 1, 1, 31, 60, 135, 132, 58, 135, 60, 3, 0.531888
86, 2, wb, attraction, a-b-da, 9, 3, 1, 32, 120, 195, 186, 114, 195, 120, 2, 0.516232
86, 2, wb, attraction, a-b-da, 9, 3, 1, 32, 120, 195, 186, 114, 195, 120, 3, 0.550788
86, 2, wb, attraction, a-b-da, 14, 2, 1, 33, 90, 165, 165, 90, 153, 83, 1, 0.734371
86, 2, wb, attraction, a-b-da, 14, 2, 1, 33, 90, 165, 165, 90, 153, 83, 3, 1.70422
86, 2, wb, attraction, a-b-db, 5, 3, 1, 34, 195, 120, 117, 190, 120, 195, 3, 0.761579
86, 2, wb, attraction, a-b-db, 5, 3, 1, 34, 195, 120, 117, 190, 120, 195, 1, 0.714172
86, 2, wb, catch, NA, 999, 999, 1, 35, 112, 143, 85, 110, 145, 170, 2, 0.43509
86, 2, wb, catch, NA, 999, 999, 1, 35, 112, 143, 85, 110, 145, 170, 3, 1.00891
86, 2, wb, catch, NA, 999, 999, 1, 36, 135, 120, 163, 152, 94, 101, 3, 0.677839
86, 2, wb, catch, NA, 999, 999, 1, 36, 135, 120, 163, 152, 94, 101, 2, 0.585671
86, 2, wb, attraction, a-b-da, 5, 2, 1, 37, 161, 88, 90, 165, 165, 90, 2, 0.960092
86, 2, wb, attraction, a-b-da, 5, 2, 1, 37, 161, 88, 90, 165, 165, 90, 3, 0.592407
86, 2, wb, attraction, a-b-da, 5, 3, 2, 1, 120, 195, 190, 117, 195, 120, 2, 2.21411
86, 2, wb, attraction, a-b-da, 5, 3, 2, 1, 120, 195, 190, 117, 195, 120, 1, 0.508092
86, 2, wb, attraction, a-b-da, 9, 2, 2, 2, 157, 86, 165, 90, 90, 165, 2, 2.06931
86, 2, wb, attraction, a-b-da, 9, 2, 2, 2, 157, 86, 165, 90, 90, 165, 3, 0.849198
86, 2, wb, attraction, a-b-db, 9, 1, 2, 3, 57, 129, 60, 135, 135, 60, 1, 1.94088
86, 2, wb, attraction, a-b-db, 9, 1, 2, 3, 57, 129, 60, 135, 135, 60, 3, 0.78957
86, 2, wb, attraction, a-b-db, 14, 2, 2, 4, 83, 153, 90, 165, 165, 90, 1, 1.19535
86, 2, wb, attraction, a-b-db, 14, 2, 2, 4, 83, 153, 90, 165, 165, 90, 2, 0.818262
86, 2, wb, attraction, a-b-db, 9, 3, 2, 5, 114, 186, 120, 195, 195, 120, 1, 7.99124
86, 2, wb, attraction, a-b-db, 9, 3, 2, 5, 114, 186, 120, 195, 195, 120, 3, 0.396038
86, 2, wb, attraction, a-b-db, 2, 3, 2, 6, 119, 193, 120, 195, 195, 120, 1, 1.45793
86, 2, wb, attraction, a-b-db, 2, 3, 2, 6, 119, 193, 120, 195, 195, 120, 3, 0.462049
86, 2, wb, catch, NA, 999, 999, 2, 7, 133, 122, 120, 195, 115, 80, 3, 0.80912
86, 2, wb, catch, NA, 999, 999, 2, 7, 133, 122, 120, 195, 115, 80, 2, 0.839513
86, 2, wb, filler, NA, 999, 999, 2, 8, 178, 166, 69, 77, 69, 189, 2, 0.707155
86, 2, wb, filler, NA, 999, 999, 2, 8, 178, 166, 69, 77, 69, 189, 1, 0.4456
86, 2, wb, attraction, a-b-da, 14, 3, 2, 9, 120, 195, 181, 111, 195, 120, 2, 1.37741
86, 2, wb, attraction, a-b-da, 14, 3, 2, 9, 120, 195, 181, 111, 195, 120, 3, 0.360949
86, 2, wb, attraction, a-b-da, 9, 1, 2, 10, 60, 135, 135, 60, 129, 57, 1, 0.896169
86, 2, wb, attraction, a-b-da, 9, 1, 2, 10, 60, 135, 135, 60, 129, 57, 2, 0.651181
86, 2, wb, attraction, a-b-da, 5, 1, 2, 11, 60, 135, 132, 58, 135, 60, 1, 0.758879
86, 2, wb, attraction, a-b-da, 5, 1, 2, 11, 60, 135, 132, 58, 135, 60, 3, 0.743316
86, 2, wb, attraction, a-b-db, 2, 2, 2, 12, 165, 90, 89, 163, 90, 165, 3, 2.3351
86, 2, wb, attraction, a-b-db, 2, 2, 2, 12, 165, 90, 89, 163, 90, 165, 1, 0.944316
86, 2, wb, filler, NA, 999, 999, 2, 13, 127, 154, 119, 86, 103, 118, 2, 1.408
86, 2, wb, filler, NA, 999, 999, 2, 13, 127, 154, 119, 86, 103, 118, 1, 0.334064
86, 2, wb, filler, NA, 999, 999, 2, 14, 130, 128, 120, 186, 67, 144, 3, 0.838693
86, 2, wb, filler, NA, 999, 999, 2, 14, 130, 128, 120, 186, 67, 144, 1, 0.499795
86, 2, wb, filler, NA, 999, 999, 2, 15, 162, 61, 133, 145, 59, 145, 1, 1.17343
86, 2, wb, filler, NA, 999, 999, 2, 15, 162, 61, 133, 145, 59, 145, 2, 1.14907
86, 2, wb, attraction, a-b-db, 2, 1, 2, 16, 135, 60, 60, 135, 59, 134, 2, 3.16463
86, 2, wb, attraction, a-b-db, 2, 1, 2, 16, 135, 60, 60, 135, 59, 134, 1, 0.820297
86, 2, wb, filler, NA, 999, 999, 2, 17, 105, 157, 137, 95, 154, 81, 3, 0.993266
86, 2, wb, filler, NA, 999, 999, 2, 17, 105, 157, 137, 95, 154, 81, 1, 0.448274
86, 2, wb, catch, NA, 999, 999, 2, 18, 80, 115, 160, 95, 175, 140, 1, 0.660228
86, 2, wb, catch, NA, 999, 999, 2, 18, 80, 115, 160, 95, 175, 140, 3, 0.432541
86, 2, wb, attraction, a-b-db, 14, 3, 2, 19, 195, 120, 111, 181, 120, 195, 2, 1.58097
86, 2, wb, attraction, a-b-db, 14, 3, 2, 19, 195, 120, 111, 181, 120, 195, 1, 0.580411
86, 2, wb, filler, NA, 999, 999, 2, 20, 107, 142, 121, 84, 117, 189, 2, 1.23482
86, 2, wb, filler, NA, 999, 999, 2, 20, 107, 142, 121, 84, 117, 189, 3, 0.768631
86, 2, wb, attraction, a-b-da, 9, 3, 2, 21, 186, 114, 120, 195, 195, 120, 2, 1.23951
86, 2, wb, attraction, a-b-da, 9, 3, 2, 21, 186, 114, 120, 195, 195, 120, 3, 0.708417
86, 2, wb, attraction, a-b-db, 9, 2, 2, 22, 90, 165, 86, 157, 165, 90, 2, 1.5175
86, 2, wb, attraction, a-b-db, 9, 2, 2, 22, 90, 165, 86, 157, 165, 90, 1, 0.751684
86, 2, wb, attraction, a-b-da, 2, 1, 2, 23, 134, 59, 135, 60, 60, 135, 2, 0.823456
86, 2, wb, attraction, a-b-da, 2, 1, 2, 23, 134, 59, 135, 60, 60, 135, 1, 0.493124
86, 2, wb, attraction, a-b-db, 5, 1, 2, 24, 58, 132, 135, 60, 60, 135, 3, 0.574914
86, 2, wb, attraction, a-b-db, 5, 1, 2, 24, 58, 132, 135, 60, 60, 135, 2, 0.782647
86, 2, wb, attraction, a-b-db, 5, 2, 2, 25, 90, 165, 165, 90, 88, 161, 2, 1.12509
86, 2, wb, attraction, a-b-db, 5, 2, 2, 25, 90, 165, 165, 90, 88, 161, 3, 1.01472
86, 2, wb, filler, NA, 999, 999, 2, 26, 166, 133, 64, 81, 175, 103, 2, 0.523662
86, 2, wb, filler, NA, 999, 999, 2, 26, 166, 133, 64, 81, 175, 103, 1, 0.661433
86, 2, wb, attraction, a-b-da, 5, 2, 2, 27, 161, 88, 90, 165, 165, 90, 3, 1.93651
86, 2, wb, attraction, a-b-da, 5, 2, 2, 27, 161, 88, 90, 165, 165, 90, 2, 0.481809
86, 2, wb, attraction, a-b-da, 14, 1, 2, 28, 135, 60, 60, 135, 125, 56, 2, 3.66035
86, 2, wb, attraction, a-b-da, 14, 1, 2, 28, 135, 60, 60, 135, 125, 56, 3, 0.415844
86, 2, wb, attraction, a-b-db, 5, 3, 2, 29, 117, 190, 195, 120, 120, 195, 1, 0.692967
86, 2, wb, attraction, a-b-db, 5, 3, 2, 29, 117, 190, 195, 120, 120, 195, 3, 1.00806
86, 2, wb, filler, NA, 999, 999, 2, 30, 168, 77, 157, 110, 185, 161, 1, 0.477002
86, 2, wb, filler, NA, 999, 999, 2, 30, 168, 77, 157, 110, 185, 161, 3, 0.984806
86, 2, wb, attraction, a-b-da, 2, 2, 2, 31, 163, 89, 90, 165, 165, 90, 3, 0.735191
86, 2, wb, attraction, a-b-da, 2, 2, 2, 31, 163, 89, 90, 165, 165, 90, 2, 0.960921
86, 2, wb, catch, NA, 999, 999, 2, 32, 195, 120, 92, 163, 83, 112, 3, 0.631786
86, 2, wb, catch, NA, 999, 999, 2, 32, 195, 120, 92, 163, 83, 112, 1, 0.357621
86, 2, wb, filler, NA, 999, 999, 2, 33, 114, 154, 56, 162, 86, 80, 3, 0.652816
86, 2, wb, filler, NA, 999, 999, 2, 33, 114, 154, 56, 162, 86, 80, 1, 0.321957
86, 2, wb, attraction, a-b-da, 2, 3, 2, 34, 195, 120, 193, 119, 120, 195, 1, 1.77908
86, 2, wb, attraction, a-b-da, 2, 3, 2, 34, 195, 120, 193, 119, 120, 195, 3, 0.40247
86, 2, wb, filler, NA, 999, 999, 2, 35, 143, 153, 57, 111, 195, 79, 2, 1.0324
86, 2, wb, filler, NA, 999, 999, 2, 35, 143, 153, 57, 111, 195, 79, 1, 0.510075
86, 2, wb, attraction, a-b-da, 14, 2, 2, 36, 165, 90, 90, 165, 153, 83, 3, 0.895088
86, 2, wb, attraction, a-b-da, 14, 2, 2, 36, 165, 90, 90, 165, 153, 83, 2, 0.362076
86, 2, wb, attraction, a-b-db, 14, 1, 2, 37, 56, 125, 60, 135, 135, 60, 1, 1.92121
86, 2, wb, attraction, a-b-db, 14, 1, 2, 37, 56, 125, 60, 135, 135, 60, 2, 0.762704
86, 2, wb, attraction, a-b-da, 9, 2, 3, 1, 90, 165, 157, 86, 165, 90, 2, 1.24977
86, 2, wb, attraction, a-b-da, 9, 2, 3, 1, 90, 165, 157, 86, 165, 90, 1, 1.65457
86, 2, wb, attraction, a-b-db, 2, 1, 3, 2, 59, 134, 135, 60, 60, 135, 2, 1.11397
86, 2, wb, attraction, a-b-db, 2, 1, 3, 2, 59, 134, 135, 60, 60, 135, 1, 0.932369
86, 2, wb, attraction, a-b-da, 5, 1, 3, 3, 132, 58, 60, 135, 135, 60, 1, 1.71658
86, 2, wb, attraction, a-b-da, 5, 1, 3, 3, 132, 58, 60, 135, 135, 60, 2, 0.694717
86, 2, wb, attraction, a-b-da, 2, 3, 3, 4, 120, 195, 193, 119, 195, 120, 3, 2.64043
86, 2, wb, attraction, a-b-da, 2, 3, 3, 4, 120, 195, 193, 119, 195, 120, 1, 1.58889
86, 2, wb, filler, NA, 999, 999, 3, 5, 123, 119, 74, 195, 57, 59, 3, 1.49094
86, 2, wb, filler, NA, 999, 999, 3, 5, 123, 119, 74, 195, 57, 59, 2, 0.549903
86, 2, wb, filler, NA, 999, 999, 3, 6, 164, 191, 154, 186, 172, 94, 3, 1.02892
86, 2, wb, filler, NA, 999, 999, 3, 6, 164, 191, 154, 186, 172, 94, 1, 0.955462
86, 2, wb, attraction, a-b-db, 9, 3, 3, 7, 120, 195, 114, 186, 195, 120, 3, 3.16298
86, 2, wb, attraction, a-b-db, 9, 3, 3, 7, 120, 195, 114, 186, 195, 120, 2, 0.5706
86, 2, wb, attraction, a-b-da, 5, 3, 3, 8, 195, 120, 190, 117, 120, 195, 2, 3.52169
86, 2, wb, attraction, a-b-da, 5, 3, 3, 8, 195, 120, 190, 117, 120, 195, 3, 0.835219
86, 2, wb, attraction, a-b-db, 2, 2, 3, 9, 89, 163, 165, 90, 90, 165, 2, 0.919618
86, 2, wb, attraction, a-b-db, 2, 2, 3, 9, 89, 163, 165, 90, 90, 165, 1, 1.22601
86, 2, wb, catch, NA, 999, 999, 3, 10, 109, 86, 134, 181, 94, 161, 1, 0.830208
86, 2, wb, catch, NA, 999, 999, 3, 10, 109, 86, 134, 181, 94, 161, 2, 0.515857
86, 2, wb, filler, NA, 999, 999, 3, 11, 139, 146, 144, 91, 59, 150, 3, 0.885042
86, 2, wb, filler, NA, 999, 999, 3, 11, 139, 146, 144, 91, 59, 150, 1, 0.416701
86, 2, wb, filler, NA, 999, 999, 3, 12, 186, 65, 173, 170, 65, 122, 3, 1.17388
86, 2, wb, filler, NA, 999, 999, 3, 12, 186, 65, 173, 170, 65, 122, 2, 0.349489
86, 2, wb, attraction, a-b-da, 2, 1, 3, 13, 135, 60, 60, 135, 134, 59, 2, 1.26932
86, 2, wb, attraction, a-b-da, 2, 1, 3, 13, 135, 60, 60, 135, 134, 59, 3, 0.497645
86, 2, wb, attraction, a-b-da, 5, 2, 3, 14, 90, 165, 161, 88, 165, 90, 1, 1.92336
86, 2, wb, attraction, a-b-da, 5, 2, 3, 14, 90, 165, 161, 88, 165, 90, 3, 0.452616
86, 2, wb, attraction, a-b-db, 14, 2, 3, 15, 90, 165, 83, 153, 165, 90, 2, 0.720482
86, 2, wb, attraction, a-b-db, 14, 2, 3, 15, 90, 165, 83, 153, 165, 90, 3, 0.354913
86, 2, wb, filler, NA, 999, 999, 3, 16, 167, 163, 173, 105, 153, 83, 3, 0.770723
86, 2, wb, filler, NA, 999, 999, 3, 16, 167, 163, 173, 105, 153, 83, 1, 0.410437
86, 2, wb, attraction, a-b-db, 9, 2, 3, 17, 90, 165, 165, 90, 86, 157, 3, 1.07958
86, 2, wb, attraction, a-b-db, 9, 2, 3, 17, 90, 165, 165, 90, 86, 157, 1, 0.603238
86, 2, wb, attraction, a-b-da, 2, 2, 3, 18, 165, 90, 163, 89, 90, 165, 1, 1.62505
86, 2, wb, attraction, a-b-da, 2, 2, 3, 18, 165, 90, 163, 89, 90, 165, 3, 0.270408
86, 2, wb, attraction, a-b-db, 5, 1, 3, 19, 58, 132, 135, 60, 60, 135, 1, 0.713887
86, 2, wb, attraction, a-b-db, 5, 1, 3, 19, 58, 132, 135, 60, 60, 135, 2, 0.732159
86, 2, wb, attraction, a-b-db, 9, 1, 3, 20, 135, 60, 60, 135, 57, 129, 3, 1.46037
86, 2, wb, attraction, a-b-db, 9, 1, 3, 20, 135, 60, 60, 135, 57, 129, 1, 0.448556
86, 2, wb, attraction, a-b-db, 14, 1, 3, 21, 60, 135, 135, 60, 56, 125, 3, 1.43643
86, 2, wb, attraction, a-b-db, 14, 1, 3, 21, 60, 135, 135, 60, 56, 125, 2, 0.473909
86, 2, wb, attraction, a-b-db, 2, 3, 3, 22, 120, 195, 195, 120, 119, 193, 2, 1.79636
86, 2, wb, attraction, a-b-db, 2, 3, 3, 22, 120, 195, 195, 120, 119, 193, 1, 1.43521
86, 2, wb, attraction, a-b-da, 9, 3, 3, 23, 195, 120, 120, 195, 186, 114, 3, 10.0873
86, 2, wb, attraction, a-b-da, 9, 3, 3, 23, 195, 120, 120, 195, 186, 114, 1, 0.528151
86, 2, wb, attraction, a-b-da, 14, 3, 3, 24, 120, 195, 195, 120, 181, 111, 3, 4.09666
86, 2, wb, attraction, a-b-da, 14, 3, 3, 24, 120, 195, 195, 120, 181, 111, 2, 0.370623
86, 2, wb, filler, NA, 999, 999, 3, 25, 145, 171, 119, 173, 183, 141, 2, 2.99381
86, 2, wb, filler, NA, 999, 999, 3, 25, 145, 171, 119, 173, 183, 141, 3, 0.520164
86, 2, wb, filler, NA, 999, 999, 3, 26, 151, 170, 169, 141, 79, 70, 3, 1.4492
86, 2, wb, filler, NA, 999, 999, 3, 26, 151, 170, 169, 141, 79, 70, 2, 0.902196
86, 2, wb, filler, NA, 999, 999, 3, 27, 189, 133, 116, 194, 70, 182, 3, 1.36784
86, 2, wb, filler, NA, 999, 999, 3, 27, 189, 133, 116, 194, 70, 182, 1, 1.90401
86, 2, wb, attraction, a-b-da, 9, 1, 3, 28, 135, 60, 60, 135, 129, 57, 2, 4.61727
86, 2, wb, attraction, a-b-da, 9, 1, 3, 28, 135, 60, 60, 135, 129, 57, 1, 0.494473
86, 2, wb, filler, NA, 999, 999, 3, 29, 59, 164, 188, 89, 59, 84, 3, 0.720267
86, 2, wb, filler, NA, 999, 999, 3, 29, 59, 164, 188, 89, 59, 84, 2, 0.850778
86, 2, wb, attraction, a-b-da, 14, 2, 3, 30, 153, 83, 90, 165, 165, 90, 3, 2.2304
86, 2, wb, attraction, a-b-da, 14, 2, 3, 30, 153, 83, 90, 165, 165, 90, 2, 3.06775
86, 2, wb, filler, NA, 999, 999, 3, 31, 81, 184, 92, 98, 170, 107, 2, 0.861926
86, 2, wb, filler, NA, 999, 999, 3, 31, 81, 184, 92, 98, 170, 107, 3, 0.946369
86, 2, wb, catch, NA, 999, 999, 3, 32, 163, 92, 133, 182, 118, 77, 3, 1.67393
86, 2, wb, catch, NA, 999, 999, 3, 32, 163, 92, 133, 182, 118, 77, 2, 0.413463
86, 2, wb, attraction, a-b-da, 14, 1, 3, 33, 135, 60, 60, 135, 125, 56, 3, 2.62666
86, 2, wb, attraction, a-b-da, 14, 1, 3, 33, 135, 60, 60, 135, 125, 56, 2, 1.45573
86, 2, wb, attraction, a-b-db, 5, 3, 3, 34, 117, 190, 195, 120, 120, 195, 3, 1.92323
86, 2, wb, attraction, a-b-db, 5, 3, 3, 34, 117, 190, 195, 120, 120, 195, 2, 0.940606
86, 2, wb, attraction, a-b-db, 5, 2, 3, 35, 88, 161, 165, 90, 90, 165, 2, 3.61223
86, 2, wb, attraction, a-b-db, 5, 2, 3, 35, 88, 161, 165, 90, 90, 165, 3, 0.657744
86, 2, wb, attraction, a-b-db, 14, 3, 3, 36, 195, 120, 111, 181, 120, 195, 3, 0.740948
86, 2, wb, attraction, a-b-db, 14, 3, 3, 36, 195, 120, 111, 181, 120, 195, 1, 0.453932
86, 2, wb, catch, NA, 999, 999, 3, 37, 105, 90, 161, 154, 152, 103, 1, 1.04166
86, 2, wb, catch, NA, 999, 999, 3, 37, 105, 90, 161, 154, 152, 103, 2, 0.318806
86, 2, wb, filler, NA, 999, 999, 4, 1, 66, 136, 118, 179, 181, 160, 1, 0.695863
86, 2, wb, filler, NA, 999, 999, 4, 1, 66, 136, 118, 179, 181, 160, 2, 0.747039
86, 2, wb, attraction, a-b-da, 14, 3, 4, 2, 120, 195, 181, 111, 195, 120, 2, 2.31459
86, 2, wb, attraction, a-b-da, 14, 3, 4, 2, 120, 195, 181, 111, 195, 120, 1, 2.09257
86, 2, wb, filler, NA, 999, 999, 4, 3, 112, 111, 164, 100, 57, 150, 3, 0.645863
86, 2, wb, filler, NA, 999, 999, 4, 3, 112, 111, 164, 100, 57, 150, 2, 1.92296
86, 2, wb, filler, NA, 999, 999, 4, 4, 174, 126, 185, 172, 135, 94, 3, 0.619136
86, 2, wb, filler, NA, 999, 999, 4, 4, 174, 126, 185, 172, 135, 94, 2, 0.497364
86, 2, wb, attraction, a-b-da, 9, 2, 4, 5, 157, 86, 165, 90, 90, 165, 2, 1.13928
86, 2, wb, attraction, a-b-da, 9, 2, 4, 5, 157, 86, 165, 90, 90, 165, 3, 0.364146
86, 2, wb, attraction, a-b-db, 14, 2, 4, 6, 83, 153, 90, 165, 165, 90, 1, 0.979378
86, 2, wb, attraction, a-b-db, 14, 2, 4, 6, 83, 153, 90, 165, 165, 90, 3, 0.538958
86, 2, wb, filler, NA, 999, 999, 4, 7, 94, 191, 73, 60, 105, 110, 2, 0.579457
86, 2, wb, filler, NA, 999, 999, 4, 7, 94, 191, 73, 60, 105, 110, 1, 1.09119
86, 2, wb, attraction, a-b-db, 5, 3, 4, 8, 117, 190, 120, 195, 195, 120, 1, 9.93281
86, 2, wb, attraction, a-b-db, 5, 3, 4, 8, 117, 190, 120, 195, 195, 120, 3, 0.603701
86, 2, wb, filler, NA, 999, 999, 4, 9, 131, 168, 105, 102, 180, 77, 2, 0.73758
86, 2, wb, filler, NA, 999, 999, 4, 9, 131, 168, 105, 102, 180, 77, 1, 0.562481
86, 2, wb, attraction, a-b-db, 9, 2, 4, 10, 165, 90, 86, 157, 90, 165, 2, 1.20973
86, 2, wb, attraction, a-b-db, 9, 2, 4, 10, 165, 90, 86, 157, 90, 165, 1, 0.343855
86, 2, wb, filler, NA, 999, 999, 4, 11, 139, 118, 150, 133, 56, 161, 3, 0.471927
86, 2, wb, filler, NA, 999, 999, 4, 11, 139, 118, 150, 133, 56, 161, 1, 1.1956
86, 2, wb, attraction, a-b-db, 9, 1, 4, 12, 60, 135, 135, 60, 57, 129, 1, 1.37715
86, 2, wb, attraction, a-b-db, 9, 1, 4, 12, 60, 135, 135, 60, 57, 129, 2, 0.872814
86, 2, wb, attraction, a-b-db, 2, 3, 4, 13, 119, 193, 120, 195, 195, 120, 1, 2.14699
86, 2, wb, attraction, a-b-db, 2, 3, 4, 13, 119, 193, 120, 195, 195, 120, 3, 0.49176
86, 2, wb, attraction, a-b-db, 9, 3, 4, 14, 120, 195, 114, 186, 195, 120, 1, 1.46937
86, 2, wb, attraction, a-b-db, 9, 3, 4, 14, 120, 195, 114, 186, 195, 120, 3, 0.385573
86, 2, wb, attraction, a-b-da, 5, 2, 4, 15, 161, 88, 90, 165, 165, 90, 1, 1.20802
86, 2, wb, attraction, a-b-da, 5, 2, 4, 15, 161, 88, 90, 165, 165, 90, 3, 0.478312
86, 2, wb, attraction, a-b-db, 5, 1, 4, 16, 58, 132, 135, 60, 60, 135, 2, 1.08893
86, 2, wb, attraction, a-b-db, 5, 1, 4, 16, 58, 132, 135, 60, 60, 135, 3, 0.451721
86, 2, wb, filler, NA, 999, 999, 4, 17, 166, 86, 168, 149, 126, 99, 1, 0.539055
86, 2, wb, filler, NA, 999, 999, 4, 17, 166, 86, 168, 149, 126, 99, 2, 1.74465
86, 2, wb, attraction, a-b-da, 9, 3, 4, 18, 186, 114, 120, 195, 195, 120, 2, 3.22403
86, 2, wb, attraction, a-b-da, 9, 3, 4, 18, 186, 114, 120, 195, 195, 120, 3, 1.02103
86, 2, wb, attraction, a-b-db, 2, 2, 4, 19, 165, 90, 89, 163, 90, 165, 2, 1.97
86, 2, wb, attraction, a-b-db, 2, 2, 4, 19, 165, 90, 89, 163, 90, 165, 3, 0.874155
86, 2, wb, attraction, a-b-db, 14, 3, 4, 20, 120, 195, 195, 120, 111, 181, 3, 2.89243
86, 2, wb, attraction, a-b-db, 14, 3, 4, 20, 120, 195, 195, 120, 111, 181, 2, 0.310751
86, 2, wb, catch, NA, 999, 999, 4, 21, 114, 141, 121, 74, 149, 166, 2, 1.74393
86, 2, wb, catch, NA, 999, 999, 4, 21, 114, 141, 121, 74, 149, 166, 3, 0.24877
86, 2, wb, attraction, a-b-db, 5, 2, 4, 22, 88, 161, 90, 165, 165, 90, 1, 2.58059
86, 2, wb, attraction, a-b-db, 5, 2, 4, 22, 88, 161, 90, 165, 165, 90, 3, 0.587685
86, 2, wb, attraction, a-b-da, 5, 3, 4, 23, 195, 120, 190, 117, 120, 195, 2, 39.8421
86, 2, wb, attraction, a-b-da, 5, 3, 4, 23, 195, 120, 190, 117, 120, 195, 1, 0.499657
86, 2, wb, catch, NA, 999, 999, 4, 24, 127, 188, 117, 138, 83, 112, 3, 0.821449
86, 2, wb, catch, NA, 999, 999, 4, 24, 127, 188, 117, 138, 83, 112, 1, 0.515206
86, 2, wb, attraction, a-b-db, 2, 1, 4, 25, 59, 134, 60, 135, 135, 60, 3, 4.48432
86, 2, wb, attraction, a-b-db, 2, 1, 4, 25, 59, 134, 60, 135, 135, 60, 1, 1.77482
86, 2, wb, filler, NA, 999, 999, 4, 26, 83, 64, 71, 74, 98, 162, 2, 1.01285
86, 2, wb, filler, NA, 999, 999, 4, 26, 83, 64, 71, 74, 98, 162, 3, 0.29127
86, 2, wb, attraction, a-b-da, 2, 3, 4, 27, 120, 195, 195, 120, 193, 119, 2, 1.87706
86, 2, wb, attraction, a-b-da, 2, 3, 4, 27, 120, 195, 195, 120, 193, 119, 1, 0.632444
86, 2, wb, attraction, a-b-da, 2, 2, 4, 28, 90, 165, 165, 90, 163, 89, 3, 1.29293
86, 2, wb, attraction, a-b-da, 2, 2, 4, 28, 90, 165, 165, 90, 163, 89, 1, 0.503969
86, 2, wb, catch, NA, 999, 999, 4, 29, 103, 92, 93, 162, 190, 125, 1, 0.607354
86, 2, wb, catch, NA, 999, 999, 4, 29, 103, 92, 93, 162, 190, 125, 3, 0.432147
86, 2, wb, filler, NA, 999, 999, 4, 30, 89, 112, 195, 160, 101, 132, 1, 1.27661
86, 2, wb, filler, NA, 999, 999, 4, 30, 89, 112, 195, 160, 101, 132, 2, 0.320202
86, 2, wb, attraction, a-b-da, 14, 1, 4, 31, 60, 135, 135, 60, 125, 56, 3, 2.80123
86, 2, wb, attraction, a-b-da, 14, 1, 4, 31, 60, 135, 135, 60, 125, 56, 1, 0.343662
86, 2, wb, attraction, a-b-da, 14, 2, 4, 32, 153, 83, 90, 165, 165, 90, 1, 2.58358
86, 2, wb, attraction, a-b-da, 14, 2, 4, 32, 153, 83, 90, 165, 165, 90, 3, 0.574762
86, 2, wb, attraction, a-b-da, 2, 1, 4, 33, 135, 60, 60, 135, 134, 59, 1, 2.72512
86, 2, wb, attraction, a-b-da, 2, 1, 4, 33, 135, 60, 60, 135, 134, 59, 2, 0.614186
86, 2, wb, attraction, a-b-da, 9, 1, 4, 34, 135, 60, 60, 135, 129, 57, 3, 1.02734
86, 2, wb, attraction, a-b-da, 9, 1, 4, 34, 135, 60, 60, 135, 129, 57, 2, 1.20106
86, 2, wb, attraction, a-b-da, 5, 1, 4, 35, 132, 58, 60, 135, 135, 60, 1, 1.29457
86, 2, wb, attraction, a-b-da, 5, 1, 4, 35, 132, 58, 60, 135, 135, 60, 2, 1.37756
86, 2, wb, attraction, a-b-db, 14, 1, 4, 36, 60, 135, 135, 60, 56, 125, 3, 4.13568
86, 2, wb, attraction, a-b-db, 14, 1, 4, 36, 60, 135, 135, 60, 56, 125, 1, 1.56027
86, 2, wb, filler, NA, 999, 999, 4, 37, 110, 154, 161, 131, 97, 56, 3, 0.623114
86, 2, wb, filler, NA, 999, 999, 4, 37, 110, 154, 161, 131, 97, 56, 1, 0.308953
86, 2, wb, attraction, a-b-da, 5, 1, 5, 1, 132, 58, 60, 135, 135, 60, 2, 89.7806
86, 2, wb, attraction, a-b-da, 5, 1, 5, 1, 132, 58, 60, 135, 135, 60, 3, 1.05789
86, 2, wb, filler, NA, 999, 999, 5, 2, 187, 152, 115, 155, 105, 131, 3, 5.82886
86, 2, wb, filler, NA, 999, 999, 5, 2, 187, 152, 115, 155, 105, 131, 1, 0.849035
86, 2, wb, attraction, a-b-db, 5, 1, 5, 3, 60, 135, 135, 60, 58, 132, 2, 82.7567
86, 2, wb, attraction, a-b-db, 5, 1, 5, 3, 60, 135, 135, 60, 58, 132, 3, 1.78094
86, 2, wb, attraction, a-b-da, 2, 1, 5, 4, 134, 59, 60, 135, 135, 60, 3, 74.1308
86, 2, wb, attraction, a-b-da, 2, 1, 5, 4, 134, 59, 60, 135, 135, 60, 2, 0.830323
86, 2, wb, attraction, a-b-db, 5, 2, 5, 5, 90, 165, 88, 161, 165, 90, 2, 79.4027
86, 2, wb, attraction, a-b-db, 5, 2, 5, 5, 90, 165, 88, 161, 165, 90, 3, 0.417851
86, 2, wb, filler, NA, 999, 999, 5, 6, 138, 123, 189, 117, 69, 163, 3, 96.6629
86, 2, wb, filler, NA, 999, 999, 5, 6, 138, 123, 189, 117, 69, 163, 1, 0.494735
86, 2, wb, filler, NA, 999, 999, 5, 7, 126, 172, 188, 125, 169, 158, 1, 2.56059
86, 2, wb, filler, NA, 999, 999, 5, 7, 126, 172, 188, 125, 169, 158, 3, 1.72043
86, 2, wb, attraction, a-b-da, 5, 2, 5, 8, 165, 90, 90, 165, 161, 88, 3, 2.16917
86, 2, wb, attraction, a-b-da, 5, 2, 5, 8, 165, 90, 90, 165, 161, 88, 1, 2.39312
86, 2, wb, attraction, a-b-db, 5, 3, 5, 9, 195, 120, 120, 195, 117, 190, 3, 46.7424
86, 2, wb, attraction, a-b-db, 5, 3, 5, 9, 195, 120, 120, 195, 117, 190, 1, 0.433784
86, 2, wb, filler, NA, 999, 999, 5, 10, 195, 114, 114, 77, 136, 159, 2, 1.19017
86, 2, wb, filler, NA, 999, 999, 5, 10, 195, 114, 114, 77, 136, 159, 3, 0.453097
86, 2, wb, attraction, a-b-da, 2, 2, 5, 11, 165, 90, 90, 165, 163, 89, 3, 12.7289
86, 2, wb, attraction, a-b-da, 2, 2, 5, 11, 165, 90, 90, 165, 163, 89, 2, 1.07893
86, 2, wb, catch, NA, 999, 999, 5, 12, 146, 109, 117, 78, 148, 167, 2, 4.13722
86, 2, wb, catch, NA, 999, 999, 5, 12, 146, 109, 117, 78, 148, 167, 3, 1.09788
86, 2, wb, filler, NA, 999, 999, 5, 13, 137, 63, 133, 177, 183, 106, 1, 8.41148
86, 2, wb, filler, NA, 999, 999, 5, 13, 137, 63, 133, 177, 183, 106, 2, 0.65542
86, 2, wb, attraction, a-b-db, 14, 1, 5, 14, 60, 135, 56, 125, 135, 60, 2, 31.5872
86, 2, wb, attraction, a-b-db, 14, 1, 5, 14, 60, 135, 56, 125, 135, 60, 3, 0.609364
86, 2, wb, catch, NA, 999, 999, 5, 15, 91, 164, 141, 174, 108, 87, 3, 1.23833
86, 2, wb, catch, NA, 999, 999, 5, 15, 91, 164, 141, 174, 108, 87, 2, 1.30741
86, 2, wb, filler, NA, 999, 999, 5, 16, 183, 93, 164, 108, 59, 70, 3, 14.0762
86, 2, wb, filler, NA, 999, 999, 5, 16, 183, 93, 164, 108, 59, 70, 2, 0.747777
86, 2, wb, filler, NA, 999, 999, 5, 17, 170, 174, 138, 184, 83, 93, 3, 4.73137
86, 2, wb, filler, NA, 999, 999, 5, 17, 170, 174, 138, 184, 83, 93, 1, 1.56416
86, 2, wb, attraction, a-b-db, 14, 2, 5, 18, 165, 90, 90, 165, 83, 153, 3, 10.8989
86, 2, wb, attraction, a-b-db, 14, 2, 5, 18, 165, 90, 90, 165, 83, 153, 1, 0.834553
86, 2, wb, catch, NA, 999, 999, 5, 19, 136, 179, 134, 61, 162, 93, 2, 1.24695
86, 2, wb, catch, NA, 999, 999, 5, 19, 136, 179, 134, 61, 162, 93, 1, 0.795967
86, 2, wb, attraction, a-b-da, 14, 3, 5, 20, 195, 120, 120, 195, 181, 111, 3, 37.2577
86, 2, wb, attraction, a-b-da, 14, 3, 5, 20, 195, 120, 120, 195, 181, 111, 2, 0.947403
86, 2, wb, attraction, a-b-da, 9, 1, 5, 21, 129, 57, 135, 60, 60, 135, 1, 2.475
86, 2, wb, attraction, a-b-da, 9, 1, 5, 21, 129, 57, 135, 60, 60, 135, 2, 0.974101
86, 2, wb, attraction, a-b-db, 2, 1, 5, 22, 59, 134, 60, 135, 135, 60, 2, 2.25243
86, 2, wb, attraction, a-b-db, 2, 1, 5, 22, 59, 134, 60, 135, 135, 60, 1, 2.19306
86, 2, wb, attraction, a-b-db, 9, 2, 5, 23, 165, 90, 86, 157, 90, 165, 2, 1.1422
86, 2, wb, attraction, a-b-db, 9, 2, 5, 23, 165, 90, 86, 157, 90, 165, 1, 0.94328
86, 2, wb, attraction, a-b-db, 14, 3, 5, 24, 111, 181, 120, 195, 195, 120, 1, 2.16679
86, 2, wb, attraction, a-b-db, 14, 3, 5, 24, 111, 181, 120, 195, 195, 120, 3, 1.15876
86, 2, wb, attraction, a-b-db, 9, 1, 5, 25, 135, 60, 60, 135, 57, 129, 3, 1.52569
86, 2, wb, attraction, a-b-db, 9, 1, 5, 25, 135, 60, 60, 135, 57, 129, 1, 0.551173
86, 2, wb, attraction, a-b-da, 5, 3, 5, 26, 195, 120, 190, 117, 120, 195, 2, 3.53515
86, 2, wb, attraction, a-b-da, 5, 3, 5, 26, 195, 120, 190, 117, 120, 195, 1, 0.991939
86, 2, wb, filler, NA, 999, 999, 5, 27, 195, 124, 169, 117, 58, 80, 3, 0.805515
86, 2, wb, filler, NA, 999, 999, 5, 27, 195, 124, 169, 117, 58, 80, 1, 0.69189
86, 2, wb, attraction, a-b-da, 9, 2, 5, 28, 165, 90, 157, 86, 90, 165, 2, 2.4136
86, 2, wb, attraction, a-b-da, 9, 2, 5, 28, 165, 90, 157, 86, 90, 165, 1, 0.723482
86, 2, wb, attraction, a-b-da, 14, 1, 5, 29, 125, 56, 60, 135, 135, 60, 1, 1.66788
86, 2, wb, attraction, a-b-da, 14, 1, 5, 29, 125, 56, 60, 135, 135, 60, 3, 0.720031
86, 2, wb, attraction, a-b-da, 9, 3, 5, 30, 186, 114, 120, 195, 195, 120, 2, 1.32907
86, 2, wb, attraction, a-b-da, 9, 3, 5, 30, 186, 114, 120, 195, 195, 120, 3, 1.05864
86, 2, wb, filler, NA, 999, 999, 5, 31, 180, 180, 149, 126, 73, 57, 3, 0.829527
86, 2, wb, filler, NA, 999, 999, 5, 31, 180, 180, 149, 126, 73, 57, 1, 0.715284
86, 2, wb, attraction, a-b-da, 2, 3, 5, 32, 193, 119, 195, 120, 120, 195, 1, 1.63644
86, 2, wb, attraction, a-b-da, 2, 3, 5, 32, 193, 119, 195, 120, 120, 195, 3, 0.649109
86, 2, wb, attraction, a-b-db, 9, 3, 5, 33, 120, 195, 195, 120, 114, 186, 3, 1.50886
86, 2, wb, attraction, a-b-db, 9, 3, 5, 33, 120, 195, 195, 120, 114, 186, 2, 0.799035
86, 2, wb, attraction, a-b-db, 2, 2, 5, 34, 90, 165, 89, 163, 165, 90, 3, 6.19672
86, 2, wb, attraction, a-b-db, 2, 2, 5, 34, 90, 165, 89, 163, 165, 90, 1, 0.682065
86, 2, wb, filler, NA, 999, 999, 5, 35, 78, 139, 189, 70, 150, 180, 1, 1.16458
86, 2, wb, filler, NA, 999, 999, 5, 35, 78, 139, 189, 70, 150, 180, 3, 0.820706
86, 2, wb, attraction, a-b-da, 14, 2, 5, 36, 165, 90, 90, 165, 153, 83, 3, 3.08183
86, 2, wb, attraction, a-b-da, 14, 2, 5, 36, 165, 90, 90, 165, 153, 83, 2, 1.26079
86, 2, wb, attraction, a-b-db, 2, 3, 5, 37, 120, 195, 195, 120, 119, 193, 2, 2.27972
86, 2, wb, attraction, a-b-db, 2, 3, 5, 37, 120, 195, 195, 120, 119, 193, 3, 0.450889
86, 2, wb, attraction, a-b-db, 2, 3, 6, 1, 195, 120, 119, 193, 120, 195, 3, 3.11075
86, 2, wb, attraction, a-b-db, 2, 3, 6, 1, 195, 120, 119, 193, 120, 195, 1, 0.496419
86, 2, wb, filler, NA, 999, 999, 6, 2, 139, 83, 146, 172, 79, 70, 3, 0.842156
86, 2, wb, filler, NA, 999, 999, 6, 2, 139, 83, 146, 172, 79, 70, 2, 0.399175
86, 2, wb, attraction, a-b-da, 2, 3, 6, 3, 195, 120, 120, 195, 193, 119, 2, 3.16504
86, 2, wb, attraction, a-b-da, 2, 3, 6, 3, 195, 120, 120, 195, 193, 119, 3, 0.604767
86, 2, wb, attraction, a-b-db, 2, 2, 6, 4, 165, 90, 90, 165, 89, 163, 1, 1.85045
86, 2, wb, attraction, a-b-db, 2, 2, 6, 4, 165, 90, 90, 165, 89, 163, 2, 0.367156
86, 2, wb, attraction, a-b-da, 2, 2, 6, 5, 165, 90, 90, 165, 163, 89, 2, 3.06235
86, 2, wb, attraction, a-b-da, 2, 2, 6, 5, 165, 90, 90, 165, 163, 89, 1, 0.434124
86, 2, wb, catch, NA, 999, 999, 6, 6, 153, 102, 147, 168, 89, 106, 3, 0.766587
86, 2, wb, catch, NA, 999, 999, 6, 6, 153, 102, 147, 168, 89, 106, 2, 0.470887
86, 2, wb, attraction, a-b-da, 2, 1, 6, 7, 60, 135, 134, 59, 135, 60, 3, 8.7221
86, 2, wb, attraction, a-b-da, 2, 1, 6, 7, 60, 135, 134, 59, 135, 60, 2, 0.60989
86, 2, wb, filler, NA, 999, 999, 6, 8, 67, 146, 102, 187, 127, 106, 1, 1.78296
86, 2, wb, filler, NA, 999, 999, 6, 8, 67, 146, 102, 187, 127, 106, 3, 0.62239
86, 2, wb, attraction, a-b-db, 9, 3, 6, 9, 114, 186, 195, 120, 120, 195, 1, 2.01153
86, 2, wb, attraction, a-b-db, 9, 3, 6, 9, 114, 186, 195, 120, 120, 195, 3, 0.52146
86, 2, wb, attraction, a-b-da, 5, 3, 6, 10, 190, 117, 120, 195, 195, 120, 1, 0.922603
86, 2, wb, attraction, a-b-da, 5, 3, 6, 10, 190, 117, 120, 195, 195, 120, 3, 0.452317
86, 2, wb, attraction, a-b-db, 14, 1, 6, 11, 135, 60, 60, 135, 56, 125, 3, 0.72813
86, 2, wb, attraction, a-b-db, 14, 1, 6, 11, 135, 60, 60, 135, 56, 125, 1, 1.52995
86, 2, wb, attraction, a-b-da, 5, 2, 6, 12, 161, 88, 165, 90, 90, 165, 1, 0.841951
86, 2, wb, attraction, a-b-da, 5, 2, 6, 12, 161, 88, 165, 90, 90, 165, 3, 0.719043
86, 2, wb, attraction, a-b-db, 2, 1, 6, 13, 135, 60, 59, 134, 60, 135, 3, 1.10414
86, 2, wb, attraction, a-b-db, 2, 1, 6, 13, 135, 60, 59, 134, 60, 135, 1, 0.530383
86, 2, wb, attraction, a-b-db, 14, 2, 6, 14, 90, 165, 165, 90, 83, 153, 3, 0.842818
86, 2, wb, attraction, a-b-db, 14, 2, 6, 14, 90, 165, 165, 90, 83, 153, 2, 0.375859
86, 2, wb, attraction, a-b-da, 14, 1, 6, 15, 60, 135, 125, 56, 135, 60, 1, 0.766371
86, 2, wb, attraction, a-b-da, 14, 1, 6, 15, 60, 135, 125, 56, 135, 60, 3, 0.526765
86, 2, wb, filler, NA, 999, 999, 6, 16, 99, 153, 170, 191, 130, 114, 3, 1.32715
86, 2, wb, filler, NA, 999, 999, 6, 16, 99, 153, 170, 191, 130, 114, 2, 0.544805
86, 2, wb, attraction, a-b-da, 9, 1, 6, 17, 60, 135, 135, 60, 129, 57, 3, 1.14451
86, 2, wb, attraction, a-b-da, 9, 1, 6, 17, 60, 135, 135, 60, 129, 57, 1, 0.473465
86, 2, wb, attraction, a-b-da, 14, 3, 6, 18, 181, 111, 195, 120, 120, 195, 1, 1.94793
86, 2, wb, attraction, a-b-da, 14, 3, 6, 18, 181, 111, 195, 120, 120, 195, 3, 0.980659
86, 2, wb, filler, NA, 999, 999, 6, 19, 195, 85, 62, 189, 70, 145, 3, 0.890921
86, 2, wb, filler, NA, 999, 999, 6, 19, 195, 85, 62, 189, 70, 145, 1, 0.949921
86, 2, wb, attraction, a-b-db, 5, 1, 6, 20, 58, 132, 135, 60, 60, 135, 1, 1.84558
86, 2, wb, attraction, a-b-db, 5, 1, 6, 20, 58, 132, 135, 60, 60, 135, 3, 0.466296
86, 2, wb, filler, NA, 999, 999, 6, 21, 141, 174, 88, 169, 167, 130, 2, 1.89345
86, 2, wb, filler, NA, 999, 999, 6, 21, 141, 174, 88, 169, 167, 130, 3, 0.864264
86, 2, wb, attraction, a-b-da, 9, 3, 6, 22, 186, 114, 195, 120, 120, 195, 1, 53.8832
86, 2, wb, attraction, a-b-da, 9, 3, 6, 22, 186, 114, 195, 120, 120, 195, 3, 0.838991
86, 2, wb, catch, NA, 999, 999, 6, 23, 153, 102, 160, 155, 128, 67, 3, 0.86726
86, 2, wb, catch, NA, 999, 999, 6, 23, 153, 102, 160, 155, 128, 67, 2, 0.663867
86, 2, wb, filler, NA, 999, 999, 6, 24, 119, 139, 95, 66, 126, 174, 2, 1.02669
86, 2, wb, filler, NA, 999, 999, 6, 24, 119, 139, 95, 66, 126, 174, 3, 0.520442
86, 2, wb, attraction, a-b-db, 9, 1, 6, 25, 60, 135, 135, 60, 57, 129, 2, 2.57749
86, 2, wb, attraction, a-b-db, 9, 1, 6, 25, 60, 135, 135, 60, 57, 129, 1, 0.520689
86, 2, wb, attraction, a-b-db, 5, 2, 6, 26, 165, 90, 90, 165, 88, 161, 1, 1.56985
86, 2, wb, attraction, a-b-db, 5, 2, 6, 26, 165, 90, 90, 165, 88, 161, 2, 0.546043
86, 2, wb, filler, NA, 999, 999, 6, 27, 84, 182, 192, 93, 63, 84, 3, 1.05775
86, 2, wb, filler, NA, 999, 999, 6, 27, 84, 182, 192, 93, 63, 84, 2, 0.638002
86, 2, wb, attraction, a-b-da, 14, 2, 6, 28, 90, 165, 153, 83, 165, 90, 2, 1.39445
86, 2, wb, attraction, a-b-da, 14, 2, 6, 28, 90, 165, 153, 83, 165, 90, 3, 0.537288
86, 2, wb, filler, NA, 999, 999, 6, 29, 123, 152, 95, 112, 85, 164, 2, 0.777762
86, 2, wb, filler, NA, 999, 999, 6, 29, 123, 152, 95, 112, 85, 164, 1, 0.497533
86, 2, wb, catch, NA, 999, 999, 6, 30, 194, 121, 116, 79, 148, 107, 2, 1.08322
86, 2, wb, catch, NA, 999, 999, 6, 30, 194, 121, 116, 79, 148, 107, 1, 0.574913
86, 2, wb, attraction, a-b-da, 9, 2, 6, 31, 157, 86, 90, 165, 165, 90, 1, 1.60545
86, 2, wb, attraction, a-b-da, 9, 2, 6, 31, 157, 86, 90, 165, 165, 90, 2, 0.467592
86, 2, wb, attraction, a-b-db, 9, 2, 6, 32, 165, 90, 86, 157, 90, 165, 1, 4.23063
86, 2, wb, attraction, a-b-db, 9, 2, 6, 32, 165, 90, 86, 157, 90, 165, 2, 0.499219
86, 2, wb, attraction, a-b-da, 5, 1, 6, 33, 132, 58, 60, 135, 135, 60, 1, 1.26906
86, 2, wb, attraction, a-b-da, 5, 1, 6, 33, 132, 58, 60, 135, 135, 60, 2, 0.809331
86, 2, wb, filler, NA, 999, 999, 6, 34, 112, 58, 81, 186, 137, 137, 1, 0.86233
86, 2, wb, filler, NA, 999, 999, 6, 34, 112, 58, 81, 186, 137, 137, 3, 0.634757
86, 2, wb, attraction, a-b-db, 14, 3, 6, 35, 195, 120, 111, 181, 120, 195, 2, 29.2792
86, 2, wb, attraction, a-b-db, 14, 3, 6, 35, 195, 120, 111, 181, 120, 195, 1, 0.450575
86, 2, wb, attraction, a-b-db, 5, 3, 6, 36, 117, 190, 120, 195, 195, 120, 3, 1.85443
86, 2, wb, attraction, a-b-db, 5, 3, 6, 36, 117, 190, 120, 195, 195, 120, 1, 0.514367
86, 2, wb, filler, NA, 999, 999, 6, 37, 63, 169, 77, 145, 84, 195, 1, 1.81147
86, 2, wb, filler, NA, 999, 999, 6, 37, 63, 169, 77, 145, 84, 195, 3, 0.449595
86, 2, wb, filler, NA, 999, 999, 7, 1, 57, 135, 64, 100, 90, 155, 2, 0.869391
86, 2, wb, filler, NA, 999, 999, 7, 1, 57, 135, 64, 100, 90, 155, 3, 0.433736
86, 2, wb, catch, NA, 999, 999, 7, 2, 108, 147, 120, 195, 119, 76, 3, 1.15827
86, 2, wb, catch, NA, 999, 999, 7, 2, 108, 147, 120, 195, 119, 76, 2, 0.550496
86, 2, wb, attraction, a-b-db, 9, 3, 7, 3, 120, 195, 114, 186, 195, 120, 3, 58.6544
86, 2, wb, attraction, a-b-db, 9, 3, 7, 3, 120, 195, 114, 186, 195, 120, 2, 0.457963
86, 2, wb, filler, NA, 999, 999, 7, 4, 182, 184, 161, 129, 97, 99, 3, 0.773102
86, 2, wb, filler, NA, 999, 999, 7, 4, 182, 184, 161, 129, 97, 99, 1, 0.517028
86, 2, wb, attraction, a-b-db, 5, 1, 7, 5, 58, 132, 60, 135, 135, 60, 1, 2.11801
86, 2, wb, attraction, a-b-db, 5, 1, 7, 5, 58, 132, 60, 135, 135, 60, 3, 0.615981
86, 2, wb, attraction, a-b-da, 2, 2, 7, 6, 90, 165, 163, 89, 165, 90, 1, 0.925026
86, 2, wb, attraction, a-b-da, 2, 2, 7, 6, 90, 165, 163, 89, 165, 90, 3, 0.750795
86, 2, wb, attraction, a-b-da, 9, 1, 7, 7, 129, 57, 135, 60, 60, 135, 1, 0.958438
86, 2, wb, attraction, a-b-da, 9, 1, 7, 7, 129, 57, 135, 60, 60, 135, 3, 0.42288
86, 2, wb, attraction, a-b-db, 14, 1, 7, 8, 60, 135, 135, 60, 56, 125, 1, 1.86727
86, 2, wb, attraction, a-b-db, 14, 1, 7, 8, 60, 135, 135, 60, 56, 125, 2, 0.567307
86, 2, wb, attraction, a-b-da, 9, 3, 7, 9, 186, 114, 120, 195, 195, 120, 1, 2.07039
86, 2, wb, attraction, a-b-da, 9, 3, 7, 9, 186, 114, 120, 195, 195, 120, 2, 1.44246
86, 2, wb, filler, NA, 999, 999, 7, 10, 188, 176, 124, 145, 92, 130, 3, 0.717878
86, 2, wb, filler, NA, 999, 999, 7, 10, 188, 176, 124, 145, 92, 130, 1, 0.800365
86, 2, wb, attraction, a-b-db, 5, 2, 7, 11, 90, 165, 88, 161, 165, 90, 1, 1.18198
86, 2, wb, attraction, a-b-db, 5, 2, 7, 11, 90, 165, 88, 161, 165, 90, 3, 0.613655
86, 2, wb, attraction, a-b-da, 5, 2, 7, 12, 161, 88, 165, 90, 90, 165, 1, 0.882712
86, 2, wb, attraction, a-b-da, 5, 2, 7, 12, 161, 88, 165, 90, 90, 165, 3, 1.08636
86, 2, wb, attraction, a-b-db, 2, 2, 7, 13, 165, 90, 90, 165, 89, 163, 1, 1.18459
86, 2, wb, attraction, a-b-db, 2, 2, 7, 13, 165, 90, 90, 165, 89, 163, 2, 0.616249
86, 2, wb, attraction, a-b-da, 14, 2, 7, 14, 90, 165, 153, 83, 165, 90, 2, 1.36536
86, 2, wb, attraction, a-b-da, 14, 2, 7, 14, 90, 165, 153, 83, 165, 90, 1, 0.613489
86, 2, wb, filler, NA, 999, 999, 7, 15, 60, 91, 70, 82, 97, 192, 2, 0.922605
86, 2, wb, filler, NA, 999, 999, 7, 15, 60, 91, 70, 82, 97, 192, 3, 0.724303
86, 2, wb, filler, NA, 999, 999, 7, 16, 71, 131, 104, 99, 101, 118, 1, 1.96465
86, 2, wb, filler, NA, 999, 999, 7, 16, 71, 131, 104, 99, 101, 118, 2, 0.452709
86, 2, wb, attraction, a-b-db, 9, 2, 7, 17, 86, 157, 165, 90, 90, 165, 1, 1.77646
86, 2, wb, attraction, a-b-db, 9, 2, 7, 17, 86, 157, 165, 90, 90, 165, 2, 0.527912
86, 2, wb, filler, NA, 999, 999, 7, 18, 116, 154, 183, 162, 169, 65, 1, 2.37639
86, 2, wb, filler, NA, 999, 999, 7, 18, 116, 154, 183, 162, 169, 65, 2, 0.487784
86, 2, wb, catch, NA, 999, 999, 7, 19, 74, 121, 138, 117, 172, 143, 1, 0.738089
86, 2, wb, catch, NA, 999, 999, 7, 19, 74, 121, 138, 117, 172, 143, 3, 0.675145
86, 2, wb, attraction, a-b-da, 5, 1, 7, 20, 60, 135, 135, 60, 132, 58, 1, 2.38947
86, 2, wb, attraction, a-b-da, 5, 1, 7, 20, 60, 135, 135, 60, 132, 58, 2, 0.476037
86, 2, wb, attraction, a-b-da, 14, 3, 7, 21, 181, 111, 195, 120, 120, 195, 1, 1.29444
86, 2, wb, attraction, a-b-da, 14, 3, 7, 21, 181, 111, 195, 120, 120, 195, 3, 1.31347
86, 2, wb, attraction, a-b-db, 2, 3, 7, 22, 195, 120, 119, 193, 120, 195, 3, 1.49825
86, 2, wb, attraction, a-b-db, 2, 3, 7, 22, 195, 120, 119, 193, 120, 195, 1, 0.469153
86, 2, wb, attraction, a-b-db, 14, 3, 7, 23, 195, 120, 120, 195, 111, 181, 3, 0.912338
86, 2, wb, attraction, a-b-db, 14, 3, 7, 23, 195, 120, 120, 195, 111, 181, 1, 1.12267
86, 2, wb, attraction, a-b-db, 5, 3, 7, 24, 117, 190, 120, 195, 195, 120, 1, 1.73155
86, 2, wb, attraction, a-b-db, 5, 3, 7, 24, 117, 190, 120, 195, 195, 120, 3, 0.556983
86, 2, wb, attraction, a-b-da, 5, 3, 7, 25, 120, 195, 190, 117, 195, 120, 1, 0.868113
86, 2, wb, attraction, a-b-da, 5, 3, 7, 25, 120, 195, 190, 117, 195, 120, 3, 0.576446
86, 2, wb, catch, NA, 999, 999, 7, 26, 191, 124, 141, 114, 118, 77, 3, 0.830875
86, 2, wb, catch, NA, 999, 999, 7, 26, 191, 124, 141, 114, 118, 77, 1, 0.500574
86, 2, wb, filler, NA, 999, 999, 7, 27, 127, 163, 140, 91, 130, 104, 3, 1.23851
86, 2, wb, filler, NA, 999, 999, 7, 27, 127, 163, 140, 91, 130, 104, 1, 0.363377
86, 2, wb, attraction, a-b-db, 9, 1, 7, 28, 57, 129, 135, 60, 60, 135, 1, 1.24238
86, 2, wb, attraction, a-b-db, 9, 1, 7, 28, 57, 129, 135, 60, 60, 135, 3, 0.359427
86, 2, wb, attraction, a-b-da, 14, 1, 7, 29, 125, 56, 135, 60, 60, 135, 1, 1.03848
86, 2, wb, attraction, a-b-da, 14, 1, 7, 29, 125, 56, 135, 60, 60, 135, 3, 0.699512
86, 2, wb, filler, NA, 999, 999, 7, 30, 169, 97, 191, 186, 151, 140, 1, 1.07728
86, 2, wb, filler, NA, 999, 999, 7, 30, 169, 97, 191, 186, 151, 140, 2, 0.312886
86, 2, wb, filler, NA, 999, 999, 7, 31, 148, 173, 181, 66, 181, 99, 2, 3.36203
86, 2, wb, filler, NA, 999, 999, 7, 31, 148, 173, 181, 66, 181, 99, 1, 0.273839
86, 2, wb, attraction, a-b-da, 2, 1, 7, 32, 134, 59, 135, 60, 60, 135, 2, 3.87614
86, 2, wb, attraction, a-b-da, 2, 1, 7, 32, 134, 59, 135, 60, 60, 135, 3, 0.350948
86, 2, wb, attraction, a-b-db, 14, 2, 7, 33, 90, 165, 83, 153, 165, 90, 1, 2.24673
86, 2, wb, attraction, a-b-db, 14, 2, 7, 33, 90, 165, 83, 153, 165, 90, 3, 0.627384
86, 2, wb, attraction, a-b-db, 2, 1, 7, 34, 135, 60, 59, 134, 60, 135, 1, 1.38379
86, 2, wb, attraction, a-b-db, 2, 1, 7, 34, 135, 60, 59, 134, 60, 135, 3, 0.551348
86, 2, wb, attraction, a-b-da, 2, 3, 7, 35, 195, 120, 120, 195, 193, 119, 1, 2.42304
86, 2, wb, attraction, a-b-da, 2, 3, 7, 35, 195, 120, 120, 195, 193, 119, 3, 1.66024
86, 2, wb, attraction, a-b-da, 9, 2, 7, 36, 90, 165, 165, 90, 157, 86, 3, 1.70305
86, 2, wb, attraction, a-b-da, 9, 2, 7, 36, 90, 165, 165, 90, 157, 86, 1, 0.489772
86, 2, wb, filler, NA, 999, 999, 7, 37, 100, 144, 167, 175, 192, 158, 1, 1.05954
86, 2, wb, filler, NA, 999, 999, 7, 37, 100, 144, 167, 175, 192, 158, 3, 0.824012
86, 2, wb, attraction, a-b-db, 5, 1, 8, 1, 135, 60, 58, 132, 60, 135, 2, 1.00424
86, 2, wb, attraction, a-b-db, 5, 1, 8, 1, 135, 60, 58, 132, 60, 135, 1, 0.354559
86, 2, wb, attraction, a-b-db, 5, 3, 8, 2, 195, 120, 117, 190, 120, 195, 3, 1.38635
86, 2, wb, attraction, a-b-db, 5, 3, 8, 2, 195, 120, 117, 190, 120, 195, 1, 0.505945
86, 2, wb, attraction, a-b-da, 5, 2, 8, 3, 90, 165, 165, 90, 161, 88, 2, 1.2599
86, 2, wb, attraction, a-b-da, 5, 2, 8, 3, 90, 165, 165, 90, 161, 88, 1, 0.416162
86, 2, wb, attraction, a-b-db, 9, 1, 8, 4, 60, 135, 135, 60, 57, 129, 3, 0.757122
86, 2, wb, attraction, a-b-db, 9, 1, 8, 4, 60, 135, 135, 60, 57, 129, 1, 0.637517
86, 2, wb, filler, NA, 999, 999, 8, 5, 137, 180, 93, 176, 154, 186, 2, 1.2259
86, 2, wb, filler, NA, 999, 999, 8, 5, 137, 180, 93, 176, 154, 186, 3, 0.471518
86, 2, wb, attraction, a-b-da, 2, 3, 8, 6, 120, 195, 195, 120, 193, 119, 2, 3.61865
86, 2, wb, attraction, a-b-da, 2, 3, 8, 6, 120, 195, 195, 120, 193, 119, 3, 0.264145
86, 2, wb, attraction, a-b-da, 9, 1, 8, 7, 129, 57, 135, 60, 60, 135, 1, 0.843322
86, 2, wb, attraction, a-b-da, 9, 1, 8, 7, 129, 57, 135, 60, 60, 135, 3, 0.888468
86, 2, wb, attraction, a-b-db, 14, 1, 8, 8, 60, 135, 56, 125, 135, 60, 2, 1.84271
86, 2, wb, attraction, a-b-db, 14, 1, 8, 8, 60, 135, 56, 125, 135, 60, 1, 0.879416
86, 2, wb, catch, NA, 999, 999, 8, 9, 178, 137, 128, 127, 74, 121, 3, 1.07384
86, 2, wb, catch, NA, 999, 999, 8, 9, 178, 137, 128, 127, 74, 121, 1, 0.461429
86, 2, wb, attraction, a-b-da, 14, 1, 8, 10, 125, 56, 135, 60, 60, 135, 1, 2.18455
86, 2, wb, attraction, a-b-da, 14, 1, 8, 10, 125, 56, 135, 60, 60, 135, 3, 1.24787
86, 2, wb, attraction, a-b-db, 2, 2, 8, 11, 165, 90, 90, 165, 89, 163, 1, 1.40343
86, 2, wb, attraction, a-b-db, 2, 2, 8, 11, 165, 90, 90, 165, 89, 163, 3, 0.810295
86, 2, wb, filler, NA, 999, 999, 8, 12, 79, 185, 101, 103, 124, 182, 2, 1.94339
86, 2, wb, filler, NA, 999, 999, 8, 12, 79, 185, 101, 103, 124, 182, 3, 0.439957
86, 2, wb, attraction, a-b-db, 14, 2, 8, 13, 165, 90, 90, 165, 83, 153, 3, 1.45179
86, 2, wb, attraction, a-b-db, 14, 2, 8, 13, 165, 90, 90, 165, 83, 153, 1, 0.544658
86, 2, wb, attraction, a-b-da, 14, 2, 8, 14, 153, 83, 90, 165, 165, 90, 1, 5.32848
86, 2, wb, attraction, a-b-da, 14, 2, 8, 14, 153, 83, 90, 165, 165, 90, 2, 0.368784
86, 2, wb, filler, NA, 999, 999, 8, 15, 189, 75, 72, 151, 73, 82, 3, 0.792004
86, 2, wb, filler, NA, 999, 999, 8, 15, 189, 75, 72, 151, 73, 82, 1, 0.718928
86, 2, wb, attraction, a-b-db, 5, 2, 8, 16, 165, 90, 90, 165, 88, 161, 1, 1.06409
86, 2, wb, attraction, a-b-db, 5, 2, 8, 16, 165, 90, 90, 165, 88, 161, 2, 0.692265
86, 2, wb, filler, NA, 999, 999, 8, 17, 173, 191, 184, 142, 195, 98, 3, 1.214
86, 2, wb, filler, NA, 999, 999, 8, 17, 173, 191, 184, 142, 195, 98, 1, 0.324226
86, 2, wb, attraction, a-b-db, 2, 1, 8, 18, 59, 134, 60, 135, 135, 60, 3, 1.34077
86, 2, wb, attraction, a-b-db, 2, 1, 8, 18, 59, 134, 60, 135, 135, 60, 1, 0.445584
86, 2, wb, catch, NA, 999, 999, 8, 19, 129, 186, 130, 125, 63, 132, 3, 0.75351
86, 2, wb, catch, NA, 999, 999, 8, 19, 129, 186, 130, 125, 63, 132, 1, 0.681893
86, 2, wb, attraction, a-b-da, 9, 2, 8, 20, 90, 165, 157, 86, 165, 90, 1, 1.14823
86, 2, wb, attraction, a-b-da, 9, 2, 8, 20, 90, 165, 157, 86, 165, 90, 3, 0.333199
86, 2, wb, attraction, a-b-da, 2, 2, 8, 21, 90, 165, 163, 89, 165, 90, 2, 1.51771
86, 2, wb, attraction, a-b-da, 2, 2, 8, 21, 90, 165, 163, 89, 165, 90, 3, 0.464034
86, 2, wb, filler, NA, 999, 999, 8, 22, 187, 116, 105, 119, 83, 175, 2, 0.603003
86, 2, wb, filler, NA, 999, 999, 8, 22, 187, 116, 105, 119, 83, 175, 1, 0.554118
86, 2, wb, attraction, a-b-db, 2, 3, 8, 23, 119, 193, 120, 195, 195, 120, 1, 1.31408
86, 2, wb, attraction, a-b-db, 2, 3, 8, 23, 119, 193, 120, 195, 195, 120, 3, 0.372116
86, 2, wb, attraction, a-b-db, 14, 3, 8, 24, 111, 181, 120, 195, 195, 120, 1, 0.883276
86, 2, wb, attraction, a-b-db, 14, 3, 8, 24, 111, 181, 120, 195, 195, 120, 3, 0.431237
86, 2, wb, filler, NA, 999, 999, 8, 25, 160, 78, 97, 131, 132, 157, 1, 2.02746
86, 2, wb, filler, NA, 999, 999, 8, 25, 160, 78, 97, 131, 132, 157, 3, 0.329034
86, 2, wb, attraction, a-b-da, 9, 3, 8, 26, 195, 120, 120, 195, 186, 114, 2, 1.66533
86, 2, wb, attraction, a-b-da, 9, 3, 8, 26, 195, 120, 120, 195, 186, 114, 3, 0.333468
86, 2, wb, filler, NA, 999, 999, 8, 27, 152, 134, 126, 181, 195, 178, 1, 0.573984
86, 2, wb, filler, NA, 999, 999, 8, 27, 152, 134, 126, 181, 195, 178, 3, 0.373801
86, 2, wb, attraction, a-b-da, 5, 3, 8, 28, 195, 120, 190, 117, 120, 195, 3, 2.68429
86, 2, wb, attraction, a-b-da, 5, 3, 8, 28, 195, 120, 190, 117, 120, 195, 1, 0.519411
86, 2, wb, filler, NA, 999, 999, 8, 29, 77, 160, 146, 192, 81, 136, 3, 1.76053
86, 2, wb, filler, NA, 999, 999, 8, 29, 77, 160, 146, 192, 81, 136, 2, 0.288584
86, 2, wb, attraction, a-b-db, 9, 2, 8, 30, 165, 90, 90, 165, 86, 157, 2, 1.29907
86, 2, wb, attraction, a-b-db, 9, 2, 8, 30, 165, 90, 90, 165, 86, 157, 1, 0.277986
86, 2, wb, filler, NA, 999, 999, 8, 31, 92, 150, 148, 84, 178, 145, 2, 1.27248
86, 2, wb, filler, NA, 999, 999, 8, 31, 92, 150, 148, 84, 178, 145, 3, 0.316116
86, 2, wb, filler, NA, 999, 999, 8, 32, 179, 107, 189, 189, 81, 57, 3, 0.677298
86, 2, wb, filler, NA, 999, 999, 8, 32, 179, 107, 189, 189, 81, 57, 2, 0.320971
86, 2, wb, catch, NA, 999, 999, 8, 33, 166, 149, 137, 118, 118, 77, 3, 0.618187
86, 2, wb, catch, NA, 999, 999, 8, 33, 166, 149, 137, 118, 118, 77, 1, 0.41662
86, 2, wb, attraction, a-b-da, 2, 1, 8, 34, 60, 135, 134, 59, 135, 60, 3, 1.9898
86, 2, wb, attraction, a-b-da, 2, 1, 8, 34, 60, 135, 134, 59, 135, 60, 1, 0.316541
86, 2, wb, attraction, a-b-da, 14, 3, 8, 35, 195, 120, 181, 111, 120, 195, 2, 1.78972
86, 2, wb, attraction, a-b-da, 14, 3, 8, 35, 195, 120, 181, 111, 120, 195, 1, 0.540414
86, 2, wb, attraction, a-b-db, 9, 3, 8, 36, 114, 186, 195, 120, 120, 195, 1, 0.97218
86, 2, wb, attraction, a-b-db, 9, 3, 8, 36, 114, 186, 195, 120, 120, 195, 2, 0.348002
86, 2, wb, attraction, a-b-da, 5, 1, 8, 37, 132, 58, 135, 60, 60, 135, 3, 0.915725
86, 2, wb, attraction, a-b-da, 5, 1, 8, 37, 132, 58, 135, 60, 60, 135, 1, 1.16613
