sub_n, computer_n, bw_cond, effect, set, distance, diag, block_n, trial_n, h1, w1, h2, w2, h3, w3, choice, rt 
84, 2, wb, practice, NA, 999, 999, 0, 1, 74, 66, 134, 129, 147, 150, 1, 2.27496
84, 2, wb, practice, NA, 999, 999, 0, 1, 74, 66, 134, 129, 147, 150, 3, 1.93358
84, 2, wb, practice, NA, 999, 999, 0, 2, 66, 87, 97, 99, 128, 90, 1, 4.81339
84, 2, wb, practice, NA, 999, 999, 0, 2, 66, 87, 97, 99, 128, 90, 3, 3.91452
84, 2, wb, practice, NA, 999, 999, 0, 3, 128, 98, 143, 165, 180, 115, 1, 3.26971
84, 2, wb, practice, NA, 999, 999, 0, 3, 128, 98, 143, 165, 180, 115, 2, 4.23469
84, 2, wb, filler, NA, 999, 999, 1, 1, 148, 71, 71, 96, 141, 131, 2, 2.25517
84, 2, wb, filler, NA, 999, 999, 1, 1, 148, 71, 71, 96, 141, 131, 3, 1.02709
84, 2, wb, attraction, a-b-da, 14, 1, 1, 2, 60, 135, 135, 60, 125, 56, 3, 4.31146
84, 2, wb, attraction, a-b-da, 14, 1, 1, 2, 60, 135, 135, 60, 125, 56, 1, 2.62469
84, 2, wb, attraction, a-b-da, 2, 3, 1, 3, 193, 119, 195, 120, 120, 195, 2, 5.57249
84, 2, wb, attraction, a-b-da, 2, 3, 1, 3, 193, 119, 195, 120, 120, 195, 3, 4.08281
84, 2, wb, attraction, a-b-db, 2, 3, 1, 4, 119, 193, 120, 195, 195, 120, 3, 12.3562
84, 2, wb, attraction, a-b-db, 2, 3, 1, 4, 119, 193, 120, 195, 195, 120, 2, 1.86547
84, 2, wb, filler, NA, 999, 999, 1, 5, 140, 77, 172, 138, 143, 195, 1, 1.96424
84, 2, wb, filler, NA, 999, 999, 1, 5, 140, 77, 172, 138, 143, 195, 3, 1.68416
84, 2, wb, attraction, a-b-da, 14, 2, 1, 6, 165, 90, 90, 165, 153, 83, 3, 3.43041
84, 2, wb, attraction, a-b-da, 14, 2, 1, 6, 165, 90, 90, 165, 153, 83, 2, 6.34719
84, 2, wb, attraction, a-b-db, 9, 1, 1, 7, 57, 129, 135, 60, 60, 135, 1, 5.86509
84, 2, wb, attraction, a-b-db, 9, 1, 1, 7, 57, 129, 135, 60, 60, 135, 3, 4.23603
84, 2, wb, attraction, a-b-da, 9, 3, 1, 8, 186, 114, 120, 195, 195, 120, 1, 3.96726
84, 2, wb, attraction, a-b-da, 9, 3, 1, 8, 186, 114, 120, 195, 195, 120, 2, 7.80685
84, 2, wb, attraction, a-b-da, 5, 3, 1, 9, 195, 120, 120, 195, 190, 117, 3, 2.54616
84, 2, wb, attraction, a-b-da, 5, 3, 1, 9, 195, 120, 120, 195, 190, 117, 2, 4.60267
84, 2, wb, attraction, a-b-db, 9, 3, 1, 10, 114, 186, 195, 120, 120, 195, 1, 20.3912
84, 2, wb, attraction, a-b-db, 9, 3, 1, 10, 114, 186, 195, 120, 120, 195, 3, 3.36876
84, 2, wb, filler, NA, 999, 999, 1, 11, 130, 193, 154, 178, 85, 127, 3, 1.43103
84, 2, wb, filler, NA, 999, 999, 1, 11, 130, 193, 154, 178, 85, 127, 2, 2.82059
84, 2, wb, filler, NA, 999, 999, 1, 12, 122, 154, 165, 78, 81, 124, 3, 2.6649
84, 2, wb, filler, NA, 999, 999, 1, 12, 122, 154, 165, 78, 81, 124, 1, 1.76472
84, 2, wb, catch, NA, 999, 999, 1, 13, 155, 100, 60, 135, 133, 182, 2, 2.69149
84, 2, wb, catch, NA, 999, 999, 1, 13, 155, 100, 60, 135, 133, 182, 3, 1.65398
84, 2, wb, filler, NA, 999, 999, 1, 14, 186, 98, 86, 185, 151, 93, 3, 11.4974
84, 2, wb, filler, NA, 999, 999, 1, 14, 186, 98, 86, 185, 151, 93, 1, 3.24116
84, 2, wb, attraction, a-b-db, 2, 1, 1, 15, 60, 135, 59, 134, 135, 60, 3, 20.556
84, 2, wb, attraction, a-b-db, 2, 1, 1, 15, 60, 135, 59, 134, 135, 60, 1, 3.95902
84, 2, wb, attraction, a-b-da, 2, 1, 1, 16, 134, 59, 135, 60, 60, 135, 2, 15.4929
84, 2, wb, attraction, a-b-da, 2, 1, 1, 16, 134, 59, 135, 60, 60, 135, 3, 2.21152
84, 2, wb, filler, NA, 999, 999, 1, 17, 75, 112, 73, 179, 163, 147, 1, 2.43199
84, 2, wb, filler, NA, 999, 999, 1, 17, 75, 112, 73, 179, 163, 147, 3, 0.653152
84, 2, wb, attraction, a-b-db, 2, 2, 1, 18, 89, 163, 165, 90, 90, 165, 2, 8.60886
84, 2, wb, attraction, a-b-db, 2, 2, 1, 18, 89, 163, 165, 90, 90, 165, 3, 16.1889
84, 2, wb, attraction, a-b-da, 9, 1, 1, 19, 135, 60, 129, 57, 60, 135, 2, 9.35039
84, 2, wb, attraction, a-b-da, 9, 1, 1, 19, 135, 60, 129, 57, 60, 135, 1, 5.47687
84, 2, wb, catch, NA, 999, 999, 1, 20, 149, 166, 107, 148, 129, 66, 3, 2.54971
84, 2, wb, catch, NA, 999, 999, 1, 20, 149, 166, 107, 148, 129, 66, 1, 0.77421
84, 2, wb, attraction, a-b-db, 5, 3, 1, 21, 117, 190, 195, 120, 120, 195, 2, 13.6445
84, 2, wb, attraction, a-b-db, 5, 3, 1, 21, 117, 190, 195, 120, 120, 195, 3, 2.97362
84, 2, wb, attraction, a-b-db, 5, 1, 1, 22, 58, 132, 135, 60, 60, 135, 2, 9.75538
84, 2, wb, attraction, a-b-db, 5, 1, 1, 22, 58, 132, 135, 60, 60, 135, 3, 12.9696
84, 2, wb, filler, NA, 999, 999, 1, 23, 184, 115, 148, 102, 106, 69, 3, 3.14079
84, 2, wb, filler, NA, 999, 999, 1, 23, 184, 115, 148, 102, 106, 69, 1, 1.12527
84, 2, wb, attraction, a-b-db, 5, 2, 1, 24, 88, 161, 165, 90, 90, 165, 2, 6.96534
84, 2, wb, attraction, a-b-db, 5, 2, 1, 24, 88, 161, 165, 90, 90, 165, 3, 4.42782
84, 2, wb, filler, NA, 999, 999, 1, 25, 102, 109, 111, 105, 174, 157, 1, 7.97505
84, 2, wb, filler, NA, 999, 999, 1, 25, 102, 109, 111, 105, 174, 157, 3, 0.788561
84, 2, wb, filler, NA, 999, 999, 1, 26, 138, 159, 58, 67, 71, 82, 2, 2.69911
84, 2, wb, filler, NA, 999, 999, 1, 26, 138, 159, 58, 67, 71, 82, 1, 0.917295
84, 2, wb, attraction, a-b-db, 9, 2, 1, 27, 90, 165, 86, 157, 165, 90, 2, 14.0624
84, 2, wb, attraction, a-b-db, 9, 2, 1, 27, 90, 165, 86, 157, 165, 90, 1, 0.8625
84, 2, wb, attraction, a-b-db, 14, 3, 1, 28, 195, 120, 120, 195, 111, 181, 3, 26.9936
84, 2, wb, attraction, a-b-db, 14, 3, 1, 28, 195, 120, 120, 195, 111, 181, 2, 2.04909
84, 2, wb, attraction, a-b-db, 14, 2, 1, 29, 165, 90, 83, 153, 90, 165, 2, 9.58842
84, 2, wb, attraction, a-b-db, 14, 2, 1, 29, 165, 90, 83, 153, 90, 165, 3, 0.66542
84, 2, wb, attraction, a-b-da, 14, 3, 1, 30, 181, 111, 195, 120, 120, 195, 1, 10.0924
84, 2, wb, attraction, a-b-da, 14, 3, 1, 30, 181, 111, 195, 120, 120, 195, 3, 3.38866
84, 2, wb, catch, NA, 999, 999, 1, 31, 119, 136, 100, 95, 135, 180, 2, 2.91429
84, 2, wb, catch, NA, 999, 999, 1, 31, 119, 136, 100, 95, 135, 180, 3, 1.52391
84, 2, wb, attraction, a-b-da, 5, 1, 1, 32, 60, 135, 135, 60, 132, 58, 2, 20.004
84, 2, wb, attraction, a-b-da, 5, 1, 1, 32, 60, 135, 135, 60, 132, 58, 1, 5.5573
84, 2, wb, attraction, a-b-da, 9, 2, 1, 33, 165, 90, 157, 86, 90, 165, 2, 5.97125
84, 2, wb, attraction, a-b-da, 9, 2, 1, 33, 165, 90, 157, 86, 90, 165, 3, 2.65804
84, 2, wb, attraction, a-b-da, 2, 2, 1, 34, 163, 89, 165, 90, 90, 165, 1, 23.3804
84, 2, wb, attraction, a-b-da, 2, 2, 1, 34, 163, 89, 165, 90, 90, 165, 3, 5.34112
84, 2, wb, attraction, a-b-db, 14, 1, 1, 35, 135, 60, 60, 135, 56, 125, 3, 8.53212
84, 2, wb, attraction, a-b-db, 14, 1, 1, 35, 135, 60, 60, 135, 56, 125, 2, 11.1635
84, 2, wb, filler, NA, 999, 999, 1, 36, 163, 175, 68, 138, 127, 94, 2, 3.10319
84, 2, wb, filler, NA, 999, 999, 1, 36, 163, 175, 68, 138, 127, 94, 1, 0.969652
84, 2, wb, attraction, a-b-da, 5, 2, 1, 37, 165, 90, 161, 88, 90, 165, 2, 16.0645
84, 2, wb, attraction, a-b-da, 5, 2, 1, 37, 165, 90, 161, 88, 90, 165, 3, 13.6961
84, 2, wb, catch, NA, 999, 999, 2, 1, 177, 138, 106, 149, 118, 77, 3, 2.66986
84, 2, wb, catch, NA, 999, 999, 2, 1, 177, 138, 106, 149, 118, 77, 1, 1.66563
84, 2, wb, attraction, a-b-da, 5, 1, 2, 2, 60, 135, 135, 60, 132, 58, 2, 7.45246
84, 2, wb, attraction, a-b-da, 5, 1, 2, 2, 60, 135, 135, 60, 132, 58, 1, 12.4555
84, 2, wb, attraction, a-b-da, 9, 3, 2, 3, 186, 114, 120, 195, 195, 120, 1, 5.84742
84, 2, wb, attraction, a-b-da, 9, 3, 2, 3, 186, 114, 120, 195, 195, 120, 2, 9.27493
84, 2, wb, catch, NA, 999, 999, 2, 4, 163, 152, 88, 107, 143, 112, 2, 2.49119
84, 2, wb, catch, NA, 999, 999, 2, 4, 163, 152, 88, 107, 143, 112, 1, 0.821803
84, 2, wb, filler, NA, 999, 999, 2, 5, 129, 129, 86, 121, 127, 68, 3, 4.87481
84, 2, wb, filler, NA, 999, 999, 2, 5, 129, 129, 86, 121, 127, 68, 1, 3.89328
84, 2, wb, attraction, a-b-db, 14, 1, 2, 6, 135, 60, 56, 125, 60, 135, 2, 39.95
84, 2, wb, attraction, a-b-db, 14, 1, 2, 6, 135, 60, 56, 125, 60, 135, 1, 22.0114
84, 2, wb, filler, NA, 999, 999, 2, 7, 104, 101, 124, 162, 149, 138, 1, 3.16257
84, 2, wb, filler, NA, 999, 999, 2, 7, 104, 101, 124, 162, 149, 138, 3, 31.6743
84, 2, wb, filler, NA, 999, 999, 2, 8, 181, 64, 70, 68, 178, 100, 2, 2.15558
84, 2, wb, filler, NA, 999, 999, 2, 8, 181, 64, 70, 68, 178, 100, 3, 1.1636
84, 2, wb, filler, NA, 999, 999, 2, 9, 182, 93, 177, 74, 129, 108, 2, 12.0025
84, 2, wb, filler, NA, 999, 999, 2, 9, 182, 93, 177, 74, 129, 108, 1, 4.03802
84, 2, wb, attraction, a-b-db, 5, 1, 2, 10, 60, 135, 58, 132, 135, 60, 3, 21.6573
84, 2, wb, attraction, a-b-db, 5, 1, 2, 10, 60, 135, 58, 132, 135, 60, 1, 6.59985
84, 2, wb, attraction, a-b-db, 9, 3, 2, 11, 114, 186, 120, 195, 195, 120, 3, 40.0358
84, 2, wb, attraction, a-b-db, 9, 3, 2, 11, 114, 186, 120, 195, 195, 120, 2, 1.0214
84, 2, wb, attraction, a-b-da, 14, 2, 2, 12, 165, 90, 90, 165, 153, 83, 3, 19.4263
84, 2, wb, attraction, a-b-da, 14, 2, 2, 12, 165, 90, 90, 165, 153, 83, 1, 27.3702
84, 2, wb, catch, NA, 999, 999, 2, 13, 64, 131, 148, 107, 183, 132, 1, 2.0649
84, 2, wb, catch, NA, 999, 999, 2, 13, 64, 131, 148, 107, 183, 132, 3, 0.732969
84, 2, wb, filler, NA, 999, 999, 2, 14, 118, 100, 101, 177, 109, 179, 1, 5.67727
84, 2, wb, filler, NA, 999, 999, 2, 14, 118, 100, 101, 177, 109, 179, 3, 7.90357
84, 2, wb, attraction, a-b-da, 5, 3, 2, 15, 190, 117, 120, 195, 195, 120, 2, 30.6468
84, 2, wb, attraction, a-b-da, 5, 3, 2, 15, 190, 117, 120, 195, 195, 120, 3, 0.891289
84, 2, wb, filler, NA, 999, 999, 2, 16, 98, 165, 57, 128, 129, 79, 2, 6.10093
84, 2, wb, filler, NA, 999, 999, 2, 16, 98, 165, 57, 128, 129, 79, 1, 1.95841
84, 2, wb, attraction, a-b-db, 14, 3, 2, 17, 195, 120, 120, 195, 111, 181, 3, 12.677
84, 2, wb, attraction, a-b-db, 14, 3, 2, 17, 195, 120, 120, 195, 111, 181, 1, 1.02899
84, 2, wb, attraction, a-b-db, 14, 2, 2, 18, 165, 90, 83, 153, 90, 165, 2, 6.87347
84, 2, wb, attraction, a-b-db, 14, 2, 2, 18, 165, 90, 83, 153, 90, 165, 1, 9.89911
84, 2, wb, attraction, a-b-da, 9, 1, 2, 19, 135, 60, 60, 135, 129, 57, 3, 39.0739
84, 2, wb, attraction, a-b-da, 9, 1, 2, 19, 135, 60, 60, 135, 129, 57, 2, 6.77035
84, 2, wb, attraction, a-b-da, 2, 3, 2, 20, 120, 195, 195, 120, 193, 119, 2, 12.8876
84, 2, wb, attraction, a-b-da, 2, 3, 2, 20, 120, 195, 195, 120, 193, 119, 1, 6.73558
84, 2, wb, attraction, a-b-da, 5, 2, 2, 21, 165, 90, 90, 165, 161, 88, 3, 64.246
84, 2, wb, attraction, a-b-da, 5, 2, 2, 21, 165, 90, 90, 165, 161, 88, 2, 1.59993
84, 2, wb, attraction, a-b-db, 2, 3, 2, 22, 195, 120, 120, 195, 119, 193, 1, 27.5573
84, 2, wb, attraction, a-b-db, 2, 3, 2, 22, 195, 120, 120, 195, 119, 193, 3, 21.1902
84, 2, wb, attraction, a-b-da, 14, 1, 2, 23, 125, 56, 135, 60, 60, 135, 1, 32.734
84, 2, wb, attraction, a-b-da, 14, 1, 2, 23, 125, 56, 135, 60, 60, 135, 2, 0.677741
84, 2, wb, filler, NA, 999, 999, 2, 24, 107, 118, 98, 133, 98, 173, 1, 5.21629
84, 2, wb, filler, NA, 999, 999, 2, 24, 107, 118, 98, 133, 98, 173, 3, 1.61327
84, 2, wb, attraction, a-b-db, 9, 2, 2, 25, 86, 157, 165, 90, 90, 165, 1, 19.1299
84, 2, wb, attraction, a-b-db, 9, 2, 2, 25, 86, 157, 165, 90, 90, 165, 3, 8.60608
84, 2, wb, filler, NA, 999, 999, 2, 26, 138, 86, 79, 90, 175, 77, 2, 1.37718
84, 2, wb, filler, NA, 999, 999, 2, 26, 138, 86, 79, 90, 175, 77, 1, 17.4968
84, 2, wb, attraction, a-b-db, 5, 2, 2, 27, 90, 165, 165, 90, 88, 161, 2, 19.6213
84, 2, wb, attraction, a-b-db, 5, 2, 2, 27, 90, 165, 165, 90, 88, 161, 1, 0.565709
84, 2, wb, attraction, a-b-db, 5, 3, 2, 28, 120, 195, 195, 120, 117, 190, 2, 19.781
84, 2, wb, attraction, a-b-db, 5, 3, 2, 28, 120, 195, 195, 120, 117, 190, 1, 18.1108
84, 2, wb, attraction, a-b-db, 9, 1, 2, 29, 135, 60, 60, 135, 57, 129, 3, 22.547
84, 2, wb, attraction, a-b-db, 9, 1, 2, 29, 135, 60, 60, 135, 57, 129, 1, 9.6293
84, 2, wb, filler, NA, 999, 999, 2, 30, 114, 99, 106, 173, 188, 163, 1, 2.28673
84, 2, wb, filler, NA, 999, 999, 2, 30, 114, 99, 106, 173, 188, 163, 3, 0.770016
84, 2, wb, attraction, a-b-db, 2, 2, 2, 31, 165, 90, 89, 163, 90, 165, 1, 21.961
84, 2, wb, attraction, a-b-db, 2, 2, 2, 31, 165, 90, 89, 163, 90, 165, 3, 0.730839
84, 2, wb, attraction, a-b-da, 14, 3, 2, 32, 195, 120, 181, 111, 120, 195, 2, 6.94722
84, 2, wb, attraction, a-b-da, 14, 3, 2, 32, 195, 120, 181, 111, 120, 195, 3, 2.74638
84, 2, wb, filler, NA, 999, 999, 2, 33, 149, 101, 166, 182, 182, 139, 1, 6.00953
84, 2, wb, filler, NA, 999, 999, 2, 33, 149, 101, 166, 182, 182, 139, 2, 4.42226
84, 2, wb, attraction, a-b-da, 9, 2, 2, 34, 90, 165, 157, 86, 165, 90, 2, 13.5301
84, 2, wb, attraction, a-b-da, 9, 2, 2, 34, 90, 165, 157, 86, 165, 90, 1, 0.943823
84, 2, wb, attraction, a-b-db, 2, 1, 2, 35, 59, 134, 135, 60, 60, 135, 3, 28.7995
84, 2, wb, attraction, a-b-db, 2, 1, 2, 35, 59, 134, 135, 60, 60, 135, 2, 5.82177
84, 2, wb, attraction, a-b-da, 2, 2, 2, 36, 165, 90, 90, 165, 163, 89, 1, 18.9052
84, 2, wb, attraction, a-b-da, 2, 2, 2, 36, 165, 90, 90, 165, 163, 89, 2, 14.7747
84, 2, wb, attraction, a-b-da, 2, 1, 2, 37, 135, 60, 134, 59, 60, 135, 2, 18.3453
84, 2, wb, attraction, a-b-da, 2, 1, 2, 37, 135, 60, 134, 59, 60, 135, 3, 31.9729
84, 2, wb, attraction, a-b-da, 5, 2, 3, 1, 161, 88, 165, 90, 90, 165, 1, 51.2582
84, 2, wb, attraction, a-b-da, 5, 2, 3, 1, 161, 88, 165, 90, 90, 165, 3, 2.12756
84, 2, wb, attraction, a-b-da, 5, 3, 3, 2, 195, 120, 120, 195, 190, 117, 3, 47.0475
84, 2, wb, attraction, a-b-da, 5, 3, 3, 2, 195, 120, 120, 195, 190, 117, 2, 3.10283
84, 2, wb, attraction, a-b-da, 2, 1, 3, 3, 60, 135, 135, 60, 134, 59, 3, 48.1596
84, 2, wb, attraction, a-b-da, 2, 1, 3, 3, 60, 135, 135, 60, 134, 59, 1, 0.585967
84, 2, wb, attraction, a-b-da, 2, 2, 3, 4, 165, 90, 163, 89, 90, 165, 2, 18.6564
84, 2, wb, attraction, a-b-da, 2, 2, 3, 4, 165, 90, 163, 89, 90, 165, 3, 0.847772
84, 2, wb, filler, NA, 999, 999, 3, 5, 135, 183, 150, 141, 62, 139, 3, 3.25144
84, 2, wb, filler, NA, 999, 999, 3, 5, 135, 183, 150, 141, 62, 139, 1, 0.895864
84, 2, wb, attraction, a-b-da, 14, 3, 3, 6, 120, 195, 195, 120, 181, 111, 3, 6.05753
84, 2, wb, attraction, a-b-da, 14, 3, 3, 6, 120, 195, 195, 120, 181, 111, 2, 20.8921
84, 2, wb, attraction, a-b-db, 9, 1, 3, 7, 60, 135, 57, 129, 135, 60, 3, 29.2643
84, 2, wb, attraction, a-b-db, 9, 1, 3, 7, 60, 135, 57, 129, 135, 60, 1, 2.72388
84, 2, wb, attraction, a-b-db, 5, 2, 3, 8, 88, 161, 90, 165, 165, 90, 1, 23.8515
84, 2, wb, attraction, a-b-db, 5, 2, 3, 8, 88, 161, 90, 165, 165, 90, 3, 0.72939
84, 2, wb, catch, NA, 999, 999, 3, 9, 191, 124, 119, 76, 162, 93, 2, 1.97773
84, 2, wb, catch, NA, 999, 999, 3, 9, 191, 124, 119, 76, 162, 93, 1, 0.617197
84, 2, wb, attraction, a-b-da, 14, 2, 3, 10, 165, 90, 90, 165, 153, 83, 3, 14.5022
84, 2, wb, attraction, a-b-da, 14, 2, 3, 10, 165, 90, 90, 165, 153, 83, 1, 27.7329
84, 2, wb, attraction, a-b-db, 14, 2, 3, 11, 165, 90, 83, 153, 90, 165, 2, 11.085
84, 2, wb, attraction, a-b-db, 14, 2, 3, 11, 165, 90, 83, 153, 90, 165, 1, 3.51745
84, 2, wb, attraction, a-b-da, 9, 3, 3, 12, 186, 114, 195, 120, 120, 195, 2, 19.6216
84, 2, wb, attraction, a-b-da, 9, 3, 3, 12, 186, 114, 195, 120, 120, 195, 3, 5.53425
84, 2, wb, attraction, a-b-db, 5, 1, 3, 13, 60, 135, 135, 60, 58, 132, 3, 45.5971
84, 2, wb, attraction, a-b-db, 5, 1, 3, 13, 60, 135, 135, 60, 58, 132, 2, 1.40671
84, 2, wb, attraction, a-b-db, 5, 3, 3, 14, 195, 120, 117, 190, 120, 195, 1, 19.4355
84, 2, wb, attraction, a-b-db, 5, 3, 3, 14, 195, 120, 117, 190, 120, 195, 3, 8.19551
84, 2, wb, filler, NA, 999, 999, 3, 15, 150, 154, 86, 112, 143, 105, 2, 1.23899
84, 2, wb, filler, NA, 999, 999, 3, 15, 150, 154, 86, 112, 143, 105, 1, 1.33975
84, 2, wb, attraction, a-b-da, 5, 1, 3, 16, 132, 58, 135, 60, 60, 135, 2, 35.5953
84, 2, wb, attraction, a-b-da, 5, 1, 3, 16, 132, 58, 135, 60, 60, 135, 3, 26.4962
84, 2, wb, filler, NA, 999, 999, 3, 17, 142, 123, 148, 80, 81, 176, 2, 7.26652
84, 2, wb, filler, NA, 999, 999, 3, 17, 142, 123, 148, 80, 81, 176, 1, 2.36496
84, 2, wb, filler, NA, 999, 999, 3, 18, 138, 126, 88, 183, 81, 124, 3, 2.55539
84, 2, wb, filler, NA, 999, 999, 3, 18, 138, 126, 88, 183, 81, 124, 2, 28.6593
84, 2, wb, attraction, a-b-db, 2, 3, 3, 19, 120, 195, 119, 193, 195, 120, 3, 48.2702
84, 2, wb, attraction, a-b-db, 2, 3, 3, 19, 120, 195, 119, 193, 195, 120, 1, 0.939754
84, 2, wb, filler, NA, 999, 999, 3, 20, 61, 65, 56, 77, 123, 97, 1, 10.8754
84, 2, wb, filler, NA, 999, 999, 3, 20, 61, 65, 56, 77, 123, 97, 3, 0.860034
84, 2, wb, filler, NA, 999, 999, 3, 21, 175, 73, 74, 166, 190, 86, 2, 18.391
84, 2, wb, filler, NA, 999, 999, 3, 21, 175, 73, 74, 166, 190, 86, 3, 0.91331
84, 2, wb, filler, NA, 999, 999, 3, 22, 175, 143, 174, 164, 86, 148, 3, 1.68222
84, 2, wb, filler, NA, 999, 999, 3, 22, 175, 143, 174, 164, 86, 148, 2, 15.0539
84, 2, wb, attraction, a-b-db, 2, 2, 3, 23, 165, 90, 89, 163, 90, 165, 2, 25.7569
84, 2, wb, attraction, a-b-db, 2, 2, 3, 23, 165, 90, 89, 163, 90, 165, 1, 15.6062
84, 2, wb, filler, NA, 999, 999, 3, 24, 145, 85, 163, 177, 92, 66, 3, 2.39919
84, 2, wb, filler, NA, 999, 999, 3, 24, 145, 85, 163, 177, 92, 66, 2, 0.437878
84, 2, wb, attraction, a-b-da, 14, 1, 3, 25, 125, 56, 60, 135, 135, 60, 1, 13.8663
84, 2, wb, attraction, a-b-da, 14, 1, 3, 25, 125, 56, 60, 135, 135, 60, 2, 37.3387
84, 2, wb, attraction, a-b-db, 2, 1, 3, 26, 59, 134, 60, 135, 135, 60, 2, 48.4876
84, 2, wb, attraction, a-b-db, 2, 1, 3, 26, 59, 134, 60, 135, 135, 60, 1, 5.10852
84, 2, wb, filler, NA, 999, 999, 3, 27, 109, 187, 99, 58, 57, 181, 2, 1.44402
84, 2, wb, filler, NA, 999, 999, 3, 27, 109, 187, 99, 58, 57, 181, 1, 0.424832
84, 2, wb, catch, NA, 999, 999, 3, 28, 178, 137, 120, 135, 65, 130, 3, 1.26938
84, 2, wb, catch, NA, 999, 999, 3, 28, 178, 137, 120, 135, 65, 130, 1, 0.825561
84, 2, wb, catch, NA, 999, 999, 3, 29, 133, 182, 147, 108, 104, 91, 3, 1.92592
84, 2, wb, catch, NA, 999, 999, 3, 29, 133, 182, 147, 108, 104, 91, 1, 1.13547
84, 2, wb, attraction, a-b-db, 9, 2, 3, 30, 86, 157, 165, 90, 90, 165, 3, 89.7275
84, 2, wb, attraction, a-b-db, 9, 2, 3, 30, 86, 157, 165, 90, 90, 165, 2, 1.16684
84, 2, wb, attraction, a-b-da, 9, 2, 3, 31, 157, 86, 90, 165, 165, 90, 1, 9.21377
84, 2, wb, attraction, a-b-da, 9, 2, 3, 31, 157, 86, 90, 165, 165, 90, 2, 17.2575
84, 2, wb, attraction, a-b-db, 9, 3, 3, 32, 120, 195, 114, 186, 195, 120, 2, 13.0801
84, 2, wb, attraction, a-b-db, 9, 3, 3, 32, 120, 195, 114, 186, 195, 120, 3, 1.98401
84, 2, wb, attraction, a-b-db, 14, 1, 3, 33, 60, 135, 135, 60, 56, 125, 3, 31.462
84, 2, wb, attraction, a-b-db, 14, 1, 3, 33, 60, 135, 135, 60, 56, 125, 1, 2.70535
84, 2, wb, attraction, a-b-da, 9, 1, 3, 34, 60, 135, 135, 60, 129, 57, 2, 27.1145
84, 2, wb, attraction, a-b-da, 9, 1, 3, 34, 60, 135, 135, 60, 129, 57, 1, 7.16467
84, 2, wb, filler, NA, 999, 999, 3, 35, 141, 102, 121, 63, 169, 147, 2, 1.49764
84, 2, wb, filler, NA, 999, 999, 3, 35, 141, 102, 121, 63, 169, 147, 3, 0.764602
84, 2, wb, attraction, a-b-da, 2, 3, 3, 36, 120, 195, 195, 120, 193, 119, 3, 17.0916
84, 2, wb, attraction, a-b-da, 2, 3, 3, 36, 120, 195, 195, 120, 193, 119, 1, 1.71436
84, 2, wb, attraction, a-b-db, 14, 3, 3, 37, 195, 120, 111, 181, 120, 195, 2, 24.635
84, 2, wb, attraction, a-b-db, 14, 3, 3, 37, 195, 120, 111, 181, 120, 195, 3, 10.4973
84, 2, wb, filler, NA, 999, 999, 4, 1, 166, 132, 195, 60, 113, 161, 2, 13.4159
84, 2, wb, filler, NA, 999, 999, 4, 1, 166, 132, 195, 60, 113, 161, 1, 3.69838
84, 2, wb, filler, NA, 999, 999, 4, 2, 151, 111, 179, 105, 95, 69, 3, 2.02706
84, 2, wb, filler, NA, 999, 999, 4, 2, 151, 111, 179, 105, 95, 69, 2, 3.99249
84, 2, wb, attraction, a-b-db, 9, 3, 4, 3, 114, 186, 195, 120, 120, 195, 1, 24.4692
84, 2, wb, attraction, a-b-db, 9, 3, 4, 3, 114, 186, 195, 120, 120, 195, 3, 11.1302
84, 2, wb, attraction, a-b-db, 2, 3, 4, 4, 120, 195, 195, 120, 119, 193, 2, 46.9832
84, 2, wb, attraction, a-b-db, 2, 3, 4, 4, 120, 195, 195, 120, 119, 193, 1, 0.857239
84, 2, wb, catch, NA, 999, 999, 4, 5, 130, 65, 115, 140, 156, 159, 1, 3.12436
84, 2, wb, catch, NA, 999, 999, 4, 5, 130, 65, 115, 140, 156, 159, 3, 0.533328
84, 2, wb, catch, NA, 999, 999, 4, 6, 101, 154, 122, 73, 122, 193, 2, 1.60572
84, 2, wb, catch, NA, 999, 999, 4, 6, 101, 154, 122, 73, 122, 193, 3, 0.515875
84, 2, wb, attraction, a-b-da, 5, 1, 4, 7, 135, 60, 132, 58, 60, 135, 2, 20.421
84, 2, wb, attraction, a-b-da, 5, 1, 4, 7, 135, 60, 132, 58, 60, 135, 1, 1.97323
84, 2, wb, attraction, a-b-da, 2, 3, 4, 8, 193, 119, 120, 195, 195, 120, 1, 31.4513
84, 2, wb, attraction, a-b-da, 2, 3, 4, 8, 193, 119, 120, 195, 195, 120, 2, 1.44686
84, 2, wb, catch, NA, 999, 999, 4, 9, 141, 174, 117, 78, 91, 164, 2, 1.24237
84, 2, wb, catch, NA, 999, 999, 4, 9, 141, 174, 117, 78, 91, 164, 1, 0.631123
84, 2, wb, attraction, a-b-db, 2, 2, 4, 10, 165, 90, 89, 163, 90, 165, 3, 61.6195
84, 2, wb, attraction, a-b-db, 2, 2, 4, 10, 165, 90, 89, 163, 90, 165, 1, 7.83164
84, 2, wb, attraction, a-b-db, 9, 2, 4, 11, 86, 157, 165, 90, 90, 165, 1, 10.4737
84, 2, wb, attraction, a-b-db, 9, 2, 4, 11, 86, 157, 165, 90, 90, 165, 3, 17.9385
84, 2, wb, attraction, a-b-da, 5, 2, 4, 12, 161, 88, 165, 90, 90, 165, 2, 55.3815
84, 2, wb, attraction, a-b-da, 5, 2, 4, 12, 161, 88, 165, 90, 90, 165, 3, 0.860752
84, 2, wb, filler, NA, 999, 999, 4, 13, 101, 153, 59, 79, 112, 87, 2, 1.42378
84, 2, wb, filler, NA, 999, 999, 4, 13, 101, 153, 59, 79, 112, 87, 1, 0.437347
84, 2, wb, attraction, a-b-da, 2, 2, 4, 14, 90, 165, 165, 90, 163, 89, 2, 19.1218
84, 2, wb, attraction, a-b-da, 2, 2, 4, 14, 90, 165, 165, 90, 163, 89, 1, 0.550527
84, 2, wb, attraction, a-b-db, 14, 1, 4, 15, 60, 135, 135, 60, 56, 125, 2, 17.2542
84, 2, wb, attraction, a-b-db, 14, 1, 4, 15, 60, 135, 135, 60, 56, 125, 1, 12.4062
84, 2, wb, attraction, a-b-db, 14, 3, 4, 16, 120, 195, 195, 120, 111, 181, 3, 17.5203
84, 2, wb, attraction, a-b-db, 14, 3, 4, 16, 120, 195, 195, 120, 111, 181, 1, 1.40536
84, 2, wb, attraction, a-b-db, 5, 3, 4, 17, 117, 190, 120, 195, 195, 120, 1, 11.6749
84, 2, wb, attraction, a-b-db, 5, 3, 4, 17, 117, 190, 120, 195, 195, 120, 3, 3.82718
84, 2, wb, attraction, a-b-da, 9, 3, 4, 18, 120, 195, 186, 114, 195, 120, 2, 10.7827
84, 2, wb, attraction, a-b-da, 9, 3, 4, 18, 120, 195, 186, 114, 195, 120, 1, 4.77926
84, 2, wb, attraction, a-b-da, 14, 3, 4, 19, 181, 111, 120, 195, 195, 120, 1, 13.5923
84, 2, wb, attraction, a-b-da, 14, 3, 4, 19, 181, 111, 120, 195, 195, 120, 2, 10.4675
84, 2, wb, attraction, a-b-db, 5, 1, 4, 20, 58, 132, 60, 135, 135, 60, 3, 58.7153
84, 2, wb, attraction, a-b-db, 5, 1, 4, 20, 58, 132, 60, 135, 135, 60, 2, 3.32443
84, 2, wb, filler, NA, 999, 999, 4, 21, 91, 177, 130, 164, 140, 169, 1, 2.55586
84, 2, wb, filler, NA, 999, 999, 4, 21, 91, 177, 130, 164, 140, 169, 3, 0.547818
84, 2, wb, filler, NA, 999, 999, 4, 22, 63, 126, 85, 167, 56, 143, 3, 7.32354
84, 2, wb, filler, NA, 999, 999, 4, 22, 63, 126, 85, 167, 56, 143, 2, 0.435138
84, 2, wb, filler, NA, 999, 999, 4, 23, 192, 159, 184, 75, 177, 57, 3, 2.33561
84, 2, wb, filler, NA, 999, 999, 4, 23, 192, 159, 184, 75, 177, 57, 1, 0.464905
84, 2, wb, filler, NA, 999, 999, 4, 24, 195, 117, 120, 130, 170, 110, 2, 7.93201
84, 2, wb, filler, NA, 999, 999, 4, 24, 195, 117, 120, 130, 170, 110, 1, 11.6035
84, 2, wb, filler, NA, 999, 999, 4, 25, 153, 133, 73, 80, 137, 84, 2, 1.22182
84, 2, wb, filler, NA, 999, 999, 4, 25, 153, 133, 73, 80, 137, 84, 1, 0.619442
84, 2, wb, attraction, a-b-da, 14, 2, 4, 26, 153, 83, 165, 90, 90, 165, 1, 19.5286
84, 2, wb, attraction, a-b-da, 14, 2, 4, 26, 153, 83, 165, 90, 90, 165, 3, 11.8283
84, 2, wb, attraction, a-b-da, 5, 3, 4, 27, 195, 120, 120, 195, 190, 117, 3, 49.6773
84, 2, wb, attraction, a-b-da, 5, 3, 4, 27, 195, 120, 120, 195, 190, 117, 1, 12.5784
84, 2, wb, attraction, a-b-db, 9, 1, 4, 28, 135, 60, 57, 129, 60, 135, 1, 26.8611
84, 2, wb, attraction, a-b-db, 9, 1, 4, 28, 135, 60, 57, 129, 60, 135, 3, 0.850053
84, 2, wb, filler, NA, 999, 999, 4, 29, 171, 190, 167, 150, 91, 131, 3, 1.26174
84, 2, wb, filler, NA, 999, 999, 4, 29, 171, 190, 167, 150, 91, 131, 1, 0.569997
84, 2, wb, attraction, a-b-da, 9, 1, 4, 30, 135, 60, 60, 135, 129, 57, 2, 56.5849
84, 2, wb, attraction, a-b-da, 9, 1, 4, 30, 135, 60, 60, 135, 129, 57, 1, 9.50415
84, 2, wb, attraction, a-b-db, 14, 2, 4, 31, 83, 153, 165, 90, 90, 165, 1, 33.719
84, 2, wb, attraction, a-b-db, 14, 2, 4, 31, 83, 153, 165, 90, 90, 165, 3, 0.639146
84, 2, wb, attraction, a-b-db, 2, 1, 4, 32, 135, 60, 59, 134, 60, 135, 2, 11.5955
84, 2, wb, attraction, a-b-db, 2, 1, 4, 32, 135, 60, 59, 134, 60, 135, 1, 2.31122
84, 2, wb, attraction, a-b-da, 2, 1, 4, 33, 60, 135, 134, 59, 135, 60, 2, 19.2477
84, 2, wb, attraction, a-b-da, 2, 1, 4, 33, 60, 135, 134, 59, 135, 60, 1, 9.67111
84, 2, wb, attraction, a-b-db, 5, 2, 4, 34, 88, 161, 90, 165, 165, 90, 2, 22.3033
84, 2, wb, attraction, a-b-db, 5, 2, 4, 34, 88, 161, 90, 165, 165, 90, 3, 8.48359
84, 2, wb, filler, NA, 999, 999, 4, 35, 90, 69, 151, 187, 128, 88, 1, 1.79563
84, 2, wb, filler, NA, 999, 999, 4, 35, 90, 69, 151, 187, 128, 88, 2, 0.514357
84, 2, wb, attraction, a-b-da, 9, 2, 4, 36, 165, 90, 157, 86, 90, 165, 2, 22.1154
84, 2, wb, attraction, a-b-da, 9, 2, 4, 36, 165, 90, 157, 86, 90, 165, 3, 2.3672
84, 2, wb, attraction, a-b-da, 14, 1, 4, 37, 135, 60, 125, 56, 60, 135, 2, 26.2377
84, 2, wb, attraction, a-b-da, 14, 1, 4, 37, 135, 60, 125, 56, 60, 135, 1, 11.1875
84, 2, wb, catch, NA, 999, 999, 5, 1, 152, 103, 134, 181, 113, 82, 3, 3.76519
84, 2, wb, catch, NA, 999, 999, 5, 1, 152, 103, 134, 181, 113, 82, 2, 1.6447
84, 2, wb, filler, NA, 999, 999, 5, 2, 105, 78, 105, 99, 158, 165, 1, 4.9281
84, 2, wb, filler, NA, 999, 999, 5, 2, 105, 78, 105, 99, 158, 165, 3, 0.976716
84, 2, wb, attraction, a-b-db, 2, 2, 5, 3, 89, 163, 90, 165, 165, 90, 3, 78.4148
84, 2, wb, attraction, a-b-db, 2, 2, 5, 3, 89, 163, 90, 165, 165, 90, 1, 2.6537
84, 2, wb, attraction, a-b-da, 2, 2, 5, 4, 163, 89, 165, 90, 90, 165, 2, 13.9849
84, 2, wb, attraction, a-b-da, 2, 2, 5, 4, 163, 89, 165, 90, 90, 165, 1, 7.62038
84, 2, wb, attraction, a-b-da, 2, 3, 5, 5, 193, 119, 195, 120, 120, 195, 1, 12.2232
84, 2, wb, attraction, a-b-da, 2, 3, 5, 5, 193, 119, 195, 120, 120, 195, 3, 6.61023
84, 2, wb, attraction, a-b-da, 5, 1, 5, 6, 135, 60, 132, 58, 60, 135, 2, 15.7973
