sub_n, computer_n, bw_cond, effect, set, distance, diag, block_n, trial_n, h1, w1, h2, w2, h3, w3, choice, rt 
8, 2, wb, practice, NA, 999, 999, 0, 1, 72, 161, 122, 160, 97, 170, 1, 2.72734
8, 2, wb, practice, NA, 999, 999, 0, 1, 72, 161, 122, 160, 97, 170, 2, 1.79783
8, 2, wb, practice, NA, 999, 999, 0, 2, 75, 72, 167, 115, 161, 64, 1, 1.6884
8, 2, wb, practice, NA, 999, 999, 0, 2, 75, 72, 167, 115, 161, 64, 2, 1.01408
8, 2, wb, practice, NA, 999, 999, 0, 3, 93, 184, 172, 144, 134, 171, 1, 2.61184
8, 2, wb, practice, NA, 999, 999, 0, 3, 93, 184, 172, 144, 134, 171, 2, 1.77055
8, 2, wb, attraction, a-b-db, 5, 2, 1, 1, 165, 90, 88, 161, 90, 165, 2, 1.32038
8, 2, wb, attraction, a-b-db, 5, 2, 1, 1, 165, 90, 88, 161, 90, 165, 3, 2.84989
8, 2, wb, attraction, a-b-da, 9, 3, 1, 2, 120, 195, 186, 114, 195, 120, 2, 2.32798
8, 2, wb, attraction, a-b-da, 9, 3, 1, 2, 120, 195, 186, 114, 195, 120, 1, 0.920468
8, 2, wb, attraction, a-b-da, 9, 1, 1, 3, 129, 57, 60, 135, 135, 60, 1, 3.37024
8, 2, wb, attraction, a-b-da, 9, 1, 1, 3, 129, 57, 60, 135, 135, 60, 2, 1.1126
8, 2, wb, attraction, a-b-da, 9, 2, 1, 4, 90, 165, 157, 86, 165, 90, 2, 1.55313
8, 2, wb, attraction, a-b-da, 9, 2, 1, 4, 90, 165, 157, 86, 165, 90, 1, 0.785959
8, 2, wb, catch, NA, 999, 999, 1, 5, 185, 130, 93, 102, 136, 119, 2, 1.40388
8, 2, wb, catch, NA, 999, 999, 1, 5, 185, 130, 93, 102, 136, 119, 1, 0.921444
8, 2, wb, attraction, a-b-db, 2, 1, 1, 6, 59, 134, 135, 60, 60, 135, 1, 2.82507
8, 2, wb, attraction, a-b-db, 2, 1, 1, 6, 59, 134, 135, 60, 60, 135, 3, 1.01307
8, 2, wb, attraction, a-b-db, 5, 1, 1, 7, 60, 135, 135, 60, 58, 132, 2, 3.54086
8, 2, wb, attraction, a-b-db, 5, 1, 1, 7, 60, 135, 135, 60, 58, 132, 3, 2.02333
8, 2, wb, attraction, a-b-db, 5, 3, 1, 8, 195, 120, 117, 190, 120, 195, 1, 2.2972
8, 2, wb, attraction, a-b-db, 5, 3, 1, 8, 195, 120, 117, 190, 120, 195, 3, 0.934107
8, 2, wb, filler, NA, 999, 999, 1, 9, 151, 136, 61, 69, 156, 174, 2, 1.35768
8, 2, wb, filler, NA, 999, 999, 1, 9, 151, 136, 61, 69, 156, 174, 3, 0.81407
8, 2, wb, catch, NA, 999, 999, 1, 10, 114, 141, 126, 69, 135, 180, 2, 1.70741
8, 2, wb, catch, NA, 999, 999, 1, 10, 114, 141, 126, 69, 135, 180, 3, 1.07845
8, 2, wb, attraction, a-b-da, 2, 3, 1, 11, 120, 195, 195, 120, 193, 119, 2, 5.04054
8, 2, wb, attraction, a-b-da, 2, 3, 1, 11, 120, 195, 195, 120, 193, 119, 1, 0.575167
8, 2, wb, attraction, a-b-da, 5, 1, 1, 12, 60, 135, 132, 58, 135, 60, 1, 1.88392
8, 2, wb, attraction, a-b-da, 5, 1, 1, 12, 60, 135, 132, 58, 135, 60, 3, 1.62367
8, 2, wb, attraction, a-b-db, 9, 1, 1, 13, 57, 129, 135, 60, 60, 135, 1, 1.51126
8, 2, wb, attraction, a-b-db, 9, 1, 1, 13, 57, 129, 135, 60, 60, 135, 2, 0.711785
8, 2, wb, attraction, a-b-da, 2, 1, 1, 14, 135, 60, 60, 135, 134, 59, 2, 1.85679
8, 2, wb, attraction, a-b-da, 2, 1, 1, 14, 135, 60, 60, 135, 134, 59, 1, 1.2857
8, 2, wb, attraction, a-b-da, 14, 1, 1, 15, 125, 56, 60, 135, 135, 60, 2, 2.11968
8, 2, wb, attraction, a-b-da, 14, 1, 1, 15, 125, 56, 60, 135, 135, 60, 3, 1.14438
8, 2, wb, attraction, a-b-db, 2, 2, 1, 16, 90, 165, 89, 163, 165, 90, 3, 6.89835
8, 2, wb, attraction, a-b-db, 2, 2, 1, 16, 90, 165, 89, 163, 165, 90, 1, 1.05234
8, 2, wb, filler, NA, 999, 999, 1, 17, 70, 113, 57, 182, 178, 64, 1, 1.70138
8, 2, wb, filler, NA, 999, 999, 1, 17, 70, 113, 57, 182, 178, 64, 2, 1.49833
8, 2, wb, attraction, a-b-db, 2, 3, 1, 18, 195, 120, 120, 195, 119, 193, 1, 2.58616
8, 2, wb, attraction, a-b-db, 2, 3, 1, 18, 195, 120, 120, 195, 119, 193, 2, 0.656533
8, 2, wb, filler, NA, 999, 999, 1, 19, 119, 161, 193, 71, 122, 99, 3, 2.06989
8, 2, wb, filler, NA, 999, 999, 1, 19, 119, 161, 193, 71, 122, 99, 1, 0.785744
8, 2, wb, attraction, a-b-db, 14, 3, 1, 20, 120, 195, 195, 120, 111, 181, 3, 1.75923
8, 2, wb, attraction, a-b-db, 14, 3, 1, 20, 120, 195, 195, 120, 111, 181, 2, 1.4319
8, 2, wb, attraction, a-b-db, 9, 3, 1, 21, 195, 120, 114, 186, 120, 195, 2, 1.37907
8, 2, wb, attraction, a-b-db, 9, 3, 1, 21, 195, 120, 114, 186, 120, 195, 3, 0.732022
8, 2, wb, filler, NA, 999, 999, 1, 22, 120, 128, 127, 87, 174, 178, 2, 1.18222
8, 2, wb, filler, NA, 999, 999, 1, 22, 120, 128, 127, 87, 174, 178, 3, 1.86947
8, 2, wb, filler, NA, 999, 999, 1, 23, 155, 107, 60, 155, 103, 81, 3, 2.28838
8, 2, wb, filler, NA, 999, 999, 1, 23, 155, 107, 60, 155, 103, 81, 1, 1.80227
8, 2, wb, attraction, a-b-db, 9, 2, 1, 24, 90, 165, 165, 90, 86, 157, 2, 1.97795
8, 2, wb, attraction, a-b-db, 9, 2, 1, 24, 90, 165, 165, 90, 86, 157, 1, 1.09476
8, 2, wb, filler, NA, 999, 999, 1, 25, 191, 157, 84, 73, 176, 131, 2, 1.54409
8, 2, wb, filler, NA, 999, 999, 1, 25, 191, 157, 84, 73, 176, 131, 1, 0.993965
8, 2, wb, attraction, a-b-db, 14, 1, 1, 26, 56, 125, 60, 135, 135, 60, 3, 4.19414
8, 2, wb, attraction, a-b-db, 14, 1, 1, 26, 56, 125, 60, 135, 135, 60, 1, 0.784914
8, 2, wb, attraction, a-b-da, 5, 3, 1, 27, 195, 120, 190, 117, 120, 195, 1, 1.89359
8, 2, wb, attraction, a-b-da, 5, 3, 1, 27, 195, 120, 190, 117, 120, 195, 3, 0.821712
8, 2, wb, attraction, a-b-da, 2, 2, 1, 28, 163, 89, 165, 90, 90, 165, 2, 2.22271
8, 2, wb, attraction, a-b-da, 2, 2, 1, 28, 163, 89, 165, 90, 90, 165, 3, 0.987884
8, 2, wb, filler, NA, 999, 999, 1, 29, 103, 143, 184, 60, 193, 138, 2, 2.80761
8, 2, wb, filler, NA, 999, 999, 1, 29, 103, 143, 184, 60, 193, 138, 3, 0.9828
8, 2, wb, catch, NA, 999, 999, 1, 30, 80, 115, 126, 129, 165, 150, 1, 4.09946
8, 2, wb, catch, NA, 999, 999, 1, 30, 80, 115, 126, 129, 165, 150, 3, 0.91815
8, 2, wb, attraction, a-b-da, 14, 2, 1, 31, 153, 83, 90, 165, 165, 90, 1, 1.64683
8, 2, wb, attraction, a-b-da, 14, 2, 1, 31, 153, 83, 90, 165, 165, 90, 2, 0.782168
8, 2, wb, filler, NA, 999, 999, 1, 32, 130, 61, 56, 153, 138, 77, 2, 1.68409
8, 2, wb, filler, NA, 999, 999, 1, 32, 130, 61, 56, 153, 138, 77, 3, 1.04563
8, 2, wb, filler, NA, 999, 999, 1, 33, 69, 96, 83, 93, 94, 96, 1, 1.30713
8, 2, wb, filler, NA, 999, 999, 1, 33, 69, 96, 83, 93, 94, 96, 3, 0.768489
8, 2, wb, attraction, a-b-da, 5, 2, 1, 34, 165, 90, 161, 88, 90, 165, 2, 1.26138
8, 2, wb, attraction, a-b-da, 5, 2, 1, 34, 165, 90, 161, 88, 90, 165, 3, 0.996201
8, 2, wb, attraction, a-b-da, 14, 3, 1, 35, 120, 195, 181, 111, 195, 120, 2, 1.83233
8, 2, wb, attraction, a-b-da, 14, 3, 1, 35, 120, 195, 181, 111, 195, 120, 1, 1.41346
8, 2, wb, attraction, a-b-db, 14, 2, 1, 36, 83, 153, 165, 90, 90, 165, 2, 0.997091
8, 2, wb, attraction, a-b-db, 14, 2, 1, 36, 83, 153, 165, 90, 90, 165, 3, 0.627275
8, 2, wb, filler, NA, 999, 999, 1, 37, 89, 141, 60, 132, 140, 64, 2, 2.39863
8, 2, wb, filler, NA, 999, 999, 1, 37, 89, 141, 60, 132, 140, 64, 1, 1.06905
8, 2, wb, attraction, a-b-da, 9, 1, 2, 1, 135, 60, 60, 135, 129, 57, 2, 0.976774
8, 2, wb, attraction, a-b-da, 9, 1, 2, 1, 135, 60, 60, 135, 129, 57, 1, 4.91117
8, 2, wb, catch, NA, 999, 999, 2, 2, 135, 60, 165, 150, 156, 99, 1, 1.47159
8, 2, wb, catch, NA, 999, 999, 2, 2, 135, 60, 165, 150, 156, 99, 2, 0.98876
8, 2, wb, attraction, a-b-db, 14, 3, 2, 3, 111, 181, 120, 195, 195, 120, 2, 1.37206
8, 2, wb, attraction, a-b-db, 14, 3, 2, 3, 111, 181, 120, 195, 195, 120, 1, 0.88943
8, 2, wb, attraction, a-b-da, 2, 1, 2, 4, 135, 60, 60, 135, 134, 59, 2, 1.16468
8, 2, wb, attraction, a-b-da, 2, 1, 2, 4, 135, 60, 60, 135, 134, 59, 1, 0.789451
8, 2, wb, filler, NA, 999, 999, 2, 5, 155, 109, 157, 130, 57, 135, 2, 0.941489
8, 2, wb, filler, NA, 999, 999, 2, 5, 155, 109, 157, 130, 57, 135, 3, 1.11072
8, 2, wb, attraction, a-b-db, 5, 2, 2, 6, 88, 161, 90, 165, 165, 90, 2, 5.99899
8, 2, wb, attraction, a-b-db, 5, 2, 2, 6, 88, 161, 90, 165, 165, 90, 1, 1.59776
8, 2, wb, filler, NA, 999, 999, 2, 7, 172, 94, 91, 94, 138, 73, 2, 0.915347
8, 2, wb, filler, NA, 999, 999, 2, 7, 172, 94, 91, 94, 138, 73, 1, 0.869867
8, 2, wb, attraction, a-b-db, 5, 3, 2, 8, 120, 195, 117, 190, 195, 120, 1, 2.28773
8, 2, wb, attraction, a-b-db, 5, 3, 2, 8, 120, 195, 117, 190, 195, 120, 2, 0.930841
8, 2, wb, attraction, a-b-db, 2, 3, 2, 9, 119, 193, 195, 120, 120, 195, 3, 3.13963
8, 2, wb, attraction, a-b-db, 2, 3, 2, 9, 119, 193, 195, 120, 120, 195, 1, 0.836302
8, 2, wb, filler, NA, 999, 999, 2, 10, 92, 110, 151, 110, 160, 132, 1, 1.20059
8, 2, wb, filler, NA, 999, 999, 2, 10, 92, 110, 151, 110, 160, 132, 3, 2.19859
8, 2, wb, filler, NA, 999, 999, 2, 11, 131, 75, 169, 167, 97, 126, 1, 1.38727
8, 2, wb, filler, NA, 999, 999, 2, 11, 131, 75, 169, 167, 97, 126, 2, 0.931821
8, 2, wb, catch, NA, 999, 999, 2, 12, 94, 101, 118, 137, 147, 168, 1, 1.15592
8, 2, wb, catch, NA, 999, 999, 2, 12, 94, 101, 118, 137, 147, 168, 3, 1.29205
8, 2, wb, attraction, a-b-da, 14, 1, 2, 13, 60, 135, 135, 60, 125, 56, 2, 1.59267
8, 2, wb, attraction, a-b-da, 14, 1, 2, 13, 60, 135, 135, 60, 125, 56, 1, 1.18416
8, 2, wb, attraction, a-b-db, 2, 2, 2, 14, 89, 163, 90, 165, 165, 90, 3, 1.6129
8, 2, wb, attraction, a-b-db, 2, 2, 2, 14, 89, 163, 90, 165, 165, 90, 1, 1.38018
8, 2, wb, attraction, a-b-da, 2, 2, 2, 15, 90, 165, 165, 90, 163, 89, 2, 1.12989
8, 2, wb, attraction, a-b-da, 2, 2, 2, 15, 90, 165, 165, 90, 163, 89, 3, 2.21226
8, 2, wb, attraction, a-b-db, 9, 3, 2, 16, 120, 195, 114, 186, 195, 120, 2, 1.04996
8, 2, wb, attraction, a-b-db, 9, 3, 2, 16, 120, 195, 114, 186, 195, 120, 3, 1.13344
8, 2, wb, attraction, a-b-db, 14, 2, 2, 17, 90, 165, 165, 90, 83, 153, 2, 1.02993
8, 2, wb, attraction, a-b-db, 14, 2, 2, 17, 90, 165, 165, 90, 83, 153, 3, 1.42072
8, 2, wb, attraction, a-b-db, 9, 2, 2, 18, 90, 165, 86, 157, 165, 90, 2, 2.69709
8, 2, wb, attraction, a-b-db, 9, 2, 2, 18, 90, 165, 86, 157, 165, 90, 3, 2.12228
8, 2, wb, filler, NA, 999, 999, 2, 19, 164, 178, 136, 75, 172, 64, 2, 1.29103
8, 2, wb, filler, NA, 999, 999, 2, 19, 164, 178, 136, 75, 172, 64, 1, 1.52715
8, 2, wb, attraction, a-b-db, 9, 1, 2, 20, 135, 60, 60, 135, 57, 129, 1, 1.46408
8, 2, wb, attraction, a-b-db, 9, 1, 2, 20, 135, 60, 60, 135, 57, 129, 2, 0.910249
8, 2, wb, attraction, a-b-db, 5, 1, 2, 21, 58, 132, 135, 60, 60, 135, 2, 1.33465
8, 2, wb, attraction, a-b-db, 5, 1, 2, 21, 58, 132, 135, 60, 60, 135, 1, 0.760061
8, 2, wb, filler, NA, 999, 999, 2, 22, 192, 160, 78, 63, 143, 187, 2, 1.18165
8, 2, wb, filler, NA, 999, 999, 2, 22, 192, 160, 78, 63, 143, 187, 1, 1.04643
8, 2, wb, attraction, a-b-db, 14, 1, 2, 23, 135, 60, 60, 135, 56, 125, 1, 4.44154
8, 2, wb, attraction, a-b-db, 14, 1, 2, 23, 135, 60, 60, 135, 56, 125, 3, 0.997915
8, 2, wb, filler, NA, 999, 999, 2, 24, 189, 194, 145, 140, 128, 80, 3, 2.34912
8, 2, wb, filler, NA, 999, 999, 2, 24, 189, 194, 145, 140, 128, 80, 1, 0.902673
8, 2, wb, filler, NA, 999, 999, 2, 25, 154, 151, 66, 166, 187, 133, 2, 1.08814
8, 2, wb, filler, NA, 999, 999, 2, 25, 154, 151, 66, 166, 187, 133, 3, 0.961504
8, 2, wb, attraction, a-b-da, 9, 2, 2, 26, 157, 86, 90, 165, 165, 90, 2, 1.96236
8, 2, wb, attraction, a-b-da, 9, 2, 2, 26, 157, 86, 90, 165, 165, 90, 1, 0.546551
8, 2, wb, attraction, a-b-da, 5, 1, 2, 27, 135, 60, 60, 135, 132, 58, 2, 0.978659
8, 2, wb, attraction, a-b-da, 5, 1, 2, 27, 135, 60, 60, 135, 132, 58, 1, 1.31604
8, 2, wb, attraction, a-b-da, 5, 2, 2, 28, 161, 88, 90, 165, 165, 90, 2, 0.950361
8, 2, wb, attraction, a-b-da, 5, 2, 2, 28, 161, 88, 90, 165, 165, 90, 3, 0.732638
8, 2, wb, catch, NA, 999, 999, 2, 29, 182, 133, 79, 116, 148, 107, 2, 0.939515
8, 2, wb, catch, NA, 999, 999, 2, 29, 182, 133, 79, 116, 148, 107, 1, 0.917428
8, 2, wb, attraction, a-b-da, 5, 3, 2, 30, 190, 117, 195, 120, 120, 195, 2, 1.07958
8, 2, wb, attraction, a-b-da, 5, 3, 2, 30, 190, 117, 195, 120, 120, 195, 1, 0.771342
8, 2, wb, attraction, a-b-da, 14, 2, 2, 31, 153, 83, 90, 165, 165, 90, 2, 1.1637
8, 2, wb, attraction, a-b-da, 14, 2, 2, 31, 153, 83, 90, 165, 165, 90, 3, 0.652513
8, 2, wb, attraction, a-b-da, 9, 3, 2, 32, 195, 120, 120, 195, 186, 114, 3, 3.69423
8, 2, wb, attraction, a-b-da, 9, 3, 2, 32, 195, 120, 120, 195, 186, 114, 1, 1.12106
8, 2, wb, attraction, a-b-da, 14, 3, 2, 33, 181, 111, 195, 120, 120, 195, 1, 1.81933
8, 2, wb, attraction, a-b-da, 14, 3, 2, 33, 181, 111, 195, 120, 120, 195, 3, 0.712168
8, 2, wb, filler, NA, 999, 999, 2, 34, 167, 152, 82, 136, 154, 129, 2, 0.975465
8, 2, wb, filler, NA, 999, 999, 2, 34, 167, 152, 82, 136, 154, 129, 1, 0.76135
8, 2, wb, attraction, a-b-db, 2, 1, 2, 35, 60, 135, 135, 60, 59, 134, 2, 3.13035
8, 2, wb, attraction, a-b-db, 2, 1, 2, 35, 60, 135, 135, 60, 59, 134, 3, 0.74634
8, 2, wb, filler, NA, 999, 999, 2, 36, 115, 194, 140, 62, 148, 191, 2, 1.0333
8, 2, wb, filler, NA, 999, 999, 2, 36, 115, 194, 140, 62, 148, 191, 3, 4.36702
8, 2, wb, attraction, a-b-da, 2, 3, 2, 37, 120, 195, 193, 119, 195, 120, 3, 6.49446
8, 2, wb, attraction, a-b-da, 2, 3, 2, 37, 120, 195, 193, 119, 195, 120, 2, 2.22357
8, 2, wb, attraction, a-b-da, 5, 1, 3, 1, 132, 58, 60, 135, 135, 60, 1, 2.37883
8, 2, wb, attraction, a-b-da, 5, 1, 3, 1, 132, 58, 60, 135, 135, 60, 2, 0.770736
8, 2, wb, filler, NA, 999, 999, 3, 2, 144, 181, 84, 140, 113, 162, 2, 1.17136
8, 2, wb, filler, NA, 999, 999, 3, 2, 144, 181, 84, 140, 113, 162, 1, 0.900172
8, 2, wb, attraction, a-b-db, 14, 2, 3, 3, 90, 165, 165, 90, 83, 153, 1, 12.5003
8, 2, wb, attraction, a-b-db, 14, 2, 3, 3, 90, 165, 165, 90, 83, 153, 2, 0.972197
8, 2, wb, attraction, a-b-da, 5, 2, 3, 4, 90, 165, 165, 90, 161, 88, 3, 1.30597
8, 2, wb, attraction, a-b-da, 5, 2, 3, 4, 90, 165, 165, 90, 161, 88, 1, 1.65342
8, 2, wb, catch, NA, 999, 999, 3, 5, 136, 179, 116, 79, 116, 139, 2, 3.57826
8, 2, wb, catch, NA, 999, 999, 3, 5, 136, 179, 116, 79, 116, 139, 1, 2.63235
8, 2, wb, attraction, a-b-db, 2, 3, 3, 6, 119, 193, 120, 195, 195, 120, 1, 2.25159
8, 2, wb, attraction, a-b-db, 2, 3, 3, 6, 119, 193, 120, 195, 195, 120, 2, 1.92907
8, 2, wb, attraction, a-b-db, 5, 2, 3, 7, 165, 90, 90, 165, 88, 161, 2, 3.40931
8, 2, wb, attraction, a-b-db, 5, 2, 3, 7, 165, 90, 90, 165, 88, 161, 1, 1.16617
8, 2, wb, attraction, a-b-da, 14, 3, 3, 8, 181, 111, 195, 120, 120, 195, 1, 3.12665
8, 2, wb, attraction, a-b-da, 14, 3, 3, 8, 181, 111, 195, 120, 120, 195, 3, 0.767007
8, 2, wb, catch, NA, 999, 999, 3, 9, 113, 82, 120, 195, 110, 145, 1, 3.01446
8, 2, wb, catch, NA, 999, 999, 3, 9, 113, 82, 120, 195, 110, 145, 2, 0.724184
8, 2, wb, filler, NA, 999, 999, 3, 10, 63, 144, 101, 169, 105, 97, 1, 1.29249
8, 2, wb, filler, NA, 999, 999, 3, 10, 63, 144, 101, 169, 105, 97, 2, 0.81629
8, 2, wb, attraction, a-b-da, 9, 2, 3, 11, 90, 165, 157, 86, 165, 90, 2, 1.25982
8, 2, wb, attraction, a-b-da, 9, 2, 3, 11, 90, 165, 157, 86, 165, 90, 1, 0.745534
8, 2, wb, attraction, a-b-da, 14, 2, 3, 12, 165, 90, 90, 165, 153, 83, 3, 1.70675
8, 2, wb, attraction, a-b-da, 14, 2, 3, 12, 165, 90, 90, 165, 153, 83, 2, 0.964476
8, 2, wb, filler, NA, 999, 999, 3, 13, 81, 195, 173, 90, 112, 95, 3, 1.22832
8, 2, wb, filler, NA, 999, 999, 3, 13, 81, 195, 173, 90, 112, 95, 2, 0.705345
8, 2, wb, filler, NA, 999, 999, 3, 14, 156, 192, 130, 99, 167, 172, 2, 1.30101
8, 2, wb, filler, NA, 999, 999, 3, 14, 156, 192, 130, 99, 167, 172, 3, 0.68462
8, 2, wb, attraction, a-b-db, 9, 2, 3, 15, 165, 90, 90, 165, 86, 157, 3, 1.32646
8, 2, wb, attraction, a-b-db, 9, 2, 3, 15, 165, 90, 90, 165, 86, 157, 2, 0.515803
8, 2, wb, attraction, a-b-da, 2, 3, 3, 16, 195, 120, 120, 195, 193, 119, 3, 1.96281
8, 2, wb, attraction, a-b-da, 2, 3, 3, 16, 195, 120, 120, 195, 193, 119, 2, 0.740423
8, 2, wb, attraction, a-b-db, 14, 3, 3, 17, 195, 120, 120, 195, 111, 181, 3, 1.13796
8, 2, wb, attraction, a-b-db, 14, 3, 3, 17, 195, 120, 120, 195, 111, 181, 2, 0.716427
8, 2, wb, attraction, a-b-da, 9, 3, 3, 18, 120, 195, 195, 120, 186, 114, 3, 1.69525
8, 2, wb, attraction, a-b-da, 9, 3, 3, 18, 120, 195, 195, 120, 186, 114, 1, 2.32185
8, 2, wb, attraction, a-b-db, 14, 1, 3, 19, 135, 60, 60, 135, 56, 125, 3, 1.56743
8, 2, wb, attraction, a-b-db, 14, 1, 3, 19, 135, 60, 60, 135, 56, 125, 2, 1.01019
8, 2, wb, attraction, a-b-db, 9, 3, 3, 20, 120, 195, 114, 186, 195, 120, 3, 2.01335
8, 2, wb, attraction, a-b-db, 9, 3, 3, 20, 120, 195, 114, 186, 195, 120, 2, 2.08526
8, 2, wb, attraction, a-b-db, 2, 2, 3, 21, 90, 165, 89, 163, 165, 90, 3, 1.32133
8, 2, wb, attraction, a-b-db, 2, 2, 3, 21, 90, 165, 89, 163, 165, 90, 2, 0.706222
8, 2, wb, attraction, a-b-db, 9, 1, 3, 22, 57, 129, 135, 60, 60, 135, 3, 1.49087
8, 2, wb, attraction, a-b-db, 9, 1, 3, 22, 57, 129, 135, 60, 60, 135, 2, 0.869381
8, 2, wb, filler, NA, 999, 999, 3, 23, 66, 127, 75, 125, 168, 170, 1, 1.2666
8, 2, wb, filler, NA, 999, 999, 3, 23, 66, 127, 75, 125, 168, 170, 3, 0.565648
8, 2, wb, filler, NA, 999, 999, 3, 24, 116, 143, 130, 170, 133, 145, 1, 1.95822
8, 2, wb, filler, NA, 999, 999, 3, 24, 116, 143, 130, 170, 133, 145, 2, 0.613719
8, 2, wb, attraction, a-b-da, 2, 1, 3, 25, 134, 59, 60, 135, 135, 60, 3, 1.70833
8, 2, wb, attraction, a-b-da, 2, 1, 3, 25, 134, 59, 60, 135, 135, 60, 2, 0.756915
8, 2, wb, attraction, a-b-db, 5, 3, 3, 26, 117, 190, 195, 120, 120, 195, 2, 1.10191
8, 2, wb, attraction, a-b-db, 5, 3, 3, 26, 117, 190, 195, 120, 120, 195, 3, 0.651137
8, 2, wb, filler, NA, 999, 999, 3, 27, 151, 85, 186, 181, 185, 163, 1, 1.42853
8, 2, wb, filler, NA, 999, 999, 3, 27, 151, 85, 186, 181, 185, 163, 2, 0.715538
8, 2, wb, attraction, a-b-db, 2, 1, 3, 28, 59, 134, 60, 135, 135, 60, 1, 1.48352
8, 2, wb, attraction, a-b-db, 2, 1, 3, 28, 59, 134, 60, 135, 135, 60, 3, 0.982699
8, 2, wb, attraction, a-b-da, 9, 1, 3, 29, 135, 60, 129, 57, 60, 135, 2, 1.01398
8, 2, wb, attraction, a-b-da, 9, 1, 3, 29, 135, 60, 129, 57, 60, 135, 1, 0.699336
8, 2, wb, attraction, a-b-da, 14, 1, 3, 30, 60, 135, 135, 60, 125, 56, 2, 1.01352
8, 2, wb, attraction, a-b-da, 14, 1, 3, 30, 60, 135, 135, 60, 125, 56, 3, 0.931856
8, 2, wb, attraction, a-b-da, 2, 2, 3, 31, 165, 90, 163, 89, 90, 165, 2, 1.67568
8, 2, wb, attraction, a-b-da, 2, 2, 3, 31, 165, 90, 163, 89, 90, 165, 3, 0.918293
8, 2, wb, attraction, a-b-db, 5, 1, 3, 32, 60, 135, 135, 60, 58, 132, 2, 0.911168
8, 2, wb, attraction, a-b-db, 5, 1, 3, 32, 60, 135, 135, 60, 58, 132, 3, 0.755678
8, 2, wb, catch, NA, 999, 999, 3, 33, 130, 125, 131, 64, 149, 166, 2, 1.11298
8, 2, wb, catch, NA, 999, 999, 3, 33, 130, 125, 131, 64, 149, 166, 3, 3.69308
8, 2, wb, filler, NA, 999, 999, 3, 34, 173, 112, 131, 61, 185, 112, 2, 1.67061
8, 2, wb, filler, NA, 999, 999, 3, 34, 173, 112, 131, 61, 185, 112, 1, 1.80516
8, 2, wb, attraction, a-b-da, 5, 3, 3, 35, 190, 117, 195, 120, 120, 195, 1, 2.27143
8, 2, wb, attraction, a-b-da, 5, 3, 3, 35, 190, 117, 195, 120, 120, 195, 2, 0.994856
8, 2, wb, filler, NA, 999, 999, 3, 36, 182, 57, 150, 112, 179, 113, 1, 1.41666
8, 2, wb, filler, NA, 999, 999, 3, 36, 182, 57, 150, 112, 179, 113, 3, 1.88999
8, 2, wb, filler, NA, 999, 999, 3, 37, 135, 158, 170, 85, 163, 107, 2, 1.34704
8, 2, wb, filler, NA, 999, 999, 3, 37, 135, 158, 170, 85, 163, 107, 3, 1.06954
8, 2, wb, attraction, a-b-db, 5, 3, 4, 1, 117, 190, 120, 195, 195, 120, 3, 1.91706
8, 2, wb, attraction, a-b-db, 5, 3, 4, 1, 117, 190, 120, 195, 195, 120, 2, 0.649085
8, 2, wb, filler, NA, 999, 999, 4, 2, 90, 194, 76, 86, 138, 153, 2, 1.1977
8, 2, wb, filler, NA, 999, 999, 4, 2, 90, 194, 76, 86, 138, 153, 1, 1.08386
8, 2, wb, attraction, a-b-da, 5, 3, 4, 3, 195, 120, 190, 117, 120, 195, 3, 1.21998
8, 2, wb, attraction, a-b-da, 5, 3, 4, 3, 195, 120, 190, 117, 120, 195, 2, 0.724174
8, 2, wb, attraction, a-b-da, 14, 1, 4, 4, 135, 60, 125, 56, 60, 135, 2, 1.42067
8, 2, wb, attraction, a-b-da, 14, 1, 4, 4, 135, 60, 125, 56, 60, 135, 1, 1.8194
8, 2, wb, attraction, a-b-db, 9, 1, 4, 5, 60, 135, 135, 60, 57, 129, 3, 1.12007
8, 2, wb, attraction, a-b-db, 9, 1, 4, 5, 60, 135, 135, 60, 57, 129, 2, 0.857814
8, 2, wb, catch, NA, 999, 999, 4, 6, 71, 124, 162, 93, 176, 139, 1, 1.38203
8, 2, wb, catch, NA, 999, 999, 4, 6, 71, 124, 162, 93, 176, 139, 3, 0.701708
8, 2, wb, attraction, a-b-da, 2, 1, 4, 7, 134, 59, 135, 60, 60, 135, 2, 1.44752
8, 2, wb, attraction, a-b-da, 2, 1, 4, 7, 134, 59, 135, 60, 60, 135, 3, 1.06713
8, 2, wb, filler, NA, 999, 999, 4, 8, 155, 129, 120, 175, 158, 143, 2, 1.1356
8, 2, wb, filler, NA, 999, 999, 4, 8, 155, 129, 120, 175, 158, 143, 3, 0.815391
8, 2, wb, attraction, a-b-db, 14, 3, 4, 9, 195, 120, 111, 181, 120, 195, 2, 0.875941
8, 2, wb, attraction, a-b-db, 14, 3, 4, 9, 195, 120, 111, 181, 120, 195, 1, 0.895565
8, 2, wb, filler, NA, 999, 999, 4, 10, 110, 84, 170, 183, 178, 91, 1, 1.40193
8, 2, wb, filler, NA, 999, 999, 4, 10, 110, 84, 170, 183, 178, 91, 2, 0.706269
8, 2, wb, attraction, a-b-db, 2, 3, 4, 11, 119, 193, 120, 195, 195, 120, 2, 1.21273
8, 2, wb, attraction, a-b-db, 2, 3, 4, 11, 119, 193, 120, 195, 195, 120, 3, 0.546287
8, 2, wb, attraction, a-b-da, 5, 1, 4, 12, 132, 58, 135, 60, 60, 135, 3, 1.29946
8, 2, wb, attraction, a-b-da, 5, 1, 4, 12, 132, 58, 135, 60, 60, 135, 1, 0.661443
8, 2, wb, attraction, a-b-da, 9, 3, 4, 13, 186, 114, 120, 195, 195, 120, 3, 3.00046
8, 2, wb, attraction, a-b-da, 9, 3, 4, 13, 186, 114, 120, 195, 195, 120, 2, 0.791589
8, 2, wb, attraction, a-b-da, 9, 1, 4, 14, 60, 135, 129, 57, 135, 60, 2, 1.44704
8, 2, wb, attraction, a-b-da, 9, 1, 4, 14, 60, 135, 129, 57, 135, 60, 3, 0.979759
8, 2, wb, catch, NA, 999, 999, 4, 15, 102, 93, 175, 140, 107, 148, 1, 1.71305
8, 2, wb, catch, NA, 999, 999, 4, 15, 102, 93, 175, 140, 107, 148, 2, 0.644546
8, 2, wb, filler, NA, 999, 999, 4, 16, 93, 89, 162, 180, 68, 74, 3, 1.23284
8, 2, wb, filler, NA, 999, 999, 4, 16, 93, 89, 162, 180, 68, 74, 2, 0.623272
8, 2, wb, filler, NA, 999, 999, 4, 17, 110, 159, 105, 140, 189, 122, 2, 1.26695
8, 2, wb, filler, NA, 999, 999, 4, 17, 110, 159, 105, 140, 189, 122, 3, 0.712501
8, 2, wb, attraction, a-b-db, 14, 1, 4, 18, 56, 125, 135, 60, 60, 135, 1, 1.36887
8, 2, wb, attraction, a-b-db, 14, 1, 4, 18, 56, 125, 135, 60, 60, 135, 2, 0.984346
8, 2, wb, catch, NA, 999, 999, 4, 19, 168, 147, 103, 152, 124, 71, 3, 1.36809
8, 2, wb, catch, NA, 999, 999, 4, 19, 168, 147, 103, 152, 124, 71, 2, 2.91006
8, 2, wb, attraction, a-b-db, 9, 3, 4, 20, 120, 195, 114, 186, 195, 120, 2, 1.02514
8, 2, wb, attraction, a-b-db, 9, 3, 4, 20, 120, 195, 114, 186, 195, 120, 3, 0.773881
8, 2, wb, attraction, a-b-da, 14, 2, 4, 21, 153, 83, 165, 90, 90, 165, 1, 0.957989
8, 2, wb, attraction, a-b-da, 14, 2, 4, 21, 153, 83, 165, 90, 90, 165, 2, 1.91951
8, 2, wb, filler, NA, 999, 999, 4, 22, 140, 176, 161, 151, 116, 96, 3, 1.2492
8, 2, wb, filler, NA, 999, 999, 4, 22, 140, 176, 161, 151, 116, 96, 2, 0.716559
8, 2, wb, attraction, a-b-db, 2, 1, 4, 23, 59, 134, 60, 135, 135, 60, 2, 1.28611
8, 2, wb, attraction, a-b-db, 2, 1, 4, 23, 59, 134, 60, 135, 135, 60, 3, 1.00089
8, 2, wb, attraction, a-b-db, 5, 2, 4, 24, 165, 90, 90, 165, 88, 161, 2, 1.53778
8, 2, wb, attraction, a-b-db, 5, 2, 4, 24, 165, 90, 90, 165, 88, 161, 3, 1.21164
8, 2, wb, attraction, a-b-db, 14, 2, 4, 25, 90, 165, 165, 90, 83, 153, 1, 1.42856
8, 2, wb, attraction, a-b-db, 14, 2, 4, 25, 90, 165, 165, 90, 83, 153, 2, 0.90009
8, 2, wb, filler, NA, 999, 999, 4, 26, 77, 137, 145, 167, 179, 175, 1, 1.25341
8, 2, wb, filler, NA, 999, 999, 4, 26, 77, 137, 145, 167, 179, 175, 3, 0.98783
8, 2, wb, attraction, a-b-db, 5, 1, 4, 27, 58, 132, 60, 135, 135, 60, 1, 1.08939
8, 2, wb, attraction, a-b-db, 5, 1, 4, 27, 58, 132, 60, 135, 135, 60, 2, 1.099
8, 2, wb, attraction, a-b-db, 9, 2, 4, 28, 86, 157, 90, 165, 165, 90, 1, 1.17388
8, 2, wb, attraction, a-b-db, 9, 2, 4, 28, 86, 157, 90, 165, 165, 90, 2, 0.668502
8, 2, wb, filler, NA, 999, 999, 4, 29, 116, 80, 103, 63, 195, 137, 2, 1.42487
8, 2, wb, filler, NA, 999, 999, 4, 29, 116, 80, 103, 63, 195, 137, 3, 1.60877
8, 2, wb, attraction, a-b-da, 14, 3, 4, 30, 195, 120, 181, 111, 120, 195, 1, 1.18957
8, 2, wb, attraction, a-b-da, 14, 3, 4, 30, 195, 120, 181, 111, 120, 195, 2, 0.708153
8, 2, wb, attraction, a-b-da, 2, 3, 4, 31, 193, 119, 195, 120, 120, 195, 1, 1.27733
8, 2, wb, attraction, a-b-da, 2, 3, 4, 31, 193, 119, 195, 120, 120, 195, 3, 0.881035
8, 2, wb, attraction, a-b-da, 9, 2, 4, 32, 165, 90, 157, 86, 90, 165, 2, 1.13335
8, 2, wb, attraction, a-b-da, 9, 2, 4, 32, 165, 90, 157, 86, 90, 165, 3, 0.718261
8, 2, wb, filler, NA, 999, 999, 4, 33, 86, 67, 158, 143, 160, 137, 1, 1.50973
8, 2, wb, filler, NA, 999, 999, 4, 33, 86, 67, 158, 143, 160, 137, 2, 2.48112
8, 2, wb, filler, NA, 999, 999, 4, 34, 113, 188, 166, 114, 98, 146, 2, 1.05043
8, 2, wb, filler, NA, 999, 999, 4, 34, 113, 188, 166, 114, 98, 146, 1, 0.824081
8, 2, wb, attraction, a-b-da, 2, 2, 4, 35, 165, 90, 163, 89, 90, 165, 2, 1.01402
8, 2, wb, attraction, a-b-da, 2, 2, 4, 35, 165, 90, 163, 89, 90, 165, 1, 0.644265
8, 2, wb, attraction, a-b-db, 2, 2, 4, 36, 89, 163, 165, 90, 90, 165, 2, 1.17696
8, 2, wb, attraction, a-b-db, 2, 2, 4, 36, 89, 163, 165, 90, 90, 165, 3, 0.872846
8, 2, wb, attraction, a-b-da, 5, 2, 4, 37, 165, 90, 90, 165, 161, 88, 2, 1.23442
8, 2, wb, attraction, a-b-da, 5, 2, 4, 37, 165, 90, 90, 165, 161, 88, 1, 2.80247
8, 2, wb, catch, NA, 999, 999, 5, 1, 123, 192, 91, 164, 101, 94, 3, 2.30185
8, 2, wb, catch, NA, 999, 999, 5, 1, 123, 192, 91, 164, 101, 94, 1, 1.35117
8, 2, wb, attraction, a-b-da, 9, 1, 5, 2, 60, 135, 129, 57, 135, 60, 2, 1.44647
8, 2, wb, attraction, a-b-da, 9, 1, 5, 2, 60, 135, 129, 57, 135, 60, 1, 2.03608
8, 2, wb, attraction, a-b-da, 2, 3, 5, 3, 120, 195, 193, 119, 195, 120, 3, 1.89549
8, 2, wb, attraction, a-b-da, 2, 3, 5, 3, 120, 195, 193, 119, 195, 120, 2, 0.849364
8, 2, wb, filler, NA, 999, 999, 5, 4, 121, 139, 116, 162, 163, 151, 1, 1.06967
8, 2, wb, filler, NA, 999, 999, 5, 4, 121, 139, 116, 162, 163, 151, 3, 0.61069
8, 2, wb, attraction, a-b-da, 14, 1, 5, 5, 60, 135, 125, 56, 135, 60, 2, 2.18202
8, 2, wb, attraction, a-b-da, 14, 1, 5, 5, 60, 135, 125, 56, 135, 60, 1, 0.710964
8, 2, wb, filler, NA, 999, 999, 5, 6, 136, 103, 145, 188, 144, 157, 1, 1.33573
8, 2, wb, filler, NA, 999, 999, 5, 6, 136, 103, 145, 188, 144, 157, 2, 0.705739
8, 2, wb, attraction, a-b-da, 5, 2, 5, 7, 90, 165, 165, 90, 161, 88, 2, 1.86731
8, 2, wb, attraction, a-b-da, 5, 2, 5, 7, 90, 165, 165, 90, 161, 88, 1, 0.680163
8, 2, wb, attraction, a-b-da, 14, 2, 5, 8, 165, 90, 153, 83, 90, 165, 2, 0.955618
8, 2, wb, attraction, a-b-da, 14, 2, 5, 8, 165, 90, 153, 83, 90, 165, 1, 0.676614
8, 2, wb, attraction, a-b-db, 14, 3, 5, 9, 120, 195, 111, 181, 195, 120, 2, 1.73359
8, 2, wb, attraction, a-b-db, 14, 3, 5, 9, 120, 195, 111, 181, 195, 120, 3, 0.560628
8, 2, wb, attraction, a-b-db, 9, 2, 5, 10, 90, 165, 165, 90, 86, 157, 2, 2.27052
8, 2, wb, attraction, a-b-db, 9, 2, 5, 10, 90, 165, 165, 90, 86, 157, 1, 1.24358
8, 2, wb, attraction, a-b-db, 2, 2, 5, 11, 90, 165, 165, 90, 89, 163, 3, 1.36209
8, 2, wb, attraction, a-b-db, 2, 2, 5, 11, 90, 165, 165, 90, 89, 163, 2, 0.953709
8, 2, wb, filler, NA, 999, 999, 5, 12, 156, 179, 147, 65, 86, 148, 2, 1.8083
8, 2, wb, filler, NA, 999, 999, 5, 12, 156, 179, 147, 65, 86, 148, 1, 0.734255
8, 2, wb, attraction, a-b-db, 2, 1, 5, 13, 59, 134, 60, 135, 135, 60, 3, 1.39121
8, 2, wb, attraction, a-b-db, 2, 1, 5, 13, 59, 134, 60, 135, 135, 60, 2, 0.719065
8, 2, wb, attraction, a-b-db, 9, 1, 5, 14, 57, 129, 60, 135, 135, 60, 3, 2.36793
8, 2, wb, attraction, a-b-db, 9, 1, 5, 14, 57, 129, 60, 135, 135, 60, 2, 0.57466
8, 2, wb, filler, NA, 999, 999, 5, 15, 80, 69, 131, 65, 139, 68, 1, 1.23788
8, 2, wb, filler, NA, 999, 999, 5, 15, 80, 69, 131, 65, 139, 68, 2, 0.898554
8, 2, wb, attraction, a-b-db, 14, 2, 5, 16, 83, 153, 90, 165, 165, 90, 1, 1.91834
8, 2, wb, attraction, a-b-db, 14, 2, 5, 16, 83, 153, 90, 165, 165, 90, 2, 1.22486
8, 2, wb, attraction, a-b-db, 5, 1, 5, 17, 58, 132, 135, 60, 60, 135, 3, 1.21291
8, 2, wb, attraction, a-b-db, 5, 1, 5, 17, 58, 132, 135, 60, 60, 135, 1, 0.698845
8, 2, wb, filler, NA, 999, 999, 5, 18, 79, 95, 76, 125, 121, 59, 3, 1.16554
8, 2, wb, filler, NA, 999, 999, 5, 18, 79, 95, 76, 125, 121, 59, 2, 0.805587
8, 2, wb, attraction, a-b-db, 14, 1, 5, 19, 135, 60, 60, 135, 56, 125, 3, 1.74757
8, 2, wb, attraction, a-b-db, 14, 1, 5, 19, 135, 60, 60, 135, 56, 125, 2, 0.770973
8, 2, wb, attraction, a-b-da, 2, 1, 5, 20, 135, 60, 134, 59, 60, 135, 3, 1.06749
8, 2, wb, attraction, a-b-da, 2, 1, 5, 20, 135, 60, 134, 59, 60, 135, 2, 0.791495
8, 2, wb, attraction, a-b-da, 5, 1, 5, 21, 132, 58, 60, 135, 135, 60, 2, 0.989053
8, 2, wb, attraction, a-b-da, 5, 1, 5, 21, 132, 58, 60, 135, 135, 60, 3, 0.804944
8, 2, wb, attraction, a-b-da, 9, 2, 5, 22, 90, 165, 165, 90, 157, 86, 3, 1.43512
8, 2, wb, attraction, a-b-da, 9, 2, 5, 22, 90, 165, 165, 90, 157, 86, 1, 0.737499
8, 2, wb, catch, NA, 999, 999, 5, 23, 121, 194, 161, 94, 92, 103, 3, 1.23318
8, 2, wb, catch, NA, 999, 999, 5, 23, 121, 194, 161, 94, 92, 103, 1, 0.703977
8, 2, wb, attraction, a-b-db, 5, 3, 5, 24, 117, 190, 195, 120, 120, 195, 1, 1.43061
8, 2, wb, attraction, a-b-db, 5, 3, 5, 24, 117, 190, 195, 120, 120, 195, 3, 0.861413
8, 2, wb, filler, NA, 999, 999, 5, 25, 146, 98, 101, 122, 132, 168, 2, 1.2493
8, 2, wb, filler, NA, 999, 999, 5, 25, 146, 98, 101, 122, 132, 168, 3, 0.598067
8, 2, wb, attraction, a-b-da, 2, 2, 5, 26, 163, 89, 165, 90, 90, 165, 3, 1.03616
8, 2, wb, attraction, a-b-da, 2, 2, 5, 26, 163, 89, 165, 90, 90, 165, 1, 0.834695
8, 2, wb, catch, NA, 999, 999, 5, 27, 97, 98, 152, 103, 191, 124, 1, 3.65981
8, 2, wb, catch, NA, 999, 999, 5, 27, 97, 98, 152, 103, 191, 124, 3, 1.08061
8, 2, wb, filler, NA, 999, 999, 5, 28, 128, 57, 68, 175, 149, 118, 1, 1.68436
8, 2, wb, filler, NA, 999, 999, 5, 28, 128, 57, 68, 175, 149, 118, 3, 2.34484
8, 2, wb, attraction, a-b-db, 2, 3, 5, 29, 195, 120, 120, 195, 119, 193, 3, 1.90393
8, 2, wb, attraction, a-b-db, 2, 3, 5, 29, 195, 120, 120, 195, 119, 193, 2, 0.939294
8, 2, wb, filler, NA, 999, 999, 5, 30, 156, 189, 135, 143, 58, 188, 3, 3.37846
8, 2, wb, filler, NA, 999, 999, 5, 30, 156, 189, 135, 143, 58, 188, 1, 1.07565
8, 2, wb, attraction, a-b-da, 9, 3, 5, 31, 120, 195, 186, 114, 195, 120, 2, 2.18123
8, 2, wb, attraction, a-b-da, 9, 3, 5, 31, 120, 195, 186, 114, 195, 120, 3, 1.15616
8, 2, wb, attraction, a-b-db, 9, 3, 5, 32, 195, 120, 114, 186, 120, 195, 2, 1.83599
8, 2, wb, attraction, a-b-db, 9, 3, 5, 32, 195, 120, 114, 186, 120, 195, 3, 0.722031
8, 2, wb, attraction, a-b-db, 5, 2, 5, 33, 90, 165, 165, 90, 88, 161, 2, 1.07384
8, 2, wb, attraction, a-b-db, 5, 2, 5, 33, 90, 165, 165, 90, 88, 161, 1, 1.38349
8, 2, wb, filler, NA, 999, 999, 5, 34, 175, 137, 152, 78, 171, 107, 2, 0.956834
8, 2, wb, filler, NA, 999, 999, 5, 34, 175, 137, 152, 78, 171, 107, 1, 0.93457
8, 2, wb, filler, NA, 999, 999, 5, 35, 106, 156, 64, 158, 127, 134, 2, 1.82931
8, 2, wb, filler, NA, 999, 999, 5, 35, 106, 156, 64, 158, 127, 134, 3, 1.05917
8, 2, wb, attraction, a-b-da, 14, 3, 5, 36, 120, 195, 195, 120, 181, 111, 2, 0.943761
8, 2, wb, attraction, a-b-da, 14, 3, 5, 36, 120, 195, 195, 120, 181, 111, 3, 0.760079
8, 2, wb, attraction, a-b-da, 5, 3, 5, 37, 120, 195, 195, 120, 190, 117, 3, 2.43225
8, 2, wb, attraction, a-b-da, 5, 3, 5, 37, 120, 195, 195, 120, 190, 117, 1, 0.811403
8, 2, wb, attraction, a-b-db, 9, 1, 6, 1, 60, 135, 57, 129, 135, 60, 3, 1.28215
8, 2, wb, attraction, a-b-db, 9, 1, 6, 1, 60, 135, 57, 129, 135, 60, 2, 0.749152
8, 2, wb, attraction, a-b-db, 14, 2, 6, 2, 165, 90, 83, 153, 90, 165, 3, 1.32542
8, 2, wb, attraction, a-b-db, 14, 2, 6, 2, 165, 90, 83, 153, 90, 165, 1, 0.913174
8, 2, wb, attraction, a-b-db, 2, 1, 6, 3, 60, 135, 59, 134, 135, 60, 2, 0.977543
8, 2, wb, attraction, a-b-db, 2, 1, 6, 3, 60, 135, 59, 134, 135, 60, 3, 0.848813
8, 2, wb, attraction, a-b-db, 14, 3, 6, 4, 195, 120, 111, 181, 120, 195, 2, 0.98765
8, 2, wb, attraction, a-b-db, 14, 3, 6, 4, 195, 120, 111, 181, 120, 195, 1, 0.708777
8, 2, wb, filler, NA, 999, 999, 6, 5, 105, 184, 139, 69, 189, 57, 3, 1.02351
8, 2, wb, filler, NA, 999, 999, 6, 5, 105, 184, 139, 69, 189, 57, 1, 0.788871
8, 2, wb, attraction, a-b-da, 9, 3, 6, 6, 120, 195, 195, 120, 186, 114, 3, 2.04371
8, 2, wb, attraction, a-b-da, 9, 3, 6, 6, 120, 195, 195, 120, 186, 114, 1, 0.751676
8, 2, wb, catch, NA, 999, 999, 6, 7, 129, 186, 89, 106, 132, 123, 2, 1.03025
8, 2, wb, catch, NA, 999, 999, 6, 7, 129, 186, 89, 106, 132, 123, 1, 0.7099
8, 2, wb, attraction, a-b-da, 14, 2, 6, 8, 90, 165, 153, 83, 165, 90, 2, 1.79083
8, 2, wb, attraction, a-b-da, 14, 2, 6, 8, 90, 165, 153, 83, 165, 90, 1, 0.551538
8, 2, wb, filler, NA, 999, 999, 6, 9, 153, 74, 75, 189, 97, 76, 3, 1.27884
8, 2, wb, filler, NA, 999, 999, 6, 9, 153, 74, 75, 189, 97, 76, 2, 0.563588
8, 2, wb, attraction, a-b-da, 2, 3, 6, 10, 193, 119, 120, 195, 195, 120, 1, 2.21052
8, 2, wb, attraction, a-b-da, 2, 3, 6, 10, 193, 119, 120, 195, 195, 120, 2, 0.943267
8, 2, wb, filler, NA, 999, 999, 6, 11, 63, 95, 194, 90, 135, 194, 1, 1.10438
8, 2, wb, filler, NA, 999, 999, 6, 11, 63, 95, 194, 90, 135, 194, 3, 0.779323
8, 2, wb, filler, NA, 999, 999, 6, 12, 148, 87, 60, 164, 124, 167, 2, 1.05161
8, 2, wb, filler, NA, 999, 999, 6, 12, 148, 87, 60, 164, 124, 167, 3, 0.688925
8, 2, wb, attraction, a-b-db, 5, 2, 6, 13, 165, 90, 90, 165, 88, 161, 1, 1.88143
8, 2, wb, attraction, a-b-db, 5, 2, 6, 13, 165, 90, 90, 165, 88, 161, 2, 0.660383
8, 2, wb, filler, NA, 999, 999, 6, 14, 65, 108, 69, 172, 95, 151, 2, 2.03932
8, 2, wb, filler, NA, 999, 999, 6, 14, 65, 108, 69, 172, 95, 151, 3, 0.735107
8, 2, wb, filler, NA, 999, 999, 6, 15, 61, 155, 62, 193, 70, 149, 1, 1.6942
8, 2, wb, filler, NA, 999, 999, 6, 15, 61, 155, 62, 193, 70, 149, 2, 0.903619
8, 2, wb, attraction, a-b-db, 14, 1, 6, 16, 56, 125, 60, 135, 135, 60, 3, 1.43417
8, 2, wb, attraction, a-b-db, 14, 1, 6, 16, 56, 125, 60, 135, 135, 60, 1, 1.21556
8, 2, wb, attraction, a-b-da, 2, 1, 6, 17, 134, 59, 60, 135, 135, 60, 2, 2.6676
8, 2, wb, attraction, a-b-da, 2, 1, 6, 17, 134, 59, 60, 135, 135, 60, 1, 0.950648
8, 2, wb, catch, NA, 999, 999, 6, 18, 153, 102, 117, 78, 125, 190, 2, 1.34374
8, 2, wb, catch, NA, 999, 999, 6, 18, 153, 102, 117, 78, 125, 190, 3, 0.793046
8, 2, wb, attraction, a-b-da, 5, 1, 6, 19, 135, 60, 60, 135, 132, 58, 2, 2.23299
8, 2, wb, attraction, a-b-da, 5, 1, 6, 19, 135, 60, 60, 135, 132, 58, 1, 1.22127
8, 2, wb, attraction, a-b-da, 9, 2, 6, 20, 157, 86, 165, 90, 90, 165, 3, 1.19358
8, 2, wb, attraction, a-b-da, 9, 2, 6, 20, 157, 86, 165, 90, 90, 165, 2, 1.25751
8, 2, wb, attraction, a-b-da, 14, 1, 6, 21, 60, 135, 125, 56, 135, 60, 1, 1.6371
8, 2, wb, attraction, a-b-da, 14, 1, 6, 21, 60, 135, 125, 56, 135, 60, 3, 0.865897
8, 2, wb, attraction, a-b-db, 5, 3, 6, 22, 120, 195, 117, 190, 195, 120, 3, 1.94349
8, 2, wb, attraction, a-b-db, 5, 3, 6, 22, 120, 195, 117, 190, 195, 120, 1, 0.742646
8, 2, wb, attraction, a-b-db, 5, 1, 6, 23, 58, 132, 60, 135, 135, 60, 2, 1.99962
8, 2, wb, attraction, a-b-db, 5, 1, 6, 23, 58, 132, 60, 135, 135, 60, 3, 0.838151
8, 2, wb, attraction, a-b-db, 9, 3, 6, 24, 120, 195, 195, 120, 114, 186, 3, 6.75539
8, 2, wb, attraction, a-b-db, 9, 3, 6, 24, 120, 195, 195, 120, 114, 186, 2, 0.609962
8, 2, wb, attraction, a-b-da, 5, 2, 6, 25, 90, 165, 161, 88, 165, 90, 3, 1.58237
8, 2, wb, attraction, a-b-da, 5, 2, 6, 25, 90, 165, 161, 88, 165, 90, 1, 2.55046
8, 2, wb, catch, NA, 999, 999, 6, 26, 64, 131, 190, 125, 131, 124, 1, 1.45317
8, 2, wb, catch, NA, 999, 999, 6, 26, 64, 131, 190, 125, 131, 124, 2, 1.20397
8, 2, wb, attraction, a-b-da, 2, 2, 6, 27, 90, 165, 163, 89, 165, 90, 3, 1.73744
8, 2, wb, attraction, a-b-da, 2, 2, 6, 27, 90, 165, 163, 89, 165, 90, 1, 2.07395
8, 2, wb, attraction, a-b-da, 5, 3, 6, 28, 120, 195, 190, 117, 195, 120, 2, 2.03011
8, 2, wb, attraction, a-b-da, 5, 3, 6, 28, 120, 195, 190, 117, 195, 120, 1, 0.913184
8, 2, wb, attraction, a-b-db, 2, 3, 6, 29, 119, 193, 120, 195, 195, 120, 2, 3.65188
8, 2, wb, attraction, a-b-db, 2, 3, 6, 29, 119, 193, 120, 195, 195, 120, 3, 2.17379
8, 2, wb, filler, NA, 999, 999, 6, 30, 182, 59, 167, 77, 99, 185, 1, 1.87789
8, 2, wb, filler, NA, 999, 999, 6, 30, 182, 59, 167, 77, 99, 185, 3, 0.736553
8, 2, wb, filler, NA, 999, 999, 6, 31, 140, 128, 81, 113, 165, 78, 2, 1.13732
8, 2, wb, filler, NA, 999, 999, 6, 31, 140, 128, 81, 113, 165, 78, 1, 0.699904
8, 2, wb, attraction, a-b-da, 9, 1, 6, 32, 135, 60, 60, 135, 129, 57, 3, 1.27541
8, 2, wb, attraction, a-b-da, 9, 1, 6, 32, 135, 60, 60, 135, 129, 57, 2, 0.7524
8, 2, wb, filler, NA, 999, 999, 6, 33, 114, 64, 130, 84, 83, 62, 3, 1.12066
8, 2, wb, filler, NA, 999, 999, 6, 33, 114, 64, 130, 84, 83, 62, 2, 3.20387
8, 2, wb, attraction, a-b-da, 14, 3, 6, 34, 181, 111, 120, 195, 195, 120, 1, 1.53751
8, 2, wb, attraction, a-b-da, 14, 3, 6, 34, 181, 111, 120, 195, 195, 120, 2, 0.991876
8, 2, wb, attraction, a-b-db, 2, 2, 6, 35, 90, 165, 89, 163, 165, 90, 2, 1.96848
8, 2, wb, attraction, a-b-db, 2, 2, 6, 35, 90, 165, 89, 163, 165, 90, 1, 0.83909
8, 2, wb, attraction, a-b-db, 9, 2, 6, 36, 165, 90, 90, 165, 86, 157, 3, 1.05256
8, 2, wb, attraction, a-b-db, 9, 2, 6, 36, 165, 90, 90, 165, 86, 157, 1, 0.720114
8, 2, wb, filler, NA, 999, 999, 6, 37, 98, 57, 64, 159, 162, 173, 1, 1.73075
8, 2, wb, filler, NA, 999, 999, 6, 37, 98, 57, 64, 159, 162, 173, 3, 1.00377
8, 2, wb, filler, NA, 999, 999, 7, 1, 174, 175, 115, 146, 191, 104, 2, 4.05829
8, 2, wb, filler, NA, 999, 999, 7, 1, 174, 175, 115, 146, 191, 104, 1, 0.750954
8, 2, wb, attraction, a-b-da, 9, 3, 7, 2, 186, 114, 195, 120, 120, 195, 1, 1.40572
8, 2, wb, attraction, a-b-da, 9, 3, 7, 2, 186, 114, 195, 120, 120, 195, 2, 0.651436
8, 2, wb, attraction, a-b-da, 14, 1, 7, 3, 135, 60, 60, 135, 125, 56, 3, 1.35185
8, 2, wb, attraction, a-b-da, 14, 1, 7, 3, 135, 60, 60, 135, 125, 56, 2, 1.10459
8, 2, wb, catch, NA, 999, 999, 7, 4, 68, 127, 182, 133, 142, 113, 1, 1.87432
8, 2, wb, catch, NA, 999, 999, 7, 4, 68, 127, 182, 133, 142, 113, 2, 3.00679
8, 2, wb, filler, NA, 999, 999, 7, 5, 133, 127, 152, 68, 157, 94, 2, 1.41074
8, 2, wb, filler, NA, 999, 999, 7, 5, 133, 127, 152, 68, 157, 94, 1, 0.635072
8, 2, wb, filler, NA, 999, 999, 7, 6, 88, 95, 56, 185, 144, 112, 1, 5.094
8, 2, wb, filler, NA, 999, 999, 7, 6, 88, 95, 56, 185, 144, 112, 3, 4.64916
8, 2, wb, filler, NA, 999, 999, 7, 7, 163, 193, 139, 189, 192, 189, 2, 1.17218
8, 2, wb, filler, NA, 999, 999, 7, 7, 163, 193, 139, 189, 192, 189, 3, 1.39391
8, 2, wb, attraction, a-b-da, 2, 1, 7, 8, 135, 60, 60, 135, 134, 59, 1, 16.1132
8, 2, wb, attraction, a-b-da, 2, 1, 7, 8, 135, 60, 60, 135, 134, 59, 2, 2.27074
8, 2, wb, attraction, a-b-db, 14, 1, 7, 9, 60, 135, 56, 125, 135, 60, 2, 1.58573
8, 2, wb, attraction, a-b-db, 14, 1, 7, 9, 60, 135, 56, 125, 135, 60, 1, 0.714288
8, 2, wb, catch, NA, 999, 999, 7, 10, 73, 122, 99, 156, 161, 154, 1, 1.26667
8, 2, wb, catch, NA, 999, 999, 7, 10, 73, 122, 99, 156, 161, 154, 3, 0.823172
8, 2, wb, attraction, a-b-da, 2, 2, 7, 11, 163, 89, 90, 165, 165, 90, 2, 1.19741
8, 2, wb, attraction, a-b-da, 2, 2, 7, 11, 163, 89, 90, 165, 165, 90, 1, 0.739703
8, 2, wb, attraction, a-b-db, 9, 2, 7, 12, 90, 165, 86, 157, 165, 90, 3, 1.4128
8, 2, wb, attraction, a-b-db, 9, 2, 7, 12, 90, 165, 86, 157, 165, 90, 1, 3.22543
8, 2, wb, attraction, a-b-db, 2, 2, 7, 13, 89, 163, 165, 90, 90, 165, 1, 2.67816
8, 2, wb, attraction, a-b-db, 2, 2, 7, 13, 89, 163, 165, 90, 90, 165, 3, 0.712193
8, 2, wb, filler, NA, 999, 999, 7, 14, 177, 117, 187, 85, 193, 192, 2, 1.07598
8, 2, wb, filler, NA, 999, 999, 7, 14, 177, 117, 187, 85, 193, 192, 3, 0.727259
8, 2, wb, attraction, a-b-db, 9, 1, 7, 15, 57, 129, 60, 135, 135, 60, 3, 1.44871
8, 2, wb, attraction, a-b-db, 9, 1, 7, 15, 57, 129, 60, 135, 135, 60, 2, 0.685889
8, 2, wb, attraction, a-b-da, 14, 3, 7, 16, 120, 195, 181, 111, 195, 120, 2, 1.59116
8, 2, wb, attraction, a-b-da, 14, 3, 7, 16, 120, 195, 181, 111, 195, 120, 1, 0.79847
8, 2, wb, attraction, a-b-da, 5, 1, 7, 17, 135, 60, 60, 135, 132, 58, 3, 2.46847
8, 2, wb, attraction, a-b-da, 5, 1, 7, 17, 135, 60, 60, 135, 132, 58, 1, 0.976844
8, 2, wb, attraction, a-b-db, 2, 1, 7, 18, 60, 135, 135, 60, 59, 134, 2, 2.10369
8, 2, wb, attraction, a-b-db, 2, 1, 7, 18, 60, 135, 135, 60, 59, 134, 1, 0.72336
8, 2, wb, attraction, a-b-db, 5, 2, 7, 19, 90, 165, 88, 161, 165, 90, 3, 1.53016
8, 2, wb, attraction, a-b-db, 5, 2, 7, 19, 90, 165, 88, 161, 165, 90, 2, 0.572489
8, 2, wb, attraction, a-b-da, 9, 2, 7, 20, 90, 165, 157, 86, 165, 90, 2, 1.82882
8, 2, wb, attraction, a-b-da, 9, 2, 7, 20, 90, 165, 157, 86, 165, 90, 1, 2.64962
8, 2, wb, filler, NA, 999, 999, 7, 21, 69, 62, 184, 190, 195, 123, 1, 1.75516
8, 2, wb, filler, NA, 999, 999, 7, 21, 69, 62, 184, 190, 195, 123, 2, 0.732341
8, 2, wb, attraction, a-b-da, 14, 2, 7, 22, 165, 90, 90, 165, 153, 83, 3, 1.09403
8, 2, wb, attraction, a-b-da, 14, 2, 7, 22, 165, 90, 90, 165, 153, 83, 2, 2.80798
8, 2, wb, attraction, a-b-db, 14, 2, 7, 23, 90, 165, 165, 90, 83, 153, 2, 3.00567
8, 2, wb, attraction, a-b-db, 14, 2, 7, 23, 90, 165, 165, 90, 83, 153, 1, 0.699227
8, 2, wb, filler, NA, 999, 999, 7, 24, 189, 193, 112, 57, 114, 95, 2, 1.43641
8, 2, wb, filler, NA, 999, 999, 7, 24, 189, 193, 112, 57, 114, 95, 1, 0.553424
8, 2, wb, attraction, a-b-da, 2, 3, 7, 25, 193, 119, 120, 195, 195, 120, 1, 1.33176
8, 2, wb, attraction, a-b-da, 2, 3, 7, 25, 193, 119, 120, 195, 195, 120, 2, 0.619658
8, 2, wb, attraction, a-b-db, 14, 3, 7, 26, 195, 120, 120, 195, 111, 181, 2, 2.72859
8, 2, wb, attraction, a-b-db, 14, 3, 7, 26, 195, 120, 120, 195, 111, 181, 3, 1.10686
8, 2, wb, filler, NA, 999, 999, 7, 27, 182, 106, 100, 76, 94, 179, 2, 1.0429
8, 2, wb, filler, NA, 999, 999, 7, 27, 182, 106, 100, 76, 94, 179, 1, 0.7764
8, 2, wb, filler, NA, 999, 999, 7, 28, 128, 100, 137, 161, 192, 59, 3, 1.95307
8, 2, wb, filler, NA, 999, 999, 7, 28, 128, 100, 137, 161, 192, 59, 2, 0.787626
8, 2, wb, attraction, a-b-db, 5, 1, 7, 29, 58, 132, 60, 135, 135, 60, 3, 1.6953
8, 2, wb, attraction, a-b-db, 5, 1, 7, 29, 58, 132, 60, 135, 135, 60, 2, 2.85197
8, 2, wb, attraction, a-b-db, 5, 3, 7, 30, 120, 195, 117, 190, 195, 120, 2, 15.7263
8, 2, wb, attraction, a-b-db, 5, 3, 7, 30, 120, 195, 117, 190, 195, 120, 3, 1.2106
8, 2, wb, filler, NA, 999, 999, 7, 31, 115, 123, 98, 168, 193, 116, 1, 1.50469
8, 2, wb, filler, NA, 999, 999, 7, 31, 115, 123, 98, 168, 193, 116, 3, 1.04609
8, 2, wb, attraction, a-b-da, 5, 2, 7, 32, 165, 90, 90, 165, 161, 88, 1, 2.78219
8, 2, wb, attraction, a-b-da, 5, 2, 7, 32, 165, 90, 90, 165, 161, 88, 2, 1.24867
8, 2, wb, attraction, a-b-db, 9, 3, 7, 33, 120, 195, 114, 186, 195, 120, 2, 1.95423
8, 2, wb, attraction, a-b-db, 9, 3, 7, 33, 120, 195, 114, 186, 195, 120, 1, 1.05108
8, 2, wb, attraction, a-b-da, 9, 1, 7, 34, 60, 135, 129, 57, 135, 60, 2, 2.07214
8, 2, wb, attraction, a-b-da, 9, 1, 7, 34, 60, 135, 129, 57, 135, 60, 1, 0.931462
8, 2, wb, attraction, a-b-da, 5, 3, 7, 35, 195, 120, 120, 195, 190, 117, 1, 1.22765
8, 2, wb, attraction, a-b-da, 5, 3, 7, 35, 195, 120, 120, 195, 190, 117, 2, 0.761584
8, 2, wb, catch, NA, 999, 999, 7, 36, 134, 181, 99, 156, 115, 80, 3, 8.72907
8, 2, wb, catch, NA, 999, 999, 7, 36, 134, 181, 99, 156, 115, 80, 1, 0.559057
8, 2, wb, attraction, a-b-db, 2, 3, 7, 37, 119, 193, 195, 120, 120, 195, 3, 2.85499
8, 2, wb, attraction, a-b-db, 2, 3, 7, 37, 119, 193, 195, 120, 120, 195, 2, 0.74184
8, 2, wb, catch, NA, 999, 999, 8, 1, 110, 85, 129, 186, 119, 136, 1, 1.22911
8, 2, wb, catch, NA, 999, 999, 8, 1, 110, 85, 129, 186, 119, 136, 2, 0.721644
8, 2, wb, attraction, a-b-db, 14, 3, 8, 2, 120, 195, 111, 181, 195, 120, 2, 2.12298
8, 2, wb, attraction, a-b-db, 14, 3, 8, 2, 120, 195, 111, 181, 195, 120, 1, 0.790266
8, 2, wb, attraction, a-b-db, 5, 3, 8, 3, 117, 190, 120, 195, 195, 120, 1, 1.58676
8, 2, wb, attraction, a-b-db, 5, 3, 8, 3, 117, 190, 120, 195, 195, 120, 2, 0.730602
8, 2, wb, attraction, a-b-da, 2, 1, 8, 4, 135, 60, 134, 59, 60, 135, 1, 2.10846
8, 2, wb, attraction, a-b-da, 2, 1, 8, 4, 135, 60, 134, 59, 60, 135, 3, 4.9488
8, 2, wb, filler, NA, 999, 999, 8, 5, 119, 152, 150, 173, 160, 92, 1, 1.48554
8, 2, wb, filler, NA, 999, 999, 8, 5, 119, 152, 150, 173, 160, 92, 2, 0.736021
8, 2, wb, filler, NA, 999, 999, 8, 6, 182, 93, 68, 108, 144, 86, 2, 1.28037
8, 2, wb, filler, NA, 999, 999, 8, 6, 182, 93, 68, 108, 144, 86, 1, 0.83473
8, 2, wb, attraction, a-b-db, 9, 3, 8, 7, 114, 186, 195, 120, 120, 195, 1, 1.62377
8, 2, wb, attraction, a-b-db, 9, 3, 8, 7, 114, 186, 195, 120, 120, 195, 3, 0.702215
8, 2, wb, filler, NA, 999, 999, 8, 8, 171, 134, 183, 115, 168, 101, 3, 2.23989
8, 2, wb, filler, NA, 999, 999, 8, 8, 171, 134, 183, 115, 168, 101, 2, 0.711086
8, 2, wb, attraction, a-b-db, 14, 1, 8, 9, 60, 135, 56, 125, 135, 60, 2, 4.18422
8, 2, wb, attraction, a-b-db, 14, 1, 8, 9, 60, 135, 56, 125, 135, 60, 3, 0.750988
8, 2, wb, filler, NA, 999, 999, 8, 10, 163, 137, 77, 61, 66, 161, 2, 1.20585
8, 2, wb, filler, NA, 999, 999, 8, 10, 163, 137, 77, 61, 66, 161, 1, 0.756534
8, 2, wb, attraction, a-b-db, 5, 2, 8, 11, 165, 90, 88, 161, 90, 165, 1, 15.9965
8, 2, wb, attraction, a-b-db, 5, 2, 8, 11, 165, 90, 88, 161, 90, 165, 2, 0.655586
8, 2, wb, attraction, a-b-db, 9, 1, 8, 12, 135, 60, 57, 129, 60, 135, 1, 1.65064
8, 2, wb, attraction, a-b-db, 9, 1, 8, 12, 135, 60, 57, 129, 60, 135, 3, 0.712145
8, 2, wb, attraction, a-b-da, 5, 1, 8, 13, 132, 58, 60, 135, 135, 60, 1, 1.58664
8, 2, wb, attraction, a-b-da, 5, 1, 8, 13, 132, 58, 60, 135, 135, 60, 2, 2.75315
8, 2, wb, attraction, a-b-db, 2, 2, 8, 14, 90, 165, 165, 90, 89, 163, 1, 2.84138
8, 2, wb, attraction, a-b-db, 2, 2, 8, 14, 90, 165, 165, 90, 89, 163, 3, 1.34196
8, 2, wb, filler, NA, 999, 999, 8, 15, 106, 126, 105, 77, 170, 104, 2, 1.41565
8, 2, wb, filler, NA, 999, 999, 8, 15, 106, 126, 105, 77, 170, 104, 3, 0.731014
8, 2, wb, attraction, a-b-da, 14, 2, 8, 16, 165, 90, 153, 83, 90, 165, 2, 2.15662
8, 2, wb, attraction, a-b-da, 14, 2, 8, 16, 165, 90, 153, 83, 90, 165, 1, 0.628906
8, 2, wb, attraction, a-b-da, 9, 1, 8, 17, 135, 60, 60, 135, 129, 57, 3, 1.95266
8, 2, wb, attraction, a-b-da, 9, 1, 8, 17, 135, 60, 60, 135, 129, 57, 2, 1.54548
8, 2, wb, attraction, a-b-da, 14, 1, 8, 18, 125, 56, 135, 60, 60, 135, 1, 3.52329
8, 2, wb, attraction, a-b-da, 14, 1, 8, 18, 125, 56, 135, 60, 60, 135, 3, 0.587716
8, 2, wb, attraction, a-b-da, 5, 2, 8, 19, 90, 165, 161, 88, 165, 90, 2, 1.28973
8, 2, wb, attraction, a-b-da, 5, 2, 8, 19, 90, 165, 161, 88, 165, 90, 1, 0.703088
8, 2, wb, filler, NA, 999, 999, 8, 20, 184, 108, 190, 59, 192, 156, 2, 1.35132
8, 2, wb, filler, NA, 999, 999, 8, 20, 184, 108, 190, 59, 192, 156, 3, 1.05038
8, 2, wb, attraction, a-b-db, 2, 3, 8, 21, 119, 193, 120, 195, 195, 120, 1, 1.91782
8, 2, wb, attraction, a-b-db, 2, 3, 8, 21, 119, 193, 120, 195, 195, 120, 2, 0.685501
8, 2, wb, attraction, a-b-da, 2, 2, 8, 22, 90, 165, 165, 90, 163, 89, 3, 3.18477
8, 2, wb, attraction, a-b-da, 2, 2, 8, 22, 90, 165, 165, 90, 163, 89, 1, 0.935651
8, 2, wb, attraction, a-b-db, 5, 1, 8, 23, 60, 135, 135, 60, 58, 132, 3, 2.33568
8, 2, wb, attraction, a-b-db, 5, 1, 8, 23, 60, 135, 135, 60, 58, 132, 2, 1.42477
8, 2, wb, attraction, a-b-db, 2, 1, 8, 24, 59, 134, 60, 135, 135, 60, 1, 1.67687
8, 2, wb, attraction, a-b-db, 2, 1, 8, 24, 59, 134, 60, 135, 135, 60, 3, 0.866376
8, 2, wb, attraction, a-b-da, 14, 3, 8, 25, 120, 195, 181, 111, 195, 120, 2, 3.48514
8, 2, wb, attraction, a-b-da, 14, 3, 8, 25, 120, 195, 181, 111, 195, 120, 1, 1.16105
8, 2, wb, attraction, a-b-da, 2, 3, 8, 26, 120, 195, 193, 119, 195, 120, 2, 1.69599
8, 2, wb, attraction, a-b-da, 2, 3, 8, 26, 120, 195, 193, 119, 195, 120, 3, 0.722424
8, 2, wb, attraction, a-b-da, 9, 2, 8, 27, 157, 86, 165, 90, 90, 165, 2, 1.05834
8, 2, wb, attraction, a-b-da, 9, 2, 8, 27, 157, 86, 165, 90, 90, 165, 3, 1.16719
8, 2, wb, attraction, a-b-db, 9, 2, 8, 28, 86, 157, 165, 90, 90, 165, 1, 1.63019
8, 2, wb, attraction, a-b-db, 9, 2, 8, 28, 86, 157, 165, 90, 90, 165, 2, 0.579517
8, 2, wb, attraction, a-b-da, 9, 3, 8, 29, 195, 120, 186, 114, 120, 195, 2, 1.51575
8, 2, wb, attraction, a-b-da, 9, 3, 8, 29, 195, 120, 186, 114, 120, 195, 1, 2.43813
8, 2, wb, filler, NA, 999, 999, 8, 30, 152, 136, 192, 195, 172, 176, 1, 1.33046
8, 2, wb, filler, NA, 999, 999, 8, 30, 152, 136, 192, 195, 172, 176, 2, 0.723988
8, 2, wb, attraction, a-b-db, 14, 2, 8, 31, 90, 165, 165, 90, 83, 153, 2, 1.13181
8, 2, wb, attraction, a-b-db, 14, 2, 8, 31, 90, 165, 165, 90, 83, 153, 1, 0.964568
8, 2, wb, filler, NA, 999, 999, 8, 32, 108, 132, 120, 165, 191, 60, 1, 1.83717
8, 2, wb, filler, NA, 999, 999, 8, 32, 108, 132, 120, 165, 191, 60, 2, 1.0269
8, 2, wb, attraction, a-b-da, 5, 3, 8, 33, 120, 195, 190, 117, 195, 120, 1, 1.39081
8, 2, wb, attraction, a-b-da, 5, 3, 8, 33, 120, 195, 190, 117, 195, 120, 3, 0.677015
8, 2, wb, filler, NA, 999, 999, 8, 34, 141, 114, 113, 89, 115, 126, 2, 1.08986
8, 2, wb, filler, NA, 999, 999, 8, 34, 141, 114, 113, 89, 115, 126, 1, 1.26912
8, 2, wb, filler, NA, 999, 999, 8, 35, 153, 71, 102, 108, 125, 68, 2, 1.05544
8, 2, wb, filler, NA, 999, 999, 8, 35, 153, 71, 102, 108, 125, 68, 1, 1.98835
8, 2, wb, catch, NA, 999, 999, 8, 36, 110, 85, 136, 179, 133, 122, 1, 1.48357
8, 2, wb, catch, NA, 999, 999, 8, 36, 110, 85, 136, 179, 133, 122, 2, 0.703879
8, 2, wb, catch, NA, 999, 999, 8, 37, 160, 155, 104, 91, 108, 147, 2, 1.76044
8, 2, wb, catch, NA, 999, 999, 8, 37, 160, 155, 104, 91, 108, 147, 1, 0.84172
