sub_n, computer_n, bw_cond, effect, set, distance, diag, block_n, trial_n, h1, w1, h2, w2, h3, w3, choice, rt 
80, 2, wb, practice, NA, 999, 999, 0, 1, 136, 148, 164, 83, 71, 68, 3, 3.35369
80, 2, wb, practice, NA, 999, 999, 0, 1, 136, 148, 164, 83, 71, 68, 1, 2.82503
80, 2, wb, practice, NA, 999, 999, 0, 2, 121, 59, 152, 135, 141, 118, 1, 4.58526
80, 2, wb, practice, NA, 999, 999, 0, 2, 121, 59, 152, 135, 141, 118, 2, 2.48068
80, 2, wb, practice, NA, 999, 999, 0, 3, 95, 183, 98, 117, 70, 190, 2, 7.36655
80, 2, wb, practice, NA, 999, 999, 0, 3, 95, 183, 98, 117, 70, 190, 1, 1.51759
80, 2, wb, attraction, a-b-db, 14, 2, 1, 1, 90, 165, 165, 90, 83, 153, 3, 6.92592
80, 2, wb, attraction, a-b-db, 14, 2, 1, 1, 90, 165, 165, 90, 83, 153, 1, 3.38965
80, 2, wb, attraction, a-b-da, 14, 3, 1, 2, 195, 120, 120, 195, 181, 111, 3, 3.59535
80, 2, wb, attraction, a-b-da, 14, 3, 1, 2, 195, 120, 120, 195, 181, 111, 2, 3.0334
80, 2, wb, attraction, a-b-da, 2, 3, 1, 3, 195, 120, 193, 119, 120, 195, 1, 7.80507
80, 2, wb, attraction, a-b-da, 2, 3, 1, 3, 195, 120, 193, 119, 120, 195, 3, 3.26602
80, 2, wb, filler, NA, 999, 999, 1, 4, 174, 68, 154, 183, 81, 124, 3, 8.40423
80, 2, wb, filler, NA, 999, 999, 1, 4, 174, 68, 154, 183, 81, 124, 2, 0.856865
80, 2, wb, attraction, a-b-da, 5, 2, 1, 5, 161, 88, 90, 165, 165, 90, 1, 11.6439
80, 2, wb, attraction, a-b-da, 5, 2, 1, 5, 161, 88, 90, 165, 165, 90, 2, 2.50154
80, 2, wb, attraction, a-b-db, 5, 3, 1, 6, 195, 120, 117, 190, 120, 195, 2, 24.9908
80, 2, wb, attraction, a-b-db, 5, 3, 1, 6, 195, 120, 117, 190, 120, 195, 3, 3.51095
80, 2, wb, filler, NA, 999, 999, 1, 7, 163, 186, 156, 98, 168, 63, 3, 10.6951
80, 2, wb, filler, NA, 999, 999, 1, 7, 163, 186, 156, 98, 168, 63, 1, 0.951143
80, 2, wb, attraction, a-b-db, 9, 2, 1, 8, 86, 157, 90, 165, 165, 90, 1, 13.2307
80, 2, wb, attraction, a-b-db, 9, 2, 1, 8, 86, 157, 90, 165, 165, 90, 2, 0.664461
80, 2, wb, catch, NA, 999, 999, 1, 9, 134, 181, 127, 68, 105, 150, 2, 1.60363
80, 2, wb, catch, NA, 999, 999, 1, 9, 134, 181, 127, 68, 105, 150, 1, 0.625762
80, 2, wb, filler, NA, 999, 999, 1, 10, 108, 153, 124, 109, 126, 116, 2, 6.96613
80, 2, wb, filler, NA, 999, 999, 1, 10, 108, 153, 124, 109, 126, 116, 1, 2.30856
80, 2, wb, attraction, a-b-da, 9, 3, 1, 11, 186, 114, 120, 195, 195, 120, 1, 5.61308
80, 2, wb, attraction, a-b-da, 9, 3, 1, 11, 186, 114, 120, 195, 195, 120, 2, 2.62601
80, 2, wb, attraction, a-b-db, 2, 1, 1, 12, 60, 135, 135, 60, 59, 134, 1, 8.4779
80, 2, wb, attraction, a-b-db, 2, 1, 1, 12, 60, 135, 135, 60, 59, 134, 2, 7.32728
80, 2, wb, attraction, a-b-da, 14, 1, 1, 13, 60, 135, 135, 60, 125, 56, 3, 14.1814
80, 2, wb, attraction, a-b-da, 14, 1, 1, 13, 60, 135, 135, 60, 125, 56, 2, 1.06497
80, 2, wb, attraction, a-b-da, 2, 2, 1, 14, 90, 165, 163, 89, 165, 90, 3, 10.308
80, 2, wb, attraction, a-b-da, 2, 2, 1, 14, 90, 165, 163, 89, 165, 90, 2, 2.5554
80, 2, wb, attraction, a-b-db, 9, 1, 1, 15, 57, 129, 60, 135, 135, 60, 1, 13.6424
80, 2, wb, attraction, a-b-db, 9, 1, 1, 15, 57, 129, 60, 135, 135, 60, 3, 2.98757
80, 2, wb, catch, NA, 999, 999, 1, 16, 129, 186, 154, 101, 107, 88, 3, 2.08926
80, 2, wb, catch, NA, 999, 999, 1, 16, 129, 186, 154, 101, 107, 88, 1, 0.851829
80, 2, wb, filler, NA, 999, 999, 1, 17, 119, 184, 97, 138, 158, 172, 2, 2.45549
80, 2, wb, filler, NA, 999, 999, 1, 17, 119, 184, 97, 138, 158, 172, 3, 1.83541
80, 2, wb, attraction, a-b-da, 9, 1, 1, 18, 129, 57, 60, 135, 135, 60, 1, 2.66338
80, 2, wb, attraction, a-b-da, 9, 1, 1, 18, 129, 57, 60, 135, 135, 60, 3, 1.7633
80, 2, wb, attraction, a-b-db, 2, 2, 1, 19, 165, 90, 89, 163, 90, 165, 2, 21.6901
80, 2, wb, attraction, a-b-db, 2, 2, 1, 19, 165, 90, 89, 163, 90, 165, 3, 4.4393
80, 2, wb, filler, NA, 999, 999, 1, 20, 167, 138, 120, 87, 189, 164, 2, 1.13037
80, 2, wb, filler, NA, 999, 999, 1, 20, 167, 138, 120, 87, 189, 164, 3, 0.812046
80, 2, wb, attraction, a-b-db, 14, 3, 1, 21, 120, 195, 111, 181, 195, 120, 2, 4.9051
80, 2, wb, attraction, a-b-db, 14, 3, 1, 21, 120, 195, 111, 181, 195, 120, 1, 0.866153
80, 2, wb, attraction, a-b-da, 5, 1, 1, 22, 60, 135, 132, 58, 135, 60, 1, 1.30915
80, 2, wb, attraction, a-b-da, 5, 1, 1, 22, 60, 135, 132, 58, 135, 60, 3, 1.48748
80, 2, wb, filler, NA, 999, 999, 1, 23, 95, 178, 149, 153, 70, 113, 3, 1.14551
80, 2, wb, filler, NA, 999, 999, 1, 23, 95, 178, 149, 153, 70, 113, 2, 0.474516
80, 2, wb, attraction, a-b-db, 9, 3, 1, 24, 114, 186, 195, 120, 120, 195, 1, 1.96493
80, 2, wb, attraction, a-b-db, 9, 3, 1, 24, 114, 186, 195, 120, 120, 195, 2, 0.700912
80, 2, wb, filler, NA, 999, 999, 1, 25, 132, 174, 144, 72, 157, 163, 2, 0.966692
80, 2, wb, filler, NA, 999, 999, 1, 25, 132, 174, 144, 72, 157, 163, 3, 0.814959
80, 2, wb, attraction, a-b-db, 14, 1, 1, 26, 135, 60, 56, 125, 60, 135, 2, 2.74007
80, 2, wb, attraction, a-b-db, 14, 1, 1, 26, 135, 60, 56, 125, 60, 135, 1, 2.92445
80, 2, wb, filler, NA, 999, 999, 1, 27, 117, 108, 95, 111, 76, 172, 2, 3.49218
80, 2, wb, filler, NA, 999, 999, 1, 27, 117, 108, 95, 111, 76, 172, 1, 1.92647
80, 2, wb, attraction, a-b-db, 5, 2, 1, 28, 88, 161, 90, 165, 165, 90, 1, 8.30242
80, 2, wb, attraction, a-b-db, 5, 2, 1, 28, 88, 161, 90, 165, 165, 90, 2, 1.50318
80, 2, wb, attraction, a-b-db, 5, 1, 1, 29, 60, 135, 135, 60, 58, 132, 3, 6.20052
80, 2, wb, attraction, a-b-db, 5, 1, 1, 29, 60, 135, 135, 60, 58, 132, 2, 7.14211
80, 2, wb, catch, NA, 999, 999, 1, 30, 151, 104, 135, 180, 108, 87, 3, 1.17963
80, 2, wb, catch, NA, 999, 999, 1, 30, 151, 104, 135, 180, 108, 87, 2, 0.627361
80, 2, wb, attraction, a-b-da, 5, 3, 1, 31, 195, 120, 120, 195, 190, 117, 3, 5.58386
80, 2, wb, attraction, a-b-da, 5, 3, 1, 31, 195, 120, 120, 195, 190, 117, 2, 0.701891
80, 2, wb, attraction, a-b-da, 2, 1, 1, 32, 60, 135, 134, 59, 135, 60, 1, 9.3837
80, 2, wb, attraction, a-b-da, 2, 1, 1, 32, 60, 135, 134, 59, 135, 60, 3, 1.38069
80, 2, wb, filler, NA, 999, 999, 1, 33, 126, 165, 67, 191, 65, 145, 3, 2.57088
80, 2, wb, filler, NA, 999, 999, 1, 33, 126, 165, 67, 191, 65, 145, 1, 0.61001
80, 2, wb, attraction, a-b-db, 2, 3, 1, 34, 120, 195, 195, 120, 119, 193, 3, 14.6871
80, 2, wb, attraction, a-b-db, 2, 3, 1, 34, 120, 195, 195, 120, 119, 193, 2, 2.64652
80, 2, wb, attraction, a-b-da, 9, 2, 1, 35, 90, 165, 157, 86, 165, 90, 2, 4.40157
80, 2, wb, attraction, a-b-da, 9, 2, 1, 35, 90, 165, 157, 86, 165, 90, 1, 1.15161
80, 2, wb, attraction, a-b-da, 14, 2, 1, 36, 153, 83, 165, 90, 90, 165, 1, 4.21509
80, 2, wb, attraction, a-b-da, 14, 2, 1, 36, 153, 83, 165, 90, 90, 165, 3, 0.596446
80, 2, wb, filler, NA, 999, 999, 1, 37, 176, 76, 174, 153, 75, 71, 3, 1.00221
80, 2, wb, filler, NA, 999, 999, 1, 37, 176, 76, 174, 153, 75, 71, 2, 1.32919
80, 2, wb, attraction, a-b-db, 9, 3, 2, 1, 114, 186, 120, 195, 195, 120, 1, 6.32141
80, 2, wb, attraction, a-b-db, 9, 3, 2, 1, 114, 186, 120, 195, 195, 120, 2, 0.513413
80, 2, wb, attraction, a-b-db, 5, 1, 2, 2, 60, 135, 135, 60, 58, 132, 3, 13.5225
80, 2, wb, attraction, a-b-db, 5, 1, 2, 2, 60, 135, 135, 60, 58, 132, 1, 1.08912
80, 2, wb, filler, NA, 999, 999, 2, 3, 181, 102, 62, 116, 191, 101, 2, 0.947218
80, 2, wb, filler, NA, 999, 999, 2, 3, 181, 102, 62, 116, 191, 101, 3, 6.26036
80, 2, wb, filler, NA, 999, 999, 2, 4, 132, 151, 187, 110, 142, 176, 1, 3.65349
80, 2, wb, filler, NA, 999, 999, 2, 4, 132, 151, 187, 110, 142, 176, 3, 0.441649
80, 2, wb, catch, NA, 999, 999, 2, 5, 115, 140, 66, 129, 173, 142, 2, 2.0135
80, 2, wb, catch, NA, 999, 999, 2, 5, 115, 140, 66, 129, 173, 142, 3, 0.699614
80, 2, wb, attraction, a-b-da, 9, 1, 2, 6, 60, 135, 129, 57, 135, 60, 1, 31.1332
80, 2, wb, attraction, a-b-da, 9, 1, 2, 6, 60, 135, 129, 57, 135, 60, 3, 0.70949
80, 2, wb, filler, NA, 999, 999, 2, 7, 117, 186, 85, 85, 108, 168, 2, 1.2705
80, 2, wb, filler, NA, 999, 999, 2, 7, 117, 186, 85, 85, 108, 168, 1, 0.610045
80, 2, wb, filler, NA, 999, 999, 2, 8, 59, 83, 57, 84, 133, 114, 1, 0.847189
80, 2, wb, filler, NA, 999, 999, 2, 8, 59, 83, 57, 84, 133, 114, 3, 0.868217
80, 2, wb, attraction, a-b-da, 14, 2, 2, 9, 90, 165, 153, 83, 165, 90, 2, 2.19932
80, 2, wb, attraction, a-b-da, 14, 2, 2, 9, 90, 165, 153, 83, 165, 90, 1, 0.501826
80, 2, wb, filler, NA, 999, 999, 2, 10, 180, 163, 118, 88, 193, 159, 2, 1.20756
80, 2, wb, filler, NA, 999, 999, 2, 10, 180, 163, 118, 88, 193, 159, 1, 1.90199
80, 2, wb, attraction, a-b-da, 14, 1, 2, 11, 125, 56, 60, 135, 135, 60, 1, 1.31934
80, 2, wb, attraction, a-b-da, 14, 1, 2, 11, 125, 56, 60, 135, 135, 60, 2, 1.28152
80, 2, wb, filler, NA, 999, 999, 2, 12, 191, 82, 147, 64, 115, 75, 3, 1.09169
80, 2, wb, filler, NA, 999, 999, 2, 12, 191, 82, 147, 64, 115, 75, 1, 0.558596
80, 2, wb, attraction, a-b-db, 14, 3, 2, 13, 111, 181, 120, 195, 195, 120, 1, 2.27787
80, 2, wb, attraction, a-b-db, 14, 3, 2, 13, 111, 181, 120, 195, 195, 120, 2, 0.697035
80, 2, wb, attraction, a-b-db, 14, 2, 2, 14, 90, 165, 83, 153, 165, 90, 2, 3.68274
80, 2, wb, attraction, a-b-db, 14, 2, 2, 14, 90, 165, 83, 153, 165, 90, 1, 0.501539
80, 2, wb, filler, NA, 999, 999, 2, 15, 192, 136, 155, 121, 70, 66, 3, 0.815319
80, 2, wb, filler, NA, 999, 999, 2, 15, 192, 136, 155, 121, 70, 66, 1, 0.597687
80, 2, wb, attraction, a-b-db, 5, 2, 2, 16, 90, 165, 88, 161, 165, 90, 2, 7.17146
80, 2, wb, attraction, a-b-db, 5, 2, 2, 16, 90, 165, 88, 161, 165, 90, 1, 0.394061
80, 2, wb, attraction, a-b-da, 5, 1, 2, 17, 60, 135, 132, 58, 135, 60, 2, 4.9996
80, 2, wb, attraction, a-b-da, 5, 1, 2, 17, 60, 135, 132, 58, 135, 60, 3, 3.53348
80, 2, wb, attraction, a-b-db, 14, 1, 2, 18, 135, 60, 56, 125, 60, 135, 2, 7.03693
80, 2, wb, attraction, a-b-db, 14, 1, 2, 18, 135, 60, 56, 125, 60, 135, 3, 0.936809
80, 2, wb, attraction, a-b-da, 2, 3, 2, 19, 195, 120, 193, 119, 120, 195, 3, 3.03297
80, 2, wb, attraction, a-b-da, 2, 3, 2, 19, 195, 120, 193, 119, 120, 195, 1, 0.806106
80, 2, wb, attraction, a-b-da, 14, 3, 2, 20, 120, 195, 195, 120, 181, 111, 3, 6.10706
80, 2, wb, attraction, a-b-da, 14, 3, 2, 20, 120, 195, 195, 120, 181, 111, 2, 1.23589
80, 2, wb, attraction, a-b-da, 9, 2, 2, 21, 165, 90, 157, 86, 90, 165, 2, 3.65599
80, 2, wb, attraction, a-b-da, 9, 2, 2, 21, 165, 90, 157, 86, 90, 165, 1, 0.371626
80, 2, wb, attraction, a-b-db, 2, 2, 2, 22, 165, 90, 90, 165, 89, 163, 3, 6.24268
80, 2, wb, attraction, a-b-db, 2, 2, 2, 22, 165, 90, 90, 165, 89, 163, 2, 2.10212
80, 2, wb, attraction, a-b-da, 9, 3, 2, 23, 186, 114, 120, 195, 195, 120, 1, 8.32734
80, 2, wb, attraction, a-b-da, 9, 3, 2, 23, 186, 114, 120, 195, 195, 120, 3, 1.1348
80, 2, wb, attraction, a-b-db, 9, 2, 2, 24, 90, 165, 86, 157, 165, 90, 2, 7.06299
80, 2, wb, attraction, a-b-db, 9, 2, 2, 24, 90, 165, 86, 157, 165, 90, 1, 0.449419
80, 2, wb, attraction, a-b-db, 5, 3, 2, 25, 120, 195, 195, 120, 117, 190, 3, 8.22141
80, 2, wb, attraction, a-b-db, 5, 3, 2, 25, 120, 195, 195, 120, 117, 190, 1, 0.745237
80, 2, wb, filler, NA, 999, 999, 2, 26, 149, 82, 126, 77, 188, 136, 2, 1.0169
80, 2, wb, filler, NA, 999, 999, 2, 26, 149, 82, 126, 77, 188, 136, 3, 0.4713
80, 2, wb, filler, NA, 999, 999, 2, 27, 182, 100, 120, 121, 134, 170, 2, 1.44243
80, 2, wb, filler, NA, 999, 999, 2, 27, 182, 100, 120, 121, 134, 170, 3, 0.53528
80, 2, wb, attraction, a-b-db, 9, 1, 2, 28, 60, 135, 57, 129, 135, 60, 2, 2.90368
80, 2, wb, attraction, a-b-db, 9, 1, 2, 28, 60, 135, 57, 129, 135, 60, 1, 0.786111
80, 2, wb, attraction, a-b-db, 2, 1, 2, 29, 60, 135, 135, 60, 59, 134, 3, 1.47251
80, 2, wb, attraction, a-b-db, 2, 1, 2, 29, 60, 135, 135, 60, 59, 134, 1, 0.915915
80, 2, wb, attraction, a-b-da, 2, 2, 2, 30, 165, 90, 90, 165, 163, 89, 3, 2.33307
80, 2, wb, attraction, a-b-da, 2, 2, 2, 30, 165, 90, 90, 165, 163, 89, 2, 2.7422
80, 2, wb, attraction, a-b-da, 5, 3, 2, 31, 120, 195, 195, 120, 190, 117, 1, 12.3573
80, 2, wb, attraction, a-b-da, 5, 3, 2, 31, 120, 195, 195, 120, 190, 117, 2, 0.346737
80, 2, wb, filler, NA, 999, 999, 2, 32, 76, 188, 190, 182, 59, 133, 3, 0.970589
80, 2, wb, filler, NA, 999, 999, 2, 32, 76, 188, 190, 182, 59, 133, 2, 0.802319
80, 2, wb, catch, NA, 999, 999, 2, 33, 133, 62, 163, 152, 92, 163, 1, 1.19985
80, 2, wb, catch, NA, 999, 999, 2, 33, 133, 62, 163, 152, 92, 163, 2, 0.358878
80, 2, wb, catch, NA, 999, 999, 2, 34, 116, 139, 138, 177, 121, 74, 3, 1.3101
80, 2, wb, catch, NA, 999, 999, 2, 34, 116, 139, 138, 177, 121, 74, 2, 0.488225
80, 2, wb, attraction, a-b-db, 2, 3, 2, 35, 120, 195, 119, 193, 195, 120, 2, 13.1307
80, 2, wb, attraction, a-b-db, 2, 3, 2, 35, 120, 195, 119, 193, 195, 120, 3, 1.00052
80, 2, wb, attraction, a-b-da, 2, 1, 2, 36, 135, 60, 134, 59, 60, 135, 1, 11.1662
80, 2, wb, attraction, a-b-da, 2, 1, 2, 36, 135, 60, 134, 59, 60, 135, 3, 0.475391
80, 2, wb, attraction, a-b-da, 5, 2, 2, 37, 161, 88, 90, 165, 165, 90, 1, 2.79788
80, 2, wb, attraction, a-b-da, 5, 2, 2, 37, 161, 88, 90, 165, 165, 90, 2, 2.45231
80, 2, wb, attraction, a-b-db, 9, 1, 3, 1, 57, 129, 60, 135, 135, 60, 1, 8.43151
80, 2, wb, attraction, a-b-db, 9, 1, 3, 1, 57, 129, 60, 135, 135, 60, 3, 4.11479
80, 2, wb, attraction, a-b-da, 2, 1, 3, 2, 134, 59, 60, 135, 135, 60, 2, 8.55475
80, 2, wb, attraction, a-b-da, 2, 1, 3, 2, 134, 59, 60, 135, 135, 60, 1, 4.41745
80, 2, wb, attraction, a-b-da, 14, 1, 3, 3, 60, 135, 125, 56, 135, 60, 2, 3.96525
80, 2, wb, attraction, a-b-da, 14, 1, 3, 3, 60, 135, 125, 56, 135, 60, 1, 0.652657
80, 2, wb, catch, NA, 999, 999, 3, 4, 90, 105, 171, 144, 137, 118, 1, 1.59244
80, 2, wb, catch, NA, 999, 999, 3, 4, 90, 105, 171, 144, 137, 118, 2, 0.375245
80, 2, wb, attraction, a-b-da, 2, 3, 3, 5, 193, 119, 195, 120, 120, 195, 1, 39.5738
80, 2, wb, attraction, a-b-da, 2, 3, 3, 5, 193, 119, 195, 120, 120, 195, 2, 0.337974
80, 2, wb, attraction, a-b-da, 9, 3, 3, 6, 120, 195, 186, 114, 195, 120, 2, 2.94649
80, 2, wb, attraction, a-b-da, 9, 3, 3, 6, 120, 195, 186, 114, 195, 120, 1, 0.962954
80, 2, wb, attraction, a-b-da, 5, 1, 3, 7, 135, 60, 60, 135, 132, 58, 3, 5.68994
80, 2, wb, attraction, a-b-da, 5, 1, 3, 7, 135, 60, 60, 135, 132, 58, 2, 0.699321
80, 2, wb, attraction, a-b-db, 9, 3, 3, 8, 195, 120, 120, 195, 114, 186, 3, 1.41325
80, 2, wb, attraction, a-b-db, 9, 3, 3, 8, 195, 120, 120, 195, 114, 186, 2, 0.275394
80, 2, wb, filler, NA, 999, 999, 3, 9, 60, 151, 184, 133, 171, 182, 1, 0.949844
80, 2, wb, filler, NA, 999, 999, 3, 9, 60, 151, 184, 133, 171, 182, 3, 0.462876
80, 2, wb, filler, NA, 999, 999, 3, 10, 171, 157, 67, 162, 124, 75, 3, 1.17799
80, 2, wb, filler, NA, 999, 999, 3, 10, 171, 157, 67, 162, 124, 75, 1, 0.705586
80, 2, wb, filler, NA, 999, 999, 3, 11, 186, 118, 116, 119, 117, 137, 2, 1.13932
80, 2, wb, filler, NA, 999, 999, 3, 11, 186, 118, 116, 119, 117, 137, 1, 1.13239
80, 2, wb, filler, NA, 999, 999, 3, 12, 107, 118, 136, 149, 106, 166, 1, 0.876644
80, 2, wb, filler, NA, 999, 999, 3, 12, 107, 118, 136, 149, 106, 166, 2, 0.328177
80, 2, wb, attraction, a-b-da, 14, 3, 3, 13, 120, 195, 195, 120, 181, 111, 3, 1.00869
80, 2, wb, attraction, a-b-da, 14, 3, 3, 13, 120, 195, 195, 120, 181, 111, 1, 4.57518
80, 2, wb, attraction, a-b-db, 2, 1, 3, 14, 135, 60, 60, 135, 59, 134, 3, 9.28417
80, 2, wb, attraction, a-b-db, 2, 1, 3, 14, 135, 60, 60, 135, 59, 134, 2, 0.621356
80, 2, wb, attraction, a-b-db, 2, 2, 3, 15, 165, 90, 89, 163, 90, 165, 1, 2.1385
80, 2, wb, attraction, a-b-db, 2, 2, 3, 15, 165, 90, 89, 163, 90, 165, 2, 0.427104
80, 2, wb, attraction, a-b-da, 2, 2, 3, 16, 163, 89, 90, 165, 165, 90, 1, 1.30338
80, 2, wb, attraction, a-b-da, 2, 2, 3, 16, 163, 89, 90, 165, 165, 90, 2, 2.48243
80, 2, wb, filler, NA, 999, 999, 3, 17, 120, 70, 88, 103, 102, 109, 2, 1.31623
80, 2, wb, filler, NA, 999, 999, 3, 17, 120, 70, 88, 103, 102, 109, 3, 1.87847
80, 2, wb, attraction, a-b-da, 9, 2, 3, 18, 157, 86, 90, 165, 165, 90, 1, 6.36045
80, 2, wb, attraction, a-b-da, 9, 2, 3, 18, 157, 86, 90, 165, 165, 90, 3, 0.807106
80, 2, wb, attraction, a-b-da, 5, 2, 3, 19, 161, 88, 165, 90, 90, 165, 1, 2.6361
80, 2, wb, attraction, a-b-da, 5, 2, 3, 19, 161, 88, 165, 90, 90, 165, 3, 1.18528
80, 2, wb, filler, NA, 999, 999, 3, 20, 76, 172, 84, 126, 184, 125, 2, 4.98361
80, 2, wb, filler, NA, 999, 999, 3, 20, 76, 172, 84, 126, 184, 125, 3, 0.438103
80, 2, wb, catch, NA, 999, 999, 3, 21, 147, 108, 155, 160, 80, 115, 3, 1.57852
80, 2, wb, catch, NA, 999, 999, 3, 21, 147, 108, 155, 160, 80, 115, 2, 0.881897
80, 2, wb, attraction, a-b-db, 14, 1, 3, 22, 56, 125, 60, 135, 135, 60, 1, 2.38021
80, 2, wb, attraction, a-b-db, 14, 1, 3, 22, 56, 125, 60, 135, 135, 60, 3, 2.29165
80, 2, wb, attraction, a-b-da, 9, 1, 3, 23, 129, 57, 135, 60, 60, 135, 1, 2.54878
80, 2, wb, attraction, a-b-da, 9, 1, 3, 23, 129, 57, 135, 60, 60, 135, 2, 0.80537
80, 2, wb, attraction, a-b-db, 14, 2, 3, 24, 90, 165, 165, 90, 83, 153, 3, 2.85094
80, 2, wb, attraction, a-b-db, 14, 2, 3, 24, 90, 165, 165, 90, 83, 153, 1, 1.17546
80, 2, wb, attraction, a-b-db, 5, 3, 3, 25, 120, 195, 195, 120, 117, 190, 2, 6.64554
80, 2, wb, attraction, a-b-db, 5, 3, 3, 25, 120, 195, 195, 120, 117, 190, 1, 0.824797
80, 2, wb, attraction, a-b-da, 14, 2, 3, 26, 90, 165, 165, 90, 153, 83, 3, 2.85319
80, 2, wb, attraction, a-b-da, 14, 2, 3, 26, 90, 165, 165, 90, 153, 83, 1, 1.14568
80, 2, wb, attraction, a-b-db, 5, 1, 3, 27, 135, 60, 58, 132, 60, 135, 3, 11.2173
80, 2, wb, attraction, a-b-db, 5, 1, 3, 27, 135, 60, 58, 132, 60, 135, 2, 0.556303
80, 2, wb, filler, NA, 999, 999, 3, 28, 104, 132, 126, 74, 195, 142, 2, 4.97936
80, 2, wb, filler, NA, 999, 999, 3, 28, 104, 132, 126, 74, 195, 142, 3, 0.393741
80, 2, wb, attraction, a-b-db, 2, 3, 3, 29, 195, 120, 120, 195, 119, 193, 3, 5.43171
80, 2, wb, attraction, a-b-db, 2, 3, 3, 29, 195, 120, 120, 195, 119, 193, 1, 2.17184
80, 2, wb, attraction, a-b-db, 5, 2, 3, 30, 90, 165, 88, 161, 165, 90, 3, 0.954481
80, 2, wb, attraction, a-b-db, 5, 2, 3, 30, 90, 165, 88, 161, 165, 90, 1, 0.602787
80, 2, wb, attraction, a-b-db, 14, 3, 3, 31, 195, 120, 111, 181, 120, 195, 2, 2.21658
80, 2, wb, attraction, a-b-db, 14, 3, 3, 31, 195, 120, 111, 181, 120, 195, 3, 0.350539
80, 2, wb, filler, NA, 999, 999, 3, 32, 62, 91, 117, 135, 174, 106, 1, 0.614457
80, 2, wb, filler, NA, 999, 999, 3, 32, 62, 91, 117, 135, 174, 106, 3, 0.508734
80, 2, wb, catch, NA, 999, 999, 3, 33, 104, 151, 81, 114, 141, 174, 2, 0.533875
80, 2, wb, catch, NA, 999, 999, 3, 33, 104, 151, 81, 114, 141, 174, 3, 0.519728
80, 2, wb, attraction, a-b-db, 9, 2, 3, 34, 86, 157, 90, 165, 165, 90, 1, 1.11283
80, 2, wb, attraction, a-b-db, 9, 2, 3, 34, 86, 157, 90, 165, 165, 90, 2, 0.835113
80, 2, wb, filler, NA, 999, 999, 3, 35, 56, 137, 61, 73, 153, 173, 2, 0.999448
80, 2, wb, filler, NA, 999, 999, 3, 35, 56, 137, 61, 73, 153, 173, 3, 0.310504
80, 2, wb, attraction, a-b-da, 5, 3, 3, 36, 120, 195, 190, 117, 195, 120, 3, 0.847746
80, 2, wb, attraction, a-b-da, 5, 3, 3, 36, 120, 195, 190, 117, 195, 120, 1, 1.25267
80, 2, wb, filler, NA, 999, 999, 3, 37, 169, 100, 78, 187, 111, 155, 3, 1.09621
80, 2, wb, filler, NA, 999, 999, 3, 37, 169, 100, 78, 187, 111, 155, 2, 2.55526
80, 2, wb, filler, NA, 999, 999, 4, 1, 193, 66, 110, 178, 79, 121, 3, 1.50649
80, 2, wb, filler, NA, 999, 999, 4, 1, 193, 66, 110, 178, 79, 121, 2, 0.940579
80, 2, wb, attraction, a-b-da, 5, 3, 4, 2, 195, 120, 120, 195, 190, 117, 3, 4.41216
80, 2, wb, attraction, a-b-da, 5, 3, 4, 2, 195, 120, 120, 195, 190, 117, 2, 0.985382
80, 2, wb, attraction, a-b-da, 2, 3, 4, 3, 195, 120, 193, 119, 120, 195, 1, 2.29572
80, 2, wb, attraction, a-b-da, 2, 3, 4, 3, 195, 120, 193, 119, 120, 195, 3, 0.722284
80, 2, wb, attraction, a-b-db, 9, 2, 4, 4, 86, 157, 165, 90, 90, 165, 3, 1.17944
80, 2, wb, attraction, a-b-db, 9, 2, 4, 4, 86, 157, 165, 90, 90, 165, 2, 1.57896
80, 2, wb, attraction, a-b-da, 14, 3, 4, 5, 181, 111, 120, 195, 195, 120, 1, 2.48906
80, 2, wb, attraction, a-b-da, 14, 3, 4, 5, 181, 111, 120, 195, 195, 120, 2, 1.96367
80, 2, wb, filler, NA, 999, 999, 4, 6, 106, 142, 164, 98, 152, 149, 1, 2.09027
80, 2, wb, filler, NA, 999, 999, 4, 6, 106, 142, 164, 98, 152, 149, 3, 0.620958
80, 2, wb, filler, NA, 999, 999, 4, 7, 111, 177, 138, 103, 146, 106, 3, 1.41007
80, 2, wb, filler, NA, 999, 999, 4, 7, 111, 177, 138, 103, 146, 106, 1, 1.48825
80, 2, wb, attraction, a-b-da, 5, 2, 4, 8, 161, 88, 165, 90, 90, 165, 1, 1.41851
80, 2, wb, attraction, a-b-da, 5, 2, 4, 8, 161, 88, 165, 90, 90, 165, 3, 0.832544
80, 2, wb, catch, NA, 999, 999, 4, 9, 179, 136, 108, 87, 149, 106, 2, 0.908864
80, 2, wb, catch, NA, 999, 999, 4, 9, 179, 136, 108, 87, 149, 106, 1, 0.431184
80, 2, wb, attraction, a-b-da, 9, 1, 4, 10, 60, 135, 135, 60, 129, 57, 3, 2.93175
80, 2, wb, attraction, a-b-da, 9, 1, 4, 10, 60, 135, 135, 60, 129, 57, 2, 1.55684
80, 2, wb, attraction, a-b-db, 9, 1, 4, 11, 60, 135, 135, 60, 57, 129, 3, 1.13168
80, 2, wb, attraction, a-b-db, 9, 1, 4, 11, 60, 135, 135, 60, 57, 129, 1, 2.42919
80, 2, wb, filler, NA, 999, 999, 4, 12, 59, 81, 145, 175, 122, 132, 1, 2.18498
80, 2, wb, filler, NA, 999, 999, 4, 12, 59, 81, 145, 175, 122, 132, 2, 0.432294
80, 2, wb, attraction, a-b-db, 2, 3, 4, 13, 119, 193, 195, 120, 120, 195, 3, 5.5168
80, 2, wb, attraction, a-b-db, 2, 3, 4, 13, 119, 193, 195, 120, 120, 195, 1, 0.38172
80, 2, wb, attraction, a-b-db, 9, 3, 4, 14, 120, 195, 195, 120, 114, 186, 3, 0.844161
80, 2, wb, attraction, a-b-db, 9, 3, 4, 14, 120, 195, 195, 120, 114, 186, 1, 0.481319
80, 2, wb, filler, NA, 999, 999, 4, 15, 187, 137, 106, 162, 105, 66, 3, 0.611653
80, 2, wb, filler, NA, 999, 999, 4, 15, 187, 137, 106, 162, 105, 66, 1, 0.394148
80, 2, wb, attraction, a-b-da, 14, 1, 4, 16, 60, 135, 125, 56, 135, 60, 2, 1.57602
80, 2, wb, attraction, a-b-da, 14, 1, 4, 16, 60, 135, 125, 56, 135, 60, 3, 1.27953
80, 2, wb, attraction, a-b-db, 5, 1, 4, 17, 135, 60, 60, 135, 58, 132, 3, 1.49765
80, 2, wb, attraction, a-b-db, 5, 1, 4, 17, 135, 60, 60, 135, 58, 132, 2, 3.23647
80, 2, wb, attraction, a-b-da, 2, 2, 4, 18, 163, 89, 90, 165, 165, 90, 1, 7.64808
80, 2, wb, attraction, a-b-da, 2, 2, 4, 18, 163, 89, 90, 165, 165, 90, 3, 1.50708
80, 2, wb, attraction, a-b-da, 5, 1, 4, 19, 132, 58, 135, 60, 60, 135, 3, 1.18782
80, 2, wb, attraction, a-b-da, 5, 1, 4, 19, 132, 58, 135, 60, 60, 135, 1, 0.866819
80, 2, wb, attraction, a-b-da, 2, 1, 4, 20, 135, 60, 60, 135, 134, 59, 3, 1.48574
80, 2, wb, attraction, a-b-da, 2, 1, 4, 20, 135, 60, 60, 135, 134, 59, 1, 0.785405
80, 2, wb, filler, NA, 999, 999, 4, 21, 194, 93, 195, 93, 159, 94, 3, 3.74363
80, 2, wb, filler, NA, 999, 999, 4, 21, 194, 93, 195, 93, 159, 94, 1, 0.583908
80, 2, wb, catch, NA, 999, 999, 4, 22, 101, 94, 177, 138, 127, 128, 1, 1.20619
80, 2, wb, catch, NA, 999, 999, 4, 22, 101, 94, 177, 138, 127, 128, 2, 0.276381
80, 2, wb, filler, NA, 999, 999, 4, 23, 168, 97, 155, 184, 189, 101, 1, 1.06292
80, 2, wb, filler, NA, 999, 999, 4, 23, 168, 97, 155, 184, 189, 101, 2, 0.307261
80, 2, wb, attraction, a-b-db, 2, 2, 4, 24, 90, 165, 165, 90, 89, 163, 3, 0.764575
80, 2, wb, attraction, a-b-db, 2, 2, 4, 24, 90, 165, 165, 90, 89, 163, 1, 1.52493
80, 2, wb, attraction, a-b-db, 5, 3, 4, 25, 120, 195, 195, 120, 117, 190, 3, 3.50902
80, 2, wb, attraction, a-b-db, 5, 3, 4, 25, 120, 195, 195, 120, 117, 190, 1, 0.52673
80, 2, wb, attraction, a-b-da, 9, 2, 4, 26, 157, 86, 165, 90, 90, 165, 1, 3.61501
80, 2, wb, attraction, a-b-da, 9, 2, 4, 26, 157, 86, 165, 90, 90, 165, 3, 0.58857
80, 2, wb, filler, NA, 999, 999, 4, 27, 174, 152, 61, 154, 133, 149, 2, 2.04297
80, 2, wb, filler, NA, 999, 999, 4, 27, 174, 152, 61, 154, 133, 149, 1, 0.415518
80, 2, wb, attraction, a-b-db, 14, 3, 4, 28, 120, 195, 111, 181, 195, 120, 2, 10.1888
80, 2, wb, attraction, a-b-db, 14, 3, 4, 28, 120, 195, 111, 181, 195, 120, 3, 4.25761
80, 2, wb, attraction, a-b-da, 14, 2, 4, 29, 90, 165, 165, 90, 153, 83, 1, 1.41218
80, 2, wb, attraction, a-b-da, 14, 2, 4, 29, 90, 165, 165, 90, 153, 83, 2, 0.370331
80, 2, wb, attraction, a-b-db, 5, 2, 4, 30, 90, 165, 88, 161, 165, 90, 2, 8.74543
80, 2, wb, attraction, a-b-db, 5, 2, 4, 30, 90, 165, 88, 161, 165, 90, 3, 1.39205
80, 2, wb, attraction, a-b-db, 14, 1, 4, 31, 60, 135, 56, 125, 135, 60, 2, 1.1336
80, 2, wb, attraction, a-b-db, 14, 1, 4, 31, 60, 135, 56, 125, 135, 60, 1, 0.431247
80, 2, wb, attraction, a-b-db, 14, 2, 4, 32, 90, 165, 83, 153, 165, 90, 2, 1.47568
80, 2, wb, attraction, a-b-db, 14, 2, 4, 32, 90, 165, 83, 153, 165, 90, 3, 3.24735
80, 2, wb, filler, NA, 999, 999, 4, 33, 160, 87, 163, 166, 139, 78, 3, 0.970159
80, 2, wb, filler, NA, 999, 999, 4, 33, 160, 87, 163, 166, 139, 78, 2, 0.369764
80, 2, wb, filler, NA, 999, 999, 4, 34, 146, 194, 146, 173, 174, 131, 3, 3.48089
80, 2, wb, filler, NA, 999, 999, 4, 34, 146, 194, 146, 173, 174, 131, 1, 0.643792
80, 2, wb, attraction, a-b-da, 9, 3, 4, 35, 186, 114, 120, 195, 195, 120, 1, 6.5195
80, 2, wb, attraction, a-b-da, 9, 3, 4, 35, 186, 114, 120, 195, 195, 120, 3, 0.52017
80, 2, wb, attraction, a-b-db, 2, 1, 4, 36, 60, 135, 59, 134, 135, 60, 1, 24.2013
80, 2, wb, attraction, a-b-db, 2, 1, 4, 36, 60, 135, 59, 134, 135, 60, 2, 0.873007
80, 2, wb, catch, NA, 999, 999, 4, 37, 129, 186, 125, 70, 143, 112, 2, 1.02741
80, 2, wb, catch, NA, 999, 999, 4, 37, 129, 186, 125, 70, 143, 112, 1, 0.43289
80, 2, wb, attraction, a-b-da, 2, 1, 5, 1, 134, 59, 60, 135, 135, 60, 2, 4.31632
80, 2, wb, attraction, a-b-da, 2, 1, 5, 1, 134, 59, 60, 135, 135, 60, 3, 2.99762
80, 2, wb, filler, NA, 999, 999, 5, 2, 188, 169, 195, 124, 162, 79, 3, 1.4585
80, 2, wb, filler, NA, 999, 999, 5, 2, 188, 169, 195, 124, 162, 79, 1, 0.486621
80, 2, wb, attraction, a-b-db, 9, 3, 5, 3, 120, 195, 114, 186, 195, 120, 2, 12.769
80, 2, wb, attraction, a-b-db, 9, 3, 5, 3, 120, 195, 114, 186, 195, 120, 1, 15.2617
80, 2, wb, attraction, a-b-da, 5, 1, 5, 4, 132, 58, 135, 60, 60, 135, 1, 4.37226
80, 2, wb, attraction, a-b-da, 5, 1, 5, 4, 132, 58, 135, 60, 60, 135, 3, 2.37882
80, 2, wb, catch, NA, 999, 999, 5, 5, 74, 121, 142, 113, 129, 186, 1, 0.824671
80, 2, wb, catch, NA, 999, 999, 5, 5, 74, 121, 142, 113, 129, 186, 3, 0.366467
80, 2, wb, attraction, a-b-db, 9, 2, 5, 6, 86, 157, 90, 165, 165, 90, 1, 2.91754
80, 2, wb, attraction, a-b-db, 9, 2, 5, 6, 86, 157, 90, 165, 165, 90, 2, 3.26343
80, 2, wb, attraction, a-b-da, 14, 3, 5, 7, 181, 111, 120, 195, 195, 120, 1, 1.20955
80, 2, wb, attraction, a-b-da, 14, 3, 5, 7, 181, 111, 120, 195, 195, 120, 2, 0.487756
80, 2, wb, attraction, a-b-da, 9, 3, 5, 8, 195, 120, 186, 114, 120, 195, 3, 1.09827
80, 2, wb, attraction, a-b-da, 9, 3, 5, 8, 195, 120, 186, 114, 120, 195, 2, 3.98917
80, 2, wb, catch, NA, 999, 999, 5, 9, 65, 130, 121, 134, 136, 179, 1, 1.24255
80, 2, wb, catch, NA, 999, 999, 5, 9, 65, 130, 121, 134, 136, 179, 3, 0.303461
80, 2, wb, attraction, a-b-db, 5, 2, 5, 10, 165, 90, 90, 165, 88, 161, 3, 19.7934
80, 2, wb, attraction, a-b-db, 5, 2, 5, 10, 165, 90, 90, 165, 88, 161, 1, 0.707117
80, 2, wb, filler, NA, 999, 999, 5, 11, 62, 92, 152, 184, 117, 110, 1, 0.996109
80, 2, wb, filler, NA, 999, 999, 5, 11, 62, 92, 152, 184, 117, 110, 2, 0.427264
80, 2, wb, filler, NA, 999, 999, 5, 12, 102, 165, 106, 111, 59, 125, 3, 1.07995
80, 2, wb, filler, NA, 999, 999, 5, 12, 102, 165, 106, 111, 59, 125, 1, 0.379193
80, 2, wb, attraction, a-b-db, 14, 3, 5, 13, 120, 195, 111, 181, 195, 120, 2, 9.20176
80, 2, wb, attraction, a-b-db, 14, 3, 5, 13, 120, 195, 111, 181, 195, 120, 3, 1.47838
80, 2, wb, catch, NA, 999, 999, 5, 14, 132, 123, 82, 113, 182, 133, 2, 0.576313
80, 2, wb, catch, NA, 999, 999, 5, 14, 132, 123, 82, 113, 182, 133, 3, 0.328147
80, 2, wb, filler, NA, 999, 999, 5, 15, 96, 181, 181, 94, 137, 149, 1, 35.8726
80, 2, wb, filler, NA, 999, 999, 5, 15, 96, 181, 181, 94, 137, 149, 3, 0.370028
80, 2, wb, attraction, a-b-da, 9, 2, 5, 16, 165, 90, 90, 165, 157, 86, 3, 11.1293
80, 2, wb, attraction, a-b-da, 9, 2, 5, 16, 165, 90, 90, 165, 157, 86, 2, 0.375839
80, 2, wb, attraction, a-b-da, 2, 2, 5, 17, 163, 89, 90, 165, 165, 90, 1, 7.06223
80, 2, wb, attraction, a-b-da, 2, 2, 5, 17, 163, 89, 90, 165, 165, 90, 3, 0.448695
80, 2, wb, attraction, a-b-da, 5, 2, 5, 18, 165, 90, 90, 165, 161, 88, 3, 2.94854
80, 2, wb, attraction, a-b-da, 5, 2, 5, 18, 165, 90, 90, 165, 161, 88, 2, 3.97289
80, 2, wb, filler, NA, 999, 999, 5, 19, 164, 170, 136, 128, 104, 119, 3, 0.890857
80, 2, wb, filler, NA, 999, 999, 5, 19, 164, 170, 136, 128, 104, 119, 1, 0.373925
80, 2, wb, attraction, a-b-da, 5, 3, 5, 20, 190, 117, 195, 120, 120, 195, 2, 12.3244
80, 2, wb, attraction, a-b-da, 5, 3, 5, 20, 190, 117, 195, 120, 120, 195, 3, 0.331163
80, 2, wb, attraction, a-b-da, 14, 1, 5, 21, 135, 60, 125, 56, 60, 135, 3, 1.74773
80, 2, wb, attraction, a-b-da, 14, 1, 5, 21, 135, 60, 125, 56, 60, 135, 1, 1.76439
80, 2, wb, filler, NA, 999, 999, 5, 22, 164, 185, 184, 63, 180, 177, 2, 1.30723
80, 2, wb, filler, NA, 999, 999, 5, 22, 164, 185, 184, 63, 180, 177, 3, 1.2216
80, 2, wb, attraction, a-b-db, 2, 3, 5, 23, 195, 120, 119, 193, 120, 195, 3, 5.45034
80, 2, wb, attraction, a-b-db, 2, 3, 5, 23, 195, 120, 119, 193, 120, 195, 1, 0.437857
80, 2, wb, attraction, a-b-db, 2, 2, 5, 24, 165, 90, 89, 163, 90, 165, 2, 7.69043
80, 2, wb, attraction, a-b-db, 2, 2, 5, 24, 165, 90, 89, 163, 90, 165, 1, 0.491259
80, 2, wb, attraction, a-b-db, 14, 2, 5, 25, 90, 165, 83, 153, 165, 90, 2, 1.77309
80, 2, wb, attraction, a-b-db, 14, 2, 5, 25, 90, 165, 83, 153, 165, 90, 1, 0.628465
80, 2, wb, attraction, a-b-db, 5, 1, 5, 26, 60, 135, 58, 132, 135, 60, 2, 9.24884
80, 2, wb, attraction, a-b-db, 5, 1, 5, 26, 60, 135, 58, 132, 135, 60, 3, 0.651274
80, 2, wb, attraction, a-b-db, 9, 1, 5, 27, 135, 60, 60, 135, 57, 129, 3, 2.59113
80, 2, wb, attraction, a-b-db, 9, 1, 5, 27, 135, 60, 60, 135, 57, 129, 1, 1.26958
80, 2, wb, attraction, a-b-db, 14, 1, 5, 28, 135, 60, 60, 135, 56, 125, 3, 1.15241
80, 2, wb, attraction, a-b-db, 14, 1, 5, 28, 135, 60, 60, 135, 56, 125, 1, 0.609479
80, 2, wb, attraction, a-b-da, 2, 3, 5, 29, 120, 195, 193, 119, 195, 120, 2, 55.5264
80, 2, wb, attraction, a-b-da, 2, 3, 5, 29, 120, 195, 193, 119, 195, 120, 1, 0.327687
80, 2, wb, attraction, a-b-da, 9, 1, 5, 30, 135, 60, 129, 57, 60, 135, 2, 1.73618
80, 2, wb, attraction, a-b-da, 9, 1, 5, 30, 135, 60, 129, 57, 60, 135, 1, 0.601708
80, 2, wb, filler, NA, 999, 999, 5, 31, 56, 122, 138, 165, 174, 184, 1, 0.807428
80, 2, wb, filler, NA, 999, 999, 5, 31, 56, 122, 138, 165, 174, 184, 3, 0.309866
80, 2, wb, attraction, a-b-da, 14, 2, 5, 32, 90, 165, 153, 83, 165, 90, 2, 4.6711
80, 2, wb, attraction, a-b-da, 14, 2, 5, 32, 90, 165, 153, 83, 165, 90, 1, 1.4415
80, 2, wb, attraction, a-b-db, 2, 1, 5, 33, 60, 135, 59, 134, 135, 60, 1, 12.965
80, 2, wb, attraction, a-b-db, 2, 1, 5, 33, 60, 135, 59, 134, 135, 60, 3, 0.633592
80, 2, wb, filler, NA, 999, 999, 5, 34, 71, 67, 137, 128, 136, 133, 1, 4.24605
80, 2, wb, filler, NA, 999, 999, 5, 34, 71, 67, 137, 128, 136, 133, 3, 0.449904
80, 2, wb, filler, NA, 999, 999, 5, 35, 189, 167, 149, 106, 85, 117, 3, 1.36578
80, 2, wb, filler, NA, 999, 999, 5, 35, 189, 167, 149, 106, 85, 117, 1, 0.333948
80, 2, wb, attraction, a-b-db, 5, 3, 5, 36, 117, 190, 195, 120, 120, 195, 1, 8.10259
80, 2, wb, attraction, a-b-db, 5, 3, 5, 36, 117, 190, 195, 120, 120, 195, 3, 1.06322
80, 2, wb, filler, NA, 999, 999, 5, 37, 94, 75, 111, 111, 119, 192, 1, 0.618128
80, 2, wb, filler, NA, 999, 999, 5, 37, 94, 75, 111, 111, 119, 192, 3, 0.296715
80, 2, wb, filler, NA, 999, 999, 6, 1, 164, 103, 103, 150, 130, 150, 2, 4.25055
80, 2, wb, filler, NA, 999, 999, 6, 1, 164, 103, 103, 150, 130, 150, 3, 0.326437
80, 2, wb, attraction, a-b-db, 9, 1, 6, 2, 60, 135, 57, 129, 135, 60, 2, 3.58303
80, 2, wb, attraction, a-b-db, 9, 1, 6, 2, 60, 135, 57, 129, 135, 60, 1, 4.07785
80, 2, wb, attraction, a-b-db, 5, 3, 6, 3, 120, 195, 117, 190, 195, 120, 2, 11.1432
80, 2, wb, attraction, a-b-db, 5, 3, 6, 3, 120, 195, 117, 190, 195, 120, 1, 0.860913
80, 2, wb, attraction, a-b-db, 5, 1, 6, 4, 58, 132, 60, 135, 135, 60, 2, 8.92007
80, 2, wb, attraction, a-b-db, 5, 1, 6, 4, 58, 132, 60, 135, 135, 60, 3, 0.375935
80, 2, wb, filler, NA, 999, 999, 6, 5, 67, 92, 180, 123, 82, 91, 1, 0.598431
80, 2, wb, filler, NA, 999, 999, 6, 5, 67, 92, 180, 123, 82, 91, 2, 0.49341
80, 2, wb, attraction, a-b-db, 9, 2, 6, 6, 90, 165, 165, 90, 86, 157, 3, 1.74326
80, 2, wb, attraction, a-b-db, 9, 2, 6, 6, 90, 165, 165, 90, 86, 157, 1, 6.70413
80, 2, wb, attraction, a-b-db, 14, 1, 6, 7, 135, 60, 60, 135, 56, 125, 3, 0.904029
80, 2, wb, attraction, a-b-db, 14, 1, 6, 7, 135, 60, 60, 135, 56, 125, 2, 0.914219
80, 2, wb, attraction, a-b-da, 14, 1, 6, 8, 125, 56, 60, 135, 135, 60, 1, 1.56325
80, 2, wb, attraction, a-b-da, 14, 1, 6, 8, 125, 56, 60, 135, 135, 60, 3, 0.403299
80, 2, wb, attraction, a-b-da, 9, 2, 6, 9, 165, 90, 157, 86, 90, 165, 2, 14.1291
80, 2, wb, attraction, a-b-da, 9, 2, 6, 9, 165, 90, 157, 86, 90, 165, 3, 1.62288
80, 2, wb, attraction, a-b-da, 2, 3, 6, 10, 120, 195, 195, 120, 193, 119, 3, 13.1069
80, 2, wb, attraction, a-b-da, 2, 3, 6, 10, 120, 195, 195, 120, 193, 119, 1, 0.31404
80, 2, wb, filler, NA, 999, 999, 6, 11, 118, 171, 189, 150, 173, 109, 3, 2.64336
80, 2, wb, filler, NA, 999, 999, 6, 11, 118, 171, 189, 150, 173, 109, 2, 0.303615
80, 2, wb, attraction, a-b-da, 9, 3, 6, 12, 186, 114, 120, 195, 195, 120, 1, 5.29763
80, 2, wb, attraction, a-b-da, 9, 3, 6, 12, 186, 114, 120, 195, 195, 120, 2, 0.323158
80, 2, wb, attraction, a-b-db, 2, 2, 6, 13, 89, 163, 165, 90, 90, 165, 1, 6.0837
80, 2, wb, attraction, a-b-db, 2, 2, 6, 13, 89, 163, 165, 90, 90, 165, 3, 1.24596
80, 2, wb, attraction, a-b-da, 14, 3, 6, 14, 195, 120, 181, 111, 120, 195, 2, 2.00142
80, 2, wb, attraction, a-b-da, 14, 3, 6, 14, 195, 120, 181, 111, 120, 195, 1, 0.792051
80, 2, wb, attraction, a-b-da, 5, 3, 6, 15, 120, 195, 195, 120, 190, 117, 3, 18.9419
80, 2, wb, attraction, a-b-da, 5, 3, 6, 15, 120, 195, 195, 120, 190, 117, 1, 0.633863
80, 2, wb, attraction, a-b-da, 9, 1, 6, 16, 135, 60, 60, 135, 129, 57, 3, 5.37411
80, 2, wb, attraction, a-b-da, 9, 1, 6, 16, 135, 60, 60, 135, 129, 57, 1, 0.700474
80, 2, wb, catch, NA, 999, 999, 6, 17, 113, 82, 150, 165, 128, 127, 1, 2.00619
80, 2, wb, catch, NA, 999, 999, 6, 17, 113, 82, 150, 165, 128, 127, 2, 0.540212
80, 2, wb, filler, NA, 999, 999, 6, 18, 81, 72, 176, 104, 110, 107, 1, 0.723925
80, 2, wb, filler, NA, 999, 999, 6, 18, 81, 72, 176, 104, 110, 107, 2, 0.285645
80, 2, wb, attraction, a-b-db, 14, 3, 6, 19, 195, 120, 120, 195, 111, 181, 3, 1.36823
80, 2, wb, attraction, a-b-db, 14, 3, 6, 19, 195, 120, 120, 195, 111, 181, 1, 0.568608
80, 2, wb, filler, NA, 999, 999, 6, 20, 132, 91, 65, 182, 114, 81, 3, 1.35956
80, 2, wb, filler, NA, 999, 999, 6, 20, 132, 91, 65, 182, 114, 81, 2, 1.59979
80, 2, wb, attraction, a-b-da, 14, 2, 6, 21, 153, 83, 90, 165, 165, 90, 1, 3.98135
80, 2, wb, attraction, a-b-da, 14, 2, 6, 21, 153, 83, 90, 165, 165, 90, 3, 0.515956
80, 2, wb, filler, NA, 999, 999, 6, 22, 148, 88, 92, 111, 131, 100, 2, 0.90908
80, 2, wb, filler, NA, 999, 999, 6, 22, 148, 88, 92, 111, 131, 100, 1, 4.61559
80, 2, wb, attraction, a-b-da, 2, 2, 6, 23, 163, 89, 165, 90, 90, 165, 1, 9.9632
80, 2, wb, attraction, a-b-da, 2, 2, 6, 23, 163, 89, 165, 90, 90, 165, 3, 0.312904
80, 2, wb, attraction, a-b-da, 5, 1, 6, 24, 60, 135, 132, 58, 135, 60, 2, 26.2021
80, 2, wb, attraction, a-b-da, 5, 1, 6, 24, 60, 135, 132, 58, 135, 60, 1, 1.86501
80, 2, wb, attraction, a-b-da, 2, 1, 6, 25, 134, 59, 60, 135, 135, 60, 2, 1.4438
80, 2, wb, attraction, a-b-da, 2, 1, 6, 25, 134, 59, 60, 135, 135, 60, 1, 0.576566
80, 2, wb, catch, NA, 999, 999, 6, 26, 134, 121, 121, 74, 192, 123, 2, 0.807074
80, 2, wb, catch, NA, 999, 999, 6, 26, 134, 121, 121, 74, 192, 123, 3, 0.261461
80, 2, wb, attraction, a-b-db, 5, 2, 6, 27, 165, 90, 88, 161, 90, 165, 3, 0.600582
80, 2, wb, attraction, a-b-db, 5, 2, 6, 27, 165, 90, 88, 161, 90, 165, 1, 0.647703
80, 2, wb, filler, NA, 999, 999, 6, 28, 181, 162, 157, 127, 88, 89, 3, 0.563433
80, 2, wb, filler, NA, 999, 999, 6, 28, 181, 162, 157, 127, 88, 89, 1, 0.348646
80, 2, wb, attraction, a-b-da, 5, 2, 6, 29, 165, 90, 161, 88, 90, 165, 1, 8.03574
80, 2, wb, attraction, a-b-da, 5, 2, 6, 29, 165, 90, 161, 88, 90, 165, 3, 0.327225
80, 2, wb, attraction, a-b-db, 2, 1, 6, 30, 135, 60, 60, 135, 59, 134, 3, 1.3997
80, 2, wb, attraction, a-b-db, 2, 1, 6, 30, 135, 60, 60, 135, 59, 134, 1, 1.11058
80, 2, wb, attraction, a-b-db, 2, 3, 6, 31, 119, 193, 195, 120, 120, 195, 3, 2.99967
80, 2, wb, attraction, a-b-db, 2, 3, 6, 31, 119, 193, 195, 120, 120, 195, 2, 2.34206
80, 2, wb, filler, NA, 999, 999, 6, 32, 96, 172, 125, 193, 178, 67, 1, 1.38907
80, 2, wb, filler, NA, 999, 999, 6, 32, 96, 172, 125, 193, 178, 67, 2, 0.572013
80, 2, wb, filler, NA, 999, 999, 6, 33, 127, 131, 109, 138, 177, 74, 2, 13.2191
80, 2, wb, filler, NA, 999, 999, 6, 33, 127, 131, 109, 138, 177, 74, 1, 1.47758
80, 2, wb, attraction, a-b-db, 14, 2, 6, 34, 83, 153, 90, 165, 165, 90, 1, 1.6798
80, 2, wb, attraction, a-b-db, 14, 2, 6, 34, 83, 153, 90, 165, 165, 90, 2, 2.20325
80, 2, wb, filler, NA, 999, 999, 6, 35, 73, 115, 115, 90, 65, 150, 1, 3.2485
80, 2, wb, filler, NA, 999, 999, 6, 35, 73, 115, 115, 90, 65, 150, 2, 0.396744
80, 2, wb, attraction, a-b-db, 9, 3, 6, 36, 120, 195, 195, 120, 114, 186, 3, 5.13067
80, 2, wb, attraction, a-b-db, 9, 3, 6, 36, 120, 195, 195, 120, 114, 186, 2, 3.90694
80, 2, wb, catch, NA, 999, 999, 6, 37, 91, 104, 168, 147, 147, 108, 1, 0.771673
80, 2, wb, catch, NA, 999, 999, 6, 37, 91, 104, 168, 147, 147, 108, 2, 0.299367
80, 2, wb, attraction, a-b-da, 5, 1, 7, 1, 132, 58, 60, 135, 135, 60, 3, 17.8132
80, 2, wb, attraction, a-b-da, 5, 1, 7, 1, 132, 58, 60, 135, 135, 60, 1, 0.54231
80, 2, wb, attraction, a-b-db, 5, 1, 7, 2, 135, 60, 58, 132, 60, 135, 2, 3.75805
80, 2, wb, attraction, a-b-db, 5, 1, 7, 2, 135, 60, 58, 132, 60, 135, 1, 0.605533
80, 2, wb, filler, NA, 999, 999, 7, 3, 176, 147, 155, 192, 140, 111, 3, 0.67533
80, 2, wb, filler, NA, 999, 999, 7, 3, 176, 147, 155, 192, 140, 111, 2, 0.807093
80, 2, wb, attraction, a-b-da, 2, 1, 7, 4, 134, 59, 135, 60, 60, 135, 3, 1.84406
80, 2, wb, attraction, a-b-da, 2, 1, 7, 4, 134, 59, 135, 60, 60, 135, 1, 0.488864
80, 2, wb, attraction, a-b-db, 9, 1, 7, 5, 60, 135, 135, 60, 57, 129, 3, 1.16326
80, 2, wb, attraction, a-b-db, 9, 1, 7, 5, 60, 135, 135, 60, 57, 129, 1, 0.55557
80, 2, wb, catch, NA, 999, 999, 7, 6, 94, 161, 159, 156, 104, 91, 3, 0.827353
80, 2, wb, catch, NA, 999, 999, 7, 6, 94, 161, 159, 156, 104, 91, 2, 0.329038
80, 2, wb, filler, NA, 999, 999, 7, 7, 159, 174, 194, 72, 110, 124, 3, 1.31355
80, 2, wb, filler, NA, 999, 999, 7, 7, 159, 174, 194, 72, 110, 124, 1, 0.395775
80, 2, wb, attraction, a-b-db, 14, 1, 7, 8, 135, 60, 56, 125, 60, 135, 2, 4.5616
80, 2, wb, attraction, a-b-db, 14, 1, 7, 8, 135, 60, 56, 125, 60, 135, 3, 0.680789
80, 2, wb, attraction, a-b-da, 14, 3, 7, 9, 195, 120, 120, 195, 181, 111, 3, 1.61124
80, 2, wb, attraction, a-b-da, 14, 3, 7, 9, 195, 120, 120, 195, 181, 111, 1, 3.03328
80, 2, wb, attraction, a-b-db, 14, 3, 7, 10, 120, 195, 195, 120, 111, 181, 3, 1.77292
80, 2, wb, attraction, a-b-db, 14, 3, 7, 10, 120, 195, 195, 120, 111, 181, 2, 1.5725
80, 2, wb, catch, NA, 999, 999, 7, 11, 114, 141, 78, 117, 156, 159, 2, 0.843149
80, 2, wb, catch, NA, 999, 999, 7, 11, 114, 141, 78, 117, 156, 159, 3, 0.320271
80, 2, wb, attraction, a-b-db, 2, 3, 7, 12, 195, 120, 120, 195, 119, 193, 1, 3.16937
80, 2, wb, attraction, a-b-db, 2, 3, 7, 12, 195, 120, 120, 195, 119, 193, 2, 0.5771
80, 2, wb, filler, NA, 999, 999, 7, 13, 160, 93, 141, 97, 102, 105, 3, 2.67147
80, 2, wb, filler, NA, 999, 999, 7, 13, 160, 93, 141, 97, 102, 105, 1, 0.682637
80, 2, wb, attraction, a-b-da, 5, 3, 7, 14, 120, 195, 190, 117, 195, 120, 2, 33.861
80, 2, wb, attraction, a-b-da, 5, 3, 7, 14, 120, 195, 190, 117, 195, 120, 3, 5.46384
80, 2, wb, attraction, a-b-da, 9, 1, 7, 15, 129, 57, 135, 60, 60, 135, 1, 2.08132
80, 2, wb, attraction, a-b-da, 9, 1, 7, 15, 129, 57, 135, 60, 60, 135, 2, 0.420571
80, 2, wb, attraction, a-b-da, 5, 2, 7, 16, 161, 88, 90, 165, 165, 90, 1, 6.48971
80, 2, wb, attraction, a-b-da, 5, 2, 7, 16, 161, 88, 90, 165, 165, 90, 2, 1.38706
80, 2, wb, attraction, a-b-da, 14, 2, 7, 17, 153, 83, 90, 165, 165, 90, 1, 1.99324
80, 2, wb, attraction, a-b-da, 14, 2, 7, 17, 153, 83, 90, 165, 165, 90, 2, 0.359903
80, 2, wb, attraction, a-b-db, 2, 2, 7, 18, 89, 163, 165, 90, 90, 165, 1, 28.2471
80, 2, wb, attraction, a-b-db, 2, 2, 7, 18, 89, 163, 165, 90, 90, 165, 3, 0.403562
80, 2, wb, filler, NA, 999, 999, 7, 19, 67, 148, 181, 80, 78, 115, 3, 1.00134
80, 2, wb, filler, NA, 999, 999, 7, 19, 67, 148, 181, 80, 78, 115, 1, 0.568622
80, 2, wb, attraction, a-b-db, 14, 2, 7, 20, 90, 165, 165, 90, 83, 153, 3, 1.87956
80, 2, wb, attraction, a-b-db, 14, 2, 7, 20, 90, 165, 165, 90, 83, 153, 1, 0.602805
80, 2, wb, attraction, a-b-db, 9, 2, 7, 21, 86, 157, 90, 165, 165, 90, 1, 2.20859
80, 2, wb, attraction, a-b-db, 9, 2, 7, 21, 86, 157, 90, 165, 165, 90, 3, 2.84655
80, 2, wb, attraction, a-b-da, 2, 2, 7, 22, 165, 90, 90, 165, 163, 89, 3, 1.15363
80, 2, wb, attraction, a-b-da, 2, 2, 7, 22, 165, 90, 90, 165, 163, 89, 2, 2.33062
80, 2, wb, attraction, a-b-db, 2, 1, 7, 23, 135, 60, 59, 134, 60, 135, 2, 9.37042
80, 2, wb, attraction, a-b-db, 2, 1, 7, 23, 135, 60, 59, 134, 60, 135, 3, 1.63214
80, 2, wb, attraction, a-b-da, 2, 3, 7, 24, 120, 195, 195, 120, 193, 119, 3, 9.4283
80, 2, wb, attraction, a-b-da, 2, 3, 7, 24, 120, 195, 195, 120, 193, 119, 1, 0.815363
80, 2, wb, catch, NA, 999, 999, 7, 25, 79, 116, 159, 96, 154, 161, 1, 1.06827
80, 2, wb, catch, NA, 999, 999, 7, 25, 79, 116, 159, 96, 154, 161, 3, 0.664553
80, 2, wb, attraction, a-b-da, 9, 3, 7, 26, 120, 195, 195, 120, 186, 114, 3, 1.47565
80, 2, wb, attraction, a-b-da, 9, 3, 7, 26, 120, 195, 195, 120, 186, 114, 1, 0.383259
80, 2, wb, filler, NA, 999, 999, 7, 27, 102, 162, 72, 142, 177, 79, 2, 0.853693
80, 2, wb, filler, NA, 999, 999, 7, 27, 102, 162, 72, 142, 177, 79, 1, 0.410022
80, 2, wb, filler, NA, 999, 999, 7, 28, 103, 79, 186, 148, 154, 115, 1, 0.767218
80, 2, wb, filler, NA, 999, 999, 7, 28, 103, 79, 186, 148, 154, 115, 2, 0.319756
80, 2, wb, attraction, a-b-db, 9, 3, 7, 29, 114, 186, 120, 195, 195, 120, 1, 1.43273
80, 2, wb, attraction, a-b-db, 9, 3, 7, 29, 114, 186, 120, 195, 195, 120, 2, 0.486256
80, 2, wb, filler, NA, 999, 999, 7, 30, 180, 127, 166, 147, 190, 92, 3, 3.74476
80, 2, wb, filler, NA, 999, 999, 7, 30, 180, 127, 166, 147, 190, 92, 2, 0.400817
80, 2, wb, attraction, a-b-da, 9, 2, 7, 31, 157, 86, 165, 90, 90, 165, 1, 7.43082
80, 2, wb, attraction, a-b-da, 9, 2, 7, 31, 157, 86, 165, 90, 90, 165, 3, 1.21039
80, 2, wb, attraction, a-b-db, 5, 2, 7, 32, 165, 90, 88, 161, 90, 165, 1, 3.49523
80, 2, wb, attraction, a-b-db, 5, 2, 7, 32, 165, 90, 88, 161, 90, 165, 3, 2.84161
80, 2, wb, attraction, a-b-da, 14, 1, 7, 33, 135, 60, 60, 135, 125, 56, 3, 11.5965
80, 2, wb, attraction, a-b-da, 14, 1, 7, 33, 135, 60, 60, 135, 125, 56, 1, 0.81621
80, 2, wb, filler, NA, 999, 999, 7, 34, 118, 150, 97, 109, 181, 110, 2, 1.04529
80, 2, wb, filler, NA, 999, 999, 7, 34, 118, 150, 97, 109, 181, 110, 3, 1.3062
80, 2, wb, filler, NA, 999, 999, 7, 35, 64, 153, 125, 122, 150, 93, 1, 4.22784
80, 2, wb, filler, NA, 999, 999, 7, 35, 64, 153, 125, 122, 150, 93, 3, 1.59251
80, 2, wb, attraction, a-b-db, 5, 3, 7, 36, 117, 190, 195, 120, 120, 195, 1, 3.34189
80, 2, wb, attraction, a-b-db, 5, 3, 7, 36, 117, 190, 195, 120, 120, 195, 3, 0.55005
80, 2, wb, filler, NA, 999, 999, 7, 37, 138, 72, 60, 88, 184, 111, 2, 1.25376
80, 2, wb, filler, NA, 999, 999, 7, 37, 138, 72, 60, 88, 184, 111, 3, 0.290772
80, 2, wb, attraction, a-b-db, 9, 2, 8, 1, 90, 165, 86, 157, 165, 90, 2, 5.85259
80, 2, wb, attraction, a-b-db, 9, 2, 8, 1, 90, 165, 86, 157, 165, 90, 1, 0.968211
80, 2, wb, filler, NA, 999, 999, 8, 2, 83, 154, 118, 184, 145, 59, 3, 0.871085
80, 2, wb, filler, NA, 999, 999, 8, 2, 83, 154, 118, 184, 145, 59, 2, 0.242851
80, 2, wb, attraction, a-b-da, 5, 1, 8, 3, 60, 135, 135, 60, 132, 58, 3, 6.94268
80, 2, wb, attraction, a-b-da, 5, 1, 8, 3, 60, 135, 135, 60, 132, 58, 1, 0.421778
80, 2, wb, attraction, a-b-da, 2, 3, 8, 4, 193, 119, 195, 120, 120, 195, 1, 9.49102
80, 2, wb, attraction, a-b-da, 2, 3, 8, 4, 193, 119, 195, 120, 120, 195, 3, 1.89929
80, 2, wb, attraction, a-b-da, 5, 3, 8, 5, 120, 195, 195, 120, 190, 117, 3, 21.6047
80, 2, wb, attraction, a-b-da, 5, 3, 8, 5, 120, 195, 195, 120, 190, 117, 1, 0.453153
80, 2, wb, attraction, a-b-db, 5, 3, 8, 6, 117, 190, 120, 195, 195, 120, 3, 5.00104
80, 2, wb, attraction, a-b-db, 5, 3, 8, 6, 117, 190, 120, 195, 195, 120, 2, 0.542716
80, 2, wb, catch, NA, 999, 999, 8, 7, 137, 118, 75, 120, 163, 152, 2, 0.694405
80, 2, wb, catch, NA, 999, 999, 8, 7, 137, 118, 75, 120, 163, 152, 3, 0.385506
80, 2, wb, catch, NA, 999, 999, 8, 8, 171, 144, 110, 85, 112, 143, 2, 0.968017
80, 2, wb, catch, NA, 999, 999, 8, 8, 171, 144, 110, 85, 112, 143, 1, 0.296359
80, 2, wb, attraction, a-b-db, 14, 3, 8, 9, 195, 120, 120, 195, 111, 181, 3, 0.658303
80, 2, wb, attraction, a-b-db, 14, 3, 8, 9, 195, 120, 120, 195, 111, 181, 2, 1.53475
80, 2, wb, attraction, a-b-da, 2, 1, 8, 10, 134, 59, 60, 135, 135, 60, 3, 5.29485
80, 2, wb, attraction, a-b-da, 2, 1, 8, 10, 134, 59, 60, 135, 135, 60, 2, 0.792484
80, 2, wb, attraction, a-b-da, 14, 2, 8, 11, 90, 165, 165, 90, 153, 83, 3, 1.64618
80, 2, wb, attraction, a-b-da, 14, 2, 8, 11, 90, 165, 165, 90, 153, 83, 2, 0.354877
80, 2, wb, filler, NA, 999, 999, 8, 12, 100, 158, 132, 135, 109, 70, 3, 0.722813
80, 2, wb, filler, NA, 999, 999, 8, 12, 100, 158, 132, 135, 109, 70, 2, 0.564434
80, 2, wb, filler, NA, 999, 999, 8, 13, 111, 82, 157, 111, 189, 120, 1, 0.883629
80, 2, wb, filler, NA, 999, 999, 8, 13, 111, 82, 157, 111, 189, 120, 3, 0.43948
80, 2, wb, attraction, a-b-db, 2, 3, 8, 14, 195, 120, 120, 195, 119, 193, 3, 0.907119
80, 2, wb, attraction, a-b-db, 2, 3, 8, 14, 195, 120, 120, 195, 119, 193, 1, 0.421579
80, 2, wb, attraction, a-b-db, 9, 3, 8, 15, 114, 186, 120, 195, 195, 120, 1, 7.80261
80, 2, wb, attraction, a-b-db, 9, 3, 8, 15, 114, 186, 120, 195, 195, 120, 2, 1.59158
80, 2, wb, attraction, a-b-db, 2, 1, 8, 16, 59, 134, 135, 60, 60, 135, 3, 3.05297
80, 2, wb, attraction, a-b-db, 2, 1, 8, 16, 59, 134, 135, 60, 60, 135, 2, 2.03336
80, 2, wb, filler, NA, 999, 999, 8, 17, 81, 88, 84, 157, 125, 194, 1, 1.90124
80, 2, wb, filler, NA, 999, 999, 8, 17, 81, 88, 84, 157, 125, 194, 3, 0.375949
80, 2, wb, filler, NA, 999, 999, 8, 18, 150, 155, 150, 163, 133, 68, 3, 3.99055
80, 2, wb, filler, NA, 999, 999, 8, 18, 150, 155, 150, 163, 133, 68, 2, 2.21252
80, 2, wb, attraction, a-b-da, 9, 2, 8, 19, 165, 90, 157, 86, 90, 165, 2, 5.12105
80, 2, wb, attraction, a-b-da, 9, 2, 8, 19, 165, 90, 157, 86, 90, 165, 3, 0.250128
80, 2, wb, attraction, a-b-db, 14, 2, 8, 20, 90, 165, 83, 153, 165, 90, 2, 1.62229
80, 2, wb, attraction, a-b-db, 14, 2, 8, 20, 90, 165, 83, 153, 165, 90, 1, 0.987443
80, 2, wb, attraction, a-b-db, 9, 1, 8, 21, 135, 60, 60, 135, 57, 129, 3, 2.68983
80, 2, wb, attraction, a-b-db, 9, 1, 8, 21, 135, 60, 60, 135, 57, 129, 2, 0.348349
80, 2, wb, filler, NA, 999, 999, 8, 22, 127, 174, 160, 149, 108, 182, 3, 1.2682
80, 2, wb, filler, NA, 999, 999, 8, 22, 127, 174, 160, 149, 108, 182, 1, 1.33638
80, 2, wb, attraction, a-b-db, 5, 2, 8, 23, 88, 161, 165, 90, 90, 165, 1, 3.18447
80, 2, wb, attraction, a-b-db, 5, 2, 8, 23, 88, 161, 165, 90, 90, 165, 3, 0.599481
80, 2, wb, filler, NA, 999, 999, 8, 24, 180, 127, 146, 59, 172, 168, 2, 1.12523
80, 2, wb, filler, NA, 999, 999, 8, 24, 180, 127, 146, 59, 172, 168, 3, 0.278878
80, 2, wb, attraction, a-b-da, 5, 2, 8, 25, 90, 165, 161, 88, 165, 90, 3, 17.2494
80, 2, wb, attraction, a-b-da, 5, 2, 8, 25, 90, 165, 161, 88, 165, 90, 1, 0.433293
80, 2, wb, attraction, a-b-db, 5, 1, 8, 26, 58, 132, 135, 60, 60, 135, 1, 3.73377
80, 2, wb, attraction, a-b-db, 5, 1, 8, 26, 58, 132, 135, 60, 60, 135, 2, 0.31854
80, 2, wb, filler, NA, 999, 999, 8, 27, 70, 100, 124, 137, 105, 100, 1, 0.647671
80, 2, wb, filler, NA, 999, 999, 8, 27, 70, 100, 124, 137, 105, 100, 2, 0.252833
80, 2, wb, catch, NA, 999, 999, 8, 28, 162, 153, 87, 108, 156, 99, 2, 0.61676
80, 2, wb, catch, NA, 999, 999, 8, 28, 162, 153, 87, 108, 156, 99, 1, 0.335271
80, 2, wb, attraction, a-b-da, 9, 1, 8, 29, 60, 135, 135, 60, 129, 57, 2, 3.87164
80, 2, wb, attraction, a-b-da, 9, 1, 8, 29, 60, 135, 135, 60, 129, 57, 1, 0.754406
80, 2, wb, filler, NA, 999, 999, 8, 30, 161, 183, 110, 134, 79, 89, 3, 0.658192
80, 2, wb, filler, NA, 999, 999, 8, 30, 161, 183, 110, 134, 79, 89, 1, 0.342532
80, 2, wb, attraction, a-b-da, 14, 3, 8, 31, 120, 195, 195, 120, 181, 111, 3, 4.30242
80, 2, wb, attraction, a-b-da, 14, 3, 8, 31, 120, 195, 195, 120, 181, 111, 1, 0.536418
80, 2, wb, attraction, a-b-db, 14, 1, 8, 32, 135, 60, 56, 125, 60, 135, 2, 2.76881
80, 2, wb, attraction, a-b-db, 14, 1, 8, 32, 135, 60, 56, 125, 60, 135, 1, 7.12067
80, 2, wb, attraction, a-b-da, 2, 2, 8, 33, 90, 165, 163, 89, 165, 90, 3, 12.4477
80, 2, wb, attraction, a-b-da, 2, 2, 8, 33, 90, 165, 163, 89, 165, 90, 1, 0.329093
80, 2, wb, attraction, a-b-db, 2, 2, 8, 34, 89, 163, 90, 165, 165, 90, 1, 6.2097
80, 2, wb, attraction, a-b-db, 2, 2, 8, 34, 89, 163, 90, 165, 165, 90, 3, 0.678455
80, 2, wb, attraction, a-b-da, 9, 3, 8, 35, 195, 120, 120, 195, 186, 114, 3, 1.2327
80, 2, wb, attraction, a-b-da, 9, 3, 8, 35, 195, 120, 120, 195, 186, 114, 2, 1.90243
80, 2, wb, filler, NA, 999, 999, 8, 36, 192, 108, 178, 118, 192, 80, 3, 1.01563
80, 2, wb, filler, NA, 999, 999, 8, 36, 192, 108, 178, 118, 192, 80, 2, 0.533951
80, 2, wb, attraction, a-b-da, 14, 1, 8, 37, 125, 56, 60, 135, 135, 60, 1, 2.6145
80, 2, wb, attraction, a-b-da, 14, 1, 8, 37, 125, 56, 60, 135, 135, 60, 2, 2.90818
