sub_n, computer_n, bw_cond, effect, set, distance, diag, block_n, trial_n, h1, w1, h2, w2, h3, w3, choice, rt 
90, 2, wb, practice, NA, 999, 999, 0, 1, 177, 172, 107, 151, 118, 81, 3, 2.96493
90, 2, wb, practice, NA, 999, 999, 0, 1, 177, 172, 107, 151, 118, 81, 1, 1.92443
90, 2, wb, practice, NA, 999, 999, 0, 2, 137, 75, 195, 190, 133, 139, 1, 2.00271
90, 2, wb, practice, NA, 999, 999, 0, 2, 137, 75, 195, 190, 133, 139, 2, 1.76939
90, 2, wb, practice, NA, 999, 999, 0, 3, 162, 134, 132, 159, 158, 182, 1, 5.86865
90, 2, wb, practice, NA, 999, 999, 0, 3, 162, 134, 132, 159, 158, 182, 3, 1.21409
90, 2, wb, attraction, a-b-da, 2, 2, 1, 1, 165, 90, 90, 165, 163, 89, 1, 6.7147
90, 2, wb, attraction, a-b-da, 2, 2, 1, 1, 165, 90, 90, 165, 163, 89, 2, 2.65913
90, 2, wb, attraction, a-b-db, 14, 2, 1, 2, 90, 165, 83, 153, 165, 90, 2, 4.65368
90, 2, wb, attraction, a-b-db, 14, 2, 1, 2, 90, 165, 83, 153, 165, 90, 3, 1.48948
90, 2, wb, attraction, a-b-db, 2, 1, 1, 3, 135, 60, 60, 135, 59, 134, 1, 8.09949
90, 2, wb, attraction, a-b-db, 2, 1, 1, 3, 135, 60, 60, 135, 59, 134, 2, 2.00431
90, 2, wb, attraction, a-b-db, 14, 1, 1, 4, 60, 135, 56, 125, 135, 60, 2, 2.21764
90, 2, wb, attraction, a-b-db, 14, 1, 1, 4, 60, 135, 56, 125, 135, 60, 1, 4.08765
90, 2, wb, attraction, a-b-db, 2, 3, 1, 5, 120, 195, 119, 193, 195, 120, 1, 1.9209
90, 2, wb, attraction, a-b-db, 2, 3, 1, 5, 120, 195, 119, 193, 195, 120, 3, 1.18631
90, 2, wb, catch, NA, 999, 999, 1, 6, 158, 157, 162, 93, 94, 101, 3, 1.99256
90, 2, wb, catch, NA, 999, 999, 1, 6, 158, 157, 162, 93, 94, 101, 1, 1.19916
90, 2, wb, attraction, a-b-da, 2, 1, 1, 7, 134, 59, 135, 60, 60, 135, 2, 2.03688
90, 2, wb, attraction, a-b-da, 2, 1, 1, 7, 134, 59, 135, 60, 60, 135, 3, 1.91416
90, 2, wb, attraction, a-b-db, 5, 3, 1, 8, 120, 195, 117, 190, 195, 120, 1, 1.6588
90, 2, wb, attraction, a-b-db, 5, 3, 1, 8, 120, 195, 117, 190, 195, 120, 3, 2.17508
90, 2, wb, filler, NA, 999, 999, 1, 9, 102, 97, 99, 122, 193, 144, 1, 1.08484
90, 2, wb, filler, NA, 999, 999, 1, 9, 102, 97, 99, 122, 193, 144, 3, 0.856635
90, 2, wb, attraction, a-b-db, 9, 2, 1, 10, 90, 165, 165, 90, 86, 157, 2, 4.18751
90, 2, wb, attraction, a-b-db, 9, 2, 1, 10, 90, 165, 165, 90, 86, 157, 3, 1.05006
90, 2, wb, attraction, a-b-db, 5, 2, 1, 11, 88, 161, 165, 90, 90, 165, 1, 3.00587
90, 2, wb, attraction, a-b-db, 5, 2, 1, 11, 88, 161, 165, 90, 90, 165, 3, 1.37952
90, 2, wb, attraction, a-b-da, 5, 1, 1, 12, 60, 135, 135, 60, 132, 58, 1, 2.9537
90, 2, wb, attraction, a-b-da, 5, 1, 1, 12, 60, 135, 135, 60, 132, 58, 2, 2.05
90, 2, wb, attraction, a-b-da, 5, 3, 1, 13, 195, 120, 120, 195, 190, 117, 2, 8.48533
90, 2, wb, attraction, a-b-da, 5, 3, 1, 13, 195, 120, 120, 195, 190, 117, 3, 1.16663
90, 2, wb, attraction, a-b-db, 5, 1, 1, 14, 58, 132, 60, 135, 135, 60, 1, 1.24559
90, 2, wb, attraction, a-b-db, 5, 1, 1, 14, 58, 132, 60, 135, 135, 60, 3, 1.51443
90, 2, wb, filler, NA, 999, 999, 1, 15, 179, 132, 162, 63, 160, 76, 2, 1.48331
90, 2, wb, filler, NA, 999, 999, 1, 15, 179, 132, 162, 63, 160, 76, 1, 2.9188
90, 2, wb, attraction, a-b-da, 14, 1, 1, 16, 135, 60, 60, 135, 125, 56, 3, 3.03921
90, 2, wb, attraction, a-b-da, 14, 1, 1, 16, 135, 60, 60, 135, 125, 56, 1, 1.04351
90, 2, wb, attraction, a-b-da, 5, 2, 1, 17, 90, 165, 161, 88, 165, 90, 2, 7.43107
90, 2, wb, attraction, a-b-da, 5, 2, 1, 17, 90, 165, 161, 88, 165, 90, 3, 3.67494
90, 2, wb, attraction, a-b-db, 14, 3, 1, 18, 195, 120, 111, 181, 120, 195, 1, 9.14028
90, 2, wb, attraction, a-b-db, 14, 3, 1, 18, 195, 120, 111, 181, 120, 195, 3, 1.06664
90, 2, wb, attraction, a-b-db, 9, 3, 1, 19, 120, 195, 195, 120, 114, 186, 2, 2.62168
90, 2, wb, attraction, a-b-db, 9, 3, 1, 19, 120, 195, 195, 120, 114, 186, 3, 1.35482
90, 2, wb, attraction, a-b-da, 14, 2, 1, 20, 153, 83, 90, 165, 165, 90, 1, 1.49827
90, 2, wb, attraction, a-b-da, 14, 2, 1, 20, 153, 83, 90, 165, 165, 90, 2, 1.61322
90, 2, wb, filler, NA, 999, 999, 1, 21, 194, 147, 63, 62, 178, 104, 2, 1.32991
90, 2, wb, filler, NA, 999, 999, 1, 21, 194, 147, 63, 62, 178, 104, 1, 0.891552
90, 2, wb, catch, NA, 999, 999, 1, 22, 188, 127, 99, 156, 82, 113, 3, 1.46116
90, 2, wb, catch, NA, 999, 999, 1, 22, 188, 127, 99, 156, 82, 113, 1, 0.905312
90, 2, wb, filler, NA, 999, 999, 1, 23, 161, 125, 80, 193, 119, 144, 2, 6.30693
90, 2, wb, filler, NA, 999, 999, 1, 23, 161, 125, 80, 193, 119, 144, 1, 1.62761
90, 2, wb, filler, NA, 999, 999, 1, 24, 99, 171, 117, 173, 155, 167, 1, 1.3919
90, 2, wb, filler, NA, 999, 999, 1, 24, 99, 171, 117, 173, 155, 167, 3, 0.742613
90, 2, wb, attraction, a-b-da, 9, 3, 1, 25, 186, 114, 120, 195, 195, 120, 1, 3.49432
90, 2, wb, attraction, a-b-da, 9, 3, 1, 25, 186, 114, 120, 195, 195, 120, 2, 3.04859
90, 2, wb, filler, NA, 999, 999, 1, 26, 76, 98, 83, 137, 89, 87, 1, 3.85958
90, 2, wb, filler, NA, 999, 999, 1, 26, 76, 98, 83, 137, 89, 87, 2, 1.84696
90, 2, wb, attraction, a-b-da, 9, 1, 1, 27, 135, 60, 60, 135, 129, 57, 3, 1.6024
90, 2, wb, attraction, a-b-da, 9, 1, 1, 27, 135, 60, 60, 135, 129, 57, 1, 1.11318
90, 2, wb, filler, NA, 999, 999, 1, 28, 56, 72, 155, 89, 96, 129, 1, 1.24207
90, 2, wb, filler, NA, 999, 999, 1, 28, 56, 72, 155, 89, 96, 129, 3, 4.59894
90, 2, wb, attraction, a-b-db, 9, 1, 1, 29, 135, 60, 60, 135, 57, 129, 3, 1.57146
90, 2, wb, attraction, a-b-db, 9, 1, 1, 29, 135, 60, 60, 135, 57, 129, 1, 1.7629
90, 2, wb, filler, NA, 999, 999, 1, 30, 193, 142, 62, 159, 59, 140, 2, 1.18555
90, 2, wb, filler, NA, 999, 999, 1, 30, 193, 142, 62, 159, 59, 140, 1, 0.785305
90, 2, wb, filler, NA, 999, 999, 1, 31, 103, 95, 159, 135, 130, 153, 1, 1.27982
90, 2, wb, filler, NA, 999, 999, 1, 31, 103, 95, 159, 135, 130, 153, 2, 1.7633
90, 2, wb, attraction, a-b-da, 14, 3, 1, 32, 181, 111, 195, 120, 120, 195, 1, 2.82592
90, 2, wb, attraction, a-b-da, 14, 3, 1, 32, 181, 111, 195, 120, 120, 195, 3, 1.7512
90, 2, wb, catch, NA, 999, 999, 1, 33, 136, 179, 156, 99, 133, 62, 3, 3.13456
90, 2, wb, catch, NA, 999, 999, 1, 33, 136, 179, 156, 99, 133, 62, 1, 0.64736
90, 2, wb, attraction, a-b-da, 9, 2, 1, 34, 165, 90, 90, 165, 157, 86, 3, 5.53126
90, 2, wb, attraction, a-b-da, 9, 2, 1, 34, 165, 90, 90, 165, 157, 86, 2, 1.00339
90, 2, wb, attraction, a-b-db, 2, 2, 1, 35, 90, 165, 165, 90, 89, 163, 2, 2.97697
90, 2, wb, attraction, a-b-db, 2, 2, 1, 35, 90, 165, 165, 90, 89, 163, 3, 0.632069
90, 2, wb, filler, NA, 999, 999, 1, 36, 140, 124, 160, 68, 77, 84, 3, 1.37254
90, 2, wb, filler, NA, 999, 999, 1, 36, 140, 124, 160, 68, 77, 84, 1, 0.523997
90, 2, wb, attraction, a-b-da, 2, 3, 1, 37, 193, 119, 195, 120, 120, 195, 1, 3.26041
90, 2, wb, attraction, a-b-da, 2, 3, 1, 37, 193, 119, 195, 120, 120, 195, 2, 1.16003
90, 2, wb, attraction, a-b-da, 9, 1, 2, 1, 135, 60, 60, 135, 129, 57, 3, 1.935
90, 2, wb, attraction, a-b-da, 9, 1, 2, 1, 135, 60, 60, 135, 129, 57, 2, 1.42441
90, 2, wb, filler, NA, 999, 999, 2, 2, 138, 142, 183, 84, 140, 62, 3, 1.5405
90, 2, wb, filler, NA, 999, 999, 2, 2, 138, 142, 183, 84, 140, 62, 1, 0.837328
90, 2, wb, catch, NA, 999, 999, 2, 3, 145, 170, 114, 81, 110, 145, 2, 1.6978
90, 2, wb, catch, NA, 999, 999, 2, 3, 145, 170, 114, 81, 110, 145, 1, 0.708632
90, 2, wb, attraction, a-b-db, 14, 2, 2, 4, 165, 90, 90, 165, 83, 153, 3, 6.86955
90, 2, wb, attraction, a-b-db, 14, 2, 2, 4, 165, 90, 90, 165, 83, 153, 1, 1.20802
90, 2, wb, attraction, a-b-db, 5, 3, 2, 5, 117, 190, 120, 195, 195, 120, 1, 2.22893
90, 2, wb, attraction, a-b-db, 5, 3, 2, 5, 117, 190, 120, 195, 195, 120, 3, 1.12223
90, 2, wb, filler, NA, 999, 999, 2, 6, 106, 65, 104, 129, 135, 89, 1, 1.25907
90, 2, wb, filler, NA, 999, 999, 2, 6, 106, 65, 104, 129, 135, 89, 2, 4.07943
90, 2, wb, attraction, a-b-da, 9, 2, 2, 7, 165, 90, 157, 86, 90, 165, 2, 1.91266
90, 2, wb, attraction, a-b-da, 9, 2, 2, 7, 165, 90, 157, 86, 90, 165, 3, 1.36277
90, 2, wb, attraction, a-b-db, 2, 3, 2, 8, 195, 120, 119, 193, 120, 195, 3, 11.1216
90, 2, wb, attraction, a-b-db, 2, 3, 2, 8, 195, 120, 119, 193, 120, 195, 1, 4.48068
90, 2, wb, attraction, a-b-db, 2, 2, 2, 9, 90, 165, 165, 90, 89, 163, 1, 2.4101
90, 2, wb, attraction, a-b-db, 2, 2, 2, 9, 90, 165, 165, 90, 89, 163, 3, 2.42381
90, 2, wb, attraction, a-b-da, 2, 2, 2, 10, 163, 89, 165, 90, 90, 165, 1, 4.17162
90, 2, wb, attraction, a-b-da, 2, 2, 2, 10, 163, 89, 165, 90, 90, 165, 3, 4.05046
90, 2, wb, filler, NA, 999, 999, 2, 11, 135, 156, 99, 113, 191, 133, 2, 2.21302
90, 2, wb, filler, NA, 999, 999, 2, 11, 135, 156, 99, 113, 191, 133, 3, 1.23507
90, 2, wb, attraction, a-b-da, 14, 2, 2, 12, 153, 83, 165, 90, 90, 165, 1, 2.34323
90, 2, wb, attraction, a-b-da, 14, 2, 2, 12, 153, 83, 165, 90, 90, 165, 3, 1.63979
90, 2, wb, attraction, a-b-da, 5, 3, 2, 13, 190, 117, 120, 195, 195, 120, 1, 2.86716
90, 2, wb, attraction, a-b-da, 5, 3, 2, 13, 190, 117, 120, 195, 195, 120, 2, 1.63103
90, 2, wb, attraction, a-b-da, 5, 1, 2, 14, 60, 135, 135, 60, 132, 58, 3, 7.33117
90, 2, wb, attraction, a-b-da, 5, 1, 2, 14, 60, 135, 135, 60, 132, 58, 1, 1.0589
90, 2, wb, filler, NA, 999, 999, 2, 15, 86, 169, 62, 61, 146, 161, 2, 0.957714
90, 2, wb, filler, NA, 999, 999, 2, 15, 86, 169, 62, 61, 146, 161, 3, 0.734024
90, 2, wb, filler, NA, 999, 999, 2, 16, 149, 136, 160, 138, 135, 133, 3, 5.55835
90, 2, wb, filler, NA, 999, 999, 2, 16, 149, 136, 160, 138, 135, 133, 2, 5.59745
90, 2, wb, filler, NA, 999, 999, 2, 17, 157, 81, 84, 63, 116, 80, 2, 2.92947
90, 2, wb, filler, NA, 999, 999, 2, 17, 157, 81, 84, 63, 116, 80, 1, 2.47464
90, 2, wb, attraction, a-b-db, 9, 2, 2, 18, 165, 90, 90, 165, 86, 157, 3, 13.6124
90, 2, wb, attraction, a-b-db, 9, 2, 2, 18, 165, 90, 90, 165, 86, 157, 1, 1.45479
90, 2, wb, attraction, a-b-da, 2, 1, 2, 19, 135, 60, 134, 59, 60, 135, 1, 3.38631
90, 2, wb, attraction, a-b-da, 2, 1, 2, 19, 135, 60, 134, 59, 60, 135, 3, 2.20917
90, 2, wb, attraction, a-b-da, 9, 3, 2, 20, 195, 120, 120, 195, 186, 114, 3, 1.90182
90, 2, wb, attraction, a-b-da, 9, 3, 2, 20, 195, 120, 120, 195, 186, 114, 2, 1.23243
90, 2, wb, attraction, a-b-da, 2, 3, 2, 21, 193, 119, 120, 195, 195, 120, 1, 1.26864
90, 2, wb, attraction, a-b-da, 2, 3, 2, 21, 193, 119, 120, 195, 195, 120, 2, 2.21697
90, 2, wb, attraction, a-b-db, 2, 1, 2, 22, 60, 135, 59, 134, 135, 60, 1, 3.63751
90, 2, wb, attraction, a-b-db, 2, 1, 2, 22, 60, 135, 59, 134, 135, 60, 3, 0.617739
90, 2, wb, attraction, a-b-db, 9, 3, 2, 23, 195, 120, 114, 186, 120, 195, 2, 4.77482
90, 2, wb, attraction, a-b-db, 9, 3, 2, 23, 195, 120, 114, 186, 120, 195, 1, 1.14127
90, 2, wb, attraction, a-b-db, 9, 1, 2, 24, 60, 135, 135, 60, 57, 129, 3, 5.41282
90, 2, wb, attraction, a-b-db, 9, 1, 2, 24, 60, 135, 135, 60, 57, 129, 2, 1.62579
90, 2, wb, filler, NA, 999, 999, 2, 25, 189, 106, 78, 187, 68, 145, 3, 1.12606
90, 2, wb, filler, NA, 999, 999, 2, 25, 189, 106, 78, 187, 68, 145, 1, 0.839457
90, 2, wb, filler, NA, 999, 999, 2, 26, 154, 117, 111, 93, 154, 193, 2, 1.14718
90, 2, wb, filler, NA, 999, 999, 2, 26, 154, 117, 111, 93, 154, 193, 3, 0.492088
90, 2, wb, attraction, a-b-db, 14, 3, 2, 27, 195, 120, 120, 195, 111, 181, 3, 3.86196
90, 2, wb, attraction, a-b-db, 14, 3, 2, 27, 195, 120, 120, 195, 111, 181, 1, 1.37737
90, 2, wb, attraction, a-b-db, 5, 2, 2, 28, 90, 165, 88, 161, 165, 90, 2, 5.13554
90, 2, wb, attraction, a-b-db, 5, 2, 2, 28, 90, 165, 88, 161, 165, 90, 3, 2.66384
90, 2, wb, attraction, a-b-db, 5, 1, 2, 29, 135, 60, 60, 135, 58, 132, 3, 1.77836
90, 2, wb, attraction, a-b-db, 5, 1, 2, 29, 135, 60, 60, 135, 58, 132, 1, 1.60975
90, 2, wb, catch, NA, 999, 999, 2, 30, 76, 119, 149, 166, 106, 149, 1, 0.806601
90, 2, wb, catch, NA, 999, 999, 2, 30, 76, 119, 149, 166, 106, 149, 2, 0.612993
90, 2, wb, attraction, a-b-da, 14, 1, 2, 31, 60, 135, 125, 56, 135, 60, 2, 11.3621
90, 2, wb, attraction, a-b-da, 14, 1, 2, 31, 60, 135, 125, 56, 135, 60, 3, 0.735205
90, 2, wb, catch, NA, 999, 999, 2, 32, 163, 92, 84, 111, 137, 178, 2, 0.863584
90, 2, wb, catch, NA, 999, 999, 2, 32, 163, 92, 84, 111, 137, 178, 3, 0.515958
90, 2, wb, filler, NA, 999, 999, 2, 33, 177, 89, 145, 183, 133, 58, 3, 4.44502
90, 2, wb, filler, NA, 999, 999, 2, 33, 177, 89, 145, 183, 133, 58, 2, 1.10487
90, 2, wb, attraction, a-b-da, 5, 2, 2, 34, 161, 88, 165, 90, 90, 165, 1, 1.69845
90, 2, wb, attraction, a-b-da, 5, 2, 2, 34, 161, 88, 165, 90, 90, 165, 3, 2.26936
90, 2, wb, filler, NA, 999, 999, 2, 35, 89, 75, 180, 167, 125, 154, 1, 2.54378
90, 2, wb, filler, NA, 999, 999, 2, 35, 89, 75, 180, 167, 125, 154, 2, 1.49636
90, 2, wb, attraction, a-b-db, 14, 1, 2, 36, 135, 60, 60, 135, 56, 125, 3, 4.08984
90, 2, wb, attraction, a-b-db, 14, 1, 2, 36, 135, 60, 60, 135, 56, 125, 1, 1.35576
90, 2, wb, attraction, a-b-da, 14, 3, 2, 37, 181, 111, 120, 195, 195, 120, 1, 2.34739
90, 2, wb, attraction, a-b-da, 14, 3, 2, 37, 181, 111, 120, 195, 195, 120, 2, 3.24396
90, 2, wb, attraction, a-b-da, 9, 3, 3, 1, 186, 114, 195, 120, 120, 195, 1, 1.5429
90, 2, wb, attraction, a-b-da, 9, 3, 3, 1, 186, 114, 195, 120, 120, 195, 3, 2.59974
90, 2, wb, attraction, a-b-db, 5, 3, 3, 2, 117, 190, 195, 120, 120, 195, 2, 2.85282
90, 2, wb, attraction, a-b-db, 5, 3, 3, 2, 117, 190, 195, 120, 120, 195, 3, 0.697191
90, 2, wb, filler, NA, 999, 999, 3, 3, 169, 66, 165, 135, 83, 147, 1, 1.32302
90, 2, wb, filler, NA, 999, 999, 3, 3, 169, 66, 165, 135, 83, 147, 2, 4.89256
90, 2, wb, attraction, a-b-db, 5, 1, 3, 4, 60, 135, 135, 60, 58, 132, 2, 4.29287
90, 2, wb, attraction, a-b-db, 5, 1, 3, 4, 60, 135, 135, 60, 58, 132, 1, 0.918861
90, 2, wb, attraction, a-b-da, 14, 1, 3, 5, 60, 135, 125, 56, 135, 60, 2, 1.79179
90, 2, wb, attraction, a-b-da, 14, 1, 3, 5, 60, 135, 125, 56, 135, 60, 3, 1.60672
90, 2, wb, filler, NA, 999, 999, 3, 6, 84, 108, 90, 164, 170, 100, 1, 1.08334
90, 2, wb, filler, NA, 999, 999, 3, 6, 84, 108, 90, 164, 170, 100, 3, 3.47108
90, 2, wb, attraction, a-b-da, 14, 3, 3, 7, 195, 120, 181, 111, 120, 195, 2, 1.77728
90, 2, wb, attraction, a-b-da, 14, 3, 3, 7, 195, 120, 181, 111, 120, 195, 3, 0.720796
90, 2, wb, attraction, a-b-db, 9, 3, 3, 8, 114, 186, 195, 120, 120, 195, 1, 1.34559
90, 2, wb, attraction, a-b-db, 9, 3, 3, 8, 114, 186, 195, 120, 120, 195, 3, 1.15459
90, 2, wb, attraction, a-b-da, 5, 1, 3, 9, 60, 135, 135, 60, 132, 58, 2, 4.34625
90, 2, wb, attraction, a-b-da, 5, 1, 3, 9, 60, 135, 135, 60, 132, 58, 3, 1.73812
90, 2, wb, filler, NA, 999, 999, 3, 10, 77, 75, 118, 140, 77, 111, 1, 11.1061
90, 2, wb, filler, NA, 999, 999, 3, 10, 77, 75, 118, 140, 77, 111, 2, 0.906149
90, 2, wb, attraction, a-b-da, 2, 3, 3, 11, 120, 195, 193, 119, 195, 120, 2, 6.067
90, 2, wb, attraction, a-b-da, 2, 3, 3, 11, 120, 195, 193, 119, 195, 120, 1, 4.54973
90, 2, wb, filler, NA, 999, 999, 3, 12, 69, 171, 77, 152, 119, 155, 2, 3.69238
90, 2, wb, filler, NA, 999, 999, 3, 12, 69, 171, 77, 152, 119, 155, 3, 0.670351
90, 2, wb, catch, NA, 999, 999, 3, 13, 160, 95, 195, 120, 123, 72, 3, 1.14546
90, 2, wb, catch, NA, 999, 999, 3, 13, 160, 95, 195, 120, 123, 72, 2, 0.882582
90, 2, wb, attraction, a-b-db, 14, 2, 3, 14, 90, 165, 165, 90, 83, 153, 3, 1.54079
90, 2, wb, attraction, a-b-db, 14, 2, 3, 14, 90, 165, 165, 90, 83, 153, 1, 2.59766
90, 2, wb, attraction, a-b-da, 5, 2, 3, 15, 161, 88, 165, 90, 90, 165, 1, 4.61067
90, 2, wb, attraction, a-b-da, 5, 2, 3, 15, 161, 88, 165, 90, 90, 165, 3, 1.51194
90, 2, wb, attraction, a-b-db, 9, 1, 3, 16, 57, 129, 135, 60, 60, 135, 1, 3.28882
90, 2, wb, attraction, a-b-db, 9, 1, 3, 16, 57, 129, 135, 60, 60, 135, 3, 1.79502
90, 2, wb, catch, NA, 999, 999, 3, 17, 78, 117, 123, 192, 96, 159, 1, 1.0884
90, 2, wb, catch, NA, 999, 999, 3, 17, 78, 117, 123, 192, 96, 159, 2, 1.25932
90, 2, wb, attraction, a-b-db, 14, 1, 3, 18, 56, 125, 135, 60, 60, 135, 1, 3.52623
90, 2, wb, attraction, a-b-db, 14, 1, 3, 18, 56, 125, 135, 60, 60, 135, 3, 1.16714
90, 2, wb, attraction, a-b-da, 14, 2, 3, 19, 153, 83, 165, 90, 90, 165, 1, 3.23001
90, 2, wb, attraction, a-b-da, 14, 2, 3, 19, 153, 83, 165, 90, 90, 165, 3, 3.88303
90, 2, wb, attraction, a-b-db, 2, 3, 3, 20, 120, 195, 195, 120, 119, 193, 2, 4.05229
90, 2, wb, attraction, a-b-db, 2, 3, 3, 20, 120, 195, 195, 120, 119, 193, 1, 1.56041
90, 2, wb, attraction, a-b-da, 9, 2, 3, 21, 90, 165, 157, 86, 165, 90, 2, 1.23116
90, 2, wb, attraction, a-b-da, 9, 2, 3, 21, 90, 165, 157, 86, 165, 90, 3, 0.700777
90, 2, wb, attraction, a-b-da, 5, 3, 3, 22, 190, 117, 195, 120, 120, 195, 2, 6.42267
90, 2, wb, attraction, a-b-da, 5, 3, 3, 22, 190, 117, 195, 120, 120, 195, 3, 0.746454
90, 2, wb, attraction, a-b-db, 9, 2, 3, 23, 165, 90, 90, 165, 86, 157, 3, 1.88223
90, 2, wb, attraction, a-b-db, 9, 2, 3, 23, 165, 90, 90, 165, 86, 157, 1, 2.23754
90, 2, wb, filler, NA, 999, 999, 3, 24, 92, 59, 94, 157, 163, 104, 1, 1.16944
90, 2, wb, filler, NA, 999, 999, 3, 24, 92, 59, 94, 157, 163, 104, 3, 0.825778
90, 2, wb, filler, NA, 999, 999, 3, 25, 181, 188, 59, 151, 108, 58, 3, 1.09402
90, 2, wb, filler, NA, 999, 999, 3, 25, 181, 188, 59, 151, 108, 58, 1, 0.864956
90, 2, wb, filler, NA, 999, 999, 3, 26, 127, 78, 177, 156, 118, 133, 1, 1.004
90, 2, wb, filler, NA, 999, 999, 3, 26, 127, 78, 177, 156, 118, 133, 2, 0.77039
90, 2, wb, filler, NA, 999, 999, 3, 27, 57, 63, 163, 92, 185, 120, 1, 0.96934
90, 2, wb, filler, NA, 999, 999, 3, 27, 57, 63, 163, 92, 185, 120, 3, 0.529751
90, 2, wb, attraction, a-b-db, 2, 1, 3, 28, 135, 60, 60, 135, 59, 134, 2, 6.77019
90, 2, wb, attraction, a-b-db, 2, 1, 3, 28, 135, 60, 60, 135, 59, 134, 1, 1.47273
90, 2, wb, attraction, a-b-da, 2, 2, 3, 29, 90, 165, 165, 90, 163, 89, 2, 4.43553
90, 2, wb, attraction, a-b-da, 2, 2, 3, 29, 90, 165, 165, 90, 163, 89, 3, 0.864054
90, 2, wb, attraction, a-b-da, 9, 1, 3, 30, 135, 60, 129, 57, 60, 135, 2, 1.04309
90, 2, wb, attraction, a-b-da, 9, 1, 3, 30, 135, 60, 129, 57, 60, 135, 1, 2.26423
90, 2, wb, attraction, a-b-db, 5, 2, 3, 31, 88, 161, 90, 165, 165, 90, 3, 4.20272
90, 2, wb, attraction, a-b-db, 5, 2, 3, 31, 88, 161, 90, 165, 165, 90, 2, 0.720682
90, 2, wb, attraction, a-b-db, 14, 3, 3, 32, 120, 195, 195, 120, 111, 181, 3, 15.9058
90, 2, wb, attraction, a-b-db, 14, 3, 3, 32, 120, 195, 195, 120, 111, 181, 1, 1.19203
90, 2, wb, catch, NA, 999, 999, 3, 33, 152, 163, 107, 148, 75, 120, 3, 0.733592
90, 2, wb, catch, NA, 999, 999, 3, 33, 152, 163, 107, 148, 75, 120, 1, 0.543342
90, 2, wb, attraction, a-b-da, 2, 1, 3, 34, 134, 59, 135, 60, 60, 135, 2, 2.99912
90, 2, wb, attraction, a-b-da, 2, 1, 3, 34, 134, 59, 135, 60, 60, 135, 3, 1.96559
90, 2, wb, filler, NA, 999, 999, 3, 35, 94, 98, 174, 143, 114, 83, 1, 2.96417
90, 2, wb, filler, NA, 999, 999, 3, 35, 94, 98, 174, 143, 114, 83, 2, 1.69986
90, 2, wb, attraction, a-b-db, 2, 2, 3, 36, 89, 163, 90, 165, 165, 90, 1, 5.21322
90, 2, wb, attraction, a-b-db, 2, 2, 3, 36, 89, 163, 90, 165, 165, 90, 3, 2.33027
90, 2, wb, filler, NA, 999, 999, 3, 37, 74, 142, 149, 137, 124, 168, 1, 1.05022
90, 2, wb, filler, NA, 999, 999, 3, 37, 74, 142, 149, 137, 124, 168, 3, 3.30317
90, 2, wb, attraction, a-b-da, 2, 1, 4, 1, 135, 60, 60, 135, 134, 59, 1, 12.12
90, 2, wb, attraction, a-b-da, 2, 1, 4, 1, 135, 60, 60, 135, 134, 59, 3, 11.5509
90, 2, wb, filler, NA, 999, 999, 4, 2, 70, 141, 70, 193, 193, 90, 1, 1.28319
90, 2, wb, filler, NA, 999, 999, 4, 2, 70, 141, 70, 193, 193, 90, 3, 0.767018
90, 2, wb, attraction, a-b-db, 5, 3, 4, 3, 120, 195, 117, 190, 195, 120, 1, 5.08587
90, 2, wb, attraction, a-b-db, 5, 3, 4, 3, 120, 195, 117, 190, 195, 120, 3, 0.424244
90, 2, wb, attraction, a-b-da, 14, 3, 4, 4, 181, 111, 120, 195, 195, 120, 1, 4.0687
90, 2, wb, attraction, a-b-da, 14, 3, 4, 4, 181, 111, 120, 195, 195, 120, 2, 0.608089
90, 2, wb, attraction, a-b-da, 5, 1, 4, 5, 60, 135, 135, 60, 132, 58, 2, 1.89314
90, 2, wb, attraction, a-b-da, 5, 1, 4, 5, 60, 135, 135, 60, 132, 58, 1, 0.935911
90, 2, wb, attraction, a-b-da, 2, 3, 4, 6, 195, 120, 120, 195, 193, 119, 1, 6.73615
90, 2, wb, attraction, a-b-da, 2, 3, 4, 6, 195, 120, 120, 195, 193, 119, 2, 2.22408
90, 2, wb, attraction, a-b-db, 9, 3, 4, 7, 195, 120, 120, 195, 114, 186, 3, 2.41997
90, 2, wb, attraction, a-b-db, 9, 3, 4, 7, 195, 120, 120, 195, 114, 186, 1, 1.16184
90, 2, wb, attraction, a-b-da, 14, 1, 4, 8, 125, 56, 60, 135, 135, 60, 2, 1.97686
90, 2, wb, attraction, a-b-da, 14, 1, 4, 8, 125, 56, 60, 135, 135, 60, 3, 2.2322
90, 2, wb, attraction, a-b-da, 9, 3, 4, 9, 186, 114, 195, 120, 120, 195, 1, 4.95606
90, 2, wb, attraction, a-b-da, 9, 3, 4, 9, 186, 114, 195, 120, 120, 195, 3, 0.715298
90, 2, wb, attraction, a-b-db, 5, 2, 4, 10, 165, 90, 90, 165, 88, 161, 2, 4.50813
90, 2, wb, attraction, a-b-db, 5, 2, 4, 10, 165, 90, 90, 165, 88, 161, 1, 0.67754
90, 2, wb, attraction, a-b-da, 5, 3, 4, 11, 195, 120, 190, 117, 120, 195, 2, 6.83984
90, 2, wb, attraction, a-b-da, 5, 3, 4, 11, 195, 120, 190, 117, 120, 195, 3, 4.5471
90, 2, wb, attraction, a-b-db, 2, 1, 4, 12, 135, 60, 59, 134, 60, 135, 2, 3.42548
90, 2, wb, attraction, a-b-db, 2, 1, 4, 12, 135, 60, 59, 134, 60, 135, 1, 0.862552
90, 2, wb, catch, NA, 999, 999, 4, 13, 131, 124, 109, 86, 181, 134, 2, 1.06545
90, 2, wb, catch, NA, 999, 999, 4, 13, 131, 124, 109, 86, 181, 134, 3, 0.789814
90, 2, wb, attraction, a-b-db, 2, 2, 4, 14, 90, 165, 89, 163, 165, 90, 2, 1.17153
90, 2, wb, attraction, a-b-db, 2, 2, 4, 14, 90, 165, 89, 163, 165, 90, 3, 0.603052
90, 2, wb, filler, NA, 999, 999, 4, 15, 169, 126, 88, 101, 71, 155, 2, 0.840885
90, 2, wb, filler, NA, 999, 999, 4, 15, 169, 126, 88, 101, 71, 155, 1, 0.46981
90, 2, wb, filler, NA, 999, 999, 4, 16, 62, 151, 85, 132, 168, 110, 1, 4.76265
90, 2, wb, filler, NA, 999, 999, 4, 16, 62, 151, 85, 132, 168, 110, 3, 1.24009
90, 2, wb, catch, NA, 999, 999, 4, 17, 66, 129, 179, 136, 133, 122, 1, 1.1876
90, 2, wb, catch, NA, 999, 999, 4, 17, 66, 129, 179, 136, 133, 122, 2, 0.634586
90, 2, wb, filler, NA, 999, 999, 4, 18, 76, 99, 73, 194, 64, 147, 1, 3.35895
90, 2, wb, filler, NA, 999, 999, 4, 18, 76, 99, 73, 194, 64, 147, 2, 0.622624
90, 2, wb, filler, NA, 999, 999, 4, 19, 169, 116, 176, 136, 146, 136, 3, 3.81972
90, 2, wb, filler, NA, 999, 999, 4, 19, 169, 116, 176, 136, 146, 136, 2, 0.585047
90, 2, wb, filler, NA, 999, 999, 4, 20, 128, 70, 159, 180, 137, 138, 1, 1.16757
90, 2, wb, filler, NA, 999, 999, 4, 20, 128, 70, 159, 180, 137, 138, 2, 0.623833
90, 2, wb, attraction, a-b-db, 14, 1, 4, 21, 60, 135, 56, 125, 135, 60, 2, 2.32424
90, 2, wb, attraction, a-b-db, 14, 1, 4, 21, 60, 135, 56, 125, 135, 60, 3, 1.9335
90, 2, wb, attraction, a-b-da, 9, 2, 4, 22, 157, 86, 90, 165, 165, 90, 2, 2.63746
90, 2, wb, attraction, a-b-da, 9, 2, 4, 22, 157, 86, 90, 165, 165, 90, 3, 1.8659
90, 2, wb, attraction, a-b-db, 9, 2, 4, 23, 86, 157, 90, 165, 165, 90, 1, 2.48471
90, 2, wb, attraction, a-b-db, 9, 2, 4, 23, 86, 157, 90, 165, 165, 90, 3, 0.959943
90, 2, wb, filler, NA, 999, 999, 4, 24, 135, 178, 108, 149, 176, 124, 2, 1.89479
90, 2, wb, filler, NA, 999, 999, 4, 24, 135, 178, 108, 149, 176, 124, 3, 0.91369
90, 2, wb, attraction, a-b-db, 14, 3, 4, 25, 120, 195, 195, 120, 111, 181, 3, 1.49852
90, 2, wb, attraction, a-b-db, 14, 3, 4, 25, 120, 195, 195, 120, 111, 181, 1, 0.645366
90, 2, wb, filler, NA, 999, 999, 4, 26, 147, 172, 160, 85, 66, 145, 3, 1.12907
90, 2, wb, filler, NA, 999, 999, 4, 26, 147, 172, 160, 85, 66, 145, 1, 0.650745
90, 2, wb, attraction, a-b-da, 9, 1, 4, 27, 60, 135, 135, 60, 129, 57, 2, 2.66241
90, 2, wb, attraction, a-b-da, 9, 1, 4, 27, 60, 135, 135, 60, 129, 57, 3, 3.61031
90, 2, wb, catch, NA, 999, 999, 4, 28, 127, 128, 175, 140, 97, 98, 3, 1.42238
90, 2, wb, catch, NA, 999, 999, 4, 28, 127, 128, 175, 140, 97, 98, 2, 2.33188
90, 2, wb, attraction, a-b-db, 2, 3, 4, 29, 120, 195, 195, 120, 119, 193, 3, 2.68386
90, 2, wb, attraction, a-b-db, 2, 3, 4, 29, 120, 195, 195, 120, 119, 193, 2, 0.654956
90, 2, wb, filler, NA, 999, 999, 4, 30, 108, 124, 94, 144, 156, 178, 1, 6.88272
90, 2, wb, filler, NA, 999, 999, 4, 30, 108, 124, 94, 144, 156, 178, 3, 0.748523
90, 2, wb, attraction, a-b-db, 5, 1, 4, 31, 58, 132, 135, 60, 60, 135, 3, 2.89225
90, 2, wb, attraction, a-b-db, 5, 1, 4, 31, 58, 132, 135, 60, 60, 135, 1, 0.966593
90, 2, wb, filler, NA, 999, 999, 4, 32, 167, 182, 77, 58, 159, 113, 2, 0.965657
90, 2, wb, filler, NA, 999, 999, 4, 32, 167, 182, 77, 58, 159, 113, 1, 0.581912
90, 2, wb, attraction, a-b-db, 9, 1, 4, 33, 60, 135, 135, 60, 57, 129, 1, 1.5243
90, 2, wb, attraction, a-b-db, 9, 1, 4, 33, 60, 135, 135, 60, 57, 129, 2, 2.44588
90, 2, wb, attraction, a-b-db, 14, 2, 4, 34, 165, 90, 83, 153, 90, 165, 2, 1.40103
90, 2, wb, attraction, a-b-db, 14, 2, 4, 34, 165, 90, 83, 153, 90, 165, 3, 0.880014
90, 2, wb, attraction, a-b-da, 5, 2, 4, 35, 161, 88, 90, 165, 165, 90, 1, 6.8102
90, 2, wb, attraction, a-b-da, 5, 2, 4, 35, 161, 88, 90, 165, 165, 90, 3, 0.654757
90, 2, wb, attraction, a-b-da, 14, 2, 4, 36, 153, 83, 90, 165, 165, 90, 1, 1.82654
90, 2, wb, attraction, a-b-da, 14, 2, 4, 36, 153, 83, 90, 165, 165, 90, 2, 2.19198
90, 2, wb, attraction, a-b-da, 2, 2, 4, 37, 163, 89, 165, 90, 90, 165, 2, 2.94913
90, 2, wb, attraction, a-b-da, 2, 2, 4, 37, 163, 89, 165, 90, 90, 165, 3, 1.34966
90, 2, wb, filler, NA, 999, 999, 5, 1, 128, 170, 77, 132, 114, 95, 2, 11.0037
90, 2, wb, filler, NA, 999, 999, 5, 1, 128, 170, 77, 132, 114, 95, 1, 0.87161
90, 2, wb, attraction, a-b-db, 5, 2, 5, 2, 90, 165, 88, 161, 165, 90, 2, 4.17853
90, 2, wb, attraction, a-b-db, 5, 2, 5, 2, 90, 165, 88, 161, 165, 90, 3, 0.753207
90, 2, wb, filler, NA, 999, 999, 5, 3, 95, 110, 58, 148, 90, 120, 2, 14.369
90, 2, wb, filler, NA, 999, 999, 5, 3, 95, 110, 58, 148, 90, 120, 3, 0.821179
90, 2, wb, attraction, a-b-db, 2, 2, 5, 4, 165, 90, 90, 165, 89, 163, 3, 2.83412
90, 2, wb, attraction, a-b-db, 2, 2, 5, 4, 165, 90, 90, 165, 89, 163, 1, 0.823192
90, 2, wb, catch, NA, 999, 999, 5, 5, 152, 163, 125, 130, 135, 60, 3, 1.2357
90, 2, wb, catch, NA, 999, 999, 5, 5, 152, 163, 125, 130, 135, 60, 1, 0.569037
90, 2, wb, attraction, a-b-da, 2, 3, 5, 6, 120, 195, 195, 120, 193, 119, 1, 2.95229
90, 2, wb, attraction, a-b-da, 2, 3, 5, 6, 120, 195, 195, 120, 193, 119, 2, 0.760628
90, 2, wb, attraction, a-b-da, 14, 3, 5, 7, 181, 111, 195, 120, 120, 195, 1, 1.55972
90, 2, wb, attraction, a-b-da, 14, 3, 5, 7, 181, 111, 195, 120, 120, 195, 3, 1.44786
90, 2, wb, attraction, a-b-db, 14, 2, 5, 8, 83, 153, 165, 90, 90, 165, 1, 1.53923
90, 2, wb, attraction, a-b-db, 14, 2, 5, 8, 83, 153, 165, 90, 90, 165, 3, 0.668104
90, 2, wb, attraction, a-b-db, 14, 3, 5, 9, 111, 181, 120, 195, 195, 120, 1, 1.16711
90, 2, wb, attraction, a-b-db, 14, 3, 5, 9, 111, 181, 120, 195, 195, 120, 2, 1.96746
90, 2, wb, attraction, a-b-da, 9, 2, 5, 10, 165, 90, 157, 86, 90, 165, 2, 2.31809
90, 2, wb, attraction, a-b-da, 9, 2, 5, 10, 165, 90, 157, 86, 90, 165, 3, 0.791965
90, 2, wb, filler, NA, 999, 999, 5, 11, 94, 134, 73, 133, 195, 174, 2, 1.7258
90, 2, wb, filler, NA, 999, 999, 5, 11, 94, 134, 73, 133, 195, 174, 3, 0.775076
90, 2, wb, filler, NA, 999, 999, 5, 12, 72, 80, 73, 163, 161, 121, 1, 1.47749
90, 2, wb, filler, NA, 999, 999, 5, 12, 72, 80, 73, 163, 161, 121, 3, 0.849021
90, 2, wb, attraction, a-b-da, 9, 3, 5, 13, 120, 195, 195, 120, 186, 114, 2, 2.54871
90, 2, wb, attraction, a-b-da, 9, 3, 5, 13, 120, 195, 195, 120, 186, 114, 1, 1.52513
90, 2, wb, attraction, a-b-db, 14, 1, 5, 14, 135, 60, 56, 125, 60, 135, 2, 1.14929
90, 2, wb, attraction, a-b-db, 14, 1, 5, 14, 135, 60, 56, 125, 60, 135, 3, 2.47032
90, 2, wb, attraction, a-b-db, 9, 2, 5, 15, 90, 165, 165, 90, 86, 157, 3, 4.04087
90, 2, wb, attraction, a-b-db, 9, 2, 5, 15, 90, 165, 165, 90, 86, 157, 1, 1.22888
90, 2, wb, attraction, a-b-da, 5, 2, 5, 16, 161, 88, 165, 90, 90, 165, 2, 2.1611
90, 2, wb, attraction, a-b-da, 5, 2, 5, 16, 161, 88, 165, 90, 90, 165, 3, 0.721086
90, 2, wb, attraction, a-b-da, 14, 1, 5, 17, 125, 56, 60, 135, 135, 60, 1, 2.90599
90, 2, wb, attraction, a-b-da, 14, 1, 5, 17, 125, 56, 60, 135, 135, 60, 2, 0.923876
90, 2, wb, attraction, a-b-db, 9, 3, 5, 18, 120, 195, 114, 186, 195, 120, 2, 1.89214
90, 2, wb, attraction, a-b-db, 9, 3, 5, 18, 120, 195, 114, 186, 195, 120, 3, 0.822833
90, 2, wb, filler, NA, 999, 999, 5, 19, 131, 167, 167, 118, 128, 191, 2, 3.61118
90, 2, wb, filler, NA, 999, 999, 5, 19, 131, 167, 167, 118, 128, 191, 3, 0.576745
90, 2, wb, filler, NA, 999, 999, 5, 20, 128, 123, 95, 138, 180, 133, 2, 1.51908
90, 2, wb, filler, NA, 999, 999, 5, 20, 128, 123, 95, 138, 180, 133, 3, 0.68929
90, 2, wb, attraction, a-b-db, 2, 3, 5, 21, 195, 120, 120, 195, 119, 193, 1, 2.4517
90, 2, wb, attraction, a-b-db, 2, 3, 5, 21, 195, 120, 120, 195, 119, 193, 3, 1.15222
90, 2, wb, filler, NA, 999, 999, 5, 22, 154, 192, 139, 175, 158, 93, 3, 1.30391
90, 2, wb, filler, NA, 999, 999, 5, 22, 154, 192, 139, 175, 158, 93, 1, 0.578644
90, 2, wb, catch, NA, 999, 999, 5, 23, 132, 183, 69, 126, 112, 143, 2, 0.873072
90, 2, wb, catch, NA, 999, 999, 5, 23, 132, 183, 69, 126, 112, 143, 1, 0.533045
90, 2, wb, attraction, a-b-da, 14, 2, 5, 24, 90, 165, 165, 90, 153, 83, 3, 2.72537
90, 2, wb, attraction, a-b-da, 14, 2, 5, 24, 90, 165, 165, 90, 153, 83, 1, 0.646312
90, 2, wb, attraction, a-b-da, 5, 3, 5, 25, 190, 117, 195, 120, 120, 195, 2, 1.53807
90, 2, wb, attraction, a-b-da, 5, 3, 5, 25, 190, 117, 195, 120, 120, 195, 1, 0.859081
90, 2, wb, attraction, a-b-db, 5, 1, 5, 26, 135, 60, 58, 132, 60, 135, 2, 4.84596
90, 2, wb, attraction, a-b-db, 5, 1, 5, 26, 135, 60, 58, 132, 60, 135, 3, 1.38588
90, 2, wb, attraction, a-b-db, 2, 1, 5, 27, 135, 60, 60, 135, 59, 134, 3, 6.08799
90, 2, wb, attraction, a-b-db, 2, 1, 5, 27, 135, 60, 60, 135, 59, 134, 1, 1.36203
90, 2, wb, attraction, a-b-da, 5, 1, 5, 28, 135, 60, 60, 135, 132, 58, 1, 2.54503
90, 2, wb, attraction, a-b-da, 5, 1, 5, 28, 135, 60, 60, 135, 132, 58, 2, 4.57779
90, 2, wb, catch, NA, 999, 999, 5, 29, 111, 144, 190, 125, 124, 71, 3, 1.00655
90, 2, wb, catch, NA, 999, 999, 5, 29, 111, 144, 190, 125, 124, 71, 2, 1.49293
90, 2, wb, attraction, a-b-db, 5, 3, 5, 30, 120, 195, 117, 190, 195, 120, 2, 2.16641
90, 2, wb, attraction, a-b-db, 5, 3, 5, 30, 120, 195, 117, 190, 195, 120, 3, 0.638247
90, 2, wb, filler, NA, 999, 999, 5, 31, 167, 158, 71, 74, 168, 107, 2, 1.16268
90, 2, wb, filler, NA, 999, 999, 5, 31, 167, 158, 71, 74, 168, 107, 1, 0.770973
90, 2, wb, attraction, a-b-da, 9, 1, 5, 32, 129, 57, 135, 60, 60, 135, 1, 2.60201
90, 2, wb, attraction, a-b-da, 9, 1, 5, 32, 129, 57, 135, 60, 60, 135, 3, 1.52054
90, 2, wb, filler, NA, 999, 999, 5, 33, 74, 159, 117, 173, 108, 194, 1, 1.08142
90, 2, wb, filler, NA, 999, 999, 5, 33, 74, 159, 117, 173, 108, 194, 3, 2.23701
90, 2, wb, attraction, a-b-da, 2, 2, 5, 34, 90, 165, 163, 89, 165, 90, 2, 2.41694
90, 2, wb, attraction, a-b-da, 2, 2, 5, 34, 90, 165, 163, 89, 165, 90, 3, 0.934778
90, 2, wb, attraction, a-b-da, 2, 1, 5, 35, 135, 60, 134, 59, 60, 135, 2, 1.67111
90, 2, wb, attraction, a-b-da, 2, 1, 5, 35, 135, 60, 134, 59, 60, 135, 3, 4.51461
90, 2, wb, filler, NA, 999, 999, 5, 36, 189, 106, 99, 101, 91, 166, 2, 4.22638
90, 2, wb, filler, NA, 999, 999, 5, 36, 189, 106, 99, 101, 91, 166, 1, 0.623147
90, 2, wb, attraction, a-b-db, 9, 1, 5, 37, 57, 129, 60, 135, 135, 60, 1, 1.20343
90, 2, wb, attraction, a-b-db, 9, 1, 5, 37, 57, 129, 60, 135, 135, 60, 3, 1.01774
90, 2, wb, filler, NA, 999, 999, 6, 1, 107, 86, 108, 103, 67, 115, 1, 6.80662
90, 2, wb, filler, NA, 999, 999, 6, 1, 107, 86, 108, 103, 67, 115, 2, 1.2514
90, 2, wb, attraction, a-b-db, 2, 3, 6, 2, 120, 195, 119, 193, 195, 120, 1, 1.19075
90, 2, wb, attraction, a-b-db, 2, 3, 6, 2, 120, 195, 119, 193, 195, 120, 3, 0.613654
90, 2, wb, attraction, a-b-da, 9, 2, 6, 3, 90, 165, 165, 90, 157, 86, 3, 3.0108
90, 2, wb, attraction, a-b-da, 9, 2, 6, 3, 90, 165, 165, 90, 157, 86, 2, 0.608479
90, 2, wb, attraction, a-b-da, 2, 2, 6, 4, 163, 89, 165, 90, 90, 165, 1, 2.42142
90, 2, wb, attraction, a-b-da, 2, 2, 6, 4, 163, 89, 165, 90, 90, 165, 2, 0.786704
90, 2, wb, attraction, a-b-db, 5, 1, 6, 5, 60, 135, 135, 60, 58, 132, 2, 5.39303
90, 2, wb, attraction, a-b-db, 5, 1, 6, 5, 60, 135, 135, 60, 58, 132, 3, 0.798814
90, 2, wb, attraction, a-b-da, 14, 3, 6, 6, 195, 120, 181, 111, 120, 195, 2, 1.69256
90, 2, wb, attraction, a-b-da, 14, 3, 6, 6, 195, 120, 181, 111, 120, 195, 3, 0.631215
90, 2, wb, filler, NA, 999, 999, 6, 7, 120, 148, 100, 93, 88, 179, 2, 1.29963
90, 2, wb, filler, NA, 999, 999, 6, 7, 120, 148, 100, 93, 88, 179, 1, 1.80649
90, 2, wb, filler, NA, 999, 999, 6, 8, 137, 124, 157, 78, 138, 88, 3, 6.76321
90, 2, wb, filler, NA, 999, 999, 6, 8, 137, 124, 157, 78, 138, 88, 1, 0.801695
90, 2, wb, attraction, a-b-db, 9, 2, 6, 9, 165, 90, 90, 165, 86, 157, 3, 1.10343
90, 2, wb, attraction, a-b-db, 9, 2, 6, 9, 165, 90, 90, 165, 86, 157, 1, 1.35442
90, 2, wb, catch, NA, 999, 999, 6, 10, 129, 66, 120, 135, 121, 194, 1, 1.12186
90, 2, wb, catch, NA, 999, 999, 6, 10, 129, 66, 120, 135, 121, 194, 3, 0.57156
90, 2, wb, attraction, a-b-db, 9, 3, 6, 11, 120, 195, 114, 186, 195, 120, 2, 2.56279
90, 2, wb, attraction, a-b-db, 9, 3, 6, 11, 120, 195, 114, 186, 195, 120, 3, 0.858515
90, 2, wb, attraction, a-b-da, 14, 1, 6, 12, 135, 60, 125, 56, 60, 135, 2, 0.957478
90, 2, wb, attraction, a-b-da, 14, 1, 6, 12, 135, 60, 125, 56, 60, 135, 3, 0.661813
90, 2, wb, attraction, a-b-da, 5, 3, 6, 13, 190, 117, 195, 120, 120, 195, 2, 2.31291
90, 2, wb, attraction, a-b-da, 5, 3, 6, 13, 190, 117, 195, 120, 120, 195, 3, 0.506867
90, 2, wb, attraction, a-b-db, 5, 3, 6, 14, 120, 195, 195, 120, 117, 190, 2, 3.16387
90, 2, wb, attraction, a-b-db, 5, 3, 6, 14, 120, 195, 195, 120, 117, 190, 3, 0.579708
90, 2, wb, filler, NA, 999, 999, 6, 15, 117, 113, 160, 151, 96, 80, 3, 1.35403
90, 2, wb, filler, NA, 999, 999, 6, 15, 117, 113, 160, 151, 96, 80, 2, 0.427085
90, 2, wb, attraction, a-b-db, 14, 1, 6, 16, 135, 60, 60, 135, 56, 125, 3, 1.43138
90, 2, wb, attraction, a-b-db, 14, 1, 6, 16, 135, 60, 60, 135, 56, 125, 1, 0.636906
90, 2, wb, attraction, a-b-da, 2, 3, 6, 17, 195, 120, 193, 119, 120, 195, 1, 4.19324
90, 2, wb, attraction, a-b-da, 2, 3, 6, 17, 195, 120, 193, 119, 120, 195, 3, 0.599246
90, 2, wb, filler, NA, 999, 999, 6, 18, 103, 166, 85, 75, 115, 179, 2, 1.06105
90, 2, wb, filler, NA, 999, 999, 6, 18, 103, 166, 85, 75, 115, 179, 3, 0.577347
90, 2, wb, attraction, a-b-da, 5, 2, 6, 19, 90, 165, 161, 88, 165, 90, 2, 1.32787
90, 2, wb, attraction, a-b-da, 5, 2, 6, 19, 90, 165, 161, 88, 165, 90, 3, 0.745377
90, 2, wb, attraction, a-b-db, 14, 2, 6, 20, 165, 90, 90, 165, 83, 153, 3, 1.70523
90, 2, wb, attraction, a-b-db, 14, 2, 6, 20, 165, 90, 90, 165, 83, 153, 2, 0.803165
90, 2, wb, attraction, a-b-da, 5, 1, 6, 21, 135, 60, 132, 58, 60, 135, 2, 2.04083
90, 2, wb, attraction, a-b-da, 5, 1, 6, 21, 135, 60, 132, 58, 60, 135, 3, 0.797493
90, 2, wb, attraction, a-b-db, 9, 1, 6, 22, 57, 129, 135, 60, 60, 135, 2, 3.89126
90, 2, wb, attraction, a-b-db, 9, 1, 6, 22, 57, 129, 135, 60, 60, 135, 3, 0.94143
90, 2, wb, attraction, a-b-da, 14, 2, 6, 23, 90, 165, 165, 90, 153, 83, 3, 1.34898
90, 2, wb, attraction, a-b-da, 14, 2, 6, 23, 90, 165, 165, 90, 153, 83, 1, 0.637772
90, 2, wb, filler, NA, 999, 999, 6, 24, 71, 190, 137, 165, 174, 87, 1, 1.57027
90, 2, wb, filler, NA, 999, 999, 6, 24, 71, 190, 137, 165, 174, 87, 2, 0.48248
90, 2, wb, attraction, a-b-da, 9, 1, 6, 25, 135, 60, 129, 57, 60, 135, 2, 1.5249
90, 2, wb, attraction, a-b-da, 9, 1, 6, 25, 135, 60, 129, 57, 60, 135, 3, 0.822343
90, 2, wb, catch, NA, 999, 999, 6, 26, 123, 72, 133, 122, 127, 188, 1, 0.947387
90, 2, wb, catch, NA, 999, 999, 6, 26, 123, 72, 133, 122, 127, 188, 3, 0.444427
90, 2, wb, attraction, a-b-db, 14, 3, 6, 27, 111, 181, 120, 195, 195, 120, 1, 1.4242
90, 2, wb, attraction, a-b-db, 14, 3, 6, 27, 111, 181, 120, 195, 195, 120, 3, 0.581712
90, 2, wb, attraction, a-b-db, 2, 1, 6, 28, 135, 60, 60, 135, 59, 134, 1, 3.07613
90, 2, wb, attraction, a-b-db, 2, 1, 6, 28, 135, 60, 60, 135, 59, 134, 3, 0.559264
90, 2, wb, catch, NA, 999, 999, 6, 29, 128, 127, 183, 132, 84, 111, 3, 1.59028
90, 2, wb, catch, NA, 999, 999, 6, 29, 128, 127, 183, 132, 84, 111, 2, 0.733055
90, 2, wb, filler, NA, 999, 999, 6, 30, 141, 82, 93, 82, 107, 136, 2, 1.62143
90, 2, wb, filler, NA, 999, 999, 6, 30, 141, 82, 93, 82, 107, 136, 3, 0.458883
90, 2, wb, attraction, a-b-da, 2, 1, 6, 31, 60, 135, 134, 59, 135, 60, 1, 2.77397
90, 2, wb, attraction, a-b-da, 2, 1, 6, 31, 60, 135, 134, 59, 135, 60, 3, 1.22922
90, 2, wb, filler, NA, 999, 999, 6, 32, 127, 123, 139, 108, 84, 174, 2, 5.00932
90, 2, wb, filler, NA, 999, 999, 6, 32, 127, 123, 139, 108, 84, 174, 1, 4.43844
90, 2, wb, attraction, a-b-db, 5, 2, 6, 33, 90, 165, 165, 90, 88, 161, 2, 2.34567
90, 2, wb, attraction, a-b-db, 5, 2, 6, 33, 90, 165, 165, 90, 88, 161, 1, 0.610247
90, 2, wb, attraction, a-b-da, 9, 3, 6, 34, 195, 120, 186, 114, 120, 195, 2, 1.71138
90, 2, wb, attraction, a-b-da, 9, 3, 6, 34, 195, 120, 186, 114, 120, 195, 3, 0.833364
90, 2, wb, filler, NA, 999, 999, 6, 35, 116, 108, 136, 191, 111, 172, 1, 0.717861
90, 2, wb, filler, NA, 999, 999, 6, 35, 116, 108, 136, 191, 111, 172, 2, 0.432156
90, 2, wb, filler, NA, 999, 999, 6, 36, 184, 82, 99, 128, 79, 153, 2, 6.0526
90, 2, wb, filler, NA, 999, 999, 6, 36, 184, 82, 99, 128, 79, 153, 1, 1.70404
90, 2, wb, attraction, a-b-db, 2, 2, 6, 37, 90, 165, 89, 163, 165, 90, 1, 1.84157
90, 2, wb, attraction, a-b-db, 2, 2, 6, 37, 90, 165, 89, 163, 165, 90, 3, 0.430315
90, 2, wb, attraction, a-b-db, 5, 2, 7, 1, 165, 90, 88, 161, 90, 165, 2, 1.57872
90, 2, wb, attraction, a-b-db, 5, 2, 7, 1, 165, 90, 88, 161, 90, 165, 1, 1.61824
90, 2, wb, attraction, a-b-da, 2, 3, 7, 2, 195, 120, 193, 119, 120, 195, 1, 1.47889
90, 2, wb, attraction, a-b-da, 2, 3, 7, 2, 195, 120, 193, 119, 120, 195, 3, 0.850474
90, 2, wb, attraction, a-b-db, 9, 1, 7, 3, 57, 129, 135, 60, 60, 135, 2, 1.1661
90, 2, wb, attraction, a-b-db, 9, 1, 7, 3, 57, 129, 135, 60, 60, 135, 3, 0.710389
90, 2, wb, catch, NA, 999, 999, 7, 4, 112, 143, 110, 85, 184, 131, 2, 0.815454
90, 2, wb, catch, NA, 999, 999, 7, 4, 112, 143, 110, 85, 184, 131, 3, 0.717833
90, 2, wb, attraction, a-b-db, 14, 3, 7, 5, 195, 120, 111, 181, 120, 195, 2, 2.0389
90, 2, wb, attraction, a-b-db, 14, 3, 7, 5, 195, 120, 111, 181, 120, 195, 3, 1.05962
90, 2, wb, catch, NA, 999, 999, 7, 6, 178, 137, 125, 130, 125, 70, 3, 1.95848
90, 2, wb, catch, NA, 999, 999, 7, 6, 178, 137, 125, 130, 125, 70, 1, 0.694605
90, 2, wb, filler, NA, 999, 999, 7, 7, 192, 100, 106, 192, 188, 194, 2, 1.9043
90, 2, wb, filler, NA, 999, 999, 7, 7, 192, 100, 106, 192, 188, 194, 3, 0.66638
90, 2, wb, attraction, a-b-da, 14, 3, 7, 8, 181, 111, 195, 120, 120, 195, 1, 2.78143
90, 2, wb, attraction, a-b-da, 14, 3, 7, 8, 181, 111, 195, 120, 120, 195, 3, 0.820455
90, 2, wb, attraction, a-b-da, 2, 2, 7, 9, 165, 90, 90, 165, 163, 89, 1, 2.91345
90, 2, wb, attraction, a-b-da, 2, 2, 7, 9, 165, 90, 90, 165, 163, 89, 2, 3.42717
90, 2, wb, filler, NA, 999, 999, 7, 10, 178, 62, 123, 166, 136, 57, 3, 4.66265
90, 2, wb, filler, NA, 999, 999, 7, 10, 178, 62, 123, 166, 136, 57, 2, 0.905999
90, 2, wb, attraction, a-b-db, 9, 3, 7, 11, 114, 186, 120, 195, 195, 120, 1, 4.49159
90, 2, wb, attraction, a-b-db, 9, 3, 7, 11, 114, 186, 120, 195, 195, 120, 3, 1.26945
90, 2, wb, attraction, a-b-da, 5, 3, 7, 12, 120, 195, 195, 120, 190, 117, 2, 3.06435
90, 2, wb, attraction, a-b-da, 5, 3, 7, 12, 120, 195, 195, 120, 190, 117, 1, 0.660165
90, 2, wb, attraction, a-b-db, 5, 1, 7, 13, 58, 132, 135, 60, 60, 135, 1, 1.68712
90, 2, wb, attraction, a-b-db, 5, 1, 7, 13, 58, 132, 135, 60, 60, 135, 3, 0.866662
90, 2, wb, catch, NA, 999, 999, 7, 14, 97, 158, 124, 191, 81, 114, 3, 1.02153
90, 2, wb, catch, NA, 999, 999, 7, 14, 97, 158, 124, 191, 81, 114, 2, 0.51517
90, 2, wb, attraction, a-b-da, 5, 2, 7, 15, 165, 90, 90, 165, 161, 88, 1, 2.22833
90, 2, wb, attraction, a-b-da, 5, 2, 7, 15, 165, 90, 90, 165, 161, 88, 2, 0.505611
90, 2, wb, attraction, a-b-db, 2, 1, 7, 16, 135, 60, 59, 134, 60, 135, 1, 2.77939
90, 2, wb, attraction, a-b-db, 2, 1, 7, 16, 135, 60, 59, 134, 60, 135, 3, 0.642499
90, 2, wb, filler, NA, 999, 999, 7, 17, 161, 167, 142, 157, 164, 190, 2, 1.20629
90, 2, wb, filler, NA, 999, 999, 7, 17, 161, 167, 142, 157, 164, 190, 3, 0.508582
90, 2, wb, filler, NA, 999, 999, 7, 18, 99, 112, 155, 78, 72, 180, 2, 4.99764
90, 2, wb, filler, NA, 999, 999, 7, 18, 99, 112, 155, 78, 72, 180, 1, 4.36342
90, 2, wb, attraction, a-b-db, 5, 3, 7, 19, 120, 195, 117, 190, 195, 120, 1, 1.71326
90, 2, wb, attraction, a-b-db, 5, 3, 7, 19, 120, 195, 117, 190, 195, 120, 3, 0.499358
90, 2, wb, filler, NA, 999, 999, 7, 20, 120, 123, 177, 69, 118, 121, 2, 3.2532
90, 2, wb, filler, NA, 999, 999, 7, 20, 120, 123, 177, 69, 118, 121, 3, 0.745411
90, 2, wb, attraction, a-b-da, 9, 3, 7, 21, 186, 114, 120, 195, 195, 120, 1, 0.862229
90, 2, wb, attraction, a-b-da, 9, 3, 7, 21, 186, 114, 120, 195, 195, 120, 2, 0.565531
90, 2, wb, attraction, a-b-db, 9, 2, 7, 22, 90, 165, 165, 90, 86, 157, 2, 0.828601
90, 2, wb, attraction, a-b-db, 9, 2, 7, 22, 90, 165, 165, 90, 86, 157, 3, 0.426301
90, 2, wb, attraction, a-b-db, 14, 1, 7, 23, 60, 135, 135, 60, 56, 125, 2, 0.894835
90, 2, wb, attraction, a-b-db, 14, 1, 7, 23, 60, 135, 135, 60, 56, 125, 1, 0.561813
90, 2, wb, attraction, a-b-da, 14, 1, 7, 24, 60, 135, 125, 56, 135, 60, 2, 1.60087
90, 2, wb, attraction, a-b-da, 14, 1, 7, 24, 60, 135, 125, 56, 135, 60, 3, 6.45577
90, 2, wb, attraction, a-b-db, 2, 3, 7, 25, 120, 195, 195, 120, 119, 193, 2, 2.72974
90, 2, wb, attraction, a-b-db, 2, 3, 7, 25, 120, 195, 195, 120, 119, 193, 3, 0.835264
90, 2, wb, attraction, a-b-da, 14, 2, 7, 26, 165, 90, 153, 83, 90, 165, 2, 1.13512
90, 2, wb, attraction, a-b-da, 14, 2, 7, 26, 165, 90, 153, 83, 90, 165, 3, 0.704772
90, 2, wb, attraction, a-b-da, 5, 1, 7, 27, 132, 58, 60, 135, 135, 60, 1, 1.29844
90, 2, wb, attraction, a-b-da, 5, 1, 7, 27, 132, 58, 60, 135, 135, 60, 2, 0.629403
90, 2, wb, filler, NA, 999, 999, 7, 28, 151, 150, 171, 194, 174, 188, 1, 0.85777
90, 2, wb, filler, NA, 999, 999, 7, 28, 151, 150, 171, 194, 174, 188, 2, 0.438184
90, 2, wb, attraction, a-b-db, 2, 2, 7, 29, 165, 90, 90, 165, 89, 163, 1, 1.67469
90, 2, wb, attraction, a-b-db, 2, 2, 7, 29, 165, 90, 90, 165, 89, 163, 2, 0.526082
90, 2, wb, filler, NA, 999, 999, 7, 30, 90, 105, 186, 163, 95, 115, 1, 0.894624
90, 2, wb, filler, NA, 999, 999, 7, 30, 90, 105, 186, 163, 95, 115, 2, 0.577544
90, 2, wb, filler, NA, 999, 999, 7, 31, 188, 188, 194, 70, 82, 115, 3, 0.863942
90, 2, wb, filler, NA, 999, 999, 7, 31, 188, 188, 194, 70, 82, 115, 1, 0.508385
90, 2, wb, attraction, a-b-db, 14, 2, 7, 32, 90, 165, 83, 153, 165, 90, 2, 1.67749
90, 2, wb, attraction, a-b-db, 14, 2, 7, 32, 90, 165, 83, 153, 165, 90, 3, 0.536985
90, 2, wb, attraction, a-b-da, 9, 2, 7, 33, 90, 165, 157, 86, 165, 90, 2, 3.20945
90, 2, wb, attraction, a-b-da, 9, 2, 7, 33, 90, 165, 157, 86, 165, 90, 3, 0.798968
90, 2, wb, attraction, a-b-da, 9, 1, 7, 34, 135, 60, 60, 135, 129, 57, 3, 1.18079
90, 2, wb, attraction, a-b-da, 9, 1, 7, 34, 135, 60, 60, 135, 129, 57, 2, 0.532205
90, 2, wb, filler, NA, 999, 999, 7, 35, 194, 152, 105, 90, 74, 132, 3, 1.99683
90, 2, wb, filler, NA, 999, 999, 7, 35, 194, 152, 105, 90, 74, 132, 1, 0.467409
90, 2, wb, filler, NA, 999, 999, 7, 36, 97, 159, 126, 180, 107, 87, 3, 0.918551
90, 2, wb, filler, NA, 999, 999, 7, 36, 97, 159, 126, 180, 107, 87, 2, 0.576953
90, 2, wb, attraction, a-b-da, 2, 1, 7, 37, 135, 60, 134, 59, 60, 135, 2, 1.52724
90, 2, wb, attraction, a-b-da, 2, 1, 7, 37, 135, 60, 134, 59, 60, 135, 3, 0.568798
90, 2, wb, attraction, a-b-da, 5, 3, 8, 1, 120, 195, 195, 120, 190, 117, 2, 2.82386
90, 2, wb, attraction, a-b-da, 5, 3, 8, 1, 120, 195, 195, 120, 190, 117, 3, 0.493115
90, 2, wb, attraction, a-b-da, 2, 3, 8, 2, 195, 120, 193, 119, 120, 195, 2, 1.96681
90, 2, wb, attraction, a-b-da, 2, 3, 8, 2, 195, 120, 193, 119, 120, 195, 3, 0.446817
90, 2, wb, filler, NA, 999, 999, 8, 3, 172, 189, 122, 122, 83, 170, 3, 1.54658
90, 2, wb, filler, NA, 999, 999, 8, 3, 172, 189, 122, 122, 83, 170, 1, 0.491444
90, 2, wb, filler, NA, 999, 999, 8, 4, 139, 158, 134, 79, 126, 152, 2, 1.06126
90, 2, wb, filler, NA, 999, 999, 8, 4, 139, 158, 134, 79, 126, 152, 1, 0.753491
90, 2, wb, catch, NA, 999, 999, 8, 5, 120, 195, 149, 106, 128, 67, 3, 0.713375
90, 2, wb, catch, NA, 999, 999, 8, 5, 120, 195, 149, 106, 128, 67, 1, 0.547607
90, 2, wb, attraction, a-b-da, 14, 1, 8, 6, 135, 60, 60, 135, 125, 56, 3, 1.49141
90, 2, wb, attraction, a-b-da, 14, 1, 8, 6, 135, 60, 60, 135, 125, 56, 1, 0.766323
90, 2, wb, attraction, a-b-db, 9, 1, 8, 7, 57, 129, 60, 135, 135, 60, 1, 1.86936
90, 2, wb, attraction, a-b-db, 9, 1, 8, 7, 57, 129, 60, 135, 135, 60, 3, 0.617415
90, 2, wb, attraction, a-b-db, 2, 1, 8, 8, 135, 60, 59, 134, 60, 135, 2, 2.16646
90, 2, wb, attraction, a-b-db, 2, 1, 8, 8, 135, 60, 59, 134, 60, 135, 1, 0.726533
90, 2, wb, attraction, a-b-da, 14, 3, 8, 9, 120, 195, 181, 111, 195, 120, 2, 2.07878
90, 2, wb, attraction, a-b-da, 14, 3, 8, 9, 120, 195, 181, 111, 195, 120, 3, 0.650075
90, 2, wb, catch, NA, 999, 999, 8, 10, 152, 103, 119, 76, 163, 152, 2, 0.733873
90, 2, wb, catch, NA, 999, 999, 8, 10, 152, 103, 119, 76, 163, 152, 3, 0.455569
90, 2, wb, attraction, a-b-da, 14, 2, 8, 11, 90, 165, 165, 90, 153, 83, 3, 1.09936
90, 2, wb, attraction, a-b-da, 14, 2, 8, 11, 90, 165, 165, 90, 153, 83, 2, 0.798296
90, 2, wb, attraction, a-b-da, 5, 1, 8, 12, 132, 58, 135, 60, 60, 135, 2, 2.09202
90, 2, wb, attraction, a-b-da, 5, 1, 8, 12, 132, 58, 135, 60, 60, 135, 3, 1.12673
90, 2, wb, attraction, a-b-db, 9, 3, 8, 13, 195, 120, 114, 186, 120, 195, 2, 2.03097
90, 2, wb, attraction, a-b-db, 9, 3, 8, 13, 195, 120, 114, 186, 120, 195, 1, 0.572315
90, 2, wb, attraction, a-b-db, 5, 1, 8, 14, 60, 135, 135, 60, 58, 132, 1, 1.1234
90, 2, wb, attraction, a-b-db, 5, 1, 8, 14, 60, 135, 135, 60, 58, 132, 3, 0.629136
90, 2, wb, attraction, a-b-db, 5, 3, 8, 15, 117, 190, 195, 120, 120, 195, 1, 1.12955
90, 2, wb, attraction, a-b-db, 5, 3, 8, 15, 117, 190, 195, 120, 120, 195, 3, 0.659242
90, 2, wb, filler, NA, 999, 999, 8, 16, 187, 134, 136, 106, 183, 174, 2, 0.94215
90, 2, wb, filler, NA, 999, 999, 8, 16, 187, 134, 136, 106, 183, 174, 3, 0.887152
90, 2, wb, attraction, a-b-da, 9, 1, 8, 17, 135, 60, 60, 135, 129, 57, 3, 2.75349
90, 2, wb, attraction, a-b-da, 9, 1, 8, 17, 135, 60, 60, 135, 129, 57, 2, 0.985287
90, 2, wb, filler, NA, 999, 999, 8, 18, 132, 116, 195, 87, 58, 74, 3, 11.1915
90, 2, wb, filler, NA, 999, 999, 8, 18, 132, 116, 195, 87, 58, 74, 1, 2.08334
90, 2, wb, attraction, a-b-db, 5, 2, 8, 19, 165, 90, 88, 161, 90, 165, 1, 6.80527
90, 2, wb, attraction, a-b-db, 5, 2, 8, 19, 165, 90, 88, 161, 90, 165, 3, 0.506489
90, 2, wb, attraction, a-b-da, 9, 2, 8, 20, 165, 90, 90, 165, 157, 86, 3, 1.61165
90, 2, wb, attraction, a-b-da, 9, 2, 8, 20, 165, 90, 90, 165, 157, 86, 2, 1.03376
90, 2, wb, attraction, a-b-db, 2, 2, 8, 21, 165, 90, 89, 163, 90, 165, 1, 2.5501
90, 2, wb, attraction, a-b-db, 2, 2, 8, 21, 165, 90, 89, 163, 90, 165, 3, 0.470495
90, 2, wb, attraction, a-b-da, 2, 2, 8, 22, 163, 89, 90, 165, 165, 90, 1, 1.4817
90, 2, wb, attraction, a-b-da, 2, 2, 8, 22, 163, 89, 90, 165, 165, 90, 3, 0.597208
90, 2, wb, attraction, a-b-db, 14, 1, 8, 23, 135, 60, 60, 135, 56, 125, 3, 1.66698
90, 2, wb, attraction, a-b-db, 14, 1, 8, 23, 135, 60, 60, 135, 56, 125, 1, 0.991227
90, 2, wb, attraction, a-b-db, 2, 3, 8, 24, 195, 120, 119, 193, 120, 195, 2, 1.47675
90, 2, wb, attraction, a-b-db, 2, 3, 8, 24, 195, 120, 119, 193, 120, 195, 1, 0.480232
90, 2, wb, attraction, a-b-db, 14, 3, 8, 25, 120, 195, 195, 120, 111, 181, 3, 1.12267
90, 2, wb, attraction, a-b-db, 14, 3, 8, 25, 120, 195, 195, 120, 111, 181, 2, 0.532255
90, 2, wb, filler, NA, 999, 999, 8, 26, 57, 121, 67, 164, 109, 168, 1, 0.844683
90, 2, wb, filler, NA, 999, 999, 8, 26, 57, 121, 67, 164, 109, 168, 3, 0.481718
90, 2, wb, attraction, a-b-db, 9, 2, 8, 27, 165, 90, 90, 165, 86, 157, 3, 2.93222
90, 2, wb, attraction, a-b-db, 9, 2, 8, 27, 165, 90, 90, 165, 86, 157, 1, 0.813255
90, 2, wb, filler, NA, 999, 999, 8, 28, 77, 144, 84, 179, 131, 156, 1, 0.738352
90, 2, wb, filler, NA, 999, 999, 8, 28, 77, 144, 84, 179, 131, 156, 3, 0.475451
90, 2, wb, attraction, a-b-da, 5, 2, 8, 29, 165, 90, 161, 88, 90, 165, 2, 0.845941
90, 2, wb, attraction, a-b-da, 5, 2, 8, 29, 165, 90, 161, 88, 90, 165, 3, 1.60289
90, 2, wb, attraction, a-b-db, 14, 2, 8, 30, 165, 90, 90, 165, 83, 153, 3, 0.96033
90, 2, wb, attraction, a-b-db, 14, 2, 8, 30, 165, 90, 90, 165, 83, 153, 1, 1.52867
90, 2, wb, attraction, a-b-da, 2, 1, 8, 31, 135, 60, 60, 135, 134, 59, 2, 3.12868
90, 2, wb, attraction, a-b-da, 2, 1, 8, 31, 135, 60, 60, 135, 134, 59, 3, 1.4178
90, 2, wb, filler, NA, 999, 999, 8, 32, 168, 147, 150, 101, 184, 185, 2, 0.718738
90, 2, wb, filler, NA, 999, 999, 8, 32, 168, 147, 150, 101, 184, 185, 3, 0.441001
90, 2, wb, catch, NA, 999, 999, 8, 33, 161, 154, 115, 140, 88, 107, 3, 0.668895
90, 2, wb, catch, NA, 999, 999, 8, 33, 161, 154, 115, 140, 88, 107, 1, 0.681243
90, 2, wb, filler, NA, 999, 999, 8, 34, 64, 118, 57, 162, 75, 119, 2, 3.76364
90, 2, wb, filler, NA, 999, 999, 8, 34, 64, 118, 57, 162, 75, 119, 3, 1.29118
90, 2, wb, filler, NA, 999, 999, 8, 35, 107, 86, 68, 183, 89, 124, 1, 1.34066
90, 2, wb, filler, NA, 999, 999, 8, 35, 107, 86, 68, 183, 89, 124, 3, 2.18163
90, 2, wb, attraction, a-b-da, 9, 3, 8, 36, 186, 114, 195, 120, 120, 195, 3, 1.9555
90, 2, wb, attraction, a-b-da, 9, 3, 8, 36, 186, 114, 195, 120, 120, 195, 1, 0.611508
90, 2, wb, filler, NA, 999, 999, 8, 37, 135, 94, 131, 141, 171, 70, 3, 2.34467
90, 2, wb, filler, NA, 999, 999, 8, 37, 135, 94, 131, 141, 171, 70, 2, 2.84118
