sub_n, computer_n, bw_cond, effect, set, distance, diag, block_n, trial_n, h1, w1, h2, w2, h3, w3, choice, rt 
95, 2, bw, practice, NA, 999, 999, 0, 1, 171, 139, 130, 161, 194, 138, 3, 4.42826
95, 2, bw, practice, NA, 999, 999, 0, 1, 171, 139, 130, 161, 194, 138, 2, 5.48055
95, 2, bw, practice, NA, 999, 999, 0, 2, 163, 74, 174, 193, 127, 102, 2, 2.24447
95, 2, bw, practice, NA, 999, 999, 0, 2, 163, 74, 174, 193, 127, 102, 1, 6.15564
95, 2, bw, practice, NA, 999, 999, 0, 3, 155, 185, 95, 156, 84, 104, 1, 1.85438
95, 2, bw, practice, NA, 999, 999, 0, 3, 155, 185, 95, 156, 84, 104, 3, 1.43346
95, 2, bw, attraction, a-b-db, 14, 2, 1, 1, 165, 90, 90, 165, 83, 153, 2, 21.2455
95, 2, bw, attraction, a-b-db, 14, 2, 1, 1, 165, 90, 90, 165, 83, 153, 3, 3.77219
95, 2, bw, attraction, a-b-db, 9, 2, 1, 2, 86, 157, 165, 90, 90, 165, 3, 34.8502
95, 2, bw, attraction, a-b-db, 9, 2, 1, 2, 86, 157, 165, 90, 90, 165, 1, 1.0766
95, 2, bw, attraction, a-b-db, 2, 1, 1, 3, 60, 135, 135, 60, 59, 134, 3, 32.7029
95, 2, bw, attraction, a-b-db, 2, 1, 1, 3, 60, 135, 135, 60, 59, 134, 2, 0.799981
95, 2, bw, filler, NA, 999, 999, 1, 4, 183, 144, 119, 157, 132, 93, 1, 3.91772
95, 2, bw, filler, NA, 999, 999, 1, 4, 183, 144, 119, 157, 132, 93, 3, 1.19118
95, 2, bw, attraction, a-b-db, 2, 3, 1, 5, 120, 195, 119, 193, 195, 120, 1, 25.3887
95, 2, bw, attraction, a-b-db, 2, 3, 1, 5, 120, 195, 119, 193, 195, 120, 3, 0.668699
95, 2, bw, catch, NA, 999, 999, 1, 6, 132, 123, 152, 163, 96, 99, 2, 2.83184
95, 2, bw, catch, NA, 999, 999, 1, 6, 132, 123, 152, 163, 96, 99, 3, 0.90902
95, 2, bw, filler, NA, 999, 999, 1, 7, 115, 81, 98, 102, 123, 64, 2, 25.7898
95, 2, bw, filler, NA, 999, 999, 1, 7, 115, 81, 98, 102, 123, 64, 3, 9.34183
95, 2, bw, attraction, a-b-da, 2, 2, 1, 8, 90, 165, 163, 89, 165, 90, 1, 6.26746
95, 2, bw, attraction, a-b-da, 2, 2, 1, 8, 90, 165, 163, 89, 165, 90, 2, 5.51815
95, 2, bw, filler, NA, 999, 999, 1, 9, 68, 153, 148, 71, 78, 136, 3, 14.7898
95, 2, bw, filler, NA, 999, 999, 1, 9, 68, 153, 148, 71, 78, 136, 1, 0.825167
95, 2, bw, filler, NA, 999, 999, 1, 10, 97, 126, 195, 152, 102, 195, 2, 2.66136
95, 2, bw, filler, NA, 999, 999, 1, 10, 97, 126, 195, 152, 102, 195, 1, 0.809263
95, 2, bw, attraction, a-b-da, 5, 2, 1, 11, 161, 88, 90, 165, 165, 90, 2, 16.9503
95, 2, bw, attraction, a-b-da, 5, 2, 1, 11, 161, 88, 90, 165, 165, 90, 1, 0.72227
95, 2, bw, filler, NA, 999, 999, 1, 12, 184, 119, 161, 186, 183, 192, 3, 5.28347
95, 2, bw, filler, NA, 999, 999, 1, 12, 184, 119, 161, 186, 183, 192, 1, 0.789702
95, 2, bw, filler, NA, 999, 999, 1, 13, 124, 188, 127, 157, 59, 89, 1, 1.69139
95, 2, bw, filler, NA, 999, 999, 1, 13, 124, 188, 127, 157, 59, 89, 3, 0.694139
95, 2, bw, attraction, a-b-db, 14, 1, 1, 14, 135, 60, 56, 125, 60, 135, 3, 37.024
95, 2, bw, attraction, a-b-db, 14, 1, 1, 14, 135, 60, 56, 125, 60, 135, 2, 0.618946
95, 2, bw, filler, NA, 999, 999, 1, 15, 171, 109, 161, 139, 70, 97, 2, 2.01602
95, 2, bw, filler, NA, 999, 999, 1, 15, 171, 109, 161, 139, 70, 97, 3, 1.534
95, 2, bw, catch, NA, 999, 999, 1, 16, 113, 142, 105, 90, 120, 195, 3, 1.40612
95, 2, bw, catch, NA, 999, 999, 1, 16, 113, 142, 105, 90, 120, 195, 2, 1.0445
95, 2, bw, filler, NA, 999, 999, 1, 17, 184, 84, 156, 186, 89, 79, 2, 5.4241
95, 2, bw, filler, NA, 999, 999, 1, 17, 184, 84, 156, 186, 89, 79, 3, 1.03624
95, 2, bw, filler, NA, 999, 999, 1, 18, 83, 111, 178, 185, 140, 117, 2, 2.85645
95, 2, bw, filler, NA, 999, 999, 1, 18, 83, 111, 178, 185, 140, 117, 1, 0.732193
95, 2, bw, attraction, a-b-da, 14, 3, 1, 19, 181, 111, 120, 195, 195, 120, 3, 51.4926
95, 2, bw, attraction, a-b-da, 14, 3, 1, 19, 181, 111, 120, 195, 195, 120, 1, 1.12855
95, 2, bw, attraction, a-b-db, 9, 1, 1, 20, 57, 129, 135, 60, 60, 135, 3, 22.0408
95, 2, bw, attraction, a-b-db, 9, 1, 1, 20, 57, 129, 135, 60, 60, 135, 1, 0.719946
95, 2, bw, filler, NA, 999, 999, 1, 21, 121, 180, 85, 72, 142, 74, 1, 1.7289
95, 2, bw, filler, NA, 999, 999, 1, 21, 121, 180, 85, 72, 142, 74, 2, 1.1303
95, 2, bw, attraction, a-b-db, 5, 3, 1, 22, 120, 195, 195, 120, 117, 190, 1, 17.0907
95, 2, bw, attraction, a-b-db, 5, 3, 1, 22, 120, 195, 195, 120, 117, 190, 2, 1.18525
95, 2, bw, attraction, a-b-da, 14, 1, 1, 23, 125, 56, 60, 135, 135, 60, 3, 17.4315
95, 2, bw, attraction, a-b-da, 14, 1, 1, 23, 125, 56, 60, 135, 135, 60, 1, 0.896031
95, 2, bw, attraction, a-b-da, 5, 3, 1, 24, 195, 120, 120, 195, 190, 117, 2, 8.30569
95, 2, bw, attraction, a-b-da, 5, 3, 1, 24, 195, 120, 120, 195, 190, 117, 1, 0.570421
95, 2, bw, attraction, a-b-da, 5, 1, 1, 25, 135, 60, 132, 58, 60, 135, 3, 6.76961
95, 2, bw, attraction, a-b-da, 5, 1, 1, 25, 135, 60, 132, 58, 60, 135, 2, 1.86395
95, 2, bw, attraction, a-b-da, 2, 3, 1, 26, 193, 119, 120, 195, 195, 120, 2, 36.1947
95, 2, bw, attraction, a-b-da, 2, 3, 1, 26, 193, 119, 120, 195, 195, 120, 1, 1.87137
95, 2, bw, attraction, a-b-db, 2, 2, 1, 27, 90, 165, 165, 90, 89, 163, 2, 7.58606
95, 2, bw, attraction, a-b-db, 2, 2, 1, 27, 90, 165, 165, 90, 89, 163, 3, 0.711772
95, 2, bw, attraction, a-b-db, 9, 3, 1, 28, 195, 120, 114, 186, 120, 195, 1, 21.9526
95, 2, bw, attraction, a-b-db, 9, 3, 1, 28, 195, 120, 114, 186, 120, 195, 2, 0.459121
95, 2, bw, attraction, a-b-db, 5, 1, 1, 29, 58, 132, 60, 135, 135, 60, 2, 6.96625
95, 2, bw, attraction, a-b-db, 5, 1, 1, 29, 58, 132, 60, 135, 135, 60, 3, 0.964724
95, 2, bw, attraction, a-b-da, 2, 1, 1, 30, 135, 60, 60, 135, 134, 59, 3, 42.5797
95, 2, bw, attraction, a-b-da, 2, 1, 1, 30, 135, 60, 60, 135, 134, 59, 2, 0.550983
95, 2, bw, attraction, a-b-da, 9, 2, 1, 31, 157, 86, 165, 90, 90, 165, 3, 18.0068
95, 2, bw, attraction, a-b-da, 9, 2, 1, 31, 157, 86, 165, 90, 90, 165, 1, 1.00046
95, 2, bw, attraction, a-b-da, 9, 1, 1, 32, 135, 60, 60, 135, 129, 57, 1, 6.15013
95, 2, bw, attraction, a-b-da, 9, 1, 1, 32, 135, 60, 60, 135, 129, 57, 3, 1.0695
95, 2, bw, attraction, a-b-da, 9, 3, 1, 33, 120, 195, 195, 120, 186, 114, 1, 8.10451
95, 2, bw, attraction, a-b-da, 9, 3, 1, 33, 120, 195, 195, 120, 186, 114, 3, 0.7453
95, 2, bw, attraction, a-b-da, 14, 2, 1, 34, 165, 90, 90, 165, 153, 83, 1, 8.28908
95, 2, bw, attraction, a-b-da, 14, 2, 1, 34, 165, 90, 90, 165, 153, 83, 3, 0.697592
95, 2, bw, attraction, a-b-db, 14, 3, 1, 35, 120, 195, 195, 120, 111, 181, 1, 7.50739
95, 2, bw, attraction, a-b-db, 14, 3, 1, 35, 120, 195, 195, 120, 111, 181, 3, 0.691665
95, 2, bw, attraction, a-b-db, 5, 2, 1, 36, 88, 161, 165, 90, 90, 165, 3, 5.09342
95, 2, bw, attraction, a-b-db, 5, 2, 1, 36, 88, 161, 165, 90, 90, 165, 1, 0.803569
95, 2, bw, catch, NA, 999, 999, 1, 37, 152, 163, 130, 65, 143, 112, 1, 1.96477
95, 2, bw, catch, NA, 999, 999, 1, 37, 152, 163, 130, 65, 143, 112, 2, 2.50882
95, 2, bw, catch, NA, 999, 999, 2, 1, 154, 161, 141, 114, 91, 104, 1, 1.68544
95, 2, bw, catch, NA, 999, 999, 2, 1, 154, 161, 141, 114, 91, 104, 3, 2.6328
95, 2, bw, filler, NA, 999, 999, 2, 2, 58, 193, 115, 106, 87, 101, 2, 24.2286
95, 2, bw, filler, NA, 999, 999, 2, 2, 58, 193, 115, 106, 87, 101, 3, 0.490985
95, 2, bw, filler, NA, 999, 999, 2, 3, 159, 120, 128, 195, 77, 69, 2, 1.39684
95, 2, bw, filler, NA, 999, 999, 2, 3, 159, 120, 128, 195, 77, 69, 3, 0.595645
95, 2, bw, filler, NA, 999, 999, 2, 4, 171, 78, 112, 176, 173, 58, 2, 3.66534
95, 2, bw, filler, NA, 999, 999, 2, 4, 171, 78, 112, 176, 173, 58, 3, 0.868868
95, 2, bw, attraction, a-b-da, 5, 1, 2, 5, 132, 58, 60, 135, 135, 60, 2, 2.43181
95, 2, bw, attraction, a-b-da, 5, 1, 2, 5, 132, 58, 60, 135, 135, 60, 1, 0.653182
95, 2, bw, filler, NA, 999, 999, 2, 6, 102, 154, 78, 81, 149, 121, 3, 5.96903
95, 2, bw, filler, NA, 999, 999, 2, 6, 102, 154, 78, 81, 149, 121, 2, 0.639582
95, 2, bw, attraction, a-b-da, 14, 2, 2, 7, 90, 165, 165, 90, 153, 83, 2, 2.5633
95, 2, bw, attraction, a-b-da, 14, 2, 2, 7, 90, 165, 165, 90, 153, 83, 3, 0.451128
95, 2, bw, attraction, a-b-db, 5, 3, 2, 8, 195, 120, 117, 190, 120, 195, 3, 8.67897
95, 2, bw, attraction, a-b-db, 5, 3, 2, 8, 195, 120, 117, 190, 120, 195, 2, 0.472248
95, 2, bw, attraction, a-b-db, 5, 2, 2, 9, 90, 165, 88, 161, 165, 90, 1, 22.0995
95, 2, bw, attraction, a-b-db, 5, 2, 2, 9, 90, 165, 88, 161, 165, 90, 2, 6.15974
95, 2, bw, attraction, a-b-da, 5, 3, 2, 10, 195, 120, 120, 195, 190, 117, 2, 8.97312
95, 2, bw, attraction, a-b-da, 5, 3, 2, 10, 195, 120, 120, 195, 190, 117, 1, 1.85032
95, 2, bw, attraction, a-b-da, 9, 1, 2, 11, 135, 60, 129, 57, 60, 135, 3, 3.04568
95, 2, bw, attraction, a-b-da, 9, 1, 2, 11, 135, 60, 129, 57, 60, 135, 2, 0.530108
95, 2, bw, attraction, a-b-db, 2, 3, 2, 12, 195, 120, 120, 195, 119, 193, 2, 22.9784
95, 2, bw, attraction, a-b-db, 2, 3, 2, 12, 195, 120, 120, 195, 119, 193, 1, 0.571205
95, 2, bw, attraction, a-b-da, 2, 2, 2, 13, 163, 89, 90, 165, 165, 90, 2, 7.4104
95, 2, bw, attraction, a-b-da, 2, 2, 2, 13, 163, 89, 90, 165, 165, 90, 1, 0.518734
95, 2, bw, attraction, a-b-db, 9, 1, 2, 14, 57, 129, 135, 60, 60, 135, 3, 8.64798
95, 2, bw, attraction, a-b-db, 9, 1, 2, 14, 57, 129, 135, 60, 60, 135, 1, 0.642385
95, 2, bw, filler, NA, 999, 999, 2, 15, 152, 56, 195, 192, 172, 76, 2, 1.18218
95, 2, bw, filler, NA, 999, 999, 2, 15, 152, 56, 195, 192, 172, 76, 1, 0.765801
95, 2, bw, attraction, a-b-db, 5, 1, 2, 16, 60, 135, 58, 132, 135, 60, 3, 15.5008
95, 2, bw, attraction, a-b-db, 5, 1, 2, 16, 60, 135, 58, 132, 135, 60, 2, 0.50727
95, 2, bw, attraction, a-b-db, 9, 2, 2, 17, 86, 157, 90, 165, 165, 90, 3, 7.38032
95, 2, bw, attraction, a-b-db, 9, 2, 2, 17, 86, 157, 90, 165, 165, 90, 1, 0.481938
95, 2, bw, attraction, a-b-db, 2, 2, 2, 18, 90, 165, 165, 90, 89, 163, 2, 25.3007
95, 2, bw, attraction, a-b-db, 2, 2, 2, 18, 90, 165, 165, 90, 89, 163, 1, 0.495862
95, 2, bw, attraction, a-b-db, 14, 3, 2, 19, 111, 181, 120, 195, 195, 120, 2, 7.36975
95, 2, bw, attraction, a-b-db, 14, 3, 2, 19, 111, 181, 120, 195, 195, 120, 1, 0.464014
95, 2, bw, attraction, a-b-da, 9, 3, 2, 20, 195, 120, 186, 114, 120, 195, 3, 29.9231
95, 2, bw, attraction, a-b-da, 9, 3, 2, 20, 195, 120, 186, 114, 120, 195, 2, 0.652641
95, 2, bw, attraction, a-b-db, 9, 3, 2, 21, 120, 195, 195, 120, 114, 186, 1, 4.2242
95, 2, bw, attraction, a-b-db, 9, 3, 2, 21, 120, 195, 195, 120, 114, 186, 3, 0.708787
95, 2, bw, attraction, a-b-db, 14, 2, 2, 22, 83, 153, 165, 90, 90, 165, 3, 14.8859
95, 2, bw, attraction, a-b-db, 14, 2, 2, 22, 83, 153, 165, 90, 90, 165, 1, 0.357184
95, 2, bw, filler, NA, 999, 999, 2, 23, 126, 112, 64, 175, 100, 182, 3, 20.9083
95, 2, bw, filler, NA, 999, 999, 2, 23, 126, 112, 64, 175, 100, 182, 2, 11.8651
95, 2, bw, attraction, a-b-db, 14, 1, 2, 24, 60, 135, 135, 60, 56, 125, 2, 5.64075
95, 2, bw, attraction, a-b-db, 14, 1, 2, 24, 60, 135, 135, 60, 56, 125, 3, 0.476321
95, 2, bw, attraction, a-b-da, 2, 1, 2, 25, 135, 60, 134, 59, 60, 135, 3, 22.9508
95, 2, bw, attraction, a-b-da, 2, 1, 2, 25, 135, 60, 134, 59, 60, 135, 2, 0.888839
95, 2, bw, attraction, a-b-da, 5, 2, 2, 26, 90, 165, 161, 88, 165, 90, 1, 4.9631
95, 2, bw, attraction, a-b-da, 5, 2, 2, 26, 90, 165, 161, 88, 165, 90, 2, 0.394185
95, 2, bw, filler, NA, 999, 999, 2, 27, 149, 125, 73, 142, 149, 184, 3, 2.08805
95, 2, bw, filler, NA, 999, 999, 2, 27, 149, 125, 73, 142, 149, 184, 2, 0.866663
95, 2, bw, filler, NA, 999, 999, 2, 28, 78, 137, 131, 148, 112, 83, 2, 3.64577
95, 2, bw, filler, NA, 999, 999, 2, 28, 78, 137, 131, 148, 112, 83, 3, 1.89809
95, 2, bw, attraction, a-b-da, 14, 3, 2, 29, 181, 111, 120, 195, 195, 120, 2, 12.5472
95, 2, bw, attraction, a-b-da, 14, 3, 2, 29, 181, 111, 120, 195, 195, 120, 1, 0.480576
95, 2, bw, catch, NA, 999, 999, 2, 30, 130, 185, 88, 107, 120, 135, 1, 1.99507
95, 2, bw, catch, NA, 999, 999, 2, 30, 130, 185, 88, 107, 120, 135, 2, 0.761756
95, 2, bw, catch, NA, 999, 999, 2, 31, 68, 127, 142, 113, 134, 181, 3, 2.04886
95, 2, bw, catch, NA, 999, 999, 2, 31, 68, 127, 142, 113, 134, 181, 1, 0.749487
95, 2, bw, attraction, a-b-da, 9, 2, 2, 32, 157, 86, 90, 165, 165, 90, 2, 5.80527
95, 2, bw, attraction, a-b-da, 9, 2, 2, 32, 157, 86, 90, 165, 165, 90, 1, 0.674597
95, 2, bw, filler, NA, 999, 999, 2, 33, 108, 81, 158, 76, 152, 156, 3, 1.30114
95, 2, bw, filler, NA, 999, 999, 2, 33, 108, 81, 158, 76, 152, 156, 1, 0.568019
95, 2, bw, filler, NA, 999, 999, 2, 34, 83, 92, 86, 82, 81, 119, 3, 3.02307
95, 2, bw, filler, NA, 999, 999, 2, 34, 83, 92, 86, 82, 81, 119, 2, 2.38809
95, 2, bw, attraction, a-b-da, 2, 3, 2, 35, 193, 119, 195, 120, 120, 195, 3, 37.106
95, 2, bw, attraction, a-b-da, 2, 3, 2, 35, 193, 119, 195, 120, 120, 195, 1, 0.681693
95, 2, bw, attraction, a-b-da, 14, 1, 2, 36, 60, 135, 135, 60, 125, 56, 2, 3.52407
95, 2, bw, attraction, a-b-da, 14, 1, 2, 36, 60, 135, 135, 60, 125, 56, 1, 0.63691
95, 2, bw, attraction, a-b-db, 2, 1, 2, 37, 59, 134, 60, 135, 135, 60, 2, 5.30535
95, 2, bw, attraction, a-b-db, 2, 1, 2, 37, 59, 134, 60, 135, 135, 60, 3, 0.626315
95, 2, bw, attraction, a-b-db, 14, 1, 3, 1, 135, 60, 60, 135, 56, 125, 2, 2.24681
95, 2, bw, attraction, a-b-db, 14, 1, 3, 1, 135, 60, 60, 135, 56, 125, 3, 0.467315
95, 2, bw, filler, NA, 999, 999, 3, 2, 95, 150, 92, 86, 153, 85, 1, 3.23838
95, 2, bw, filler, NA, 999, 999, 3, 2, 95, 150, 92, 86, 153, 85, 2, 0.530771
95, 2, bw, filler, NA, 999, 999, 3, 3, 59, 100, 190, 155, 148, 84, 2, 1.34722
95, 2, bw, filler, NA, 999, 999, 3, 3, 59, 100, 190, 155, 148, 84, 1, 0.56409
95, 2, bw, catch, NA, 999, 999, 3, 4, 182, 133, 158, 97, 126, 69, 1, 1.37918
95, 2, bw, catch, NA, 999, 999, 3, 4, 182, 133, 158, 97, 126, 69, 3, 0.994696
95, 2, bw, filler, NA, 999, 999, 3, 5, 57, 164, 162, 158, 153, 61, 2, 10.7924
95, 2, bw, filler, NA, 999, 999, 3, 5, 57, 164, 162, 158, 153, 61, 3, 2.55627
95, 2, bw, filler, NA, 999, 999, 3, 6, 78, 150, 71, 72, 78, 61, 1, 1.89945
95, 2, bw, filler, NA, 999, 999, 3, 6, 78, 150, 71, 72, 78, 61, 3, 2.28631
95, 2, bw, attraction, a-b-db, 9, 3, 3, 7, 120, 195, 114, 186, 195, 120, 1, 4.88002
95, 2, bw, attraction, a-b-db, 9, 3, 3, 7, 120, 195, 114, 186, 195, 120, 3, 0.498528
95, 2, bw, attraction, a-b-db, 2, 2, 3, 8, 90, 165, 165, 90, 89, 163, 3, 12.0443
95, 2, bw, attraction, a-b-db, 2, 2, 3, 8, 90, 165, 165, 90, 89, 163, 2, 0.645767
95, 2, bw, attraction, a-b-da, 14, 2, 3, 9, 90, 165, 165, 90, 153, 83, 1, 2.49757
95, 2, bw, attraction, a-b-da, 14, 2, 3, 9, 90, 165, 165, 90, 153, 83, 3, 0.700101
95, 2, bw, filler, NA, 999, 999, 3, 10, 195, 101, 98, 86, 97, 78, 1, 1.69381
95, 2, bw, filler, NA, 999, 999, 3, 10, 195, 101, 98, 86, 97, 78, 3, 1.88079
95, 2, bw, attraction, a-b-db, 14, 3, 3, 11, 111, 181, 120, 195, 195, 120, 2, 5.76258
95, 2, bw, attraction, a-b-db, 14, 3, 3, 11, 111, 181, 120, 195, 195, 120, 1, 0.449467
95, 2, bw, attraction, a-b-da, 14, 1, 3, 12, 135, 60, 60, 135, 125, 56, 1, 22.7732
95, 2, bw, attraction, a-b-da, 14, 1, 3, 12, 135, 60, 60, 135, 125, 56, 3, 1.95082
95, 2, bw, filler, NA, 999, 999, 3, 13, 193, 112, 129, 154, 76, 136, 1, 3.49416
95, 2, bw, filler, NA, 999, 999, 3, 13, 193, 112, 129, 154, 76, 136, 3, 0.944379
95, 2, bw, catch, NA, 999, 999, 3, 14, 180, 135, 118, 77, 132, 123, 1, 1.61607
95, 2, bw, catch, NA, 999, 999, 3, 14, 180, 135, 118, 77, 132, 123, 2, 0.486083
95, 2, bw, attraction, a-b-da, 2, 3, 3, 15, 120, 195, 195, 120, 193, 119, 2, 15.8487
95, 2, bw, attraction, a-b-da, 2, 3, 3, 15, 120, 195, 195, 120, 193, 119, 1, 0.512941
95, 2, bw, attraction, a-b-db, 5, 2, 3, 16, 165, 90, 88, 161, 90, 165, 3, 4.37005
95, 2, bw, attraction, a-b-db, 5, 2, 3, 16, 165, 90, 88, 161, 90, 165, 2, 0.777301
95, 2, bw, attraction, a-b-db, 9, 2, 3, 17, 165, 90, 90, 165, 86, 157, 2, 29.4717
95, 2, bw, attraction, a-b-db, 9, 2, 3, 17, 165, 90, 90, 165, 86, 157, 1, 0.819141
95, 2, bw, attraction, a-b-da, 14, 3, 3, 18, 181, 111, 195, 120, 120, 195, 2, 3.9922
95, 2, bw, attraction, a-b-da, 14, 3, 3, 18, 181, 111, 195, 120, 120, 195, 1, 0.35008
95, 2, bw, attraction, a-b-db, 14, 2, 3, 19, 83, 153, 165, 90, 90, 165, 3, 8.43014
95, 2, bw, attraction, a-b-db, 14, 2, 3, 19, 83, 153, 165, 90, 90, 165, 1, 0.7214
95, 2, bw, filler, NA, 999, 999, 3, 20, 169, 123, 91, 62, 96, 177, 1, 3.25851
95, 2, bw, filler, NA, 999, 999, 3, 20, 169, 123, 91, 62, 96, 177, 2, 0.734222
95, 2, bw, filler, NA, 999, 999, 3, 21, 103, 137, 161, 151, 65, 141, 2, 1.68642
95, 2, bw, filler, NA, 999, 999, 3, 21, 103, 137, 161, 151, 65, 141, 3, 1.04994
95, 2, bw, attraction, a-b-db, 2, 3, 3, 22, 195, 120, 120, 195, 119, 193, 2, 7.63748
95, 2, bw, attraction, a-b-db, 2, 3, 3, 22, 195, 120, 120, 195, 119, 193, 1, 0.473153
95, 2, bw, attraction, a-b-da, 5, 3, 3, 23, 120, 195, 190, 117, 195, 120, 1, 20.4515
95, 2, bw, attraction, a-b-da, 5, 3, 3, 23, 120, 195, 190, 117, 195, 120, 2, 0.362439
95, 2, bw, catch, NA, 999, 999, 3, 24, 82, 113, 145, 170, 119, 136, 2, 1.2257
95, 2, bw, catch, NA, 999, 999, 3, 24, 82, 113, 145, 170, 119, 136, 1, 0.343407
95, 2, bw, attraction, a-b-da, 5, 1, 3, 25, 132, 58, 60, 135, 135, 60, 2, 6.03917
95, 2, bw, attraction, a-b-da, 5, 1, 3, 25, 132, 58, 60, 135, 135, 60, 1, 0.826401
95, 2, bw, filler, NA, 999, 999, 3, 26, 101, 74, 164, 79, 131, 76, 2, 1.40685
95, 2, bw, filler, NA, 999, 999, 3, 26, 101, 74, 164, 79, 131, 76, 1, 0.501104
95, 2, bw, attraction, a-b-db, 5, 3, 3, 27, 117, 190, 195, 120, 120, 195, 3, 4.22288
95, 2, bw, attraction, a-b-db, 5, 3, 3, 27, 117, 190, 195, 120, 120, 195, 2, 0.61946
95, 2, bw, attraction, a-b-da, 2, 2, 3, 28, 90, 165, 163, 89, 165, 90, 1, 16.6325
95, 2, bw, attraction, a-b-da, 2, 2, 3, 28, 90, 165, 163, 89, 165, 90, 2, 0.425277
95, 2, bw, filler, NA, 999, 999, 3, 29, 61, 83, 145, 132, 158, 184, 3, 1.0698
95, 2, bw, filler, NA, 999, 999, 3, 29, 61, 83, 145, 132, 158, 184, 1, 0.578026
95, 2, bw, attraction, a-b-da, 9, 2, 3, 30, 165, 90, 90, 165, 157, 86, 2, 5.07248
95, 2, bw, attraction, a-b-da, 9, 2, 3, 30, 165, 90, 90, 165, 157, 86, 3, 0.426891
95, 2, bw, attraction, a-b-db, 5, 1, 3, 31, 60, 135, 58, 132, 135, 60, 1, 7.75945
95, 2, bw, attraction, a-b-db, 5, 1, 3, 31, 60, 135, 58, 132, 135, 60, 3, 0.501568
95, 2, bw, attraction, a-b-da, 9, 3, 3, 32, 195, 120, 120, 195, 186, 114, 2, 2.3434
95, 2, bw, attraction, a-b-da, 9, 3, 3, 32, 195, 120, 120, 195, 186, 114, 3, 0.583909
95, 2, bw, attraction, a-b-db, 9, 1, 3, 33, 60, 135, 135, 60, 57, 129, 2, 15.4623
95, 2, bw, attraction, a-b-db, 9, 1, 3, 33, 60, 135, 135, 60, 57, 129, 3, 0.486189
95, 2, bw, attraction, a-b-db, 2, 1, 3, 34, 59, 134, 60, 135, 135, 60, 2, 6.39258
95, 2, bw, attraction, a-b-db, 2, 1, 3, 34, 59, 134, 60, 135, 135, 60, 3, 0.470025
95, 2, bw, attraction, a-b-da, 9, 1, 3, 35, 135, 60, 60, 135, 129, 57, 2, 2.84902
95, 2, bw, attraction, a-b-da, 9, 1, 3, 35, 135, 60, 60, 135, 129, 57, 3, 0.661504
95, 2, bw, attraction, a-b-da, 2, 1, 3, 36, 60, 135, 135, 60, 134, 59, 2, 5.76049
95, 2, bw, attraction, a-b-da, 2, 1, 3, 36, 60, 135, 135, 60, 134, 59, 3, 0.823453
95, 2, bw, attraction, a-b-da, 5, 2, 3, 37, 165, 90, 161, 88, 90, 165, 3, 3.51574
95, 2, bw, attraction, a-b-da, 5, 2, 3, 37, 165, 90, 161, 88, 90, 165, 2, 0.485254
95, 2, bw, attraction, a-b-db, 2, 2, 4, 1, 165, 90, 90, 165, 89, 163, 3, 5.44773
95, 2, bw, attraction, a-b-db, 2, 2, 4, 1, 165, 90, 90, 165, 89, 163, 2, 0.539314
95, 2, bw, filler, NA, 999, 999, 4, 2, 191, 101, 121, 57, 129, 175, 3, 5.17177
95, 2, bw, filler, NA, 999, 999, 4, 2, 191, 101, 121, 57, 129, 175, 2, 0.634111
95, 2, bw, filler, NA, 999, 999, 4, 3, 147, 112, 175, 170, 163, 160, 2, 1.89453
95, 2, bw, filler, NA, 999, 999, 4, 3, 147, 112, 175, 170, 163, 160, 1, 1.71323
95, 2, bw, attraction, a-b-db, 14, 1, 4, 4, 60, 135, 56, 125, 135, 60, 1, 36.9939
95, 2, bw, attraction, a-b-db, 14, 1, 4, 4, 60, 135, 56, 125, 135, 60, 2, 0.470361
95, 2, bw, attraction, a-b-db, 14, 2, 4, 5, 90, 165, 165, 90, 83, 153, 2, 5.66557
95, 2, bw, attraction, a-b-db, 14, 2, 4, 5, 90, 165, 165, 90, 83, 153, 3, 0.436406
95, 2, bw, attraction, a-b-db, 5, 1, 4, 6, 60, 135, 135, 60, 58, 132, 2, 18.4649
95, 2, bw, attraction, a-b-db, 5, 1, 4, 6, 60, 135, 135, 60, 58, 132, 3, 6.09579
95, 2, bw, filler, NA, 999, 999, 4, 7, 139, 175, 178, 88, 173, 165, 3, 2.8718
95, 2, bw, filler, NA, 999, 999, 4, 7, 139, 175, 178, 88, 173, 165, 2, 0.754952
95, 2, bw, attraction, a-b-db, 9, 3, 4, 8, 195, 120, 114, 186, 120, 195, 3, 66.7387
95, 2, bw, attraction, a-b-db, 9, 3, 4, 8, 195, 120, 114, 186, 120, 195, 1, 0.648462
95, 2, bw, filler, NA, 999, 999, 4, 9, 185, 102, 96, 192, 195, 140, 3, 2.03609
95, 2, bw, filler, NA, 999, 999, 4, 9, 185, 102, 96, 192, 195, 140, 2, 5.40144
95, 2, bw, filler, NA, 999, 999, 4, 10, 97, 140, 149, 158, 64, 142, 2, 1.42163
95, 2, bw, filler, NA, 999, 999, 4, 10, 97, 140, 149, 158, 64, 142, 3, 0.563416
95, 2, bw, catch, NA, 999, 999, 4, 11, 192, 123, 146, 109, 134, 61, 1, 1.44226
95, 2, bw, catch, NA, 999, 999, 4, 11, 192, 123, 146, 109, 134, 61, 3, 0.703198
95, 2, bw, attraction, a-b-da, 14, 2, 4, 12, 153, 83, 165, 90, 90, 165, 3, 2.857
95, 2, bw, attraction, a-b-da, 14, 2, 4, 12, 153, 83, 165, 90, 90, 165, 1, 0.460745
95, 2, bw, attraction, a-b-da, 2, 1, 4, 13, 135, 60, 60, 135, 134, 59, 2, 2.16788
95, 2, bw, attraction, a-b-da, 2, 1, 4, 13, 135, 60, 60, 135, 134, 59, 3, 2.14374
95, 2, bw, attraction, a-b-da, 9, 3, 4, 14, 195, 120, 120, 195, 186, 114, 2, 3.94296
95, 2, bw, attraction, a-b-da, 9, 3, 4, 14, 195, 120, 120, 195, 186, 114, 3, 0.367028
95, 2, bw, attraction, a-b-da, 9, 2, 4, 15, 90, 165, 157, 86, 165, 90, 1, 24.1262
95, 2, bw, attraction, a-b-da, 9, 2, 4, 15, 90, 165, 157, 86, 165, 90, 2, 0.553363
95, 2, bw, filler, NA, 999, 999, 4, 16, 69, 152, 82, 155, 104, 73, 2, 1.90504
95, 2, bw, filler, NA, 999, 999, 4, 16, 69, 152, 82, 155, 104, 73, 3, 0.451221
95, 2, bw, attraction, a-b-db, 9, 1, 4, 17, 135, 60, 57, 129, 60, 135, 3, 3.03101
95, 2, bw, attraction, a-b-db, 9, 1, 4, 17, 135, 60, 57, 129, 60, 135, 2, 0.419975
95, 2, bw, catch, NA, 999, 999, 4, 18, 182, 133, 61, 134, 90, 165, 1, 1.37716
95, 2, bw, catch, NA, 999, 999, 4, 18, 182, 133, 61, 134, 90, 165, 2, 0.896625
95, 2, bw, attraction, a-b-db, 5, 3, 4, 19, 195, 120, 120, 195, 117, 190, 3, 8.80244
95, 2, bw, attraction, a-b-db, 5, 3, 4, 19, 195, 120, 120, 195, 117, 190, 2, 5.39095
95, 2, bw, filler, NA, 999, 999, 4, 20, 190, 122, 188, 137, 71, 141, 2, 1.27579
95, 2, bw, filler, NA, 999, 999, 4, 20, 190, 122, 188, 137, 71, 141, 3, 0.815365
95, 2, bw, attraction, a-b-da, 5, 1, 4, 21, 132, 58, 60, 135, 135, 60, 3, 12.0285
95, 2, bw, attraction, a-b-da, 5, 1, 4, 21, 132, 58, 60, 135, 135, 60, 1, 2.7026
95, 2, bw, attraction, a-b-db, 2, 3, 4, 22, 120, 195, 195, 120, 119, 193, 1, 3.90374
95, 2, bw, attraction, a-b-db, 2, 3, 4, 22, 120, 195, 195, 120, 119, 193, 3, 1.30529
95, 2, bw, catch, NA, 999, 999, 4, 23, 118, 137, 91, 104, 139, 176, 3, 0.834641
95, 2, bw, catch, NA, 999, 999, 4, 23, 118, 137, 91, 104, 139, 176, 2, 0.480395
95, 2, bw, filler, NA, 999, 999, 4, 24, 109, 76, 57, 65, 111, 108, 3, 1.30685
95, 2, bw, filler, NA, 999, 999, 4, 24, 109, 76, 57, 65, 111, 108, 2, 0.46909
95, 2, bw, attraction, a-b-db, 14, 3, 4, 25, 195, 120, 120, 195, 111, 181, 2, 3.8082
95, 2, bw, attraction, a-b-db, 14, 3, 4, 25, 195, 120, 120, 195, 111, 181, 3, 0.429615
95, 2, bw, attraction, a-b-da, 14, 1, 4, 26, 135, 60, 60, 135, 125, 56, 1, 4.09823
95, 2, bw, attraction, a-b-da, 14, 1, 4, 26, 135, 60, 60, 135, 125, 56, 3, 0.884306
95, 2, bw, filler, NA, 999, 999, 4, 27, 136, 98, 147, 60, 148, 145, 3, 1.09449
95, 2, bw, filler, NA, 999, 999, 4, 27, 136, 98, 147, 60, 148, 145, 2, 0.937416
95, 2, bw, attraction, a-b-da, 2, 2, 4, 28, 165, 90, 163, 89, 90, 165, 3, 41.7617
95, 2, bw, attraction, a-b-da, 2, 2, 4, 28, 165, 90, 163, 89, 90, 165, 2, 0.494011
95, 2, bw, attraction, a-b-da, 14, 3, 4, 29, 195, 120, 181, 111, 120, 195, 3, 1.56787
95, 2, bw, attraction, a-b-da, 14, 3, 4, 29, 195, 120, 181, 111, 120, 195, 2, 0.551976
95, 2, bw, attraction, a-b-db, 2, 1, 4, 30, 59, 134, 60, 135, 135, 60, 2, 2.3998
95, 2, bw, attraction, a-b-db, 2, 1, 4, 30, 59, 134, 60, 135, 135, 60, 3, 0.782318
95, 2, bw, attraction, a-b-da, 9, 1, 4, 31, 60, 135, 129, 57, 135, 60, 3, 3.98064
95, 2, bw, attraction, a-b-da, 9, 1, 4, 31, 60, 135, 129, 57, 135, 60, 2, 0.619538
95, 2, bw, attraction, a-b-da, 5, 3, 4, 32, 190, 117, 195, 120, 120, 195, 3, 2.71273
95, 2, bw, attraction, a-b-da, 5, 3, 4, 32, 190, 117, 195, 120, 120, 195, 1, 1.04232
95, 2, bw, attraction, a-b-da, 2, 3, 4, 33, 120, 195, 193, 119, 195, 120, 2, 2.2063
95, 2, bw, attraction, a-b-da, 2, 3, 4, 33, 120, 195, 193, 119, 195, 120, 3, 0.435854
95, 2, bw, attraction, a-b-da, 5, 2, 4, 34, 165, 90, 161, 88, 90, 165, 3, 2.72028
95, 2, bw, attraction, a-b-da, 5, 2, 4, 34, 165, 90, 161, 88, 90, 165, 1, 0.730088
95, 2, bw, filler, NA, 999, 999, 4, 35, 132, 101, 136, 77, 79, 85, 1, 1.37846
95, 2, bw, filler, NA, 999, 999, 4, 35, 132, 101, 136, 77, 79, 85, 3, 0.770111
95, 2, bw, attraction, a-b-db, 5, 2, 4, 36, 165, 90, 90, 165, 88, 161, 3, 4.68907
95, 2, bw, attraction, a-b-db, 5, 2, 4, 36, 165, 90, 90, 165, 88, 161, 1, 0.530974
95, 2, bw, attraction, a-b-db, 9, 2, 4, 37, 90, 165, 165, 90, 86, 157, 1, 5.6513
95, 2, bw, attraction, a-b-db, 9, 2, 4, 37, 90, 165, 165, 90, 86, 157, 3, 0.494986
95, 2, bw, filler, NA, 999, 999, 5, 1, 127, 184, 174, 61, 149, 130, 1, 4.75923
95, 2, bw, filler, NA, 999, 999, 5, 1, 127, 184, 174, 61, 149, 130, 2, 1.03045
95, 2, bw, attraction, a-b-db, 5, 2, 5, 2, 165, 90, 90, 165, 88, 161, 2, 6.60279
95, 2, bw, attraction, a-b-db, 5, 2, 5, 2, 165, 90, 90, 165, 88, 161, 1, 1.07198
95, 2, bw, attraction, a-b-db, 9, 1, 5, 3, 135, 60, 60, 135, 57, 129, 2, 9.96294
95, 2, bw, attraction, a-b-db, 9, 1, 5, 3, 135, 60, 60, 135, 57, 129, 3, 0.416539
95, 2, bw, attraction, a-b-da, 5, 3, 5, 4, 120, 195, 195, 120, 190, 117, 2, 2.45368
95, 2, bw, attraction, a-b-da, 5, 3, 5, 4, 120, 195, 195, 120, 190, 117, 3, 0.60219
95, 2, bw, attraction, a-b-db, 2, 3, 5, 5, 119, 193, 195, 120, 120, 195, 3, 7.11985
95, 2, bw, attraction, a-b-db, 2, 3, 5, 5, 119, 193, 195, 120, 120, 195, 2, 0.608341
95, 2, bw, attraction, a-b-da, 2, 3, 5, 6, 120, 195, 195, 120, 193, 119, 2, 5.7974
95, 2, bw, attraction, a-b-da, 2, 3, 5, 6, 120, 195, 195, 120, 193, 119, 3, 0.514812
95, 2, bw, attraction, a-b-db, 5, 3, 5, 7, 117, 190, 195, 120, 120, 195, 3, 21.4839
95, 2, bw, attraction, a-b-db, 5, 3, 5, 7, 117, 190, 195, 120, 120, 195, 2, 0.857455
95, 2, bw, filler, NA, 999, 999, 5, 8, 57, 106, 85, 155, 170, 61, 2, 2.0523
95, 2, bw, filler, NA, 999, 999, 5, 8, 57, 106, 85, 155, 170, 61, 1, 0.689041
95, 2, bw, filler, NA, 999, 999, 5, 9, 187, 70, 178, 128, 80, 170, 2, 1.7393
95, 2, bw, filler, NA, 999, 999, 5, 9, 187, 70, 178, 128, 80, 170, 3, 5.94812
95, 2, bw, attraction, a-b-db, 14, 3, 5, 10, 120, 195, 195, 120, 111, 181, 2, 5.90627
95, 2, bw, attraction, a-b-db, 14, 3, 5, 10, 120, 195, 195, 120, 111, 181, 3, 0.435044
95, 2, bw, attraction, a-b-da, 2, 1, 5, 11, 134, 59, 135, 60, 60, 135, 2, 4.1594
95, 2, bw, attraction, a-b-da, 2, 1, 5, 11, 134, 59, 135, 60, 60, 135, 3, 0.510741
95, 2, bw, filler, NA, 999, 999, 5, 12, 150, 150, 66, 195, 131, 82, 1, 10.6399
95, 2, bw, filler, NA, 999, 999, 5, 12, 150, 150, 66, 195, 131, 82, 2, 1.0419
95, 2, bw, catch, NA, 999, 999, 5, 13, 171, 144, 120, 135, 105, 90, 1, 1.5975
95, 2, bw, catch, NA, 999, 999, 5, 13, 171, 144, 120, 135, 105, 90, 3, 0.700363
95, 2, bw, attraction, a-b-da, 2, 2, 5, 14, 90, 165, 165, 90, 163, 89, 2, 42.094
95, 2, bw, attraction, a-b-da, 2, 2, 5, 14, 90, 165, 165, 90, 163, 89, 3, 0.724899
95, 2, bw, attraction, a-b-da, 14, 3, 5, 15, 195, 120, 181, 111, 120, 195, 3, 1.94124
95, 2, bw, attraction, a-b-da, 14, 3, 5, 15, 195, 120, 181, 111, 120, 195, 2, 1.21383
95, 2, bw, catch, NA, 999, 999, 5, 16, 79, 116, 188, 127, 152, 103, 2, 1.3149
95, 2, bw, catch, NA, 999, 999, 5, 16, 79, 116, 188, 127, 152, 103, 1, 0.41313
95, 2, bw, catch, NA, 999, 999, 5, 17, 101, 154, 162, 153, 103, 92, 2, 1.09023
95, 2, bw, catch, NA, 999, 999, 5, 17, 101, 154, 162, 153, 103, 92, 3, 0.71733
95, 2, bw, filler, NA, 999, 999, 5, 18, 143, 117, 90, 63, 194, 97, 3, 2.74225
95, 2, bw, filler, NA, 999, 999, 5, 18, 143, 117, 90, 63, 194, 97, 2, 0.726627
95, 2, bw, attraction, a-b-db, 14, 1, 5, 19, 56, 125, 135, 60, 60, 135, 3, 3.31107
95, 2, bw, attraction, a-b-db, 14, 1, 5, 19, 56, 125, 135, 60, 60, 135, 1, 0.832645
95, 2, bw, attraction, a-b-db, 5, 1, 5, 20, 135, 60, 60, 135, 58, 132, 2, 7.55693
95, 2, bw, attraction, a-b-db, 5, 1, 5, 20, 135, 60, 60, 135, 58, 132, 1, 0.931349
95, 2, bw, filler, NA, 999, 999, 5, 21, 171, 119, 116, 145, 97, 139, 1, 2.00367
95, 2, bw, filler, NA, 999, 999, 5, 21, 171, 119, 116, 145, 97, 139, 3, 1.1856
95, 2, bw, attraction, a-b-db, 9, 2, 5, 22, 90, 165, 86, 157, 165, 90, 2, 3.77584
95, 2, bw, attraction, a-b-db, 9, 2, 5, 22, 90, 165, 86, 157, 165, 90, 3, 0.638686
95, 2, bw, attraction, a-b-db, 14, 2, 5, 23, 83, 153, 90, 165, 165, 90, 2, 19.5391
95, 2, bw, attraction, a-b-db, 14, 2, 5, 23, 83, 153, 90, 165, 165, 90, 1, 0.503062
95, 2, bw, attraction, a-b-db, 2, 1, 5, 24, 135, 60, 60, 135, 59, 134, 3, 3.34469
95, 2, bw, attraction, a-b-db, 2, 1, 5, 24, 135, 60, 60, 135, 59, 134, 1, 0.808938
95, 2, bw, filler, NA, 999, 999, 5, 25, 58, 188, 160, 58, 90, 95, 1, 6.118
95, 2, bw, filler, NA, 999, 999, 5, 25, 58, 188, 160, 58, 90, 95, 3, 0.95068
95, 2, bw, attraction, a-b-db, 9, 3, 5, 26, 114, 186, 120, 195, 195, 120, 2, 2.4383
95, 2, bw, attraction, a-b-db, 9, 3, 5, 26, 114, 186, 120, 195, 195, 120, 1, 0.658871
95, 2, bw, attraction, a-b-da, 9, 1, 5, 27, 135, 60, 60, 135, 129, 57, 1, 7.11811
95, 2, bw, attraction, a-b-da, 9, 1, 5, 27, 135, 60, 60, 135, 129, 57, 3, 2.10234
95, 2, bw, filler, NA, 999, 999, 5, 28, 58, 82, 192, 106, 117, 194, 3, 2.92769
95, 2, bw, filler, NA, 999, 999, 5, 28, 58, 82, 192, 106, 117, 194, 1, 0.736687
95, 2, bw, attraction, a-b-da, 5, 1, 5, 29, 132, 58, 60, 135, 135, 60, 3, 12.4411
95, 2, bw, attraction, a-b-da, 5, 1, 5, 29, 132, 58, 60, 135, 135, 60, 1, 0.946469
95, 2, bw, attraction, a-b-da, 5, 2, 5, 30, 161, 88, 165, 90, 90, 165, 2, 2.3623
95, 2, bw, attraction, a-b-da, 5, 2, 5, 30, 161, 88, 165, 90, 90, 165, 1, 0.834071
95, 2, bw, attraction, a-b-da, 14, 2, 5, 31, 165, 90, 153, 83, 90, 165, 3, 28.1344
95, 2, bw, attraction, a-b-da, 14, 2, 5, 31, 165, 90, 153, 83, 90, 165, 2, 0.719563
95, 2, bw, attraction, a-b-da, 9, 3, 5, 32, 186, 114, 195, 120, 120, 195, 2, 5.67277
95, 2, bw, attraction, a-b-da, 9, 3, 5, 32, 186, 114, 195, 120, 120, 195, 1, 0.378806
95, 2, bw, attraction, a-b-da, 14, 1, 5, 33, 135, 60, 125, 56, 60, 135, 3, 39.3373
95, 2, bw, attraction, a-b-da, 14, 1, 5, 33, 135, 60, 125, 56, 60, 135, 2, 0.623067
95, 2, bw, attraction, a-b-da, 9, 2, 5, 34, 157, 86, 165, 90, 90, 165, 3, 4.08343
95, 2, bw, attraction, a-b-da, 9, 2, 5, 34, 157, 86, 165, 90, 90, 165, 1, 0.454077
95, 2, bw, filler, NA, 999, 999, 5, 35, 151, 169, 160, 179, 189, 166, 3, 4.83401
95, 2, bw, filler, NA, 999, 999, 5, 35, 151, 169, 160, 179, 189, 166, 1, 0.598532
95, 2, bw, attraction, a-b-db, 2, 2, 5, 36, 90, 165, 165, 90, 89, 163, 3, 4.0122
95, 2, bw, attraction, a-b-db, 2, 2, 5, 36, 90, 165, 165, 90, 89, 163, 2, 0.521511
95, 2, bw, filler, NA, 999, 999, 5, 37, 187, 112, 61, 157, 108, 77, 1, 3.8266
95, 2, bw, filler, NA, 999, 999, 5, 37, 187, 112, 61, 157, 108, 77, 3, 3.87954
95, 2, bw, attraction, a-b-db, 5, 1, 6, 1, 58, 132, 60, 135, 135, 60, 2, 8.73678
95, 2, bw, attraction, a-b-db, 5, 1, 6, 1, 58, 132, 60, 135, 135, 60, 1, 0.552044
95, 2, bw, filler, NA, 999, 999, 6, 2, 67, 102, 92, 86, 192, 154, 3, 1.64779
95, 2, bw, filler, NA, 999, 999, 6, 2, 67, 102, 92, 86, 192, 154, 1, 1.05257
95, 2, bw, attraction, a-b-db, 9, 1, 6, 3, 60, 135, 135, 60, 57, 129, 1, 8.6482
95, 2, bw, attraction, a-b-db, 9, 1, 6, 3, 60, 135, 135, 60, 57, 129, 3, 0.458887
95, 2, bw, filler, NA, 999, 999, 6, 4, 171, 188, 94, 112, 135, 166, 1, 1.214
95, 2, bw, filler, NA, 999, 999, 6, 4, 171, 188, 94, 112, 135, 166, 2, 0.492208
95, 2, bw, filler, NA, 999, 999, 6, 5, 127, 56, 109, 188, 136, 156, 2, 4.89404
95, 2, bw, filler, NA, 999, 999, 6, 5, 127, 56, 109, 188, 136, 156, 1, 2.10386
95, 2, bw, attraction, a-b-db, 14, 1, 6, 6, 60, 135, 56, 125, 135, 60, 1, 47.8651
95, 2, bw, attraction, a-b-db, 14, 1, 6, 6, 60, 135, 56, 125, 135, 60, 2, 1.1515
95, 2, bw, attraction, a-b-db, 2, 2, 6, 7, 89, 163, 165, 90, 90, 165, 3, 5.59101
95, 2, bw, attraction, a-b-db, 2, 2, 6, 7, 89, 163, 165, 90, 90, 165, 2, 0.66057
95, 2, bw, attraction, a-b-da, 9, 3, 6, 8, 120, 195, 195, 120, 186, 114, 2, 1.84758
95, 2, bw, attraction, a-b-da, 9, 3, 6, 8, 120, 195, 195, 120, 186, 114, 3, 0.420292
95, 2, bw, attraction, a-b-da, 2, 2, 6, 9, 90, 165, 165, 90, 163, 89, 2, 4.76968
95, 2, bw, attraction, a-b-da, 2, 2, 6, 9, 90, 165, 165, 90, 163, 89, 3, 0.576624
95, 2, bw, filler, NA, 999, 999, 6, 10, 176, 143, 174, 184, 92, 111, 2, 0.879052
95, 2, bw, filler, NA, 999, 999, 6, 10, 176, 143, 174, 184, 92, 111, 3, 1.08284
95, 2, bw, attraction, a-b-db, 2, 3, 6, 11, 119, 193, 120, 195, 195, 120, 2, 15.189
95, 2, bw, attraction, a-b-db, 2, 3, 6, 11, 119, 193, 120, 195, 195, 120, 3, 0.360277
95, 2, bw, catch, NA, 999, 999, 6, 12, 125, 70, 132, 123, 192, 123, 3, 0.967397
95, 2, bw, catch, NA, 999, 999, 6, 12, 125, 70, 132, 123, 192, 123, 1, 3.27189
95, 2, bw, filler, NA, 999, 999, 6, 13, 138, 113, 193, 58, 144, 91, 1, 19.266
95, 2, bw, filler, NA, 999, 999, 6, 13, 138, 113, 193, 58, 144, 91, 2, 0.712668
95, 2, bw, attraction, a-b-da, 5, 2, 6, 14, 161, 88, 90, 165, 165, 90, 2, 2.07371
95, 2, bw, attraction, a-b-da, 5, 2, 6, 14, 161, 88, 90, 165, 165, 90, 1, 0.789102
95, 2, bw, filler, NA, 999, 999, 6, 15, 170, 110, 130, 187, 76, 121, 2, 1.58738
95, 2, bw, filler, NA, 999, 999, 6, 15, 170, 110, 130, 187, 76, 121, 3, 0.490158
95, 2, bw, attraction, a-b-db, 14, 3, 6, 16, 111, 181, 120, 195, 195, 120, 2, 3.46796
95, 2, bw, attraction, a-b-db, 14, 3, 6, 16, 111, 181, 120, 195, 195, 120, 1, 0.57557
95, 2, bw, filler, NA, 999, 999, 6, 17, 180, 134, 66, 160, 193, 137, 3, 16.5419
95, 2, bw, filler, NA, 999, 999, 6, 17, 180, 134, 66, 160, 193, 137, 2, 0.49087
95, 2, bw, attraction, a-b-da, 14, 3, 6, 18, 195, 120, 181, 111, 120, 195, 3, 31.8525
95, 2, bw, attraction, a-b-da, 14, 3, 6, 18, 195, 120, 181, 111, 120, 195, 2, 0.375906
95, 2, bw, attraction, a-b-da, 9, 2, 6, 19, 157, 86, 165, 90, 90, 165, 2, 1.70234
95, 2, bw, attraction, a-b-da, 9, 2, 6, 19, 157, 86, 165, 90, 90, 165, 1, 0.441192
95, 2, bw, attraction, a-b-da, 5, 1, 6, 20, 135, 60, 132, 58, 60, 135, 3, 6.35707
95, 2, bw, attraction, a-b-da, 5, 1, 6, 20, 135, 60, 132, 58, 60, 135, 2, 0.539774
95, 2, bw, attraction, a-b-da, 9, 1, 6, 21, 60, 135, 129, 57, 135, 60, 3, 6.38744
95, 2, bw, attraction, a-b-da, 9, 1, 6, 21, 60, 135, 129, 57, 135, 60, 2, 0.537393
95, 2, bw, filler, NA, 999, 999, 6, 22, 82, 96, 178, 59, 89, 140, 3, 8.30581
95, 2, bw, filler, NA, 999, 999, 6, 22, 82, 96, 178, 59, 89, 140, 1, 0.505972
95, 2, bw, attraction, a-b-da, 14, 2, 6, 23, 90, 165, 165, 90, 153, 83, 2, 25.235
95, 2, bw, attraction, a-b-da, 14, 2, 6, 23, 90, 165, 165, 90, 153, 83, 3, 0.345051
95, 2, bw, catch, NA, 999, 999, 6, 24, 142, 173, 77, 118, 111, 144, 1, 1.76883
95, 2, bw, catch, NA, 999, 999, 6, 24, 142, 173, 77, 118, 111, 144, 2, 0.656961
95, 2, bw, filler, NA, 999, 999, 6, 25, 154, 75, 136, 125, 87, 111, 2, 19.4362
95, 2, bw, filler, NA, 999, 999, 6, 25, 154, 75, 136, 125, 87, 111, 1, 2.9
95, 2, bw, attraction, a-b-db, 9, 3, 6, 26, 120, 195, 114, 186, 195, 120, 2, 2.3971
95, 2, bw, attraction, a-b-db, 9, 3, 6, 26, 120, 195, 114, 186, 195, 120, 1, 0.30756
95, 2, bw, attraction, a-b-db, 5, 2, 6, 27, 88, 161, 90, 165, 165, 90, 2, 10.4287
95, 2, bw, attraction, a-b-db, 5, 2, 6, 27, 88, 161, 90, 165, 165, 90, 1, 0.487506
95, 2, bw, filler, NA, 999, 999, 6, 28, 186, 144, 131, 148, 131, 141, 1, 1.00986
95, 2, bw, filler, NA, 999, 999, 6, 28, 186, 144, 131, 148, 131, 141, 2, 0.784307
95, 2, bw, attraction, a-b-db, 9, 2, 6, 29, 86, 157, 165, 90, 90, 165, 2, 1.73472
95, 2, bw, attraction, a-b-db, 9, 2, 6, 29, 86, 157, 165, 90, 90, 165, 1, 1.11205
95, 2, bw, attraction, a-b-da, 14, 1, 6, 30, 60, 135, 125, 56, 135, 60, 1, 2.82501
95, 2, bw, attraction, a-b-da, 14, 1, 6, 30, 60, 135, 125, 56, 135, 60, 2, 0.414026
95, 2, bw, attraction, a-b-db, 14, 2, 6, 31, 83, 153, 165, 90, 90, 165, 3, 3.61123
95, 2, bw, attraction, a-b-db, 14, 2, 6, 31, 83, 153, 165, 90, 90, 165, 1, 0.416645
95, 2, bw, attraction, a-b-da, 2, 1, 6, 32, 60, 135, 135, 60, 134, 59, 2, 17.9819
95, 2, bw, attraction, a-b-da, 2, 1, 6, 32, 60, 135, 135, 60, 134, 59, 1, 0.800298
95, 2, bw, attraction, a-b-da, 5, 3, 6, 33, 120, 195, 195, 120, 190, 117, 2, 6.37404
95, 2, bw, attraction, a-b-da, 5, 3, 6, 33, 120, 195, 195, 120, 190, 117, 1, 0.339884
95, 2, bw, attraction, a-b-da, 2, 3, 6, 34, 193, 119, 120, 195, 195, 120, 2, 2.13972
95, 2, bw, attraction, a-b-da, 2, 3, 6, 34, 193, 119, 120, 195, 195, 120, 1, 0.828408
95, 2, bw, catch, NA, 999, 999, 6, 35, 106, 89, 126, 129, 188, 127, 3, 1.0967
95, 2, bw, catch, NA, 999, 999, 6, 35, 106, 89, 126, 129, 188, 127, 1, 0.419608
95, 2, bw, attraction, a-b-db, 2, 1, 6, 36, 59, 134, 60, 135, 135, 60, 2, 1.58487
95, 2, bw, attraction, a-b-db, 2, 1, 6, 36, 59, 134, 60, 135, 135, 60, 3, 0.440299
95, 2, bw, attraction, a-b-db, 5, 3, 6, 37, 117, 190, 195, 120, 120, 195, 3, 2.26011
95, 2, bw, attraction, a-b-db, 5, 3, 6, 37, 117, 190, 195, 120, 120, 195, 1, 0.392023
95, 2, bw, catch, NA, 999, 999, 7, 1, 144, 111, 153, 162, 123, 72, 2, 1.28583
95, 2, bw, catch, NA, 999, 999, 7, 1, 144, 111, 153, 162, 123, 72, 3, 0.849436
95, 2, bw, attraction, a-b-da, 9, 1, 7, 2, 60, 135, 129, 57, 135, 60, 1, 7.40508
95, 2, bw, attraction, a-b-da, 9, 1, 7, 2, 60, 135, 129, 57, 135, 60, 2, 1.20207
95, 2, bw, attraction, a-b-db, 9, 3, 7, 3, 114, 186, 120, 195, 195, 120, 2, 2.62364
95, 2, bw, attraction, a-b-db, 9, 3, 7, 3, 114, 186, 120, 195, 195, 120, 1, 0.460756
95, 2, bw, filler, NA, 999, 999, 7, 4, 69, 105, 138, 158, 97, 131, 2, 1.1439
95, 2, bw, filler, NA, 999, 999, 7, 4, 69, 105, 138, 158, 97, 131, 1, 0.808915
95, 2, bw, filler, NA, 999, 999, 7, 5, 57, 155, 97, 119, 167, 153, 3, 1.36602
95, 2, bw, filler, NA, 999, 999, 7, 5, 57, 155, 97, 119, 167, 153, 1, 3.87016
95, 2, bw, filler, NA, 999, 999, 7, 6, 57, 81, 149, 90, 173, 113, 3, 2.80826
95, 2, bw, filler, NA, 999, 999, 7, 6, 57, 81, 149, 90, 173, 113, 1, 0.885977
95, 2, bw, attraction, a-b-da, 14, 2, 7, 7, 90, 165, 153, 83, 165, 90, 1, 2.25628
95, 2, bw, attraction, a-b-da, 14, 2, 7, 7, 90, 165, 153, 83, 165, 90, 2, 0.516195
95, 2, bw, filler, NA, 999, 999, 7, 8, 115, 160, 83, 59, 193, 181, 3, 1.10137
95, 2, bw, filler, NA, 999, 999, 7, 8, 115, 160, 83, 59, 193, 181, 2, 0.880332
95, 2, bw, attraction, a-b-da, 5, 3, 7, 9, 190, 117, 195, 120, 120, 195, 2, 1.49064
95, 2, bw, attraction, a-b-da, 5, 3, 7, 9, 190, 117, 195, 120, 120, 195, 1, 0.701496
95, 2, bw, attraction, a-b-da, 2, 2, 7, 10, 90, 165, 165, 90, 163, 89, 2, 1.52719
95, 2, bw, attraction, a-b-da, 2, 2, 7, 10, 90, 165, 165, 90, 163, 89, 3, 0.576657
95, 2, bw, filler, NA, 999, 999, 7, 11, 104, 90, 59, 58, 72, 73, 1, 1.11106
95, 2, bw, filler, NA, 999, 999, 7, 11, 104, 90, 59, 58, 72, 73, 2, 0.585489
95, 2, bw, attraction, a-b-da, 9, 3, 7, 12, 120, 195, 195, 120, 186, 114, 2, 1.53591
95, 2, bw, attraction, a-b-da, 9, 3, 7, 12, 120, 195, 195, 120, 186, 114, 3, 1.41757
95, 2, bw, attraction, a-b-da, 14, 3, 7, 13, 181, 111, 120, 195, 195, 120, 2, 2.05418
95, 2, bw, attraction, a-b-da, 14, 3, 7, 13, 181, 111, 120, 195, 195, 120, 1, 0.490775
95, 2, bw, filler, NA, 999, 999, 7, 14, 133, 74, 123, 61, 164, 62, 3, 1.98865
95, 2, bw, filler, NA, 999, 999, 7, 14, 133, 74, 123, 61, 164, 62, 2, 0.587264
95, 2, bw, attraction, a-b-da, 2, 3, 7, 15, 193, 119, 195, 120, 120, 195, 3, 6.37771
95, 2, bw, attraction, a-b-da, 2, 3, 7, 15, 193, 119, 195, 120, 120, 195, 1, 1.22376
95, 2, bw, attraction, a-b-db, 14, 2, 7, 16, 90, 165, 165, 90, 83, 153, 1, 8.54786
95, 2, bw, attraction, a-b-db, 14, 2, 7, 16, 90, 165, 165, 90, 83, 153, 3, 0.386701
95, 2, bw, filler, NA, 999, 999, 7, 17, 188, 192, 144, 81, 120, 79, 1, 1.35303
95, 2, bw, filler, NA, 999, 999, 7, 17, 188, 192, 144, 81, 120, 79, 3, 1.1219
95, 2, bw, catch, NA, 999, 999, 7, 18, 125, 130, 189, 126, 77, 118, 2, 1.14694
95, 2, bw, catch, NA, 999, 999, 7, 18, 125, 130, 189, 126, 77, 118, 3, 0.859819
95, 2, bw, attraction, a-b-da, 9, 2, 7, 19, 90, 165, 157, 86, 165, 90, 1, 29.8788
95, 2, bw, attraction, a-b-da, 9, 2, 7, 19, 90, 165, 157, 86, 165, 90, 2, 0.482074
95, 2, bw, filler, NA, 999, 999, 7, 20, 173, 163, 190, 118, 107, 172, 2, 1.30065
95, 2, bw, filler, NA, 999, 999, 7, 20, 173, 163, 190, 118, 107, 172, 3, 4.99146
95, 2, bw, attraction, a-b-da, 14, 1, 7, 21, 135, 60, 125, 56, 60, 135, 1, 2.32385
95, 2, bw, attraction, a-b-da, 14, 1, 7, 21, 135, 60, 125, 56, 60, 135, 2, 0.869112
95, 2, bw, attraction, a-b-db, 5, 2, 7, 22, 88, 161, 90, 165, 165, 90, 2, 1.45613
95, 2, bw, attraction, a-b-db, 5, 2, 7, 22, 88, 161, 90, 165, 165, 90, 1, 0.596301
95, 2, bw, attraction, a-b-db, 5, 3, 7, 23, 195, 120, 120, 195, 117, 190, 2, 3.30611
95, 2, bw, attraction, a-b-db, 5, 3, 7, 23, 195, 120, 120, 195, 117, 190, 3, 0.470638
95, 2, bw, attraction, a-b-da, 5, 2, 7, 24, 90, 165, 165, 90, 161, 88, 2, 1.75077
95, 2, bw, attraction, a-b-da, 5, 2, 7, 24, 90, 165, 165, 90, 161, 88, 3, 0.447532
95, 2, bw, catch, NA, 999, 999, 7, 25, 117, 78, 121, 134, 184, 131, 3, 1.03538
95, 2, bw, catch, NA, 999, 999, 7, 25, 117, 78, 121, 134, 184, 131, 1, 0.689024
95, 2, bw, attraction, a-b-db, 2, 2, 7, 26, 165, 90, 89, 163, 90, 165, 1, 1.97151
95, 2, bw, attraction, a-b-db, 2, 2, 7, 26, 165, 90, 89, 163, 90, 165, 2, 0.442751
95, 2, bw, attraction, a-b-db, 14, 1, 7, 27, 60, 135, 135, 60, 56, 125, 2, 2.1345
95, 2, bw, attraction, a-b-db, 14, 1, 7, 27, 60, 135, 135, 60, 56, 125, 3, 0.456058
95, 2, bw, attraction, a-b-db, 2, 3, 7, 28, 195, 120, 119, 193, 120, 195, 3, 4.27498
95, 2, bw, attraction, a-b-db, 2, 3, 7, 28, 195, 120, 119, 193, 120, 195, 1, 4.00566
95, 2, bw, attraction, a-b-da, 5, 1, 7, 29, 135, 60, 60, 135, 132, 58, 2, 7.34638
95, 2, bw, attraction, a-b-da, 5, 1, 7, 29, 135, 60, 60, 135, 132, 58, 3, 1.01732
95, 2, bw, attraction, a-b-da, 2, 1, 7, 30, 60, 135, 134, 59, 135, 60, 2, 3.99826
95, 2, bw, attraction, a-b-da, 2, 1, 7, 30, 60, 135, 134, 59, 135, 60, 1, 3.1243
95, 2, bw, filler, NA, 999, 999, 7, 31, 72, 67, 88, 194, 117, 178, 3, 2.90797
95, 2, bw, filler, NA, 999, 999, 7, 31, 72, 67, 88, 194, 117, 178, 1, 1.40568
95, 2, bw, attraction, a-b-db, 14, 3, 7, 32, 120, 195, 111, 181, 195, 120, 1, 4.9953
95, 2, bw, attraction, a-b-db, 14, 3, 7, 32, 120, 195, 111, 181, 195, 120, 2, 1.0329
95, 2, bw, attraction, a-b-db, 2, 1, 7, 33, 60, 135, 135, 60, 59, 134, 2, 1.73335
95, 2, bw, attraction, a-b-db, 2, 1, 7, 33, 60, 135, 135, 60, 59, 134, 3, 0.686649
95, 2, bw, filler, NA, 999, 999, 7, 34, 65, 119, 167, 67, 93, 111, 2, 7.40105
95, 2, bw, filler, NA, 999, 999, 7, 34, 65, 119, 167, 67, 93, 111, 1, 0.685993
95, 2, bw, attraction, a-b-db, 5, 1, 7, 35, 58, 132, 135, 60, 60, 135, 3, 8.33651
95, 2, bw, attraction, a-b-db, 5, 1, 7, 35, 58, 132, 135, 60, 60, 135, 2, 1.5838
95, 2, bw, attraction, a-b-db, 9, 1, 7, 36, 135, 60, 57, 129, 60, 135, 3, 5.55018
95, 2, bw, attraction, a-b-db, 9, 1, 7, 36, 135, 60, 57, 129, 60, 135, 1, 1.6055
95, 2, bw, attraction, a-b-db, 9, 2, 7, 37, 165, 90, 86, 157, 90, 165, 3, 5.10699
95, 2, bw, attraction, a-b-db, 9, 2, 7, 37, 165, 90, 86, 157, 90, 165, 2, 0.643987
95, 2, bw, attraction, a-b-da, 2, 2, 8, 1, 165, 90, 90, 165, 163, 89, 2, 10.8237
95, 2, bw, attraction, a-b-da, 2, 2, 8, 1, 165, 90, 90, 165, 163, 89, 1, 1.11495
95, 2, bw, filler, NA, 999, 999, 8, 2, 122, 106, 111, 101, 135, 153, 3, 1.42786
95, 2, bw, filler, NA, 999, 999, 8, 2, 122, 106, 111, 101, 135, 153, 2, 0.953474
95, 2, bw, attraction, a-b-db, 9, 2, 8, 3, 165, 90, 90, 165, 86, 157, 2, 43.593
95, 2, bw, attraction, a-b-db, 9, 2, 8, 3, 165, 90, 90, 165, 86, 157, 3, 0.403445
95, 2, bw, attraction, a-b-da, 5, 3, 8, 4, 195, 120, 120, 195, 190, 117, 2, 1.70529
95, 2, bw, attraction, a-b-da, 5, 3, 8, 4, 195, 120, 120, 195, 190, 117, 1, 0.379377
95, 2, bw, attraction, a-b-da, 2, 1, 8, 5, 135, 60, 60, 135, 134, 59, 1, 6.51389
95, 2, bw, attraction, a-b-da, 2, 1, 8, 5, 135, 60, 60, 135, 134, 59, 2, 7.19455
95, 2, bw, filler, NA, 999, 999, 8, 6, 124, 126, 144, 176, 140, 76, 2, 1.04614
95, 2, bw, filler, NA, 999, 999, 8, 6, 124, 126, 144, 176, 140, 76, 3, 0.979253
95, 2, bw, attraction, a-b-db, 2, 3, 8, 7, 119, 193, 120, 195, 195, 120, 2, 10.6735
95, 2, bw, attraction, a-b-db, 2, 3, 8, 7, 119, 193, 120, 195, 195, 120, 3, 0.490057
95, 2, bw, filler, NA, 999, 999, 8, 8, 149, 154, 135, 88, 127, 89, 1, 0.811839
95, 2, bw, filler, NA, 999, 999, 8, 8, 149, 154, 135, 88, 127, 89, 3, 1.55425
95, 2, bw, attraction, a-b-db, 5, 3, 8, 9, 117, 190, 120, 195, 195, 120, 2, 5.59364
95, 2, bw, attraction, a-b-db, 5, 3, 8, 9, 117, 190, 120, 195, 195, 120, 3, 0.63923
95, 2, bw, attraction, a-b-db, 9, 1, 8, 10, 60, 135, 57, 129, 135, 60, 1, 4.46768
95, 2, bw, attraction, a-b-db, 9, 1, 8, 10, 60, 135, 57, 129, 135, 60, 3, 3.31091
95, 2, bw, attraction, a-b-da, 5, 2, 8, 11, 161, 88, 90, 165, 165, 90, 2, 2.05523
95, 2, bw, attraction, a-b-da, 5, 2, 8, 11, 161, 88, 90, 165, 165, 90, 1, 0.643159
95, 2, bw, attraction, a-b-db, 14, 2, 8, 12, 83, 153, 90, 165, 165, 90, 2, 2.46293
95, 2, bw, attraction, a-b-db, 14, 2, 8, 12, 83, 153, 90, 165, 165, 90, 1, 2.02682
95, 2, bw, attraction, a-b-da, 9, 3, 8, 13, 195, 120, 186, 114, 120, 195, 3, 16.4226
95, 2, bw, attraction, a-b-da, 9, 3, 8, 13, 195, 120, 186, 114, 120, 195, 1, 1.16824
95, 2, bw, attraction, a-b-db, 2, 2, 8, 14, 165, 90, 89, 163, 90, 165, 2, 1.83921
95, 2, bw, attraction, a-b-db, 2, 2, 8, 14, 165, 90, 89, 163, 90, 165, 1, 0.74785
95, 2, bw, attraction, a-b-db, 9, 3, 8, 15, 120, 195, 195, 120, 114, 186, 1, 4.65959
95, 2, bw, attraction, a-b-db, 9, 3, 8, 15, 120, 195, 195, 120, 114, 186, 3, 0.422803
95, 2, bw, attraction, a-b-db, 14, 3, 8, 16, 120, 195, 111, 181, 195, 120, 1, 2.57128
95, 2, bw, attraction, a-b-db, 14, 3, 8, 16, 120, 195, 111, 181, 195, 120, 2, 0.906438
95, 2, bw, catch, NA, 999, 999, 8, 17, 171, 144, 67, 128, 145, 110, 1, 2.04351
95, 2, bw, catch, NA, 999, 999, 8, 17, 171, 144, 67, 128, 145, 110, 2, 0.720329
95, 2, bw, attraction, a-b-da, 14, 2, 8, 18, 90, 165, 153, 83, 165, 90, 1, 1.96919
95, 2, bw, attraction, a-b-da, 14, 2, 8, 18, 90, 165, 153, 83, 165, 90, 2, 0.761158
95, 2, bw, filler, NA, 999, 999, 8, 19, 88, 150, 169, 168, 128, 149, 2, 1.03223
95, 2, bw, filler, NA, 999, 999, 8, 19, 88, 150, 169, 168, 128, 149, 1, 0.76595
95, 2, bw, attraction, a-b-da, 5, 1, 8, 20, 132, 58, 60, 135, 135, 60, 2, 2.76493
95, 2, bw, attraction, a-b-da, 5, 1, 8, 20, 132, 58, 60, 135, 135, 60, 3, 1.23677
95, 2, bw, catch, NA, 999, 999, 8, 21, 69, 126, 141, 174, 115, 140, 2, 1.1768
95, 2, bw, catch, NA, 999, 999, 8, 21, 69, 126, 141, 174, 115, 140, 1, 0.744615
95, 2, bw, attraction, a-b-db, 5, 1, 8, 22, 58, 132, 60, 135, 135, 60, 2, 3.64011
95, 2, bw, attraction, a-b-db, 5, 1, 8, 22, 58, 132, 60, 135, 135, 60, 1, 1.59632
95, 2, bw, filler, NA, 999, 999, 8, 23, 179, 177, 81, 85, 108, 152, 1, 1.01776
95, 2, bw, filler, NA, 999, 999, 8, 23, 179, 177, 81, 85, 108, 152, 2, 0.928284
95, 2, bw, filler, NA, 999, 999, 8, 24, 117, 68, 138, 171, 85, 165, 2, 2.17642
95, 2, bw, filler, NA, 999, 999, 8, 24, 117, 68, 138, 171, 85, 165, 1, 0.583727
95, 2, bw, attraction, a-b-da, 2, 3, 8, 25, 120, 195, 193, 119, 195, 120, 2, 11.7262
95, 2, bw, attraction, a-b-da, 2, 3, 8, 25, 120, 195, 193, 119, 195, 120, 1, 1.13247
95, 2, bw, attraction, a-b-da, 9, 1, 8, 26, 129, 57, 60, 135, 135, 60, 3, 4.27668
95, 2, bw, attraction, a-b-da, 9, 1, 8, 26, 129, 57, 60, 135, 135, 60, 1, 0.575446
95, 2, bw, attraction, a-b-db, 14, 1, 8, 27, 135, 60, 56, 125, 60, 135, 3, 10.8857
95, 2, bw, attraction, a-b-db, 14, 1, 8, 27, 135, 60, 56, 125, 60, 135, 2, 1.65432
95, 2, bw, filler, NA, 999, 999, 8, 28, 157, 137, 165, 85, 152, 123, 1, 1.31368
95, 2, bw, filler, NA, 999, 999, 8, 28, 157, 137, 165, 85, 152, 123, 2, 1.62002
95, 2, bw, filler, NA, 999, 999, 8, 29, 58, 120, 85, 102, 114, 188, 3, 1.24076
95, 2, bw, filler, NA, 999, 999, 8, 29, 58, 120, 85, 102, 114, 188, 1, 0.885699
95, 2, bw, attraction, a-b-da, 14, 3, 8, 30, 120, 195, 195, 120, 181, 111, 1, 1.73599
95, 2, bw, attraction, a-b-da, 14, 3, 8, 30, 120, 195, 195, 120, 181, 111, 3, 0.561465
95, 2, bw, attraction, a-b-da, 14, 1, 8, 31, 60, 135, 125, 56, 135, 60, 1, 5.92054
95, 2, bw, attraction, a-b-da, 14, 1, 8, 31, 60, 135, 125, 56, 135, 60, 2, 0.689324
95, 2, bw, attraction, a-b-db, 5, 2, 8, 32, 90, 165, 88, 161, 165, 90, 2, 14.1073
95, 2, bw, attraction, a-b-db, 5, 2, 8, 32, 90, 165, 88, 161, 165, 90, 1, 0.657915
95, 2, bw, attraction, a-b-db, 2, 1, 8, 33, 135, 60, 59, 134, 60, 135, 3, 3.55706
95, 2, bw, attraction, a-b-db, 2, 1, 8, 33, 135, 60, 59, 134, 60, 135, 2, 0.396528
95, 2, bw, catch, NA, 999, 999, 8, 34, 159, 156, 100, 95, 147, 108, 1, 1.36241
95, 2, bw, catch, NA, 999, 999, 8, 34, 159, 156, 100, 95, 147, 108, 2, 0.666633
95, 2, bw, filler, NA, 999, 999, 8, 35, 86, 194, 191, 60, 180, 173, 3, 1.89372
95, 2, bw, filler, NA, 999, 999, 8, 35, 86, 194, 191, 60, 180, 173, 2, 1.50451
95, 2, bw, filler, NA, 999, 999, 8, 36, 120, 170, 158, 83, 163, 87, 1, 5.48984
95, 2, bw, filler, NA, 999, 999, 8, 36, 120, 170, 158, 83, 163, 87, 2, 0.739619
95, 2, bw, attraction, a-b-da, 9, 2, 8, 37, 90, 165, 157, 86, 165, 90, 3, 11.0191
95, 2, bw, attraction, a-b-da, 9, 2, 8, 37, 90, 165, 157, 86, 165, 90, 2, 0.59032
