sub_n, computer_n, bw_cond, effect, set, distance, diag, block_n, trial_n, h1, w1, h2, w2, h3, w3, choice, rt 
99, 2, bw, practice, NA, 999, 999, 0, 1, 99, 159, 115, 79, 121, 155, 3, 3.05879
99, 2, bw, practice, NA, 999, 999, 0, 1, 99, 159, 115, 79, 121, 155, 2, 2.44043
99, 2, bw, practice, NA, 999, 999, 0, 2, 138, 119, 61, 188, 171, 116, 3, 2.27207
99, 2, bw, practice, NA, 999, 999, 0, 2, 138, 119, 61, 188, 171, 116, 2, 4.99778
99, 2, bw, practice, NA, 999, 999, 0, 3, 82, 87, 91, 91, 169, 66, 3, 6.5436
99, 2, bw, practice, NA, 999, 999, 0, 3, 82, 87, 91, 91, 169, 66, 1, 2.54824
99, 2, bw, filler, NA, 999, 999, 1, 1, 174, 62, 194, 126, 70, 187, 2, 2.9
99, 2, bw, filler, NA, 999, 999, 1, 1, 174, 62, 194, 126, 70, 187, 1, 1.81449
99, 2, bw, attraction, a-b-db, 14, 2, 1, 2, 83, 153, 90, 165, 165, 90, 2, 5.71519
99, 2, bw, attraction, a-b-db, 14, 2, 1, 2, 83, 153, 90, 165, 165, 90, 1, 1.98008
99, 2, bw, catch, NA, 999, 999, 1, 3, 119, 136, 165, 150, 112, 83, 2, 1.45796
99, 2, bw, catch, NA, 999, 999, 1, 3, 119, 136, 165, 150, 112, 83, 3, 1.03017
99, 2, bw, attraction, a-b-da, 2, 3, 1, 4, 193, 119, 195, 120, 120, 195, 2, 5.88248
99, 2, bw, attraction, a-b-da, 2, 3, 1, 4, 193, 119, 195, 120, 120, 195, 3, 1.18865
99, 2, bw, filler, NA, 999, 999, 1, 5, 186, 58, 67, 149, 142, 146, 3, 1.8508
99, 2, bw, filler, NA, 999, 999, 1, 5, 186, 58, 67, 149, 142, 146, 2, 1.67159
99, 2, bw, attraction, a-b-db, 9, 3, 1, 6, 114, 186, 120, 195, 195, 120, 2, 3.81024
99, 2, bw, attraction, a-b-db, 9, 3, 1, 6, 114, 186, 120, 195, 195, 120, 1, 2.23182
99, 2, bw, attraction, a-b-da, 14, 1, 1, 7, 135, 60, 125, 56, 60, 135, 1, 4.17969
99, 2, bw, attraction, a-b-da, 14, 1, 1, 7, 135, 60, 125, 56, 60, 135, 2, 1.98639
99, 2, bw, attraction, a-b-db, 14, 3, 1, 8, 120, 195, 111, 181, 195, 120, 3, 5.94435
99, 2, bw, attraction, a-b-db, 14, 3, 1, 8, 120, 195, 111, 181, 195, 120, 2, 1.45578
99, 2, bw, attraction, a-b-db, 9, 2, 1, 9, 90, 165, 86, 157, 165, 90, 3, 5.81931
99, 2, bw, attraction, a-b-db, 9, 2, 1, 9, 90, 165, 86, 157, 165, 90, 2, 1.80016
99, 2, bw, attraction, a-b-db, 9, 1, 1, 10, 135, 60, 60, 135, 57, 129, 1, 4.48543
99, 2, bw, attraction, a-b-db, 9, 1, 1, 10, 135, 60, 60, 135, 57, 129, 3, 1.56807
99, 2, bw, filler, NA, 999, 999, 1, 11, 91, 124, 100, 181, 142, 190, 3, 1.13481
99, 2, bw, filler, NA, 999, 999, 1, 11, 91, 124, 100, 181, 142, 190, 1, 0.952503
99, 2, bw, attraction, a-b-db, 2, 2, 1, 12, 165, 90, 89, 163, 90, 165, 3, 9.22426
99, 2, bw, attraction, a-b-db, 2, 2, 1, 12, 165, 90, 89, 163, 90, 165, 2, 1.11514
99, 2, bw, attraction, a-b-da, 9, 1, 1, 13, 60, 135, 135, 60, 129, 57, 2, 10.3403
99, 2, bw, attraction, a-b-da, 9, 1, 1, 13, 60, 135, 135, 60, 129, 57, 1, 1.2503
99, 2, bw, filler, NA, 999, 999, 1, 14, 95, 116, 176, 176, 183, 131, 2, 1.3419
99, 2, bw, filler, NA, 999, 999, 1, 14, 95, 116, 176, 176, 183, 131, 1, 1.05464
99, 2, bw, attraction, a-b-db, 5, 2, 1, 15, 88, 161, 165, 90, 90, 165, 2, 5.29035
99, 2, bw, attraction, a-b-db, 5, 2, 1, 15, 88, 161, 165, 90, 90, 165, 1, 1.21996
99, 2, bw, filler, NA, 999, 999, 1, 16, 166, 182, 71, 148, 78, 188, 1, 1.13694
99, 2, bw, filler, NA, 999, 999, 1, 16, 166, 182, 71, 148, 78, 188, 2, 0.865763
99, 2, bw, attraction, a-b-db, 2, 3, 1, 17, 195, 120, 119, 193, 120, 195, 2, 7.72475
99, 2, bw, attraction, a-b-db, 2, 3, 1, 17, 195, 120, 119, 193, 120, 195, 3, 1.62848
99, 2, bw, attraction, a-b-da, 5, 3, 1, 18, 195, 120, 190, 117, 120, 195, 2, 3.96045
99, 2, bw, attraction, a-b-da, 5, 3, 1, 18, 195, 120, 190, 117, 120, 195, 3, 1.23976
99, 2, bw, filler, NA, 999, 999, 1, 19, 144, 117, 94, 187, 194, 171, 3, 1.97939
99, 2, bw, filler, NA, 999, 999, 1, 19, 144, 117, 94, 187, 194, 171, 2, 6.79468
99, 2, bw, filler, NA, 999, 999, 1, 20, 102, 80, 95, 91, 56, 65, 2, 4.71047
99, 2, bw, filler, NA, 999, 999, 1, 20, 102, 80, 95, 91, 56, 65, 3, 0.9117
99, 2, bw, catch, NA, 999, 999, 1, 21, 106, 149, 93, 102, 177, 138, 3, 1.56881
99, 2, bw, catch, NA, 999, 999, 1, 21, 106, 149, 93, 102, 177, 138, 2, 1.71288
99, 2, bw, attraction, a-b-da, 5, 1, 1, 22, 60, 135, 135, 60, 132, 58, 2, 8.71354
99, 2, bw, attraction, a-b-da, 5, 1, 1, 22, 60, 135, 135, 60, 132, 58, 1, 5.88148
99, 2, bw, catch, NA, 999, 999, 1, 23, 60, 135, 169, 146, 117, 138, 2, 1.74632
99, 2, bw, catch, NA, 999, 999, 1, 23, 60, 135, 169, 146, 117, 138, 1, 1.05905
99, 2, bw, attraction, a-b-db, 5, 1, 1, 24, 60, 135, 58, 132, 135, 60, 3, 16.0301
99, 2, bw, attraction, a-b-db, 5, 1, 1, 24, 60, 135, 58, 132, 135, 60, 2, 2.91888
99, 2, bw, filler, NA, 999, 999, 1, 25, 68, 110, 62, 83, 131, 166, 3, 1.03131
99, 2, bw, filler, NA, 999, 999, 1, 25, 68, 110, 62, 83, 131, 166, 2, 1.18108
99, 2, bw, attraction, a-b-db, 14, 1, 1, 26, 135, 60, 56, 125, 60, 135, 1, 3.6752
99, 2, bw, attraction, a-b-db, 14, 1, 1, 26, 135, 60, 56, 125, 60, 135, 2, 0.822052
99, 2, bw, attraction, a-b-da, 5, 2, 1, 27, 161, 88, 165, 90, 90, 165, 2, 15.3231
99, 2, bw, attraction, a-b-da, 5, 2, 1, 27, 161, 88, 165, 90, 90, 165, 3, 1.66491
99, 2, bw, attraction, a-b-da, 2, 2, 1, 28, 165, 90, 90, 165, 163, 89, 2, 5.36366
99, 2, bw, attraction, a-b-da, 2, 2, 1, 28, 165, 90, 90, 165, 163, 89, 3, 1.22667
99, 2, bw, attraction, a-b-da, 9, 3, 1, 29, 186, 114, 195, 120, 120, 195, 3, 7.35084
99, 2, bw, attraction, a-b-da, 9, 3, 1, 29, 186, 114, 195, 120, 120, 195, 1, 1.22183
99, 2, bw, attraction, a-b-db, 5, 3, 1, 30, 117, 190, 195, 120, 120, 195, 1, 20.5628
99, 2, bw, attraction, a-b-db, 5, 3, 1, 30, 117, 190, 195, 120, 120, 195, 2, 3.68497
99, 2, bw, attraction, a-b-db, 2, 1, 1, 31, 135, 60, 59, 134, 60, 135, 1, 21.7345
99, 2, bw, attraction, a-b-db, 2, 1, 1, 31, 135, 60, 59, 134, 60, 135, 2, 1.96165
99, 2, bw, attraction, a-b-da, 14, 3, 1, 32, 195, 120, 120, 195, 181, 111, 1, 10.1123
99, 2, bw, attraction, a-b-da, 14, 3, 1, 32, 195, 120, 120, 195, 181, 111, 3, 0.943952
99, 2, bw, filler, NA, 999, 999, 1, 33, 81, 195, 110, 165, 141, 72, 2, 2.52754
99, 2, bw, filler, NA, 999, 999, 1, 33, 81, 195, 110, 165, 141, 72, 3, 1.20058
99, 2, bw, filler, NA, 999, 999, 1, 34, 184, 103, 121, 174, 57, 70, 2, 2.39815
99, 2, bw, filler, NA, 999, 999, 1, 34, 184, 103, 121, 174, 57, 70, 3, 1.90868
99, 2, bw, attraction, a-b-da, 9, 2, 1, 35, 157, 86, 165, 90, 90, 165, 2, 11.3255
99, 2, bw, attraction, a-b-da, 9, 2, 1, 35, 157, 86, 165, 90, 90, 165, 1, 1.31578
99, 2, bw, attraction, a-b-da, 2, 1, 1, 36, 135, 60, 134, 59, 60, 135, 2, 3.75672
99, 2, bw, attraction, a-b-da, 2, 1, 1, 36, 135, 60, 134, 59, 60, 135, 3, 0.892075
99, 2, bw, attraction, a-b-da, 14, 2, 1, 37, 165, 90, 90, 165, 153, 83, 2, 12.5339
99, 2, bw, attraction, a-b-da, 14, 2, 1, 37, 165, 90, 90, 165, 153, 83, 3, 0.987806
99, 2, bw, filler, NA, 999, 999, 2, 1, 111, 80, 194, 56, 149, 73, 1, 101.106
99, 2, bw, filler, NA, 999, 999, 2, 1, 111, 80, 194, 56, 149, 73, 2, 0.534561
99, 2, bw, attraction, a-b-da, 14, 3, 2, 2, 195, 120, 181, 111, 120, 195, 1, 3.83102
99, 2, bw, attraction, a-b-da, 14, 3, 2, 2, 195, 120, 181, 111, 120, 195, 2, 0.371774
99, 2, bw, filler, NA, 999, 999, 2, 3, 174, 60, 101, 66, 175, 103, 3, 7.8749
99, 2, bw, filler, NA, 999, 999, 2, 3, 174, 60, 101, 66, 175, 103, 2, 7.62844
99, 2, bw, filler, NA, 999, 999, 2, 4, 162, 104, 133, 164, 155, 178, 3, 1.55069
99, 2, bw, filler, NA, 999, 999, 2, 4, 162, 104, 133, 164, 155, 178, 1, 11.0956
99, 2, bw, attraction, a-b-db, 14, 2, 2, 5, 165, 90, 83, 153, 90, 165, 1, 6.29388
99, 2, bw, attraction, a-b-db, 14, 2, 2, 5, 165, 90, 83, 153, 90, 165, 2, 1.11931
99, 2, bw, filler, NA, 999, 999, 2, 6, 181, 77, 98, 168, 191, 157, 3, 1.11224
99, 2, bw, filler, NA, 999, 999, 2, 6, 181, 77, 98, 168, 191, 157, 1, 16.4905
99, 2, bw, filler, NA, 999, 999, 2, 7, 176, 107, 136, 138, 138, 125, 2, 25.488
99, 2, bw, filler, NA, 999, 999, 2, 7, 176, 107, 136, 138, 138, 125, 3, 4.62799
99, 2, bw, attraction, a-b-da, 14, 2, 2, 8, 165, 90, 153, 83, 90, 165, 1, 2.26313
99, 2, bw, attraction, a-b-da, 14, 2, 2, 8, 165, 90, 153, 83, 90, 165, 2, 0.923002
99, 2, bw, filler, NA, 999, 999, 2, 9, 145, 86, 113, 175, 130, 66, 2, 1.5714
99, 2, bw, filler, NA, 999, 999, 2, 9, 145, 86, 113, 175, 130, 66, 3, 0.498834
99, 2, bw, attraction, a-b-da, 2, 1, 2, 10, 135, 60, 134, 59, 60, 135, 1, 1.28461
99, 2, bw, attraction, a-b-da, 2, 1, 2, 10, 135, 60, 134, 59, 60, 135, 3, 0.856217
99, 2, bw, attraction, a-b-da, 5, 3, 2, 11, 190, 117, 195, 120, 120, 195, 3, 2.72341
99, 2, bw, attraction, a-b-da, 5, 3, 2, 11, 190, 117, 195, 120, 120, 195, 1, 0.812376
99, 2, bw, attraction, a-b-db, 9, 3, 2, 12, 114, 186, 120, 195, 195, 120, 2, 3.74537
99, 2, bw, attraction, a-b-db, 9, 3, 2, 12, 114, 186, 120, 195, 195, 120, 1, 1.5936
99, 2, bw, attraction, a-b-da, 2, 2, 2, 13, 165, 90, 90, 165, 163, 89, 3, 13.8069
99, 2, bw, attraction, a-b-da, 2, 2, 2, 13, 165, 90, 90, 165, 163, 89, 1, 0.945868
99, 2, bw, filler, NA, 999, 999, 2, 14, 133, 146, 170, 174, 106, 194, 2, 1.56957
99, 2, bw, filler, NA, 999, 999, 2, 14, 133, 146, 170, 174, 106, 194, 1, 0.765398
99, 2, bw, filler, NA, 999, 999, 2, 15, 93, 100, 137, 101, 137, 84, 2, 4.03282
99, 2, bw, filler, NA, 999, 999, 2, 15, 93, 100, 137, 101, 137, 84, 1, 0.557493
99, 2, bw, attraction, a-b-db, 2, 1, 2, 16, 135, 60, 60, 135, 59, 134, 3, 2.72459
99, 2, bw, attraction, a-b-db, 2, 1, 2, 16, 135, 60, 60, 135, 59, 134, 1, 0.565719
99, 2, bw, attraction, a-b-da, 2, 3, 2, 17, 193, 119, 195, 120, 120, 195, 2, 2.23685
99, 2, bw, attraction, a-b-da, 2, 3, 2, 17, 193, 119, 195, 120, 120, 195, 3, 0.341697
99, 2, bw, attraction, a-b-db, 2, 3, 2, 18, 120, 195, 119, 193, 195, 120, 3, 4.93724
99, 2, bw, attraction, a-b-db, 2, 3, 2, 18, 120, 195, 119, 193, 195, 120, 1, 0.41766
99, 2, bw, attraction, a-b-da, 9, 3, 2, 19, 195, 120, 186, 114, 120, 195, 3, 7.70292
99, 2, bw, attraction, a-b-da, 9, 3, 2, 19, 195, 120, 186, 114, 120, 195, 2, 0.895754
99, 2, bw, attraction, a-b-da, 5, 2, 2, 20, 161, 88, 90, 165, 165, 90, 1, 3.38533
99, 2, bw, attraction, a-b-da, 5, 2, 2, 20, 161, 88, 90, 165, 165, 90, 3, 5.01632
99, 2, bw, attraction, a-b-da, 9, 2, 2, 21, 90, 165, 157, 86, 165, 90, 3, 7.50808
99, 2, bw, attraction, a-b-da, 9, 2, 2, 21, 90, 165, 157, 86, 165, 90, 1, 0.780373
99, 2, bw, filler, NA, 999, 999, 2, 22, 94, 99, 186, 166, 156, 194, 3, 4.81866
99, 2, bw, filler, NA, 999, 999, 2, 22, 94, 99, 186, 166, 156, 194, 1, 0.887913
99, 2, bw, attraction, a-b-db, 5, 1, 2, 23, 58, 132, 135, 60, 60, 135, 2, 4.07407
99, 2, bw, attraction, a-b-db, 5, 1, 2, 23, 58, 132, 135, 60, 60, 135, 3, 0.548828
99, 2, bw, attraction, a-b-db, 5, 3, 2, 24, 195, 120, 120, 195, 117, 190, 2, 4.45277
99, 2, bw, attraction, a-b-db, 5, 3, 2, 24, 195, 120, 120, 195, 117, 190, 1, 1.18463
99, 2, bw, catch, NA, 999, 999, 2, 25, 134, 61, 138, 177, 139, 116, 2, 1.45487
99, 2, bw, catch, NA, 999, 999, 2, 25, 134, 61, 138, 177, 139, 116, 1, 0.587024
99, 2, bw, attraction, a-b-db, 5, 2, 2, 26, 90, 165, 88, 161, 165, 90, 1, 8.68934
99, 2, bw, attraction, a-b-db, 5, 2, 2, 26, 90, 165, 88, 161, 165, 90, 3, 3.25079
99, 2, bw, attraction, a-b-da, 5, 1, 2, 27, 132, 58, 135, 60, 60, 135, 1, 1.26954
99, 2, bw, attraction, a-b-da, 5, 1, 2, 27, 132, 58, 135, 60, 60, 135, 2, 0.305846
99, 2, bw, attraction, a-b-da, 9, 1, 2, 28, 135, 60, 129, 57, 60, 135, 1, 1.89964
99, 2, bw, attraction, a-b-da, 9, 1, 2, 28, 135, 60, 129, 57, 60, 135, 3, 0.478494
99, 2, bw, catch, NA, 999, 999, 2, 29, 132, 183, 155, 100, 62, 133, 1, 0.952803
99, 2, bw, catch, NA, 999, 999, 2, 29, 132, 183, 155, 100, 62, 133, 3, 0.649848
99, 2, bw, attraction, a-b-db, 14, 1, 2, 30, 135, 60, 60, 135, 56, 125, 1, 3.75757
99, 2, bw, attraction, a-b-db, 14, 1, 2, 30, 135, 60, 60, 135, 56, 125, 3, 0.485129
99, 2, bw, catch, NA, 999, 999, 2, 31, 192, 123, 111, 144, 114, 81, 1, 1.79158
99, 2, bw, catch, NA, 999, 999, 2, 31, 192, 123, 111, 144, 114, 81, 3, 0.526358
99, 2, bw, attraction, a-b-db, 2, 2, 2, 32, 165, 90, 89, 163, 90, 165, 2, 5.93468
99, 2, bw, attraction, a-b-db, 2, 2, 2, 32, 165, 90, 89, 163, 90, 165, 3, 1.15903
99, 2, bw, attraction, a-b-da, 14, 1, 2, 33, 125, 56, 60, 135, 135, 60, 3, 3.03776
99, 2, bw, attraction, a-b-da, 14, 1, 2, 33, 125, 56, 60, 135, 135, 60, 1, 1.45011
99, 2, bw, filler, NA, 999, 999, 2, 34, 195, 88, 98, 107, 83, 142, 1, 3.30147
99, 2, bw, filler, NA, 999, 999, 2, 34, 195, 88, 98, 107, 83, 142, 2, 0.847814
99, 2, bw, attraction, a-b-db, 9, 2, 2, 35, 165, 90, 86, 157, 90, 165, 1, 4.53155
99, 2, bw, attraction, a-b-db, 9, 2, 2, 35, 165, 90, 86, 157, 90, 165, 2, 0.444115
99, 2, bw, attraction, a-b-db, 9, 1, 2, 36, 135, 60, 60, 135, 57, 129, 1, 2.42393
99, 2, bw, attraction, a-b-db, 9, 1, 2, 36, 135, 60, 60, 135, 57, 129, 2, 0.381165
99, 2, bw, attraction, a-b-db, 14, 3, 2, 37, 111, 181, 195, 120, 120, 195, 2, 3.86762
99, 2, bw, attraction, a-b-db, 14, 3, 2, 37, 111, 181, 195, 120, 120, 195, 1, 0.486979
99, 2, bw, filler, NA, 999, 999, 3, 1, 114, 66, 96, 90, 141, 77, 3, 1.30551
99, 2, bw, filler, NA, 999, 999, 3, 1, 114, 66, 96, 90, 141, 77, 1, 2.24376
99, 2, bw, attraction, a-b-da, 2, 3, 3, 2, 195, 120, 193, 119, 120, 195, 3, 6.24691
99, 2, bw, attraction, a-b-da, 2, 3, 3, 2, 195, 120, 193, 119, 120, 195, 2, 1.05037
99, 2, bw, filler, NA, 999, 999, 3, 3, 101, 113, 113, 82, 121, 72, 1, 2.34992
99, 2, bw, filler, NA, 999, 999, 3, 3, 101, 113, 113, 82, 121, 72, 3, 1.24654
99, 2, bw, attraction, a-b-db, 14, 2, 3, 4, 83, 153, 90, 165, 165, 90, 3, 2.57811
99, 2, bw, attraction, a-b-db, 14, 2, 3, 4, 83, 153, 90, 165, 165, 90, 1, 0.521155
99, 2, bw, filler, NA, 999, 999, 3, 5, 175, 107, 146, 83, 171, 174, 3, 1.03437
99, 2, bw, filler, NA, 999, 999, 3, 5, 175, 107, 146, 83, 171, 174, 2, 0.46395
99, 2, bw, attraction, a-b-da, 9, 3, 3, 6, 186, 114, 195, 120, 120, 195, 2, 5.48305
99, 2, bw, attraction, a-b-da, 9, 3, 3, 6, 186, 114, 195, 120, 120, 195, 3, 0.773414
99, 2, bw, attraction, a-b-da, 14, 2, 3, 7, 90, 165, 153, 83, 165, 90, 1, 9.60387
99, 2, bw, attraction, a-b-da, 14, 2, 3, 7, 90, 165, 153, 83, 165, 90, 2, 0.424055
99, 2, bw, attraction, a-b-da, 5, 1, 3, 8, 60, 135, 135, 60, 132, 58, 2, 4.7724
99, 2, bw, attraction, a-b-da, 5, 1, 3, 8, 60, 135, 135, 60, 132, 58, 1, 0.554952
99, 2, bw, attraction, a-b-db, 9, 1, 3, 9, 60, 135, 135, 60, 57, 129, 1, 3.26668
99, 2, bw, attraction, a-b-db, 9, 1, 3, 9, 60, 135, 135, 60, 57, 129, 3, 0.44632
99, 2, bw, catch, NA, 999, 999, 3, 10, 151, 104, 142, 173, 71, 124, 2, 1.37807
99, 2, bw, catch, NA, 999, 999, 3, 10, 151, 104, 142, 173, 71, 124, 3, 0.433711
99, 2, bw, attraction, a-b-db, 2, 3, 3, 11, 119, 193, 195, 120, 120, 195, 3, 2.7263
99, 2, bw, attraction, a-b-db, 2, 3, 3, 11, 119, 193, 195, 120, 120, 195, 2, 0.511332
99, 2, bw, filler, NA, 999, 999, 3, 12, 177, 175, 180, 100, 68, 150, 1, 0.93659
99, 2, bw, filler, NA, 999, 999, 3, 12, 177, 175, 180, 100, 68, 150, 3, 0.722112
99, 2, bw, filler, NA, 999, 999, 3, 13, 185, 144, 105, 143, 130, 131, 1, 3.48318
99, 2, bw, filler, NA, 999, 999, 3, 13, 185, 144, 105, 143, 130, 131, 2, 2.63811
99, 2, bw, attraction, a-b-da, 2, 2, 3, 14, 163, 89, 165, 90, 90, 165, 3, 10.0258
99, 2, bw, attraction, a-b-da, 2, 2, 3, 14, 163, 89, 165, 90, 90, 165, 2, 0.580633
99, 2, bw, attraction, a-b-da, 2, 1, 3, 15, 135, 60, 134, 59, 60, 135, 3, 1.4752
99, 2, bw, attraction, a-b-da, 2, 1, 3, 15, 135, 60, 134, 59, 60, 135, 2, 0.422626
99, 2, bw, filler, NA, 999, 999, 3, 16, 73, 157, 99, 93, 143, 56, 1, 2.62713
99, 2, bw, filler, NA, 999, 999, 3, 16, 73, 157, 99, 93, 143, 56, 3, 0.552221
99, 2, bw, attraction, a-b-da, 14, 1, 3, 17, 60, 135, 125, 56, 135, 60, 3, 6.18404
99, 2, bw, attraction, a-b-da, 14, 1, 3, 17, 60, 135, 125, 56, 135, 60, 1, 0.486027
99, 2, bw, attraction, a-b-da, 14, 3, 3, 18, 195, 120, 181, 111, 120, 195, 1, 5.80067
99, 2, bw, attraction, a-b-da, 14, 3, 3, 18, 195, 120, 181, 111, 120, 195, 2, 1.13399
99, 2, bw, attraction, a-b-da, 5, 2, 3, 19, 90, 165, 165, 90, 161, 88, 1, 6.8223
99, 2, bw, attraction, a-b-da, 5, 2, 3, 19, 90, 165, 165, 90, 161, 88, 2, 1.04273
99, 2, bw, attraction, a-b-da, 9, 1, 3, 20, 129, 57, 135, 60, 60, 135, 3, 3.69437
99, 2, bw, attraction, a-b-da, 9, 1, 3, 20, 129, 57, 135, 60, 60, 135, 1, 0.60052
99, 2, bw, filler, NA, 999, 999, 3, 21, 64, 190, 171, 60, 64, 65, 1, 1.12625
99, 2, bw, filler, NA, 999, 999, 3, 21, 64, 190, 171, 60, 64, 65, 3, 0.671993
99, 2, bw, filler, NA, 999, 999, 3, 22, 167, 58, 108, 164, 118, 131, 2, 2.59498
99, 2, bw, filler, NA, 999, 999, 3, 22, 167, 58, 108, 164, 118, 131, 1, 0.657654
99, 2, bw, catch, NA, 999, 999, 3, 23, 131, 184, 107, 148, 96, 99, 1, 1.14857
99, 2, bw, catch, NA, 999, 999, 3, 23, 131, 184, 107, 148, 96, 99, 3, 0.549577
99, 2, bw, attraction, a-b-db, 14, 3, 3, 24, 111, 181, 120, 195, 195, 120, 2, 3.02923
99, 2, bw, attraction, a-b-db, 14, 3, 3, 24, 111, 181, 120, 195, 195, 120, 1, 0.666288
99, 2, bw, filler, NA, 999, 999, 3, 25, 136, 128, 66, 169, 75, 140, 1, 1.37333
99, 2, bw, filler, NA, 999, 999, 3, 25, 136, 128, 66, 169, 75, 140, 2, 0.605061
99, 2, bw, attraction, a-b-db, 5, 1, 3, 26, 60, 135, 58, 132, 135, 60, 3, 1.95476
99, 2, bw, attraction, a-b-db, 5, 1, 3, 26, 60, 135, 58, 132, 135, 60, 1, 0.458648
99, 2, bw, attraction, a-b-db, 5, 2, 3, 27, 88, 161, 90, 165, 165, 90, 2, 1.86985
99, 2, bw, attraction, a-b-db, 5, 2, 3, 27, 88, 161, 90, 165, 165, 90, 1, 0.393946
99, 2, bw, attraction, a-b-da, 9, 2, 3, 28, 90, 165, 157, 86, 165, 90, 3, 3.23984
99, 2, bw, attraction, a-b-da, 9, 2, 3, 28, 90, 165, 157, 86, 165, 90, 1, 0.555966
99, 2, bw, catch, NA, 999, 999, 3, 29, 140, 115, 117, 78, 122, 193, 3, 1.97183
99, 2, bw, catch, NA, 999, 999, 3, 29, 140, 115, 117, 78, 122, 193, 2, 0.387068
99, 2, bw, attraction, a-b-db, 2, 1, 3, 30, 60, 135, 135, 60, 59, 134, 3, 1.89775
99, 2, bw, attraction, a-b-db, 2, 1, 3, 30, 60, 135, 135, 60, 59, 134, 2, 0.42024
99, 2, bw, attraction, a-b-da, 5, 3, 3, 31, 195, 120, 190, 117, 120, 195, 1, 10.0495
99, 2, bw, attraction, a-b-da, 5, 3, 3, 31, 195, 120, 190, 117, 120, 195, 3, 0.483601
99, 2, bw, attraction, a-b-db, 5, 3, 3, 32, 120, 195, 195, 120, 117, 190, 2, 1.75802
99, 2, bw, attraction, a-b-db, 5, 3, 3, 32, 120, 195, 195, 120, 117, 190, 3, 0.334239
99, 2, bw, filler, NA, 999, 999, 3, 33, 98, 118, 168, 94, 84, 153, 2, 1.41462
99, 2, bw, filler, NA, 999, 999, 3, 33, 98, 118, 168, 94, 84, 153, 1, 0.668818
99, 2, bw, attraction, a-b-db, 9, 2, 3, 34, 165, 90, 86, 157, 90, 165, 3, 3.77597
99, 2, bw, attraction, a-b-db, 9, 2, 3, 34, 165, 90, 86, 157, 90, 165, 1, 1.56675
99, 2, bw, attraction, a-b-db, 9, 3, 3, 35, 195, 120, 120, 195, 114, 186, 2, 7.66152
99, 2, bw, attraction, a-b-db, 9, 3, 3, 35, 195, 120, 120, 195, 114, 186, 3, 0.32777
99, 2, bw, attraction, a-b-db, 2, 2, 3, 36, 89, 163, 165, 90, 90, 165, 3, 3.65623
99, 2, bw, attraction, a-b-db, 2, 2, 3, 36, 89, 163, 165, 90, 90, 165, 1, 0.547736
99, 2, bw, attraction, a-b-db, 14, 1, 3, 37, 60, 135, 56, 125, 135, 60, 3, 2.27556
99, 2, bw, attraction, a-b-db, 14, 1, 3, 37, 60, 135, 56, 125, 135, 60, 2, 0.591063
99, 2, bw, filler, NA, 999, 999, 4, 1, 71, 177, 67, 121, 173, 123, 3, 1.00454
99, 2, bw, filler, NA, 999, 999, 4, 1, 71, 177, 67, 121, 173, 123, 2, 0.435011
99, 2, bw, attraction, a-b-da, 9, 3, 4, 2, 195, 120, 186, 114, 120, 195, 1, 2.31151
99, 2, bw, attraction, a-b-da, 9, 3, 4, 2, 195, 120, 186, 114, 120, 195, 3, 0.409323
99, 2, bw, filler, NA, 999, 999, 4, 3, 183, 90, 88, 88, 166, 86, 1, 1.78239
99, 2, bw, filler, NA, 999, 999, 4, 3, 183, 90, 88, 88, 166, 86, 2, 0.413887
99, 2, bw, filler, NA, 999, 999, 4, 4, 74, 178, 131, 124, 109, 183, 3, 9.363
99, 2, bw, filler, NA, 999, 999, 4, 4, 74, 178, 131, 124, 109, 183, 1, 0.448655
99, 2, bw, attraction, a-b-db, 5, 2, 4, 5, 165, 90, 88, 161, 90, 165, 1, 5.51649
99, 2, bw, attraction, a-b-db, 5, 2, 4, 5, 165, 90, 88, 161, 90, 165, 3, 0.509383
99, 2, bw, attraction, a-b-db, 2, 2, 4, 6, 90, 165, 165, 90, 89, 163, 2, 3.21459
99, 2, bw, attraction, a-b-db, 2, 2, 4, 6, 90, 165, 165, 90, 89, 163, 3, 0.628152
99, 2, bw, attraction, a-b-da, 2, 3, 4, 7, 193, 119, 120, 195, 195, 120, 2, 3.40054
99, 2, bw, attraction, a-b-da, 2, 3, 4, 7, 193, 119, 120, 195, 195, 120, 3, 0.318715
99, 2, bw, attraction, a-b-da, 5, 1, 4, 8, 60, 135, 132, 58, 135, 60, 3, 6.144
99, 2, bw, attraction, a-b-da, 5, 1, 4, 8, 60, 135, 132, 58, 135, 60, 1, 0.311572
99, 2, bw, attraction, a-b-db, 5, 3, 4, 9, 117, 190, 195, 120, 120, 195, 3, 3.94475
99, 2, bw, attraction, a-b-db, 5, 3, 4, 9, 117, 190, 195, 120, 120, 195, 1, 0.776542
99, 2, bw, attraction, a-b-da, 14, 3, 4, 10, 181, 111, 120, 195, 195, 120, 3, 3.57502
99, 2, bw, attraction, a-b-da, 14, 3, 4, 10, 181, 111, 120, 195, 195, 120, 1, 0.677807
99, 2, bw, attraction, a-b-db, 9, 1, 4, 11, 135, 60, 60, 135, 57, 129, 1, 4.84019
99, 2, bw, attraction, a-b-db, 9, 1, 4, 11, 135, 60, 60, 135, 57, 129, 3, 0.50802
99, 2, bw, attraction, a-b-da, 9, 2, 4, 12, 90, 165, 157, 86, 165, 90, 3, 2.02913
99, 2, bw, attraction, a-b-da, 9, 2, 4, 12, 90, 165, 157, 86, 165, 90, 2, 1.34642
99, 2, bw, attraction, a-b-db, 2, 1, 4, 13, 60, 135, 135, 60, 59, 134, 3, 5.18602
99, 2, bw, attraction, a-b-db, 2, 1, 4, 13, 60, 135, 135, 60, 59, 134, 2, 0.664388
99, 2, bw, filler, NA, 999, 999, 4, 14, 64, 190, 175, 56, 139, 102, 3, 1.7074
99, 2, bw, filler, NA, 999, 999, 4, 14, 64, 190, 175, 56, 139, 102, 2, 0.829456
99, 2, bw, attraction, a-b-da, 2, 2, 4, 15, 165, 90, 163, 89, 90, 165, 1, 6.17787
99, 2, bw, attraction, a-b-da, 2, 2, 4, 15, 165, 90, 163, 89, 90, 165, 3, 0.511938
99, 2, bw, attraction, a-b-db, 5, 1, 4, 16, 135, 60, 58, 132, 60, 135, 1, 3.37704
99, 2, bw, attraction, a-b-db, 5, 1, 4, 16, 135, 60, 58, 132, 60, 135, 2, 1.20795
99, 2, bw, attraction, a-b-da, 14, 1, 4, 17, 125, 56, 135, 60, 60, 135, 2, 1.83497
99, 2, bw, attraction, a-b-da, 14, 1, 4, 17, 125, 56, 135, 60, 60, 135, 1, 0.633536
99, 2, bw, attraction, a-b-db, 14, 2, 4, 18, 165, 90, 83, 153, 90, 165, 3, 6.46199
99, 2, bw, attraction, a-b-db, 14, 2, 4, 18, 165, 90, 83, 153, 90, 165, 2, 0.432674
99, 2, bw, attraction, a-b-db, 9, 2, 4, 19, 86, 157, 90, 165, 165, 90, 3, 8.05303
99, 2, bw, attraction, a-b-db, 9, 2, 4, 19, 86, 157, 90, 165, 165, 90, 1, 2.2399
99, 2, bw, attraction, a-b-da, 14, 2, 4, 20, 165, 90, 90, 165, 153, 83, 1, 8.09129
99, 2, bw, attraction, a-b-da, 14, 2, 4, 20, 165, 90, 90, 165, 153, 83, 3, 1.19589
99, 2, bw, attraction, a-b-da, 5, 3, 4, 21, 120, 195, 195, 120, 190, 117, 3, 8.29748
99, 2, bw, attraction, a-b-da, 5, 3, 4, 21, 120, 195, 195, 120, 190, 117, 1, 0.762156
99, 2, bw, filler, NA, 999, 999, 4, 22, 121, 148, 182, 61, 179, 187, 3, 0.625177
99, 2, bw, filler, NA, 999, 999, 4, 22, 121, 148, 182, 61, 179, 187, 2, 0.726978
99, 2, bw, attraction, a-b-db, 14, 1, 4, 23, 60, 135, 56, 125, 135, 60, 3, 1.8393
99, 2, bw, attraction, a-b-db, 14, 1, 4, 23, 60, 135, 56, 125, 135, 60, 2, 0.692247
99, 2, bw, catch, NA, 999, 999, 4, 24, 150, 105, 168, 147, 68, 127, 2, 1.15789
99, 2, bw, catch, NA, 999, 999, 4, 24, 150, 105, 168, 147, 68, 127, 3, 0.430066
99, 2, bw, filler, NA, 999, 999, 4, 25, 74, 102, 121, 65, 162, 129, 3, 0.962564
99, 2, bw, filler, NA, 999, 999, 4, 25, 74, 102, 121, 65, 162, 129, 2, 1.15489
99, 2, bw, filler, NA, 999, 999, 4, 26, 145, 139, 169, 125, 152, 181, 3, 1.51449
99, 2, bw, filler, NA, 999, 999, 4, 26, 145, 139, 169, 125, 152, 181, 2, 1.22072
99, 2, bw, attraction, a-b-db, 14, 3, 4, 27, 195, 120, 111, 181, 120, 195, 1, 2.44143
99, 2, bw, attraction, a-b-db, 14, 3, 4, 27, 195, 120, 111, 181, 120, 195, 2, 0.349991
99, 2, bw, filler, NA, 999, 999, 4, 28, 107, 167, 112, 118, 136, 79, 1, 1.79789
99, 2, bw, filler, NA, 999, 999, 4, 28, 107, 167, 112, 118, 136, 79, 3, 0.46864
99, 2, bw, catch, NA, 999, 999, 4, 29, 126, 129, 185, 130, 114, 81, 2, 1.61588
99, 2, bw, catch, NA, 999, 999, 4, 29, 126, 129, 185, 130, 114, 81, 3, 0.525929
99, 2, bw, filler, NA, 999, 999, 4, 30, 135, 136, 155, 137, 105, 143, 2, 1.95837
99, 2, bw, filler, NA, 999, 999, 4, 30, 135, 136, 155, 137, 105, 143, 3, 0.470347
99, 2, bw, attraction, a-b-da, 5, 2, 4, 31, 90, 165, 161, 88, 165, 90, 3, 3.54553
99, 2, bw, attraction, a-b-da, 5, 2, 4, 31, 90, 165, 161, 88, 165, 90, 2, 0.513677
99, 2, bw, attraction, a-b-da, 9, 1, 4, 32, 129, 57, 60, 135, 135, 60, 3, 2.28285
99, 2, bw, attraction, a-b-da, 9, 1, 4, 32, 129, 57, 60, 135, 135, 60, 1, 3.12611
99, 2, bw, filler, NA, 999, 999, 4, 33, 70, 87, 95, 114, 179, 126, 3, 0.82975
99, 2, bw, filler, NA, 999, 999, 4, 33, 70, 87, 95, 114, 179, 126, 1, 0.931518
99, 2, bw, attraction, a-b-db, 2, 3, 4, 34, 195, 120, 120, 195, 119, 193, 1, 3.57192
99, 2, bw, attraction, a-b-db, 2, 3, 4, 34, 195, 120, 120, 195, 119, 193, 3, 0.834861
99, 2, bw, attraction, a-b-db, 9, 3, 4, 35, 120, 195, 195, 120, 114, 186, 1, 3.83909
99, 2, bw, attraction, a-b-db, 9, 3, 4, 35, 120, 195, 195, 120, 114, 186, 2, 0.395191
99, 2, bw, attraction, a-b-da, 2, 1, 4, 36, 134, 59, 135, 60, 60, 135, 1, 4.54493
99, 2, bw, attraction, a-b-da, 2, 1, 4, 36, 134, 59, 135, 60, 60, 135, 3, 0.52873
99, 2, bw, catch, NA, 999, 999, 4, 37, 82, 113, 117, 138, 167, 148, 3, 0.841234
99, 2, bw, catch, NA, 999, 999, 4, 37, 82, 113, 117, 138, 167, 148, 1, 0.478307
99, 2, bw, catch, NA, 999, 999, 5, 1, 61, 134, 161, 154, 136, 119, 2, 1.79138
99, 2, bw, catch, NA, 999, 999, 5, 1, 61, 134, 161, 154, 136, 119, 1, 0.494123
99, 2, bw, attraction, a-b-db, 9, 2, 5, 2, 90, 165, 86, 157, 165, 90, 3, 2.26387
99, 2, bw, attraction, a-b-db, 9, 2, 5, 2, 90, 165, 86, 157, 165, 90, 2, 0.315821
99, 2, bw, filler, NA, 999, 999, 5, 3, 154, 91, 148, 114, 115, 167, 3, 1.40493
99, 2, bw, filler, NA, 999, 999, 5, 3, 154, 91, 148, 114, 115, 167, 1, 0.467166
99, 2, bw, attraction, a-b-db, 2, 1, 5, 4, 135, 60, 59, 134, 60, 135, 1, 4.93423
99, 2, bw, attraction, a-b-db, 2, 1, 5, 4, 135, 60, 59, 134, 60, 135, 2, 0.598841
99, 2, bw, attraction, a-b-da, 14, 1, 5, 5, 135, 60, 60, 135, 125, 56, 1, 1.48447
99, 2, bw, attraction, a-b-da, 14, 1, 5, 5, 135, 60, 60, 135, 125, 56, 3, 0.456047
99, 2, bw, attraction, a-b-da, 9, 3, 5, 6, 120, 195, 186, 114, 195, 120, 3, 4.95509
99, 2, bw, attraction, a-b-da, 9, 3, 5, 6, 120, 195, 186, 114, 195, 120, 2, 0.346168
99, 2, bw, attraction, a-b-db, 9, 3, 5, 7, 114, 186, 120, 195, 195, 120, 2, 2.39412
99, 2, bw, attraction, a-b-db, 9, 3, 5, 7, 114, 186, 120, 195, 195, 120, 1, 0.47255
99, 2, bw, filler, NA, 999, 999, 5, 8, 148, 143, 180, 122, 156, 145, 3, 2.52371
99, 2, bw, filler, NA, 999, 999, 5, 8, 148, 143, 180, 122, 156, 145, 2, 0.388818
99, 2, bw, attraction, a-b-db, 14, 2, 5, 9, 90, 165, 83, 153, 165, 90, 3, 3.97136
99, 2, bw, attraction, a-b-db, 14, 2, 5, 9, 90, 165, 83, 153, 165, 90, 2, 0.370152
99, 2, bw, filler, NA, 999, 999, 5, 10, 84, 109, 143, 67, 190, 70, 3, 1.00934
99, 2, bw, filler, NA, 999, 999, 5, 10, 84, 109, 143, 67, 190, 70, 2, 13.7996
99, 2, bw, attraction, a-b-da, 5, 1, 5, 11, 135, 60, 132, 58, 60, 135, 1, 2.25726
99, 2, bw, attraction, a-b-da, 5, 1, 5, 11, 135, 60, 132, 58, 60, 135, 3, 0.317158
99, 2, bw, attraction, a-b-da, 9, 2, 5, 12, 157, 86, 165, 90, 90, 165, 1, 1.7024
99, 2, bw, attraction, a-b-da, 9, 2, 5, 12, 157, 86, 165, 90, 90, 165, 3, 1.2332
99, 2, bw, attraction, a-b-da, 14, 2, 5, 13, 90, 165, 165, 90, 153, 83, 2, 3.52537
99, 2, bw, attraction, a-b-da, 14, 2, 5, 13, 90, 165, 165, 90, 153, 83, 3, 0.566241
99, 2, bw, attraction, a-b-db, 2, 3, 5, 14, 195, 120, 119, 193, 120, 195, 1, 5.14949
99, 2, bw, attraction, a-b-db, 2, 3, 5, 14, 195, 120, 119, 193, 120, 195, 3, 0.637163
99, 2, bw, attraction, a-b-db, 14, 3, 5, 15, 120, 195, 195, 120, 111, 181, 2, 1.93772
99, 2, bw, attraction, a-b-db, 14, 3, 5, 15, 120, 195, 195, 120, 111, 181, 3, 0.44217
99, 2, bw, filler, NA, 999, 999, 5, 16, 167, 130, 166, 62, 173, 78, 1, 0.845992
99, 2, bw, filler, NA, 999, 999, 5, 16, 167, 130, 166, 62, 173, 78, 2, 0.451054
99, 2, bw, attraction, a-b-da, 2, 1, 5, 17, 135, 60, 60, 135, 134, 59, 1, 1.57491
99, 2, bw, attraction, a-b-da, 2, 1, 5, 17, 135, 60, 60, 135, 134, 59, 2, 0.350338
99, 2, bw, attraction, a-b-db, 5, 2, 5, 18, 165, 90, 90, 165, 88, 161, 1, 4.85408
99, 2, bw, attraction, a-b-db, 5, 2, 5, 18, 165, 90, 90, 165, 88, 161, 3, 0.393798
99, 2, bw, attraction, a-b-db, 9, 1, 5, 19, 57, 129, 60, 135, 135, 60, 3, 2.02368
99, 2, bw, attraction, a-b-db, 9, 1, 5, 19, 57, 129, 60, 135, 135, 60, 1, 0.524976
99, 2, bw, attraction, a-b-da, 9, 1, 5, 20, 135, 60, 60, 135, 129, 57, 1, 2.17344
99, 2, bw, attraction, a-b-da, 9, 1, 5, 20, 135, 60, 60, 135, 129, 57, 3, 0.396725
99, 2, bw, attraction, a-b-da, 2, 2, 5, 21, 90, 165, 163, 89, 165, 90, 3, 4.22682
99, 2, bw, attraction, a-b-da, 2, 2, 5, 21, 90, 165, 163, 89, 165, 90, 1, 0.559181
99, 2, bw, filler, NA, 999, 999, 5, 22, 91, 172, 67, 76, 123, 126, 3, 0.750318
99, 2, bw, filler, NA, 999, 999, 5, 22, 91, 172, 67, 76, 123, 126, 2, 0.43943
99, 2, bw, attraction, a-b-db, 5, 1, 5, 23, 58, 132, 135, 60, 60, 135, 2, 3.29918
99, 2, bw, attraction, a-b-db, 5, 1, 5, 23, 58, 132, 135, 60, 60, 135, 1, 0.401379
99, 2, bw, attraction, a-b-da, 5, 3, 5, 24, 120, 195, 190, 117, 195, 120, 3, 3.30736
99, 2, bw, attraction, a-b-da, 5, 3, 5, 24, 120, 195, 190, 117, 195, 120, 2, 1.62896
99, 2, bw, attraction, a-b-da, 14, 3, 5, 25, 120, 195, 181, 111, 195, 120, 3, 2.23317
99, 2, bw, attraction, a-b-da, 14, 3, 5, 25, 120, 195, 181, 111, 195, 120, 2, 0.494321
99, 2, bw, filler, NA, 999, 999, 5, 26, 162, 151, 121, 101, 116, 109, 1, 2.1761
99, 2, bw, filler, NA, 999, 999, 5, 26, 162, 151, 121, 101, 116, 109, 2, 4.47943
99, 2, bw, attraction, a-b-db, 2, 2, 5, 27, 89, 163, 90, 165, 165, 90, 3, 2.13661
99, 2, bw, attraction, a-b-db, 2, 2, 5, 27, 89, 163, 90, 165, 165, 90, 2, 3.0179
99, 2, bw, attraction, a-b-da, 5, 2, 5, 28, 161, 88, 90, 165, 165, 90, 1, 1.1182
99, 2, bw, attraction, a-b-da, 5, 2, 5, 28, 161, 88, 90, 165, 165, 90, 3, 0.784538
99, 2, bw, attraction, a-b-db, 5, 3, 5, 29, 195, 120, 117, 190, 120, 195, 1, 2.73485
99, 2, bw, attraction, a-b-db, 5, 3, 5, 29, 195, 120, 117, 190, 120, 195, 3, 0.456043
99, 2, bw, attraction, a-b-db, 14, 1, 5, 30, 56, 125, 135, 60, 60, 135, 2, 2.09918
99, 2, bw, attraction, a-b-db, 14, 1, 5, 30, 56, 125, 135, 60, 60, 135, 1, 0.581802
99, 2, bw, attraction, a-b-da, 2, 3, 5, 31, 120, 195, 195, 120, 193, 119, 2, 2.50818
99, 2, bw, attraction, a-b-da, 2, 3, 5, 31, 120, 195, 195, 120, 193, 119, 1, 0.453977
99, 2, bw, filler, NA, 999, 999, 5, 32, 78, 89, 94, 162, 141, 189, 3, 1.53787
99, 2, bw, filler, NA, 999, 999, 5, 32, 78, 89, 94, 162, 141, 189, 1, 0.802641
99, 2, bw, filler, NA, 999, 999, 5, 33, 139, 195, 167, 187, 73, 108, 2, 1.48846
99, 2, bw, filler, NA, 999, 999, 5, 33, 139, 195, 167, 187, 73, 108, 3, 0.443246
99, 2, bw, filler, NA, 999, 999, 5, 34, 146, 163, 137, 98, 131, 181, 1, 3.42296
99, 2, bw, filler, NA, 999, 999, 5, 34, 146, 163, 137, 98, 131, 181, 2, 0.563902
99, 2, bw, catch, NA, 999, 999, 5, 35, 125, 130, 86, 109, 143, 172, 3, 1.35525
99, 2, bw, catch, NA, 999, 999, 5, 35, 125, 130, 86, 109, 143, 172, 2, 0.50721
99, 2, bw, catch, NA, 999, 999, 5, 36, 134, 121, 135, 180, 73, 122, 2, 0.868332
99, 2, bw, catch, NA, 999, 999, 5, 36, 134, 121, 135, 180, 73, 122, 3, 0.536703
99, 2, bw, filler, NA, 999, 999, 5, 37, 152, 139, 178, 180, 139, 156, 2, 0.929182
99, 2, bw, filler, NA, 999, 999, 5, 37, 152, 139, 178, 180, 139, 156, 3, 0.554936
99, 2, bw, catch, NA, 999, 999, 6, 1, 143, 172, 72, 123, 150, 105, 1, 0.994657
99, 2, bw, catch, NA, 999, 999, 6, 1, 143, 172, 72, 123, 150, 105, 2, 0.529575
99, 2, bw, attraction, a-b-db, 5, 1, 6, 2, 135, 60, 60, 135, 58, 132, 2, 2.20999
99, 2, bw, attraction, a-b-db, 5, 1, 6, 2, 135, 60, 60, 135, 58, 132, 1, 0.319959
99, 2, bw, filler, NA, 999, 999, 6, 3, 157, 165, 147, 162, 94, 68, 1, 2.20927
99, 2, bw, filler, NA, 999, 999, 6, 3, 157, 165, 147, 162, 94, 68, 3, 1.60719
99, 2, bw, attraction, a-b-db, 5, 3, 6, 4, 117, 190, 195, 120, 120, 195, 3, 4.46001
99, 2, bw, attraction, a-b-db, 5, 3, 6, 4, 117, 190, 195, 120, 120, 195, 1, 2.08721
99, 2, bw, filler, NA, 999, 999, 6, 5, 191, 176, 115, 87, 95, 165, 1, 1.12904
99, 2, bw, filler, NA, 999, 999, 6, 5, 191, 176, 115, 87, 95, 165, 2, 0.410782
99, 2, bw, attraction, a-b-db, 5, 2, 6, 6, 88, 161, 90, 165, 165, 90, 2, 2.44784
99, 2, bw, attraction, a-b-db, 5, 2, 6, 6, 88, 161, 90, 165, 165, 90, 1, 0.364431
99, 2, bw, attraction, a-b-db, 2, 2, 6, 7, 89, 163, 90, 165, 165, 90, 2, 3.63564
99, 2, bw, attraction, a-b-db, 2, 2, 6, 7, 89, 163, 90, 165, 165, 90, 1, 0.5284
99, 2, bw, catch, NA, 999, 999, 6, 8, 107, 88, 183, 132, 155, 100, 2, 1.36088
99, 2, bw, catch, NA, 999, 999, 6, 8, 107, 88, 183, 132, 155, 100, 1, 0.36904
99, 2, bw, attraction, a-b-db, 9, 3, 6, 9, 120, 195, 114, 186, 195, 120, 3, 2.39214
99, 2, bw, attraction, a-b-db, 9, 3, 6, 9, 120, 195, 114, 186, 195, 120, 2, 1.27073
99, 2, bw, filler, NA, 999, 999, 6, 10, 158, 81, 145, 73, 111, 85, 1, 1.21766
99, 2, bw, filler, NA, 999, 999, 6, 10, 158, 81, 145, 73, 111, 85, 3, 0.551865
99, 2, bw, filler, NA, 999, 999, 6, 11, 108, 176, 181, 80, 85, 163, 1, 1.9277
99, 2, bw, filler, NA, 999, 999, 6, 11, 108, 176, 181, 80, 85, 163, 3, 0.569132
99, 2, bw, attraction, a-b-db, 9, 1, 6, 12, 60, 135, 57, 129, 135, 60, 3, 2.64825
99, 2, bw, attraction, a-b-db, 9, 1, 6, 12, 60, 135, 57, 129, 135, 60, 2, 0.332607
99, 2, bw, attraction, a-b-da, 2, 3, 6, 13, 120, 195, 193, 119, 195, 120, 3, 3.29319
99, 2, bw, attraction, a-b-da, 2, 3, 6, 13, 120, 195, 193, 119, 195, 120, 1, 0.503493
99, 2, bw, attraction, a-b-da, 14, 2, 6, 14, 165, 90, 90, 165, 153, 83, 2, 1.1052
99, 2, bw, attraction, a-b-da, 14, 2, 6, 14, 165, 90, 90, 165, 153, 83, 3, 3.4195
99, 2, bw, filler, NA, 999, 999, 6, 15, 191, 158, 169, 150, 94, 181, 1, 1.71169
99, 2, bw, filler, NA, 999, 999, 6, 15, 191, 158, 169, 150, 94, 181, 3, 0.497841
99, 2, bw, filler, NA, 999, 999, 6, 16, 148, 59, 99, 123, 103, 118, 2, 5.9155
99, 2, bw, filler, NA, 999, 999, 6, 16, 148, 59, 99, 123, 103, 118, 1, 0.564342
99, 2, bw, filler, NA, 999, 999, 6, 17, 99, 137, 127, 66, 187, 154, 3, 2.01938
99, 2, bw, filler, NA, 999, 999, 6, 17, 99, 137, 127, 66, 187, 154, 2, 0.697545
99, 2, bw, attraction, a-b-da, 9, 3, 6, 18, 195, 120, 186, 114, 120, 195, 1, 3.89128
99, 2, bw, attraction, a-b-da, 9, 3, 6, 18, 195, 120, 186, 114, 120, 195, 2, 0.309289
99, 2, bw, attraction, a-b-db, 14, 3, 6, 19, 111, 181, 195, 120, 120, 195, 2, 2.32644
99, 2, bw, attraction, a-b-db, 14, 3, 6, 19, 111, 181, 195, 120, 120, 195, 1, 0.335709
99, 2, bw, catch, NA, 999, 999, 6, 20, 106, 89, 145, 110, 164, 151, 3, 0.688207
99, 2, bw, catch, NA, 999, 999, 6, 20, 106, 89, 145, 110, 164, 151, 1, 0.451449
99, 2, bw, attraction, a-b-da, 5, 3, 6, 21, 195, 120, 120, 195, 190, 117, 2, 3.46307
99, 2, bw, attraction, a-b-da, 5, 3, 6, 21, 195, 120, 120, 195, 190, 117, 3, 0.426638
99, 2, bw, attraction, a-b-da, 9, 2, 6, 22, 165, 90, 157, 86, 90, 165, 3, 3.0551
99, 2, bw, attraction, a-b-da, 9, 2, 6, 22, 165, 90, 157, 86, 90, 165, 2, 0.45075
99, 2, bw, filler, NA, 999, 999, 6, 23, 108, 106, 129, 60, 195, 172, 3, 0.798641
99, 2, bw, filler, NA, 999, 999, 6, 23, 108, 106, 129, 60, 195, 172, 2, 0.549667
99, 2, bw, attraction, a-b-db, 14, 1, 6, 24, 135, 60, 60, 135, 56, 125, 2, 1.80547
99, 2, bw, attraction, a-b-db, 14, 1, 6, 24, 135, 60, 60, 135, 56, 125, 3, 0.315652
99, 2, bw, attraction, a-b-db, 14, 2, 6, 25, 83, 153, 90, 165, 165, 90, 2, 6.13266
99, 2, bw, attraction, a-b-db, 14, 2, 6, 25, 83, 153, 90, 165, 165, 90, 1, 0.436839
99, 2, bw, attraction, a-b-da, 14, 1, 6, 26, 135, 60, 125, 56, 60, 135, 1, 3.22523
99, 2, bw, attraction, a-b-da, 14, 1, 6, 26, 135, 60, 125, 56, 60, 135, 3, 0.526307
99, 2, bw, attraction, a-b-db, 9, 2, 6, 27, 90, 165, 165, 90, 86, 157, 2, 3.7026
99, 2, bw, attraction, a-b-db, 9, 2, 6, 27, 90, 165, 165, 90, 86, 157, 3, 0.544904
99, 2, bw, attraction, a-b-da, 2, 1, 6, 28, 135, 60, 60, 135, 134, 59, 1, 2.0566
99, 2, bw, attraction, a-b-da, 2, 1, 6, 28, 135, 60, 60, 135, 134, 59, 2, 0.404514
99, 2, bw, attraction, a-b-da, 2, 2, 6, 29, 165, 90, 163, 89, 90, 165, 3, 3.14649
99, 2, bw, attraction, a-b-da, 2, 2, 6, 29, 165, 90, 163, 89, 90, 165, 2, 0.370758
99, 2, bw, attraction, a-b-da, 5, 1, 6, 30, 60, 135, 132, 58, 135, 60, 1, 2.50595
99, 2, bw, attraction, a-b-da, 5, 1, 6, 30, 60, 135, 132, 58, 135, 60, 2, 0.4037
99, 2, bw, attraction, a-b-da, 9, 1, 6, 31, 129, 57, 135, 60, 60, 135, 1, 2.00158
99, 2, bw, attraction, a-b-da, 9, 1, 6, 31, 129, 57, 135, 60, 60, 135, 3, 0.400226
99, 2, bw, attraction, a-b-db, 2, 1, 6, 32, 60, 135, 59, 134, 135, 60, 3, 3.19811
99, 2, bw, attraction, a-b-db, 2, 1, 6, 32, 60, 135, 59, 134, 135, 60, 1, 0.420367
99, 2, bw, attraction, a-b-db, 2, 3, 6, 33, 119, 193, 195, 120, 120, 195, 3, 2.44144
99, 2, bw, attraction, a-b-db, 2, 3, 6, 33, 119, 193, 195, 120, 120, 195, 2, 0.318157
99, 2, bw, attraction, a-b-da, 14, 3, 6, 34, 120, 195, 181, 111, 195, 120, 3, 1.91934
99, 2, bw, attraction, a-b-da, 14, 3, 6, 34, 120, 195, 181, 111, 195, 120, 2, 0.457258
99, 2, bw, filler, NA, 999, 999, 6, 35, 156, 174, 78, 164, 78, 137, 1, 1.65239
99, 2, bw, filler, NA, 999, 999, 6, 35, 156, 174, 78, 164, 78, 137, 3, 0.825315
99, 2, bw, filler, NA, 999, 999, 6, 36, 73, 159, 130, 94, 75, 93, 2, 1.3655
99, 2, bw, filler, NA, 999, 999, 6, 36, 73, 159, 130, 94, 75, 93, 3, 1.03779
99, 2, bw, attraction, a-b-da, 5, 2, 6, 37, 161, 88, 165, 90, 90, 165, 1, 2.05805
99, 2, bw, attraction, a-b-da, 5, 2, 6, 37, 161, 88, 165, 90, 90, 165, 3, 0.733971
99, 2, bw, attraction, a-b-da, 9, 1, 7, 1, 135, 60, 60, 135, 129, 57, 3, 5.86267
99, 2, bw, attraction, a-b-da, 9, 1, 7, 1, 135, 60, 60, 135, 129, 57, 2, 0.473268
99, 2, bw, attraction, a-b-db, 5, 2, 7, 2, 88, 161, 90, 165, 165, 90, 3, 1.69166
99, 2, bw, attraction, a-b-db, 5, 2, 7, 2, 88, 161, 90, 165, 165, 90, 1, 0.58238
99, 2, bw, attraction, a-b-da, 5, 2, 7, 3, 161, 88, 90, 165, 165, 90, 3, 1.1009
99, 2, bw, attraction, a-b-da, 5, 2, 7, 3, 161, 88, 90, 165, 165, 90, 2, 0.335816
99, 2, bw, attraction, a-b-db, 5, 1, 7, 4, 135, 60, 58, 132, 60, 135, 1, 1.43234
99, 2, bw, attraction, a-b-db, 5, 1, 7, 4, 135, 60, 58, 132, 60, 135, 3, 0.373865
99, 2, bw, filler, NA, 999, 999, 7, 5, 125, 141, 81, 125, 149, 117, 1, 0.916466
99, 2, bw, filler, NA, 999, 999, 7, 5, 125, 141, 81, 125, 149, 117, 2, 0.302783
99, 2, bw, attraction, a-b-db, 14, 3, 7, 6, 111, 181, 120, 195, 195, 120, 2, 1.08054
99, 2, bw, attraction, a-b-db, 14, 3, 7, 6, 111, 181, 120, 195, 195, 120, 1, 0.316178
99, 2, bw, attraction, a-b-da, 2, 3, 7, 7, 193, 119, 120, 195, 195, 120, 1, 4.09326
99, 2, bw, attraction, a-b-da, 2, 3, 7, 7, 193, 119, 120, 195, 195, 120, 3, 0.751442
99, 2, bw, attraction, a-b-da, 14, 1, 7, 8, 135, 60, 125, 56, 60, 135, 1, 1.15912
99, 2, bw, attraction, a-b-da, 14, 1, 7, 8, 135, 60, 125, 56, 60, 135, 2, 0.735511
99, 2, bw, attraction, a-b-da, 14, 2, 7, 9, 165, 90, 90, 165, 153, 83, 3, 1.58389
99, 2, bw, attraction, a-b-da, 14, 2, 7, 9, 165, 90, 90, 165, 153, 83, 2, 0.639385
99, 2, bw, filler, NA, 999, 999, 7, 10, 84, 125, 188, 152, 136, 58, 2, 0.714944
99, 2, bw, filler, NA, 999, 999, 7, 10, 84, 125, 188, 152, 136, 58, 3, 0.821599
99, 2, bw, attraction, a-b-da, 9, 2, 7, 11, 157, 86, 165, 90, 90, 165, 2, 1.87447
99, 2, bw, attraction, a-b-da, 9, 2, 7, 11, 157, 86, 165, 90, 90, 165, 1, 0.333939
99, 2, bw, catch, NA, 999, 999, 7, 12, 128, 187, 66, 129, 97, 158, 1, 1.63039
99, 2, bw, catch, NA, 999, 999, 7, 12, 128, 187, 66, 129, 97, 158, 2, 0.339784
99, 2, bw, filler, NA, 999, 999, 7, 13, 100, 123, 148, 182, 117, 62, 2, 0.787648
99, 2, bw, filler, NA, 999, 999, 7, 13, 100, 123, 148, 182, 117, 62, 3, 0.442714
99, 2, bw, attraction, a-b-da, 14, 3, 7, 14, 120, 195, 195, 120, 181, 111, 2, 3.48643
99, 2, bw, attraction, a-b-da, 14, 3, 7, 14, 120, 195, 195, 120, 181, 111, 3, 0.601405
99, 2, bw, filler, NA, 999, 999, 7, 15, 132, 160, 122, 184, 143, 105, 2, 1.36706
99, 2, bw, filler, NA, 999, 999, 7, 15, 132, 160, 122, 184, 143, 105, 3, 0.583327
99, 2, bw, attraction, a-b-db, 2, 2, 7, 16, 89, 163, 90, 165, 165, 90, 2, 5.06977
99, 2, bw, attraction, a-b-db, 2, 2, 7, 16, 89, 163, 90, 165, 165, 90, 3, 0.408839
99, 2, bw, attraction, a-b-db, 9, 2, 7, 17, 165, 90, 90, 165, 86, 157, 1, 2.10997
99, 2, bw, attraction, a-b-db, 9, 2, 7, 17, 165, 90, 90, 165, 86, 157, 3, 0.399902
99, 2, bw, attraction, a-b-db, 2, 1, 7, 18, 60, 135, 59, 134, 135, 60, 3, 5.78979
99, 2, bw, attraction, a-b-db, 2, 1, 7, 18, 60, 135, 59, 134, 135, 60, 2, 0.939217
99, 2, bw, catch, NA, 999, 999, 7, 19, 121, 74, 194, 121, 154, 101, 2, 2.22701
99, 2, bw, catch, NA, 999, 999, 7, 19, 121, 74, 194, 121, 154, 101, 1, 0.504151
99, 2, bw, filler, NA, 999, 999, 7, 20, 185, 186, 95, 184, 194, 158, 1, 1.61002
99, 2, bw, filler, NA, 999, 999, 7, 20, 185, 186, 95, 184, 194, 158, 2, 0.448059
99, 2, bw, attraction, a-b-da, 5, 1, 7, 21, 135, 60, 132, 58, 60, 135, 1, 2.33998
99, 2, bw, attraction, a-b-da, 5, 1, 7, 21, 135, 60, 132, 58, 60, 135, 3, 0.372464
99, 2, bw, catch, NA, 999, 999, 7, 22, 85, 110, 129, 126, 157, 158, 3, 0.882916
99, 2, bw, catch, NA, 999, 999, 7, 22, 85, 110, 129, 126, 157, 158, 1, 0.51059
99, 2, bw, attraction, a-b-da, 2, 2, 7, 23, 165, 90, 163, 89, 90, 165, 1, 3.06372
99, 2, bw, attraction, a-b-da, 2, 2, 7, 23, 165, 90, 163, 89, 90, 165, 3, 0.403412
99, 2, bw, attraction, a-b-da, 2, 1, 7, 24, 60, 135, 135, 60, 134, 59, 3, 5.55331
99, 2, bw, attraction, a-b-da, 2, 1, 7, 24, 60, 135, 135, 60, 134, 59, 1, 0.616879
99, 2, bw, filler, NA, 999, 999, 7, 25, 156, 95, 131, 87, 62, 182, 1, 1.34993
99, 2, bw, filler, NA, 999, 999, 7, 25, 156, 95, 131, 87, 62, 182, 3, 0.494823
99, 2, bw, attraction, a-b-db, 5, 3, 7, 26, 117, 190, 195, 120, 120, 195, 3, 4.8166
99, 2, bw, attraction, a-b-db, 5, 3, 7, 26, 117, 190, 195, 120, 120, 195, 1, 0.629716
99, 2, bw, attraction, a-b-db, 9, 1, 7, 27, 135, 60, 60, 135, 57, 129, 1, 1.57822
99, 2, bw, attraction, a-b-db, 9, 1, 7, 27, 135, 60, 60, 135, 57, 129, 3, 0.513574
99, 2, bw, attraction, a-b-db, 9, 3, 7, 28, 114, 186, 120, 195, 195, 120, 2, 2.17875
99, 2, bw, attraction, a-b-db, 9, 3, 7, 28, 114, 186, 120, 195, 195, 120, 1, 0.48199
99, 2, bw, attraction, a-b-da, 5, 3, 7, 29, 190, 117, 195, 120, 120, 195, 2, 2.75653
99, 2, bw, attraction, a-b-da, 5, 3, 7, 29, 190, 117, 195, 120, 120, 195, 3, 0.380297
99, 2, bw, attraction, a-b-db, 2, 3, 7, 30, 195, 120, 120, 195, 119, 193, 2, 1.6588
99, 2, bw, attraction, a-b-db, 2, 3, 7, 30, 195, 120, 120, 195, 119, 193, 3, 0.438976
99, 2, bw, attraction, a-b-da, 9, 3, 7, 31, 120, 195, 195, 120, 186, 114, 3, 5.77949
99, 2, bw, attraction, a-b-da, 9, 3, 7, 31, 120, 195, 195, 120, 186, 114, 1, 0.489458
99, 2, bw, attraction, a-b-db, 14, 1, 7, 32, 56, 125, 60, 135, 135, 60, 3, 3.20332
99, 2, bw, attraction, a-b-db, 14, 1, 7, 32, 56, 125, 60, 135, 135, 60, 1, 0.553623
99, 2, bw, filler, NA, 999, 999, 7, 33, 125, 72, 180, 69, 56, 62, 2, 1.6173
99, 2, bw, filler, NA, 999, 999, 7, 33, 125, 72, 180, 69, 56, 62, 3, 0.463509
99, 2, bw, attraction, a-b-db, 14, 2, 7, 34, 165, 90, 83, 153, 90, 165, 1, 4.09866
99, 2, bw, attraction, a-b-db, 14, 2, 7, 34, 165, 90, 83, 153, 90, 165, 2, 0.53261
99, 2, bw, filler, NA, 999, 999, 7, 35, 88, 97, 95, 145, 99, 138, 2, 1.38111
99, 2, bw, filler, NA, 999, 999, 7, 35, 88, 97, 95, 145, 99, 138, 1, 0.372573
99, 2, bw, filler, NA, 999, 999, 7, 36, 90, 115, 156, 186, 185, 63, 2, 0.747191
99, 2, bw, filler, NA, 999, 999, 7, 36, 90, 115, 156, 186, 185, 63, 3, 0.540236
99, 2, bw, filler, NA, 999, 999, 7, 37, 189, 131, 89, 122, 67, 192, 1, 4.73195
99, 2, bw, filler, NA, 999, 999, 7, 37, 189, 131, 89, 122, 67, 192, 3, 0.396479
99, 2, bw, attraction, a-b-da, 5, 2, 8, 1, 90, 165, 165, 90, 161, 88, 2, 2.49832
99, 2, bw, attraction, a-b-da, 5, 2, 8, 1, 90, 165, 165, 90, 161, 88, 1, 0.380771
99, 2, bw, attraction, a-b-da, 14, 2, 8, 2, 153, 83, 165, 90, 90, 165, 2, 3.66731
99, 2, bw, attraction, a-b-da, 14, 2, 8, 2, 153, 83, 165, 90, 90, 165, 1, 0.422828
99, 2, bw, filler, NA, 999, 999, 8, 3, 62, 61, 64, 188, 194, 110, 3, 1.14739
99, 2, bw, filler, NA, 999, 999, 8, 3, 62, 61, 64, 188, 194, 110, 1, 0.884291
99, 2, bw, filler, NA, 999, 999, 8, 4, 62, 153, 189, 160, 149, 117, 2, 1.12654
99, 2, bw, filler, NA, 999, 999, 8, 4, 62, 153, 189, 160, 149, 117, 1, 0.544269
99, 2, bw, catch, NA, 999, 999, 8, 5, 75, 120, 151, 104, 193, 122, 3, 1.37597
99, 2, bw, catch, NA, 999, 999, 8, 5, 75, 120, 151, 104, 193, 122, 1, 0.639431
99, 2, bw, attraction, a-b-db, 2, 3, 8, 6, 120, 195, 195, 120, 119, 193, 1, 3.2192
99, 2, bw, attraction, a-b-db, 2, 3, 8, 6, 120, 195, 195, 120, 119, 193, 3, 0.352834
99, 2, bw, attraction, a-b-db, 14, 1, 8, 7, 135, 60, 56, 125, 60, 135, 1, 2.31264
99, 2, bw, attraction, a-b-db, 14, 1, 8, 7, 135, 60, 56, 125, 60, 135, 3, 0.634602
99, 2, bw, attraction, a-b-da, 9, 2, 8, 8, 90, 165, 165, 90, 157, 86, 1, 2.82305
99, 2, bw, attraction, a-b-da, 9, 2, 8, 8, 90, 165, 165, 90, 157, 86, 3, 0.700146
99, 2, bw, attraction, a-b-da, 5, 1, 8, 9, 60, 135, 135, 60, 132, 58, 1, 1.46991
99, 2, bw, attraction, a-b-da, 5, 1, 8, 9, 60, 135, 135, 60, 132, 58, 2, 0.442137
99, 2, bw, filler, NA, 999, 999, 8, 10, 81, 168, 80, 133, 111, 97, 3, 17.0939
99, 2, bw, filler, NA, 999, 999, 8, 10, 81, 168, 80, 133, 111, 97, 2, 0.795751
99, 2, bw, catch, NA, 999, 999, 8, 11, 94, 101, 174, 141, 136, 119, 2, 1.25741
99, 2, bw, catch, NA, 999, 999, 8, 11, 94, 101, 174, 141, 136, 119, 1, 0.629694
99, 2, bw, filler, NA, 999, 999, 8, 12, 178, 173, 180, 75, 80, 143, 1, 0.906082
99, 2, bw, filler, NA, 999, 999, 8, 12, 178, 173, 180, 75, 80, 143, 3, 0.476505
99, 2, bw, filler, NA, 999, 999, 8, 13, 57, 111, 152, 156, 156, 91, 2, 0.934929
99, 2, bw, filler, NA, 999, 999, 8, 13, 57, 111, 152, 156, 156, 91, 1, 0.472619
99, 2, bw, catch, NA, 999, 999, 8, 14, 184, 131, 133, 62, 93, 162, 1, 1.26702
99, 2, bw, catch, NA, 999, 999, 8, 14, 184, 131, 133, 62, 93, 162, 2, 0.551327
99, 2, bw, attraction, a-b-da, 14, 3, 8, 15, 195, 120, 181, 111, 120, 195, 3, 2.71109
99, 2, bw, attraction, a-b-da, 14, 3, 8, 15, 195, 120, 181, 111, 120, 195, 2, 0.560992
99, 2, bw, attraction, a-b-db, 5, 1, 8, 16, 60, 135, 135, 60, 58, 132, 2, 2.99194
99, 2, bw, attraction, a-b-db, 5, 1, 8, 16, 60, 135, 135, 60, 58, 132, 3, 0.478309
99, 2, bw, attraction, a-b-db, 14, 2, 8, 17, 165, 90, 90, 165, 83, 153, 1, 1.85682
99, 2, bw, attraction, a-b-db, 14, 2, 8, 17, 165, 90, 90, 165, 83, 153, 3, 0.436883
99, 2, bw, attraction, a-b-db, 2, 2, 8, 18, 90, 165, 89, 163, 165, 90, 1, 2.0413
99, 2, bw, attraction, a-b-db, 2, 2, 8, 18, 90, 165, 89, 163, 165, 90, 2, 0.789981
99, 2, bw, attraction, a-b-da, 2, 2, 8, 19, 163, 89, 90, 165, 165, 90, 1, 2.76374
99, 2, bw, attraction, a-b-da, 2, 2, 8, 19, 163, 89, 90, 165, 165, 90, 3, 0.651564
99, 2, bw, attraction, a-b-db, 5, 3, 8, 20, 120, 195, 117, 190, 195, 120, 3, 1.03128
99, 2, bw, attraction, a-b-db, 5, 3, 8, 20, 120, 195, 117, 190, 195, 120, 2, 0.420839
99, 2, bw, attraction, a-b-db, 9, 2, 8, 21, 165, 90, 90, 165, 86, 157, 2, 3.06606
99, 2, bw, attraction, a-b-db, 9, 2, 8, 21, 165, 90, 90, 165, 86, 157, 3, 0.373713
99, 2, bw, attraction, a-b-db, 2, 1, 8, 22, 60, 135, 59, 134, 135, 60, 1, 4.39626
99, 2, bw, attraction, a-b-db, 2, 1, 8, 22, 60, 135, 59, 134, 135, 60, 2, 0.410074
99, 2, bw, filler, NA, 999, 999, 8, 23, 103, 61, 62, 67, 127, 137, 3, 0.615242
99, 2, bw, filler, NA, 999, 999, 8, 23, 103, 61, 62, 67, 127, 137, 2, 1.78983
99, 2, bw, attraction, a-b-da, 5, 3, 8, 24, 190, 117, 120, 195, 195, 120, 2, 2.44313
99, 2, bw, attraction, a-b-da, 5, 3, 8, 24, 190, 117, 120, 195, 195, 120, 3, 0.327685
99, 2, bw, attraction, a-b-db, 9, 3, 8, 25, 114, 186, 120, 195, 195, 120, 2, 2.35233
99, 2, bw, attraction, a-b-db, 9, 3, 8, 25, 114, 186, 120, 195, 195, 120, 3, 0.448758
99, 2, bw, filler, NA, 999, 999, 8, 26, 184, 59, 88, 103, 158, 135, 3, 1.05246
99, 2, bw, filler, NA, 999, 999, 8, 26, 184, 59, 88, 103, 158, 135, 1, 1.09754
99, 2, bw, filler, NA, 999, 999, 8, 27, 148, 89, 178, 181, 86, 66, 2, 0.739055
99, 2, bw, filler, NA, 999, 999, 8, 27, 148, 89, 178, 181, 86, 66, 3, 0.436139
99, 2, bw, attraction, a-b-db, 5, 2, 8, 28, 90, 165, 88, 161, 165, 90, 3, 3.12079
99, 2, bw, attraction, a-b-db, 5, 2, 8, 28, 90, 165, 88, 161, 165, 90, 2, 0.386331
99, 2, bw, filler, NA, 999, 999, 8, 29, 150, 120, 59, 173, 140, 126, 1, 2.27289
99, 2, bw, filler, NA, 999, 999, 8, 29, 150, 120, 59, 173, 140, 126, 2, 0.500109
99, 2, bw, attraction, a-b-da, 14, 1, 8, 30, 60, 135, 135, 60, 125, 56, 1, 1.14185
99, 2, bw, attraction, a-b-da, 14, 1, 8, 30, 60, 135, 135, 60, 125, 56, 2, 0.310833
99, 2, bw, attraction, a-b-db, 14, 3, 8, 31, 120, 195, 195, 120, 111, 181, 2, 3.15191
99, 2, bw, attraction, a-b-db, 14, 3, 8, 31, 120, 195, 195, 120, 111, 181, 3, 0.36839
99, 2, bw, attraction, a-b-db, 9, 1, 8, 32, 57, 129, 135, 60, 60, 135, 3, 5.85539
99, 2, bw, attraction, a-b-db, 9, 1, 8, 32, 57, 129, 135, 60, 60, 135, 2, 0.402893
99, 2, bw, filler, NA, 999, 999, 8, 33, 152, 72, 132, 170, 133, 90, 2, 1.44877
99, 2, bw, filler, NA, 999, 999, 8, 33, 152, 72, 132, 170, 133, 90, 1, 0.965669
99, 2, bw, attraction, a-b-da, 9, 3, 8, 34, 120, 195, 195, 120, 186, 114, 1, 6.28464
99, 2, bw, attraction, a-b-da, 9, 3, 8, 34, 120, 195, 195, 120, 186, 114, 3, 0.414758
99, 2, bw, attraction, a-b-da, 9, 1, 8, 35, 60, 135, 129, 57, 135, 60, 3, 2.22532
99, 2, bw, attraction, a-b-da, 9, 1, 8, 35, 60, 135, 129, 57, 135, 60, 2, 0.43303
99, 2, bw, attraction, a-b-da, 2, 1, 8, 36, 60, 135, 134, 59, 135, 60, 3, 0.997545
99, 2, bw, attraction, a-b-da, 2, 1, 8, 36, 60, 135, 134, 59, 135, 60, 2, 0.484484
99, 2, bw, attraction, a-b-da, 2, 3, 8, 37, 120, 195, 193, 119, 195, 120, 2, 2.69493
99, 2, bw, attraction, a-b-da, 2, 3, 8, 37, 120, 195, 193, 119, 195, 120, 1, 0.481375
