sub_n, computer_n, bw_cond, effect, set, distance, diag, block_n, trial_n, h1, w1, h2, w2, h3, w3, choice, rt 
159, 1, bw, practice, NA, 999, 999, 0, 1, 107, 98, 98, 66, 80, 189, 3, 4.5607
159, 1, bw, practice, NA, 999, 999, 0, 1, 107, 98, 98, 66, 80, 189, 2, 2.9729
159, 1, bw, practice, NA, 999, 999, 0, 2, 106, 174, 67, 92, 82, 64, 1, 3.00102
159, 1, bw, practice, NA, 999, 999, 0, 2, 106, 174, 67, 92, 82, 64, 3, 4.33443
159, 1, bw, practice, NA, 999, 999, 0, 3, 129, 96, 185, 135, 157, 182, 3, 3.5307
159, 1, bw, practice, NA, 999, 999, 0, 3, 129, 96, 185, 135, 157, 182, 1, 2.96574
159, 1, bw, attraction, a-b-da, 14, 1, 1, 1, 135, 60, 125, 56, 60, 135, 3, 2.7775
159, 1, bw, attraction, a-b-da, 14, 1, 1, 1, 135, 60, 125, 56, 60, 135, 2, 3.72075
159, 1, bw, attraction, a-b-db, 9, 3, 1, 2, 120, 195, 195, 120, 114, 186, 1, 1.96879
159, 1, bw, attraction, a-b-db, 9, 3, 1, 2, 120, 195, 195, 120, 114, 186, 3, 1.71286
159, 1, bw, attraction, a-b-da, 2, 1, 1, 3, 135, 60, 60, 135, 134, 59, 2, 2.48962
159, 1, bw, attraction, a-b-da, 2, 1, 1, 3, 135, 60, 60, 135, 134, 59, 1, 1.10806
159, 1, bw, attraction, a-b-db, 5, 2, 1, 4, 165, 90, 88, 161, 90, 165, 2, 2.229
159, 1, bw, attraction, a-b-db, 5, 2, 1, 4, 165, 90, 88, 161, 90, 165, 1, 0.786312
159, 1, bw, catch, NA, 999, 999, 1, 5, 122, 193, 103, 92, 108, 147, 1, 3.5847
159, 1, bw, catch, NA, 999, 999, 1, 5, 122, 193, 103, 92, 108, 147, 3, 1.11962
159, 1, bw, attraction, a-b-da, 14, 3, 1, 6, 195, 120, 120, 195, 181, 111, 2, 1.71247
159, 1, bw, attraction, a-b-da, 14, 3, 1, 6, 195, 120, 120, 195, 181, 111, 1, 0.618541
159, 1, bw, attraction, a-b-db, 9, 2, 1, 7, 165, 90, 90, 165, 86, 157, 2, 4.35169
159, 1, bw, attraction, a-b-db, 9, 2, 1, 7, 165, 90, 90, 165, 86, 157, 3, 1.11953
159, 1, bw, attraction, a-b-da, 5, 2, 1, 8, 165, 90, 90, 165, 161, 88, 2, 1.73642
159, 1, bw, attraction, a-b-da, 5, 2, 1, 8, 165, 90, 90, 165, 161, 88, 3, 0.801904
159, 1, bw, attraction, a-b-db, 5, 3, 1, 9, 195, 120, 120, 195, 117, 190, 2, 1.63166
159, 1, bw, attraction, a-b-db, 5, 3, 1, 9, 195, 120, 120, 195, 117, 190, 1, 0.597047
159, 1, bw, catch, NA, 999, 999, 1, 10, 177, 138, 65, 130, 129, 126, 1, 1.92275
159, 1, bw, catch, NA, 999, 999, 1, 10, 177, 138, 65, 130, 129, 126, 2, 1.38826
159, 1, bw, attraction, a-b-db, 14, 3, 1, 11, 195, 120, 111, 181, 120, 195, 1, 1.93832
159, 1, bw, attraction, a-b-db, 14, 3, 1, 11, 195, 120, 111, 181, 120, 195, 3, 0.65106
159, 1, bw, attraction, a-b-db, 2, 3, 1, 12, 120, 195, 119, 193, 195, 120, 2, 1.35079
159, 1, bw, attraction, a-b-db, 2, 3, 1, 12, 120, 195, 119, 193, 195, 120, 3, 0.527792
159, 1, bw, attraction, a-b-da, 2, 2, 1, 13, 165, 90, 163, 89, 90, 165, 3, 2.4721
159, 1, bw, attraction, a-b-da, 2, 2, 1, 13, 165, 90, 163, 89, 90, 165, 2, 2.91531
159, 1, bw, filler, NA, 999, 999, 1, 14, 182, 99, 76, 79, 162, 130, 3, 2.3717
159, 1, bw, filler, NA, 999, 999, 1, 14, 182, 99, 76, 79, 162, 130, 2, 2.31568
159, 1, bw, filler, NA, 999, 999, 1, 15, 143, 192, 165, 191, 173, 96, 2, 1.78014
159, 1, bw, filler, NA, 999, 999, 1, 15, 143, 192, 165, 191, 173, 96, 3, 1.09949
159, 1, bw, attraction, a-b-db, 14, 2, 1, 16, 83, 153, 165, 90, 90, 165, 2, 2.58118
159, 1, bw, attraction, a-b-db, 14, 2, 1, 16, 83, 153, 165, 90, 90, 165, 3, 1.7484
159, 1, bw, attraction, a-b-da, 9, 1, 1, 17, 129, 57, 135, 60, 60, 135, 2, 2.37978
159, 1, bw, attraction, a-b-da, 9, 1, 1, 17, 129, 57, 135, 60, 60, 135, 3, 1.96309
159, 1, bw, filler, NA, 999, 999, 1, 18, 167, 147, 102, 102, 64, 72, 1, 2.58561
159, 1, bw, filler, NA, 999, 999, 1, 18, 167, 147, 102, 102, 64, 72, 3, 1.29672
159, 1, bw, filler, NA, 999, 999, 1, 19, 176, 67, 67, 88, 56, 157, 1, 1.77034
159, 1, bw, filler, NA, 999, 999, 1, 19, 176, 67, 67, 88, 56, 157, 2, 1.21848
159, 1, bw, attraction, a-b-da, 2, 3, 1, 20, 120, 195, 193, 119, 195, 120, 1, 1.82328
159, 1, bw, attraction, a-b-da, 2, 3, 1, 20, 120, 195, 193, 119, 195, 120, 2, 0.796796
159, 1, bw, attraction, a-b-da, 5, 1, 1, 21, 132, 58, 60, 135, 135, 60, 2, 1.80238
159, 1, bw, attraction, a-b-da, 5, 1, 1, 21, 132, 58, 60, 135, 135, 60, 3, 0.641167
159, 1, bw, filler, NA, 999, 999, 1, 22, 125, 78, 126, 91, 90, 94, 2, 1.06091
159, 1, bw, filler, NA, 999, 999, 1, 22, 125, 78, 126, 91, 90, 94, 3, 0.873194
159, 1, bw, attraction, a-b-db, 14, 1, 1, 23, 60, 135, 56, 125, 135, 60, 2, 1.6362
159, 1, bw, attraction, a-b-db, 14, 1, 1, 23, 60, 135, 56, 125, 135, 60, 3, 1.89774
159, 1, bw, attraction, a-b-db, 5, 1, 1, 24, 58, 132, 60, 135, 135, 60, 2, 1.04296
159, 1, bw, attraction, a-b-db, 5, 1, 1, 24, 58, 132, 60, 135, 135, 60, 3, 1.36002
159, 1, bw, attraction, a-b-db, 9, 1, 1, 25, 135, 60, 60, 135, 57, 129, 2, 1.29482
159, 1, bw, attraction, a-b-db, 9, 1, 1, 25, 135, 60, 60, 135, 57, 129, 1, 0.569703
159, 1, bw, filler, NA, 999, 999, 1, 26, 150, 89, 163, 122, 74, 151, 2, 2.10482
159, 1, bw, filler, NA, 999, 999, 1, 26, 150, 89, 163, 122, 74, 151, 3, 1.74691
159, 1, bw, catch, NA, 999, 999, 1, 27, 107, 88, 101, 154, 131, 184, 3, 1.75444
159, 1, bw, catch, NA, 999, 999, 1, 27, 107, 88, 101, 154, 131, 184, 1, 3.59497
159, 1, bw, attraction, a-b-da, 14, 2, 1, 28, 153, 83, 165, 90, 90, 165, 3, 20.8078
159, 1, bw, attraction, a-b-da, 14, 2, 1, 28, 153, 83, 165, 90, 90, 165, 2, 1.01668
159, 1, bw, filler, NA, 999, 999, 1, 29, 74, 105, 166, 70, 168, 128, 3, 1.98161
159, 1, bw, filler, NA, 999, 999, 1, 29, 74, 105, 166, 70, 168, 128, 1, 0.940871
159, 1, bw, filler, NA, 999, 999, 1, 30, 154, 81, 127, 176, 162, 172, 3, 1.12446
159, 1, bw, filler, NA, 999, 999, 1, 30, 154, 81, 127, 176, 162, 172, 1, 1.16617
159, 1, bw, attraction, a-b-db, 2, 2, 1, 31, 90, 165, 89, 163, 165, 90, 2, 1.06119
159, 1, bw, attraction, a-b-db, 2, 2, 1, 31, 90, 165, 89, 163, 165, 90, 3, 0.721464
159, 1, bw, attraction, a-b-da, 9, 3, 1, 32, 186, 114, 120, 195, 195, 120, 2, 1.46639
159, 1, bw, attraction, a-b-da, 9, 3, 1, 32, 186, 114, 120, 195, 195, 120, 3, 0.950629
159, 1, bw, attraction, a-b-da, 9, 2, 1, 33, 157, 86, 165, 90, 90, 165, 3, 0.990269
159, 1, bw, attraction, a-b-da, 9, 2, 1, 33, 157, 86, 165, 90, 90, 165, 2, 0.717274
159, 1, bw, filler, NA, 999, 999, 1, 34, 145, 134, 90, 184, 180, 63, 1, 1.08625
159, 1, bw, filler, NA, 999, 999, 1, 34, 145, 134, 90, 184, 180, 63, 3, 1.08992
159, 1, bw, filler, NA, 999, 999, 1, 35, 74, 83, 162, 120, 164, 74, 2, 1.14017
159, 1, bw, filler, NA, 999, 999, 1, 35, 74, 83, 162, 120, 164, 74, 1, 0.613232
159, 1, bw, attraction, a-b-da, 5, 3, 1, 36, 190, 117, 120, 195, 195, 120, 2, 1.90623
159, 1, bw, attraction, a-b-da, 5, 3, 1, 36, 190, 117, 120, 195, 195, 120, 3, 0.948383
159, 1, bw, attraction, a-b-db, 2, 1, 1, 37, 60, 135, 59, 134, 135, 60, 2, 1.07628
159, 1, bw, attraction, a-b-db, 2, 1, 1, 37, 60, 135, 59, 134, 135, 60, 1, 0.655608
159, 1, bw, attraction, a-b-db, 2, 1, 2, 1, 60, 135, 59, 134, 135, 60, 3, 0.987346
159, 1, bw, attraction, a-b-db, 2, 1, 2, 1, 60, 135, 59, 134, 135, 60, 2, 0.691062
159, 1, bw, attraction, a-b-db, 5, 1, 2, 2, 58, 132, 60, 135, 135, 60, 2, 1.30062
159, 1, bw, attraction, a-b-db, 5, 1, 2, 2, 58, 132, 60, 135, 135, 60, 3, 0.735584
159, 1, bw, attraction, a-b-db, 14, 3, 2, 3, 195, 120, 120, 195, 111, 181, 1, 0.919953
159, 1, bw, attraction, a-b-db, 14, 3, 2, 3, 195, 120, 120, 195, 111, 181, 2, 0.482415
159, 1, bw, attraction, a-b-da, 14, 2, 2, 4, 90, 165, 165, 90, 153, 83, 1, 0.756833
159, 1, bw, attraction, a-b-da, 14, 2, 2, 4, 90, 165, 165, 90, 153, 83, 3, 0.589265
159, 1, bw, catch, NA, 999, 999, 2, 5, 120, 75, 122, 133, 124, 191, 3, 1.14754
159, 1, bw, catch, NA, 999, 999, 2, 5, 120, 75, 122, 133, 124, 191, 1, 0.996507
159, 1, bw, attraction, a-b-db, 9, 3, 2, 6, 195, 120, 120, 195, 114, 186, 2, 1.11423
159, 1, bw, attraction, a-b-db, 9, 3, 2, 6, 195, 120, 120, 195, 114, 186, 1, 0.572484
159, 1, bw, catch, NA, 999, 999, 2, 7, 116, 79, 118, 137, 155, 160, 3, 1.07552
159, 1, bw, catch, NA, 999, 999, 2, 7, 116, 79, 118, 137, 155, 160, 1, 0.59931
159, 1, bw, attraction, a-b-da, 5, 1, 2, 8, 60, 135, 135, 60, 132, 58, 2, 1.44495
159, 1, bw, attraction, a-b-da, 5, 1, 2, 8, 60, 135, 135, 60, 132, 58, 1, 0.953817
159, 1, bw, attraction, a-b-da, 9, 2, 2, 9, 90, 165, 157, 86, 165, 90, 1, 1.34547
159, 1, bw, attraction, a-b-da, 9, 2, 2, 9, 90, 165, 157, 86, 165, 90, 2, 6.55459
159, 1, bw, attraction, a-b-da, 9, 3, 2, 10, 120, 195, 195, 120, 186, 114, 1, 1.20019
159, 1, bw, attraction, a-b-da, 9, 3, 2, 10, 120, 195, 195, 120, 186, 114, 2, 0.87931
159, 1, bw, filler, NA, 999, 999, 2, 11, 64, 90, 59, 75, 169, 141, 3, 1.28948
159, 1, bw, filler, NA, 999, 999, 2, 11, 64, 90, 59, 75, 169, 141, 2, 1.97249
159, 1, bw, catch, NA, 999, 999, 2, 12, 119, 136, 119, 76, 169, 146, 3, 1.97115
159, 1, bw, catch, NA, 999, 999, 2, 12, 119, 136, 119, 76, 169, 146, 2, 0.738479
159, 1, bw, attraction, a-b-db, 2, 3, 2, 13, 120, 195, 119, 193, 195, 120, 2, 1.35487
159, 1, bw, attraction, a-b-db, 2, 3, 2, 13, 120, 195, 119, 193, 195, 120, 3, 0.715677
159, 1, bw, attraction, a-b-db, 5, 2, 2, 14, 90, 165, 165, 90, 88, 161, 2, 1.05279
159, 1, bw, attraction, a-b-db, 5, 2, 2, 14, 90, 165, 165, 90, 88, 161, 3, 2.19393
159, 1, bw, attraction, a-b-da, 2, 3, 2, 15, 193, 119, 195, 120, 120, 195, 3, 0.942997
159, 1, bw, attraction, a-b-da, 2, 3, 2, 15, 193, 119, 195, 120, 120, 195, 2, 0.608053
159, 1, bw, filler, NA, 999, 999, 2, 16, 116, 138, 132, 66, 184, 130, 3, 0.669295
159, 1, bw, filler, NA, 999, 999, 2, 16, 116, 138, 132, 66, 184, 130, 2, 0.985534
159, 1, bw, filler, NA, 999, 999, 2, 17, 128, 144, 72, 187, 131, 93, 1, 2.37584
159, 1, bw, filler, NA, 999, 999, 2, 17, 128, 144, 72, 187, 131, 93, 2, 0.831028
159, 1, bw, filler, NA, 999, 999, 2, 18, 184, 121, 164, 96, 172, 146, 3, 0.835393
159, 1, bw, filler, NA, 999, 999, 2, 18, 184, 121, 164, 96, 172, 146, 2, 0.849139
159, 1, bw, attraction, a-b-da, 9, 1, 2, 19, 129, 57, 60, 135, 135, 60, 2, 1.39707
159, 1, bw, attraction, a-b-da, 9, 1, 2, 19, 129, 57, 60, 135, 135, 60, 3, 0.987695
159, 1, bw, attraction, a-b-db, 9, 1, 2, 20, 57, 129, 60, 135, 135, 60, 3, 1.01797
159, 1, bw, attraction, a-b-db, 9, 1, 2, 20, 57, 129, 60, 135, 135, 60, 2, 0.440245
159, 1, bw, filler, NA, 999, 999, 2, 21, 117, 104, 134, 146, 156, 79, 2, 1.28422
159, 1, bw, filler, NA, 999, 999, 2, 21, 117, 104, 134, 146, 156, 79, 3, 0.551826
159, 1, bw, attraction, a-b-db, 9, 2, 2, 22, 86, 157, 165, 90, 90, 165, 3, 1.39152
159, 1, bw, attraction, a-b-db, 9, 2, 2, 22, 86, 157, 165, 90, 90, 165, 2, 0.430327
159, 1, bw, attraction, a-b-da, 5, 3, 2, 23, 190, 117, 120, 195, 195, 120, 2, 0.658731
159, 1, bw, attraction, a-b-da, 5, 3, 2, 23, 190, 117, 120, 195, 195, 120, 1, 0.479161
159, 1, bw, attraction, a-b-da, 5, 2, 2, 24, 90, 165, 161, 88, 165, 90, 3, 0.99369
159, 1, bw, attraction, a-b-da, 5, 2, 2, 24, 90, 165, 161, 88, 165, 90, 2, 0.456769
159, 1, bw, filler, NA, 999, 999, 2, 25, 150, 142, 65, 82, 142, 137, 1, 1.31579
159, 1, bw, filler, NA, 999, 999, 2, 25, 150, 142, 65, 82, 142, 137, 2, 1.14206
159, 1, bw, attraction, a-b-db, 5, 3, 2, 26, 195, 120, 117, 190, 120, 195, 2, 1.01358
159, 1, bw, attraction, a-b-db, 5, 3, 2, 26, 195, 120, 117, 190, 120, 195, 1, 0.595993
159, 1, bw, attraction, a-b-da, 14, 3, 2, 27, 120, 195, 181, 111, 195, 120, 1, 0.897695
159, 1, bw, attraction, a-b-da, 14, 3, 2, 27, 120, 195, 181, 111, 195, 120, 2, 0.508668
159, 1, bw, filler, NA, 999, 999, 2, 28, 97, 84, 118, 104, 88, 114, 2, 1.21386
159, 1, bw, filler, NA, 999, 999, 2, 28, 97, 84, 118, 104, 88, 114, 3, 0.604033
159, 1, bw, attraction, a-b-db, 2, 2, 2, 29, 165, 90, 90, 165, 89, 163, 2, 1.3138
159, 1, bw, attraction, a-b-db, 2, 2, 2, 29, 165, 90, 90, 165, 89, 163, 3, 0.75613
159, 1, bw, attraction, a-b-da, 14, 1, 2, 30, 60, 135, 135, 60, 125, 56, 1, 0.755708
159, 1, bw, attraction, a-b-da, 14, 1, 2, 30, 60, 135, 135, 60, 125, 56, 3, 0.508278
159, 1, bw, attraction, a-b-db, 14, 2, 2, 31, 90, 165, 83, 153, 165, 90, 1, 1.05331
159, 1, bw, attraction, a-b-db, 14, 2, 2, 31, 90, 165, 83, 153, 165, 90, 2, 0.610356
159, 1, bw, attraction, a-b-da, 2, 2, 2, 32, 165, 90, 163, 89, 90, 165, 1, 1.06334
159, 1, bw, attraction, a-b-da, 2, 2, 2, 32, 165, 90, 163, 89, 90, 165, 3, 0.507626
159, 1, bw, filler, NA, 999, 999, 2, 33, 130, 70, 107, 183, 124, 164, 2, 2.06874
159, 1, bw, filler, NA, 999, 999, 2, 33, 130, 70, 107, 183, 124, 164, 1, 2.56876
159, 1, bw, filler, NA, 999, 999, 2, 34, 85, 69, 105, 82, 75, 123, 3, 2.3272
159, 1, bw, filler, NA, 999, 999, 2, 34, 85, 69, 105, 82, 75, 123, 1, 1.02452
159, 1, bw, filler, NA, 999, 999, 2, 35, 131, 134, 91, 168, 68, 185, 1, 1.88483
159, 1, bw, filler, NA, 999, 999, 2, 35, 131, 134, 91, 168, 68, 185, 2, 0.672246
159, 1, bw, attraction, a-b-da, 2, 1, 2, 36, 134, 59, 135, 60, 60, 135, 2, 1.61925
159, 1, bw, attraction, a-b-da, 2, 1, 2, 36, 134, 59, 135, 60, 60, 135, 3, 1.00138
159, 1, bw, attraction, a-b-db, 14, 1, 2, 37, 60, 135, 135, 60, 56, 125, 1, 2.79104
159, 1, bw, attraction, a-b-db, 14, 1, 2, 37, 60, 135, 135, 60, 56, 125, 3, 1.11752
159, 1, bw, attraction, a-b-da, 9, 1, 3, 1, 60, 135, 135, 60, 129, 57, 1, 2.82233
159, 1, bw, attraction, a-b-da, 9, 1, 3, 1, 60, 135, 135, 60, 129, 57, 3, 0.795576
159, 1, bw, attraction, a-b-db, 14, 3, 3, 2, 120, 195, 195, 120, 111, 181, 2, 2.71311
159, 1, bw, attraction, a-b-db, 14, 3, 3, 2, 120, 195, 195, 120, 111, 181, 3, 0.859385
159, 1, bw, filler, NA, 999, 999, 3, 3, 144, 154, 113, 68, 166, 93, 1, 0.830051
159, 1, bw, filler, NA, 999, 999, 3, 3, 144, 154, 113, 68, 166, 93, 2, 0.643641
159, 1, bw, catch, NA, 999, 999, 3, 4, 96, 99, 149, 106, 123, 192, 3, 0.879317
159, 1, bw, catch, NA, 999, 999, 3, 4, 96, 99, 149, 106, 123, 192, 1, 0.771164
159, 1, bw, attraction, a-b-da, 5, 1, 3, 5, 60, 135, 135, 60, 132, 58, 1, 2.87424
159, 1, bw, attraction, a-b-da, 5, 1, 3, 5, 60, 135, 135, 60, 132, 58, 3, 0.781143
159, 1, bw, filler, NA, 999, 999, 3, 6, 118, 136, 146, 127, 60, 98, 2, 1.05152
159, 1, bw, filler, NA, 999, 999, 3, 6, 118, 136, 146, 127, 60, 98, 3, 0.608587
159, 1, bw, attraction, a-b-db, 9, 1, 3, 7, 60, 135, 135, 60, 57, 129, 1, 0.93364
159, 1, bw, attraction, a-b-db, 9, 1, 3, 7, 60, 135, 135, 60, 57, 129, 2, 0.527253
159, 1, bw, attraction, a-b-db, 5, 2, 3, 8, 165, 90, 88, 161, 90, 165, 1, 0.727734
159, 1, bw, attraction, a-b-db, 5, 2, 3, 8, 165, 90, 88, 161, 90, 165, 2, 0.465545
159, 1, bw, catch, NA, 999, 999, 3, 9, 158, 157, 103, 152, 117, 78, 1, 0.780727
159, 1, bw, catch, NA, 999, 999, 3, 9, 158, 157, 103, 152, 117, 78, 3, 2.99637
159, 1, bw, attraction, a-b-db, 2, 1, 3, 10, 135, 60, 59, 134, 60, 135, 3, 3.71349
159, 1, bw, attraction, a-b-db, 2, 1, 3, 10, 135, 60, 59, 134, 60, 135, 2, 0.658909
159, 1, bw, attraction, a-b-da, 14, 2, 3, 11, 153, 83, 165, 90, 90, 165, 3, 1.75798
159, 1, bw, attraction, a-b-da, 14, 2, 3, 11, 153, 83, 165, 90, 90, 165, 2, 0.614119
159, 1, bw, attraction, a-b-db, 14, 2, 3, 12, 90, 165, 165, 90, 83, 153, 1, 1.547
159, 1, bw, attraction, a-b-db, 14, 2, 3, 12, 90, 165, 165, 90, 83, 153, 3, 1.6281
159, 1, bw, attraction, a-b-da, 14, 1, 3, 13, 135, 60, 125, 56, 60, 135, 2, 1.47193
159, 1, bw, attraction, a-b-da, 14, 1, 3, 13, 135, 60, 125, 56, 60, 135, 3, 0.555481
159, 1, bw, attraction, a-b-da, 2, 3, 3, 14, 195, 120, 120, 195, 193, 119, 2, 1.6834
159, 1, bw, attraction, a-b-da, 2, 3, 3, 14, 195, 120, 120, 195, 193, 119, 3, 0.61476
159, 1, bw, attraction, a-b-da, 2, 2, 3, 15, 90, 165, 165, 90, 163, 89, 1, 0.843998
159, 1, bw, attraction, a-b-da, 2, 2, 3, 15, 90, 165, 165, 90, 163, 89, 3, 1.02493
159, 1, bw, attraction, a-b-db, 2, 3, 3, 16, 120, 195, 119, 193, 195, 120, 3, 1.64516
159, 1, bw, attraction, a-b-db, 2, 3, 3, 16, 120, 195, 119, 193, 195, 120, 2, 0.609987
159, 1, bw, attraction, a-b-db, 14, 1, 3, 17, 60, 135, 56, 125, 135, 60, 1, 3.03906
159, 1, bw, attraction, a-b-db, 14, 1, 3, 17, 60, 135, 56, 125, 135, 60, 2, 0.667346
159, 1, bw, attraction, a-b-da, 9, 2, 3, 18, 165, 90, 90, 165, 157, 86, 1, 1.8544
159, 1, bw, attraction, a-b-da, 9, 2, 3, 18, 165, 90, 90, 165, 157, 86, 2, 1.09127
159, 1, bw, filler, NA, 999, 999, 3, 19, 153, 105, 159, 140, 158, 69, 2, 1.09276
159, 1, bw, filler, NA, 999, 999, 3, 19, 153, 105, 159, 140, 158, 69, 3, 0.879712
159, 1, bw, filler, NA, 999, 999, 3, 20, 158, 83, 144, 111, 142, 122, 3, 1.0741
159, 1, bw, filler, NA, 999, 999, 3, 20, 158, 83, 144, 111, 142, 122, 1, 0.629676
159, 1, bw, attraction, a-b-da, 9, 3, 3, 21, 195, 120, 120, 195, 186, 114, 1, 1.21802
159, 1, bw, attraction, a-b-da, 9, 3, 3, 21, 195, 120, 120, 195, 186, 114, 2, 0.496372
159, 1, bw, filler, NA, 999, 999, 3, 22, 104, 136, 192, 147, 106, 163, 2, 0.794147
159, 1, bw, filler, NA, 999, 999, 3, 22, 104, 136, 192, 147, 106, 163, 1, 1.15317
159, 1, bw, attraction, a-b-db, 9, 2, 3, 23, 86, 157, 165, 90, 90, 165, 3, 1.51295
159, 1, bw, attraction, a-b-db, 9, 2, 3, 23, 86, 157, 165, 90, 90, 165, 1, 0.802983
159, 1, bw, attraction, a-b-db, 2, 2, 3, 24, 89, 163, 165, 90, 90, 165, 3, 1.44067
159, 1, bw, attraction, a-b-db, 2, 2, 3, 24, 89, 163, 165, 90, 90, 165, 1, 0.661462
159, 1, bw, attraction, a-b-da, 2, 1, 3, 25, 60, 135, 135, 60, 134, 59, 1, 1.60856
159, 1, bw, attraction, a-b-da, 2, 1, 3, 25, 60, 135, 135, 60, 134, 59, 3, 0.910709
159, 1, bw, attraction, a-b-db, 5, 1, 3, 26, 135, 60, 58, 132, 60, 135, 1, 2.23179
159, 1, bw, attraction, a-b-db, 5, 1, 3, 26, 135, 60, 58, 132, 60, 135, 3, 0.701005
159, 1, bw, attraction, a-b-da, 5, 3, 3, 27, 120, 195, 195, 120, 190, 117, 1, 2.25471
159, 1, bw, attraction, a-b-da, 5, 3, 3, 27, 120, 195, 195, 120, 190, 117, 3, 1.03531
159, 1, bw, filler, NA, 999, 999, 3, 28, 113, 140, 123, 159, 75, 153, 2, 0.743612
159, 1, bw, filler, NA, 999, 999, 3, 28, 113, 140, 123, 159, 75, 153, 1, 0.664594
159, 1, bw, attraction, a-b-da, 5, 2, 3, 29, 161, 88, 165, 90, 90, 165, 3, 2.27576
159, 1, bw, attraction, a-b-da, 5, 2, 3, 29, 161, 88, 165, 90, 90, 165, 2, 0.535061
159, 1, bw, attraction, a-b-db, 5, 3, 3, 30, 120, 195, 117, 190, 195, 120, 3, 0.815347
159, 1, bw, attraction, a-b-db, 5, 3, 3, 30, 120, 195, 117, 190, 195, 120, 1, 1.50179
159, 1, bw, filler, NA, 999, 999, 3, 31, 67, 76, 127, 91, 166, 139, 3, 0.991434
159, 1, bw, filler, NA, 999, 999, 3, 31, 67, 76, 127, 91, 166, 139, 1, 0.550329
159, 1, bw, filler, NA, 999, 999, 3, 32, 118, 85, 162, 141, 148, 178, 3, 1.35811
159, 1, bw, filler, NA, 999, 999, 3, 32, 118, 85, 162, 141, 148, 178, 1, 0.822475
159, 1, bw, filler, NA, 999, 999, 3, 33, 148, 91, 109, 71, 98, 142, 1, 2.68378
159, 1, bw, filler, NA, 999, 999, 3, 33, 148, 91, 109, 71, 98, 142, 2, 0.470497
159, 1, bw, attraction, a-b-db, 9, 3, 3, 34, 195, 120, 120, 195, 114, 186, 1, 0.945519
159, 1, bw, attraction, a-b-db, 9, 3, 3, 34, 195, 120, 120, 195, 114, 186, 2, 0.498527
159, 1, bw, filler, NA, 999, 999, 3, 35, 110, 130, 82, 67, 160, 97, 3, 1.06033
159, 1, bw, filler, NA, 999, 999, 3, 35, 110, 130, 82, 67, 160, 97, 2, 0.552626
159, 1, bw, catch, NA, 999, 999, 3, 36, 141, 114, 195, 120, 60, 135, 2, 1.1924
159, 1, bw, catch, NA, 999, 999, 3, 36, 141, 114, 195, 120, 60, 135, 3, 0.471414
159, 1, bw, attraction, a-b-da, 14, 3, 3, 37, 120, 195, 195, 120, 181, 111, 1, 2.53065
159, 1, bw, attraction, a-b-da, 14, 3, 3, 37, 120, 195, 195, 120, 181, 111, 2, 1.53977
159, 1, bw, attraction, a-b-da, 5, 3, 4, 1, 195, 120, 120, 195, 190, 117, 1, 1.5958
159, 1, bw, attraction, a-b-da, 5, 3, 4, 1, 195, 120, 120, 195, 190, 117, 2, 0.410624
159, 1, bw, filler, NA, 999, 999, 4, 2, 77, 147, 57, 150, 119, 157, 3, 0.855765
159, 1, bw, filler, NA, 999, 999, 4, 2, 77, 147, 57, 150, 119, 157, 2, 0.5801
159, 1, bw, catch, NA, 999, 999, 4, 3, 156, 99, 166, 149, 95, 100, 2, 0.778494
159, 1, bw, catch, NA, 999, 999, 4, 3, 156, 99, 166, 149, 95, 100, 1, 0.466267
159, 1, bw, attraction, a-b-db, 14, 2, 4, 4, 83, 153, 165, 90, 90, 165, 3, 1.36555
159, 1, bw, attraction, a-b-db, 14, 2, 4, 4, 83, 153, 165, 90, 90, 165, 2, 0.349714
159, 1, bw, attraction, a-b-db, 2, 2, 4, 5, 89, 163, 90, 165, 165, 90, 3, 0.997561
159, 1, bw, attraction, a-b-db, 2, 2, 4, 5, 89, 163, 90, 165, 165, 90, 2, 0.55646
159, 1, bw, attraction, a-b-db, 5, 3, 4, 6, 120, 195, 195, 120, 117, 190, 1, 0.932155
159, 1, bw, attraction, a-b-db, 5, 3, 4, 6, 120, 195, 195, 120, 117, 190, 2, 0.349993
159, 1, bw, catch, NA, 999, 999, 4, 7, 118, 137, 129, 186, 126, 69, 2, 1.2938
159, 1, bw, catch, NA, 999, 999, 4, 7, 118, 137, 129, 186, 126, 69, 3, 0.688757
159, 1, bw, attraction, a-b-db, 9, 2, 4, 8, 90, 165, 86, 157, 165, 90, 3, 1.87496
159, 1, bw, attraction, a-b-db, 9, 2, 4, 8, 90, 165, 86, 157, 165, 90, 2, 0.398396
159, 1, bw, filler, NA, 999, 999, 4, 9, 167, 137, 129, 124, 97, 89, 1, 0.70815
159, 1, bw, filler, NA, 999, 999, 4, 9, 167, 137, 129, 124, 97, 89, 2, 0.638726
159, 1, bw, filler, NA, 999, 999, 4, 10, 109, 157, 150, 142, 168, 160, 3, 0.515076
159, 1, bw, filler, NA, 999, 999, 4, 10, 109, 157, 150, 142, 168, 160, 2, 0.693555
159, 1, bw, catch, NA, 999, 999, 4, 11, 190, 125, 126, 69, 115, 140, 1, 1.41523
159, 1, bw, catch, NA, 999, 999, 4, 11, 190, 125, 126, 69, 115, 140, 2, 0.469408
159, 1, bw, attraction, a-b-db, 9, 1, 4, 12, 135, 60, 60, 135, 57, 129, 2, 2.00866
159, 1, bw, attraction, a-b-db, 9, 1, 4, 12, 135, 60, 60, 135, 57, 129, 3, 0.630678
159, 1, bw, attraction, a-b-db, 14, 3, 4, 13, 111, 181, 120, 195, 195, 120, 3, 0.747023
159, 1, bw, attraction, a-b-db, 14, 3, 4, 13, 111, 181, 120, 195, 195, 120, 2, 0.51614
159, 1, bw, filler, NA, 999, 999, 4, 14, 135, 134, 159, 101, 56, 121, 2, 1.1972
159, 1, bw, filler, NA, 999, 999, 4, 14, 135, 134, 159, 101, 56, 121, 3, 0.412249
159, 1, bw, filler, NA, 999, 999, 4, 15, 128, 173, 64, 69, 171, 112, 1, 0.609409
159, 1, bw, filler, NA, 999, 999, 4, 15, 128, 173, 64, 69, 171, 112, 2, 0.535881
159, 1, bw, attraction, a-b-da, 9, 1, 4, 16, 135, 60, 129, 57, 60, 135, 3, 0.672186
159, 1, bw, attraction, a-b-da, 9, 1, 4, 16, 135, 60, 129, 57, 60, 135, 2, 0.508067
159, 1, bw, filler, NA, 999, 999, 4, 17, 189, 150, 81, 128, 130, 64, 1, 0.573034
159, 1, bw, filler, NA, 999, 999, 4, 17, 189, 150, 81, 128, 130, 64, 2, 0.404869
159, 1, bw, filler, NA, 999, 999, 4, 18, 77, 64, 99, 120, 162, 177, 3, 0.426679
159, 1, bw, filler, NA, 999, 999, 4, 18, 77, 64, 99, 120, 162, 177, 1, 0.50453
159, 1, bw, attraction, a-b-da, 14, 3, 4, 19, 181, 111, 120, 195, 195, 120, 3, 0.650295
159, 1, bw, attraction, a-b-da, 14, 3, 4, 19, 181, 111, 120, 195, 195, 120, 2, 0.687418
159, 1, bw, attraction, a-b-db, 2, 3, 4, 20, 119, 193, 120, 195, 195, 120, 1, 1.08977
159, 1, bw, attraction, a-b-db, 2, 3, 4, 20, 119, 193, 120, 195, 195, 120, 3, 0.500771
159, 1, bw, filler, NA, 999, 999, 4, 21, 170, 121, 187, 134, 113, 186, 3, 1.29446
159, 1, bw, filler, NA, 999, 999, 4, 21, 170, 121, 187, 134, 113, 186, 1, 0.521532
159, 1, bw, attraction, a-b-db, 5, 2, 4, 22, 90, 165, 165, 90, 88, 161, 1, 4.26649
159, 1, bw, attraction, a-b-db, 5, 2, 4, 22, 90, 165, 165, 90, 88, 161, 3, 1.00583
159, 1, bw, filler, NA, 999, 999, 4, 23, 172, 174, 70, 60, 79, 165, 1, 0.867419
159, 1, bw, filler, NA, 999, 999, 4, 23, 172, 174, 70, 60, 79, 165, 2, 0.623834
159, 1, bw, attraction, a-b-da, 5, 1, 4, 24, 135, 60, 60, 135, 132, 58, 3, 2.38825
159, 1, bw, attraction, a-b-da, 5, 1, 4, 24, 135, 60, 60, 135, 132, 58, 2, 0.731578
159, 1, bw, attraction, a-b-da, 14, 1, 4, 25, 60, 135, 135, 60, 125, 56, 2, 3.53196
159, 1, bw, attraction, a-b-da, 14, 1, 4, 25, 60, 135, 135, 60, 125, 56, 3, 1.37288
159, 1, bw, attraction, a-b-da, 2, 2, 4, 26, 165, 90, 90, 165, 163, 89, 1, 1.30755
159, 1, bw, attraction, a-b-da, 2, 2, 4, 26, 165, 90, 90, 165, 163, 89, 2, 0.373799
159, 1, bw, attraction, a-b-da, 14, 2, 4, 27, 90, 165, 153, 83, 165, 90, 3, 0.868248
159, 1, bw, attraction, a-b-da, 14, 2, 4, 27, 90, 165, 153, 83, 165, 90, 2, 0.504743
159, 1, bw, attraction, a-b-db, 9, 3, 4, 28, 195, 120, 114, 186, 120, 195, 1, 0.922414
159, 1, bw, attraction, a-b-db, 9, 3, 4, 28, 195, 120, 114, 186, 120, 195, 2, 0.396224
159, 1, bw, attraction, a-b-db, 14, 1, 4, 29, 135, 60, 60, 135, 56, 125, 1, 0.673892
159, 1, bw, attraction, a-b-db, 14, 1, 4, 29, 135, 60, 60, 135, 56, 125, 2, 0.373833
159, 1, bw, attraction, a-b-db, 2, 1, 4, 30, 135, 60, 60, 135, 59, 134, 1, 0.79628
159, 1, bw, attraction, a-b-db, 2, 1, 4, 30, 135, 60, 60, 135, 59, 134, 2, 0.883321
159, 1, bw, attraction, a-b-da, 9, 3, 4, 31, 195, 120, 120, 195, 186, 114, 1, 2.96561
159, 1, bw, attraction, a-b-da, 9, 3, 4, 31, 195, 120, 120, 195, 186, 114, 2, 0.70932
159, 1, bw, filler, NA, 999, 999, 4, 32, 134, 170, 113, 150, 193, 188, 3, 0.814468
159, 1, bw, filler, NA, 999, 999, 4, 32, 134, 170, 113, 150, 193, 188, 2, 0.444889
159, 1, bw, attraction, a-b-da, 9, 2, 4, 33, 90, 165, 157, 86, 165, 90, 1, 0.936579
159, 1, bw, attraction, a-b-da, 9, 2, 4, 33, 90, 165, 157, 86, 165, 90, 2, 0.466244
159, 1, bw, attraction, a-b-db, 5, 1, 4, 34, 58, 132, 135, 60, 60, 135, 3, 0.957613
159, 1, bw, attraction, a-b-db, 5, 1, 4, 34, 58, 132, 135, 60, 60, 135, 2, 0.741724
159, 1, bw, attraction, a-b-da, 2, 3, 4, 35, 120, 195, 193, 119, 195, 120, 1, 0.789373
159, 1, bw, attraction, a-b-da, 2, 3, 4, 35, 120, 195, 193, 119, 195, 120, 2, 0.628654
159, 1, bw, attraction, a-b-da, 2, 1, 4, 36, 60, 135, 134, 59, 135, 60, 3, 1.16888
159, 1, bw, attraction, a-b-da, 2, 1, 4, 36, 60, 135, 134, 59, 135, 60, 2, 1.4252
159, 1, bw, attraction, a-b-da, 5, 2, 4, 37, 90, 165, 161, 88, 165, 90, 3, 0.765306
159, 1, bw, attraction, a-b-da, 5, 2, 4, 37, 90, 165, 161, 88, 165, 90, 2, 0.493688
159, 1, bw, attraction, a-b-da, 5, 2, 5, 1, 90, 165, 165, 90, 161, 88, 1, 1.89407
159, 1, bw, attraction, a-b-da, 5, 2, 5, 1, 90, 165, 165, 90, 161, 88, 2, 0.664902
159, 1, bw, attraction, a-b-da, 9, 1, 5, 2, 60, 135, 129, 57, 135, 60, 1, 0.763875
159, 1, bw, attraction, a-b-da, 9, 1, 5, 2, 60, 135, 129, 57, 135, 60, 2, 0.428281
159, 1, bw, attraction, a-b-db, 2, 2, 5, 3, 89, 163, 165, 90, 90, 165, 3, 0.920762
159, 1, bw, attraction, a-b-db, 2, 2, 5, 3, 89, 163, 165, 90, 90, 165, 2, 0.586466
159, 1, bw, attraction, a-b-da, 14, 2, 5, 4, 153, 83, 165, 90, 90, 165, 1, 0.648852
159, 1, bw, attraction, a-b-da, 14, 2, 5, 4, 153, 83, 165, 90, 90, 165, 2, 0.334044
159, 1, bw, attraction, a-b-db, 14, 2, 5, 5, 90, 165, 83, 153, 165, 90, 1, 0.798554
159, 1, bw, attraction, a-b-db, 14, 2, 5, 5, 90, 165, 83, 153, 165, 90, 2, 0.381588
159, 1, bw, filler, NA, 999, 999, 5, 6, 65, 139, 183, 112, 89, 86, 2, 1.22002
159, 1, bw, filler, NA, 999, 999, 5, 6, 65, 139, 183, 112, 89, 86, 3, 0.530317
159, 1, bw, filler, NA, 999, 999, 5, 7, 81, 158, 146, 84, 77, 122, 1, 0.794706
159, 1, bw, filler, NA, 999, 999, 5, 7, 81, 158, 146, 84, 77, 122, 2, 0.394314
159, 1, bw, filler, NA, 999, 999, 5, 8, 187, 106, 158, 75, 182, 188, 3, 0.631571
159, 1, bw, filler, NA, 999, 999, 5, 8, 187, 106, 158, 75, 182, 188, 2, 0.733506
159, 1, bw, attraction, a-b-db, 2, 1, 5, 9, 60, 135, 59, 134, 135, 60, 3, 1.02974
159, 1, bw, attraction, a-b-db, 2, 1, 5, 9, 60, 135, 59, 134, 135, 60, 2, 0.4676
159, 1, bw, attraction, a-b-db, 9, 3, 5, 10, 195, 120, 114, 186, 120, 195, 1, 0.582587
159, 1, bw, attraction, a-b-db, 9, 3, 5, 10, 195, 120, 114, 186, 120, 195, 2, 0.982387
159, 1, bw, attraction, a-b-da, 2, 3, 5, 11, 193, 119, 120, 195, 195, 120, 3, 0.876585
159, 1, bw, attraction, a-b-da, 2, 3, 5, 11, 193, 119, 120, 195, 195, 120, 2, 0.36833
159, 1, bw, attraction, a-b-da, 9, 2, 5, 12, 157, 86, 165, 90, 90, 165, 3, 1.46347
159, 1, bw, attraction, a-b-da, 9, 2, 5, 12, 157, 86, 165, 90, 90, 165, 2, 0.699711
159, 1, bw, attraction, a-b-da, 2, 1, 5, 13, 60, 135, 134, 59, 135, 60, 3, 1.1334
159, 1, bw, attraction, a-b-da, 2, 1, 5, 13, 60, 135, 134, 59, 135, 60, 1, 0.54306
159, 1, bw, catch, NA, 999, 999, 5, 14, 104, 151, 150, 165, 66, 129, 2, 0.798837
159, 1, bw, catch, NA, 999, 999, 5, 14, 104, 151, 150, 165, 66, 129, 3, 0.485826
159, 1, bw, filler, NA, 999, 999, 5, 15, 165, 121, 100, 120, 115, 72, 1, 0.824349
159, 1, bw, filler, NA, 999, 999, 5, 15, 165, 121, 100, 120, 115, 72, 2, 0.582042
159, 1, bw, attraction, a-b-da, 14, 3, 5, 16, 120, 195, 181, 111, 195, 120, 1, 1.07642
159, 1, bw, attraction, a-b-da, 14, 3, 5, 16, 120, 195, 181, 111, 195, 120, 2, 0.616229
159, 1, bw, filler, NA, 999, 999, 5, 17, 89, 76, 170, 129, 98, 150, 2, 1.13315
159, 1, bw, filler, NA, 999, 999, 5, 17, 89, 76, 170, 129, 98, 150, 1, 0.510871
159, 1, bw, filler, NA, 999, 999, 5, 18, 136, 145, 153, 113, 194, 57, 1, 0.74388
159, 1, bw, filler, NA, 999, 999, 5, 18, 136, 145, 153, 113, 194, 57, 3, 1.35306
159, 1, bw, attraction, a-b-db, 5, 3, 5, 19, 117, 190, 120, 195, 195, 120, 1, 1.24061
159, 1, bw, attraction, a-b-db, 5, 3, 5, 19, 117, 190, 120, 195, 195, 120, 3, 1.20555
159, 1, bw, attraction, a-b-db, 2, 3, 5, 20, 119, 193, 195, 120, 120, 195, 3, 0.931005
159, 1, bw, attraction, a-b-db, 2, 3, 5, 20, 119, 193, 195, 120, 120, 195, 2, 0.4367
159, 1, bw, filler, NA, 999, 999, 5, 21, 179, 87, 92, 149, 150, 89, 1, 1.22525
159, 1, bw, filler, NA, 999, 999, 5, 21, 179, 87, 92, 149, 150, 89, 2, 0.902754
159, 1, bw, attraction, a-b-da, 5, 1, 5, 22, 132, 58, 60, 135, 135, 60, 3, 2.66443
159, 1, bw, attraction, a-b-da, 5, 1, 5, 22, 132, 58, 60, 135, 135, 60, 2, 0.516216
159, 1, bw, attraction, a-b-db, 9, 1, 5, 23, 60, 135, 135, 60, 57, 129, 3, 1.18937
159, 1, bw, attraction, a-b-db, 9, 1, 5, 23, 60, 135, 135, 60, 57, 129, 2, 0.540299
159, 1, bw, attraction, a-b-db, 9, 2, 5, 24, 165, 90, 90, 165, 86, 157, 1, 0.652029
159, 1, bw, attraction, a-b-db, 9, 2, 5, 24, 165, 90, 90, 165, 86, 157, 2, 0.40931
159, 1, bw, filler, NA, 999, 999, 5, 25, 122, 160, 74, 138, 108, 186, 3, 0.886295
159, 1, bw, filler, NA, 999, 999, 5, 25, 122, 160, 74, 138, 108, 186, 2, 0.570161
159, 1, bw, attraction, a-b-db, 5, 2, 5, 26, 90, 165, 165, 90, 88, 161, 3, 0.561068
159, 1, bw, attraction, a-b-db, 5, 2, 5, 26, 90, 165, 165, 90, 88, 161, 2, 0.905557
159, 1, bw, attraction, a-b-db, 5, 1, 5, 27, 60, 135, 135, 60, 58, 132, 1, 0.69932
159, 1, bw, attraction, a-b-db, 5, 1, 5, 27, 60, 135, 135, 60, 58, 132, 2, 0.510395
159, 1, bw, catch, NA, 999, 999, 5, 28, 151, 104, 176, 139, 130, 65, 2, 0.983312
159, 1, bw, catch, NA, 999, 999, 5, 28, 151, 104, 176, 139, 130, 65, 3, 0.575195
159, 1, bw, catch, NA, 999, 999, 5, 29, 153, 102, 169, 146, 108, 87, 2, 1.14945
159, 1, bw, catch, NA, 999, 999, 5, 29, 153, 102, 169, 146, 108, 87, 3, 0.766484
159, 1, bw, filler, NA, 999, 999, 5, 30, 86, 187, 69, 183, 61, 85, 1, 0.709502
159, 1, bw, filler, NA, 999, 999, 5, 30, 86, 187, 69, 183, 61, 85, 3, 0.5679
159, 1, bw, attraction, a-b-da, 5, 3, 5, 31, 190, 117, 120, 195, 195, 120, 3, 1.11104
159, 1, bw, attraction, a-b-da, 5, 3, 5, 31, 190, 117, 120, 195, 195, 120, 2, 0.665385
159, 1, bw, attraction, a-b-da, 2, 2, 5, 32, 165, 90, 163, 89, 90, 165, 3, 1.23637
159, 1, bw, attraction, a-b-da, 2, 2, 5, 32, 165, 90, 163, 89, 90, 165, 2, 0.657988
159, 1, bw, attraction, a-b-db, 14, 3, 5, 33, 195, 120, 111, 181, 120, 195, 3, 0.909067
159, 1, bw, attraction, a-b-db, 14, 3, 5, 33, 195, 120, 111, 181, 120, 195, 2, 0.615452
159, 1, bw, attraction, a-b-db, 14, 1, 5, 34, 135, 60, 56, 125, 60, 135, 1, 1.52445
159, 1, bw, attraction, a-b-db, 14, 1, 5, 34, 135, 60, 56, 125, 60, 135, 2, 0.694152
159, 1, bw, filler, NA, 999, 999, 5, 35, 125, 167, 165, 80, 136, 94, 1, 0.67172
159, 1, bw, filler, NA, 999, 999, 5, 35, 125, 167, 165, 80, 136, 94, 3, 0.95549
159, 1, bw, attraction, a-b-da, 9, 3, 5, 36, 120, 195, 186, 114, 195, 120, 3, 1.64314
159, 1, bw, attraction, a-b-da, 9, 3, 5, 36, 120, 195, 186, 114, 195, 120, 1, 0.5999
159, 1, bw, attraction, a-b-da, 14, 1, 5, 37, 135, 60, 125, 56, 60, 135, 1, 1.31765
159, 1, bw, attraction, a-b-da, 14, 1, 5, 37, 135, 60, 125, 56, 60, 135, 2, 0.735878
159, 1, bw, catch, NA, 999, 999, 6, 1, 95, 100, 105, 150, 190, 125, 3, 0.736269
159, 1, bw, catch, NA, 999, 999, 6, 1, 95, 100, 105, 150, 190, 125, 1, 0.666005
159, 1, bw, attraction, a-b-da, 9, 1, 6, 2, 135, 60, 60, 135, 129, 57, 3, 0.653162
159, 1, bw, attraction, a-b-da, 9, 1, 6, 2, 135, 60, 60, 135, 129, 57, 2, 0.738193
159, 1, bw, attraction, a-b-da, 2, 2, 6, 3, 163, 89, 90, 165, 165, 90, 1, 1.17867
159, 1, bw, attraction, a-b-da, 2, 2, 6, 3, 163, 89, 90, 165, 165, 90, 2, 0.698201
159, 1, bw, attraction, a-b-db, 14, 3, 6, 4, 120, 195, 111, 181, 195, 120, 3, 1.1719
159, 1, bw, attraction, a-b-db, 14, 3, 6, 4, 120, 195, 111, 181, 195, 120, 2, 0.507523
159, 1, bw, attraction, a-b-da, 9, 2, 6, 5, 90, 165, 165, 90, 157, 86, 2, 2.86882
159, 1, bw, attraction, a-b-da, 9, 2, 6, 5, 90, 165, 165, 90, 157, 86, 1, 0.520275
159, 1, bw, attraction, a-b-da, 14, 2, 6, 6, 90, 165, 153, 83, 165, 90, 3, 0.82543
159, 1, bw, attraction, a-b-da, 14, 2, 6, 6, 90, 165, 153, 83, 165, 90, 2, 0.971282
159, 1, bw, attraction, a-b-da, 9, 3, 6, 7, 195, 120, 120, 195, 186, 114, 1, 2.27824
159, 1, bw, attraction, a-b-da, 9, 3, 6, 7, 195, 120, 120, 195, 186, 114, 2, 0.697376
159, 1, bw, filler, NA, 999, 999, 6, 8, 154, 100, 86, 130, 100, 79, 1, 0.635132
159, 1, bw, filler, NA, 999, 999, 6, 8, 154, 100, 86, 130, 100, 79, 3, 0.760961
159, 1, bw, filler, NA, 999, 999, 6, 9, 135, 60, 157, 167, 131, 111, 2, 0.568036
159, 1, bw, filler, NA, 999, 999, 6, 9, 135, 60, 157, 167, 131, 111, 1, 0.69685
159, 1, bw, attraction, a-b-da, 14, 1, 6, 10, 60, 135, 135, 60, 125, 56, 1, 1.21017
159, 1, bw, attraction, a-b-da, 14, 1, 6, 10, 60, 135, 135, 60, 125, 56, 2, 0.432374
159, 1, bw, filler, NA, 999, 999, 6, 11, 86, 146, 56, 104, 83, 134, 1, 0.956842
159, 1, bw, filler, NA, 999, 999, 6, 11, 86, 146, 56, 104, 83, 134, 2, 0.461201
159, 1, bw, attraction, a-b-db, 9, 3, 6, 12, 120, 195, 114, 186, 195, 120, 3, 0.568329
159, 1, bw, attraction, a-b-db, 9, 3, 6, 12, 120, 195, 114, 186, 195, 120, 2, 0.400826
159, 1, bw, attraction, a-b-db, 9, 2, 6, 13, 86, 157, 165, 90, 90, 165, 3, 1.23855
159, 1, bw, attraction, a-b-db, 9, 2, 6, 13, 86, 157, 165, 90, 90, 165, 2, 0.387576
159, 1, bw, attraction, a-b-db, 14, 2, 6, 14, 90, 165, 165, 90, 83, 153, 1, 1.13799
159, 1, bw, attraction, a-b-db, 14, 2, 6, 14, 90, 165, 165, 90, 83, 153, 2, 0.419689
159, 1, bw, filler, NA, 999, 999, 6, 15, 59, 58, 148, 177, 101, 175, 2, 0.832817
159, 1, bw, filler, NA, 999, 999, 6, 15, 59, 58, 148, 177, 101, 175, 1, 0.430458
159, 1, bw, attraction, a-b-da, 5, 2, 6, 16, 161, 88, 165, 90, 90, 165, 3, 1.09105
159, 1, bw, attraction, a-b-da, 5, 2, 6, 16, 161, 88, 165, 90, 90, 165, 2, 0.86989
159, 1, bw, attraction, a-b-db, 5, 1, 6, 17, 135, 60, 60, 135, 58, 132, 1, 1.92891
159, 1, bw, attraction, a-b-db, 5, 1, 6, 17, 135, 60, 60, 135, 58, 132, 2, 0.434286
159, 1, bw, filler, NA, 999, 999, 6, 18, 136, 195, 118, 186, 134, 137, 1, 1.15877
159, 1, bw, filler, NA, 999, 999, 6, 18, 136, 195, 118, 186, 134, 137, 3, 0.599178
159, 1, bw, attraction, a-b-db, 9, 1, 6, 19, 135, 60, 57, 129, 60, 135, 1, 1.0608
159, 1, bw, attraction, a-b-db, 9, 1, 6, 19, 135, 60, 57, 129, 60, 135, 2, 0.673154
159, 1, bw, attraction, a-b-db, 2, 2, 6, 20, 90, 165, 89, 163, 165, 90, 3, 1.24429
159, 1, bw, attraction, a-b-db, 2, 2, 6, 20, 90, 165, 89, 163, 165, 90, 2, 0.425126
159, 1, bw, attraction, a-b-db, 14, 1, 6, 21, 60, 135, 135, 60, 56, 125, 1, 0.837627
159, 1, bw, attraction, a-b-db, 14, 1, 6, 21, 60, 135, 135, 60, 56, 125, 2, 0.507328
159, 1, bw, attraction, a-b-db, 2, 1, 6, 22, 135, 60, 60, 135, 59, 134, 1, 0.772349
159, 1, bw, attraction, a-b-db, 2, 1, 6, 22, 135, 60, 60, 135, 59, 134, 2, 0.404282
159, 1, bw, attraction, a-b-da, 2, 1, 6, 23, 60, 135, 134, 59, 135, 60, 3, 0.874033
159, 1, bw, attraction, a-b-da, 2, 1, 6, 23, 60, 135, 134, 59, 135, 60, 2, 0.49368
159, 1, bw, filler, NA, 999, 999, 6, 24, 191, 59, 73, 91, 99, 144, 1, 0.687423
159, 1, bw, filler, NA, 999, 999, 6, 24, 191, 59, 73, 91, 99, 144, 2, 0.787176
159, 1, bw, filler, NA, 999, 999, 6, 25, 74, 121, 114, 84, 137, 59, 2, 2.64151
159, 1, bw, filler, NA, 999, 999, 6, 25, 74, 121, 114, 84, 137, 59, 1, 0.510077
159, 1, bw, attraction, a-b-db, 2, 3, 6, 26, 195, 120, 119, 193, 120, 195, 1, 1.26318
159, 1, bw, attraction, a-b-db, 2, 3, 6, 26, 195, 120, 119, 193, 120, 195, 2, 0.483433
159, 1, bw, catch, NA, 999, 999, 6, 27, 99, 96, 127, 188, 101, 154, 2, 1.06183
159, 1, bw, catch, NA, 999, 999, 6, 27, 99, 96, 127, 188, 101, 154, 1, 0.466239
159, 1, bw, attraction, a-b-db, 5, 3, 6, 28, 117, 190, 195, 120, 120, 195, 3, 1.65331
159, 1, bw, attraction, a-b-db, 5, 3, 6, 28, 117, 190, 195, 120, 120, 195, 2, 0.48205
159, 1, bw, filler, NA, 999, 999, 6, 29, 69, 94, 87, 72, 117, 93, 3, 1.08453
159, 1, bw, filler, NA, 999, 999, 6, 29, 69, 94, 87, 72, 117, 93, 1, 0.94417
159, 1, bw, attraction, a-b-db, 5, 2, 6, 30, 90, 165, 88, 161, 165, 90, 3, 1.99184
159, 1, bw, attraction, a-b-db, 5, 2, 6, 30, 90, 165, 88, 161, 165, 90, 2, 0.846564
159, 1, bw, attraction, a-b-da, 2, 3, 6, 31, 195, 120, 193, 119, 120, 195, 3, 1.21826
159, 1, bw, attraction, a-b-da, 2, 3, 6, 31, 195, 120, 193, 119, 120, 195, 1, 0.50441
159, 1, bw, attraction, a-b-da, 5, 1, 6, 32, 135, 60, 60, 135, 132, 58, 2, 1.23434
159, 1, bw, attraction, a-b-da, 5, 1, 6, 32, 135, 60, 60, 135, 132, 58, 1, 0.495886
159, 1, bw, attraction, a-b-da, 14, 3, 6, 33, 195, 120, 120, 195, 181, 111, 1, 0.881653
159, 1, bw, attraction, a-b-da, 14, 3, 6, 33, 195, 120, 120, 195, 181, 111, 2, 0.701403
159, 1, bw, filler, NA, 999, 999, 6, 34, 145, 192, 125, 147, 170, 188, 3, 0.759105
159, 1, bw, filler, NA, 999, 999, 6, 34, 145, 192, 125, 147, 170, 188, 2, 0.567423
159, 1, bw, catch, NA, 999, 999, 6, 35, 113, 142, 102, 93, 173, 142, 3, 0.582546
159, 1, bw, catch, NA, 999, 999, 6, 35, 113, 142, 102, 93, 173, 142, 2, 0.502295
159, 1, bw, attraction, a-b-da, 5, 3, 6, 36, 120, 195, 190, 117, 195, 120, 1, 0.968075
159, 1, bw, attraction, a-b-da, 5, 3, 6, 36, 120, 195, 190, 117, 195, 120, 2, 0.440478
159, 1, bw, filler, NA, 999, 999, 6, 37, 112, 103, 187, 151, 62, 184, 2, 1.0522
159, 1, bw, filler, NA, 999, 999, 6, 37, 112, 103, 187, 151, 62, 184, 1, 0.76923
159, 1, bw, attraction, a-b-da, 2, 3, 7, 1, 195, 120, 193, 119, 120, 195, 3, 1.28827
159, 1, bw, attraction, a-b-da, 2, 3, 7, 1, 195, 120, 193, 119, 120, 195, 2, 0.691874
159, 1, bw, attraction, a-b-db, 14, 2, 7, 2, 90, 165, 165, 90, 83, 153, 3, 1.18154
159, 1, bw, attraction, a-b-db, 14, 2, 7, 2, 90, 165, 165, 90, 83, 153, 2, 0.413238
159, 1, bw, filler, NA, 999, 999, 7, 3, 114, 143, 56, 81, 87, 192, 3, 1.80246
159, 1, bw, filler, NA, 999, 999, 7, 3, 114, 143, 56, 81, 87, 192, 2, 0.577234
159, 1, bw, filler, NA, 999, 999, 7, 4, 117, 163, 182, 95, 59, 158, 2, 2.28746
159, 1, bw, filler, NA, 999, 999, 7, 4, 117, 163, 182, 95, 59, 158, 3, 0.418727
159, 1, bw, attraction, a-b-da, 2, 1, 7, 5, 135, 60, 134, 59, 60, 135, 3, 1.05583
159, 1, bw, attraction, a-b-da, 2, 1, 7, 5, 135, 60, 134, 59, 60, 135, 2, 0.412343
159, 1, bw, attraction, a-b-db, 14, 1, 7, 6, 60, 135, 135, 60, 56, 125, 1, 0.977342
159, 1, bw, attraction, a-b-db, 14, 1, 7, 6, 60, 135, 135, 60, 56, 125, 2, 0.393151
159, 1, bw, attraction, a-b-db, 9, 2, 7, 7, 90, 165, 165, 90, 86, 157, 1, 1.06292
159, 1, bw, attraction, a-b-db, 9, 2, 7, 7, 90, 165, 165, 90, 86, 157, 2, 0.571122
159, 1, bw, attraction, a-b-da, 9, 2, 7, 8, 157, 86, 165, 90, 90, 165, 3, 0.754164
159, 1, bw, attraction, a-b-da, 9, 2, 7, 8, 157, 86, 165, 90, 90, 165, 2, 0.371315
159, 1, bw, attraction, a-b-da, 14, 2, 7, 9, 153, 83, 90, 165, 165, 90, 3, 0.634515
159, 1, bw, attraction, a-b-da, 14, 2, 7, 9, 153, 83, 90, 165, 165, 90, 2, 0.43229
159, 1, bw, attraction, a-b-da, 9, 1, 7, 10, 60, 135, 135, 60, 129, 57, 1, 0.836712
159, 1, bw, attraction, a-b-da, 9, 1, 7, 10, 60, 135, 135, 60, 129, 57, 3, 0.674374
159, 1, bw, attraction, a-b-da, 5, 3, 7, 11, 120, 195, 195, 120, 190, 117, 1, 0.628868
159, 1, bw, attraction, a-b-da, 5, 3, 7, 11, 120, 195, 195, 120, 190, 117, 2, 0.44259
159, 1, bw, attraction, a-b-db, 9, 1, 7, 12, 60, 135, 135, 60, 57, 129, 2, 1.24641
159, 1, bw, attraction, a-b-db, 9, 1, 7, 12, 60, 135, 135, 60, 57, 129, 1, 0.403359
159, 1, bw, filler, NA, 999, 999, 7, 13, 82, 107, 99, 126, 74, 60, 2, 0.569118
159, 1, bw, filler, NA, 999, 999, 7, 13, 82, 107, 99, 126, 74, 60, 3, 0.593587
159, 1, bw, filler, NA, 999, 999, 7, 14, 63, 62, 72, 114, 96, 145, 3, 0.967353
159, 1, bw, filler, NA, 999, 999, 7, 14, 63, 62, 72, 114, 96, 145, 1, 0.807741
159, 1, bw, attraction, a-b-db, 2, 2, 7, 15, 90, 165, 89, 163, 165, 90, 1, 1.16468
159, 1, bw, attraction, a-b-db, 2, 2, 7, 15, 90, 165, 89, 163, 165, 90, 2, 0.36494
159, 1, bw, attraction, a-b-db, 2, 3, 7, 16, 119, 193, 195, 120, 120, 195, 3, 1.94015
159, 1, bw, attraction, a-b-db, 2, 3, 7, 16, 119, 193, 195, 120, 120, 195, 2, 0.324873
159, 1, bw, attraction, a-b-da, 9, 3, 7, 17, 120, 195, 186, 114, 195, 120, 1, 0.661383
159, 1, bw, attraction, a-b-da, 9, 3, 7, 17, 120, 195, 186, 114, 195, 120, 3, 0.345892
159, 1, bw, catch, NA, 999, 999, 7, 18, 184, 131, 129, 126, 76, 119, 1, 0.553666
159, 1, bw, catch, NA, 999, 999, 7, 18, 184, 131, 129, 126, 76, 119, 3, 0.730779
159, 1, bw, attraction, a-b-db, 14, 3, 7, 19, 195, 120, 120, 195, 111, 181, 3, 0.771124
159, 1, bw, attraction, a-b-db, 14, 3, 7, 19, 195, 120, 120, 195, 111, 181, 2, 2.11555
159, 1, bw, attraction, a-b-db, 5, 1, 7, 20, 60, 135, 58, 132, 135, 60, 3, 0.900169
159, 1, bw, attraction, a-b-db, 5, 1, 7, 20, 60, 135, 58, 132, 135, 60, 1, 0.751215
159, 1, bw, filler, NA, 999, 999, 7, 21, 190, 136, 74, 161, 98, 125, 1, 0.854865
159, 1, bw, filler, NA, 999, 999, 7, 21, 190, 136, 74, 161, 98, 125, 2, 0.916011
159, 1, bw, attraction, a-b-da, 5, 2, 7, 22, 90, 165, 161, 88, 165, 90, 1, 1.50099
159, 1, bw, attraction, a-b-da, 5, 2, 7, 22, 90, 165, 161, 88, 165, 90, 2, 0.512032
159, 1, bw, filler, NA, 999, 999, 7, 23, 92, 156, 68, 97, 155, 74, 1, 0.984821
159, 1, bw, filler, NA, 999, 999, 7, 23, 92, 156, 68, 97, 155, 74, 2, 0.656571
159, 1, bw, filler, NA, 999, 999, 7, 24, 136, 57, 98, 85, 153, 194, 3, 0.627708
159, 1, bw, filler, NA, 999, 999, 7, 24, 136, 57, 98, 85, 153, 194, 2, 0.641366
159, 1, bw, attraction, a-b-db, 9, 3, 7, 25, 195, 120, 114, 186, 120, 195, 3, 1.26907
159, 1, bw, attraction, a-b-db, 9, 3, 7, 25, 195, 120, 114, 186, 120, 195, 2, 0.769435
159, 1, bw, attraction, a-b-da, 2, 2, 7, 26, 90, 165, 163, 89, 165, 90, 1, 2.75245
159, 1, bw, attraction, a-b-da, 2, 2, 7, 26, 90, 165, 163, 89, 165, 90, 2, 0.760955
159, 1, bw, attraction, a-b-db, 5, 2, 7, 27, 165, 90, 90, 165, 88, 161, 2, 2.03985
159, 1, bw, attraction, a-b-db, 5, 2, 7, 27, 165, 90, 90, 165, 88, 161, 3, 0.55663
159, 1, bw, catch, NA, 999, 999, 7, 28, 105, 90, 127, 128, 171, 144, 3, 0.764432
159, 1, bw, catch, NA, 999, 999, 7, 28, 105, 90, 127, 128, 171, 144, 1, 0.540648
159, 1, bw, attraction, a-b-da, 14, 3, 7, 29, 181, 111, 195, 120, 120, 195, 3, 7.57245
159, 1, bw, attraction, a-b-da, 14, 3, 7, 29, 181, 111, 195, 120, 120, 195, 2, 0.99484
159, 1, bw, filler, NA, 999, 999, 7, 30, 146, 168, 124, 129, 73, 194, 1, 20.1124
159, 1, bw, filler, NA, 999, 999, 7, 30, 146, 168, 124, 129, 73, 194, 2, 0.468842
159, 1, bw, filler, NA, 999, 999, 7, 31, 153, 135, 183, 71, 91, 165, 1, 1.63993
159, 1, bw, filler, NA, 999, 999, 7, 31, 153, 135, 183, 71, 91, 165, 2, 0.428614
159, 1, bw, attraction, a-b-db, 2, 1, 7, 32, 135, 60, 60, 135, 59, 134, 3, 0.849282
159, 1, bw, attraction, a-b-db, 2, 1, 7, 32, 135, 60, 60, 135, 59, 134, 2, 0.478287
159, 1, bw, attraction, a-b-da, 14, 1, 7, 33, 125, 56, 135, 60, 60, 135, 3, 1.0646
159, 1, bw, attraction, a-b-da, 14, 1, 7, 33, 125, 56, 135, 60, 60, 135, 1, 1.02092
159, 1, bw, filler, NA, 999, 999, 7, 34, 102, 127, 145, 64, 112, 117, 1, 0.753948
159, 1, bw, filler, NA, 999, 999, 7, 34, 102, 127, 145, 64, 112, 117, 2, 0.562987
159, 1, bw, attraction, a-b-db, 5, 3, 7, 35, 117, 190, 120, 195, 195, 120, 3, 0.778183
159, 1, bw, attraction, a-b-db, 5, 3, 7, 35, 117, 190, 120, 195, 195, 120, 2, 0.625789
159, 1, bw, attraction, a-b-da, 5, 1, 7, 36, 132, 58, 135, 60, 60, 135, 3, 0.806256
159, 1, bw, attraction, a-b-da, 5, 1, 7, 36, 132, 58, 135, 60, 60, 135, 2, 0.580565
159, 1, bw, catch, NA, 999, 999, 7, 37, 101, 154, 164, 151, 94, 101, 2, 1.31506
159, 1, bw, catch, NA, 999, 999, 7, 37, 101, 154, 164, 151, 94, 101, 3, 0.373252
159, 1, bw, attraction, a-b-db, 14, 1, 8, 1, 56, 125, 135, 60, 60, 135, 1, 0.931697
159, 1, bw, attraction, a-b-db, 14, 1, 8, 1, 56, 125, 135, 60, 60, 135, 3, 0.733526
159, 1, bw, attraction, a-b-db, 5, 1, 8, 2, 135, 60, 58, 132, 60, 135, 1, 1.80577
159, 1, bw, attraction, a-b-db, 5, 1, 8, 2, 135, 60, 58, 132, 60, 135, 2, 0.38799
159, 1, bw, attraction, a-b-da, 14, 2, 8, 3, 153, 83, 90, 165, 165, 90, 3, 1.41039
159, 1, bw, attraction, a-b-da, 14, 2, 8, 3, 153, 83, 90, 165, 165, 90, 2, 0.440588
159, 1, bw, catch, NA, 999, 999, 8, 4, 123, 132, 192, 123, 99, 96, 2, 1.36434
159, 1, bw, catch, NA, 999, 999, 8, 4, 123, 132, 192, 123, 99, 96, 3, 0.596574
159, 1, bw, filler, NA, 999, 999, 8, 5, 169, 57, 194, 186, 179, 114, 2, 1.26641
159, 1, bw, filler, NA, 999, 999, 8, 5, 169, 57, 194, 186, 179, 114, 1, 0.662632
159, 1, bw, filler, NA, 999, 999, 8, 6, 63, 160, 139, 82, 106, 107, 2, 1.52166
159, 1, bw, filler, NA, 999, 999, 8, 6, 63, 160, 139, 82, 106, 107, 1, 1.06795
159, 1, bw, attraction, a-b-db, 9, 2, 8, 7, 86, 157, 165, 90, 90, 165, 3, 0.806778
159, 1, bw, attraction, a-b-db, 9, 2, 8, 7, 86, 157, 165, 90, 90, 165, 2, 0.413303
159, 1, bw, catch, NA, 999, 999, 8, 8, 123, 192, 90, 105, 130, 125, 1, 0.826338
159, 1, bw, catch, NA, 999, 999, 8, 8, 123, 192, 90, 105, 130, 125, 2, 0.552052
159, 1, bw, attraction, a-b-da, 5, 2, 8, 9, 90, 165, 161, 88, 165, 90, 3, 0.743829
159, 1, bw, attraction, a-b-da, 5, 2, 8, 9, 90, 165, 161, 88, 165, 90, 2, 0.353121
159, 1, bw, filler, NA, 999, 999, 8, 10, 115, 138, 92, 61, 187, 103, 3, 1.39269
159, 1, bw, filler, NA, 999, 999, 8, 10, 115, 138, 92, 61, 187, 103, 2, 0.375615
159, 1, bw, attraction, a-b-da, 2, 3, 8, 11, 120, 195, 195, 120, 193, 119, 2, 1.15807
159, 1, bw, attraction, a-b-da, 2, 3, 8, 11, 120, 195, 195, 120, 193, 119, 1, 0.526443
159, 1, bw, attraction, a-b-db, 2, 1, 8, 12, 59, 134, 135, 60, 60, 135, 3, 0.85478
159, 1, bw, attraction, a-b-db, 2, 1, 8, 12, 59, 134, 135, 60, 60, 135, 2, 0.587811
159, 1, bw, attraction, a-b-da, 5, 3, 8, 13, 195, 120, 120, 195, 190, 117, 2, 0.866232
159, 1, bw, attraction, a-b-da, 5, 3, 8, 13, 195, 120, 120, 195, 190, 117, 1, 0.478623
159, 1, bw, filler, NA, 999, 999, 8, 14, 59, 131, 98, 165, 162, 127, 3, 0.529015
159, 1, bw, filler, NA, 999, 999, 8, 14, 59, 131, 98, 165, 162, 127, 1, 0.762848
159, 1, bw, filler, NA, 999, 999, 8, 15, 176, 160, 166, 58, 65, 123, 1, 2.47383
159, 1, bw, filler, NA, 999, 999, 8, 15, 176, 160, 166, 58, 65, 123, 3, 0.461153
159, 1, bw, attraction, a-b-da, 14, 1, 8, 16, 125, 56, 60, 135, 135, 60, 2, 0.808268
159, 1, bw, attraction, a-b-da, 14, 1, 8, 16, 125, 56, 60, 135, 135, 60, 3, 0.59862
159, 1, bw, attraction, a-b-db, 14, 3, 8, 17, 120, 195, 111, 181, 195, 120, 1, 0.548494
159, 1, bw, attraction, a-b-db, 14, 3, 8, 17, 120, 195, 111, 181, 195, 120, 3, 0.525672
159, 1, bw, attraction, a-b-db, 5, 3, 8, 18, 195, 120, 117, 190, 120, 195, 3, 0.65399
159, 1, bw, attraction, a-b-db, 5, 3, 8, 18, 195, 120, 117, 190, 120, 195, 2, 0.299109
159, 1, bw, attraction, a-b-da, 9, 3, 8, 19, 120, 195, 186, 114, 195, 120, 2, 0.75692
159, 1, bw, attraction, a-b-da, 9, 3, 8, 19, 120, 195, 186, 114, 195, 120, 3, 0.333333
159, 1, bw, attraction, a-b-db, 9, 1, 8, 20, 135, 60, 57, 129, 60, 135, 3, 1.21395
159, 1, bw, attraction, a-b-db, 9, 1, 8, 20, 135, 60, 57, 129, 60, 135, 1, 0.444072
159, 1, bw, attraction, a-b-da, 5, 1, 8, 21, 135, 60, 132, 58, 60, 135, 3, 0.743924
159, 1, bw, attraction, a-b-da, 5, 1, 8, 21, 135, 60, 132, 58, 60, 135, 1, 0.792926
159, 1, bw, filler, NA, 999, 999, 8, 22, 71, 67, 119, 115, 153, 67, 2, 0.398586
159, 1, bw, filler, NA, 999, 999, 8, 22, 71, 67, 119, 115, 153, 67, 1, 0.541987
159, 1, bw, attraction, a-b-db, 9, 3, 8, 23, 120, 195, 114, 186, 195, 120, 1, 0.71755
159, 1, bw, attraction, a-b-db, 9, 3, 8, 23, 120, 195, 114, 186, 195, 120, 3, 0.392219
159, 1, bw, catch, NA, 999, 999, 8, 24, 193, 122, 116, 79, 155, 100, 1, 0.573789
159, 1, bw, catch, NA, 999, 999, 8, 24, 193, 122, 116, 79, 155, 100, 2, 0.325587
159, 1, bw, attraction, a-b-da, 2, 1, 8, 25, 135, 60, 60, 135, 134, 59, 2, 0.790177
159, 1, bw, attraction, a-b-da, 2, 1, 8, 25, 135, 60, 60, 135, 134, 59, 1, 0.389185
159, 1, bw, filler, NA, 999, 999, 8, 26, 67, 181, 118, 67, 85, 67, 1, 0.6037
159, 1, bw, filler, NA, 999, 999, 8, 26, 67, 181, 118, 67, 85, 67, 3, 0.538804
159, 1, bw, filler, NA, 999, 999, 8, 27, 70, 167, 122, 127, 142, 159, 3, 0.723199
159, 1, bw, filler, NA, 999, 999, 8, 27, 70, 167, 122, 127, 142, 159, 1, 0.428954
159, 1, bw, attraction, a-b-db, 2, 3, 8, 28, 119, 193, 195, 120, 120, 195, 2, 0.873589
159, 1, bw, attraction, a-b-db, 2, 3, 8, 28, 119, 193, 195, 120, 120, 195, 3, 0.285235
159, 1, bw, attraction, a-b-db, 14, 2, 8, 29, 83, 153, 165, 90, 90, 165, 3, 1.0317
159, 1, bw, attraction, a-b-db, 14, 2, 8, 29, 83, 153, 165, 90, 90, 165, 2, 0.269293
159, 1, bw, attraction, a-b-da, 2, 2, 8, 30, 165, 90, 163, 89, 90, 165, 1, 0.568562
159, 1, bw, attraction, a-b-da, 2, 2, 8, 30, 165, 90, 163, 89, 90, 165, 2, 0.313072
159, 1, bw, attraction, a-b-da, 9, 2, 8, 31, 90, 165, 157, 86, 165, 90, 1, 0.514249
159, 1, bw, attraction, a-b-da, 9, 2, 8, 31, 90, 165, 157, 86, 165, 90, 3, 0.740733
159, 1, bw, attraction, a-b-db, 5, 2, 8, 32, 165, 90, 90, 165, 88, 161, 1, 0.644367
159, 1, bw, attraction, a-b-db, 5, 2, 8, 32, 165, 90, 90, 165, 88, 161, 2, 0.305416
159, 1, bw, attraction, a-b-db, 2, 2, 8, 33, 165, 90, 90, 165, 89, 163, 2, 0.539258
159, 1, bw, attraction, a-b-db, 2, 2, 8, 33, 165, 90, 90, 165, 89, 163, 1, 0.396458
159, 1, bw, attraction, a-b-da, 14, 3, 8, 34, 195, 120, 181, 111, 120, 195, 1, 0.57036
159, 1, bw, attraction, a-b-da, 14, 3, 8, 34, 195, 120, 181, 111, 120, 195, 2, 0.314737
159, 1, bw, attraction, a-b-da, 9, 1, 8, 35, 60, 135, 135, 60, 129, 57, 1, 0.803924
159, 1, bw, attraction, a-b-da, 9, 1, 8, 35, 60, 135, 135, 60, 129, 57, 3, 0.818982
159, 1, bw, filler, NA, 999, 999, 8, 36, 101, 91, 168, 61, 109, 137, 1, 0.632067
159, 1, bw, filler, NA, 999, 999, 8, 36, 101, 91, 168, 61, 109, 137, 2, 0.597897
159, 1, bw, filler, NA, 999, 999, 8, 37, 168, 170, 161, 61, 102, 89, 1, 0.643481
159, 1, bw, filler, NA, 999, 999, 8, 37, 168, 170, 161, 61, 102, 89, 3, 0.952702
