sub_n, computer_n, bw_cond, effect, set, distance, diag, block_n, trial_n, h1, w1, h2, w2, h3, w3, choice, rt 
17, 1, bw, practice, NA, 999, 999, 0, 1, 147, 184, 192, 88, 158, 87, 1, 3.01152
17, 1, bw, practice, NA, 999, 999, 0, 1, 147, 184, 192, 88, 158, 87, 3, 3.0507
17, 1, bw, practice, NA, 999, 999, 0, 2, 94, 96, 165, 116, 66, 64, 2, 2.1394
17, 1, bw, practice, NA, 999, 999, 0, 2, 94, 96, 165, 116, 66, 64, 3, 2.43586
17, 1, bw, practice, NA, 999, 999, 0, 3, 102, 142, 171, 128, 67, 174, 2, 2.37416
17, 1, bw, practice, NA, 999, 999, 0, 3, 102, 142, 171, 128, 67, 174, 1, 4.10787
17, 1, bw, attraction, a-b-db, 5, 1, 1, 1, 60, 135, 58, 132, 135, 60, 3, 13.9357
17, 1, bw, attraction, a-b-db, 5, 1, 1, 1, 60, 135, 58, 132, 135, 60, 2, 2.63651
17, 1, bw, attraction, a-b-db, 9, 1, 1, 2, 60, 135, 57, 129, 135, 60, 1, 5.42311
17, 1, bw, attraction, a-b-db, 9, 1, 1, 2, 60, 135, 57, 129, 135, 60, 2, 2.7813
17, 1, bw, attraction, a-b-da, 9, 3, 1, 3, 186, 114, 120, 195, 195, 120, 2, 6.60312
17, 1, bw, attraction, a-b-da, 9, 3, 1, 3, 186, 114, 120, 195, 195, 120, 1, 6.51282
17, 1, bw, attraction, a-b-da, 2, 3, 1, 4, 193, 119, 120, 195, 195, 120, 3, 13.1767
17, 1, bw, attraction, a-b-da, 2, 3, 1, 4, 193, 119, 120, 195, 195, 120, 1, 2.38793
17, 1, bw, catch, NA, 999, 999, 1, 5, 160, 155, 99, 156, 110, 85, 1, 1.92335
17, 1, bw, catch, NA, 999, 999, 1, 5, 160, 155, 99, 156, 110, 85, 3, 1.80478
17, 1, bw, catch, NA, 999, 999, 1, 6, 156, 99, 129, 66, 155, 160, 3, 2.16313
17, 1, bw, catch, NA, 999, 999, 1, 6, 156, 99, 129, 66, 155, 160, 2, 6.94083
17, 1, bw, attraction, a-b-db, 5, 2, 1, 7, 90, 165, 88, 161, 165, 90, 3, 8.70615
17, 1, bw, attraction, a-b-db, 5, 2, 1, 7, 90, 165, 88, 161, 165, 90, 2, 3.61628
17, 1, bw, attraction, a-b-da, 14, 2, 1, 8, 90, 165, 153, 83, 165, 90, 1, 2.22127
17, 1, bw, attraction, a-b-da, 14, 2, 1, 8, 90, 165, 153, 83, 165, 90, 2, 3.26062
17, 1, bw, filler, NA, 999, 999, 1, 9, 192, 69, 78, 81, 102, 190, 3, 3.52673
17, 1, bw, filler, NA, 999, 999, 1, 9, 192, 69, 78, 81, 102, 190, 2, 1.5345
17, 1, bw, attraction, a-b-db, 5, 3, 1, 10, 195, 120, 120, 195, 117, 190, 1, 8.12146
17, 1, bw, attraction, a-b-db, 5, 3, 1, 10, 195, 120, 120, 195, 117, 190, 2, 4.40165
17, 1, bw, catch, NA, 999, 999, 1, 11, 189, 126, 99, 156, 108, 87, 1, 1.88695
17, 1, bw, catch, NA, 999, 999, 1, 11, 189, 126, 99, 156, 108, 87, 3, 1.58473
17, 1, bw, attraction, a-b-da, 2, 1, 1, 12, 135, 60, 60, 135, 134, 59, 1, 2.66225
17, 1, bw, attraction, a-b-da, 2, 1, 1, 12, 135, 60, 60, 135, 134, 59, 2, 1.33843
17, 1, bw, attraction, a-b-da, 9, 1, 1, 13, 129, 57, 60, 135, 135, 60, 3, 2.89858
17, 1, bw, attraction, a-b-da, 9, 1, 1, 13, 129, 57, 60, 135, 135, 60, 1, 1.72404
17, 1, bw, attraction, a-b-da, 14, 3, 1, 14, 195, 120, 120, 195, 181, 111, 1, 2.38232
17, 1, bw, attraction, a-b-da, 14, 3, 1, 14, 195, 120, 120, 195, 181, 111, 3, 1.56337
17, 1, bw, filler, NA, 999, 999, 1, 15, 170, 141, 124, 145, 134, 108, 1, 1.44324
17, 1, bw, filler, NA, 999, 999, 1, 15, 170, 141, 124, 145, 134, 108, 3, 1.69731
17, 1, bw, attraction, a-b-db, 14, 2, 1, 16, 90, 165, 165, 90, 83, 153, 1, 3.35552
17, 1, bw, attraction, a-b-db, 14, 2, 1, 16, 90, 165, 165, 90, 83, 153, 3, 0.978963
17, 1, bw, filler, NA, 999, 999, 1, 17, 170, 192, 134, 133, 63, 168, 1, 1.23613
17, 1, bw, filler, NA, 999, 999, 1, 17, 170, 192, 134, 133, 63, 168, 3, 1.61549
17, 1, bw, filler, NA, 999, 999, 1, 18, 64, 178, 192, 105, 193, 66, 2, 2.51057
17, 1, bw, filler, NA, 999, 999, 1, 18, 64, 178, 192, 105, 193, 66, 3, 1.6378
17, 1, bw, attraction, a-b-db, 2, 2, 1, 19, 165, 90, 89, 163, 90, 165, 3, 6.29875
17, 1, bw, attraction, a-b-db, 2, 2, 1, 19, 165, 90, 89, 163, 90, 165, 2, 1.89112
17, 1, bw, filler, NA, 999, 999, 1, 20, 185, 132, 151, 68, 85, 61, 1, 1.76815
17, 1, bw, filler, NA, 999, 999, 1, 20, 185, 132, 151, 68, 85, 61, 3, 1.50301
17, 1, bw, attraction, a-b-da, 5, 1, 1, 21, 60, 135, 135, 60, 132, 58, 1, 6.31238
17, 1, bw, attraction, a-b-da, 5, 1, 1, 21, 60, 135, 135, 60, 132, 58, 3, 2.47277
17, 1, bw, attraction, a-b-db, 9, 2, 1, 22, 86, 157, 165, 90, 90, 165, 3, 3.06543
17, 1, bw, attraction, a-b-db, 9, 2, 1, 22, 86, 157, 165, 90, 90, 165, 2, 1.26476
17, 1, bw, attraction, a-b-da, 2, 2, 1, 23, 163, 89, 90, 165, 165, 90, 1, 3.01897
17, 1, bw, attraction, a-b-da, 2, 2, 1, 23, 163, 89, 90, 165, 165, 90, 2, 3.13449
17, 1, bw, filler, NA, 999, 999, 1, 24, 143, 128, 145, 56, 149, 111, 1, 1.63992
17, 1, bw, filler, NA, 999, 999, 1, 24, 143, 128, 145, 56, 149, 111, 2, 1.25435
17, 1, bw, attraction, a-b-da, 14, 1, 1, 25, 135, 60, 125, 56, 60, 135, 3, 7.12857
17, 1, bw, attraction, a-b-da, 14, 1, 1, 25, 135, 60, 125, 56, 60, 135, 2, 1.39163
17, 1, bw, attraction, a-b-da, 5, 3, 1, 26, 190, 117, 120, 195, 195, 120, 2, 15.335
17, 1, bw, attraction, a-b-da, 5, 3, 1, 26, 190, 117, 120, 195, 195, 120, 1, 1.19689
17, 1, bw, attraction, a-b-db, 2, 3, 1, 27, 120, 195, 195, 120, 119, 193, 2, 9.56219
17, 1, bw, attraction, a-b-db, 2, 3, 1, 27, 120, 195, 195, 120, 119, 193, 3, 1.80858
17, 1, bw, filler, NA, 999, 999, 1, 28, 193, 85, 70, 92, 122, 79, 1, 2.09438
17, 1, bw, filler, NA, 999, 999, 1, 28, 193, 85, 70, 92, 122, 79, 2, 1.15519
17, 1, bw, attraction, a-b-da, 5, 2, 1, 29, 161, 88, 90, 165, 165, 90, 2, 19.9537
17, 1, bw, attraction, a-b-da, 5, 2, 1, 29, 161, 88, 90, 165, 165, 90, 1, 1.45019
17, 1, bw, attraction, a-b-db, 14, 1, 1, 30, 135, 60, 60, 135, 56, 125, 2, 5.65676
17, 1, bw, attraction, a-b-db, 14, 1, 1, 30, 135, 60, 60, 135, 56, 125, 3, 3.03634
17, 1, bw, attraction, a-b-db, 14, 3, 1, 31, 120, 195, 195, 120, 111, 181, 2, 3.63862
17, 1, bw, attraction, a-b-db, 14, 3, 1, 31, 120, 195, 195, 120, 111, 181, 3, 1.05042
17, 1, bw, attraction, a-b-da, 9, 2, 1, 32, 165, 90, 157, 86, 90, 165, 1, 5.10264
17, 1, bw, attraction, a-b-da, 9, 2, 1, 32, 165, 90, 157, 86, 90, 165, 2, 1.01636
17, 1, bw, attraction, a-b-db, 2, 1, 1, 33, 60, 135, 59, 134, 135, 60, 3, 7.52768
17, 1, bw, attraction, a-b-db, 2, 1, 1, 33, 60, 135, 59, 134, 135, 60, 2, 0.981409
17, 1, bw, attraction, a-b-db, 9, 3, 1, 34, 114, 186, 120, 195, 195, 120, 3, 8.38761
17, 1, bw, attraction, a-b-db, 9, 3, 1, 34, 114, 186, 120, 195, 195, 120, 1, 1.4799
17, 1, bw, filler, NA, 999, 999, 1, 35, 61, 143, 189, 155, 105, 107, 2, 1.64641
17, 1, bw, filler, NA, 999, 999, 1, 35, 61, 143, 189, 155, 105, 107, 1, 5.74611
17, 1, bw, filler, NA, 999, 999, 1, 36, 174, 161, 87, 73, 107, 79, 1, 1.56803
17, 1, bw, filler, NA, 999, 999, 1, 36, 174, 161, 87, 73, 107, 79, 2, 1.13722
17, 1, bw, filler, NA, 999, 999, 1, 37, 111, 80, 101, 140, 154, 181, 3, 6.07194
17, 1, bw, filler, NA, 999, 999, 1, 37, 111, 80, 101, 140, 154, 181, 1, 1.53914
17, 1, bw, attraction, a-b-da, 5, 2, 2, 1, 161, 88, 90, 165, 165, 90, 2, 3.42649
17, 1, bw, attraction, a-b-da, 5, 2, 2, 1, 161, 88, 90, 165, 165, 90, 3, 0.870943
17, 1, bw, attraction, a-b-da, 5, 1, 2, 2, 132, 58, 60, 135, 135, 60, 3, 2.77021
17, 1, bw, attraction, a-b-da, 5, 1, 2, 2, 132, 58, 60, 135, 135, 60, 2, 2.80357
17, 1, bw, attraction, a-b-db, 9, 1, 2, 3, 57, 129, 60, 135, 135, 60, 3, 3.79086
17, 1, bw, attraction, a-b-db, 9, 1, 2, 3, 57, 129, 60, 135, 135, 60, 2, 1.83135
17, 1, bw, attraction, a-b-db, 14, 2, 2, 4, 83, 153, 90, 165, 165, 90, 3, 3.8609
17, 1, bw, attraction, a-b-db, 14, 2, 2, 4, 83, 153, 90, 165, 165, 90, 1, 3.1996
17, 1, bw, attraction, a-b-da, 9, 3, 2, 5, 186, 114, 195, 120, 120, 195, 3, 10.8032
17, 1, bw, attraction, a-b-da, 9, 3, 2, 5, 186, 114, 195, 120, 120, 195, 1, 1.47086
17, 1, bw, attraction, a-b-db, 9, 2, 2, 6, 90, 165, 86, 157, 165, 90, 1, 11.1057
17, 1, bw, attraction, a-b-db, 9, 2, 2, 6, 90, 165, 86, 157, 165, 90, 2, 1.05158
17, 1, bw, filler, NA, 999, 999, 2, 7, 177, 143, 108, 179, 183, 123, 1, 1.63952
17, 1, bw, filler, NA, 999, 999, 2, 7, 177, 143, 108, 179, 183, 123, 2, 1.13132
17, 1, bw, filler, NA, 999, 999, 2, 8, 74, 138, 115, 173, 186, 107, 2, 5.57303
17, 1, bw, filler, NA, 999, 999, 2, 8, 74, 138, 115, 173, 186, 107, 1, 0.851804
17, 1, bw, filler, NA, 999, 999, 2, 9, 133, 119, 97, 168, 167, 163, 3, 1.2798
17, 1, bw, filler, NA, 999, 999, 2, 9, 133, 119, 97, 168, 167, 163, 2, 5.0684
17, 1, bw, attraction, a-b-db, 2, 3, 2, 10, 120, 195, 119, 193, 195, 120, 1, 3.81278
17, 1, bw, attraction, a-b-db, 2, 3, 2, 10, 120, 195, 119, 193, 195, 120, 2, 3.27594
17, 1, bw, attraction, a-b-da, 9, 1, 2, 11, 60, 135, 129, 57, 135, 60, 3, 4.98997
17, 1, bw, attraction, a-b-da, 9, 1, 2, 11, 60, 135, 129, 57, 135, 60, 2, 1.22659
17, 1, bw, attraction, a-b-da, 14, 3, 2, 12, 181, 111, 120, 195, 195, 120, 2, 12.1199
17, 1, bw, attraction, a-b-da, 14, 3, 2, 12, 181, 111, 120, 195, 195, 120, 1, 1.16742
17, 1, bw, filler, NA, 999, 999, 2, 13, 160, 98, 87, 186, 145, 183, 3, 2.18853
17, 1, bw, filler, NA, 999, 999, 2, 13, 160, 98, 87, 186, 145, 183, 1, 1.63615
17, 1, bw, attraction, a-b-da, 14, 1, 2, 14, 60, 135, 135, 60, 125, 56, 1, 3.89763
17, 1, bw, attraction, a-b-da, 14, 1, 2, 14, 60, 135, 135, 60, 125, 56, 3, 1.0603
17, 1, bw, catch, NA, 999, 999, 2, 15, 70, 125, 190, 125, 128, 127, 2, 1.78272
17, 1, bw, catch, NA, 999, 999, 2, 15, 70, 125, 190, 125, 128, 127, 1, 1.18037
17, 1, bw, attraction, a-b-da, 9, 2, 2, 16, 165, 90, 157, 86, 90, 165, 3, 3.24677
17, 1, bw, attraction, a-b-da, 9, 2, 2, 16, 165, 90, 157, 86, 90, 165, 1, 1.57081
17, 1, bw, attraction, a-b-db, 5, 2, 2, 17, 90, 165, 165, 90, 88, 161, 1, 4.232
17, 1, bw, attraction, a-b-db, 5, 2, 2, 17, 90, 165, 165, 90, 88, 161, 3, 0.964543
17, 1, bw, attraction, a-b-db, 5, 3, 2, 18, 195, 120, 120, 195, 117, 190, 1, 2.63635
17, 1, bw, attraction, a-b-db, 5, 3, 2, 18, 195, 120, 120, 195, 117, 190, 2, 0.792192
17, 1, bw, catch, NA, 999, 999, 2, 19, 183, 132, 78, 117, 136, 119, 1, 1.87147
17, 1, bw, catch, NA, 999, 999, 2, 19, 183, 132, 78, 117, 136, 119, 2, 0.732127
17, 1, bw, filler, NA, 999, 999, 2, 20, 186, 89, 100, 153, 92, 72, 3, 2.49332
17, 1, bw, filler, NA, 999, 999, 2, 20, 186, 89, 100, 153, 92, 72, 1, 12.4632
17, 1, bw, attraction, a-b-db, 2, 1, 2, 21, 59, 134, 60, 135, 135, 60, 3, 11.2886
17, 1, bw, attraction, a-b-db, 2, 1, 2, 21, 59, 134, 60, 135, 135, 60, 2, 1.25813
17, 1, bw, attraction, a-b-da, 2, 3, 2, 22, 120, 195, 195, 120, 193, 119, 2, 5.88335
17, 1, bw, attraction, a-b-da, 2, 3, 2, 22, 120, 195, 195, 120, 193, 119, 1, 0.908979
17, 1, bw, filler, NA, 999, 999, 2, 23, 181, 64, 131, 61, 70, 116, 1, 3.29632
17, 1, bw, filler, NA, 999, 999, 2, 23, 181, 64, 131, 61, 70, 116, 2, 5.21586
17, 1, bw, attraction, a-b-da, 14, 2, 2, 24, 90, 165, 153, 83, 165, 90, 1, 32.9017
17, 1, bw, attraction, a-b-da, 14, 2, 2, 24, 90, 165, 153, 83, 165, 90, 2, 0.798573
17, 1, bw, attraction, a-b-db, 2, 2, 2, 25, 165, 90, 89, 163, 90, 165, 1, 2.26062
17, 1, bw, attraction, a-b-db, 2, 2, 2, 25, 165, 90, 89, 163, 90, 165, 2, 0.619025
17, 1, bw, filler, NA, 999, 999, 2, 26, 193, 164, 118, 90, 91, 181, 1, 1.65516
17, 1, bw, filler, NA, 999, 999, 2, 26, 193, 164, 118, 90, 91, 181, 2, 2.55381
17, 1, bw, attraction, a-b-db, 14, 3, 2, 27, 111, 181, 195, 120, 120, 195, 2, 3.41131
17, 1, bw, attraction, a-b-db, 14, 3, 2, 27, 111, 181, 195, 120, 120, 195, 1, 3.2889
17, 1, bw, filler, NA, 999, 999, 2, 28, 178, 158, 161, 79, 67, 121, 1, 1.34564
17, 1, bw, filler, NA, 999, 999, 2, 28, 178, 158, 161, 79, 67, 121, 3, 0.866125
17, 1, bw, attraction, a-b-da, 5, 3, 2, 29, 120, 195, 195, 120, 190, 117, 1, 3.10209
17, 1, bw, attraction, a-b-da, 5, 3, 2, 29, 120, 195, 195, 120, 190, 117, 3, 4.96049
17, 1, bw, attraction, a-b-db, 5, 1, 2, 30, 135, 60, 60, 135, 58, 132, 1, 3.69282
17, 1, bw, attraction, a-b-db, 5, 1, 2, 30, 135, 60, 60, 135, 58, 132, 3, 0.857046
17, 1, bw, attraction, a-b-db, 14, 1, 2, 31, 56, 125, 135, 60, 60, 135, 3, 10.0744
17, 1, bw, attraction, a-b-db, 14, 1, 2, 31, 56, 125, 135, 60, 60, 135, 1, 1.41564
17, 1, bw, attraction, a-b-da, 2, 1, 2, 32, 60, 135, 135, 60, 134, 59, 1, 23.6265
17, 1, bw, attraction, a-b-da, 2, 1, 2, 32, 60, 135, 135, 60, 134, 59, 2, 1.37788
17, 1, bw, catch, NA, 999, 999, 2, 33, 191, 124, 106, 89, 131, 124, 1, 1.24851
17, 1, bw, catch, NA, 999, 999, 2, 33, 191, 124, 106, 89, 131, 124, 2, 0.750077
17, 1, bw, attraction, a-b-db, 9, 3, 2, 34, 195, 120, 120, 195, 114, 186, 1, 2.1808
17, 1, bw, attraction, a-b-db, 9, 3, 2, 34, 195, 120, 120, 195, 114, 186, 3, 1.0126
17, 1, bw, filler, NA, 999, 999, 2, 35, 170, 174, 60, 191, 74, 181, 1, 1.39326
17, 1, bw, filler, NA, 999, 999, 2, 35, 170, 174, 60, 191, 74, 181, 2, 1.08447
17, 1, bw, filler, NA, 999, 999, 2, 36, 82, 72, 111, 76, 164, 184, 3, 1.25977
17, 1, bw, filler, NA, 999, 999, 2, 36, 82, 72, 111, 76, 164, 184, 1, 1.03429
17, 1, bw, attraction, a-b-da, 2, 2, 2, 37, 163, 89, 165, 90, 90, 165, 3, 4.91816
17, 1, bw, attraction, a-b-da, 2, 2, 2, 37, 163, 89, 165, 90, 90, 165, 2, 0.840474
17, 1, bw, attraction, a-b-da, 5, 3, 3, 1, 120, 195, 190, 117, 195, 120, 1, 3.31737
17, 1, bw, attraction, a-b-da, 5, 3, 3, 1, 120, 195, 190, 117, 195, 120, 2, 0.908925
17, 1, bw, filler, NA, 999, 999, 3, 2, 115, 162, 77, 89, 155, 107, 1, 2.45588
17, 1, bw, filler, NA, 999, 999, 3, 2, 115, 162, 77, 89, 155, 107, 2, 0.722028
17, 1, bw, attraction, a-b-db, 2, 3, 3, 3, 195, 120, 120, 195, 119, 193, 1, 4.84221
17, 1, bw, attraction, a-b-db, 2, 3, 3, 3, 195, 120, 120, 195, 119, 193, 3, 0.873256
17, 1, bw, attraction, a-b-da, 2, 1, 3, 4, 135, 60, 60, 135, 134, 59, 3, 6.09225
17, 1, bw, attraction, a-b-da, 2, 1, 3, 4, 135, 60, 60, 135, 134, 59, 2, 5.79829
17, 1, bw, filler, NA, 999, 999, 3, 5, 103, 101, 149, 76, 123, 113, 3, 2.3696
17, 1, bw, filler, NA, 999, 999, 3, 5, 103, 101, 149, 76, 123, 113, 2, 3.11409
17, 1, bw, attraction, a-b-db, 14, 1, 3, 6, 135, 60, 60, 135, 56, 125, 2, 2.44272
17, 1, bw, attraction, a-b-db, 14, 1, 3, 6, 135, 60, 60, 135, 56, 125, 3, 0.77756
17, 1, bw, filler, NA, 999, 999, 3, 7, 122, 149, 192, 122, 145, 174, 3, 2.7523
17, 1, bw, filler, NA, 999, 999, 3, 7, 122, 149, 192, 122, 145, 174, 1, 0.760035
17, 1, bw, attraction, a-b-db, 9, 3, 3, 8, 195, 120, 114, 186, 120, 195, 1, 2.43269
17, 1, bw, attraction, a-b-db, 9, 3, 3, 8, 195, 120, 114, 186, 120, 195, 2, 2.78185
17, 1, bw, attraction, a-b-db, 5, 3, 3, 9, 195, 120, 117, 190, 120, 195, 1, 4.23467
17, 1, bw, attraction, a-b-db, 5, 3, 3, 9, 195, 120, 117, 190, 120, 195, 2, 0.591022
17, 1, bw, attraction, a-b-da, 14, 3, 3, 10, 120, 195, 181, 111, 195, 120, 3, 4.55679
17, 1, bw, attraction, a-b-da, 14, 3, 3, 10, 120, 195, 181, 111, 195, 120, 2, 0.924295
17, 1, bw, attraction, a-b-da, 5, 1, 3, 11, 135, 60, 60, 135, 132, 58, 1, 2.27801
17, 1, bw, attraction, a-b-da, 5, 1, 3, 11, 135, 60, 60, 135, 132, 58, 2, 0.680635
17, 1, bw, attraction, a-b-da, 5, 2, 3, 12, 165, 90, 161, 88, 90, 165, 3, 5.39716
17, 1, bw, attraction, a-b-da, 5, 2, 3, 12, 165, 90, 161, 88, 90, 165, 2, 0.874548
17, 1, bw, attraction, a-b-db, 2, 1, 3, 13, 60, 135, 135, 60, 59, 134, 2, 3.75015
17, 1, bw, attraction, a-b-db, 2, 1, 3, 13, 60, 135, 135, 60, 59, 134, 3, 0.821278
17, 1, bw, filler, NA, 999, 999, 3, 14, 84, 146, 75, 86, 70, 116, 1, 1.30826
17, 1, bw, filler, NA, 999, 999, 3, 14, 84, 146, 75, 86, 70, 116, 2, 0.781996
17, 1, bw, catch, NA, 999, 999, 3, 15, 65, 130, 110, 145, 172, 143, 3, 1.26772
17, 1, bw, catch, NA, 999, 999, 3, 15, 65, 130, 110, 145, 172, 143, 1, 1.0162
17, 1, bw, attraction, a-b-db, 14, 3, 3, 16, 195, 120, 111, 181, 120, 195, 3, 3.299
17, 1, bw, attraction, a-b-db, 14, 3, 3, 16, 195, 120, 111, 181, 120, 195, 2, 1.06982
17, 1, bw, attraction, a-b-db, 9, 2, 3, 17, 165, 90, 90, 165, 86, 157, 2, 15.7384
17, 1, bw, attraction, a-b-db, 9, 2, 3, 17, 165, 90, 90, 165, 86, 157, 1, 1.05526
17, 1, bw, attraction, a-b-db, 2, 2, 3, 18, 90, 165, 165, 90, 89, 163, 1, 2.73791
17, 1, bw, attraction, a-b-db, 2, 2, 3, 18, 90, 165, 165, 90, 89, 163, 2, 1.95714
17, 1, bw, filler, NA, 999, 999, 3, 19, 112, 157, 116, 190, 89, 56, 2, 1.51507
17, 1, bw, filler, NA, 999, 999, 3, 19, 112, 157, 116, 190, 89, 56, 3, 0.749945
17, 1, bw, attraction, a-b-da, 14, 1, 3, 20, 60, 135, 135, 60, 125, 56, 2, 2.27564
17, 1, bw, attraction, a-b-da, 14, 1, 3, 20, 60, 135, 135, 60, 125, 56, 3, 0.978112
17, 1, bw, filler, NA, 999, 999, 3, 21, 118, 102, 65, 159, 146, 151, 3, 1.25045
17, 1, bw, filler, NA, 999, 999, 3, 21, 118, 102, 65, 159, 146, 151, 2, 0.781259
17, 1, bw, attraction, a-b-da, 2, 2, 3, 22, 165, 90, 90, 165, 163, 89, 3, 2.75536
17, 1, bw, attraction, a-b-da, 2, 2, 3, 22, 165, 90, 90, 165, 163, 89, 2, 1.33966
17, 1, bw, attraction, a-b-da, 2, 3, 3, 23, 195, 120, 193, 119, 120, 195, 1, 2.53866
17, 1, bw, attraction, a-b-da, 2, 3, 3, 23, 195, 120, 193, 119, 120, 195, 2, 1.89276
17, 1, bw, filler, NA, 999, 999, 3, 24, 111, 82, 59, 191, 180, 193, 3, 1.18395
17, 1, bw, filler, NA, 999, 999, 3, 24, 111, 82, 59, 191, 180, 193, 1, 1.56546
17, 1, bw, attraction, a-b-da, 9, 1, 3, 25, 135, 60, 129, 57, 60, 135, 3, 2.09164
17, 1, bw, attraction, a-b-da, 9, 1, 3, 25, 135, 60, 129, 57, 60, 135, 2, 0.935811
17, 1, bw, attraction, a-b-da, 14, 2, 3, 26, 165, 90, 153, 83, 90, 165, 1, 1.96042
17, 1, bw, attraction, a-b-da, 14, 2, 3, 26, 165, 90, 153, 83, 90, 165, 2, 1.25925
17, 1, bw, filler, NA, 999, 999, 3, 27, 145, 91, 160, 58, 67, 164, 1, 6.18892
17, 1, bw, filler, NA, 999, 999, 3, 27, 145, 91, 160, 58, 67, 164, 2, 1.25824
17, 1, bw, attraction, a-b-db, 9, 1, 3, 28, 57, 129, 60, 135, 135, 60, 3, 8.57457
17, 1, bw, attraction, a-b-db, 9, 1, 3, 28, 57, 129, 60, 135, 135, 60, 1, 0.651708
17, 1, bw, attraction, a-b-db, 5, 2, 3, 29, 90, 165, 88, 161, 165, 90, 1, 2.59207
17, 1, bw, attraction, a-b-db, 5, 2, 3, 29, 90, 165, 88, 161, 165, 90, 2, 0.935254
17, 1, bw, attraction, a-b-db, 5, 1, 3, 30, 135, 60, 60, 135, 58, 132, 1, 1.85746
17, 1, bw, attraction, a-b-db, 5, 1, 3, 30, 135, 60, 60, 135, 58, 132, 2, 0.524033
17, 1, bw, catch, NA, 999, 999, 3, 31, 110, 85, 91, 164, 126, 189, 3, 1.37501
17, 1, bw, catch, NA, 999, 999, 3, 31, 110, 85, 91, 164, 126, 189, 1, 0.662529
17, 1, bw, catch, NA, 999, 999, 3, 32, 156, 159, 154, 101, 93, 102, 1, 1.28437
17, 1, bw, catch, NA, 999, 999, 3, 32, 156, 159, 154, 101, 93, 102, 3, 0.62208
17, 1, bw, attraction, a-b-da, 9, 2, 3, 33, 157, 86, 165, 90, 90, 165, 3, 1.9068
17, 1, bw, attraction, a-b-da, 9, 2, 3, 33, 157, 86, 165, 90, 90, 165, 1, 0.797497
17, 1, bw, attraction, a-b-da, 9, 3, 3, 34, 186, 114, 120, 195, 195, 120, 3, 1.97248
17, 1, bw, attraction, a-b-da, 9, 3, 3, 34, 186, 114, 120, 195, 195, 120, 2, 1.09127
17, 1, bw, filler, NA, 999, 999, 3, 35, 78, 185, 98, 68, 115, 151, 3, 1.59956
17, 1, bw, filler, NA, 999, 999, 3, 35, 78, 185, 98, 68, 115, 151, 2, 0.836904
17, 1, bw, attraction, a-b-db, 14, 2, 3, 36, 83, 153, 165, 90, 90, 165, 3, 1.97678
17, 1, bw, attraction, a-b-db, 14, 2, 3, 36, 83, 153, 165, 90, 90, 165, 1, 1.37026
17, 1, bw, filler, NA, 999, 999, 3, 37, 116, 70, 117, 64, 133, 118, 3, 1.17533
17, 1, bw, filler, NA, 999, 999, 3, 37, 116, 70, 117, 64, 133, 118, 1, 1.85654
17, 1, bw, filler, NA, 999, 999, 4, 1, 184, 117, 64, 179, 133, 139, 1, 2.33076
17, 1, bw, filler, NA, 999, 999, 4, 1, 184, 117, 64, 179, 133, 139, 2, 0.787791
17, 1, bw, attraction, a-b-db, 9, 1, 4, 2, 135, 60, 60, 135, 57, 129, 2, 4.97915
17, 1, bw, attraction, a-b-db, 9, 1, 4, 2, 135, 60, 60, 135, 57, 129, 3, 0.794988
17, 1, bw, filler, NA, 999, 999, 4, 3, 113, 71, 76, 107, 170, 153, 3, 1.24966
17, 1, bw, filler, NA, 999, 999, 4, 3, 113, 71, 76, 107, 170, 153, 2, 1.37339
17, 1, bw, attraction, a-b-db, 2, 1, 4, 4, 59, 134, 135, 60, 60, 135, 2, 4.90014
17, 1, bw, attraction, a-b-db, 2, 1, 4, 4, 59, 134, 135, 60, 60, 135, 1, 1.20583
17, 1, bw, attraction, a-b-da, 5, 2, 4, 5, 165, 90, 90, 165, 161, 88, 1, 3.83465
17, 1, bw, attraction, a-b-da, 5, 2, 4, 5, 165, 90, 90, 165, 161, 88, 3, 0.720204
17, 1, bw, filler, NA, 999, 999, 4, 6, 177, 172, 88, 161, 132, 170, 1, 1.33643
17, 1, bw, filler, NA, 999, 999, 4, 6, 177, 172, 88, 161, 132, 170, 2, 0.652137
17, 1, bw, attraction, a-b-db, 9, 3, 4, 7, 114, 186, 120, 195, 195, 120, 2, 2.31167
17, 1, bw, attraction, a-b-db, 9, 3, 4, 7, 114, 186, 120, 195, 195, 120, 1, 4.37477
17, 1, bw, filler, NA, 999, 999, 4, 8, 177, 150, 177, 59, 151, 176, 1, 2.02949
17, 1, bw, filler, NA, 999, 999, 4, 8, 177, 150, 177, 59, 151, 176, 2, 1.94588
17, 1, bw, attraction, a-b-da, 5, 1, 4, 9, 135, 60, 60, 135, 132, 58, 1, 2.94009
17, 1, bw, attraction, a-b-da, 5, 1, 4, 9, 135, 60, 60, 135, 132, 58, 3, 1.8121
17, 1, bw, catch, NA, 999, 999, 4, 10, 144, 171, 125, 70, 114, 141, 1, 1.30468
17, 1, bw, catch, NA, 999, 999, 4, 10, 144, 171, 125, 70, 114, 141, 2, 0.740352
17, 1, bw, attraction, a-b-da, 9, 1, 4, 11, 135, 60, 129, 57, 60, 135, 3, 1.90845
17, 1, bw, attraction, a-b-da, 9, 1, 4, 11, 135, 60, 129, 57, 60, 135, 2, 0.919133
17, 1, bw, attraction, a-b-da, 14, 1, 4, 12, 60, 135, 135, 60, 125, 56, 1, 4.09743
17, 1, bw, attraction, a-b-da, 14, 1, 4, 12, 60, 135, 135, 60, 125, 56, 3, 0.618668
17, 1, bw, attraction, a-b-db, 5, 1, 4, 13, 58, 132, 60, 135, 135, 60, 2, 1.66347
17, 1, bw, attraction, a-b-db, 5, 1, 4, 13, 58, 132, 60, 135, 135, 60, 1, 2.05976
17, 1, bw, filler, NA, 999, 999, 4, 14, 129, 68, 101, 191, 177, 181, 3, 1.17508
17, 1, bw, filler, NA, 999, 999, 4, 14, 129, 68, 101, 191, 177, 181, 1, 1.32682
17, 1, bw, attraction, a-b-db, 5, 2, 4, 15, 90, 165, 165, 90, 88, 161, 1, 3.06373
17, 1, bw, attraction, a-b-db, 5, 2, 4, 15, 90, 165, 165, 90, 88, 161, 3, 0.804832
17, 1, bw, attraction, a-b-da, 2, 1, 4, 16, 60, 135, 134, 59, 135, 60, 3, 2.20088
17, 1, bw, attraction, a-b-da, 2, 1, 4, 16, 60, 135, 134, 59, 135, 60, 2, 1.57593
17, 1, bw, attraction, a-b-db, 14, 1, 4, 17, 135, 60, 56, 125, 60, 135, 1, 1.68676
17, 1, bw, attraction, a-b-db, 14, 1, 4, 17, 135, 60, 56, 125, 60, 135, 2, 0.939806
17, 1, bw, filler, NA, 999, 999, 4, 18, 102, 89, 110, 136, 84, 100, 2, 1.62701
17, 1, bw, filler, NA, 999, 999, 4, 18, 102, 89, 110, 136, 84, 100, 3, 0.752869
17, 1, bw, attraction, a-b-da, 14, 2, 4, 19, 165, 90, 90, 165, 153, 83, 1, 1.48965
17, 1, bw, attraction, a-b-da, 14, 2, 4, 19, 165, 90, 90, 165, 153, 83, 3, 5.06786
17, 1, bw, attraction, a-b-da, 2, 2, 4, 20, 90, 165, 163, 89, 165, 90, 1, 2.70242
17, 1, bw, attraction, a-b-da, 2, 2, 4, 20, 90, 165, 163, 89, 165, 90, 3, 0.856967
17, 1, bw, attraction, a-b-db, 2, 2, 4, 21, 90, 165, 165, 90, 89, 163, 1, 2.42009
17, 1, bw, attraction, a-b-db, 2, 2, 4, 21, 90, 165, 165, 90, 89, 163, 3, 0.640189
17, 1, bw, attraction, a-b-da, 9, 3, 4, 22, 186, 114, 120, 195, 195, 120, 2, 3.8294
17, 1, bw, attraction, a-b-da, 9, 3, 4, 22, 186, 114, 120, 195, 195, 120, 1, 0.660667
17, 1, bw, attraction, a-b-db, 9, 2, 4, 23, 165, 90, 86, 157, 90, 165, 3, 13.5688
17, 1, bw, attraction, a-b-db, 9, 2, 4, 23, 165, 90, 86, 157, 90, 165, 2, 0.907854
17, 1, bw, attraction, a-b-da, 9, 2, 4, 24, 165, 90, 90, 165, 157, 86, 1, 2.48385
17, 1, bw, attraction, a-b-da, 9, 2, 4, 24, 165, 90, 90, 165, 157, 86, 3, 0.927139
17, 1, bw, attraction, a-b-da, 5, 3, 4, 25, 190, 117, 120, 195, 195, 120, 2, 3.04124
17, 1, bw, attraction, a-b-da, 5, 3, 4, 25, 190, 117, 120, 195, 195, 120, 1, 0.813792
17, 1, bw, catch, NA, 999, 999, 4, 26, 138, 117, 83, 112, 124, 191, 3, 1.52358
17, 1, bw, catch, NA, 999, 999, 4, 26, 138, 117, 83, 112, 124, 191, 2, 0.685901
17, 1, bw, filler, NA, 999, 999, 4, 27, 109, 100, 163, 58, 144, 164, 3, 1.94538
17, 1, bw, filler, NA, 999, 999, 4, 27, 109, 100, 163, 58, 144, 164, 1, 1.02516
17, 1, bw, attraction, a-b-da, 2, 3, 4, 28, 120, 195, 193, 119, 195, 120, 1, 2.69543
17, 1, bw, attraction, a-b-da, 2, 3, 4, 28, 120, 195, 193, 119, 195, 120, 2, 0.720383
17, 1, bw, attraction, a-b-db, 14, 2, 4, 29, 90, 165, 165, 90, 83, 153, 1, 1.72926
17, 1, bw, attraction, a-b-db, 14, 2, 4, 29, 90, 165, 165, 90, 83, 153, 3, 0.954089
17, 1, bw, filler, NA, 999, 999, 4, 30, 123, 81, 89, 134, 77, 58, 2, 1.95452
17, 1, bw, filler, NA, 999, 999, 4, 30, 123, 81, 89, 134, 77, 58, 3, 0.923836
17, 1, bw, filler, NA, 999, 999, 4, 31, 58, 134, 181, 62, 89, 188, 3, 1.40458
17, 1, bw, filler, NA, 999, 999, 4, 31, 58, 134, 181, 62, 89, 188, 1, 0.899702
17, 1, bw, attraction, a-b-db, 5, 3, 4, 32, 120, 195, 195, 120, 117, 190, 1, 2.23725
17, 1, bw, attraction, a-b-db, 5, 3, 4, 32, 120, 195, 195, 120, 117, 190, 3, 0.794196
17, 1, bw, attraction, a-b-da, 14, 3, 4, 33, 120, 195, 195, 120, 181, 111, 1, 2.13533
17, 1, bw, attraction, a-b-da, 14, 3, 4, 33, 120, 195, 195, 120, 181, 111, 3, 0.787213
17, 1, bw, attraction, a-b-db, 14, 3, 4, 34, 120, 195, 111, 181, 195, 120, 3, 9.44942
17, 1, bw, attraction, a-b-db, 14, 3, 4, 34, 120, 195, 111, 181, 195, 120, 2, 0.850936
17, 1, bw, attraction, a-b-db, 2, 3, 4, 35, 119, 193, 120, 195, 195, 120, 1, 11.2212
17, 1, bw, attraction, a-b-db, 2, 3, 4, 35, 119, 193, 120, 195, 195, 120, 2, 1.00109
17, 1, bw, filler, NA, 999, 999, 4, 36, 81, 129, 157, 163, 57, 185, 2, 1.45698
17, 1, bw, filler, NA, 999, 999, 4, 36, 81, 129, 157, 163, 57, 185, 1, 1.65149
17, 1, bw, catch, NA, 999, 999, 4, 37, 130, 185, 121, 74, 107, 148, 1, 1.73528
17, 1, bw, catch, NA, 999, 999, 4, 37, 130, 185, 121, 74, 107, 148, 2, 0.767936
17, 1, bw, attraction, a-b-da, 14, 1, 5, 1, 135, 60, 125, 56, 60, 135, 1, 27.2146
17, 1, bw, attraction, a-b-da, 14, 1, 5, 1, 135, 60, 125, 56, 60, 135, 2, 0.795614
17, 1, bw, attraction, a-b-db, 2, 2, 5, 2, 90, 165, 89, 163, 165, 90, 1, 2.05289
17, 1, bw, attraction, a-b-db, 2, 2, 5, 2, 90, 165, 89, 163, 165, 90, 2, 0.638548
17, 1, bw, filler, NA, 999, 999, 5, 3, 159, 79, 105, 100, 117, 122, 3, 2.95541
17, 1, bw, filler, NA, 999, 999, 5, 3, 159, 79, 105, 100, 117, 122, 2, 1.52423
17, 1, bw, attraction, a-b-db, 5, 1, 5, 4, 60, 135, 135, 60, 58, 132, 1, 1.67069
17, 1, bw, attraction, a-b-db, 5, 1, 5, 4, 60, 135, 135, 60, 58, 132, 3, 0.905784
17, 1, bw, attraction, a-b-da, 5, 1, 5, 5, 135, 60, 132, 58, 60, 135, 1, 1.99745
17, 1, bw, attraction, a-b-da, 5, 1, 5, 5, 135, 60, 132, 58, 60, 135, 2, 1.10598
17, 1, bw, filler, NA, 999, 999, 5, 6, 195, 58, 86, 73, 103, 190, 3, 1.57291
17, 1, bw, filler, NA, 999, 999, 5, 6, 195, 58, 86, 73, 103, 190, 2, 0.772173
17, 1, bw, attraction, a-b-db, 2, 3, 5, 7, 119, 193, 120, 195, 195, 120, 2, 2.0028
17, 1, bw, attraction, a-b-db, 2, 3, 5, 7, 119, 193, 120, 195, 195, 120, 1, 0.77795
17, 1, bw, attraction, a-b-db, 14, 3, 5, 8, 120, 195, 111, 181, 195, 120, 1, 2.52913
17, 1, bw, attraction, a-b-db, 14, 3, 5, 8, 120, 195, 111, 181, 195, 120, 2, 0.593143
17, 1, bw, attraction, a-b-da, 9, 2, 5, 9, 90, 165, 157, 86, 165, 90, 3, 2.71272
17, 1, bw, attraction, a-b-da, 9, 2, 5, 9, 90, 165, 157, 86, 165, 90, 1, 0.706175
17, 1, bw, filler, NA, 999, 999, 5, 10, 109, 168, 142, 150, 146, 100, 2, 1.49078
17, 1, bw, filler, NA, 999, 999, 5, 10, 109, 168, 142, 150, 146, 100, 3, 0.719457
17, 1, bw, filler, NA, 999, 999, 5, 11, 83, 146, 123, 172, 164, 162, 3, 1.74288
17, 1, bw, filler, NA, 999, 999, 5, 11, 83, 146, 123, 172, 164, 162, 1, 0.568918
17, 1, bw, attraction, a-b-db, 14, 1, 5, 12, 135, 60, 56, 125, 60, 135, 3, 2.40904
17, 1, bw, attraction, a-b-db, 14, 1, 5, 12, 135, 60, 56, 125, 60, 135, 2, 0.775931
17, 1, bw, attraction, a-b-da, 9, 1, 5, 13, 60, 135, 135, 60, 129, 57, 1, 2.09406
17, 1, bw, attraction, a-b-da, 9, 1, 5, 13, 60, 135, 135, 60, 129, 57, 3, 0.682006
17, 1, bw, filler, NA, 999, 999, 5, 14, 125, 189, 105, 151, 127, 131, 1, 1.64553
17, 1, bw, filler, NA, 999, 999, 5, 14, 125, 189, 105, 151, 127, 131, 3, 0.729878
17, 1, bw, catch, NA, 999, 999, 5, 15, 132, 123, 116, 79, 188, 127, 3, 1.26666
17, 1, bw, catch, NA, 999, 999, 5, 15, 132, 123, 116, 79, 188, 127, 2, 0.749812
17, 1, bw, attraction, a-b-db, 2, 1, 5, 16, 59, 134, 135, 60, 60, 135, 1, 1.95732
17, 1, bw, attraction, a-b-db, 2, 1, 5, 16, 59, 134, 135, 60, 60, 135, 3, 1.09412
17, 1, bw, filler, NA, 999, 999, 5, 17, 167, 75, 159, 85, 166, 180, 3, 1.17732
17, 1, bw, filler, NA, 999, 999, 5, 17, 167, 75, 159, 85, 166, 180, 1, 1.34558
17, 1, bw, attraction, a-b-da, 14, 3, 5, 18, 181, 111, 120, 195, 195, 120, 2, 1.99378
17, 1, bw, attraction, a-b-da, 14, 3, 5, 18, 181, 111, 120, 195, 195, 120, 1, 0.839332
17, 1, bw, attraction, a-b-da, 2, 2, 5, 19, 90, 165, 163, 89, 165, 90, 2, 1.5559
17, 1, bw, attraction, a-b-da, 2, 2, 5, 19, 90, 165, 163, 89, 165, 90, 1, 0.852806
17, 1, bw, catch, NA, 999, 999, 5, 20, 104, 151, 122, 73, 122, 193, 3, 1.19378
17, 1, bw, catch, NA, 999, 999, 5, 20, 104, 151, 122, 73, 122, 193, 2, 0.695323
17, 1, bw, attraction, a-b-da, 14, 2, 5, 21, 90, 165, 153, 83, 165, 90, 1, 2.21291
17, 1, bw, attraction, a-b-da, 14, 2, 5, 21, 90, 165, 153, 83, 165, 90, 2, 0.99337
17, 1, bw, attraction, a-b-da, 2, 1, 5, 22, 135, 60, 134, 59, 60, 135, 3, 2.46495
17, 1, bw, attraction, a-b-da, 2, 1, 5, 22, 135, 60, 134, 59, 60, 135, 2, 0.795833
17, 1, bw, filler, NA, 999, 999, 5, 23, 179, 131, 125, 188, 146, 107, 2, 1.4427
17, 1, bw, filler, NA, 999, 999, 5, 23, 179, 131, 125, 188, 146, 107, 3, 0.631583
17, 1, bw, filler, NA, 999, 999, 5, 24, 100, 91, 101, 82, 56, 62, 1, 1.98791
17, 1, bw, filler, NA, 999, 999, 5, 24, 100, 91, 101, 82, 56, 62, 3, 0.901558
17, 1, bw, attraction, a-b-db, 5, 3, 5, 25, 117, 190, 120, 195, 195, 120, 3, 3.64524
17, 1, bw, attraction, a-b-db, 5, 3, 5, 25, 117, 190, 120, 195, 195, 120, 1, 1.67428
17, 1, bw, attraction, a-b-db, 9, 3, 5, 26, 114, 186, 195, 120, 120, 195, 3, 5.32449
17, 1, bw, attraction, a-b-db, 9, 3, 5, 26, 114, 186, 195, 120, 120, 195, 1, 0.98277
17, 1, bw, attraction, a-b-db, 9, 1, 5, 27, 60, 135, 57, 129, 135, 60, 1, 3.5482
17, 1, bw, attraction, a-b-db, 9, 1, 5, 27, 60, 135, 57, 129, 135, 60, 2, 0.594855
17, 1, bw, filler, NA, 999, 999, 5, 28, 100, 103, 97, 182, 168, 148, 3, 1.69998
17, 1, bw, filler, NA, 999, 999, 5, 28, 100, 103, 97, 182, 168, 148, 1, 1.12602
17, 1, bw, attraction, a-b-da, 5, 2, 5, 29, 161, 88, 165, 90, 90, 165, 2, 2.9111
17, 1, bw, attraction, a-b-da, 5, 2, 5, 29, 161, 88, 165, 90, 90, 165, 1, 1.84739
17, 1, bw, catch, NA, 999, 999, 5, 30, 132, 183, 150, 105, 132, 63, 1, 3.349
17, 1, bw, catch, NA, 999, 999, 5, 30, 132, 183, 150, 105, 132, 63, 3, 0.989549
17, 1, bw, attraction, a-b-da, 5, 3, 5, 31, 190, 117, 120, 195, 195, 120, 2, 3.86035
17, 1, bw, attraction, a-b-da, 5, 3, 5, 31, 190, 117, 120, 195, 195, 120, 3, 1.84592
17, 1, bw, filler, NA, 999, 999, 5, 32, 163, 188, 79, 143, 162, 79, 1, 1.64342
17, 1, bw, filler, NA, 999, 999, 5, 32, 163, 188, 79, 143, 162, 79, 2, 0.69633
17, 1, bw, attraction, a-b-db, 5, 2, 5, 33, 88, 161, 90, 165, 165, 90, 2, 4.94058
17, 1, bw, attraction, a-b-db, 5, 2, 5, 33, 88, 161, 90, 165, 165, 90, 1, 0.755658
17, 1, bw, attraction, a-b-da, 9, 3, 5, 34, 120, 195, 195, 120, 186, 114, 2, 5.47659
17, 1, bw, attraction, a-b-da, 9, 3, 5, 34, 120, 195, 195, 120, 186, 114, 3, 1.07027
17, 1, bw, attraction, a-b-db, 9, 2, 5, 35, 90, 165, 165, 90, 86, 157, 1, 22.6887
17, 1, bw, attraction, a-b-db, 9, 2, 5, 35, 90, 165, 165, 90, 86, 157, 3, 0.839503
17, 1, bw, attraction, a-b-da, 2, 3, 5, 36, 195, 120, 193, 119, 120, 195, 1, 2.76291
17, 1, bw, attraction, a-b-da, 2, 3, 5, 36, 195, 120, 193, 119, 120, 195, 2, 0.794959
17, 1, bw, attraction, a-b-db, 14, 2, 5, 37, 83, 153, 165, 90, 90, 165, 3, 2.20747
17, 1, bw, attraction, a-b-db, 14, 2, 5, 37, 83, 153, 165, 90, 90, 165, 1, 1.12891
17, 1, bw, attraction, a-b-da, 14, 3, 6, 1, 181, 111, 120, 195, 195, 120, 3, 1.84887
17, 1, bw, attraction, a-b-da, 14, 3, 6, 1, 181, 111, 120, 195, 195, 120, 2, 0.829328
17, 1, bw, catch, NA, 999, 999, 6, 2, 131, 124, 95, 100, 144, 171, 3, 1.53076
17, 1, bw, catch, NA, 999, 999, 6, 2, 131, 124, 95, 100, 144, 171, 2, 0.683339
17, 1, bw, attraction, a-b-da, 9, 2, 6, 3, 90, 165, 157, 86, 165, 90, 1, 2.73413
17, 1, bw, attraction, a-b-da, 9, 2, 6, 3, 90, 165, 157, 86, 165, 90, 2, 0.784762
17, 1, bw, attraction, a-b-db, 14, 2, 6, 4, 165, 90, 83, 153, 90, 165, 3, 2.71756
17, 1, bw, attraction, a-b-db, 14, 2, 6, 4, 165, 90, 83, 153, 90, 165, 2, 0.78322
17, 1, bw, attraction, a-b-db, 14, 3, 6, 5, 120, 195, 195, 120, 111, 181, 1, 1.94999
17, 1, bw, attraction, a-b-db, 14, 3, 6, 5, 120, 195, 195, 120, 111, 181, 3, 0.879108
17, 1, bw, attraction, a-b-db, 9, 3, 6, 6, 114, 186, 195, 120, 120, 195, 3, 2.77045
17, 1, bw, attraction, a-b-db, 9, 3, 6, 6, 114, 186, 195, 120, 120, 195, 2, 0.952815
17, 1, bw, attraction, a-b-da, 2, 3, 6, 7, 195, 120, 193, 119, 120, 195, 3, 4.60194
17, 1, bw, attraction, a-b-da, 2, 3, 6, 7, 195, 120, 193, 119, 120, 195, 1, 1.3426
17, 1, bw, attraction, a-b-db, 2, 2, 6, 8, 90, 165, 89, 163, 165, 90, 1, 2.27985
17, 1, bw, attraction, a-b-db, 2, 2, 6, 8, 90, 165, 89, 163, 165, 90, 2, 0.635938
17, 1, bw, catch, NA, 999, 999, 6, 9, 140, 115, 156, 159, 108, 87, 2, 1.17385
17, 1, bw, catch, NA, 999, 999, 6, 9, 140, 115, 156, 159, 108, 87, 3, 0.630624
17, 1, bw, filler, NA, 999, 999, 6, 10, 94, 187, 187, 161, 104, 172, 2, 1.28513
17, 1, bw, filler, NA, 999, 999, 6, 10, 94, 187, 187, 161, 104, 172, 3, 0.760814
17, 1, bw, catch, NA, 999, 999, 6, 11, 112, 143, 156, 159, 76, 119, 2, 1.10274
17, 1, bw, catch, NA, 999, 999, 6, 11, 112, 143, 156, 159, 76, 119, 3, 0.808601
17, 1, bw, attraction, a-b-da, 9, 1, 6, 12, 129, 57, 135, 60, 60, 135, 3, 1.96225
17, 1, bw, attraction, a-b-da, 9, 1, 6, 12, 129, 57, 135, 60, 60, 135, 2, 0.681641
17, 1, bw, attraction, a-b-db, 2, 3, 6, 13, 195, 120, 119, 193, 120, 195, 1, 2.05875
17, 1, bw, attraction, a-b-db, 2, 3, 6, 13, 195, 120, 119, 193, 120, 195, 2, 0.583155
17, 1, bw, attraction, a-b-da, 2, 2, 6, 14, 90, 165, 163, 89, 165, 90, 1, 2.10087
17, 1, bw, attraction, a-b-da, 2, 2, 6, 14, 90, 165, 163, 89, 165, 90, 2, 0.767925
17, 1, bw, attraction, a-b-db, 9, 1, 6, 15, 60, 135, 135, 60, 57, 129, 1, 1.99921
17, 1, bw, attraction, a-b-db, 9, 1, 6, 15, 60, 135, 135, 60, 57, 129, 3, 0.830442
17, 1, bw, filler, NA, 999, 999, 6, 16, 68, 160, 69, 127, 101, 68, 1, 1.41945
17, 1, bw, filler, NA, 999, 999, 6, 16, 68, 160, 69, 127, 101, 68, 3, 0.793056
17, 1, bw, attraction, a-b-da, 2, 1, 6, 17, 135, 60, 134, 59, 60, 135, 3, 1.41443
17, 1, bw, attraction, a-b-da, 2, 1, 6, 17, 135, 60, 134, 59, 60, 135, 2, 1.72579
17, 1, bw, attraction, a-b-da, 14, 1, 6, 18, 125, 56, 60, 135, 135, 60, 3, 1.75621
17, 1, bw, attraction, a-b-da, 14, 1, 6, 18, 125, 56, 60, 135, 135, 60, 1, 0.822934
17, 1, bw, filler, NA, 999, 999, 6, 19, 159, 112, 120, 101, 77, 194, 1, 1.59642
17, 1, bw, filler, NA, 999, 999, 6, 19, 159, 112, 120, 101, 77, 194, 2, 2.85126
17, 1, bw, attraction, a-b-db, 14, 1, 6, 20, 60, 135, 135, 60, 56, 125, 2, 4.85455
17, 1, bw, attraction, a-b-db, 14, 1, 6, 20, 60, 135, 135, 60, 56, 125, 3, 1.28979
17, 1, bw, attraction, a-b-db, 5, 2, 6, 21, 165, 90, 90, 165, 88, 161, 2, 4.19643
17, 1, bw, attraction, a-b-db, 5, 2, 6, 21, 165, 90, 90, 165, 88, 161, 3, 0.841927
17, 1, bw, attraction, a-b-db, 9, 2, 6, 22, 90, 165, 165, 90, 86, 157, 2, 11.5655
17, 1, bw, attraction, a-b-db, 9, 2, 6, 22, 90, 165, 165, 90, 86, 157, 3, 0.786489
17, 1, bw, attraction, a-b-da, 5, 3, 6, 23, 190, 117, 120, 195, 195, 120, 2, 1.53635
17, 1, bw, attraction, a-b-da, 5, 3, 6, 23, 190, 117, 120, 195, 195, 120, 1, 0.874977
17, 1, bw, filler, NA, 999, 999, 6, 24, 149, 102, 190, 152, 148, 150, 2, 1.10197
17, 1, bw, filler, NA, 999, 999, 6, 24, 149, 102, 190, 152, 148, 150, 1, 0.704659
17, 1, bw, attraction, a-b-db, 5, 3, 6, 25, 117, 190, 120, 195, 195, 120, 2, 2.15513
17, 1, bw, attraction, a-b-db, 5, 3, 6, 25, 117, 190, 120, 195, 195, 120, 1, 1.29792
17, 1, bw, filler, NA, 999, 999, 6, 26, 126, 166, 57, 157, 66, 98, 1, 1.46911
17, 1, bw, filler, NA, 999, 999, 6, 26, 126, 166, 57, 157, 66, 98, 3, 1.04978
17, 1, bw, filler, NA, 999, 999, 6, 27, 81, 132, 64, 106, 157, 132, 3, 1.23734
17, 1, bw, filler, NA, 999, 999, 6, 27, 81, 132, 64, 106, 157, 132, 2, 0.643143
17, 1, bw, attraction, a-b-da, 14, 2, 6, 28, 165, 90, 153, 83, 90, 165, 3, 1.99816
17, 1, bw, attraction, a-b-da, 14, 2, 6, 28, 165, 90, 153, 83, 90, 165, 2, 0.612788
17, 1, bw, attraction, a-b-db, 5, 1, 6, 29, 58, 132, 60, 135, 135, 60, 1, 2.5015
17, 1, bw, attraction, a-b-db, 5, 1, 6, 29, 58, 132, 60, 135, 135, 60, 2, 0.805512
17, 1, bw, filler, NA, 999, 999, 6, 30, 126, 141, 58, 69, 158, 73, 1, 1.49128
17, 1, bw, filler, NA, 999, 999, 6, 30, 126, 141, 58, 69, 158, 73, 2, 0.591954
17, 1, bw, attraction, a-b-da, 9, 3, 6, 31, 186, 114, 195, 120, 120, 195, 2, 1.4292
17, 1, bw, attraction, a-b-da, 9, 3, 6, 31, 186, 114, 195, 120, 120, 195, 1, 0.714374
17, 1, bw, attraction, a-b-da, 5, 1, 6, 32, 135, 60, 60, 135, 132, 58, 2, 2.53184
17, 1, bw, attraction, a-b-da, 5, 1, 6, 32, 135, 60, 60, 135, 132, 58, 3, 1.48585
17, 1, bw, attraction, a-b-da, 5, 2, 6, 33, 165, 90, 90, 165, 161, 88, 2, 2.20966
17, 1, bw, attraction, a-b-da, 5, 2, 6, 33, 165, 90, 90, 165, 161, 88, 3, 0.63094
17, 1, bw, filler, NA, 999, 999, 6, 34, 115, 65, 164, 151, 175, 93, 2, 1.15634
17, 1, bw, filler, NA, 999, 999, 6, 34, 115, 65, 164, 151, 175, 93, 1, 0.623422
17, 1, bw, filler, NA, 999, 999, 6, 35, 86, 59, 155, 74, 70, 95, 2, 1.3966
17, 1, bw, filler, NA, 999, 999, 6, 35, 86, 59, 155, 74, 70, 95, 1, 0.722248
17, 1, bw, attraction, a-b-db, 2, 1, 6, 36, 135, 60, 60, 135, 59, 134, 1, 1.86565
17, 1, bw, attraction, a-b-db, 2, 1, 6, 36, 135, 60, 60, 135, 59, 134, 2, 1.03781
17, 1, bw, filler, NA, 999, 999, 6, 37, 94, 182, 118, 191, 133, 138, 2, 1.15309
17, 1, bw, filler, NA, 999, 999, 6, 37, 94, 182, 118, 191, 133, 138, 1, 5.45888
17, 1, bw, attraction, a-b-da, 5, 1, 7, 1, 132, 58, 135, 60, 60, 135, 2, 1.94283
17, 1, bw, attraction, a-b-da, 5, 1, 7, 1, 132, 58, 135, 60, 60, 135, 3, 0.871171
17, 1, bw, attraction, a-b-da, 14, 3, 7, 2, 181, 111, 195, 120, 120, 195, 2, 1.15285
17, 1, bw, attraction, a-b-da, 14, 3, 7, 2, 181, 111, 195, 120, 120, 195, 1, 0.625936
17, 1, bw, filler, NA, 999, 999, 7, 3, 89, 114, 127, 115, 141, 160, 3, 1.32051
17, 1, bw, filler, NA, 999, 999, 7, 3, 89, 114, 127, 115, 141, 160, 1, 0.866883
17, 1, bw, attraction, a-b-db, 5, 3, 7, 4, 195, 120, 117, 190, 120, 195, 3, 3.04683
17, 1, bw, attraction, a-b-db, 5, 3, 7, 4, 195, 120, 117, 190, 120, 195, 2, 0.729269
17, 1, bw, attraction, a-b-db, 9, 1, 7, 5, 135, 60, 57, 129, 60, 135, 1, 1.76304
17, 1, bw, attraction, a-b-db, 9, 1, 7, 5, 135, 60, 57, 129, 60, 135, 2, 0.707579
17, 1, bw, filler, NA, 999, 999, 7, 6, 56, 127, 138, 101, 175, 99, 3, 1.70085
17, 1, bw, filler, NA, 999, 999, 7, 6, 56, 127, 138, 101, 175, 99, 1, 0.65506
17, 1, bw, filler, NA, 999, 999, 7, 7, 57, 82, 173, 72, 72, 185, 2, 3.14598
17, 1, bw, filler, NA, 999, 999, 7, 7, 57, 82, 173, 72, 72, 185, 1, 0.602159
17, 1, bw, attraction, a-b-da, 2, 2, 7, 8, 163, 89, 90, 165, 165, 90, 1, 2.3533
17, 1, bw, attraction, a-b-da, 2, 2, 7, 8, 163, 89, 90, 165, 165, 90, 3, 1.61713
17, 1, bw, filler, NA, 999, 999, 7, 9, 166, 83, 86, 148, 182, 193, 3, 1.13596
17, 1, bw, filler, NA, 999, 999, 7, 9, 166, 83, 86, 148, 182, 193, 2, 3.35951
17, 1, bw, attraction, a-b-db, 14, 3, 7, 10, 195, 120, 111, 181, 120, 195, 1, 1.7658
17, 1, bw, attraction, a-b-db, 14, 3, 7, 10, 195, 120, 111, 181, 120, 195, 2, 0.553417
17, 1, bw, filler, NA, 999, 999, 7, 11, 186, 162, 60, 85, 57, 72, 1, 1.39115
17, 1, bw, filler, NA, 999, 999, 7, 11, 186, 162, 60, 85, 57, 72, 3, 0.645517
17, 1, bw, attraction, a-b-db, 14, 1, 7, 12, 60, 135, 135, 60, 56, 125, 1, 1.91673
17, 1, bw, attraction, a-b-db, 14, 1, 7, 12, 60, 135, 135, 60, 56, 125, 3, 1.3555
17, 1, bw, filler, NA, 999, 999, 7, 13, 163, 161, 88, 118, 107, 87, 1, 1.4616
17, 1, bw, filler, NA, 999, 999, 7, 13, 163, 161, 88, 118, 107, 87, 3, 0.737861
17, 1, bw, attraction, a-b-da, 9, 3, 7, 14, 120, 195, 195, 120, 186, 114, 1, 3.12945
17, 1, bw, attraction, a-b-da, 9, 3, 7, 14, 120, 195, 195, 120, 186, 114, 3, 0.809505
17, 1, bw, attraction, a-b-da, 5, 3, 7, 15, 195, 120, 190, 117, 120, 195, 3, 3.62326
17, 1, bw, attraction, a-b-da, 5, 3, 7, 15, 195, 120, 190, 117, 120, 195, 2, 0.925955
17, 1, bw, filler, NA, 999, 999, 7, 16, 58, 61, 192, 139, 116, 127, 2, 1.28795
17, 1, bw, filler, NA, 999, 999, 7, 16, 58, 61, 192, 139, 116, 127, 1, 0.825003
17, 1, bw, attraction, a-b-da, 9, 1, 7, 17, 60, 135, 129, 57, 135, 60, 1, 1.6321
17, 1, bw, attraction, a-b-da, 9, 1, 7, 17, 60, 135, 129, 57, 135, 60, 2, 2.09477
17, 1, bw, catch, NA, 999, 999, 7, 18, 182, 133, 140, 115, 116, 79, 1, 1.31139
17, 1, bw, catch, NA, 999, 999, 7, 18, 182, 133, 140, 115, 116, 79, 3, 0.778352
17, 1, bw, catch, NA, 999, 999, 7, 19, 189, 126, 97, 158, 105, 90, 1, 1.10603
17, 1, bw, catch, NA, 999, 999, 7, 19, 189, 126, 97, 158, 105, 90, 3, 0.756318
17, 1, bw, attraction, a-b-da, 2, 1, 7, 20, 60, 135, 134, 59, 135, 60, 1, 1.2592
17, 1, bw, attraction, a-b-da, 2, 1, 7, 20, 60, 135, 134, 59, 135, 60, 2, 0.816297
17, 1, bw, attraction, a-b-db, 9, 2, 7, 21, 90, 165, 86, 157, 165, 90, 3, 1.79657
17, 1, bw, attraction, a-b-db, 9, 2, 7, 21, 90, 165, 86, 157, 165, 90, 2, 1.35611
17, 1, bw, attraction, a-b-db, 5, 2, 7, 22, 88, 161, 165, 90, 90, 165, 3, 2.77917
17, 1, bw, attraction, a-b-db, 5, 2, 7, 22, 88, 161, 165, 90, 90, 165, 1, 1.00412
17, 1, bw, attraction, a-b-da, 5, 2, 7, 23, 161, 88, 165, 90, 90, 165, 1, 2.00116
17, 1, bw, attraction, a-b-da, 5, 2, 7, 23, 161, 88, 165, 90, 90, 165, 2, 0.536855
17, 1, bw, attraction, a-b-db, 5, 1, 7, 24, 60, 135, 135, 60, 58, 132, 1, 2.56057
17, 1, bw, attraction, a-b-db, 5, 1, 7, 24, 60, 135, 135, 60, 58, 132, 3, 0.623527
17, 1, bw, filler, NA, 999, 999, 7, 25, 142, 116, 112, 180, 83, 181, 2, 2.08515
17, 1, bw, filler, NA, 999, 999, 7, 25, 142, 116, 112, 180, 83, 181, 1, 1.11285
17, 1, bw, attraction, a-b-db, 14, 2, 7, 26, 83, 153, 90, 165, 165, 90, 3, 1.34619
17, 1, bw, attraction, a-b-db, 14, 2, 7, 26, 83, 153, 90, 165, 165, 90, 1, 0.770042
17, 1, bw, attraction, a-b-db, 2, 3, 7, 27, 195, 120, 120, 195, 119, 193, 1, 3.99404
17, 1, bw, attraction, a-b-db, 2, 3, 7, 27, 195, 120, 120, 195, 119, 193, 3, 0.768546
17, 1, bw, attraction, a-b-db, 2, 2, 7, 28, 89, 163, 165, 90, 90, 165, 2, 4.61714
17, 1, bw, attraction, a-b-db, 2, 2, 7, 28, 89, 163, 165, 90, 90, 165, 3, 0.702198
17, 1, bw, attraction, a-b-da, 2, 3, 7, 29, 120, 195, 195, 120, 193, 119, 1, 6.92729
17, 1, bw, attraction, a-b-da, 2, 3, 7, 29, 120, 195, 195, 120, 193, 119, 2, 0.623531
17, 1, bw, attraction, a-b-db, 9, 3, 7, 30, 195, 120, 114, 186, 120, 195, 3, 2.34771
17, 1, bw, attraction, a-b-db, 9, 3, 7, 30, 195, 120, 114, 186, 120, 195, 2, 0.589072
17, 1, bw, attraction, a-b-da, 9, 2, 7, 31, 165, 90, 90, 165, 157, 86, 1, 3.4192
17, 1, bw, attraction, a-b-da, 9, 2, 7, 31, 165, 90, 90, 165, 157, 86, 2, 0.651071
17, 1, bw, filler, NA, 999, 999, 7, 32, 66, 64, 99, 152, 66, 110, 2, 1.15733
17, 1, bw, filler, NA, 999, 999, 7, 32, 66, 64, 99, 152, 66, 110, 1, 0.686746
17, 1, bw, attraction, a-b-da, 14, 1, 7, 33, 60, 135, 125, 56, 135, 60, 3, 1.54544
17, 1, bw, attraction, a-b-da, 14, 1, 7, 33, 60, 135, 125, 56, 135, 60, 2, 0.59361
17, 1, bw, filler, NA, 999, 999, 7, 34, 104, 136, 84, 92, 188, 82, 3, 4.5838
17, 1, bw, filler, NA, 999, 999, 7, 34, 104, 136, 84, 92, 188, 82, 2, 0.639941
17, 1, bw, attraction, a-b-db, 2, 1, 7, 35, 60, 135, 59, 134, 135, 60, 1, 9.60455
17, 1, bw, attraction, a-b-db, 2, 1, 7, 35, 60, 135, 59, 134, 135, 60, 2, 0.695743
17, 1, bw, catch, NA, 999, 999, 7, 36, 75, 120, 130, 185, 148, 107, 2, 1.39334
17, 1, bw, catch, NA, 999, 999, 7, 36, 75, 120, 130, 185, 148, 107, 1, 0.515218
17, 1, bw, attraction, a-b-da, 14, 2, 7, 37, 165, 90, 153, 83, 90, 165, 1, 1.66846
17, 1, bw, attraction, a-b-da, 14, 2, 7, 37, 165, 90, 153, 83, 90, 165, 2, 1.51114
17, 1, bw, attraction, a-b-da, 14, 2, 8, 1, 165, 90, 153, 83, 90, 165, 1, 1.34385
17, 1, bw, attraction, a-b-da, 14, 2, 8, 1, 165, 90, 153, 83, 90, 165, 2, 0.713219
17, 1, bw, attraction, a-b-da, 2, 2, 8, 2, 90, 165, 163, 89, 165, 90, 1, 1.84331
17, 1, bw, attraction, a-b-da, 2, 2, 8, 2, 90, 165, 163, 89, 165, 90, 2, 0.696536
17, 1, bw, filler, NA, 999, 999, 8, 3, 173, 63, 63, 170, 174, 177, 3, 1.19584
17, 1, bw, filler, NA, 999, 999, 8, 3, 173, 63, 63, 170, 174, 177, 2, 0.737301
17, 1, bw, filler, NA, 999, 999, 8, 4, 141, 83, 56, 138, 134, 164, 3, 1.88027
17, 1, bw, filler, NA, 999, 999, 8, 4, 141, 83, 56, 138, 134, 164, 2, 0.821936
17, 1, bw, attraction, a-b-da, 14, 3, 8, 5, 120, 195, 195, 120, 181, 111, 2, 1.59308
17, 1, bw, attraction, a-b-da, 14, 3, 8, 5, 120, 195, 195, 120, 181, 111, 3, 0.794591
17, 1, bw, attraction, a-b-db, 14, 1, 8, 6, 135, 60, 56, 125, 60, 135, 1, 1.97673
17, 1, bw, attraction, a-b-db, 14, 1, 8, 6, 135, 60, 56, 125, 60, 135, 2, 0.639249
17, 1, bw, attraction, a-b-db, 5, 1, 8, 7, 60, 135, 58, 132, 135, 60, 1, 2.48516
17, 1, bw, attraction, a-b-db, 5, 1, 8, 7, 60, 135, 58, 132, 135, 60, 2, 0.640825
17, 1, bw, attraction, a-b-da, 5, 2, 8, 8, 90, 165, 161, 88, 165, 90, 1, 6.5066
17, 1, bw, attraction, a-b-da, 5, 2, 8, 8, 90, 165, 161, 88, 165, 90, 2, 0.62305
17, 1, bw, attraction, a-b-da, 2, 1, 8, 9, 134, 59, 135, 60, 60, 135, 3, 2.2029
17, 1, bw, attraction, a-b-da, 2, 1, 8, 9, 134, 59, 135, 60, 60, 135, 2, 0.713948
17, 1, bw, attraction, a-b-da, 5, 3, 8, 10, 190, 117, 195, 120, 120, 195, 2, 1.27451
17, 1, bw, attraction, a-b-da, 5, 3, 8, 10, 190, 117, 195, 120, 120, 195, 1, 0.798613
17, 1, bw, attraction, a-b-db, 14, 3, 8, 11, 195, 120, 111, 181, 120, 195, 1, 2.37506
17, 1, bw, attraction, a-b-db, 14, 3, 8, 11, 195, 120, 111, 181, 120, 195, 2, 0.606519
17, 1, bw, attraction, a-b-db, 9, 2, 8, 12, 90, 165, 86, 157, 165, 90, 3, 2.74651
17, 1, bw, attraction, a-b-db, 9, 2, 8, 12, 90, 165, 86, 157, 165, 90, 2, 0.690301
17, 1, bw, attraction, a-b-db, 2, 3, 8, 13, 119, 193, 120, 195, 195, 120, 1, 2.39741
17, 1, bw, attraction, a-b-db, 2, 3, 8, 13, 119, 193, 120, 195, 195, 120, 2, 0.596247
17, 1, bw, catch, NA, 999, 999, 8, 14, 157, 158, 154, 101, 101, 94, 1, 1.2039
17, 1, bw, catch, NA, 999, 999, 8, 14, 157, 158, 154, 101, 101, 94, 3, 0.872621
17, 1, bw, attraction, a-b-db, 5, 3, 8, 15, 117, 190, 195, 120, 120, 195, 1, 3.61347
17, 1, bw, attraction, a-b-db, 5, 3, 8, 15, 117, 190, 195, 120, 120, 195, 2, 0.691095
17, 1, bw, attraction, a-b-db, 2, 1, 8, 16, 60, 135, 59, 134, 135, 60, 3, 1.39584
17, 1, bw, attraction, a-b-db, 2, 1, 8, 16, 60, 135, 59, 134, 135, 60, 1, 0.665874
17, 1, bw, attraction, a-b-da, 2, 3, 8, 17, 120, 195, 193, 119, 195, 120, 1, 2.31803
17, 1, bw, attraction, a-b-da, 2, 3, 8, 17, 120, 195, 193, 119, 195, 120, 2, 0.633574
17, 1, bw, attraction, a-b-da, 9, 1, 8, 18, 129, 57, 135, 60, 60, 135, 3, 1.60458
17, 1, bw, attraction, a-b-da, 9, 1, 8, 18, 129, 57, 135, 60, 60, 135, 2, 0.602267
17, 1, bw, filler, NA, 999, 999, 8, 19, 131, 146, 139, 140, 104, 83, 1, 5.13662
17, 1, bw, filler, NA, 999, 999, 8, 19, 131, 146, 139, 140, 104, 83, 3, 1.07203
17, 1, bw, catch, NA, 999, 999, 8, 20, 68, 127, 101, 154, 151, 164, 3, 1.67514
17, 1, bw, catch, NA, 999, 999, 8, 20, 68, 127, 101, 154, 151, 164, 1, 0.735759
17, 1, bw, filler, NA, 999, 999, 8, 21, 77, 182, 193, 144, 73, 109, 2, 1.45881
17, 1, bw, filler, NA, 999, 999, 8, 21, 77, 182, 193, 144, 73, 109, 3, 0.76669
17, 1, bw, attraction, a-b-db, 5, 2, 8, 22, 165, 90, 90, 165, 88, 161, 1, 4.2289
17, 1, bw, attraction, a-b-db, 5, 2, 8, 22, 165, 90, 90, 165, 88, 161, 2, 0.616831
17, 1, bw, filler, NA, 999, 999, 8, 23, 186, 121, 73, 74, 154, 171, 3, 2.3844
17, 1, bw, filler, NA, 999, 999, 8, 23, 186, 121, 73, 74, 154, 171, 2, 0.663706
17, 1, bw, catch, NA, 999, 999, 8, 24, 194, 121, 130, 65, 96, 159, 1, 1.4484
17, 1, bw, catch, NA, 999, 999, 8, 24, 194, 121, 130, 65, 96, 159, 2, 0.750814
17, 1, bw, attraction, a-b-da, 9, 3, 8, 25, 120, 195, 195, 120, 186, 114, 1, 4.20011
17, 1, bw, attraction, a-b-da, 9, 3, 8, 25, 120, 195, 195, 120, 186, 114, 3, 0.676282
17, 1, bw, attraction, a-b-db, 9, 1, 8, 26, 135, 60, 57, 129, 60, 135, 1, 1.59956
17, 1, bw, attraction, a-b-db, 9, 1, 8, 26, 135, 60, 57, 129, 60, 135, 2, 0.78291
17, 1, bw, filler, NA, 999, 999, 8, 27, 65, 155, 97, 90, 62, 151, 1, 17.1171
17, 1, bw, filler, NA, 999, 999, 8, 27, 65, 155, 97, 90, 62, 151, 2, 0.683427
17, 1, bw, attraction, a-b-db, 9, 3, 8, 28, 120, 195, 195, 120, 114, 186, 1, 2.73179
17, 1, bw, attraction, a-b-db, 9, 3, 8, 28, 120, 195, 195, 120, 114, 186, 3, 2.44604
17, 1, bw, filler, NA, 999, 999, 8, 29, 57, 157, 87, 150, 135, 180, 1, 2.33661
17, 1, bw, filler, NA, 999, 999, 8, 29, 57, 157, 87, 150, 135, 180, 2, 4.46881
17, 1, bw, filler, NA, 999, 999, 8, 30, 172, 178, 174, 131, 194, 133, 1, 1.36496
17, 1, bw, filler, NA, 999, 999, 8, 30, 172, 178, 174, 131, 194, 133, 2, 0.788323
17, 1, bw, filler, NA, 999, 999, 8, 31, 83, 103, 108, 119, 77, 89, 2, 1.41863
17, 1, bw, filler, NA, 999, 999, 8, 31, 83, 103, 108, 119, 77, 89, 3, 0.578454
17, 1, bw, attraction, a-b-da, 14, 1, 8, 32, 60, 135, 125, 56, 135, 60, 3, 2.00885
17, 1, bw, attraction, a-b-da, 14, 1, 8, 32, 60, 135, 125, 56, 135, 60, 2, 0.784543
17, 1, bw, attraction, a-b-da, 5, 1, 8, 33, 132, 58, 135, 60, 60, 135, 1, 2.65511
17, 1, bw, attraction, a-b-da, 5, 1, 8, 33, 132, 58, 135, 60, 60, 135, 2, 1.04297
17, 1, bw, filler, NA, 999, 999, 8, 34, 56, 194, 189, 139, 69, 187, 2, 1.06249
17, 1, bw, filler, NA, 999, 999, 8, 34, 56, 194, 189, 139, 69, 187, 1, 1.04298
17, 1, bw, attraction, a-b-da, 9, 2, 8, 35, 157, 86, 165, 90, 90, 165, 3, 4.32823
17, 1, bw, attraction, a-b-da, 9, 2, 8, 35, 157, 86, 165, 90, 90, 165, 2, 0.953572
17, 1, bw, attraction, a-b-db, 2, 2, 8, 36, 90, 165, 165, 90, 89, 163, 1, 3.54355
17, 1, bw, attraction, a-b-db, 2, 2, 8, 36, 90, 165, 165, 90, 89, 163, 2, 0.65751
17, 1, bw, attraction, a-b-db, 14, 2, 8, 37, 90, 165, 83, 153, 165, 90, 1, 2.19505
17, 1, bw, attraction, a-b-db, 14, 2, 8, 37, 90, 165, 83, 153, 165, 90, 2, 0.909593
