sub_n, computer_n, bw_cond, effect, set, distance, diag, block_n, trial_n, h1, w1, h2, w2, h3, w3, choice, rt 
147, 1, bw, practice, NA, 999, 999, 0, 1, 143, 70, 135, 141, 171, 143, 3, 2.93022
147, 1, bw, practice, NA, 999, 999, 0, 1, 143, 70, 135, 141, 171, 143, 1, 4.64336
147, 1, bw, practice, NA, 999, 999, 0, 2, 72, 194, 60, 169, 170, 127, 3, 7.46764
147, 1, bw, practice, NA, 999, 999, 0, 2, 72, 194, 60, 169, 170, 127, 2, 3.59719
147, 1, bw, practice, NA, 999, 999, 0, 3, 173, 173, 157, 145, 100, 160, 1, 2.64923
147, 1, bw, practice, NA, 999, 999, 0, 3, 173, 173, 157, 145, 100, 160, 3, 1.54828
147, 1, bw, filler, NA, 999, 999, 1, 1, 64, 121, 179, 192, 186, 57, 2, 2.1819
147, 1, bw, filler, NA, 999, 999, 1, 1, 64, 121, 179, 192, 186, 57, 1, 2.48529
147, 1, bw, attraction, a-b-da, 5, 2, 1, 2, 161, 88, 165, 90, 90, 165, 3, 6.71104
147, 1, bw, attraction, a-b-da, 5, 2, 1, 2, 161, 88, 165, 90, 90, 165, 1, 3.22368
147, 1, bw, attraction, a-b-db, 14, 2, 1, 3, 90, 165, 165, 90, 83, 153, 1, 3.20392
147, 1, bw, attraction, a-b-db, 14, 2, 1, 3, 90, 165, 165, 90, 83, 153, 2, 2.20229
147, 1, bw, attraction, a-b-da, 9, 2, 1, 4, 165, 90, 90, 165, 157, 86, 2, 2.67938
147, 1, bw, attraction, a-b-da, 9, 2, 1, 4, 165, 90, 90, 165, 157, 86, 3, 1.32252
147, 1, bw, attraction, a-b-da, 14, 1, 1, 5, 125, 56, 60, 135, 135, 60, 2, 2.4354
147, 1, bw, attraction, a-b-da, 14, 1, 1, 5, 125, 56, 60, 135, 135, 60, 1, 1.91261
147, 1, bw, attraction, a-b-da, 5, 1, 1, 6, 132, 58, 60, 135, 135, 60, 2, 5.21719
147, 1, bw, attraction, a-b-da, 5, 1, 1, 6, 132, 58, 60, 135, 135, 60, 1, 1.47839
147, 1, bw, catch, NA, 999, 999, 1, 7, 96, 99, 151, 104, 137, 178, 3, 1.32051
147, 1, bw, catch, NA, 999, 999, 1, 7, 96, 99, 151, 104, 137, 178, 1, 1.19476
147, 1, bw, attraction, a-b-da, 2, 1, 1, 8, 60, 135, 134, 59, 135, 60, 1, 2.9842
147, 1, bw, attraction, a-b-da, 2, 1, 1, 8, 60, 135, 134, 59, 135, 60, 2, 1.75123
147, 1, bw, attraction, a-b-db, 14, 3, 1, 9, 120, 195, 195, 120, 111, 181, 1, 5.58265
147, 1, bw, attraction, a-b-db, 14, 3, 1, 9, 120, 195, 195, 120, 111, 181, 3, 1.50108
147, 1, bw, filler, NA, 999, 999, 1, 10, 185, 175, 136, 65, 124, 121, 1, 1.92651
147, 1, bw, filler, NA, 999, 999, 1, 10, 185, 175, 136, 65, 124, 121, 2, 1.16791
147, 1, bw, catch, NA, 999, 999, 1, 11, 114, 141, 132, 183, 72, 123, 2, 1.78353
147, 1, bw, catch, NA, 999, 999, 1, 11, 114, 141, 132, 183, 72, 123, 3, 0.66255
147, 1, bw, filler, NA, 999, 999, 1, 12, 166, 170, 114, 146, 162, 61, 1, 1.76937
147, 1, bw, filler, NA, 999, 999, 1, 12, 166, 170, 114, 146, 162, 61, 3, 1.4814
147, 1, bw, attraction, a-b-db, 5, 1, 1, 13, 58, 132, 60, 135, 135, 60, 2, 6.02727
147, 1, bw, attraction, a-b-db, 5, 1, 1, 13, 58, 132, 60, 135, 135, 60, 3, 1.35161
147, 1, bw, attraction, a-b-db, 2, 3, 1, 14, 120, 195, 195, 120, 119, 193, 3, 7.58302
147, 1, bw, attraction, a-b-db, 2, 3, 1, 14, 120, 195, 195, 120, 119, 193, 2, 1.09262
147, 1, bw, attraction, a-b-da, 14, 3, 1, 15, 120, 195, 195, 120, 181, 111, 1, 3.98219
147, 1, bw, attraction, a-b-da, 14, 3, 1, 15, 120, 195, 195, 120, 181, 111, 3, 1.50099
147, 1, bw, filler, NA, 999, 999, 1, 16, 169, 71, 83, 101, 98, 141, 3, 4.64633
147, 1, bw, filler, NA, 999, 999, 1, 16, 169, 71, 83, 101, 98, 141, 2, 0.930471
147, 1, bw, attraction, a-b-db, 9, 2, 1, 17, 165, 90, 86, 157, 90, 165, 3, 4.09851
147, 1, bw, attraction, a-b-db, 9, 2, 1, 17, 165, 90, 86, 157, 90, 165, 2, 0.908913
147, 1, bw, attraction, a-b-da, 9, 1, 1, 18, 60, 135, 135, 60, 129, 57, 1, 6.68552
147, 1, bw, attraction, a-b-da, 9, 1, 1, 18, 60, 135, 135, 60, 129, 57, 2, 0.463633
147, 1, bw, attraction, a-b-db, 5, 3, 1, 19, 195, 120, 120, 195, 117, 190, 2, 7.42663
147, 1, bw, attraction, a-b-db, 5, 3, 1, 19, 195, 120, 120, 195, 117, 190, 1, 0.814381
147, 1, bw, filler, NA, 999, 999, 1, 20, 66, 88, 91, 86, 77, 111, 3, 1.24339
147, 1, bw, filler, NA, 999, 999, 1, 20, 66, 88, 91, 86, 77, 111, 1, 0.779273
147, 1, bw, attraction, a-b-da, 2, 2, 1, 21, 90, 165, 163, 89, 165, 90, 1, 3.19861
147, 1, bw, attraction, a-b-da, 2, 2, 1, 21, 90, 165, 163, 89, 165, 90, 2, 4.10076
147, 1, bw, attraction, a-b-db, 14, 1, 1, 22, 135, 60, 56, 125, 60, 135, 3, 6.80557
147, 1, bw, attraction, a-b-db, 14, 1, 1, 22, 135, 60, 56, 125, 60, 135, 1, 0.754761
147, 1, bw, attraction, a-b-db, 2, 2, 1, 23, 90, 165, 89, 163, 165, 90, 2, 4.37041
147, 1, bw, attraction, a-b-db, 2, 2, 1, 23, 90, 165, 89, 163, 165, 90, 3, 2.22593
147, 1, bw, filler, NA, 999, 999, 1, 24, 103, 153, 191, 57, 63, 157, 1, 1.14963
147, 1, bw, filler, NA, 999, 999, 1, 24, 103, 153, 191, 57, 63, 157, 3, 0.710576
147, 1, bw, attraction, a-b-da, 5, 3, 1, 25, 195, 120, 190, 117, 120, 195, 3, 3.67953
147, 1, bw, attraction, a-b-da, 5, 3, 1, 25, 195, 120, 190, 117, 120, 195, 1, 4.09047
147, 1, bw, filler, NA, 999, 999, 1, 26, 158, 119, 67, 118, 77, 92, 1, 1.31574
147, 1, bw, filler, NA, 999, 999, 1, 26, 158, 119, 67, 118, 77, 92, 3, 0.493919
147, 1, bw, filler, NA, 999, 999, 1, 27, 83, 136, 104, 133, 143, 116, 3, 5.91183
147, 1, bw, filler, NA, 999, 999, 1, 27, 83, 136, 104, 133, 143, 116, 1, 0.872586
147, 1, bw, attraction, a-b-db, 9, 3, 1, 28, 114, 186, 120, 195, 195, 120, 2, 9.15545
147, 1, bw, attraction, a-b-db, 9, 3, 1, 28, 114, 186, 120, 195, 195, 120, 1, 0.641866
147, 1, bw, attraction, a-b-da, 14, 2, 1, 29, 153, 83, 165, 90, 90, 165, 3, 1.97364
147, 1, bw, attraction, a-b-da, 14, 2, 1, 29, 153, 83, 165, 90, 90, 165, 1, 0.820978
147, 1, bw, attraction, a-b-db, 5, 2, 1, 30, 88, 161, 90, 165, 165, 90, 2, 4.38609
147, 1, bw, attraction, a-b-db, 5, 2, 1, 30, 88, 161, 90, 165, 165, 90, 3, 0.960724
147, 1, bw, attraction, a-b-da, 9, 3, 1, 31, 186, 114, 120, 195, 195, 120, 2, 1.54357
147, 1, bw, attraction, a-b-da, 9, 3, 1, 31, 186, 114, 120, 195, 195, 120, 1, 6.10437
147, 1, bw, catch, NA, 999, 999, 1, 32, 70, 125, 188, 127, 107, 148, 2, 2.25635
147, 1, bw, catch, NA, 999, 999, 1, 32, 70, 125, 188, 127, 107, 148, 1, 0.476281
147, 1, bw, attraction, a-b-da, 2, 3, 1, 33, 195, 120, 120, 195, 193, 119, 2, 2.60681
147, 1, bw, attraction, a-b-da, 2, 3, 1, 33, 195, 120, 120, 195, 193, 119, 1, 2.88469
147, 1, bw, filler, NA, 999, 999, 1, 34, 137, 80, 140, 116, 88, 96, 2, 1.61437
147, 1, bw, filler, NA, 999, 999, 1, 34, 137, 80, 140, 116, 88, 96, 3, 1.29254
147, 1, bw, attraction, a-b-db, 2, 1, 1, 35, 60, 135, 59, 134, 135, 60, 2, 7.70203
147, 1, bw, attraction, a-b-db, 2, 1, 1, 35, 60, 135, 59, 134, 135, 60, 3, 1.05492
147, 1, bw, attraction, a-b-db, 9, 1, 1, 36, 60, 135, 135, 60, 57, 129, 1, 23.0185
147, 1, bw, attraction, a-b-db, 9, 1, 1, 36, 60, 135, 135, 60, 57, 129, 2, 1.47412
147, 1, bw, filler, NA, 999, 999, 1, 37, 141, 60, 155, 67, 132, 184, 3, 0.948161
147, 1, bw, filler, NA, 999, 999, 1, 37, 141, 60, 155, 67, 132, 184, 1, 0.965199
147, 1, bw, filler, NA, 999, 999, 2, 1, 170, 99, 162, 153, 118, 109, 2, 1.74022
147, 1, bw, filler, NA, 999, 999, 2, 1, 170, 99, 162, 153, 118, 109, 3, 1.10084
147, 1, bw, filler, NA, 999, 999, 2, 2, 89, 97, 146, 58, 140, 149, 3, 1.04657
147, 1, bw, filler, NA, 999, 999, 2, 2, 89, 97, 146, 58, 140, 149, 2, 0.819627
147, 1, bw, attraction, a-b-da, 9, 2, 2, 3, 165, 90, 157, 86, 90, 165, 3, 2.72055
147, 1, bw, attraction, a-b-da, 9, 2, 2, 3, 165, 90, 157, 86, 90, 165, 2, 3.18637
147, 1, bw, filler, NA, 999, 999, 2, 4, 132, 82, 102, 171, 190, 101, 3, 2.22393
147, 1, bw, filler, NA, 999, 999, 2, 4, 132, 82, 102, 171, 190, 101, 1, 0.845206
147, 1, bw, attraction, a-b-db, 5, 3, 2, 5, 120, 195, 195, 120, 117, 190, 1, 18.4088
147, 1, bw, attraction, a-b-db, 5, 3, 2, 5, 120, 195, 195, 120, 117, 190, 2, 1.07448
147, 1, bw, catch, NA, 999, 999, 2, 6, 146, 169, 128, 67, 160, 95, 1, 1.4446
147, 1, bw, catch, NA, 999, 999, 2, 6, 146, 169, 128, 67, 160, 95, 2, 0.66548
147, 1, bw, attraction, a-b-da, 9, 3, 2, 7, 195, 120, 186, 114, 120, 195, 3, 2.36454
147, 1, bw, attraction, a-b-da, 9, 3, 2, 7, 195, 120, 186, 114, 120, 195, 2, 2.63659
147, 1, bw, attraction, a-b-da, 2, 2, 2, 8, 163, 89, 165, 90, 90, 165, 3, 1.44839
147, 1, bw, attraction, a-b-da, 2, 2, 2, 8, 163, 89, 165, 90, 90, 165, 1, 1.94913
147, 1, bw, filler, NA, 999, 999, 2, 9, 173, 124, 137, 185, 143, 175, 3, 1.94045
147, 1, bw, filler, NA, 999, 999, 2, 9, 173, 124, 137, 185, 143, 175, 1, 0.59715
147, 1, bw, filler, NA, 999, 999, 2, 10, 85, 121, 59, 149, 92, 164, 3, 0.914956
147, 1, bw, filler, NA, 999, 999, 2, 10, 85, 121, 59, 149, 92, 164, 2, 1.34934
147, 1, bw, attraction, a-b-da, 5, 2, 2, 11, 165, 90, 161, 88, 90, 165, 3, 3.21279
147, 1, bw, attraction, a-b-da, 5, 2, 2, 11, 165, 90, 161, 88, 90, 165, 2, 1.47444
147, 1, bw, attraction, a-b-db, 2, 1, 2, 12, 59, 134, 135, 60, 60, 135, 3, 2.77261
147, 1, bw, attraction, a-b-db, 2, 1, 2, 12, 59, 134, 135, 60, 60, 135, 2, 0.899772
147, 1, bw, attraction, a-b-da, 5, 3, 2, 13, 120, 195, 190, 117, 195, 120, 3, 8.36542
147, 1, bw, attraction, a-b-da, 5, 3, 2, 13, 120, 195, 190, 117, 195, 120, 2, 1.17151
147, 1, bw, attraction, a-b-db, 2, 2, 2, 14, 90, 165, 89, 163, 165, 90, 1, 5.7783
147, 1, bw, attraction, a-b-db, 2, 2, 2, 14, 90, 165, 89, 163, 165, 90, 3, 1.54447
147, 1, bw, attraction, a-b-da, 14, 2, 2, 15, 90, 165, 153, 83, 165, 90, 1, 1.12786
147, 1, bw, attraction, a-b-da, 14, 2, 2, 15, 90, 165, 153, 83, 165, 90, 3, 1.02553
147, 1, bw, attraction, a-b-db, 5, 1, 2, 16, 58, 132, 60, 135, 135, 60, 2, 2.92577
147, 1, bw, attraction, a-b-db, 5, 1, 2, 16, 58, 132, 60, 135, 135, 60, 3, 0.734826
147, 1, bw, attraction, a-b-db, 14, 2, 2, 17, 165, 90, 90, 165, 83, 153, 2, 2.85518
147, 1, bw, attraction, a-b-db, 14, 2, 2, 17, 165, 90, 90, 165, 83, 153, 1, 1.283
147, 1, bw, catch, NA, 999, 999, 2, 18, 96, 99, 139, 116, 178, 137, 3, 1.10915
147, 1, bw, catch, NA, 999, 999, 2, 18, 96, 99, 139, 116, 178, 137, 1, 0.607478
147, 1, bw, attraction, a-b-db, 9, 3, 2, 19, 120, 195, 114, 186, 195, 120, 3, 4.30067
147, 1, bw, attraction, a-b-db, 9, 3, 2, 19, 120, 195, 114, 186, 195, 120, 1, 1.00657
147, 1, bw, attraction, a-b-da, 2, 3, 2, 20, 120, 195, 195, 120, 193, 119, 1, 5.46024
147, 1, bw, attraction, a-b-da, 2, 3, 2, 20, 120, 195, 195, 120, 193, 119, 2, 1.44706
147, 1, bw, filler, NA, 999, 999, 2, 21, 136, 116, 174, 139, 75, 177, 2, 1.46655
147, 1, bw, filler, NA, 999, 999, 2, 21, 136, 116, 174, 139, 75, 177, 1, 0.582826
147, 1, bw, attraction, a-b-da, 14, 1, 2, 22, 60, 135, 135, 60, 125, 56, 1, 2.26123
147, 1, bw, attraction, a-b-da, 14, 1, 2, 22, 60, 135, 135, 60, 125, 56, 3, 0.825109
147, 1, bw, attraction, a-b-db, 5, 2, 2, 23, 165, 90, 88, 161, 90, 165, 2, 7.35743
147, 1, bw, attraction, a-b-db, 5, 2, 2, 23, 165, 90, 88, 161, 90, 165, 1, 0.792461
147, 1, bw, attraction, a-b-da, 9, 1, 2, 24, 60, 135, 129, 57, 135, 60, 1, 1.98554
147, 1, bw, attraction, a-b-da, 9, 1, 2, 24, 60, 135, 129, 57, 135, 60, 2, 1.84094
147, 1, bw, filler, NA, 999, 999, 2, 25, 144, 59, 90, 87, 110, 103, 3, 1.14829
147, 1, bw, filler, NA, 999, 999, 2, 25, 144, 59, 90, 87, 110, 103, 1, 1.6852
147, 1, bw, attraction, a-b-db, 9, 2, 2, 26, 165, 90, 90, 165, 86, 157, 2, 2.4233
147, 1, bw, attraction, a-b-db, 9, 2, 2, 26, 165, 90, 90, 165, 86, 157, 1, 2.2926
147, 1, bw, attraction, a-b-db, 2, 3, 2, 27, 195, 120, 120, 195, 119, 193, 3, 4.34184
147, 1, bw, attraction, a-b-db, 2, 3, 2, 27, 195, 120, 120, 195, 119, 193, 1, 0.517627
147, 1, bw, attraction, a-b-db, 14, 3, 2, 28, 111, 181, 195, 120, 120, 195, 3, 2.07871
147, 1, bw, attraction, a-b-db, 14, 3, 2, 28, 111, 181, 195, 120, 120, 195, 1, 1.17825
147, 1, bw, filler, NA, 999, 999, 2, 29, 72, 170, 193, 57, 108, 120, 3, 1.20032
147, 1, bw, filler, NA, 999, 999, 2, 29, 72, 170, 193, 57, 108, 120, 2, 1.18341
147, 1, bw, catch, NA, 999, 999, 2, 30, 69, 126, 151, 164, 152, 103, 2, 1.45352
147, 1, bw, catch, NA, 999, 999, 2, 30, 69, 126, 151, 164, 152, 103, 1, 0.410383
147, 1, bw, filler, NA, 999, 999, 2, 31, 76, 100, 123, 57, 173, 83, 3, 0.775476
147, 1, bw, filler, NA, 999, 999, 2, 31, 76, 100, 123, 57, 173, 83, 2, 1.07141
147, 1, bw, attraction, a-b-da, 5, 1, 2, 32, 135, 60, 132, 58, 60, 135, 3, 2.37043
147, 1, bw, attraction, a-b-da, 5, 1, 2, 32, 135, 60, 132, 58, 60, 135, 2, 0.898116
147, 1, bw, attraction, a-b-db, 14, 1, 2, 33, 135, 60, 60, 135, 56, 125, 2, 9.88382
147, 1, bw, attraction, a-b-db, 14, 1, 2, 33, 135, 60, 60, 135, 56, 125, 1, 1.0046
147, 1, bw, attraction, a-b-db, 9, 1, 2, 34, 57, 129, 60, 135, 135, 60, 2, 2.94629
147, 1, bw, attraction, a-b-db, 9, 1, 2, 34, 57, 129, 60, 135, 135, 60, 1, 2.65058
147, 1, bw, attraction, a-b-da, 2, 1, 2, 35, 60, 135, 134, 59, 135, 60, 1, 2.24573
147, 1, bw, attraction, a-b-da, 2, 1, 2, 35, 60, 135, 134, 59, 135, 60, 2, 0.738332
147, 1, bw, filler, NA, 999, 999, 2, 36, 133, 61, 76, 186, 155, 82, 2, 4.01072
147, 1, bw, filler, NA, 999, 999, 2, 36, 133, 61, 76, 186, 155, 82, 1, 0.824167
147, 1, bw, attraction, a-b-da, 14, 3, 2, 37, 195, 120, 181, 111, 120, 195, 3, 1.50057
147, 1, bw, attraction, a-b-da, 14, 3, 2, 37, 195, 120, 181, 111, 120, 195, 2, 3.85534
147, 1, bw, filler, NA, 999, 999, 3, 1, 183, 194, 141, 122, 142, 118, 1, 1.10603
147, 1, bw, filler, NA, 999, 999, 3, 1, 183, 194, 141, 122, 142, 118, 3, 0.452387
147, 1, bw, catch, NA, 999, 999, 3, 2, 103, 152, 136, 179, 114, 81, 2, 2.07226
147, 1, bw, catch, NA, 999, 999, 3, 2, 103, 152, 136, 179, 114, 81, 3, 1.13145
147, 1, bw, attraction, a-b-db, 14, 2, 3, 3, 165, 90, 83, 153, 90, 165, 3, 2.76374
147, 1, bw, attraction, a-b-db, 14, 2, 3, 3, 165, 90, 83, 153, 90, 165, 2, 0.331628
147, 1, bw, attraction, a-b-da, 14, 2, 3, 4, 165, 90, 90, 165, 153, 83, 2, 2.86798
147, 1, bw, attraction, a-b-da, 14, 2, 3, 4, 165, 90, 90, 165, 153, 83, 1, 1.24783
147, 1, bw, attraction, a-b-db, 5, 1, 3, 5, 60, 135, 58, 132, 135, 60, 1, 7.5713
147, 1, bw, attraction, a-b-db, 5, 1, 3, 5, 60, 135, 58, 132, 135, 60, 3, 0.5376
147, 1, bw, attraction, a-b-db, 14, 3, 3, 6, 195, 120, 120, 195, 111, 181, 2, 19.786
147, 1, bw, attraction, a-b-db, 14, 3, 3, 6, 195, 120, 120, 195, 111, 181, 3, 0.643764
147, 1, bw, filler, NA, 999, 999, 3, 7, 68, 137, 88, 133, 169, 75, 3, 2.48765
147, 1, bw, filler, NA, 999, 999, 3, 7, 68, 137, 88, 133, 169, 75, 1, 3.54685
147, 1, bw, attraction, a-b-db, 2, 1, 3, 8, 59, 134, 135, 60, 60, 135, 3, 3.30557
147, 1, bw, attraction, a-b-db, 2, 1, 3, 8, 59, 134, 135, 60, 60, 135, 2, 1.33944
147, 1, bw, catch, NA, 999, 999, 3, 9, 138, 177, 128, 127, 70, 125, 1, 0.795297
147, 1, bw, catch, NA, 999, 999, 3, 9, 138, 177, 128, 127, 70, 125, 3, 0.954489
147, 1, bw, attraction, a-b-da, 2, 1, 3, 10, 135, 60, 60, 135, 134, 59, 2, 4.52213
147, 1, bw, attraction, a-b-da, 2, 1, 3, 10, 135, 60, 60, 135, 134, 59, 3, 0.65062
147, 1, bw, attraction, a-b-da, 9, 3, 3, 11, 120, 195, 186, 114, 195, 120, 1, 14.5265
147, 1, bw, attraction, a-b-da, 9, 3, 3, 11, 120, 195, 186, 114, 195, 120, 2, 1.46781
147, 1, bw, attraction, a-b-da, 5, 3, 3, 12, 120, 195, 190, 117, 195, 120, 1, 2.28668
147, 1, bw, attraction, a-b-da, 5, 3, 3, 12, 120, 195, 190, 117, 195, 120, 2, 0.425976
147, 1, bw, attraction, a-b-db, 9, 1, 3, 13, 135, 60, 60, 135, 57, 129, 1, 8.16639
147, 1, bw, attraction, a-b-db, 9, 1, 3, 13, 135, 60, 60, 135, 57, 129, 3, 1.6125
147, 1, bw, attraction, a-b-db, 2, 2, 3, 14, 165, 90, 90, 165, 89, 163, 3, 6.29724
147, 1, bw, attraction, a-b-db, 2, 2, 3, 14, 165, 90, 90, 165, 89, 163, 1, 1.54656
147, 1, bw, attraction, a-b-db, 5, 3, 3, 15, 195, 120, 117, 190, 120, 195, 3, 3.39406
147, 1, bw, attraction, a-b-db, 5, 3, 3, 15, 195, 120, 117, 190, 120, 195, 2, 2.08824
147, 1, bw, attraction, a-b-db, 9, 3, 3, 16, 195, 120, 120, 195, 114, 186, 2, 11.3382
147, 1, bw, attraction, a-b-db, 9, 3, 3, 16, 195, 120, 120, 195, 114, 186, 3, 3.14469
147, 1, bw, attraction, a-b-da, 14, 1, 3, 17, 60, 135, 135, 60, 125, 56, 1, 4.02369
147, 1, bw, attraction, a-b-da, 14, 1, 3, 17, 60, 135, 135, 60, 125, 56, 2, 3.45242
147, 1, bw, filler, NA, 999, 999, 3, 18, 134, 195, 181, 167, 86, 96, 2, 22.7512
147, 1, bw, filler, NA, 999, 999, 3, 18, 134, 195, 181, 167, 86, 96, 3, 2.0735
147, 1, bw, attraction, a-b-db, 2, 3, 3, 19, 195, 120, 119, 193, 120, 195, 3, 4.7161
147, 1, bw, attraction, a-b-db, 2, 3, 3, 19, 195, 120, 119, 193, 120, 195, 1, 0.957272
147, 1, bw, attraction, a-b-db, 14, 1, 3, 20, 56, 125, 135, 60, 60, 135, 3, 1.87631
147, 1, bw, attraction, a-b-db, 14, 1, 3, 20, 56, 125, 135, 60, 60, 135, 2, 0.914363
147, 1, bw, attraction, a-b-db, 9, 2, 3, 21, 86, 157, 165, 90, 90, 165, 3, 2.32055
147, 1, bw, attraction, a-b-db, 9, 2, 3, 21, 86, 157, 165, 90, 90, 165, 1, 0.498487
147, 1, bw, filler, NA, 999, 999, 3, 22, 152, 122, 117, 60, 121, 71, 1, 1.17224
147, 1, bw, filler, NA, 999, 999, 3, 22, 152, 122, 117, 60, 121, 71, 2, 0.555933
147, 1, bw, attraction, a-b-da, 9, 1, 3, 23, 129, 57, 60, 135, 135, 60, 3, 2.00362
147, 1, bw, attraction, a-b-da, 9, 1, 3, 23, 129, 57, 60, 135, 135, 60, 1, 1.47434
147, 1, bw, filler, NA, 999, 999, 3, 24, 61, 113, 100, 74, 133, 129, 3, 0.884478
147, 1, bw, filler, NA, 999, 999, 3, 24, 61, 113, 100, 74, 133, 129, 1, 0.520137
147, 1, bw, filler, NA, 999, 999, 3, 25, 193, 164, 178, 114, 122, 61, 1, 0.961242
147, 1, bw, filler, NA, 999, 999, 3, 25, 193, 164, 178, 114, 122, 61, 3, 0.601596
147, 1, bw, filler, NA, 999, 999, 3, 26, 76, 58, 134, 190, 107, 176, 2, 1.47133
147, 1, bw, filler, NA, 999, 999, 3, 26, 76, 58, 134, 190, 107, 176, 1, 0.578827
147, 1, bw, attraction, a-b-da, 5, 1, 3, 27, 135, 60, 60, 135, 132, 58, 1, 1.55347
147, 1, bw, attraction, a-b-da, 5, 1, 3, 27, 135, 60, 60, 135, 132, 58, 3, 0.634135
147, 1, bw, attraction, a-b-da, 5, 2, 3, 28, 161, 88, 90, 165, 165, 90, 2, 3.09467
147, 1, bw, attraction, a-b-da, 5, 2, 3, 28, 161, 88, 90, 165, 165, 90, 1, 4.84089
147, 1, bw, filler, NA, 999, 999, 3, 29, 78, 184, 81, 182, 110, 65, 2, 0.86796
147, 1, bw, filler, NA, 999, 999, 3, 29, 78, 184, 81, 182, 110, 65, 3, 0.832344
147, 1, bw, catch, NA, 999, 999, 3, 30, 145, 110, 106, 89, 169, 146, 3, 0.812626
147, 1, bw, catch, NA, 999, 999, 3, 30, 145, 110, 106, 89, 169, 146, 2, 0.967421
147, 1, bw, attraction, a-b-da, 2, 2, 3, 31, 163, 89, 165, 90, 90, 165, 3, 3.01006
147, 1, bw, attraction, a-b-da, 2, 2, 3, 31, 163, 89, 165, 90, 90, 165, 2, 0.367771
147, 1, bw, filler, NA, 999, 999, 3, 32, 128, 79, 116, 135, 124, 170, 3, 0.782895
147, 1, bw, filler, NA, 999, 999, 3, 32, 128, 79, 116, 135, 124, 170, 1, 0.470672
147, 1, bw, attraction, a-b-da, 2, 3, 3, 33, 193, 119, 195, 120, 120, 195, 3, 5.79399
147, 1, bw, attraction, a-b-da, 2, 3, 3, 33, 193, 119, 195, 120, 120, 195, 2, 0.951255
147, 1, bw, filler, NA, 999, 999, 3, 34, 180, 100, 115, 150, 86, 151, 1, 6.5349
147, 1, bw, filler, NA, 999, 999, 3, 34, 180, 100, 115, 150, 86, 151, 2, 1.03079
147, 1, bw, attraction, a-b-da, 14, 3, 3, 35, 120, 195, 181, 111, 195, 120, 1, 4.25903
147, 1, bw, attraction, a-b-da, 14, 3, 3, 35, 120, 195, 181, 111, 195, 120, 2, 0.438567
147, 1, bw, attraction, a-b-da, 9, 2, 3, 36, 165, 90, 90, 165, 157, 86, 2, 4.67487
147, 1, bw, attraction, a-b-da, 9, 2, 3, 36, 165, 90, 90, 165, 157, 86, 3, 1.51744
147, 1, bw, attraction, a-b-db, 5, 2, 3, 37, 165, 90, 90, 165, 88, 161, 3, 9.60629
147, 1, bw, attraction, a-b-db, 5, 2, 3, 37, 165, 90, 90, 165, 88, 161, 2, 1.7386
147, 1, bw, attraction, a-b-da, 2, 3, 4, 1, 195, 120, 120, 195, 193, 119, 3, 4.68265
147, 1, bw, attraction, a-b-da, 2, 3, 4, 1, 195, 120, 120, 195, 193, 119, 2, 1.08524
147, 1, bw, attraction, a-b-da, 5, 2, 4, 2, 165, 90, 161, 88, 90, 165, 3, 1.51941
147, 1, bw, attraction, a-b-da, 5, 2, 4, 2, 165, 90, 161, 88, 90, 165, 2, 1.58561
147, 1, bw, attraction, a-b-db, 9, 3, 4, 3, 120, 195, 195, 120, 114, 186, 1, 1.52759
147, 1, bw, attraction, a-b-db, 9, 3, 4, 3, 120, 195, 195, 120, 114, 186, 3, 1.21719
147, 1, bw, attraction, a-b-da, 9, 1, 4, 4, 60, 135, 135, 60, 129, 57, 2, 2.68599
147, 1, bw, attraction, a-b-da, 9, 1, 4, 4, 60, 135, 135, 60, 129, 57, 3, 1.59319
147, 1, bw, filler, NA, 999, 999, 4, 5, 174, 139, 190, 68, 80, 115, 1, 1.01468
147, 1, bw, filler, NA, 999, 999, 4, 5, 174, 139, 190, 68, 80, 115, 3, 1.03691
147, 1, bw, attraction, a-b-da, 5, 3, 4, 6, 190, 117, 195, 120, 120, 195, 3, 5.0492
147, 1, bw, attraction, a-b-da, 5, 3, 4, 6, 190, 117, 195, 120, 120, 195, 2, 2.30093
147, 1, bw, attraction, a-b-db, 5, 1, 4, 7, 60, 135, 58, 132, 135, 60, 2, 5.13415
147, 1, bw, attraction, a-b-db, 5, 1, 4, 7, 60, 135, 58, 132, 135, 60, 3, 0.374572
147, 1, bw, catch, NA, 999, 999, 4, 8, 98, 157, 80, 115, 147, 168, 3, 0.989014
147, 1, bw, catch, NA, 999, 999, 4, 8, 98, 157, 80, 115, 147, 168, 2, 1.30816
147, 1, bw, attraction, a-b-db, 14, 2, 4, 9, 90, 165, 83, 153, 165, 90, 3, 5.48487
147, 1, bw, attraction, a-b-db, 14, 2, 4, 9, 90, 165, 83, 153, 165, 90, 2, 0.56724
147, 1, bw, filler, NA, 999, 999, 4, 10, 182, 62, 85, 153, 143, 178, 3, 1.11836
147, 1, bw, filler, NA, 999, 999, 4, 10, 182, 62, 85, 153, 143, 178, 2, 1.44861
147, 1, bw, attraction, a-b-db, 2, 3, 4, 11, 120, 195, 195, 120, 119, 193, 3, 2.59616
147, 1, bw, attraction, a-b-db, 2, 3, 4, 11, 120, 195, 195, 120, 119, 193, 1, 2.13857
147, 1, bw, filler, NA, 999, 999, 4, 12, 170, 153, 144, 116, 68, 95, 1, 1.22643
147, 1, bw, filler, NA, 999, 999, 4, 12, 170, 153, 144, 116, 68, 95, 3, 0.704013
147, 1, bw, filler, NA, 999, 999, 4, 13, 85, 120, 184, 90, 119, 190, 3, 1.88192
147, 1, bw, filler, NA, 999, 999, 4, 13, 85, 120, 184, 90, 119, 190, 1, 0.709193
147, 1, bw, filler, NA, 999, 999, 4, 14, 86, 195, 61, 133, 167, 153, 3, 1.15837
147, 1, bw, filler, NA, 999, 999, 4, 14, 86, 195, 61, 133, 167, 153, 2, 0.606457
147, 1, bw, attraction, a-b-db, 5, 2, 4, 15, 88, 161, 165, 90, 90, 165, 3, 1.68428
147, 1, bw, attraction, a-b-db, 5, 2, 4, 15, 88, 161, 165, 90, 90, 165, 2, 0.591706
147, 1, bw, attraction, a-b-da, 14, 3, 4, 16, 195, 120, 120, 195, 181, 111, 1, 2.19748
147, 1, bw, attraction, a-b-da, 14, 3, 4, 16, 195, 120, 120, 195, 181, 111, 2, 1.77224
147, 1, bw, attraction, a-b-da, 2, 2, 4, 17, 163, 89, 90, 165, 165, 90, 3, 4.93085
147, 1, bw, attraction, a-b-da, 2, 2, 4, 17, 163, 89, 90, 165, 165, 90, 1, 0.82728
147, 1, bw, catch, NA, 999, 999, 4, 18, 64, 131, 148, 107, 185, 130, 3, 1.1115
147, 1, bw, catch, NA, 999, 999, 4, 18, 64, 131, 148, 107, 185, 130, 1, 0.945837
147, 1, bw, attraction, a-b-da, 14, 1, 4, 19, 125, 56, 135, 60, 60, 135, 3, 2.36148
147, 1, bw, attraction, a-b-da, 14, 1, 4, 19, 125, 56, 135, 60, 60, 135, 1, 0.393346
147, 1, bw, attraction, a-b-da, 9, 2, 4, 20, 157, 86, 90, 165, 165, 90, 2, 6.65868
147, 1, bw, attraction, a-b-da, 9, 2, 4, 20, 157, 86, 90, 165, 165, 90, 1, 0.593864
147, 1, bw, attraction, a-b-db, 2, 1, 4, 21, 60, 135, 135, 60, 59, 134, 3, 3.60744
147, 1, bw, attraction, a-b-db, 2, 1, 4, 21, 60, 135, 135, 60, 59, 134, 2, 0.645022
147, 1, bw, filler, NA, 999, 999, 4, 22, 173, 67, 87, 147, 190, 178, 3, 0.800726
147, 1, bw, filler, NA, 999, 999, 4, 22, 173, 67, 87, 147, 190, 178, 1, 1.11186
147, 1, bw, attraction, a-b-da, 9, 3, 4, 23, 195, 120, 120, 195, 186, 114, 1, 8.7049
147, 1, bw, attraction, a-b-da, 9, 3, 4, 23, 195, 120, 120, 195, 186, 114, 3, 1.06542
147, 1, bw, catch, NA, 999, 999, 4, 24, 73, 122, 173, 142, 156, 99, 2, 0.964357
147, 1, bw, catch, NA, 999, 999, 4, 24, 73, 122, 173, 142, 156, 99, 1, 0.620696
147, 1, bw, attraction, a-b-db, 2, 2, 4, 25, 89, 163, 90, 165, 165, 90, 2, 5.20174
147, 1, bw, attraction, a-b-db, 2, 2, 4, 25, 89, 163, 90, 165, 165, 90, 3, 2.99947
147, 1, bw, filler, NA, 999, 999, 4, 26, 65, 106, 76, 105, 71, 191, 3, 0.916378
147, 1, bw, filler, NA, 999, 999, 4, 26, 65, 106, 76, 105, 71, 191, 1, 1.16678
147, 1, bw, filler, NA, 999, 999, 4, 27, 182, 142, 111, 121, 116, 96, 1, 0.877693
147, 1, bw, filler, NA, 999, 999, 4, 27, 182, 142, 111, 121, 116, 96, 3, 0.529473
147, 1, bw, attraction, a-b-da, 2, 1, 4, 28, 60, 135, 134, 59, 135, 60, 1, 8.36991
147, 1, bw, attraction, a-b-da, 2, 1, 4, 28, 60, 135, 134, 59, 135, 60, 3, 0.423843
147, 1, bw, attraction, a-b-db, 14, 1, 4, 29, 60, 135, 56, 125, 135, 60, 1, 3.52428
147, 1, bw, attraction, a-b-db, 14, 1, 4, 29, 60, 135, 56, 125, 135, 60, 2, 0.381147
147, 1, bw, attraction, a-b-db, 9, 2, 4, 30, 165, 90, 90, 165, 86, 157, 1, 10.0037
147, 1, bw, attraction, a-b-db, 9, 2, 4, 30, 165, 90, 90, 165, 86, 157, 2, 0.367877
147, 1, bw, attraction, a-b-db, 14, 3, 4, 31, 195, 120, 111, 181, 120, 195, 3, 1.62305
147, 1, bw, attraction, a-b-db, 14, 3, 4, 31, 195, 120, 111, 181, 120, 195, 2, 0.748549
147, 1, bw, attraction, a-b-da, 14, 2, 4, 32, 153, 83, 165, 90, 90, 165, 3, 1.33231
147, 1, bw, attraction, a-b-da, 14, 2, 4, 32, 153, 83, 165, 90, 90, 165, 1, 0.957789
147, 1, bw, attraction, a-b-da, 5, 1, 4, 33, 132, 58, 60, 135, 135, 60, 3, 2.66081
147, 1, bw, attraction, a-b-da, 5, 1, 4, 33, 132, 58, 60, 135, 135, 60, 1, 0.488563
147, 1, bw, attraction, a-b-db, 5, 3, 4, 34, 117, 190, 120, 195, 195, 120, 3, 3.33902
147, 1, bw, attraction, a-b-db, 5, 3, 4, 34, 117, 190, 120, 195, 195, 120, 2, 0.747415
147, 1, bw, attraction, a-b-db, 9, 1, 4, 35, 135, 60, 57, 129, 60, 135, 3, 3.13911
147, 1, bw, attraction, a-b-db, 9, 1, 4, 35, 135, 60, 57, 129, 60, 135, 1, 0.755253
147, 1, bw, filler, NA, 999, 999, 4, 36, 135, 171, 67, 71, 64, 157, 1, 1.347
147, 1, bw, filler, NA, 999, 999, 4, 36, 135, 171, 67, 71, 64, 157, 2, 0.427915
147, 1, bw, filler, NA, 999, 999, 4, 37, 188, 77, 195, 138, 181, 160, 3, 2.0644
147, 1, bw, filler, NA, 999, 999, 4, 37, 188, 77, 195, 138, 181, 160, 1, 0.524309
147, 1, bw, attraction, a-b-db, 14, 3, 5, 1, 111, 181, 120, 195, 195, 120, 2, 8.84354
147, 1, bw, attraction, a-b-db, 14, 3, 5, 1, 111, 181, 120, 195, 195, 120, 3, 0.40884
147, 1, bw, attraction, a-b-da, 9, 3, 5, 2, 120, 195, 186, 114, 195, 120, 3, 1.73914
147, 1, bw, attraction, a-b-da, 9, 3, 5, 2, 120, 195, 186, 114, 195, 120, 2, 0.668051
147, 1, bw, attraction, a-b-da, 5, 3, 5, 3, 195, 120, 120, 195, 190, 117, 1, 5.03095
147, 1, bw, attraction, a-b-da, 5, 3, 5, 3, 195, 120, 120, 195, 190, 117, 2, 0.755595
147, 1, bw, filler, NA, 999, 999, 5, 4, 119, 188, 62, 154, 86, 57, 1, 1.40314
147, 1, bw, filler, NA, 999, 999, 5, 4, 119, 188, 62, 154, 86, 57, 3, 1.01003
147, 1, bw, attraction, a-b-db, 2, 2, 5, 5, 89, 163, 90, 165, 165, 90, 3, 3.00692
147, 1, bw, attraction, a-b-db, 2, 2, 5, 5, 89, 163, 90, 165, 165, 90, 2, 0.348559
147, 1, bw, attraction, a-b-da, 2, 3, 5, 6, 193, 119, 120, 195, 195, 120, 2, 1.91639
147, 1, bw, attraction, a-b-da, 2, 3, 5, 6, 193, 119, 120, 195, 195, 120, 3, 0.558426
147, 1, bw, attraction, a-b-db, 14, 1, 5, 7, 56, 125, 60, 135, 135, 60, 3, 1.54156
147, 1, bw, attraction, a-b-db, 14, 1, 5, 7, 56, 125, 60, 135, 135, 60, 2, 2.10242
147, 1, bw, filler, NA, 999, 999, 5, 8, 105, 69, 162, 163, 123, 164, 2, 1.94363
147, 1, bw, filler, NA, 999, 999, 5, 8, 105, 69, 162, 163, 123, 164, 1, 0.504351
147, 1, bw, filler, NA, 999, 999, 5, 9, 168, 147, 64, 133, 187, 129, 1, 2.97005
147, 1, bw, filler, NA, 999, 999, 5, 9, 168, 147, 64, 133, 187, 129, 2, 0.577911
147, 1, bw, attraction, a-b-db, 5, 1, 5, 10, 135, 60, 58, 132, 60, 135, 3, 2.90445
147, 1, bw, attraction, a-b-db, 5, 1, 5, 10, 135, 60, 58, 132, 60, 135, 1, 0.45872
147, 1, bw, attraction, a-b-db, 9, 2, 5, 11, 86, 157, 90, 165, 165, 90, 3, 1.49378
147, 1, bw, attraction, a-b-db, 9, 2, 5, 11, 86, 157, 90, 165, 165, 90, 1, 0.480705
147, 1, bw, attraction, a-b-da, 9, 2, 5, 12, 157, 86, 90, 165, 165, 90, 2, 1.94713
147, 1, bw, attraction, a-b-da, 9, 2, 5, 12, 157, 86, 90, 165, 165, 90, 1, 1.05991
147, 1, bw, attraction, a-b-db, 2, 1, 5, 13, 135, 60, 60, 135, 59, 134, 2, 2.27881
147, 1, bw, attraction, a-b-db, 2, 1, 5, 13, 135, 60, 60, 135, 59, 134, 1, 0.458117
147, 1, bw, attraction, a-b-db, 9, 1, 5, 14, 57, 129, 60, 135, 135, 60, 2, 1.62117
147, 1, bw, attraction, a-b-db, 9, 1, 5, 14, 57, 129, 60, 135, 135, 60, 1, 0.66998
147, 1, bw, catch, NA, 999, 999, 5, 15, 80, 115, 155, 100, 133, 182, 3, 1.31853
147, 1, bw, catch, NA, 999, 999, 5, 15, 80, 115, 155, 100, 133, 182, 1, 0.552614
147, 1, bw, filler, NA, 999, 999, 5, 16, 177, 187, 145, 69, 170, 63, 1, 1.00044
147, 1, bw, filler, NA, 999, 999, 5, 16, 177, 187, 145, 69, 170, 63, 2, 0.655373
147, 1, bw, filler, NA, 999, 999, 5, 17, 128, 141, 157, 170, 187, 138, 3, 4.49125
147, 1, bw, filler, NA, 999, 999, 5, 17, 128, 141, 157, 170, 187, 138, 1, 0.62892
147, 1, bw, filler, NA, 999, 999, 5, 18, 78, 189, 124, 76, 160, 195, 3, 0.609458
147, 1, bw, filler, NA, 999, 999, 5, 18, 78, 189, 124, 76, 160, 195, 2, 1.49588
147, 1, bw, attraction, a-b-da, 14, 1, 5, 19, 60, 135, 125, 56, 135, 60, 1, 1.41731
147, 1, bw, attraction, a-b-da, 14, 1, 5, 19, 60, 135, 125, 56, 135, 60, 2, 0.55955
147, 1, bw, attraction, a-b-db, 5, 2, 5, 20, 90, 165, 88, 161, 165, 90, 1, 4.51874
147, 1, bw, attraction, a-b-db, 5, 2, 5, 20, 90, 165, 88, 161, 165, 90, 2, 0.887914
147, 1, bw, attraction, a-b-da, 14, 3, 5, 21, 181, 111, 195, 120, 120, 195, 3, 1.57023
147, 1, bw, attraction, a-b-da, 14, 3, 5, 21, 181, 111, 195, 120, 120, 195, 1, 0.994389
147, 1, bw, filler, NA, 999, 999, 5, 22, 57, 132, 152, 179, 151, 105, 2, 0.855961
147, 1, bw, filler, NA, 999, 999, 5, 22, 57, 132, 152, 179, 151, 105, 1, 0.508358
147, 1, bw, attraction, a-b-da, 5, 1, 5, 23, 132, 58, 135, 60, 60, 135, 3, 1.90145
147, 1, bw, attraction, a-b-da, 5, 1, 5, 23, 132, 58, 135, 60, 60, 135, 1, 0.568091
147, 1, bw, catch, NA, 999, 999, 5, 24, 121, 194, 80, 115, 163, 92, 1, 0.967237
147, 1, bw, catch, NA, 999, 999, 5, 24, 121, 194, 80, 115, 163, 92, 2, 0.391596
147, 1, bw, attraction, a-b-da, 2, 2, 5, 25, 165, 90, 163, 89, 90, 165, 3, 2.18938
147, 1, bw, attraction, a-b-da, 2, 2, 5, 25, 165, 90, 163, 89, 90, 165, 2, 1.0041
147, 1, bw, attraction, a-b-da, 14, 2, 5, 26, 165, 90, 153, 83, 90, 165, 3, 1.32967
147, 1, bw, attraction, a-b-da, 14, 2, 5, 26, 165, 90, 153, 83, 90, 165, 2, 0.395252
147, 1, bw, attraction, a-b-da, 5, 2, 5, 27, 161, 88, 90, 165, 165, 90, 2, 3.73699
147, 1, bw, attraction, a-b-da, 5, 2, 5, 27, 161, 88, 90, 165, 165, 90, 1, 1.48195
147, 1, bw, attraction, a-b-db, 2, 3, 5, 28, 195, 120, 119, 193, 120, 195, 3, 4.48403
147, 1, bw, attraction, a-b-db, 2, 3, 5, 28, 195, 120, 119, 193, 120, 195, 2, 1.54259
147, 1, bw, filler, NA, 999, 999, 5, 29, 133, 160, 82, 62, 124, 141, 1, 1.94195
147, 1, bw, filler, NA, 999, 999, 5, 29, 133, 160, 82, 62, 124, 141, 2, 0.614691
147, 1, bw, filler, NA, 999, 999, 5, 30, 73, 151, 182, 101, 135, 191, 3, 2.91578
147, 1, bw, filler, NA, 999, 999, 5, 30, 73, 151, 182, 101, 135, 191, 1, 1.08553
147, 1, bw, attraction, a-b-db, 5, 3, 5, 31, 117, 190, 195, 120, 120, 195, 3, 3.03982
147, 1, bw, attraction, a-b-db, 5, 3, 5, 31, 117, 190, 195, 120, 120, 195, 2, 0.268246
147, 1, bw, attraction, a-b-da, 2, 1, 5, 32, 134, 59, 135, 60, 60, 135, 3, 3.89529
147, 1, bw, attraction, a-b-da, 2, 1, 5, 32, 134, 59, 135, 60, 60, 135, 2, 0.721421
147, 1, bw, attraction, a-b-db, 14, 2, 5, 33, 83, 153, 90, 165, 165, 90, 2, 5.11448
147, 1, bw, attraction, a-b-db, 14, 2, 5, 33, 83, 153, 90, 165, 165, 90, 1, 0.411599
147, 1, bw, attraction, a-b-da, 9, 1, 5, 34, 129, 57, 135, 60, 60, 135, 3, 4.38475
147, 1, bw, attraction, a-b-da, 9, 1, 5, 34, 129, 57, 135, 60, 60, 135, 2, 0.183152
147, 1, bw, filler, NA, 999, 999, 5, 35, 131, 146, 65, 112, 174, 121, 3, 1.83779
147, 1, bw, filler, NA, 999, 999, 5, 35, 131, 146, 65, 112, 174, 121, 2, 0.602649
147, 1, bw, attraction, a-b-db, 9, 3, 5, 36, 114, 186, 195, 120, 120, 195, 3, 2.42428
147, 1, bw, attraction, a-b-db, 9, 3, 5, 36, 114, 186, 195, 120, 120, 195, 2, 0.405494
147, 1, bw, catch, NA, 999, 999, 5, 37, 121, 74, 98, 157, 165, 150, 3, 1.33945
147, 1, bw, catch, NA, 999, 999, 5, 37, 121, 74, 98, 157, 165, 150, 1, 1.06836
147, 1, bw, attraction, a-b-da, 9, 3, 6, 1, 195, 120, 186, 114, 120, 195, 1, 3.62313
147, 1, bw, attraction, a-b-da, 9, 3, 6, 1, 195, 120, 186, 114, 120, 195, 2, 0.443983
147, 1, bw, filler, NA, 999, 999, 6, 2, 181, 99, 149, 107, 64, 94, 2, 1.59179
147, 1, bw, filler, NA, 999, 999, 6, 2, 181, 99, 149, 107, 64, 94, 3, 2.03067
147, 1, bw, attraction, a-b-db, 14, 2, 6, 3, 165, 90, 83, 153, 90, 165, 3, 3.01064
147, 1, bw, attraction, a-b-db, 14, 2, 6, 3, 165, 90, 83, 153, 90, 165, 2, 0.880872
147, 1, bw, attraction, a-b-da, 5, 1, 6, 4, 135, 60, 60, 135, 132, 58, 1, 2.69056
147, 1, bw, attraction, a-b-da, 5, 1, 6, 4, 135, 60, 60, 135, 132, 58, 3, 0.477037
147, 1, bw, catch, NA, 999, 999, 6, 5, 98, 97, 169, 146, 116, 139, 2, 1.35169
147, 1, bw, catch, NA, 999, 999, 6, 5, 98, 97, 169, 146, 116, 139, 1, 0.448483
147, 1, bw, attraction, a-b-da, 2, 1, 6, 6, 134, 59, 135, 60, 60, 135, 1, 1.56425
147, 1, bw, attraction, a-b-da, 2, 1, 6, 6, 134, 59, 135, 60, 60, 135, 2, 0.724505
147, 1, bw, attraction, a-b-db, 2, 2, 6, 7, 90, 165, 165, 90, 89, 163, 1, 1.86868
147, 1, bw, attraction, a-b-db, 2, 2, 6, 7, 90, 165, 165, 90, 89, 163, 2, 0.888769
147, 1, bw, attraction, a-b-db, 5, 3, 6, 8, 117, 190, 120, 195, 195, 120, 2, 3.79511
147, 1, bw, attraction, a-b-db, 5, 3, 6, 8, 117, 190, 120, 195, 195, 120, 1, 3.30524
147, 1, bw, filler, NA, 999, 999, 6, 9, 67, 154, 63, 141, 188, 130, 3, 1.21821
147, 1, bw, filler, NA, 999, 999, 6, 9, 67, 154, 63, 141, 188, 130, 2, 0.90448
147, 1, bw, filler, NA, 999, 999, 6, 10, 90, 132, 105, 190, 146, 167, 3, 1.16234
147, 1, bw, filler, NA, 999, 999, 6, 10, 90, 132, 105, 190, 146, 167, 1, 0.834526
147, 1, bw, filler, NA, 999, 999, 6, 11, 116, 191, 142, 139, 137, 149, 1, 6.49475
147, 1, bw, filler, NA, 999, 999, 6, 11, 116, 191, 142, 139, 137, 149, 2, 0.327969
147, 1, bw, attraction, a-b-da, 5, 3, 6, 12, 190, 117, 195, 120, 120, 195, 3, 7.64861
147, 1, bw, attraction, a-b-da, 5, 3, 6, 12, 190, 117, 195, 120, 120, 195, 1, 0.483383
147, 1, bw, attraction, a-b-db, 9, 1, 6, 13, 57, 129, 135, 60, 60, 135, 3, 3.23003
147, 1, bw, attraction, a-b-db, 9, 1, 6, 13, 57, 129, 135, 60, 60, 135, 2, 0.466881
147, 1, bw, filler, NA, 999, 999, 6, 14, 178, 174, 94, 130, 120, 70, 1, 1.094
147, 1, bw, filler, NA, 999, 999, 6, 14, 178, 174, 94, 130, 120, 70, 3, 0.552939
147, 1, bw, attraction, a-b-da, 14, 1, 6, 15, 125, 56, 135, 60, 60, 135, 3, 7.32877
147, 1, bw, attraction, a-b-da, 14, 1, 6, 15, 125, 56, 135, 60, 60, 135, 1, 0.800397
147, 1, bw, filler, NA, 999, 999, 6, 16, 170, 113, 122, 72, 91, 92, 1, 0.990078
147, 1, bw, filler, NA, 999, 999, 6, 16, 170, 113, 122, 72, 91, 92, 2, 4.51707
147, 1, bw, attraction, a-b-db, 14, 3, 6, 17, 111, 181, 120, 195, 195, 120, 2, 6.565
147, 1, bw, attraction, a-b-db, 14, 3, 6, 17, 111, 181, 120, 195, 195, 120, 1, 0.291655
147, 1, bw, attraction, a-b-da, 5, 2, 6, 18, 161, 88, 90, 165, 165, 90, 3, 5.61338
147, 1, bw, attraction, a-b-da, 5, 2, 6, 18, 161, 88, 90, 165, 165, 90, 1, 0.0805955
147, 1, bw, attraction, a-b-db, 9, 2, 6, 19, 165, 90, 86, 157, 90, 165, 3, 2.32483
147, 1, bw, attraction, a-b-db, 9, 2, 6, 19, 165, 90, 86, 157, 90, 165, 2, 0.486121
147, 1, bw, attraction, a-b-db, 2, 3, 6, 20, 119, 193, 195, 120, 120, 195, 3, 0.936527
147, 1, bw, attraction, a-b-db, 2, 3, 6, 20, 119, 193, 195, 120, 120, 195, 2, 0.410286
147, 1, bw, attraction, a-b-da, 9, 2, 6, 21, 157, 86, 90, 165, 165, 90, 2, 3.3195
147, 1, bw, attraction, a-b-da, 9, 2, 6, 21, 157, 86, 90, 165, 165, 90, 1, 0.456991
147, 1, bw, attraction, a-b-db, 5, 2, 6, 22, 90, 165, 165, 90, 88, 161, 1, 1.92417
147, 1, bw, attraction, a-b-db, 5, 2, 6, 22, 90, 165, 165, 90, 88, 161, 2, 0.381563
147, 1, bw, attraction, a-b-db, 5, 1, 6, 23, 58, 132, 60, 135, 135, 60, 2, 2.41209
147, 1, bw, attraction, a-b-db, 5, 1, 6, 23, 58, 132, 60, 135, 135, 60, 3, 0.601947
147, 1, bw, attraction, a-b-da, 2, 2, 6, 24, 90, 165, 163, 89, 165, 90, 1, 1.80763
147, 1, bw, attraction, a-b-da, 2, 2, 6, 24, 90, 165, 163, 89, 165, 90, 2, 0.469708
147, 1, bw, attraction, a-b-da, 14, 3, 6, 25, 120, 195, 181, 111, 195, 120, 1, 3.01685
147, 1, bw, attraction, a-b-da, 14, 3, 6, 25, 120, 195, 181, 111, 195, 120, 2, 0.478514
147, 1, bw, attraction, a-b-da, 9, 1, 6, 26, 129, 57, 60, 135, 135, 60, 3, 3.56891
147, 1, bw, attraction, a-b-da, 9, 1, 6, 26, 129, 57, 60, 135, 135, 60, 1, 0.960586
147, 1, bw, catch, NA, 999, 999, 6, 27, 127, 188, 132, 123, 104, 91, 1, 1.12746
147, 1, bw, catch, NA, 999, 999, 6, 27, 127, 188, 132, 123, 104, 91, 3, 0.753065
147, 1, bw, filler, NA, 999, 999, 6, 28, 165, 97, 119, 172, 187, 141, 3, 0.912754
147, 1, bw, filler, NA, 999, 999, 6, 28, 165, 97, 119, 172, 187, 141, 1, 0.571102
147, 1, bw, attraction, a-b-da, 2, 3, 6, 29, 195, 120, 193, 119, 120, 195, 3, 1.63426
147, 1, bw, attraction, a-b-da, 2, 3, 6, 29, 195, 120, 193, 119, 120, 195, 2, 0.943878
147, 1, bw, attraction, a-b-db, 2, 1, 6, 30, 60, 135, 135, 60, 59, 134, 3, 1.41544
147, 1, bw, attraction, a-b-db, 2, 1, 6, 30, 60, 135, 135, 60, 59, 134, 2, 0.469618
147, 1, bw, attraction, a-b-da, 14, 2, 6, 31, 90, 165, 165, 90, 153, 83, 1, 1.62476
147, 1, bw, attraction, a-b-da, 14, 2, 6, 31, 90, 165, 165, 90, 153, 83, 2, 0.374231
147, 1, bw, filler, NA, 999, 999, 6, 32, 162, 141, 152, 142, 139, 176, 3, 2.40469
147, 1, bw, filler, NA, 999, 999, 6, 32, 162, 141, 152, 142, 139, 176, 2, 0.771248
147, 1, bw, catch, NA, 999, 999, 6, 33, 116, 139, 175, 140, 84, 111, 2, 1.55419
147, 1, bw, catch, NA, 999, 999, 6, 33, 116, 139, 175, 140, 84, 111, 3, 0.403166
147, 1, bw, filler, NA, 999, 999, 6, 34, 137, 117, 191, 101, 124, 158, 3, 3.50493
147, 1, bw, filler, NA, 999, 999, 6, 34, 137, 117, 191, 101, 124, 158, 2, 0.579127
147, 1, bw, filler, NA, 999, 999, 6, 35, 164, 145, 130, 194, 60, 147, 2, 1.84954
147, 1, bw, filler, NA, 999, 999, 6, 35, 164, 145, 130, 194, 60, 147, 3, 0.662313
147, 1, bw, attraction, a-b-db, 14, 1, 6, 36, 56, 125, 135, 60, 60, 135, 3, 1.88935
147, 1, bw, attraction, a-b-db, 14, 1, 6, 36, 56, 125, 135, 60, 60, 135, 2, 0.940051
147, 1, bw, attraction, a-b-db, 9, 3, 6, 37, 195, 120, 120, 195, 114, 186, 2, 3.97235
147, 1, bw, attraction, a-b-db, 9, 3, 6, 37, 195, 120, 120, 195, 114, 186, 3, 0.995164
147, 1, bw, attraction, a-b-da, 14, 3, 7, 1, 120, 195, 195, 120, 181, 111, 2, 3.07263
147, 1, bw, attraction, a-b-da, 14, 3, 7, 1, 120, 195, 195, 120, 181, 111, 3, 0.387764
147, 1, bw, attraction, a-b-db, 2, 2, 7, 2, 89, 163, 90, 165, 165, 90, 3, 8.03417
147, 1, bw, attraction, a-b-db, 2, 2, 7, 2, 89, 163, 90, 165, 165, 90, 2, 0.389666
147, 1, bw, filler, NA, 999, 999, 7, 3, 130, 57, 190, 75, 187, 172, 3, 1.17152
147, 1, bw, filler, NA, 999, 999, 7, 3, 130, 57, 190, 75, 187, 172, 1, 0.459801
147, 1, bw, attraction, a-b-db, 14, 2, 7, 4, 165, 90, 90, 165, 83, 153, 2, 7.08682
147, 1, bw, attraction, a-b-db, 14, 2, 7, 4, 165, 90, 90, 165, 83, 153, 1, 0.272617
147, 1, bw, attraction, a-b-da, 5, 3, 7, 5, 120, 195, 195, 120, 190, 117, 1, 3.29982
147, 1, bw, attraction, a-b-da, 5, 3, 7, 5, 120, 195, 195, 120, 190, 117, 2, 1.29415
147, 1, bw, filler, NA, 999, 999, 7, 6, 161, 136, 113, 122, 146, 195, 3, 2.08763
147, 1, bw, filler, NA, 999, 999, 7, 6, 161, 136, 113, 122, 146, 195, 2, 0.29101
147, 1, bw, attraction, a-b-db, 2, 1, 7, 7, 59, 134, 60, 135, 135, 60, 2, 2.90084
147, 1, bw, attraction, a-b-db, 2, 1, 7, 7, 59, 134, 60, 135, 135, 60, 1, 0.447263
147, 1, bw, attraction, a-b-db, 14, 1, 7, 8, 135, 60, 60, 135, 56, 125, 1, 4.5311
147, 1, bw, attraction, a-b-db, 14, 1, 7, 8, 135, 60, 60, 135, 56, 125, 3, 0.53156
147, 1, bw, attraction, a-b-da, 14, 1, 7, 9, 135, 60, 125, 56, 60, 135, 1, 2.76406
147, 1, bw, attraction, a-b-da, 14, 1, 7, 9, 135, 60, 125, 56, 60, 135, 2, 0.57983
147, 1, bw, attraction, a-b-da, 9, 1, 7, 10, 60, 135, 135, 60, 129, 57, 1, 3.3383
147, 1, bw, attraction, a-b-da, 9, 1, 7, 10, 60, 135, 135, 60, 129, 57, 2, 0.482599
147, 1, bw, attraction, a-b-db, 5, 1, 7, 11, 135, 60, 60, 135, 58, 132, 2, 2.28498
147, 1, bw, attraction, a-b-db, 5, 1, 7, 11, 135, 60, 60, 135, 58, 132, 1, 0.576296
147, 1, bw, filler, NA, 999, 999, 7, 12, 79, 58, 184, 140, 139, 147, 2, 2.03877
147, 1, bw, filler, NA, 999, 999, 7, 12, 79, 58, 184, 140, 139, 147, 1, 1.19535
147, 1, bw, attraction, a-b-da, 9, 2, 7, 13, 165, 90, 157, 86, 90, 165, 3, 6.77692
147, 1, bw, attraction, a-b-da, 9, 2, 7, 13, 165, 90, 157, 86, 90, 165, 2, 0.334794
147, 1, bw, attraction, a-b-da, 14, 2, 7, 14, 90, 165, 165, 90, 153, 83, 1, 5.43128
147, 1, bw, attraction, a-b-da, 14, 2, 7, 14, 90, 165, 165, 90, 153, 83, 3, 1.61154
147, 1, bw, attraction, a-b-db, 5, 3, 7, 15, 117, 190, 195, 120, 120, 195, 3, 5.72029
147, 1, bw, attraction, a-b-db, 5, 3, 7, 15, 117, 190, 195, 120, 120, 195, 2, 0.6171
147, 1, bw, catch, NA, 999, 999, 7, 16, 114, 81, 149, 166, 119, 136, 2, 1.14234
147, 1, bw, catch, NA, 999, 999, 7, 16, 114, 81, 149, 166, 119, 136, 1, 1.68735
147, 1, bw, attraction, a-b-da, 2, 3, 7, 17, 193, 119, 195, 120, 120, 195, 3, 5.52935
147, 1, bw, attraction, a-b-da, 2, 3, 7, 17, 193, 119, 195, 120, 120, 195, 2, 0.353655
147, 1, bw, attraction, a-b-da, 5, 1, 7, 18, 135, 60, 60, 135, 132, 58, 1, 1.62538
147, 1, bw, attraction, a-b-da, 5, 1, 7, 18, 135, 60, 60, 135, 132, 58, 3, 0.99095
147, 1, bw, attraction, a-b-db, 5, 2, 7, 19, 165, 90, 90, 165, 88, 161, 1, 4.54035
147, 1, bw, attraction, a-b-db, 5, 2, 7, 19, 165, 90, 90, 165, 88, 161, 2, 1.1563
147, 1, bw, attraction, a-b-db, 9, 2, 7, 20, 90, 165, 165, 90, 86, 157, 3, 2.97983
147, 1, bw, attraction, a-b-db, 9, 2, 7, 20, 90, 165, 165, 90, 86, 157, 2, 0.539079
147, 1, bw, filler, NA, 999, 999, 7, 21, 92, 60, 91, 131, 190, 63, 3, 1.80338
147, 1, bw, filler, NA, 999, 999, 7, 21, 92, 60, 91, 131, 190, 63, 1, 0.59417
147, 1, bw, attraction, a-b-db, 9, 1, 7, 22, 57, 129, 135, 60, 60, 135, 3, 1.87989
147, 1, bw, attraction, a-b-db, 9, 1, 7, 22, 57, 129, 135, 60, 60, 135, 2, 0.403311
147, 1, bw, filler, NA, 999, 999, 7, 23, 76, 89, 155, 139, 156, 65, 2, 1.04908
147, 1, bw, filler, NA, 999, 999, 7, 23, 76, 89, 155, 139, 156, 65, 1, 0.470095
147, 1, bw, catch, NA, 999, 999, 7, 24, 171, 144, 96, 99, 163, 92, 1, 0.937217
147, 1, bw, catch, NA, 999, 999, 7, 24, 171, 144, 96, 99, 163, 92, 2, 0.842856
147, 1, bw, filler, NA, 999, 999, 7, 25, 173, 71, 161, 110, 181, 136, 3, 1.0545
147, 1, bw, filler, NA, 999, 999, 7, 25, 173, 71, 161, 110, 181, 136, 1, 0.355606
147, 1, bw, filler, NA, 999, 999, 7, 26, 74, 131, 69, 89, 191, 125, 3, 0.65939
147, 1, bw, filler, NA, 999, 999, 7, 26, 74, 131, 69, 89, 191, 125, 2, 0.495817
147, 1, bw, attraction, a-b-db, 14, 3, 7, 27, 195, 120, 111, 181, 120, 195, 1, 3.12166
147, 1, bw, attraction, a-b-db, 14, 3, 7, 27, 195, 120, 111, 181, 120, 195, 2, 0.515436
147, 1, bw, filler, NA, 999, 999, 7, 28, 64, 102, 154, 110, 156, 148, 3, 1.50849
147, 1, bw, filler, NA, 999, 999, 7, 28, 64, 102, 154, 110, 156, 148, 1, 0.326461
147, 1, bw, attraction, a-b-da, 9, 3, 7, 29, 195, 120, 120, 195, 186, 114, 2, 2.77503
147, 1, bw, attraction, a-b-da, 9, 3, 7, 29, 195, 120, 120, 195, 186, 114, 3, 0.574164
147, 1, bw, attraction, a-b-da, 2, 2, 7, 30, 163, 89, 165, 90, 90, 165, 3, 14.7886
147, 1, bw, attraction, a-b-da, 2, 2, 7, 30, 163, 89, 165, 90, 90, 165, 2, 1.08795
147, 1, bw, catch, NA, 999, 999, 7, 31, 101, 154, 92, 103, 157, 158, 3, 1.09028
147, 1, bw, catch, NA, 999, 999, 7, 31, 101, 154, 92, 103, 157, 158, 2, 0.565172
147, 1, bw, attraction, a-b-da, 5, 2, 7, 32, 165, 90, 90, 165, 161, 88, 1, 3.58838
147, 1, bw, attraction, a-b-da, 5, 2, 7, 32, 165, 90, 90, 165, 161, 88, 3, 0.627144
147, 1, bw, attraction, a-b-db, 9, 3, 7, 33, 195, 120, 120, 195, 114, 186, 1, 3.9835
147, 1, bw, attraction, a-b-db, 9, 3, 7, 33, 195, 120, 120, 195, 114, 186, 3, 0.998264
147, 1, bw, filler, NA, 999, 999, 7, 34, 91, 187, 157, 157, 81, 149, 2, 0.995961
147, 1, bw, filler, NA, 999, 999, 7, 34, 91, 187, 157, 157, 81, 149, 3, 0.378937
147, 1, bw, attraction, a-b-da, 2, 1, 7, 35, 60, 135, 135, 60, 134, 59, 1, 1.28939
147, 1, bw, attraction, a-b-da, 2, 1, 7, 35, 60, 135, 135, 60, 134, 59, 3, 1.17242
147, 1, bw, filler, NA, 999, 999, 7, 36, 106, 194, 60, 79, 122, 167, 3, 1.33933
147, 1, bw, filler, NA, 999, 999, 7, 36, 106, 194, 60, 79, 122, 167, 2, 0.452089
147, 1, bw, attraction, a-b-db, 2, 3, 7, 37, 120, 195, 119, 193, 195, 120, 3, 2.15986
147, 1, bw, attraction, a-b-db, 2, 3, 7, 37, 120, 195, 119, 193, 195, 120, 2, 0.295834
147, 1, bw, attraction, a-b-db, 5, 2, 8, 1, 90, 165, 165, 90, 88, 161, 1, 1.99384
147, 1, bw, attraction, a-b-db, 5, 2, 8, 1, 90, 165, 165, 90, 88, 161, 3, 0.384364
147, 1, bw, catch, NA, 999, 999, 8, 2, 101, 154, 195, 120, 69, 126, 2, 1.71089
147, 1, bw, catch, NA, 999, 999, 8, 2, 101, 154, 195, 120, 69, 126, 3, 0.387222
147, 1, bw, catch, NA, 999, 999, 8, 3, 163, 92, 117, 78, 120, 195, 3, 0.903458
147, 1, bw, catch, NA, 999, 999, 8, 3, 163, 92, 117, 78, 120, 195, 2, 0.586477
147, 1, bw, attraction, a-b-db, 5, 3, 8, 4, 117, 190, 120, 195, 195, 120, 2, 3.91305
147, 1, bw, attraction, a-b-db, 5, 3, 8, 4, 117, 190, 120, 195, 195, 120, 1, 0.370321
147, 1, bw, catch, NA, 999, 999, 8, 5, 87, 108, 175, 140, 152, 103, 2, 1.13745
147, 1, bw, catch, NA, 999, 999, 8, 5, 87, 108, 175, 140, 152, 103, 1, 0.474608
147, 1, bw, attraction, a-b-db, 2, 1, 8, 6, 135, 60, 60, 135, 59, 134, 2, 6.87697
147, 1, bw, attraction, a-b-db, 2, 1, 8, 6, 135, 60, 60, 135, 59, 134, 1, 1.13483
147, 1, bw, filler, NA, 999, 999, 8, 7, 61, 116, 69, 156, 91, 120, 3, 1.14306
147, 1, bw, filler, NA, 999, 999, 8, 7, 61, 116, 69, 156, 91, 120, 1, 0.623847
147, 1, bw, attraction, a-b-da, 2, 1, 8, 8, 135, 60, 134, 59, 60, 135, 3, 2.38036
147, 1, bw, attraction, a-b-da, 2, 1, 8, 8, 135, 60, 134, 59, 60, 135, 2, 1.21961
147, 1, bw, attraction, a-b-db, 9, 3, 8, 9, 120, 195, 195, 120, 114, 186, 1, 3.48852
147, 1, bw, attraction, a-b-db, 9, 3, 8, 9, 120, 195, 195, 120, 114, 186, 3, 0.539305
147, 1, bw, attraction, a-b-db, 9, 2, 8, 10, 165, 90, 86, 157, 90, 165, 3, 2.82788
147, 1, bw, attraction, a-b-db, 9, 2, 8, 10, 165, 90, 86, 157, 90, 165, 2, 0.568873
147, 1, bw, attraction, a-b-db, 14, 2, 8, 11, 83, 153, 90, 165, 165, 90, 2, 2.25596
147, 1, bw, attraction, a-b-db, 14, 2, 8, 11, 83, 153, 90, 165, 165, 90, 1, 0.563936
147, 1, bw, attraction, a-b-db, 5, 1, 8, 12, 60, 135, 135, 60, 58, 132, 1, 4.19497
147, 1, bw, attraction, a-b-db, 5, 1, 8, 12, 60, 135, 135, 60, 58, 132, 2, 1.06496
147, 1, bw, attraction, a-b-da, 9, 1, 8, 13, 135, 60, 129, 57, 60, 135, 1, 2.99589
147, 1, bw, attraction, a-b-da, 9, 1, 8, 13, 135, 60, 129, 57, 60, 135, 2, 0.730413
147, 1, bw, filler, NA, 999, 999, 8, 14, 97, 138, 139, 160, 115, 78, 2, 0.834623
147, 1, bw, filler, NA, 999, 999, 8, 14, 97, 138, 139, 160, 115, 78, 3, 1.09641
147, 1, bw, attraction, a-b-db, 14, 3, 8, 15, 111, 181, 195, 120, 120, 195, 3, 4.70604
147, 1, bw, attraction, a-b-db, 14, 3, 8, 15, 111, 181, 195, 120, 120, 195, 1, 0.739223
147, 1, bw, attraction, a-b-da, 5, 3, 8, 16, 120, 195, 195, 120, 190, 117, 1, 4.45158
147, 1, bw, attraction, a-b-da, 5, 3, 8, 16, 120, 195, 195, 120, 190, 117, 2, 1.17549
147, 1, bw, filler, NA, 999, 999, 8, 17, 56, 124, 184, 165, 115, 100, 2, 0.837723
147, 1, bw, filler, NA, 999, 999, 8, 17, 56, 124, 184, 165, 115, 100, 1, 1.20336
147, 1, bw, attraction, a-b-db, 14, 1, 8, 18, 135, 60, 56, 125, 60, 135, 3, 2.00099
147, 1, bw, attraction, a-b-db, 14, 1, 8, 18, 135, 60, 56, 125, 60, 135, 2, 0.775878
147, 1, bw, filler, NA, 999, 999, 8, 19, 66, 58, 107, 73, 164, 110, 3, 0.894025
147, 1, bw, filler, NA, 999, 999, 8, 19, 66, 58, 107, 73, 164, 110, 1, 0.641029
147, 1, bw, filler, NA, 999, 999, 8, 20, 71, 158, 192, 153, 161, 90, 2, 1.83673
147, 1, bw, filler, NA, 999, 999, 8, 20, 71, 158, 192, 153, 161, 90, 1, 0.610243
147, 1, bw, attraction, a-b-da, 9, 2, 8, 21, 90, 165, 157, 86, 165, 90, 1, 2.88728
147, 1, bw, attraction, a-b-da, 9, 2, 8, 21, 90, 165, 157, 86, 165, 90, 2, 1.2265
147, 1, bw, attraction, a-b-da, 14, 1, 8, 22, 125, 56, 60, 135, 135, 60, 1, 1.71067
147, 1, bw, attraction, a-b-da, 14, 1, 8, 22, 125, 56, 60, 135, 135, 60, 2, 2.49679
147, 1, bw, filler, NA, 999, 999, 8, 23, 171, 195, 82, 124, 61, 74, 1, 1.14584
147, 1, bw, filler, NA, 999, 999, 8, 23, 171, 195, 82, 124, 61, 74, 3, 0.970902
147, 1, bw, attraction, a-b-db, 2, 2, 8, 24, 90, 165, 165, 90, 89, 163, 1, 3.63383
147, 1, bw, attraction, a-b-db, 2, 2, 8, 24, 90, 165, 165, 90, 89, 163, 3, 1.20668
147, 1, bw, attraction, a-b-da, 9, 3, 8, 25, 195, 120, 120, 195, 186, 114, 1, 1.53225
147, 1, bw, attraction, a-b-da, 9, 3, 8, 25, 195, 120, 120, 195, 186, 114, 3, 0.677723
147, 1, bw, attraction, a-b-da, 14, 2, 8, 26, 165, 90, 153, 83, 90, 165, 3, 1.20808
147, 1, bw, attraction, a-b-da, 14, 2, 8, 26, 165, 90, 153, 83, 90, 165, 2, 0.726302
147, 1, bw, filler, NA, 999, 999, 8, 27, 94, 194, 90, 117, 192, 166, 3, 0.822899
147, 1, bw, filler, NA, 999, 999, 8, 27, 94, 194, 90, 117, 192, 166, 2, 0.396433
147, 1, bw, attraction, a-b-db, 9, 1, 8, 28, 135, 60, 57, 129, 60, 135, 2, 4.45032
147, 1, bw, attraction, a-b-db, 9, 1, 8, 28, 135, 60, 57, 129, 60, 135, 3, 0.918246
147, 1, bw, attraction, a-b-da, 2, 2, 8, 29, 165, 90, 163, 89, 90, 165, 3, 4.65508
147, 1, bw, attraction, a-b-da, 2, 2, 8, 29, 165, 90, 163, 89, 90, 165, 2, 0.882409
147, 1, bw, attraction, a-b-db, 2, 3, 8, 30, 120, 195, 195, 120, 119, 193, 1, 4.35661
147, 1, bw, attraction, a-b-db, 2, 3, 8, 30, 120, 195, 195, 120, 119, 193, 3, 1.60407
147, 1, bw, attraction, a-b-da, 5, 2, 8, 31, 161, 88, 165, 90, 90, 165, 3, 1.1456
147, 1, bw, attraction, a-b-da, 5, 2, 8, 31, 161, 88, 165, 90, 90, 165, 2, 0.99433
147, 1, bw, attraction, a-b-da, 5, 1, 8, 32, 132, 58, 60, 135, 135, 60, 3, 5.04801
147, 1, bw, attraction, a-b-da, 5, 1, 8, 32, 132, 58, 60, 135, 135, 60, 1, 0.60368
147, 1, bw, filler, NA, 999, 999, 8, 33, 81, 124, 87, 107, 88, 162, 3, 3.16145
147, 1, bw, filler, NA, 999, 999, 8, 33, 81, 124, 87, 107, 88, 162, 2, 0.473066
147, 1, bw, attraction, a-b-da, 14, 3, 8, 34, 120, 195, 181, 111, 195, 120, 3, 2.41234
147, 1, bw, attraction, a-b-da, 14, 3, 8, 34, 120, 195, 181, 111, 195, 120, 2, 0.538126
147, 1, bw, filler, NA, 999, 999, 8, 35, 61, 186, 147, 150, 118, 140, 2, 1.78649
147, 1, bw, filler, NA, 999, 999, 8, 35, 61, 186, 147, 150, 118, 140, 1, 1.10591
147, 1, bw, attraction, a-b-da, 2, 3, 8, 36, 193, 119, 120, 195, 195, 120, 1, 4.86762
147, 1, bw, attraction, a-b-da, 2, 3, 8, 36, 193, 119, 120, 195, 195, 120, 3, 0.670821
147, 1, bw, filler, NA, 999, 999, 8, 37, 189, 122, 119, 167, 89, 88, 2, 1.8978
147, 1, bw, filler, NA, 999, 999, 8, 37, 189, 122, 119, 167, 89, 88, 3, 0.556508
