sub_n, computer_n, bw_cond, effect, set, distance, diag, block_n, trial_n, h1, w1, h2, w2, h3, w3, choice, rt 
186, 1, wb, practice, NA, 999, 999, 0, 1, 109, 186, 158, 117, 143, 193, 2, 3.98492
186, 1, wb, practice, NA, 999, 999, 0, 1, 109, 186, 158, 117, 143, 193, 3, 2.09665
186, 1, wb, practice, NA, 999, 999, 0, 2, 169, 114, 64, 79, 158, 182, 2, 2.46956
186, 1, wb, practice, NA, 999, 999, 0, 2, 169, 114, 64, 79, 158, 182, 3, 1.59387
186, 1, wb, practice, NA, 999, 999, 0, 3, 183, 93, 108, 172, 171, 84, 3, 2.21198
186, 1, wb, practice, NA, 999, 999, 0, 3, 183, 93, 108, 172, 171, 84, 2, 1.48186
186, 1, wb, attraction, a-b-da, 9, 2, 1, 1, 157, 86, 90, 165, 165, 90, 1, 3.06221
186, 1, wb, attraction, a-b-da, 9, 2, 1, 1, 157, 86, 90, 165, 165, 90, 2, 2.46598
186, 1, wb, attraction, a-b-db, 9, 1, 1, 2, 135, 60, 57, 129, 60, 135, 1, 2.05236
186, 1, wb, attraction, a-b-db, 9, 1, 1, 2, 135, 60, 57, 129, 60, 135, 3, 2.48108
186, 1, wb, filler, NA, 999, 999, 1, 3, 113, 161, 57, 149, 171, 88, 2, 1.74704
186, 1, wb, filler, NA, 999, 999, 1, 3, 113, 161, 57, 149, 171, 88, 1, 0.675704
186, 1, wb, attraction, a-b-da, 2, 2, 1, 4, 90, 165, 165, 90, 163, 89, 3, 2.07007
186, 1, wb, attraction, a-b-da, 2, 2, 1, 4, 90, 165, 165, 90, 163, 89, 1, 1.58619
186, 1, wb, catch, NA, 999, 999, 1, 5, 194, 121, 126, 69, 122, 133, 2, 1.27237
186, 1, wb, catch, NA, 999, 999, 1, 5, 194, 121, 126, 69, 122, 133, 1, 1.45176
186, 1, wb, filler, NA, 999, 999, 1, 6, 175, 177, 84, 59, 164, 138, 2, 1.33528
186, 1, wb, filler, NA, 999, 999, 1, 6, 175, 177, 84, 59, 164, 138, 1, 0.68892
186, 1, wb, attraction, a-b-da, 14, 3, 1, 7, 195, 120, 181, 111, 120, 195, 1, 3.58723
186, 1, wb, attraction, a-b-da, 14, 3, 1, 7, 195, 120, 181, 111, 120, 195, 3, 0.706097
186, 1, wb, attraction, a-b-da, 9, 3, 1, 8, 195, 120, 186, 114, 120, 195, 1, 3.64372
186, 1, wb, attraction, a-b-da, 9, 3, 1, 8, 195, 120, 186, 114, 120, 195, 3, 0.712143
186, 1, wb, catch, NA, 999, 999, 1, 9, 110, 145, 60, 135, 148, 167, 2, 1.23299
186, 1, wb, catch, NA, 999, 999, 1, 9, 110, 145, 60, 135, 148, 167, 3, 0.974624
186, 1, wb, attraction, a-b-da, 5, 3, 1, 10, 120, 195, 190, 117, 195, 120, 3, 3.14092
186, 1, wb, attraction, a-b-da, 5, 3, 1, 10, 120, 195, 190, 117, 195, 120, 1, 1.38929
186, 1, wb, attraction, a-b-db, 5, 1, 1, 11, 60, 135, 58, 132, 135, 60, 3, 4.04334
186, 1, wb, attraction, a-b-db, 5, 1, 1, 11, 60, 135, 58, 132, 135, 60, 1, 0.839444
186, 1, wb, filler, NA, 999, 999, 1, 12, 69, 67, 88, 65, 158, 88, 1, 1.36379
186, 1, wb, filler, NA, 999, 999, 1, 12, 69, 67, 88, 65, 158, 88, 3, 1.31601
186, 1, wb, filler, NA, 999, 999, 1, 13, 114, 70, 123, 170, 165, 157, 1, 2.08492
186, 1, wb, filler, NA, 999, 999, 1, 13, 114, 70, 123, 170, 165, 157, 3, 1.65636
186, 1, wb, catch, NA, 999, 999, 1, 14, 133, 122, 193, 122, 122, 73, 3, 1.36354
186, 1, wb, catch, NA, 999, 999, 1, 14, 133, 122, 193, 122, 122, 73, 2, 1.35602
186, 1, wb, attraction, a-b-db, 14, 2, 1, 15, 165, 90, 83, 153, 90, 165, 2, 4.25135
186, 1, wb, attraction, a-b-db, 14, 2, 1, 15, 165, 90, 83, 153, 90, 165, 3, 2.38342
186, 1, wb, attraction, a-b-db, 9, 3, 1, 16, 120, 195, 195, 120, 114, 186, 3, 1.87727
186, 1, wb, attraction, a-b-db, 9, 3, 1, 16, 120, 195, 195, 120, 114, 186, 1, 1.54464
186, 1, wb, filler, NA, 999, 999, 1, 17, 174, 138, 86, 141, 127, 72, 3, 2.09605
186, 1, wb, filler, NA, 999, 999, 1, 17, 174, 138, 86, 141, 127, 72, 1, 0.930691
186, 1, wb, filler, NA, 999, 999, 1, 18, 58, 67, 185, 193, 156, 185, 1, 1.05107
186, 1, wb, filler, NA, 999, 999, 1, 18, 58, 67, 185, 193, 156, 185, 2, 1.07204
186, 1, wb, filler, NA, 999, 999, 1, 19, 113, 117, 142, 112, 114, 68, 3, 1.19491
186, 1, wb, filler, NA, 999, 999, 1, 19, 113, 117, 142, 112, 114, 68, 2, 1.03388
186, 1, wb, attraction, a-b-da, 5, 1, 1, 20, 132, 58, 60, 135, 135, 60, 1, 6.09418
186, 1, wb, attraction, a-b-da, 5, 1, 1, 20, 132, 58, 60, 135, 135, 60, 2, 0.799636
186, 1, wb, attraction, a-b-da, 14, 1, 1, 21, 60, 135, 135, 60, 125, 56, 3, 1.57324
186, 1, wb, attraction, a-b-da, 14, 1, 1, 21, 60, 135, 135, 60, 125, 56, 1, 1.50867
186, 1, wb, attraction, a-b-da, 5, 2, 1, 22, 165, 90, 161, 88, 90, 165, 1, 2.26161
186, 1, wb, attraction, a-b-da, 5, 2, 1, 22, 165, 90, 161, 88, 90, 165, 3, 1.06546
186, 1, wb, attraction, a-b-db, 2, 2, 1, 23, 89, 163, 165, 90, 90, 165, 2, 3.12446
186, 1, wb, attraction, a-b-db, 2, 2, 1, 23, 89, 163, 165, 90, 90, 165, 3, 0.96531
186, 1, wb, filler, NA, 999, 999, 1, 24, 115, 192, 136, 70, 134, 154, 2, 1.27641
186, 1, wb, filler, NA, 999, 999, 1, 24, 115, 192, 136, 70, 134, 154, 1, 1.84792
186, 1, wb, attraction, a-b-db, 14, 3, 1, 25, 111, 181, 195, 120, 120, 195, 1, 2.61128
186, 1, wb, attraction, a-b-db, 14, 3, 1, 25, 111, 181, 195, 120, 120, 195, 3, 2.2493
186, 1, wb, attraction, a-b-db, 2, 3, 1, 26, 119, 193, 195, 120, 120, 195, 2, 5.27634
186, 1, wb, attraction, a-b-db, 2, 3, 1, 26, 119, 193, 195, 120, 120, 195, 3, 1.0707
186, 1, wb, filler, NA, 999, 999, 1, 27, 58, 66, 79, 131, 122, 145, 1, 0.777555
186, 1, wb, filler, NA, 999, 999, 1, 27, 58, 66, 79, 131, 122, 145, 3, 0.977376
186, 1, wb, attraction, a-b-da, 2, 3, 1, 28, 120, 195, 193, 119, 195, 120, 3, 2.56763
186, 1, wb, attraction, a-b-da, 2, 3, 1, 28, 120, 195, 193, 119, 195, 120, 1, 0.87146
186, 1, wb, attraction, a-b-db, 5, 3, 1, 29, 195, 120, 120, 195, 117, 190, 3, 2.77849
186, 1, wb, attraction, a-b-db, 5, 3, 1, 29, 195, 120, 120, 195, 117, 190, 2, 1.24159
186, 1, wb, attraction, a-b-db, 9, 2, 1, 30, 165, 90, 86, 157, 90, 165, 2, 2.61324
186, 1, wb, attraction, a-b-db, 9, 2, 1, 30, 165, 90, 86, 157, 90, 165, 3, 0.979025
186, 1, wb, attraction, a-b-da, 14, 2, 1, 31, 153, 83, 90, 165, 165, 90, 1, 1.5054
186, 1, wb, attraction, a-b-da, 14, 2, 1, 31, 153, 83, 90, 165, 165, 90, 2, 1.69157
186, 1, wb, filler, NA, 999, 999, 1, 32, 171, 98, 180, 128, 123, 173, 1, 2.09295
186, 1, wb, filler, NA, 999, 999, 1, 32, 171, 98, 180, 128, 123, 173, 2, 1.71174
186, 1, wb, attraction, a-b-db, 14, 1, 1, 33, 135, 60, 56, 125, 60, 135, 2, 1.92025
186, 1, wb, attraction, a-b-db, 14, 1, 1, 33, 135, 60, 56, 125, 60, 135, 1, 1.15432
186, 1, wb, attraction, a-b-da, 2, 1, 1, 34, 134, 59, 135, 60, 60, 135, 2, 2.5459
186, 1, wb, attraction, a-b-da, 2, 1, 1, 34, 134, 59, 135, 60, 60, 135, 3, 0.674331
186, 1, wb, attraction, a-b-da, 9, 1, 1, 35, 129, 57, 60, 135, 135, 60, 1, 2.51673
186, 1, wb, attraction, a-b-da, 9, 1, 1, 35, 129, 57, 60, 135, 135, 60, 3, 0.806823
186, 1, wb, attraction, a-b-db, 2, 1, 1, 36, 60, 135, 59, 134, 135, 60, 2, 3.68364
186, 1, wb, attraction, a-b-db, 2, 1, 1, 36, 60, 135, 59, 134, 135, 60, 1, 0.990474
186, 1, wb, attraction, a-b-db, 5, 2, 1, 37, 90, 165, 165, 90, 88, 161, 2, 3.47623
186, 1, wb, attraction, a-b-db, 5, 2, 1, 37, 90, 165, 165, 90, 88, 161, 1, 0.582963
186, 1, wb, attraction, a-b-db, 14, 3, 2, 1, 195, 120, 120, 195, 111, 181, 3, 2.82142
186, 1, wb, attraction, a-b-db, 14, 3, 2, 1, 195, 120, 120, 195, 111, 181, 1, 1.13062
186, 1, wb, attraction, a-b-db, 9, 3, 2, 2, 120, 195, 195, 120, 114, 186, 3, 1.80283
186, 1, wb, attraction, a-b-db, 9, 3, 2, 2, 120, 195, 195, 120, 114, 186, 2, 3.88955
186, 1, wb, attraction, a-b-da, 9, 1, 2, 3, 135, 60, 129, 57, 60, 135, 3, 7.011
186, 1, wb, attraction, a-b-da, 9, 1, 2, 3, 135, 60, 129, 57, 60, 135, 1, 1.85536
186, 1, wb, attraction, a-b-db, 2, 2, 2, 4, 165, 90, 89, 163, 90, 165, 2, 3.74678
186, 1, wb, attraction, a-b-db, 2, 2, 2, 4, 165, 90, 89, 163, 90, 165, 3, 1.49094
186, 1, wb, filler, NA, 999, 999, 2, 5, 142, 78, 125, 129, 56, 66, 3, 0.860278
186, 1, wb, filler, NA, 999, 999, 2, 5, 142, 78, 125, 129, 56, 66, 2, 1.31277
186, 1, wb, attraction, a-b-db, 5, 2, 2, 6, 88, 161, 165, 90, 90, 165, 1, 2.80962
186, 1, wb, attraction, a-b-db, 5, 2, 2, 6, 88, 161, 165, 90, 90, 165, 3, 0.671378
186, 1, wb, attraction, a-b-da, 14, 2, 2, 7, 165, 90, 90, 165, 153, 83, 3, 5.56247
186, 1, wb, attraction, a-b-da, 14, 2, 2, 7, 165, 90, 90, 165, 153, 83, 1, 1.77728
186, 1, wb, filler, NA, 999, 999, 2, 8, 85, 100, 195, 179, 152, 66, 3, 3.03936
186, 1, wb, filler, NA, 999, 999, 2, 8, 85, 100, 195, 179, 152, 66, 2, 0.899854
186, 1, wb, catch, NA, 999, 999, 2, 9, 102, 93, 104, 151, 173, 142, 1, 1.5814
186, 1, wb, catch, NA, 999, 999, 2, 9, 102, 93, 104, 151, 173, 142, 3, 0.596909
186, 1, wb, filler, NA, 999, 999, 2, 10, 132, 86, 136, 106, 142, 168, 1, 1.27462
186, 1, wb, filler, NA, 999, 999, 2, 10, 132, 86, 136, 106, 142, 168, 3, 0.478211
186, 1, wb, attraction, a-b-da, 14, 3, 2, 11, 120, 195, 195, 120, 181, 111, 3, 4.40066
186, 1, wb, attraction, a-b-da, 14, 3, 2, 11, 120, 195, 195, 120, 181, 111, 1, 1.21455
186, 1, wb, filler, NA, 999, 999, 2, 12, 100, 162, 80, 135, 109, 160, 2, 1.11537
186, 1, wb, filler, NA, 999, 999, 2, 12, 100, 162, 80, 135, 109, 160, 1, 1.08583
186, 1, wb, attraction, a-b-db, 5, 1, 2, 13, 60, 135, 58, 132, 135, 60, 3, 4.53601
186, 1, wb, attraction, a-b-db, 5, 1, 2, 13, 60, 135, 58, 132, 135, 60, 1, 0.984594
186, 1, wb, attraction, a-b-db, 5, 3, 2, 14, 120, 195, 195, 120, 117, 190, 3, 1.82301
186, 1, wb, attraction, a-b-db, 5, 3, 2, 14, 120, 195, 195, 120, 117, 190, 1, 0.84431
186, 1, wb, attraction, a-b-db, 2, 1, 2, 15, 135, 60, 60, 135, 59, 134, 3, 2.05611
186, 1, wb, attraction, a-b-db, 2, 1, 2, 15, 135, 60, 60, 135, 59, 134, 1, 0.987995
186, 1, wb, attraction, a-b-da, 5, 3, 2, 16, 120, 195, 190, 117, 195, 120, 3, 1.75426
186, 1, wb, attraction, a-b-da, 5, 3, 2, 16, 120, 195, 190, 117, 195, 120, 1, 0.578423
186, 1, wb, attraction, a-b-da, 5, 2, 2, 17, 161, 88, 165, 90, 90, 165, 1, 4.0169
186, 1, wb, attraction, a-b-da, 5, 2, 2, 17, 161, 88, 165, 90, 90, 165, 3, 1.70217
186, 1, wb, attraction, a-b-da, 2, 3, 2, 18, 195, 120, 193, 119, 120, 195, 2, 2.41563
186, 1, wb, attraction, a-b-da, 2, 3, 2, 18, 195, 120, 193, 119, 120, 195, 3, 1.66139
186, 1, wb, filler, NA, 999, 999, 2, 19, 191, 113, 107, 136, 142, 172, 2, 1.01629
186, 1, wb, filler, NA, 999, 999, 2, 19, 191, 113, 107, 136, 142, 172, 3, 1.63862
186, 1, wb, attraction, a-b-db, 9, 1, 2, 20, 57, 129, 60, 135, 135, 60, 3, 4.81072
186, 1, wb, attraction, a-b-db, 9, 1, 2, 20, 57, 129, 60, 135, 135, 60, 2, 0.599685
186, 1, wb, attraction, a-b-db, 2, 3, 2, 21, 120, 195, 119, 193, 195, 120, 3, 1.45349
186, 1, wb, attraction, a-b-db, 2, 3, 2, 21, 120, 195, 119, 193, 195, 120, 2, 1.37068
186, 1, wb, filler, NA, 999, 999, 2, 22, 182, 135, 94, 124, 126, 104, 2, 5.68926
186, 1, wb, filler, NA, 999, 999, 2, 22, 182, 135, 94, 124, 126, 104, 1, 0.683514
186, 1, wb, attraction, a-b-db, 14, 1, 2, 23, 56, 125, 135, 60, 60, 135, 1, 2.80577
186, 1, wb, attraction, a-b-db, 14, 1, 2, 23, 56, 125, 135, 60, 60, 135, 2, 1.49972
186, 1, wb, attraction, a-b-da, 2, 1, 2, 24, 60, 135, 135, 60, 134, 59, 3, 1.90106
186, 1, wb, attraction, a-b-da, 2, 1, 2, 24, 60, 135, 135, 60, 134, 59, 1, 1.22381
186, 1, wb, attraction, a-b-db, 9, 2, 2, 25, 90, 165, 165, 90, 86, 157, 3, 2.46806
186, 1, wb, attraction, a-b-db, 9, 2, 2, 25, 90, 165, 165, 90, 86, 157, 1, 0.735931
186, 1, wb, filler, NA, 999, 999, 2, 26, 143, 106, 81, 166, 63, 60, 3, 0.792238
186, 1, wb, filler, NA, 999, 999, 2, 26, 143, 106, 81, 166, 63, 60, 1, 0.807348
186, 1, wb, attraction, a-b-da, 14, 1, 2, 27, 125, 56, 60, 135, 135, 60, 2, 5.97246
186, 1, wb, attraction, a-b-da, 14, 1, 2, 27, 125, 56, 60, 135, 135, 60, 3, 1.03443
186, 1, wb, filler, NA, 999, 999, 2, 28, 70, 130, 188, 179, 195, 123, 1, 1.02265
186, 1, wb, filler, NA, 999, 999, 2, 28, 70, 130, 188, 179, 195, 123, 2, 0.724329
186, 1, wb, attraction, a-b-da, 2, 2, 2, 29, 163, 89, 165, 90, 90, 165, 1, 4.54084
186, 1, wb, attraction, a-b-da, 2, 2, 2, 29, 163, 89, 165, 90, 90, 165, 3, 0.660618
186, 1, wb, attraction, a-b-da, 9, 3, 2, 30, 120, 195, 195, 120, 186, 114, 3, 2.34364
186, 1, wb, attraction, a-b-da, 9, 3, 2, 30, 120, 195, 195, 120, 186, 114, 1, 0.576212
186, 1, wb, filler, NA, 999, 999, 2, 31, 102, 73, 187, 74, 56, 188, 1, 1.2387
186, 1, wb, filler, NA, 999, 999, 2, 31, 102, 73, 187, 74, 56, 188, 2, 0.715673
186, 1, wb, filler, NA, 999, 999, 2, 32, 108, 111, 194, 63, 178, 112, 1, 1.15679
186, 1, wb, filler, NA, 999, 999, 2, 32, 108, 111, 194, 63, 178, 112, 3, 0.860923
186, 1, wb, catch, NA, 999, 999, 2, 33, 64, 131, 136, 119, 121, 194, 1, 1.09587
186, 1, wb, catch, NA, 999, 999, 2, 33, 64, 131, 136, 119, 121, 194, 3, 0.530939
186, 1, wb, attraction, a-b-db, 14, 2, 2, 34, 83, 153, 165, 90, 90, 165, 1, 3.34741
186, 1, wb, attraction, a-b-db, 14, 2, 2, 34, 83, 153, 165, 90, 90, 165, 3, 1.1477
186, 1, wb, attraction, a-b-da, 9, 2, 2, 35, 157, 86, 90, 165, 165, 90, 3, 1.89943
186, 1, wb, attraction, a-b-da, 9, 2, 2, 35, 157, 86, 90, 165, 165, 90, 2, 2.18188
186, 1, wb, catch, NA, 999, 999, 2, 36, 118, 137, 194, 121, 60, 135, 3, 1.89982
186, 1, wb, catch, NA, 999, 999, 2, 36, 118, 137, 194, 121, 60, 135, 2, 2.35055
186, 1, wb, attraction, a-b-da, 5, 1, 2, 37, 60, 135, 135, 60, 132, 58, 3, 1.89373
186, 1, wb, attraction, a-b-da, 5, 1, 2, 37, 60, 135, 135, 60, 132, 58, 1, 1.34445
186, 1, wb, filler, NA, 999, 999, 3, 1, 57, 75, 170, 182, 172, 138, 1, 1.06392
186, 1, wb, filler, NA, 999, 999, 3, 1, 57, 75, 170, 182, 172, 138, 2, 3.20434
186, 1, wb, attraction, a-b-db, 9, 3, 3, 2, 114, 186, 195, 120, 120, 195, 2, 4.0813
186, 1, wb, attraction, a-b-db, 9, 3, 3, 2, 114, 186, 195, 120, 120, 195, 1, 1.79597
186, 1, wb, attraction, a-b-da, 9, 2, 3, 3, 90, 165, 157, 86, 165, 90, 2, 6.09725
186, 1, wb, attraction, a-b-da, 9, 2, 3, 3, 90, 165, 157, 86, 165, 90, 1, 1.18667
186, 1, wb, attraction, a-b-db, 14, 2, 3, 4, 90, 165, 83, 153, 165, 90, 2, 5.40105
186, 1, wb, attraction, a-b-db, 14, 2, 3, 4, 90, 165, 83, 153, 165, 90, 1, 1.78269
186, 1, wb, catch, NA, 999, 999, 3, 5, 107, 148, 134, 61, 188, 127, 2, 1.22862
186, 1, wb, catch, NA, 999, 999, 3, 5, 107, 148, 134, 61, 188, 127, 3, 1.85818
186, 1, wb, attraction, a-b-db, 14, 1, 3, 6, 135, 60, 56, 125, 60, 135, 2, 5.01295
186, 1, wb, attraction, a-b-db, 14, 1, 3, 6, 135, 60, 56, 125, 60, 135, 3, 0.881952
186, 1, wb, filler, NA, 999, 999, 3, 7, 119, 122, 84, 67, 131, 167, 2, 1.08441
186, 1, wb, filler, NA, 999, 999, 3, 7, 119, 122, 84, 67, 131, 167, 3, 0.488007
186, 1, wb, attraction, a-b-da, 5, 2, 3, 8, 161, 88, 90, 165, 165, 90, 1, 4.97839
186, 1, wb, attraction, a-b-da, 5, 2, 3, 8, 161, 88, 90, 165, 165, 90, 2, 0.833007
186, 1, wb, attraction, a-b-da, 5, 3, 3, 9, 190, 117, 195, 120, 120, 195, 1, 5.37309
186, 1, wb, attraction, a-b-da, 5, 3, 3, 9, 190, 117, 195, 120, 120, 195, 3, 1.31562
186, 1, wb, filler, NA, 999, 999, 3, 10, 119, 190, 159, 141, 113, 64, 3, 1.00427
186, 1, wb, filler, NA, 999, 999, 3, 10, 119, 190, 159, 141, 113, 64, 1, 0.723431
186, 1, wb, attraction, a-b-da, 9, 3, 3, 11, 186, 114, 120, 195, 195, 120, 1, 3.21173
186, 1, wb, attraction, a-b-da, 9, 3, 3, 11, 186, 114, 120, 195, 195, 120, 2, 0.905265
186, 1, wb, filler, NA, 999, 999, 3, 12, 90, 181, 90, 158, 161, 173, 2, 3.11514
186, 1, wb, filler, NA, 999, 999, 3, 12, 90, 181, 90, 158, 161, 173, 3, 0.748709
186, 1, wb, filler, NA, 999, 999, 3, 13, 153, 114, 177, 82, 176, 79, 3, 4.50835
186, 1, wb, filler, NA, 999, 999, 3, 13, 153, 114, 177, 82, 176, 79, 1, 1.29377
186, 1, wb, filler, NA, 999, 999, 3, 14, 83, 174, 173, 190, 125, 135, 1, 2.89507
186, 1, wb, filler, NA, 999, 999, 3, 14, 83, 174, 173, 190, 125, 135, 2, 2.60952
186, 1, wb, attraction, a-b-db, 2, 3, 3, 15, 195, 120, 119, 193, 120, 195, 1, 4.43795
186, 1, wb, attraction, a-b-db, 2, 3, 3, 15, 195, 120, 119, 193, 120, 195, 2, 1.04263
186, 1, wb, attraction, a-b-da, 2, 1, 3, 16, 134, 59, 60, 135, 135, 60, 2, 4.07823
186, 1, wb, attraction, a-b-da, 2, 1, 3, 16, 134, 59, 60, 135, 135, 60, 3, 1.481
186, 1, wb, attraction, a-b-da, 14, 3, 3, 17, 120, 195, 181, 111, 195, 120, 3, 4.23498
186, 1, wb, attraction, a-b-da, 14, 3, 3, 17, 120, 195, 181, 111, 195, 120, 1, 0.447786
186, 1, wb, attraction, a-b-da, 9, 1, 3, 18, 135, 60, 129, 57, 60, 135, 2, 3.67553
186, 1, wb, attraction, a-b-da, 9, 1, 3, 18, 135, 60, 129, 57, 60, 135, 3, 0.73439
186, 1, wb, attraction, a-b-db, 5, 1, 3, 19, 135, 60, 60, 135, 58, 132, 3, 2.97481
186, 1, wb, attraction, a-b-db, 5, 1, 3, 19, 135, 60, 60, 135, 58, 132, 1, 1.30174
186, 1, wb, filler, NA, 999, 999, 3, 20, 132, 85, 69, 64, 166, 137, 2, 1.23933
186, 1, wb, filler, NA, 999, 999, 3, 20, 132, 85, 69, 64, 166, 137, 3, 0.548168
186, 1, wb, attraction, a-b-db, 2, 2, 3, 21, 165, 90, 89, 163, 90, 165, 2, 2.81999
186, 1, wb, attraction, a-b-db, 2, 2, 3, 21, 165, 90, 89, 163, 90, 165, 3, 0.833742
186, 1, wb, attraction, a-b-da, 14, 2, 3, 22, 90, 165, 165, 90, 153, 83, 3, 3.67815
186, 1, wb, attraction, a-b-da, 14, 2, 3, 22, 90, 165, 165, 90, 153, 83, 1, 1.16891
186, 1, wb, attraction, a-b-db, 14, 3, 3, 23, 111, 181, 120, 195, 195, 120, 1, 2.82378
186, 1, wb, attraction, a-b-db, 14, 3, 3, 23, 111, 181, 120, 195, 195, 120, 3, 1.10092
186, 1, wb, attraction, a-b-db, 2, 1, 3, 24, 60, 135, 59, 134, 135, 60, 3, 1.0306
186, 1, wb, attraction, a-b-db, 2, 1, 3, 24, 60, 135, 59, 134, 135, 60, 1, 2.89224
186, 1, wb, catch, NA, 999, 999, 3, 25, 99, 96, 110, 145, 130, 185, 1, 0.861276
186, 1, wb, catch, NA, 999, 999, 3, 25, 99, 96, 110, 145, 130, 185, 3, 1.08171
186, 1, wb, attraction, a-b-db, 5, 2, 3, 26, 165, 90, 88, 161, 90, 165, 2, 3.13993
186, 1, wb, attraction, a-b-db, 5, 2, 3, 26, 165, 90, 88, 161, 90, 165, 3, 2.52419
186, 1, wb, filler, NA, 999, 999, 3, 27, 85, 159, 115, 71, 118, 108, 2, 1.28407
186, 1, wb, filler, NA, 999, 999, 3, 27, 85, 159, 115, 71, 118, 108, 1, 3.90362
186, 1, wb, attraction, a-b-db, 5, 3, 3, 28, 120, 195, 195, 120, 117, 190, 3, 1.55231
186, 1, wb, attraction, a-b-db, 5, 3, 3, 28, 120, 195, 195, 120, 117, 190, 1, 1.90514
186, 1, wb, attraction, a-b-da, 5, 1, 3, 29, 132, 58, 135, 60, 60, 135, 1, 2.80249
186, 1, wb, attraction, a-b-da, 5, 1, 3, 29, 132, 58, 135, 60, 60, 135, 3, 2.20095
186, 1, wb, attraction, a-b-da, 14, 1, 3, 30, 135, 60, 60, 135, 125, 56, 3, 1.5102
186, 1, wb, attraction, a-b-da, 14, 1, 3, 30, 135, 60, 60, 135, 125, 56, 2, 2.11244
186, 1, wb, attraction, a-b-da, 2, 2, 3, 31, 165, 90, 163, 89, 90, 165, 2, 2.09696
186, 1, wb, attraction, a-b-da, 2, 2, 3, 31, 165, 90, 163, 89, 90, 165, 3, 2.49172
186, 1, wb, filler, NA, 999, 999, 3, 32, 190, 73, 95, 98, 194, 175, 2, 1.88475
186, 1, wb, filler, NA, 999, 999, 3, 32, 190, 73, 95, 98, 194, 175, 3, 0.400218
186, 1, wb, catch, NA, 999, 999, 3, 33, 107, 88, 143, 112, 170, 145, 1, 1.77385
186, 1, wb, catch, NA, 999, 999, 3, 33, 107, 88, 143, 112, 170, 145, 3, 0.661376
186, 1, wb, attraction, a-b-db, 9, 1, 3, 34, 57, 129, 60, 135, 135, 60, 1, 2.39241
186, 1, wb, attraction, a-b-db, 9, 1, 3, 34, 57, 129, 60, 135, 135, 60, 2, 2.76693
186, 1, wb, attraction, a-b-db, 9, 2, 3, 35, 165, 90, 86, 157, 90, 165, 1, 8.0214
186, 1, wb, attraction, a-b-db, 9, 2, 3, 35, 165, 90, 86, 157, 90, 165, 3, 0.537471
186, 1, wb, attraction, a-b-da, 2, 3, 3, 36, 120, 195, 195, 120, 193, 119, 3, 3.03423
186, 1, wb, attraction, a-b-da, 2, 3, 3, 36, 120, 195, 195, 120, 193, 119, 1, 0.383094
186, 1, wb, filler, NA, 999, 999, 3, 37, 192, 167, 71, 64, 143, 127, 2, 1.14951
186, 1, wb, filler, NA, 999, 999, 3, 37, 192, 167, 71, 64, 143, 127, 1, 0.294492
186, 1, wb, attraction, a-b-da, 14, 2, 4, 1, 153, 83, 90, 165, 165, 90, 1, 5.61625
186, 1, wb, attraction, a-b-da, 14, 2, 4, 1, 153, 83, 90, 165, 165, 90, 2, 0.709304
186, 1, wb, attraction, a-b-db, 2, 3, 4, 2, 120, 195, 195, 120, 119, 193, 3, 1.62223
186, 1, wb, attraction, a-b-db, 2, 3, 4, 2, 120, 195, 195, 120, 119, 193, 2, 1.92379
186, 1, wb, attraction, a-b-db, 9, 2, 4, 3, 165, 90, 90, 165, 86, 157, 1, 2.47573
186, 1, wb, attraction, a-b-db, 9, 2, 4, 3, 165, 90, 90, 165, 86, 157, 2, 0.982975
186, 1, wb, attraction, a-b-db, 5, 1, 4, 4, 60, 135, 135, 60, 58, 132, 3, 2.56534
186, 1, wb, attraction, a-b-db, 5, 1, 4, 4, 60, 135, 135, 60, 58, 132, 1, 0.612981
186, 1, wb, filler, NA, 999, 999, 4, 5, 70, 170, 110, 100, 79, 97, 3, 1.2501
186, 1, wb, filler, NA, 999, 999, 4, 5, 70, 170, 110, 100, 79, 97, 1, 1.93506
186, 1, wb, attraction, a-b-db, 5, 3, 4, 6, 195, 120, 120, 195, 117, 190, 3, 3.40702
186, 1, wb, attraction, a-b-db, 5, 3, 4, 6, 195, 120, 120, 195, 117, 190, 1, 4.57261
186, 1, wb, filler, NA, 999, 999, 4, 7, 116, 177, 195, 195, 130, 179, 1, 1.41844
186, 1, wb, filler, NA, 999, 999, 4, 7, 116, 177, 195, 195, 130, 179, 2, 0.496631
186, 1, wb, attraction, a-b-db, 2, 2, 4, 8, 90, 165, 165, 90, 89, 163, 3, 4.25856
186, 1, wb, attraction, a-b-db, 2, 2, 4, 8, 90, 165, 165, 90, 89, 163, 1, 2.09378
186, 1, wb, attraction, a-b-da, 9, 2, 4, 9, 90, 165, 157, 86, 165, 90, 2, 5.1992
186, 1, wb, attraction, a-b-da, 9, 2, 4, 9, 90, 165, 157, 86, 165, 90, 1, 0.6448
186, 1, wb, catch, NA, 999, 999, 4, 10, 163, 152, 163, 92, 70, 125, 3, 0.97647
186, 1, wb, catch, NA, 999, 999, 4, 10, 163, 152, 163, 92, 70, 125, 1, 0.336123
186, 1, wb, filler, NA, 999, 999, 4, 11, 74, 82, 101, 67, 182, 148, 1, 1.52053
186, 1, wb, filler, NA, 999, 999, 4, 11, 74, 82, 101, 67, 182, 148, 3, 0.698783
186, 1, wb, attraction, a-b-da, 2, 2, 4, 12, 165, 90, 163, 89, 90, 165, 2, 4.2685
186, 1, wb, attraction, a-b-da, 2, 2, 4, 12, 165, 90, 163, 89, 90, 165, 3, 1.03984
186, 1, wb, attraction, a-b-db, 9, 1, 4, 13, 57, 129, 135, 60, 60, 135, 1, 4.37212
186, 1, wb, attraction, a-b-db, 9, 1, 4, 13, 57, 129, 135, 60, 60, 135, 3, 2.92344
186, 1, wb, filler, NA, 999, 999, 4, 14, 177, 112, 121, 95, 152, 195, 2, 1.94786
186, 1, wb, filler, NA, 999, 999, 4, 14, 177, 112, 121, 95, 152, 195, 3, 0.780636
186, 1, wb, attraction, a-b-db, 5, 2, 4, 15, 165, 90, 88, 161, 90, 165, 2, 7.80291
186, 1, wb, attraction, a-b-db, 5, 2, 4, 15, 165, 90, 88, 161, 90, 165, 1, 0.615693
186, 1, wb, attraction, a-b-db, 14, 1, 4, 16, 60, 135, 56, 125, 135, 60, 2, 2.46078
186, 1, wb, attraction, a-b-db, 14, 1, 4, 16, 60, 135, 56, 125, 135, 60, 1, 3.21662
186, 1, wb, attraction, a-b-da, 2, 3, 4, 17, 120, 195, 195, 120, 193, 119, 3, 1.65304
186, 1, wb, attraction, a-b-da, 2, 3, 4, 17, 120, 195, 195, 120, 193, 119, 1, 1.0665
186, 1, wb, catch, NA, 999, 999, 4, 18, 91, 104, 99, 156, 146, 169, 1, 0.900637
186, 1, wb, catch, NA, 999, 999, 4, 18, 91, 104, 99, 156, 146, 169, 3, 0.543617
186, 1, wb, attraction, a-b-da, 9, 3, 4, 19, 186, 114, 195, 120, 120, 195, 1, 3.80735
186, 1, wb, attraction, a-b-da, 9, 3, 4, 19, 186, 114, 195, 120, 120, 195, 3, 0.524865
186, 1, wb, attraction, a-b-da, 2, 1, 4, 20, 135, 60, 134, 59, 60, 135, 2, 6.48539
186, 1, wb, attraction, a-b-da, 2, 1, 4, 20, 135, 60, 134, 59, 60, 135, 3, 0.152587
186, 1, wb, attraction, a-b-db, 14, 2, 4, 21, 165, 90, 83, 153, 90, 165, 2, 4.09522
186, 1, wb, attraction, a-b-db, 14, 2, 4, 21, 165, 90, 83, 153, 90, 165, 3, 0.889275
186, 1, wb, attraction, a-b-db, 14, 3, 4, 22, 111, 181, 120, 195, 195, 120, 3, 3.49953
186, 1, wb, attraction, a-b-db, 14, 3, 4, 22, 111, 181, 120, 195, 195, 120, 2, 0.637756
186, 1, wb, catch, NA, 999, 999, 4, 23, 153, 162, 76, 119, 118, 137, 2, 1.07417
186, 1, wb, catch, NA, 999, 999, 4, 23, 153, 162, 76, 119, 118, 137, 1, 0.373913
186, 1, wb, filler, NA, 999, 999, 4, 24, 83, 169, 153, 126, 107, 65, 3, 0.788296
186, 1, wb, filler, NA, 999, 999, 4, 24, 83, 169, 153, 126, 107, 65, 2, 0.63542
186, 1, wb, attraction, a-b-db, 2, 1, 4, 25, 60, 135, 135, 60, 59, 134, 3, 2.79179
186, 1, wb, attraction, a-b-db, 2, 1, 4, 25, 60, 135, 135, 60, 59, 134, 2, 0.694234
186, 1, wb, filler, NA, 999, 999, 4, 26, 62, 173, 88, 134, 173, 192, 1, 1.59999
186, 1, wb, filler, NA, 999, 999, 4, 26, 62, 173, 88, 134, 173, 192, 3, 0.606695
186, 1, wb, attraction, a-b-da, 14, 3, 4, 27, 120, 195, 195, 120, 181, 111, 3, 3.48383
186, 1, wb, attraction, a-b-da, 14, 3, 4, 27, 120, 195, 195, 120, 181, 111, 2, 0.478694
186, 1, wb, filler, NA, 999, 999, 4, 28, 192, 168, 117, 109, 163, 175, 2, 1.0171
186, 1, wb, filler, NA, 999, 999, 4, 28, 192, 168, 117, 109, 163, 175, 1, 0.343453
186, 1, wb, attraction, a-b-da, 5, 2, 4, 29, 90, 165, 161, 88, 165, 90, 1, 3.46325
186, 1, wb, attraction, a-b-da, 5, 2, 4, 29, 90, 165, 161, 88, 165, 90, 2, 1.18684
186, 1, wb, attraction, a-b-da, 5, 3, 4, 30, 120, 195, 195, 120, 190, 117, 3, 2.96111
186, 1, wb, attraction, a-b-da, 5, 3, 4, 30, 120, 195, 195, 120, 190, 117, 1, 0.576841
186, 1, wb, attraction, a-b-da, 5, 1, 4, 31, 132, 58, 60, 135, 135, 60, 3, 7.15123
186, 1, wb, attraction, a-b-da, 5, 1, 4, 31, 132, 58, 60, 135, 135, 60, 2, 0.814388
186, 1, wb, filler, NA, 999, 999, 4, 32, 186, 155, 143, 156, 91, 116, 3, 0.995263
186, 1, wb, filler, NA, 999, 999, 4, 32, 186, 155, 143, 156, 91, 116, 1, 0.60225
186, 1, wb, attraction, a-b-db, 9, 3, 4, 33, 114, 186, 120, 195, 195, 120, 3, 3.58411
186, 1, wb, attraction, a-b-db, 9, 3, 4, 33, 114, 186, 120, 195, 195, 120, 2, 0.446936
186, 1, wb, attraction, a-b-da, 9, 1, 4, 34, 135, 60, 60, 135, 129, 57, 3, 1.65866
186, 1, wb, attraction, a-b-da, 9, 1, 4, 34, 135, 60, 60, 135, 129, 57, 2, 1.86296
186, 1, wb, attraction, a-b-da, 14, 1, 4, 35, 135, 60, 60, 135, 125, 56, 3, 1.50555
186, 1, wb, attraction, a-b-da, 14, 1, 4, 35, 135, 60, 60, 135, 125, 56, 2, 1.55574
186, 1, wb, filler, NA, 999, 999, 4, 36, 146, 182, 146, 190, 178, 77, 3, 1.22711
186, 1, wb, filler, NA, 999, 999, 4, 36, 146, 182, 146, 190, 178, 77, 2, 2.36088
186, 1, wb, filler, NA, 999, 999, 4, 37, 85, 91, 117, 154, 112, 123, 1, 1.19131
186, 1, wb, filler, NA, 999, 999, 4, 37, 85, 91, 117, 154, 112, 123, 2, 0.502222
186, 1, wb, attraction, a-b-db, 14, 1, 5, 1, 135, 60, 56, 125, 60, 135, 2, 9.12657
186, 1, wb, attraction, a-b-db, 14, 1, 5, 1, 135, 60, 56, 125, 60, 135, 1, 2.78178
186, 1, wb, filler, NA, 999, 999, 5, 2, 138, 140, 193, 154, 146, 137, 3, 7.11553
186, 1, wb, filler, NA, 999, 999, 5, 2, 138, 140, 193, 154, 146, 137, 2, 1.78801
186, 1, wb, attraction, a-b-db, 2, 1, 5, 3, 59, 134, 60, 135, 135, 60, 3, 8.70612
186, 1, wb, attraction, a-b-db, 2, 1, 5, 3, 59, 134, 60, 135, 135, 60, 2, 2.16265
186, 1, wb, filler, NA, 999, 999, 5, 4, 193, 69, 195, 172, 183, 78, 1, 3.88109
186, 1, wb, filler, NA, 999, 999, 5, 4, 193, 69, 195, 172, 183, 78, 2, 3.1321
186, 1, wb, attraction, a-b-db, 14, 2, 5, 5, 90, 165, 83, 153, 165, 90, 3, 5.27554
186, 1, wb, attraction, a-b-db, 14, 2, 5, 5, 90, 165, 83, 153, 165, 90, 1, 2.56586
186, 1, wb, attraction, a-b-da, 5, 1, 5, 6, 60, 135, 132, 58, 135, 60, 3, 4.89243
186, 1, wb, attraction, a-b-da, 5, 1, 5, 6, 60, 135, 132, 58, 135, 60, 1, 1.71816
186, 1, wb, filler, NA, 999, 999, 5, 7, 61, 63, 142, 70, 149, 142, 1, 3.20688
186, 1, wb, filler, NA, 999, 999, 5, 7, 61, 63, 142, 70, 149, 142, 3, 1.29251
186, 1, wb, attraction, a-b-da, 9, 2, 5, 8, 165, 90, 90, 165, 157, 86, 3, 4.39002
186, 1, wb, attraction, a-b-da, 9, 2, 5, 8, 165, 90, 90, 165, 157, 86, 2, 1.77207
186, 1, wb, catch, NA, 999, 999, 5, 9, 180, 135, 85, 110, 113, 142, 2, 3.25875
186, 1, wb, catch, NA, 999, 999, 5, 9, 180, 135, 85, 110, 113, 142, 1, 1.69439
186, 1, wb, attraction, a-b-db, 9, 3, 5, 10, 195, 120, 114, 186, 120, 195, 1, 10.0317
186, 1, wb, attraction, a-b-db, 9, 3, 5, 10, 195, 120, 114, 186, 120, 195, 3, 2.27469
186, 1, wb, attraction, a-b-da, 5, 2, 5, 11, 161, 88, 90, 165, 165, 90, 1, 4.62838
186, 1, wb, attraction, a-b-da, 5, 2, 5, 11, 161, 88, 90, 165, 165, 90, 2, 1.92106
186, 1, wb, filler, NA, 999, 999, 5, 12, 69, 125, 79, 94, 56, 161, 3, 5.66573
186, 1, wb, filler, NA, 999, 999, 5, 12, 69, 125, 79, 94, 56, 161, 1, 1.3166
186, 1, wb, attraction, a-b-da, 2, 3, 5, 13, 120, 195, 195, 120, 193, 119, 3, 4.50146
186, 1, wb, attraction, a-b-da, 2, 3, 5, 13, 120, 195, 195, 120, 193, 119, 1, 1.47925
186, 1, wb, attraction, a-b-da, 2, 2, 5, 14, 90, 165, 165, 90, 163, 89, 3, 3.76952
186, 1, wb, attraction, a-b-da, 2, 2, 5, 14, 90, 165, 165, 90, 163, 89, 1, 1.20889
186, 1, wb, attraction, a-b-da, 14, 2, 5, 15, 165, 90, 90, 165, 153, 83, 3, 3.38979
186, 1, wb, attraction, a-b-da, 14, 2, 5, 15, 165, 90, 90, 165, 153, 83, 2, 0.916144
186, 1, wb, filler, NA, 999, 999, 5, 16, 57, 68, 157, 130, 68, 85, 1, 2.533
186, 1, wb, filler, NA, 999, 999, 5, 16, 57, 68, 157, 130, 68, 85, 2, 0.806141
186, 1, wb, attraction, a-b-db, 9, 1, 5, 17, 57, 129, 135, 60, 60, 135, 1, 3.68399
186, 1, wb, attraction, a-b-db, 9, 1, 5, 17, 57, 129, 135, 60, 60, 135, 2, 1.56676
186, 1, wb, attraction, a-b-da, 14, 3, 5, 18, 181, 111, 195, 120, 120, 195, 1, 2.86965
186, 1, wb, attraction, a-b-da, 14, 3, 5, 18, 181, 111, 195, 120, 120, 195, 3, 1.19333
186, 1, wb, catch, NA, 999, 999, 5, 19, 122, 193, 140, 115, 109, 86, 3, 2.6229
186, 1, wb, catch, NA, 999, 999, 5, 19, 122, 193, 140, 115, 109, 86, 1, 0.732046
186, 1, wb, attraction, a-b-db, 5, 1, 5, 20, 135, 60, 58, 132, 60, 135, 2, 6.70034
186, 1, wb, attraction, a-b-db, 5, 1, 5, 20, 135, 60, 58, 132, 60, 135, 1, 0.853494
186, 1, wb, attraction, a-b-db, 2, 2, 5, 21, 90, 165, 89, 163, 165, 90, 3, 4.08928
186, 1, wb, attraction, a-b-db, 2, 2, 5, 21, 90, 165, 89, 163, 165, 90, 2, 0.803494
186, 1, wb, attraction, a-b-da, 5, 3, 5, 22, 195, 120, 190, 117, 120, 195, 1, 2.56892
186, 1, wb, attraction, a-b-da, 5, 3, 5, 22, 195, 120, 190, 117, 120, 195, 3, 0.864798
186, 1, wb, attraction, a-b-da, 2, 1, 5, 23, 135, 60, 60, 135, 134, 59, 3, 2.1798
186, 1, wb, attraction, a-b-da, 2, 1, 5, 23, 135, 60, 60, 135, 134, 59, 2, 0.931173
186, 1, wb, filler, NA, 999, 999, 5, 24, 178, 58, 70, 175, 170, 98, 1, 1.68348
186, 1, wb, filler, NA, 999, 999, 5, 24, 178, 58, 70, 175, 170, 98, 3, 1.03101
186, 1, wb, attraction, a-b-da, 9, 1, 5, 25, 129, 57, 135, 60, 60, 135, 1, 2.15525
186, 1, wb, attraction, a-b-da, 9, 1, 5, 25, 129, 57, 135, 60, 60, 135, 3, 0.971056
186, 1, wb, filler, NA, 999, 999, 5, 26, 122, 172, 121, 100, 115, 193, 2, 2.18638
186, 1, wb, filler, NA, 999, 999, 5, 26, 122, 172, 121, 100, 115, 193, 1, 0.657355
186, 1, wb, attraction, a-b-da, 14, 1, 5, 27, 60, 135, 125, 56, 135, 60, 2, 2.19649
186, 1, wb, attraction, a-b-da, 14, 1, 5, 27, 60, 135, 125, 56, 135, 60, 1, 0.851012
186, 1, wb, filler, NA, 999, 999, 5, 28, 176, 184, 192, 97, 121, 73, 3, 2.31878
186, 1, wb, filler, NA, 999, 999, 5, 28, 176, 184, 192, 97, 121, 73, 1, 0.816676
186, 1, wb, catch, NA, 999, 999, 5, 29, 88, 107, 164, 151, 157, 98, 1, 2.62167
186, 1, wb, catch, NA, 999, 999, 5, 29, 88, 107, 164, 151, 157, 98, 2, 0.739451
186, 1, wb, attraction, a-b-db, 5, 3, 5, 30, 195, 120, 117, 190, 120, 195, 2, 4.25994
186, 1, wb, attraction, a-b-db, 5, 3, 5, 30, 195, 120, 117, 190, 120, 195, 1, 0.527287
186, 1, wb, filler, NA, 999, 999, 5, 31, 69, 118, 86, 123, 152, 109, 1, 2.78368
186, 1, wb, filler, NA, 999, 999, 5, 31, 69, 118, 86, 123, 152, 109, 3, 0.910851
186, 1, wb, attraction, a-b-da, 9, 3, 5, 32, 186, 114, 195, 120, 120, 195, 1, 3.1601
186, 1, wb, attraction, a-b-da, 9, 3, 5, 32, 186, 114, 195, 120, 120, 195, 3, 0.871459
186, 1, wb, attraction, a-b-db, 9, 2, 5, 33, 90, 165, 165, 90, 86, 157, 3, 4.77847
186, 1, wb, attraction, a-b-db, 9, 2, 5, 33, 90, 165, 165, 90, 86, 157, 1, 0.648796
186, 1, wb, attraction, a-b-db, 2, 3, 5, 34, 120, 195, 195, 120, 119, 193, 2, 4.22864
186, 1, wb, attraction, a-b-db, 2, 3, 5, 34, 120, 195, 195, 120, 119, 193, 1, 0.641334
186, 1, wb, attraction, a-b-db, 5, 2, 5, 35, 90, 165, 165, 90, 88, 161, 3, 2.517
186, 1, wb, attraction, a-b-db, 5, 2, 5, 35, 90, 165, 165, 90, 88, 161, 1, 1.24697
186, 1, wb, attraction, a-b-db, 14, 3, 5, 36, 120, 195, 195, 120, 111, 181, 3, 4.26649
186, 1, wb, attraction, a-b-db, 14, 3, 5, 36, 120, 195, 195, 120, 111, 181, 1, 0.821808
186, 1, wb, filler, NA, 999, 999, 5, 37, 105, 77, 168, 168, 128, 108, 1, 1.66677
186, 1, wb, filler, NA, 999, 999, 5, 37, 105, 77, 168, 168, 128, 108, 2, 1.2069
186, 1, wb, filler, NA, 999, 999, 6, 1, 188, 76, 81, 125, 164, 109, 2, 2.96378
186, 1, wb, filler, NA, 999, 999, 6, 1, 188, 76, 81, 125, 164, 109, 3, 1.17149
186, 1, wb, filler, NA, 999, 999, 6, 2, 124, 96, 163, 103, 117, 86, 3, 2.23434
186, 1, wb, filler, NA, 999, 999, 6, 2, 124, 96, 163, 103, 117, 86, 2, 1.15961
186, 1, wb, attraction, a-b-da, 5, 3, 6, 3, 190, 117, 195, 120, 120, 195, 2, 3.82261
186, 1, wb, attraction, a-b-da, 5, 3, 6, 3, 190, 117, 195, 120, 120, 195, 3, 1.25136
186, 1, wb, attraction, a-b-db, 5, 1, 6, 4, 60, 135, 58, 132, 135, 60, 2, 2.151
186, 1, wb, attraction, a-b-db, 5, 1, 6, 4, 60, 135, 58, 132, 135, 60, 1, 2.1595
186, 1, wb, attraction, a-b-da, 9, 1, 6, 5, 129, 57, 135, 60, 60, 135, 1, 3.31029
186, 1, wb, attraction, a-b-da, 9, 1, 6, 5, 129, 57, 135, 60, 60, 135, 3, 2.97575
186, 1, wb, attraction, a-b-db, 14, 1, 6, 6, 60, 135, 135, 60, 56, 125, 3, 1.74937
186, 1, wb, attraction, a-b-db, 14, 1, 6, 6, 60, 135, 135, 60, 56, 125, 1, 1.39818
186, 1, wb, attraction, a-b-da, 2, 2, 6, 7, 163, 89, 90, 165, 165, 90, 1, 2.50776
186, 1, wb, attraction, a-b-da, 2, 2, 6, 7, 163, 89, 90, 165, 165, 90, 2, 0.757476
186, 1, wb, attraction, a-b-db, 9, 2, 6, 8, 86, 157, 90, 165, 165, 90, 3, 1.86054
186, 1, wb, attraction, a-b-db, 9, 2, 6, 8, 86, 157, 90, 165, 165, 90, 2, 1.16065
186, 1, wb, filler, NA, 999, 999, 6, 9, 148, 110, 67, 70, 93, 158, 2, 1.07151
186, 1, wb, filler, NA, 999, 999, 6, 9, 148, 110, 67, 70, 93, 158, 1, 0.699844
186, 1, wb, attraction, a-b-da, 2, 1, 6, 10, 134, 59, 60, 135, 135, 60, 1, 4.10959
186, 1, wb, attraction, a-b-da, 2, 1, 6, 10, 134, 59, 60, 135, 135, 60, 2, 0.606852
186, 1, wb, attraction, a-b-da, 9, 3, 6, 11, 195, 120, 186, 114, 120, 195, 2, 3.93196
186, 1, wb, attraction, a-b-da, 9, 3, 6, 11, 195, 120, 186, 114, 120, 195, 3, 0.7567
186, 1, wb, attraction, a-b-db, 2, 3, 6, 12, 195, 120, 119, 193, 120, 195, 3, 2.0764
186, 1, wb, attraction, a-b-db, 2, 3, 6, 12, 195, 120, 119, 193, 120, 195, 1, 3.23979
186, 1, wb, attraction, a-b-da, 5, 1, 6, 13, 135, 60, 132, 58, 60, 135, 3, 3.61141
186, 1, wb, attraction, a-b-da, 5, 1, 6, 13, 135, 60, 132, 58, 60, 135, 1, 0.640887
186, 1, wb, filler, NA, 999, 999, 6, 14, 120, 84, 95, 145, 116, 95, 3, 1.61271
186, 1, wb, filler, NA, 999, 999, 6, 14, 120, 84, 95, 145, 116, 95, 2, 1.14684
186, 1, wb, filler, NA, 999, 999, 6, 15, 167, 121, 93, 172, 81, 58, 3, 2.1463
186, 1, wb, filler, NA, 999, 999, 6, 15, 167, 121, 93, 172, 81, 58, 1, 1.067
186, 1, wb, attraction, a-b-da, 9, 2, 6, 16, 157, 86, 165, 90, 90, 165, 1, 2.79786
186, 1, wb, attraction, a-b-da, 9, 2, 6, 16, 157, 86, 165, 90, 90, 165, 3, 1.18048
186, 1, wb, attraction, a-b-da, 14, 1, 6, 17, 125, 56, 135, 60, 60, 135, 1, 3.9626
186, 1, wb, attraction, a-b-da, 14, 1, 6, 17, 125, 56, 135, 60, 60, 135, 3, 1.29799
186, 1, wb, filler, NA, 999, 999, 6, 18, 71, 82, 101, 186, 89, 88, 1, 1.43556
186, 1, wb, filler, NA, 999, 999, 6, 18, 71, 82, 101, 186, 89, 88, 2, 0.833038
186, 1, wb, catch, NA, 999, 999, 6, 19, 79, 116, 164, 151, 148, 107, 1, 1.89339
186, 1, wb, catch, NA, 999, 999, 6, 19, 79, 116, 164, 151, 148, 107, 2, 0.74417
186, 1, wb, attraction, a-b-db, 2, 1, 6, 20, 60, 135, 135, 60, 59, 134, 2, 2.95984
186, 1, wb, attraction, a-b-db, 2, 1, 6, 20, 60, 135, 135, 60, 59, 134, 3, 0.767529
186, 1, wb, attraction, a-b-db, 14, 3, 6, 21, 195, 120, 120, 195, 111, 181, 3, 1.71058
186, 1, wb, attraction, a-b-db, 14, 3, 6, 21, 195, 120, 120, 195, 111, 181, 1, 0.520653
186, 1, wb, catch, NA, 999, 999, 6, 22, 184, 131, 94, 101, 146, 109, 2, 1.66576
186, 1, wb, catch, NA, 999, 999, 6, 22, 184, 131, 94, 101, 146, 109, 1, 0.501893
186, 1, wb, attraction, a-b-db, 9, 3, 6, 23, 195, 120, 114, 186, 120, 195, 2, 3.9837
186, 1, wb, attraction, a-b-db, 9, 3, 6, 23, 195, 120, 114, 186, 120, 195, 1, 0.550447
186, 1, wb, attraction, a-b-db, 9, 1, 6, 24, 57, 129, 135, 60, 60, 135, 3, 8.1582
186, 1, wb, attraction, a-b-db, 9, 1, 6, 24, 57, 129, 135, 60, 60, 135, 2, 1.10833
186, 1, wb, attraction, a-b-db, 14, 2, 6, 25, 90, 165, 83, 153, 165, 90, 3, 1.82143
186, 1, wb, attraction, a-b-db, 14, 2, 6, 25, 90, 165, 83, 153, 165, 90, 1, 0.682682
186, 1, wb, attraction, a-b-da, 14, 3, 6, 26, 195, 120, 120, 195, 181, 111, 3, 1.81308
186, 1, wb, attraction, a-b-da, 14, 3, 6, 26, 195, 120, 120, 195, 181, 111, 2, 2.69127
186, 1, wb, attraction, a-b-db, 5, 3, 6, 27, 117, 190, 195, 120, 120, 195, 2, 6.83631
186, 1, wb, attraction, a-b-db, 5, 3, 6, 27, 117, 190, 195, 120, 120, 195, 1, 0.728004
186, 1, wb, filler, NA, 999, 999, 6, 28, 132, 90, 78, 161, 78, 92, 3, 1.09639
186, 1, wb, filler, NA, 999, 999, 6, 28, 132, 90, 78, 161, 78, 92, 1, 0.707328
186, 1, wb, filler, NA, 999, 999, 6, 29, 189, 62, 67, 166, 84, 164, 1, 2.63649
186, 1, wb, filler, NA, 999, 999, 6, 29, 189, 62, 67, 166, 84, 164, 3, 0.441539
186, 1, wb, catch, NA, 999, 999, 6, 30, 165, 150, 120, 135, 129, 66, 3, 1.82936
186, 1, wb, catch, NA, 999, 999, 6, 30, 165, 150, 120, 135, 129, 66, 1, 0.490751
186, 1, wb, filler, NA, 999, 999, 6, 31, 122, 138, 149, 68, 158, 181, 2, 1.73273
186, 1, wb, filler, NA, 999, 999, 6, 31, 122, 138, 149, 68, 158, 181, 3, 0.670189
186, 1, wb, attraction, a-b-db, 2, 2, 6, 32, 89, 163, 165, 90, 90, 165, 2, 2.9771
186, 1, wb, attraction, a-b-db, 2, 2, 6, 32, 89, 163, 165, 90, 90, 165, 1, 0.632134
186, 1, wb, attraction, a-b-da, 5, 2, 6, 33, 90, 165, 161, 88, 165, 90, 3, 2.9806
186, 1, wb, attraction, a-b-da, 5, 2, 6, 33, 90, 165, 161, 88, 165, 90, 1, 0.539459
186, 1, wb, attraction, a-b-db, 5, 2, 6, 34, 88, 161, 165, 90, 90, 165, 3, 3.95602
186, 1, wb, attraction, a-b-db, 5, 2, 6, 34, 88, 161, 165, 90, 90, 165, 1, 0.715369
186, 1, wb, attraction, a-b-da, 14, 2, 6, 35, 165, 90, 153, 83, 90, 165, 2, 1.97246
186, 1, wb, attraction, a-b-da, 14, 2, 6, 35, 165, 90, 153, 83, 90, 165, 3, 0.963766
186, 1, wb, filler, NA, 999, 999, 6, 36, 106, 154, 184, 72, 166, 93, 3, 4.13885
186, 1, wb, filler, NA, 999, 999, 6, 36, 106, 154, 184, 72, 166, 93, 1, 0.762793
186, 1, wb, attraction, a-b-da, 2, 3, 6, 37, 195, 120, 120, 195, 193, 119, 3, 2.53001
186, 1, wb, attraction, a-b-da, 2, 3, 6, 37, 195, 120, 120, 195, 193, 119, 2, 1.13899
186, 1, wb, filler, NA, 999, 999, 7, 1, 58, 189, 128, 69, 148, 127, 2, 3.69933
186, 1, wb, filler, NA, 999, 999, 7, 1, 58, 189, 128, 69, 148, 127, 3, 0.429363
186, 1, wb, attraction, a-b-db, 5, 1, 7, 2, 60, 135, 135, 60, 58, 132, 3, 2.67401
186, 1, wb, attraction, a-b-db, 5, 1, 7, 2, 60, 135, 135, 60, 58, 132, 2, 0.437001
186, 1, wb, catch, NA, 999, 999, 7, 3, 176, 139, 108, 87, 106, 149, 2, 1.70557
186, 1, wb, catch, NA, 999, 999, 7, 3, 176, 139, 108, 87, 106, 149, 1, 0.555617
186, 1, wb, attraction, a-b-da, 5, 3, 7, 4, 190, 117, 120, 195, 195, 120, 1, 4.13137
186, 1, wb, attraction, a-b-da, 5, 3, 7, 4, 190, 117, 120, 195, 195, 120, 2, 0.540152
186, 1, wb, attraction, a-b-da, 5, 1, 7, 5, 132, 58, 135, 60, 60, 135, 1, 3.71588
186, 1, wb, attraction, a-b-da, 5, 1, 7, 5, 132, 58, 135, 60, 60, 135, 3, 0.949369
186, 1, wb, filler, NA, 999, 999, 7, 6, 146, 56, 116, 139, 121, 74, 1, 2.02102
186, 1, wb, filler, NA, 999, 999, 7, 6, 146, 56, 116, 139, 121, 74, 2, 0.530968
186, 1, wb, filler, NA, 999, 999, 7, 7, 85, 152, 107, 127, 84, 98, 3, 1.90744
186, 1, wb, filler, NA, 999, 999, 7, 7, 85, 152, 107, 127, 84, 98, 2, 5.26953
186, 1, wb, attraction, a-b-db, 14, 3, 7, 8, 111, 181, 120, 195, 195, 120, 3, 4.42311
186, 1, wb, attraction, a-b-db, 14, 3, 7, 8, 111, 181, 120, 195, 195, 120, 2, 1.77975
186, 1, wb, attraction, a-b-da, 5, 2, 7, 9, 90, 165, 165, 90, 161, 88, 3, 5.06573
186, 1, wb, attraction, a-b-da, 5, 2, 7, 9, 90, 165, 165, 90, 161, 88, 1, 0.556695
186, 1, wb, catch, NA, 999, 999, 7, 10, 156, 99, 95, 100, 187, 128, 2, 5.27589
186, 1, wb, catch, NA, 999, 999, 7, 10, 156, 99, 95, 100, 187, 128, 3, 0.382395
186, 1, wb, attraction, a-b-da, 2, 1, 7, 11, 60, 135, 134, 59, 135, 60, 3, 3.95665
186, 1, wb, attraction, a-b-da, 2, 1, 7, 11, 60, 135, 134, 59, 135, 60, 1, 2.47604
186, 1, wb, attraction, a-b-db, 5, 2, 7, 12, 165, 90, 88, 161, 90, 165, 1, 4.90201
186, 1, wb, attraction, a-b-db, 5, 2, 7, 12, 165, 90, 88, 161, 90, 165, 2, 4.60783
186, 1, wb, attraction, a-b-db, 2, 3, 7, 13, 195, 120, 119, 193, 120, 195, 3, 12.3555
186, 1, wb, attraction, a-b-db, 2, 3, 7, 13, 195, 120, 119, 193, 120, 195, 2, 0.449005
186, 1, wb, filler, NA, 999, 999, 7, 14, 146, 143, 103, 62, 130, 151, 2, 1.6928
186, 1, wb, filler, NA, 999, 999, 7, 14, 146, 143, 103, 62, 130, 151, 1, 0.615619
186, 1, wb, attraction, a-b-da, 9, 2, 7, 15, 165, 90, 157, 86, 90, 165, 2, 6.51659
186, 1, wb, attraction, a-b-da, 9, 2, 7, 15, 165, 90, 157, 86, 90, 165, 3, 2.47739
186, 1, wb, attraction, a-b-da, 2, 3, 7, 16, 193, 119, 120, 195, 195, 120, 3, 3.35916
186, 1, wb, attraction, a-b-da, 2, 3, 7, 16, 193, 119, 120, 195, 195, 120, 2, 1.26262
186, 1, wb, attraction, a-b-db, 14, 1, 7, 17, 56, 125, 60, 135, 135, 60, 3, 8.84962
186, 1, wb, attraction, a-b-db, 14, 1, 7, 17, 56, 125, 60, 135, 135, 60, 2, 0.956141
186, 1, wb, filler, NA, 999, 999, 7, 18, 176, 110, 160, 68, 105, 131, 2, 6.86768
186, 1, wb, filler, NA, 999, 999, 7, 18, 176, 110, 160, 68, 105, 131, 1, 0.918213
186, 1, wb, attraction, a-b-db, 9, 2, 7, 19, 165, 90, 90, 165, 86, 157, 3, 2.61513
186, 1, wb, attraction, a-b-db, 9, 2, 7, 19, 165, 90, 90, 165, 86, 157, 1, 0.493042
186, 1, wb, filler, NA, 999, 999, 7, 20, 150, 181, 58, 195, 101, 116, 3, 5.34274
186, 1, wb, filler, NA, 999, 999, 7, 20, 150, 181, 58, 195, 101, 116, 1, 0.55853
186, 1, wb, attraction, a-b-da, 2, 2, 7, 21, 90, 165, 163, 89, 165, 90, 3, 2.73354
186, 1, wb, attraction, a-b-da, 2, 2, 7, 21, 90, 165, 163, 89, 165, 90, 1, 0.934604
186, 1, wb, attraction, a-b-da, 9, 1, 7, 22, 135, 60, 60, 135, 129, 57, 3, 2.63907
186, 1, wb, attraction, a-b-da, 9, 1, 7, 22, 135, 60, 60, 135, 129, 57, 2, 0.8355
186, 1, wb, attraction, a-b-da, 14, 2, 7, 23, 165, 90, 153, 83, 90, 165, 1, 3.08788
186, 1, wb, attraction, a-b-da, 14, 2, 7, 23, 165, 90, 153, 83, 90, 165, 3, 0.474857
186, 1, wb, filler, NA, 999, 999, 7, 24, 69, 171, 76, 173, 75, 146, 3, 3.42946
186, 1, wb, filler, NA, 999, 999, 7, 24, 69, 171, 76, 173, 75, 146, 2, 0.498168
186, 1, wb, attraction, a-b-db, 9, 3, 7, 25, 114, 186, 195, 120, 120, 195, 1, 2.41206
186, 1, wb, attraction, a-b-db, 9, 3, 7, 25, 114, 186, 195, 120, 120, 195, 2, 0.44989
186, 1, wb, filler, NA, 999, 999, 7, 26, 90, 194, 162, 160, 65, 129, 3, 1.11767
186, 1, wb, filler, NA, 999, 999, 7, 26, 90, 194, 162, 160, 65, 129, 2, 0.359958
186, 1, wb, attraction, a-b-db, 5, 3, 7, 27, 195, 120, 120, 195, 117, 190, 3, 3.42317
186, 1, wb, attraction, a-b-db, 5, 3, 7, 27, 195, 120, 120, 195, 117, 190, 2, 0.756005
186, 1, wb, attraction, a-b-da, 14, 3, 7, 28, 120, 195, 195, 120, 181, 111, 3, 2.74778
186, 1, wb, attraction, a-b-da, 14, 3, 7, 28, 120, 195, 195, 120, 181, 111, 1, 0.804164
186, 1, wb, catch, NA, 999, 999, 7, 29, 92, 163, 100, 95, 135, 180, 2, 1.02612
186, 1, wb, catch, NA, 999, 999, 7, 29, 92, 163, 100, 95, 135, 180, 3, 0.551682
186, 1, wb, attraction, a-b-db, 2, 2, 7, 30, 165, 90, 89, 163, 90, 165, 1, 3.24734
186, 1, wb, attraction, a-b-db, 2, 2, 7, 30, 165, 90, 89, 163, 90, 165, 2, 0.779625
186, 1, wb, attraction, a-b-db, 14, 2, 7, 31, 90, 165, 165, 90, 83, 153, 3, 2.15397
186, 1, wb, attraction, a-b-db, 14, 2, 7, 31, 90, 165, 165, 90, 83, 153, 1, 0.482555
186, 1, wb, filler, NA, 999, 999, 7, 32, 144, 137, 148, 75, 81, 163, 2, 2.46105
186, 1, wb, filler, NA, 999, 999, 7, 32, 144, 137, 148, 75, 81, 163, 1, 0.552904
186, 1, wb, attraction, a-b-da, 9, 3, 7, 33, 186, 114, 120, 195, 195, 120, 3, 2.64867
186, 1, wb, attraction, a-b-da, 9, 3, 7, 33, 186, 114, 120, 195, 195, 120, 2, 0.701111
186, 1, wb, attraction, a-b-da, 14, 1, 7, 34, 135, 60, 125, 56, 60, 135, 2, 2.51896
186, 1, wb, attraction, a-b-da, 14, 1, 7, 34, 135, 60, 125, 56, 60, 135, 3, 0.760913
186, 1, wb, attraction, a-b-db, 9, 1, 7, 35, 135, 60, 60, 135, 57, 129, 2, 2.0879
186, 1, wb, attraction, a-b-db, 9, 1, 7, 35, 135, 60, 60, 135, 57, 129, 1, 0.731178
186, 1, wb, filler, NA, 999, 999, 7, 36, 125, 74, 116, 155, 167, 147, 1, 0.91545
186, 1, wb, filler, NA, 999, 999, 7, 36, 125, 74, 116, 155, 167, 147, 3, 0.429878
186, 1, wb, attraction, a-b-db, 2, 1, 7, 37, 135, 60, 60, 135, 59, 134, 3, 1.95426
186, 1, wb, attraction, a-b-db, 2, 1, 7, 37, 135, 60, 60, 135, 59, 134, 1, 0.499104
186, 1, wb, attraction, a-b-da, 9, 3, 8, 1, 195, 120, 186, 114, 120, 195, 2, 3.20481
186, 1, wb, attraction, a-b-da, 9, 3, 8, 1, 195, 120, 186, 114, 120, 195, 3, 0.691161
186, 1, wb, attraction, a-b-db, 2, 2, 8, 2, 89, 163, 165, 90, 90, 165, 1, 1.85281
186, 1, wb, attraction, a-b-db, 2, 2, 8, 2, 89, 163, 165, 90, 90, 165, 3, 1.12953
186, 1, wb, attraction, a-b-db, 2, 1, 8, 3, 60, 135, 135, 60, 59, 134, 3, 2.41797
186, 1, wb, attraction, a-b-db, 2, 1, 8, 3, 60, 135, 135, 60, 59, 134, 1, 2.73561
186, 1, wb, attraction, a-b-da, 14, 2, 8, 4, 165, 90, 90, 165, 153, 83, 3, 1.57543
186, 1, wb, attraction, a-b-da, 14, 2, 8, 4, 165, 90, 90, 165, 153, 83, 1, 0.542884
186, 1, wb, attraction, a-b-db, 9, 2, 8, 5, 90, 165, 165, 90, 86, 157, 3, 6.39074
186, 1, wb, attraction, a-b-db, 9, 2, 8, 5, 90, 165, 165, 90, 86, 157, 1, 1.62808
186, 1, wb, filler, NA, 999, 999, 8, 6, 182, 130, 181, 179, 121, 85, 3, 0.984193
186, 1, wb, filler, NA, 999, 999, 8, 6, 182, 130, 181, 179, 121, 85, 2, 0.863943
186, 1, wb, attraction, a-b-da, 9, 2, 8, 7, 157, 86, 165, 90, 90, 165, 1, 2.27483
186, 1, wb, attraction, a-b-da, 9, 2, 8, 7, 157, 86, 165, 90, 90, 165, 3, 0.542019
186, 1, wb, filler, NA, 999, 999, 8, 8, 137, 195, 90, 66, 114, 68, 2, 1.30977
186, 1, wb, filler, NA, 999, 999, 8, 8, 137, 195, 90, 66, 114, 68, 1, 0.424052
186, 1, wb, catch, NA, 999, 999, 8, 9, 111, 84, 136, 179, 128, 127, 1, 1.14853
186, 1, wb, catch, NA, 999, 999, 8, 9, 111, 84, 136, 179, 128, 127, 2, 0.485477
186, 1, wb, attraction, a-b-db, 14, 2, 8, 10, 83, 153, 90, 165, 165, 90, 1, 1.87997
186, 1, wb, attraction, a-b-db, 14, 2, 8, 10, 83, 153, 90, 165, 165, 90, 2, 0.891434
186, 1, wb, filler, NA, 999, 999, 8, 11, 185, 147, 79, 190, 179, 150, 2, 1.87692
186, 1, wb, filler, NA, 999, 999, 8, 11, 185, 147, 79, 190, 179, 150, 1, 0.464282
186, 1, wb, attraction, a-b-db, 9, 1, 8, 12, 60, 135, 135, 60, 57, 129, 3, 1.58751
186, 1, wb, attraction, a-b-db, 9, 1, 8, 12, 60, 135, 135, 60, 57, 129, 1, 1.26637
186, 1, wb, attraction, a-b-da, 14, 3, 8, 13, 120, 195, 181, 111, 195, 120, 2, 3.24516
186, 1, wb, attraction, a-b-da, 14, 3, 8, 13, 120, 195, 181, 111, 195, 120, 1, 0.353579
186, 1, wb, attraction, a-b-da, 9, 1, 8, 14, 135, 60, 60, 135, 129, 57, 3, 1.66523
186, 1, wb, attraction, a-b-da, 9, 1, 8, 14, 135, 60, 60, 135, 129, 57, 2, 0.965447
186, 1, wb, attraction, a-b-da, 5, 2, 8, 15, 161, 88, 90, 165, 165, 90, 3, 4.12433
186, 1, wb, attraction, a-b-da, 5, 2, 8, 15, 161, 88, 90, 165, 165, 90, 1, 0.389002
186, 1, wb, attraction, a-b-da, 14, 1, 8, 16, 125, 56, 60, 135, 135, 60, 1, 1.38763
186, 1, wb, attraction, a-b-da, 14, 1, 8, 16, 125, 56, 60, 135, 135, 60, 2, 0.819116
186, 1, wb, attraction, a-b-db, 14, 1, 8, 17, 60, 135, 135, 60, 56, 125, 2, 2.9362
186, 1, wb, attraction, a-b-db, 14, 1, 8, 17, 60, 135, 135, 60, 56, 125, 1, 0.32117
186, 1, wb, catch, NA, 999, 999, 8, 18, 131, 64, 156, 159, 146, 109, 1, 1.45835
186, 1, wb, catch, NA, 999, 999, 8, 18, 131, 64, 156, 159, 146, 109, 2, 0.382551
186, 1, wb, filler, NA, 999, 999, 8, 19, 136, 162, 101, 142, 102, 97, 3, 1.22106
186, 1, wb, filler, NA, 999, 999, 8, 19, 136, 162, 101, 142, 102, 97, 1, 0.4595
186, 1, wb, filler, NA, 999, 999, 8, 20, 100, 109, 159, 180, 167, 184, 1, 1.06248
186, 1, wb, filler, NA, 999, 999, 8, 20, 100, 109, 159, 180, 167, 184, 2, 1.22676
186, 1, wb, attraction, a-b-db, 5, 1, 8, 21, 58, 132, 135, 60, 60, 135, 2, 2.40695
186, 1, wb, attraction, a-b-db, 5, 1, 8, 21, 58, 132, 135, 60, 60, 135, 3, 0.572788
186, 1, wb, attraction, a-b-db, 5, 2, 8, 22, 165, 90, 90, 165, 88, 161, 3, 2.41209
186, 1, wb, attraction, a-b-db, 5, 2, 8, 22, 165, 90, 90, 165, 88, 161, 1, 1.70587
186, 1, wb, attraction, a-b-db, 2, 3, 8, 23, 195, 120, 120, 195, 119, 193, 1, 2.95529
186, 1, wb, attraction, a-b-db, 2, 3, 8, 23, 195, 120, 120, 195, 119, 193, 2, 0.274937
186, 1, wb, attraction, a-b-da, 2, 1, 8, 24, 60, 135, 135, 60, 134, 59, 2, 2.42945
186, 1, wb, attraction, a-b-da, 2, 1, 8, 24, 60, 135, 135, 60, 134, 59, 1, 0.562896
186, 1, wb, filler, NA, 999, 999, 8, 25, 190, 98, 80, 164, 119, 93, 3, 1.5858
186, 1, wb, filler, NA, 999, 999, 8, 25, 190, 98, 80, 164, 119, 93, 1, 0.873344
186, 1, wb, attraction, a-b-da, 5, 3, 8, 26, 120, 195, 190, 117, 195, 120, 3, 2.62758
186, 1, wb, attraction, a-b-da, 5, 3, 8, 26, 120, 195, 190, 117, 195, 120, 1, 0.840763
186, 1, wb, filler, NA, 999, 999, 8, 27, 192, 182, 112, 154, 164, 173, 2, 1.10842
186, 1, wb, filler, NA, 999, 999, 8, 27, 192, 182, 112, 154, 164, 173, 1, 0.494692
186, 1, wb, filler, NA, 999, 999, 8, 28, 165, 169, 99, 145, 57, 82, 3, 0.752614
186, 1, wb, filler, NA, 999, 999, 8, 28, 165, 169, 99, 145, 57, 82, 1, 0.385564
186, 1, wb, attraction, a-b-da, 2, 3, 8, 29, 195, 120, 120, 195, 193, 119, 1, 4.58402
186, 1, wb, attraction, a-b-da, 2, 3, 8, 29, 195, 120, 120, 195, 193, 119, 2, 0.454686
186, 1, wb, attraction, a-b-db, 5, 3, 8, 30, 120, 195, 195, 120, 117, 190, 3, 2.15445
186, 1, wb, attraction, a-b-db, 5, 3, 8, 30, 120, 195, 195, 120, 117, 190, 2, 1.09106
186, 1, wb, filler, NA, 999, 999, 8, 31, 73, 138, 98, 128, 165, 186, 1, 2.74067
186, 1, wb, filler, NA, 999, 999, 8, 31, 73, 138, 98, 128, 165, 186, 3, 0.365203
186, 1, wb, attraction, a-b-da, 5, 1, 8, 32, 60, 135, 132, 58, 135, 60, 2, 2.78823
186, 1, wb, attraction, a-b-da, 5, 1, 8, 32, 60, 135, 132, 58, 135, 60, 1, 0.955327
186, 1, wb, attraction, a-b-db, 9, 3, 8, 33, 195, 120, 120, 195, 114, 186, 3, 9.16312
186, 1, wb, attraction, a-b-db, 9, 3, 8, 33, 195, 120, 120, 195, 114, 186, 1, 0.440702
186, 1, wb, catch, NA, 999, 999, 8, 34, 88, 107, 135, 120, 131, 184, 1, 1.14865
186, 1, wb, catch, NA, 999, 999, 8, 34, 88, 107, 135, 120, 131, 184, 3, 0.309497
186, 1, wb, attraction, a-b-da, 2, 2, 8, 35, 165, 90, 90, 165, 163, 89, 3, 3.83066
186, 1, wb, attraction, a-b-da, 2, 2, 8, 35, 165, 90, 90, 165, 163, 89, 2, 0.579724
186, 1, wb, filler, NA, 999, 999, 8, 36, 156, 146, 113, 137, 129, 195, 2, 1.02582
186, 1, wb, filler, NA, 999, 999, 8, 36, 156, 146, 113, 137, 129, 195, 3, 0.255711
186, 1, wb, attraction, a-b-db, 14, 3, 8, 37, 195, 120, 111, 181, 120, 195, 2, 3.04333
186, 1, wb, attraction, a-b-db, 14, 3, 8, 37, 195, 120, 111, 181, 120, 195, 3, 1.68786
