sub_n, computer_n, bw_cond, effect, set, distance, diag, block_n, trial_n, h1, w1, h2, w2, h3, w3, choice, rt 
14, 1, wb, practice, NA, 999, 999, 0, 1, 174, 65, 151, 136, 112, 105, 1, 12.2753
14, 1, wb, practice, NA, 999, 999, 0, 1, 174, 65, 151, 136, 112, 105, 2, 1.98816
14, 1, wb, practice, NA, 999, 999, 0, 2, 127, 186, 128, 133, 172, 88, 3, 12.1284
14, 1, wb, practice, NA, 999, 999, 0, 2, 127, 186, 128, 133, 172, 88, 1, 1.67725
14, 1, wb, practice, NA, 999, 999, 0, 3, 167, 96, 183, 96, 72, 181, 3, 4.36443
14, 1, wb, practice, NA, 999, 999, 0, 3, 167, 96, 183, 96, 72, 181, 2, 4.25971
14, 1, wb, filler, NA, 999, 999, 1, 1, 70, 126, 135, 155, 166, 92, 1, 3.09995
14, 1, wb, filler, NA, 999, 999, 1, 1, 70, 126, 135, 155, 166, 92, 2, 1.92616
14, 1, wb, filler, NA, 999, 999, 1, 2, 155, 80, 121, 95, 78, 178, 2, 10.1883
14, 1, wb, filler, NA, 999, 999, 1, 2, 155, 80, 121, 95, 78, 178, 3, 4.1703
14, 1, wb, attraction, a-b-db, 14, 1, 1, 3, 56, 125, 60, 135, 135, 60, 3, 31.6977
14, 1, wb, attraction, a-b-db, 14, 1, 1, 3, 56, 125, 60, 135, 135, 60, 2, 2.32191
14, 1, wb, attraction, a-b-da, 9, 1, 1, 4, 60, 135, 135, 60, 129, 57, 3, 30.8906
14, 1, wb, attraction, a-b-da, 9, 1, 1, 4, 60, 135, 135, 60, 129, 57, 1, 4.28466
14, 1, wb, filler, NA, 999, 999, 1, 5, 77, 143, 69, 85, 123, 74, 2, 6.15954
14, 1, wb, filler, NA, 999, 999, 1, 5, 77, 143, 69, 85, 123, 74, 1, 12.287
14, 1, wb, filler, NA, 999, 999, 1, 6, 64, 73, 170, 178, 108, 142, 1, 4.05295
14, 1, wb, filler, NA, 999, 999, 1, 6, 64, 73, 170, 178, 108, 142, 2, 2.58522
14, 1, wb, attraction, a-b-da, 14, 1, 1, 7, 60, 135, 135, 60, 125, 56, 3, 15.7262
14, 1, wb, attraction, a-b-da, 14, 1, 1, 7, 60, 135, 135, 60, 125, 56, 1, 8.47657
14, 1, wb, attraction, a-b-da, 2, 1, 1, 8, 60, 135, 135, 60, 134, 59, 3, 23.4691
14, 1, wb, attraction, a-b-da, 2, 1, 1, 8, 60, 135, 135, 60, 134, 59, 1, 6.15545
14, 1, wb, attraction, a-b-db, 2, 3, 1, 9, 120, 195, 195, 120, 119, 193, 3, 22.911
14, 1, wb, attraction, a-b-db, 2, 3, 1, 9, 120, 195, 195, 120, 119, 193, 1, 8.30096
14, 1, wb, attraction, a-b-da, 14, 3, 1, 10, 195, 120, 181, 111, 120, 195, 2, 8.01362
14, 1, wb, attraction, a-b-da, 14, 3, 1, 10, 195, 120, 181, 111, 120, 195, 3, 4.62432
14, 1, wb, attraction, a-b-da, 5, 1, 1, 11, 135, 60, 132, 58, 60, 135, 2, 6.46651
14, 1, wb, attraction, a-b-da, 5, 1, 1, 11, 135, 60, 132, 58, 60, 135, 3, 5.09391
14, 1, wb, catch, NA, 999, 999, 1, 12, 157, 98, 96, 99, 139, 176, 2, 10.2466
14, 1, wb, catch, NA, 999, 999, 1, 12, 157, 98, 96, 99, 139, 176, 3, 5.94524
14, 1, wb, attraction, a-b-db, 5, 1, 1, 13, 60, 135, 58, 132, 135, 60, 2, 23.7132
14, 1, wb, attraction, a-b-db, 5, 1, 1, 13, 60, 135, 58, 132, 135, 60, 1, 2.86163
14, 1, wb, attraction, a-b-db, 9, 1, 1, 14, 57, 129, 135, 60, 60, 135, 2, 28.5908
14, 1, wb, attraction, a-b-db, 9, 1, 1, 14, 57, 129, 135, 60, 60, 135, 3, 3.47919
14, 1, wb, catch, NA, 999, 999, 1, 15, 100, 155, 135, 60, 163, 152, 2, 7.60093
14, 1, wb, catch, NA, 999, 999, 1, 15, 100, 155, 135, 60, 163, 152, 3, 1.98914
14, 1, wb, filler, NA, 999, 999, 1, 16, 144, 174, 138, 166, 62, 118, 3, 5.32521
14, 1, wb, filler, NA, 999, 999, 1, 16, 144, 174, 138, 166, 62, 118, 2, 17.6435
14, 1, wb, catch, NA, 999, 999, 1, 17, 136, 119, 153, 162, 67, 128, 3, 3.18072
14, 1, wb, catch, NA, 999, 999, 1, 17, 136, 119, 153, 162, 67, 128, 2, 1.02064
14, 1, wb, attraction, a-b-db, 14, 2, 1, 18, 165, 90, 83, 153, 90, 165, 2, 5.15795
14, 1, wb, attraction, a-b-db, 14, 2, 1, 18, 165, 90, 83, 153, 90, 165, 3, 3.94371
14, 1, wb, filler, NA, 999, 999, 1, 19, 169, 128, 142, 73, 125, 132, 2, 4.68612
14, 1, wb, filler, NA, 999, 999, 1, 19, 169, 128, 142, 73, 125, 132, 1, 2.22609
14, 1, wb, attraction, a-b-db, 5, 2, 1, 20, 165, 90, 90, 165, 88, 161, 1, 4.92673
14, 1, wb, attraction, a-b-db, 5, 2, 1, 20, 165, 90, 90, 165, 88, 161, 2, 5.75065
14, 1, wb, attraction, a-b-da, 5, 3, 1, 21, 195, 120, 190, 117, 120, 195, 3, 28.9644
14, 1, wb, attraction, a-b-da, 5, 3, 1, 21, 195, 120, 190, 117, 120, 195, 2, 3.83009
14, 1, wb, filler, NA, 999, 999, 1, 22, 76, 195, 194, 194, 65, 92, 3, 2.05645
14, 1, wb, filler, NA, 999, 999, 1, 22, 76, 195, 194, 194, 65, 92, 2, 2.77525
14, 1, wb, attraction, a-b-da, 9, 3, 1, 23, 186, 114, 120, 195, 195, 120, 1, 7.73415
14, 1, wb, attraction, a-b-da, 9, 3, 1, 23, 186, 114, 120, 195, 195, 120, 2, 2.54075
14, 1, wb, attraction, a-b-da, 14, 2, 1, 24, 153, 83, 165, 90, 90, 165, 1, 3.6043
14, 1, wb, attraction, a-b-da, 14, 2, 1, 24, 153, 83, 165, 90, 90, 165, 3, 3.70799
14, 1, wb, attraction, a-b-db, 9, 2, 1, 25, 86, 157, 165, 90, 90, 165, 1, 8.3693
14, 1, wb, attraction, a-b-db, 9, 2, 1, 25, 86, 157, 165, 90, 90, 165, 3, 3.16196
14, 1, wb, attraction, a-b-da, 2, 3, 1, 26, 195, 120, 120, 195, 193, 119, 3, 4.82314
14, 1, wb, attraction, a-b-da, 2, 3, 1, 26, 195, 120, 120, 195, 193, 119, 2, 4.3565
14, 1, wb, attraction, a-b-db, 5, 3, 1, 27, 120, 195, 195, 120, 117, 190, 3, 6.59394
14, 1, wb, attraction, a-b-db, 5, 3, 1, 27, 120, 195, 195, 120, 117, 190, 1, 2.12153
14, 1, wb, filler, NA, 999, 999, 1, 28, 103, 148, 178, 160, 113, 188, 1, 2.20449
14, 1, wb, filler, NA, 999, 999, 1, 28, 103, 148, 178, 160, 113, 188, 2, 1.12175
14, 1, wb, attraction, a-b-db, 9, 3, 1, 29, 114, 186, 195, 120, 120, 195, 1, 9.64268
14, 1, wb, attraction, a-b-db, 9, 3, 1, 29, 114, 186, 195, 120, 120, 195, 3, 4.45899
14, 1, wb, attraction, a-b-da, 2, 2, 1, 30, 165, 90, 163, 89, 90, 165, 3, 3.79188
14, 1, wb, attraction, a-b-da, 2, 2, 1, 30, 165, 90, 163, 89, 90, 165, 1, 7.11032
14, 1, wb, attraction, a-b-db, 2, 1, 1, 31, 59, 134, 60, 135, 135, 60, 3, 9.11742
14, 1, wb, attraction, a-b-db, 2, 1, 1, 31, 59, 134, 60, 135, 135, 60, 2, 4.53371
14, 1, wb, attraction, a-b-da, 5, 2, 1, 32, 161, 88, 90, 165, 165, 90, 2, 10.8932
14, 1, wb, attraction, a-b-da, 5, 2, 1, 32, 161, 88, 90, 165, 165, 90, 3, 1.71684
14, 1, wb, filler, NA, 999, 999, 1, 33, 85, 140, 124, 71, 168, 122, 2, 2.44491
14, 1, wb, filler, NA, 999, 999, 1, 33, 85, 140, 124, 71, 168, 122, 3, 1.68974
14, 1, wb, attraction, a-b-db, 14, 3, 1, 34, 120, 195, 111, 181, 195, 120, 2, 7.66073
14, 1, wb, attraction, a-b-db, 14, 3, 1, 34, 120, 195, 111, 181, 195, 120, 3, 3.81574
14, 1, wb, attraction, a-b-db, 2, 2, 1, 35, 165, 90, 89, 163, 90, 165, 1, 12.1002
14, 1, wb, attraction, a-b-db, 2, 2, 1, 35, 165, 90, 89, 163, 90, 165, 3, 2.18609
14, 1, wb, attraction, a-b-da, 9, 2, 1, 36, 165, 90, 90, 165, 157, 86, 3, 10.1619
14, 1, wb, attraction, a-b-da, 9, 2, 1, 36, 165, 90, 90, 165, 157, 86, 2, 4.84638
14, 1, wb, filler, NA, 999, 999, 1, 37, 152, 79, 126, 141, 104, 107, 3, 3.50559
14, 1, wb, filler, NA, 999, 999, 1, 37, 152, 79, 126, 141, 104, 107, 2, 0.789432
14, 1, wb, filler, NA, 999, 999, 2, 1, 129, 121, 133, 144, 101, 101, 3, 2.45995
14, 1, wb, filler, NA, 999, 999, 2, 1, 129, 121, 133, 144, 101, 101, 2, 3.32752
14, 1, wb, attraction, a-b-db, 2, 1, 2, 2, 135, 60, 60, 135, 59, 134, 2, 12.8179
14, 1, wb, attraction, a-b-db, 2, 1, 2, 2, 135, 60, 60, 135, 59, 134, 3, 2.06558
14, 1, wb, attraction, a-b-da, 2, 3, 2, 3, 193, 119, 120, 195, 195, 120, 2, 9.39042
14, 1, wb, attraction, a-b-da, 2, 3, 2, 3, 193, 119, 120, 195, 195, 120, 3, 2.90526
14, 1, wb, attraction, a-b-da, 14, 3, 2, 4, 195, 120, 181, 111, 120, 195, 2, 10.3556
14, 1, wb, attraction, a-b-da, 14, 3, 2, 4, 195, 120, 181, 111, 120, 195, 3, 6.2413
14, 1, wb, filler, NA, 999, 999, 2, 5, 178, 143, 175, 166, 106, 155, 3, 2.4218
14, 1, wb, filler, NA, 999, 999, 2, 5, 178, 143, 175, 166, 106, 155, 2, 0.521829
14, 1, wb, attraction, a-b-db, 2, 3, 2, 6, 195, 120, 120, 195, 119, 193, 1, 4.98808
14, 1, wb, attraction, a-b-db, 2, 3, 2, 6, 195, 120, 120, 195, 119, 193, 2, 5.81603
14, 1, wb, catch, NA, 999, 999, 2, 7, 146, 109, 136, 179, 125, 70, 3, 2.24635
14, 1, wb, catch, NA, 999, 999, 2, 7, 146, 109, 136, 179, 125, 70, 2, 0.585096
14, 1, wb, attraction, a-b-da, 9, 3, 2, 8, 120, 195, 186, 114, 195, 120, 2, 15.2893
14, 1, wb, attraction, a-b-da, 9, 3, 2, 8, 120, 195, 186, 114, 195, 120, 1, 2.00773
14, 1, wb, attraction, a-b-db, 14, 1, 2, 9, 60, 135, 135, 60, 56, 125, 3, 2.48433
14, 1, wb, attraction, a-b-db, 14, 1, 2, 9, 60, 135, 135, 60, 56, 125, 1, 8.23959
14, 1, wb, filler, NA, 999, 999, 2, 10, 157, 193, 178, 179, 150, 131, 3, 2.13009
14, 1, wb, filler, NA, 999, 999, 2, 10, 157, 193, 178, 179, 150, 131, 2, 8.0758
14, 1, wb, attraction, a-b-db, 9, 3, 2, 11, 195, 120, 120, 195, 114, 186, 3, 8.76242
14, 1, wb, attraction, a-b-db, 9, 3, 2, 11, 195, 120, 120, 195, 114, 186, 1, 13.0588
14, 1, wb, attraction, a-b-da, 5, 3, 2, 12, 195, 120, 120, 195, 190, 117, 2, 2.96338
14, 1, wb, attraction, a-b-da, 5, 3, 2, 12, 195, 120, 120, 195, 190, 117, 1, 6.22539
14, 1, wb, filler, NA, 999, 999, 2, 13, 191, 130, 142, 94, 182, 179, 2, 2.2783
14, 1, wb, filler, NA, 999, 999, 2, 13, 191, 130, 142, 94, 182, 179, 3, 0.977702
14, 1, wb, attraction, a-b-da, 14, 2, 2, 14, 90, 165, 153, 83, 165, 90, 2, 11.4645
14, 1, wb, attraction, a-b-da, 14, 2, 2, 14, 90, 165, 153, 83, 165, 90, 1, 2.27495
14, 1, wb, attraction, a-b-db, 5, 3, 2, 15, 120, 195, 195, 120, 117, 190, 2, 11.1329
14, 1, wb, attraction, a-b-db, 5, 3, 2, 15, 120, 195, 195, 120, 117, 190, 3, 6.92277
14, 1, wb, attraction, a-b-da, 9, 2, 2, 16, 90, 165, 165, 90, 157, 86, 3, 10.9059
14, 1, wb, attraction, a-b-da, 9, 2, 2, 16, 90, 165, 165, 90, 157, 86, 1, 4.29024
14, 1, wb, filler, NA, 999, 999, 2, 17, 165, 112, 61, 137, 163, 96, 2, 1.84531
14, 1, wb, filler, NA, 999, 999, 2, 17, 165, 112, 61, 137, 163, 96, 1, 3.0229
14, 1, wb, attraction, a-b-db, 14, 3, 2, 18, 120, 195, 111, 181, 195, 120, 3, 5.067
14, 1, wb, attraction, a-b-db, 14, 3, 2, 18, 120, 195, 111, 181, 195, 120, 1, 4.5846
14, 1, wb, filler, NA, 999, 999, 2, 19, 140, 95, 114, 140, 71, 190, 1, 3.90773
14, 1, wb, filler, NA, 999, 999, 2, 19, 140, 95, 114, 140, 71, 190, 2, 1.44792
14, 1, wb, filler, NA, 999, 999, 2, 20, 105, 194, 79, 97, 105, 109, 2, 3.04432
14, 1, wb, filler, NA, 999, 999, 2, 20, 105, 194, 79, 97, 105, 109, 1, 0.641119
14, 1, wb, attraction, a-b-db, 9, 1, 2, 21, 60, 135, 57, 129, 135, 60, 2, 3.62801
14, 1, wb, attraction, a-b-db, 9, 1, 2, 21, 60, 135, 57, 129, 135, 60, 1, 4.99411
14, 1, wb, catch, NA, 999, 999, 2, 22, 166, 149, 137, 118, 89, 106, 3, 3.20658
14, 1, wb, catch, NA, 999, 999, 2, 22, 166, 149, 137, 118, 89, 106, 1, 1.11095
14, 1, wb, catch, NA, 999, 999, 2, 23, 167, 148, 100, 155, 93, 102, 3, 4.57362
14, 1, wb, catch, NA, 999, 999, 2, 23, 167, 148, 100, 155, 93, 102, 1, 0.982137
14, 1, wb, attraction, a-b-da, 2, 1, 2, 24, 135, 60, 134, 59, 60, 135, 2, 12.0774
14, 1, wb, attraction, a-b-da, 2, 1, 2, 24, 135, 60, 134, 59, 60, 135, 3, 1.62828
14, 1, wb, attraction, a-b-da, 5, 2, 2, 25, 161, 88, 165, 90, 90, 165, 2, 8.22641
14, 1, wb, attraction, a-b-da, 5, 2, 2, 25, 161, 88, 165, 90, 90, 165, 1, 3.60608
14, 1, wb, attraction, a-b-da, 14, 1, 2, 26, 135, 60, 60, 135, 125, 56, 3, 3.24244
14, 1, wb, attraction, a-b-da, 14, 1, 2, 26, 135, 60, 60, 135, 125, 56, 2, 1.89763
14, 1, wb, attraction, a-b-db, 5, 2, 2, 27, 165, 90, 88, 161, 90, 165, 1, 8.87443
14, 1, wb, attraction, a-b-db, 5, 2, 2, 27, 165, 90, 88, 161, 90, 165, 3, 2.62684
14, 1, wb, attraction, a-b-db, 14, 2, 2, 28, 90, 165, 165, 90, 83, 153, 3, 21.6239
14, 1, wb, attraction, a-b-db, 14, 2, 2, 28, 90, 165, 165, 90, 83, 153, 1, 3.46357
14, 1, wb, filler, NA, 999, 999, 2, 29, 193, 124, 182, 72, 180, 160, 2, 4.78655
14, 1, wb, filler, NA, 999, 999, 2, 29, 193, 124, 182, 72, 180, 160, 3, 1.70558
14, 1, wb, attraction, a-b-db, 2, 2, 2, 30, 90, 165, 165, 90, 89, 163, 2, 19.38
14, 1, wb, attraction, a-b-db, 2, 2, 2, 30, 90, 165, 165, 90, 89, 163, 3, 3.41402
14, 1, wb, attraction, a-b-da, 2, 2, 2, 31, 163, 89, 90, 165, 165, 90, 1, 17.5309
14, 1, wb, attraction, a-b-da, 2, 2, 2, 31, 163, 89, 90, 165, 165, 90, 2, 2.11207
14, 1, wb, attraction, a-b-da, 9, 1, 2, 32, 129, 57, 60, 135, 135, 60, 1, 3.32212
14, 1, wb, attraction, a-b-da, 9, 1, 2, 32, 129, 57, 60, 135, 135, 60, 2, 11.1544
14, 1, wb, attraction, a-b-db, 5, 1, 2, 33, 135, 60, 60, 135, 58, 132, 1, 10.159
14, 1, wb, attraction, a-b-db, 5, 1, 2, 33, 135, 60, 60, 135, 58, 132, 3, 3.67748
14, 1, wb, filler, NA, 999, 999, 2, 34, 190, 102, 61, 145, 116, 96, 2, 2.60723
14, 1, wb, filler, NA, 999, 999, 2, 34, 190, 102, 61, 145, 116, 96, 1, 0.821819
14, 1, wb, attraction, a-b-db, 9, 2, 2, 35, 165, 90, 86, 157, 90, 165, 2, 10.049
14, 1, wb, attraction, a-b-db, 9, 2, 2, 35, 165, 90, 86, 157, 90, 165, 3, 23.8843
14, 1, wb, attraction, a-b-da, 5, 1, 2, 36, 60, 135, 135, 60, 132, 58, 3, 16.1667
14, 1, wb, attraction, a-b-da, 5, 1, 2, 36, 60, 135, 135, 60, 132, 58, 1, 4.02861
14, 1, wb, filler, NA, 999, 999, 2, 37, 188, 164, 94, 90, 164, 112, 2, 2.2895
14, 1, wb, filler, NA, 999, 999, 2, 37, 188, 164, 94, 90, 164, 112, 1, 0.979064
14, 1, wb, filler, NA, 999, 999, 3, 1, 126, 110, 158, 78, 123, 95, 2, 11.7396
14, 1, wb, filler, NA, 999, 999, 3, 1, 126, 110, 158, 78, 123, 95, 1, 0.745546
14, 1, wb, filler, NA, 999, 999, 3, 2, 160, 83, 126, 107, 65, 181, 3, 21.6818
14, 1, wb, filler, NA, 999, 999, 3, 2, 160, 83, 126, 107, 65, 181, 2, 5.99097
14, 1, wb, attraction, a-b-da, 9, 3, 3, 3, 186, 114, 195, 120, 120, 195, 1, 20.0913
14, 1, wb, attraction, a-b-da, 9, 3, 3, 3, 186, 114, 195, 120, 120, 195, 3, 1.56925
14, 1, wb, filler, NA, 999, 999, 3, 4, 152, 111, 176, 175, 60, 94, 3, 1.95868
14, 1, wb, filler, NA, 999, 999, 3, 4, 152, 111, 176, 175, 60, 94, 2, 0.808498
14, 1, wb, attraction, a-b-da, 9, 1, 3, 5, 60, 135, 129, 57, 135, 60, 2, 11.1753
14, 1, wb, attraction, a-b-da, 9, 1, 3, 5, 60, 135, 129, 57, 135, 60, 3, 1.22915
14, 1, wb, attraction, a-b-da, 5, 1, 3, 6, 135, 60, 60, 135, 132, 58, 3, 7.18529
14, 1, wb, attraction, a-b-da, 5, 1, 3, 6, 135, 60, 60, 135, 132, 58, 2, 1.31125
14, 1, wb, filler, NA, 999, 999, 3, 7, 146, 110, 187, 72, 106, 172, 2, 23.5678
14, 1, wb, filler, NA, 999, 999, 3, 7, 146, 110, 187, 72, 106, 172, 3, 2.29682
14, 1, wb, filler, NA, 999, 999, 3, 8, 135, 168, 132, 61, 129, 87, 2, 3.39549
14, 1, wb, filler, NA, 999, 999, 3, 8, 135, 168, 132, 61, 129, 87, 1, 0.754563
14, 1, wb, attraction, a-b-da, 2, 3, 3, 9, 120, 195, 193, 119, 195, 120, 2, 6.88889
14, 1, wb, attraction, a-b-da, 2, 3, 3, 9, 120, 195, 193, 119, 195, 120, 3, 6.46095
14, 1, wb, attraction, a-b-db, 5, 3, 3, 10, 120, 195, 195, 120, 117, 190, 3, 10.918
14, 1, wb, attraction, a-b-db, 5, 3, 3, 10, 120, 195, 195, 120, 117, 190, 2, 9.14997
14, 1, wb, attraction, a-b-da, 2, 1, 3, 11, 135, 60, 60, 135, 134, 59, 3, 7.64152
14, 1, wb, attraction, a-b-da, 2, 1, 3, 11, 135, 60, 60, 135, 134, 59, 2, 7.35868
14, 1, wb, attraction, a-b-db, 14, 3, 3, 12, 111, 181, 195, 120, 120, 195, 1, 14.877
14, 1, wb, attraction, a-b-db, 14, 3, 3, 12, 111, 181, 195, 120, 120, 195, 3, 3.3008
14, 1, wb, attraction, a-b-da, 5, 3, 3, 13, 120, 195, 190, 117, 195, 120, 2, 11.093
14, 1, wb, attraction, a-b-da, 5, 3, 3, 13, 120, 195, 190, 117, 195, 120, 1, 0.964922
14, 1, wb, attraction, a-b-db, 2, 2, 3, 14, 90, 165, 165, 90, 89, 163, 2, 15.0448
14, 1, wb, attraction, a-b-db, 2, 2, 3, 14, 90, 165, 165, 90, 89, 163, 3, 2.51155
14, 1, wb, filler, NA, 999, 999, 3, 15, 91, 68, 120, 122, 120, 77, 1, 2.37569
14, 1, wb, filler, NA, 999, 999, 3, 15, 91, 68, 120, 122, 120, 77, 2, 0.679697
14, 1, wb, attraction, a-b-db, 2, 3, 3, 16, 195, 120, 120, 195, 119, 193, 3, 19.8193
14, 1, wb, attraction, a-b-db, 2, 3, 3, 16, 195, 120, 120, 195, 119, 193, 2, 0.682901
14, 1, wb, attraction, a-b-db, 5, 2, 3, 17, 165, 90, 88, 161, 90, 165, 1, 21.023
14, 1, wb, attraction, a-b-db, 5, 2, 3, 17, 165, 90, 88, 161, 90, 165, 3, 1.96514
14, 1, wb, catch, NA, 999, 999, 3, 18, 115, 140, 134, 61, 150, 165, 2, 3.37112
14, 1, wb, catch, NA, 999, 999, 3, 18, 115, 140, 134, 61, 150, 165, 3, 1.69205
14, 1, wb, attraction, a-b-db, 9, 3, 3, 19, 195, 120, 120, 195, 114, 186, 1, 21.5583
14, 1, wb, attraction, a-b-db, 9, 3, 3, 19, 195, 120, 120, 195, 114, 186, 3, 4.31266
14, 1, wb, filler, NA, 999, 999, 3, 20, 65, 127, 108, 181, 189, 105, 1, 1.88179
14, 1, wb, filler, NA, 999, 999, 3, 20, 65, 127, 108, 181, 189, 105, 3, 1.63562
14, 1, wb, catch, NA, 999, 999, 3, 21, 84, 111, 137, 178, 147, 108, 1, 2.19197
14, 1, wb, catch, NA, 999, 999, 3, 21, 84, 111, 137, 178, 147, 108, 2, 0.816915
14, 1, wb, attraction, a-b-db, 14, 2, 3, 22, 83, 153, 90, 165, 165, 90, 1, 9.82958
14, 1, wb, attraction, a-b-db, 14, 2, 3, 22, 83, 153, 90, 165, 165, 90, 2, 3.34386
14, 1, wb, attraction, a-b-da, 14, 3, 3, 23, 181, 111, 195, 120, 120, 195, 1, 17.4873
14, 1, wb, attraction, a-b-da, 14, 3, 3, 23, 181, 111, 195, 120, 120, 195, 3, 0.798088
14, 1, wb, catch, NA, 999, 999, 3, 24, 194, 121, 157, 98, 115, 80, 3, 2.16335
14, 1, wb, catch, NA, 999, 999, 3, 24, 194, 121, 157, 98, 115, 80, 1, 0.844136
14, 1, wb, attraction, a-b-da, 2, 2, 3, 25, 90, 165, 163, 89, 165, 90, 2, 4.36795
14, 1, wb, attraction, a-b-da, 2, 2, 3, 25, 90, 165, 163, 89, 165, 90, 1, 2.63074
14, 1, wb, attraction, a-b-da, 5, 2, 3, 26, 161, 88, 165, 90, 90, 165, 1, 6.6277
14, 1, wb, attraction, a-b-da, 5, 2, 3, 26, 161, 88, 165, 90, 90, 165, 3, 1.20849
14, 1, wb, attraction, a-b-db, 2, 1, 3, 27, 60, 135, 135, 60, 59, 134, 2, 5.14164
14, 1, wb, attraction, a-b-db, 2, 1, 3, 27, 60, 135, 135, 60, 59, 134, 1, 1.54303
14, 1, wb, attraction, a-b-da, 14, 2, 3, 28, 153, 83, 165, 90, 90, 165, 1, 4.15051
14, 1, wb, attraction, a-b-da, 14, 2, 3, 28, 153, 83, 165, 90, 90, 165, 3, 3.29266
14, 1, wb, filler, NA, 999, 999, 3, 29, 145, 110, 76, 88, 171, 152, 2, 1.9122
14, 1, wb, filler, NA, 999, 999, 3, 29, 145, 110, 76, 88, 171, 152, 3, 1.16295
14, 1, wb, attraction, a-b-db, 5, 1, 3, 30, 135, 60, 60, 135, 58, 132, 1, 5.58831
14, 1, wb, attraction, a-b-db, 5, 1, 3, 30, 135, 60, 60, 135, 58, 132, 3, 4.20781
14, 1, wb, attraction, a-b-db, 14, 1, 3, 31, 56, 125, 135, 60, 60, 135, 1, 3.40662
14, 1, wb, attraction, a-b-db, 14, 1, 3, 31, 56, 125, 135, 60, 60, 135, 3, 2.0663
14, 1, wb, attraction, a-b-db, 9, 1, 3, 32, 135, 60, 57, 129, 60, 135, 2, 3.12833
14, 1, wb, attraction, a-b-db, 9, 1, 3, 32, 135, 60, 57, 129, 60, 135, 1, 2.7852
14, 1, wb, attraction, a-b-da, 14, 1, 3, 33, 60, 135, 135, 60, 125, 56, 2, 14.7259
14, 1, wb, attraction, a-b-da, 14, 1, 3, 33, 60, 135, 135, 60, 125, 56, 1, 0.721941
14, 1, wb, filler, NA, 999, 999, 3, 34, 136, 194, 183, 160, 178, 68, 3, 5.35613
14, 1, wb, filler, NA, 999, 999, 3, 34, 136, 194, 183, 160, 178, 68, 1, 14.2766
14, 1, wb, attraction, a-b-db, 9, 2, 3, 35, 90, 165, 165, 90, 86, 157, 3, 6.25026
14, 1, wb, attraction, a-b-db, 9, 2, 3, 35, 90, 165, 165, 90, 86, 157, 1, 7.87012
14, 1, wb, filler, NA, 999, 999, 3, 36, 126, 188, 61, 118, 57, 135, 2, 1.76084
14, 1, wb, filler, NA, 999, 999, 3, 36, 126, 188, 61, 118, 57, 135, 1, 0.759603
14, 1, wb, attraction, a-b-da, 9, 2, 3, 37, 90, 165, 157, 86, 165, 90, 2, 9.92968
14, 1, wb, attraction, a-b-da, 9, 2, 3, 37, 90, 165, 157, 86, 165, 90, 3, 0.791188
14, 1, wb, filler, NA, 999, 999, 4, 1, 90, 129, 62, 194, 164, 130, 1, 4.01431
14, 1, wb, filler, NA, 999, 999, 4, 1, 90, 129, 62, 194, 164, 130, 3, 0.843022
14, 1, wb, filler, NA, 999, 999, 4, 2, 192, 188, 165, 146, 76, 61, 3, 1.83901
14, 1, wb, filler, NA, 999, 999, 4, 2, 192, 188, 165, 146, 76, 61, 1, 0.870445
14, 1, wb, attraction, a-b-db, 9, 3, 4, 3, 114, 186, 120, 195, 195, 120, 1, 4.67077
14, 1, wb, attraction, a-b-db, 9, 3, 4, 3, 114, 186, 120, 195, 195, 120, 3, 4.70669
14, 1, wb, attraction, a-b-da, 5, 2, 4, 4, 161, 88, 90, 165, 165, 90, 1, 23.6681
14, 1, wb, attraction, a-b-da, 5, 2, 4, 4, 161, 88, 90, 165, 165, 90, 3, 11.0575
14, 1, wb, attraction, a-b-db, 5, 3, 4, 5, 120, 195, 195, 120, 117, 190, 2, 6.73143
14, 1, wb, attraction, a-b-db, 5, 3, 4, 5, 120, 195, 195, 120, 117, 190, 3, 4.23544
14, 1, wb, attraction, a-b-db, 14, 2, 4, 6, 90, 165, 165, 90, 83, 153, 3, 6.03008
14, 1, wb, attraction, a-b-db, 14, 2, 4, 6, 90, 165, 165, 90, 83, 153, 1, 7.56163
14, 1, wb, attraction, a-b-db, 2, 2, 4, 7, 89, 163, 165, 90, 90, 165, 1, 9.54223
14, 1, wb, attraction, a-b-db, 2, 2, 4, 7, 89, 163, 165, 90, 90, 165, 2, 1.94837
14, 1, wb, attraction, a-b-da, 2, 2, 4, 8, 165, 90, 90, 165, 163, 89, 3, 3.63629
14, 1, wb, attraction, a-b-da, 2, 2, 4, 8, 165, 90, 90, 165, 163, 89, 2, 3.17877
14, 1, wb, attraction, a-b-db, 9, 2, 4, 9, 90, 165, 86, 157, 165, 90, 2, 10.0264
14, 1, wb, attraction, a-b-db, 9, 2, 4, 9, 90, 165, 86, 157, 165, 90, 1, 5.89316
14, 1, wb, attraction, a-b-db, 2, 1, 4, 10, 59, 134, 135, 60, 60, 135, 1, 8.6609
14, 1, wb, attraction, a-b-db, 2, 1, 4, 10, 59, 134, 135, 60, 60, 135, 3, 2.14355
14, 1, wb, attraction, a-b-da, 9, 2, 4, 11, 90, 165, 157, 86, 165, 90, 2, 4.48006
14, 1, wb, attraction, a-b-da, 9, 2, 4, 11, 90, 165, 157, 86, 165, 90, 3, 0.601213
14, 1, wb, attraction, a-b-da, 2, 1, 4, 12, 60, 135, 135, 60, 134, 59, 3, 10.0886
14, 1, wb, attraction, a-b-da, 2, 1, 4, 12, 60, 135, 135, 60, 134, 59, 1, 10.1769
14, 1, wb, filler, NA, 999, 999, 4, 13, 185, 146, 180, 78, 181, 143, 2, 1.99795
14, 1, wb, filler, NA, 999, 999, 4, 13, 185, 146, 180, 78, 181, 143, 3, 3.8279
14, 1, wb, filler, NA, 999, 999, 4, 14, 122, 162, 107, 195, 189, 168, 1, 9.92884
14, 1, wb, filler, NA, 999, 999, 4, 14, 122, 162, 107, 195, 189, 168, 3, 0.799935
14, 1, wb, attraction, a-b-db, 5, 2, 4, 15, 165, 90, 90, 165, 88, 161, 1, 2.77372
14, 1, wb, attraction, a-b-db, 5, 2, 4, 15, 165, 90, 90, 165, 88, 161, 2, 3.95652
14, 1, wb, attraction, a-b-da, 5, 3, 4, 16, 195, 120, 190, 117, 120, 195, 2, 4.76977
14, 1, wb, attraction, a-b-da, 5, 3, 4, 16, 195, 120, 190, 117, 120, 195, 3, 2.38636
14, 1, wb, attraction, a-b-db, 2, 3, 4, 17, 119, 193, 120, 195, 195, 120, 2, 27.872
14, 1, wb, attraction, a-b-db, 2, 3, 4, 17, 119, 193, 120, 195, 195, 120, 1, 4.56353
14, 1, wb, attraction, a-b-da, 9, 3, 4, 18, 120, 195, 186, 114, 195, 120, 3, 3.8501
14, 1, wb, attraction, a-b-da, 9, 3, 4, 18, 120, 195, 186, 114, 195, 120, 1, 2.99858
14, 1, wb, filler, NA, 999, 999, 4, 19, 111, 94, 128, 182, 64, 157, 1, 2.98981
14, 1, wb, filler, NA, 999, 999, 4, 19, 111, 94, 128, 182, 64, 157, 2, 0.762327
14, 1, wb, attraction, a-b-da, 5, 1, 4, 20, 60, 135, 135, 60, 132, 58, 2, 12.9554
14, 1, wb, attraction, a-b-da, 5, 1, 4, 20, 60, 135, 135, 60, 132, 58, 3, 0.986043
14, 1, wb, catch, NA, 999, 999, 4, 21, 106, 89, 94, 161, 153, 162, 1, 2.095
14, 1, wb, catch, NA, 999, 999, 4, 21, 106, 89, 94, 161, 153, 162, 3, 0.783991
14, 1, wb, attraction, a-b-db, 14, 3, 4, 22, 111, 181, 195, 120, 120, 195, 1, 2.87325
14, 1, wb, attraction, a-b-db, 14, 3, 4, 22, 111, 181, 195, 120, 120, 195, 3, 0.947891
14, 1, wb, attraction, a-b-db, 14, 1, 4, 23, 56, 125, 60, 135, 135, 60, 3, 3.65276
14, 1, wb, attraction, a-b-db, 14, 1, 4, 23, 56, 125, 60, 135, 135, 60, 2, 0.927565
14, 1, wb, filler, NA, 999, 999, 4, 24, 140, 119, 135, 83, 174, 177, 2, 2.0652
14, 1, wb, filler, NA, 999, 999, 4, 24, 140, 119, 135, 83, 174, 177, 3, 0.716281
14, 1, wb, filler, NA, 999, 999, 4, 25, 74, 121, 70, 104, 186, 162, 2, 2.14376
14, 1, wb, filler, NA, 999, 999, 4, 25, 74, 121, 70, 104, 186, 162, 3, 0.847365
14, 1, wb, attraction, a-b-db, 5, 1, 4, 26, 58, 132, 60, 135, 135, 60, 3, 4.13978
14, 1, wb, attraction, a-b-db, 5, 1, 4, 26, 58, 132, 60, 135, 135, 60, 2, 1.83712
14, 1, wb, attraction, a-b-da, 14, 1, 4, 27, 60, 135, 135, 60, 125, 56, 3, 3.52893
14, 1, wb, attraction, a-b-da, 14, 1, 4, 27, 60, 135, 135, 60, 125, 56, 1, 0.608948
14, 1, wb, filler, NA, 999, 999, 4, 28, 141, 66, 132, 79, 132, 129, 1, 8.93514
14, 1, wb, filler, NA, 999, 999, 4, 28, 141, 66, 132, 79, 132, 129, 3, 0.743028
14, 1, wb, filler, NA, 999, 999, 4, 29, 187, 117, 77, 183, 86, 185, 2, 8.81576
14, 1, wb, filler, NA, 999, 999, 4, 29, 187, 117, 77, 183, 86, 185, 1, 1.01057
14, 1, wb, catch, NA, 999, 999, 4, 30, 111, 144, 154, 161, 122, 73, 3, 2.24146
14, 1, wb, catch, NA, 999, 999, 4, 30, 111, 144, 154, 161, 122, 73, 2, 0.829801
14, 1, wb, filler, NA, 999, 999, 4, 31, 59, 108, 158, 65, 65, 101, 1, 3.4517
14, 1, wb, filler, NA, 999, 999, 4, 31, 59, 108, 158, 65, 65, 101, 2, 1.49539
14, 1, wb, attraction, a-b-db, 9, 1, 4, 32, 57, 129, 60, 135, 135, 60, 1, 6.1699
14, 1, wb, attraction, a-b-db, 9, 1, 4, 32, 57, 129, 60, 135, 135, 60, 3, 1.43126
14, 1, wb, attraction, a-b-da, 9, 1, 4, 33, 129, 57, 135, 60, 60, 135, 1, 11.4065
14, 1, wb, attraction, a-b-da, 9, 1, 4, 33, 129, 57, 135, 60, 60, 135, 3, 1.15141
14, 1, wb, attraction, a-b-da, 2, 3, 4, 34, 193, 119, 195, 120, 120, 195, 2, 4.0973
14, 1, wb, attraction, a-b-da, 2, 3, 4, 34, 193, 119, 195, 120, 120, 195, 1, 8.30643
14, 1, wb, catch, NA, 999, 999, 4, 35, 115, 140, 126, 69, 146, 169, 2, 2.81867
14, 1, wb, catch, NA, 999, 999, 4, 35, 115, 140, 126, 69, 146, 169, 3, 1.70519
14, 1, wb, attraction, a-b-da, 14, 3, 4, 36, 195, 120, 181, 111, 120, 195, 2, 10.6091
14, 1, wb, attraction, a-b-da, 14, 3, 4, 36, 195, 120, 181, 111, 120, 195, 3, 2.00413
14, 1, wb, attraction, a-b-da, 14, 2, 4, 37, 165, 90, 90, 165, 153, 83, 3, 4.31235
14, 1, wb, attraction, a-b-da, 14, 2, 4, 37, 165, 90, 90, 165, 153, 83, 2, 6.34076
14, 1, wb, attraction, a-b-db, 2, 3, 5, 1, 195, 120, 119, 193, 120, 195, 1, 8.13811
14, 1, wb, attraction, a-b-db, 2, 3, 5, 1, 195, 120, 119, 193, 120, 195, 3, 3.80172
14, 1, wb, attraction, a-b-da, 14, 3, 5, 2, 120, 195, 181, 111, 195, 120, 2, 3.03012
14, 1, wb, attraction, a-b-da, 14, 3, 5, 2, 120, 195, 181, 111, 195, 120, 1, 2.46732
14, 1, wb, filler, NA, 999, 999, 5, 3, 187, 120, 152, 63, 96, 186, 2, 2.27809
14, 1, wb, filler, NA, 999, 999, 5, 3, 187, 120, 152, 63, 96, 186, 1, 1.47313
14, 1, wb, attraction, a-b-db, 2, 1, 5, 4, 135, 60, 59, 134, 60, 135, 1, 3.00389
14, 1, wb, attraction, a-b-db, 2, 1, 5, 4, 135, 60, 59, 134, 60, 135, 3, 5.70699
14, 1, wb, attraction, a-b-db, 9, 3, 5, 5, 120, 195, 195, 120, 114, 186, 3, 6.49043
14, 1, wb, attraction, a-b-db, 9, 3, 5, 5, 120, 195, 195, 120, 114, 186, 2, 5.68542
14, 1, wb, attraction, a-b-da, 9, 3, 5, 6, 186, 114, 195, 120, 120, 195, 1, 10.4995
14, 1, wb, attraction, a-b-da, 9, 3, 5, 6, 186, 114, 195, 120, 120, 195, 3, 5.42166
14, 1, wb, attraction, a-b-db, 2, 2, 5, 7, 90, 165, 165, 90, 89, 163, 2, 17.089
14, 1, wb, attraction, a-b-db, 2, 2, 5, 7, 90, 165, 165, 90, 89, 163, 3, 3.01389
14, 1, wb, attraction, a-b-da, 5, 1, 5, 8, 135, 60, 60, 135, 132, 58, 3, 6.02792
14, 1, wb, attraction, a-b-da, 5, 1, 5, 8, 135, 60, 60, 135, 132, 58, 2, 1.8669
14, 1, wb, attraction, a-b-db, 9, 2, 5, 9, 86, 157, 90, 165, 165, 90, 3, 16.3954
14, 1, wb, attraction, a-b-db, 9, 2, 5, 9, 86, 157, 90, 165, 165, 90, 2, 1.11804
14, 1, wb, attraction, a-b-db, 5, 1, 5, 10, 58, 132, 135, 60, 60, 135, 2, 11.1683
14, 1, wb, attraction, a-b-db, 5, 1, 5, 10, 58, 132, 135, 60, 60, 135, 3, 1.73908
14, 1, wb, filler, NA, 999, 999, 5, 11, 162, 125, 184, 103, 178, 145, 2, 12.4782
14, 1, wb, filler, NA, 999, 999, 5, 11, 162, 125, 184, 103, 178, 145, 3, 3.669
14, 1, wb, attraction, a-b-da, 14, 2, 5, 12, 90, 165, 165, 90, 153, 83, 3, 3.56963
14, 1, wb, attraction, a-b-da, 14, 2, 5, 12, 90, 165, 165, 90, 153, 83, 2, 4.94495
14, 1, wb, attraction, a-b-da, 14, 1, 5, 13, 125, 56, 135, 60, 60, 135, 1, 4.16737
14, 1, wb, attraction, a-b-da, 14, 1, 5, 13, 125, 56, 135, 60, 60, 135, 3, 0.878635
14, 1, wb, attraction, a-b-da, 9, 2, 5, 14, 90, 165, 157, 86, 165, 90, 1, 7.41628
14, 1, wb, attraction, a-b-da, 9, 2, 5, 14, 90, 165, 157, 86, 165, 90, 3, 8.0674
14, 1, wb, attraction, a-b-da, 2, 1, 5, 15, 60, 135, 135, 60, 134, 59, 1, 2.91897
14, 1, wb, attraction, a-b-da, 2, 1, 5, 15, 60, 135, 135, 60, 134, 59, 3, 1.64929
14, 1, wb, attraction, a-b-db, 14, 1, 5, 16, 60, 135, 135, 60, 56, 125, 3, 7.87603
14, 1, wb, attraction, a-b-db, 14, 1, 5, 16, 60, 135, 135, 60, 56, 125, 2, 3.33366
14, 1, wb, attraction, a-b-da, 2, 2, 5, 17, 90, 165, 163, 89, 165, 90, 3, 10.165
14, 1, wb, attraction, a-b-da, 2, 2, 5, 17, 90, 165, 163, 89, 165, 90, 1, 8.1152
14, 1, wb, attraction, a-b-da, 5, 3, 5, 18, 190, 117, 120, 195, 195, 120, 1, 18.1358
14, 1, wb, attraction, a-b-da, 5, 3, 5, 18, 190, 117, 120, 195, 195, 120, 2, 0.692885
14, 1, wb, filler, NA, 999, 999, 5, 19, 167, 64, 134, 73, 148, 71, 3, 8.20766
14, 1, wb, filler, NA, 999, 999, 5, 19, 167, 64, 134, 73, 148, 71, 1, 1.14859
14, 1, wb, catch, NA, 999, 999, 5, 20, 80, 115, 170, 145, 161, 94, 1, 2.07666
14, 1, wb, catch, NA, 999, 999, 5, 20, 80, 115, 170, 145, 161, 94, 2, 0.888996
14, 1, wb, filler, NA, 999, 999, 5, 21, 179, 97, 158, 171, 166, 137, 1, 23.9876
14, 1, wb, filler, NA, 999, 999, 5, 21, 179, 97, 158, 171, 166, 137, 2, 1.47385
14, 1, wb, filler, NA, 999, 999, 5, 22, 181, 176, 164, 62, 66, 101, 3, 3.19045
14, 1, wb, filler, NA, 999, 999, 5, 22, 181, 176, 164, 62, 66, 101, 1, 0.781316
14, 1, wb, attraction, a-b-db, 14, 2, 5, 23, 165, 90, 90, 165, 83, 153, 1, 16.6436
14, 1, wb, attraction, a-b-db, 14, 2, 5, 23, 165, 90, 90, 165, 83, 153, 2, 1.61239
14, 1, wb, attraction, a-b-db, 9, 1, 5, 24, 135, 60, 57, 129, 60, 135, 2, 9.17892
14, 1, wb, attraction, a-b-db, 9, 1, 5, 24, 135, 60, 57, 129, 60, 135, 3, 3.35895
14, 1, wb, filler, NA, 999, 999, 5, 25, 162, 168, 112, 193, 146, 99, 3, 2.91176
14, 1, wb, filler, NA, 999, 999, 5, 25, 162, 168, 112, 193, 146, 99, 1, 1.89708
14, 1, wb, attraction, a-b-da, 5, 2, 5, 26, 90, 165, 165, 90, 161, 88, 1, 12.6044
14, 1, wb, attraction, a-b-da, 5, 2, 5, 26, 90, 165, 165, 90, 161, 88, 2, 0.830332
14, 1, wb, filler, NA, 999, 999, 5, 27, 58, 166, 104, 172, 129, 71, 3, 7.15614
14, 1, wb, filler, NA, 999, 999, 5, 27, 58, 166, 104, 172, 129, 71, 2, 0.706453
14, 1, wb, catch, NA, 999, 999, 5, 28, 106, 89, 191, 124, 150, 105, 1, 1.61961
14, 1, wb, catch, NA, 999, 999, 5, 28, 106, 89, 191, 124, 150, 105, 2, 0.747841
14, 1, wb, attraction, a-b-db, 5, 3, 5, 29, 117, 190, 195, 120, 120, 195, 2, 8.86761
14, 1, wb, attraction, a-b-db, 5, 3, 5, 29, 117, 190, 195, 120, 120, 195, 3, 0.860817
14, 1, wb, attraction, a-b-db, 14, 3, 5, 30, 120, 195, 195, 120, 111, 181, 3, 5.31966
14, 1, wb, attraction, a-b-db, 14, 3, 5, 30, 120, 195, 195, 120, 111, 181, 1, 2.8811
14, 1, wb, filler, NA, 999, 999, 5, 31, 133, 78, 173, 77, 159, 123, 1, 5.46845
14, 1, wb, filler, NA, 999, 999, 5, 31, 133, 78, 173, 77, 159, 123, 3, 8.77626
14, 1, wb, filler, NA, 999, 999, 5, 32, 61, 149, 64, 163, 176, 159, 1, 7.48442
14, 1, wb, filler, NA, 999, 999, 5, 32, 61, 149, 64, 163, 176, 159, 3, 0.846395
14, 1, wb, attraction, a-b-da, 2, 3, 5, 33, 195, 120, 120, 195, 193, 119, 3, 4.49867
14, 1, wb, attraction, a-b-da, 2, 3, 5, 33, 195, 120, 120, 195, 193, 119, 2, 0.859733
14, 1, wb, catch, NA, 999, 999, 5, 34, 122, 193, 141, 114, 101, 94, 3, 2.55193
14, 1, wb, catch, NA, 999, 999, 5, 34, 122, 193, 141, 114, 101, 94, 1, 1.20685
14, 1, wb, filler, NA, 999, 999, 5, 35, 102, 58, 93, 109, 187, 114, 1, 3.0454
14, 1, wb, filler, NA, 999, 999, 5, 35, 102, 58, 93, 109, 187, 114, 3, 1.25059
14, 1, wb, attraction, a-b-da, 9, 1, 5, 36, 129, 57, 60, 135, 135, 60, 1, 26.4224
14, 1, wb, attraction, a-b-da, 9, 1, 5, 36, 129, 57, 60, 135, 135, 60, 2, 3.49061
14, 1, wb, attraction, a-b-db, 5, 2, 5, 37, 88, 161, 90, 165, 165, 90, 3, 7.99015
14, 1, wb, attraction, a-b-db, 5, 2, 5, 37, 88, 161, 90, 165, 165, 90, 2, 16.5457
14, 1, wb, filler, NA, 999, 999, 6, 1, 100, 187, 135, 79, 77, 109, 3, 6.84012
14, 1, wb, filler, NA, 999, 999, 6, 1, 100, 187, 135, 79, 77, 109, 1, 0.715706
14, 1, wb, filler, NA, 999, 999, 6, 2, 56, 112, 63, 166, 92, 104, 1, 1.72419
14, 1, wb, filler, NA, 999, 999, 6, 2, 56, 112, 63, 166, 92, 104, 2, 6.0221
14, 1, wb, attraction, a-b-da, 5, 2, 6, 3, 165, 90, 90, 165, 161, 88, 2, 3.64897
14, 1, wb, attraction, a-b-da, 5, 2, 6, 3, 165, 90, 90, 165, 161, 88, 1, 1.22962
14, 1, wb, attraction, a-b-db, 14, 2, 6, 4, 165, 90, 90, 165, 83, 153, 3, 9.74578
14, 1, wb, attraction, a-b-db, 14, 2, 6, 4, 165, 90, 90, 165, 83, 153, 1, 1.57504
14, 1, wb, filler, NA, 999, 999, 6, 5, 77, 63, 64, 192, 94, 76, 1, 1.88789
14, 1, wb, filler, NA, 999, 999, 6, 5, 77, 63, 64, 192, 94, 76, 2, 0.755617
14, 1, wb, attraction, a-b-db, 9, 3, 6, 6, 195, 120, 120, 195, 114, 186, 3, 13.235
14, 1, wb, attraction, a-b-db, 9, 3, 6, 6, 195, 120, 120, 195, 114, 186, 1, 0.740954
14, 1, wb, attraction, a-b-da, 14, 2, 6, 7, 153, 83, 165, 90, 90, 165, 1, 2.95738
14, 1, wb, attraction, a-b-da, 14, 2, 6, 7, 153, 83, 165, 90, 90, 165, 2, 2.07813
14, 1, wb, attraction, a-b-db, 5, 2, 6, 8, 165, 90, 88, 161, 90, 165, 3, 6.92713
14, 1, wb, attraction, a-b-db, 5, 2, 6, 8, 165, 90, 88, 161, 90, 165, 1, 8.43294
14, 1, wb, filler, NA, 999, 999, 6, 9, 150, 100, 91, 83, 130, 82, 2, 2.47586
14, 1, wb, filler, NA, 999, 999, 6, 9, 150, 100, 91, 83, 130, 82, 1, 4.76614
14, 1, wb, catch, NA, 999, 999, 6, 10, 149, 166, 127, 128, 103, 92, 3, 2.61373
14, 1, wb, catch, NA, 999, 999, 6, 10, 149, 166, 127, 128, 103, 92, 1, 3.14689
14, 1, wb, attraction, a-b-da, 14, 1, 6, 11, 135, 60, 125, 56, 60, 135, 2, 10.6107
14, 1, wb, attraction, a-b-da, 14, 1, 6, 11, 135, 60, 125, 56, 60, 135, 3, 14.5187
14, 1, wb, attraction, a-b-db, 9, 1, 6, 12, 57, 129, 60, 135, 135, 60, 3, 11.749
14, 1, wb, attraction, a-b-db, 9, 1, 6, 12, 57, 129, 60, 135, 135, 60, 1, 1.08127
14, 1, wb, filler, NA, 999, 999, 6, 13, 106, 182, 141, 150, 119, 118, 3, 3.90789
14, 1, wb, filler, NA, 999, 999, 6, 13, 106, 182, 141, 150, 119, 118, 1, 10.6453
14, 1, wb, filler, NA, 999, 999, 6, 14, 158, 130, 189, 189, 72, 117, 3, 2.11067
14, 1, wb, filler, NA, 999, 999, 6, 14, 158, 130, 189, 189, 72, 117, 2, 1.05782
14, 1, wb, attraction, a-b-da, 9, 2, 6, 15, 165, 90, 90, 165, 157, 86, 3, 8.91839
14, 1, wb, attraction, a-b-da, 9, 2, 6, 15, 165, 90, 90, 165, 157, 86, 1, 13.6059
14, 1, wb, filler, NA, 999, 999, 6, 16, 112, 56, 165, 57, 81, 165, 1, 1.49527
14, 1, wb, filler, NA, 999, 999, 6, 16, 112, 56, 165, 57, 81, 165, 3, 2.4257
14, 1, wb, filler, NA, 999, 999, 6, 17, 96, 87, 113, 192, 61, 76, 3, 1.94139
14, 1, wb, filler, NA, 999, 999, 6, 17, 96, 87, 113, 192, 61, 76, 2, 0.696586
14, 1, wb, attraction, a-b-db, 14, 3, 6, 18, 111, 181, 195, 120, 120, 195, 1, 5.43504
14, 1, wb, attraction, a-b-db, 14, 3, 6, 18, 111, 181, 195, 120, 120, 195, 3, 3.59915
14, 1, wb, attraction, a-b-da, 5, 1, 6, 19, 135, 60, 132, 58, 60, 135, 3, 6.48413
14, 1, wb, attraction, a-b-da, 5, 1, 6, 19, 135, 60, 132, 58, 60, 135, 1, 10.0856
14, 1, wb, attraction, a-b-db, 14, 1, 6, 20, 135, 60, 60, 135, 56, 125, 3, 4.60605
14, 1, wb, attraction, a-b-db, 14, 1, 6, 20, 135, 60, 60, 135, 56, 125, 1, 3.25914
14, 1, wb, attraction, a-b-da, 2, 1, 6, 21, 134, 59, 60, 135, 135, 60, 2, 4.75027
14, 1, wb, attraction, a-b-da, 2, 1, 6, 21, 134, 59, 60, 135, 135, 60, 3, 1.99727
14, 1, wb, attraction, a-b-db, 2, 2, 6, 22, 90, 165, 165, 90, 89, 163, 3, 7.5805
14, 1, wb, attraction, a-b-db, 2, 2, 6, 22, 90, 165, 165, 90, 89, 163, 2, 3.4971
14, 1, wb, attraction, a-b-db, 5, 3, 6, 23, 120, 195, 195, 120, 117, 190, 3, 10.4268
14, 1, wb, attraction, a-b-db, 5, 3, 6, 23, 120, 195, 195, 120, 117, 190, 2, 2.51086
14, 1, wb, attraction, a-b-da, 9, 1, 6, 24, 60, 135, 135, 60, 129, 57, 3, 2.87775
14, 1, wb, attraction, a-b-da, 9, 1, 6, 24, 60, 135, 135, 60, 129, 57, 1, 6.00287
14, 1, wb, attraction, a-b-da, 5, 3, 6, 25, 195, 120, 190, 117, 120, 195, 3, 6.37622
14, 1, wb, attraction, a-b-da, 5, 3, 6, 25, 195, 120, 190, 117, 120, 195, 2, 6.86351
14, 1, wb, catch, NA, 999, 999, 6, 26, 162, 153, 101, 94, 148, 107, 2, 1.59881
14, 1, wb, catch, NA, 999, 999, 6, 26, 162, 153, 101, 94, 148, 107, 1, 0.776175
14, 1, wb, filler, NA, 999, 999, 6, 27, 175, 157, 142, 160, 160, 67, 3, 4.86176
14, 1, wb, filler, NA, 999, 999, 6, 27, 175, 157, 142, 160, 160, 67, 1, 2.12347
14, 1, wb, catch, NA, 999, 999, 6, 28, 155, 160, 139, 116, 77, 118, 3, 2.11311
14, 1, wb, catch, NA, 999, 999, 6, 28, 155, 160, 139, 116, 77, 118, 1, 1.28593
14, 1, wb, attraction, a-b-da, 14, 3, 6, 29, 195, 120, 120, 195, 181, 111, 3, 6.79071
14, 1, wb, attraction, a-b-da, 14, 3, 6, 29, 195, 120, 120, 195, 181, 111, 1, 3.05915
14, 1, wb, filler, NA, 999, 999, 6, 30, 65, 139, 185, 114, 166, 133, 1, 4.39888
14, 1, wb, filler, NA, 999, 999, 6, 30, 65, 139, 185, 114, 166, 133, 3, 6.73113
14, 1, wb, attraction, a-b-db, 5, 1, 6, 31, 58, 132, 135, 60, 60, 135, 1, 30.9324
14, 1, wb, attraction, a-b-db, 5, 1, 6, 31, 58, 132, 135, 60, 60, 135, 3, 4.12605
14, 1, wb, attraction, a-b-db, 2, 1, 6, 32, 59, 134, 60, 135, 135, 60, 1, 3.42158
14, 1, wb, attraction, a-b-db, 2, 1, 6, 32, 59, 134, 60, 135, 135, 60, 3, 1.28267
14, 1, wb, attraction, a-b-db, 9, 2, 6, 33, 86, 157, 165, 90, 90, 165, 1, 4.3017
14, 1, wb, attraction, a-b-db, 9, 2, 6, 33, 86, 157, 165, 90, 90, 165, 3, 3.11923
14, 1, wb, attraction, a-b-da, 2, 2, 6, 34, 90, 165, 163, 89, 165, 90, 1, 28.0491
14, 1, wb, attraction, a-b-da, 2, 2, 6, 34, 90, 165, 163, 89, 165, 90, 3, 1.67522
14, 1, wb, attraction, a-b-da, 9, 3, 6, 35, 120, 195, 186, 114, 195, 120, 1, 6.29622
14, 1, wb, attraction, a-b-da, 9, 3, 6, 35, 120, 195, 186, 114, 195, 120, 3, 3.54688
14, 1, wb, attraction, a-b-da, 2, 3, 6, 36, 193, 119, 120, 195, 195, 120, 3, 5.65057
14, 1, wb, attraction, a-b-da, 2, 3, 6, 36, 193, 119, 120, 195, 195, 120, 2, 3.69248
14, 1, wb, attraction, a-b-db, 2, 3, 6, 37, 119, 193, 195, 120, 120, 195, 3, 8.74189
14, 1, wb, attraction, a-b-db, 2, 3, 6, 37, 119, 193, 195, 120, 120, 195, 2, 9.22726
14, 1, wb, attraction, a-b-da, 5, 1, 7, 1, 132, 58, 60, 135, 135, 60, 1, 9.61458
14, 1, wb, attraction, a-b-da, 5, 1, 7, 1, 132, 58, 60, 135, 135, 60, 3, 7.23623
14, 1, wb, filler, NA, 999, 999, 7, 2, 156, 59, 65, 129, 166, 84, 2, 8.44446
14, 1, wb, filler, NA, 999, 999, 7, 2, 156, 59, 65, 129, 166, 84, 3, 2.03908
14, 1, wb, attraction, a-b-db, 5, 3, 7, 3, 117, 190, 195, 120, 120, 195, 2, 20.1413
14, 1, wb, attraction, a-b-db, 5, 3, 7, 3, 117, 190, 195, 120, 120, 195, 3, 1.53568
14, 1, wb, attraction, a-b-da, 2, 2, 7, 4, 90, 165, 163, 89, 165, 90, 2, 10.2234
14, 1, wb, attraction, a-b-da, 2, 2, 7, 4, 90, 165, 163, 89, 165, 90, 1, 2.46142
14, 1, wb, filler, NA, 999, 999, 7, 5, 61, 59, 181, 152, 119, 138, 1, 1.97406
14, 1, wb, filler, NA, 999, 999, 7, 5, 61, 59, 181, 152, 119, 138, 2, 1.18336
14, 1, wb, attraction, a-b-db, 5, 2, 7, 6, 90, 165, 165, 90, 88, 161, 1, 8.81313
14, 1, wb, attraction, a-b-db, 5, 2, 7, 6, 90, 165, 165, 90, 88, 161, 3, 0.825924
14, 1, wb, attraction, a-b-db, 2, 2, 7, 7, 165, 90, 90, 165, 89, 163, 1, 3.71138
14, 1, wb, attraction, a-b-db, 2, 2, 7, 7, 165, 90, 90, 165, 89, 163, 2, 1.3042
14, 1, wb, attraction, a-b-da, 5, 3, 7, 8, 120, 195, 190, 117, 195, 120, 3, 2.3529
14, 1, wb, attraction, a-b-da, 5, 3, 7, 8, 120, 195, 190, 117, 195, 120, 1, 1.06014
14, 1, wb, attraction, a-b-db, 2, 3, 7, 9, 195, 120, 120, 195, 119, 193, 1, 2.61419
14, 1, wb, attraction, a-b-db, 2, 3, 7, 9, 195, 120, 120, 195, 119, 193, 2, 1.26122
14, 1, wb, attraction, a-b-da, 2, 1, 7, 10, 135, 60, 60, 135, 134, 59, 2, 2.71345
14, 1, wb, attraction, a-b-da, 2, 1, 7, 10, 135, 60, 60, 135, 134, 59, 1, 1.3938
14, 1, wb, attraction, a-b-da, 14, 2, 7, 11, 153, 83, 90, 165, 165, 90, 1, 5.07199
14, 1, wb, attraction, a-b-da, 14, 2, 7, 11, 153, 83, 90, 165, 165, 90, 3, 0.84391
14, 1, wb, attraction, a-b-db, 9, 2, 7, 12, 165, 90, 90, 165, 86, 157, 1, 2.62558
14, 1, wb, attraction, a-b-db, 9, 2, 7, 12, 165, 90, 90, 165, 86, 157, 2, 1.10347
14, 1, wb, attraction, a-b-db, 5, 1, 7, 13, 135, 60, 58, 132, 60, 135, 2, 8.40726
14, 1, wb, attraction, a-b-db, 5, 1, 7, 13, 135, 60, 58, 132, 60, 135, 3, 0.821189
14, 1, wb, attraction, a-b-db, 14, 2, 7, 14, 165, 90, 83, 153, 90, 165, 2, 2.194
14, 1, wb, attraction, a-b-db, 14, 2, 7, 14, 165, 90, 83, 153, 90, 165, 3, 1.80821
14, 1, wb, attraction, a-b-da, 14, 1, 7, 15, 125, 56, 135, 60, 60, 135, 1, 5.04746
14, 1, wb, attraction, a-b-da, 14, 1, 7, 15, 125, 56, 135, 60, 60, 135, 3, 0.943137
14, 1, wb, catch, NA, 999, 999, 7, 16, 93, 102, 193, 122, 126, 129, 1, 1.37801
14, 1, wb, catch, NA, 999, 999, 7, 16, 93, 102, 193, 122, 126, 129, 2, 0.752356
14, 1, wb, catch, NA, 999, 999, 7, 17, 153, 162, 75, 120, 163, 92, 2, 1.71221
14, 1, wb, catch, NA, 999, 999, 7, 17, 153, 162, 75, 120, 163, 92, 1, 0.747969
14, 1, wb, attraction, a-b-db, 14, 3, 7, 18, 195, 120, 120, 195, 111, 181, 3, 2.53901
14, 1, wb, attraction, a-b-db, 14, 3, 7, 18, 195, 120, 120, 195, 111, 181, 1, 1.35702
14, 1, wb, attraction, a-b-da, 5, 2, 7, 19, 161, 88, 90, 165, 165, 90, 2, 2.42902
14, 1, wb, attraction, a-b-da, 5, 2, 7, 19, 161, 88, 90, 165, 165, 90, 3, 1.1367
14, 1, wb, filler, NA, 999, 999, 7, 20, 145, 169, 175, 56, 150, 71, 2, 2.61707
14, 1, wb, filler, NA, 999, 999, 7, 20, 145, 169, 175, 56, 150, 71, 1, 0.679447
14, 1, wb, filler, NA, 999, 999, 7, 21, 123, 96, 73, 174, 181, 77, 1, 3.52912
14, 1, wb, filler, NA, 999, 999, 7, 21, 123, 96, 73, 174, 181, 77, 2, 1.09324
14, 1, wb, attraction, a-b-da, 14, 3, 7, 22, 120, 195, 195, 120, 181, 111, 3, 2.04654
14, 1, wb, attraction, a-b-da, 14, 3, 7, 22, 120, 195, 195, 120, 181, 111, 2, 1.39683
14, 1, wb, filler, NA, 999, 999, 7, 23, 133, 191, 189, 145, 93, 170, 3, 2.36307
14, 1, wb, filler, NA, 999, 999, 7, 23, 133, 191, 189, 145, 93, 170, 1, 0.705693
14, 1, wb, catch, NA, 999, 999, 7, 24, 173, 142, 102, 153, 131, 64, 3, 1.5795
14, 1, wb, catch, NA, 999, 999, 7, 24, 173, 142, 102, 153, 131, 64, 1, 0.69083
14, 1, wb, attraction, a-b-db, 2, 1, 7, 25, 135, 60, 60, 135, 59, 134, 1, 2.53468
14, 1, wb, attraction, a-b-db, 2, 1, 7, 25, 135, 60, 60, 135, 59, 134, 3, 0.990601
14, 1, wb, filler, NA, 999, 999, 7, 26, 184, 72, 109, 91, 144, 94, 2, 2.46032
14, 1, wb, filler, NA, 999, 999, 7, 26, 184, 72, 109, 91, 144, 94, 1, 0.800206
14, 1, wb, filler, NA, 999, 999, 7, 27, 56, 126, 78, 77, 111, 148, 2, 3.16748
14, 1, wb, filler, NA, 999, 999, 7, 27, 56, 126, 78, 77, 111, 148, 3, 2.42322
14, 1, wb, attraction, a-b-da, 2, 3, 7, 28, 120, 195, 195, 120, 193, 119, 3, 2.45837
14, 1, wb, attraction, a-b-da, 2, 3, 7, 28, 120, 195, 195, 120, 193, 119, 1, 0.719944
14, 1, wb, attraction, a-b-da, 9, 2, 7, 29, 157, 86, 165, 90, 90, 165, 1, 1.45661
14, 1, wb, attraction, a-b-da, 9, 2, 7, 29, 157, 86, 165, 90, 90, 165, 3, 2.80594
14, 1, wb, attraction, a-b-da, 9, 3, 7, 30, 186, 114, 195, 120, 120, 195, 3, 1.99398
14, 1, wb, attraction, a-b-da, 9, 3, 7, 30, 186, 114, 195, 120, 120, 195, 2, 0.801967
14, 1, wb, attraction, a-b-db, 14, 1, 7, 31, 135, 60, 60, 135, 56, 125, 3, 2.55989
14, 1, wb, attraction, a-b-db, 14, 1, 7, 31, 135, 60, 60, 135, 56, 125, 2, 0.91162
14, 1, wb, filler, NA, 999, 999, 7, 32, 158, 151, 181, 151, 131, 94, 3, 1.34505
14, 1, wb, filler, NA, 999, 999, 7, 32, 158, 151, 181, 151, 131, 94, 2, 1.77187
14, 1, wb, attraction, a-b-da, 9, 1, 7, 33, 129, 57, 60, 135, 135, 60, 3, 1.85054
14, 1, wb, attraction, a-b-da, 9, 1, 7, 33, 129, 57, 60, 135, 135, 60, 2, 0.695483
14, 1, wb, attraction, a-b-db, 9, 3, 7, 34, 120, 195, 195, 120, 114, 186, 3, 2.1775
14, 1, wb, attraction, a-b-db, 9, 3, 7, 34, 120, 195, 195, 120, 114, 186, 1, 0.87982
14, 1, wb, filler, NA, 999, 999, 7, 35, 151, 118, 183, 66, 98, 89, 3, 2.1647
14, 1, wb, filler, NA, 999, 999, 7, 35, 151, 118, 183, 66, 98, 89, 1, 1.78774
14, 1, wb, filler, NA, 999, 999, 7, 36, 167, 62, 56, 124, 173, 176, 2, 1.77003
14, 1, wb, filler, NA, 999, 999, 7, 36, 167, 62, 56, 124, 173, 176, 3, 1.44159
14, 1, wb, attraction, a-b-db, 9, 1, 7, 37, 135, 60, 60, 135, 57, 129, 1, 2.25375
14, 1, wb, attraction, a-b-db, 9, 1, 7, 37, 135, 60, 60, 135, 57, 129, 3, 2.92228
14, 1, wb, filler, NA, 999, 999, 8, 1, 122, 184, 195, 88, 161, 163, 2, 3.93896
14, 1, wb, filler, NA, 999, 999, 8, 1, 122, 184, 195, 88, 161, 163, 3, 1.10714
14, 1, wb, attraction, a-b-da, 14, 2, 8, 2, 165, 90, 90, 165, 153, 83, 3, 2.66128
14, 1, wb, attraction, a-b-da, 14, 2, 8, 2, 165, 90, 90, 165, 153, 83, 2, 1.7384
14, 1, wb, attraction, a-b-db, 5, 2, 8, 3, 165, 90, 90, 165, 88, 161, 1, 4.63308
14, 1, wb, attraction, a-b-db, 5, 2, 8, 3, 165, 90, 90, 165, 88, 161, 2, 1.54301
14, 1, wb, attraction, a-b-da, 9, 1, 8, 4, 129, 57, 135, 60, 60, 135, 3, 3.34096
14, 1, wb, attraction, a-b-da, 9, 1, 8, 4, 129, 57, 135, 60, 60, 135, 2, 1.44709
14, 1, wb, attraction, a-b-db, 2, 3, 8, 5, 195, 120, 120, 195, 119, 193, 3, 6.63512
14, 1, wb, attraction, a-b-db, 2, 3, 8, 5, 195, 120, 120, 195, 119, 193, 1, 1.56119
14, 1, wb, filler, NA, 999, 999, 8, 6, 189, 81, 61, 123, 117, 136, 2, 2.31984
14, 1, wb, filler, NA, 999, 999, 8, 6, 189, 81, 61, 123, 117, 136, 3, 3.21031
14, 1, wb, filler, NA, 999, 999, 8, 7, 139, 58, 65, 182, 59, 137, 1, 4.18291
14, 1, wb, filler, NA, 999, 999, 8, 7, 139, 58, 65, 182, 59, 137, 2, 0.836307
14, 1, wb, catch, NA, 999, 999, 8, 8, 163, 152, 142, 113, 105, 90, 3, 1.81699
14, 1, wb, catch, NA, 999, 999, 8, 8, 163, 152, 142, 113, 105, 90, 1, 0.65474
14, 1, wb, attraction, a-b-da, 2, 1, 8, 9, 135, 60, 60, 135, 134, 59, 2, 4.08309
14, 1, wb, attraction, a-b-da, 2, 1, 8, 9, 135, 60, 60, 135, 134, 59, 1, 0.774241
14, 1, wb, attraction, a-b-da, 14, 3, 8, 10, 195, 120, 181, 111, 120, 195, 3, 3.43522
14, 1, wb, attraction, a-b-da, 14, 3, 8, 10, 195, 120, 181, 111, 120, 195, 1, 1.7234
14, 1, wb, attraction, a-b-da, 9, 2, 8, 11, 165, 90, 157, 86, 90, 165, 3, 2.47455
14, 1, wb, attraction, a-b-da, 9, 2, 8, 11, 165, 90, 157, 86, 90, 165, 1, 3.84538
14, 1, wb, attraction, a-b-db, 5, 1, 8, 12, 58, 132, 60, 135, 135, 60, 2, 6.44378
14, 1, wb, attraction, a-b-db, 5, 1, 8, 12, 58, 132, 60, 135, 135, 60, 1, 2.4957
14, 1, wb, filler, NA, 999, 999, 8, 13, 148, 67, 176, 63, 191, 164, 1, 3.19913
14, 1, wb, filler, NA, 999, 999, 8, 13, 148, 67, 176, 63, 191, 164, 3, 0.774463
14, 1, wb, attraction, a-b-db, 14, 2, 8, 14, 83, 153, 165, 90, 90, 165, 2, 4.71732
14, 1, wb, attraction, a-b-db, 14, 2, 8, 14, 83, 153, 165, 90, 90, 165, 3, 1.04607
14, 1, wb, attraction, a-b-da, 5, 3, 8, 15, 195, 120, 120, 195, 190, 117, 3, 2.17915
14, 1, wb, attraction, a-b-da, 5, 3, 8, 15, 195, 120, 120, 195, 190, 117, 2, 1.71499
14, 1, wb, attraction, a-b-da, 2, 2, 8, 16, 90, 165, 163, 89, 165, 90, 1, 3.43234
14, 1, wb, attraction, a-b-da, 2, 2, 8, 16, 90, 165, 163, 89, 165, 90, 2, 1.4706
14, 1, wb, catch, NA, 999, 999, 8, 17, 183, 132, 143, 112, 94, 101, 3, 1.32889
14, 1, wb, catch, NA, 999, 999, 8, 17, 183, 132, 143, 112, 94, 101, 1, 0.714246
14, 1, wb, attraction, a-b-db, 14, 1, 8, 18, 56, 125, 60, 135, 135, 60, 1, 2.70244
14, 1, wb, attraction, a-b-db, 14, 1, 8, 18, 56, 125, 60, 135, 135, 60, 3, 1.18453
14, 1, wb, attraction, a-b-db, 9, 2, 8, 19, 165, 90, 90, 165, 86, 157, 1, 3.10411
14, 1, wb, attraction, a-b-db, 9, 2, 8, 19, 165, 90, 90, 165, 86, 157, 3, 1.61598
14, 1, wb, attraction, a-b-db, 14, 3, 8, 20, 195, 120, 111, 181, 120, 195, 2, 3.63625
14, 1, wb, attraction, a-b-db, 14, 3, 8, 20, 195, 120, 111, 181, 120, 195, 1, 2.93775
14, 1, wb, attraction, a-b-da, 14, 1, 8, 21, 125, 56, 135, 60, 60, 135, 2, 8.20287
14, 1, wb, attraction, a-b-da, 14, 1, 8, 21, 125, 56, 135, 60, 60, 135, 3, 1.01602
14, 1, wb, attraction, a-b-da, 5, 2, 8, 22, 165, 90, 90, 165, 161, 88, 2, 6.00338
14, 1, wb, attraction, a-b-da, 5, 2, 8, 22, 165, 90, 90, 165, 161, 88, 3, 2.44747
14, 1, wb, filler, NA, 999, 999, 8, 23, 84, 186, 109, 63, 129, 76, 2, 1.39695
14, 1, wb, filler, NA, 999, 999, 8, 23, 84, 186, 109, 63, 129, 76, 1, 0.939869
14, 1, wb, filler, NA, 999, 999, 8, 24, 76, 160, 95, 191, 75, 144, 3, 2.89205
14, 1, wb, filler, NA, 999, 999, 8, 24, 76, 160, 95, 191, 75, 144, 2, 1.29715
14, 1, wb, filler, NA, 999, 999, 8, 25, 178, 124, 124, 113, 156, 71, 3, 1.9515
14, 1, wb, filler, NA, 999, 999, 8, 25, 178, 124, 124, 113, 156, 71, 1, 1.5528
14, 1, wb, attraction, a-b-da, 5, 1, 8, 26, 135, 60, 60, 135, 132, 58, 3, 2.71951
14, 1, wb, attraction, a-b-da, 5, 1, 8, 26, 135, 60, 60, 135, 132, 58, 1, 2.29825
14, 1, wb, filler, NA, 999, 999, 8, 27, 116, 153, 157, 87, 154, 76, 3, 4.25997
14, 1, wb, filler, NA, 999, 999, 8, 27, 116, 153, 157, 87, 154, 76, 1, 1.28214
14, 1, wb, attraction, a-b-da, 2, 3, 8, 28, 193, 119, 195, 120, 120, 195, 1, 4.99504
14, 1, wb, attraction, a-b-da, 2, 3, 8, 28, 193, 119, 195, 120, 120, 195, 2, 2.51305
14, 1, wb, attraction, a-b-db, 9, 1, 8, 29, 57, 129, 60, 135, 135, 60, 1, 3.39372
14, 1, wb, attraction, a-b-db, 9, 1, 8, 29, 57, 129, 60, 135, 135, 60, 3, 1.13699
14, 1, wb, attraction, a-b-db, 9, 3, 8, 30, 195, 120, 114, 186, 120, 195, 2, 2.78772
14, 1, wb, attraction, a-b-db, 9, 3, 8, 30, 195, 120, 114, 186, 120, 195, 1, 1.75309
14, 1, wb, attraction, a-b-db, 2, 1, 8, 31, 60, 135, 59, 134, 135, 60, 3, 3.13662
14, 1, wb, attraction, a-b-db, 2, 1, 8, 31, 60, 135, 59, 134, 135, 60, 1, 1.29732
14, 1, wb, attraction, a-b-db, 2, 2, 8, 32, 90, 165, 165, 90, 89, 163, 3, 2.53072
14, 1, wb, attraction, a-b-db, 2, 2, 8, 32, 90, 165, 165, 90, 89, 163, 2, 1.74026
14, 1, wb, filler, NA, 999, 999, 8, 33, 71, 139, 106, 62, 70, 158, 2, 1.74
14, 1, wb, filler, NA, 999, 999, 8, 33, 71, 139, 106, 62, 70, 158, 3, 0.782923
14, 1, wb, attraction, a-b-da, 9, 3, 8, 34, 186, 114, 120, 195, 195, 120, 3, 4.46162
14, 1, wb, attraction, a-b-da, 9, 3, 8, 34, 186, 114, 120, 195, 195, 120, 2, 0.801891
14, 1, wb, attraction, a-b-db, 5, 3, 8, 35, 120, 195, 117, 190, 195, 120, 3, 7.16028
14, 1, wb, attraction, a-b-db, 5, 3, 8, 35, 120, 195, 117, 190, 195, 120, 1, 0.902138
14, 1, wb, catch, NA, 999, 999, 8, 36, 96, 159, 121, 74, 159, 156, 2, 1.31197
14, 1, wb, catch, NA, 999, 999, 8, 36, 96, 159, 121, 74, 159, 156, 3, 0.755193
14, 1, wb, filler, NA, 999, 999, 8, 37, 73, 145, 106, 62, 136, 178, 2, 1.4012
14, 1, wb, filler, NA, 999, 999, 8, 37, 73, 145, 106, 62, 136, 178, 3, 0.720301
