sub_n, computer_n, bw_cond, effect, set, distance, diag, block_n, trial_n, h1, w1, h2, w2, h3, w3, choice, rt 
138, 1, wb, practice, NA, 999, 999, 0, 1, 147, 189, 139, 144, 153, 65, 3, 5.47215
138, 1, wb, practice, NA, 999, 999, 0, 1, 147, 189, 139, 144, 153, 65, 1, 4.1951
138, 1, wb, practice, NA, 999, 999, 0, 2, 101, 62, 180, 71, 146, 101, 1, 2.41327
138, 1, wb, practice, NA, 999, 999, 0, 2, 101, 62, 180, 71, 146, 101, 3, 4.75499
138, 1, wb, practice, NA, 999, 999, 0, 3, 180, 115, 174, 63, 67, 138, 3, 5.95065
138, 1, wb, practice, NA, 999, 999, 0, 3, 180, 115, 174, 63, 67, 138, 1, 2.0211
138, 1, wb, filler, NA, 999, 999, 1, 1, 99, 121, 99, 161, 62, 186, 1, 11.402
138, 1, wb, filler, NA, 999, 999, 1, 1, 99, 121, 99, 161, 62, 186, 2, 0.965706
138, 1, wb, attraction, a-b-db, 2, 3, 1, 2, 120, 195, 195, 120, 119, 193, 1, 8.71668
138, 1, wb, attraction, a-b-db, 2, 3, 1, 2, 120, 195, 195, 120, 119, 193, 3, 6.55673
138, 1, wb, attraction, a-b-db, 5, 2, 1, 3, 165, 90, 90, 165, 88, 161, 1, 7.09856
138, 1, wb, attraction, a-b-db, 5, 2, 1, 3, 165, 90, 90, 165, 88, 161, 2, 2.87565
138, 1, wb, attraction, a-b-da, 9, 1, 1, 4, 135, 60, 129, 57, 60, 135, 2, 10.0853
138, 1, wb, attraction, a-b-da, 9, 1, 1, 4, 135, 60, 129, 57, 60, 135, 3, 8.27011
138, 1, wb, attraction, a-b-da, 5, 1, 1, 5, 135, 60, 60, 135, 132, 58, 1, 9.16677
138, 1, wb, attraction, a-b-da, 5, 1, 1, 5, 135, 60, 60, 135, 132, 58, 2, 2.88461
138, 1, wb, attraction, a-b-da, 9, 2, 1, 6, 90, 165, 157, 86, 165, 90, 2, 4.7424
138, 1, wb, attraction, a-b-da, 9, 2, 1, 6, 90, 165, 157, 86, 165, 90, 1, 2.47005
138, 1, wb, attraction, a-b-da, 5, 3, 1, 7, 120, 195, 195, 120, 190, 117, 3, 8.98462
138, 1, wb, attraction, a-b-da, 5, 3, 1, 7, 120, 195, 195, 120, 190, 117, 2, 1.58174
138, 1, wb, attraction, a-b-db, 2, 1, 1, 8, 135, 60, 60, 135, 59, 134, 1, 2.81195
138, 1, wb, attraction, a-b-db, 2, 1, 1, 8, 135, 60, 60, 135, 59, 134, 2, 2.70579
138, 1, wb, filler, NA, 999, 999, 1, 9, 167, 85, 63, 78, 106, 118, 2, 2.01874
138, 1, wb, filler, NA, 999, 999, 1, 9, 167, 85, 63, 78, 106, 118, 1, 1.81676
138, 1, wb, attraction, a-b-da, 2, 2, 1, 10, 165, 90, 90, 165, 163, 89, 3, 4.58156
138, 1, wb, attraction, a-b-da, 2, 2, 1, 10, 165, 90, 90, 165, 163, 89, 2, 2.16416
138, 1, wb, filler, NA, 999, 999, 1, 11, 108, 107, 159, 169, 93, 172, 1, 1.71453
138, 1, wb, filler, NA, 999, 999, 1, 11, 108, 107, 159, 169, 93, 172, 2, 1.45282
138, 1, wb, attraction, a-b-da, 5, 2, 1, 12, 90, 165, 161, 88, 165, 90, 1, 3.19221
138, 1, wb, attraction, a-b-da, 5, 2, 1, 12, 90, 165, 161, 88, 165, 90, 3, 4.11054
138, 1, wb, filler, NA, 999, 999, 1, 13, 71, 66, 135, 168, 114, 86, 1, 1.8864
138, 1, wb, filler, NA, 999, 999, 1, 13, 71, 66, 135, 168, 114, 86, 2, 0.425953
138, 1, wb, filler, NA, 999, 999, 1, 14, 58, 128, 121, 162, 69, 161, 1, 1.38248
138, 1, wb, filler, NA, 999, 999, 1, 14, 58, 128, 121, 162, 69, 161, 2, 0.773868
138, 1, wb, attraction, a-b-db, 9, 3, 1, 15, 114, 186, 195, 120, 120, 195, 1, 12.8682
138, 1, wb, attraction, a-b-db, 9, 3, 1, 15, 114, 186, 195, 120, 120, 195, 3, 1.18886
138, 1, wb, attraction, a-b-da, 9, 3, 1, 16, 120, 195, 186, 114, 195, 120, 2, 5.41118
138, 1, wb, attraction, a-b-da, 9, 3, 1, 16, 120, 195, 186, 114, 195, 120, 1, 3.74406
138, 1, wb, attraction, a-b-db, 14, 3, 1, 17, 111, 181, 120, 195, 195, 120, 1, 4.31882
138, 1, wb, attraction, a-b-db, 14, 3, 1, 17, 111, 181, 120, 195, 195, 120, 2, 1.36017
138, 1, wb, attraction, a-b-db, 5, 1, 1, 18, 60, 135, 135, 60, 58, 132, 2, 9.40702
138, 1, wb, attraction, a-b-db, 5, 1, 1, 18, 60, 135, 135, 60, 58, 132, 1, 2.88264
138, 1, wb, attraction, a-b-db, 14, 2, 1, 19, 83, 153, 165, 90, 90, 165, 1, 3.02844
138, 1, wb, attraction, a-b-db, 14, 2, 1, 19, 83, 153, 165, 90, 90, 165, 3, 2.48142
138, 1, wb, filler, NA, 999, 999, 1, 20, 88, 177, 101, 76, 174, 193, 2, 0.699213
138, 1, wb, filler, NA, 999, 999, 1, 20, 88, 177, 101, 76, 174, 193, 3, 1.19034
138, 1, wb, attraction, a-b-da, 14, 2, 1, 21, 153, 83, 90, 165, 165, 90, 1, 3.57194
138, 1, wb, attraction, a-b-da, 14, 2, 1, 21, 153, 83, 90, 165, 165, 90, 2, 0.467548
138, 1, wb, attraction, a-b-da, 14, 1, 1, 22, 135, 60, 60, 135, 125, 56, 3, 4.72665
138, 1, wb, attraction, a-b-da, 14, 1, 1, 22, 135, 60, 60, 135, 125, 56, 2, 0.727136
138, 1, wb, catch, NA, 999, 999, 1, 23, 128, 127, 133, 62, 194, 121, 2, 2.22355
138, 1, wb, catch, NA, 999, 999, 1, 23, 128, 127, 133, 62, 194, 121, 3, 6.54073
138, 1, wb, filler, NA, 999, 999, 1, 24, 68, 138, 167, 153, 185, 147, 1, 1.49125
138, 1, wb, filler, NA, 999, 999, 1, 24, 68, 138, 167, 153, 185, 147, 3, 9.6621
138, 1, wb, attraction, a-b-db, 14, 1, 1, 25, 60, 135, 135, 60, 56, 125, 3, 11.1264
138, 1, wb, attraction, a-b-db, 14, 1, 1, 25, 60, 135, 135, 60, 56, 125, 1, 0.556932
138, 1, wb, attraction, a-b-da, 2, 1, 1, 26, 135, 60, 60, 135, 134, 59, 1, 1.90806
138, 1, wb, attraction, a-b-da, 2, 1, 1, 26, 135, 60, 60, 135, 134, 59, 2, 0.845969
138, 1, wb, attraction, a-b-db, 9, 2, 1, 27, 86, 157, 90, 165, 165, 90, 1, 5.56968
138, 1, wb, attraction, a-b-db, 9, 2, 1, 27, 86, 157, 90, 165, 165, 90, 3, 2.24861
138, 1, wb, filler, NA, 999, 999, 1, 28, 151, 63, 110, 59, 172, 57, 2, 1.45982
138, 1, wb, filler, NA, 999, 999, 1, 28, 151, 63, 110, 59, 172, 57, 1, 14.056
138, 1, wb, attraction, a-b-da, 14, 3, 1, 29, 195, 120, 120, 195, 181, 111, 3, 1.37549
138, 1, wb, attraction, a-b-da, 14, 3, 1, 29, 195, 120, 120, 195, 181, 111, 2, 1.22319
138, 1, wb, attraction, a-b-da, 2, 3, 1, 30, 195, 120, 193, 119, 120, 195, 1, 7.00403
138, 1, wb, attraction, a-b-da, 2, 3, 1, 30, 195, 120, 193, 119, 120, 195, 2, 0.84113
138, 1, wb, attraction, a-b-db, 5, 3, 1, 31, 117, 190, 120, 195, 195, 120, 1, 4.18895
138, 1, wb, attraction, a-b-db, 5, 3, 1, 31, 117, 190, 120, 195, 195, 120, 2, 0.835431
138, 1, wb, catch, NA, 999, 999, 1, 32, 160, 95, 179, 136, 86, 109, 3, 1.15983
138, 1, wb, catch, NA, 999, 999, 1, 32, 160, 95, 179, 136, 86, 109, 2, 0.488107
138, 1, wb, filler, NA, 999, 999, 1, 33, 84, 112, 124, 157, 101, 149, 1, 1.55466
138, 1, wb, filler, NA, 999, 999, 1, 33, 84, 112, 124, 157, 101, 149, 2, 0.434721
138, 1, wb, attraction, a-b-db, 9, 1, 1, 34, 60, 135, 135, 60, 57, 129, 1, 7.3592
138, 1, wb, attraction, a-b-db, 9, 1, 1, 34, 60, 135, 135, 60, 57, 129, 3, 1.45353
138, 1, wb, catch, NA, 999, 999, 1, 35, 126, 189, 142, 113, 86, 109, 3, 1.40896
138, 1, wb, catch, NA, 999, 999, 1, 35, 126, 189, 142, 113, 86, 109, 1, 0.799277
138, 1, wb, filler, NA, 999, 999, 1, 36, 86, 65, 107, 104, 84, 152, 1, 1.78891
138, 1, wb, filler, NA, 999, 999, 1, 36, 86, 65, 107, 104, 84, 152, 3, 0.371706
138, 1, wb, attraction, a-b-db, 2, 2, 1, 37, 165, 90, 89, 163, 90, 165, 1, 8.50692
138, 1, wb, attraction, a-b-db, 2, 2, 1, 37, 165, 90, 89, 163, 90, 165, 2, 4.19545
138, 1, wb, attraction, a-b-da, 14, 1, 2, 1, 135, 60, 60, 135, 125, 56, 3, 6.98401
138, 1, wb, attraction, a-b-da, 14, 1, 2, 1, 135, 60, 60, 135, 125, 56, 2, 2.26999
138, 1, wb, filler, NA, 999, 999, 2, 2, 194, 91, 60, 195, 132, 56, 3, 1.18444
138, 1, wb, filler, NA, 999, 999, 2, 2, 194, 91, 60, 195, 132, 56, 1, 0.768187
138, 1, wb, attraction, a-b-db, 9, 3, 2, 3, 195, 120, 114, 186, 120, 195, 1, 19.9031
138, 1, wb, attraction, a-b-db, 9, 3, 2, 3, 195, 120, 114, 186, 120, 195, 2, 0.676284
138, 1, wb, attraction, a-b-db, 2, 3, 2, 4, 120, 195, 119, 193, 195, 120, 1, 6.02263
138, 1, wb, attraction, a-b-db, 2, 3, 2, 4, 120, 195, 119, 193, 195, 120, 2, 0.3475
138, 1, wb, attraction, a-b-db, 9, 2, 2, 5, 90, 165, 86, 157, 165, 90, 3, 5.2592
138, 1, wb, attraction, a-b-db, 9, 2, 2, 5, 90, 165, 86, 157, 165, 90, 1, 1.2382
138, 1, wb, attraction, a-b-da, 2, 2, 2, 6, 165, 90, 163, 89, 90, 165, 2, 4.01835
138, 1, wb, attraction, a-b-da, 2, 2, 2, 6, 165, 90, 163, 89, 90, 165, 3, 2.78379
138, 1, wb, attraction, a-b-db, 14, 2, 2, 7, 165, 90, 90, 165, 83, 153, 3, 2.08549
138, 1, wb, attraction, a-b-db, 14, 2, 2, 7, 165, 90, 90, 165, 83, 153, 2, 0.424919
138, 1, wb, filler, NA, 999, 999, 2, 8, 169, 106, 144, 56, 63, 193, 2, 1.51725
138, 1, wb, filler, NA, 999, 999, 2, 8, 169, 106, 144, 56, 63, 193, 1, 0.4395
138, 1, wb, attraction, a-b-db, 14, 1, 2, 9, 60, 135, 135, 60, 56, 125, 3, 1.54796
138, 1, wb, attraction, a-b-db, 14, 1, 2, 9, 60, 135, 135, 60, 56, 125, 2, 0.388719
138, 1, wb, attraction, a-b-da, 14, 3, 2, 10, 195, 120, 120, 195, 181, 111, 3, 1.93921
138, 1, wb, attraction, a-b-da, 14, 3, 2, 10, 195, 120, 120, 195, 181, 111, 2, 1.74795
138, 1, wb, filler, NA, 999, 999, 2, 11, 138, 74, 178, 134, 135, 107, 1, 1.02741
138, 1, wb, filler, NA, 999, 999, 2, 11, 138, 74, 178, 134, 135, 107, 2, 0.408975
138, 1, wb, catch, NA, 999, 999, 2, 12, 135, 60, 157, 98, 190, 125, 1, 0.974221
138, 1, wb, catch, NA, 999, 999, 2, 12, 135, 60, 157, 98, 190, 125, 3, 1.00608
138, 1, wb, attraction, a-b-da, 2, 3, 2, 13, 193, 119, 120, 195, 195, 120, 1, 6.51553
138, 1, wb, attraction, a-b-da, 2, 3, 2, 13, 193, 119, 120, 195, 195, 120, 2, 0.316042
138, 1, wb, attraction, a-b-da, 9, 1, 2, 14, 129, 57, 60, 135, 135, 60, 1, 10.8534
138, 1, wb, attraction, a-b-da, 9, 1, 2, 14, 129, 57, 60, 135, 135, 60, 2, 3.99909
138, 1, wb, filler, NA, 999, 999, 2, 15, 128, 125, 171, 187, 105, 176, 1, 3.9238
138, 1, wb, filler, NA, 999, 999, 2, 15, 128, 125, 171, 187, 105, 176, 2, 0.30058
138, 1, wb, attraction, a-b-db, 5, 2, 2, 16, 90, 165, 165, 90, 88, 161, 2, 5.94262
138, 1, wb, attraction, a-b-db, 5, 2, 2, 16, 90, 165, 165, 90, 88, 161, 3, 0.485864
138, 1, wb, attraction, a-b-da, 5, 2, 2, 17, 90, 165, 165, 90, 161, 88, 2, 10.3603
138, 1, wb, attraction, a-b-da, 5, 2, 2, 17, 90, 165, 165, 90, 161, 88, 1, 0.58969
138, 1, wb, attraction, a-b-db, 9, 1, 2, 18, 135, 60, 60, 135, 57, 129, 3, 2.40416
138, 1, wb, attraction, a-b-db, 9, 1, 2, 18, 135, 60, 60, 135, 57, 129, 2, 0.538771
138, 1, wb, attraction, a-b-db, 2, 2, 2, 19, 90, 165, 165, 90, 89, 163, 2, 7.50715
138, 1, wb, attraction, a-b-db, 2, 2, 2, 19, 90, 165, 165, 90, 89, 163, 3, 0.459605
138, 1, wb, attraction, a-b-da, 14, 2, 2, 20, 90, 165, 165, 90, 153, 83, 3, 3.20654
138, 1, wb, attraction, a-b-da, 14, 2, 2, 20, 90, 165, 165, 90, 153, 83, 1, 1.89217
138, 1, wb, attraction, a-b-db, 5, 1, 2, 21, 135, 60, 58, 132, 60, 135, 1, 6.03745
138, 1, wb, attraction, a-b-db, 5, 1, 2, 21, 135, 60, 58, 132, 60, 135, 2, 2.90573
138, 1, wb, catch, NA, 999, 999, 2, 22, 169, 146, 155, 100, 101, 94, 3, 0.730676
138, 1, wb, catch, NA, 999, 999, 2, 22, 169, 146, 155, 100, 101, 94, 1, 0.764425
138, 1, wb, attraction, a-b-da, 2, 1, 2, 23, 135, 60, 60, 135, 134, 59, 2, 6.66748
138, 1, wb, attraction, a-b-da, 2, 1, 2, 23, 135, 60, 60, 135, 134, 59, 3, 0.65395
138, 1, wb, attraction, a-b-db, 5, 3, 2, 24, 195, 120, 120, 195, 117, 190, 1, 2.39366
138, 1, wb, attraction, a-b-db, 5, 3, 2, 24, 195, 120, 120, 195, 117, 190, 2, 3.09633
138, 1, wb, filler, NA, 999, 999, 2, 25, 151, 97, 60, 127, 118, 90, 2, 3.79341
138, 1, wb, filler, NA, 999, 999, 2, 25, 151, 97, 60, 127, 118, 90, 1, 0.407571
138, 1, wb, attraction, a-b-da, 5, 3, 2, 26, 120, 195, 195, 120, 190, 117, 1, 1.49264
138, 1, wb, attraction, a-b-da, 5, 3, 2, 26, 120, 195, 195, 120, 190, 117, 2, 0.599465
138, 1, wb, catch, NA, 999, 999, 2, 27, 90, 165, 72, 123, 187, 128, 2, 0.821127
138, 1, wb, catch, NA, 999, 999, 2, 27, 90, 165, 72, 123, 187, 128, 3, 0.419492
138, 1, wb, attraction, a-b-da, 5, 1, 2, 28, 132, 58, 135, 60, 60, 135, 1, 8.52074
138, 1, wb, attraction, a-b-da, 5, 1, 2, 28, 132, 58, 135, 60, 60, 135, 3, 2.32873
138, 1, wb, filler, NA, 999, 999, 2, 29, 64, 100, 118, 70, 174, 120, 1, 0.760664
138, 1, wb, filler, NA, 999, 999, 2, 29, 64, 100, 118, 70, 174, 120, 3, 0.529121
138, 1, wb, filler, NA, 999, 999, 2, 30, 194, 105, 87, 76, 89, 75, 3, 0.865346
138, 1, wb, filler, NA, 999, 999, 2, 30, 194, 105, 87, 76, 89, 75, 1, 0.525681
138, 1, wb, filler, NA, 999, 999, 2, 31, 126, 147, 64, 121, 170, 122, 2, 0.670238
138, 1, wb, filler, NA, 999, 999, 2, 31, 126, 147, 64, 121, 170, 122, 3, 0.858795
138, 1, wb, attraction, a-b-db, 14, 3, 2, 32, 120, 195, 111, 181, 195, 120, 3, 8.96563
138, 1, wb, attraction, a-b-db, 14, 3, 2, 32, 120, 195, 111, 181, 195, 120, 1, 0.411515
138, 1, wb, attraction, a-b-db, 2, 1, 2, 33, 59, 134, 135, 60, 60, 135, 1, 8.04067
138, 1, wb, attraction, a-b-db, 2, 1, 2, 33, 59, 134, 135, 60, 60, 135, 3, 0.435391
138, 1, wb, filler, NA, 999, 999, 2, 34, 116, 141, 72, 86, 90, 150, 2, 3.06387
138, 1, wb, filler, NA, 999, 999, 2, 34, 116, 141, 72, 86, 90, 150, 1, 0.331575
138, 1, wb, filler, NA, 999, 999, 2, 35, 192, 130, 146, 121, 56, 159, 3, 2.14818
138, 1, wb, filler, NA, 999, 999, 2, 35, 192, 130, 146, 121, 56, 159, 1, 0.500656
138, 1, wb, attraction, a-b-da, 9, 2, 2, 36, 90, 165, 157, 86, 165, 90, 2, 8.83059
138, 1, wb, attraction, a-b-da, 9, 2, 2, 36, 90, 165, 157, 86, 165, 90, 1, 1.13771
138, 1, wb, attraction, a-b-da, 9, 3, 2, 37, 195, 120, 120, 195, 186, 114, 3, 2.94596
138, 1, wb, attraction, a-b-da, 9, 3, 2, 37, 195, 120, 120, 195, 186, 114, 2, 0.362308
138, 1, wb, attraction, a-b-db, 5, 2, 3, 1, 90, 165, 88, 161, 165, 90, 3, 11.6494
138, 1, wb, attraction, a-b-db, 5, 2, 3, 1, 90, 165, 88, 161, 165, 90, 1, 1.29945
138, 1, wb, attraction, a-b-db, 2, 2, 3, 2, 89, 163, 90, 165, 165, 90, 1, 2.45273
138, 1, wb, attraction, a-b-db, 2, 2, 3, 2, 89, 163, 90, 165, 165, 90, 2, 0.505346
138, 1, wb, attraction, a-b-da, 14, 3, 3, 3, 120, 195, 195, 120, 181, 111, 3, 1.45108
138, 1, wb, attraction, a-b-da, 14, 3, 3, 3, 120, 195, 195, 120, 181, 111, 2, 0.383916
138, 1, wb, filler, NA, 999, 999, 3, 4, 128, 106, 178, 76, 111, 101, 3, 2.3343
138, 1, wb, filler, NA, 999, 999, 3, 4, 128, 106, 178, 76, 111, 101, 2, 9.11171
138, 1, wb, attraction, a-b-db, 2, 3, 3, 5, 195, 120, 119, 193, 120, 195, 1, 4.69413
138, 1, wb, attraction, a-b-db, 2, 3, 3, 5, 195, 120, 119, 193, 120, 195, 2, 0.368012
138, 1, wb, attraction, a-b-da, 2, 3, 3, 6, 195, 120, 193, 119, 120, 195, 1, 15.7271
138, 1, wb, attraction, a-b-da, 2, 3, 3, 6, 195, 120, 193, 119, 120, 195, 2, 0.372221
138, 1, wb, attraction, a-b-db, 14, 3, 3, 7, 195, 120, 111, 181, 120, 195, 2, 4.51526
138, 1, wb, attraction, a-b-db, 14, 3, 3, 7, 195, 120, 111, 181, 120, 195, 3, 0.812633
138, 1, wb, attraction, a-b-db, 5, 1, 3, 8, 60, 135, 58, 132, 135, 60, 1, 3.00944
138, 1, wb, attraction, a-b-db, 5, 1, 3, 8, 60, 135, 58, 132, 135, 60, 3, 1.19931
138, 1, wb, attraction, a-b-da, 5, 3, 3, 9, 190, 117, 195, 120, 120, 195, 1, 13.1488
138, 1, wb, attraction, a-b-da, 5, 3, 3, 9, 190, 117, 195, 120, 120, 195, 2, 0.513896
138, 1, wb, catch, NA, 999, 999, 3, 10, 92, 103, 119, 136, 184, 131, 1, 0.883136
138, 1, wb, catch, NA, 999, 999, 3, 10, 92, 103, 119, 136, 184, 131, 3, 0.630982
138, 1, wb, filler, NA, 999, 999, 3, 11, 158, 67, 128, 88, 76, 87, 3, 0.851212
138, 1, wb, filler, NA, 999, 999, 3, 11, 158, 67, 128, 88, 76, 87, 2, 0.384298
138, 1, wb, attraction, a-b-da, 9, 1, 3, 12, 129, 57, 60, 135, 135, 60, 1, 3.74276
138, 1, wb, attraction, a-b-da, 9, 1, 3, 12, 129, 57, 60, 135, 135, 60, 2, 10.6708
138, 1, wb, attraction, a-b-da, 5, 1, 3, 13, 135, 60, 132, 58, 60, 135, 2, 5.78291
138, 1, wb, attraction, a-b-da, 5, 1, 3, 13, 135, 60, 132, 58, 60, 135, 3, 0.389127
138, 1, wb, filler, NA, 999, 999, 3, 14, 100, 183, 140, 186, 70, 194, 3, 1.53951
138, 1, wb, filler, NA, 999, 999, 3, 14, 100, 183, 140, 186, 70, 194, 2, 0.356279
138, 1, wb, attraction, a-b-da, 9, 3, 3, 15, 186, 114, 195, 120, 120, 195, 1, 2.08404
138, 1, wb, attraction, a-b-da, 9, 3, 3, 15, 186, 114, 195, 120, 120, 195, 3, 0.407473
138, 1, wb, attraction, a-b-da, 2, 2, 3, 16, 90, 165, 163, 89, 165, 90, 2, 9.32469
138, 1, wb, attraction, a-b-da, 2, 2, 3, 16, 90, 165, 163, 89, 165, 90, 1, 2.26765
138, 1, wb, attraction, a-b-db, 14, 2, 3, 17, 165, 90, 90, 165, 83, 153, 3, 1.75823
138, 1, wb, attraction, a-b-db, 14, 2, 3, 17, 165, 90, 90, 165, 83, 153, 2, 0.414356
138, 1, wb, catch, NA, 999, 999, 3, 18, 188, 127, 142, 113, 120, 75, 3, 0.923569
138, 1, wb, catch, NA, 999, 999, 3, 18, 188, 127, 142, 113, 120, 75, 1, 0.525159
138, 1, wb, filler, NA, 999, 999, 3, 19, 191, 99, 151, 130, 168, 162, 1, 0.917598
138, 1, wb, filler, NA, 999, 999, 3, 19, 191, 99, 151, 130, 168, 162, 3, 0.375923
138, 1, wb, attraction, a-b-da, 9, 2, 3, 20, 90, 165, 157, 86, 165, 90, 2, 7.31041
138, 1, wb, attraction, a-b-da, 9, 2, 3, 20, 90, 165, 157, 86, 165, 90, 1, 0.510786
138, 1, wb, attraction, a-b-db, 5, 3, 3, 21, 120, 195, 117, 190, 195, 120, 1, 2.20787
138, 1, wb, attraction, a-b-db, 5, 3, 3, 21, 120, 195, 117, 190, 195, 120, 2, 2.59796
138, 1, wb, filler, NA, 999, 999, 3, 22, 122, 66, 117, 130, 111, 193, 1, 0.691141
138, 1, wb, filler, NA, 999, 999, 3, 22, 122, 66, 117, 130, 111, 193, 3, 0.358203
138, 1, wb, filler, NA, 999, 999, 3, 23, 83, 115, 113, 60, 162, 171, 2, 0.997229
138, 1, wb, filler, NA, 999, 999, 3, 23, 83, 115, 113, 60, 162, 171, 3, 0.332214
138, 1, wb, filler, NA, 999, 999, 3, 24, 84, 126, 65, 59, 154, 59, 2, 0.60463
138, 1, wb, filler, NA, 999, 999, 3, 24, 84, 126, 65, 59, 154, 59, 1, 1.01186
138, 1, wb, filler, NA, 999, 999, 3, 25, 145, 192, 174, 73, 98, 192, 2, 1.57681
138, 1, wb, filler, NA, 999, 999, 3, 25, 145, 192, 174, 73, 98, 192, 1, 0.536239
138, 1, wb, attraction, a-b-db, 14, 1, 3, 26, 60, 135, 56, 125, 135, 60, 2, 10.1047
138, 1, wb, attraction, a-b-db, 14, 1, 3, 26, 60, 135, 56, 125, 135, 60, 1, 4.49689
138, 1, wb, attraction, a-b-db, 2, 1, 3, 27, 135, 60, 59, 134, 60, 135, 1, 4.64144
138, 1, wb, attraction, a-b-db, 2, 1, 3, 27, 135, 60, 59, 134, 60, 135, 2, 2.22927
138, 1, wb, attraction, a-b-da, 14, 2, 3, 28, 90, 165, 153, 83, 165, 90, 2, 3.12128
138, 1, wb, attraction, a-b-da, 14, 2, 3, 28, 90, 165, 153, 83, 165, 90, 1, 3.35498
138, 1, wb, attraction, a-b-da, 5, 2, 3, 29, 165, 90, 90, 165, 161, 88, 1, 6.22571
138, 1, wb, attraction, a-b-da, 5, 2, 3, 29, 165, 90, 90, 165, 161, 88, 2, 0.405764
138, 1, wb, attraction, a-b-db, 9, 1, 3, 30, 57, 129, 135, 60, 60, 135, 1, 7.20367
138, 1, wb, attraction, a-b-db, 9, 1, 3, 30, 57, 129, 135, 60, 60, 135, 3, 4.87279
138, 1, wb, attraction, a-b-db, 9, 3, 3, 31, 120, 195, 195, 120, 114, 186, 2, 6.78646
138, 1, wb, attraction, a-b-db, 9, 3, 3, 31, 120, 195, 195, 120, 114, 186, 1, 0.512228
138, 1, wb, filler, NA, 999, 999, 3, 32, 124, 181, 98, 88, 57, 67, 3, 0.713369
138, 1, wb, filler, NA, 999, 999, 3, 32, 124, 181, 98, 88, 57, 67, 1, 0.45976
138, 1, wb, attraction, a-b-da, 2, 1, 3, 33, 60, 135, 134, 59, 135, 60, 1, 1.49492
138, 1, wb, attraction, a-b-da, 2, 1, 3, 33, 60, 135, 134, 59, 135, 60, 3, 0.72993
138, 1, wb, attraction, a-b-da, 14, 1, 3, 34, 60, 135, 125, 56, 135, 60, 1, 1.70609
138, 1, wb, attraction, a-b-da, 14, 1, 3, 34, 60, 135, 125, 56, 135, 60, 3, 0.85226
138, 1, wb, catch, NA, 999, 999, 3, 35, 109, 146, 124, 191, 88, 107, 3, 1.13597
138, 1, wb, catch, NA, 999, 999, 3, 35, 109, 146, 124, 191, 88, 107, 2, 0.289786
138, 1, wb, attraction, a-b-db, 9, 2, 3, 36, 86, 157, 90, 165, 165, 90, 1, 1.30739
138, 1, wb, attraction, a-b-db, 9, 2, 3, 36, 86, 157, 90, 165, 165, 90, 2, 3.78161
138, 1, wb, filler, NA, 999, 999, 3, 37, 56, 134, 188, 168, 118, 98, 1, 0.795004
138, 1, wb, filler, NA, 999, 999, 3, 37, 56, 134, 188, 168, 118, 98, 2, 0.282002
138, 1, wb, attraction, a-b-db, 5, 1, 4, 1, 60, 135, 135, 60, 58, 132, 3, 3.64461
138, 1, wb, attraction, a-b-db, 5, 1, 4, 1, 60, 135, 135, 60, 58, 132, 1, 1.74485
138, 1, wb, catch, NA, 999, 999, 4, 2, 191, 124, 110, 85, 127, 128, 2, 0.7203
138, 1, wb, catch, NA, 999, 999, 4, 2, 191, 124, 110, 85, 127, 128, 1, 0.498543
138, 1, wb, filler, NA, 999, 999, 4, 3, 84, 131, 155, 70, 105, 131, 1, 0.892467
138, 1, wb, filler, NA, 999, 999, 4, 3, 84, 131, 155, 70, 105, 131, 3, 0.375391
138, 1, wb, attraction, a-b-da, 5, 2, 4, 4, 90, 165, 161, 88, 165, 90, 1, 6.94193
138, 1, wb, attraction, a-b-da, 5, 2, 4, 4, 90, 165, 161, 88, 165, 90, 3, 2.12509
138, 1, wb, filler, NA, 999, 999, 4, 5, 176, 123, 127, 142, 119, 94, 3, 0.812974
138, 1, wb, filler, NA, 999, 999, 4, 5, 176, 123, 127, 142, 119, 94, 1, 0.435519
138, 1, wb, filler, NA, 999, 999, 4, 6, 121, 70, 77, 96, 105, 75, 2, 3.06397
138, 1, wb, filler, NA, 999, 999, 4, 6, 121, 70, 77, 96, 105, 75, 3, 13.0676
138, 1, wb, attraction, a-b-db, 2, 2, 4, 7, 90, 165, 165, 90, 89, 163, 2, 15.9706
138, 1, wb, attraction, a-b-db, 2, 2, 4, 7, 90, 165, 165, 90, 89, 163, 1, 1.03035
138, 1, wb, attraction, a-b-db, 9, 2, 4, 8, 90, 165, 86, 157, 165, 90, 1, 1.42664
138, 1, wb, attraction, a-b-db, 9, 2, 4, 8, 90, 165, 86, 157, 165, 90, 2, 0.99219
138, 1, wb, filler, NA, 999, 999, 4, 9, 111, 170, 96, 87, 159, 73, 2, 0.925797
138, 1, wb, filler, NA, 999, 999, 4, 9, 111, 170, 96, 87, 159, 73, 1, 0.319614
138, 1, wb, filler, NA, 999, 999, 4, 10, 101, 64, 67, 195, 90, 139, 1, 0.872632
138, 1, wb, filler, NA, 999, 999, 4, 10, 101, 64, 67, 195, 90, 139, 3, 0.588495
138, 1, wb, attraction, a-b-da, 2, 2, 4, 11, 90, 165, 165, 90, 163, 89, 3, 1.41079
138, 1, wb, attraction, a-b-da, 2, 2, 4, 11, 90, 165, 165, 90, 163, 89, 1, 0.504975
138, 1, wb, attraction, a-b-db, 2, 1, 4, 12, 135, 60, 60, 135, 59, 134, 3, 3.84271
138, 1, wb, attraction, a-b-db, 2, 1, 4, 12, 135, 60, 60, 135, 59, 134, 2, 0.982857
138, 1, wb, attraction, a-b-da, 2, 3, 4, 13, 195, 120, 120, 195, 193, 119, 3, 15.3493
138, 1, wb, attraction, a-b-da, 2, 3, 4, 13, 195, 120, 120, 195, 193, 119, 2, 0.265818
138, 1, wb, filler, NA, 999, 999, 4, 14, 176, 77, 75, 105, 123, 116, 2, 5.71695
138, 1, wb, filler, NA, 999, 999, 4, 14, 176, 77, 75, 105, 123, 116, 3, 0.341803
138, 1, wb, attraction, a-b-db, 5, 3, 4, 15, 117, 190, 120, 195, 195, 120, 3, 6.5977
138, 1, wb, attraction, a-b-db, 5, 3, 4, 15, 117, 190, 120, 195, 195, 120, 2, 0.370836
138, 1, wb, attraction, a-b-db, 2, 3, 4, 16, 119, 193, 195, 120, 120, 195, 1, 3.10592
138, 1, wb, attraction, a-b-db, 2, 3, 4, 16, 119, 193, 195, 120, 120, 195, 3, 0.667742
138, 1, wb, attraction, a-b-da, 14, 2, 4, 17, 153, 83, 165, 90, 90, 165, 1, 6.35873
138, 1, wb, attraction, a-b-da, 14, 2, 4, 17, 153, 83, 165, 90, 90, 165, 2, 1.75737
138, 1, wb, attraction, a-b-db, 9, 1, 4, 18, 57, 129, 135, 60, 60, 135, 2, 2.21211
138, 1, wb, attraction, a-b-db, 9, 1, 4, 18, 57, 129, 135, 60, 60, 135, 3, 0.354092
138, 1, wb, attraction, a-b-db, 14, 1, 4, 19, 135, 60, 56, 125, 60, 135, 2, 6.21784
138, 1, wb, attraction, a-b-db, 14, 1, 4, 19, 135, 60, 56, 125, 60, 135, 3, 0.374597
138, 1, wb, catch, NA, 999, 999, 4, 20, 166, 149, 152, 103, 132, 63, 3, 1.06919
138, 1, wb, catch, NA, 999, 999, 4, 20, 166, 149, 152, 103, 132, 63, 1, 0.441384
138, 1, wb, filler, NA, 999, 999, 4, 21, 83, 133, 58, 171, 182, 104, 1, 1.06117
138, 1, wb, filler, NA, 999, 999, 4, 21, 83, 133, 58, 171, 182, 104, 3, 0.393586
138, 1, wb, attraction, a-b-da, 9, 3, 4, 22, 195, 120, 120, 195, 186, 114, 3, 1.51938
138, 1, wb, attraction, a-b-da, 9, 3, 4, 22, 195, 120, 120, 195, 186, 114, 2, 0.377444
138, 1, wb, attraction, a-b-da, 9, 2, 4, 23, 165, 90, 90, 165, 157, 86, 1, 1.82392
138, 1, wb, attraction, a-b-da, 9, 2, 4, 23, 165, 90, 90, 165, 157, 86, 2, 0.365392
138, 1, wb, catch, NA, 999, 999, 4, 24, 165, 150, 136, 119, 91, 104, 3, 0.676558
138, 1, wb, catch, NA, 999, 999, 4, 24, 165, 150, 136, 119, 91, 104, 1, 0.440259
138, 1, wb, attraction, a-b-da, 5, 3, 4, 25, 190, 117, 120, 195, 195, 120, 1, 2.41205
138, 1, wb, attraction, a-b-da, 5, 3, 4, 25, 190, 117, 120, 195, 195, 120, 2, 0.377967
138, 1, wb, attraction, a-b-db, 14, 3, 4, 26, 195, 120, 120, 195, 111, 181, 3, 1.65643
138, 1, wb, attraction, a-b-db, 14, 3, 4, 26, 195, 120, 120, 195, 111, 181, 2, 0.356553
138, 1, wb, filler, NA, 999, 999, 4, 27, 150, 172, 81, 67, 187, 127, 2, 0.931746
138, 1, wb, filler, NA, 999, 999, 4, 27, 150, 172, 81, 67, 187, 127, 3, 0.357436
138, 1, wb, attraction, a-b-da, 9, 1, 4, 28, 129, 57, 60, 135, 135, 60, 1, 8.76452
138, 1, wb, attraction, a-b-da, 9, 1, 4, 28, 129, 57, 60, 135, 135, 60, 2, 0.71445
138, 1, wb, attraction, a-b-db, 5, 2, 4, 29, 90, 165, 88, 161, 165, 90, 1, 3.49946
138, 1, wb, attraction, a-b-db, 5, 2, 4, 29, 90, 165, 88, 161, 165, 90, 2, 0.469687
138, 1, wb, attraction, a-b-db, 9, 3, 4, 30, 114, 186, 195, 120, 120, 195, 1, 1.57686
138, 1, wb, attraction, a-b-db, 9, 3, 4, 30, 114, 186, 195, 120, 120, 195, 3, 0.512419
138, 1, wb, attraction, a-b-db, 14, 2, 4, 31, 83, 153, 165, 90, 90, 165, 1, 4.05744
138, 1, wb, attraction, a-b-db, 14, 2, 4, 31, 83, 153, 165, 90, 90, 165, 3, 0.316849
138, 1, wb, attraction, a-b-da, 5, 1, 4, 32, 60, 135, 132, 58, 135, 60, 2, 12.1502
138, 1, wb, attraction, a-b-da, 5, 1, 4, 32, 60, 135, 132, 58, 135, 60, 1, 0.451494
138, 1, wb, attraction, a-b-da, 14, 3, 4, 33, 181, 111, 120, 195, 195, 120, 1, 1.95124
138, 1, wb, attraction, a-b-da, 14, 3, 4, 33, 181, 111, 120, 195, 195, 120, 2, 0.367948
138, 1, wb, attraction, a-b-da, 2, 1, 4, 34, 135, 60, 134, 59, 60, 135, 3, 5.24712
138, 1, wb, attraction, a-b-da, 2, 1, 4, 34, 135, 60, 134, 59, 60, 135, 1, 1.53092
138, 1, wb, filler, NA, 999, 999, 4, 35, 62, 129, 161, 125, 76, 137, 1, 1.0749
138, 1, wb, filler, NA, 999, 999, 4, 35, 62, 129, 161, 125, 76, 137, 2, 0.350662
138, 1, wb, attraction, a-b-da, 14, 1, 4, 36, 60, 135, 125, 56, 135, 60, 2, 1.43835
138, 1, wb, attraction, a-b-da, 14, 1, 4, 36, 60, 135, 125, 56, 135, 60, 1, 0.379197
138, 1, wb, filler, NA, 999, 999, 4, 37, 69, 174, 147, 58, 76, 166, 2, 1.1937
138, 1, wb, filler, NA, 999, 999, 4, 37, 69, 174, 147, 58, 76, 166, 3, 0.408826
138, 1, wb, attraction, a-b-db, 5, 3, 5, 1, 117, 190, 120, 195, 195, 120, 1, 20.0205
138, 1, wb, attraction, a-b-db, 5, 3, 5, 1, 117, 190, 120, 195, 195, 120, 2, 0.596899
138, 1, wb, attraction, a-b-db, 5, 1, 5, 2, 58, 132, 60, 135, 135, 60, 1, 1.3227
138, 1, wb, attraction, a-b-db, 5, 1, 5, 2, 58, 132, 60, 135, 135, 60, 2, 0.412136
138, 1, wb, attraction, a-b-db, 9, 3, 5, 3, 114, 186, 120, 195, 195, 120, 1, 3.46536
138, 1, wb, attraction, a-b-db, 9, 3, 5, 3, 114, 186, 120, 195, 195, 120, 2, 0.621
138, 1, wb, attraction, a-b-da, 2, 3, 5, 4, 120, 195, 193, 119, 195, 120, 2, 10.746
138, 1, wb, attraction, a-b-da, 2, 3, 5, 4, 120, 195, 193, 119, 195, 120, 1, 0.367865
138, 1, wb, attraction, a-b-da, 5, 3, 5, 5, 120, 195, 190, 117, 195, 120, 2, 4.20708
138, 1, wb, attraction, a-b-da, 5, 3, 5, 5, 120, 195, 190, 117, 195, 120, 3, 1.38046
138, 1, wb, filler, NA, 999, 999, 5, 6, 91, 107, 178, 62, 77, 62, 3, 0.698564
138, 1, wb, filler, NA, 999, 999, 5, 6, 91, 107, 178, 62, 77, 62, 1, 0.373668
138, 1, wb, attraction, a-b-da, 14, 3, 5, 7, 120, 195, 195, 120, 181, 111, 3, 4.81216
138, 1, wb, attraction, a-b-da, 14, 3, 5, 7, 120, 195, 195, 120, 181, 111, 1, 0.369226
138, 1, wb, attraction, a-b-db, 14, 2, 5, 8, 83, 153, 165, 90, 90, 165, 1, 1.37643
138, 1, wb, attraction, a-b-db, 14, 2, 5, 8, 83, 153, 165, 90, 90, 165, 2, 2.24805
138, 1, wb, attraction, a-b-da, 14, 1, 5, 9, 60, 135, 135, 60, 125, 56, 3, 2.82732
138, 1, wb, attraction, a-b-da, 14, 1, 5, 9, 60, 135, 135, 60, 125, 56, 1, 1.12828
138, 1, wb, filler, NA, 999, 999, 5, 10, 146, 173, 120, 153, 167, 162, 2, 1.16854
138, 1, wb, filler, NA, 999, 999, 5, 10, 146, 173, 120, 153, 167, 162, 3, 0.432953
138, 1, wb, attraction, a-b-da, 14, 2, 5, 11, 165, 90, 90, 165, 153, 83, 3, 1.69332
138, 1, wb, attraction, a-b-da, 14, 2, 5, 11, 165, 90, 90, 165, 153, 83, 2, 0.544065
138, 1, wb, attraction, a-b-da, 5, 1, 5, 12, 60, 135, 135, 60, 132, 58, 1, 2.46381
138, 1, wb, attraction, a-b-da, 5, 1, 5, 12, 60, 135, 135, 60, 132, 58, 2, 0.459758
138, 1, wb, catch, NA, 999, 999, 5, 13, 154, 101, 179, 136, 74, 121, 3, 0.766927
138, 1, wb, catch, NA, 999, 999, 5, 13, 154, 101, 179, 136, 74, 121, 2, 0.367254
138, 1, wb, attraction, a-b-db, 14, 1, 5, 14, 60, 135, 56, 125, 135, 60, 2, 1.69438
138, 1, wb, attraction, a-b-db, 14, 1, 5, 14, 60, 135, 56, 125, 135, 60, 1, 1.20125
138, 1, wb, attraction, a-b-da, 5, 2, 5, 15, 161, 88, 165, 90, 90, 165, 1, 9.92676
138, 1, wb, attraction, a-b-da, 5, 2, 5, 15, 161, 88, 165, 90, 90, 165, 3, 0.373642
138, 1, wb, attraction, a-b-da, 2, 1, 5, 16, 135, 60, 60, 135, 134, 59, 3, 8.51615
138, 1, wb, attraction, a-b-da, 2, 1, 5, 16, 135, 60, 60, 135, 134, 59, 2, 3.12415
138, 1, wb, filler, NA, 999, 999, 5, 17, 94, 191, 72, 110, 157, 158, 2, 0.947823
138, 1, wb, filler, NA, 999, 999, 5, 17, 94, 191, 72, 110, 157, 158, 3, 17.5009
138, 1, wb, filler, NA, 999, 999, 5, 18, 121, 89, 159, 115, 131, 187, 1, 1.55331
138, 1, wb, filler, NA, 999, 999, 5, 18, 121, 89, 159, 115, 131, 187, 3, 0.402272
138, 1, wb, attraction, a-b-db, 5, 2, 5, 19, 88, 161, 90, 165, 165, 90, 1, 1.15187
138, 1, wb, attraction, a-b-db, 5, 2, 5, 19, 88, 161, 90, 165, 165, 90, 2, 0.376882
138, 1, wb, attraction, a-b-db, 9, 1, 5, 20, 57, 129, 135, 60, 60, 135, 1, 5.5753
138, 1, wb, attraction, a-b-db, 9, 1, 5, 20, 57, 129, 135, 60, 60, 135, 2, 0.461709
138, 1, wb, attraction, a-b-db, 2, 3, 5, 21, 120, 195, 119, 193, 195, 120, 1, 1.80077
138, 1, wb, attraction, a-b-db, 2, 3, 5, 21, 120, 195, 119, 193, 195, 120, 2, 0.343522
138, 1, wb, attraction, a-b-da, 9, 3, 5, 22, 186, 114, 120, 195, 195, 120, 1, 6.30332
138, 1, wb, attraction, a-b-da, 9, 3, 5, 22, 186, 114, 120, 195, 195, 120, 2, 0.35251
138, 1, wb, attraction, a-b-db, 2, 1, 5, 23, 135, 60, 60, 135, 59, 134, 1, 6.17636
138, 1, wb, attraction, a-b-db, 2, 1, 5, 23, 135, 60, 60, 135, 59, 134, 2, 0.470488
138, 1, wb, attraction, a-b-db, 14, 3, 5, 24, 195, 120, 120, 195, 111, 181, 3, 3.04956
138, 1, wb, attraction, a-b-db, 14, 3, 5, 24, 195, 120, 120, 195, 111, 181, 2, 0.341861
138, 1, wb, catch, NA, 999, 999, 5, 25, 134, 181, 123, 132, 96, 99, 3, 0.773777
138, 1, wb, catch, NA, 999, 999, 5, 25, 134, 181, 123, 132, 96, 99, 1, 0.365503
138, 1, wb, attraction, a-b-da, 2, 2, 5, 26, 90, 165, 165, 90, 163, 89, 1, 1.20466
138, 1, wb, attraction, a-b-da, 2, 2, 5, 26, 90, 165, 165, 90, 163, 89, 3, 0.554946
138, 1, wb, filler, NA, 999, 999, 5, 27, 155, 81, 174, 137, 82, 88, 3, 1.00277
138, 1, wb, filler, NA, 999, 999, 5, 27, 155, 81, 174, 137, 82, 88, 2, 0.289659
138, 1, wb, filler, NA, 999, 999, 5, 28, 177, 176, 71, 189, 190, 100, 2, 0.916277
138, 1, wb, filler, NA, 999, 999, 5, 28, 177, 176, 71, 189, 190, 100, 1, 0.350574
138, 1, wb, attraction, a-b-db, 2, 2, 5, 29, 89, 163, 165, 90, 90, 165, 1, 14.9984
138, 1, wb, attraction, a-b-db, 2, 2, 5, 29, 89, 163, 165, 90, 90, 165, 3, 2.15311
138, 1, wb, attraction, a-b-da, 9, 1, 5, 30, 135, 60, 60, 135, 129, 57, 3, 3.76825
138, 1, wb, attraction, a-b-da, 9, 1, 5, 30, 135, 60, 60, 135, 129, 57, 2, 0.527785
138, 1, wb, attraction, a-b-db, 9, 2, 5, 31, 165, 90, 86, 157, 90, 165, 1, 1.76027
138, 1, wb, attraction, a-b-db, 9, 2, 5, 31, 165, 90, 86, 157, 90, 165, 2, 0.488241
138, 1, wb, attraction, a-b-da, 9, 2, 5, 32, 157, 86, 90, 165, 165, 90, 1, 5.09874
138, 1, wb, attraction, a-b-da, 9, 2, 5, 32, 157, 86, 90, 165, 165, 90, 2, 0.604477
138, 1, wb, filler, NA, 999, 999, 5, 33, 129, 132, 59, 118, 97, 66, 3, 1.29037
138, 1, wb, filler, NA, 999, 999, 5, 33, 129, 132, 59, 118, 97, 66, 1, 0.485179
138, 1, wb, filler, NA, 999, 999, 5, 34, 136, 97, 68, 100, 65, 107, 2, 1.07958
138, 1, wb, filler, NA, 999, 999, 5, 34, 136, 97, 68, 100, 65, 107, 1, 0.435219
138, 1, wb, filler, NA, 999, 999, 5, 35, 165, 96, 195, 100, 142, 165, 1, 1.87963
138, 1, wb, filler, NA, 999, 999, 5, 35, 165, 96, 195, 100, 142, 165, 3, 0.387095
138, 1, wb, catch, NA, 999, 999, 5, 36, 185, 130, 92, 163, 60, 135, 3, 1.02554
138, 1, wb, catch, NA, 999, 999, 5, 36, 185, 130, 92, 163, 60, 135, 1, 0.431257
138, 1, wb, filler, NA, 999, 999, 5, 37, 106, 116, 104, 116, 142, 180, 1, 0.739665
138, 1, wb, filler, NA, 999, 999, 5, 37, 106, 116, 104, 116, 142, 180, 3, 0.444883
138, 1, wb, attraction, a-b-db, 9, 3, 6, 1, 120, 195, 114, 186, 195, 120, 3, 15.5127
138, 1, wb, attraction, a-b-db, 9, 3, 6, 1, 120, 195, 114, 186, 195, 120, 2, 0.358482
138, 1, wb, attraction, a-b-db, 9, 2, 6, 2, 86, 157, 165, 90, 90, 165, 1, 1.45356
138, 1, wb, attraction, a-b-db, 9, 2, 6, 2, 86, 157, 165, 90, 90, 165, 2, 0.466345
138, 1, wb, attraction, a-b-da, 9, 1, 6, 3, 60, 135, 135, 60, 129, 57, 3, 12.6055
138, 1, wb, attraction, a-b-da, 9, 1, 6, 3, 60, 135, 135, 60, 129, 57, 1, 12.3834
138, 1, wb, attraction, a-b-da, 2, 3, 6, 4, 193, 119, 120, 195, 195, 120, 3, 3.36366
138, 1, wb, attraction, a-b-da, 2, 3, 6, 4, 193, 119, 120, 195, 195, 120, 2, 0.61928
138, 1, wb, attraction, a-b-da, 9, 3, 6, 5, 195, 120, 120, 195, 186, 114, 3, 1.60031
138, 1, wb, attraction, a-b-da, 9, 3, 6, 5, 195, 120, 120, 195, 186, 114, 2, 0.319047
138, 1, wb, attraction, a-b-da, 2, 2, 6, 6, 90, 165, 165, 90, 163, 89, 2, 4.37622
138, 1, wb, attraction, a-b-da, 2, 2, 6, 6, 90, 165, 165, 90, 163, 89, 1, 0.550991
138, 1, wb, attraction, a-b-db, 2, 3, 6, 7, 119, 193, 195, 120, 120, 195, 2, 3.95876
138, 1, wb, attraction, a-b-db, 2, 3, 6, 7, 119, 193, 195, 120, 120, 195, 1, 0.558189
138, 1, wb, attraction, a-b-da, 5, 1, 6, 8, 135, 60, 132, 58, 60, 135, 2, 5.80515
138, 1, wb, attraction, a-b-da, 5, 1, 6, 8, 135, 60, 132, 58, 60, 135, 3, 0.738688
138, 1, wb, catch, NA, 999, 999, 6, 9, 124, 71, 127, 128, 157, 158, 1, 0.891032
138, 1, wb, catch, NA, 999, 999, 6, 9, 124, 71, 127, 128, 157, 158, 3, 0.446124
138, 1, wb, attraction, a-b-da, 14, 2, 6, 10, 153, 83, 90, 165, 165, 90, 1, 1.35383
138, 1, wb, attraction, a-b-da, 14, 2, 6, 10, 153, 83, 90, 165, 165, 90, 2, 0.434742
138, 1, wb, attraction, a-b-da, 2, 1, 6, 11, 60, 135, 135, 60, 134, 59, 3, 2.43135
138, 1, wb, attraction, a-b-da, 2, 1, 6, 11, 60, 135, 135, 60, 134, 59, 1, 1.21241
138, 1, wb, attraction, a-b-da, 5, 3, 6, 12, 120, 195, 190, 117, 195, 120, 1, 10.3292
138, 1, wb, attraction, a-b-da, 5, 3, 6, 12, 120, 195, 190, 117, 195, 120, 2, 0.448102
138, 1, wb, attraction, a-b-db, 14, 3, 6, 13, 120, 195, 111, 181, 195, 120, 2, 8.77618
138, 1, wb, attraction, a-b-db, 14, 3, 6, 13, 120, 195, 111, 181, 195, 120, 1, 0.345226
138, 1, wb, filler, NA, 999, 999, 6, 14, 127, 139, 90, 175, 157, 73, 3, 1.05697
138, 1, wb, filler, NA, 999, 999, 6, 14, 127, 139, 90, 175, 157, 73, 1, 0.549177
138, 1, wb, attraction, a-b-db, 5, 1, 6, 15, 135, 60, 60, 135, 58, 132, 3, 1.58897
138, 1, wb, attraction, a-b-db, 5, 1, 6, 15, 135, 60, 60, 135, 58, 132, 2, 0.395847
138, 1, wb, attraction, a-b-da, 14, 1, 6, 16, 60, 135, 135, 60, 125, 56, 3, 5.08161
138, 1, wb, attraction, a-b-da, 14, 1, 6, 16, 60, 135, 135, 60, 125, 56, 2, 0.500098
138, 1, wb, filler, NA, 999, 999, 6, 17, 80, 180, 194, 112, 185, 74, 3, 2.94175
138, 1, wb, filler, NA, 999, 999, 6, 17, 80, 180, 194, 112, 185, 74, 2, 0.654285
138, 1, wb, attraction, a-b-db, 14, 1, 6, 18, 135, 60, 56, 125, 60, 135, 2, 2.09792
138, 1, wb, attraction, a-b-db, 14, 1, 6, 18, 135, 60, 56, 125, 60, 135, 1, 0.516541
138, 1, wb, attraction, a-b-db, 2, 2, 6, 19, 90, 165, 165, 90, 89, 163, 1, 6.83767
138, 1, wb, attraction, a-b-db, 2, 2, 6, 19, 90, 165, 165, 90, 89, 163, 2, 0.753579
138, 1, wb, filler, NA, 999, 999, 6, 20, 65, 102, 122, 109, 139, 153, 1, 1.35325
138, 1, wb, filler, NA, 999, 999, 6, 20, 65, 102, 122, 109, 139, 153, 3, 0.530329
138, 1, wb, attraction, a-b-db, 2, 1, 6, 21, 60, 135, 135, 60, 59, 134, 1, 22.0026
138, 1, wb, attraction, a-b-db, 2, 1, 6, 21, 60, 135, 135, 60, 59, 134, 3, 0.435059
138, 1, wb, filler, NA, 999, 999, 6, 22, 103, 84, 115, 128, 188, 71, 1, 0.815481
138, 1, wb, filler, NA, 999, 999, 6, 22, 103, 84, 115, 128, 188, 71, 2, 0.549962
138, 1, wb, filler, NA, 999, 999, 6, 23, 133, 134, 149, 80, 172, 92, 2, 1.18172
138, 1, wb, filler, NA, 999, 999, 6, 23, 133, 134, 149, 80, 172, 92, 1, 0.389291
138, 1, wb, filler, NA, 999, 999, 6, 24, 104, 74, 66, 190, 108, 70, 1, 1.22775
138, 1, wb, filler, NA, 999, 999, 6, 24, 104, 74, 66, 190, 108, 70, 2, 0.465466
138, 1, wb, filler, NA, 999, 999, 6, 25, 98, 58, 56, 107, 168, 170, 1, 1.56445
138, 1, wb, filler, NA, 999, 999, 6, 25, 98, 58, 56, 107, 168, 170, 3, 0.452602
138, 1, wb, filler, NA, 999, 999, 6, 26, 132, 122, 157, 192, 150, 57, 3, 2.26439
138, 1, wb, filler, NA, 999, 999, 6, 26, 132, 122, 157, 192, 150, 57, 2, 0.324316
138, 1, wb, filler, NA, 999, 999, 6, 27, 187, 117, 91, 150, 160, 193, 2, 1.42076
138, 1, wb, filler, NA, 999, 999, 6, 27, 187, 117, 91, 150, 160, 193, 3, 0.403095
138, 1, wb, filler, NA, 999, 999, 6, 28, 181, 75, 119, 108, 106, 133, 1, 2.67298
138, 1, wb, filler, NA, 999, 999, 6, 28, 181, 75, 119, 108, 106, 133, 3, 0.41998
138, 1, wb, attraction, a-b-db, 14, 2, 6, 29, 165, 90, 83, 153, 90, 165, 2, 1.56107
138, 1, wb, attraction, a-b-db, 14, 2, 6, 29, 165, 90, 83, 153, 90, 165, 1, 0.425291
138, 1, wb, attraction, a-b-db, 9, 1, 6, 30, 135, 60, 60, 135, 57, 129, 3, 2.41376
138, 1, wb, attraction, a-b-db, 9, 1, 6, 30, 135, 60, 60, 135, 57, 129, 2, 0.699713
138, 1, wb, catch, NA, 999, 999, 6, 31, 93, 162, 132, 183, 60, 135, 3, 0.885397
138, 1, wb, catch, NA, 999, 999, 6, 31, 93, 162, 132, 183, 60, 135, 2, 0.329038
138, 1, wb, attraction, a-b-db, 5, 2, 6, 32, 90, 165, 165, 90, 88, 161, 3, 32.7136
138, 1, wb, attraction, a-b-db, 5, 2, 6, 32, 90, 165, 165, 90, 88, 161, 2, 0.490732
138, 1, wb, attraction, a-b-da, 14, 3, 6, 33, 195, 120, 120, 195, 181, 111, 1, 0.796379
138, 1, wb, attraction, a-b-da, 14, 3, 6, 33, 195, 120, 120, 195, 181, 111, 2, 0.355456
138, 1, wb, attraction, a-b-da, 9, 2, 6, 34, 90, 165, 165, 90, 157, 86, 1, 0.843364
138, 1, wb, attraction, a-b-da, 9, 2, 6, 34, 90, 165, 165, 90, 157, 86, 2, 0.384377
138, 1, wb, catch, NA, 999, 999, 6, 35, 168, 147, 145, 110, 126, 69, 3, 1.23083
138, 1, wb, catch, NA, 999, 999, 6, 35, 168, 147, 145, 110, 126, 69, 1, 0.380538
138, 1, wb, attraction, a-b-da, 5, 2, 6, 36, 90, 165, 161, 88, 165, 90, 1, 0.698931
138, 1, wb, attraction, a-b-da, 5, 2, 6, 36, 90, 165, 161, 88, 165, 90, 3, 0.565983
138, 1, wb, attraction, a-b-db, 5, 3, 6, 37, 117, 190, 195, 120, 120, 195, 1, 6.67707
138, 1, wb, attraction, a-b-db, 5, 3, 6, 37, 117, 190, 195, 120, 120, 195, 2, 0.319045
138, 1, wb, filler, NA, 999, 999, 7, 1, 83, 95, 141, 73, 187, 123, 1, 1.0722
138, 1, wb, filler, NA, 999, 999, 7, 1, 83, 95, 141, 73, 187, 123, 3, 0.451844
138, 1, wb, catch, NA, 999, 999, 7, 2, 144, 171, 71, 124, 121, 134, 2, 1.15159
138, 1, wb, catch, NA, 999, 999, 7, 2, 144, 171, 71, 124, 121, 134, 1, 0.384739
138, 1, wb, attraction, a-b-db, 2, 3, 7, 3, 119, 193, 195, 120, 120, 195, 3, 7.11905
138, 1, wb, attraction, a-b-db, 2, 3, 7, 3, 119, 193, 195, 120, 120, 195, 1, 4.16756
138, 1, wb, attraction, a-b-da, 9, 1, 7, 4, 60, 135, 129, 57, 135, 60, 1, 3.01352
138, 1, wb, attraction, a-b-da, 9, 1, 7, 4, 60, 135, 129, 57, 135, 60, 3, 0.57131
138, 1, wb, attraction, a-b-db, 14, 2, 7, 5, 83, 153, 90, 165, 165, 90, 1, 2.38633
138, 1, wb, attraction, a-b-db, 14, 2, 7, 5, 83, 153, 90, 165, 165, 90, 2, 0.473505
138, 1, wb, filler, NA, 999, 999, 7, 6, 143, 155, 109, 119, 142, 56, 3, 1.1159
138, 1, wb, filler, NA, 999, 999, 7, 6, 143, 155, 109, 119, 142, 56, 1, 0.382259
138, 1, wb, attraction, a-b-db, 9, 2, 7, 7, 165, 90, 86, 157, 90, 165, 1, 2.20471
138, 1, wb, attraction, a-b-db, 9, 2, 7, 7, 165, 90, 86, 157, 90, 165, 3, 0.506709
138, 1, wb, filler, NA, 999, 999, 7, 8, 103, 127, 138, 126, 106, 70, 3, 0.931795
138, 1, wb, filler, NA, 999, 999, 7, 8, 103, 127, 138, 126, 106, 70, 2, 0.325541
138, 1, wb, attraction, a-b-da, 2, 2, 7, 9, 90, 165, 163, 89, 165, 90, 2, 15.8699
138, 1, wb, attraction, a-b-da, 2, 2, 7, 9, 90, 165, 163, 89, 165, 90, 1, 0.461662
138, 1, wb, filler, NA, 999, 999, 7, 10, 82, 160, 94, 101, 63, 101, 3, 0.832705
138, 1, wb, filler, NA, 999, 999, 7, 10, 82, 160, 94, 101, 63, 101, 1, 0.398498
138, 1, wb, attraction, a-b-db, 14, 3, 7, 11, 120, 195, 195, 120, 111, 181, 3, 1.54038
138, 1, wb, attraction, a-b-db, 14, 3, 7, 11, 120, 195, 195, 120, 111, 181, 1, 0.365281
138, 1, wb, attraction, a-b-db, 9, 3, 7, 12, 195, 120, 120, 195, 114, 186, 3, 29.0203
138, 1, wb, attraction, a-b-db, 9, 3, 7, 12, 195, 120, 120, 195, 114, 186, 2, 1.30582
138, 1, wb, attraction, a-b-da, 2, 3, 7, 13, 120, 195, 193, 119, 195, 120, 1, 3.29143
138, 1, wb, attraction, a-b-da, 2, 3, 7, 13, 120, 195, 193, 119, 195, 120, 2, 0.397685
138, 1, wb, attraction, a-b-da, 5, 1, 7, 14, 135, 60, 132, 58, 60, 135, 3, 4.41948
138, 1, wb, attraction, a-b-da, 5, 1, 7, 14, 135, 60, 132, 58, 60, 135, 1, 0.440776
138, 1, wb, attraction, a-b-db, 2, 1, 7, 15, 60, 135, 135, 60, 59, 134, 3, 12.4526
138, 1, wb, attraction, a-b-db, 2, 1, 7, 15, 60, 135, 135, 60, 59, 134, 1, 0.533966
138, 1, wb, attraction, a-b-db, 5, 2, 7, 16, 90, 165, 88, 161, 165, 90, 3, 2.90249
138, 1, wb, attraction, a-b-db, 5, 2, 7, 16, 90, 165, 88, 161, 165, 90, 2, 1.07288
138, 1, wb, catch, NA, 999, 999, 7, 17, 111, 84, 116, 139, 194, 121, 1, 0.787751
138, 1, wb, catch, NA, 999, 999, 7, 17, 111, 84, 116, 139, 194, 121, 3, 0.46749
138, 1, wb, attraction, a-b-da, 5, 2, 7, 18, 165, 90, 161, 88, 90, 165, 1, 4.43865
138, 1, wb, attraction, a-b-da, 5, 2, 7, 18, 165, 90, 161, 88, 90, 165, 3, 0.411178
138, 1, wb, attraction, a-b-db, 9, 1, 7, 19, 60, 135, 135, 60, 57, 129, 3, 1.71234
138, 1, wb, attraction, a-b-db, 9, 1, 7, 19, 60, 135, 135, 60, 57, 129, 1, 0.442462
138, 1, wb, attraction, a-b-db, 2, 2, 7, 20, 90, 165, 165, 90, 89, 163, 2, 3.03834
138, 1, wb, attraction, a-b-db, 2, 2, 7, 20, 90, 165, 165, 90, 89, 163, 1, 1.22661
138, 1, wb, attraction, a-b-da, 5, 3, 7, 21, 195, 120, 120, 195, 190, 117, 3, 5.7109
138, 1, wb, attraction, a-b-da, 5, 3, 7, 21, 195, 120, 120, 195, 190, 117, 2, 1.1437
138, 1, wb, attraction, a-b-db, 5, 3, 7, 22, 120, 195, 117, 190, 195, 120, 3, 5.79933
138, 1, wb, attraction, a-b-db, 5, 3, 7, 22, 120, 195, 117, 190, 195, 120, 2, 0.332762
138, 1, wb, catch, NA, 999, 999, 7, 23, 115, 80, 98, 157, 133, 182, 1, 0.813236
138, 1, wb, catch, NA, 999, 999, 7, 23, 115, 80, 98, 157, 133, 182, 3, 0.451671
138, 1, wb, attraction, a-b-da, 9, 2, 7, 24, 165, 90, 90, 165, 157, 86, 3, 3.02355
138, 1, wb, attraction, a-b-da, 9, 2, 7, 24, 165, 90, 90, 165, 157, 86, 2, 0.796436
138, 1, wb, attraction, a-b-da, 2, 1, 7, 25, 135, 60, 134, 59, 60, 135, 3, 10.2583
138, 1, wb, attraction, a-b-da, 2, 1, 7, 25, 135, 60, 134, 59, 60, 135, 2, 0.38764
138, 1, wb, attraction, a-b-da, 14, 2, 7, 26, 90, 165, 153, 83, 165, 90, 2, 6.59412
138, 1, wb, attraction, a-b-da, 14, 2, 7, 26, 90, 165, 153, 83, 165, 90, 1, 1.01533
138, 1, wb, filler, NA, 999, 999, 7, 27, 195, 165, 71, 106, 167, 125, 2, 0.676304
138, 1, wb, filler, NA, 999, 999, 7, 27, 195, 165, 71, 106, 167, 125, 1, 0.36005
138, 1, wb, filler, NA, 999, 999, 7, 28, 90, 117, 73, 149, 70, 132, 3, 3.3433
138, 1, wb, filler, NA, 999, 999, 7, 28, 90, 117, 73, 149, 70, 132, 1, 21.9435
138, 1, wb, attraction, a-b-db, 5, 1, 7, 29, 60, 135, 58, 132, 135, 60, 1, 1.16122
138, 1, wb, attraction, a-b-db, 5, 1, 7, 29, 60, 135, 58, 132, 135, 60, 2, 0.489635
138, 1, wb, filler, NA, 999, 999, 7, 30, 78, 89, 68, 174, 146, 135, 1, 0.77204
138, 1, wb, filler, NA, 999, 999, 7, 30, 78, 89, 68, 174, 146, 135, 3, 0.47569
138, 1, wb, attraction, a-b-da, 9, 3, 7, 31, 195, 120, 186, 114, 120, 195, 2, 2.60641
138, 1, wb, attraction, a-b-da, 9, 3, 7, 31, 195, 120, 186, 114, 120, 195, 1, 1.13201
138, 1, wb, attraction, a-b-db, 14, 1, 7, 32, 56, 125, 135, 60, 60, 135, 1, 3.80422
138, 1, wb, attraction, a-b-db, 14, 1, 7, 32, 56, 125, 135, 60, 60, 135, 3, 0.490356
138, 1, wb, attraction, a-b-da, 14, 3, 7, 33, 181, 111, 195, 120, 120, 195, 1, 3.06009
138, 1, wb, attraction, a-b-da, 14, 3, 7, 33, 181, 111, 195, 120, 120, 195, 2, 0.58394
138, 1, wb, filler, NA, 999, 999, 7, 34, 144, 187, 84, 64, 150, 57, 2, 0.854258
138, 1, wb, filler, NA, 999, 999, 7, 34, 144, 187, 84, 64, 150, 57, 1, 0.363408
138, 1, wb, filler, NA, 999, 999, 7, 35, 169, 175, 167, 182, 165, 148, 3, 1.25849
138, 1, wb, filler, NA, 999, 999, 7, 35, 169, 175, 167, 182, 165, 148, 2, 0.350672
138, 1, wb, filler, NA, 999, 999, 7, 36, 160, 154, 183, 182, 185, 190, 1, 0.750569
138, 1, wb, filler, NA, 999, 999, 7, 36, 160, 154, 183, 182, 185, 190, 3, 0.359592
138, 1, wb, attraction, a-b-da, 14, 1, 7, 37, 135, 60, 60, 135, 125, 56, 3, 2.63076
138, 1, wb, attraction, a-b-da, 14, 1, 7, 37, 135, 60, 60, 135, 125, 56, 2, 10.3959
138, 1, wb, attraction, a-b-db, 2, 1, 8, 1, 60, 135, 59, 134, 135, 60, 1, 7.5506
138, 1, wb, attraction, a-b-db, 2, 1, 8, 1, 60, 135, 59, 134, 135, 60, 2, 0.453588
138, 1, wb, attraction, a-b-da, 2, 2, 8, 2, 163, 89, 165, 90, 90, 165, 1, 7.5134
138, 1, wb, attraction, a-b-da, 2, 2, 8, 2, 163, 89, 165, 90, 90, 165, 3, 0.361751
138, 1, wb, catch, NA, 999, 999, 8, 3, 72, 123, 155, 100, 169, 146, 1, 0.640813
138, 1, wb, catch, NA, 999, 999, 8, 3, 72, 123, 155, 100, 169, 146, 3, 0.590095
138, 1, wb, catch, NA, 999, 999, 8, 4, 82, 113, 152, 103, 194, 121, 1, 0.611656
138, 1, wb, catch, NA, 999, 999, 8, 4, 82, 113, 152, 103, 194, 121, 3, 0.474121
138, 1, wb, filler, NA, 999, 999, 8, 5, 133, 59, 61, 160, 170, 157, 1, 0.684515
138, 1, wb, filler, NA, 999, 999, 8, 5, 133, 59, 61, 160, 170, 157, 3, 0.464359
138, 1, wb, filler, NA, 999, 999, 8, 6, 78, 63, 76, 119, 102, 61, 1, 0.851496
138, 1, wb, filler, NA, 999, 999, 8, 6, 78, 63, 76, 119, 102, 61, 2, 0.400566
138, 1, wb, attraction, a-b-db, 14, 1, 8, 7, 135, 60, 56, 125, 60, 135, 3, 1.39837
138, 1, wb, attraction, a-b-db, 14, 1, 8, 7, 135, 60, 56, 125, 60, 135, 1, 0.781301
138, 1, wb, attraction, a-b-da, 5, 1, 8, 8, 135, 60, 60, 135, 132, 58, 1, 11.6675
138, 1, wb, attraction, a-b-da, 5, 1, 8, 8, 135, 60, 60, 135, 132, 58, 2, 0.48461
138, 1, wb, attraction, a-b-db, 9, 1, 8, 9, 60, 135, 57, 129, 135, 60, 3, 4.74311
138, 1, wb, attraction, a-b-db, 9, 1, 8, 9, 60, 135, 57, 129, 135, 60, 2, 0.614918
138, 1, wb, attraction, a-b-da, 14, 1, 8, 10, 125, 56, 60, 135, 135, 60, 3, 3.78
138, 1, wb, attraction, a-b-da, 14, 1, 8, 10, 125, 56, 60, 135, 135, 60, 2, 0.506694
138, 1, wb, filler, NA, 999, 999, 8, 11, 189, 184, 82, 188, 97, 126, 3, 0.74785
138, 1, wb, filler, NA, 999, 999, 8, 11, 189, 184, 82, 188, 97, 126, 1, 0.636951
138, 1, wb, filler, NA, 999, 999, 8, 12, 146, 83, 70, 83, 191, 165, 2, 1.28132
138, 1, wb, filler, NA, 999, 999, 8, 12, 146, 83, 70, 83, 191, 165, 3, 0.301096
138, 1, wb, attraction, a-b-db, 14, 2, 8, 13, 83, 153, 90, 165, 165, 90, 1, 0.878743
138, 1, wb, attraction, a-b-db, 14, 2, 8, 13, 83, 153, 90, 165, 165, 90, 2, 0.330508
138, 1, wb, attraction, a-b-db, 5, 3, 8, 14, 195, 120, 120, 195, 117, 190, 3, 1.75494
138, 1, wb, attraction, a-b-db, 5, 3, 8, 14, 195, 120, 120, 195, 117, 190, 2, 0.387792
138, 1, wb, attraction, a-b-da, 14, 2, 8, 15, 153, 83, 165, 90, 90, 165, 1, 3.5542
138, 1, wb, attraction, a-b-da, 14, 2, 8, 15, 153, 83, 165, 90, 90, 165, 2, 0.370389
138, 1, wb, catch, NA, 999, 999, 8, 16, 155, 160, 105, 150, 117, 78, 3, 0.6736
138, 1, wb, catch, NA, 999, 999, 8, 16, 155, 160, 105, 150, 117, 78, 1, 0.381341
138, 1, wb, filler, NA, 999, 999, 8, 17, 176, 68, 194, 153, 74, 60, 3, 0.603806
138, 1, wb, filler, NA, 999, 999, 8, 17, 176, 68, 194, 153, 74, 60, 2, 0.283026
138, 1, wb, attraction, a-b-da, 5, 2, 8, 18, 90, 165, 161, 88, 165, 90, 2, 8.79746
138, 1, wb, attraction, a-b-da, 5, 2, 8, 18, 90, 165, 161, 88, 165, 90, 1, 0.554087
138, 1, wb, filler, NA, 999, 999, 8, 19, 119, 112, 126, 161, 147, 87, 1, 0.817801
138, 1, wb, filler, NA, 999, 999, 8, 19, 119, 112, 126, 161, 147, 87, 2, 0.600252
138, 1, wb, filler, NA, 999, 999, 8, 20, 70, 80, 149, 100, 102, 147, 1, 0.965907
138, 1, wb, filler, NA, 999, 999, 8, 20, 70, 80, 149, 100, 102, 147, 2, 0.990425
138, 1, wb, attraction, a-b-da, 14, 3, 8, 21, 120, 195, 195, 120, 181, 111, 3, 2.81199
138, 1, wb, attraction, a-b-da, 14, 3, 8, 21, 120, 195, 195, 120, 181, 111, 1, 0.649616
138, 1, wb, attraction, a-b-da, 9, 1, 8, 22, 129, 57, 60, 135, 135, 60, 1, 2.66939
138, 1, wb, attraction, a-b-da, 9, 1, 8, 22, 129, 57, 60, 135, 135, 60, 2, 0.505176
138, 1, wb, attraction, a-b-da, 2, 1, 8, 23, 134, 59, 60, 135, 135, 60, 1, 7.91507
138, 1, wb, attraction, a-b-da, 2, 1, 8, 23, 134, 59, 60, 135, 135, 60, 2, 0.403113
138, 1, wb, attraction, a-b-db, 14, 3, 8, 24, 111, 181, 120, 195, 195, 120, 1, 1.01699
138, 1, wb, attraction, a-b-db, 14, 3, 8, 24, 111, 181, 120, 195, 195, 120, 2, 0.599309
138, 1, wb, attraction, a-b-db, 9, 3, 8, 25, 114, 186, 120, 195, 195, 120, 1, 2.70118
138, 1, wb, attraction, a-b-db, 9, 3, 8, 25, 114, 186, 120, 195, 195, 120, 2, 0.455515
138, 1, wb, attraction, a-b-db, 2, 3, 8, 26, 119, 193, 195, 120, 120, 195, 3, 5.96346
138, 1, wb, attraction, a-b-db, 2, 3, 8, 26, 119, 193, 195, 120, 120, 195, 2, 1.66626
138, 1, wb, attraction, a-b-db, 5, 1, 8, 27, 135, 60, 58, 132, 60, 135, 1, 8.76483
138, 1, wb, attraction, a-b-db, 5, 1, 8, 27, 135, 60, 58, 132, 60, 135, 2, 0.514764
138, 1, wb, attraction, a-b-db, 2, 2, 8, 28, 90, 165, 89, 163, 165, 90, 1, 5.81991
138, 1, wb, attraction, a-b-db, 2, 2, 8, 28, 90, 165, 89, 163, 165, 90, 2, 0.296651
138, 1, wb, attraction, a-b-da, 5, 3, 8, 29, 195, 120, 120, 195, 190, 117, 1, 11.5385
138, 1, wb, attraction, a-b-da, 5, 3, 8, 29, 195, 120, 120, 195, 190, 117, 2, 0.337029
138, 1, wb, attraction, a-b-db, 5, 2, 8, 30, 165, 90, 88, 161, 90, 165, 1, 2.26551
138, 1, wb, attraction, a-b-db, 5, 2, 8, 30, 165, 90, 88, 161, 90, 165, 2, 0.781315
138, 1, wb, filler, NA, 999, 999, 8, 31, 75, 168, 64, 121, 58, 87, 3, 0.923736
138, 1, wb, filler, NA, 999, 999, 8, 31, 75, 168, 64, 121, 58, 87, 1, 0.429402
138, 1, wb, attraction, a-b-db, 9, 2, 8, 32, 86, 157, 165, 90, 90, 165, 1, 0.993801
138, 1, wb, attraction, a-b-db, 9, 2, 8, 32, 86, 157, 165, 90, 90, 165, 3, 0.536791
138, 1, wb, filler, NA, 999, 999, 8, 33, 110, 107, 185, 182, 69, 107, 3, 1.53721
138, 1, wb, filler, NA, 999, 999, 8, 33, 110, 107, 185, 182, 69, 107, 2, 0.290739
138, 1, wb, filler, NA, 999, 999, 8, 34, 96, 149, 113, 70, 185, 138, 2, 0.828662
138, 1, wb, filler, NA, 999, 999, 8, 34, 96, 149, 113, 70, 185, 138, 3, 0.274367
138, 1, wb, attraction, a-b-da, 9, 3, 8, 35, 195, 120, 120, 195, 186, 114, 3, 1.10089
138, 1, wb, attraction, a-b-da, 9, 3, 8, 35, 195, 120, 120, 195, 186, 114, 2, 0.343846
138, 1, wb, attraction, a-b-da, 9, 2, 8, 36, 165, 90, 90, 165, 157, 86, 3, 2.51161
138, 1, wb, attraction, a-b-da, 9, 2, 8, 36, 165, 90, 90, 165, 157, 86, 2, 0.577588
138, 1, wb, attraction, a-b-da, 2, 3, 8, 37, 193, 119, 195, 120, 120, 195, 1, 7.3839
138, 1, wb, attraction, a-b-da, 2, 3, 8, 37, 193, 119, 195, 120, 120, 195, 2, 0.973598
