sub_n, computer_n, bw_cond, effect, set, distance, diag, block_n, trial_n, h1, w1, h2, w2, h3, w3, choice, rt 
175, 1, bw, practice, NA, 999, 999, 0, 1, 172, 124, 63, 102, 116, 147, 1, 6.35563
175, 1, bw, practice, NA, 999, 999, 0, 1, 172, 124, 63, 102, 116, 147, 2, 2.43335
175, 1, bw, practice, NA, 999, 999, 0, 2, 90, 178, 86, 191, 136, 179, 3, 2.10581
175, 1, bw, practice, NA, 999, 999, 0, 2, 90, 178, 86, 191, 136, 179, 2, 2.08596
175, 1, bw, practice, NA, 999, 999, 0, 3, 100, 67, 143, 97, 105, 187, 3, 1.93788
175, 1, bw, practice, NA, 999, 999, 0, 3, 100, 67, 143, 97, 105, 187, 1, 1.3818
175, 1, bw, attraction, a-b-db, 9, 2, 1, 1, 165, 90, 86, 157, 90, 165, 1, 2.90704
175, 1, bw, attraction, a-b-db, 9, 2, 1, 1, 165, 90, 86, 157, 90, 165, 2, 1.42079
175, 1, bw, attraction, a-b-da, 2, 3, 1, 2, 120, 195, 195, 120, 193, 119, 1, 1.74575
175, 1, bw, attraction, a-b-da, 2, 3, 1, 2, 120, 195, 195, 120, 193, 119, 3, 3.05857
175, 1, bw, filler, NA, 999, 999, 1, 3, 80, 160, 182, 78, 58, 94, 1, 1.50057
175, 1, bw, filler, NA, 999, 999, 1, 3, 80, 160, 182, 78, 58, 94, 3, 3.66353
175, 1, bw, attraction, a-b-db, 14, 1, 1, 4, 56, 125, 135, 60, 60, 135, 3, 2.23373
175, 1, bw, attraction, a-b-db, 14, 1, 1, 4, 56, 125, 135, 60, 60, 135, 1, 0.702905
175, 1, bw, attraction, a-b-db, 2, 1, 1, 5, 60, 135, 135, 60, 59, 134, 1, 2.95255
175, 1, bw, attraction, a-b-db, 2, 1, 1, 5, 60, 135, 135, 60, 59, 134, 2, 0.504989
175, 1, bw, attraction, a-b-da, 5, 2, 1, 6, 161, 88, 90, 165, 165, 90, 2, 1.31471
175, 1, bw, attraction, a-b-da, 5, 2, 1, 6, 161, 88, 90, 165, 165, 90, 1, 0.388987
175, 1, bw, attraction, a-b-da, 2, 2, 1, 7, 163, 89, 165, 90, 90, 165, 3, 1.60356
175, 1, bw, attraction, a-b-da, 2, 2, 1, 7, 163, 89, 165, 90, 90, 165, 2, 1.43438
175, 1, bw, filler, NA, 999, 999, 1, 8, 122, 187, 153, 61, 119, 70, 1, 0.798468
175, 1, bw, filler, NA, 999, 999, 1, 8, 122, 187, 153, 61, 119, 70, 3, 0.837549
175, 1, bw, attraction, a-b-da, 9, 3, 1, 9, 186, 114, 195, 120, 120, 195, 3, 1.36201
175, 1, bw, attraction, a-b-da, 9, 3, 1, 9, 186, 114, 195, 120, 120, 195, 1, 0.866142
175, 1, bw, attraction, a-b-da, 9, 1, 1, 10, 129, 57, 60, 135, 135, 60, 2, 4.41317
175, 1, bw, attraction, a-b-da, 9, 1, 1, 10, 129, 57, 60, 135, 135, 60, 1, 0.578416
175, 1, bw, attraction, a-b-da, 14, 1, 1, 11, 135, 60, 60, 135, 125, 56, 2, 1.64085
175, 1, bw, attraction, a-b-da, 14, 1, 1, 11, 135, 60, 60, 135, 125, 56, 1, 0.549625
175, 1, bw, catch, NA, 999, 999, 1, 12, 119, 136, 176, 139, 72, 123, 2, 1.66137
175, 1, bw, catch, NA, 999, 999, 1, 12, 119, 136, 176, 139, 72, 123, 3, 0.641566
175, 1, bw, attraction, a-b-db, 2, 2, 1, 13, 165, 90, 89, 163, 90, 165, 3, 1.57328
175, 1, bw, attraction, a-b-db, 2, 2, 1, 13, 165, 90, 89, 163, 90, 165, 1, 1.39673
175, 1, bw, attraction, a-b-da, 5, 3, 1, 14, 120, 195, 195, 120, 190, 117, 1, 1.09022
175, 1, bw, attraction, a-b-da, 5, 3, 1, 14, 120, 195, 195, 120, 190, 117, 3, 3.5734
175, 1, bw, attraction, a-b-db, 5, 1, 1, 15, 58, 132, 135, 60, 60, 135, 3, 1.40337
175, 1, bw, attraction, a-b-db, 5, 1, 1, 15, 58, 132, 135, 60, 60, 135, 2, 0.490269
175, 1, bw, filler, NA, 999, 999, 1, 16, 173, 184, 164, 153, 58, 124, 1, 0.97996
175, 1, bw, filler, NA, 999, 999, 1, 16, 173, 184, 164, 153, 58, 124, 3, 0.619747
175, 1, bw, attraction, a-b-db, 5, 2, 1, 17, 90, 165, 165, 90, 88, 161, 3, 1.06469
175, 1, bw, attraction, a-b-db, 5, 2, 1, 17, 90, 165, 165, 90, 88, 161, 2, 1.41306
175, 1, bw, attraction, a-b-db, 14, 2, 1, 18, 90, 165, 83, 153, 165, 90, 1, 3.40986
175, 1, bw, attraction, a-b-db, 14, 2, 1, 18, 90, 165, 83, 153, 165, 90, 3, 0.775458
175, 1, bw, attraction, a-b-da, 14, 3, 1, 19, 181, 111, 195, 120, 120, 195, 3, 1.71792
175, 1, bw, attraction, a-b-da, 14, 3, 1, 19, 181, 111, 195, 120, 120, 195, 1, 0.43993
175, 1, bw, catch, NA, 999, 999, 1, 20, 189, 126, 102, 153, 83, 112, 1, 0.715693
175, 1, bw, catch, NA, 999, 999, 1, 20, 189, 126, 102, 153, 83, 112, 3, 0.398075
175, 1, bw, filler, NA, 999, 999, 1, 21, 139, 100, 88, 187, 70, 79, 2, 1.18004
175, 1, bw, filler, NA, 999, 999, 1, 21, 139, 100, 88, 187, 70, 79, 3, 0.73158
175, 1, bw, attraction, a-b-db, 5, 3, 1, 22, 195, 120, 120, 195, 117, 190, 3, 0.748025
175, 1, bw, attraction, a-b-db, 5, 3, 1, 22, 195, 120, 120, 195, 117, 190, 1, 0.524969
175, 1, bw, attraction, a-b-db, 9, 3, 1, 23, 114, 186, 120, 195, 195, 120, 2, 2.34148
175, 1, bw, attraction, a-b-db, 9, 3, 1, 23, 114, 186, 120, 195, 195, 120, 3, 0.45407
175, 1, bw, filler, NA, 999, 999, 1, 24, 83, 149, 61, 116, 109, 94, 3, 1.05775
175, 1, bw, filler, NA, 999, 999, 1, 24, 83, 149, 61, 116, 109, 94, 2, 0.358238
175, 1, bw, filler, NA, 999, 999, 1, 25, 130, 166, 118, 149, 112, 147, 1, 0.829441
175, 1, bw, filler, NA, 999, 999, 1, 25, 130, 166, 118, 149, 112, 147, 3, 0.355048
175, 1, bw, attraction, a-b-db, 9, 1, 1, 26, 60, 135, 135, 60, 57, 129, 3, 0.762824
175, 1, bw, attraction, a-b-db, 9, 1, 1, 26, 60, 135, 135, 60, 57, 129, 2, 0.675251
175, 1, bw, attraction, a-b-da, 9, 2, 1, 27, 90, 165, 157, 86, 165, 90, 3, 0.717612
175, 1, bw, attraction, a-b-da, 9, 2, 1, 27, 90, 165, 157, 86, 165, 90, 2, 0.360059
175, 1, bw, catch, NA, 999, 999, 1, 28, 122, 73, 106, 149, 138, 177, 3, 1.08719
175, 1, bw, catch, NA, 999, 999, 1, 28, 122, 73, 106, 149, 138, 177, 1, 0.530814
175, 1, bw, filler, NA, 999, 999, 1, 29, 142, 169, 141, 184, 70, 195, 1, 0.931278
175, 1, bw, filler, NA, 999, 999, 1, 29, 142, 169, 141, 184, 70, 195, 3, 0.693019
175, 1, bw, filler, NA, 999, 999, 1, 30, 142, 69, 161, 128, 143, 124, 2, 1.25469
175, 1, bw, filler, NA, 999, 999, 1, 30, 142, 69, 161, 128, 143, 124, 1, 0.595
175, 1, bw, attraction, a-b-db, 14, 3, 1, 31, 195, 120, 120, 195, 111, 181, 1, 3.10472
175, 1, bw, attraction, a-b-db, 14, 3, 1, 31, 195, 120, 120, 195, 111, 181, 2, 1.61035
175, 1, bw, attraction, a-b-db, 2, 3, 1, 32, 195, 120, 119, 193, 120, 195, 2, 1.59115
175, 1, bw, attraction, a-b-db, 2, 3, 1, 32, 195, 120, 119, 193, 120, 195, 3, 1.72602
175, 1, bw, attraction, a-b-da, 14, 2, 1, 33, 90, 165, 153, 83, 165, 90, 3, 3.34203
175, 1, bw, attraction, a-b-da, 14, 2, 1, 33, 90, 165, 153, 83, 165, 90, 2, 4.63033
175, 1, bw, attraction, a-b-da, 5, 1, 1, 34, 60, 135, 135, 60, 132, 58, 1, 6.10541
175, 1, bw, attraction, a-b-da, 5, 1, 1, 34, 60, 135, 135, 60, 132, 58, 2, 0.986866
175, 1, bw, filler, NA, 999, 999, 1, 35, 164, 80, 126, 153, 131, 96, 2, 1.23313
175, 1, bw, filler, NA, 999, 999, 1, 35, 164, 80, 126, 153, 131, 96, 1, 0.486761
175, 1, bw, attraction, a-b-da, 2, 1, 1, 36, 60, 135, 135, 60, 134, 59, 3, 1.21718
175, 1, bw, attraction, a-b-da, 2, 1, 1, 36, 60, 135, 135, 60, 134, 59, 2, 0.655488
175, 1, bw, filler, NA, 999, 999, 1, 37, 96, 68, 121, 145, 65, 121, 2, 2.54717
175, 1, bw, filler, NA, 999, 999, 1, 37, 96, 68, 121, 145, 65, 121, 1, 0.643733
175, 1, bw, catch, NA, 999, 999, 2, 1, 128, 67, 189, 126, 161, 94, 2, 0.863499
175, 1, bw, catch, NA, 999, 999, 2, 1, 128, 67, 189, 126, 161, 94, 1, 0.603789
175, 1, bw, attraction, a-b-da, 14, 1, 2, 2, 125, 56, 60, 135, 135, 60, 2, 2.00159
175, 1, bw, attraction, a-b-da, 14, 1, 2, 2, 125, 56, 60, 135, 135, 60, 1, 0.912261
175, 1, bw, attraction, a-b-db, 14, 1, 2, 3, 56, 125, 135, 60, 60, 135, 1, 1.39326
175, 1, bw, attraction, a-b-db, 14, 1, 2, 3, 56, 125, 135, 60, 60, 135, 2, 0.328058
175, 1, bw, filler, NA, 999, 999, 2, 4, 64, 177, 88, 132, 194, 56, 2, 1.42461
175, 1, bw, filler, NA, 999, 999, 2, 4, 64, 177, 88, 132, 194, 56, 3, 0.790146
175, 1, bw, attraction, a-b-da, 2, 1, 2, 5, 134, 59, 60, 135, 135, 60, 2, 1.2438
175, 1, bw, attraction, a-b-da, 2, 1, 2, 5, 134, 59, 60, 135, 135, 60, 3, 0.808802
175, 1, bw, filler, NA, 999, 999, 2, 6, 64, 84, 98, 122, 96, 181, 3, 0.693876
175, 1, bw, filler, NA, 999, 999, 2, 6, 64, 84, 98, 122, 96, 181, 1, 0.456788
175, 1, bw, attraction, a-b-db, 14, 3, 2, 7, 195, 120, 111, 181, 120, 195, 1, 0.836059
175, 1, bw, attraction, a-b-db, 14, 3, 2, 7, 195, 120, 111, 181, 120, 195, 3, 2.10566
175, 1, bw, attraction, a-b-da, 5, 3, 2, 8, 190, 117, 195, 120, 120, 195, 1, 0.874945
175, 1, bw, attraction, a-b-da, 5, 3, 2, 8, 190, 117, 195, 120, 120, 195, 2, 3.23876
175, 1, bw, attraction, a-b-db, 5, 2, 2, 9, 90, 165, 165, 90, 88, 161, 3, 1.4663
175, 1, bw, attraction, a-b-db, 5, 2, 2, 9, 90, 165, 165, 90, 88, 161, 2, 0.510534
175, 1, bw, attraction, a-b-db, 2, 2, 2, 10, 89, 163, 90, 165, 165, 90, 1, 0.959664
175, 1, bw, attraction, a-b-db, 2, 2, 2, 10, 89, 163, 90, 165, 165, 90, 3, 0.959937
175, 1, bw, attraction, a-b-db, 2, 1, 2, 11, 135, 60, 59, 134, 60, 135, 3, 1.27895
175, 1, bw, attraction, a-b-db, 2, 1, 2, 11, 135, 60, 59, 134, 60, 135, 1, 1.12256
175, 1, bw, filler, NA, 999, 999, 2, 12, 175, 178, 106, 97, 69, 138, 1, 0.859487
175, 1, bw, filler, NA, 999, 999, 2, 12, 175, 178, 106, 97, 69, 138, 2, 0.983881
175, 1, bw, attraction, a-b-da, 2, 2, 2, 13, 163, 89, 165, 90, 90, 165, 1, 2.75017
175, 1, bw, attraction, a-b-da, 2, 2, 2, 13, 163, 89, 165, 90, 90, 165, 2, 2.77467
175, 1, bw, attraction, a-b-da, 9, 1, 2, 14, 60, 135, 129, 57, 135, 60, 1, 2.23627
175, 1, bw, attraction, a-b-da, 9, 1, 2, 14, 60, 135, 129, 57, 135, 60, 3, 2.12955
175, 1, bw, attraction, a-b-db, 5, 3, 2, 15, 117, 190, 120, 195, 195, 120, 1, 2.3295
175, 1, bw, attraction, a-b-db, 5, 3, 2, 15, 117, 190, 120, 195, 195, 120, 3, 2.18686
175, 1, bw, attraction, a-b-db, 9, 1, 2, 16, 135, 60, 60, 135, 57, 129, 2, 1.3926
175, 1, bw, attraction, a-b-db, 9, 1, 2, 16, 135, 60, 60, 135, 57, 129, 1, 0.791505
175, 1, bw, filler, NA, 999, 999, 2, 17, 162, 58, 157, 142, 169, 96, 2, 1.17326
175, 1, bw, filler, NA, 999, 999, 2, 17, 162, 58, 157, 142, 169, 96, 1, 1.00479
175, 1, bw, catch, NA, 999, 999, 2, 18, 147, 108, 136, 179, 110, 85, 2, 0.994353
175, 1, bw, catch, NA, 999, 999, 2, 18, 147, 108, 136, 179, 110, 85, 3, 0.825587
175, 1, bw, attraction, a-b-db, 2, 3, 2, 19, 119, 193, 120, 195, 195, 120, 2, 0.981833
175, 1, bw, attraction, a-b-db, 2, 3, 2, 19, 119, 193, 120, 195, 195, 120, 3, 1.31749
175, 1, bw, filler, NA, 999, 999, 2, 20, 68, 129, 190, 59, 88, 62, 1, 1.87044
175, 1, bw, filler, NA, 999, 999, 2, 20, 68, 129, 190, 59, 88, 62, 2, 0.554361
175, 1, bw, filler, NA, 999, 999, 2, 21, 101, 144, 142, 65, 71, 154, 1, 1.02612
175, 1, bw, filler, NA, 999, 999, 2, 21, 101, 144, 142, 65, 71, 154, 2, 0.615795
175, 1, bw, filler, NA, 999, 999, 2, 22, 164, 73, 94, 129, 99, 149, 3, 1.03696
175, 1, bw, filler, NA, 999, 999, 2, 22, 164, 73, 94, 129, 99, 149, 1, 0.626644
175, 1, bw, attraction, a-b-da, 14, 2, 2, 23, 165, 90, 90, 165, 153, 83, 1, 0.854876
175, 1, bw, attraction, a-b-da, 14, 2, 2, 23, 165, 90, 90, 165, 153, 83, 2, 5.1073
175, 1, bw, attraction, a-b-da, 5, 2, 2, 24, 90, 165, 165, 90, 161, 88, 1, 2.99568
175, 1, bw, attraction, a-b-da, 5, 2, 2, 24, 90, 165, 165, 90, 161, 88, 3, 3.45812
175, 1, bw, catch, NA, 999, 999, 2, 25, 124, 71, 161, 94, 135, 180, 3, 1.54835
175, 1, bw, catch, NA, 999, 999, 2, 25, 124, 71, 161, 94, 135, 180, 1, 0.621062
175, 1, bw, filler, NA, 999, 999, 2, 26, 165, 143, 70, 91, 87, 169, 1, 0.866036
175, 1, bw, filler, NA, 999, 999, 2, 26, 165, 143, 70, 91, 87, 169, 2, 0.374493
175, 1, bw, attraction, a-b-da, 9, 2, 2, 27, 90, 165, 165, 90, 157, 86, 2, 2.74904
175, 1, bw, attraction, a-b-da, 9, 2, 2, 27, 90, 165, 165, 90, 157, 86, 1, 0.621356
175, 1, bw, attraction, a-b-da, 2, 3, 2, 28, 120, 195, 195, 120, 193, 119, 3, 0.86658
175, 1, bw, attraction, a-b-da, 2, 3, 2, 28, 120, 195, 195, 120, 193, 119, 1, 0.398862
175, 1, bw, filler, NA, 999, 999, 2, 29, 72, 145, 82, 137, 165, 173, 3, 1.41279
175, 1, bw, filler, NA, 999, 999, 2, 29, 72, 145, 82, 137, 165, 173, 2, 1.04293
175, 1, bw, attraction, a-b-db, 9, 2, 2, 30, 90, 165, 86, 157, 165, 90, 3, 5.09454
175, 1, bw, attraction, a-b-db, 9, 2, 2, 30, 90, 165, 86, 157, 165, 90, 1, 1.05628
175, 1, bw, attraction, a-b-da, 9, 3, 2, 31, 195, 120, 186, 114, 120, 195, 3, 0.875754
175, 1, bw, attraction, a-b-da, 9, 3, 2, 31, 195, 120, 186, 114, 120, 195, 2, 0.671536
175, 1, bw, filler, NA, 999, 999, 2, 32, 112, 108, 71, 82, 90, 185, 3, 2.25062
175, 1, bw, filler, NA, 999, 999, 2, 32, 112, 108, 71, 82, 90, 185, 2, 0.967249
175, 1, bw, attraction, a-b-db, 14, 2, 2, 33, 83, 153, 90, 165, 165, 90, 2, 2.91816
175, 1, bw, attraction, a-b-db, 14, 2, 2, 33, 83, 153, 90, 165, 165, 90, 3, 1.03197
175, 1, bw, attraction, a-b-db, 9, 3, 2, 34, 195, 120, 114, 186, 120, 195, 1, 1.96435
175, 1, bw, attraction, a-b-db, 9, 3, 2, 34, 195, 120, 114, 186, 120, 195, 2, 2.54824
175, 1, bw, attraction, a-b-da, 14, 3, 2, 35, 120, 195, 195, 120, 181, 111, 1, 4.53945
175, 1, bw, attraction, a-b-da, 14, 3, 2, 35, 120, 195, 195, 120, 181, 111, 3, 0.779306
175, 1, bw, attraction, a-b-db, 5, 1, 2, 36, 135, 60, 58, 132, 60, 135, 3, 2.19359
175, 1, bw, attraction, a-b-db, 5, 1, 2, 36, 135, 60, 58, 132, 60, 135, 1, 2.53624
175, 1, bw, attraction, a-b-da, 5, 1, 2, 37, 135, 60, 60, 135, 132, 58, 2, 4.24803
175, 1, bw, attraction, a-b-da, 5, 1, 2, 37, 135, 60, 60, 135, 132, 58, 1, 0.964022
175, 1, bw, filler, NA, 999, 999, 3, 1, 175, 63, 166, 65, 143, 63, 2, 1.49097
175, 1, bw, filler, NA, 999, 999, 3, 1, 175, 63, 166, 65, 143, 63, 3, 1.68598
175, 1, bw, filler, NA, 999, 999, 3, 2, 133, 128, 140, 190, 84, 126, 2, 1.47197
175, 1, bw, filler, NA, 999, 999, 3, 2, 133, 128, 140, 190, 84, 126, 3, 0.683567
175, 1, bw, attraction, a-b-da, 14, 2, 3, 3, 153, 83, 90, 165, 165, 90, 2, 1.48581
175, 1, bw, attraction, a-b-da, 14, 2, 3, 3, 153, 83, 90, 165, 165, 90, 1, 1.21735
175, 1, bw, catch, NA, 999, 999, 3, 4, 110, 145, 194, 121, 103, 92, 1, 1.39025
175, 1, bw, catch, NA, 999, 999, 3, 4, 110, 145, 194, 121, 103, 92, 3, 2.09323
175, 1, bw, attraction, a-b-da, 2, 2, 3, 5, 90, 165, 165, 90, 163, 89, 1, 3.83046
175, 1, bw, attraction, a-b-da, 2, 2, 3, 5, 90, 165, 165, 90, 163, 89, 2, 2.6192
175, 1, bw, attraction, a-b-db, 14, 2, 3, 6, 83, 153, 90, 165, 165, 90, 2, 4.10362
175, 1, bw, attraction, a-b-db, 14, 2, 3, 6, 83, 153, 90, 165, 165, 90, 3, 0.985691
175, 1, bw, attraction, a-b-db, 9, 3, 3, 7, 114, 186, 195, 120, 120, 195, 1, 2.72802
175, 1, bw, attraction, a-b-db, 9, 3, 3, 7, 114, 186, 195, 120, 120, 195, 2, 1.30502
175, 1, bw, attraction, a-b-db, 5, 1, 3, 8, 58, 132, 135, 60, 60, 135, 1, 2.26664
175, 1, bw, attraction, a-b-db, 5, 1, 3, 8, 58, 132, 135, 60, 60, 135, 2, 1.93468
175, 1, bw, filler, NA, 999, 999, 3, 9, 151, 111, 126, 119, 141, 143, 3, 3.15855
175, 1, bw, filler, NA, 999, 999, 3, 9, 151, 111, 126, 119, 141, 143, 2, 2.13419
175, 1, bw, filler, NA, 999, 999, 3, 10, 133, 127, 155, 172, 116, 150, 2, 1.61416
175, 1, bw, filler, NA, 999, 999, 3, 10, 133, 127, 155, 172, 116, 150, 3, 1.93225
175, 1, bw, attraction, a-b-db, 9, 1, 3, 11, 60, 135, 135, 60, 57, 129, 1, 4.22035
175, 1, bw, attraction, a-b-db, 9, 1, 3, 11, 60, 135, 135, 60, 57, 129, 2, 0.82565
175, 1, bw, attraction, a-b-db, 2, 3, 3, 12, 195, 120, 119, 193, 120, 195, 2, 1.9581
175, 1, bw, attraction, a-b-db, 2, 3, 3, 12, 195, 120, 119, 193, 120, 195, 3, 2.37402
175, 1, bw, attraction, a-b-db, 5, 2, 3, 13, 165, 90, 88, 161, 90, 165, 2, 2.92387
175, 1, bw, attraction, a-b-db, 5, 2, 3, 13, 165, 90, 88, 161, 90, 165, 1, 3.50892
175, 1, bw, attraction, a-b-da, 2, 1, 3, 14, 134, 59, 60, 135, 135, 60, 3, 3.65305
175, 1, bw, attraction, a-b-da, 2, 1, 3, 14, 134, 59, 60, 135, 135, 60, 2, 1.1454
175, 1, bw, attraction, a-b-da, 14, 3, 3, 15, 195, 120, 181, 111, 120, 195, 3, 1.26482
175, 1, bw, attraction, a-b-da, 14, 3, 3, 15, 195, 120, 181, 111, 120, 195, 1, 0.88512
175, 1, bw, attraction, a-b-db, 14, 1, 3, 16, 135, 60, 56, 125, 60, 135, 2, 5.1195
175, 1, bw, attraction, a-b-db, 14, 1, 3, 16, 135, 60, 56, 125, 60, 135, 1, 0.944955
175, 1, bw, filler, NA, 999, 999, 3, 17, 148, 101, 115, 75, 152, 85, 1, 1.03217
175, 1, bw, filler, NA, 999, 999, 3, 17, 148, 101, 115, 75, 152, 85, 2, 1.66971
175, 1, bw, attraction, a-b-da, 5, 1, 3, 18, 135, 60, 132, 58, 60, 135, 1, 4.76853
175, 1, bw, attraction, a-b-da, 5, 1, 3, 18, 135, 60, 132, 58, 60, 135, 2, 2.20769
175, 1, bw, attraction, a-b-db, 14, 3, 3, 19, 111, 181, 120, 195, 195, 120, 3, 3.16438
175, 1, bw, attraction, a-b-db, 14, 3, 3, 19, 111, 181, 120, 195, 195, 120, 1, 1.22788
175, 1, bw, filler, NA, 999, 999, 3, 20, 173, 65, 144, 114, 170, 137, 3, 0.736108
175, 1, bw, filler, NA, 999, 999, 3, 20, 173, 65, 144, 114, 170, 137, 1, 0.505882
175, 1, bw, attraction, a-b-db, 2, 1, 3, 21, 135, 60, 59, 134, 60, 135, 2, 2.35567
175, 1, bw, attraction, a-b-db, 2, 1, 3, 21, 135, 60, 59, 134, 60, 135, 1, 0.475675
175, 1, bw, catch, NA, 999, 999, 3, 22, 133, 62, 130, 125, 150, 165, 3, 1.00596
175, 1, bw, catch, NA, 999, 999, 3, 22, 133, 62, 130, 125, 150, 165, 1, 0.500463
175, 1, bw, attraction, a-b-db, 2, 2, 3, 23, 89, 163, 90, 165, 165, 90, 1, 2.27021
175, 1, bw, attraction, a-b-db, 2, 2, 3, 23, 89, 163, 90, 165, 165, 90, 3, 0.954097
175, 1, bw, attraction, a-b-db, 9, 2, 3, 24, 90, 165, 165, 90, 86, 157, 1, 1.40972
175, 1, bw, attraction, a-b-db, 9, 2, 3, 24, 90, 165, 165, 90, 86, 157, 2, 0.75997
175, 1, bw, attraction, a-b-da, 5, 3, 3, 25, 195, 120, 120, 195, 190, 117, 2, 1.19897
175, 1, bw, attraction, a-b-da, 5, 3, 3, 25, 195, 120, 120, 195, 190, 117, 1, 0.493987
175, 1, bw, attraction, a-b-da, 5, 2, 3, 26, 161, 88, 90, 165, 165, 90, 2, 1.79984
175, 1, bw, attraction, a-b-da, 5, 2, 3, 26, 161, 88, 90, 165, 165, 90, 1, 0.478496
175, 1, bw, filler, NA, 999, 999, 3, 27, 181, 175, 155, 69, 162, 101, 1, 0.728851
175, 1, bw, filler, NA, 999, 999, 3, 27, 181, 175, 155, 69, 162, 101, 2, 1.20267
175, 1, bw, attraction, a-b-da, 9, 1, 3, 28, 60, 135, 135, 60, 129, 57, 3, 0.848174
175, 1, bw, attraction, a-b-da, 9, 1, 3, 28, 60, 135, 135, 60, 129, 57, 1, 0.461221
175, 1, bw, attraction, a-b-da, 14, 1, 3, 29, 60, 135, 125, 56, 135, 60, 1, 1.52025
175, 1, bw, attraction, a-b-da, 14, 1, 3, 29, 60, 135, 125, 56, 135, 60, 3, 0.970502
175, 1, bw, filler, NA, 999, 999, 3, 30, 101, 90, 90, 133, 62, 82, 2, 0.953552
175, 1, bw, filler, NA, 999, 999, 3, 30, 101, 90, 90, 133, 62, 82, 3, 0.602571
175, 1, bw, attraction, a-b-db, 5, 3, 3, 31, 120, 195, 117, 190, 195, 120, 2, 1.63217
175, 1, bw, attraction, a-b-db, 5, 3, 3, 31, 120, 195, 117, 190, 195, 120, 1, 2.01366
175, 1, bw, attraction, a-b-da, 9, 2, 3, 32, 157, 86, 165, 90, 90, 165, 1, 1.58637
175, 1, bw, attraction, a-b-da, 9, 2, 3, 32, 157, 86, 165, 90, 90, 165, 3, 4.36192
175, 1, bw, filler, NA, 999, 999, 3, 33, 133, 89, 148, 124, 69, 109, 2, 1.73582
175, 1, bw, filler, NA, 999, 999, 3, 33, 133, 89, 148, 124, 69, 109, 3, 0.833125
175, 1, bw, attraction, a-b-da, 9, 3, 3, 34, 195, 120, 120, 195, 186, 114, 2, 1.86957
175, 1, bw, attraction, a-b-da, 9, 3, 3, 34, 195, 120, 120, 195, 186, 114, 1, 0.961638
175, 1, bw, filler, NA, 999, 999, 3, 35, 189, 119, 188, 173, 124, 170, 2, 2.6085
175, 1, bw, filler, NA, 999, 999, 3, 35, 189, 119, 188, 173, 124, 170, 3, 0.606544
175, 1, bw, catch, NA, 999, 999, 3, 36, 109, 86, 178, 137, 125, 130, 2, 2.23618
175, 1, bw, catch, NA, 999, 999, 3, 36, 109, 86, 178, 137, 125, 130, 1, 0.545321
175, 1, bw, attraction, a-b-da, 2, 3, 3, 37, 120, 195, 193, 119, 195, 120, 1, 2.50516
175, 1, bw, attraction, a-b-da, 2, 3, 3, 37, 120, 195, 193, 119, 195, 120, 2, 1.52309
175, 1, bw, filler, NA, 999, 999, 4, 1, 158, 58, 60, 103, 85, 127, 3, 2.73982
175, 1, bw, filler, NA, 999, 999, 4, 1, 158, 58, 60, 103, 85, 127, 2, 1.58039
175, 1, bw, attraction, a-b-db, 5, 1, 4, 2, 58, 132, 60, 135, 135, 60, 2, 3.10656
175, 1, bw, attraction, a-b-db, 5, 1, 4, 2, 58, 132, 60, 135, 135, 60, 3, 0.476093
175, 1, bw, attraction, a-b-db, 2, 3, 4, 3, 119, 193, 120, 195, 195, 120, 2, 2.30256
175, 1, bw, attraction, a-b-db, 2, 3, 4, 3, 119, 193, 120, 195, 195, 120, 3, 0.433174
175, 1, bw, attraction, a-b-da, 2, 1, 4, 4, 60, 135, 134, 59, 135, 60, 1, 4.98955
175, 1, bw, attraction, a-b-da, 2, 1, 4, 4, 60, 135, 134, 59, 135, 60, 3, 12.9794
175, 1, bw, catch, NA, 999, 999, 4, 5, 125, 190, 96, 99, 134, 121, 1, 0.98194
175, 1, bw, catch, NA, 999, 999, 4, 5, 125, 190, 96, 99, 134, 121, 2, 1.02163
175, 1, bw, attraction, a-b-da, 9, 3, 4, 6, 186, 114, 195, 120, 120, 195, 3, 2.7146
175, 1, bw, attraction, a-b-da, 9, 3, 4, 6, 186, 114, 195, 120, 120, 195, 1, 0.980271
175, 1, bw, filler, NA, 999, 999, 4, 7, 151, 135, 127, 128, 76, 174, 1, 6.53866
175, 1, bw, filler, NA, 999, 999, 4, 7, 151, 135, 127, 128, 76, 174, 3, 1.16252
175, 1, bw, attraction, a-b-da, 14, 2, 4, 8, 90, 165, 165, 90, 153, 83, 1, 1.18556
175, 1, bw, attraction, a-b-da, 14, 2, 4, 8, 90, 165, 165, 90, 153, 83, 3, 1.16128
175, 1, bw, attraction, a-b-da, 5, 2, 4, 9, 90, 165, 165, 90, 161, 88, 2, 1.45594
175, 1, bw, attraction, a-b-da, 5, 2, 4, 9, 90, 165, 165, 90, 161, 88, 3, 0.468144
175, 1, bw, attraction, a-b-db, 9, 1, 4, 10, 60, 135, 57, 129, 135, 60, 1, 1.0153
175, 1, bw, attraction, a-b-db, 9, 1, 4, 10, 60, 135, 57, 129, 135, 60, 3, 0.733786
175, 1, bw, attraction, a-b-db, 2, 1, 4, 11, 135, 60, 60, 135, 59, 134, 3, 0.989949
175, 1, bw, attraction, a-b-db, 2, 1, 4, 11, 135, 60, 60, 135, 59, 134, 1, 0.612914
175, 1, bw, attraction, a-b-da, 9, 1, 4, 12, 135, 60, 60, 135, 129, 57, 2, 0.922225
175, 1, bw, attraction, a-b-da, 9, 1, 4, 12, 135, 60, 60, 135, 129, 57, 1, 1.01974
175, 1, bw, attraction, a-b-db, 9, 2, 4, 13, 86, 157, 165, 90, 90, 165, 3, 1.23294
175, 1, bw, attraction, a-b-db, 9, 2, 4, 13, 86, 157, 165, 90, 90, 165, 2, 1.51038
175, 1, bw, filler, NA, 999, 999, 4, 14, 95, 102, 161, 181, 183, 173, 2, 1.34321
175, 1, bw, filler, NA, 999, 999, 4, 14, 95, 102, 161, 181, 183, 173, 1, 0.727945
175, 1, bw, attraction, a-b-da, 14, 1, 4, 15, 60, 135, 135, 60, 125, 56, 3, 7.26444
175, 1, bw, attraction, a-b-da, 14, 1, 4, 15, 60, 135, 135, 60, 125, 56, 2, 1.29065
175, 1, bw, attraction, a-b-db, 9, 3, 4, 16, 114, 186, 195, 120, 120, 195, 1, 2.15638
175, 1, bw, attraction, a-b-db, 9, 3, 4, 16, 114, 186, 195, 120, 120, 195, 2, 2.24423
175, 1, bw, attraction, a-b-db, 5, 2, 4, 17, 88, 161, 90, 165, 165, 90, 1, 13.4555
175, 1, bw, attraction, a-b-db, 5, 2, 4, 17, 88, 161, 90, 165, 165, 90, 3, 1.61659
175, 1, bw, attraction, a-b-db, 5, 3, 4, 18, 195, 120, 117, 190, 120, 195, 2, 2.30927
175, 1, bw, attraction, a-b-db, 5, 3, 4, 18, 195, 120, 117, 190, 120, 195, 1, 0.711281
175, 1, bw, attraction, a-b-db, 14, 3, 4, 19, 195, 120, 111, 181, 120, 195, 3, 1.12833
175, 1, bw, attraction, a-b-db, 14, 3, 4, 19, 195, 120, 111, 181, 120, 195, 1, 1.44195
175, 1, bw, filler, NA, 999, 999, 4, 20, 140, 145, 89, 162, 111, 103, 1, 1.11744
175, 1, bw, filler, NA, 999, 999, 4, 20, 140, 145, 89, 162, 111, 103, 3, 0.919799
175, 1, bw, filler, NA, 999, 999, 4, 21, 142, 171, 194, 165, 189, 132, 2, 1.40065
175, 1, bw, filler, NA, 999, 999, 4, 21, 142, 171, 194, 165, 189, 132, 1, 0.815652
175, 1, bw, attraction, a-b-db, 2, 2, 4, 22, 89, 163, 165, 90, 90, 165, 1, 1.06049
175, 1, bw, attraction, a-b-db, 2, 2, 4, 22, 89, 163, 165, 90, 90, 165, 3, 0.40085
175, 1, bw, attraction, a-b-da, 5, 1, 4, 23, 135, 60, 60, 135, 132, 58, 1, 0.678751
175, 1, bw, attraction, a-b-da, 5, 1, 4, 23, 135, 60, 60, 135, 132, 58, 2, 0.362495
175, 1, bw, filler, NA, 999, 999, 4, 24, 118, 114, 92, 101, 170, 173, 3, 0.817676
175, 1, bw, filler, NA, 999, 999, 4, 24, 118, 114, 92, 101, 170, 173, 2, 0.856056
175, 1, bw, filler, NA, 999, 999, 4, 25, 104, 163, 166, 132, 172, 106, 1, 2.8517
175, 1, bw, filler, NA, 999, 999, 4, 25, 104, 163, 166, 132, 172, 106, 3, 6.15209
175, 1, bw, filler, NA, 999, 999, 4, 26, 155, 133, 135, 64, 184, 191, 3, 0.918226
175, 1, bw, filler, NA, 999, 999, 4, 26, 155, 133, 135, 64, 184, 191, 2, 2.02464
175, 1, bw, attraction, a-b-db, 14, 2, 4, 27, 83, 153, 90, 165, 165, 90, 2, 6.58051
175, 1, bw, attraction, a-b-db, 14, 2, 4, 27, 83, 153, 90, 165, 165, 90, 1, 0.746392
175, 1, bw, attraction, a-b-da, 2, 3, 4, 28, 195, 120, 193, 119, 120, 195, 1, 2.5861
175, 1, bw, attraction, a-b-da, 2, 3, 4, 28, 195, 120, 193, 119, 120, 195, 3, 0.865334
175, 1, bw, attraction, a-b-da, 2, 2, 4, 29, 163, 89, 165, 90, 90, 165, 1, 6.62834
175, 1, bw, attraction, a-b-da, 2, 2, 4, 29, 163, 89, 165, 90, 90, 165, 3, 2.16828
175, 1, bw, attraction, a-b-da, 5, 3, 4, 30, 190, 117, 195, 120, 120, 195, 3, 1.05474
175, 1, bw, attraction, a-b-da, 5, 3, 4, 30, 190, 117, 195, 120, 120, 195, 1, 0.403175
175, 1, bw, attraction, a-b-da, 9, 2, 4, 31, 165, 90, 90, 165, 157, 86, 2, 1.65692
175, 1, bw, attraction, a-b-da, 9, 2, 4, 31, 165, 90, 90, 165, 157, 86, 1, 0.589112
175, 1, bw, catch, NA, 999, 999, 4, 32, 135, 120, 125, 190, 67, 128, 2, 0.891459
175, 1, bw, catch, NA, 999, 999, 4, 32, 135, 120, 125, 190, 67, 128, 3, 0.710531
175, 1, bw, catch, NA, 999, 999, 4, 33, 111, 144, 123, 72, 178, 137, 3, 0.711559
175, 1, bw, catch, NA, 999, 999, 4, 33, 111, 144, 123, 72, 178, 137, 2, 0.865977
175, 1, bw, attraction, a-b-da, 14, 3, 4, 34, 181, 111, 195, 120, 120, 195, 3, 3.43695
175, 1, bw, attraction, a-b-da, 14, 3, 4, 34, 181, 111, 195, 120, 120, 195, 1, 0.969841
175, 1, bw, filler, NA, 999, 999, 4, 35, 181, 193, 138, 146, 165, 166, 1, 1.85684
175, 1, bw, filler, NA, 999, 999, 4, 35, 181, 193, 138, 146, 165, 166, 2, 0.748872
175, 1, bw, attraction, a-b-db, 14, 1, 4, 36, 60, 135, 135, 60, 56, 125, 3, 2.39666
175, 1, bw, attraction, a-b-db, 14, 1, 4, 36, 60, 135, 135, 60, 56, 125, 2, 0.779178
175, 1, bw, filler, NA, 999, 999, 4, 37, 188, 84, 65, 63, 153, 90, 1, 2.15346
175, 1, bw, filler, NA, 999, 999, 4, 37, 188, 84, 65, 63, 153, 90, 2, 0.602082
175, 1, bw, attraction, a-b-db, 9, 2, 5, 1, 86, 157, 165, 90, 90, 165, 3, 21.8225
175, 1, bw, attraction, a-b-db, 9, 2, 5, 1, 86, 157, 165, 90, 90, 165, 2, 6.81448
175, 1, bw, filler, NA, 999, 999, 5, 2, 173, 100, 154, 183, 177, 122, 2, 20.3694
175, 1, bw, filler, NA, 999, 999, 5, 2, 173, 100, 154, 183, 177, 122, 1, 1.37183
175, 1, bw, catch, NA, 999, 999, 5, 3, 190, 125, 109, 86, 139, 116, 1, 0.834622
175, 1, bw, catch, NA, 999, 999, 5, 3, 190, 125, 109, 86, 139, 116, 2, 0.584352
175, 1, bw, attraction, a-b-db, 2, 2, 5, 4, 89, 163, 90, 165, 165, 90, 2, 2.70594
175, 1, bw, attraction, a-b-db, 2, 2, 5, 4, 89, 163, 90, 165, 165, 90, 3, 0.640573
175, 1, bw, filler, NA, 999, 999, 5, 5, 60, 171, 87, 120, 65, 63, 2, 0.564228
175, 1, bw, filler, NA, 999, 999, 5, 5, 60, 171, 87, 120, 65, 63, 3, 0.508757
175, 1, bw, attraction, a-b-da, 14, 3, 5, 6, 120, 195, 181, 111, 195, 120, 1, 1.14993
175, 1, bw, attraction, a-b-da, 14, 3, 5, 6, 120, 195, 181, 111, 195, 120, 2, 0.310945
175, 1, bw, filler, NA, 999, 999, 5, 7, 190, 119, 175, 127, 78, 152, 2, 0.599969
175, 1, bw, filler, NA, 999, 999, 5, 7, 190, 119, 175, 127, 78, 152, 3, 0.415107
175, 1, bw, filler, NA, 999, 999, 5, 8, 156, 132, 64, 87, 195, 71, 1, 0.88415
175, 1, bw, filler, NA, 999, 999, 5, 8, 156, 132, 64, 87, 195, 71, 2, 1.01603
175, 1, bw, attraction, a-b-da, 5, 2, 5, 9, 161, 88, 165, 90, 90, 165, 2, 1.01297
175, 1, bw, attraction, a-b-da, 5, 2, 5, 9, 161, 88, 165, 90, 90, 165, 3, 0.827351
175, 1, bw, attraction, a-b-da, 14, 1, 5, 10, 60, 135, 135, 60, 125, 56, 1, 0.663562
175, 1, bw, attraction, a-b-da, 14, 1, 5, 10, 60, 135, 135, 60, 125, 56, 3, 2.492
175, 1, bw, filler, NA, 999, 999, 5, 11, 107, 161, 141, 114, 102, 158, 1, 0.789242
175, 1, bw, filler, NA, 999, 999, 5, 11, 107, 161, 141, 114, 102, 158, 2, 0.292138
175, 1, bw, filler, NA, 999, 999, 5, 12, 156, 185, 140, 98, 56, 136, 1, 0.646056
175, 1, bw, filler, NA, 999, 999, 5, 12, 156, 185, 140, 98, 56, 136, 3, 0.347324
175, 1, bw, attraction, a-b-da, 5, 1, 5, 13, 60, 135, 132, 58, 135, 60, 3, 3.38711
175, 1, bw, attraction, a-b-da, 5, 1, 5, 13, 60, 135, 132, 58, 135, 60, 1, 0.569928
175, 1, bw, attraction, a-b-db, 2, 1, 5, 14, 135, 60, 59, 134, 60, 135, 3, 1.90506
175, 1, bw, attraction, a-b-db, 2, 1, 5, 14, 135, 60, 59, 134, 60, 135, 1, 2.16304
175, 1, bw, attraction, a-b-da, 9, 1, 5, 15, 135, 60, 129, 57, 60, 135, 3, 2.7297
175, 1, bw, attraction, a-b-da, 9, 1, 5, 15, 135, 60, 129, 57, 60, 135, 2, 1.8748
175, 1, bw, attraction, a-b-db, 5, 1, 5, 16, 58, 132, 135, 60, 60, 135, 3, 2.11681
175, 1, bw, attraction, a-b-db, 5, 1, 5, 16, 58, 132, 135, 60, 60, 135, 2, 1.6309
175, 1, bw, catch, NA, 999, 999, 5, 17, 165, 90, 139, 176, 95, 100, 2, 0.866842
175, 1, bw, catch, NA, 999, 999, 5, 17, 165, 90, 139, 176, 95, 100, 3, 0.903304
175, 1, bw, attraction, a-b-db, 14, 2, 5, 18, 90, 165, 165, 90, 83, 153, 1, 0.8969
175, 1, bw, attraction, a-b-db, 14, 2, 5, 18, 90, 165, 165, 90, 83, 153, 3, 0.548141
175, 1, bw, attraction, a-b-db, 2, 3, 5, 19, 120, 195, 119, 193, 195, 120, 2, 3.37184
175, 1, bw, attraction, a-b-db, 2, 3, 5, 19, 120, 195, 119, 193, 195, 120, 1, 4.48272
175, 1, bw, attraction, a-b-da, 9, 2, 5, 20, 90, 165, 165, 90, 157, 86, 1, 2.3079
175, 1, bw, attraction, a-b-da, 9, 2, 5, 20, 90, 165, 165, 90, 157, 86, 3, 0.845806
175, 1, bw, attraction, a-b-da, 14, 2, 5, 21, 165, 90, 90, 165, 153, 83, 2, 1.39347
175, 1, bw, attraction, a-b-da, 14, 2, 5, 21, 165, 90, 90, 165, 153, 83, 3, 1.36032
175, 1, bw, attraction, a-b-db, 9, 3, 5, 22, 120, 195, 114, 186, 195, 120, 1, 0.663116
175, 1, bw, attraction, a-b-db, 9, 3, 5, 22, 120, 195, 114, 186, 195, 120, 3, 1.20358
175, 1, bw, attraction, a-b-db, 14, 3, 5, 23, 120, 195, 111, 181, 195, 120, 1, 0.68117
175, 1, bw, attraction, a-b-db, 14, 3, 5, 23, 120, 195, 111, 181, 195, 120, 3, 0.757063
175, 1, bw, attraction, a-b-db, 14, 1, 5, 24, 135, 60, 60, 135, 56, 125, 2, 1.04395
175, 1, bw, attraction, a-b-db, 14, 1, 5, 24, 135, 60, 60, 135, 56, 125, 3, 0.51289
175, 1, bw, attraction, a-b-db, 5, 3, 5, 25, 195, 120, 120, 195, 117, 190, 2, 1.20194
175, 1, bw, attraction, a-b-db, 5, 3, 5, 25, 195, 120, 120, 195, 117, 190, 3, 0.408936
175, 1, bw, catch, NA, 999, 999, 5, 26, 160, 155, 89, 106, 144, 111, 1, 0.662184
175, 1, bw, catch, NA, 999, 999, 5, 26, 160, 155, 89, 106, 144, 111, 2, 0.730564
175, 1, bw, attraction, a-b-da, 2, 3, 5, 27, 193, 119, 195, 120, 120, 195, 2, 1.04302
175, 1, bw, attraction, a-b-da, 2, 3, 5, 27, 193, 119, 195, 120, 120, 195, 3, 0.655924
175, 1, bw, attraction, a-b-da, 2, 2, 5, 28, 165, 90, 90, 165, 163, 89, 2, 1.82778
175, 1, bw, attraction, a-b-da, 2, 2, 5, 28, 165, 90, 90, 165, 163, 89, 3, 0.489048
175, 1, bw, attraction, a-b-da, 5, 3, 5, 29, 120, 195, 195, 120, 190, 117, 1, 0.611492
175, 1, bw, attraction, a-b-da, 5, 3, 5, 29, 120, 195, 195, 120, 190, 117, 2, 0.722027
175, 1, bw, filler, NA, 999, 999, 5, 30, 107, 110, 112, 68, 99, 155, 3, 0.899084
175, 1, bw, filler, NA, 999, 999, 5, 30, 107, 110, 112, 68, 99, 155, 2, 0.662049
175, 1, bw, filler, NA, 999, 999, 5, 31, 60, 186, 129, 177, 189, 63, 2, 1.12112
175, 1, bw, filler, NA, 999, 999, 5, 31, 60, 186, 129, 177, 189, 63, 3, 1.37943
175, 1, bw, filler, NA, 999, 999, 5, 32, 142, 169, 87, 139, 73, 188, 1, 0.681531
175, 1, bw, filler, NA, 999, 999, 5, 32, 142, 169, 87, 139, 73, 188, 2, 0.501413
175, 1, bw, attraction, a-b-db, 9, 1, 5, 33, 135, 60, 60, 135, 57, 129, 2, 3.69521
175, 1, bw, attraction, a-b-db, 9, 1, 5, 33, 135, 60, 60, 135, 57, 129, 3, 0.705228
175, 1, bw, attraction, a-b-db, 5, 2, 5, 34, 165, 90, 90, 165, 88, 161, 3, 0.882979
175, 1, bw, attraction, a-b-db, 5, 2, 5, 34, 165, 90, 90, 165, 88, 161, 1, 0.710621
175, 1, bw, attraction, a-b-da, 9, 3, 5, 35, 120, 195, 195, 120, 186, 114, 1, 1.29576
175, 1, bw, attraction, a-b-da, 9, 3, 5, 35, 120, 195, 195, 120, 186, 114, 3, 1.10686
175, 1, bw, attraction, a-b-da, 2, 1, 5, 36, 134, 59, 135, 60, 60, 135, 3, 0.835722
175, 1, bw, attraction, a-b-da, 2, 1, 5, 36, 134, 59, 135, 60, 60, 135, 1, 0.633275
175, 1, bw, filler, NA, 999, 999, 5, 37, 185, 88, 102, 78, 143, 150, 3, 0.965681
175, 1, bw, filler, NA, 999, 999, 5, 37, 185, 88, 102, 78, 143, 150, 2, 1.04597
175, 1, bw, filler, NA, 999, 999, 6, 1, 192, 169, 143, 97, 164, 147, 1, 0.865587
175, 1, bw, filler, NA, 999, 999, 6, 1, 192, 169, 143, 97, 164, 147, 2, 0.93405
175, 1, bw, attraction, a-b-da, 14, 2, 6, 2, 153, 83, 165, 90, 90, 165, 3, 0.81434
175, 1, bw, attraction, a-b-da, 14, 2, 6, 2, 153, 83, 165, 90, 90, 165, 2, 4.10875
175, 1, bw, attraction, a-b-da, 2, 2, 6, 3, 90, 165, 165, 90, 163, 89, 1, 1.62074
175, 1, bw, attraction, a-b-da, 2, 2, 6, 3, 90, 165, 165, 90, 163, 89, 2, 0.570999
175, 1, bw, attraction, a-b-db, 5, 3, 6, 4, 120, 195, 195, 120, 117, 190, 3, 2.03397
175, 1, bw, attraction, a-b-db, 5, 3, 6, 4, 120, 195, 195, 120, 117, 190, 2, 0.951354
175, 1, bw, attraction, a-b-da, 2, 3, 6, 5, 120, 195, 195, 120, 193, 119, 3, 1.03092
175, 1, bw, attraction, a-b-da, 2, 3, 6, 5, 120, 195, 195, 120, 193, 119, 2, 0.732682
175, 1, bw, attraction, a-b-da, 9, 3, 6, 6, 195, 120, 120, 195, 186, 114, 3, 1.02097
175, 1, bw, attraction, a-b-da, 9, 3, 6, 6, 195, 120, 120, 195, 186, 114, 2, 5.74731
175, 1, bw, attraction, a-b-db, 9, 1, 6, 7, 60, 135, 135, 60, 57, 129, 1, 1.51343
175, 1, bw, attraction, a-b-db, 9, 1, 6, 7, 60, 135, 135, 60, 57, 129, 2, 0.39566
175, 1, bw, attraction, a-b-da, 14, 3, 6, 8, 120, 195, 195, 120, 181, 111, 1, 1.27359
175, 1, bw, attraction, a-b-da, 14, 3, 6, 8, 120, 195, 195, 120, 181, 111, 3, 0.588985
175, 1, bw, filler, NA, 999, 999, 6, 9, 59, 145, 163, 60, 150, 140, 3, 0.675516
175, 1, bw, filler, NA, 999, 999, 6, 9, 59, 145, 163, 60, 150, 140, 1, 0.487215
175, 1, bw, catch, NA, 999, 999, 6, 10, 115, 80, 190, 125, 107, 148, 2, 0.841572
175, 1, bw, catch, NA, 999, 999, 6, 10, 115, 80, 190, 125, 107, 148, 1, 0.59065
175, 1, bw, filler, NA, 999, 999, 6, 11, 120, 193, 59, 191, 167, 101, 1, 0.876398
175, 1, bw, filler, NA, 999, 999, 6, 11, 120, 193, 59, 191, 167, 101, 2, 1.20013
175, 1, bw, attraction, a-b-da, 5, 2, 6, 12, 90, 165, 165, 90, 161, 88, 2, 1.78185
175, 1, bw, attraction, a-b-da, 5, 2, 6, 12, 90, 165, 165, 90, 161, 88, 3, 3.66121
175, 1, bw, catch, NA, 999, 999, 6, 13, 90, 105, 177, 138, 104, 151, 3, 0.847261
175, 1, bw, catch, NA, 999, 999, 6, 13, 90, 105, 177, 138, 104, 151, 2, 1.35632
175, 1, bw, filler, NA, 999, 999, 6, 14, 99, 64, 157, 161, 118, 99, 2, 1.00383
175, 1, bw, filler, NA, 999, 999, 6, 14, 99, 64, 157, 161, 118, 99, 1, 0.442759
175, 1, bw, attraction, a-b-db, 2, 3, 6, 15, 119, 193, 195, 120, 120, 195, 1, 1.14259
175, 1, bw, attraction, a-b-db, 2, 3, 6, 15, 119, 193, 195, 120, 120, 195, 2, 1.28778
175, 1, bw, attraction, a-b-db, 14, 1, 6, 16, 135, 60, 56, 125, 60, 135, 3, 1.71377
175, 1, bw, attraction, a-b-db, 14, 1, 6, 16, 135, 60, 56, 125, 60, 135, 1, 0.995913
175, 1, bw, filler, NA, 999, 999, 6, 17, 179, 144, 59, 98, 184, 154, 3, 1.72952
175, 1, bw, filler, NA, 999, 999, 6, 17, 179, 144, 59, 98, 184, 154, 2, 0.482965
175, 1, bw, filler, NA, 999, 999, 6, 18, 143, 120, 177, 56, 124, 93, 1, 2.83743
175, 1, bw, filler, NA, 999, 999, 6, 18, 143, 120, 177, 56, 124, 93, 2, 0.658502
175, 1, bw, attraction, a-b-db, 9, 3, 6, 19, 195, 120, 120, 195, 114, 186, 2, 2.50956
175, 1, bw, attraction, a-b-db, 9, 3, 6, 19, 195, 120, 120, 195, 114, 186, 1, 0.607553
175, 1, bw, attraction, a-b-db, 2, 2, 6, 20, 90, 165, 165, 90, 89, 163, 1, 1.38848
175, 1, bw, attraction, a-b-db, 2, 2, 6, 20, 90, 165, 165, 90, 89, 163, 2, 0.315284
175, 1, bw, attraction, a-b-da, 2, 1, 6, 21, 134, 59, 135, 60, 60, 135, 2, 0.652596
175, 1, bw, attraction, a-b-da, 2, 1, 6, 21, 134, 59, 135, 60, 60, 135, 3, 0.521795
175, 1, bw, attraction, a-b-da, 9, 2, 6, 22, 165, 90, 90, 165, 157, 86, 2, 0.874639
175, 1, bw, attraction, a-b-da, 9, 2, 6, 22, 165, 90, 90, 165, 157, 86, 1, 0.374455
175, 1, bw, attraction, a-b-da, 5, 1, 6, 23, 132, 58, 60, 135, 135, 60, 2, 0.557037
175, 1, bw, attraction, a-b-da, 5, 1, 6, 23, 132, 58, 60, 135, 135, 60, 1, 3.25333
175, 1, bw, attraction, a-b-da, 5, 3, 6, 24, 190, 117, 120, 195, 195, 120, 2, 1.4803
175, 1, bw, attraction, a-b-da, 5, 3, 6, 24, 190, 117, 120, 195, 195, 120, 1, 1.31577
175, 1, bw, attraction, a-b-db, 5, 1, 6, 25, 58, 132, 135, 60, 60, 135, 1, 1.00479
175, 1, bw, attraction, a-b-db, 5, 1, 6, 25, 58, 132, 135, 60, 60, 135, 2, 0.723005
175, 1, bw, attraction, a-b-db, 14, 2, 6, 26, 165, 90, 90, 165, 83, 153, 2, 0.96412
175, 1, bw, attraction, a-b-db, 14, 2, 6, 26, 165, 90, 90, 165, 83, 153, 3, 0.468602
175, 1, bw, attraction, a-b-db, 5, 2, 6, 27, 90, 165, 165, 90, 88, 161, 2, 1.2875
175, 1, bw, attraction, a-b-db, 5, 2, 6, 27, 90, 165, 165, 90, 88, 161, 3, 2.99512
175, 1, bw, catch, NA, 999, 999, 6, 28, 132, 123, 117, 78, 122, 193, 3, 1.60812
175, 1, bw, catch, NA, 999, 999, 6, 28, 132, 123, 117, 78, 122, 193, 2, 0.638279
175, 1, bw, attraction, a-b-da, 9, 1, 6, 29, 129, 57, 135, 60, 60, 135, 3, 4.44266
175, 1, bw, attraction, a-b-da, 9, 1, 6, 29, 129, 57, 135, 60, 60, 135, 1, 0.566593
175, 1, bw, attraction, a-b-db, 9, 2, 6, 30, 90, 165, 86, 157, 165, 90, 1, 0.957707
175, 1, bw, attraction, a-b-db, 9, 2, 6, 30, 90, 165, 86, 157, 165, 90, 3, 0.590008
175, 1, bw, attraction, a-b-da, 14, 1, 6, 31, 135, 60, 125, 56, 60, 135, 3, 0.867726
175, 1, bw, attraction, a-b-da, 14, 1, 6, 31, 135, 60, 125, 56, 60, 135, 1, 0.656124
175, 1, bw, attraction, a-b-db, 2, 1, 6, 32, 59, 134, 60, 135, 135, 60, 1, 0.931839
175, 1, bw, attraction, a-b-db, 2, 1, 6, 32, 59, 134, 60, 135, 135, 60, 3, 0.805727
175, 1, bw, filler, NA, 999, 999, 6, 33, 193, 195, 134, 122, 104, 182, 1, 0.82732
175, 1, bw, filler, NA, 999, 999, 6, 33, 193, 195, 134, 122, 104, 182, 2, 0.472985
175, 1, bw, filler, NA, 999, 999, 6, 34, 194, 104, 67, 63, 164, 180, 3, 0.796245
175, 1, bw, filler, NA, 999, 999, 6, 34, 194, 104, 67, 63, 164, 180, 2, 0.467117
175, 1, bw, filler, NA, 999, 999, 6, 35, 146, 106, 78, 137, 185, 189, 3, 0.798199
175, 1, bw, filler, NA, 999, 999, 6, 35, 146, 106, 78, 137, 185, 189, 2, 0.437255
175, 1, bw, filler, NA, 999, 999, 6, 36, 172, 182, 121, 145, 159, 171, 1, 0.769797
175, 1, bw, filler, NA, 999, 999, 6, 36, 172, 182, 121, 145, 159, 171, 2, 1.21022
175, 1, bw, attraction, a-b-db, 14, 3, 6, 37, 120, 195, 111, 181, 195, 120, 1, 2.07117
175, 1, bw, attraction, a-b-db, 14, 3, 6, 37, 120, 195, 111, 181, 195, 120, 2, 2.77106
175, 1, bw, filler, NA, 999, 999, 7, 1, 142, 79, 61, 77, 173, 142, 3, 0.753523
175, 1, bw, filler, NA, 999, 999, 7, 1, 142, 79, 61, 77, 173, 142, 2, 0.610608
175, 1, bw, filler, NA, 999, 999, 7, 2, 171, 186, 111, 104, 72, 103, 1, 0.615596
175, 1, bw, filler, NA, 999, 999, 7, 2, 171, 186, 111, 104, 72, 103, 2, 0.566124
175, 1, bw, attraction, a-b-da, 14, 2, 7, 3, 153, 83, 90, 165, 165, 90, 2, 3.62925
175, 1, bw, attraction, a-b-da, 14, 2, 7, 3, 153, 83, 90, 165, 165, 90, 1, 0.442109
175, 1, bw, attraction, a-b-db, 14, 2, 7, 4, 90, 165, 83, 153, 165, 90, 3, 1.38985
175, 1, bw, attraction, a-b-db, 14, 2, 7, 4, 90, 165, 83, 153, 165, 90, 2, 1.73266
175, 1, bw, filler, NA, 999, 999, 7, 5, 139, 90, 66, 130, 95, 133, 3, 1.61279
175, 1, bw, filler, NA, 999, 999, 7, 5, 139, 90, 66, 130, 95, 133, 2, 3.37104
175, 1, bw, attraction, a-b-da, 5, 2, 7, 6, 90, 165, 165, 90, 161, 88, 1, 4.65719
175, 1, bw, attraction, a-b-da, 5, 2, 7, 6, 90, 165, 165, 90, 161, 88, 3, 0.716384
175, 1, bw, attraction, a-b-db, 9, 3, 7, 7, 114, 186, 195, 120, 120, 195, 3, 4.16545
175, 1, bw, attraction, a-b-db, 9, 3, 7, 7, 114, 186, 195, 120, 120, 195, 1, 3.0368
175, 1, bw, attraction, a-b-da, 9, 1, 7, 8, 129, 57, 60, 135, 135, 60, 2, 1.28032
175, 1, bw, attraction, a-b-da, 9, 1, 7, 8, 129, 57, 60, 135, 135, 60, 1, 0.611909
175, 1, bw, attraction, a-b-db, 2, 1, 7, 9, 135, 60, 59, 134, 60, 135, 3, 0.92109
175, 1, bw, attraction, a-b-db, 2, 1, 7, 9, 135, 60, 59, 134, 60, 135, 1, 1.82689
175, 1, bw, attraction, a-b-da, 9, 3, 7, 10, 186, 114, 120, 195, 195, 120, 2, 1.47875
175, 1, bw, attraction, a-b-da, 9, 3, 7, 10, 186, 114, 120, 195, 195, 120, 1, 1.29036
175, 1, bw, filler, NA, 999, 999, 7, 11, 152, 112, 179, 119, 94, 148, 2, 1.45987
175, 1, bw, filler, NA, 999, 999, 7, 11, 152, 112, 179, 119, 94, 148, 3, 0.663993
175, 1, bw, attraction, a-b-da, 14, 3, 7, 12, 120, 195, 181, 111, 195, 120, 2, 7.82712
175, 1, bw, attraction, a-b-da, 14, 3, 7, 12, 120, 195, 181, 111, 195, 120, 1, 1.28672
175, 1, bw, attraction, a-b-db, 2, 3, 7, 13, 120, 195, 119, 193, 195, 120, 1, 2.53684
175, 1, bw, attraction, a-b-db, 2, 3, 7, 13, 120, 195, 119, 193, 195, 120, 3, 0.657948
175, 1, bw, attraction, a-b-da, 2, 1, 7, 14, 134, 59, 60, 135, 135, 60, 2, 1.21298
175, 1, bw, attraction, a-b-da, 2, 1, 7, 14, 134, 59, 60, 135, 135, 60, 1, 1.41138
175, 1, bw, attraction, a-b-da, 9, 2, 7, 15, 90, 165, 157, 86, 165, 90, 1, 4.41622
175, 1, bw, attraction, a-b-da, 9, 2, 7, 15, 90, 165, 157, 86, 165, 90, 2, 3.01347
175, 1, bw, attraction, a-b-da, 5, 1, 7, 16, 60, 135, 135, 60, 132, 58, 2, 1.31376
175, 1, bw, attraction, a-b-da, 5, 1, 7, 16, 60, 135, 135, 60, 132, 58, 3, 2.99605
175, 1, bw, attraction, a-b-db, 5, 3, 7, 17, 117, 190, 195, 120, 120, 195, 3, 1.29708
175, 1, bw, attraction, a-b-db, 5, 3, 7, 17, 117, 190, 195, 120, 120, 195, 2, 2.35592
175, 1, bw, attraction, a-b-db, 9, 1, 7, 18, 135, 60, 60, 135, 57, 129, 2, 1.52304
175, 1, bw, attraction, a-b-db, 9, 1, 7, 18, 135, 60, 60, 135, 57, 129, 1, 0.836567
175, 1, bw, catch, NA, 999, 999, 7, 19, 190, 125, 109, 146, 117, 78, 2, 0.83286
175, 1, bw, catch, NA, 999, 999, 7, 19, 190, 125, 109, 146, 117, 78, 3, 2.23862
175, 1, bw, attraction, a-b-da, 2, 3, 7, 20, 120, 195, 195, 120, 193, 119, 1, 1.84266
175, 1, bw, attraction, a-b-da, 2, 3, 7, 20, 120, 195, 195, 120, 193, 119, 2, 2.28728
175, 1, bw, filler, NA, 999, 999, 7, 21, 117, 94, 82, 194, 141, 189, 3, 1.09718
175, 1, bw, filler, NA, 999, 999, 7, 21, 117, 94, 82, 194, 141, 189, 1, 0.772238
175, 1, bw, catch, NA, 999, 999, 7, 22, 185, 130, 109, 86, 125, 130, 1, 2.51498
175, 1, bw, catch, NA, 999, 999, 7, 22, 185, 130, 109, 86, 125, 130, 2, 0.533376
175, 1, bw, attraction, a-b-db, 5, 1, 7, 23, 58, 132, 135, 60, 60, 135, 3, 1.81345
175, 1, bw, attraction, a-b-db, 5, 1, 7, 23, 58, 132, 135, 60, 60, 135, 2, 0.779569
175, 1, bw, attraction, a-b-da, 5, 3, 7, 24, 195, 120, 120, 195, 190, 117, 2, 1.10591
175, 1, bw, attraction, a-b-da, 5, 3, 7, 24, 195, 120, 120, 195, 190, 117, 1, 0.468246
175, 1, bw, attraction, a-b-db, 5, 2, 7, 25, 90, 165, 165, 90, 88, 161, 3, 0.687413
175, 1, bw, attraction, a-b-db, 5, 2, 7, 25, 90, 165, 165, 90, 88, 161, 2, 0.659045
175, 1, bw, attraction, a-b-db, 2, 2, 7, 26, 89, 163, 90, 165, 165, 90, 2, 0.790194
175, 1, bw, attraction, a-b-db, 2, 2, 7, 26, 89, 163, 90, 165, 165, 90, 3, 0.637294
175, 1, bw, attraction, a-b-db, 14, 3, 7, 27, 120, 195, 111, 181, 195, 120, 3, 0.769571
175, 1, bw, attraction, a-b-db, 14, 3, 7, 27, 120, 195, 111, 181, 195, 120, 2, 2.32201
175, 1, bw, filler, NA, 999, 999, 7, 28, 65, 138, 68, 187, 108, 94, 2, 0.834632
175, 1, bw, filler, NA, 999, 999, 7, 28, 65, 138, 68, 187, 108, 94, 1, 0.592357
175, 1, bw, attraction, a-b-db, 14, 1, 7, 29, 135, 60, 60, 135, 56, 125, 2, 1.36607
175, 1, bw, attraction, a-b-db, 14, 1, 7, 29, 135, 60, 60, 135, 56, 125, 3, 0.710206
175, 1, bw, attraction, a-b-db, 9, 2, 7, 30, 165, 90, 90, 165, 86, 157, 3, 0.575319
175, 1, bw, attraction, a-b-db, 9, 2, 7, 30, 165, 90, 90, 165, 86, 157, 2, 0.775123
175, 1, bw, filler, NA, 999, 999, 7, 31, 87, 59, 146, 101, 138, 99, 3, 0.501499
175, 1, bw, filler, NA, 999, 999, 7, 31, 87, 59, 146, 101, 138, 99, 1, 0.448667
175, 1, bw, attraction, a-b-da, 2, 2, 7, 32, 165, 90, 163, 89, 90, 165, 3, 1.39658
175, 1, bw, attraction, a-b-da, 2, 2, 7, 32, 165, 90, 163, 89, 90, 165, 1, 1.07546
175, 1, bw, attraction, a-b-da, 14, 1, 7, 33, 135, 60, 125, 56, 60, 135, 3, 0.837601
175, 1, bw, attraction, a-b-da, 14, 1, 7, 33, 135, 60, 125, 56, 60, 135, 2, 0.627414
175, 1, bw, filler, NA, 999, 999, 7, 34, 174, 186, 122, 178, 86, 79, 2, 1.00774
175, 1, bw, filler, NA, 999, 999, 7, 34, 174, 186, 122, 178, 86, 79, 3, 1.00602
175, 1, bw, catch, NA, 999, 999, 7, 35, 122, 133, 82, 113, 162, 153, 3, 0.65965
175, 1, bw, catch, NA, 999, 999, 7, 35, 122, 133, 82, 113, 162, 153, 2, 0.672052
175, 1, bw, filler, NA, 999, 999, 7, 36, 57, 144, 136, 192, 188, 57, 2, 1.24313
175, 1, bw, filler, NA, 999, 999, 7, 36, 57, 144, 136, 192, 188, 57, 1, 0.576014
175, 1, bw, filler, NA, 999, 999, 7, 37, 120, 144, 141, 158, 117, 89, 2, 1.14257
175, 1, bw, filler, NA, 999, 999, 7, 37, 120, 144, 141, 158, 117, 89, 3, 0.975435
175, 1, bw, filler, NA, 999, 999, 8, 1, 162, 112, 118, 111, 189, 135, 3, 1.16581
175, 1, bw, filler, NA, 999, 999, 8, 1, 162, 112, 118, 111, 189, 135, 2, 0.894104
175, 1, bw, attraction, a-b-da, 14, 1, 8, 2, 125, 56, 60, 135, 135, 60, 2, 0.81572
175, 1, bw, attraction, a-b-da, 14, 1, 8, 2, 125, 56, 60, 135, 135, 60, 1, 0.694067
175, 1, bw, filler, NA, 999, 999, 8, 3, 147, 100, 174, 131, 149, 72, 2, 0.66373
175, 1, bw, filler, NA, 999, 999, 8, 3, 147, 100, 174, 131, 149, 72, 3, 0.732378
175, 1, bw, filler, NA, 999, 999, 8, 4, 174, 77, 164, 112, 182, 165, 3, 0.676679
175, 1, bw, filler, NA, 999, 999, 8, 4, 174, 77, 164, 112, 182, 165, 1, 0.984539
175, 1, bw, attraction, a-b-db, 9, 2, 8, 5, 165, 90, 86, 157, 90, 165, 3, 1.67073
175, 1, bw, attraction, a-b-db, 9, 2, 8, 5, 165, 90, 86, 157, 90, 165, 1, 0.466756
175, 1, bw, filler, NA, 999, 999, 8, 6, 70, 193, 168, 80, 135, 144, 3, 0.461929
175, 1, bw, filler, NA, 999, 999, 8, 6, 70, 193, 168, 80, 135, 144, 2, 0.586403
175, 1, bw, attraction, a-b-db, 2, 1, 8, 7, 59, 134, 60, 135, 135, 60, 3, 0.632822
175, 1, bw, attraction, a-b-db, 2, 1, 8, 7, 59, 134, 60, 135, 135, 60, 2, 0.614616
175, 1, bw, catch, NA, 999, 999, 8, 8, 145, 170, 133, 62, 156, 99, 1, 1.01165
175, 1, bw, catch, NA, 999, 999, 8, 8, 145, 170, 133, 62, 156, 99, 2, 1.05002
175, 1, bw, attraction, a-b-da, 14, 2, 8, 9, 165, 90, 153, 83, 90, 165, 3, 0.821651
175, 1, bw, attraction, a-b-da, 14, 2, 8, 9, 165, 90, 153, 83, 90, 165, 1, 0.659332
175, 1, bw, attraction, a-b-da, 2, 2, 8, 10, 165, 90, 163, 89, 90, 165, 3, 0.462361
175, 1, bw, attraction, a-b-da, 2, 2, 8, 10, 165, 90, 163, 89, 90, 165, 2, 0.786933
175, 1, bw, filler, NA, 999, 999, 8, 11, 152, 191, 150, 175, 168, 170, 3, 0.617248
175, 1, bw, filler, NA, 999, 999, 8, 11, 152, 191, 150, 175, 168, 170, 2, 1.59178
175, 1, bw, attraction, a-b-db, 2, 2, 8, 12, 89, 163, 165, 90, 90, 165, 3, 0.605109
175, 1, bw, attraction, a-b-db, 2, 2, 8, 12, 89, 163, 165, 90, 90, 165, 2, 0.995545
175, 1, bw, attraction, a-b-da, 5, 1, 8, 13, 132, 58, 60, 135, 135, 60, 2, 1.57268
175, 1, bw, attraction, a-b-da, 5, 1, 8, 13, 132, 58, 60, 135, 135, 60, 1, 0.792737
175, 1, bw, filler, NA, 999, 999, 8, 14, 58, 189, 106, 62, 182, 58, 1, 0.950371
175, 1, bw, filler, NA, 999, 999, 8, 14, 58, 189, 106, 62, 182, 58, 2, 1.34348
175, 1, bw, filler, NA, 999, 999, 8, 15, 114, 66, 166, 116, 149, 173, 3, 0.918935
175, 1, bw, filler, NA, 999, 999, 8, 15, 114, 66, 166, 116, 149, 173, 1, 0.537376
175, 1, bw, attraction, a-b-da, 2, 1, 8, 16, 134, 59, 135, 60, 60, 135, 2, 1.63373
175, 1, bw, attraction, a-b-da, 2, 1, 8, 16, 134, 59, 135, 60, 60, 135, 3, 0.471249
175, 1, bw, attraction, a-b-da, 5, 2, 8, 17, 90, 165, 165, 90, 161, 88, 3, 0.626433
175, 1, bw, attraction, a-b-da, 5, 2, 8, 17, 90, 165, 165, 90, 161, 88, 1, 0.800088
175, 1, bw, attraction, a-b-da, 9, 3, 8, 18, 120, 195, 186, 114, 195, 120, 3, 0.661841
175, 1, bw, attraction, a-b-da, 9, 3, 8, 18, 120, 195, 186, 114, 195, 120, 2, 1.33019
175, 1, bw, filler, NA, 999, 999, 8, 19, 69, 113, 122, 165, 182, 76, 2, 1.49848
175, 1, bw, filler, NA, 999, 999, 8, 19, 69, 113, 122, 165, 182, 76, 1, 0.605283
175, 1, bw, attraction, a-b-da, 9, 2, 8, 20, 90, 165, 165, 90, 157, 86, 1, 1.60292
175, 1, bw, attraction, a-b-da, 9, 2, 8, 20, 90, 165, 165, 90, 157, 86, 3, 0.825855
175, 1, bw, attraction, a-b-db, 9, 1, 8, 21, 60, 135, 135, 60, 57, 129, 1, 1.4381
175, 1, bw, attraction, a-b-db, 9, 1, 8, 21, 60, 135, 135, 60, 57, 129, 2, 1.24296
175, 1, bw, filler, NA, 999, 999, 8, 22, 135, 167, 88, 69, 191, 64, 1, 1.0626
175, 1, bw, filler, NA, 999, 999, 8, 22, 135, 167, 88, 69, 191, 64, 2, 0.754825
175, 1, bw, attraction, a-b-da, 14, 3, 8, 23, 181, 111, 120, 195, 195, 120, 3, 0.978613
175, 1, bw, attraction, a-b-da, 14, 3, 8, 23, 181, 111, 120, 195, 195, 120, 1, 0.650174
175, 1, bw, attraction, a-b-db, 9, 3, 8, 24, 114, 186, 195, 120, 120, 195, 3, 0.910013
175, 1, bw, attraction, a-b-db, 9, 3, 8, 24, 114, 186, 195, 120, 120, 195, 2, 0.92051
175, 1, bw, attraction, a-b-db, 14, 2, 8, 25, 165, 90, 83, 153, 90, 165, 2, 2.72952
175, 1, bw, attraction, a-b-db, 14, 2, 8, 25, 165, 90, 83, 153, 90, 165, 1, 0.7065
175, 1, bw, attraction, a-b-da, 9, 1, 8, 26, 129, 57, 135, 60, 60, 135, 3, 0.996206
175, 1, bw, attraction, a-b-da, 9, 1, 8, 26, 129, 57, 135, 60, 60, 135, 2, 1.79521
175, 1, bw, catch, NA, 999, 999, 8, 27, 129, 186, 151, 104, 90, 105, 1, 0.7285
175, 1, bw, catch, NA, 999, 999, 8, 27, 129, 186, 151, 104, 90, 105, 3, 0.650417
175, 1, bw, attraction, a-b-db, 5, 2, 8, 28, 90, 165, 88, 161, 165, 90, 2, 1.38208
175, 1, bw, attraction, a-b-db, 5, 2, 8, 28, 90, 165, 88, 161, 165, 90, 1, 3.35766
175, 1, bw, attraction, a-b-da, 2, 3, 8, 29, 195, 120, 120, 195, 193, 119, 3, 0.907751
175, 1, bw, attraction, a-b-da, 2, 3, 8, 29, 195, 120, 120, 195, 193, 119, 2, 0.814166
175, 1, bw, attraction, a-b-db, 14, 3, 8, 30, 120, 195, 111, 181, 195, 120, 2, 0.843145
175, 1, bw, attraction, a-b-db, 14, 3, 8, 30, 120, 195, 111, 181, 195, 120, 1, 1.42421
175, 1, bw, attraction, a-b-db, 2, 3, 8, 31, 195, 120, 119, 193, 120, 195, 1, 0.828353
175, 1, bw, attraction, a-b-db, 2, 3, 8, 31, 195, 120, 119, 193, 120, 195, 2, 2.43412
175, 1, bw, attraction, a-b-db, 5, 3, 8, 32, 195, 120, 117, 190, 120, 195, 2, 0.853913
175, 1, bw, attraction, a-b-db, 5, 3, 8, 32, 195, 120, 117, 190, 120, 195, 1, 1.347
175, 1, bw, catch, NA, 999, 999, 8, 33, 123, 192, 101, 154, 113, 82, 1, 1.05851
175, 1, bw, catch, NA, 999, 999, 8, 33, 123, 192, 101, 154, 113, 82, 3, 0.502926
175, 1, bw, filler, NA, 999, 999, 8, 34, 183, 68, 191, 149, 158, 146, 3, 0.672623
175, 1, bw, filler, NA, 999, 999, 8, 34, 183, 68, 191, 149, 158, 146, 1, 1.46042
175, 1, bw, attraction, a-b-db, 5, 1, 8, 35, 60, 135, 58, 132, 135, 60, 2, 3.8952
175, 1, bw, attraction, a-b-db, 5, 1, 8, 35, 60, 135, 58, 132, 135, 60, 3, 0.961408
175, 1, bw, attraction, a-b-da, 5, 3, 8, 36, 120, 195, 195, 120, 190, 117, 1, 1.46421
175, 1, bw, attraction, a-b-da, 5, 3, 8, 36, 120, 195, 195, 120, 190, 117, 3, 1.20448
175, 1, bw, attraction, a-b-db, 14, 1, 8, 37, 60, 135, 56, 125, 135, 60, 3, 4.72198
175, 1, bw, attraction, a-b-db, 14, 1, 8, 37, 60, 135, 56, 125, 135, 60, 1, 1.06645
