sub_n, computer_n, bw_cond, effect, set, distance, diag, block_n, trial_n, h1, w1, h2, w2, h3, w3, choice, rt 
150, 1, wb, practice, NA, 999, 999, 0, 1, 132, 83, 95, 184, 83, 150, 1, 4.68789
150, 1, wb, practice, NA, 999, 999, 0, 1, 132, 83, 95, 184, 83, 150, 2, 2.1001
150, 1, wb, practice, NA, 999, 999, 0, 2, 62, 140, 114, 91, 159, 63, 1, 2.93577
150, 1, wb, practice, NA, 999, 999, 0, 2, 62, 140, 114, 91, 159, 63, 2, 2.8656
150, 1, wb, practice, NA, 999, 999, 0, 3, 157, 72, 98, 172, 145, 188, 1, 4.09763
150, 1, wb, practice, NA, 999, 999, 0, 3, 157, 72, 98, 172, 145, 188, 3, 1.52948
150, 1, wb, attraction, a-b-db, 9, 2, 1, 1, 86, 157, 165, 90, 90, 165, 1, 4.7584
150, 1, wb, attraction, a-b-db, 9, 2, 1, 1, 86, 157, 165, 90, 90, 165, 3, 2.41367
150, 1, wb, filler, NA, 999, 999, 1, 2, 104, 92, 148, 119, 101, 175, 1, 2.73824
150, 1, wb, filler, NA, 999, 999, 1, 2, 104, 92, 148, 119, 101, 175, 3, 1.71535
150, 1, wb, attraction, a-b-db, 5, 2, 1, 3, 165, 90, 90, 165, 88, 161, 3, 3.14793
150, 1, wb, attraction, a-b-db, 5, 2, 1, 3, 165, 90, 90, 165, 88, 161, 2, 2.34042
150, 1, wb, attraction, a-b-da, 2, 2, 1, 4, 90, 165, 163, 89, 165, 90, 2, 5.51622
150, 1, wb, attraction, a-b-da, 2, 2, 1, 4, 90, 165, 163, 89, 165, 90, 1, 1.60507
150, 1, wb, attraction, a-b-da, 5, 1, 1, 5, 132, 58, 60, 135, 135, 60, 1, 3.49055
150, 1, wb, attraction, a-b-da, 5, 1, 1, 5, 132, 58, 60, 135, 135, 60, 2, 1.74078
150, 1, wb, attraction, a-b-db, 9, 3, 1, 6, 114, 186, 195, 120, 120, 195, 1, 4.63623
150, 1, wb, attraction, a-b-db, 9, 3, 1, 6, 114, 186, 195, 120, 120, 195, 2, 0.664709
150, 1, wb, attraction, a-b-db, 14, 1, 1, 7, 56, 125, 60, 135, 135, 60, 1, 1.37973
150, 1, wb, attraction, a-b-db, 14, 1, 1, 7, 56, 125, 60, 135, 135, 60, 2, 1.08333
150, 1, wb, catch, NA, 999, 999, 1, 8, 103, 92, 128, 187, 90, 165, 1, 1.62164
150, 1, wb, catch, NA, 999, 999, 1, 8, 103, 92, 128, 187, 90, 165, 2, 0.859007
150, 1, wb, filler, NA, 999, 999, 1, 9, 118, 108, 79, 171, 90, 56, 3, 1.01403
150, 1, wb, filler, NA, 999, 999, 1, 9, 118, 108, 79, 171, 90, 56, 2, 1.81236
150, 1, wb, catch, NA, 999, 999, 1, 10, 147, 108, 73, 122, 129, 186, 2, 2.32105
150, 1, wb, catch, NA, 999, 999, 1, 10, 147, 108, 73, 122, 129, 186, 3, 0.858968
150, 1, wb, attraction, a-b-da, 9, 2, 1, 11, 165, 90, 157, 86, 90, 165, 2, 2.66197
150, 1, wb, attraction, a-b-da, 9, 2, 1, 11, 165, 90, 157, 86, 90, 165, 3, 1.00978
150, 1, wb, filler, NA, 999, 999, 1, 12, 92, 173, 122, 101, 191, 189, 2, 1.10283
150, 1, wb, filler, NA, 999, 999, 1, 12, 92, 173, 122, 101, 191, 189, 3, 1.61779
150, 1, wb, attraction, a-b-db, 5, 1, 1, 13, 60, 135, 135, 60, 58, 132, 3, 1.95852
150, 1, wb, attraction, a-b-db, 5, 1, 1, 13, 60, 135, 135, 60, 58, 132, 1, 1.84657
150, 1, wb, attraction, a-b-db, 2, 3, 1, 14, 195, 120, 120, 195, 119, 193, 1, 3.34603
150, 1, wb, attraction, a-b-db, 2, 3, 1, 14, 195, 120, 120, 195, 119, 193, 2, 0.626108
150, 1, wb, filler, NA, 999, 999, 1, 15, 177, 169, 59, 122, 132, 71, 2, 1.42264
150, 1, wb, filler, NA, 999, 999, 1, 15, 177, 169, 59, 122, 132, 71, 1, 0.868086
150, 1, wb, attraction, a-b-db, 2, 1, 1, 16, 59, 134, 135, 60, 60, 135, 1, 1.59104
150, 1, wb, attraction, a-b-db, 2, 1, 1, 16, 59, 134, 135, 60, 60, 135, 3, 1.32589
150, 1, wb, attraction, a-b-da, 9, 3, 1, 17, 120, 195, 186, 114, 195, 120, 2, 2.04622
150, 1, wb, attraction, a-b-da, 9, 3, 1, 17, 120, 195, 186, 114, 195, 120, 1, 0.754803
150, 1, wb, attraction, a-b-da, 2, 3, 1, 18, 120, 195, 195, 120, 193, 119, 1, 1.94638
150, 1, wb, attraction, a-b-da, 2, 3, 1, 18, 120, 195, 195, 120, 193, 119, 2, 0.787157
150, 1, wb, attraction, a-b-da, 14, 1, 1, 19, 135, 60, 60, 135, 125, 56, 2, 0.865473
150, 1, wb, attraction, a-b-da, 14, 1, 1, 19, 135, 60, 60, 135, 125, 56, 1, 1.06984
150, 1, wb, attraction, a-b-db, 14, 3, 1, 20, 111, 181, 195, 120, 120, 195, 2, 1.24092
150, 1, wb, attraction, a-b-db, 14, 3, 1, 20, 111, 181, 195, 120, 120, 195, 1, 0.349662
150, 1, wb, attraction, a-b-da, 14, 3, 1, 21, 181, 111, 195, 120, 120, 195, 1, 2.3656
150, 1, wb, attraction, a-b-da, 14, 3, 1, 21, 181, 111, 195, 120, 120, 195, 2, 0.789507
150, 1, wb, attraction, a-b-da, 5, 2, 1, 22, 161, 88, 165, 90, 90, 165, 1, 2.00387
150, 1, wb, attraction, a-b-da, 5, 2, 1, 22, 161, 88, 165, 90, 90, 165, 2, 1.16256
150, 1, wb, attraction, a-b-da, 2, 1, 1, 23, 60, 135, 135, 60, 134, 59, 1, 0.7135
150, 1, wb, attraction, a-b-da, 2, 1, 1, 23, 60, 135, 135, 60, 134, 59, 2, 1.35586
150, 1, wb, filler, NA, 999, 999, 1, 24, 117, 175, 139, 66, 90, 186, 2, 1.64345
150, 1, wb, filler, NA, 999, 999, 1, 24, 117, 175, 139, 66, 90, 186, 1, 0.848098
150, 1, wb, attraction, a-b-db, 14, 2, 1, 25, 83, 153, 90, 165, 165, 90, 1, 0.899785
150, 1, wb, attraction, a-b-db, 14, 2, 1, 25, 83, 153, 90, 165, 165, 90, 2, 0.639004
150, 1, wb, filler, NA, 999, 999, 1, 26, 95, 104, 163, 66, 97, 169, 1, 0.53926
150, 1, wb, filler, NA, 999, 999, 1, 26, 95, 104, 163, 66, 97, 169, 2, 1.78837
150, 1, wb, filler, NA, 999, 999, 1, 27, 171, 184, 184, 121, 169, 63, 3, 1.45042
150, 1, wb, filler, NA, 999, 999, 1, 27, 171, 184, 184, 121, 169, 63, 1, 0.567404
150, 1, wb, filler, NA, 999, 999, 1, 28, 145, 143, 173, 72, 88, 110, 3, 2.52651
150, 1, wb, filler, NA, 999, 999, 1, 28, 145, 143, 173, 72, 88, 110, 2, 0.663703
150, 1, wb, attraction, a-b-da, 9, 1, 1, 29, 129, 57, 135, 60, 60, 135, 1, 0.682665
150, 1, wb, attraction, a-b-da, 9, 1, 1, 29, 129, 57, 135, 60, 60, 135, 3, 0.862534
150, 1, wb, filler, NA, 999, 999, 1, 30, 122, 96, 73, 162, 156, 64, 2, 2.36939
150, 1, wb, filler, NA, 999, 999, 1, 30, 122, 96, 73, 162, 156, 64, 1, 0.361315
150, 1, wb, attraction, a-b-db, 9, 1, 1, 31, 135, 60, 60, 135, 57, 129, 2, 0.752407
150, 1, wb, attraction, a-b-db, 9, 1, 1, 31, 135, 60, 60, 135, 57, 129, 1, 0.505664
150, 1, wb, catch, NA, 999, 999, 1, 32, 154, 101, 126, 69, 170, 145, 2, 0.651269
150, 1, wb, catch, NA, 999, 999, 1, 32, 154, 101, 126, 69, 170, 145, 1, 0.424452
150, 1, wb, filler, NA, 999, 999, 1, 33, 159, 129, 95, 106, 137, 94, 2, 0.701025
150, 1, wb, filler, NA, 999, 999, 1, 33, 159, 129, 95, 106, 137, 94, 1, 0.408031
150, 1, wb, attraction, a-b-da, 5, 3, 1, 34, 195, 120, 190, 117, 120, 195, 1, 1.58105
150, 1, wb, attraction, a-b-da, 5, 3, 1, 34, 195, 120, 190, 117, 120, 195, 3, 0.676741
150, 1, wb, attraction, a-b-da, 14, 2, 1, 35, 165, 90, 153, 83, 90, 165, 2, 0.966937
150, 1, wb, attraction, a-b-da, 14, 2, 1, 35, 165, 90, 153, 83, 90, 165, 1, 0.335415
150, 1, wb, attraction, a-b-db, 5, 3, 1, 36, 117, 190, 120, 195, 195, 120, 1, 0.703822
150, 1, wb, attraction, a-b-db, 5, 3, 1, 36, 117, 190, 120, 195, 195, 120, 2, 0.346883
150, 1, wb, attraction, a-b-db, 2, 2, 1, 37, 90, 165, 89, 163, 165, 90, 1, 0.594751
150, 1, wb, attraction, a-b-db, 2, 2, 1, 37, 90, 165, 89, 163, 165, 90, 2, 0.473944
150, 1, wb, attraction, a-b-da, 14, 2, 2, 1, 90, 165, 153, 83, 165, 90, 1, 0.436332
150, 1, wb, attraction, a-b-da, 14, 2, 2, 1, 90, 165, 153, 83, 165, 90, 2, 0.33023
150, 1, wb, catch, NA, 999, 999, 2, 2, 118, 137, 107, 88, 190, 125, 1, 0.490742
150, 1, wb, catch, NA, 999, 999, 2, 2, 118, 137, 107, 88, 190, 125, 2, 1.47776
150, 1, wb, attraction, a-b-da, 2, 3, 2, 3, 193, 119, 195, 120, 120, 195, 1, 1.368
150, 1, wb, attraction, a-b-da, 2, 3, 2, 3, 193, 119, 195, 120, 120, 195, 2, 0.264274
150, 1, wb, filler, NA, 999, 999, 2, 4, 107, 178, 146, 116, 154, 70, 3, 0.699327
150, 1, wb, filler, NA, 999, 999, 2, 4, 107, 178, 146, 116, 154, 70, 2, 0.310452
150, 1, wb, attraction, a-b-da, 9, 2, 2, 5, 157, 86, 90, 165, 165, 90, 1, 0.647749
150, 1, wb, attraction, a-b-da, 9, 2, 2, 5, 157, 86, 90, 165, 165, 90, 2, 0.508892
150, 1, wb, attraction, a-b-db, 9, 2, 2, 6, 90, 165, 165, 90, 86, 157, 1, 1.05408
150, 1, wb, attraction, a-b-db, 9, 2, 2, 6, 90, 165, 165, 90, 86, 157, 2, 0.290829
150, 1, wb, filler, NA, 999, 999, 2, 7, 113, 150, 187, 68, 76, 94, 3, 0.988669
150, 1, wb, filler, NA, 999, 999, 2, 7, 113, 150, 187, 68, 76, 94, 1, 0.755662
150, 1, wb, filler, NA, 999, 999, 2, 8, 135, 105, 182, 61, 63, 152, 3, 1.33134
150, 1, wb, filler, NA, 999, 999, 2, 8, 135, 105, 182, 61, 63, 152, 1, 0.492932
150, 1, wb, attraction, a-b-db, 14, 3, 2, 9, 120, 195, 111, 181, 195, 120, 2, 1.3428
150, 1, wb, attraction, a-b-db, 14, 3, 2, 9, 120, 195, 111, 181, 195, 120, 1, 0.495666
150, 1, wb, filler, NA, 999, 999, 2, 10, 151, 97, 90, 158, 69, 97, 3, 0.857513
150, 1, wb, filler, NA, 999, 999, 2, 10, 151, 97, 90, 158, 69, 97, 1, 0.565852
150, 1, wb, filler, NA, 999, 999, 2, 11, 195, 192, 114, 195, 194, 58, 3, 1.23698
150, 1, wb, filler, NA, 999, 999, 2, 11, 195, 192, 114, 195, 194, 58, 1, 0.386587
150, 1, wb, filler, NA, 999, 999, 2, 12, 181, 60, 58, 159, 150, 86, 1, 1.24097
150, 1, wb, filler, NA, 999, 999, 2, 12, 181, 60, 58, 159, 150, 86, 2, 1.01397
150, 1, wb, attraction, a-b-da, 2, 1, 2, 13, 134, 59, 135, 60, 60, 135, 1, 0.626916
150, 1, wb, attraction, a-b-da, 2, 1, 2, 13, 134, 59, 135, 60, 60, 135, 2, 0.320693
150, 1, wb, attraction, a-b-da, 5, 3, 2, 14, 190, 117, 120, 195, 195, 120, 1, 0.425772
150, 1, wb, attraction, a-b-da, 5, 3, 2, 14, 190, 117, 120, 195, 195, 120, 2, 0.367762
150, 1, wb, attraction, a-b-da, 2, 2, 2, 15, 90, 165, 163, 89, 165, 90, 2, 1.06292
150, 1, wb, attraction, a-b-da, 2, 2, 2, 15, 90, 165, 163, 89, 165, 90, 1, 0.555239
150, 1, wb, attraction, a-b-db, 14, 2, 2, 16, 90, 165, 165, 90, 83, 153, 3, 1.24294
150, 1, wb, attraction, a-b-db, 14, 2, 2, 16, 90, 165, 165, 90, 83, 153, 1, 0.407784
150, 1, wb, attraction, a-b-db, 2, 1, 2, 17, 59, 134, 60, 135, 135, 60, 2, 0.973057
150, 1, wb, attraction, a-b-db, 2, 1, 2, 17, 59, 134, 60, 135, 135, 60, 1, 0.660638
150, 1, wb, filler, NA, 999, 999, 2, 18, 179, 136, 56, 186, 141, 139, 2, 0.495707
150, 1, wb, filler, NA, 999, 999, 2, 18, 179, 136, 56, 186, 141, 139, 1, 0.634813
150, 1, wb, filler, NA, 999, 999, 2, 19, 159, 152, 65, 192, 59, 82, 3, 0.615233
150, 1, wb, filler, NA, 999, 999, 2, 19, 159, 152, 65, 192, 59, 82, 1, 0.43771
150, 1, wb, attraction, a-b-db, 5, 1, 2, 20, 60, 135, 58, 132, 135, 60, 1, 1.44222
150, 1, wb, attraction, a-b-db, 5, 1, 2, 20, 60, 135, 58, 132, 135, 60, 3, 0.543156
150, 1, wb, catch, NA, 999, 999, 2, 21, 142, 113, 117, 78, 159, 156, 2, 0.918876
150, 1, wb, catch, NA, 999, 999, 2, 21, 142, 113, 117, 78, 159, 156, 3, 0.361164
150, 1, wb, attraction, a-b-da, 5, 2, 2, 22, 161, 88, 90, 165, 165, 90, 1, 1.19246
150, 1, wb, attraction, a-b-da, 5, 2, 2, 22, 161, 88, 90, 165, 165, 90, 2, 0.319245
150, 1, wb, catch, NA, 999, 999, 2, 23, 86, 109, 192, 123, 101, 154, 1, 1.21644
150, 1, wb, catch, NA, 999, 999, 2, 23, 86, 109, 192, 123, 101, 154, 2, 0.25477
150, 1, wb, attraction, a-b-da, 9, 1, 2, 24, 60, 135, 129, 57, 135, 60, 1, 0.554579
150, 1, wb, attraction, a-b-da, 9, 1, 2, 24, 60, 135, 129, 57, 135, 60, 3, 0.803744
150, 1, wb, attraction, a-b-da, 9, 3, 2, 25, 186, 114, 120, 195, 195, 120, 1, 0.441296
150, 1, wb, attraction, a-b-da, 9, 3, 2, 25, 186, 114, 120, 195, 195, 120, 2, 0.302449
150, 1, wb, filler, NA, 999, 999, 2, 26, 58, 150, 96, 195, 131, 159, 1, 0.576594
150, 1, wb, filler, NA, 999, 999, 2, 26, 58, 150, 96, 195, 131, 159, 2, 0.376276
150, 1, wb, attraction, a-b-db, 5, 2, 2, 27, 88, 161, 165, 90, 90, 165, 1, 0.366769
150, 1, wb, attraction, a-b-db, 5, 2, 2, 27, 88, 161, 165, 90, 90, 165, 2, 0.36715
150, 1, wb, attraction, a-b-da, 14, 3, 2, 28, 181, 111, 195, 120, 120, 195, 1, 0.542369
150, 1, wb, attraction, a-b-da, 14, 3, 2, 28, 181, 111, 195, 120, 120, 195, 2, 0.303482
150, 1, wb, attraction, a-b-db, 5, 3, 2, 29, 117, 190, 195, 120, 120, 195, 1, 0.369375
150, 1, wb, attraction, a-b-db, 5, 3, 2, 29, 117, 190, 195, 120, 120, 195, 2, 0.313974
150, 1, wb, attraction, a-b-da, 5, 1, 2, 30, 135, 60, 132, 58, 60, 135, 1, 0.611017
150, 1, wb, attraction, a-b-da, 5, 1, 2, 30, 135, 60, 132, 58, 60, 135, 2, 0.473594
150, 1, wb, attraction, a-b-db, 14, 1, 2, 31, 60, 135, 135, 60, 56, 125, 1, 0.291885
150, 1, wb, attraction, a-b-db, 14, 1, 2, 31, 60, 135, 135, 60, 56, 125, 2, 0.359204
150, 1, wb, attraction, a-b-db, 9, 3, 2, 32, 195, 120, 120, 195, 114, 186, 1, 0.4143
150, 1, wb, attraction, a-b-db, 9, 3, 2, 32, 195, 120, 120, 195, 114, 186, 2, 0.308849
150, 1, wb, attraction, a-b-db, 9, 1, 2, 33, 57, 129, 135, 60, 60, 135, 1, 0.430036
150, 1, wb, attraction, a-b-db, 9, 1, 2, 33, 57, 129, 135, 60, 60, 135, 2, 0.33987
150, 1, wb, attraction, a-b-db, 2, 2, 2, 34, 165, 90, 89, 163, 90, 165, 2, 0.980382
150, 1, wb, attraction, a-b-db, 2, 2, 2, 34, 165, 90, 89, 163, 90, 165, 1, 0.340002
150, 1, wb, attraction, a-b-db, 2, 3, 2, 35, 119, 193, 120, 195, 195, 120, 1, 1.1799
150, 1, wb, attraction, a-b-db, 2, 3, 2, 35, 119, 193, 120, 195, 195, 120, 2, 0.547503
150, 1, wb, attraction, a-b-da, 14, 1, 2, 36, 135, 60, 125, 56, 60, 135, 1, 3.18722
150, 1, wb, attraction, a-b-da, 14, 1, 2, 36, 135, 60, 125, 56, 60, 135, 2, 0.482182
150, 1, wb, filler, NA, 999, 999, 2, 37, 161, 98, 171, 115, 157, 63, 3, 3.7087
150, 1, wb, filler, NA, 999, 999, 2, 37, 161, 98, 171, 115, 157, 63, 2, 0.470309
150, 1, wb, attraction, a-b-db, 9, 3, 3, 1, 114, 186, 120, 195, 195, 120, 1, 1.48133
150, 1, wb, attraction, a-b-db, 9, 3, 3, 1, 114, 186, 120, 195, 195, 120, 2, 0.604764
150, 1, wb, filler, NA, 999, 999, 3, 2, 84, 104, 81, 144, 113, 152, 1, 0.922472
150, 1, wb, filler, NA, 999, 999, 3, 2, 84, 104, 81, 144, 113, 152, 2, 0.652271
150, 1, wb, attraction, a-b-da, 5, 1, 3, 3, 132, 58, 60, 135, 135, 60, 1, 0.639949
150, 1, wb, attraction, a-b-da, 5, 1, 3, 3, 132, 58, 60, 135, 135, 60, 2, 0.949058
150, 1, wb, filler, NA, 999, 999, 3, 4, 100, 85, 116, 66, 68, 103, 1, 4.48473
150, 1, wb, filler, NA, 999, 999, 3, 4, 100, 85, 116, 66, 68, 103, 2, 0.33541
150, 1, wb, catch, NA, 999, 999, 3, 5, 87, 108, 125, 130, 189, 126, 1, 0.535739
150, 1, wb, catch, NA, 999, 999, 3, 5, 87, 108, 125, 130, 189, 126, 2, 0.361562
150, 1, wb, attraction, a-b-da, 9, 1, 3, 6, 60, 135, 135, 60, 129, 57, 1, 0.680696
150, 1, wb, attraction, a-b-da, 9, 1, 3, 6, 60, 135, 135, 60, 129, 57, 2, 0.396614
150, 1, wb, filler, NA, 999, 999, 3, 7, 99, 80, 124, 74, 178, 148, 1, 0.410351
150, 1, wb, filler, NA, 999, 999, 3, 7, 99, 80, 124, 74, 178, 148, 2, 0.776818
150, 1, wb, attraction, a-b-db, 2, 3, 3, 8, 119, 193, 195, 120, 120, 195, 1, 0.359272
150, 1, wb, attraction, a-b-db, 2, 3, 3, 8, 119, 193, 195, 120, 120, 195, 2, 0.343665
150, 1, wb, attraction, a-b-da, 14, 2, 3, 9, 90, 165, 153, 83, 165, 90, 1, 0.45551
150, 1, wb, attraction, a-b-da, 14, 2, 3, 9, 90, 165, 153, 83, 165, 90, 2, 0.324023
150, 1, wb, attraction, a-b-db, 5, 3, 3, 10, 117, 190, 195, 120, 120, 195, 1, 1.6927
150, 1, wb, attraction, a-b-db, 5, 3, 3, 10, 117, 190, 195, 120, 120, 195, 3, 0.359311
150, 1, wb, filler, NA, 999, 999, 3, 11, 123, 63, 189, 113, 191, 147, 1, 0.790716
150, 1, wb, filler, NA, 999, 999, 3, 11, 123, 63, 189, 113, 191, 147, 2, 1.66164
150, 1, wb, attraction, a-b-db, 2, 1, 3, 12, 135, 60, 59, 134, 60, 135, 1, 0.832326
150, 1, wb, attraction, a-b-db, 2, 1, 3, 12, 135, 60, 59, 134, 60, 135, 2, 0.782045
150, 1, wb, attraction, a-b-db, 5, 2, 3, 13, 90, 165, 165, 90, 88, 161, 1, 0.572407
150, 1, wb, attraction, a-b-db, 5, 2, 3, 13, 90, 165, 165, 90, 88, 161, 2, 0.420175
150, 1, wb, attraction, a-b-da, 14, 3, 3, 14, 195, 120, 181, 111, 120, 195, 1, 0.37736
150, 1, wb, attraction, a-b-da, 14, 3, 3, 14, 195, 120, 181, 111, 120, 195, 2, 0.393179
150, 1, wb, attraction, a-b-da, 2, 3, 3, 15, 120, 195, 193, 119, 195, 120, 1, 0.431156
150, 1, wb, attraction, a-b-da, 2, 3, 3, 15, 120, 195, 193, 119, 195, 120, 2, 0.684937
150, 1, wb, filler, NA, 999, 999, 3, 16, 147, 141, 107, 65, 122, 124, 2, 0.980906
150, 1, wb, filler, NA, 999, 999, 3, 16, 147, 141, 107, 65, 122, 124, 1, 0.36696
150, 1, wb, filler, NA, 999, 999, 3, 17, 125, 59, 171, 124, 120, 66, 1, 0.622088
150, 1, wb, filler, NA, 999, 999, 3, 17, 125, 59, 171, 124, 120, 66, 2, 0.291975
150, 1, wb, attraction, a-b-da, 5, 3, 3, 18, 120, 195, 195, 120, 190, 117, 2, 0.901725
150, 1, wb, attraction, a-b-da, 5, 3, 3, 18, 120, 195, 195, 120, 190, 117, 1, 0.280703
150, 1, wb, attraction, a-b-db, 5, 1, 3, 19, 58, 132, 60, 135, 135, 60, 1, 0.571344
150, 1, wb, attraction, a-b-db, 5, 1, 3, 19, 58, 132, 60, 135, 135, 60, 2, 0.611737
150, 1, wb, attraction, a-b-db, 9, 1, 3, 20, 60, 135, 57, 129, 135, 60, 1, 0.4251
150, 1, wb, attraction, a-b-db, 9, 1, 3, 20, 60, 135, 57, 129, 135, 60, 2, 0.430616
150, 1, wb, filler, NA, 999, 999, 3, 21, 113, 112, 154, 68, 148, 191, 1, 0.347105
150, 1, wb, filler, NA, 999, 999, 3, 21, 113, 112, 154, 68, 148, 191, 2, 0.412253
150, 1, wb, filler, NA, 999, 999, 3, 22, 69, 144, 119, 178, 192, 75, 1, 0.569443
150, 1, wb, filler, NA, 999, 999, 3, 22, 69, 144, 119, 178, 192, 75, 2, 0.298157
150, 1, wb, catch, NA, 999, 999, 3, 23, 98, 97, 161, 94, 148, 167, 1, 0.875732
150, 1, wb, catch, NA, 999, 999, 3, 23, 98, 97, 161, 94, 148, 167, 2, 0.295457
150, 1, wb, filler, NA, 999, 999, 3, 24, 125, 144, 104, 154, 155, 82, 3, 1.0813
150, 1, wb, filler, NA, 999, 999, 3, 24, 125, 144, 104, 154, 155, 82, 1, 0.332919
150, 1, wb, attraction, a-b-da, 5, 2, 3, 25, 161, 88, 165, 90, 90, 165, 2, 0.797541
150, 1, wb, attraction, a-b-da, 5, 2, 3, 25, 161, 88, 165, 90, 90, 165, 1, 0.300517
150, 1, wb, catch, NA, 999, 999, 3, 26, 161, 154, 120, 135, 69, 126, 3, 0.710391
150, 1, wb, catch, NA, 999, 999, 3, 26, 161, 154, 120, 135, 69, 126, 1, 0.576824
150, 1, wb, attraction, a-b-db, 14, 2, 3, 27, 165, 90, 83, 153, 90, 165, 1, 2.04738
150, 1, wb, attraction, a-b-db, 14, 2, 3, 27, 165, 90, 83, 153, 90, 165, 3, 1.50786
150, 1, wb, attraction, a-b-db, 14, 3, 3, 28, 195, 120, 111, 181, 120, 195, 2, 3.16464
150, 1, wb, attraction, a-b-db, 14, 3, 3, 28, 195, 120, 111, 181, 120, 195, 3, 0.292287
150, 1, wb, attraction, a-b-da, 9, 2, 3, 29, 90, 165, 157, 86, 165, 90, 1, 0.326143
150, 1, wb, attraction, a-b-da, 9, 2, 3, 29, 90, 165, 157, 86, 165, 90, 2, 0.304011
150, 1, wb, attraction, a-b-da, 9, 3, 3, 30, 195, 120, 120, 195, 186, 114, 1, 0.377864
150, 1, wb, attraction, a-b-da, 9, 3, 3, 30, 195, 120, 120, 195, 186, 114, 2, 0.297813
150, 1, wb, attraction, a-b-db, 2, 2, 3, 31, 165, 90, 90, 165, 89, 163, 1, 0.363604
150, 1, wb, attraction, a-b-db, 2, 2, 3, 31, 165, 90, 90, 165, 89, 163, 2, 0.260279
150, 1, wb, attraction, a-b-db, 9, 2, 3, 32, 165, 90, 90, 165, 86, 157, 1, 0.335392
150, 1, wb, attraction, a-b-db, 9, 2, 3, 32, 165, 90, 90, 165, 86, 157, 2, 0.34515
150, 1, wb, filler, NA, 999, 999, 3, 33, 161, 98, 121, 107, 93, 174, 2, 0.608992
150, 1, wb, filler, NA, 999, 999, 3, 33, 161, 98, 121, 107, 93, 174, 1, 0.951635
150, 1, wb, attraction, a-b-da, 2, 1, 3, 34, 134, 59, 135, 60, 60, 135, 1, 2.97513
150, 1, wb, attraction, a-b-da, 2, 1, 3, 34, 134, 59, 135, 60, 60, 135, 3, 0.526142
150, 1, wb, attraction, a-b-da, 2, 2, 3, 35, 90, 165, 165, 90, 163, 89, 3, 0.710514
150, 1, wb, attraction, a-b-da, 2, 2, 3, 35, 90, 165, 165, 90, 163, 89, 2, 0.289002
150, 1, wb, attraction, a-b-db, 14, 1, 3, 36, 135, 60, 56, 125, 60, 135, 1, 0.603595
150, 1, wb, attraction, a-b-db, 14, 1, 3, 36, 135, 60, 56, 125, 60, 135, 2, 0.594663
150, 1, wb, attraction, a-b-da, 14, 1, 3, 37, 125, 56, 60, 135, 135, 60, 1, 0.976404
150, 1, wb, attraction, a-b-da, 14, 1, 3, 37, 125, 56, 60, 135, 135, 60, 3, 0.688089
150, 1, wb, attraction, a-b-da, 9, 1, 4, 1, 60, 135, 135, 60, 129, 57, 1, 0.546533
150, 1, wb, attraction, a-b-da, 9, 1, 4, 1, 60, 135, 135, 60, 129, 57, 2, 0.363602
150, 1, wb, attraction, a-b-da, 5, 3, 4, 2, 120, 195, 190, 117, 195, 120, 2, 2.5788
150, 1, wb, attraction, a-b-da, 5, 3, 4, 2, 120, 195, 190, 117, 195, 120, 1, 0.826124
150, 1, wb, filler, NA, 999, 999, 4, 3, 195, 134, 138, 154, 172, 87, 2, 1.8143
150, 1, wb, filler, NA, 999, 999, 4, 3, 195, 134, 138, 154, 172, 87, 1, 0.564319
150, 1, wb, attraction, a-b-db, 5, 2, 4, 4, 165, 90, 90, 165, 88, 161, 2, 0.427455
150, 1, wb, attraction, a-b-db, 5, 2, 4, 4, 165, 90, 90, 165, 88, 161, 1, 0.361286
150, 1, wb, attraction, a-b-da, 5, 2, 4, 5, 90, 165, 161, 88, 165, 90, 2, 0.696452
150, 1, wb, attraction, a-b-da, 5, 2, 4, 5, 90, 165, 161, 88, 165, 90, 1, 0.259525
150, 1, wb, filler, NA, 999, 999, 4, 6, 127, 121, 184, 127, 60, 174, 2, 0.614693
150, 1, wb, filler, NA, 999, 999, 4, 6, 127, 121, 184, 127, 60, 174, 1, 0.541268
150, 1, wb, attraction, a-b-da, 2, 1, 4, 7, 135, 60, 134, 59, 60, 135, 3, 0.380913
150, 1, wb, attraction, a-b-da, 2, 1, 4, 7, 135, 60, 134, 59, 60, 135, 2, 0.548773
150, 1, wb, attraction, a-b-db, 5, 1, 4, 8, 60, 135, 58, 132, 135, 60, 1, 0.380599
150, 1, wb, attraction, a-b-db, 5, 1, 4, 8, 60, 135, 58, 132, 135, 60, 2, 0.308685
150, 1, wb, catch, NA, 999, 999, 4, 9, 195, 120, 131, 124, 91, 104, 3, 0.429662
150, 1, wb, catch, NA, 999, 999, 4, 9, 195, 120, 131, 124, 91, 104, 2, 0.627369
150, 1, wb, attraction, a-b-da, 2, 3, 4, 10, 193, 119, 195, 120, 120, 195, 1, 0.392955
150, 1, wb, attraction, a-b-da, 2, 3, 4, 10, 193, 119, 195, 120, 120, 195, 2, 0.255036
150, 1, wb, filler, NA, 999, 999, 4, 11, 168, 57, 85, 168, 92, 149, 3, 0.338905
150, 1, wb, filler, NA, 999, 999, 4, 11, 168, 57, 85, 168, 92, 149, 2, 0.292092
150, 1, wb, filler, NA, 999, 999, 4, 12, 157, 117, 156, 182, 169, 89, 1, 0.36587
150, 1, wb, filler, NA, 999, 999, 4, 12, 157, 117, 156, 182, 169, 89, 2, 0.934536
150, 1, wb, attraction, a-b-db, 2, 3, 4, 13, 119, 193, 120, 195, 195, 120, 1, 0.846796
150, 1, wb, attraction, a-b-db, 2, 3, 4, 13, 119, 193, 120, 195, 195, 120, 2, 1.22784
150, 1, wb, catch, NA, 999, 999, 4, 14, 132, 63, 181, 134, 156, 99, 1, 0.680136
150, 1, wb, catch, NA, 999, 999, 4, 14, 132, 63, 181, 134, 156, 99, 2, 0.507875
150, 1, wb, attraction, a-b-db, 14, 1, 4, 15, 135, 60, 60, 135, 56, 125, 1, 1.69295
150, 1, wb, attraction, a-b-db, 14, 1, 4, 15, 135, 60, 60, 135, 56, 125, 3, 1.70372
150, 1, wb, attraction, a-b-db, 2, 1, 4, 16, 59, 134, 60, 135, 135, 60, 1, 2.05707
150, 1, wb, attraction, a-b-db, 2, 1, 4, 16, 59, 134, 60, 135, 135, 60, 3, 0.693175
150, 1, wb, filler, NA, 999, 999, 4, 17, 94, 133, 94, 113, 89, 165, 1, 0.526845
150, 1, wb, filler, NA, 999, 999, 4, 17, 94, 133, 94, 113, 89, 165, 2, 0.424653
150, 1, wb, attraction, a-b-db, 9, 2, 4, 18, 165, 90, 90, 165, 86, 157, 1, 1.08507
150, 1, wb, attraction, a-b-db, 9, 2, 4, 18, 165, 90, 90, 165, 86, 157, 2, 0.824812
150, 1, wb, attraction, a-b-db, 2, 2, 4, 19, 165, 90, 89, 163, 90, 165, 1, 5.5013
150, 1, wb, attraction, a-b-db, 2, 2, 4, 19, 165, 90, 89, 163, 90, 165, 2, 0.406669
150, 1, wb, filler, NA, 999, 999, 4, 20, 96, 116, 185, 128, 136, 68, 1, 2.62843
150, 1, wb, filler, NA, 999, 999, 4, 20, 96, 116, 185, 128, 136, 68, 2, 0.753684
150, 1, wb, attraction, a-b-da, 9, 2, 4, 21, 157, 86, 165, 90, 90, 165, 1, 0.369337
150, 1, wb, attraction, a-b-da, 9, 2, 4, 21, 157, 86, 165, 90, 90, 165, 2, 0.361871
150, 1, wb, attraction, a-b-db, 5, 3, 4, 22, 120, 195, 195, 120, 117, 190, 1, 0.353127
150, 1, wb, attraction, a-b-db, 5, 3, 4, 22, 120, 195, 195, 120, 117, 190, 2, 0.386232
150, 1, wb, attraction, a-b-db, 9, 1, 4, 23, 135, 60, 57, 129, 60, 135, 1, 0.512714
150, 1, wb, attraction, a-b-db, 9, 1, 4, 23, 135, 60, 57, 129, 60, 135, 2, 0.307229
150, 1, wb, attraction, a-b-da, 2, 2, 4, 24, 163, 89, 90, 165, 165, 90, 1, 0.346045
150, 1, wb, attraction, a-b-da, 2, 2, 4, 24, 163, 89, 90, 165, 165, 90, 2, 0.405567
150, 1, wb, filler, NA, 999, 999, 4, 25, 93, 153, 90, 134, 133, 107, 1, 0.307354
150, 1, wb, filler, NA, 999, 999, 4, 25, 93, 153, 90, 134, 133, 107, 2, 0.277996
150, 1, wb, attraction, a-b-da, 14, 3, 4, 26, 120, 195, 181, 111, 195, 120, 2, 1.76842
150, 1, wb, attraction, a-b-da, 14, 3, 4, 26, 120, 195, 181, 111, 195, 120, 1, 0.33664
150, 1, wb, attraction, a-b-da, 5, 1, 4, 27, 135, 60, 132, 58, 60, 135, 1, 0.697045
150, 1, wb, attraction, a-b-da, 5, 1, 4, 27, 135, 60, 132, 58, 60, 135, 2, 0.516121
150, 1, wb, filler, NA, 999, 999, 4, 28, 104, 128, 85, 129, 80, 119, 1, 0.30122
150, 1, wb, filler, NA, 999, 999, 4, 28, 104, 128, 85, 129, 80, 119, 2, 0.360561
150, 1, wb, filler, NA, 999, 999, 4, 29, 105, 77, 178, 164, 157, 87, 1, 0.439795
150, 1, wb, filler, NA, 999, 999, 4, 29, 105, 77, 178, 164, 157, 87, 2, 0.260857
150, 1, wb, attraction, a-b-db, 14, 3, 4, 30, 195, 120, 120, 195, 111, 181, 1, 0.288055
150, 1, wb, attraction, a-b-db, 14, 3, 4, 30, 195, 120, 120, 195, 111, 181, 2, 0.283241
150, 1, wb, filler, NA, 999, 999, 4, 31, 174, 183, 92, 139, 95, 140, 2, 1.04574
150, 1, wb, filler, NA, 999, 999, 4, 31, 174, 183, 92, 139, 95, 140, 1, 0.298799
150, 1, wb, attraction, a-b-db, 14, 2, 4, 32, 83, 153, 165, 90, 90, 165, 1, 1.53256
150, 1, wb, attraction, a-b-db, 14, 2, 4, 32, 83, 153, 165, 90, 90, 165, 2, 0.350146
150, 1, wb, attraction, a-b-da, 14, 2, 4, 33, 90, 165, 153, 83, 165, 90, 1, 0.349957
150, 1, wb, attraction, a-b-da, 14, 2, 4, 33, 90, 165, 153, 83, 165, 90, 2, 0.62319
150, 1, wb, catch, NA, 999, 999, 4, 34, 115, 80, 139, 116, 178, 137, 1, 0.564185
150, 1, wb, catch, NA, 999, 999, 4, 34, 115, 80, 139, 116, 178, 137, 2, 0.372809
150, 1, wb, attraction, a-b-da, 9, 3, 4, 35, 195, 120, 120, 195, 186, 114, 1, 0.267768
150, 1, wb, attraction, a-b-da, 9, 3, 4, 35, 195, 120, 120, 195, 186, 114, 2, 1.04039
150, 1, wb, attraction, a-b-db, 9, 3, 4, 36, 114, 186, 120, 195, 195, 120, 1, 0.588119
150, 1, wb, attraction, a-b-db, 9, 3, 4, 36, 114, 186, 120, 195, 195, 120, 2, 0.491071
150, 1, wb, attraction, a-b-da, 14, 1, 4, 37, 135, 60, 60, 135, 125, 56, 2, 0.732907
150, 1, wb, attraction, a-b-da, 14, 1, 4, 37, 135, 60, 60, 135, 125, 56, 1, 0.638658
150, 1, wb, attraction, a-b-db, 14, 1, 5, 1, 56, 125, 135, 60, 60, 135, 1, 2.43297
150, 1, wb, attraction, a-b-db, 14, 1, 5, 1, 56, 125, 135, 60, 60, 135, 2, 0.854199
150, 1, wb, attraction, a-b-db, 2, 1, 5, 2, 135, 60, 60, 135, 59, 134, 1, 0.433952
150, 1, wb, attraction, a-b-db, 2, 1, 5, 2, 135, 60, 60, 135, 59, 134, 2, 0.45591
150, 1, wb, filler, NA, 999, 999, 5, 3, 60, 60, 150, 93, 161, 162, 1, 0.555698
150, 1, wb, filler, NA, 999, 999, 5, 3, 60, 60, 150, 93, 161, 162, 2, 0.500051
150, 1, wb, filler, NA, 999, 999, 5, 4, 98, 79, 162, 142, 126, 102, 1, 0.325793
150, 1, wb, filler, NA, 999, 999, 5, 4, 98, 79, 162, 142, 126, 102, 2, 0.831688
150, 1, wb, catch, NA, 999, 999, 5, 5, 131, 64, 129, 186, 92, 163, 1, 1.052
150, 1, wb, catch, NA, 999, 999, 5, 5, 131, 64, 129, 186, 92, 163, 2, 0.449092
150, 1, wb, filler, NA, 999, 999, 5, 6, 188, 86, 117, 127, 106, 141, 1, 1.32499
150, 1, wb, filler, NA, 999, 999, 5, 6, 188, 86, 117, 127, 106, 141, 2, 0.262248
150, 1, wb, attraction, a-b-da, 14, 2, 5, 7, 90, 165, 165, 90, 153, 83, 1, 0.497517
150, 1, wb, attraction, a-b-da, 14, 2, 5, 7, 90, 165, 165, 90, 153, 83, 2, 0.316685
150, 1, wb, attraction, a-b-da, 9, 3, 5, 8, 120, 195, 195, 120, 186, 114, 1, 0.373855
150, 1, wb, attraction, a-b-da, 9, 3, 5, 8, 120, 195, 195, 120, 186, 114, 3, 0.557713
150, 1, wb, filler, NA, 999, 999, 5, 9, 79, 109, 99, 110, 144, 144, 1, 0.380764
150, 1, wb, filler, NA, 999, 999, 5, 9, 79, 109, 99, 110, 144, 144, 3, 0.780655
150, 1, wb, filler, NA, 999, 999, 5, 10, 192, 158, 81, 185, 192, 57, 3, 1.20298
150, 1, wb, filler, NA, 999, 999, 5, 10, 192, 158, 81, 185, 192, 57, 1, 0.38589
150, 1, wb, filler, NA, 999, 999, 5, 11, 99, 59, 127, 72, 78, 112, 1, 0.736413
150, 1, wb, filler, NA, 999, 999, 5, 11, 99, 59, 127, 72, 78, 112, 3, 0.850264
150, 1, wb, filler, NA, 999, 999, 5, 12, 125, 193, 184, 166, 162, 105, 3, 0.597812
150, 1, wb, filler, NA, 999, 999, 5, 12, 125, 193, 184, 166, 162, 105, 2, 0.396967
150, 1, wb, attraction, a-b-db, 2, 3, 5, 13, 119, 193, 120, 195, 195, 120, 3, 0.986802
150, 1, wb, attraction, a-b-db, 2, 3, 5, 13, 119, 193, 120, 195, 195, 120, 2, 0.434675
150, 1, wb, attraction, a-b-db, 5, 2, 5, 14, 90, 165, 165, 90, 88, 161, 1, 0.406909
150, 1, wb, attraction, a-b-db, 5, 2, 5, 14, 90, 165, 165, 90, 88, 161, 2, 0.349513
150, 1, wb, attraction, a-b-da, 14, 3, 5, 15, 195, 120, 181, 111, 120, 195, 1, 0.349276
150, 1, wb, attraction, a-b-da, 14, 3, 5, 15, 195, 120, 181, 111, 120, 195, 2, 0.326535
150, 1, wb, filler, NA, 999, 999, 5, 16, 190, 191, 82, 186, 165, 86, 1, 0.367077
150, 1, wb, filler, NA, 999, 999, 5, 16, 190, 191, 82, 186, 165, 86, 2, 0.455546
150, 1, wb, attraction, a-b-da, 2, 2, 5, 17, 165, 90, 90, 165, 163, 89, 1, 0.355282
150, 1, wb, attraction, a-b-da, 2, 2, 5, 17, 165, 90, 90, 165, 163, 89, 2, 0.347884
150, 1, wb, catch, NA, 999, 999, 5, 18, 119, 76, 157, 98, 186, 129, 1, 0.323672
150, 1, wb, catch, NA, 999, 999, 5, 18, 119, 76, 157, 98, 186, 129, 3, 0.277628
150, 1, wb, attraction, a-b-db, 9, 1, 5, 19, 135, 60, 60, 135, 57, 129, 3, 1.00811
150, 1, wb, attraction, a-b-db, 9, 1, 5, 19, 135, 60, 60, 135, 57, 129, 1, 0.342417
150, 1, wb, attraction, a-b-da, 9, 1, 5, 20, 135, 60, 129, 57, 60, 135, 2, 1.21417
150, 1, wb, attraction, a-b-da, 9, 1, 5, 20, 135, 60, 129, 57, 60, 135, 1, 0.324519
150, 1, wb, attraction, a-b-da, 2, 1, 5, 21, 135, 60, 134, 59, 60, 135, 2, 0.940931
150, 1, wb, attraction, a-b-da, 2, 1, 5, 21, 135, 60, 134, 59, 60, 135, 1, 0.278005
150, 1, wb, catch, NA, 999, 999, 5, 22, 151, 104, 86, 109, 189, 126, 2, 0.632617
150, 1, wb, catch, NA, 999, 999, 5, 22, 151, 104, 86, 109, 189, 126, 1, 0.310312
150, 1, wb, attraction, a-b-da, 5, 1, 5, 23, 132, 58, 135, 60, 60, 135, 2, 0.599483
150, 1, wb, attraction, a-b-da, 5, 1, 5, 23, 132, 58, 135, 60, 60, 135, 3, 0.622555
150, 1, wb, attraction, a-b-db, 5, 1, 5, 24, 60, 135, 58, 132, 135, 60, 1, 0.355687
150, 1, wb, attraction, a-b-db, 5, 1, 5, 24, 60, 135, 58, 132, 135, 60, 2, 0.556335
150, 1, wb, attraction, a-b-da, 9, 2, 5, 25, 157, 86, 165, 90, 90, 165, 2, 0.420099
150, 1, wb, attraction, a-b-da, 9, 2, 5, 25, 157, 86, 165, 90, 90, 165, 1, 0.314466
150, 1, wb, attraction, a-b-da, 5, 3, 5, 26, 190, 117, 195, 120, 120, 195, 1, 0.387732
150, 1, wb, attraction, a-b-da, 5, 3, 5, 26, 190, 117, 195, 120, 120, 195, 2, 0.234786
150, 1, wb, attraction, a-b-db, 5, 3, 5, 27, 120, 195, 117, 190, 195, 120, 1, 0.93536
150, 1, wb, attraction, a-b-db, 5, 3, 5, 27, 120, 195, 117, 190, 195, 120, 2, 0.225043
150, 1, wb, attraction, a-b-da, 5, 2, 5, 28, 161, 88, 165, 90, 90, 165, 1, 0.493595
150, 1, wb, attraction, a-b-da, 5, 2, 5, 28, 161, 88, 165, 90, 90, 165, 2, 0.328741
150, 1, wb, filler, NA, 999, 999, 5, 29, 184, 71, 86, 151, 78, 183, 1, 0.417304
150, 1, wb, filler, NA, 999, 999, 5, 29, 184, 71, 86, 151, 78, 183, 2, 0.327741
150, 1, wb, attraction, a-b-da, 2, 3, 5, 30, 120, 195, 195, 120, 193, 119, 1, 0.456274
150, 1, wb, attraction, a-b-da, 2, 3, 5, 30, 120, 195, 195, 120, 193, 119, 2, 0.380717
150, 1, wb, attraction, a-b-db, 14, 2, 5, 31, 83, 153, 90, 165, 165, 90, 1, 0.355227
150, 1, wb, attraction, a-b-db, 14, 2, 5, 31, 83, 153, 90, 165, 165, 90, 2, 0.323958
150, 1, wb, attraction, a-b-db, 9, 2, 5, 32, 90, 165, 165, 90, 86, 157, 3, 0.820259
150, 1, wb, attraction, a-b-db, 9, 2, 5, 32, 90, 165, 165, 90, 86, 157, 1, 0.626682
150, 1, wb, attraction, a-b-db, 9, 3, 5, 33, 114, 186, 195, 120, 120, 195, 1, 0.967039
150, 1, wb, attraction, a-b-db, 9, 3, 5, 33, 114, 186, 195, 120, 120, 195, 2, 0.511381
150, 1, wb, filler, NA, 999, 999, 5, 34, 64, 107, 156, 195, 173, 169, 1, 0.480569
150, 1, wb, filler, NA, 999, 999, 5, 34, 64, 107, 156, 195, 173, 169, 2, 0.236453
150, 1, wb, attraction, a-b-db, 14, 3, 5, 35, 195, 120, 120, 195, 111, 181, 3, 0.896933
150, 1, wb, attraction, a-b-db, 14, 3, 5, 35, 195, 120, 120, 195, 111, 181, 1, 0.452009
150, 1, wb, attraction, a-b-db, 2, 2, 5, 36, 89, 163, 90, 165, 165, 90, 2, 0.543765
150, 1, wb, attraction, a-b-db, 2, 2, 5, 36, 89, 163, 90, 165, 165, 90, 1, 0.576897
150, 1, wb, attraction, a-b-da, 14, 1, 5, 37, 135, 60, 125, 56, 60, 135, 2, 1.67921
150, 1, wb, attraction, a-b-da, 14, 1, 5, 37, 135, 60, 125, 56, 60, 135, 1, 0.538654
150, 1, wb, attraction, a-b-da, 2, 3, 6, 1, 120, 195, 195, 120, 193, 119, 2, 0.443169
150, 1, wb, attraction, a-b-da, 2, 3, 6, 1, 120, 195, 195, 120, 193, 119, 1, 0.22436
150, 1, wb, filler, NA, 999, 999, 6, 2, 65, 57, 77, 141, 117, 70, 1, 0.556852
150, 1, wb, filler, NA, 999, 999, 6, 2, 65, 57, 77, 141, 117, 70, 2, 0.237423
150, 1, wb, catch, NA, 999, 999, 6, 3, 144, 111, 151, 164, 126, 69, 1, 0.697969
150, 1, wb, catch, NA, 999, 999, 6, 3, 144, 111, 151, 164, 126, 69, 2, 0.252937
150, 1, wb, filler, NA, 999, 999, 6, 4, 87, 167, 76, 132, 160, 156, 2, 0.608935
150, 1, wb, filler, NA, 999, 999, 6, 4, 87, 167, 76, 132, 160, 156, 1, 0.207375
150, 1, wb, filler, NA, 999, 999, 6, 5, 84, 119, 150, 108, 190, 99, 1, 0.460601
150, 1, wb, filler, NA, 999, 999, 6, 5, 84, 119, 150, 108, 190, 99, 2, 0.281038
150, 1, wb, attraction, a-b-db, 2, 1, 6, 6, 135, 60, 60, 135, 59, 134, 2, 0.419634
150, 1, wb, attraction, a-b-db, 2, 1, 6, 6, 135, 60, 60, 135, 59, 134, 1, 0.47406
150, 1, wb, attraction, a-b-db, 14, 1, 6, 7, 135, 60, 60, 135, 56, 125, 2, 0.412405
150, 1, wb, attraction, a-b-db, 14, 1, 6, 7, 135, 60, 60, 135, 56, 125, 1, 0.322947
150, 1, wb, attraction, a-b-db, 14, 3, 6, 8, 195, 120, 111, 181, 120, 195, 2, 0.428105
150, 1, wb, attraction, a-b-db, 14, 3, 6, 8, 195, 120, 111, 181, 120, 195, 1, 0.281986
150, 1, wb, attraction, a-b-da, 5, 3, 6, 9, 120, 195, 195, 120, 190, 117, 2, 0.556589
150, 1, wb, attraction, a-b-da, 5, 3, 6, 9, 120, 195, 195, 120, 190, 117, 1, 0.173057
150, 1, wb, attraction, a-b-db, 14, 2, 6, 10, 90, 165, 83, 153, 165, 90, 2, 0.452139
150, 1, wb, attraction, a-b-db, 14, 2, 6, 10, 90, 165, 83, 153, 165, 90, 1, 0.193393
150, 1, wb, attraction, a-b-da, 14, 2, 6, 11, 153, 83, 90, 165, 165, 90, 2, 0.495269
150, 1, wb, attraction, a-b-da, 14, 2, 6, 11, 153, 83, 90, 165, 165, 90, 1, 0.290364
150, 1, wb, filler, NA, 999, 999, 6, 12, 186, 82, 83, 179, 149, 125, 2, 0.412359
150, 1, wb, filler, NA, 999, 999, 6, 12, 186, 82, 83, 179, 149, 125, 1, 0.570878
150, 1, wb, attraction, a-b-db, 9, 1, 6, 13, 57, 129, 60, 135, 135, 60, 2, 0.585907
150, 1, wb, attraction, a-b-db, 9, 1, 6, 13, 57, 129, 60, 135, 135, 60, 3, 0.417686
150, 1, wb, filler, NA, 999, 999, 6, 14, 56, 168, 78, 106, 103, 65, 1, 1.15096
150, 1, wb, filler, NA, 999, 999, 6, 14, 56, 168, 78, 106, 103, 65, 3, 1.10392
150, 1, wb, attraction, a-b-da, 5, 2, 6, 15, 165, 90, 90, 165, 161, 88, 2, 0.545531
150, 1, wb, attraction, a-b-da, 5, 2, 6, 15, 165, 90, 90, 165, 161, 88, 1, 0.226552
150, 1, wb, filler, NA, 999, 999, 6, 16, 84, 107, 170, 189, 88, 100, 1, 1.01509
150, 1, wb, filler, NA, 999, 999, 6, 16, 84, 107, 170, 189, 88, 100, 2, 0.181322
150, 1, wb, catch, NA, 999, 999, 6, 17, 157, 98, 130, 185, 91, 104, 1, 0.435816
150, 1, wb, catch, NA, 999, 999, 6, 17, 157, 98, 130, 185, 91, 104, 3, 0.842124
150, 1, wb, attraction, a-b-da, 2, 1, 6, 18, 60, 135, 135, 60, 134, 59, 2, 0.693418
150, 1, wb, attraction, a-b-da, 2, 1, 6, 18, 60, 135, 135, 60, 134, 59, 3, 0.440577
150, 1, wb, attraction, a-b-db, 2, 3, 6, 19, 195, 120, 120, 195, 119, 193, 2, 0.468332
150, 1, wb, attraction, a-b-db, 2, 3, 6, 19, 195, 120, 120, 195, 119, 193, 1, 0.240835
150, 1, wb, attraction, a-b-db, 2, 2, 6, 20, 165, 90, 90, 165, 89, 163, 2, 0.516737
150, 1, wb, attraction, a-b-db, 2, 2, 6, 20, 165, 90, 90, 165, 89, 163, 3, 0.263114
150, 1, wb, attraction, a-b-db, 9, 2, 6, 21, 165, 90, 90, 165, 86, 157, 2, 0.474331
150, 1, wb, attraction, a-b-db, 9, 2, 6, 21, 165, 90, 90, 165, 86, 157, 1, 0.190238
150, 1, wb, attraction, a-b-db, 5, 3, 6, 22, 117, 190, 195, 120, 120, 195, 2, 0.388038
150, 1, wb, attraction, a-b-db, 5, 3, 6, 22, 117, 190, 195, 120, 120, 195, 3, 0.22726
150, 1, wb, attraction, a-b-da, 14, 3, 6, 23, 195, 120, 120, 195, 181, 111, 2, 0.31176
150, 1, wb, attraction, a-b-da, 14, 3, 6, 23, 195, 120, 120, 195, 181, 111, 1, 0.178365
150, 1, wb, attraction, a-b-db, 5, 2, 6, 24, 88, 161, 165, 90, 90, 165, 2, 0.360832
150, 1, wb, attraction, a-b-db, 5, 2, 6, 24, 88, 161, 165, 90, 90, 165, 3, 0.169415
150, 1, wb, attraction, a-b-db, 9, 3, 6, 25, 195, 120, 114, 186, 120, 195, 2, 0.472578
150, 1, wb, attraction, a-b-db, 9, 3, 6, 25, 195, 120, 114, 186, 120, 195, 1, 0.588514
150, 1, wb, attraction, a-b-da, 9, 3, 6, 26, 195, 120, 186, 114, 120, 195, 2, 0.258977
150, 1, wb, attraction, a-b-da, 9, 3, 6, 26, 195, 120, 186, 114, 120, 195, 3, 0.215405
150, 1, wb, attraction, a-b-da, 9, 1, 6, 27, 60, 135, 129, 57, 135, 60, 2, 0.588577
150, 1, wb, attraction, a-b-da, 9, 1, 6, 27, 60, 135, 129, 57, 135, 60, 1, 0.315679
150, 1, wb, filler, NA, 999, 999, 6, 28, 72, 181, 114, 78, 165, 134, 2, 0.900959
150, 1, wb, filler, NA, 999, 999, 6, 28, 72, 181, 114, 78, 165, 134, 1, 0.327934
150, 1, wb, filler, NA, 999, 999, 6, 29, 155, 165, 82, 104, 89, 76, 2, 0.568617
150, 1, wb, filler, NA, 999, 999, 6, 29, 155, 165, 82, 104, 89, 76, 1, 0.432965
150, 1, wb, attraction, a-b-db, 5, 1, 6, 30, 58, 132, 60, 135, 135, 60, 2, 0.989364
150, 1, wb, attraction, a-b-db, 5, 1, 6, 30, 58, 132, 60, 135, 135, 60, 3, 0.220416
150, 1, wb, catch, NA, 999, 999, 6, 31, 117, 138, 190, 125, 65, 130, 1, 0.769544
150, 1, wb, catch, NA, 999, 999, 6, 31, 117, 138, 190, 125, 65, 130, 2, 0.242051
150, 1, wb, attraction, a-b-da, 5, 1, 6, 32, 132, 58, 135, 60, 60, 135, 1, 0.551058
150, 1, wb, attraction, a-b-da, 5, 1, 6, 32, 132, 58, 135, 60, 60, 135, 3, 0.263091
150, 1, wb, attraction, a-b-da, 2, 2, 6, 33, 90, 165, 165, 90, 163, 89, 2, 0.498211
150, 1, wb, attraction, a-b-da, 2, 2, 6, 33, 90, 165, 165, 90, 163, 89, 1, 0.189366
150, 1, wb, filler, NA, 999, 999, 6, 34, 192, 105, 167, 101, 146, 84, 2, 0.371857
150, 1, wb, filler, NA, 999, 999, 6, 34, 192, 105, 167, 101, 146, 84, 1, 0.187703
150, 1, wb, filler, NA, 999, 999, 6, 35, 129, 185, 116, 65, 175, 80, 2, 0.36228
150, 1, wb, filler, NA, 999, 999, 6, 35, 129, 185, 116, 65, 175, 80, 1, 0.210761
150, 1, wb, attraction, a-b-da, 14, 1, 6, 36, 60, 135, 135, 60, 125, 56, 1, 0.624022
150, 1, wb, attraction, a-b-da, 14, 1, 6, 36, 60, 135, 135, 60, 125, 56, 2, 0.653743
150, 1, wb, attraction, a-b-da, 9, 2, 6, 37, 165, 90, 90, 165, 157, 86, 1, 0.393676
150, 1, wb, attraction, a-b-da, 9, 2, 6, 37, 165, 90, 90, 165, 157, 86, 2, 0.672709
150, 1, wb, attraction, a-b-da, 5, 1, 7, 1, 132, 58, 60, 135, 135, 60, 1, 0.299729
150, 1, wb, attraction, a-b-da, 5, 1, 7, 1, 132, 58, 60, 135, 135, 60, 2, 0.607028
150, 1, wb, attraction, a-b-da, 5, 2, 7, 2, 161, 88, 90, 165, 165, 90, 1, 0.740082
150, 1, wb, attraction, a-b-da, 5, 2, 7, 2, 161, 88, 90, 165, 165, 90, 2, 0.325309
150, 1, wb, attraction, a-b-db, 9, 2, 7, 3, 86, 157, 90, 165, 165, 90, 1, 0.365644
150, 1, wb, attraction, a-b-db, 9, 2, 7, 3, 86, 157, 90, 165, 165, 90, 2, 0.302194
150, 1, wb, filler, NA, 999, 999, 7, 4, 92, 87, 189, 172, 97, 179, 1, 0.367976
150, 1, wb, filler, NA, 999, 999, 7, 4, 92, 87, 189, 172, 97, 179, 2, 0.256517
150, 1, wb, filler, NA, 999, 999, 7, 5, 65, 182, 176, 89, 173, 73, 1, 0.388399
150, 1, wb, filler, NA, 999, 999, 7, 5, 65, 182, 176, 89, 173, 73, 2, 0.483612
150, 1, wb, filler, NA, 999, 999, 7, 6, 147, 107, 68, 71, 60, 155, 2, 0.534104
150, 1, wb, filler, NA, 999, 999, 7, 6, 147, 107, 68, 71, 60, 155, 1, 0.255829
150, 1, wb, attraction, a-b-db, 5, 1, 7, 7, 135, 60, 58, 132, 60, 135, 2, 0.395695
150, 1, wb, attraction, a-b-db, 5, 1, 7, 7, 135, 60, 58, 132, 60, 135, 1, 0.322885
150, 1, wb, attraction, a-b-da, 5, 3, 7, 8, 195, 120, 120, 195, 190, 117, 2, 0.804071
150, 1, wb, attraction, a-b-da, 5, 3, 7, 8, 195, 120, 120, 195, 190, 117, 1, 0.218454
150, 1, wb, attraction, a-b-da, 14, 1, 7, 9, 135, 60, 125, 56, 60, 135, 2, 0.423691
150, 1, wb, attraction, a-b-da, 14, 1, 7, 9, 135, 60, 125, 56, 60, 135, 1, 0.277525
150, 1, wb, catch, NA, 999, 999, 7, 10, 131, 64, 175, 140, 95, 160, 1, 0.688037
150, 1, wb, catch, NA, 999, 999, 7, 10, 131, 64, 175, 140, 95, 160, 2, 0.211272
150, 1, wb, filler, NA, 999, 999, 7, 11, 76, 168, 136, 111, 148, 177, 1, 0.376365
150, 1, wb, filler, NA, 999, 999, 7, 11, 76, 168, 136, 111, 148, 177, 2, 0.616253
150, 1, wb, attraction, a-b-db, 9, 1, 7, 12, 57, 129, 135, 60, 60, 135, 1, 0.485356
150, 1, wb, attraction, a-b-db, 9, 1, 7, 12, 57, 129, 135, 60, 60, 135, 2, 0.233119
150, 1, wb, catch, NA, 999, 999, 7, 13, 101, 94, 174, 141, 105, 150, 1, 0.437615
150, 1, wb, catch, NA, 999, 999, 7, 13, 101, 94, 174, 141, 105, 150, 2, 0.235597
150, 1, wb, attraction, a-b-db, 2, 1, 7, 14, 59, 134, 60, 135, 135, 60, 1, 0.424264
150, 1, wb, attraction, a-b-db, 2, 1, 7, 14, 59, 134, 60, 135, 135, 60, 2, 0.229884
150, 1, wb, attraction, a-b-db, 5, 2, 7, 15, 165, 90, 90, 165, 88, 161, 2, 0.474482
150, 1, wb, attraction, a-b-db, 5, 2, 7, 15, 165, 90, 90, 165, 88, 161, 1, 0.174334
150, 1, wb, attraction, a-b-da, 2, 2, 7, 16, 163, 89, 90, 165, 165, 90, 2, 0.372884
150, 1, wb, attraction, a-b-da, 2, 2, 7, 16, 163, 89, 90, 165, 165, 90, 1, 0.180777
150, 1, wb, filler, NA, 999, 999, 7, 17, 144, 162, 115, 92, 82, 103, 2, 0.483222
150, 1, wb, filler, NA, 999, 999, 7, 17, 144, 162, 115, 92, 82, 103, 1, 0.167029
150, 1, wb, attraction, a-b-db, 5, 3, 7, 18, 117, 190, 195, 120, 120, 195, 2, 0.430236
150, 1, wb, attraction, a-b-db, 5, 3, 7, 18, 117, 190, 195, 120, 120, 195, 1, 0.228012
150, 1, wb, attraction, a-b-da, 14, 3, 7, 19, 195, 120, 181, 111, 120, 195, 3, 0.472669
150, 1, wb, attraction, a-b-da, 14, 3, 7, 19, 195, 120, 181, 111, 120, 195, 1, 0.260466
150, 1, wb, attraction, a-b-db, 14, 3, 7, 20, 120, 195, 111, 181, 195, 120, 2, 1.03956
150, 1, wb, attraction, a-b-db, 14, 3, 7, 20, 120, 195, 111, 181, 195, 120, 1, 1.18863
150, 1, wb, attraction, a-b-da, 9, 3, 7, 21, 120, 195, 186, 114, 195, 120, 2, 0.434814
150, 1, wb, attraction, a-b-da, 9, 3, 7, 21, 120, 195, 186, 114, 195, 120, 1, 0.240679
150, 1, wb, filler, NA, 999, 999, 7, 22, 118, 115, 86, 186, 98, 96, 3, 0.580545
150, 1, wb, filler, NA, 999, 999, 7, 22, 118, 115, 86, 186, 98, 96, 1, 0.676394
150, 1, wb, filler, NA, 999, 999, 7, 23, 75, 190, 160, 162, 70, 111, 3, 0.574687
150, 1, wb, filler, NA, 999, 999, 7, 23, 75, 190, 160, 162, 70, 111, 2, 0.214534
150, 1, wb, filler, NA, 999, 999, 7, 24, 133, 124, 132, 94, 141, 122, 2, 0.531762
150, 1, wb, filler, NA, 999, 999, 7, 24, 133, 124, 132, 94, 141, 122, 1, 0.197646
150, 1, wb, attraction, a-b-db, 2, 2, 7, 25, 90, 165, 89, 163, 165, 90, 2, 0.355476
150, 1, wb, attraction, a-b-db, 2, 2, 7, 25, 90, 165, 89, 163, 165, 90, 1, 0.187913
150, 1, wb, attraction, a-b-da, 9, 2, 7, 26, 90, 165, 165, 90, 157, 86, 3, 0.706444
150, 1, wb, attraction, a-b-da, 9, 2, 7, 26, 90, 165, 165, 90, 157, 86, 2, 0.237043
150, 1, wb, attraction, a-b-da, 9, 1, 7, 27, 135, 60, 60, 135, 129, 57, 2, 0.425471
150, 1, wb, attraction, a-b-da, 9, 1, 7, 27, 135, 60, 60, 135, 129, 57, 1, 0.327425
150, 1, wb, filler, NA, 999, 999, 7, 28, 114, 75, 109, 110, 132, 100, 3, 0.391857
150, 1, wb, filler, NA, 999, 999, 7, 28, 114, 75, 109, 110, 132, 100, 2, 0.327124
150, 1, wb, catch, NA, 999, 999, 7, 29, 188, 127, 165, 90, 89, 106, 2, 0.407537
150, 1, wb, catch, NA, 999, 999, 7, 29, 188, 127, 165, 90, 89, 106, 1, 0.35798
150, 1, wb, attraction, a-b-db, 14, 2, 7, 30, 165, 90, 83, 153, 90, 165, 3, 0.325236
150, 1, wb, attraction, a-b-db, 14, 2, 7, 30, 165, 90, 83, 153, 90, 165, 2, 0.279031
150, 1, wb, attraction, a-b-da, 14, 2, 7, 31, 90, 165, 165, 90, 153, 83, 2, 0.369527
150, 1, wb, attraction, a-b-da, 14, 2, 7, 31, 90, 165, 165, 90, 153, 83, 1, 0.386098
150, 1, wb, attraction, a-b-db, 14, 1, 7, 32, 135, 60, 56, 125, 60, 135, 3, 0.40072
150, 1, wb, attraction, a-b-db, 14, 1, 7, 32, 135, 60, 56, 125, 60, 135, 2, 0.303855
150, 1, wb, attraction, a-b-da, 2, 1, 7, 33, 135, 60, 60, 135, 134, 59, 2, 0.849671
150, 1, wb, attraction, a-b-da, 2, 1, 7, 33, 135, 60, 60, 135, 134, 59, 1, 0.302586
150, 1, wb, filler, NA, 999, 999, 7, 34, 170, 75, 187, 113, 113, 77, 3, 0.536579
150, 1, wb, filler, NA, 999, 999, 7, 34, 170, 75, 187, 113, 113, 77, 2, 0.290243
150, 1, wb, attraction, a-b-da, 2, 3, 7, 35, 195, 120, 193, 119, 120, 195, 2, 0.82809
150, 1, wb, attraction, a-b-da, 2, 3, 7, 35, 195, 120, 193, 119, 120, 195, 1, 0.2898
150, 1, wb, attraction, a-b-db, 2, 3, 7, 36, 195, 120, 120, 195, 119, 193, 3, 0.596316
150, 1, wb, attraction, a-b-db, 2, 3, 7, 36, 195, 120, 120, 195, 119, 193, 2, 0.57953
150, 1, wb, attraction, a-b-db, 9, 3, 7, 37, 120, 195, 114, 186, 195, 120, 2, 0.857911
150, 1, wb, attraction, a-b-db, 9, 3, 7, 37, 120, 195, 114, 186, 195, 120, 1, 0.414233
150, 1, wb, attraction, a-b-da, 5, 3, 8, 1, 195, 120, 190, 117, 120, 195, 2, 0.499492
150, 1, wb, attraction, a-b-da, 5, 3, 8, 1, 195, 120, 190, 117, 120, 195, 1, 0.398552
150, 1, wb, filler, NA, 999, 999, 8, 2, 192, 147, 108, 128, 194, 104, 2, 0.380311
150, 1, wb, filler, NA, 999, 999, 8, 2, 192, 147, 108, 128, 194, 104, 1, 0.252285
150, 1, wb, attraction, a-b-db, 2, 3, 8, 3, 195, 120, 119, 193, 120, 195, 2, 0.392066
150, 1, wb, attraction, a-b-db, 2, 3, 8, 3, 195, 120, 119, 193, 120, 195, 1, 0.255248
150, 1, wb, filler, NA, 999, 999, 8, 4, 58, 192, 141, 144, 76, 124, 2, 0.45925
150, 1, wb, filler, NA, 999, 999, 8, 4, 58, 192, 141, 144, 76, 124, 1, 0.383606
150, 1, wb, attraction, a-b-da, 9, 1, 8, 5, 129, 57, 60, 135, 135, 60, 2, 0.558083
150, 1, wb, attraction, a-b-da, 9, 1, 8, 5, 129, 57, 60, 135, 135, 60, 1, 0.470585
150, 1, wb, filler, NA, 999, 999, 8, 6, 187, 102, 169, 192, 64, 95, 3, 0.553755
150, 1, wb, filler, NA, 999, 999, 8, 6, 187, 102, 169, 192, 64, 95, 2, 0.27495
150, 1, wb, attraction, a-b-db, 9, 3, 8, 7, 120, 195, 114, 186, 195, 120, 2, 0.917363
150, 1, wb, attraction, a-b-db, 9, 3, 8, 7, 120, 195, 114, 186, 195, 120, 3, 0.34386
150, 1, wb, filler, NA, 999, 999, 8, 8, 152, 180, 106, 145, 172, 137, 2, 0.479656
150, 1, wb, filler, NA, 999, 999, 8, 8, 152, 180, 106, 145, 172, 137, 1, 0.331456
150, 1, wb, attraction, a-b-da, 2, 3, 8, 9, 195, 120, 120, 195, 193, 119, 2, 0.315931
150, 1, wb, attraction, a-b-da, 2, 3, 8, 9, 195, 120, 120, 195, 193, 119, 3, 0.28651
150, 1, wb, attraction, a-b-da, 14, 1, 8, 10, 125, 56, 135, 60, 60, 135, 3, 0.633033
150, 1, wb, attraction, a-b-da, 14, 1, 8, 10, 125, 56, 135, 60, 60, 135, 2, 0.302701
150, 1, wb, catch, NA, 999, 999, 8, 11, 94, 161, 73, 122, 174, 141, 3, 0.368576
150, 1, wb, catch, NA, 999, 999, 8, 11, 94, 161, 73, 122, 174, 141, 2, 0.385167
150, 1, wb, catch, NA, 999, 999, 8, 12, 159, 96, 143, 172, 134, 61, 3, 0.51964
150, 1, wb, catch, NA, 999, 999, 8, 12, 159, 96, 143, 172, 134, 61, 2, 0.298061
150, 1, wb, attraction, a-b-da, 5, 1, 8, 13, 132, 58, 60, 135, 135, 60, 3, 0.436077
150, 1, wb, attraction, a-b-da, 5, 1, 8, 13, 132, 58, 60, 135, 135, 60, 2, 0.657836
150, 1, wb, attraction, a-b-da, 9, 3, 8, 14, 120, 195, 186, 114, 195, 120, 3, 0.380801
150, 1, wb, attraction, a-b-da, 9, 3, 8, 14, 120, 195, 186, 114, 195, 120, 2, 0.276683
150, 1, wb, attraction, a-b-da, 2, 1, 8, 15, 135, 60, 60, 135, 134, 59, 3, 0.391199
150, 1, wb, attraction, a-b-da, 2, 1, 8, 15, 135, 60, 60, 135, 134, 59, 2, 0.542387
150, 1, wb, attraction, a-b-da, 14, 2, 8, 16, 165, 90, 153, 83, 90, 165, 3, 0.406159
150, 1, wb, attraction, a-b-da, 14, 2, 8, 16, 165, 90, 153, 83, 90, 165, 2, 0.30064
150, 1, wb, filler, NA, 999, 999, 8, 17, 157, 179, 88, 104, 129, 183, 3, 0.358641
150, 1, wb, filler, NA, 999, 999, 8, 17, 157, 179, 88, 104, 129, 183, 2, 0.527048
150, 1, wb, attraction, a-b-db, 2, 1, 8, 18, 59, 134, 135, 60, 60, 135, 3, 1.57546
150, 1, wb, attraction, a-b-db, 2, 1, 8, 18, 59, 134, 135, 60, 60, 135, 2, 0.246947
150, 1, wb, catch, NA, 999, 999, 8, 19, 97, 98, 186, 129, 110, 145, 1, 0.54686
150, 1, wb, catch, NA, 999, 999, 8, 19, 97, 98, 186, 129, 110, 145, 2, 0.275938
150, 1, wb, attraction, a-b-db, 9, 1, 8, 20, 57, 129, 60, 135, 135, 60, 2, 0.430526
150, 1, wb, attraction, a-b-db, 9, 1, 8, 20, 57, 129, 60, 135, 135, 60, 1, 0.268394
150, 1, wb, filler, NA, 999, 999, 8, 21, 150, 82, 84, 180, 169, 143, 2, 0.343636
150, 1, wb, filler, NA, 999, 999, 8, 21, 150, 82, 84, 180, 169, 143, 3, 0.24068
150, 1, wb, attraction, a-b-da, 14, 3, 8, 22, 181, 111, 120, 195, 195, 120, 2, 0.740525
150, 1, wb, attraction, a-b-da, 14, 3, 8, 22, 181, 111, 120, 195, 195, 120, 1, 0.453629
150, 1, wb, filler, NA, 999, 999, 8, 23, 87, 172, 95, 59, 71, 175, 2, 0.401496
150, 1, wb, filler, NA, 999, 999, 8, 23, 87, 172, 95, 59, 71, 175, 3, 0.27269
150, 1, wb, attraction, a-b-da, 2, 2, 8, 24, 90, 165, 165, 90, 163, 89, 2, 0.36378
150, 1, wb, attraction, a-b-da, 2, 2, 8, 24, 90, 165, 165, 90, 163, 89, 1, 0.228543
150, 1, wb, attraction, a-b-db, 9, 2, 8, 25, 165, 90, 86, 157, 90, 165, 2, 0.336919
150, 1, wb, attraction, a-b-db, 9, 2, 8, 25, 165, 90, 86, 157, 90, 165, 3, 0.226789
150, 1, wb, attraction, a-b-db, 14, 3, 8, 26, 120, 195, 111, 181, 195, 120, 2, 0.431249
150, 1, wb, attraction, a-b-db, 14, 3, 8, 26, 120, 195, 111, 181, 195, 120, 1, 0.245198
150, 1, wb, attraction, a-b-da, 9, 2, 8, 27, 90, 165, 165, 90, 157, 86, 2, 0.721102
150, 1, wb, attraction, a-b-da, 9, 2, 8, 27, 90, 165, 165, 90, 157, 86, 3, 0.347462
150, 1, wb, attraction, a-b-db, 5, 2, 8, 28, 88, 161, 90, 165, 165, 90, 2, 0.339203
150, 1, wb, attraction, a-b-db, 5, 2, 8, 28, 88, 161, 90, 165, 165, 90, 1, 0.260603
150, 1, wb, attraction, a-b-da, 5, 2, 8, 29, 161, 88, 90, 165, 165, 90, 2, 0.423674
150, 1, wb, attraction, a-b-da, 5, 2, 8, 29, 161, 88, 90, 165, 165, 90, 3, 0.733483
150, 1, wb, filler, NA, 999, 999, 8, 30, 58, 194, 117, 89, 116, 70, 3, 0.885822
150, 1, wb, filler, NA, 999, 999, 8, 30, 58, 194, 117, 89, 116, 70, 1, 0.321579
150, 1, wb, filler, NA, 999, 999, 8, 31, 98, 64, 110, 191, 152, 89, 1, 0.97877
150, 1, wb, filler, NA, 999, 999, 8, 31, 98, 64, 110, 191, 152, 89, 2, 0.282489
150, 1, wb, filler, NA, 999, 999, 8, 32, 135, 119, 72, 176, 146, 92, 2, 0.78899
150, 1, wb, filler, NA, 999, 999, 8, 32, 135, 119, 72, 176, 146, 92, 3, 0.548065
150, 1, wb, attraction, a-b-db, 2, 2, 8, 33, 165, 90, 89, 163, 90, 165, 2, 0.611772
150, 1, wb, attraction, a-b-db, 2, 2, 8, 33, 165, 90, 89, 163, 90, 165, 3, 0.674174
150, 1, wb, attraction, a-b-db, 5, 1, 8, 34, 135, 60, 58, 132, 60, 135, 2, 0.90062
150, 1, wb, attraction, a-b-db, 5, 1, 8, 34, 135, 60, 58, 132, 60, 135, 1, 0.263801
150, 1, wb, attraction, a-b-db, 14, 1, 8, 35, 60, 135, 135, 60, 56, 125, 2, 0.394756
150, 1, wb, attraction, a-b-db, 14, 1, 8, 35, 60, 135, 135, 60, 56, 125, 3, 0.386026
150, 1, wb, attraction, a-b-db, 14, 2, 8, 36, 83, 153, 165, 90, 90, 165, 2, 0.344589
150, 1, wb, attraction, a-b-db, 14, 2, 8, 36, 83, 153, 165, 90, 90, 165, 1, 0.265676
150, 1, wb, attraction, a-b-db, 5, 3, 8, 37, 117, 190, 195, 120, 120, 195, 2, 0.340864
150, 1, wb, attraction, a-b-db, 5, 3, 8, 37, 117, 190, 195, 120, 120, 195, 3, 0.222074
