sub_n, computer_n, bw_cond, effect, set, distance, diag, block_n, trial_n, h1, w1, h2, w2, h3, w3, choice, rt 
116, 1, wb, practice, NA, 999, 999, 0, 1, 73, 186, 151, 97, 182, 62, 3, 4.98031
116, 1, wb, practice, NA, 999, 999, 0, 1, 73, 186, 151, 97, 182, 62, 2, 3.44473
116, 1, wb, practice, NA, 999, 999, 0, 2, 148, 162, 85, 96, 178, 160, 2, 2.08335
116, 1, wb, practice, NA, 999, 999, 0, 2, 148, 162, 85, 96, 178, 160, 3, 1.75093
116, 1, wb, practice, NA, 999, 999, 0, 3, 127, 179, 62, 148, 119, 114, 2, 2.84098
116, 1, wb, practice, NA, 999, 999, 0, 3, 127, 179, 62, 148, 119, 114, 1, 2.1679
116, 1, wb, filler, NA, 999, 999, 1, 1, 96, 184, 92, 189, 118, 136, 3, 2.88709
116, 1, wb, filler, NA, 999, 999, 1, 1, 96, 184, 92, 189, 118, 136, 1, 23.0103
116, 1, wb, attraction, a-b-da, 5, 1, 1, 2, 135, 60, 132, 58, 60, 135, 3, 3.94511
116, 1, wb, attraction, a-b-da, 5, 1, 1, 2, 135, 60, 132, 58, 60, 135, 2, 8.329
116, 1, wb, catch, NA, 999, 999, 1, 3, 144, 111, 102, 93, 193, 122, 2, 1.76699
116, 1, wb, catch, NA, 999, 999, 1, 3, 144, 111, 102, 93, 193, 122, 3, 1.0471
116, 1, wb, attraction, a-b-da, 14, 3, 1, 4, 120, 195, 195, 120, 181, 111, 1, 3.25869
116, 1, wb, attraction, a-b-da, 14, 3, 1, 4, 120, 195, 195, 120, 181, 111, 2, 0.822339
116, 1, wb, attraction, a-b-db, 5, 3, 1, 5, 120, 195, 117, 190, 195, 120, 3, 1.32342
116, 1, wb, attraction, a-b-db, 5, 3, 1, 5, 120, 195, 117, 190, 195, 120, 1, 1.25292
116, 1, wb, catch, NA, 999, 999, 1, 6, 90, 165, 143, 172, 124, 71, 3, 2.27249
116, 1, wb, catch, NA, 999, 999, 1, 6, 90, 165, 143, 172, 124, 71, 2, 0.923731
116, 1, wb, attraction, a-b-db, 9, 2, 1, 7, 165, 90, 90, 165, 86, 157, 1, 2.25994
116, 1, wb, attraction, a-b-db, 9, 2, 1, 7, 165, 90, 90, 165, 86, 157, 3, 1.336
116, 1, wb, attraction, a-b-db, 5, 1, 1, 8, 58, 132, 135, 60, 60, 135, 1, 2.04808
116, 1, wb, attraction, a-b-db, 5, 1, 1, 8, 58, 132, 135, 60, 60, 135, 3, 0.924787
116, 1, wb, filler, NA, 999, 999, 1, 9, 81, 158, 119, 172, 92, 184, 1, 0.989163
116, 1, wb, filler, NA, 999, 999, 1, 9, 81, 158, 119, 172, 92, 184, 3, 0.956105
116, 1, wb, attraction, a-b-da, 9, 1, 1, 10, 129, 57, 60, 135, 135, 60, 1, 1.0517
116, 1, wb, attraction, a-b-da, 9, 1, 1, 10, 129, 57, 60, 135, 135, 60, 3, 0.68879
116, 1, wb, attraction, a-b-da, 9, 2, 1, 11, 165, 90, 90, 165, 157, 86, 2, 2.67524
116, 1, wb, attraction, a-b-da, 9, 2, 1, 11, 165, 90, 90, 165, 157, 86, 3, 0.934319
116, 1, wb, catch, NA, 999, 999, 1, 12, 155, 160, 73, 122, 143, 112, 2, 2.41463
116, 1, wb, catch, NA, 999, 999, 1, 12, 155, 160, 73, 122, 143, 112, 1, 0.940563
116, 1, wb, attraction, a-b-db, 9, 1, 1, 13, 57, 129, 60, 135, 135, 60, 1, 1.6122
116, 1, wb, attraction, a-b-db, 9, 1, 1, 13, 57, 129, 60, 135, 135, 60, 3, 1.31434
116, 1, wb, filler, NA, 999, 999, 1, 14, 180, 121, 195, 59, 75, 119, 3, 1.7311
116, 1, wb, filler, NA, 999, 999, 1, 14, 180, 121, 195, 59, 75, 119, 1, 0.96459
116, 1, wb, attraction, a-b-da, 14, 1, 1, 15, 125, 56, 135, 60, 60, 135, 1, 5.03563
116, 1, wb, attraction, a-b-da, 14, 1, 1, 15, 125, 56, 135, 60, 60, 135, 3, 0.871979
116, 1, wb, attraction, a-b-db, 14, 1, 1, 16, 60, 135, 56, 125, 135, 60, 1, 1.63488
116, 1, wb, attraction, a-b-db, 14, 1, 1, 16, 60, 135, 56, 125, 135, 60, 3, 0.952585
116, 1, wb, attraction, a-b-da, 2, 2, 1, 17, 163, 89, 90, 165, 165, 90, 1, 1.04808
116, 1, wb, attraction, a-b-da, 2, 2, 1, 17, 163, 89, 90, 165, 165, 90, 3, 0.821005
116, 1, wb, filler, NA, 999, 999, 1, 18, 112, 144, 76, 172, 169, 168, 2, 13.8021
116, 1, wb, filler, NA, 999, 999, 1, 18, 112, 144, 76, 172, 169, 168, 3, 1.28504
116, 1, wb, attraction, a-b-da, 2, 1, 1, 19, 134, 59, 60, 135, 135, 60, 1, 1.29535
116, 1, wb, attraction, a-b-da, 2, 1, 1, 19, 134, 59, 60, 135, 135, 60, 2, 1.39424
116, 1, wb, attraction, a-b-db, 2, 2, 1, 20, 90, 165, 165, 90, 89, 163, 2, 1.08786
116, 1, wb, attraction, a-b-db, 2, 2, 1, 20, 90, 165, 165, 90, 89, 163, 3, 0.946618
116, 1, wb, filler, NA, 999, 999, 1, 21, 171, 105, 68, 97, 83, 165, 2, 1.40236
116, 1, wb, filler, NA, 999, 999, 1, 21, 171, 105, 68, 97, 83, 165, 1, 1.1532
116, 1, wb, attraction, a-b-db, 5, 2, 1, 22, 88, 161, 165, 90, 90, 165, 3, 1.07269
116, 1, wb, attraction, a-b-db, 5, 2, 1, 22, 88, 161, 165, 90, 90, 165, 2, 0.812348
116, 1, wb, attraction, a-b-db, 2, 3, 1, 23, 195, 120, 119, 193, 120, 195, 1, 1.34545
116, 1, wb, attraction, a-b-db, 2, 3, 1, 23, 195, 120, 119, 193, 120, 195, 3, 3.00233
116, 1, wb, attraction, a-b-db, 2, 1, 1, 24, 135, 60, 59, 134, 60, 135, 1, 4.4552
116, 1, wb, attraction, a-b-db, 2, 1, 1, 24, 135, 60, 59, 134, 60, 135, 2, 0.818518
116, 1, wb, filler, NA, 999, 999, 1, 25, 113, 137, 160, 160, 168, 185, 1, 1.2315
116, 1, wb, filler, NA, 999, 999, 1, 25, 113, 137, 160, 160, 168, 185, 3, 1.05332
116, 1, wb, attraction, a-b-da, 9, 3, 1, 26, 120, 195, 195, 120, 186, 114, 1, 1.16073
116, 1, wb, attraction, a-b-da, 9, 3, 1, 26, 120, 195, 195, 120, 186, 114, 3, 0.577008
116, 1, wb, attraction, a-b-da, 2, 3, 1, 27, 193, 119, 195, 120, 120, 195, 1, 1.02352
116, 1, wb, attraction, a-b-da, 2, 3, 1, 27, 193, 119, 195, 120, 120, 195, 3, 0.885276
116, 1, wb, attraction, a-b-db, 9, 3, 1, 28, 195, 120, 114, 186, 120, 195, 1, 0.767421
116, 1, wb, attraction, a-b-db, 9, 3, 1, 28, 195, 120, 114, 186, 120, 195, 2, 0.655877
116, 1, wb, filler, NA, 999, 999, 1, 29, 94, 152, 72, 158, 118, 137, 1, 0.787807
116, 1, wb, filler, NA, 999, 999, 1, 29, 94, 152, 72, 158, 118, 137, 3, 1.2193
116, 1, wb, attraction, a-b-da, 5, 2, 1, 30, 165, 90, 90, 165, 161, 88, 1, 0.976134
116, 1, wb, attraction, a-b-da, 5, 2, 1, 30, 165, 90, 90, 165, 161, 88, 3, 0.919842
116, 1, wb, filler, NA, 999, 999, 1, 31, 189, 177, 109, 148, 152, 59, 3, 1.63288
116, 1, wb, filler, NA, 999, 999, 1, 31, 189, 177, 109, 148, 152, 59, 1, 0.830459
116, 1, wb, attraction, a-b-db, 14, 3, 1, 32, 111, 181, 195, 120, 120, 195, 1, 2.60278
116, 1, wb, attraction, a-b-db, 14, 3, 1, 32, 111, 181, 195, 120, 120, 195, 3, 0.825189
116, 1, wb, filler, NA, 999, 999, 1, 33, 133, 58, 162, 152, 166, 75, 1, 1.86951
116, 1, wb, filler, NA, 999, 999, 1, 33, 133, 58, 162, 152, 166, 75, 2, 0.833496
116, 1, wb, attraction, a-b-da, 14, 2, 1, 34, 90, 165, 153, 83, 165, 90, 1, 0.973892
116, 1, wb, attraction, a-b-da, 14, 2, 1, 34, 90, 165, 153, 83, 165, 90, 2, 1.14957
116, 1, wb, attraction, a-b-db, 14, 2, 1, 35, 83, 153, 165, 90, 90, 165, 1, 8.38115
116, 1, wb, attraction, a-b-db, 14, 2, 1, 35, 83, 153, 165, 90, 90, 165, 2, 1.09862
116, 1, wb, filler, NA, 999, 999, 1, 36, 178, 146, 182, 102, 61, 195, 3, 9.9642
116, 1, wb, filler, NA, 999, 999, 1, 36, 178, 146, 182, 102, 61, 195, 1, 1.7857
116, 1, wb, attraction, a-b-da, 5, 3, 1, 37, 120, 195, 195, 120, 190, 117, 1, 1.60765
116, 1, wb, attraction, a-b-da, 5, 3, 1, 37, 120, 195, 195, 120, 190, 117, 3, 1.19803
116, 1, wb, attraction, a-b-db, 5, 3, 2, 1, 195, 120, 120, 195, 117, 190, 1, 3.32347
116, 1, wb, attraction, a-b-db, 5, 3, 2, 1, 195, 120, 120, 195, 117, 190, 3, 0.580355
116, 1, wb, attraction, a-b-db, 14, 3, 2, 2, 111, 181, 120, 195, 195, 120, 1, 0.99491
116, 1, wb, attraction, a-b-db, 14, 3, 2, 2, 111, 181, 120, 195, 195, 120, 3, 1.27379
116, 1, wb, attraction, a-b-db, 9, 3, 2, 3, 114, 186, 195, 120, 120, 195, 1, 0.883891
116, 1, wb, attraction, a-b-db, 9, 3, 2, 3, 114, 186, 195, 120, 120, 195, 3, 0.687629
116, 1, wb, attraction, a-b-db, 9, 2, 2, 4, 86, 157, 90, 165, 165, 90, 1, 1.18613
116, 1, wb, attraction, a-b-db, 9, 2, 2, 4, 86, 157, 90, 165, 165, 90, 3, 1.36171
116, 1, wb, attraction, a-b-db, 14, 2, 2, 5, 90, 165, 83, 153, 165, 90, 1, 0.864566
116, 1, wb, attraction, a-b-db, 14, 2, 2, 5, 90, 165, 83, 153, 165, 90, 3, 0.557045
116, 1, wb, attraction, a-b-da, 14, 1, 2, 6, 60, 135, 125, 56, 135, 60, 1, 1.15603
116, 1, wb, attraction, a-b-da, 14, 1, 2, 6, 60, 135, 125, 56, 135, 60, 3, 0.756413
116, 1, wb, filler, NA, 999, 999, 2, 7, 174, 100, 155, 71, 122, 187, 2, 2.98792
116, 1, wb, filler, NA, 999, 999, 2, 7, 174, 100, 155, 71, 122, 187, 3, 0.979077
116, 1, wb, filler, NA, 999, 999, 2, 8, 98, 92, 93, 69, 72, 156, 2, 1.13725
116, 1, wb, filler, NA, 999, 999, 2, 8, 98, 92, 93, 69, 72, 156, 3, 0.826955
116, 1, wb, attraction, a-b-db, 5, 1, 2, 9, 60, 135, 58, 132, 135, 60, 2, 1.48727
116, 1, wb, attraction, a-b-db, 5, 1, 2, 9, 60, 135, 58, 132, 135, 60, 3, 0.962779
116, 1, wb, attraction, a-b-da, 2, 1, 2, 10, 134, 59, 60, 135, 135, 60, 3, 22.8337
116, 1, wb, attraction, a-b-da, 2, 1, 2, 10, 134, 59, 60, 135, 135, 60, 2, 0.984634
116, 1, wb, catch, NA, 999, 999, 2, 11, 105, 150, 155, 160, 121, 74, 3, 0.942952
116, 1, wb, catch, NA, 999, 999, 2, 11, 105, 150, 155, 160, 121, 74, 2, 0.86393
116, 1, wb, attraction, a-b-db, 9, 1, 2, 12, 60, 135, 135, 60, 57, 129, 3, 0.850868
116, 1, wb, attraction, a-b-db, 9, 1, 2, 12, 60, 135, 135, 60, 57, 129, 2, 1.45594
116, 1, wb, filler, NA, 999, 999, 2, 13, 151, 158, 106, 71, 113, 108, 2, 1.62752
116, 1, wb, filler, NA, 999, 999, 2, 13, 151, 158, 106, 71, 113, 108, 1, 0.776913
116, 1, wb, filler, NA, 999, 999, 2, 14, 185, 82, 118, 174, 186, 110, 1, 1.71129
116, 1, wb, filler, NA, 999, 999, 2, 14, 185, 82, 118, 174, 186, 110, 3, 1.01735
116, 1, wb, filler, NA, 999, 999, 2, 15, 177, 180, 80, 58, 175, 59, 2, 0.806332
116, 1, wb, filler, NA, 999, 999, 2, 15, 177, 180, 80, 58, 175, 59, 1, 0.620724
116, 1, wb, attraction, a-b-db, 2, 3, 2, 16, 120, 195, 119, 193, 195, 120, 1, 1.00981
116, 1, wb, attraction, a-b-db, 2, 3, 2, 16, 120, 195, 119, 193, 195, 120, 3, 0.920212
116, 1, wb, attraction, a-b-db, 2, 2, 2, 17, 89, 163, 165, 90, 90, 165, 1, 0.833205
116, 1, wb, attraction, a-b-db, 2, 2, 2, 17, 89, 163, 165, 90, 90, 165, 3, 0.510948
116, 1, wb, attraction, a-b-da, 9, 3, 2, 18, 120, 195, 186, 114, 195, 120, 1, 0.744032
116, 1, wb, attraction, a-b-da, 9, 3, 2, 18, 120, 195, 186, 114, 195, 120, 3, 0.609108
116, 1, wb, attraction, a-b-da, 2, 2, 2, 19, 165, 90, 163, 89, 90, 165, 1, 0.598065
116, 1, wb, attraction, a-b-da, 2, 2, 2, 19, 165, 90, 163, 89, 90, 165, 3, 0.589242
116, 1, wb, filler, NA, 999, 999, 2, 20, 134, 104, 119, 149, 125, 179, 1, 0.435609
116, 1, wb, filler, NA, 999, 999, 2, 20, 134, 104, 119, 149, 125, 179, 3, 1.32949
116, 1, wb, attraction, a-b-da, 14, 3, 2, 21, 195, 120, 120, 195, 181, 111, 1, 1.70586
116, 1, wb, attraction, a-b-da, 14, 3, 2, 21, 195, 120, 120, 195, 181, 111, 3, 0.643882
116, 1, wb, attraction, a-b-db, 14, 1, 2, 22, 56, 125, 60, 135, 135, 60, 1, 0.783524
116, 1, wb, attraction, a-b-db, 14, 1, 2, 22, 56, 125, 60, 135, 135, 60, 3, 1.96735
116, 1, wb, attraction, a-b-da, 9, 1, 2, 23, 60, 135, 129, 57, 135, 60, 1, 0.653856
116, 1, wb, attraction, a-b-da, 9, 1, 2, 23, 60, 135, 129, 57, 135, 60, 3, 0.699059
116, 1, wb, attraction, a-b-db, 2, 1, 2, 24, 59, 134, 60, 135, 135, 60, 1, 0.468762
116, 1, wb, attraction, a-b-db, 2, 1, 2, 24, 59, 134, 60, 135, 135, 60, 3, 0.537254
116, 1, wb, catch, NA, 999, 999, 2, 25, 114, 81, 90, 165, 132, 183, 1, 0.961829
116, 1, wb, catch, NA, 999, 999, 2, 25, 114, 81, 90, 165, 132, 183, 3, 0.57008
116, 1, wb, filler, NA, 999, 999, 2, 26, 172, 181, 153, 160, 65, 163, 3, 1.05715
116, 1, wb, filler, NA, 999, 999, 2, 26, 172, 181, 153, 160, 65, 163, 1, 0.677529
116, 1, wb, attraction, a-b-da, 5, 3, 2, 27, 190, 117, 195, 120, 120, 195, 1, 1.04788
116, 1, wb, attraction, a-b-da, 5, 3, 2, 27, 190, 117, 195, 120, 120, 195, 3, 0.484941
116, 1, wb, filler, NA, 999, 999, 2, 28, 67, 192, 73, 168, 110, 94, 3, 1.01526
116, 1, wb, filler, NA, 999, 999, 2, 28, 67, 192, 73, 168, 110, 94, 1, 0.533642
116, 1, wb, filler, NA, 999, 999, 2, 29, 187, 96, 117, 151, 179, 189, 1, 1.14208
116, 1, wb, filler, NA, 999, 999, 2, 29, 187, 96, 117, 151, 179, 189, 3, 0.759024
116, 1, wb, attraction, a-b-da, 14, 2, 2, 30, 153, 83, 90, 165, 165, 90, 1, 0.846029
116, 1, wb, attraction, a-b-da, 14, 2, 2, 30, 153, 83, 90, 165, 165, 90, 3, 0.731045
116, 1, wb, attraction, a-b-da, 5, 2, 2, 31, 161, 88, 90, 165, 165, 90, 1, 0.795396
116, 1, wb, attraction, a-b-da, 5, 2, 2, 31, 161, 88, 90, 165, 165, 90, 3, 0.730528
116, 1, wb, catch, NA, 999, 999, 2, 32, 123, 192, 80, 115, 109, 146, 2, 1.27488
116, 1, wb, catch, NA, 999, 999, 2, 32, 123, 192, 80, 115, 109, 146, 1, 0.662447
116, 1, wb, attraction, a-b-da, 2, 3, 2, 33, 195, 120, 193, 119, 120, 195, 1, 0.905547
116, 1, wb, attraction, a-b-da, 2, 3, 2, 33, 195, 120, 193, 119, 120, 195, 3, 0.395864
116, 1, wb, attraction, a-b-da, 5, 1, 2, 34, 132, 58, 60, 135, 135, 60, 1, 0.825663
116, 1, wb, attraction, a-b-da, 5, 1, 2, 34, 132, 58, 60, 135, 135, 60, 3, 0.695399
116, 1, wb, attraction, a-b-db, 5, 2, 2, 35, 88, 161, 165, 90, 90, 165, 1, 0.897101
116, 1, wb, attraction, a-b-db, 5, 2, 2, 35, 88, 161, 165, 90, 90, 165, 3, 0.628133
116, 1, wb, filler, NA, 999, 999, 2, 36, 136, 176, 66, 145, 160, 89, 2, 1.22462
116, 1, wb, filler, NA, 999, 999, 2, 36, 136, 176, 66, 145, 160, 89, 1, 0.630209
116, 1, wb, attraction, a-b-da, 9, 2, 2, 37, 90, 165, 157, 86, 165, 90, 1, 21.8346
116, 1, wb, attraction, a-b-da, 9, 2, 2, 37, 90, 165, 157, 86, 165, 90, 3, 1.00175
116, 1, wb, catch, NA, 999, 999, 3, 1, 90, 105, 91, 164, 137, 178, 1, 0.439368
116, 1, wb, catch, NA, 999, 999, 3, 1, 90, 105, 91, 164, 137, 178, 3, 0.844542
116, 1, wb, attraction, a-b-db, 5, 1, 3, 2, 58, 132, 60, 135, 135, 60, 1, 0.552256
116, 1, wb, attraction, a-b-db, 5, 1, 3, 2, 58, 132, 60, 135, 135, 60, 3, 1.09893
116, 1, wb, attraction, a-b-da, 5, 1, 3, 3, 60, 135, 135, 60, 132, 58, 1, 0.506911
116, 1, wb, attraction, a-b-da, 5, 1, 3, 3, 60, 135, 135, 60, 132, 58, 3, 0.733468
116, 1, wb, attraction, a-b-da, 14, 3, 3, 4, 195, 120, 120, 195, 181, 111, 1, 2.08578
116, 1, wb, attraction, a-b-da, 14, 3, 3, 4, 195, 120, 120, 195, 181, 111, 3, 1.52919
116, 1, wb, attraction, a-b-da, 5, 3, 3, 5, 190, 117, 195, 120, 120, 195, 2, 0.673231
116, 1, wb, attraction, a-b-da, 5, 3, 3, 5, 190, 117, 195, 120, 120, 195, 3, 0.596977
116, 1, wb, attraction, a-b-da, 2, 1, 3, 6, 134, 59, 135, 60, 60, 135, 1, 0.618849
116, 1, wb, attraction, a-b-da, 2, 1, 3, 6, 134, 59, 135, 60, 60, 135, 3, 0.55323
116, 1, wb, attraction, a-b-db, 14, 2, 3, 7, 165, 90, 83, 153, 90, 165, 1, 0.488962
116, 1, wb, attraction, a-b-db, 14, 2, 3, 7, 165, 90, 83, 153, 90, 165, 3, 0.732169
116, 1, wb, filler, NA, 999, 999, 3, 8, 114, 110, 147, 78, 65, 72, 3, 1.66058
116, 1, wb, filler, NA, 999, 999, 3, 8, 114, 110, 147, 78, 65, 72, 1, 0.71258
116, 1, wb, attraction, a-b-da, 2, 2, 3, 9, 90, 165, 163, 89, 165, 90, 1, 1.19371
116, 1, wb, attraction, a-b-da, 2, 2, 3, 9, 90, 165, 163, 89, 165, 90, 3, 0.576656
116, 1, wb, filler, NA, 999, 999, 3, 10, 134, 174, 62, 191, 89, 100, 3, 1.55906
116, 1, wb, filler, NA, 999, 999, 3, 10, 134, 174, 62, 191, 89, 100, 1, 0.879179
116, 1, wb, filler, NA, 999, 999, 3, 11, 162, 114, 131, 188, 143, 128, 1, 0.881469
116, 1, wb, filler, NA, 999, 999, 3, 11, 162, 114, 131, 188, 143, 128, 3, 0.781199
116, 1, wb, attraction, a-b-db, 5, 2, 3, 12, 165, 90, 90, 165, 88, 161, 1, 1.33957
116, 1, wb, attraction, a-b-db, 5, 2, 3, 12, 165, 90, 90, 165, 88, 161, 3, 1.2044
116, 1, wb, attraction, a-b-da, 9, 1, 3, 13, 60, 135, 135, 60, 129, 57, 1, 0.530023
116, 1, wb, attraction, a-b-da, 9, 1, 3, 13, 60, 135, 135, 60, 129, 57, 3, 0.996215
116, 1, wb, filler, NA, 999, 999, 3, 14, 61, 171, 130, 102, 142, 58, 1, 1.24943
116, 1, wb, filler, NA, 999, 999, 3, 14, 61, 171, 130, 102, 142, 58, 3, 0.934433
116, 1, wb, attraction, a-b-db, 5, 3, 3, 15, 195, 120, 120, 195, 117, 190, 1, 2.99878
116, 1, wb, attraction, a-b-db, 5, 3, 3, 15, 195, 120, 120, 195, 117, 190, 3, 0.653048
116, 1, wb, attraction, a-b-db, 14, 1, 3, 16, 60, 135, 135, 60, 56, 125, 1, 1.47283
116, 1, wb, attraction, a-b-db, 14, 1, 3, 16, 60, 135, 135, 60, 56, 125, 3, 0.692308
116, 1, wb, attraction, a-b-db, 9, 1, 3, 17, 135, 60, 60, 135, 57, 129, 1, 1.2461
116, 1, wb, attraction, a-b-db, 9, 1, 3, 17, 135, 60, 60, 135, 57, 129, 3, 0.755092
116, 1, wb, filler, NA, 999, 999, 3, 18, 174, 158, 94, 100, 105, 78, 2, 1.97073
116, 1, wb, filler, NA, 999, 999, 3, 18, 174, 158, 94, 100, 105, 78, 1, 0.682686
116, 1, wb, attraction, a-b-da, 5, 2, 3, 19, 90, 165, 165, 90, 161, 88, 1, 1.19713
116, 1, wb, attraction, a-b-da, 5, 2, 3, 19, 90, 165, 165, 90, 161, 88, 3, 0.756089
116, 1, wb, attraction, a-b-db, 14, 3, 3, 20, 120, 195, 195, 120, 111, 181, 1, 2.31575
116, 1, wb, attraction, a-b-db, 14, 3, 3, 20, 120, 195, 195, 120, 111, 181, 3, 0.725668
116, 1, wb, filler, NA, 999, 999, 3, 21, 91, 68, 170, 139, 182, 56, 1, 0.862012
116, 1, wb, filler, NA, 999, 999, 3, 21, 91, 68, 170, 139, 182, 56, 3, 0.914424
116, 1, wb, filler, NA, 999, 999, 3, 22, 100, 150, 129, 68, 188, 112, 2, 42.2355
116, 1, wb, filler, NA, 999, 999, 3, 22, 100, 150, 129, 68, 188, 112, 3, 1.0363
116, 1, wb, attraction, a-b-da, 9, 2, 3, 23, 157, 86, 90, 165, 165, 90, 1, 1.50444
116, 1, wb, attraction, a-b-da, 9, 2, 3, 23, 157, 86, 90, 165, 165, 90, 3, 0.7873
116, 1, wb, catch, NA, 999, 999, 3, 24, 154, 161, 110, 85, 91, 164, 2, 1.55375
116, 1, wb, catch, NA, 999, 999, 3, 24, 154, 161, 110, 85, 91, 164, 1, 0.834419
116, 1, wb, attraction, a-b-db, 9, 2, 3, 25, 165, 90, 86, 157, 90, 165, 1, 1.08681
116, 1, wb, attraction, a-b-db, 9, 2, 3, 25, 165, 90, 86, 157, 90, 165, 3, 0.666514
116, 1, wb, attraction, a-b-db, 2, 2, 3, 26, 90, 165, 89, 163, 165, 90, 1, 0.597531
116, 1, wb, attraction, a-b-db, 2, 2, 3, 26, 90, 165, 89, 163, 165, 90, 3, 0.748665
116, 1, wb, catch, NA, 999, 999, 3, 27, 182, 133, 113, 82, 142, 113, 2, 1.12434
116, 1, wb, catch, NA, 999, 999, 3, 27, 182, 133, 113, 82, 142, 113, 1, 0.726007
116, 1, wb, attraction, a-b-da, 14, 2, 3, 28, 153, 83, 90, 165, 165, 90, 2, 0.822501
116, 1, wb, attraction, a-b-da, 14, 2, 3, 28, 153, 83, 90, 165, 165, 90, 3, 1.7721
116, 1, wb, filler, NA, 999, 999, 3, 29, 119, 136, 119, 61, 194, 161, 2, 1.9388
116, 1, wb, filler, NA, 999, 999, 3, 29, 119, 136, 119, 61, 194, 161, 3, 1.63567
116, 1, wb, attraction, a-b-db, 2, 3, 3, 30, 120, 195, 119, 193, 195, 120, 2, 0.583642
116, 1, wb, attraction, a-b-db, 2, 3, 3, 30, 120, 195, 119, 193, 195, 120, 3, 2.15963
116, 1, wb, attraction, a-b-db, 2, 1, 3, 31, 59, 134, 135, 60, 60, 135, 2, 0.877955
116, 1, wb, attraction, a-b-db, 2, 1, 3, 31, 59, 134, 135, 60, 60, 135, 3, 0.63366
116, 1, wb, attraction, a-b-da, 9, 3, 3, 32, 120, 195, 195, 120, 186, 114, 2, 0.670129
116, 1, wb, attraction, a-b-da, 9, 3, 3, 32, 120, 195, 195, 120, 186, 114, 3, 0.802517
116, 1, wb, attraction, a-b-db, 9, 3, 3, 33, 195, 120, 120, 195, 114, 186, 2, 0.584154
116, 1, wb, attraction, a-b-db, 9, 3, 3, 33, 195, 120, 120, 195, 114, 186, 3, 0.679945
116, 1, wb, filler, NA, 999, 999, 3, 34, 72, 66, 116, 171, 72, 159, 1, 0.770398
116, 1, wb, filler, NA, 999, 999, 3, 34, 72, 66, 116, 171, 72, 159, 2, 0.530872
116, 1, wb, attraction, a-b-da, 2, 3, 3, 35, 195, 120, 120, 195, 193, 119, 2, 0.947318
116, 1, wb, attraction, a-b-da, 2, 3, 3, 35, 195, 120, 120, 195, 193, 119, 1, 0.476239
116, 1, wb, attraction, a-b-da, 14, 1, 3, 36, 125, 56, 135, 60, 60, 135, 2, 0.630785
116, 1, wb, attraction, a-b-da, 14, 1, 3, 36, 125, 56, 135, 60, 60, 135, 3, 0.604546
116, 1, wb, filler, NA, 999, 999, 3, 37, 111, 121, 104, 90, 141, 122, 2, 0.442244
116, 1, wb, filler, NA, 999, 999, 3, 37, 111, 121, 104, 90, 141, 122, 3, 0.815423
116, 1, wb, filler, NA, 999, 999, 4, 1, 136, 112, 142, 106, 143, 143, 2, 0.724438
116, 1, wb, filler, NA, 999, 999, 4, 1, 136, 112, 142, 106, 143, 143, 3, 0.574216
116, 1, wb, attraction, a-b-da, 5, 1, 4, 2, 135, 60, 60, 135, 132, 58, 2, 0.572618
116, 1, wb, attraction, a-b-da, 5, 1, 4, 2, 135, 60, 60, 135, 132, 58, 3, 0.644522
116, 1, wb, attraction, a-b-da, 2, 1, 4, 3, 60, 135, 134, 59, 135, 60, 2, 0.448081
116, 1, wb, attraction, a-b-da, 2, 1, 4, 3, 60, 135, 134, 59, 135, 60, 3, 0.90933
116, 1, wb, attraction, a-b-da, 9, 3, 4, 4, 186, 114, 195, 120, 120, 195, 2, 0.878277
116, 1, wb, attraction, a-b-da, 9, 3, 4, 4, 186, 114, 195, 120, 120, 195, 3, 0.426102
116, 1, wb, attraction, a-b-da, 5, 3, 4, 5, 190, 117, 195, 120, 120, 195, 2, 0.462499
116, 1, wb, attraction, a-b-da, 5, 3, 4, 5, 190, 117, 195, 120, 120, 195, 3, 0.483001
116, 1, wb, filler, NA, 999, 999, 4, 6, 167, 111, 143, 110, 113, 132, 3, 3.11755
116, 1, wb, filler, NA, 999, 999, 4, 6, 167, 111, 143, 110, 113, 132, 1, 0.591069
116, 1, wb, attraction, a-b-db, 2, 2, 4, 7, 90, 165, 165, 90, 89, 163, 2, 0.716774
116, 1, wb, attraction, a-b-db, 2, 2, 4, 7, 90, 165, 165, 90, 89, 163, 3, 0.663285
116, 1, wb, attraction, a-b-db, 2, 3, 4, 8, 119, 193, 120, 195, 195, 120, 2, 0.538266
116, 1, wb, attraction, a-b-db, 2, 3, 4, 8, 119, 193, 120, 195, 195, 120, 3, 0.675424
116, 1, wb, attraction, a-b-db, 5, 3, 4, 9, 120, 195, 117, 190, 195, 120, 2, 0.565905
116, 1, wb, attraction, a-b-db, 5, 3, 4, 9, 120, 195, 117, 190, 195, 120, 3, 0.670263
116, 1, wb, filler, NA, 999, 999, 4, 10, 174, 121, 170, 182, 129, 116, 3, 1.03337
116, 1, wb, filler, NA, 999, 999, 4, 10, 174, 121, 170, 182, 129, 116, 2, 0.615283
116, 1, wb, attraction, a-b-da, 5, 2, 4, 11, 161, 88, 165, 90, 90, 165, 1, 0.620094
116, 1, wb, attraction, a-b-da, 5, 2, 4, 11, 161, 88, 165, 90, 90, 165, 2, 0.554532
116, 1, wb, attraction, a-b-da, 14, 3, 4, 12, 120, 195, 181, 111, 195, 120, 1, 0.794391
116, 1, wb, attraction, a-b-da, 14, 3, 4, 12, 120, 195, 181, 111, 195, 120, 2, 0.777579
116, 1, wb, attraction, a-b-db, 5, 1, 4, 13, 60, 135, 135, 60, 58, 132, 1, 0.503739
116, 1, wb, attraction, a-b-db, 5, 1, 4, 13, 60, 135, 135, 60, 58, 132, 2, 0.602921
116, 1, wb, attraction, a-b-db, 9, 2, 4, 14, 86, 157, 90, 165, 165, 90, 1, 0.496606
116, 1, wb, attraction, a-b-db, 9, 2, 4, 14, 86, 157, 90, 165, 165, 90, 2, 0.51595
116, 1, wb, attraction, a-b-db, 9, 1, 4, 15, 135, 60, 60, 135, 57, 129, 1, 0.468922
116, 1, wb, attraction, a-b-db, 9, 1, 4, 15, 135, 60, 60, 135, 57, 129, 2, 0.48139
116, 1, wb, attraction, a-b-da, 9, 2, 4, 16, 157, 86, 165, 90, 90, 165, 1, 0.403795
116, 1, wb, attraction, a-b-da, 9, 2, 4, 16, 157, 86, 165, 90, 90, 165, 2, 0.467069
116, 1, wb, catch, NA, 999, 999, 4, 17, 106, 89, 173, 142, 118, 137, 1, 0.750269
116, 1, wb, catch, NA, 999, 999, 4, 17, 106, 89, 173, 142, 118, 137, 2, 0.703298
116, 1, wb, attraction, a-b-da, 2, 3, 4, 18, 193, 119, 120, 195, 195, 120, 1, 0.696979
116, 1, wb, attraction, a-b-da, 2, 3, 4, 18, 193, 119, 120, 195, 195, 120, 2, 1.34024
116, 1, wb, filler, NA, 999, 999, 4, 19, 85, 195, 152, 185, 120, 153, 1, 0.627743
116, 1, wb, filler, NA, 999, 999, 4, 19, 85, 195, 152, 185, 120, 153, 2, 0.529476
116, 1, wb, catch, NA, 999, 999, 4, 20, 119, 136, 123, 72, 150, 165, 2, 1.3781
116, 1, wb, catch, NA, 999, 999, 4, 20, 119, 136, 123, 72, 150, 165, 3, 1.40133
116, 1, wb, attraction, a-b-da, 9, 1, 4, 21, 60, 135, 129, 57, 135, 60, 2, 0.718821
116, 1, wb, attraction, a-b-da, 9, 1, 4, 21, 60, 135, 129, 57, 135, 60, 3, 0.745362
116, 1, wb, filler, NA, 999, 999, 4, 22, 173, 116, 108, 115, 65, 145, 3, 1.12103
116, 1, wb, filler, NA, 999, 999, 4, 22, 173, 116, 108, 115, 65, 145, 1, 1.42657
116, 1, wb, attraction, a-b-db, 14, 1, 4, 23, 135, 60, 60, 135, 56, 125, 2, 0.998731
116, 1, wb, attraction, a-b-db, 14, 1, 4, 23, 135, 60, 60, 135, 56, 125, 1, 1.06181
116, 1, wb, attraction, a-b-da, 2, 2, 4, 24, 163, 89, 90, 165, 165, 90, 2, 1.58469
116, 1, wb, attraction, a-b-da, 2, 2, 4, 24, 163, 89, 90, 165, 165, 90, 1, 0.632206
116, 1, wb, attraction, a-b-db, 14, 2, 4, 25, 83, 153, 90, 165, 165, 90, 2, 0.740786
116, 1, wb, attraction, a-b-db, 14, 2, 4, 25, 83, 153, 90, 165, 165, 90, 3, 0.79765
116, 1, wb, filler, NA, 999, 999, 4, 26, 111, 146, 171, 180, 170, 122, 1, 1.12345
116, 1, wb, filler, NA, 999, 999, 4, 26, 111, 146, 171, 180, 170, 122, 2, 0.573105
116, 1, wb, attraction, a-b-da, 14, 1, 4, 27, 60, 135, 135, 60, 125, 56, 3, 0.796196
116, 1, wb, attraction, a-b-da, 14, 1, 4, 27, 60, 135, 135, 60, 125, 56, 2, 1.22719
116, 1, wb, filler, NA, 999, 999, 4, 28, 98, 86, 95, 115, 106, 163, 1, 0.695444
116, 1, wb, filler, NA, 999, 999, 4, 28, 98, 86, 95, 115, 106, 163, 3, 1.01046
116, 1, wb, catch, NA, 999, 999, 4, 29, 154, 101, 62, 133, 138, 177, 2, 1.47943
116, 1, wb, catch, NA, 999, 999, 4, 29, 154, 101, 62, 133, 138, 177, 3, 0.442964
116, 1, wb, filler, NA, 999, 999, 4, 30, 73, 136, 165, 146, 133, 149, 1, 0.782869
116, 1, wb, filler, NA, 999, 999, 4, 30, 73, 136, 165, 146, 133, 149, 2, 0.478491
116, 1, wb, attraction, a-b-db, 2, 1, 4, 31, 59, 134, 60, 135, 135, 60, 1, 0.760966
116, 1, wb, attraction, a-b-db, 2, 1, 4, 31, 59, 134, 60, 135, 135, 60, 2, 0.417411
116, 1, wb, filler, NA, 999, 999, 4, 32, 117, 127, 165, 179, 121, 179, 1, 2.99864
116, 1, wb, filler, NA, 999, 999, 4, 32, 117, 127, 165, 179, 121, 179, 2, 0.732889
116, 1, wb, attraction, a-b-db, 9, 3, 4, 33, 114, 186, 195, 120, 120, 195, 1, 0.669344
116, 1, wb, attraction, a-b-db, 9, 3, 4, 33, 114, 186, 195, 120, 120, 195, 2, 1.3697
116, 1, wb, attraction, a-b-da, 14, 2, 4, 34, 153, 83, 90, 165, 165, 90, 1, 0.600491
116, 1, wb, attraction, a-b-da, 14, 2, 4, 34, 153, 83, 90, 165, 165, 90, 2, 2.07168
116, 1, wb, attraction, a-b-db, 5, 2, 4, 35, 90, 165, 165, 90, 88, 161, 1, 0.650263
116, 1, wb, attraction, a-b-db, 5, 2, 4, 35, 90, 165, 165, 90, 88, 161, 2, 0.959383
116, 1, wb, filler, NA, 999, 999, 4, 36, 147, 87, 173, 110, 192, 177, 1, 1.6623
116, 1, wb, filler, NA, 999, 999, 4, 36, 147, 87, 173, 110, 192, 177, 3, 0.55441
116, 1, wb, attraction, a-b-db, 14, 3, 4, 37, 120, 195, 195, 120, 111, 181, 1, 0.770135
116, 1, wb, attraction, a-b-db, 14, 3, 4, 37, 120, 195, 195, 120, 111, 181, 2, 0.834592
116, 1, wb, attraction, a-b-db, 9, 3, 5, 1, 114, 186, 120, 195, 195, 120, 2, 36.5336
116, 1, wb, attraction, a-b-db, 9, 3, 5, 1, 114, 186, 120, 195, 195, 120, 3, 0.484198
116, 1, wb, attraction, a-b-db, 9, 1, 5, 2, 57, 129, 60, 135, 135, 60, 1, 0.622704
116, 1, wb, attraction, a-b-db, 9, 1, 5, 2, 57, 129, 60, 135, 135, 60, 2, 0.412626
116, 1, wb, filler, NA, 999, 999, 5, 3, 88, 102, 132, 87, 126, 151, 1, 0.737597
116, 1, wb, filler, NA, 999, 999, 5, 3, 88, 102, 132, 87, 126, 151, 3, 0.570568
116, 1, wb, attraction, a-b-db, 14, 2, 5, 4, 165, 90, 90, 165, 83, 153, 2, 0.849708
116, 1, wb, attraction, a-b-db, 14, 2, 5, 4, 165, 90, 90, 165, 83, 153, 3, 0.534791
116, 1, wb, filler, NA, 999, 999, 5, 5, 154, 59, 174, 175, 186, 57, 1, 0.751199
116, 1, wb, filler, NA, 999, 999, 5, 5, 154, 59, 174, 175, 186, 57, 2, 0.440351
116, 1, wb, filler, NA, 999, 999, 5, 6, 165, 177, 129, 174, 81, 151, 3, 1.07618
116, 1, wb, filler, NA, 999, 999, 5, 6, 165, 177, 129, 174, 81, 151, 1, 0.687666
116, 1, wb, attraction, a-b-da, 9, 3, 5, 7, 186, 114, 120, 195, 195, 120, 1, 0.978021
116, 1, wb, attraction, a-b-da, 9, 3, 5, 7, 186, 114, 120, 195, 195, 120, 2, 0.3859
116, 1, wb, attraction, a-b-da, 14, 3, 5, 8, 195, 120, 181, 111, 120, 195, 1, 0.440309
116, 1, wb, attraction, a-b-da, 14, 3, 5, 8, 195, 120, 181, 111, 120, 195, 2, 0.453379
116, 1, wb, attraction, a-b-da, 14, 2, 5, 9, 153, 83, 165, 90, 90, 165, 1, 0.801217
116, 1, wb, attraction, a-b-da, 14, 2, 5, 9, 153, 83, 165, 90, 90, 165, 2, 0.680352
116, 1, wb, attraction, a-b-da, 9, 1, 5, 10, 129, 57, 135, 60, 60, 135, 1, 0.346652
116, 1, wb, attraction, a-b-da, 9, 1, 5, 10, 129, 57, 135, 60, 60, 135, 2, 0.627891
116, 1, wb, filler, NA, 999, 999, 5, 11, 177, 79, 108, 157, 56, 61, 3, 1.40023
116, 1, wb, filler, NA, 999, 999, 5, 11, 177, 79, 108, 157, 56, 61, 2, 0.455175
116, 1, wb, filler, NA, 999, 999, 5, 12, 164, 74, 119, 157, 193, 119, 1, 0.562958
116, 1, wb, filler, NA, 999, 999, 5, 12, 164, 74, 119, 157, 193, 119, 2, 0.427495
116, 1, wb, attraction, a-b-db, 5, 3, 5, 13, 195, 120, 117, 190, 120, 195, 1, 1.19191
116, 1, wb, attraction, a-b-db, 5, 3, 5, 13, 195, 120, 117, 190, 120, 195, 2, 0.518876
116, 1, wb, attraction, a-b-da, 5, 1, 5, 14, 60, 135, 135, 60, 132, 58, 1, 0.559878
116, 1, wb, attraction, a-b-da, 5, 1, 5, 14, 60, 135, 135, 60, 132, 58, 2, 0.784317
116, 1, wb, catch, NA, 999, 999, 5, 15, 165, 90, 76, 119, 142, 173, 1, 0.694739
116, 1, wb, catch, NA, 999, 999, 5, 15, 165, 90, 76, 119, 142, 173, 2, 0.665909
116, 1, wb, attraction, a-b-da, 5, 2, 5, 16, 165, 90, 90, 165, 161, 88, 3, 1.62904
116, 1, wb, attraction, a-b-da, 5, 2, 5, 16, 165, 90, 90, 165, 161, 88, 2, 0.546556
116, 1, wb, filler, NA, 999, 999, 5, 17, 66, 139, 73, 73, 78, 110, 2, 0.746132
116, 1, wb, filler, NA, 999, 999, 5, 17, 66, 139, 73, 73, 78, 110, 1, 0.459315
116, 1, wb, filler, NA, 999, 999, 5, 18, 142, 136, 113, 143, 104, 149, 2, 0.694384
116, 1, wb, filler, NA, 999, 999, 5, 18, 142, 136, 113, 143, 104, 149, 1, 0.569688
116, 1, wb, attraction, a-b-da, 14, 1, 5, 19, 125, 56, 60, 135, 135, 60, 2, 0.624555
116, 1, wb, attraction, a-b-da, 14, 1, 5, 19, 125, 56, 60, 135, 135, 60, 1, 0.598292
116, 1, wb, attraction, a-b-db, 14, 1, 5, 20, 56, 125, 135, 60, 60, 135, 1, 1.17212
116, 1, wb, attraction, a-b-db, 14, 1, 5, 20, 56, 125, 135, 60, 60, 135, 2, 1.47576
116, 1, wb, attraction, a-b-da, 5, 3, 5, 21, 195, 120, 190, 117, 120, 195, 1, 0.693904
116, 1, wb, attraction, a-b-da, 5, 3, 5, 21, 195, 120, 190, 117, 120, 195, 2, 0.512939
116, 1, wb, attraction, a-b-db, 2, 1, 5, 22, 60, 135, 59, 134, 135, 60, 1, 0.658011
116, 1, wb, attraction, a-b-db, 2, 1, 5, 22, 60, 135, 59, 134, 135, 60, 2, 0.606575
116, 1, wb, filler, NA, 999, 999, 5, 23, 65, 137, 57, 61, 192, 92, 2, 0.972304
116, 1, wb, filler, NA, 999, 999, 5, 23, 65, 137, 57, 61, 192, 92, 3, 0.691864
116, 1, wb, attraction, a-b-db, 14, 3, 5, 24, 120, 195, 195, 120, 111, 181, 2, 0.741714
116, 1, wb, attraction, a-b-db, 14, 3, 5, 24, 120, 195, 195, 120, 111, 181, 3, 0.614661
116, 1, wb, catch, NA, 999, 999, 5, 25, 181, 134, 95, 100, 143, 112, 2, 0.627711
116, 1, wb, catch, NA, 999, 999, 5, 25, 181, 134, 95, 100, 143, 112, 3, 0.409594
116, 1, wb, attraction, a-b-db, 5, 2, 5, 26, 165, 90, 90, 165, 88, 161, 2, 0.486595
116, 1, wb, attraction, a-b-db, 5, 2, 5, 26, 165, 90, 90, 165, 88, 161, 3, 0.466599
116, 1, wb, attraction, a-b-da, 2, 1, 5, 27, 135, 60, 60, 135, 134, 59, 2, 0.50965
116, 1, wb, attraction, a-b-da, 2, 1, 5, 27, 135, 60, 60, 135, 134, 59, 3, 0.46417
116, 1, wb, attraction, a-b-db, 5, 1, 5, 28, 58, 132, 60, 135, 135, 60, 2, 0.579302
116, 1, wb, attraction, a-b-db, 5, 1, 5, 28, 58, 132, 60, 135, 135, 60, 3, 0.715098
116, 1, wb, attraction, a-b-da, 2, 3, 5, 29, 120, 195, 193, 119, 195, 120, 2, 0.684155
116, 1, wb, attraction, a-b-da, 2, 3, 5, 29, 120, 195, 193, 119, 195, 120, 3, 0.447844
116, 1, wb, attraction, a-b-da, 2, 2, 5, 30, 163, 89, 165, 90, 90, 165, 2, 0.515588
116, 1, wb, attraction, a-b-da, 2, 2, 5, 30, 163, 89, 165, 90, 90, 165, 3, 0.45413
116, 1, wb, attraction, a-b-db, 2, 3, 5, 31, 120, 195, 195, 120, 119, 193, 2, 0.465917
116, 1, wb, attraction, a-b-db, 2, 3, 5, 31, 120, 195, 195, 120, 119, 193, 3, 0.454512
116, 1, wb, catch, NA, 999, 999, 5, 32, 72, 123, 115, 140, 140, 175, 2, 0.346169
116, 1, wb, catch, NA, 999, 999, 5, 32, 72, 123, 115, 140, 140, 175, 3, 1.54752
116, 1, wb, filler, NA, 999, 999, 5, 33, 104, 182, 160, 153, 76, 129, 3, 1.00287
116, 1, wb, filler, NA, 999, 999, 5, 33, 104, 182, 160, 153, 76, 129, 2, 0.954037
116, 1, wb, attraction, a-b-da, 9, 2, 5, 34, 157, 86, 90, 165, 165, 90, 1, 0.593479
116, 1, wb, attraction, a-b-da, 9, 2, 5, 34, 157, 86, 90, 165, 165, 90, 2, 0.704615
116, 1, wb, attraction, a-b-db, 2, 2, 5, 35, 89, 163, 90, 165, 165, 90, 1, 1.06648
116, 1, wb, attraction, a-b-db, 2, 2, 5, 35, 89, 163, 90, 165, 165, 90, 2, 0.70263
116, 1, wb, filler, NA, 999, 999, 5, 36, 181, 78, 140, 66, 162, 98, 1, 0.512399
116, 1, wb, filler, NA, 999, 999, 5, 36, 181, 78, 140, 66, 162, 98, 2, 0.706957
116, 1, wb, attraction, a-b-db, 9, 2, 5, 37, 165, 90, 90, 165, 86, 157, 1, 0.667914
116, 1, wb, attraction, a-b-db, 9, 2, 5, 37, 165, 90, 90, 165, 86, 157, 2, 0.552339
116, 1, wb, filler, NA, 999, 999, 6, 1, 171, 135, 186, 192, 115, 155, 3, 1.12023
116, 1, wb, filler, NA, 999, 999, 6, 1, 171, 135, 186, 192, 115, 155, 2, 0.562416
116, 1, wb, attraction, a-b-da, 14, 1, 6, 2, 135, 60, 125, 56, 60, 135, 1, 0.497504
116, 1, wb, attraction, a-b-da, 14, 1, 6, 2, 135, 60, 125, 56, 60, 135, 2, 0.772707
116, 1, wb, attraction, a-b-db, 14, 3, 6, 3, 111, 181, 195, 120, 120, 195, 1, 0.715818
116, 1, wb, attraction, a-b-db, 14, 3, 6, 3, 111, 181, 195, 120, 120, 195, 2, 0.39815
116, 1, wb, filler, NA, 999, 999, 6, 4, 93, 64, 121, 117, 148, 138, 1, 1.53998
116, 1, wb, filler, NA, 999, 999, 6, 4, 93, 64, 121, 117, 148, 138, 3, 1.43688
116, 1, wb, attraction, a-b-db, 14, 1, 6, 5, 135, 60, 56, 125, 60, 135, 2, 0.577014
116, 1, wb, attraction, a-b-db, 14, 1, 6, 5, 135, 60, 56, 125, 60, 135, 3, 0.640763
116, 1, wb, attraction, a-b-db, 9, 3, 6, 6, 114, 186, 120, 195, 195, 120, 2, 0.500533
116, 1, wb, attraction, a-b-db, 9, 3, 6, 6, 114, 186, 120, 195, 195, 120, 3, 0.663609
116, 1, wb, attraction, a-b-db, 2, 1, 6, 7, 135, 60, 60, 135, 59, 134, 2, 0.826824
116, 1, wb, attraction, a-b-db, 2, 1, 6, 7, 135, 60, 60, 135, 59, 134, 3, 0.536453
116, 1, wb, catch, NA, 999, 999, 6, 8, 108, 147, 150, 165, 71, 124, 2, 0.448838
116, 1, wb, catch, NA, 999, 999, 6, 8, 108, 147, 150, 165, 71, 124, 1, 3.94199
116, 1, wb, attraction, a-b-da, 5, 2, 6, 9, 90, 165, 165, 90, 161, 88, 2, 0.868717
116, 1, wb, attraction, a-b-da, 5, 2, 6, 9, 90, 165, 165, 90, 161, 88, 3, 0.681236
116, 1, wb, attraction, a-b-db, 5, 2, 6, 10, 165, 90, 88, 161, 90, 165, 2, 0.459474
116, 1, wb, attraction, a-b-db, 5, 2, 6, 10, 165, 90, 88, 161, 90, 165, 3, 0.624015
116, 1, wb, catch, NA, 999, 999, 6, 11, 140, 115, 140, 175, 116, 79, 3, 1.26841
116, 1, wb, catch, NA, 999, 999, 6, 11, 140, 115, 140, 175, 116, 79, 2, 2.30467
116, 1, wb, attraction, a-b-da, 14, 2, 6, 12, 90, 165, 153, 83, 165, 90, 2, 1.07389
116, 1, wb, attraction, a-b-da, 14, 2, 6, 12, 90, 165, 153, 83, 165, 90, 3, 1.30148
116, 1, wb, attraction, a-b-da, 9, 1, 6, 13, 60, 135, 129, 57, 135, 60, 1, 0.839031
116, 1, wb, attraction, a-b-da, 9, 1, 6, 13, 60, 135, 129, 57, 135, 60, 2, 0.556024
116, 1, wb, attraction, a-b-da, 2, 1, 6, 14, 60, 135, 134, 59, 135, 60, 1, 0.699766
116, 1, wb, attraction, a-b-da, 2, 1, 6, 14, 60, 135, 134, 59, 135, 60, 2, 2.77505
116, 1, wb, attraction, a-b-da, 9, 3, 6, 15, 195, 120, 186, 114, 120, 195, 1, 0.764694
116, 1, wb, attraction, a-b-da, 9, 3, 6, 15, 195, 120, 186, 114, 120, 195, 2, 0.845151
116, 1, wb, attraction, a-b-db, 2, 2, 6, 16, 90, 165, 165, 90, 89, 163, 1, 0.704806
116, 1, wb, attraction, a-b-db, 2, 2, 6, 16, 90, 165, 165, 90, 89, 163, 2, 0.699817
116, 1, wb, filler, NA, 999, 999, 6, 17, 68, 79, 101, 69, 67, 176, 1, 0.941807
116, 1, wb, filler, NA, 999, 999, 6, 17, 68, 79, 101, 69, 67, 176, 2, 0.622579
116, 1, wb, attraction, a-b-da, 5, 3, 6, 18, 120, 195, 195, 120, 190, 117, 1, 0.563603
116, 1, wb, attraction, a-b-da, 5, 3, 6, 18, 120, 195, 195, 120, 190, 117, 2, 0.700236
116, 1, wb, filler, NA, 999, 999, 6, 19, 94, 66, 76, 178, 137, 165, 1, 0.541854
116, 1, wb, filler, NA, 999, 999, 6, 19, 94, 66, 76, 178, 137, 165, 3, 0.910986
116, 1, wb, filler, NA, 999, 999, 6, 20, 85, 164, 165, 73, 65, 163, 1, 0.991976
116, 1, wb, filler, NA, 999, 999, 6, 20, 85, 164, 165, 73, 65, 163, 2, 0.615013
116, 1, wb, filler, NA, 999, 999, 6, 21, 118, 160, 114, 84, 84, 63, 3, 0.980185
116, 1, wb, filler, NA, 999, 999, 6, 21, 118, 160, 114, 84, 84, 63, 1, 0.667742
116, 1, wb, attraction, a-b-db, 14, 2, 6, 22, 83, 153, 90, 165, 165, 90, 1, 0.694797
116, 1, wb, attraction, a-b-db, 14, 2, 6, 22, 83, 153, 90, 165, 165, 90, 2, 0.402
116, 1, wb, attraction, a-b-db, 5, 3, 6, 23, 117, 190, 120, 195, 195, 120, 1, 0.47969
116, 1, wb, attraction, a-b-db, 5, 3, 6, 23, 117, 190, 120, 195, 195, 120, 2, 0.571569
116, 1, wb, attraction, a-b-da, 9, 2, 6, 24, 90, 165, 165, 90, 157, 86, 1, 0.450624
116, 1, wb, attraction, a-b-da, 9, 2, 6, 24, 90, 165, 165, 90, 157, 86, 2, 0.671787
116, 1, wb, attraction, a-b-db, 9, 2, 6, 25, 165, 90, 86, 157, 90, 165, 1, 0.506875
116, 1, wb, attraction, a-b-db, 9, 2, 6, 25, 165, 90, 86, 157, 90, 165, 2, 0.41336
116, 1, wb, attraction, a-b-db, 9, 1, 6, 26, 135, 60, 60, 135, 57, 129, 1, 0.426483
116, 1, wb, attraction, a-b-db, 9, 1, 6, 26, 135, 60, 60, 135, 57, 129, 2, 0.62446
116, 1, wb, filler, NA, 999, 999, 6, 27, 84, 111, 70, 171, 119, 125, 3, 2.48477
116, 1, wb, filler, NA, 999, 999, 6, 27, 84, 111, 70, 171, 119, 125, 2, 1.31196
116, 1, wb, attraction, a-b-da, 14, 3, 6, 28, 120, 195, 181, 111, 195, 120, 1, 0.568772
116, 1, wb, attraction, a-b-da, 14, 3, 6, 28, 120, 195, 181, 111, 195, 120, 2, 0.433177
116, 1, wb, catch, NA, 999, 999, 6, 29, 63, 132, 160, 95, 127, 188, 1, 0.965704
116, 1, wb, catch, NA, 999, 999, 6, 29, 63, 132, 160, 95, 127, 188, 3, 0.606039
116, 1, wb, attraction, a-b-da, 5, 1, 6, 30, 135, 60, 132, 58, 60, 135, 2, 0.979845
116, 1, wb, attraction, a-b-da, 5, 1, 6, 30, 135, 60, 132, 58, 60, 135, 3, 0.467542
116, 1, wb, filler, NA, 999, 999, 6, 31, 77, 145, 68, 140, 117, 98, 1, 0.606634
116, 1, wb, filler, NA, 999, 999, 6, 31, 77, 145, 68, 140, 117, 98, 3, 0.669038
116, 1, wb, attraction, a-b-da, 2, 2, 6, 32, 165, 90, 90, 165, 163, 89, 1, 0.504167
116, 1, wb, attraction, a-b-da, 2, 2, 6, 32, 165, 90, 90, 165, 163, 89, 2, 0.395357
116, 1, wb, filler, NA, 999, 999, 6, 33, 125, 178, 119, 134, 153, 151, 1, 0.45726
116, 1, wb, filler, NA, 999, 999, 6, 33, 125, 178, 119, 134, 153, 151, 2, 0.549605
116, 1, wb, attraction, a-b-da, 2, 3, 6, 34, 120, 195, 193, 119, 195, 120, 2, 0.893535
116, 1, wb, attraction, a-b-da, 2, 3, 6, 34, 120, 195, 193, 119, 195, 120, 1, 0.376456
116, 1, wb, attraction, a-b-db, 2, 3, 6, 35, 120, 195, 119, 193, 195, 120, 1, 1.13498
116, 1, wb, attraction, a-b-db, 2, 3, 6, 35, 120, 195, 119, 193, 195, 120, 2, 0.768514
116, 1, wb, filler, NA, 999, 999, 6, 36, 66, 72, 183, 66, 122, 177, 1, 0.751481
116, 1, wb, filler, NA, 999, 999, 6, 36, 66, 72, 183, 66, 122, 177, 3, 1.46469
116, 1, wb, attraction, a-b-db, 5, 1, 6, 37, 60, 135, 58, 132, 135, 60, 1, 1.35543
116, 1, wb, attraction, a-b-db, 5, 1, 6, 37, 60, 135, 58, 132, 135, 60, 2, 0.387782
116, 1, wb, filler, NA, 999, 999, 7, 1, 93, 144, 74, 185, 114, 104, 1, 1.9701
116, 1, wb, filler, NA, 999, 999, 7, 1, 93, 144, 74, 185, 114, 104, 2, 1.43424
116, 1, wb, attraction, a-b-da, 14, 2, 7, 2, 90, 165, 153, 83, 165, 90, 1, 1.06245
116, 1, wb, attraction, a-b-da, 14, 2, 7, 2, 90, 165, 153, 83, 165, 90, 2, 0.650693
116, 1, wb, attraction, a-b-da, 9, 2, 7, 3, 157, 86, 165, 90, 90, 165, 1, 0.422388
116, 1, wb, attraction, a-b-da, 9, 2, 7, 3, 157, 86, 165, 90, 90, 165, 2, 0.524297
116, 1, wb, catch, NA, 999, 999, 7, 4, 75, 120, 91, 164, 137, 178, 1, 1.30068
116, 1, wb, catch, NA, 999, 999, 7, 4, 75, 120, 91, 164, 137, 178, 3, 0.759584
116, 1, wb, attraction, a-b-da, 14, 1, 7, 5, 125, 56, 60, 135, 135, 60, 1, 0.630576
116, 1, wb, attraction, a-b-da, 14, 1, 7, 5, 125, 56, 60, 135, 135, 60, 2, 0.420371
116, 1, wb, attraction, a-b-db, 9, 1, 7, 6, 57, 129, 135, 60, 60, 135, 1, 0.473459
116, 1, wb, attraction, a-b-db, 9, 1, 7, 6, 57, 129, 135, 60, 60, 135, 2, 1.1335
116, 1, wb, attraction, a-b-db, 9, 2, 7, 7, 86, 157, 165, 90, 90, 165, 1, 0.429635
116, 1, wb, attraction, a-b-db, 9, 2, 7, 7, 86, 157, 165, 90, 90, 165, 2, 0.39543
116, 1, wb, attraction, a-b-da, 9, 1, 7, 8, 60, 135, 129, 57, 135, 60, 1, 0.82531
116, 1, wb, attraction, a-b-da, 9, 1, 7, 8, 60, 135, 129, 57, 135, 60, 2, 0.798954
116, 1, wb, filler, NA, 999, 999, 7, 9, 185, 57, 64, 165, 159, 74, 2, 1.70062
116, 1, wb, filler, NA, 999, 999, 7, 9, 185, 57, 64, 165, 159, 74, 3, 2.4074
116, 1, wb, attraction, a-b-da, 2, 3, 7, 10, 120, 195, 195, 120, 193, 119, 1, 0.531842
116, 1, wb, attraction, a-b-da, 2, 3, 7, 10, 120, 195, 195, 120, 193, 119, 2, 0.389695
116, 1, wb, catch, NA, 999, 999, 7, 11, 134, 121, 191, 124, 115, 80, 1, 0.444205
116, 1, wb, catch, NA, 999, 999, 7, 11, 134, 121, 191, 124, 115, 80, 2, 0.385565
116, 1, wb, attraction, a-b-da, 9, 3, 7, 12, 120, 195, 195, 120, 186, 114, 1, 1.27982
116, 1, wb, attraction, a-b-da, 9, 3, 7, 12, 120, 195, 195, 120, 186, 114, 2, 0.45944
116, 1, wb, filler, NA, 999, 999, 7, 13, 118, 169, 75, 56, 86, 112, 2, 1.02251
116, 1, wb, filler, NA, 999, 999, 7, 13, 118, 169, 75, 56, 86, 112, 1, 0.516255
116, 1, wb, attraction, a-b-db, 14, 2, 7, 14, 165, 90, 90, 165, 83, 153, 1, 0.789501
116, 1, wb, attraction, a-b-db, 14, 2, 7, 14, 165, 90, 90, 165, 83, 153, 2, 0.56436
116, 1, wb, attraction, a-b-da, 2, 2, 7, 15, 90, 165, 165, 90, 163, 89, 1, 0.875425
116, 1, wb, attraction, a-b-da, 2, 2, 7, 15, 90, 165, 165, 90, 163, 89, 2, 0.463308
116, 1, wb, filler, NA, 999, 999, 7, 16, 176, 178, 112, 60, 85, 183, 2, 1.10626
116, 1, wb, filler, NA, 999, 999, 7, 16, 176, 178, 112, 60, 85, 183, 1, 0.804616
116, 1, wb, filler, NA, 999, 999, 7, 17, 106, 99, 103, 174, 153, 142, 1, 1.7223
116, 1, wb, filler, NA, 999, 999, 7, 17, 106, 99, 103, 174, 153, 142, 3, 0.691766
116, 1, wb, attraction, a-b-db, 9, 3, 7, 18, 120, 195, 114, 186, 195, 120, 1, 2.13358
116, 1, wb, attraction, a-b-db, 9, 3, 7, 18, 120, 195, 114, 186, 195, 120, 3, 0.99883
116, 1, wb, filler, NA, 999, 999, 7, 19, 83, 141, 70, 82, 62, 184, 2, 1.05249
116, 1, wb, filler, NA, 999, 999, 7, 19, 83, 141, 70, 82, 62, 184, 1, 0.921432
116, 1, wb, attraction, a-b-da, 5, 1, 7, 20, 60, 135, 135, 60, 132, 58, 1, 1.14412
116, 1, wb, attraction, a-b-da, 5, 1, 7, 20, 60, 135, 135, 60, 132, 58, 2, 0.555381
116, 1, wb, attraction, a-b-db, 5, 1, 7, 21, 58, 132, 135, 60, 60, 135, 1, 0.827125
116, 1, wb, attraction, a-b-db, 5, 1, 7, 21, 58, 132, 135, 60, 60, 135, 2, 0.448821
116, 1, wb, filler, NA, 999, 999, 7, 22, 147, 74, 79, 70, 111, 87, 2, 0.988545
116, 1, wb, filler, NA, 999, 999, 7, 22, 147, 74, 79, 70, 111, 87, 1, 0.499762
116, 1, wb, attraction, a-b-db, 5, 3, 7, 23, 195, 120, 120, 195, 117, 190, 2, 0.533488
116, 1, wb, attraction, a-b-db, 5, 3, 7, 23, 195, 120, 120, 195, 117, 190, 1, 0.455241
116, 1, wb, filler, NA, 999, 999, 7, 24, 149, 76, 189, 76, 81, 169, 1, 0.730966
116, 1, wb, filler, NA, 999, 999, 7, 24, 149, 76, 189, 76, 81, 169, 2, 1.09277
116, 1, wb, attraction, a-b-db, 2, 1, 7, 25, 135, 60, 60, 135, 59, 134, 1, 0.550403
116, 1, wb, attraction, a-b-db, 2, 1, 7, 25, 135, 60, 60, 135, 59, 134, 2, 0.591568
116, 1, wb, attraction, a-b-da, 5, 2, 7, 26, 90, 165, 165, 90, 161, 88, 1, 0.405199
116, 1, wb, attraction, a-b-da, 5, 2, 7, 26, 90, 165, 165, 90, 161, 88, 2, 0.507748
116, 1, wb, attraction, a-b-da, 2, 1, 7, 27, 135, 60, 134, 59, 60, 135, 1, 0.38078
116, 1, wb, attraction, a-b-da, 2, 1, 7, 27, 135, 60, 134, 59, 60, 135, 2, 0.804734
116, 1, wb, attraction, a-b-db, 2, 2, 7, 28, 89, 163, 165, 90, 90, 165, 1, 0.618388
116, 1, wb, attraction, a-b-db, 2, 2, 7, 28, 89, 163, 165, 90, 90, 165, 2, 0.864865
116, 1, wb, attraction, a-b-db, 2, 3, 7, 29, 195, 120, 119, 193, 120, 195, 1, 1.25988
116, 1, wb, attraction, a-b-db, 2, 3, 7, 29, 195, 120, 119, 193, 120, 195, 2, 0.616245
116, 1, wb, attraction, a-b-da, 14, 3, 7, 30, 181, 111, 195, 120, 120, 195, 1, 0.397237
116, 1, wb, attraction, a-b-da, 14, 3, 7, 30, 181, 111, 195, 120, 120, 195, 2, 0.540389
116, 1, wb, catch, NA, 999, 999, 7, 31, 162, 153, 72, 123, 137, 118, 1, 0.492093
116, 1, wb, catch, NA, 999, 999, 7, 31, 162, 153, 72, 123, 137, 118, 2, 2.49529
116, 1, wb, attraction, a-b-db, 14, 3, 7, 32, 111, 181, 195, 120, 120, 195, 2, 0.896469
116, 1, wb, attraction, a-b-db, 14, 3, 7, 32, 111, 181, 195, 120, 120, 195, 1, 0.475506
116, 1, wb, filler, NA, 999, 999, 7, 33, 153, 175, 94, 117, 128, 188, 2, 0.821904
116, 1, wb, filler, NA, 999, 999, 7, 33, 153, 175, 94, 117, 128, 188, 1, 0.579597
116, 1, wb, filler, NA, 999, 999, 7, 34, 148, 146, 168, 126, 114, 129, 3, 1.75405
116, 1, wb, filler, NA, 999, 999, 7, 34, 148, 146, 168, 126, 114, 129, 2, 0.562817
116, 1, wb, attraction, a-b-da, 5, 3, 7, 35, 120, 195, 190, 117, 195, 120, 1, 0.802026
116, 1, wb, attraction, a-b-da, 5, 3, 7, 35, 120, 195, 190, 117, 195, 120, 2, 0.416967
116, 1, wb, attraction, a-b-db, 14, 1, 7, 36, 56, 125, 60, 135, 135, 60, 1, 0.510162
116, 1, wb, attraction, a-b-db, 14, 1, 7, 36, 56, 125, 60, 135, 135, 60, 2, 0.584631
116, 1, wb, attraction, a-b-db, 5, 2, 7, 37, 90, 165, 88, 161, 165, 90, 1, 0.48703
116, 1, wb, attraction, a-b-db, 5, 2, 7, 37, 90, 165, 88, 161, 165, 90, 2, 0.498916
116, 1, wb, attraction, a-b-da, 5, 3, 8, 1, 195, 120, 120, 195, 190, 117, 1, 0.372752
116, 1, wb, attraction, a-b-da, 5, 3, 8, 1, 195, 120, 120, 195, 190, 117, 2, 0.58854
116, 1, wb, filler, NA, 999, 999, 8, 2, 159, 184, 103, 183, 57, 116, 3, 1.23497
116, 1, wb, filler, NA, 999, 999, 8, 2, 159, 184, 103, 183, 57, 116, 1, 0.488533
116, 1, wb, filler, NA, 999, 999, 8, 3, 111, 131, 173, 99, 184, 138, 1, 1.05102
116, 1, wb, filler, NA, 999, 999, 8, 3, 111, 131, 173, 99, 184, 138, 3, 0.496071
116, 1, wb, attraction, a-b-db, 14, 1, 8, 4, 135, 60, 56, 125, 60, 135, 1, 1.50575
116, 1, wb, attraction, a-b-db, 14, 1, 8, 4, 135, 60, 56, 125, 60, 135, 2, 0.48392
116, 1, wb, attraction, a-b-db, 14, 3, 8, 5, 195, 120, 111, 181, 120, 195, 1, 1.28647
116, 1, wb, attraction, a-b-db, 14, 3, 8, 5, 195, 120, 111, 181, 120, 195, 2, 0.51401
116, 1, wb, filler, NA, 999, 999, 8, 6, 146, 121, 98, 161, 182, 138, 2, 1.85908
116, 1, wb, filler, NA, 999, 999, 8, 6, 146, 121, 98, 161, 182, 138, 1, 0.703153
116, 1, wb, attraction, a-b-db, 14, 2, 8, 7, 90, 165, 165, 90, 83, 153, 1, 1.01691
116, 1, wb, attraction, a-b-db, 14, 2, 8, 7, 90, 165, 165, 90, 83, 153, 2, 0.583201
116, 1, wb, catch, NA, 999, 999, 8, 8, 127, 128, 122, 193, 112, 83, 3, 1.16579
116, 1, wb, catch, NA, 999, 999, 8, 8, 127, 128, 122, 193, 112, 83, 2, 0.861903
116, 1, wb, filler, NA, 999, 999, 8, 9, 143, 75, 154, 73, 182, 91, 1, 0.496803
116, 1, wb, filler, NA, 999, 999, 8, 9, 143, 75, 154, 73, 182, 91, 2, 0.412032
116, 1, wb, attraction, a-b-da, 14, 2, 8, 10, 165, 90, 153, 83, 90, 165, 1, 0.505408
116, 1, wb, attraction, a-b-da, 14, 2, 8, 10, 165, 90, 153, 83, 90, 165, 2, 0.467683
116, 1, wb, attraction, a-b-db, 5, 3, 8, 11, 195, 120, 120, 195, 117, 190, 1, 0.438806
116, 1, wb, attraction, a-b-db, 5, 3, 8, 11, 195, 120, 120, 195, 117, 190, 2, 0.691928
116, 1, wb, attraction, a-b-da, 9, 2, 8, 12, 90, 165, 157, 86, 165, 90, 1, 0.485622
116, 1, wb, attraction, a-b-da, 9, 2, 8, 12, 90, 165, 157, 86, 165, 90, 2, 0.801622
116, 1, wb, attraction, a-b-da, 2, 3, 8, 13, 195, 120, 193, 119, 120, 195, 1, 0.41525
116, 1, wb, attraction, a-b-da, 2, 3, 8, 13, 195, 120, 193, 119, 120, 195, 2, 0.397645
116, 1, wb, attraction, a-b-db, 2, 1, 8, 14, 135, 60, 60, 135, 59, 134, 1, 0.507479
116, 1, wb, attraction, a-b-db, 2, 1, 8, 14, 135, 60, 60, 135, 59, 134, 2, 0.581998
116, 1, wb, attraction, a-b-da, 9, 1, 8, 15, 129, 57, 60, 135, 135, 60, 1, 0.468514
116, 1, wb, attraction, a-b-da, 9, 1, 8, 15, 129, 57, 60, 135, 135, 60, 2, 0.744905
116, 1, wb, filler, NA, 999, 999, 8, 16, 194, 175, 138, 57, 154, 126, 2, 2.03271
116, 1, wb, filler, NA, 999, 999, 8, 16, 194, 175, 138, 57, 154, 126, 1, 0.566139
116, 1, wb, filler, NA, 999, 999, 8, 17, 128, 176, 108, 107, 74, 146, 3, 2.36523
116, 1, wb, filler, NA, 999, 999, 8, 17, 128, 176, 108, 107, 74, 146, 1, 0.620995
116, 1, wb, attraction, a-b-da, 2, 1, 8, 18, 134, 59, 60, 135, 135, 60, 1, 0.906039
116, 1, wb, attraction, a-b-da, 2, 1, 8, 18, 134, 59, 60, 135, 135, 60, 2, 0.396413
116, 1, wb, catch, NA, 999, 999, 8, 19, 138, 117, 163, 152, 81, 114, 3, 1.11419
116, 1, wb, catch, NA, 999, 999, 8, 19, 138, 117, 163, 152, 81, 114, 2, 0.636533
116, 1, wb, attraction, a-b-db, 5, 1, 8, 20, 135, 60, 60, 135, 58, 132, 1, 0.832997
116, 1, wb, attraction, a-b-db, 5, 1, 8, 20, 135, 60, 60, 135, 58, 132, 2, 0.854644
116, 1, wb, attraction, a-b-da, 9, 3, 8, 21, 195, 120, 120, 195, 186, 114, 1, 0.442238
116, 1, wb, attraction, a-b-da, 9, 3, 8, 21, 195, 120, 120, 195, 186, 114, 2, 0.759549
116, 1, wb, attraction, a-b-db, 9, 1, 8, 22, 57, 129, 135, 60, 60, 135, 1, 0.398549
116, 1, wb, attraction, a-b-db, 9, 1, 8, 22, 57, 129, 135, 60, 60, 135, 2, 1.58182
116, 1, wb, attraction, a-b-db, 2, 2, 8, 23, 89, 163, 90, 165, 165, 90, 1, 0.851793
116, 1, wb, attraction, a-b-db, 2, 2, 8, 23, 89, 163, 90, 165, 165, 90, 2, 0.528838
116, 1, wb, attraction, a-b-da, 5, 2, 8, 24, 165, 90, 161, 88, 90, 165, 1, 1.12943
116, 1, wb, attraction, a-b-da, 5, 2, 8, 24, 165, 90, 161, 88, 90, 165, 2, 1.89092
116, 1, wb, filler, NA, 999, 999, 8, 25, 184, 144, 162, 105, 161, 110, 2, 1.87629
116, 1, wb, filler, NA, 999, 999, 8, 25, 184, 144, 162, 105, 161, 110, 1, 0.687647
116, 1, wb, attraction, a-b-db, 5, 2, 8, 26, 88, 161, 165, 90, 90, 165, 1, 1.30623
116, 1, wb, attraction, a-b-db, 5, 2, 8, 26, 88, 161, 165, 90, 90, 165, 2, 1.27628
116, 1, wb, attraction, a-b-da, 2, 2, 8, 27, 165, 90, 163, 89, 90, 165, 1, 0.446517
116, 1, wb, attraction, a-b-da, 2, 2, 8, 27, 165, 90, 163, 89, 90, 165, 2, 1.15568
116, 1, wb, filler, NA, 999, 999, 8, 28, 105, 82, 101, 98, 123, 97, 1, 1.89122
116, 1, wb, filler, NA, 999, 999, 8, 28, 105, 82, 101, 98, 123, 97, 2, 0.630066
116, 1, wb, catch, NA, 999, 999, 8, 29, 70, 125, 177, 138, 131, 124, 1, 0.642377
116, 1, wb, catch, NA, 999, 999, 8, 29, 70, 125, 177, 138, 131, 124, 2, 2.26359
116, 1, wb, attraction, a-b-db, 9, 3, 8, 30, 195, 120, 114, 186, 120, 195, 1, 0.858102
116, 1, wb, attraction, a-b-db, 9, 3, 8, 30, 195, 120, 114, 186, 120, 195, 2, 0.734409
116, 1, wb, attraction, a-b-da, 5, 1, 8, 31, 132, 58, 135, 60, 60, 135, 1, 0.758882
116, 1, wb, attraction, a-b-da, 5, 1, 8, 31, 132, 58, 135, 60, 60, 135, 2, 0.751171
116, 1, wb, attraction, a-b-da, 14, 3, 8, 32, 181, 111, 195, 120, 120, 195, 1, 0.526839
116, 1, wb, attraction, a-b-da, 14, 3, 8, 32, 181, 111, 195, 120, 120, 195, 2, 0.725303
116, 1, wb, attraction, a-b-db, 2, 3, 8, 33, 120, 195, 119, 193, 195, 120, 1, 0.537083
116, 1, wb, attraction, a-b-db, 2, 3, 8, 33, 120, 195, 119, 193, 195, 120, 2, 0.834898
116, 1, wb, filler, NA, 999, 999, 8, 34, 187, 158, 69, 63, 57, 171, 2, 1.71128
116, 1, wb, filler, NA, 999, 999, 8, 34, 187, 158, 69, 63, 57, 171, 1, 0.569331
116, 1, wb, attraction, a-b-da, 14, 1, 8, 35, 125, 56, 135, 60, 60, 135, 1, 1.22463
116, 1, wb, attraction, a-b-da, 14, 1, 8, 35, 125, 56, 135, 60, 60, 135, 2, 0.822016
116, 1, wb, attraction, a-b-db, 9, 2, 8, 36, 86, 157, 90, 165, 165, 90, 1, 0.579102
116, 1, wb, attraction, a-b-db, 9, 2, 8, 36, 86, 157, 90, 165, 165, 90, 2, 0.674859
116, 1, wb, filler, NA, 999, 999, 8, 37, 148, 130, 86, 118, 113, 90, 2, 1.30925
116, 1, wb, filler, NA, 999, 999, 8, 37, 148, 130, 86, 118, 113, 90, 1, 0.527465
