sub_n, computer_n, bw_cond, effect, set, distance, diag, block_n, trial_n, h1, w1, h2, w2, h3, w3, choice, rt 
171, 1, bw, practice, NA, 999, 999, 0, 1, 97, 89, 62, 126, 73, 112, 3, 11.1195
171, 1, bw, practice, NA, 999, 999, 0, 1, 97, 89, 62, 126, 73, 112, 2, 8.40741
171, 1, bw, practice, NA, 999, 999, 0, 2, 159, 135, 178, 151, 169, 90, 2, 4.25434
171, 1, bw, practice, NA, 999, 999, 0, 2, 159, 135, 178, 151, 169, 90, 3, 2.01806
171, 1, bw, practice, NA, 999, 999, 0, 3, 118, 139, 69, 118, 144, 115, 1, 7.13888
171, 1, bw, practice, NA, 999, 999, 0, 3, 118, 139, 69, 118, 144, 115, 2, 1.01412
171, 1, bw, attraction, a-b-da, 5, 2, 1, 1, 165, 90, 161, 88, 90, 165, 3, 4.61039
171, 1, bw, attraction, a-b-da, 5, 2, 1, 1, 165, 90, 161, 88, 90, 165, 2, 1.73571
171, 1, bw, attraction, a-b-da, 14, 2, 1, 2, 153, 83, 90, 165, 165, 90, 2, 2.95975
171, 1, bw, attraction, a-b-da, 14, 2, 1, 2, 153, 83, 90, 165, 165, 90, 1, 3.17553
171, 1, bw, attraction, a-b-db, 2, 1, 1, 3, 60, 135, 135, 60, 59, 134, 1, 3.39705
171, 1, bw, attraction, a-b-db, 2, 1, 1, 3, 60, 135, 135, 60, 59, 134, 2, 1.38726
171, 1, bw, attraction, a-b-db, 9, 3, 1, 4, 120, 195, 195, 120, 114, 186, 1, 7.14557
171, 1, bw, attraction, a-b-db, 9, 3, 1, 4, 120, 195, 195, 120, 114, 186, 3, 2.22453
171, 1, bw, catch, NA, 999, 999, 1, 5, 113, 142, 136, 179, 92, 103, 2, 1.67639
171, 1, bw, catch, NA, 999, 999, 1, 5, 113, 142, 136, 179, 92, 103, 3, 0.951846
171, 1, bw, attraction, a-b-db, 14, 2, 1, 6, 165, 90, 90, 165, 83, 153, 1, 11.8877
171, 1, bw, attraction, a-b-db, 14, 2, 1, 6, 165, 90, 90, 165, 83, 153, 3, 1.07177
171, 1, bw, filler, NA, 999, 999, 1, 7, 130, 58, 75, 76, 170, 155, 3, 1.97084
171, 1, bw, filler, NA, 999, 999, 1, 7, 130, 58, 75, 76, 170, 155, 2, 12.2987
171, 1, bw, attraction, a-b-db, 5, 2, 1, 8, 165, 90, 88, 161, 90, 165, 1, 9.98483
171, 1, bw, attraction, a-b-db, 5, 2, 1, 8, 165, 90, 88, 161, 90, 165, 3, 1.3577
171, 1, bw, filler, NA, 999, 999, 1, 9, 100, 143, 125, 98, 190, 137, 3, 3.44463
171, 1, bw, filler, NA, 999, 999, 1, 9, 100, 143, 125, 98, 190, 137, 2, 3.43278
171, 1, bw, catch, NA, 999, 999, 1, 10, 123, 72, 118, 137, 145, 170, 3, 1.52443
171, 1, bw, catch, NA, 999, 999, 1, 10, 123, 72, 118, 137, 145, 170, 1, 1.3819
171, 1, bw, filler, NA, 999, 999, 1, 11, 154, 68, 80, 76, 150, 108, 3, 3.22804
171, 1, bw, filler, NA, 999, 999, 1, 11, 154, 68, 80, 76, 150, 108, 2, 3.27308
171, 1, bw, attraction, a-b-da, 9, 3, 1, 12, 186, 114, 195, 120, 120, 195, 2, 14.0592
171, 1, bw, attraction, a-b-da, 9, 3, 1, 12, 186, 114, 195, 120, 120, 195, 1, 2.85152
171, 1, bw, attraction, a-b-db, 9, 2, 1, 13, 86, 157, 90, 165, 165, 90, 2, 4.55858
171, 1, bw, attraction, a-b-db, 9, 2, 1, 13, 86, 157, 90, 165, 165, 90, 1, 4.35783
171, 1, bw, attraction, a-b-db, 9, 1, 1, 14, 60, 135, 57, 129, 135, 60, 1, 4.8357
171, 1, bw, attraction, a-b-db, 9, 1, 1, 14, 60, 135, 57, 129, 135, 60, 2, 3.88012
171, 1, bw, attraction, a-b-db, 5, 1, 1, 15, 60, 135, 58, 132, 135, 60, 1, 3.60138
171, 1, bw, attraction, a-b-db, 5, 1, 1, 15, 60, 135, 58, 132, 135, 60, 2, 0.903694
171, 1, bw, attraction, a-b-da, 9, 1, 1, 16, 60, 135, 129, 57, 135, 60, 1, 2.75342
171, 1, bw, attraction, a-b-da, 9, 1, 1, 16, 60, 135, 129, 57, 135, 60, 2, 0.71379
171, 1, bw, attraction, a-b-da, 2, 2, 1, 17, 165, 90, 90, 165, 163, 89, 2, 7.891
171, 1, bw, attraction, a-b-da, 2, 2, 1, 17, 165, 90, 90, 165, 163, 89, 3, 0.979678
171, 1, bw, attraction, a-b-db, 2, 3, 1, 18, 195, 120, 120, 195, 119, 193, 2, 5.68204
171, 1, bw, attraction, a-b-db, 2, 3, 1, 18, 195, 120, 120, 195, 119, 193, 1, 0.708173
171, 1, bw, filler, NA, 999, 999, 1, 19, 175, 101, 142, 94, 124, 175, 3, 1.49332
171, 1, bw, filler, NA, 999, 999, 1, 19, 175, 101, 142, 94, 124, 175, 2, 1.84808
171, 1, bw, attraction, a-b-da, 14, 1, 1, 20, 135, 60, 125, 56, 60, 135, 3, 3.77951
171, 1, bw, attraction, a-b-da, 14, 1, 1, 20, 135, 60, 125, 56, 60, 135, 2, 1.28227
171, 1, bw, attraction, a-b-db, 2, 2, 1, 21, 165, 90, 89, 163, 90, 165, 3, 6.34836
171, 1, bw, attraction, a-b-db, 2, 2, 1, 21, 165, 90, 89, 163, 90, 165, 2, 1.59584
171, 1, bw, filler, NA, 999, 999, 1, 22, 77, 136, 105, 116, 161, 75, 1, 38.2892
171, 1, bw, filler, NA, 999, 999, 1, 22, 77, 136, 105, 116, 161, 75, 2, 7.98517
171, 1, bw, filler, NA, 999, 999, 1, 23, 89, 75, 135, 187, 61, 60, 2, 1.08526
171, 1, bw, filler, NA, 999, 999, 1, 23, 89, 75, 135, 187, 61, 60, 3, 1.129
171, 1, bw, filler, NA, 999, 999, 1, 24, 130, 127, 120, 105, 166, 104, 1, 9.81737
171, 1, bw, filler, NA, 999, 999, 1, 24, 130, 127, 120, 105, 166, 104, 2, 0.860703
171, 1, bw, filler, NA, 999, 999, 1, 25, 194, 95, 174, 117, 77, 146, 2, 10.8398
171, 1, bw, filler, NA, 999, 999, 1, 25, 194, 95, 174, 117, 77, 146, 3, 1.05842
171, 1, bw, attraction, a-b-db, 14, 3, 1, 26, 120, 195, 195, 120, 111, 181, 1, 12.6774
171, 1, bw, attraction, a-b-db, 14, 3, 1, 26, 120, 195, 195, 120, 111, 181, 2, 7.7334
171, 1, bw, attraction, a-b-da, 14, 3, 1, 27, 195, 120, 181, 111, 120, 195, 3, 9.85155
171, 1, bw, attraction, a-b-da, 14, 3, 1, 27, 195, 120, 181, 111, 120, 195, 2, 1.48576
171, 1, bw, attraction, a-b-db, 14, 1, 1, 28, 60, 135, 56, 125, 135, 60, 1, 9.81599
171, 1, bw, attraction, a-b-db, 14, 1, 1, 28, 60, 135, 56, 125, 135, 60, 2, 1.09946
171, 1, bw, attraction, a-b-da, 2, 1, 1, 29, 134, 59, 60, 135, 135, 60, 2, 5.86912
171, 1, bw, attraction, a-b-da, 2, 1, 1, 29, 134, 59, 60, 135, 135, 60, 1, 1.4159
171, 1, bw, catch, NA, 999, 999, 1, 30, 146, 109, 70, 125, 179, 136, 3, 7.73273
171, 1, bw, catch, NA, 999, 999, 1, 30, 146, 109, 70, 125, 179, 136, 2, 0.628274
171, 1, bw, attraction, a-b-da, 5, 3, 1, 31, 195, 120, 190, 117, 120, 195, 3, 5.4647
171, 1, bw, attraction, a-b-da, 5, 3, 1, 31, 195, 120, 190, 117, 120, 195, 1, 2.49956
171, 1, bw, filler, NA, 999, 999, 1, 32, 165, 144, 145, 72, 173, 101, 1, 9.92469
171, 1, bw, filler, NA, 999, 999, 1, 32, 165, 144, 145, 72, 173, 101, 2, 0.931563
171, 1, bw, attraction, a-b-da, 5, 1, 1, 33, 60, 135, 132, 58, 135, 60, 1, 3.37194
171, 1, bw, attraction, a-b-da, 5, 1, 1, 33, 60, 135, 132, 58, 135, 60, 2, 1.33082
171, 1, bw, attraction, a-b-da, 2, 3, 1, 34, 193, 119, 120, 195, 195, 120, 2, 3.98713
171, 1, bw, attraction, a-b-da, 2, 3, 1, 34, 193, 119, 120, 195, 195, 120, 1, 6.17781
171, 1, bw, attraction, a-b-db, 5, 3, 1, 35, 120, 195, 195, 120, 117, 190, 1, 5.63855
171, 1, bw, attraction, a-b-db, 5, 3, 1, 35, 120, 195, 195, 120, 117, 190, 3, 3.22669
171, 1, bw, attraction, a-b-da, 9, 2, 1, 36, 90, 165, 157, 86, 165, 90, 1, 9.77416
171, 1, bw, attraction, a-b-da, 9, 2, 1, 36, 90, 165, 157, 86, 165, 90, 2, 1.18786
171, 1, bw, filler, NA, 999, 999, 1, 37, 60, 58, 119, 87, 121, 103, 3, 2.61017
171, 1, bw, filler, NA, 999, 999, 1, 37, 60, 58, 119, 87, 121, 103, 1, 1.43199
171, 1, bw, attraction, a-b-da, 2, 1, 2, 1, 135, 60, 60, 135, 134, 59, 2, 2.91618
171, 1, bw, attraction, a-b-da, 2, 1, 2, 1, 135, 60, 60, 135, 134, 59, 1, 2.46976
171, 1, bw, attraction, a-b-db, 14, 1, 2, 2, 135, 60, 56, 125, 60, 135, 1, 8.22443
171, 1, bw, attraction, a-b-db, 14, 1, 2, 2, 135, 60, 56, 125, 60, 135, 2, 0.915702
171, 1, bw, attraction, a-b-da, 14, 1, 2, 3, 125, 56, 60, 135, 135, 60, 2, 3.16467
171, 1, bw, attraction, a-b-da, 14, 1, 2, 3, 125, 56, 60, 135, 135, 60, 1, 1.54839
171, 1, bw, attraction, a-b-da, 14, 3, 2, 4, 120, 195, 195, 120, 181, 111, 1, 3.50785
171, 1, bw, attraction, a-b-da, 14, 3, 2, 4, 120, 195, 195, 120, 181, 111, 3, 1.90977
171, 1, bw, attraction, a-b-da, 5, 1, 2, 5, 132, 58, 60, 135, 135, 60, 2, 5.37404
171, 1, bw, attraction, a-b-da, 5, 1, 2, 5, 132, 58, 60, 135, 135, 60, 1, 4.95654
171, 1, bw, filler, NA, 999, 999, 2, 6, 137, 83, 90, 108, 115, 145, 3, 6.41876
171, 1, bw, filler, NA, 999, 999, 2, 6, 137, 83, 90, 108, 115, 145, 1, 22.0633
171, 1, bw, filler, NA, 999, 999, 2, 7, 152, 195, 142, 125, 88, 148, 1, 2.21174
171, 1, bw, filler, NA, 999, 999, 2, 7, 152, 195, 142, 125, 88, 148, 3, 0.961683
171, 1, bw, attraction, a-b-db, 9, 2, 2, 8, 90, 165, 86, 157, 165, 90, 1, 7.52871
171, 1, bw, attraction, a-b-db, 9, 2, 2, 8, 90, 165, 86, 157, 165, 90, 3, 8.08834
171, 1, bw, attraction, a-b-da, 9, 2, 2, 9, 165, 90, 157, 86, 90, 165, 3, 4.6165
171, 1, bw, attraction, a-b-da, 9, 2, 2, 9, 165, 90, 157, 86, 90, 165, 2, 3.83775
171, 1, bw, attraction, a-b-db, 5, 3, 2, 10, 117, 190, 195, 120, 120, 195, 1, 5.28097
171, 1, bw, attraction, a-b-db, 5, 3, 2, 10, 117, 190, 195, 120, 120, 195, 2, 2.17129
171, 1, bw, filler, NA, 999, 999, 2, 11, 123, 110, 108, 138, 143, 89, 1, 14.3939
171, 1, bw, filler, NA, 999, 999, 2, 11, 123, 110, 108, 138, 143, 89, 3, 1.31666
171, 1, bw, filler, NA, 999, 999, 2, 12, 121, 97, 123, 125, 94, 185, 2, 19.8216
171, 1, bw, filler, NA, 999, 999, 2, 12, 121, 97, 123, 125, 94, 185, 1, 1.19818
171, 1, bw, filler, NA, 999, 999, 2, 13, 78, 78, 58, 58, 95, 177, 3, 1.65167
171, 1, bw, filler, NA, 999, 999, 2, 13, 78, 78, 58, 58, 95, 177, 2, 1.06442
171, 1, bw, attraction, a-b-db, 14, 3, 2, 14, 120, 195, 111, 181, 195, 120, 1, 12.1953
171, 1, bw, attraction, a-b-db, 14, 3, 2, 14, 120, 195, 111, 181, 195, 120, 2, 0.926816
171, 1, bw, attraction, a-b-da, 14, 2, 2, 15, 90, 165, 165, 90, 153, 83, 1, 3.79911
171, 1, bw, attraction, a-b-da, 14, 2, 2, 15, 90, 165, 165, 90, 153, 83, 3, 1.36529
171, 1, bw, attraction, a-b-db, 9, 1, 2, 16, 60, 135, 57, 129, 135, 60, 1, 6.30016
171, 1, bw, attraction, a-b-db, 9, 1, 2, 16, 60, 135, 57, 129, 135, 60, 3, 0.997568
171, 1, bw, attraction, a-b-db, 5, 2, 2, 17, 90, 165, 88, 161, 165, 90, 1, 9.10704
171, 1, bw, attraction, a-b-db, 5, 2, 2, 17, 90, 165, 88, 161, 165, 90, 3, 4.17099
171, 1, bw, filler, NA, 999, 999, 2, 18, 149, 142, 143, 128, 154, 191, 3, 1.78489
171, 1, bw, filler, NA, 999, 999, 2, 18, 149, 142, 143, 128, 154, 191, 2, 0.888204
171, 1, bw, filler, NA, 999, 999, 2, 19, 140, 76, 179, 187, 60, 58, 2, 1.31453
171, 1, bw, filler, NA, 999, 999, 2, 19, 140, 76, 179, 187, 60, 58, 3, 1.19684
171, 1, bw, attraction, a-b-db, 2, 1, 2, 20, 135, 60, 60, 135, 59, 134, 2, 6.19442
171, 1, bw, attraction, a-b-db, 2, 1, 2, 20, 135, 60, 60, 135, 59, 134, 3, 0.655756
171, 1, bw, attraction, a-b-da, 2, 3, 2, 21, 120, 195, 195, 120, 193, 119, 1, 11.7635
171, 1, bw, attraction, a-b-da, 2, 3, 2, 21, 120, 195, 195, 120, 193, 119, 3, 1.25653
171, 1, bw, attraction, a-b-da, 9, 1, 2, 22, 135, 60, 129, 57, 60, 135, 3, 11.0359
171, 1, bw, attraction, a-b-da, 9, 1, 2, 22, 135, 60, 129, 57, 60, 135, 2, 1.39846
171, 1, bw, catch, NA, 999, 999, 2, 23, 92, 103, 121, 134, 137, 178, 3, 1.46803
171, 1, bw, catch, NA, 999, 999, 2, 23, 92, 103, 121, 134, 137, 178, 1, 0.928216
171, 1, bw, catch, NA, 999, 999, 2, 24, 114, 81, 124, 191, 93, 162, 2, 1.16852
171, 1, bw, catch, NA, 999, 999, 2, 24, 114, 81, 124, 191, 93, 162, 1, 1.46479
171, 1, bw, filler, NA, 999, 999, 2, 25, 84, 131, 171, 86, 173, 150, 3, 0.979705
171, 1, bw, filler, NA, 999, 999, 2, 25, 84, 131, 171, 86, 173, 150, 1, 2.6194
171, 1, bw, attraction, a-b-db, 2, 2, 2, 26, 90, 165, 89, 163, 165, 90, 1, 5.99181
171, 1, bw, attraction, a-b-db, 2, 2, 2, 26, 90, 165, 89, 163, 165, 90, 3, 0.87713
171, 1, bw, catch, NA, 999, 999, 2, 27, 131, 124, 161, 154, 112, 83, 2, 0.951566
171, 1, bw, catch, NA, 999, 999, 2, 27, 131, 124, 161, 154, 112, 83, 3, 0.992537
171, 1, bw, attraction, a-b-da, 9, 3, 2, 28, 120, 195, 195, 120, 186, 114, 1, 14.6942
171, 1, bw, attraction, a-b-da, 9, 3, 2, 28, 120, 195, 195, 120, 186, 114, 3, 3.52492
171, 1, bw, filler, NA, 999, 999, 2, 29, 66, 155, 98, 60, 143, 65, 1, 7.54844
171, 1, bw, filler, NA, 999, 999, 2, 29, 66, 155, 98, 60, 143, 65, 2, 0.531351
171, 1, bw, attraction, a-b-da, 2, 2, 2, 30, 165, 90, 90, 165, 163, 89, 2, 25.2518
171, 1, bw, attraction, a-b-da, 2, 2, 2, 30, 165, 90, 90, 165, 163, 89, 1, 0.761177
171, 1, bw, attraction, a-b-db, 14, 2, 2, 31, 83, 153, 165, 90, 90, 165, 3, 2.91221
171, 1, bw, attraction, a-b-db, 14, 2, 2, 31, 83, 153, 165, 90, 90, 165, 1, 3.48193
171, 1, bw, attraction, a-b-db, 5, 1, 2, 32, 135, 60, 60, 135, 58, 132, 2, 2.54757
171, 1, bw, attraction, a-b-db, 5, 1, 2, 32, 135, 60, 60, 135, 58, 132, 3, 2.15611
171, 1, bw, attraction, a-b-da, 5, 2, 2, 33, 90, 165, 165, 90, 161, 88, 1, 7.78722
171, 1, bw, attraction, a-b-da, 5, 2, 2, 33, 90, 165, 165, 90, 161, 88, 3, 1.3929
171, 1, bw, attraction, a-b-da, 5, 3, 2, 34, 190, 117, 120, 195, 195, 120, 2, 11.0224
171, 1, bw, attraction, a-b-da, 5, 3, 2, 34, 190, 117, 120, 195, 195, 120, 1, 1.04147
171, 1, bw, filler, NA, 999, 999, 2, 35, 182, 75, 104, 108, 107, 150, 3, 15.7091
171, 1, bw, filler, NA, 999, 999, 2, 35, 182, 75, 104, 108, 107, 150, 1, 1.1148
171, 1, bw, attraction, a-b-db, 9, 3, 2, 36, 195, 120, 114, 186, 120, 195, 3, 9.24392
171, 1, bw, attraction, a-b-db, 9, 3, 2, 36, 195, 120, 114, 186, 120, 195, 1, 0.82215
171, 1, bw, attraction, a-b-db, 2, 3, 2, 37, 195, 120, 120, 195, 119, 193, 2, 2.90722
171, 1, bw, attraction, a-b-db, 2, 3, 2, 37, 195, 120, 120, 195, 119, 193, 1, 2.22899
171, 1, bw, catch, NA, 999, 999, 3, 1, 145, 110, 132, 183, 122, 73, 2, 1.81683
171, 1, bw, catch, NA, 999, 999, 3, 1, 145, 110, 132, 183, 122, 73, 3, 0.847033
171, 1, bw, attraction, a-b-db, 2, 3, 3, 2, 195, 120, 119, 193, 120, 195, 3, 11.1306
171, 1, bw, attraction, a-b-db, 2, 3, 3, 2, 195, 120, 119, 193, 120, 195, 1, 2.5371
171, 1, bw, filler, NA, 999, 999, 3, 3, 117, 141, 170, 99, 90, 59, 2, 10.9369
171, 1, bw, filler, NA, 999, 999, 3, 3, 117, 141, 170, 99, 90, 59, 3, 0.799435
171, 1, bw, attraction, a-b-db, 14, 3, 3, 4, 120, 195, 195, 120, 111, 181, 1, 3.9491
171, 1, bw, attraction, a-b-db, 14, 3, 3, 4, 120, 195, 195, 120, 111, 181, 3, 0.677197
171, 1, bw, attraction, a-b-da, 2, 1, 3, 5, 134, 59, 135, 60, 60, 135, 3, 6.27156
171, 1, bw, attraction, a-b-da, 2, 1, 3, 5, 134, 59, 135, 60, 60, 135, 1, 0.754304
171, 1, bw, filler, NA, 999, 999, 3, 6, 82, 177, 108, 100, 105, 71, 2, 26.1221
171, 1, bw, filler, NA, 999, 999, 3, 6, 82, 177, 108, 100, 105, 71, 3, 0.740447
171, 1, bw, filler, NA, 999, 999, 3, 7, 128, 150, 141, 139, 150, 168, 3, 2.62827
171, 1, bw, filler, NA, 999, 999, 3, 7, 128, 150, 141, 139, 150, 168, 1, 13.4574
171, 1, bw, attraction, a-b-da, 2, 2, 3, 8, 165, 90, 163, 89, 90, 165, 3, 3.74511
171, 1, bw, attraction, a-b-da, 2, 2, 3, 8, 165, 90, 163, 89, 90, 165, 1, 2.02524
171, 1, bw, filler, NA, 999, 999, 3, 9, 109, 90, 173, 142, 69, 195, 2, 1.04519
171, 1, bw, filler, NA, 999, 999, 3, 9, 109, 90, 173, 142, 69, 195, 1, 0.802152
171, 1, bw, attraction, a-b-db, 9, 1, 3, 10, 135, 60, 57, 129, 60, 135, 3, 1.584
171, 1, bw, attraction, a-b-db, 9, 1, 3, 10, 135, 60, 57, 129, 60, 135, 2, 0.687415
171, 1, bw, attraction, a-b-da, 9, 1, 3, 11, 129, 57, 60, 135, 135, 60, 2, 1.16182
171, 1, bw, attraction, a-b-da, 9, 1, 3, 11, 129, 57, 60, 135, 135, 60, 1, 0.754015
171, 1, bw, filler, NA, 999, 999, 3, 12, 175, 61, 135, 195, 174, 150, 3, 5.47389
171, 1, bw, filler, NA, 999, 999, 3, 12, 175, 61, 135, 195, 174, 150, 1, 0.900084
171, 1, bw, attraction, a-b-da, 2, 3, 3, 13, 120, 195, 193, 119, 195, 120, 1, 2.02977
171, 1, bw, attraction, a-b-da, 2, 3, 3, 13, 120, 195, 193, 119, 195, 120, 2, 0.771111
171, 1, bw, attraction, a-b-db, 9, 2, 3, 14, 86, 157, 90, 165, 165, 90, 2, 6.61811
171, 1, bw, attraction, a-b-db, 9, 2, 3, 14, 86, 157, 90, 165, 165, 90, 3, 0.7026
171, 1, bw, attraction, a-b-da, 5, 1, 3, 15, 135, 60, 132, 58, 60, 135, 3, 4.48847
171, 1, bw, attraction, a-b-da, 5, 1, 3, 15, 135, 60, 132, 58, 60, 135, 1, 1.71504
171, 1, bw, attraction, a-b-db, 14, 1, 3, 16, 135, 60, 60, 135, 56, 125, 1, 8.56366
171, 1, bw, attraction, a-b-db, 14, 1, 3, 16, 135, 60, 60, 135, 56, 125, 3, 1.36157
171, 1, bw, filler, NA, 999, 999, 3, 17, 130, 111, 61, 96, 61, 80, 1, 1.04047
171, 1, bw, filler, NA, 999, 999, 3, 17, 130, 111, 61, 96, 61, 80, 3, 1.14145
171, 1, bw, catch, NA, 999, 999, 3, 18, 123, 72, 145, 110, 183, 132, 3, 1.07702
171, 1, bw, catch, NA, 999, 999, 3, 18, 123, 72, 145, 110, 183, 132, 1, 1.00074
171, 1, bw, attraction, a-b-da, 14, 1, 3, 19, 125, 56, 135, 60, 60, 135, 2, 3.17443
171, 1, bw, attraction, a-b-da, 14, 1, 3, 19, 125, 56, 135, 60, 60, 135, 1, 0.55725
171, 1, bw, attraction, a-b-da, 14, 2, 3, 20, 90, 165, 153, 83, 165, 90, 1, 3.98844
171, 1, bw, attraction, a-b-da, 14, 2, 3, 20, 90, 165, 153, 83, 165, 90, 2, 1.1231
171, 1, bw, filler, NA, 999, 999, 3, 21, 100, 164, 120, 155, 58, 88, 2, 2.78801
171, 1, bw, filler, NA, 999, 999, 3, 21, 100, 164, 120, 155, 58, 88, 3, 0.779121
171, 1, bw, filler, NA, 999, 999, 3, 22, 138, 191, 73, 105, 61, 143, 1, 1.88946
171, 1, bw, filler, NA, 999, 999, 3, 22, 138, 191, 73, 105, 61, 143, 3, 14.1164
171, 1, bw, attraction, a-b-db, 9, 3, 3, 23, 195, 120, 120, 195, 114, 186, 2, 7.14512
171, 1, bw, attraction, a-b-db, 9, 3, 3, 23, 195, 120, 120, 195, 114, 186, 1, 5.38413
171, 1, bw, attraction, a-b-db, 2, 1, 3, 24, 135, 60, 60, 135, 59, 134, 2, 5.94932
171, 1, bw, attraction, a-b-db, 2, 1, 3, 24, 135, 60, 60, 135, 59, 134, 1, 1.65254
171, 1, bw, attraction, a-b-db, 5, 1, 3, 25, 58, 132, 135, 60, 60, 135, 3, 7.12803
171, 1, bw, attraction, a-b-db, 5, 1, 3, 25, 58, 132, 135, 60, 60, 135, 2, 3.57578
171, 1, bw, attraction, a-b-da, 9, 3, 3, 26, 186, 114, 120, 195, 195, 120, 2, 5.22924
171, 1, bw, attraction, a-b-da, 9, 3, 3, 26, 186, 114, 120, 195, 195, 120, 1, 1.43355
171, 1, bw, catch, NA, 999, 999, 3, 27, 138, 177, 142, 113, 97, 98, 1, 1.6056
171, 1, bw, catch, NA, 999, 999, 3, 27, 138, 177, 142, 113, 97, 98, 3, 3.62791
171, 1, bw, filler, NA, 999, 999, 3, 28, 60, 89, 107, 195, 177, 98, 2, 2.94317
171, 1, bw, filler, NA, 999, 999, 3, 28, 60, 89, 107, 195, 177, 98, 1, 0.983593
171, 1, bw, attraction, a-b-da, 9, 2, 3, 29, 165, 90, 157, 86, 90, 165, 3, 1.814
171, 1, bw, attraction, a-b-da, 9, 2, 3, 29, 165, 90, 157, 86, 90, 165, 2, 0.756042
171, 1, bw, attraction, a-b-da, 14, 3, 3, 30, 195, 120, 181, 111, 120, 195, 3, 2.42775
171, 1, bw, attraction, a-b-da, 14, 3, 3, 30, 195, 120, 181, 111, 120, 195, 2, 1.60106
171, 1, bw, attraction, a-b-db, 5, 3, 3, 31, 117, 190, 195, 120, 120, 195, 2, 11.9824
171, 1, bw, attraction, a-b-db, 5, 3, 3, 31, 117, 190, 195, 120, 120, 195, 1, 0.50664
171, 1, bw, attraction, a-b-db, 14, 2, 3, 32, 90, 165, 165, 90, 83, 153, 2, 18.7637
171, 1, bw, attraction, a-b-db, 14, 2, 3, 32, 90, 165, 165, 90, 83, 153, 3, 0.590539
171, 1, bw, attraction, a-b-da, 5, 2, 3, 33, 165, 90, 161, 88, 90, 165, 3, 17.7323
171, 1, bw, attraction, a-b-da, 5, 2, 3, 33, 165, 90, 161, 88, 90, 165, 2, 0.640729
171, 1, bw, attraction, a-b-da, 5, 3, 3, 34, 190, 117, 195, 120, 120, 195, 2, 8.70048
171, 1, bw, attraction, a-b-da, 5, 3, 3, 34, 190, 117, 195, 120, 120, 195, 1, 0.789019
171, 1, bw, filler, NA, 999, 999, 3, 35, 149, 193, 188, 119, 143, 163, 1, 2.56354
171, 1, bw, filler, NA, 999, 999, 3, 35, 149, 193, 188, 119, 143, 163, 2, 17.8992
171, 1, bw, attraction, a-b-db, 5, 2, 3, 36, 165, 90, 90, 165, 88, 161, 2, 6.15155
171, 1, bw, attraction, a-b-db, 5, 2, 3, 36, 165, 90, 90, 165, 88, 161, 1, 1.10289
171, 1, bw, attraction, a-b-db, 2, 2, 3, 37, 165, 90, 90, 165, 89, 163, 2, 2.46497
171, 1, bw, attraction, a-b-db, 2, 2, 3, 37, 165, 90, 90, 165, 89, 163, 1, 1.32458
171, 1, bw, filler, NA, 999, 999, 4, 1, 80, 146, 115, 162, 116, 182, 3, 1.58868
171, 1, bw, filler, NA, 999, 999, 4, 1, 80, 146, 115, 162, 116, 182, 1, 1.20354
171, 1, bw, catch, NA, 999, 999, 4, 2, 126, 129, 133, 182, 122, 73, 2, 1.36097
171, 1, bw, catch, NA, 999, 999, 4, 2, 126, 129, 133, 182, 122, 73, 3, 0.577174
171, 1, bw, attraction, a-b-db, 9, 1, 4, 3, 57, 129, 60, 135, 135, 60, 2, 2.90367
171, 1, bw, attraction, a-b-db, 9, 1, 4, 3, 57, 129, 60, 135, 135, 60, 3, 1.10609
171, 1, bw, filler, NA, 999, 999, 4, 4, 163, 123, 62, 89, 82, 85, 1, 1.49977
171, 1, bw, filler, NA, 999, 999, 4, 4, 163, 123, 62, 89, 82, 85, 2, 0.550491
171, 1, bw, attraction, a-b-da, 9, 1, 4, 5, 60, 135, 135, 60, 129, 57, 1, 3.62239
171, 1, bw, attraction, a-b-da, 9, 1, 4, 5, 60, 135, 135, 60, 129, 57, 3, 0.851059
171, 1, bw, attraction, a-b-db, 2, 1, 4, 6, 135, 60, 60, 135, 59, 134, 2, 8.90283
171, 1, bw, attraction, a-b-db, 2, 1, 4, 6, 135, 60, 60, 135, 59, 134, 1, 1.55945
171, 1, bw, attraction, a-b-da, 2, 3, 4, 7, 193, 119, 195, 120, 120, 195, 3, 6.20611
171, 1, bw, attraction, a-b-da, 2, 3, 4, 7, 193, 119, 195, 120, 120, 195, 2, 0.715522
171, 1, bw, filler, NA, 999, 999, 4, 8, 79, 103, 178, 120, 177, 159, 3, 1.99665
171, 1, bw, filler, NA, 999, 999, 4, 8, 79, 103, 178, 120, 177, 159, 1, 0.651203
171, 1, bw, filler, NA, 999, 999, 4, 9, 128, 67, 189, 195, 92, 76, 2, 1.64686
171, 1, bw, filler, NA, 999, 999, 4, 9, 128, 67, 189, 195, 92, 76, 3, 2.25977
171, 1, bw, attraction, a-b-db, 5, 3, 4, 10, 117, 190, 120, 195, 195, 120, 2, 1.71824
171, 1, bw, attraction, a-b-db, 5, 3, 4, 10, 117, 190, 120, 195, 195, 120, 1, 3.49642
171, 1, bw, filler, NA, 999, 999, 4, 11, 174, 89, 129, 180, 123, 81, 2, 0.84126
171, 1, bw, filler, NA, 999, 999, 4, 11, 174, 89, 129, 180, 123, 81, 3, 0.566341
171, 1, bw, attraction, a-b-da, 2, 2, 4, 12, 165, 90, 90, 165, 163, 89, 2, 1.64545
171, 1, bw, attraction, a-b-da, 2, 2, 4, 12, 165, 90, 90, 165, 163, 89, 3, 3.41029
171, 1, bw, attraction, a-b-db, 5, 2, 4, 13, 165, 90, 88, 161, 90, 165, 3, 5.43846
171, 1, bw, attraction, a-b-db, 5, 2, 4, 13, 165, 90, 88, 161, 90, 165, 2, 1.84206
171, 1, bw, attraction, a-b-da, 2, 1, 4, 14, 60, 135, 134, 59, 135, 60, 1, 5.86938
171, 1, bw, attraction, a-b-da, 2, 1, 4, 14, 60, 135, 134, 59, 135, 60, 2, 1.40838
171, 1, bw, attraction, a-b-da, 5, 2, 4, 15, 90, 165, 161, 88, 165, 90, 1, 4.63709
171, 1, bw, attraction, a-b-da, 5, 2, 4, 15, 90, 165, 161, 88, 165, 90, 2, 2.24164
171, 1, bw, attraction, a-b-db, 9, 2, 4, 16, 165, 90, 86, 157, 90, 165, 3, 2.08474
171, 1, bw, attraction, a-b-db, 9, 2, 4, 16, 165, 90, 86, 157, 90, 165, 2, 1.18421
171, 1, bw, catch, NA, 999, 999, 4, 17, 101, 94, 181, 134, 146, 109, 2, 1.07038
171, 1, bw, catch, NA, 999, 999, 4, 17, 101, 94, 181, 134, 146, 109, 1, 0.682731
171, 1, bw, filler, NA, 999, 999, 4, 18, 187, 80, 194, 144, 97, 79, 2, 0.653072
171, 1, bw, filler, NA, 999, 999, 4, 18, 187, 80, 194, 144, 97, 79, 3, 0.586087
171, 1, bw, attraction, a-b-da, 14, 2, 4, 19, 90, 165, 153, 83, 165, 90, 3, 1.41671
171, 1, bw, attraction, a-b-da, 14, 2, 4, 19, 90, 165, 153, 83, 165, 90, 2, 0.710742
171, 1, bw, filler, NA, 999, 999, 4, 20, 145, 73, 172, 56, 155, 137, 3, 1.47177
171, 1, bw, filler, NA, 999, 999, 4, 20, 145, 73, 172, 56, 155, 137, 1, 14.5475
171, 1, bw, filler, NA, 999, 999, 4, 21, 92, 90, 94, 105, 159, 163, 3, 1.57462
171, 1, bw, filler, NA, 999, 999, 4, 21, 92, 90, 94, 105, 159, 163, 1, 0.59017
171, 1, bw, filler, NA, 999, 999, 4, 22, 163, 131, 108, 152, 71, 80, 1, 1.12386
171, 1, bw, filler, NA, 999, 999, 4, 22, 163, 131, 108, 152, 71, 80, 3, 0.685599
171, 1, bw, attraction, a-b-da, 9, 2, 4, 23, 157, 86, 90, 165, 165, 90, 2, 1.78398
171, 1, bw, attraction, a-b-da, 9, 2, 4, 23, 157, 86, 90, 165, 165, 90, 1, 1.29548
171, 1, bw, attraction, a-b-db, 14, 2, 4, 24, 165, 90, 90, 165, 83, 153, 2, 1.47302
171, 1, bw, attraction, a-b-db, 14, 2, 4, 24, 165, 90, 90, 165, 83, 153, 3, 0.940392
171, 1, bw, filler, NA, 999, 999, 4, 25, 74, 130, 161, 138, 121, 123, 2, 0.884217
171, 1, bw, filler, NA, 999, 999, 4, 25, 74, 130, 161, 138, 121, 123, 1, 0.599791
171, 1, bw, attraction, a-b-da, 5, 1, 4, 26, 135, 60, 132, 58, 60, 135, 2, 4.31769
171, 1, bw, attraction, a-b-da, 5, 1, 4, 26, 135, 60, 132, 58, 60, 135, 3, 1.36691
171, 1, bw, attraction, a-b-db, 14, 3, 4, 27, 120, 195, 195, 120, 111, 181, 1, 3.19773
171, 1, bw, attraction, a-b-db, 14, 3, 4, 27, 120, 195, 195, 120, 111, 181, 3, 2.7721
171, 1, bw, attraction, a-b-da, 5, 3, 4, 28, 120, 195, 190, 117, 195, 120, 1, 2.60245
171, 1, bw, attraction, a-b-da, 5, 3, 4, 28, 120, 195, 190, 117, 195, 120, 2, 1.1129
171, 1, bw, attraction, a-b-db, 5, 1, 4, 29, 135, 60, 58, 132, 60, 135, 3, 2.72988
171, 1, bw, attraction, a-b-db, 5, 1, 4, 29, 135, 60, 58, 132, 60, 135, 1, 0.834978
171, 1, bw, attraction, a-b-da, 14, 3, 4, 30, 195, 120, 181, 111, 120, 195, 3, 1.31135
171, 1, bw, attraction, a-b-da, 14, 3, 4, 30, 195, 120, 181, 111, 120, 195, 2, 1.04952
171, 1, bw, attraction, a-b-da, 14, 1, 4, 31, 125, 56, 135, 60, 60, 135, 3, 1.60507
171, 1, bw, attraction, a-b-da, 14, 1, 4, 31, 125, 56, 135, 60, 60, 135, 1, 0.81125
171, 1, bw, attraction, a-b-db, 9, 3, 4, 32, 195, 120, 120, 195, 114, 186, 2, 1.54427
171, 1, bw, attraction, a-b-db, 9, 3, 4, 32, 195, 120, 120, 195, 114, 186, 3, 0.353114
171, 1, bw, attraction, a-b-db, 14, 1, 4, 33, 135, 60, 56, 125, 60, 135, 3, 2.07298
171, 1, bw, attraction, a-b-db, 14, 1, 4, 33, 135, 60, 56, 125, 60, 135, 2, 0.98839
171, 1, bw, attraction, a-b-db, 2, 2, 4, 34, 165, 90, 90, 165, 89, 163, 1, 5.28257
171, 1, bw, attraction, a-b-db, 2, 2, 4, 34, 165, 90, 90, 165, 89, 163, 2, 0.613291
171, 1, bw, catch, NA, 999, 999, 4, 35, 181, 134, 69, 126, 115, 140, 1, 1.9859
171, 1, bw, catch, NA, 999, 999, 4, 35, 181, 134, 69, 126, 115, 140, 2, 0.729347
171, 1, bw, attraction, a-b-db, 2, 3, 4, 36, 120, 195, 195, 120, 119, 193, 1, 5.83366
171, 1, bw, attraction, a-b-db, 2, 3, 4, 36, 120, 195, 195, 120, 119, 193, 2, 0.597898
171, 1, bw, attraction, a-b-da, 9, 3, 4, 37, 186, 114, 120, 195, 195, 120, 2, 2.16363
171, 1, bw, attraction, a-b-da, 9, 3, 4, 37, 186, 114, 120, 195, 195, 120, 3, 0.451677
171, 1, bw, filler, NA, 999, 999, 5, 1, 192, 134, 58, 75, 134, 94, 1, 2.83798
171, 1, bw, filler, NA, 999, 999, 5, 1, 192, 134, 58, 75, 134, 94, 2, 0.723118
171, 1, bw, attraction, a-b-da, 9, 3, 5, 2, 120, 195, 195, 120, 186, 114, 1, 1.66018
171, 1, bw, attraction, a-b-da, 9, 3, 5, 2, 120, 195, 195, 120, 186, 114, 2, 1.28865
171, 1, bw, attraction, a-b-db, 9, 2, 5, 3, 90, 165, 165, 90, 86, 157, 3, 1.59446
171, 1, bw, attraction, a-b-db, 9, 2, 5, 3, 90, 165, 165, 90, 86, 157, 2, 0.705495
171, 1, bw, catch, NA, 999, 999, 5, 4, 63, 132, 126, 189, 134, 121, 2, 0.843063
171, 1, bw, catch, NA, 999, 999, 5, 4, 63, 132, 126, 189, 134, 121, 1, 0.71996
171, 1, bw, filler, NA, 999, 999, 5, 5, 76, 61, 74, 58, 79, 164, 3, 1.18509
171, 1, bw, filler, NA, 999, 999, 5, 5, 76, 61, 74, 58, 79, 164, 2, 0.896773
171, 1, bw, attraction, a-b-da, 2, 3, 5, 6, 120, 195, 195, 120, 193, 119, 1, 2.00247
171, 1, bw, attraction, a-b-da, 2, 3, 5, 6, 120, 195, 195, 120, 193, 119, 2, 0.993068
171, 1, bw, filler, NA, 999, 999, 5, 7, 115, 168, 86, 65, 169, 57, 1, 0.934799
171, 1, bw, filler, NA, 999, 999, 5, 7, 115, 168, 86, 65, 169, 57, 2, 0.904444
171, 1, bw, attraction, a-b-db, 9, 1, 5, 8, 57, 129, 60, 135, 135, 60, 2, 1.63413
171, 1, bw, attraction, a-b-db, 9, 1, 5, 8, 57, 129, 60, 135, 135, 60, 1, 0.655498
171, 1, bw, attraction, a-b-da, 14, 2, 5, 9, 90, 165, 165, 90, 153, 83, 1, 1.8913
171, 1, bw, attraction, a-b-da, 14, 2, 5, 9, 90, 165, 165, 90, 153, 83, 3, 0.750365
171, 1, bw, attraction, a-b-db, 2, 2, 5, 10, 89, 163, 165, 90, 90, 165, 1, 1.42964
171, 1, bw, attraction, a-b-db, 2, 2, 5, 10, 89, 163, 165, 90, 90, 165, 2, 1.07519
171, 1, bw, attraction, a-b-db, 5, 3, 5, 11, 120, 195, 195, 120, 117, 190, 1, 1.33342
171, 1, bw, attraction, a-b-db, 5, 3, 5, 11, 120, 195, 195, 120, 117, 190, 2, 2.2392
171, 1, bw, attraction, a-b-db, 2, 1, 5, 12, 60, 135, 135, 60, 59, 134, 2, 3.70711
171, 1, bw, attraction, a-b-db, 2, 1, 5, 12, 60, 135, 135, 60, 59, 134, 3, 1.33236
171, 1, bw, attraction, a-b-db, 9, 3, 5, 13, 114, 186, 120, 195, 195, 120, 2, 1.95668
171, 1, bw, attraction, a-b-db, 9, 3, 5, 13, 114, 186, 120, 195, 195, 120, 3, 0.836528
171, 1, bw, attraction, a-b-da, 14, 3, 5, 14, 120, 195, 195, 120, 181, 111, 1, 1.21691
171, 1, bw, attraction, a-b-da, 14, 3, 5, 14, 120, 195, 195, 120, 181, 111, 3, 0.663247
171, 1, bw, filler, NA, 999, 999, 5, 15, 163, 132, 80, 148, 60, 160, 1, 0.930248
171, 1, bw, filler, NA, 999, 999, 5, 15, 163, 132, 80, 148, 60, 160, 3, 2.47597
171, 1, bw, filler, NA, 999, 999, 5, 16, 56, 128, 96, 119, 132, 132, 3, 2.16613
171, 1, bw, filler, NA, 999, 999, 5, 16, 56, 128, 96, 119, 132, 132, 1, 1.26181
171, 1, bw, attraction, a-b-da, 5, 1, 5, 17, 60, 135, 135, 60, 132, 58, 1, 3.24856
171, 1, bw, attraction, a-b-da, 5, 1, 5, 17, 60, 135, 135, 60, 132, 58, 3, 2.49307
171, 1, bw, attraction, a-b-da, 2, 2, 5, 18, 163, 89, 90, 165, 165, 90, 2, 1.90213
171, 1, bw, attraction, a-b-da, 2, 2, 5, 18, 163, 89, 90, 165, 165, 90, 3, 1.66486
171, 1, bw, filler, NA, 999, 999, 5, 19, 58, 171, 114, 183, 107, 165, 2, 1.55564
171, 1, bw, filler, NA, 999, 999, 5, 19, 58, 171, 114, 183, 107, 165, 1, 0.97173
171, 1, bw, attraction, a-b-db, 5, 1, 5, 20, 58, 132, 135, 60, 60, 135, 2, 2.19466
171, 1, bw, attraction, a-b-db, 5, 1, 5, 20, 58, 132, 135, 60, 60, 135, 3, 1.24127
171, 1, bw, attraction, a-b-db, 5, 2, 5, 21, 88, 161, 90, 165, 165, 90, 2, 1.14078
171, 1, bw, attraction, a-b-db, 5, 2, 5, 21, 88, 161, 90, 165, 165, 90, 1, 0.797851
171, 1, bw, attraction, a-b-da, 5, 3, 5, 22, 120, 195, 190, 117, 195, 120, 3, 2.65147
171, 1, bw, attraction, a-b-da, 5, 3, 5, 22, 120, 195, 190, 117, 195, 120, 2, 0.600052
171, 1, bw, filler, NA, 999, 999, 5, 23, 168, 191, 110, 157, 112, 166, 1, 1.4217
171, 1, bw, filler, NA, 999, 999, 5, 23, 168, 191, 110, 157, 112, 166, 2, 0.611254
171, 1, bw, filler, NA, 999, 999, 5, 24, 117, 86, 143, 82, 80, 116, 1, 2.32026
171, 1, bw, filler, NA, 999, 999, 5, 24, 117, 86, 143, 82, 80, 116, 2, 2.54624
171, 1, bw, catch, NA, 999, 999, 5, 25, 115, 140, 84, 111, 178, 137, 3, 1.74543
171, 1, bw, catch, NA, 999, 999, 5, 25, 115, 140, 84, 111, 178, 137, 2, 0.746195
171, 1, bw, attraction, a-b-db, 14, 1, 5, 26, 60, 135, 56, 125, 135, 60, 1, 2.12184
171, 1, bw, attraction, a-b-db, 14, 1, 5, 26, 60, 135, 56, 125, 135, 60, 2, 1.81917
171, 1, bw, attraction, a-b-da, 9, 2, 5, 27, 165, 90, 157, 86, 90, 165, 3, 7.69594
171, 1, bw, attraction, a-b-da, 9, 2, 5, 27, 165, 90, 157, 86, 90, 165, 2, 0.592797
171, 1, bw, attraction, a-b-db, 14, 3, 5, 28, 120, 195, 195, 120, 111, 181, 1, 3.53462
171, 1, bw, attraction, a-b-db, 14, 3, 5, 28, 120, 195, 195, 120, 111, 181, 3, 1.71937
171, 1, bw, attraction, a-b-db, 14, 2, 5, 29, 165, 90, 83, 153, 90, 165, 1, 6.8962
171, 1, bw, attraction, a-b-db, 14, 2, 5, 29, 165, 90, 83, 153, 90, 165, 2, 1.51339
171, 1, bw, attraction, a-b-da, 2, 1, 5, 30, 60, 135, 135, 60, 134, 59, 2, 4.6262
171, 1, bw, attraction, a-b-da, 2, 1, 5, 30, 60, 135, 135, 60, 134, 59, 1, 0.894653
171, 1, bw, filler, NA, 999, 999, 5, 31, 182, 182, 155, 173, 165, 120, 1, 1.67233
171, 1, bw, filler, NA, 999, 999, 5, 31, 182, 182, 155, 173, 165, 120, 3, 1.09185
171, 1, bw, attraction, a-b-da, 14, 1, 5, 32, 135, 60, 125, 56, 60, 135, 3, 1.90133
171, 1, bw, attraction, a-b-da, 14, 1, 5, 32, 135, 60, 125, 56, 60, 135, 2, 0.704087
171, 1, bw, attraction, a-b-db, 2, 3, 5, 33, 120, 195, 195, 120, 119, 193, 1, 5.18584
171, 1, bw, attraction, a-b-db, 2, 3, 5, 33, 120, 195, 195, 120, 119, 193, 2, 2.77619
171, 1, bw, catch, NA, 999, 999, 5, 34, 127, 68, 137, 118, 185, 130, 3, 0.877828
171, 1, bw, catch, NA, 999, 999, 5, 34, 127, 68, 137, 118, 185, 130, 1, 0.817645
171, 1, bw, attraction, a-b-da, 5, 2, 5, 35, 90, 165, 161, 88, 165, 90, 1, 5.23058
171, 1, bw, attraction, a-b-da, 5, 2, 5, 35, 90, 165, 161, 88, 165, 90, 2, 1.003
171, 1, bw, filler, NA, 999, 999, 5, 36, 192, 186, 163, 103, 93, 192, 1, 0.75253
171, 1, bw, filler, NA, 999, 999, 5, 36, 192, 186, 163, 103, 93, 192, 2, 6.5538
171, 1, bw, attraction, a-b-da, 9, 1, 5, 37, 129, 57, 60, 135, 135, 60, 2, 7.51158
171, 1, bw, attraction, a-b-da, 9, 1, 5, 37, 129, 57, 60, 135, 135, 60, 1, 1.21605
171, 1, bw, filler, NA, 999, 999, 6, 1, 117, 95, 136, 110, 93, 98, 2, 13.0767
171, 1, bw, filler, NA, 999, 999, 6, 1, 117, 95, 136, 110, 93, 98, 3, 12.1247
171, 1, bw, filler, NA, 999, 999, 6, 2, 125, 178, 62, 180, 151, 148, 3, 7.30619
171, 1, bw, filler, NA, 999, 999, 6, 2, 125, 178, 62, 180, 151, 148, 2, 0.907061
171, 1, bw, attraction, a-b-db, 2, 2, 6, 3, 89, 163, 90, 165, 165, 90, 2, 1.94809
171, 1, bw, attraction, a-b-db, 2, 2, 6, 3, 89, 163, 90, 165, 165, 90, 3, 1.10889
171, 1, bw, filler, NA, 999, 999, 6, 4, 112, 103, 114, 56, 86, 191, 3, 1.86177
171, 1, bw, filler, NA, 999, 999, 6, 4, 112, 103, 114, 56, 86, 191, 2, 0.785743
171, 1, bw, attraction, a-b-db, 5, 3, 6, 5, 120, 195, 195, 120, 117, 190, 1, 2.63212
171, 1, bw, attraction, a-b-db, 5, 3, 6, 5, 120, 195, 195, 120, 117, 190, 3, 3.46205
171, 1, bw, filler, NA, 999, 999, 6, 6, 167, 96, 67, 59, 125, 190, 3, 1.3595
171, 1, bw, filler, NA, 999, 999, 6, 6, 167, 96, 67, 59, 125, 190, 2, 1.52782
171, 1, bw, attraction, a-b-da, 5, 3, 6, 7, 120, 195, 190, 117, 195, 120, 1, 2.31182
171, 1, bw, attraction, a-b-da, 5, 3, 6, 7, 120, 195, 190, 117, 195, 120, 2, 0.561701
171, 1, bw, filler, NA, 999, 999, 6, 8, 68, 192, 131, 142, 118, 186, 3, 2.78491
171, 1, bw, filler, NA, 999, 999, 6, 8, 68, 192, 131, 142, 118, 186, 1, 0.639949
171, 1, bw, attraction, a-b-db, 9, 2, 6, 9, 90, 165, 86, 157, 165, 90, 1, 1.41177
171, 1, bw, attraction, a-b-db, 9, 2, 6, 9, 90, 165, 86, 157, 165, 90, 3, 0.721901
171, 1, bw, attraction, a-b-da, 9, 2, 6, 10, 157, 86, 90, 165, 165, 90, 2, 1.37902
171, 1, bw, attraction, a-b-da, 9, 2, 6, 10, 157, 86, 90, 165, 165, 90, 1, 0.890487
171, 1, bw, attraction, a-b-da, 2, 1, 6, 11, 60, 135, 135, 60, 134, 59, 2, 1.5642
171, 1, bw, attraction, a-b-da, 2, 1, 6, 11, 60, 135, 135, 60, 134, 59, 3, 0.428301
171, 1, bw, catch, NA, 999, 999, 6, 12, 127, 68, 176, 139, 116, 139, 2, 0.896719
171, 1, bw, catch, NA, 999, 999, 6, 12, 127, 68, 176, 139, 116, 139, 1, 0.684019
171, 1, bw, attraction, a-b-db, 14, 3, 6, 13, 195, 120, 111, 181, 120, 195, 3, 1.60615
171, 1, bw, attraction, a-b-db, 14, 3, 6, 13, 195, 120, 111, 181, 120, 195, 2, 1.46833
171, 1, bw, attraction, a-b-da, 14, 3, 6, 14, 120, 195, 181, 111, 195, 120, 3, 1.08736
171, 1, bw, attraction, a-b-da, 14, 3, 6, 14, 120, 195, 181, 111, 195, 120, 2, 0.698944
171, 1, bw, filler, NA, 999, 999, 6, 15, 62, 88, 67, 146, 144, 175, 3, 1.05249
171, 1, bw, filler, NA, 999, 999, 6, 15, 62, 88, 67, 146, 144, 175, 1, 0.721509
171, 1, bw, attraction, a-b-da, 9, 1, 6, 16, 129, 57, 60, 135, 135, 60, 2, 1.33054
171, 1, bw, attraction, a-b-da, 9, 1, 6, 16, 129, 57, 60, 135, 135, 60, 3, 0.636143
171, 1, bw, attraction, a-b-da, 2, 2, 6, 17, 90, 165, 163, 89, 165, 90, 1, 1.12064
171, 1, bw, attraction, a-b-da, 2, 2, 6, 17, 90, 165, 163, 89, 165, 90, 2, 1.05883
171, 1, bw, attraction, a-b-db, 5, 1, 6, 18, 60, 135, 58, 132, 135, 60, 2, 1.1337
171, 1, bw, attraction, a-b-db, 5, 1, 6, 18, 60, 135, 58, 132, 135, 60, 3, 0.791318
171, 1, bw, attraction, a-b-db, 9, 3, 6, 19, 114, 186, 195, 120, 120, 195, 3, 1.95716
171, 1, bw, attraction, a-b-db, 9, 3, 6, 19, 114, 186, 195, 120, 120, 195, 2, 1.18908
171, 1, bw, filler, NA, 999, 999, 6, 20, 117, 132, 195, 84, 85, 76, 1, 3.14742
171, 1, bw, filler, NA, 999, 999, 6, 20, 117, 132, 195, 84, 85, 76, 3, 0.98785
171, 1, bw, attraction, a-b-db, 9, 1, 6, 21, 135, 60, 60, 135, 57, 129, 2, 1.89007
171, 1, bw, attraction, a-b-db, 9, 1, 6, 21, 135, 60, 60, 135, 57, 129, 1, 1.10086
171, 1, bw, catch, NA, 999, 999, 6, 22, 180, 135, 99, 156, 100, 95, 1, 1.03023
171, 1, bw, catch, NA, 999, 999, 6, 22, 180, 135, 99, 156, 100, 95, 3, 1.1959
171, 1, bw, attraction, a-b-db, 2, 3, 6, 23, 120, 195, 119, 193, 195, 120, 2, 1.76152
171, 1, bw, attraction, a-b-db, 2, 3, 6, 23, 120, 195, 119, 193, 195, 120, 3, 0.753528
171, 1, bw, filler, NA, 999, 999, 6, 24, 56, 178, 149, 67, 61, 155, 2, 1.55335
171, 1, bw, filler, NA, 999, 999, 6, 24, 56, 178, 149, 67, 61, 155, 1, 0.746149
171, 1, bw, attraction, a-b-da, 14, 1, 6, 25, 60, 135, 135, 60, 125, 56, 2, 2.70582
171, 1, bw, attraction, a-b-da, 14, 1, 6, 25, 60, 135, 135, 60, 125, 56, 3, 0.907586
171, 1, bw, attraction, a-b-db, 14, 1, 6, 26, 56, 125, 135, 60, 60, 135, 3, 1.85274
171, 1, bw, attraction, a-b-db, 14, 1, 6, 26, 56, 125, 135, 60, 60, 135, 1, 1.06531
171, 1, bw, attraction, a-b-db, 5, 2, 6, 27, 88, 161, 165, 90, 90, 165, 3, 2.59623
171, 1, bw, attraction, a-b-db, 5, 2, 6, 27, 88, 161, 165, 90, 90, 165, 1, 4.27503
171, 1, bw, attraction, a-b-da, 14, 2, 6, 28, 90, 165, 165, 90, 153, 83, 1, 1.4121
171, 1, bw, attraction, a-b-da, 14, 2, 6, 28, 90, 165, 165, 90, 153, 83, 2, 0.786265
171, 1, bw, attraction, a-b-da, 5, 1, 6, 29, 60, 135, 135, 60, 132, 58, 3, 1.84853
171, 1, bw, attraction, a-b-da, 5, 1, 6, 29, 60, 135, 135, 60, 132, 58, 2, 0.797218
171, 1, bw, attraction, a-b-db, 2, 1, 6, 30, 59, 134, 135, 60, 60, 135, 3, 1.40307
171, 1, bw, attraction, a-b-db, 2, 1, 6, 30, 59, 134, 135, 60, 60, 135, 2, 0.569948
171, 1, bw, filler, NA, 999, 999, 6, 31, 176, 149, 89, 57, 89, 195, 1, 0.881087
171, 1, bw, filler, NA, 999, 999, 6, 31, 176, 149, 89, 57, 89, 195, 2, 0.844682
171, 1, bw, attraction, a-b-db, 14, 2, 6, 32, 90, 165, 165, 90, 83, 153, 1, 2.18443
171, 1, bw, attraction, a-b-db, 14, 2, 6, 32, 90, 165, 165, 90, 83, 153, 3, 0.959651
171, 1, bw, filler, NA, 999, 999, 6, 33, 104, 174, 158, 117, 66, 68, 1, 3.49458
171, 1, bw, filler, NA, 999, 999, 6, 33, 104, 174, 158, 117, 66, 68, 3, 0.68079
171, 1, bw, attraction, a-b-da, 2, 3, 6, 34, 120, 195, 193, 119, 195, 120, 1, 1.60323
171, 1, bw, attraction, a-b-da, 2, 3, 6, 34, 120, 195, 193, 119, 195, 120, 2, 0.929979
171, 1, bw, attraction, a-b-da, 9, 3, 6, 35, 195, 120, 186, 114, 120, 195, 3, 1.69027
171, 1, bw, attraction, a-b-da, 9, 3, 6, 35, 195, 120, 186, 114, 120, 195, 2, 0.637241
171, 1, bw, catch, NA, 999, 999, 6, 36, 89, 106, 149, 106, 125, 190, 3, 0.769576
171, 1, bw, catch, NA, 999, 999, 6, 36, 89, 106, 149, 106, 125, 190, 1, 0.641863
171, 1, bw, attraction, a-b-da, 5, 2, 6, 37, 165, 90, 161, 88, 90, 165, 3, 1.25368
171, 1, bw, attraction, a-b-da, 5, 2, 6, 37, 165, 90, 161, 88, 90, 165, 2, 0.658745
171, 1, bw, attraction, a-b-da, 9, 1, 7, 1, 60, 135, 129, 57, 135, 60, 3, 1.26169
171, 1, bw, attraction, a-b-da, 9, 1, 7, 1, 60, 135, 129, 57, 135, 60, 2, 0.52991
171, 1, bw, attraction, a-b-db, 2, 3, 7, 2, 195, 120, 120, 195, 119, 193, 3, 1.53034
171, 1, bw, attraction, a-b-db, 2, 3, 7, 2, 195, 120, 120, 195, 119, 193, 1, 1.95585
171, 1, bw, filler, NA, 999, 999, 7, 3, 98, 83, 160, 110, 107, 187, 3, 1.68312
171, 1, bw, filler, NA, 999, 999, 7, 3, 98, 83, 160, 110, 107, 187, 1, 0.68663
171, 1, bw, filler, NA, 999, 999, 7, 4, 171, 88, 155, 117, 106, 123, 2, 0.928982
171, 1, bw, filler, NA, 999, 999, 7, 4, 171, 88, 155, 117, 106, 123, 1, 2.05881
171, 1, bw, filler, NA, 999, 999, 7, 5, 173, 97, 75, 173, 121, 182, 3, 1.03727
171, 1, bw, filler, NA, 999, 999, 7, 5, 173, 97, 75, 173, 121, 182, 2, 0.699025
171, 1, bw, attraction, a-b-db, 9, 3, 7, 6, 195, 120, 120, 195, 114, 186, 2, 5.03671
171, 1, bw, attraction, a-b-db, 9, 3, 7, 6, 195, 120, 120, 195, 114, 186, 1, 0.537132
171, 1, bw, attraction, a-b-da, 14, 1, 7, 7, 135, 60, 60, 135, 125, 56, 2, 1.00959
171, 1, bw, attraction, a-b-da, 14, 1, 7, 7, 135, 60, 60, 135, 125, 56, 1, 0.823986
171, 1, bw, attraction, a-b-da, 2, 3, 7, 8, 193, 119, 120, 195, 195, 120, 2, 0.676206
171, 1, bw, attraction, a-b-da, 2, 3, 7, 8, 193, 119, 120, 195, 195, 120, 1, 0.736063
171, 1, bw, filler, NA, 999, 999, 7, 9, 190, 59, 193, 117, 155, 122, 2, 0.664351
171, 1, bw, filler, NA, 999, 999, 7, 9, 190, 59, 193, 117, 155, 122, 1, 1.58083
171, 1, bw, attraction, a-b-da, 5, 1, 7, 10, 60, 135, 132, 58, 135, 60, 2, 2.29897
171, 1, bw, attraction, a-b-da, 5, 1, 7, 10, 60, 135, 132, 58, 135, 60, 3, 0.989516
171, 1, bw, filler, NA, 999, 999, 7, 11, 147, 77, 168, 186, 192, 184, 3, 2.03589
171, 1, bw, filler, NA, 999, 999, 7, 11, 147, 77, 168, 186, 192, 184, 1, 0.697097
171, 1, bw, attraction, a-b-da, 14, 3, 7, 12, 120, 195, 181, 111, 195, 120, 1, 2.09887
171, 1, bw, attraction, a-b-da, 14, 3, 7, 12, 120, 195, 181, 111, 195, 120, 2, 0.605618
171, 1, bw, catch, NA, 999, 999, 7, 13, 109, 86, 156, 159, 149, 106, 2, 1.34722
171, 1, bw, catch, NA, 999, 999, 7, 13, 109, 86, 156, 159, 149, 106, 1, 1.33223
171, 1, bw, attraction, a-b-db, 14, 2, 7, 14, 90, 165, 83, 153, 165, 90, 1, 2.97248
171, 1, bw, attraction, a-b-db, 14, 2, 7, 14, 90, 165, 83, 153, 165, 90, 2, 1.19534
171, 1, bw, filler, NA, 999, 999, 7, 15, 157, 117, 169, 76, 169, 195, 3, 0.60093
171, 1, bw, filler, NA, 999, 999, 7, 15, 157, 117, 169, 76, 169, 195, 2, 0.632053
171, 1, bw, attraction, a-b-db, 9, 1, 7, 16, 135, 60, 57, 129, 60, 135, 2, 1.77246
171, 1, bw, attraction, a-b-db, 9, 1, 7, 16, 135, 60, 57, 129, 60, 135, 1, 0.643908
171, 1, bw, filler, NA, 999, 999, 7, 17, 111, 92, 88, 126, 187, 86, 2, 1.51165
171, 1, bw, filler, NA, 999, 999, 7, 17, 111, 92, 88, 126, 187, 86, 1, 2.13783
171, 1, bw, filler, NA, 999, 999, 7, 18, 80, 185, 161, 141, 146, 92, 2, 1.73783
171, 1, bw, filler, NA, 999, 999, 7, 18, 80, 185, 161, 141, 146, 92, 3, 2.20335
171, 1, bw, filler, NA, 999, 999, 7, 19, 90, 127, 163, 74, 90, 82, 1, 3.92035
171, 1, bw, filler, NA, 999, 999, 7, 19, 90, 127, 163, 74, 90, 82, 3, 4.72994
171, 1, bw, attraction, a-b-db, 5, 3, 7, 20, 195, 120, 120, 195, 117, 190, 1, 12.065
171, 1, bw, attraction, a-b-db, 5, 3, 7, 20, 195, 120, 120, 195, 117, 190, 3, 0.634041
171, 1, bw, attraction, a-b-db, 2, 1, 7, 21, 59, 134, 60, 135, 135, 60, 2, 1.90242
171, 1, bw, attraction, a-b-db, 2, 1, 7, 21, 59, 134, 60, 135, 135, 60, 1, 5.16904
171, 1, bw, attraction, a-b-da, 5, 3, 7, 22, 195, 120, 120, 195, 190, 117, 2, 1.40665
171, 1, bw, attraction, a-b-da, 5, 3, 7, 22, 195, 120, 120, 195, 190, 117, 3, 0.604877
171, 1, bw, attraction, a-b-da, 9, 3, 7, 23, 120, 195, 186, 114, 195, 120, 1, 1.81074
171, 1, bw, attraction, a-b-da, 9, 3, 7, 23, 120, 195, 186, 114, 195, 120, 2, 0.536684
171, 1, bw, attraction, a-b-da, 5, 2, 7, 24, 161, 88, 90, 165, 165, 90, 2, 5.0894
171, 1, bw, attraction, a-b-da, 5, 2, 7, 24, 161, 88, 90, 165, 165, 90, 3, 0.955562
171, 1, bw, attraction, a-b-db, 14, 3, 7, 25, 111, 181, 120, 195, 195, 120, 2, 13.9792
171, 1, bw, attraction, a-b-db, 14, 3, 7, 25, 111, 181, 120, 195, 195, 120, 1, 1.63883
171, 1, bw, catch, NA, 999, 999, 7, 26, 112, 83, 191, 124, 110, 145, 2, 1.5389
171, 1, bw, catch, NA, 999, 999, 7, 26, 112, 83, 191, 124, 110, 145, 1, 0.883737
171, 1, bw, attraction, a-b-db, 5, 2, 7, 27, 90, 165, 88, 161, 165, 90, 2, 2.08601
171, 1, bw, attraction, a-b-db, 5, 2, 7, 27, 90, 165, 88, 161, 165, 90, 1, 1.1054
171, 1, bw, catch, NA, 999, 999, 7, 28, 157, 158, 90, 165, 60, 135, 1, 0.826919
171, 1, bw, catch, NA, 999, 999, 7, 28, 157, 158, 90, 165, 60, 135, 3, 0.497103
171, 1, bw, attraction, a-b-db, 14, 1, 7, 29, 60, 135, 56, 125, 135, 60, 3, 0.970412
171, 1, bw, attraction, a-b-db, 14, 1, 7, 29, 60, 135, 56, 125, 135, 60, 2, 0.73087
171, 1, bw, filler, NA, 999, 999, 7, 30, 102, 101, 78, 82, 130, 137, 3, 0.867249
171, 1, bw, filler, NA, 999, 999, 7, 30, 102, 101, 78, 82, 130, 137, 2, 0.471589
171, 1, bw, attraction, a-b-da, 9, 2, 7, 31, 157, 86, 165, 90, 90, 165, 3, 4.61876
171, 1, bw, attraction, a-b-da, 9, 2, 7, 31, 157, 86, 165, 90, 90, 165, 1, 0.767887
171, 1, bw, attraction, a-b-db, 9, 2, 7, 32, 165, 90, 90, 165, 86, 157, 2, 1.45493
171, 1, bw, attraction, a-b-db, 9, 2, 7, 32, 165, 90, 90, 165, 86, 157, 1, 1.55509
171, 1, bw, attraction, a-b-da, 2, 2, 7, 33, 90, 165, 163, 89, 165, 90, 3, 1.40259
171, 1, bw, attraction, a-b-da, 2, 2, 7, 33, 90, 165, 163, 89, 165, 90, 2, 1.44153
171, 1, bw, attraction, a-b-da, 2, 1, 7, 34, 60, 135, 134, 59, 135, 60, 1, 8.47682
171, 1, bw, attraction, a-b-da, 2, 1, 7, 34, 60, 135, 134, 59, 135, 60, 2, 0.630165
171, 1, bw, attraction, a-b-db, 2, 2, 7, 35, 165, 90, 90, 165, 89, 163, 2, 2.1147
171, 1, bw, attraction, a-b-db, 2, 2, 7, 35, 165, 90, 90, 165, 89, 163, 3, 3.23664
171, 1, bw, attraction, a-b-db, 5, 1, 7, 36, 135, 60, 58, 132, 60, 135, 2, 4.31223
171, 1, bw, attraction, a-b-db, 5, 1, 7, 36, 135, 60, 58, 132, 60, 135, 1, 1.14564
171, 1, bw, attraction, a-b-da, 14, 2, 7, 37, 165, 90, 90, 165, 153, 83, 2, 9.87312
171, 1, bw, attraction, a-b-da, 14, 2, 7, 37, 165, 90, 90, 165, 153, 83, 3, 1.53064
171, 1, bw, attraction, a-b-da, 9, 1, 8, 1, 129, 57, 60, 135, 135, 60, 2, 6.91473
171, 1, bw, attraction, a-b-da, 9, 1, 8, 1, 129, 57, 60, 135, 135, 60, 1, 4.73127
171, 1, bw, attraction, a-b-da, 14, 3, 8, 2, 181, 111, 195, 120, 120, 195, 3, 14.6663
171, 1, bw, attraction, a-b-da, 14, 3, 8, 2, 181, 111, 195, 120, 120, 195, 1, 1.03442
171, 1, bw, attraction, a-b-db, 9, 1, 8, 3, 60, 135, 135, 60, 57, 129, 1, 3.96672
171, 1, bw, attraction, a-b-db, 9, 1, 8, 3, 60, 135, 135, 60, 57, 129, 2, 1.93411
171, 1, bw, attraction, a-b-da, 2, 2, 8, 4, 163, 89, 90, 165, 165, 90, 2, 1.37414
171, 1, bw, attraction, a-b-da, 2, 2, 8, 4, 163, 89, 90, 165, 165, 90, 1, 1.02969
171, 1, bw, attraction, a-b-db, 14, 3, 8, 5, 120, 195, 111, 181, 195, 120, 1, 2.20999
171, 1, bw, attraction, a-b-db, 14, 3, 8, 5, 120, 195, 111, 181, 195, 120, 2, 1.0559
171, 1, bw, attraction, a-b-db, 2, 1, 8, 6, 60, 135, 59, 134, 135, 60, 1, 2.45148
171, 1, bw, attraction, a-b-db, 2, 1, 8, 6, 60, 135, 59, 134, 135, 60, 3, 0.712047
171, 1, bw, filler, NA, 999, 999, 8, 7, 84, 84, 148, 67, 81, 188, 3, 12.2812
171, 1, bw, filler, NA, 999, 999, 8, 7, 84, 84, 148, 67, 81, 188, 2, 0.91335
171, 1, bw, attraction, a-b-da, 14, 1, 8, 8, 135, 60, 60, 135, 125, 56, 2, 4.85023
171, 1, bw, attraction, a-b-da, 14, 1, 8, 8, 135, 60, 60, 135, 125, 56, 3, 0.926043
171, 1, bw, attraction, a-b-da, 9, 2, 8, 9, 165, 90, 90, 165, 157, 86, 2, 21.4943
171, 1, bw, attraction, a-b-da, 9, 2, 8, 9, 165, 90, 90, 165, 157, 86, 3, 1.50772
171, 1, bw, filler, NA, 999, 999, 8, 10, 157, 118, 79, 143, 173, 76, 1, 1.39636
171, 1, bw, filler, NA, 999, 999, 8, 10, 157, 118, 79, 143, 173, 76, 3, 15.4353
171, 1, bw, attraction, a-b-da, 5, 3, 8, 11, 120, 195, 190, 117, 195, 120, 3, 2.96307
171, 1, bw, attraction, a-b-da, 5, 3, 8, 11, 120, 195, 190, 117, 195, 120, 2, 0.538885
171, 1, bw, attraction, a-b-db, 14, 2, 8, 12, 90, 165, 165, 90, 83, 153, 1, 2.34724
171, 1, bw, attraction, a-b-db, 14, 2, 8, 12, 90, 165, 165, 90, 83, 153, 3, 0.507791
171, 1, bw, attraction, a-b-db, 2, 2, 8, 13, 90, 165, 165, 90, 89, 163, 1, 3.86907
171, 1, bw, attraction, a-b-db, 2, 2, 8, 13, 90, 165, 165, 90, 89, 163, 2, 1.16047
171, 1, bw, attraction, a-b-db, 5, 2, 8, 14, 88, 161, 90, 165, 165, 90, 2, 1.99142
171, 1, bw, attraction, a-b-db, 5, 2, 8, 14, 88, 161, 90, 165, 165, 90, 1, 1.29405
171, 1, bw, catch, NA, 999, 999, 8, 15, 145, 170, 85, 110, 149, 106, 1, 3.6874
171, 1, bw, catch, NA, 999, 999, 8, 15, 145, 170, 85, 110, 149, 106, 2, 2.18628
171, 1, bw, attraction, a-b-db, 9, 3, 8, 16, 120, 195, 195, 120, 114, 186, 2, 1.31229
171, 1, bw, attraction, a-b-db, 9, 3, 8, 16, 120, 195, 195, 120, 114, 186, 3, 1.45853
171, 1, bw, filler, NA, 999, 999, 8, 17, 84, 124, 147, 143, 131, 127, 2, 2.37329
171, 1, bw, filler, NA, 999, 999, 8, 17, 84, 124, 147, 143, 131, 127, 1, 1.38048
171, 1, bw, attraction, a-b-db, 14, 1, 8, 18, 60, 135, 56, 125, 135, 60, 3, 4.68285
171, 1, bw, attraction, a-b-db, 14, 1, 8, 18, 60, 135, 56, 125, 135, 60, 2, 1.34918
171, 1, bw, attraction, a-b-da, 5, 2, 8, 19, 161, 88, 165, 90, 90, 165, 3, 1.66079
171, 1, bw, attraction, a-b-da, 5, 2, 8, 19, 161, 88, 165, 90, 90, 165, 2, 2.00085
171, 1, bw, attraction, a-b-da, 2, 3, 8, 20, 120, 195, 193, 119, 195, 120, 1, 2.43814
171, 1, bw, attraction, a-b-da, 2, 3, 8, 20, 120, 195, 193, 119, 195, 120, 2, 0.843339
171, 1, bw, attraction, a-b-db, 5, 1, 8, 21, 58, 132, 135, 60, 60, 135, 3, 1.08696
171, 1, bw, attraction, a-b-db, 5, 1, 8, 21, 58, 132, 135, 60, 60, 135, 1, 0.730761
171, 1, bw, attraction, a-b-da, 9, 3, 8, 22, 186, 114, 195, 120, 120, 195, 3, 1.61902
171, 1, bw, attraction, a-b-da, 9, 3, 8, 22, 186, 114, 195, 120, 120, 195, 2, 1.10526
171, 1, bw, attraction, a-b-da, 2, 1, 8, 23, 60, 135, 134, 59, 135, 60, 1, 1.10695
171, 1, bw, attraction, a-b-da, 2, 1, 8, 23, 60, 135, 134, 59, 135, 60, 3, 0.885027
171, 1, bw, attraction, a-b-da, 14, 2, 8, 24, 153, 83, 90, 165, 165, 90, 2, 1.31937
171, 1, bw, attraction, a-b-da, 14, 2, 8, 24, 153, 83, 90, 165, 165, 90, 1, 1.30577
171, 1, bw, catch, NA, 999, 999, 8, 25, 139, 176, 158, 97, 110, 85, 1, 1.00336
171, 1, bw, catch, NA, 999, 999, 8, 25, 139, 176, 158, 97, 110, 85, 3, 0.794189
171, 1, bw, filler, NA, 999, 999, 8, 26, 138, 86, 60, 194, 123, 116, 3, 3.36793
171, 1, bw, filler, NA, 999, 999, 8, 26, 138, 86, 60, 194, 123, 116, 2, 3.08743
171, 1, bw, filler, NA, 999, 999, 8, 27, 114, 93, 120, 71, 173, 153, 3, 1.05709
171, 1, bw, filler, NA, 999, 999, 8, 27, 114, 93, 120, 71, 173, 153, 2, 0.965386
171, 1, bw, filler, NA, 999, 999, 8, 28, 189, 138, 178, 106, 143, 101, 1, 1.81232
171, 1, bw, filler, NA, 999, 999, 8, 28, 189, 138, 178, 106, 143, 101, 3, 2.65042
171, 1, bw, filler, NA, 999, 999, 8, 29, 74, 133, 116, 193, 87, 159, 2, 1.87767
171, 1, bw, filler, NA, 999, 999, 8, 29, 74, 133, 116, 193, 87, 159, 1, 0.792978
171, 1, bw, catch, NA, 999, 999, 8, 30, 103, 152, 92, 103, 154, 161, 3, 1.08662
171, 1, bw, catch, NA, 999, 999, 8, 30, 103, 152, 92, 103, 154, 161, 2, 3.6264
171, 1, bw, attraction, a-b-db, 5, 3, 8, 31, 120, 195, 117, 190, 195, 120, 1, 2.8058
171, 1, bw, attraction, a-b-db, 5, 3, 8, 31, 120, 195, 117, 190, 195, 120, 3, 0.675482
171, 1, bw, attraction, a-b-db, 9, 2, 8, 32, 90, 165, 86, 157, 165, 90, 1, 5.2219
171, 1, bw, attraction, a-b-db, 9, 2, 8, 32, 90, 165, 86, 157, 165, 90, 3, 0.61817
171, 1, bw, filler, NA, 999, 999, 8, 33, 86, 125, 185, 81, 66, 179, 2, 3.1753
171, 1, bw, filler, NA, 999, 999, 8, 33, 86, 125, 185, 81, 66, 179, 3, 3.13429
171, 1, bw, attraction, a-b-db, 2, 3, 8, 34, 195, 120, 120, 195, 119, 193, 2, 2.8461
171, 1, bw, attraction, a-b-db, 2, 3, 8, 34, 195, 120, 120, 195, 119, 193, 3, 0.970546
171, 1, bw, filler, NA, 999, 999, 8, 35, 119, 122, 162, 128, 78, 185, 2, 0.985289
171, 1, bw, filler, NA, 999, 999, 8, 35, 119, 122, 162, 128, 78, 185, 1, 13.393
171, 1, bw, filler, NA, 999, 999, 8, 36, 163, 80, 139, 104, 120, 170, 3, 2.49951
171, 1, bw, filler, NA, 999, 999, 8, 36, 163, 80, 139, 104, 120, 170, 1, 1.67803
171, 1, bw, attraction, a-b-da, 5, 1, 8, 37, 60, 135, 132, 58, 135, 60, 1, 4.52013
171, 1, bw, attraction, a-b-da, 5, 1, 8, 37, 60, 135, 132, 58, 135, 60, 2, 1.18542
