sub_n, computer_n, bw_cond, effect, set, distance, diag, block_n, trial_n, h1, w1, h2, w2, h3, w3, choice, rt 
101, 1, bw, practice, NA, 999, 999, 0, 1, 95, 119, 70, 71, 126, 85, 1, 9.70143
101, 1, bw, practice, NA, 999, 999, 0, 1, 95, 119, 70, 71, 126, 85, 2, 2.40039
101, 1, bw, practice, NA, 999, 999, 0, 2, 90, 103, 146, 104, 145, 61, 2, 4.26306
101, 1, bw, practice, NA, 999, 999, 0, 2, 90, 103, 146, 104, 145, 61, 3, 10.1415
101, 1, bw, practice, NA, 999, 999, 0, 3, 82, 185, 130, 127, 70, 125, 2, 5.10982
101, 1, bw, practice, NA, 999, 999, 0, 3, 82, 185, 130, 127, 70, 125, 3, 1.44063
101, 1, bw, attraction, a-b-db, 5, 2, 1, 1, 88, 161, 165, 90, 90, 165, 3, 9.06022
101, 1, bw, attraction, a-b-db, 5, 2, 1, 1, 88, 161, 165, 90, 90, 165, 2, 2.49419
101, 1, bw, attraction, a-b-db, 9, 3, 1, 2, 120, 195, 195, 120, 114, 186, 1, 2.75928
101, 1, bw, attraction, a-b-db, 9, 3, 1, 2, 120, 195, 195, 120, 114, 186, 3, 3.08704
101, 1, bw, filler, NA, 999, 999, 1, 3, 124, 76, 154, 143, 142, 82, 2, 2.25678
101, 1, bw, filler, NA, 999, 999, 1, 3, 124, 76, 154, 143, 142, 82, 1, 1.53264
101, 1, bw, filler, NA, 999, 999, 1, 4, 88, 82, 94, 78, 95, 130, 3, 1.74082
101, 1, bw, filler, NA, 999, 999, 1, 4, 88, 82, 94, 78, 95, 130, 2, 1.39756
101, 1, bw, attraction, a-b-db, 2, 3, 1, 5, 119, 193, 120, 195, 195, 120, 1, 5.97106
101, 1, bw, attraction, a-b-db, 2, 3, 1, 5, 119, 193, 120, 195, 195, 120, 3, 1.80177
101, 1, bw, filler, NA, 999, 999, 1, 6, 160, 67, 61, 65, 191, 188, 3, 1.43914
101, 1, bw, filler, NA, 999, 999, 1, 6, 160, 67, 61, 65, 191, 188, 2, 1.29204
101, 1, bw, attraction, a-b-db, 9, 1, 1, 7, 57, 129, 135, 60, 60, 135, 3, 3.16552
101, 1, bw, attraction, a-b-db, 9, 1, 1, 7, 57, 129, 135, 60, 60, 135, 2, 1.0532
101, 1, bw, filler, NA, 999, 999, 1, 8, 137, 142, 92, 160, 70, 136, 1, 1.75285
101, 1, bw, filler, NA, 999, 999, 1, 8, 137, 142, 92, 160, 70, 136, 3, 1.21759
101, 1, bw, filler, NA, 999, 999, 1, 9, 56, 120, 127, 80, 147, 170, 3, 1.35051
101, 1, bw, filler, NA, 999, 999, 1, 9, 56, 120, 127, 80, 147, 170, 1, 1.12743
101, 1, bw, attraction, a-b-db, 9, 2, 1, 10, 90, 165, 86, 157, 165, 90, 1, 2.86352
101, 1, bw, attraction, a-b-db, 9, 2, 1, 10, 90, 165, 86, 157, 165, 90, 2, 2.37134
101, 1, bw, attraction, a-b-db, 2, 2, 1, 11, 89, 163, 165, 90, 90, 165, 3, 3.82578
101, 1, bw, attraction, a-b-db, 2, 2, 1, 11, 89, 163, 165, 90, 90, 165, 2, 1.32669
101, 1, bw, attraction, a-b-da, 14, 3, 1, 12, 195, 120, 181, 111, 120, 195, 3, 5.95883
101, 1, bw, attraction, a-b-da, 14, 3, 1, 12, 195, 120, 181, 111, 120, 195, 2, 1.53381
101, 1, bw, attraction, a-b-da, 2, 2, 1, 13, 163, 89, 90, 165, 165, 90, 2, 12.8138
101, 1, bw, attraction, a-b-da, 2, 2, 1, 13, 163, 89, 90, 165, 165, 90, 3, 2.36042
101, 1, bw, catch, NA, 999, 999, 1, 14, 152, 103, 189, 126, 80, 115, 2, 1.68694
101, 1, bw, catch, NA, 999, 999, 1, 14, 152, 103, 189, 126, 80, 115, 3, 1.36238
101, 1, bw, attraction, a-b-db, 14, 1, 1, 15, 56, 125, 60, 135, 135, 60, 3, 6.08124
101, 1, bw, attraction, a-b-db, 14, 1, 1, 15, 56, 125, 60, 135, 135, 60, 1, 1.53128
101, 1, bw, filler, NA, 999, 999, 1, 16, 162, 79, 136, 129, 148, 87, 2, 1.16353
101, 1, bw, filler, NA, 999, 999, 1, 16, 162, 79, 136, 129, 148, 87, 1, 3.83563
101, 1, bw, attraction, a-b-da, 5, 1, 1, 17, 60, 135, 135, 60, 132, 58, 1, 3.71104
101, 1, bw, attraction, a-b-da, 5, 1, 1, 17, 60, 135, 135, 60, 132, 58, 2, 1.71262
101, 1, bw, attraction, a-b-db, 2, 1, 1, 18, 135, 60, 59, 134, 60, 135, 3, 3.23335
101, 1, bw, attraction, a-b-db, 2, 1, 1, 18, 135, 60, 59, 134, 60, 135, 2, 1.19831
101, 1, bw, attraction, a-b-da, 9, 3, 1, 19, 195, 120, 120, 195, 186, 114, 2, 4.40382
101, 1, bw, attraction, a-b-da, 9, 3, 1, 19, 195, 120, 120, 195, 186, 114, 3, 0.81794
101, 1, bw, attraction, a-b-da, 2, 3, 1, 20, 193, 119, 195, 120, 120, 195, 3, 1.87091
101, 1, bw, attraction, a-b-da, 2, 3, 1, 20, 193, 119, 195, 120, 120, 195, 2, 1.55493
101, 1, bw, catch, NA, 999, 999, 1, 21, 159, 96, 140, 175, 61, 134, 2, 1.3624
101, 1, bw, catch, NA, 999, 999, 1, 21, 159, 96, 140, 175, 61, 134, 3, 1.07464
101, 1, bw, attraction, a-b-da, 9, 1, 1, 22, 60, 135, 135, 60, 129, 57, 3, 5.60498
101, 1, bw, attraction, a-b-da, 9, 1, 1, 22, 60, 135, 135, 60, 129, 57, 2, 2.25044
101, 1, bw, attraction, a-b-db, 5, 1, 1, 23, 60, 135, 58, 132, 135, 60, 3, 4.58968
101, 1, bw, attraction, a-b-db, 5, 1, 1, 23, 60, 135, 58, 132, 135, 60, 2, 1.36342
101, 1, bw, attraction, a-b-db, 14, 3, 1, 24, 120, 195, 111, 181, 195, 120, 1, 2.28236
101, 1, bw, attraction, a-b-db, 14, 3, 1, 24, 120, 195, 111, 181, 195, 120, 2, 1.02169
101, 1, bw, attraction, a-b-db, 14, 2, 1, 25, 90, 165, 83, 153, 165, 90, 3, 3.92263
101, 1, bw, attraction, a-b-db, 14, 2, 1, 25, 90, 165, 83, 153, 165, 90, 2, 1.37134
101, 1, bw, attraction, a-b-da, 2, 1, 1, 26, 135, 60, 134, 59, 60, 135, 3, 6.96213
101, 1, bw, attraction, a-b-da, 2, 1, 1, 26, 135, 60, 134, 59, 60, 135, 1, 1.75265
101, 1, bw, attraction, a-b-da, 9, 2, 1, 27, 90, 165, 157, 86, 165, 90, 1, 2.30395
101, 1, bw, attraction, a-b-da, 9, 2, 1, 27, 90, 165, 157, 86, 165, 90, 2, 1.42661
101, 1, bw, filler, NA, 999, 999, 1, 28, 152, 74, 134, 195, 58, 68, 2, 1.4228
101, 1, bw, filler, NA, 999, 999, 1, 28, 152, 74, 134, 195, 58, 68, 3, 1.22838
101, 1, bw, attraction, a-b-da, 5, 2, 1, 29, 165, 90, 161, 88, 90, 165, 1, 3.79246
101, 1, bw, attraction, a-b-da, 5, 2, 1, 29, 165, 90, 161, 88, 90, 165, 2, 1.47868
101, 1, bw, attraction, a-b-db, 5, 3, 1, 30, 117, 190, 120, 195, 195, 120, 2, 2.49678
101, 1, bw, attraction, a-b-db, 5, 3, 1, 30, 117, 190, 120, 195, 195, 120, 3, 2.25136
101, 1, bw, attraction, a-b-da, 14, 2, 1, 31, 153, 83, 165, 90, 90, 165, 3, 6.99052
101, 1, bw, attraction, a-b-da, 14, 2, 1, 31, 153, 83, 165, 90, 90, 165, 1, 2.60365
101, 1, bw, filler, NA, 999, 999, 1, 32, 69, 174, 67, 118, 137, 101, 3, 1.68895
101, 1, bw, filler, NA, 999, 999, 1, 32, 69, 174, 67, 118, 137, 101, 2, 1.33177
101, 1, bw, catch, NA, 999, 999, 1, 33, 99, 156, 169, 146, 88, 107, 2, 1.61193
101, 1, bw, catch, NA, 999, 999, 1, 33, 99, 156, 169, 146, 88, 107, 3, 1.20991
101, 1, bw, attraction, a-b-da, 5, 3, 1, 34, 195, 120, 120, 195, 190, 117, 1, 6.47884
101, 1, bw, attraction, a-b-da, 5, 3, 1, 34, 195, 120, 120, 195, 190, 117, 3, 1.0089
101, 1, bw, filler, NA, 999, 999, 1, 35, 118, 178, 64, 117, 125, 83, 1, 1.33366
101, 1, bw, filler, NA, 999, 999, 1, 35, 118, 178, 64, 117, 125, 83, 2, 0.927224
101, 1, bw, attraction, a-b-da, 14, 1, 1, 36, 125, 56, 60, 135, 135, 60, 3, 1.92758
101, 1, bw, attraction, a-b-da, 14, 1, 1, 36, 125, 56, 60, 135, 135, 60, 1, 0.889036
101, 1, bw, filler, NA, 999, 999, 1, 37, 149, 166, 83, 193, 147, 69, 1, 1.87527
101, 1, bw, filler, NA, 999, 999, 1, 37, 149, 166, 83, 193, 147, 69, 3, 1.62288
101, 1, bw, attraction, a-b-da, 5, 2, 2, 1, 161, 88, 165, 90, 90, 165, 3, 3.95547
101, 1, bw, attraction, a-b-da, 5, 2, 2, 1, 161, 88, 165, 90, 90, 165, 1, 2.77091
101, 1, bw, filler, NA, 999, 999, 2, 2, 71, 168, 114, 138, 171, 62, 2, 1.44932
101, 1, bw, filler, NA, 999, 999, 2, 2, 71, 168, 114, 138, 171, 62, 1, 9.73415
101, 1, bw, attraction, a-b-db, 9, 2, 2, 3, 90, 165, 165, 90, 86, 157, 2, 6.47569
101, 1, bw, attraction, a-b-db, 9, 2, 2, 3, 90, 165, 165, 90, 86, 157, 3, 2.25358
101, 1, bw, catch, NA, 999, 999, 2, 4, 126, 129, 144, 171, 117, 78, 2, 1.45059
101, 1, bw, catch, NA, 999, 999, 2, 4, 126, 129, 144, 171, 117, 78, 3, 1.27779
101, 1, bw, attraction, a-b-da, 14, 1, 2, 5, 125, 56, 135, 60, 60, 135, 3, 3.43996
101, 1, bw, attraction, a-b-da, 14, 1, 2, 5, 125, 56, 135, 60, 60, 135, 2, 0.988231
101, 1, bw, attraction, a-b-db, 2, 3, 2, 6, 195, 120, 119, 193, 120, 195, 1, 6.94644
101, 1, bw, attraction, a-b-db, 2, 3, 2, 6, 195, 120, 119, 193, 120, 195, 3, 4.97763
101, 1, bw, attraction, a-b-da, 5, 3, 2, 7, 195, 120, 120, 195, 190, 117, 2, 7.57473
101, 1, bw, attraction, a-b-da, 5, 3, 2, 7, 195, 120, 120, 195, 190, 117, 3, 1.1163
101, 1, bw, attraction, a-b-db, 14, 2, 2, 8, 90, 165, 165, 90, 83, 153, 2, 1.66116
101, 1, bw, attraction, a-b-db, 14, 2, 2, 8, 90, 165, 165, 90, 83, 153, 3, 0.961407
101, 1, bw, attraction, a-b-da, 2, 3, 2, 9, 120, 195, 195, 120, 193, 119, 2, 4.40825
101, 1, bw, attraction, a-b-da, 2, 3, 2, 9, 120, 195, 195, 120, 193, 119, 3, 1.59757
101, 1, bw, attraction, a-b-db, 2, 2, 2, 10, 165, 90, 90, 165, 89, 163, 3, 2.283
101, 1, bw, attraction, a-b-db, 2, 2, 2, 10, 165, 90, 90, 165, 89, 163, 1, 0.950223
101, 1, bw, filler, NA, 999, 999, 2, 11, 88, 192, 169, 118, 115, 127, 2, 3.54992
101, 1, bw, filler, NA, 999, 999, 2, 11, 88, 192, 169, 118, 115, 127, 3, 1.20607
101, 1, bw, attraction, a-b-da, 9, 1, 2, 12, 129, 57, 60, 135, 135, 60, 3, 5.67567
101, 1, bw, attraction, a-b-da, 9, 1, 2, 12, 129, 57, 60, 135, 135, 60, 1, 1.90993
101, 1, bw, attraction, a-b-db, 9, 1, 2, 13, 135, 60, 57, 129, 60, 135, 3, 5.56653
101, 1, bw, attraction, a-b-db, 9, 1, 2, 13, 135, 60, 57, 129, 60, 135, 2, 1.2134
101, 1, bw, filler, NA, 999, 999, 2, 14, 129, 132, 84, 109, 120, 90, 1, 2.53834
101, 1, bw, filler, NA, 999, 999, 2, 14, 129, 132, 84, 109, 120, 90, 2, 1.38755
101, 1, bw, filler, NA, 999, 999, 2, 15, 139, 86, 116, 72, 118, 82, 1, 2.77777
101, 1, bw, filler, NA, 999, 999, 2, 15, 139, 86, 116, 72, 118, 82, 2, 1.1048
101, 1, bw, attraction, a-b-db, 14, 1, 2, 16, 56, 125, 60, 135, 135, 60, 3, 8.28236
101, 1, bw, attraction, a-b-db, 14, 1, 2, 16, 56, 125, 60, 135, 135, 60, 1, 0.859707
101, 1, bw, attraction, a-b-da, 2, 2, 2, 17, 90, 165, 163, 89, 165, 90, 1, 2.31081
101, 1, bw, attraction, a-b-da, 2, 2, 2, 17, 90, 165, 163, 89, 165, 90, 2, 1.74469
101, 1, bw, attraction, a-b-da, 5, 1, 2, 18, 60, 135, 132, 58, 135, 60, 3, 2.23208
101, 1, bw, attraction, a-b-da, 5, 1, 2, 18, 60, 135, 132, 58, 135, 60, 2, 1.26933
101, 1, bw, filler, NA, 999, 999, 2, 19, 119, 59, 66, 107, 186, 84, 3, 1.10425
101, 1, bw, filler, NA, 999, 999, 2, 19, 119, 59, 66, 107, 186, 84, 1, 5.26718
101, 1, bw, attraction, a-b-da, 9, 2, 2, 20, 165, 90, 157, 86, 90, 165, 3, 6.90091
101, 1, bw, attraction, a-b-da, 9, 2, 2, 20, 165, 90, 157, 86, 90, 165, 2, 0.797931
101, 1, bw, attraction, a-b-db, 2, 1, 2, 21, 59, 134, 60, 135, 135, 60, 1, 12.7557
101, 1, bw, attraction, a-b-db, 2, 1, 2, 21, 59, 134, 60, 135, 135, 60, 3, 3.113
101, 1, bw, attraction, a-b-db, 5, 1, 2, 22, 58, 132, 60, 135, 135, 60, 3, 2.08131
101, 1, bw, attraction, a-b-db, 5, 1, 2, 22, 58, 132, 60, 135, 135, 60, 1, 1.1088
101, 1, bw, catch, NA, 999, 999, 2, 23, 125, 130, 104, 91, 128, 187, 3, 1.36554
101, 1, bw, catch, NA, 999, 999, 2, 23, 125, 130, 104, 91, 128, 187, 2, 1.02178
101, 1, bw, attraction, a-b-db, 14, 3, 2, 24, 195, 120, 120, 195, 111, 181, 1, 2.82671
101, 1, bw, attraction, a-b-db, 14, 3, 2, 24, 195, 120, 120, 195, 111, 181, 3, 1.21583
101, 1, bw, filler, NA, 999, 999, 2, 25, 166, 70, 149, 134, 72, 114, 2, 1.78077
101, 1, bw, filler, NA, 999, 999, 2, 25, 166, 70, 149, 134, 72, 114, 1, 1.38019
101, 1, bw, attraction, a-b-da, 14, 2, 2, 26, 90, 165, 153, 83, 165, 90, 3, 5.02624
101, 1, bw, attraction, a-b-da, 14, 2, 2, 26, 90, 165, 153, 83, 165, 90, 2, 1.34265
101, 1, bw, filler, NA, 999, 999, 2, 27, 134, 69, 159, 59, 169, 68, 3, 3.78241
101, 1, bw, filler, NA, 999, 999, 2, 27, 134, 69, 159, 59, 169, 68, 1, 2.65303
101, 1, bw, attraction, a-b-da, 2, 1, 2, 28, 135, 60, 60, 135, 134, 59, 3, 23.6563
101, 1, bw, attraction, a-b-da, 2, 1, 2, 28, 135, 60, 60, 135, 134, 59, 1, 1.37415
101, 1, bw, attraction, a-b-db, 9, 3, 2, 29, 120, 195, 114, 186, 195, 120, 3, 7.89242
101, 1, bw, attraction, a-b-db, 9, 3, 2, 29, 120, 195, 114, 186, 195, 120, 2, 1.20508
101, 1, bw, attraction, a-b-db, 5, 3, 2, 30, 120, 195, 195, 120, 117, 190, 1, 4.55459
101, 1, bw, attraction, a-b-db, 5, 3, 2, 30, 120, 195, 195, 120, 117, 190, 3, 0.970547
101, 1, bw, attraction, a-b-da, 9, 3, 2, 31, 186, 114, 120, 195, 195, 120, 3, 7.19345
101, 1, bw, attraction, a-b-da, 9, 3, 2, 31, 186, 114, 120, 195, 195, 120, 1, 0.630608
101, 1, bw, attraction, a-b-db, 5, 2, 2, 32, 88, 161, 90, 165, 165, 90, 2, 4.96301
101, 1, bw, attraction, a-b-db, 5, 2, 2, 32, 88, 161, 90, 165, 165, 90, 1, 0.650008
101, 1, bw, catch, NA, 999, 999, 2, 33, 100, 95, 167, 148, 101, 154, 2, 1.02173
101, 1, bw, catch, NA, 999, 999, 2, 33, 100, 95, 167, 148, 101, 154, 1, 0.923413
101, 1, bw, attraction, a-b-da, 14, 3, 2, 34, 181, 111, 120, 195, 195, 120, 2, 5.69986
101, 1, bw, attraction, a-b-da, 14, 3, 2, 34, 181, 111, 120, 195, 195, 120, 3, 1.22145
101, 1, bw, filler, NA, 999, 999, 2, 35, 118, 167, 157, 146, 110, 172, 2, 2.65018
101, 1, bw, filler, NA, 999, 999, 2, 35, 118, 167, 157, 146, 110, 172, 3, 6.57462
101, 1, bw, filler, NA, 999, 999, 2, 36, 131, 159, 143, 142, 118, 121, 1, 1.14785
101, 1, bw, filler, NA, 999, 999, 2, 36, 131, 159, 143, 142, 118, 121, 3, 1.01289
101, 1, bw, filler, NA, 999, 999, 2, 37, 96, 130, 169, 95, 171, 144, 3, 0.841908
101, 1, bw, filler, NA, 999, 999, 2, 37, 96, 130, 169, 95, 171, 144, 1, 0.918847
101, 1, bw, attraction, a-b-da, 5, 3, 3, 1, 190, 117, 195, 120, 120, 195, 3, 1.55191
101, 1, bw, attraction, a-b-da, 5, 3, 3, 1, 190, 117, 195, 120, 120, 195, 1, 1.01661
101, 1, bw, attraction, a-b-db, 2, 2, 3, 2, 89, 163, 90, 165, 165, 90, 2, 3.60555
101, 1, bw, attraction, a-b-db, 2, 2, 3, 2, 89, 163, 90, 165, 165, 90, 3, 1.04318
101, 1, bw, attraction, a-b-da, 5, 1, 3, 3, 60, 135, 132, 58, 135, 60, 1, 6.40669
101, 1, bw, attraction, a-b-da, 5, 1, 3, 3, 60, 135, 132, 58, 135, 60, 2, 1.03538
101, 1, bw, attraction, a-b-db, 2, 3, 3, 4, 195, 120, 120, 195, 119, 193, 1, 6.35969
101, 1, bw, attraction, a-b-db, 2, 3, 3, 4, 195, 120, 120, 195, 119, 193, 3, 1.07827
101, 1, bw, attraction, a-b-da, 9, 1, 3, 5, 135, 60, 60, 135, 129, 57, 1, 4.66461
101, 1, bw, attraction, a-b-da, 9, 1, 3, 5, 135, 60, 60, 135, 129, 57, 2, 2.05974
101, 1, bw, attraction, a-b-da, 9, 3, 3, 6, 195, 120, 120, 195, 186, 114, 1, 2.31833
101, 1, bw, attraction, a-b-da, 9, 3, 3, 6, 195, 120, 120, 195, 186, 114, 3, 1.39231
101, 1, bw, filler, NA, 999, 999, 3, 7, 125, 191, 98, 194, 179, 195, 3, 1.34983
101, 1, bw, filler, NA, 999, 999, 3, 7, 125, 191, 98, 194, 179, 195, 2, 0.854793
101, 1, bw, attraction, a-b-da, 2, 1, 3, 8, 134, 59, 60, 135, 135, 60, 1, 4.44242
101, 1, bw, attraction, a-b-da, 2, 1, 3, 8, 134, 59, 60, 135, 135, 60, 2, 1.48626
101, 1, bw, attraction, a-b-db, 14, 2, 3, 9, 165, 90, 90, 165, 83, 153, 2, 3.68049
101, 1, bw, attraction, a-b-db, 14, 2, 3, 9, 165, 90, 90, 165, 83, 153, 1, 2.34737
101, 1, bw, filler, NA, 999, 999, 3, 10, 103, 63, 126, 145, 176, 156, 3, 2.50645
101, 1, bw, filler, NA, 999, 999, 3, 10, 103, 63, 126, 145, 176, 156, 1, 1.55633
101, 1, bw, attraction, a-b-db, 14, 3, 3, 11, 195, 120, 120, 195, 111, 181, 1, 3.88376
101, 1, bw, attraction, a-b-db, 14, 3, 3, 11, 195, 120, 120, 195, 111, 181, 3, 0.846527
101, 1, bw, filler, NA, 999, 999, 3, 12, 190, 107, 81, 66, 190, 163, 3, 1.23434
101, 1, bw, filler, NA, 999, 999, 3, 12, 190, 107, 81, 66, 190, 163, 2, 1.03984
101, 1, bw, catch, NA, 999, 999, 3, 13, 178, 137, 73, 122, 91, 164, 1, 2.47619
101, 1, bw, catch, NA, 999, 999, 3, 13, 178, 137, 73, 122, 91, 164, 2, 1.08727
101, 1, bw, attraction, a-b-db, 5, 1, 3, 14, 60, 135, 58, 132, 135, 60, 1, 2.3136
101, 1, bw, attraction, a-b-db, 5, 1, 3, 14, 60, 135, 58, 132, 135, 60, 2, 0.691644
101, 1, bw, attraction, a-b-db, 9, 2, 3, 15, 86, 157, 165, 90, 90, 165, 2, 2.40527
101, 1, bw, attraction, a-b-db, 9, 2, 3, 15, 86, 157, 165, 90, 90, 165, 1, 0.747685
101, 1, bw, filler, NA, 999, 999, 3, 16, 194, 153, 145, 169, 65, 106, 1, 1.21142
101, 1, bw, filler, NA, 999, 999, 3, 16, 194, 153, 145, 169, 65, 106, 3, 0.769727
101, 1, bw, attraction, a-b-db, 9, 3, 3, 17, 195, 120, 114, 186, 120, 195, 3, 5.57676
101, 1, bw, attraction, a-b-db, 9, 3, 3, 17, 195, 120, 114, 186, 120, 195, 1, 1.20708
101, 1, bw, catch, NA, 999, 999, 3, 18, 163, 92, 149, 166, 87, 108, 2, 1.79587
101, 1, bw, catch, NA, 999, 999, 3, 18, 163, 92, 149, 166, 87, 108, 3, 0.946618
101, 1, bw, attraction, a-b-da, 5, 2, 3, 19, 161, 88, 165, 90, 90, 165, 3, 2.62625
101, 1, bw, attraction, a-b-da, 5, 2, 3, 19, 161, 88, 165, 90, 90, 165, 2, 0.903452
101, 1, bw, attraction, a-b-da, 14, 2, 3, 20, 165, 90, 153, 83, 90, 165, 3, 11.6011
101, 1, bw, attraction, a-b-da, 14, 2, 3, 20, 165, 90, 153, 83, 90, 165, 2, 1.03674
101, 1, bw, catch, NA, 999, 999, 3, 21, 156, 159, 146, 109, 60, 135, 1, 1.60903
101, 1, bw, catch, NA, 999, 999, 3, 21, 156, 159, 146, 109, 60, 135, 3, 0.5512
101, 1, bw, attraction, a-b-db, 5, 3, 3, 22, 120, 195, 195, 120, 117, 190, 1, 6.39889
101, 1, bw, attraction, a-b-db, 5, 3, 3, 22, 120, 195, 195, 120, 117, 190, 3, 0.644295
101, 1, bw, filler, NA, 999, 999, 3, 23, 67, 98, 186, 87, 107, 190, 3, 1.99209
101, 1, bw, filler, NA, 999, 999, 3, 23, 67, 98, 186, 87, 107, 190, 1, 0.990617
101, 1, bw, filler, NA, 999, 999, 3, 24, 94, 101, 143, 154, 168, 113, 2, 1.62842
101, 1, bw, filler, NA, 999, 999, 3, 24, 94, 101, 143, 154, 168, 113, 1, 0.801885
101, 1, bw, attraction, a-b-db, 5, 2, 3, 25, 88, 161, 90, 165, 165, 90, 2, 3.43152
101, 1, bw, attraction, a-b-db, 5, 2, 3, 25, 88, 161, 90, 165, 165, 90, 3, 1.18038
101, 1, bw, attraction, a-b-da, 2, 3, 3, 26, 193, 119, 120, 195, 195, 120, 2, 4.46684
101, 1, bw, attraction, a-b-da, 2, 3, 3, 26, 193, 119, 120, 195, 195, 120, 3, 0.62194
101, 1, bw, attraction, a-b-da, 2, 2, 3, 27, 165, 90, 90, 165, 163, 89, 1, 8.73084
101, 1, bw, attraction, a-b-da, 2, 2, 3, 27, 165, 90, 90, 165, 163, 89, 2, 2.19425
101, 1, bw, filler, NA, 999, 999, 3, 28, 92, 121, 160, 88, 111, 83, 2, 2.61545
101, 1, bw, filler, NA, 999, 999, 3, 28, 92, 121, 160, 88, 111, 83, 3, 0.797281
101, 1, bw, filler, NA, 999, 999, 3, 29, 180, 131, 162, 90, 149, 171, 3, 2.88297
101, 1, bw, filler, NA, 999, 999, 3, 29, 180, 131, 162, 90, 149, 171, 2, 1.27018
101, 1, bw, attraction, a-b-db, 14, 1, 3, 30, 135, 60, 56, 125, 60, 135, 1, 10.2491
101, 1, bw, attraction, a-b-db, 14, 1, 3, 30, 135, 60, 56, 125, 60, 135, 2, 1.49097
101, 1, bw, attraction, a-b-da, 14, 1, 3, 31, 60, 135, 125, 56, 135, 60, 3, 5.8605
101, 1, bw, attraction, a-b-da, 14, 1, 3, 31, 60, 135, 125, 56, 135, 60, 2, 1.11935
101, 1, bw, attraction, a-b-da, 14, 3, 3, 32, 181, 111, 120, 195, 195, 120, 2, 2.20818
101, 1, bw, attraction, a-b-da, 14, 3, 3, 32, 181, 111, 120, 195, 195, 120, 1, 1.59023
101, 1, bw, attraction, a-b-da, 9, 2, 3, 33, 90, 165, 157, 86, 165, 90, 1, 7.52435
101, 1, bw, attraction, a-b-da, 9, 2, 3, 33, 90, 165, 157, 86, 165, 90, 2, 0.603995
101, 1, bw, filler, NA, 999, 999, 3, 34, 171, 84, 145, 165, 186, 143, 3, 9.00959
101, 1, bw, filler, NA, 999, 999, 3, 34, 171, 84, 145, 165, 186, 143, 1, 0.70949
101, 1, bw, filler, NA, 999, 999, 3, 35, 89, 77, 83, 146, 78, 169, 2, 3.62264
101, 1, bw, filler, NA, 999, 999, 3, 35, 89, 77, 83, 146, 78, 169, 1, 0.747407
101, 1, bw, attraction, a-b-db, 9, 1, 3, 36, 60, 135, 135, 60, 57, 129, 2, 3.49913
101, 1, bw, attraction, a-b-db, 9, 1, 3, 36, 60, 135, 135, 60, 57, 129, 3, 1.02932
101, 1, bw, attraction, a-b-db, 2, 1, 3, 37, 60, 135, 135, 60, 59, 134, 1, 2.35369
101, 1, bw, attraction, a-b-db, 2, 1, 3, 37, 60, 135, 135, 60, 59, 134, 2, 1.21019
101, 1, bw, attraction, a-b-da, 2, 2, 4, 1, 90, 165, 163, 89, 165, 90, 1, 3.07911
101, 1, bw, attraction, a-b-da, 2, 2, 4, 1, 90, 165, 163, 89, 165, 90, 3, 1.76203
101, 1, bw, catch, NA, 999, 999, 4, 2, 73, 122, 121, 134, 132, 183, 3, 1.96874
101, 1, bw, catch, NA, 999, 999, 4, 2, 73, 122, 121, 134, 132, 183, 1, 1.30484
101, 1, bw, attraction, a-b-da, 2, 3, 4, 3, 195, 120, 120, 195, 193, 119, 2, 3.57045
101, 1, bw, attraction, a-b-da, 2, 3, 4, 3, 195, 120, 120, 195, 193, 119, 1, 1.90595
101, 1, bw, filler, NA, 999, 999, 4, 4, 144, 173, 81, 105, 83, 124, 1, 1.78723
101, 1, bw, filler, NA, 999, 999, 4, 4, 144, 173, 81, 105, 83, 124, 2, 1.22667
101, 1, bw, filler, NA, 999, 999, 4, 5, 148, 74, 101, 68, 95, 175, 3, 1.99889
101, 1, bw, filler, NA, 999, 999, 4, 5, 148, 74, 101, 68, 95, 175, 2, 1.68582
101, 1, bw, filler, NA, 999, 999, 4, 6, 90, 176, 126, 118, 126, 152, 3, 2.18359
101, 1, bw, filler, NA, 999, 999, 4, 6, 90, 176, 126, 118, 126, 152, 1, 1.8229
101, 1, bw, attraction, a-b-da, 14, 3, 4, 7, 120, 195, 195, 120, 181, 111, 2, 1.4597
101, 1, bw, attraction, a-b-da, 14, 3, 4, 7, 120, 195, 195, 120, 181, 111, 3, 0.735871
101, 1, bw, attraction, a-b-db, 14, 3, 4, 8, 195, 120, 111, 181, 120, 195, 3, 4.13626
101, 1, bw, attraction, a-b-db, 14, 3, 4, 8, 195, 120, 111, 181, 120, 195, 2, 0.984912
101, 1, bw, filler, NA, 999, 999, 4, 9, 73, 150, 69, 123, 148, 145, 3, 1.30328
101, 1, bw, filler, NA, 999, 999, 4, 9, 73, 150, 69, 123, 148, 145, 2, 0.738043
101, 1, bw, attraction, a-b-db, 5, 3, 4, 10, 120, 195, 117, 190, 195, 120, 1, 4.89852
101, 1, bw, attraction, a-b-db, 5, 3, 4, 10, 120, 195, 117, 190, 195, 120, 3, 0.79634
101, 1, bw, attraction, a-b-db, 2, 3, 4, 11, 120, 195, 195, 120, 119, 193, 2, 2.474
101, 1, bw, attraction, a-b-db, 2, 3, 4, 11, 120, 195, 195, 120, 119, 193, 1, 1.05329
101, 1, bw, attraction, a-b-db, 2, 2, 4, 12, 90, 165, 89, 163, 165, 90, 2, 6.11272
101, 1, bw, attraction, a-b-db, 2, 2, 4, 12, 90, 165, 89, 163, 165, 90, 3, 0.88155
101, 1, bw, attraction, a-b-db, 14, 1, 4, 13, 56, 125, 60, 135, 135, 60, 2, 1.16377
101, 1, bw, attraction, a-b-db, 14, 1, 4, 13, 56, 125, 60, 135, 135, 60, 1, 1.64404
101, 1, bw, attraction, a-b-db, 9, 2, 4, 14, 86, 157, 165, 90, 90, 165, 2, 3.27168
101, 1, bw, attraction, a-b-db, 9, 2, 4, 14, 86, 157, 165, 90, 90, 165, 1, 1.0025
101, 1, bw, attraction, a-b-db, 2, 1, 4, 15, 135, 60, 59, 134, 60, 135, 1, 2.27209
101, 1, bw, attraction, a-b-db, 2, 1, 4, 15, 135, 60, 59, 134, 60, 135, 3, 2.13946
101, 1, bw, attraction, a-b-da, 14, 2, 4, 16, 90, 165, 153, 83, 165, 90, 3, 7.28337
101, 1, bw, attraction, a-b-da, 14, 2, 4, 16, 90, 165, 153, 83, 165, 90, 2, 1.88499
101, 1, bw, attraction, a-b-db, 5, 2, 4, 17, 90, 165, 165, 90, 88, 161, 2, 5.72703
101, 1, bw, attraction, a-b-db, 5, 2, 4, 17, 90, 165, 165, 90, 88, 161, 3, 1.70327
101, 1, bw, attraction, a-b-da, 9, 3, 4, 18, 195, 120, 186, 114, 120, 195, 1, 1.4967
101, 1, bw, attraction, a-b-da, 9, 3, 4, 18, 195, 120, 186, 114, 120, 195, 2, 2.80343
101, 1, bw, filler, NA, 999, 999, 4, 19, 92, 177, 167, 146, 163, 127, 2, 1.88051
101, 1, bw, filler, NA, 999, 999, 4, 19, 92, 177, 167, 146, 163, 127, 1, 4.04397
101, 1, bw, filler, NA, 999, 999, 4, 20, 114, 104, 72, 154, 78, 114, 1, 3.08663
101, 1, bw, filler, NA, 999, 999, 4, 20, 114, 104, 72, 154, 78, 114, 3, 0.721551
101, 1, bw, catch, NA, 999, 999, 4, 21, 136, 179, 89, 106, 119, 136, 1, 1.3626
101, 1, bw, catch, NA, 999, 999, 4, 21, 136, 179, 89, 106, 119, 136, 2, 0.554851
101, 1, bw, attraction, a-b-db, 9, 1, 4, 22, 60, 135, 135, 60, 57, 129, 1, 2.60269
101, 1, bw, attraction, a-b-db, 9, 1, 4, 22, 60, 135, 135, 60, 57, 129, 3, 0.697059
101, 1, bw, filler, NA, 999, 999, 4, 23, 106, 95, 116, 80, 128, 194, 3, 1.69078
101, 1, bw, filler, NA, 999, 999, 4, 23, 106, 95, 116, 80, 128, 194, 2, 1.31764
101, 1, bw, attraction, a-b-da, 2, 1, 4, 24, 60, 135, 134, 59, 135, 60, 2, 3.28675
101, 1, bw, attraction, a-b-da, 2, 1, 4, 24, 60, 135, 134, 59, 135, 60, 1, 0.95354
101, 1, bw, catch, NA, 999, 999, 4, 25, 187, 128, 122, 73, 160, 95, 1, 1.4412
101, 1, bw, catch, NA, 999, 999, 4, 25, 187, 128, 122, 73, 160, 95, 2, 0.622054
101, 1, bw, attraction, a-b-da, 9, 2, 4, 26, 90, 165, 157, 86, 165, 90, 2, 1.98705
101, 1, bw, attraction, a-b-da, 9, 2, 4, 26, 90, 165, 157, 86, 165, 90, 1, 1.07438
101, 1, bw, attraction, a-b-da, 5, 3, 4, 27, 195, 120, 120, 195, 190, 117, 2, 3.54066
101, 1, bw, attraction, a-b-da, 5, 3, 4, 27, 195, 120, 120, 195, 190, 117, 3, 0.980795
101, 1, bw, attraction, a-b-da, 5, 2, 4, 28, 90, 165, 161, 88, 165, 90, 1, 4.35519
101, 1, bw, attraction, a-b-da, 5, 2, 4, 28, 90, 165, 161, 88, 165, 90, 2, 0.723106
101, 1, bw, attraction, a-b-db, 5, 1, 4, 29, 60, 135, 135, 60, 58, 132, 1, 2.46016
101, 1, bw, attraction, a-b-db, 5, 1, 4, 29, 60, 135, 135, 60, 58, 132, 2, 0.527963
101, 1, bw, attraction, a-b-da, 5, 1, 4, 30, 132, 58, 135, 60, 60, 135, 3, 1.53641
101, 1, bw, attraction, a-b-da, 5, 1, 4, 30, 132, 58, 135, 60, 60, 135, 2, 0.577955
101, 1, bw, filler, NA, 999, 999, 4, 31, 189, 107, 147, 130, 70, 89, 2, 0.952347
101, 1, bw, filler, NA, 999, 999, 4, 31, 189, 107, 147, 130, 70, 89, 3, 0.593578
101, 1, bw, filler, NA, 999, 999, 4, 32, 87, 102, 127, 193, 71, 159, 2, 1.11913
101, 1, bw, filler, NA, 999, 999, 4, 32, 87, 102, 127, 193, 71, 159, 1, 0.601388
101, 1, bw, attraction, a-b-da, 14, 1, 4, 33, 125, 56, 60, 135, 135, 60, 2, 2.72731
101, 1, bw, attraction, a-b-da, 14, 1, 4, 33, 125, 56, 60, 135, 135, 60, 1, 1.7044
101, 1, bw, attraction, a-b-db, 9, 3, 4, 34, 195, 120, 114, 186, 120, 195, 1, 2.53782
101, 1, bw, attraction, a-b-db, 9, 3, 4, 34, 195, 120, 114, 186, 120, 195, 2, 0.602874
101, 1, bw, attraction, a-b-db, 14, 2, 4, 35, 165, 90, 90, 165, 83, 153, 2, 5.84062
101, 1, bw, attraction, a-b-db, 14, 2, 4, 35, 165, 90, 90, 165, 83, 153, 3, 0.62821
101, 1, bw, filler, NA, 999, 999, 4, 36, 119, 84, 191, 141, 157, 88, 2, 1.80053
101, 1, bw, filler, NA, 999, 999, 4, 36, 119, 84, 191, 141, 157, 88, 1, 1.18322
101, 1, bw, attraction, a-b-da, 9, 1, 4, 37, 129, 57, 60, 135, 135, 60, 2, 3.82961
101, 1, bw, attraction, a-b-da, 9, 1, 4, 37, 129, 57, 60, 135, 135, 60, 1, 1.09052
101, 1, bw, attraction, a-b-db, 9, 1, 5, 1, 60, 135, 135, 60, 57, 129, 1, 31.2184
101, 1, bw, attraction, a-b-db, 9, 1, 5, 1, 60, 135, 135, 60, 57, 129, 3, 1.08742
101, 1, bw, filler, NA, 999, 999, 5, 2, 105, 156, 136, 158, 68, 189, 2, 1.3057
101, 1, bw, filler, NA, 999, 999, 5, 2, 105, 156, 136, 158, 68, 189, 3, 2.03607
101, 1, bw, filler, NA, 999, 999, 5, 3, 127, 76, 67, 116, 112, 162, 3, 0.872048
101, 1, bw, filler, NA, 999, 999, 5, 3, 127, 76, 67, 116, 112, 162, 2, 0.683677
101, 1, bw, attraction, a-b-da, 5, 2, 5, 4, 165, 90, 161, 88, 90, 165, 3, 1.59797
101, 1, bw, attraction, a-b-da, 5, 2, 5, 4, 165, 90, 161, 88, 90, 165, 2, 0.716729
101, 1, bw, filler, NA, 999, 999, 5, 5, 195, 58, 182, 134, 80, 60, 2, 0.941937
101, 1, bw, filler, NA, 999, 999, 5, 5, 195, 58, 182, 134, 80, 60, 3, 0.526835
101, 1, bw, filler, NA, 999, 999, 5, 6, 162, 72, 146, 101, 186, 166, 3, 0.831325
101, 1, bw, filler, NA, 999, 999, 5, 6, 162, 72, 146, 101, 186, 166, 1, 0.80504
101, 1, bw, catch, NA, 999, 999, 5, 7, 62, 133, 147, 168, 144, 111, 2, 0.99472
101, 1, bw, catch, NA, 999, 999, 5, 7, 62, 133, 147, 168, 144, 111, 1, 0.57767
101, 1, bw, filler, NA, 999, 999, 5, 8, 174, 81, 132, 195, 108, 114, 2, 2.96006
101, 1, bw, filler, NA, 999, 999, 5, 8, 174, 81, 132, 195, 108, 114, 1, 2.07988
101, 1, bw, attraction, a-b-da, 14, 1, 5, 9, 125, 56, 135, 60, 60, 135, 2, 107.082
101, 1, bw, attraction, a-b-da, 14, 1, 5, 9, 125, 56, 135, 60, 60, 135, 1, 0.813632
101, 1, bw, attraction, a-b-da, 5, 3, 5, 10, 190, 117, 195, 120, 120, 195, 2, 5.28272
101, 1, bw, attraction, a-b-da, 5, 3, 5, 10, 190, 117, 195, 120, 120, 195, 1, 1.02096
101, 1, bw, filler, NA, 999, 999, 5, 11, 57, 163, 80, 102, 158, 146, 3, 1.44208
101, 1, bw, filler, NA, 999, 999, 5, 11, 57, 163, 80, 102, 158, 146, 2, 1.23881
101, 1, bw, attraction, a-b-db, 14, 3, 5, 12, 195, 120, 120, 195, 111, 181, 2, 1.25099
101, 1, bw, attraction, a-b-db, 14, 3, 5, 12, 195, 120, 120, 195, 111, 181, 3, 0.903938
101, 1, bw, attraction, a-b-db, 2, 1, 5, 13, 59, 134, 135, 60, 60, 135, 3, 1.66568
101, 1, bw, attraction, a-b-db, 2, 1, 5, 13, 59, 134, 135, 60, 60, 135, 1, 0.549832
101, 1, bw, attraction, a-b-db, 5, 2, 5, 14, 88, 161, 90, 165, 165, 90, 3, 1.78154
101, 1, bw, attraction, a-b-db, 5, 2, 5, 14, 88, 161, 90, 165, 165, 90, 2, 2.02908
101, 1, bw, attraction, a-b-da, 5, 1, 5, 15, 132, 58, 60, 135, 135, 60, 1, 7.67297
101, 1, bw, attraction, a-b-da, 5, 1, 5, 15, 132, 58, 60, 135, 135, 60, 2, 0.659103
101, 1, bw, attraction, a-b-db, 9, 3, 5, 16, 114, 186, 120, 195, 195, 120, 3, 24.4622
101, 1, bw, attraction, a-b-db, 9, 3, 5, 16, 114, 186, 120, 195, 195, 120, 1, 0.603836
101, 1, bw, attraction, a-b-db, 14, 1, 5, 17, 135, 60, 56, 125, 60, 135, 1, 1.52962
101, 1, bw, attraction, a-b-db, 14, 1, 5, 17, 135, 60, 56, 125, 60, 135, 2, 0.69908
101, 1, bw, filler, NA, 999, 999, 5, 18, 192, 81, 126, 166, 113, 164, 2, 2.08485
101, 1, bw, filler, NA, 999, 999, 5, 18, 192, 81, 126, 166, 113, 164, 1, 2.12016
101, 1, bw, attraction, a-b-db, 5, 3, 5, 19, 120, 195, 195, 120, 117, 190, 1, 1.96883
101, 1, bw, attraction, a-b-db, 5, 3, 5, 19, 120, 195, 195, 120, 117, 190, 2, 0.600854
101, 1, bw, attraction, a-b-da, 2, 3, 5, 20, 193, 119, 120, 195, 195, 120, 3, 1.4705
101, 1, bw, attraction, a-b-da, 2, 3, 5, 20, 193, 119, 120, 195, 195, 120, 2, 0.498726
101, 1, bw, filler, NA, 999, 999, 5, 21, 73, 184, 154, 65, 169, 145, 3, 0.764523
101, 1, bw, filler, NA, 999, 999, 5, 21, 73, 184, 154, 65, 169, 145, 2, 0.468917
101, 1, bw, attraction, a-b-da, 14, 3, 5, 22, 181, 111, 195, 120, 120, 195, 3, 2.82417
101, 1, bw, attraction, a-b-da, 14, 3, 5, 22, 181, 111, 195, 120, 120, 195, 1, 0.701132
101, 1, bw, attraction, a-b-da, 9, 1, 5, 23, 60, 135, 135, 60, 129, 57, 2, 1.98292
101, 1, bw, attraction, a-b-da, 9, 1, 5, 23, 60, 135, 135, 60, 129, 57, 1, 0.5456
101, 1, bw, filler, NA, 999, 999, 5, 24, 136, 97, 112, 147, 110, 181, 3, 1.09399
101, 1, bw, filler, NA, 999, 999, 5, 24, 136, 97, 112, 147, 110, 181, 1, 0.600998
101, 1, bw, filler, NA, 999, 999, 5, 25, 143, 113, 129, 134, 117, 135, 2, 1.68672
101, 1, bw, filler, NA, 999, 999, 5, 25, 143, 113, 129, 134, 117, 135, 3, 0.498177
101, 1, bw, attraction, a-b-db, 14, 2, 5, 26, 90, 165, 83, 153, 165, 90, 3, 1.48401
101, 1, bw, attraction, a-b-db, 14, 2, 5, 26, 90, 165, 83, 153, 165, 90, 2, 0.471488
101, 1, bw, attraction, a-b-db, 5, 1, 5, 27, 135, 60, 58, 132, 60, 135, 1, 3.34667
101, 1, bw, attraction, a-b-db, 5, 1, 5, 27, 135, 60, 58, 132, 60, 135, 2, 0.650856
101, 1, bw, attraction, a-b-da, 9, 2, 5, 28, 165, 90, 90, 165, 157, 86, 1, 1.43063
101, 1, bw, attraction, a-b-da, 9, 2, 5, 28, 165, 90, 90, 165, 157, 86, 3, 0.716175
101, 1, bw, catch, NA, 999, 999, 5, 29, 65, 130, 100, 155, 150, 165, 3, 0.989193
101, 1, bw, catch, NA, 999, 999, 5, 29, 65, 130, 100, 155, 150, 165, 1, 0.484243
101, 1, bw, attraction, a-b-db, 2, 2, 5, 30, 89, 163, 90, 165, 165, 90, 3, 2.34264
101, 1, bw, attraction, a-b-db, 2, 2, 5, 30, 89, 163, 90, 165, 165, 90, 2, 1.21521
101, 1, bw, attraction, a-b-da, 2, 2, 5, 31, 165, 90, 90, 165, 163, 89, 1, 2.22013
101, 1, bw, attraction, a-b-da, 2, 2, 5, 31, 165, 90, 90, 165, 163, 89, 2, 0.482062
101, 1, bw, attraction, a-b-db, 9, 2, 5, 32, 86, 157, 90, 165, 165, 90, 3, 4.43672
101, 1, bw, attraction, a-b-db, 9, 2, 5, 32, 86, 157, 90, 165, 165, 90, 1, 0.609077
101, 1, bw, catch, NA, 999, 999, 5, 33, 180, 135, 110, 145, 61, 134, 1, 1.28617
101, 1, bw, catch, NA, 999, 999, 5, 33, 180, 135, 110, 145, 61, 134, 3, 0.609737
101, 1, bw, attraction, a-b-da, 9, 3, 5, 34, 186, 114, 195, 120, 120, 195, 2, 4.31089
101, 1, bw, attraction, a-b-da, 9, 3, 5, 34, 186, 114, 195, 120, 120, 195, 1, 0.864209
101, 1, bw, attraction, a-b-db, 2, 3, 5, 35, 195, 120, 119, 193, 120, 195, 2, 1.30709
101, 1, bw, attraction, a-b-db, 2, 3, 5, 35, 195, 120, 119, 193, 120, 195, 3, 0.613383
101, 1, bw, attraction, a-b-da, 14, 2, 5, 36, 90, 165, 165, 90, 153, 83, 2, 0.650409
101, 1, bw, attraction, a-b-da, 14, 2, 5, 36, 90, 165, 165, 90, 153, 83, 1, 0.919503
101, 1, bw, attraction, a-b-da, 2, 1, 5, 37, 60, 135, 135, 60, 134, 59, 2, 1.73655
101, 1, bw, attraction, a-b-da, 2, 1, 5, 37, 60, 135, 135, 60, 134, 59, 3, 0.546149
101, 1, bw, catch, NA, 999, 999, 6, 1, 164, 151, 65, 130, 153, 102, 1, 0.625693
101, 1, bw, catch, NA, 999, 999, 6, 1, 164, 151, 65, 130, 153, 102, 2, 0.407513
101, 1, bw, filler, NA, 999, 999, 6, 2, 141, 186, 147, 103, 181, 149, 3, 0.812619
101, 1, bw, filler, NA, 999, 999, 6, 2, 141, 186, 147, 103, 181, 149, 2, 0.355081
101, 1, bw, attraction, a-b-da, 5, 2, 6, 3, 165, 90, 161, 88, 90, 165, 1, 1.36283
101, 1, bw, attraction, a-b-da, 5, 2, 6, 3, 165, 90, 161, 88, 90, 165, 2, 0.347096
101, 1, bw, attraction, a-b-db, 9, 3, 6, 4, 195, 120, 120, 195, 114, 186, 2, 0.602889
101, 1, bw, attraction, a-b-db, 9, 3, 6, 4, 195, 120, 120, 195, 114, 186, 3, 0.562086
101, 1, bw, attraction, a-b-da, 14, 3, 6, 5, 120, 195, 195, 120, 181, 111, 1, 0.761203
101, 1, bw, attraction, a-b-da, 14, 3, 6, 5, 120, 195, 195, 120, 181, 111, 3, 0.825571
101, 1, bw, attraction, a-b-db, 9, 1, 6, 6, 60, 135, 135, 60, 57, 129, 2, 1.42196
101, 1, bw, attraction, a-b-db, 9, 1, 6, 6, 60, 135, 135, 60, 57, 129, 3, 0.491528
101, 1, bw, attraction, a-b-db, 2, 1, 6, 7, 135, 60, 59, 134, 60, 135, 1, 0.925267
101, 1, bw, attraction, a-b-db, 2, 1, 6, 7, 135, 60, 59, 134, 60, 135, 2, 0.422879
101, 1, bw, attraction, a-b-da, 14, 2, 6, 8, 90, 165, 153, 83, 165, 90, 1, 2.83601
101, 1, bw, attraction, a-b-da, 14, 2, 6, 8, 90, 165, 153, 83, 165, 90, 2, 0.609103
101, 1, bw, attraction, a-b-da, 9, 3, 6, 9, 120, 195, 186, 114, 195, 120, 1, 0.950272
101, 1, bw, attraction, a-b-da, 9, 3, 6, 9, 120, 195, 186, 114, 195, 120, 2, 0.359188
101, 1, bw, filler, NA, 999, 999, 6, 10, 146, 103, 175, 70, 89, 171, 3, 2.55852
101, 1, bw, filler, NA, 999, 999, 6, 10, 146, 103, 175, 70, 89, 171, 1, 0.438286
101, 1, bw, attraction, a-b-db, 2, 3, 6, 11, 119, 193, 120, 195, 195, 120, 2, 1.21078
101, 1, bw, attraction, a-b-db, 2, 3, 6, 11, 119, 193, 120, 195, 195, 120, 3, 0.400995
101, 1, bw, attraction, a-b-db, 14, 2, 6, 12, 83, 153, 165, 90, 90, 165, 3, 1.17491
101, 1, bw, attraction, a-b-db, 14, 2, 6, 12, 83, 153, 165, 90, 90, 165, 1, 0.606376
101, 1, bw, attraction, a-b-da, 9, 2, 6, 13, 90, 165, 157, 86, 165, 90, 1, 1.87613
101, 1, bw, attraction, a-b-da, 9, 2, 6, 13, 90, 165, 157, 86, 165, 90, 2, 0.471517
101, 1, bw, attraction, a-b-db, 9, 2, 6, 14, 86, 157, 165, 90, 90, 165, 2, 1.05061
101, 1, bw, attraction, a-b-db, 9, 2, 6, 14, 86, 157, 165, 90, 90, 165, 1, 0.487638
101, 1, bw, attraction, a-b-da, 2, 3, 6, 15, 120, 195, 195, 120, 193, 119, 1, 1.79416
101, 1, bw, attraction, a-b-da, 2, 3, 6, 15, 120, 195, 195, 120, 193, 119, 3, 0.882879
101, 1, bw, attraction, a-b-da, 5, 1, 6, 16, 60, 135, 132, 58, 135, 60, 2, 1.10717
101, 1, bw, attraction, a-b-da, 5, 1, 6, 16, 60, 135, 132, 58, 135, 60, 3, 0.477469
101, 1, bw, filler, NA, 999, 999, 6, 17, 131, 150, 173, 144, 128, 193, 2, 1.35195
101, 1, bw, filler, NA, 999, 999, 6, 17, 131, 150, 173, 144, 128, 193, 1, 0.600782
101, 1, bw, attraction, a-b-da, 5, 3, 6, 18, 195, 120, 190, 117, 120, 195, 1, 1.6465
101, 1, bw, attraction, a-b-da, 5, 3, 6, 18, 195, 120, 190, 117, 120, 195, 2, 0.571306
101, 1, bw, filler, NA, 999, 999, 6, 19, 181, 113, 148, 84, 62, 81, 1, 1.19442
101, 1, bw, filler, NA, 999, 999, 6, 19, 181, 113, 148, 84, 62, 81, 3, 0.529367
101, 1, bw, attraction, a-b-db, 14, 1, 6, 20, 56, 125, 135, 60, 60, 135, 3, 1.44984
101, 1, bw, attraction, a-b-db, 14, 1, 6, 20, 56, 125, 135, 60, 60, 135, 1, 0.390689
101, 1, bw, attraction, a-b-db, 5, 3, 6, 21, 120, 195, 195, 120, 117, 190, 2, 0.740415
101, 1, bw, attraction, a-b-db, 5, 3, 6, 21, 120, 195, 195, 120, 117, 190, 1, 0.669534
101, 1, bw, attraction, a-b-da, 2, 1, 6, 22, 134, 59, 60, 135, 135, 60, 1, 2.18582
101, 1, bw, attraction, a-b-da, 2, 1, 6, 22, 134, 59, 60, 135, 135, 60, 3, 1.08794
101, 1, bw, filler, NA, 999, 999, 6, 23, 178, 178, 185, 111, 123, 131, 1, 0.834171
101, 1, bw, filler, NA, 999, 999, 6, 23, 178, 178, 185, 111, 123, 131, 3, 0.647908
101, 1, bw, attraction, a-b-da, 2, 2, 6, 24, 165, 90, 163, 89, 90, 165, 3, 1.5316
101, 1, bw, attraction, a-b-da, 2, 2, 6, 24, 165, 90, 163, 89, 90, 165, 1, 0.693167
101, 1, bw, filler, NA, 999, 999, 6, 25, 161, 184, 151, 147, 164, 90, 1, 1.03873
101, 1, bw, filler, NA, 999, 999, 6, 25, 161, 184, 151, 147, 164, 90, 3, 0.691821
101, 1, bw, attraction, a-b-da, 14, 1, 6, 26, 60, 135, 135, 60, 125, 56, 2, 0.781545
101, 1, bw, attraction, a-b-da, 14, 1, 6, 26, 60, 135, 135, 60, 125, 56, 1, 0.509266
101, 1, bw, catch, NA, 999, 999, 6, 27, 63, 132, 172, 143, 159, 96, 2, 0.67849
101, 1, bw, catch, NA, 999, 999, 6, 27, 63, 132, 172, 143, 159, 96, 1, 0.426169
101, 1, bw, catch, NA, 999, 999, 6, 28, 184, 131, 99, 156, 98, 97, 1, 1.1346
101, 1, bw, catch, NA, 999, 999, 6, 28, 184, 131, 99, 156, 98, 97, 3, 0.704287
101, 1, bw, filler, NA, 999, 999, 6, 29, 117, 102, 112, 188, 102, 62, 2, 0.88213
101, 1, bw, filler, NA, 999, 999, 6, 29, 117, 102, 112, 188, 102, 62, 3, 0.861776
101, 1, bw, attraction, a-b-db, 2, 2, 6, 30, 90, 165, 89, 163, 165, 90, 3, 1.93669
101, 1, bw, attraction, a-b-db, 2, 2, 6, 30, 90, 165, 89, 163, 165, 90, 2, 1.69022
101, 1, bw, filler, NA, 999, 999, 6, 31, 154, 120, 111, 134, 65, 67, 1, 1.60354
101, 1, bw, filler, NA, 999, 999, 6, 31, 154, 120, 111, 134, 65, 67, 3, 0.562266
101, 1, bw, attraction, a-b-db, 5, 1, 6, 32, 58, 132, 135, 60, 60, 135, 3, 0.71352
101, 1, bw, attraction, a-b-db, 5, 1, 6, 32, 58, 132, 135, 60, 60, 135, 1, 0.379683
101, 1, bw, attraction, a-b-da, 9, 1, 6, 33, 135, 60, 60, 135, 129, 57, 2, 0.890411
101, 1, bw, attraction, a-b-da, 9, 1, 6, 33, 135, 60, 60, 135, 129, 57, 3, 0.661368
101, 1, bw, attraction, a-b-db, 14, 3, 6, 34, 111, 181, 195, 120, 120, 195, 2, 2.2164
101, 1, bw, attraction, a-b-db, 14, 3, 6, 34, 111, 181, 195, 120, 120, 195, 1, 0.494326
101, 1, bw, attraction, a-b-db, 5, 2, 6, 35, 88, 161, 90, 165, 165, 90, 2, 1.54412
101, 1, bw, attraction, a-b-db, 5, 2, 6, 35, 88, 161, 90, 165, 165, 90, 3, 0.808924
101, 1, bw, filler, NA, 999, 999, 6, 36, 58, 129, 145, 129, 116, 167, 2, 1.55801
101, 1, bw, filler, NA, 999, 999, 6, 36, 58, 129, 145, 129, 116, 167, 1, 0.494129
101, 1, bw, filler, NA, 999, 999, 6, 37, 129, 86, 78, 108, 112, 70, 1, 0.799727
101, 1, bw, filler, NA, 999, 999, 6, 37, 129, 86, 78, 108, 112, 70, 3, 2.01495
101, 1, bw, filler, NA, 999, 999, 7, 1, 107, 128, 177, 152, 65, 129, 2, 0.731596
101, 1, bw, filler, NA, 999, 999, 7, 1, 107, 128, 177, 152, 65, 129, 3, 0.501324
101, 1, bw, filler, NA, 999, 999, 7, 2, 177, 174, 127, 168, 96, 120, 1, 0.967262
101, 1, bw, filler, NA, 999, 999, 7, 2, 177, 174, 127, 168, 96, 120, 3, 0.663553
101, 1, bw, attraction, a-b-db, 14, 3, 7, 3, 195, 120, 111, 181, 120, 195, 1, 4.79452
101, 1, bw, attraction, a-b-db, 14, 3, 7, 3, 195, 120, 111, 181, 120, 195, 2, 0.904476
101, 1, bw, catch, NA, 999, 999, 7, 4, 140, 175, 134, 121, 118, 77, 1, 0.857967
101, 1, bw, catch, NA, 999, 999, 7, 4, 140, 175, 134, 121, 118, 77, 3, 0.382456
101, 1, bw, filler, NA, 999, 999, 7, 5, 131, 122, 61, 182, 154, 63, 1, 1.87685
101, 1, bw, filler, NA, 999, 999, 7, 5, 131, 122, 61, 182, 154, 63, 3, 1.22429
101, 1, bw, filler, NA, 999, 999, 7, 6, 96, 79, 106, 153, 144, 185, 3, 1.63642
101, 1, bw, filler, NA, 999, 999, 7, 6, 96, 79, 106, 153, 144, 185, 1, 0.602094
101, 1, bw, attraction, a-b-da, 14, 1, 7, 7, 125, 56, 135, 60, 60, 135, 2, 1.07177
101, 1, bw, attraction, a-b-da, 14, 1, 7, 7, 125, 56, 135, 60, 60, 135, 1, 0.507383
101, 1, bw, attraction, a-b-da, 5, 2, 7, 8, 161, 88, 90, 165, 165, 90, 2, 1.70841
101, 1, bw, attraction, a-b-da, 5, 2, 7, 8, 161, 88, 90, 165, 165, 90, 1, 0.422499
101, 1, bw, attraction, a-b-db, 9, 1, 7, 9, 135, 60, 60, 135, 57, 129, 1, 1.71573
101, 1, bw, attraction, a-b-db, 9, 1, 7, 9, 135, 60, 60, 135, 57, 129, 3, 0.546688
101, 1, bw, attraction, a-b-db, 9, 3, 7, 10, 195, 120, 114, 186, 120, 195, 3, 2.18963
101, 1, bw, attraction, a-b-db, 9, 3, 7, 10, 195, 120, 114, 186, 120, 195, 2, 0.676154
101, 1, bw, attraction, a-b-da, 2, 2, 7, 11, 165, 90, 90, 165, 163, 89, 1, 1.94258
101, 1, bw, attraction, a-b-da, 2, 2, 7, 11, 165, 90, 90, 165, 163, 89, 2, 0.615254
101, 1, bw, attraction, a-b-db, 14, 2, 7, 12, 83, 153, 90, 165, 165, 90, 3, 1.70031
101, 1, bw, attraction, a-b-db, 14, 2, 7, 12, 83, 153, 90, 165, 165, 90, 1, 0.495077
101, 1, bw, filler, NA, 999, 999, 7, 13, 151, 149, 113, 104, 192, 178, 3, 0.880892
101, 1, bw, filler, NA, 999, 999, 7, 13, 151, 149, 113, 104, 192, 178, 2, 0.972605
101, 1, bw, attraction, a-b-da, 5, 1, 7, 14, 132, 58, 60, 135, 135, 60, 3, 1.67563
101, 1, bw, attraction, a-b-da, 5, 1, 7, 14, 132, 58, 60, 135, 135, 60, 2, 0.99901
101, 1, bw, attraction, a-b-da, 5, 3, 7, 15, 120, 195, 190, 117, 195, 120, 2, 3.07679
101, 1, bw, attraction, a-b-da, 5, 3, 7, 15, 120, 195, 190, 117, 195, 120, 3, 0.519659
101, 1, bw, attraction, a-b-db, 2, 2, 7, 16, 165, 90, 89, 163, 90, 165, 1, 1.62487
101, 1, bw, attraction, a-b-db, 2, 2, 7, 16, 165, 90, 89, 163, 90, 165, 2, 0.598249
101, 1, bw, catch, NA, 999, 999, 7, 17, 120, 75, 109, 146, 146, 169, 3, 0.548008
101, 1, bw, catch, NA, 999, 999, 7, 17, 120, 75, 109, 146, 146, 169, 1, 0.541135
101, 1, bw, attraction, a-b-da, 9, 3, 7, 18, 186, 114, 195, 120, 120, 195, 3, 3.99686
101, 1, bw, attraction, a-b-da, 9, 3, 7, 18, 186, 114, 195, 120, 120, 195, 1, 0.619007
101, 1, bw, attraction, a-b-da, 14, 2, 7, 19, 90, 165, 153, 83, 165, 90, 3, 1.27202
101, 1, bw, attraction, a-b-da, 14, 2, 7, 19, 90, 165, 153, 83, 165, 90, 2, 0.52363
101, 1, bw, attraction, a-b-db, 2, 1, 7, 20, 60, 135, 59, 134, 135, 60, 1, 2.23631
101, 1, bw, attraction, a-b-db, 2, 1, 7, 20, 60, 135, 59, 134, 135, 60, 3, 0.809383
101, 1, bw, attraction, a-b-db, 5, 3, 7, 21, 117, 190, 120, 195, 195, 120, 2, 2.05429
101, 1, bw, attraction, a-b-db, 5, 3, 7, 21, 117, 190, 120, 195, 195, 120, 1, 1.55503
101, 1, bw, attraction, a-b-da, 9, 2, 7, 22, 157, 86, 90, 165, 165, 90, 2, 1.12251
101, 1, bw, attraction, a-b-da, 9, 2, 7, 22, 157, 86, 90, 165, 165, 90, 1, 1.54017
101, 1, bw, attraction, a-b-db, 2, 3, 7, 23, 195, 120, 120, 195, 119, 193, 2, 1.78019
101, 1, bw, attraction, a-b-db, 2, 3, 7, 23, 195, 120, 120, 195, 119, 193, 3, 0.995676
101, 1, bw, filler, NA, 999, 999, 7, 24, 117, 107, 131, 105, 58, 137, 2, 3.03323
101, 1, bw, filler, NA, 999, 999, 7, 24, 117, 107, 131, 105, 58, 137, 3, 0.542283
101, 1, bw, attraction, a-b-da, 14, 3, 7, 25, 120, 195, 181, 111, 195, 120, 1, 1.47021
101, 1, bw, attraction, a-b-da, 14, 3, 7, 25, 120, 195, 181, 111, 195, 120, 2, 0.562278
101, 1, bw, attraction, a-b-db, 5, 1, 7, 26, 135, 60, 60, 135, 58, 132, 2, 1.38542
101, 1, bw, attraction, a-b-db, 5, 1, 7, 26, 135, 60, 60, 135, 58, 132, 1, 0.80089
101, 1, bw, attraction, a-b-da, 9, 1, 7, 27, 60, 135, 129, 57, 135, 60, 3, 2.4706
101, 1, bw, attraction, a-b-da, 9, 1, 7, 27, 60, 135, 129, 57, 135, 60, 2, 0.674555
101, 1, bw, catch, NA, 999, 999, 7, 28, 157, 158, 93, 162, 61, 134, 1, 1.19685
101, 1, bw, catch, NA, 999, 999, 7, 28, 157, 158, 93, 162, 61, 134, 3, 0.531794
101, 1, bw, filler, NA, 999, 999, 7, 29, 92, 56, 126, 147, 85, 154, 2, 1.50021
101, 1, bw, filler, NA, 999, 999, 7, 29, 92, 56, 126, 147, 85, 154, 1, 0.47109
101, 1, bw, filler, NA, 999, 999, 7, 30, 133, 80, 156, 194, 72, 178, 2, 1.01022
101, 1, bw, filler, NA, 999, 999, 7, 30, 133, 80, 156, 194, 72, 178, 1, 0.760538
101, 1, bw, attraction, a-b-db, 9, 2, 7, 31, 86, 157, 165, 90, 90, 165, 1, 2.13577
101, 1, bw, attraction, a-b-db, 9, 2, 7, 31, 86, 157, 165, 90, 90, 165, 2, 0.480903
101, 1, bw, attraction, a-b-da, 2, 3, 7, 32, 195, 120, 120, 195, 193, 119, 2, 1.04347
101, 1, bw, attraction, a-b-da, 2, 3, 7, 32, 195, 120, 120, 195, 193, 119, 1, 0.648281
101, 1, bw, attraction, a-b-db, 5, 2, 7, 33, 165, 90, 90, 165, 88, 161, 1, 5.04399
101, 1, bw, attraction, a-b-db, 5, 2, 7, 33, 165, 90, 90, 165, 88, 161, 3, 0.463883
101, 1, bw, filler, NA, 999, 999, 7, 34, 177, 185, 186, 118, 60, 87, 1, 1.14689
101, 1, bw, filler, NA, 999, 999, 7, 34, 177, 185, 186, 118, 60, 87, 3, 0.523861
101, 1, bw, attraction, a-b-db, 14, 1, 7, 35, 135, 60, 60, 135, 56, 125, 2, 0.956335
101, 1, bw, attraction, a-b-db, 14, 1, 7, 35, 135, 60, 60, 135, 56, 125, 1, 2.06068
101, 1, bw, filler, NA, 999, 999, 7, 36, 181, 59, 99, 164, 183, 101, 2, 0.975257
101, 1, bw, filler, NA, 999, 999, 7, 36, 181, 59, 99, 164, 183, 101, 1, 1.95101
101, 1, bw, attraction, a-b-da, 2, 1, 7, 37, 135, 60, 134, 59, 60, 135, 3, 1.15825
101, 1, bw, attraction, a-b-da, 2, 1, 7, 37, 135, 60, 134, 59, 60, 135, 2, 0.758796
101, 1, bw, attraction, a-b-da, 14, 3, 8, 1, 120, 195, 181, 111, 195, 120, 3, 4.04564
101, 1, bw, attraction, a-b-da, 14, 3, 8, 1, 120, 195, 181, 111, 195, 120, 2, 0.857652
101, 1, bw, attraction, a-b-db, 9, 2, 8, 2, 165, 90, 90, 165, 86, 157, 3, 1.99694
101, 1, bw, attraction, a-b-db, 9, 2, 8, 2, 165, 90, 90, 165, 86, 157, 1, 1.93131
101, 1, bw, filler, NA, 999, 999, 8, 3, 118, 64, 57, 147, 157, 114, 3, 0.867378
101, 1, bw, filler, NA, 999, 999, 8, 3, 118, 64, 57, 147, 157, 114, 1, 0.807669
101, 1, bw, attraction, a-b-da, 2, 3, 8, 4, 193, 119, 195, 120, 120, 195, 2, 2.95682
101, 1, bw, attraction, a-b-da, 2, 3, 8, 4, 193, 119, 195, 120, 120, 195, 3, 1.70841
101, 1, bw, attraction, a-b-db, 14, 1, 8, 5, 135, 60, 60, 135, 56, 125, 1, 1.36517
101, 1, bw, attraction, a-b-db, 14, 1, 8, 5, 135, 60, 60, 135, 56, 125, 3, 0.749433
101, 1, bw, attraction, a-b-db, 2, 3, 8, 6, 120, 195, 119, 193, 195, 120, 1, 2.33305
101, 1, bw, attraction, a-b-db, 2, 3, 8, 6, 120, 195, 119, 193, 195, 120, 2, 0.534247
101, 1, bw, attraction, a-b-db, 5, 3, 8, 7, 120, 195, 195, 120, 117, 190, 2, 1.60687
101, 1, bw, attraction, a-b-db, 5, 3, 8, 7, 120, 195, 195, 120, 117, 190, 1, 0.49281
101, 1, bw, catch, NA, 999, 999, 8, 8, 120, 135, 183, 132, 91, 104, 2, 1.3507
101, 1, bw, catch, NA, 999, 999, 8, 8, 120, 135, 183, 132, 91, 104, 3, 0.487616
101, 1, bw, attraction, a-b-db, 9, 1, 8, 9, 60, 135, 57, 129, 135, 60, 3, 2.22612
101, 1, bw, attraction, a-b-db, 9, 1, 8, 9, 60, 135, 57, 129, 135, 60, 2, 0.679323
101, 1, bw, attraction, a-b-db, 5, 1, 8, 10, 135, 60, 58, 132, 60, 135, 1, 1.18563
101, 1, bw, attraction, a-b-db, 5, 1, 8, 10, 135, 60, 58, 132, 60, 135, 3, 0.697256
101, 1, bw, attraction, a-b-da, 14, 1, 8, 11, 60, 135, 135, 60, 125, 56, 2, 3.92308
101, 1, bw, attraction, a-b-da, 14, 1, 8, 11, 60, 135, 135, 60, 125, 56, 3, 0.507746
101, 1, bw, attraction, a-b-db, 14, 3, 8, 12, 195, 120, 120, 195, 111, 181, 1, 1.15687
101, 1, bw, attraction, a-b-db, 14, 3, 8, 12, 195, 120, 120, 195, 111, 181, 3, 0.997184
101, 1, bw, attraction, a-b-db, 9, 3, 8, 13, 195, 120, 120, 195, 114, 186, 2, 0.986835
101, 1, bw, attraction, a-b-db, 9, 3, 8, 13, 195, 120, 120, 195, 114, 186, 1, 0.522493
101, 1, bw, filler, NA, 999, 999, 8, 14, 113, 138, 94, 137, 151, 187, 3, 0.923604
101, 1, bw, filler, NA, 999, 999, 8, 14, 113, 138, 94, 137, 151, 187, 2, 0.429198
101, 1, bw, attraction, a-b-da, 5, 3, 8, 15, 195, 120, 120, 195, 190, 117, 2, 1.51378
101, 1, bw, attraction, a-b-da, 5, 3, 8, 15, 195, 120, 120, 195, 190, 117, 3, 0.483944
101, 1, bw, attraction, a-b-db, 2, 2, 8, 16, 165, 90, 89, 163, 90, 165, 1, 3.16639
101, 1, bw, attraction, a-b-db, 2, 2, 8, 16, 165, 90, 89, 163, 90, 165, 3, 1.43806
101, 1, bw, attraction, a-b-da, 2, 1, 8, 17, 60, 135, 135, 60, 134, 59, 3, 1.25027
101, 1, bw, attraction, a-b-da, 2, 1, 8, 17, 60, 135, 135, 60, 134, 59, 2, 1.79107
101, 1, bw, attraction, a-b-da, 5, 2, 8, 18, 165, 90, 90, 165, 161, 88, 2, 1.0204
101, 1, bw, attraction, a-b-da, 5, 2, 8, 18, 165, 90, 90, 165, 161, 88, 1, 0.938795
101, 1, bw, attraction, a-b-db, 2, 1, 8, 19, 59, 134, 135, 60, 60, 135, 2, 1.04328
101, 1, bw, attraction, a-b-db, 2, 1, 8, 19, 59, 134, 135, 60, 60, 135, 1, 0.448114
101, 1, bw, attraction, a-b-db, 5, 2, 8, 20, 88, 161, 165, 90, 90, 165, 2, 1.35587
101, 1, bw, attraction, a-b-db, 5, 2, 8, 20, 88, 161, 165, 90, 90, 165, 3, 1.4522
101, 1, bw, filler, NA, 999, 999, 8, 21, 159, 160, 130, 123, 177, 142, 1, 1.39962
101, 1, bw, filler, NA, 999, 999, 8, 21, 159, 160, 130, 123, 177, 142, 2, 0.646472
101, 1, bw, filler, NA, 999, 999, 8, 22, 161, 143, 180, 91, 158, 72, 1, 1.93829
101, 1, bw, filler, NA, 999, 999, 8, 22, 161, 143, 180, 91, 158, 72, 3, 0.834951
101, 1, bw, attraction, a-b-da, 9, 2, 8, 23, 157, 86, 165, 90, 90, 165, 2, 2.3832
101, 1, bw, attraction, a-b-da, 9, 2, 8, 23, 157, 86, 165, 90, 90, 165, 1, 0.678403
101, 1, bw, catch, NA, 999, 999, 8, 24, 160, 95, 93, 102, 166, 149, 3, 0.664879
101, 1, bw, catch, NA, 999, 999, 8, 24, 160, 95, 93, 102, 166, 149, 2, 0.637378
101, 1, bw, filler, NA, 999, 999, 8, 25, 130, 173, 192, 186, 106, 167, 2, 1.27362
101, 1, bw, filler, NA, 999, 999, 8, 25, 130, 173, 192, 186, 106, 167, 3, 0.693318
101, 1, bw, attraction, a-b-da, 5, 1, 8, 26, 60, 135, 135, 60, 132, 58, 3, 1.27101
101, 1, bw, attraction, a-b-da, 5, 1, 8, 26, 60, 135, 135, 60, 132, 58, 2, 0.739315
101, 1, bw, attraction, a-b-da, 2, 2, 8, 27, 165, 90, 163, 89, 90, 165, 1, 1.65155
101, 1, bw, attraction, a-b-da, 2, 2, 8, 27, 165, 90, 163, 89, 90, 165, 3, 0.976462
101, 1, bw, attraction, a-b-da, 9, 1, 8, 28, 129, 57, 135, 60, 60, 135, 3, 4.27085
101, 1, bw, attraction, a-b-da, 9, 1, 8, 28, 129, 57, 135, 60, 60, 135, 1, 0.962161
101, 1, bw, attraction, a-b-da, 14, 2, 8, 29, 153, 83, 165, 90, 90, 165, 3, 1.49699
101, 1, bw, attraction, a-b-da, 14, 2, 8, 29, 153, 83, 165, 90, 90, 165, 2, 1.1719
101, 1, bw, catch, NA, 999, 999, 8, 30, 136, 119, 125, 190, 98, 97, 2, 0.730908
101, 1, bw, catch, NA, 999, 999, 8, 30, 136, 119, 125, 190, 98, 97, 3, 0.460524
101, 1, bw, filler, NA, 999, 999, 8, 31, 88, 117, 96, 125, 188, 138, 3, 1.5677
101, 1, bw, filler, NA, 999, 999, 8, 31, 88, 117, 96, 125, 188, 138, 1, 0.887802
101, 1, bw, filler, NA, 999, 999, 8, 32, 167, 119, 88, 99, 180, 64, 1, 1.05817
101, 1, bw, filler, NA, 999, 999, 8, 32, 167, 119, 88, 99, 180, 64, 2, 0.65445
101, 1, bw, filler, NA, 999, 999, 8, 33, 190, 140, 144, 107, 184, 98, 1, 1.04228
101, 1, bw, filler, NA, 999, 999, 8, 33, 190, 140, 144, 107, 184, 98, 2, 0.663111
101, 1, bw, attraction, a-b-da, 9, 3, 8, 34, 195, 120, 186, 114, 120, 195, 3, 1.21022
101, 1, bw, attraction, a-b-da, 9, 3, 8, 34, 195, 120, 186, 114, 120, 195, 2, 2.40049
101, 1, bw, attraction, a-b-db, 14, 2, 8, 35, 165, 90, 83, 153, 90, 165, 3, 2.11794
101, 1, bw, attraction, a-b-db, 14, 2, 8, 35, 165, 90, 83, 153, 90, 165, 2, 0.711589
101, 1, bw, filler, NA, 999, 999, 8, 36, 162, 126, 156, 72, 190, 178, 3, 0.728738
101, 1, bw, filler, NA, 999, 999, 8, 36, 162, 126, 156, 72, 190, 178, 2, 0.618409
101, 1, bw, filler, NA, 999, 999, 8, 37, 127, 103, 144, 160, 108, 145, 2, 0.975628
101, 1, bw, filler, NA, 999, 999, 8, 37, 127, 103, 144, 160, 108, 145, 1, 0.783181
