sub_n, computer_n, bw_cond, effect, set, distance, diag, block_n, trial_n, h1, w1, h2, w2, h3, w3, choice, rt 
135, 1, bw, practice, NA, 999, 999, 0, 1, 67, 58, 176, 59, 105, 65, 2, 3.55351
135, 1, bw, practice, NA, 999, 999, 0, 1, 67, 58, 176, 59, 105, 65, 1, 5.76089
135, 1, bw, practice, NA, 999, 999, 0, 2, 142, 131, 140, 149, 94, 164, 2, 3.94101
135, 1, bw, practice, NA, 999, 999, 0, 2, 142, 131, 140, 149, 94, 164, 3, 5.72732
135, 1, bw, practice, NA, 999, 999, 0, 3, 113, 173, 195, 120, 186, 72, 2, 6.22574
135, 1, bw, practice, NA, 999, 999, 0, 3, 113, 173, 195, 120, 186, 72, 1, 3.30409
135, 1, bw, attraction, a-b-da, 14, 2, 1, 1, 90, 165, 153, 83, 165, 90, 1, 6.86559
135, 1, bw, attraction, a-b-da, 14, 2, 1, 1, 90, 165, 153, 83, 165, 90, 2, 2.58793
135, 1, bw, filler, NA, 999, 999, 1, 2, 85, 133, 123, 144, 192, 74, 2, 6.46586
135, 1, bw, filler, NA, 999, 999, 1, 2, 85, 133, 123, 144, 192, 74, 1, 2.30037
135, 1, bw, attraction, a-b-da, 2, 2, 1, 3, 90, 165, 165, 90, 163, 89, 1, 4.0777
135, 1, bw, attraction, a-b-da, 2, 2, 1, 3, 90, 165, 165, 90, 163, 89, 3, 1.71233
135, 1, bw, attraction, a-b-db, 5, 2, 1, 4, 165, 90, 88, 161, 90, 165, 2, 3.84115
135, 1, bw, attraction, a-b-db, 5, 2, 1, 4, 165, 90, 88, 161, 90, 165, 1, 2.30919
135, 1, bw, attraction, a-b-da, 5, 1, 1, 5, 132, 58, 60, 135, 135, 60, 2, 5.09373
135, 1, bw, attraction, a-b-da, 5, 1, 1, 5, 132, 58, 60, 135, 135, 60, 1, 4.19947
135, 1, bw, attraction, a-b-db, 2, 1, 1, 6, 60, 135, 135, 60, 59, 134, 1, 4.54005
135, 1, bw, attraction, a-b-db, 2, 1, 1, 6, 60, 135, 135, 60, 59, 134, 2, 3.18795
135, 1, bw, attraction, a-b-db, 14, 3, 1, 7, 195, 120, 111, 181, 120, 195, 3, 4.22557
135, 1, bw, attraction, a-b-db, 14, 3, 1, 7, 195, 120, 111, 181, 120, 195, 1, 2.47819
135, 1, bw, filler, NA, 999, 999, 1, 8, 193, 132, 99, 154, 156, 121, 1, 2.35201
135, 1, bw, filler, NA, 999, 999, 1, 8, 193, 132, 99, 154, 156, 121, 2, 1.60869
135, 1, bw, filler, NA, 999, 999, 1, 9, 189, 135, 71, 149, 125, 177, 1, 3.92548
135, 1, bw, filler, NA, 999, 999, 1, 9, 189, 135, 71, 149, 125, 177, 2, 2.02223
135, 1, bw, attraction, a-b-da, 5, 2, 1, 10, 161, 88, 90, 165, 165, 90, 2, 3.8108
135, 1, bw, attraction, a-b-da, 5, 2, 1, 10, 161, 88, 90, 165, 165, 90, 1, 1.85631
135, 1, bw, catch, NA, 999, 999, 1, 11, 193, 122, 122, 133, 111, 84, 2, 4.93157
135, 1, bw, catch, NA, 999, 999, 1, 11, 193, 122, 122, 133, 111, 84, 3, 1.53997
135, 1, bw, filler, NA, 999, 999, 1, 12, 64, 115, 61, 181, 195, 123, 3, 4.16418
135, 1, bw, filler, NA, 999, 999, 1, 12, 64, 115, 61, 181, 195, 123, 1, 5.57944
135, 1, bw, filler, NA, 999, 999, 1, 13, 175, 140, 150, 158, 120, 96, 2, 6.04035
135, 1, bw, filler, NA, 999, 999, 1, 13, 175, 140, 150, 158, 120, 96, 3, 3.08389
135, 1, bw, attraction, a-b-db, 5, 1, 1, 14, 60, 135, 58, 132, 135, 60, 1, 4.85346
135, 1, bw, attraction, a-b-db, 5, 1, 1, 14, 60, 135, 58, 132, 135, 60, 3, 2.9532
135, 1, bw, attraction, a-b-db, 14, 1, 1, 15, 60, 135, 135, 60, 56, 125, 1, 4.96019
135, 1, bw, attraction, a-b-db, 14, 1, 1, 15, 60, 135, 135, 60, 56, 125, 2, 3.35132
135, 1, bw, catch, NA, 999, 999, 1, 16, 162, 93, 69, 126, 156, 159, 3, 1.83822
135, 1, bw, catch, NA, 999, 999, 1, 16, 162, 93, 69, 126, 156, 159, 2, 1.67568
135, 1, bw, attraction, a-b-db, 2, 2, 1, 17, 165, 90, 90, 165, 89, 163, 2, 3.19782
135, 1, bw, attraction, a-b-db, 2, 2, 1, 17, 165, 90, 90, 165, 89, 163, 3, 3.90809
135, 1, bw, filler, NA, 999, 999, 1, 18, 122, 62, 145, 176, 107, 148, 2, 1.46006
135, 1, bw, filler, NA, 999, 999, 1, 18, 122, 62, 145, 176, 107, 148, 1, 1.68823
135, 1, bw, attraction, a-b-da, 9, 2, 1, 19, 165, 90, 157, 86, 90, 165, 3, 4.09833
135, 1, bw, attraction, a-b-da, 9, 2, 1, 19, 165, 90, 157, 86, 90, 165, 2, 1.98031
135, 1, bw, filler, NA, 999, 999, 1, 20, 100, 157, 71, 111, 194, 131, 2, 2.03441
135, 1, bw, filler, NA, 999, 999, 1, 20, 100, 157, 71, 111, 194, 131, 3, 1.72765
135, 1, bw, attraction, a-b-da, 9, 3, 1, 21, 120, 195, 195, 120, 186, 114, 1, 2.96776
135, 1, bw, attraction, a-b-da, 9, 3, 1, 21, 120, 195, 195, 120, 186, 114, 3, 2.18356
135, 1, bw, attraction, a-b-db, 2, 3, 1, 22, 119, 193, 195, 120, 120, 195, 1, 2.69363
135, 1, bw, attraction, a-b-db, 2, 3, 1, 22, 119, 193, 195, 120, 120, 195, 2, 3.39198
135, 1, bw, attraction, a-b-db, 9, 2, 1, 23, 90, 165, 165, 90, 86, 157, 1, 2.89282
135, 1, bw, attraction, a-b-db, 9, 2, 1, 23, 90, 165, 165, 90, 86, 157, 2, 1.98321
135, 1, bw, attraction, a-b-da, 2, 3, 1, 24, 193, 119, 120, 195, 195, 120, 2, 2.30914
135, 1, bw, attraction, a-b-da, 2, 3, 1, 24, 193, 119, 120, 195, 195, 120, 1, 2.0711
135, 1, bw, attraction, a-b-db, 9, 3, 1, 25, 120, 195, 195, 120, 114, 186, 1, 2.52177
135, 1, bw, attraction, a-b-db, 9, 3, 1, 25, 120, 195, 195, 120, 114, 186, 3, 6.15483
135, 1, bw, catch, NA, 999, 999, 1, 26, 149, 106, 126, 189, 134, 61, 2, 1.96896
135, 1, bw, catch, NA, 999, 999, 1, 26, 149, 106, 126, 189, 134, 61, 3, 1.073
135, 1, bw, attraction, a-b-db, 9, 1, 1, 27, 135, 60, 57, 129, 60, 135, 1, 12.0678
135, 1, bw, attraction, a-b-db, 9, 1, 1, 27, 135, 60, 57, 129, 60, 135, 2, 1.39665
135, 1, bw, filler, NA, 999, 999, 1, 28, 89, 100, 115, 173, 194, 194, 3, 1.83424
135, 1, bw, filler, NA, 999, 999, 1, 28, 89, 100, 115, 173, 194, 194, 1, 1.49557
135, 1, bw, filler, NA, 999, 999, 1, 29, 188, 91, 65, 70, 109, 65, 1, 1.92919
135, 1, bw, filler, NA, 999, 999, 1, 29, 188, 91, 65, 70, 109, 65, 2, 1.49042
135, 1, bw, attraction, a-b-da, 14, 1, 1, 30, 135, 60, 60, 135, 125, 56, 2, 3.56394
135, 1, bw, attraction, a-b-da, 14, 1, 1, 30, 135, 60, 60, 135, 125, 56, 3, 1.25949
135, 1, bw, attraction, a-b-da, 2, 1, 1, 31, 135, 60, 134, 59, 60, 135, 3, 4.37428
135, 1, bw, attraction, a-b-da, 2, 1, 1, 31, 135, 60, 134, 59, 60, 135, 2, 2.81298
135, 1, bw, filler, NA, 999, 999, 1, 32, 170, 100, 73, 138, 172, 76, 1, 5.16159
135, 1, bw, filler, NA, 999, 999, 1, 32, 170, 100, 73, 138, 172, 76, 3, 2.56846
135, 1, bw, attraction, a-b-db, 5, 3, 1, 33, 120, 195, 117, 190, 195, 120, 2, 3.25483
135, 1, bw, attraction, a-b-db, 5, 3, 1, 33, 120, 195, 117, 190, 195, 120, 3, 2.02663
135, 1, bw, attraction, a-b-da, 14, 3, 1, 34, 120, 195, 195, 120, 181, 111, 2, 8.07847
135, 1, bw, attraction, a-b-da, 14, 3, 1, 34, 120, 195, 195, 120, 181, 111, 1, 1.71187
135, 1, bw, attraction, a-b-db, 14, 2, 1, 35, 83, 153, 165, 90, 90, 165, 3, 5.19263
135, 1, bw, attraction, a-b-db, 14, 2, 1, 35, 83, 153, 165, 90, 90, 165, 2, 1.11028
135, 1, bw, attraction, a-b-da, 9, 1, 1, 36, 135, 60, 60, 135, 129, 57, 2, 5.48717
135, 1, bw, attraction, a-b-da, 9, 1, 1, 36, 135, 60, 60, 135, 129, 57, 3, 1.49807
135, 1, bw, attraction, a-b-da, 5, 3, 1, 37, 120, 195, 195, 120, 190, 117, 1, 2.74703
135, 1, bw, attraction, a-b-da, 5, 3, 1, 37, 120, 195, 195, 120, 190, 117, 2, 0.923398
135, 1, bw, attraction, a-b-db, 9, 1, 2, 1, 57, 129, 60, 135, 135, 60, 2, 2.88371
135, 1, bw, attraction, a-b-db, 9, 1, 2, 1, 57, 129, 60, 135, 135, 60, 3, 1.19889
135, 1, bw, attraction, a-b-db, 2, 3, 2, 2, 195, 120, 120, 195, 119, 193, 2, 5.21246
135, 1, bw, attraction, a-b-db, 2, 3, 2, 2, 195, 120, 120, 195, 119, 193, 1, 1.53735
135, 1, bw, catch, NA, 999, 999, 2, 3, 112, 143, 131, 64, 169, 146, 3, 1.53749
135, 1, bw, catch, NA, 999, 999, 2, 3, 112, 143, 131, 64, 169, 146, 2, 1.46697
135, 1, bw, attraction, a-b-db, 5, 2, 2, 4, 90, 165, 165, 90, 88, 161, 1, 7.63782
135, 1, bw, attraction, a-b-db, 5, 2, 2, 4, 90, 165, 165, 90, 88, 161, 3, 0.945425
135, 1, bw, attraction, a-b-da, 14, 2, 2, 5, 153, 83, 90, 165, 165, 90, 2, 6.53703
135, 1, bw, attraction, a-b-da, 14, 2, 2, 5, 153, 83, 90, 165, 165, 90, 1, 0.849019
135, 1, bw, attraction, a-b-da, 5, 2, 2, 6, 90, 165, 165, 90, 161, 88, 1, 4.78872
135, 1, bw, attraction, a-b-da, 5, 2, 2, 6, 90, 165, 165, 90, 161, 88, 3, 1.9392
135, 1, bw, filler, NA, 999, 999, 2, 7, 81, 157, 165, 80, 165, 178, 3, 1.3872
135, 1, bw, filler, NA, 999, 999, 2, 7, 81, 157, 165, 80, 165, 178, 2, 2.76266
135, 1, bw, filler, NA, 999, 999, 2, 8, 125, 186, 131, 159, 95, 115, 1, 3.76123
135, 1, bw, filler, NA, 999, 999, 2, 8, 125, 186, 131, 159, 95, 115, 3, 1.72865
135, 1, bw, attraction, a-b-da, 2, 2, 2, 9, 90, 165, 165, 90, 163, 89, 2, 4.86471
135, 1, bw, attraction, a-b-da, 2, 2, 2, 9, 90, 165, 165, 90, 163, 89, 3, 2.0758
135, 1, bw, filler, NA, 999, 999, 2, 10, 113, 78, 106, 117, 167, 132, 3, 1.50182
135, 1, bw, filler, NA, 999, 999, 2, 10, 113, 78, 106, 117, 167, 132, 1, 1.08862
135, 1, bw, attraction, a-b-db, 9, 2, 2, 11, 90, 165, 165, 90, 86, 157, 2, 3.63493
135, 1, bw, attraction, a-b-db, 9, 2, 2, 11, 90, 165, 165, 90, 86, 157, 3, 0.967729
135, 1, bw, attraction, a-b-da, 2, 1, 2, 12, 135, 60, 134, 59, 60, 135, 3, 3.00665
135, 1, bw, attraction, a-b-da, 2, 1, 2, 12, 135, 60, 134, 59, 60, 135, 2, 2.69248
135, 1, bw, attraction, a-b-db, 9, 3, 2, 13, 195, 120, 114, 186, 120, 195, 3, 4.87756
135, 1, bw, attraction, a-b-db, 9, 3, 2, 13, 195, 120, 114, 186, 120, 195, 1, 1.34383
135, 1, bw, filler, NA, 999, 999, 2, 14, 106, 116, 147, 194, 121, 61, 2, 1.15133
135, 1, bw, filler, NA, 999, 999, 2, 14, 106, 116, 147, 194, 121, 61, 3, 1.68839
135, 1, bw, attraction, a-b-da, 9, 1, 2, 15, 129, 57, 135, 60, 60, 135, 3, 3.93045
135, 1, bw, attraction, a-b-da, 9, 1, 2, 15, 129, 57, 135, 60, 60, 135, 1, 1.98711
135, 1, bw, catch, NA, 999, 999, 2, 16, 108, 147, 93, 102, 130, 185, 3, 2.20915
135, 1, bw, catch, NA, 999, 999, 2, 16, 108, 147, 93, 102, 130, 185, 2, 2.13518
135, 1, bw, attraction, a-b-da, 9, 3, 2, 17, 186, 114, 120, 195, 195, 120, 2, 5.41506
135, 1, bw, attraction, a-b-da, 9, 3, 2, 17, 186, 114, 120, 195, 195, 120, 3, 0.956015
135, 1, bw, attraction, a-b-da, 14, 3, 2, 18, 195, 120, 181, 111, 120, 195, 3, 5.00371
135, 1, bw, attraction, a-b-da, 14, 3, 2, 18, 195, 120, 181, 111, 120, 195, 2, 1.64146
135, 1, bw, attraction, a-b-db, 14, 2, 2, 19, 165, 90, 90, 165, 83, 153, 3, 4.62885
135, 1, bw, attraction, a-b-db, 14, 2, 2, 19, 165, 90, 90, 165, 83, 153, 2, 1.39341
135, 1, bw, attraction, a-b-da, 9, 2, 2, 20, 157, 86, 90, 165, 165, 90, 3, 5.49494
135, 1, bw, attraction, a-b-da, 9, 2, 2, 20, 157, 86, 90, 165, 165, 90, 2, 1.37643
135, 1, bw, filler, NA, 999, 999, 2, 21, 187, 181, 90, 71, 84, 162, 1, 1.21459
135, 1, bw, filler, NA, 999, 999, 2, 21, 187, 181, 90, 71, 84, 162, 2, 1.237
135, 1, bw, attraction, a-b-db, 2, 1, 2, 22, 59, 134, 135, 60, 60, 135, 3, 1.89715
135, 1, bw, attraction, a-b-db, 2, 1, 2, 22, 59, 134, 135, 60, 60, 135, 2, 2.88404
135, 1, bw, filler, NA, 999, 999, 2, 23, 95, 78, 195, 162, 70, 110, 2, 2.84553
135, 1, bw, filler, NA, 999, 999, 2, 23, 95, 78, 195, 162, 70, 110, 3, 1.43399
135, 1, bw, attraction, a-b-db, 2, 2, 2, 24, 90, 165, 165, 90, 89, 163, 1, 4.72609
135, 1, bw, attraction, a-b-db, 2, 2, 2, 24, 90, 165, 165, 90, 89, 163, 2, 1.39864
135, 1, bw, attraction, a-b-da, 2, 3, 2, 25, 195, 120, 193, 119, 120, 195, 3, 3.05205
135, 1, bw, attraction, a-b-da, 2, 3, 2, 25, 195, 120, 193, 119, 120, 195, 1, 2.88046
135, 1, bw, attraction, a-b-db, 5, 3, 2, 26, 120, 195, 195, 120, 117, 190, 1, 5.98617
135, 1, bw, attraction, a-b-db, 5, 3, 2, 26, 120, 195, 195, 120, 117, 190, 2, 1.08032
135, 1, bw, attraction, a-b-da, 14, 1, 2, 27, 60, 135, 135, 60, 125, 56, 1, 3.53064
135, 1, bw, attraction, a-b-da, 14, 1, 2, 27, 60, 135, 135, 60, 125, 56, 3, 1.35535
135, 1, bw, filler, NA, 999, 999, 2, 28, 127, 172, 58, 173, 110, 103, 1, 2.0669
135, 1, bw, filler, NA, 999, 999, 2, 28, 127, 172, 58, 173, 110, 103, 2, 2.71097
135, 1, bw, attraction, a-b-db, 14, 1, 2, 29, 56, 125, 135, 60, 60, 135, 3, 1.51925
135, 1, bw, attraction, a-b-db, 14, 1, 2, 29, 56, 125, 135, 60, 60, 135, 2, 0.881598
135, 1, bw, attraction, a-b-db, 5, 1, 2, 30, 60, 135, 135, 60, 58, 132, 1, 4.5478
135, 1, bw, attraction, a-b-db, 5, 1, 2, 30, 60, 135, 135, 60, 58, 132, 2, 0.883868
135, 1, bw, filler, NA, 999, 999, 2, 31, 147, 117, 137, 102, 171, 97, 1, 2.21401
135, 1, bw, filler, NA, 999, 999, 2, 31, 147, 117, 137, 102, 171, 97, 3, 2.41205
135, 1, bw, filler, NA, 999, 999, 2, 32, 168, 109, 94, 185, 144, 84, 1, 2.80886
135, 1, bw, filler, NA, 999, 999, 2, 32, 168, 109, 94, 185, 144, 84, 3, 1.38229
135, 1, bw, attraction, a-b-db, 14, 3, 2, 33, 195, 120, 120, 195, 111, 181, 2, 2.99657
135, 1, bw, attraction, a-b-db, 14, 3, 2, 33, 195, 120, 120, 195, 111, 181, 3, 6.63488
135, 1, bw, attraction, a-b-da, 5, 3, 2, 34, 195, 120, 120, 195, 190, 117, 2, 3.02132
135, 1, bw, attraction, a-b-da, 5, 3, 2, 34, 195, 120, 120, 195, 190, 117, 1, 1.84298
135, 1, bw, attraction, a-b-da, 5, 1, 2, 35, 135, 60, 60, 135, 132, 58, 2, 3.28645
135, 1, bw, attraction, a-b-da, 5, 1, 2, 35, 135, 60, 60, 135, 132, 58, 3, 1.32942
135, 1, bw, catch, NA, 999, 999, 2, 36, 97, 98, 176, 139, 151, 104, 2, 1.88164
135, 1, bw, catch, NA, 999, 999, 2, 36, 97, 98, 176, 139, 151, 104, 1, 1.60495
135, 1, bw, filler, NA, 999, 999, 2, 37, 182, 128, 93, 149, 86, 170, 1, 4.53853
135, 1, bw, filler, NA, 999, 999, 2, 37, 182, 128, 93, 149, 86, 170, 3, 2.75505
135, 1, bw, attraction, a-b-db, 9, 1, 3, 1, 57, 129, 60, 135, 135, 60, 2, 3.842
135, 1, bw, attraction, a-b-db, 9, 1, 3, 1, 57, 129, 60, 135, 135, 60, 3, 1.34226
135, 1, bw, attraction, a-b-db, 9, 2, 3, 2, 86, 157, 90, 165, 165, 90, 2, 3.81363
135, 1, bw, attraction, a-b-db, 9, 2, 3, 2, 86, 157, 90, 165, 165, 90, 3, 3.13118
135, 1, bw, attraction, a-b-da, 2, 2, 3, 3, 163, 89, 165, 90, 90, 165, 3, 4.32291
135, 1, bw, attraction, a-b-da, 2, 2, 3, 3, 163, 89, 165, 90, 90, 165, 2, 2.42738
135, 1, bw, filler, NA, 999, 999, 3, 4, 68, 119, 98, 111, 67, 133, 2, 2.05528
135, 1, bw, filler, NA, 999, 999, 3, 4, 68, 119, 98, 111, 67, 133, 1, 2.08336
135, 1, bw, filler, NA, 999, 999, 3, 5, 107, 185, 73, 154, 56, 80, 1, 3.51722
135, 1, bw, filler, NA, 999, 999, 3, 5, 107, 185, 73, 154, 56, 80, 3, 1.95872
135, 1, bw, attraction, a-b-db, 2, 3, 3, 6, 195, 120, 120, 195, 119, 193, 2, 4.66939
135, 1, bw, attraction, a-b-db, 2, 3, 3, 6, 195, 120, 120, 195, 119, 193, 1, 1.48859
135, 1, bw, attraction, a-b-da, 14, 1, 3, 7, 125, 56, 135, 60, 60, 135, 3, 10.3146
135, 1, bw, attraction, a-b-da, 14, 1, 3, 7, 125, 56, 135, 60, 60, 135, 1, 1.15414
135, 1, bw, attraction, a-b-db, 5, 1, 3, 8, 135, 60, 60, 135, 58, 132, 2, 4.03377
135, 1, bw, attraction, a-b-db, 5, 1, 3, 8, 135, 60, 60, 135, 58, 132, 1, 1.35846
135, 1, bw, attraction, a-b-db, 2, 2, 3, 9, 89, 163, 165, 90, 90, 165, 3, 3.51741
135, 1, bw, attraction, a-b-db, 2, 2, 3, 9, 89, 163, 165, 90, 90, 165, 2, 2.07085
135, 1, bw, attraction, a-b-db, 2, 1, 3, 10, 135, 60, 59, 134, 60, 135, 2, 5.43349
135, 1, bw, attraction, a-b-db, 2, 1, 3, 10, 135, 60, 59, 134, 60, 135, 1, 1.64573
135, 1, bw, attraction, a-b-db, 14, 3, 3, 11, 120, 195, 195, 120, 111, 181, 1, 2.53712
135, 1, bw, attraction, a-b-db, 14, 3, 3, 11, 120, 195, 195, 120, 111, 181, 2, 2.26647
135, 1, bw, filler, NA, 999, 999, 3, 12, 170, 127, 120, 109, 193, 187, 3, 2.42089
135, 1, bw, filler, NA, 999, 999, 3, 12, 170, 127, 120, 109, 193, 187, 2, 1.77083
135, 1, bw, filler, NA, 999, 999, 3, 13, 99, 96, 98, 79, 109, 133, 3, 3.10564
135, 1, bw, filler, NA, 999, 999, 3, 13, 99, 96, 98, 79, 109, 133, 2, 1.45124
135, 1, bw, attraction, a-b-da, 9, 1, 3, 14, 129, 57, 60, 135, 135, 60, 2, 7.89468
135, 1, bw, attraction, a-b-da, 9, 1, 3, 14, 129, 57, 60, 135, 135, 60, 3, 1.03956
135, 1, bw, attraction, a-b-da, 5, 1, 3, 15, 60, 135, 132, 58, 135, 60, 1, 4.04381
135, 1, bw, attraction, a-b-da, 5, 1, 3, 15, 60, 135, 132, 58, 135, 60, 2, 1.75986
135, 1, bw, attraction, a-b-da, 2, 1, 3, 16, 60, 135, 134, 59, 135, 60, 1, 10.5265
135, 1, bw, attraction, a-b-da, 2, 1, 3, 16, 60, 135, 134, 59, 135, 60, 2, 1.82136
135, 1, bw, filler, NA, 999, 999, 3, 17, 174, 154, 130, 111, 64, 89, 1, 1.55384
135, 1, bw, filler, NA, 999, 999, 3, 17, 174, 154, 130, 111, 64, 89, 3, 0.834694
135, 1, bw, attraction, a-b-da, 5, 3, 3, 18, 120, 195, 190, 117, 195, 120, 1, 3.19909
135, 1, bw, attraction, a-b-da, 5, 3, 3, 18, 120, 195, 190, 117, 195, 120, 2, 0.869414
135, 1, bw, filler, NA, 999, 999, 3, 19, 69, 82, 81, 108, 106, 65, 2, 2.10443
135, 1, bw, filler, NA, 999, 999, 3, 19, 69, 82, 81, 108, 106, 65, 1, 1.17914
135, 1, bw, attraction, a-b-db, 14, 2, 3, 20, 83, 153, 90, 165, 165, 90, 2, 1.29745
135, 1, bw, attraction, a-b-db, 14, 2, 3, 20, 83, 153, 90, 165, 165, 90, 1, 2.70828
135, 1, bw, attraction, a-b-da, 9, 2, 3, 21, 165, 90, 157, 86, 90, 165, 3, 3.76459
135, 1, bw, attraction, a-b-da, 9, 2, 3, 21, 165, 90, 157, 86, 90, 165, 2, 3.40414
135, 1, bw, catch, NA, 999, 999, 3, 22, 119, 76, 121, 194, 164, 91, 2, 0.896918
135, 1, bw, catch, NA, 999, 999, 3, 22, 119, 76, 121, 194, 164, 91, 1, 0.835946
135, 1, bw, attraction, a-b-db, 9, 3, 3, 23, 195, 120, 114, 186, 120, 195, 2, 2.56834
135, 1, bw, attraction, a-b-db, 9, 3, 3, 23, 195, 120, 114, 186, 120, 195, 1, 1.40825
135, 1, bw, attraction, a-b-db, 5, 3, 3, 24, 120, 195, 117, 190, 195, 120, 2, 1.07702
135, 1, bw, attraction, a-b-db, 5, 3, 3, 24, 120, 195, 117, 190, 195, 120, 3, 4.84861
135, 1, bw, attraction, a-b-da, 2, 3, 3, 25, 195, 120, 193, 119, 120, 195, 3, 3.94711
135, 1, bw, attraction, a-b-da, 2, 3, 3, 25, 195, 120, 193, 119, 120, 195, 1, 0.979265
135, 1, bw, attraction, a-b-da, 5, 2, 3, 26, 161, 88, 165, 90, 90, 165, 3, 1.53759
135, 1, bw, attraction, a-b-da, 5, 2, 3, 26, 161, 88, 165, 90, 90, 165, 1, 0.866451
135, 1, bw, catch, NA, 999, 999, 3, 27, 181, 134, 66, 129, 94, 161, 1, 1.34935
135, 1, bw, catch, NA, 999, 999, 3, 27, 181, 134, 66, 129, 94, 161, 2, 0.718215
135, 1, bw, attraction, a-b-da, 9, 3, 3, 28, 195, 120, 186, 114, 120, 195, 3, 3.05533
135, 1, bw, attraction, a-b-da, 9, 3, 3, 28, 195, 120, 186, 114, 120, 195, 2, 2.17092
135, 1, bw, attraction, a-b-db, 14, 1, 3, 29, 56, 125, 135, 60, 60, 135, 3, 6.65768
135, 1, bw, attraction, a-b-db, 14, 1, 3, 29, 56, 125, 135, 60, 60, 135, 2, 2.3322
135, 1, bw, filler, NA, 999, 999, 3, 30, 173, 184, 185, 145, 82, 152, 1, 1.844
135, 1, bw, filler, NA, 999, 999, 3, 30, 173, 184, 185, 145, 82, 152, 3, 0.96073
135, 1, bw, attraction, a-b-da, 14, 3, 3, 31, 181, 111, 120, 195, 195, 120, 2, 2.6397
135, 1, bw, attraction, a-b-da, 14, 3, 3, 31, 181, 111, 120, 195, 195, 120, 3, 1.12408
135, 1, bw, catch, NA, 999, 999, 3, 32, 157, 98, 179, 136, 84, 111, 2, 3.23633
135, 1, bw, catch, NA, 999, 999, 3, 32, 157, 98, 179, 136, 84, 111, 3, 1.32137
135, 1, bw, filler, NA, 999, 999, 3, 33, 155, 122, 120, 98, 173, 188, 3, 1.51419
135, 1, bw, filler, NA, 999, 999, 3, 33, 155, 122, 120, 98, 173, 188, 2, 1.2045
135, 1, bw, filler, NA, 999, 999, 3, 34, 161, 126, 130, 161, 122, 132, 2, 2.05793
135, 1, bw, filler, NA, 999, 999, 3, 34, 161, 126, 130, 161, 122, 132, 3, 1.50992
135, 1, bw, attraction, a-b-db, 5, 2, 3, 35, 90, 165, 88, 161, 165, 90, 1, 2.22279
135, 1, bw, attraction, a-b-db, 5, 2, 3, 35, 90, 165, 88, 161, 165, 90, 3, 1.6201
135, 1, bw, filler, NA, 999, 999, 3, 36, 141, 145, 183, 139, 103, 147, 2, 1.92083
135, 1, bw, filler, NA, 999, 999, 3, 36, 141, 145, 183, 139, 103, 147, 3, 1.68229
135, 1, bw, attraction, a-b-da, 14, 2, 3, 37, 90, 165, 153, 83, 165, 90, 1, 4.27633
135, 1, bw, attraction, a-b-da, 14, 2, 3, 37, 90, 165, 153, 83, 165, 90, 2, 2.13503
135, 1, bw, catch, NA, 999, 999, 4, 1, 102, 93, 137, 178, 126, 129, 2, 1.12677
135, 1, bw, catch, NA, 999, 999, 4, 1, 102, 93, 137, 178, 126, 129, 1, 0.752495
135, 1, bw, attraction, a-b-da, 14, 3, 4, 2, 120, 195, 195, 120, 181, 111, 1, 3.30416
135, 1, bw, attraction, a-b-da, 14, 3, 4, 2, 120, 195, 195, 120, 181, 111, 3, 3.07444
135, 1, bw, attraction, a-b-da, 9, 1, 4, 3, 129, 57, 135, 60, 60, 135, 2, 11.116
135, 1, bw, attraction, a-b-da, 9, 1, 4, 3, 129, 57, 135, 60, 60, 135, 3, 0.627255
135, 1, bw, attraction, a-b-db, 5, 1, 4, 4, 135, 60, 58, 132, 60, 135, 2, 6.55971
135, 1, bw, attraction, a-b-db, 5, 1, 4, 4, 135, 60, 58, 132, 60, 135, 1, 0.790246
135, 1, bw, attraction, a-b-da, 14, 1, 4, 5, 135, 60, 125, 56, 60, 135, 3, 4.50808
135, 1, bw, attraction, a-b-da, 14, 1, 4, 5, 135, 60, 125, 56, 60, 135, 2, 1.05324
135, 1, bw, attraction, a-b-da, 2, 2, 4, 6, 90, 165, 165, 90, 163, 89, 1, 2.63282
135, 1, bw, attraction, a-b-da, 2, 2, 4, 6, 90, 165, 165, 90, 163, 89, 3, 2.422
135, 1, bw, catch, NA, 999, 999, 4, 7, 106, 89, 133, 182, 131, 124, 2, 1.52244
135, 1, bw, catch, NA, 999, 999, 4, 7, 106, 89, 133, 182, 131, 124, 1, 1.5239
135, 1, bw, filler, NA, 999, 999, 4, 8, 141, 162, 164, 144, 177, 81, 2, 3.21208
135, 1, bw, filler, NA, 999, 999, 4, 8, 141, 162, 164, 144, 177, 81, 3, 0.937728
135, 1, bw, filler, NA, 999, 999, 4, 9, 164, 184, 66, 163, 167, 92, 1, 1.41822
135, 1, bw, filler, NA, 999, 999, 4, 9, 164, 184, 66, 163, 167, 92, 2, 1.14439
135, 1, bw, attraction, a-b-db, 9, 2, 4, 10, 90, 165, 86, 157, 165, 90, 3, 3.18388
135, 1, bw, attraction, a-b-db, 9, 2, 4, 10, 90, 165, 86, 157, 165, 90, 1, 1.2069
135, 1, bw, filler, NA, 999, 999, 4, 11, 70, 121, 79, 134, 98, 163, 3, 1.52375
135, 1, bw, filler, NA, 999, 999, 4, 11, 70, 121, 79, 134, 98, 163, 1, 0.941223
135, 1, bw, attraction, a-b-da, 14, 2, 4, 12, 90, 165, 165, 90, 153, 83, 1, 2.90088
135, 1, bw, attraction, a-b-da, 14, 2, 4, 12, 90, 165, 165, 90, 153, 83, 2, 1.02325
135, 1, bw, filler, NA, 999, 999, 4, 13, 70, 79, 91, 158, 84, 163, 2, 3.50812
135, 1, bw, filler, NA, 999, 999, 4, 13, 70, 79, 91, 158, 84, 163, 1, 1.12586
135, 1, bw, filler, NA, 999, 999, 4, 14, 121, 118, 121, 127, 99, 132, 2, 3.54203
135, 1, bw, filler, NA, 999, 999, 4, 14, 121, 118, 121, 127, 99, 132, 3, 1.13418
135, 1, bw, attraction, a-b-db, 14, 2, 4, 15, 165, 90, 90, 165, 83, 153, 2, 2.23049
135, 1, bw, attraction, a-b-db, 14, 2, 4, 15, 165, 90, 90, 165, 83, 153, 1, 1.99582
135, 1, bw, attraction, a-b-db, 2, 2, 4, 16, 89, 163, 90, 165, 165, 90, 2, 5.45709
135, 1, bw, attraction, a-b-db, 2, 2, 4, 16, 89, 163, 90, 165, 165, 90, 3, 1.13206
135, 1, bw, attraction, a-b-db, 2, 3, 4, 17, 119, 193, 120, 195, 195, 120, 1, 4.44429
135, 1, bw, attraction, a-b-db, 2, 3, 4, 17, 119, 193, 120, 195, 195, 120, 3, 4.06424
135, 1, bw, attraction, a-b-da, 5, 2, 4, 18, 165, 90, 90, 165, 161, 88, 2, 4.63423
135, 1, bw, attraction, a-b-da, 5, 2, 4, 18, 165, 90, 90, 165, 161, 88, 1, 1.33468
135, 1, bw, attraction, a-b-db, 5, 3, 4, 19, 117, 190, 195, 120, 120, 195, 3, 3.0149
135, 1, bw, attraction, a-b-db, 5, 3, 4, 19, 117, 190, 195, 120, 120, 195, 2, 3.36459
135, 1, bw, attraction, a-b-db, 14, 1, 4, 20, 56, 125, 135, 60, 60, 135, 2, 3.57077
135, 1, bw, attraction, a-b-db, 14, 1, 4, 20, 56, 125, 135, 60, 60, 135, 1, 0.650328
135, 1, bw, filler, NA, 999, 999, 4, 21, 91, 84, 195, 162, 103, 115, 2, 0.97395
135, 1, bw, filler, NA, 999, 999, 4, 21, 91, 84, 195, 162, 103, 115, 1, 1.4297
135, 1, bw, catch, NA, 999, 999, 4, 22, 178, 137, 89, 106, 110, 145, 1, 1.6018
135, 1, bw, catch, NA, 999, 999, 4, 22, 178, 137, 89, 106, 110, 145, 2, 0.7447
135, 1, bw, filler, NA, 999, 999, 4, 23, 80, 115, 99, 142, 131, 184, 3, 3.3685
135, 1, bw, filler, NA, 999, 999, 4, 23, 80, 115, 99, 142, 131, 184, 1, 1.28001
135, 1, bw, attraction, a-b-da, 2, 3, 4, 24, 120, 195, 193, 119, 195, 120, 1, 3.48222
135, 1, bw, attraction, a-b-da, 2, 3, 4, 24, 120, 195, 193, 119, 195, 120, 3, 0.765028
135, 1, bw, attraction, a-b-db, 2, 1, 4, 25, 135, 60, 59, 134, 60, 135, 3, 5.31611
135, 1, bw, attraction, a-b-db, 2, 1, 4, 25, 135, 60, 59, 134, 60, 135, 1, 0.965062
135, 1, bw, attraction, a-b-da, 9, 2, 4, 26, 165, 90, 157, 86, 90, 165, 3, 1.35607
135, 1, bw, attraction, a-b-da, 9, 2, 4, 26, 165, 90, 157, 86, 90, 165, 2, 1.06032
135, 1, bw, attraction, a-b-db, 5, 2, 4, 27, 90, 165, 88, 161, 165, 90, 2, 6.69533
135, 1, bw, attraction, a-b-db, 5, 2, 4, 27, 90, 165, 88, 161, 165, 90, 3, 1.28842
135, 1, bw, filler, NA, 999, 999, 4, 28, 163, 129, 56, 79, 84, 168, 1, 1.02658
135, 1, bw, filler, NA, 999, 999, 4, 28, 163, 129, 56, 79, 84, 168, 2, 0.640319
135, 1, bw, filler, NA, 999, 999, 4, 29, 126, 183, 93, 79, 100, 89, 1, 1.26013
135, 1, bw, filler, NA, 999, 999, 4, 29, 126, 183, 93, 79, 100, 89, 2, 0.576307
135, 1, bw, attraction, a-b-db, 9, 1, 4, 30, 60, 135, 135, 60, 57, 129, 1, 4.36668
135, 1, bw, attraction, a-b-db, 9, 1, 4, 30, 60, 135, 135, 60, 57, 129, 2, 0.902095
135, 1, bw, filler, NA, 999, 999, 4, 31, 125, 164, 112, 135, 93, 142, 1, 1.75163
135, 1, bw, filler, NA, 999, 999, 4, 31, 125, 164, 112, 135, 93, 142, 3, 0.576424
135, 1, bw, attraction, a-b-da, 5, 1, 4, 32, 135, 60, 60, 135, 132, 58, 2, 3.30291
135, 1, bw, attraction, a-b-da, 5, 1, 4, 32, 135, 60, 60, 135, 132, 58, 3, 1.44916
135, 1, bw, attraction, a-b-db, 14, 3, 4, 33, 195, 120, 111, 181, 120, 195, 3, 4.11674
135, 1, bw, attraction, a-b-db, 14, 3, 4, 33, 195, 120, 111, 181, 120, 195, 2, 1.42197
135, 1, bw, attraction, a-b-da, 9, 3, 4, 34, 120, 195, 186, 114, 195, 120, 1, 2.93883
135, 1, bw, attraction, a-b-da, 9, 3, 4, 34, 120, 195, 186, 114, 195, 120, 2, 0.795102
135, 1, bw, attraction, a-b-da, 5, 3, 4, 35, 120, 195, 190, 117, 195, 120, 1, 6.86482
135, 1, bw, attraction, a-b-da, 5, 3, 4, 35, 120, 195, 190, 117, 195, 120, 3, 0.971348
135, 1, bw, attraction, a-b-da, 2, 1, 4, 36, 60, 135, 134, 59, 135, 60, 1, 2.09033
135, 1, bw, attraction, a-b-da, 2, 1, 4, 36, 60, 135, 134, 59, 135, 60, 3, 1.13302
135, 1, bw, attraction, a-b-db, 9, 3, 4, 37, 120, 195, 114, 186, 195, 120, 1, 7.18921
135, 1, bw, attraction, a-b-db, 9, 3, 4, 37, 120, 195, 114, 186, 195, 120, 3, 1.26695
135, 1, bw, attraction, a-b-da, 9, 2, 5, 1, 90, 165, 165, 90, 157, 86, 1, 4.46845
135, 1, bw, attraction, a-b-da, 9, 2, 5, 1, 90, 165, 165, 90, 157, 86, 3, 1.55174
135, 1, bw, attraction, a-b-db, 5, 3, 5, 2, 120, 195, 195, 120, 117, 190, 1, 1.56715
135, 1, bw, attraction, a-b-db, 5, 3, 5, 2, 120, 195, 195, 120, 117, 190, 2, 1.17545
135, 1, bw, attraction, a-b-db, 9, 3, 5, 3, 195, 120, 114, 186, 120, 195, 3, 2.50162
135, 1, bw, attraction, a-b-db, 9, 3, 5, 3, 195, 120, 114, 186, 120, 195, 1, 1.46412
135, 1, bw, attraction, a-b-db, 5, 1, 5, 4, 58, 132, 135, 60, 60, 135, 3, 5.44293
135, 1, bw, attraction, a-b-db, 5, 1, 5, 4, 58, 132, 135, 60, 60, 135, 2, 2.23855
135, 1, bw, attraction, a-b-da, 2, 1, 5, 5, 60, 135, 134, 59, 135, 60, 2, 5.25044
135, 1, bw, attraction, a-b-da, 2, 1, 5, 5, 60, 135, 134, 59, 135, 60, 1, 3.48619
135, 1, bw, attraction, a-b-db, 9, 2, 5, 6, 165, 90, 86, 157, 90, 165, 2, 5.42368
135, 1, bw, attraction, a-b-db, 9, 2, 5, 6, 165, 90, 86, 157, 90, 165, 1, 1.24391
135, 1, bw, filler, NA, 999, 999, 5, 7, 126, 180, 162, 160, 153, 121, 2, 0.911358
135, 1, bw, filler, NA, 999, 999, 5, 7, 126, 180, 162, 160, 153, 121, 3, 1.96985
135, 1, bw, filler, NA, 999, 999, 5, 8, 73, 168, 177, 106, 134, 62, 2, 1.53643
135, 1, bw, filler, NA, 999, 999, 5, 8, 73, 168, 177, 106, 134, 62, 3, 1.1381
135, 1, bw, attraction, a-b-db, 2, 1, 5, 9, 135, 60, 59, 134, 60, 135, 2, 3.43437
135, 1, bw, attraction, a-b-db, 2, 1, 5, 9, 135, 60, 59, 134, 60, 135, 1, 1.75914
135, 1, bw, attraction, a-b-da, 5, 2, 5, 10, 161, 88, 90, 165, 165, 90, 2, 1.78979
135, 1, bw, attraction, a-b-da, 5, 2, 5, 10, 161, 88, 90, 165, 165, 90, 1, 2.49258
135, 1, bw, filler, NA, 999, 999, 5, 11, 164, 74, 161, 117, 80, 168, 2, 1.5337
135, 1, bw, filler, NA, 999, 999, 5, 11, 164, 74, 161, 117, 80, 168, 1, 1.45524
135, 1, bw, attraction, a-b-da, 9, 3, 5, 12, 195, 120, 120, 195, 186, 114, 2, 2.69074
135, 1, bw, attraction, a-b-da, 9, 3, 5, 12, 195, 120, 120, 195, 186, 114, 3, 1.84522
135, 1, bw, catch, NA, 999, 999, 5, 13, 128, 67, 109, 146, 138, 177, 3, 1.46457
135, 1, bw, catch, NA, 999, 999, 5, 13, 128, 67, 109, 146, 138, 177, 1, 1.02081
135, 1, bw, filler, NA, 999, 999, 5, 14, 94, 114, 64, 101, 88, 151, 3, 1.72175
135, 1, bw, filler, NA, 999, 999, 5, 14, 94, 114, 64, 101, 88, 151, 2, 1.01121
135, 1, bw, attraction, a-b-db, 14, 3, 5, 15, 111, 181, 120, 195, 195, 120, 2, 1.65604
135, 1, bw, attraction, a-b-db, 14, 3, 5, 15, 111, 181, 120, 195, 195, 120, 3, 1.22022
135, 1, bw, attraction, a-b-da, 14, 2, 5, 16, 165, 90, 90, 165, 153, 83, 2, 2.24109
135, 1, bw, attraction, a-b-da, 14, 2, 5, 16, 165, 90, 90, 165, 153, 83, 3, 0.909808
135, 1, bw, attraction, a-b-db, 14, 2, 5, 17, 90, 165, 83, 153, 165, 90, 1, 1.55071
135, 1, bw, attraction, a-b-db, 14, 2, 5, 17, 90, 165, 83, 153, 165, 90, 3, 1.28752
135, 1, bw, attraction, a-b-db, 9, 1, 5, 18, 57, 129, 135, 60, 60, 135, 3, 2.43381
135, 1, bw, attraction, a-b-db, 9, 1, 5, 18, 57, 129, 135, 60, 60, 135, 2, 0.87086
135, 1, bw, attraction, a-b-da, 14, 1, 5, 19, 125, 56, 60, 135, 135, 60, 2, 4.79395
135, 1, bw, attraction, a-b-da, 14, 1, 5, 19, 125, 56, 60, 135, 135, 60, 1, 0.919839
135, 1, bw, filler, NA, 999, 999, 5, 20, 60, 128, 189, 167, 87, 98, 2, 0.784657
135, 1, bw, filler, NA, 999, 999, 5, 20, 60, 128, 189, 167, 87, 98, 1, 1.29654
135, 1, bw, filler, NA, 999, 999, 5, 21, 98, 116, 125, 132, 87, 66, 2, 3.65007
135, 1, bw, filler, NA, 999, 999, 5, 21, 98, 116, 125, 132, 87, 66, 3, 1.11033
135, 1, bw, catch, NA, 999, 999, 5, 22, 142, 113, 146, 169, 94, 101, 2, 2.31915
135, 1, bw, catch, NA, 999, 999, 5, 22, 142, 113, 146, 169, 94, 101, 3, 1.40115
135, 1, bw, filler, NA, 999, 999, 5, 23, 113, 117, 85, 173, 67, 118, 2, 3.16642
135, 1, bw, filler, NA, 999, 999, 5, 23, 113, 117, 85, 173, 67, 118, 3, 1.87813
135, 1, bw, attraction, a-b-da, 5, 1, 5, 24, 60, 135, 135, 60, 132, 58, 1, 2.66409
135, 1, bw, attraction, a-b-da, 5, 1, 5, 24, 60, 135, 135, 60, 132, 58, 3, 0.852013
135, 1, bw, attraction, a-b-da, 2, 3, 5, 25, 120, 195, 195, 120, 193, 119, 1, 1.74381
135, 1, bw, attraction, a-b-da, 2, 3, 5, 25, 120, 195, 195, 120, 193, 119, 3, 1.08843
135, 1, bw, attraction, a-b-db, 14, 1, 5, 26, 135, 60, 60, 135, 56, 125, 2, 2.01877
135, 1, bw, attraction, a-b-db, 14, 1, 5, 26, 135, 60, 60, 135, 56, 125, 1, 0.69669
135, 1, bw, attraction, a-b-da, 14, 3, 5, 27, 195, 120, 120, 195, 181, 111, 2, 3.36238
135, 1, bw, attraction, a-b-da, 14, 3, 5, 27, 195, 120, 120, 195, 181, 111, 3, 1.45004
135, 1, bw, filler, NA, 999, 999, 5, 28, 104, 77, 190, 83, 129, 130, 3, 1.02153
135, 1, bw, filler, NA, 999, 999, 5, 28, 104, 77, 190, 83, 129, 130, 1, 1.16393
135, 1, bw, attraction, a-b-db, 2, 3, 5, 29, 120, 195, 119, 193, 195, 120, 1, 2.40276
135, 1, bw, attraction, a-b-db, 2, 3, 5, 29, 120, 195, 119, 193, 195, 120, 3, 0.793332
135, 1, bw, catch, NA, 999, 999, 5, 30, 108, 147, 99, 96, 187, 128, 3, 2.3992
135, 1, bw, catch, NA, 999, 999, 5, 30, 108, 147, 99, 96, 187, 128, 2, 0.57353
135, 1, bw, filler, NA, 999, 999, 5, 31, 72, 67, 85, 111, 85, 181, 3, 2.54803
135, 1, bw, filler, NA, 999, 999, 5, 31, 72, 67, 85, 111, 85, 181, 1, 0.628466
135, 1, bw, filler, NA, 999, 999, 5, 32, 71, 95, 99, 189, 141, 138, 3, 2.92108
135, 1, bw, filler, NA, 999, 999, 5, 32, 71, 95, 99, 189, 141, 138, 1, 0.850794
135, 1, bw, attraction, a-b-da, 5, 3, 5, 33, 195, 120, 120, 195, 190, 117, 2, 2.47031
135, 1, bw, attraction, a-b-da, 5, 3, 5, 33, 195, 120, 120, 195, 190, 117, 3, 0.642148
135, 1, bw, attraction, a-b-da, 2, 2, 5, 34, 163, 89, 90, 165, 165, 90, 2, 2.68585
135, 1, bw, attraction, a-b-da, 2, 2, 5, 34, 163, 89, 90, 165, 165, 90, 1, 0.649075
135, 1, bw, attraction, a-b-db, 2, 2, 5, 35, 165, 90, 90, 165, 89, 163, 2, 2.66089
135, 1, bw, attraction, a-b-db, 2, 2, 5, 35, 165, 90, 90, 165, 89, 163, 3, 0.58462
135, 1, bw, attraction, a-b-da, 9, 1, 5, 36, 135, 60, 129, 57, 60, 135, 3, 2.51904
135, 1, bw, attraction, a-b-da, 9, 1, 5, 36, 135, 60, 129, 57, 60, 135, 2, 0.608914
135, 1, bw, attraction, a-b-db, 5, 2, 5, 37, 165, 90, 90, 165, 88, 161, 3, 2.2621
135, 1, bw, attraction, a-b-db, 5, 2, 5, 37, 165, 90, 90, 165, 88, 161, 1, 0.577929
135, 1, bw, attraction, a-b-db, 2, 1, 6, 1, 59, 134, 60, 135, 135, 60, 1, 2.21639
135, 1, bw, attraction, a-b-db, 2, 1, 6, 1, 59, 134, 60, 135, 135, 60, 3, 1.15838
135, 1, bw, attraction, a-b-db, 5, 1, 6, 2, 58, 132, 135, 60, 60, 135, 3, 2.38936
135, 1, bw, attraction, a-b-db, 5, 1, 6, 2, 58, 132, 135, 60, 60, 135, 2, 0.627686
135, 1, bw, attraction, a-b-db, 9, 2, 6, 3, 86, 157, 165, 90, 90, 165, 3, 2.34419
135, 1, bw, attraction, a-b-db, 9, 2, 6, 3, 86, 157, 165, 90, 90, 165, 2, 0.752735
135, 1, bw, attraction, a-b-da, 9, 3, 6, 4, 195, 120, 120, 195, 186, 114, 2, 1.76039
135, 1, bw, attraction, a-b-da, 9, 3, 6, 4, 195, 120, 120, 195, 186, 114, 1, 0.528566
135, 1, bw, filler, NA, 999, 999, 6, 5, 131, 56, 62, 134, 139, 181, 3, 1.09691
135, 1, bw, filler, NA, 999, 999, 6, 5, 131, 56, 62, 134, 139, 181, 1, 5.36385
135, 1, bw, filler, NA, 999, 999, 6, 6, 117, 187, 66, 103, 134, 102, 1, 0.921677
135, 1, bw, filler, NA, 999, 999, 6, 6, 117, 187, 66, 103, 134, 102, 2, 1.26717
135, 1, bw, filler, NA, 999, 999, 6, 7, 117, 146, 121, 147, 114, 138, 2, 5.50219
135, 1, bw, filler, NA, 999, 999, 6, 7, 117, 146, 121, 147, 114, 138, 3, 0.727671
135, 1, bw, attraction, a-b-da, 2, 2, 6, 8, 163, 89, 90, 165, 165, 90, 2, 3.12004
135, 1, bw, attraction, a-b-da, 2, 2, 6, 8, 163, 89, 90, 165, 165, 90, 3, 0.78584
135, 1, bw, attraction, a-b-db, 5, 3, 6, 9, 117, 190, 195, 120, 120, 195, 1, 4.99214
135, 1, bw, attraction, a-b-db, 5, 3, 6, 9, 117, 190, 195, 120, 120, 195, 2, 1.42206
135, 1, bw, attraction, a-b-da, 14, 1, 6, 10, 60, 135, 125, 56, 135, 60, 1, 1.18665
135, 1, bw, attraction, a-b-da, 14, 1, 6, 10, 60, 135, 125, 56, 135, 60, 3, 0.79432
135, 1, bw, catch, NA, 999, 999, 6, 11, 127, 128, 175, 140, 104, 91, 2, 1.67995
135, 1, bw, catch, NA, 999, 999, 6, 11, 127, 128, 175, 140, 104, 91, 3, 0.915433
135, 1, bw, filler, NA, 999, 999, 6, 12, 137, 143, 132, 105, 129, 183, 3, 1.35638
135, 1, bw, filler, NA, 999, 999, 6, 12, 137, 143, 132, 105, 129, 183, 2, 0.740586
135, 1, bw, attraction, a-b-da, 14, 2, 6, 13, 153, 83, 165, 90, 90, 165, 3, 2.14044
135, 1, bw, attraction, a-b-da, 14, 2, 6, 13, 153, 83, 165, 90, 90, 165, 1, 0.685007
135, 1, bw, filler, NA, 999, 999, 6, 14, 176, 78, 164, 58, 99, 140, 3, 1.0875
135, 1, bw, filler, NA, 999, 999, 6, 14, 176, 78, 164, 58, 99, 140, 2, 1.21895
135, 1, bw, attraction, a-b-da, 14, 3, 6, 15, 120, 195, 195, 120, 181, 111, 1, 3.04794
135, 1, bw, attraction, a-b-da, 14, 3, 6, 15, 120, 195, 195, 120, 181, 111, 3, 1.60429
135, 1, bw, filler, NA, 999, 999, 6, 16, 98, 97, 114, 186, 164, 169, 3, 1.66579
135, 1, bw, filler, NA, 999, 999, 6, 16, 98, 97, 114, 186, 164, 169, 1, 0.621814
135, 1, bw, filler, NA, 999, 999, 6, 17, 89, 132, 92, 179, 194, 60, 2, 3.75497
135, 1, bw, filler, NA, 999, 999, 6, 17, 89, 132, 92, 179, 194, 60, 3, 2.42707
135, 1, bw, attraction, a-b-db, 9, 1, 6, 18, 60, 135, 135, 60, 57, 129, 1, 2.93491
135, 1, bw, attraction, a-b-db, 9, 1, 6, 18, 60, 135, 135, 60, 57, 129, 2, 1.06393
135, 1, bw, catch, NA, 999, 999, 6, 19, 83, 112, 141, 174, 115, 140, 2, 0.986913
135, 1, bw, catch, NA, 999, 999, 6, 19, 83, 112, 141, 174, 115, 140, 1, 1.54654
135, 1, bw, filler, NA, 999, 999, 6, 20, 170, 169, 162, 195, 105, 155, 2, 3.27409
135, 1, bw, filler, NA, 999, 999, 6, 20, 170, 169, 162, 195, 105, 155, 3, 0.780909
135, 1, bw, attraction, a-b-da, 9, 1, 6, 21, 129, 57, 135, 60, 60, 135, 3, 3.67537
135, 1, bw, attraction, a-b-da, 9, 1, 6, 21, 129, 57, 135, 60, 60, 135, 2, 0.742162
135, 1, bw, attraction, a-b-db, 14, 2, 6, 22, 165, 90, 90, 165, 83, 153, 2, 3.38999
135, 1, bw, attraction, a-b-db, 14, 2, 6, 22, 165, 90, 90, 165, 83, 153, 3, 1.4921
135, 1, bw, attraction, a-b-da, 5, 2, 6, 23, 90, 165, 161, 88, 165, 90, 1, 1.3256
135, 1, bw, attraction, a-b-da, 5, 2, 6, 23, 90, 165, 161, 88, 165, 90, 2, 0.911213
135, 1, bw, attraction, a-b-db, 14, 1, 6, 24, 60, 135, 56, 125, 135, 60, 1, 1.56811
135, 1, bw, attraction, a-b-db, 14, 1, 6, 24, 60, 135, 56, 125, 135, 60, 3, 1.18435
135, 1, bw, attraction, a-b-da, 9, 2, 6, 25, 90, 165, 165, 90, 157, 86, 1, 1.58249
135, 1, bw, attraction, a-b-da, 9, 2, 6, 25, 90, 165, 165, 90, 157, 86, 3, 2.55001
135, 1, bw, attraction, a-b-db, 14, 3, 6, 26, 195, 120, 111, 181, 120, 195, 3, 2.01313
135, 1, bw, attraction, a-b-db, 14, 3, 6, 26, 195, 120, 111, 181, 120, 195, 2, 1.01109
135, 1, bw, filler, NA, 999, 999, 6, 27, 136, 103, 68, 58, 84, 148, 1, 1.7681
135, 1, bw, filler, NA, 999, 999, 6, 27, 136, 103, 68, 58, 84, 148, 2, 1.11211
135, 1, bw, attraction, a-b-db, 2, 2, 6, 28, 165, 90, 89, 163, 90, 165, 3, 1.96935
135, 1, bw, attraction, a-b-db, 2, 2, 6, 28, 165, 90, 89, 163, 90, 165, 1, 0.625067
135, 1, bw, attraction, a-b-db, 2, 3, 6, 29, 119, 193, 195, 120, 120, 195, 3, 1.07767
135, 1, bw, attraction, a-b-db, 2, 3, 6, 29, 119, 193, 195, 120, 120, 195, 2, 0.993174
135, 1, bw, attraction, a-b-da, 2, 1, 6, 30, 60, 135, 135, 60, 134, 59, 1, 1.17479
135, 1, bw, attraction, a-b-da, 2, 1, 6, 30, 60, 135, 135, 60, 134, 59, 3, 0.606374
135, 1, bw, attraction, a-b-da, 5, 3, 6, 31, 120, 195, 195, 120, 190, 117, 1, 2.8441
135, 1, bw, attraction, a-b-da, 5, 3, 6, 31, 120, 195, 195, 120, 190, 117, 3, 0.664524
135, 1, bw, filler, NA, 999, 999, 6, 32, 62, 147, 125, 124, 178, 128, 3, 1.58757
135, 1, bw, filler, NA, 999, 999, 6, 32, 62, 147, 125, 124, 178, 128, 1, 0.795105
135, 1, bw, attraction, a-b-db, 9, 3, 6, 33, 114, 186, 195, 120, 120, 195, 1, 2.32093
135, 1, bw, attraction, a-b-db, 9, 3, 6, 33, 114, 186, 195, 120, 120, 195, 2, 2.91483
135, 1, bw, attraction, a-b-da, 2, 3, 6, 34, 195, 120, 120, 195, 193, 119, 2, 1.09901
135, 1, bw, attraction, a-b-da, 2, 3, 6, 34, 195, 120, 120, 195, 193, 119, 3, 0.798036
135, 1, bw, attraction, a-b-da, 5, 1, 6, 35, 135, 60, 132, 58, 60, 135, 1, 1.00371
135, 1, bw, attraction, a-b-da, 5, 1, 6, 35, 135, 60, 132, 58, 60, 135, 2, 0.698678
135, 1, bw, catch, NA, 999, 999, 6, 36, 124, 131, 189, 126, 97, 98, 2, 1.03641
135, 1, bw, catch, NA, 999, 999, 6, 36, 124, 131, 189, 126, 97, 98, 3, 0.610082
135, 1, bw, attraction, a-b-db, 5, 2, 6, 37, 90, 165, 165, 90, 88, 161, 1, 3.54319
135, 1, bw, attraction, a-b-db, 5, 2, 6, 37, 90, 165, 165, 90, 88, 161, 2, 1.9594
135, 1, bw, attraction, a-b-db, 2, 3, 7, 1, 120, 195, 119, 193, 195, 120, 1, 4.43016
135, 1, bw, attraction, a-b-db, 2, 3, 7, 1, 120, 195, 119, 193, 195, 120, 3, 0.730749
135, 1, bw, attraction, a-b-db, 14, 1, 7, 2, 135, 60, 56, 125, 60, 135, 3, 5.34705
135, 1, bw, attraction, a-b-db, 14, 1, 7, 2, 135, 60, 56, 125, 60, 135, 1, 0.826821
135, 1, bw, attraction, a-b-da, 5, 3, 7, 3, 195, 120, 190, 117, 120, 195, 3, 2.24712
135, 1, bw, attraction, a-b-da, 5, 3, 7, 3, 195, 120, 190, 117, 120, 195, 2, 1.33158
135, 1, bw, attraction, a-b-da, 2, 2, 7, 4, 163, 89, 165, 90, 90, 165, 3, 5.49177
135, 1, bw, attraction, a-b-da, 2, 2, 7, 4, 163, 89, 165, 90, 90, 165, 1, 0.997394
135, 1, bw, attraction, a-b-da, 2, 3, 7, 5, 193, 119, 120, 195, 195, 120, 2, 0.979142
135, 1, bw, attraction, a-b-da, 2, 3, 7, 5, 193, 119, 120, 195, 195, 120, 1, 0.826782
135, 1, bw, catch, NA, 999, 999, 7, 6, 189, 126, 119, 76, 94, 161, 1, 1.24718
135, 1, bw, catch, NA, 999, 999, 7, 6, 189, 126, 119, 76, 94, 161, 2, 1.02808
135, 1, bw, filler, NA, 999, 999, 7, 7, 65, 152, 143, 187, 98, 93, 2, 1.04018
135, 1, bw, filler, NA, 999, 999, 7, 7, 65, 152, 143, 187, 98, 93, 1, 3.26926
135, 1, bw, filler, NA, 999, 999, 7, 8, 87, 110, 123, 153, 178, 63, 2, 1.08755
135, 1, bw, filler, NA, 999, 999, 7, 8, 87, 110, 123, 153, 178, 63, 3, 1.29114
135, 1, bw, attraction, a-b-db, 2, 1, 7, 9, 135, 60, 59, 134, 60, 135, 2, 2.98866
135, 1, bw, attraction, a-b-db, 2, 1, 7, 9, 135, 60, 59, 134, 60, 135, 1, 0.939676
135, 1, bw, attraction, a-b-db, 9, 3, 7, 10, 114, 186, 195, 120, 120, 195, 3, 2.78805
135, 1, bw, attraction, a-b-db, 9, 3, 7, 10, 114, 186, 195, 120, 120, 195, 2, 0.731157
135, 1, bw, catch, NA, 999, 999, 7, 11, 67, 128, 139, 176, 155, 100, 2, 0.891593
135, 1, bw, catch, NA, 999, 999, 7, 11, 67, 128, 139, 176, 155, 100, 1, 0.97455
135, 1, bw, attraction, a-b-da, 9, 1, 7, 12, 60, 135, 135, 60, 129, 57, 1, 2.30885
135, 1, bw, attraction, a-b-da, 9, 1, 7, 12, 60, 135, 135, 60, 129, 57, 2, 0.638782
135, 1, bw, attraction, a-b-da, 2, 1, 7, 13, 60, 135, 135, 60, 134, 59, 1, 2.33927
135, 1, bw, attraction, a-b-da, 2, 1, 7, 13, 60, 135, 135, 60, 134, 59, 3, 0.531855
135, 1, bw, attraction, a-b-da, 5, 1, 7, 14, 135, 60, 60, 135, 132, 58, 2, 3.02817
135, 1, bw, attraction, a-b-da, 5, 1, 7, 14, 135, 60, 60, 135, 132, 58, 3, 1.47324
135, 1, bw, filler, NA, 999, 999, 7, 15, 156, 58, 194, 180, 192, 165, 2, 1.71626
135, 1, bw, filler, NA, 999, 999, 7, 15, 156, 58, 194, 180, 192, 165, 1, 1.26219
135, 1, bw, filler, NA, 999, 999, 7, 16, 63, 172, 98, 115, 170, 158, 3, 1.22516
135, 1, bw, filler, NA, 999, 999, 7, 16, 63, 172, 98, 115, 170, 158, 1, 1.1267
135, 1, bw, attraction, a-b-db, 5, 2, 7, 17, 88, 161, 90, 165, 165, 90, 2, 2.77488
135, 1, bw, attraction, a-b-db, 5, 2, 7, 17, 88, 161, 90, 165, 165, 90, 3, 0.69393
135, 1, bw, filler, NA, 999, 999, 7, 18, 110, 119, 157, 160, 163, 193, 3, 1.10365
135, 1, bw, filler, NA, 999, 999, 7, 18, 110, 119, 157, 160, 163, 193, 1, 1.01862
135, 1, bw, catch, NA, 999, 999, 7, 19, 79, 116, 145, 170, 111, 144, 2, 1.39159
135, 1, bw, catch, NA, 999, 999, 7, 19, 79, 116, 145, 170, 111, 144, 1, 0.790534
135, 1, bw, attraction, a-b-da, 9, 3, 7, 20, 120, 195, 186, 114, 195, 120, 1, 4.93211
135, 1, bw, attraction, a-b-da, 9, 3, 7, 20, 120, 195, 186, 114, 195, 120, 3, 1.88463
135, 1, bw, filler, NA, 999, 999, 7, 21, 110, 81, 88, 62, 168, 57, 1, 3.81459
135, 1, bw, filler, NA, 999, 999, 7, 21, 110, 81, 88, 62, 168, 57, 3, 0.644006
135, 1, bw, attraction, a-b-db, 9, 2, 7, 22, 165, 90, 86, 157, 90, 165, 2, 5.57584
135, 1, bw, attraction, a-b-db, 9, 2, 7, 22, 165, 90, 86, 157, 90, 165, 3, 0.926034
135, 1, bw, filler, NA, 999, 999, 7, 23, 59, 86, 186, 85, 160, 188, 3, 0.974418
135, 1, bw, filler, NA, 999, 999, 7, 23, 59, 86, 186, 85, 160, 188, 1, 0.702066
135, 1, bw, attraction, a-b-db, 5, 3, 7, 24, 117, 190, 195, 120, 120, 195, 3, 3.66378
135, 1, bw, attraction, a-b-db, 5, 3, 7, 24, 117, 190, 195, 120, 120, 195, 2, 1.77928
135, 1, bw, attraction, a-b-db, 14, 3, 7, 25, 120, 195, 195, 120, 111, 181, 1, 1.99328
135, 1, bw, attraction, a-b-db, 14, 3, 7, 25, 120, 195, 195, 120, 111, 181, 3, 1.55216
135, 1, bw, attraction, a-b-da, 14, 3, 7, 26, 195, 120, 181, 111, 120, 195, 3, 2.8954
135, 1, bw, attraction, a-b-da, 14, 3, 7, 26, 195, 120, 181, 111, 120, 195, 1, 0.577888
135, 1, bw, attraction, a-b-da, 14, 1, 7, 27, 135, 60, 60, 135, 125, 56, 2, 2.68831
135, 1, bw, attraction, a-b-da, 14, 1, 7, 27, 135, 60, 60, 135, 125, 56, 3, 2.02748
135, 1, bw, filler, NA, 999, 999, 7, 28, 138, 105, 184, 148, 190, 93, 2, 1.34336
135, 1, bw, filler, NA, 999, 999, 7, 28, 138, 105, 184, 148, 190, 93, 1, 4.92037
135, 1, bw, attraction, a-b-da, 9, 2, 7, 29, 157, 86, 165, 90, 90, 165, 3, 3.75206
135, 1, bw, attraction, a-b-da, 9, 2, 7, 29, 157, 86, 165, 90, 90, 165, 1, 1.02414
135, 1, bw, attraction, a-b-db, 5, 1, 7, 30, 58, 132, 135, 60, 60, 135, 3, 2.42839
135, 1, bw, attraction, a-b-db, 5, 1, 7, 30, 58, 132, 135, 60, 60, 135, 2, 0.697673
135, 1, bw, filler, NA, 999, 999, 7, 31, 88, 156, 141, 194, 172, 56, 2, 4.67536
135, 1, bw, filler, NA, 999, 999, 7, 31, 88, 156, 141, 194, 172, 56, 3, 2.05407
135, 1, bw, attraction, a-b-db, 14, 2, 7, 32, 90, 165, 83, 153, 165, 90, 1, 3.39317
135, 1, bw, attraction, a-b-db, 14, 2, 7, 32, 90, 165, 83, 153, 165, 90, 3, 1.1995
135, 1, bw, attraction, a-b-db, 2, 2, 7, 33, 89, 163, 165, 90, 90, 165, 1, 2.10901
135, 1, bw, attraction, a-b-db, 2, 2, 7, 33, 89, 163, 165, 90, 90, 165, 2, 0.91894
135, 1, bw, attraction, a-b-da, 5, 2, 7, 34, 165, 90, 161, 88, 90, 165, 3, 1.03205
135, 1, bw, attraction, a-b-da, 5, 2, 7, 34, 165, 90, 161, 88, 90, 165, 2, 0.68563
135, 1, bw, filler, NA, 999, 999, 7, 35, 59, 157, 148, 82, 104, 60, 2, 1.40006
135, 1, bw, filler, NA, 999, 999, 7, 35, 59, 157, 148, 82, 104, 60, 3, 1.29498
135, 1, bw, attraction, a-b-da, 14, 2, 7, 36, 90, 165, 165, 90, 153, 83, 1, 3.36041
135, 1, bw, attraction, a-b-da, 14, 2, 7, 36, 90, 165, 165, 90, 153, 83, 3, 0.783952
135, 1, bw, attraction, a-b-db, 9, 1, 7, 37, 135, 60, 57, 129, 60, 135, 2, 3.88638
135, 1, bw, attraction, a-b-db, 9, 1, 7, 37, 135, 60, 57, 129, 60, 135, 1, 1.09716
135, 1, bw, filler, NA, 999, 999, 8, 1, 92, 185, 190, 179, 122, 113, 2, 1.08289
135, 1, bw, filler, NA, 999, 999, 8, 1, 92, 185, 190, 179, 122, 113, 3, 0.838382
135, 1, bw, attraction, a-b-db, 14, 2, 8, 2, 83, 153, 90, 165, 165, 90, 2, 4.27469
135, 1, bw, attraction, a-b-db, 14, 2, 8, 2, 83, 153, 90, 165, 165, 90, 3, 0.941364
135, 1, bw, attraction, a-b-da, 14, 1, 8, 3, 125, 56, 135, 60, 60, 135, 3, 3.66903
135, 1, bw, attraction, a-b-da, 14, 1, 8, 3, 125, 56, 135, 60, 60, 135, 2, 0.760507
135, 1, bw, attraction, a-b-db, 14, 3, 8, 4, 120, 195, 195, 120, 111, 181, 1, 4.18349
135, 1, bw, attraction, a-b-db, 14, 3, 8, 4, 120, 195, 195, 120, 111, 181, 3, 0.798156
135, 1, bw, filler, NA, 999, 999, 8, 5, 170, 164, 67, 99, 187, 133, 1, 2.23586
135, 1, bw, filler, NA, 999, 999, 8, 5, 170, 164, 67, 99, 187, 133, 2, 0.657159
135, 1, bw, attraction, a-b-db, 2, 3, 8, 6, 119, 193, 120, 195, 195, 120, 2, 4.35614
135, 1, bw, attraction, a-b-db, 2, 3, 8, 6, 119, 193, 120, 195, 195, 120, 3, 0.771431
135, 1, bw, attraction, a-b-da, 5, 3, 8, 7, 195, 120, 190, 117, 120, 195, 3, 1.03445
135, 1, bw, attraction, a-b-da, 5, 3, 8, 7, 195, 120, 190, 117, 120, 195, 2, 0.55218
135, 1, bw, filler, NA, 999, 999, 8, 8, 123, 157, 70, 132, 70, 115, 1, 0.687855
135, 1, bw, filler, NA, 999, 999, 8, 8, 123, 157, 70, 132, 70, 115, 3, 0.675868
135, 1, bw, attraction, a-b-db, 5, 2, 8, 9, 88, 161, 90, 165, 165, 90, 2, 3.27002
135, 1, bw, attraction, a-b-db, 5, 2, 8, 9, 88, 161, 90, 165, 165, 90, 3, 0.689785
135, 1, bw, attraction, a-b-db, 9, 3, 8, 10, 120, 195, 195, 120, 114, 186, 1, 1.28426
135, 1, bw, attraction, a-b-db, 9, 3, 8, 10, 120, 195, 195, 120, 114, 186, 2, 0.983662
135, 1, bw, attraction, a-b-db, 14, 1, 8, 11, 56, 125, 60, 135, 135, 60, 2, 1.102
135, 1, bw, attraction, a-b-db, 14, 1, 8, 11, 56, 125, 60, 135, 135, 60, 3, 2.21698
135, 1, bw, filler, NA, 999, 999, 8, 12, 121, 134, 155, 58, 149, 132, 3, 1.22153
135, 1, bw, filler, NA, 999, 999, 8, 12, 121, 134, 155, 58, 149, 132, 2, 0.683118
135, 1, bw, attraction, a-b-db, 5, 3, 8, 13, 117, 190, 195, 120, 120, 195, 3, 2.44564
135, 1, bw, attraction, a-b-db, 5, 3, 8, 13, 117, 190, 195, 120, 120, 195, 2, 1.90603
135, 1, bw, catch, NA, 999, 999, 8, 14, 123, 132, 113, 82, 161, 154, 3, 1.03535
135, 1, bw, catch, NA, 999, 999, 8, 14, 123, 132, 113, 82, 161, 154, 2, 1.26515
135, 1, bw, attraction, a-b-db, 9, 1, 8, 15, 60, 135, 57, 129, 135, 60, 2, 3.93206
135, 1, bw, attraction, a-b-db, 9, 1, 8, 15, 60, 135, 57, 129, 135, 60, 3, 0.644685
135, 1, bw, attraction, a-b-da, 14, 3, 8, 16, 120, 195, 195, 120, 181, 111, 1, 1.18439
135, 1, bw, attraction, a-b-da, 14, 3, 8, 16, 120, 195, 195, 120, 181, 111, 3, 0.944002
135, 1, bw, attraction, a-b-da, 5, 2, 8, 17, 90, 165, 161, 88, 165, 90, 1, 1.6397
135, 1, bw, attraction, a-b-da, 5, 2, 8, 17, 90, 165, 161, 88, 165, 90, 3, 1.30044
135, 1, bw, attraction, a-b-db, 5, 1, 8, 18, 58, 132, 60, 135, 135, 60, 2, 4.51804
135, 1, bw, attraction, a-b-db, 5, 1, 8, 18, 58, 132, 60, 135, 135, 60, 3, 1.02323
135, 1, bw, attraction, a-b-da, 5, 1, 8, 19, 60, 135, 135, 60, 132, 58, 3, 2.26821
135, 1, bw, attraction, a-b-da, 5, 1, 8, 19, 60, 135, 135, 60, 132, 58, 1, 0.608085
135, 1, bw, attraction, a-b-da, 14, 2, 8, 20, 90, 165, 165, 90, 153, 83, 2, 0.861204
135, 1, bw, attraction, a-b-da, 14, 2, 8, 20, 90, 165, 165, 90, 153, 83, 3, 1.6896
135, 1, bw, catch, NA, 999, 999, 8, 21, 134, 181, 142, 113, 93, 102, 1, 0.995661
135, 1, bw, catch, NA, 999, 999, 8, 21, 134, 181, 142, 113, 93, 102, 3, 0.962684
135, 1, bw, attraction, a-b-da, 2, 3, 8, 22, 120, 195, 193, 119, 195, 120, 1, 2.77766
135, 1, bw, attraction, a-b-da, 2, 3, 8, 22, 120, 195, 193, 119, 195, 120, 3, 0.888784
135, 1, bw, attraction, a-b-da, 9, 2, 8, 23, 165, 90, 90, 165, 157, 86, 2, 1.83519
135, 1, bw, attraction, a-b-da, 9, 2, 8, 23, 165, 90, 90, 165, 157, 86, 3, 2.96056
135, 1, bw, attraction, a-b-da, 2, 2, 8, 24, 163, 89, 90, 165, 165, 90, 2, 2.03094
135, 1, bw, attraction, a-b-da, 2, 2, 8, 24, 163, 89, 90, 165, 165, 90, 1, 1.16418
135, 1, bw, filler, NA, 999, 999, 8, 25, 75, 118, 60, 126, 191, 74, 1, 1.61105
135, 1, bw, filler, NA, 999, 999, 8, 25, 75, 118, 60, 126, 191, 74, 3, 1.37725
135, 1, bw, attraction, a-b-db, 2, 1, 8, 26, 135, 60, 59, 134, 60, 135, 2, 4.86337
135, 1, bw, attraction, a-b-db, 2, 1, 8, 26, 135, 60, 59, 134, 60, 135, 1, 2.05849
135, 1, bw, attraction, a-b-da, 2, 1, 8, 27, 134, 59, 60, 135, 135, 60, 2, 3.39718
135, 1, bw, attraction, a-b-da, 2, 1, 8, 27, 134, 59, 60, 135, 135, 60, 3, 1.68346
135, 1, bw, attraction, a-b-da, 9, 3, 8, 28, 120, 195, 186, 114, 195, 120, 1, 2.29349
135, 1, bw, attraction, a-b-da, 9, 3, 8, 28, 120, 195, 186, 114, 195, 120, 2, 2.3363
135, 1, bw, attraction, a-b-db, 2, 2, 8, 29, 89, 163, 90, 165, 165, 90, 1, 5.10397
135, 1, bw, attraction, a-b-db, 2, 2, 8, 29, 89, 163, 90, 165, 165, 90, 3, 1.07357
135, 1, bw, filler, NA, 999, 999, 8, 30, 122, 111, 76, 135, 177, 92, 1, 1.38791
135, 1, bw, filler, NA, 999, 999, 8, 30, 122, 111, 76, 135, 177, 92, 2, 0.842781
135, 1, bw, attraction, a-b-db, 9, 2, 8, 31, 165, 90, 90, 165, 86, 157, 2, 3.06252
135, 1, bw, attraction, a-b-db, 9, 2, 8, 31, 165, 90, 90, 165, 86, 157, 3, 1.46612
135, 1, bw, catch, NA, 999, 999, 8, 32, 167, 148, 101, 154, 125, 70, 1, 1.101
135, 1, bw, catch, NA, 999, 999, 8, 32, 167, 148, 101, 154, 125, 70, 3, 0.831931
135, 1, bw, filler, NA, 999, 999, 8, 33, 144, 104, 142, 104, 83, 102, 1, 4.55626
135, 1, bw, filler, NA, 999, 999, 8, 33, 144, 104, 142, 104, 83, 102, 3, 1.05144
135, 1, bw, filler, NA, 999, 999, 8, 34, 193, 56, 112, 94, 185, 69, 2, 1.23911
135, 1, bw, filler, NA, 999, 999, 8, 34, 193, 56, 112, 94, 185, 69, 3, 2.28426
135, 1, bw, attraction, a-b-da, 9, 1, 8, 35, 60, 135, 129, 57, 135, 60, 1, 5.06993
135, 1, bw, attraction, a-b-da, 9, 1, 8, 35, 60, 135, 129, 57, 135, 60, 2, 1.45707
135, 1, bw, filler, NA, 999, 999, 8, 36, 194, 162, 109, 127, 95, 120, 1, 0.8599
135, 1, bw, filler, NA, 999, 999, 8, 36, 194, 162, 109, 127, 95, 120, 3, 0.728179
135, 1, bw, filler, NA, 999, 999, 8, 37, 109, 87, 107, 179, 149, 138, 3, 2.16865
135, 1, bw, filler, NA, 999, 999, 8, 37, 109, 87, 107, 179, 149, 138, 1, 1.05654
