sub_n, computer_n, bw_cond, effect, set, distance, diag, block_n, trial_n, h1, w1, h2, w2, h3, w3, choice, rt 
110, 1, wb, practice, NA, 999, 999, 0, 1, 56, 110, 177, 162, 167, 93, 1, 3.37372
110, 1, wb, practice, NA, 999, 999, 0, 1, 56, 110, 177, 162, 167, 93, 2, 2.14292
110, 1, wb, practice, NA, 999, 999, 0, 2, 118, 132, 57, 129, 150, 151, 2, 6.61724
110, 1, wb, practice, NA, 999, 999, 0, 2, 118, 132, 57, 129, 150, 151, 3, 1.93521
110, 1, wb, practice, NA, 999, 999, 0, 3, 159, 182, 64, 79, 75, 97, 2, 2.6608
110, 1, wb, practice, NA, 999, 999, 0, 3, 159, 182, 64, 79, 75, 97, 1, 1.60722
110, 1, wb, filler, NA, 999, 999, 1, 1, 73, 89, 88, 87, 179, 69, 1, 2.30083
110, 1, wb, filler, NA, 999, 999, 1, 1, 73, 89, 88, 87, 179, 69, 3, 1.84753
110, 1, wb, attraction, a-b-db, 9, 3, 1, 2, 195, 120, 120, 195, 114, 186, 3, 13.1468
110, 1, wb, attraction, a-b-db, 9, 3, 1, 2, 195, 120, 120, 195, 114, 186, 2, 2.96004
110, 1, wb, filler, NA, 999, 999, 1, 3, 169, 69, 82, 128, 178, 170, 2, 2.7663
110, 1, wb, filler, NA, 999, 999, 1, 3, 169, 69, 82, 128, 178, 170, 3, 1.49418
110, 1, wb, attraction, a-b-da, 9, 1, 1, 4, 60, 135, 135, 60, 129, 57, 3, 6.61547
110, 1, wb, attraction, a-b-da, 9, 1, 1, 4, 60, 135, 135, 60, 129, 57, 1, 4.2842
110, 1, wb, attraction, a-b-da, 2, 2, 1, 5, 90, 165, 163, 89, 165, 90, 2, 14.3494
110, 1, wb, attraction, a-b-da, 2, 2, 1, 5, 90, 165, 163, 89, 165, 90, 1, 1.37817
110, 1, wb, attraction, a-b-da, 2, 3, 1, 6, 195, 120, 120, 195, 193, 119, 1, 7.17647
110, 1, wb, attraction, a-b-da, 2, 3, 1, 6, 195, 120, 120, 195, 193, 119, 2, 1.53417
110, 1, wb, filler, NA, 999, 999, 1, 7, 145, 62, 92, 77, 76, 114, 2, 7.43036
110, 1, wb, filler, NA, 999, 999, 1, 7, 145, 62, 92, 77, 76, 114, 3, 3.37008
110, 1, wb, attraction, a-b-da, 5, 2, 1, 8, 161, 88, 165, 90, 90, 165, 1, 3.61628
110, 1, wb, attraction, a-b-da, 5, 2, 1, 8, 161, 88, 165, 90, 90, 165, 2, 2.34184
110, 1, wb, attraction, a-b-db, 14, 3, 1, 9, 111, 181, 195, 120, 120, 195, 1, 4.06885
110, 1, wb, attraction, a-b-db, 14, 3, 1, 9, 111, 181, 195, 120, 120, 195, 2, 2.99227
110, 1, wb, attraction, a-b-da, 14, 1, 1, 10, 135, 60, 60, 135, 125, 56, 3, 4.4853
110, 1, wb, attraction, a-b-da, 14, 1, 1, 10, 135, 60, 60, 135, 125, 56, 1, 1.7679
110, 1, wb, filler, NA, 999, 999, 1, 11, 64, 161, 87, 89, 126, 169, 2, 2.31856
110, 1, wb, filler, NA, 999, 999, 1, 11, 64, 161, 87, 89, 126, 169, 3, 1.09649
110, 1, wb, attraction, a-b-db, 14, 1, 1, 12, 135, 60, 56, 125, 60, 135, 2, 3.86613
110, 1, wb, attraction, a-b-db, 14, 1, 1, 12, 135, 60, 56, 125, 60, 135, 1, 2.94949
110, 1, wb, filler, NA, 999, 999, 1, 13, 132, 158, 176, 161, 85, 60, 3, 1.50048
110, 1, wb, filler, NA, 999, 999, 1, 13, 132, 158, 176, 161, 85, 60, 2, 0.767326
110, 1, wb, attraction, a-b-da, 9, 2, 1, 14, 90, 165, 157, 86, 165, 90, 2, 5.27037
110, 1, wb, attraction, a-b-da, 9, 2, 1, 14, 90, 165, 157, 86, 165, 90, 1, 0.929437
110, 1, wb, catch, NA, 999, 999, 1, 15, 92, 163, 181, 134, 67, 128, 3, 2.01765
110, 1, wb, catch, NA, 999, 999, 1, 15, 92, 163, 181, 134, 67, 128, 2, 0.791704
110, 1, wb, attraction, a-b-db, 5, 2, 1, 16, 88, 161, 165, 90, 90, 165, 1, 7.3814
110, 1, wb, attraction, a-b-db, 5, 2, 1, 16, 88, 161, 165, 90, 90, 165, 3, 1.44316
110, 1, wb, attraction, a-b-db, 2, 1, 1, 17, 135, 60, 60, 135, 59, 134, 3, 7.59067
110, 1, wb, attraction, a-b-db, 2, 1, 1, 17, 135, 60, 60, 135, 59, 134, 2, 1.31553
110, 1, wb, attraction, a-b-da, 9, 3, 1, 18, 120, 195, 186, 114, 195, 120, 2, 4.65239
110, 1, wb, attraction, a-b-da, 9, 3, 1, 18, 120, 195, 186, 114, 195, 120, 1, 0.712232
110, 1, wb, attraction, a-b-db, 9, 1, 1, 19, 135, 60, 60, 135, 57, 129, 3, 3.66527
110, 1, wb, attraction, a-b-db, 9, 1, 1, 19, 135, 60, 60, 135, 57, 129, 2, 1.4127
110, 1, wb, attraction, a-b-da, 2, 1, 1, 20, 60, 135, 135, 60, 134, 59, 2, 7.95351
110, 1, wb, attraction, a-b-da, 2, 1, 1, 20, 60, 135, 135, 60, 134, 59, 1, 1.29638
110, 1, wb, filler, NA, 999, 999, 1, 21, 65, 180, 92, 56, 185, 152, 2, 1.13805
110, 1, wb, filler, NA, 999, 999, 1, 21, 65, 180, 92, 56, 185, 152, 3, 0.659595
110, 1, wb, filler, NA, 999, 999, 1, 22, 174, 117, 190, 81, 188, 100, 2, 7.11067
110, 1, wb, filler, NA, 999, 999, 1, 22, 174, 117, 190, 81, 188, 100, 1, 1.735
110, 1, wb, attraction, a-b-db, 9, 2, 1, 23, 90, 165, 86, 157, 165, 90, 2, 7.80723
110, 1, wb, attraction, a-b-db, 9, 2, 1, 23, 90, 165, 86, 157, 165, 90, 1, 2.40331
110, 1, wb, attraction, a-b-db, 5, 3, 1, 24, 120, 195, 195, 120, 117, 190, 2, 13.2325
110, 1, wb, attraction, a-b-db, 5, 3, 1, 24, 120, 195, 195, 120, 117, 190, 1, 1.25841
110, 1, wb, attraction, a-b-da, 5, 3, 1, 25, 190, 117, 195, 120, 120, 195, 1, 2.61334
110, 1, wb, attraction, a-b-da, 5, 3, 1, 25, 190, 117, 195, 120, 120, 195, 3, 0.763018
110, 1, wb, attraction, a-b-da, 14, 3, 1, 26, 120, 195, 181, 111, 195, 120, 2, 3.37016
110, 1, wb, attraction, a-b-da, 14, 3, 1, 26, 120, 195, 181, 111, 195, 120, 3, 1.65758
110, 1, wb, filler, NA, 999, 999, 1, 27, 62, 72, 113, 166, 152, 145, 1, 1.14043
110, 1, wb, filler, NA, 999, 999, 1, 27, 62, 72, 113, 166, 152, 145, 2, 0.725357
110, 1, wb, attraction, a-b-db, 5, 1, 1, 28, 135, 60, 60, 135, 58, 132, 2, 12.7738
110, 1, wb, attraction, a-b-db, 5, 1, 1, 28, 135, 60, 60, 135, 58, 132, 1, 1.25034
110, 1, wb, attraction, a-b-da, 5, 1, 1, 29, 135, 60, 60, 135, 132, 58, 2, 6.84598
110, 1, wb, attraction, a-b-da, 5, 1, 1, 29, 135, 60, 60, 135, 132, 58, 1, 2.11314
110, 1, wb, catch, NA, 999, 999, 1, 30, 132, 63, 157, 98, 188, 127, 1, 1.84978
110, 1, wb, catch, NA, 999, 999, 1, 30, 132, 63, 157, 98, 188, 127, 3, 1.04649
110, 1, wb, attraction, a-b-db, 2, 3, 1, 31, 195, 120, 119, 193, 120, 195, 1, 17.778
110, 1, wb, attraction, a-b-db, 2, 3, 1, 31, 195, 120, 119, 193, 120, 195, 2, 1.29258
110, 1, wb, catch, NA, 999, 999, 1, 32, 131, 64, 169, 146, 106, 149, 1, 1.8061
110, 1, wb, catch, NA, 999, 999, 1, 32, 131, 64, 169, 146, 106, 149, 2, 1.12416
110, 1, wb, attraction, a-b-db, 2, 2, 1, 33, 165, 90, 89, 163, 90, 165, 1, 3.60429
110, 1, wb, attraction, a-b-db, 2, 2, 1, 33, 165, 90, 89, 163, 90, 165, 2, 1.37047
110, 1, wb, attraction, a-b-db, 14, 2, 1, 34, 83, 153, 165, 90, 90, 165, 1, 5.85737
110, 1, wb, attraction, a-b-db, 14, 2, 1, 34, 83, 153, 165, 90, 90, 165, 2, 3.37237
110, 1, wb, attraction, a-b-da, 14, 2, 1, 35, 153, 83, 165, 90, 90, 165, 1, 1.7064
110, 1, wb, attraction, a-b-da, 14, 2, 1, 35, 153, 83, 165, 90, 90, 165, 3, 4.62856
110, 1, wb, filler, NA, 999, 999, 1, 36, 128, 138, 190, 98, 172, 130, 3, 21.3757
110, 1, wb, filler, NA, 999, 999, 1, 36, 128, 138, 190, 98, 172, 130, 2, 0.593628
110, 1, wb, filler, NA, 999, 999, 1, 37, 67, 167, 83, 58, 82, 121, 2, 2.16738
110, 1, wb, filler, NA, 999, 999, 1, 37, 67, 167, 83, 58, 82, 121, 1, 1.34335
110, 1, wb, attraction, a-b-da, 2, 1, 2, 1, 135, 60, 60, 135, 134, 59, 1, 5.3349
110, 1, wb, attraction, a-b-da, 2, 1, 2, 1, 135, 60, 60, 135, 134, 59, 2, 2.29522
110, 1, wb, filler, NA, 999, 999, 2, 2, 64, 102, 65, 62, 56, 94, 3, 4.68049
110, 1, wb, filler, NA, 999, 999, 2, 2, 64, 102, 65, 62, 56, 94, 1, 1.29083
110, 1, wb, filler, NA, 999, 999, 2, 3, 71, 66, 124, 175, 131, 135, 1, 4.53258
110, 1, wb, filler, NA, 999, 999, 2, 3, 71, 66, 124, 175, 131, 135, 2, 1.10906
110, 1, wb, attraction, a-b-db, 2, 1, 2, 4, 135, 60, 60, 135, 59, 134, 3, 3.51808
110, 1, wb, attraction, a-b-db, 2, 1, 2, 4, 135, 60, 60, 135, 59, 134, 2, 2.20744
110, 1, wb, attraction, a-b-da, 2, 3, 2, 5, 120, 195, 193, 119, 195, 120, 3, 8.70013
110, 1, wb, attraction, a-b-da, 2, 3, 2, 5, 120, 195, 193, 119, 195, 120, 2, 0.756708
110, 1, wb, attraction, a-b-da, 14, 3, 2, 6, 120, 195, 181, 111, 195, 120, 2, 2.09169
110, 1, wb, attraction, a-b-da, 14, 3, 2, 6, 120, 195, 181, 111, 195, 120, 1, 2.39035
110, 1, wb, attraction, a-b-da, 5, 1, 2, 7, 135, 60, 132, 58, 60, 135, 1, 3.24419
110, 1, wb, attraction, a-b-da, 5, 1, 2, 7, 135, 60, 132, 58, 60, 135, 3, 1.43259
110, 1, wb, attraction, a-b-da, 9, 1, 2, 8, 129, 57, 135, 60, 60, 135, 1, 1.25266
110, 1, wb, attraction, a-b-da, 9, 1, 2, 8, 129, 57, 135, 60, 60, 135, 3, 1.6176
110, 1, wb, attraction, a-b-da, 2, 2, 2, 9, 165, 90, 90, 165, 163, 89, 2, 3.67037
110, 1, wb, attraction, a-b-da, 2, 2, 2, 9, 165, 90, 90, 165, 163, 89, 3, 0.833781
110, 1, wb, attraction, a-b-db, 5, 2, 2, 10, 165, 90, 88, 161, 90, 165, 1, 5.21424
110, 1, wb, attraction, a-b-db, 5, 2, 2, 10, 165, 90, 88, 161, 90, 165, 3, 0.771227
110, 1, wb, filler, NA, 999, 999, 2, 11, 169, 87, 171, 92, 136, 115, 1, 2.05819
110, 1, wb, filler, NA, 999, 999, 2, 11, 169, 87, 171, 92, 136, 115, 3, 0.750341
110, 1, wb, filler, NA, 999, 999, 2, 12, 109, 126, 98, 156, 104, 154, 1, 7.75788
110, 1, wb, filler, NA, 999, 999, 2, 12, 109, 126, 98, 156, 104, 154, 2, 2.66011
110, 1, wb, filler, NA, 999, 999, 2, 13, 128, 88, 103, 63, 119, 63, 2, 1.91064
110, 1, wb, filler, NA, 999, 999, 2, 13, 128, 88, 103, 63, 119, 63, 1, 0.664576
110, 1, wb, filler, NA, 999, 999, 2, 14, 157, 62, 75, 169, 71, 161, 1, 8.5958
110, 1, wb, filler, NA, 999, 999, 2, 14, 157, 62, 75, 169, 71, 161, 2, 1.2083
110, 1, wb, attraction, a-b-db, 2, 2, 2, 15, 89, 163, 165, 90, 90, 165, 2, 4.24532
110, 1, wb, attraction, a-b-db, 2, 2, 2, 15, 89, 163, 165, 90, 90, 165, 1, 1.18521
110, 1, wb, attraction, a-b-db, 14, 3, 2, 16, 120, 195, 195, 120, 111, 181, 3, 2.9515
110, 1, wb, attraction, a-b-db, 14, 3, 2, 16, 120, 195, 195, 120, 111, 181, 1, 2.3438
110, 1, wb, filler, NA, 999, 999, 2, 17, 106, 181, 184, 105, 151, 142, 2, 5.23104
110, 1, wb, filler, NA, 999, 999, 2, 17, 106, 181, 184, 105, 151, 142, 1, 1.88334
110, 1, wb, filler, NA, 999, 999, 2, 18, 132, 154, 172, 80, 112, 58, 3, 1.05333
110, 1, wb, filler, NA, 999, 999, 2, 18, 132, 154, 172, 80, 112, 58, 2, 6.51439
110, 1, wb, filler, NA, 999, 999, 2, 19, 65, 86, 136, 113, 104, 76, 1, 2.41771
110, 1, wb, filler, NA, 999, 999, 2, 19, 65, 86, 136, 113, 104, 76, 2, 0.495536
110, 1, wb, attraction, a-b-da, 9, 2, 2, 20, 157, 86, 165, 90, 90, 165, 1, 5.85731
110, 1, wb, attraction, a-b-da, 9, 2, 2, 20, 157, 86, 165, 90, 90, 165, 3, 0.820101
110, 1, wb, filler, NA, 999, 999, 2, 21, 80, 85, 106, 184, 134, 60, 3, 5.12113
110, 1, wb, filler, NA, 999, 999, 2, 21, 80, 85, 106, 184, 134, 60, 2, 0.474176
110, 1, wb, catch, NA, 999, 999, 2, 22, 154, 101, 194, 121, 77, 118, 3, 2.74073
110, 1, wb, catch, NA, 999, 999, 2, 22, 154, 101, 194, 121, 77, 118, 2, 0.429074
110, 1, wb, attraction, a-b-da, 14, 2, 2, 23, 153, 83, 90, 165, 165, 90, 1, 3.6736
110, 1, wb, attraction, a-b-da, 14, 2, 2, 23, 153, 83, 90, 165, 165, 90, 2, 0.404453
110, 1, wb, attraction, a-b-db, 14, 2, 2, 24, 83, 153, 165, 90, 90, 165, 2, 6.04225
110, 1, wb, attraction, a-b-db, 14, 2, 2, 24, 83, 153, 165, 90, 90, 165, 3, 0.821709
110, 1, wb, catch, NA, 999, 999, 2, 25, 120, 195, 94, 101, 126, 129, 2, 1.55454
110, 1, wb, catch, NA, 999, 999, 2, 25, 120, 195, 94, 101, 126, 129, 1, 0.755412
110, 1, wb, attraction, a-b-da, 5, 3, 2, 26, 120, 195, 195, 120, 190, 117, 3, 4.47527
110, 1, wb, attraction, a-b-da, 5, 3, 2, 26, 120, 195, 195, 120, 190, 117, 1, 0.685897
110, 1, wb, attraction, a-b-db, 5, 3, 2, 27, 120, 195, 195, 120, 117, 190, 3, 2.15211
110, 1, wb, attraction, a-b-db, 5, 3, 2, 27, 120, 195, 195, 120, 117, 190, 2, 2.79281
110, 1, wb, attraction, a-b-db, 5, 1, 2, 28, 58, 132, 60, 135, 135, 60, 3, 6.54191
110, 1, wb, attraction, a-b-db, 5, 1, 2, 28, 58, 132, 60, 135, 135, 60, 1, 1.43709
110, 1, wb, attraction, a-b-da, 9, 3, 2, 29, 195, 120, 120, 195, 186, 114, 3, 3.11322
110, 1, wb, attraction, a-b-da, 9, 3, 2, 29, 195, 120, 120, 195, 186, 114, 1, 1.3709
110, 1, wb, attraction, a-b-db, 14, 1, 2, 30, 60, 135, 135, 60, 56, 125, 3, 5.29787
110, 1, wb, attraction, a-b-db, 14, 1, 2, 30, 60, 135, 135, 60, 56, 125, 1, 3.87555
110, 1, wb, attraction, a-b-db, 2, 3, 2, 31, 120, 195, 195, 120, 119, 193, 3, 2.14885
110, 1, wb, attraction, a-b-db, 2, 3, 2, 31, 120, 195, 195, 120, 119, 193, 1, 0.533435
110, 1, wb, attraction, a-b-db, 9, 1, 2, 32, 135, 60, 57, 129, 60, 135, 2, 4.3179
110, 1, wb, attraction, a-b-db, 9, 1, 2, 32, 135, 60, 57, 129, 60, 135, 1, 1.34331
110, 1, wb, attraction, a-b-da, 5, 2, 2, 33, 161, 88, 90, 165, 165, 90, 2, 5.31878
110, 1, wb, attraction, a-b-da, 5, 2, 2, 33, 161, 88, 90, 165, 165, 90, 1, 1.2717
110, 1, wb, attraction, a-b-db, 9, 2, 2, 34, 90, 165, 86, 157, 165, 90, 2, 13.7786
110, 1, wb, attraction, a-b-db, 9, 2, 2, 34, 90, 165, 86, 157, 165, 90, 1, 0.566347
110, 1, wb, attraction, a-b-db, 9, 3, 2, 35, 120, 195, 114, 186, 195, 120, 2, 4.4533
110, 1, wb, attraction, a-b-db, 9, 3, 2, 35, 120, 195, 114, 186, 195, 120, 1, 1.23323
110, 1, wb, catch, NA, 999, 999, 2, 36, 161, 154, 99, 156, 119, 76, 3, 1.04548
110, 1, wb, catch, NA, 999, 999, 2, 36, 161, 154, 99, 156, 119, 76, 1, 0.658533
110, 1, wb, attraction, a-b-da, 14, 1, 2, 37, 135, 60, 60, 135, 125, 56, 3, 3.46146
110, 1, wb, attraction, a-b-da, 14, 1, 2, 37, 135, 60, 60, 135, 125, 56, 1, 1.71313
110, 1, wb, attraction, a-b-da, 2, 3, 3, 1, 193, 119, 120, 195, 195, 120, 2, 14.3059
110, 1, wb, attraction, a-b-da, 2, 3, 3, 1, 193, 119, 120, 195, 195, 120, 3, 1.12069
110, 1, wb, filler, NA, 999, 999, 3, 2, 72, 94, 76, 181, 165, 133, 1, 1.10553
110, 1, wb, filler, NA, 999, 999, 3, 2, 72, 94, 76, 181, 165, 133, 3, 0.731934
110, 1, wb, attraction, a-b-db, 5, 3, 3, 3, 195, 120, 120, 195, 117, 190, 1, 8.94019
110, 1, wb, attraction, a-b-db, 5, 3, 3, 3, 195, 120, 120, 195, 117, 190, 2, 0.32336
110, 1, wb, attraction, a-b-db, 2, 2, 3, 4, 89, 163, 90, 165, 165, 90, 2, 7.39603
110, 1, wb, attraction, a-b-db, 2, 2, 3, 4, 89, 163, 90, 165, 165, 90, 3, 1.84899
110, 1, wb, attraction, a-b-db, 9, 2, 3, 5, 86, 157, 90, 165, 165, 90, 1, 3.06055
110, 1, wb, attraction, a-b-db, 9, 2, 3, 5, 86, 157, 90, 165, 165, 90, 3, 0.792083
110, 1, wb, attraction, a-b-da, 14, 2, 3, 6, 90, 165, 165, 90, 153, 83, 3, 3.66971
110, 1, wb, attraction, a-b-da, 14, 2, 3, 6, 90, 165, 165, 90, 153, 83, 1, 0.521178
110, 1, wb, filler, NA, 999, 999, 3, 7, 64, 159, 79, 63, 158, 81, 2, 1.00226
110, 1, wb, filler, NA, 999, 999, 3, 7, 64, 159, 79, 63, 158, 81, 3, 0.865267
110, 1, wb, attraction, a-b-db, 2, 3, 3, 8, 195, 120, 120, 195, 119, 193, 2, 3.48419
110, 1, wb, attraction, a-b-db, 2, 3, 3, 8, 195, 120, 120, 195, 119, 193, 1, 4.87923
110, 1, wb, attraction, a-b-db, 2, 1, 3, 9, 60, 135, 135, 60, 59, 134, 1, 2.24821
110, 1, wb, attraction, a-b-db, 2, 1, 3, 9, 60, 135, 135, 60, 59, 134, 2, 1.86886
110, 1, wb, filler, NA, 999, 999, 3, 10, 177, 113, 186, 60, 66, 158, 3, 3.66365
110, 1, wb, filler, NA, 999, 999, 3, 10, 177, 113, 186, 60, 66, 158, 1, 1.28311
110, 1, wb, filler, NA, 999, 999, 3, 11, 145, 153, 166, 190, 106, 155, 3, 2.16523
110, 1, wb, filler, NA, 999, 999, 3, 11, 145, 153, 166, 190, 106, 155, 2, 0.901249
110, 1, wb, attraction, a-b-da, 5, 2, 3, 12, 165, 90, 161, 88, 90, 165, 3, 6.03892
110, 1, wb, attraction, a-b-da, 5, 2, 3, 12, 165, 90, 161, 88, 90, 165, 2, 0.578978
110, 1, wb, attraction, a-b-da, 9, 2, 3, 13, 157, 86, 90, 165, 165, 90, 2, 3.36937
110, 1, wb, attraction, a-b-da, 9, 2, 3, 13, 157, 86, 90, 165, 165, 90, 3, 0.760911
110, 1, wb, attraction, a-b-da, 14, 1, 3, 14, 60, 135, 135, 60, 125, 56, 1, 4.93618
110, 1, wb, attraction, a-b-da, 14, 1, 3, 14, 60, 135, 135, 60, 125, 56, 2, 0.568431
110, 1, wb, catch, NA, 999, 999, 3, 15, 176, 139, 114, 81, 163, 92, 2, 1.03953
110, 1, wb, catch, NA, 999, 999, 3, 15, 176, 139, 114, 81, 163, 92, 1, 0.780597
110, 1, wb, filler, NA, 999, 999, 3, 16, 89, 171, 139, 110, 180, 174, 2, 2.37098
110, 1, wb, filler, NA, 999, 999, 3, 16, 89, 171, 139, 110, 180, 174, 3, 0.850804
110, 1, wb, attraction, a-b-db, 5, 2, 3, 17, 88, 161, 90, 165, 165, 90, 3, 4.86241
110, 1, wb, attraction, a-b-db, 5, 2, 3, 17, 88, 161, 90, 165, 165, 90, 2, 0.849517
110, 1, wb, filler, NA, 999, 999, 3, 18, 74, 150, 129, 120, 125, 72, 3, 1.71732
110, 1, wb, filler, NA, 999, 999, 3, 18, 74, 150, 129, 120, 125, 72, 2, 0.51144
110, 1, wb, attraction, a-b-db, 14, 2, 3, 19, 90, 165, 83, 153, 165, 90, 2, 3.90444
110, 1, wb, attraction, a-b-db, 14, 2, 3, 19, 90, 165, 83, 153, 165, 90, 3, 0.802653
110, 1, wb, filler, NA, 999, 999, 3, 20, 130, 132, 189, 60, 184, 105, 2, 5.15223
110, 1, wb, filler, NA, 999, 999, 3, 20, 130, 132, 189, 60, 184, 105, 3, 0.808007
110, 1, wb, attraction, a-b-da, 2, 2, 3, 21, 163, 89, 90, 165, 165, 90, 1, 5.18915
110, 1, wb, attraction, a-b-da, 2, 2, 3, 21, 163, 89, 90, 165, 165, 90, 2, 0.53867
110, 1, wb, attraction, a-b-db, 9, 3, 3, 22, 114, 186, 195, 120, 120, 195, 2, 3.16313
110, 1, wb, attraction, a-b-db, 9, 3, 3, 22, 114, 186, 195, 120, 120, 195, 3, 0.506683
110, 1, wb, attraction, a-b-da, 9, 3, 3, 23, 195, 120, 120, 195, 186, 114, 3, 1.53194
110, 1, wb, attraction, a-b-da, 9, 3, 3, 23, 195, 120, 120, 195, 186, 114, 2, 0.765443
110, 1, wb, catch, NA, 999, 999, 3, 24, 130, 65, 127, 128, 146, 169, 1, 1.1005
110, 1, wb, catch, NA, 999, 999, 3, 24, 130, 65, 127, 128, 146, 169, 3, 0.479387
110, 1, wb, attraction, a-b-da, 14, 3, 3, 25, 195, 120, 120, 195, 181, 111, 3, 5.10588
110, 1, wb, attraction, a-b-da, 14, 3, 3, 25, 195, 120, 120, 195, 181, 111, 1, 0.84286
110, 1, wb, attraction, a-b-db, 14, 3, 3, 26, 195, 120, 120, 195, 111, 181, 1, 2.00652
110, 1, wb, attraction, a-b-db, 14, 3, 3, 26, 195, 120, 120, 195, 111, 181, 2, 0.444541
110, 1, wb, attraction, a-b-db, 5, 1, 3, 27, 58, 132, 60, 135, 135, 60, 1, 2.50445
110, 1, wb, attraction, a-b-db, 5, 1, 3, 27, 58, 132, 60, 135, 135, 60, 3, 1.09087
110, 1, wb, filler, NA, 999, 999, 3, 28, 104, 194, 190, 121, 95, 157, 3, 1.51655
110, 1, wb, filler, NA, 999, 999, 3, 28, 104, 194, 190, 121, 95, 157, 2, 0.454569
110, 1, wb, attraction, a-b-da, 9, 1, 3, 29, 129, 57, 135, 60, 60, 135, 3, 1.81848
110, 1, wb, attraction, a-b-da, 9, 1, 3, 29, 129, 57, 135, 60, 60, 135, 1, 2.53662
110, 1, wb, attraction, a-b-db, 9, 1, 3, 30, 135, 60, 57, 129, 60, 135, 3, 4.92046
110, 1, wb, attraction, a-b-db, 9, 1, 3, 30, 135, 60, 57, 129, 60, 135, 1, 0.769468
110, 1, wb, filler, NA, 999, 999, 3, 31, 56, 186, 160, 141, 81, 61, 3, 1.08054
110, 1, wb, filler, NA, 999, 999, 3, 31, 56, 186, 160, 141, 81, 61, 2, 0.444231
110, 1, wb, attraction, a-b-da, 5, 1, 3, 32, 60, 135, 132, 58, 135, 60, 2, 3.3679
110, 1, wb, attraction, a-b-da, 5, 1, 3, 32, 60, 135, 132, 58, 135, 60, 3, 0.879504
110, 1, wb, attraction, a-b-da, 2, 1, 3, 33, 60, 135, 134, 59, 135, 60, 2, 2.3698
110, 1, wb, attraction, a-b-da, 2, 1, 3, 33, 60, 135, 134, 59, 135, 60, 3, 0.625797
110, 1, wb, attraction, a-b-db, 14, 1, 3, 34, 56, 125, 135, 60, 60, 135, 1, 0.998092
110, 1, wb, attraction, a-b-db, 14, 1, 3, 34, 56, 125, 135, 60, 60, 135, 2, 0.589095
110, 1, wb, attraction, a-b-da, 5, 3, 3, 35, 195, 120, 190, 117, 120, 195, 2, 4.29154
110, 1, wb, attraction, a-b-da, 5, 3, 3, 35, 195, 120, 190, 117, 120, 195, 3, 0.581548
110, 1, wb, filler, NA, 999, 999, 3, 36, 77, 79, 139, 155, 178, 139, 1, 0.740129
110, 1, wb, filler, NA, 999, 999, 3, 36, 77, 79, 139, 155, 178, 139, 3, 1.4131
110, 1, wb, catch, NA, 999, 999, 3, 37, 103, 152, 171, 144, 63, 132, 3, 1.30597
110, 1, wb, catch, NA, 999, 999, 3, 37, 103, 152, 171, 144, 63, 132, 2, 0.460185
110, 1, wb, attraction, a-b-db, 14, 2, 4, 1, 90, 165, 83, 153, 165, 90, 3, 2.39918
110, 1, wb, attraction, a-b-db, 14, 2, 4, 1, 90, 165, 83, 153, 165, 90, 1, 0.725731
110, 1, wb, filler, NA, 999, 999, 4, 2, 167, 186, 145, 156, 191, 60, 3, 4.51014
110, 1, wb, filler, NA, 999, 999, 4, 2, 167, 186, 145, 156, 191, 60, 1, 0.583411
110, 1, wb, attraction, a-b-db, 2, 1, 4, 3, 60, 135, 59, 134, 135, 60, 2, 1.89382
110, 1, wb, attraction, a-b-db, 2, 1, 4, 3, 60, 135, 59, 134, 135, 60, 3, 0.864578
110, 1, wb, attraction, a-b-da, 9, 3, 4, 4, 120, 195, 195, 120, 186, 114, 1, 2.76352
110, 1, wb, attraction, a-b-da, 9, 3, 4, 4, 120, 195, 195, 120, 186, 114, 2, 0.611315
110, 1, wb, attraction, a-b-da, 5, 1, 4, 5, 135, 60, 60, 135, 132, 58, 3, 1.20846
110, 1, wb, attraction, a-b-da, 5, 1, 4, 5, 135, 60, 60, 135, 132, 58, 1, 2.0146
110, 1, wb, filler, NA, 999, 999, 4, 6, 185, 61, 171, 141, 66, 179, 3, 3.32342
110, 1, wb, filler, NA, 999, 999, 4, 6, 185, 61, 171, 141, 66, 179, 2, 0.540241
110, 1, wb, filler, NA, 999, 999, 4, 7, 173, 153, 131, 152, 95, 83, 3, 0.763953
110, 1, wb, filler, NA, 999, 999, 4, 7, 173, 153, 131, 152, 95, 83, 1, 0.564558
110, 1, wb, attraction, a-b-db, 2, 2, 4, 8, 90, 165, 89, 163, 165, 90, 1, 3.33143
110, 1, wb, attraction, a-b-db, 2, 2, 4, 8, 90, 165, 89, 163, 165, 90, 3, 0.756398
110, 1, wb, attraction, a-b-da, 5, 2, 4, 9, 161, 88, 165, 90, 90, 165, 3, 1.83614
110, 1, wb, attraction, a-b-da, 5, 2, 4, 9, 161, 88, 165, 90, 90, 165, 1, 0.921503
110, 1, wb, catch, NA, 999, 999, 4, 10, 112, 83, 148, 167, 103, 152, 1, 0.914437
110, 1, wb, catch, NA, 999, 999, 4, 10, 112, 83, 148, 167, 103, 152, 2, 0.420913
110, 1, wb, filler, NA, 999, 999, 4, 11, 156, 87, 165, 188, 164, 167, 1, 1.378
110, 1, wb, filler, NA, 999, 999, 4, 11, 156, 87, 165, 188, 164, 167, 2, 0.665553
110, 1, wb, attraction, a-b-db, 5, 1, 4, 12, 135, 60, 58, 132, 60, 135, 2, 2.05262
110, 1, wb, attraction, a-b-db, 5, 1, 4, 12, 135, 60, 58, 132, 60, 135, 1, 0.50532
110, 1, wb, catch, NA, 999, 999, 4, 13, 127, 188, 90, 105, 165, 90, 2, 1.51518
110, 1, wb, catch, NA, 999, 999, 4, 13, 127, 188, 90, 105, 165, 90, 1, 0.581331
110, 1, wb, attraction, a-b-db, 5, 2, 4, 14, 88, 161, 90, 165, 165, 90, 2, 3.29979
110, 1, wb, attraction, a-b-db, 5, 2, 4, 14, 88, 161, 90, 165, 165, 90, 3, 0.878108
110, 1, wb, filler, NA, 999, 999, 4, 15, 111, 78, 102, 89, 188, 93, 2, 4.60835
110, 1, wb, filler, NA, 999, 999, 4, 15, 111, 78, 102, 89, 188, 93, 3, 0.60556
110, 1, wb, attraction, a-b-da, 14, 3, 4, 16, 120, 195, 181, 111, 195, 120, 1, 3.53126
110, 1, wb, attraction, a-b-da, 14, 3, 4, 16, 120, 195, 181, 111, 195, 120, 2, 0.396082
110, 1, wb, filler, NA, 999, 999, 4, 17, 194, 173, 73, 91, 69, 189, 2, 0.858011
110, 1, wb, filler, NA, 999, 999, 4, 17, 194, 173, 73, 91, 69, 189, 1, 0.390255
110, 1, wb, attraction, a-b-db, 9, 1, 4, 18, 60, 135, 57, 129, 135, 60, 2, 4.55626
110, 1, wb, attraction, a-b-db, 9, 1, 4, 18, 60, 135, 57, 129, 135, 60, 3, 1.33932
110, 1, wb, catch, NA, 999, 999, 4, 19, 132, 183, 99, 156, 110, 85, 3, 1.07546
110, 1, wb, catch, NA, 999, 999, 4, 19, 132, 183, 99, 156, 110, 85, 1, 0.583141
110, 1, wb, attraction, a-b-db, 14, 1, 4, 20, 135, 60, 60, 135, 56, 125, 2, 1.86176
110, 1, wb, attraction, a-b-db, 14, 1, 4, 20, 135, 60, 60, 135, 56, 125, 1, 0.713764
110, 1, wb, attraction, a-b-db, 14, 3, 4, 21, 111, 181, 120, 195, 195, 120, 1, 9.66685
110, 1, wb, attraction, a-b-db, 14, 3, 4, 21, 111, 181, 120, 195, 195, 120, 2, 0.332318
110, 1, wb, attraction, a-b-da, 5, 3, 4, 22, 195, 120, 190, 117, 120, 195, 3, 4.11682
110, 1, wb, attraction, a-b-da, 5, 3, 4, 22, 195, 120, 190, 117, 120, 195, 2, 0.446242
110, 1, wb, attraction, a-b-db, 9, 3, 4, 23, 120, 195, 114, 186, 195, 120, 3, 2.10601
110, 1, wb, attraction, a-b-db, 9, 3, 4, 23, 120, 195, 114, 186, 195, 120, 1, 1.09192
110, 1, wb, attraction, a-b-da, 9, 2, 4, 24, 90, 165, 157, 86, 165, 90, 1, 1.40555
110, 1, wb, attraction, a-b-da, 9, 2, 4, 24, 90, 165, 157, 86, 165, 90, 2, 0.427764
110, 1, wb, filler, NA, 999, 999, 4, 25, 101, 141, 61, 69, 95, 154, 2, 0.792287
110, 1, wb, filler, NA, 999, 999, 4, 25, 101, 141, 61, 69, 95, 154, 1, 0.831298
110, 1, wb, attraction, a-b-db, 5, 3, 4, 26, 117, 190, 120, 195, 195, 120, 1, 2.01161
110, 1, wb, attraction, a-b-db, 5, 3, 4, 26, 117, 190, 120, 195, 195, 120, 2, 0.953755
110, 1, wb, attraction, a-b-da, 14, 2, 4, 27, 90, 165, 153, 83, 165, 90, 2, 1.68132
110, 1, wb, attraction, a-b-da, 14, 2, 4, 27, 90, 165, 153, 83, 165, 90, 1, 0.420784
110, 1, wb, attraction, a-b-db, 2, 3, 4, 28, 119, 193, 120, 195, 195, 120, 3, 2.24992
110, 1, wb, attraction, a-b-db, 2, 3, 4, 28, 119, 193, 120, 195, 195, 120, 1, 1.00669
110, 1, wb, attraction, a-b-da, 14, 1, 4, 29, 60, 135, 125, 56, 135, 60, 1, 1.45951
110, 1, wb, attraction, a-b-da, 14, 1, 4, 29, 60, 135, 125, 56, 135, 60, 3, 0.567703
110, 1, wb, attraction, a-b-da, 2, 2, 4, 30, 163, 89, 165, 90, 90, 165, 1, 1.28672
110, 1, wb, attraction, a-b-da, 2, 2, 4, 30, 163, 89, 165, 90, 90, 165, 3, 0.51429
110, 1, wb, attraction, a-b-da, 2, 3, 4, 31, 120, 195, 193, 119, 195, 120, 2, 1.3555
110, 1, wb, attraction, a-b-da, 2, 3, 4, 31, 120, 195, 193, 119, 195, 120, 1, 0.38766
110, 1, wb, filler, NA, 999, 999, 4, 32, 180, 70, 162, 61, 58, 89, 3, 0.906187
110, 1, wb, filler, NA, 999, 999, 4, 32, 180, 70, 162, 61, 58, 89, 1, 0.46843
110, 1, wb, attraction, a-b-db, 9, 2, 4, 33, 90, 165, 86, 157, 165, 90, 2, 0.927675
110, 1, wb, attraction, a-b-db, 9, 2, 4, 33, 90, 165, 86, 157, 165, 90, 3, 0.489279
110, 1, wb, filler, NA, 999, 999, 4, 34, 97, 56, 68, 71, 152, 189, 2, 1.18779
110, 1, wb, filler, NA, 999, 999, 4, 34, 97, 56, 68, 71, 152, 189, 3, 0.403342
110, 1, wb, attraction, a-b-da, 2, 1, 4, 35, 135, 60, 60, 135, 134, 59, 2, 1.39321
110, 1, wb, attraction, a-b-da, 2, 1, 4, 35, 135, 60, 60, 135, 134, 59, 1, 0.407976
110, 1, wb, filler, NA, 999, 999, 4, 36, 110, 65, 165, 164, 178, 130, 1, 1.01335
110, 1, wb, filler, NA, 999, 999, 4, 36, 110, 65, 165, 164, 178, 130, 2, 0.763667
110, 1, wb, attraction, a-b-da, 9, 1, 4, 37, 135, 60, 129, 57, 60, 135, 2, 1.99447
110, 1, wb, attraction, a-b-da, 9, 1, 4, 37, 135, 60, 129, 57, 60, 135, 3, 0.561202
110, 1, wb, attraction, a-b-db, 2, 1, 5, 1, 59, 134, 135, 60, 60, 135, 1, 8.41487
110, 1, wb, attraction, a-b-db, 2, 1, 5, 1, 59, 134, 135, 60, 60, 135, 2, 0.899043
110, 1, wb, attraction, a-b-da, 5, 1, 5, 2, 132, 58, 135, 60, 60, 135, 1, 1.3166
110, 1, wb, attraction, a-b-da, 5, 1, 5, 2, 132, 58, 135, 60, 60, 135, 3, 0.718929
110, 1, wb, attraction, a-b-db, 5, 1, 5, 3, 60, 135, 135, 60, 58, 132, 1, 1.27996
110, 1, wb, attraction, a-b-db, 5, 1, 5, 3, 60, 135, 135, 60, 58, 132, 2, 0.563421
110, 1, wb, filler, NA, 999, 999, 5, 4, 156, 157, 194, 131, 147, 187, 1, 0.930621
110, 1, wb, filler, NA, 999, 999, 5, 4, 156, 157, 194, 131, 147, 187, 2, 0.412358
110, 1, wb, attraction, a-b-db, 14, 1, 5, 5, 56, 125, 60, 135, 135, 60, 1, 0.905353
110, 1, wb, attraction, a-b-db, 14, 1, 5, 5, 56, 125, 60, 135, 135, 60, 2, 0.515715
110, 1, wb, filler, NA, 999, 999, 5, 6, 136, 113, 160, 90, 181, 171, 1, 1.17283
110, 1, wb, filler, NA, 999, 999, 5, 6, 136, 113, 160, 90, 181, 171, 3, 0.300496
110, 1, wb, attraction, a-b-db, 5, 2, 5, 7, 165, 90, 88, 161, 90, 165, 2, 1.59845
110, 1, wb, attraction, a-b-db, 5, 2, 5, 7, 165, 90, 88, 161, 90, 165, 1, 0.381135
110, 1, wb, attraction, a-b-db, 2, 2, 5, 8, 165, 90, 90, 165, 89, 163, 3, 1.05965
110, 1, wb, attraction, a-b-db, 2, 2, 5, 8, 165, 90, 90, 165, 89, 163, 1, 0.631967
110, 1, wb, filler, NA, 999, 999, 5, 9, 161, 166, 189, 178, 75, 84, 3, 0.804286
110, 1, wb, filler, NA, 999, 999, 5, 9, 161, 166, 189, 178, 75, 84, 2, 0.339411
110, 1, wb, attraction, a-b-da, 2, 3, 5, 10, 120, 195, 193, 119, 195, 120, 2, 1.16386
110, 1, wb, attraction, a-b-da, 2, 3, 5, 10, 120, 195, 193, 119, 195, 120, 3, 0.300213
110, 1, wb, attraction, a-b-db, 14, 3, 5, 11, 111, 181, 120, 195, 195, 120, 1, 1.25416
110, 1, wb, attraction, a-b-db, 14, 3, 5, 11, 111, 181, 120, 195, 195, 120, 2, 0.475117
110, 1, wb, attraction, a-b-da, 2, 1, 5, 12, 60, 135, 134, 59, 135, 60, 2, 1.90154
110, 1, wb, attraction, a-b-da, 2, 1, 5, 12, 60, 135, 134, 59, 135, 60, 1, 1.0162
110, 1, wb, catch, NA, 999, 999, 5, 13, 142, 173, 151, 104, 64, 131, 3, 0.893106
110, 1, wb, catch, NA, 999, 999, 5, 13, 142, 173, 151, 104, 64, 131, 1, 0.432074
110, 1, wb, filler, NA, 999, 999, 5, 14, 111, 97, 116, 179, 167, 112, 1, 0.996575
110, 1, wb, filler, NA, 999, 999, 5, 14, 111, 97, 116, 179, 167, 112, 2, 0.467614
110, 1, wb, catch, NA, 999, 999, 5, 15, 94, 101, 126, 189, 118, 137, 1, 0.846682
110, 1, wb, catch, NA, 999, 999, 5, 15, 94, 101, 126, 189, 118, 137, 2, 0.499729
110, 1, wb, attraction, a-b-da, 14, 2, 5, 16, 153, 83, 90, 165, 165, 90, 2, 5.94159
110, 1, wb, attraction, a-b-da, 14, 2, 5, 16, 153, 83, 90, 165, 165, 90, 3, 1.02898
110, 1, wb, catch, NA, 999, 999, 5, 17, 112, 83, 94, 161, 158, 157, 1, 0.761322
110, 1, wb, catch, NA, 999, 999, 5, 17, 112, 83, 94, 161, 158, 157, 3, 0.521786
110, 1, wb, attraction, a-b-da, 9, 2, 5, 18, 165, 90, 157, 86, 90, 165, 3, 1.74675
110, 1, wb, attraction, a-b-da, 9, 2, 5, 18, 165, 90, 157, 86, 90, 165, 1, 0.427577
110, 1, wb, attraction, a-b-db, 14, 2, 5, 19, 83, 153, 90, 165, 165, 90, 2, 1.32795
110, 1, wb, attraction, a-b-db, 14, 2, 5, 19, 83, 153, 90, 165, 165, 90, 3, 0.497597
110, 1, wb, attraction, a-b-db, 5, 3, 5, 20, 120, 195, 117, 190, 195, 120, 1, 1.61929
110, 1, wb, attraction, a-b-db, 5, 3, 5, 20, 120, 195, 117, 190, 195, 120, 3, 0.633456
110, 1, wb, attraction, a-b-da, 5, 2, 5, 21, 165, 90, 90, 165, 161, 88, 2, 1.718
110, 1, wb, attraction, a-b-da, 5, 2, 5, 21, 165, 90, 90, 165, 161, 88, 1, 0.712002
110, 1, wb, filler, NA, 999, 999, 5, 22, 101, 189, 88, 60, 129, 157, 2, 0.59307
110, 1, wb, filler, NA, 999, 999, 5, 22, 101, 189, 88, 60, 129, 157, 1, 1.39233
110, 1, wb, attraction, a-b-da, 14, 1, 5, 23, 135, 60, 125, 56, 60, 135, 2, 1.80569
110, 1, wb, attraction, a-b-da, 14, 1, 5, 23, 135, 60, 125, 56, 60, 135, 1, 0.603703
110, 1, wb, attraction, a-b-da, 14, 3, 5, 24, 195, 120, 120, 195, 181, 111, 2, 3.19351
110, 1, wb, attraction, a-b-da, 14, 3, 5, 24, 195, 120, 120, 195, 181, 111, 1, 0.391835
110, 1, wb, attraction, a-b-da, 9, 3, 5, 25, 120, 195, 195, 120, 186, 114, 1, 1.11764
110, 1, wb, attraction, a-b-da, 9, 3, 5, 25, 120, 195, 195, 120, 186, 114, 2, 0.53599
110, 1, wb, attraction, a-b-da, 5, 3, 5, 26, 195, 120, 120, 195, 190, 117, 2, 1.28838
110, 1, wb, attraction, a-b-da, 5, 3, 5, 26, 195, 120, 120, 195, 190, 117, 1, 0.80321
110, 1, wb, filler, NA, 999, 999, 5, 27, 67, 166, 63, 116, 85, 151, 2, 0.832894
110, 1, wb, filler, NA, 999, 999, 5, 27, 67, 166, 63, 116, 85, 151, 3, 0.374635
110, 1, wb, filler, NA, 999, 999, 5, 28, 190, 187, 154, 135, 74, 89, 3, 0.717203
110, 1, wb, filler, NA, 999, 999, 5, 28, 190, 187, 154, 135, 74, 89, 1, 0.375577
110, 1, wb, attraction, a-b-da, 2, 2, 5, 29, 163, 89, 165, 90, 90, 165, 1, 2.28614
110, 1, wb, attraction, a-b-da, 2, 2, 5, 29, 163, 89, 165, 90, 90, 165, 3, 0.465279
110, 1, wb, filler, NA, 999, 999, 5, 30, 112, 104, 151, 114, 164, 74, 1, 1.29247
110, 1, wb, filler, NA, 999, 999, 5, 30, 112, 104, 151, 114, 164, 74, 2, 0.471456
110, 1, wb, filler, NA, 999, 999, 5, 31, 71, 137, 101, 57, 73, 89, 2, 0.8265
110, 1, wb, filler, NA, 999, 999, 5, 31, 71, 137, 101, 57, 73, 89, 1, 0.608228
110, 1, wb, attraction, a-b-db, 2, 3, 5, 32, 195, 120, 120, 195, 119, 193, 2, 1.73341
110, 1, wb, attraction, a-b-db, 2, 3, 5, 32, 195, 120, 120, 195, 119, 193, 1, 0.358755
110, 1, wb, attraction, a-b-db, 9, 3, 5, 33, 195, 120, 120, 195, 114, 186, 3, 1.57394
110, 1, wb, attraction, a-b-db, 9, 3, 5, 33, 195, 120, 120, 195, 114, 186, 1, 0.477374
110, 1, wb, attraction, a-b-da, 9, 1, 5, 34, 135, 60, 60, 135, 129, 57, 2, 1.55181
110, 1, wb, attraction, a-b-da, 9, 1, 5, 34, 135, 60, 60, 135, 129, 57, 1, 0.568937
110, 1, wb, filler, NA, 999, 999, 5, 35, 88, 158, 174, 91, 63, 148, 3, 0.879769
110, 1, wb, filler, NA, 999, 999, 5, 35, 88, 158, 174, 91, 63, 148, 2, 0.411413
110, 1, wb, attraction, a-b-db, 9, 2, 5, 36, 90, 165, 165, 90, 86, 157, 1, 1.24854
110, 1, wb, attraction, a-b-db, 9, 2, 5, 36, 90, 165, 165, 90, 86, 157, 2, 0.421488
110, 1, wb, attraction, a-b-db, 9, 1, 5, 37, 57, 129, 60, 135, 135, 60, 1, 1.66674
110, 1, wb, attraction, a-b-db, 9, 1, 5, 37, 57, 129, 60, 135, 135, 60, 2, 0.550792
110, 1, wb, filler, NA, 999, 999, 6, 1, 162, 65, 158, 64, 146, 90, 1, 0.878679
110, 1, wb, filler, NA, 999, 999, 6, 1, 162, 65, 158, 64, 146, 90, 3, 0.730227
110, 1, wb, filler, NA, 999, 999, 6, 2, 154, 88, 153, 68, 88, 125, 3, 1.15467
110, 1, wb, filler, NA, 999, 999, 6, 2, 154, 88, 153, 68, 88, 125, 1, 0.538984
110, 1, wb, filler, NA, 999, 999, 6, 3, 173, 86, 151, 132, 117, 92, 3, 0.867412
110, 1, wb, filler, NA, 999, 999, 6, 3, 173, 86, 151, 132, 117, 92, 2, 0.375771
110, 1, wb, attraction, a-b-da, 9, 1, 6, 4, 129, 57, 60, 135, 135, 60, 2, 1.36614
110, 1, wb, attraction, a-b-da, 9, 1, 6, 4, 129, 57, 60, 135, 135, 60, 3, 1.39853
110, 1, wb, filler, NA, 999, 999, 6, 5, 172, 135, 99, 187, 138, 111, 3, 1.50801
110, 1, wb, filler, NA, 999, 999, 6, 5, 172, 135, 99, 187, 138, 111, 1, 0.446063
110, 1, wb, attraction, a-b-db, 14, 1, 6, 6, 135, 60, 60, 135, 56, 125, 3, 1.18599
110, 1, wb, attraction, a-b-db, 14, 1, 6, 6, 135, 60, 60, 135, 56, 125, 1, 0.673517
110, 1, wb, attraction, a-b-da, 2, 2, 6, 7, 90, 165, 165, 90, 163, 89, 3, 1.97994
110, 1, wb, attraction, a-b-da, 2, 2, 6, 7, 90, 165, 165, 90, 163, 89, 2, 0.47524
110, 1, wb, catch, NA, 999, 999, 6, 8, 106, 89, 163, 152, 135, 120, 1, 0.709769
110, 1, wb, catch, NA, 999, 999, 6, 8, 106, 89, 163, 152, 135, 120, 2, 0.54424
110, 1, wb, attraction, a-b-da, 5, 3, 6, 9, 195, 120, 190, 117, 120, 195, 3, 1.61599
110, 1, wb, attraction, a-b-da, 5, 3, 6, 9, 195, 120, 190, 117, 120, 195, 1, 0.782096
110, 1, wb, attraction, a-b-db, 14, 2, 6, 10, 90, 165, 165, 90, 83, 153, 2, 1.82837
110, 1, wb, attraction, a-b-db, 14, 2, 6, 10, 90, 165, 165, 90, 83, 153, 3, 0.977964
110, 1, wb, attraction, a-b-da, 14, 3, 6, 11, 120, 195, 195, 120, 181, 111, 3, 2.72016
110, 1, wb, attraction, a-b-da, 14, 3, 6, 11, 120, 195, 195, 120, 181, 111, 2, 0.498027
110, 1, wb, filler, NA, 999, 999, 6, 12, 94, 124, 100, 144, 92, 164, 1, 0.891674
110, 1, wb, filler, NA, 999, 999, 6, 12, 94, 124, 100, 144, 92, 164, 2, 0.550708
110, 1, wb, attraction, a-b-da, 9, 2, 6, 13, 90, 165, 165, 90, 157, 86, 3, 3.15045
110, 1, wb, attraction, a-b-da, 9, 2, 6, 13, 90, 165, 165, 90, 157, 86, 1, 0.758737
110, 1, wb, attraction, a-b-db, 14, 3, 6, 14, 111, 181, 120, 195, 195, 120, 1, 2.24591
110, 1, wb, attraction, a-b-db, 14, 3, 6, 14, 111, 181, 120, 195, 195, 120, 3, 0.834434
110, 1, wb, attraction, a-b-da, 5, 2, 6, 15, 90, 165, 165, 90, 161, 88, 3, 3.59092
110, 1, wb, attraction, a-b-da, 5, 2, 6, 15, 90, 165, 165, 90, 161, 88, 2, 0.484978
110, 1, wb, filler, NA, 999, 999, 6, 16, 73, 113, 124, 68, 79, 85, 3, 2.61538
110, 1, wb, filler, NA, 999, 999, 6, 16, 73, 113, 124, 68, 79, 85, 1, 0.797309
110, 1, wb, attraction, a-b-db, 9, 2, 6, 17, 86, 157, 90, 165, 165, 90, 2, 5.53895
110, 1, wb, attraction, a-b-db, 9, 2, 6, 17, 86, 157, 90, 165, 165, 90, 3, 0.434512
110, 1, wb, catch, NA, 999, 999, 6, 18, 182, 133, 102, 93, 119, 136, 2, 0.871029
110, 1, wb, catch, NA, 999, 999, 6, 18, 182, 133, 102, 93, 119, 136, 1, 0.403367
110, 1, wb, attraction, a-b-db, 9, 3, 6, 19, 120, 195, 114, 186, 195, 120, 1, 10.5932
110, 1, wb, attraction, a-b-db, 9, 3, 6, 19, 120, 195, 114, 186, 195, 120, 2, 0.613127
110, 1, wb, attraction, a-b-db, 5, 3, 6, 20, 195, 120, 117, 190, 120, 195, 2, 1.65819
110, 1, wb, attraction, a-b-db, 5, 3, 6, 20, 195, 120, 117, 190, 120, 195, 3, 0.766437
110, 1, wb, attraction, a-b-da, 14, 2, 6, 21, 153, 83, 90, 165, 165, 90, 1, 0.693552
110, 1, wb, attraction, a-b-da, 14, 2, 6, 21, 153, 83, 90, 165, 165, 90, 3, 1.21656
110, 1, wb, attraction, a-b-db, 2, 1, 6, 22, 60, 135, 135, 60, 59, 134, 1, 1.06935
110, 1, wb, attraction, a-b-db, 2, 1, 6, 22, 60, 135, 135, 60, 59, 134, 2, 0.713724
110, 1, wb, filler, NA, 999, 999, 6, 23, 140, 121, 178, 162, 59, 76, 3, 1.06674
110, 1, wb, filler, NA, 999, 999, 6, 23, 140, 121, 178, 162, 59, 76, 2, 0.3991
110, 1, wb, attraction, a-b-da, 2, 3, 6, 24, 120, 195, 193, 119, 195, 120, 2, 2.01298
110, 1, wb, attraction, a-b-da, 2, 3, 6, 24, 120, 195, 193, 119, 195, 120, 3, 0.386924
110, 1, wb, attraction, a-b-db, 2, 3, 6, 25, 195, 120, 120, 195, 119, 193, 1, 4.01738
110, 1, wb, attraction, a-b-db, 2, 3, 6, 25, 195, 120, 120, 195, 119, 193, 2, 0.366668
110, 1, wb, attraction, a-b-db, 2, 2, 6, 26, 89, 163, 90, 165, 165, 90, 1, 1.462
110, 1, wb, attraction, a-b-db, 2, 2, 6, 26, 89, 163, 90, 165, 165, 90, 2, 0.498174
110, 1, wb, attraction, a-b-db, 5, 1, 6, 27, 60, 135, 135, 60, 58, 132, 3, 1.80385
110, 1, wb, attraction, a-b-db, 5, 1, 6, 27, 60, 135, 135, 60, 58, 132, 1, 0.530613
110, 1, wb, filler, NA, 999, 999, 6, 28, 96, 67, 74, 107, 147, 183, 1, 0.763022
110, 1, wb, filler, NA, 999, 999, 6, 28, 96, 67, 74, 107, 147, 183, 3, 0.40342
110, 1, wb, filler, NA, 999, 999, 6, 29, 125, 93, 86, 102, 94, 65, 3, 1.10534
110, 1, wb, filler, NA, 999, 999, 6, 29, 125, 93, 86, 102, 94, 65, 1, 0.619666
110, 1, wb, filler, NA, 999, 999, 6, 30, 74, 155, 92, 134, 148, 107, 2, 1.96895
110, 1, wb, filler, NA, 999, 999, 6, 30, 74, 155, 92, 134, 148, 107, 3, 0.664698
110, 1, wb, catch, NA, 999, 999, 6, 31, 122, 73, 125, 190, 147, 108, 1, 0.851801
110, 1, wb, catch, NA, 999, 999, 6, 31, 122, 73, 125, 190, 147, 108, 2, 0.376854
110, 1, wb, attraction, a-b-da, 14, 1, 6, 32, 125, 56, 60, 135, 135, 60, 2, 1.86326
110, 1, wb, attraction, a-b-da, 14, 1, 6, 32, 125, 56, 60, 135, 135, 60, 3, 0.723431
110, 1, wb, attraction, a-b-db, 5, 2, 6, 33, 88, 161, 90, 165, 165, 90, 2, 2.0038
110, 1, wb, attraction, a-b-db, 5, 2, 6, 33, 88, 161, 90, 165, 165, 90, 3, 0.738499
110, 1, wb, attraction, a-b-da, 5, 1, 6, 34, 135, 60, 132, 58, 60, 135, 3, 0.970797
110, 1, wb, attraction, a-b-da, 5, 1, 6, 34, 135, 60, 132, 58, 60, 135, 1, 0.47528
110, 1, wb, attraction, a-b-da, 9, 3, 6, 35, 120, 195, 186, 114, 195, 120, 2, 1.39769
110, 1, wb, attraction, a-b-da, 9, 3, 6, 35, 120, 195, 186, 114, 195, 120, 1, 0.340539
110, 1, wb, attraction, a-b-da, 2, 1, 6, 36, 135, 60, 60, 135, 134, 59, 2, 1.08442
110, 1, wb, attraction, a-b-da, 2, 1, 6, 36, 135, 60, 60, 135, 134, 59, 1, 0.544013
110, 1, wb, attraction, a-b-db, 9, 1, 6, 37, 135, 60, 57, 129, 60, 135, 3, 1.34369
110, 1, wb, attraction, a-b-db, 9, 1, 6, 37, 135, 60, 57, 129, 60, 135, 1, 0.680601
110, 1, wb, catch, NA, 999, 999, 7, 1, 130, 65, 109, 146, 190, 125, 1, 1.00297
110, 1, wb, catch, NA, 999, 999, 7, 1, 130, 65, 109, 146, 190, 125, 3, 0.433969
110, 1, wb, filler, NA, 999, 999, 7, 2, 129, 128, 139, 96, 179, 136, 1, 1.95044
110, 1, wb, filler, NA, 999, 999, 7, 2, 129, 128, 139, 96, 179, 136, 3, 0.431249
110, 1, wb, catch, NA, 999, 999, 7, 3, 162, 93, 194, 121, 98, 97, 3, 0.795588
110, 1, wb, catch, NA, 999, 999, 7, 3, 162, 93, 194, 121, 98, 97, 2, 0.418667
110, 1, wb, attraction, a-b-da, 9, 1, 7, 4, 60, 135, 129, 57, 135, 60, 1, 2.17587
110, 1, wb, attraction, a-b-da, 9, 1, 7, 4, 60, 135, 129, 57, 135, 60, 3, 0.583042
110, 1, wb, attraction, a-b-da, 9, 2, 7, 5, 90, 165, 165, 90, 157, 86, 3, 2.10175
110, 1, wb, attraction, a-b-da, 9, 2, 7, 5, 90, 165, 165, 90, 157, 86, 1, 0.752154
110, 1, wb, filler, NA, 999, 999, 7, 6, 183, 122, 104, 94, 125, 77, 2, 0.959871
110, 1, wb, filler, NA, 999, 999, 7, 6, 183, 122, 104, 94, 125, 77, 1, 0.472406
110, 1, wb, attraction, a-b-db, 2, 1, 7, 7, 135, 60, 59, 134, 60, 135, 2, 1.74739
110, 1, wb, attraction, a-b-db, 2, 1, 7, 7, 135, 60, 59, 134, 60, 135, 3, 0.572288
110, 1, wb, attraction, a-b-da, 2, 2, 7, 8, 165, 90, 163, 89, 90, 165, 1, 1.68324
110, 1, wb, attraction, a-b-da, 2, 2, 7, 8, 165, 90, 163, 89, 90, 165, 2, 0.590702
110, 1, wb, catch, NA, 999, 999, 7, 9, 180, 135, 87, 108, 103, 152, 2, 0.74843
110, 1, wb, catch, NA, 999, 999, 7, 9, 180, 135, 87, 108, 103, 152, 1, 0.517504
110, 1, wb, attraction, a-b-da, 5, 3, 7, 10, 120, 195, 195, 120, 190, 117, 1, 1.8707
110, 1, wb, attraction, a-b-da, 5, 3, 7, 10, 120, 195, 195, 120, 190, 117, 2, 0.378704
110, 1, wb, attraction, a-b-db, 14, 1, 7, 11, 56, 125, 135, 60, 60, 135, 1, 0.913201
110, 1, wb, attraction, a-b-db, 14, 1, 7, 11, 56, 125, 135, 60, 60, 135, 2, 0.475528
110, 1, wb, filler, NA, 999, 999, 7, 12, 149, 135, 80, 58, 56, 64, 3, 0.741915
110, 1, wb, filler, NA, 999, 999, 7, 12, 149, 135, 80, 58, 56, 64, 1, 0.471024
110, 1, wb, attraction, a-b-da, 2, 3, 7, 13, 120, 195, 195, 120, 193, 119, 3, 2.48219
110, 1, wb, attraction, a-b-da, 2, 3, 7, 13, 120, 195, 195, 120, 193, 119, 1, 0.485386
110, 1, wb, filler, NA, 999, 999, 7, 14, 127, 74, 163, 95, 190, 134, 1, 0.831851
110, 1, wb, filler, NA, 999, 999, 7, 14, 127, 74, 163, 95, 190, 134, 3, 0.757728
110, 1, wb, attraction, a-b-da, 14, 3, 7, 15, 195, 120, 181, 111, 120, 195, 2, 1.39661
110, 1, wb, attraction, a-b-da, 14, 3, 7, 15, 195, 120, 181, 111, 120, 195, 1, 0.955485
110, 1, wb, attraction, a-b-db, 2, 2, 7, 16, 90, 165, 165, 90, 89, 163, 1, 1.8191
110, 1, wb, attraction, a-b-db, 2, 2, 7, 16, 90, 165, 165, 90, 89, 163, 3, 0.449257
110, 1, wb, attraction, a-b-da, 5, 1, 7, 17, 132, 58, 135, 60, 60, 135, 3, 1.51703
110, 1, wb, attraction, a-b-da, 5, 1, 7, 17, 132, 58, 135, 60, 60, 135, 1, 0.887157
110, 1, wb, attraction, a-b-db, 5, 1, 7, 18, 135, 60, 60, 135, 58, 132, 3, 1.2415
110, 1, wb, attraction, a-b-db, 5, 1, 7, 18, 135, 60, 60, 135, 58, 132, 1, 1.02246
110, 1, wb, filler, NA, 999, 999, 7, 19, 159, 67, 89, 105, 194, 163, 2, 0.95532
110, 1, wb, filler, NA, 999, 999, 7, 19, 159, 67, 89, 105, 194, 163, 3, 0.347672
110, 1, wb, attraction, a-b-da, 14, 1, 7, 20, 135, 60, 60, 135, 125, 56, 3, 1.52348
110, 1, wb, attraction, a-b-da, 14, 1, 7, 20, 135, 60, 60, 135, 125, 56, 2, 0.437008
110, 1, wb, attraction, a-b-db, 5, 3, 7, 21, 117, 190, 120, 195, 195, 120, 1, 2.44154
110, 1, wb, attraction, a-b-db, 5, 3, 7, 21, 117, 190, 120, 195, 195, 120, 3, 0.678096
110, 1, wb, attraction, a-b-da, 2, 1, 7, 22, 60, 135, 134, 59, 135, 60, 3, 1.31245
110, 1, wb, attraction, a-b-da, 2, 1, 7, 22, 60, 135, 134, 59, 135, 60, 1, 0.930651
110, 1, wb, attraction, a-b-db, 2, 3, 7, 23, 120, 195, 195, 120, 119, 193, 3, 1.74701
110, 1, wb, attraction, a-b-db, 2, 3, 7, 23, 120, 195, 195, 120, 119, 193, 2, 0.659824
110, 1, wb, filler, NA, 999, 999, 7, 24, 180, 145, 119, 113, 116, 112, 2, 0.950799
110, 1, wb, filler, NA, 999, 999, 7, 24, 180, 145, 119, 113, 116, 112, 1, 0.431854
110, 1, wb, attraction, a-b-db, 5, 2, 7, 25, 88, 161, 90, 165, 165, 90, 1, 6.99625
110, 1, wb, attraction, a-b-db, 5, 2, 7, 25, 88, 161, 90, 165, 165, 90, 3, 0.969456
110, 1, wb, attraction, a-b-da, 9, 3, 7, 26, 195, 120, 120, 195, 186, 114, 3, 6.90439
110, 1, wb, attraction, a-b-da, 9, 3, 7, 26, 195, 120, 120, 195, 186, 114, 2, 0.561558
110, 1, wb, filler, NA, 999, 999, 7, 27, 99, 70, 152, 178, 170, 157, 1, 0.792589
110, 1, wb, filler, NA, 999, 999, 7, 27, 99, 70, 152, 178, 170, 157, 2, 0.99167
110, 1, wb, attraction, a-b-db, 9, 1, 7, 28, 60, 135, 135, 60, 57, 129, 3, 4.3495
110, 1, wb, attraction, a-b-db, 9, 1, 7, 28, 60, 135, 135, 60, 57, 129, 1, 0.541242
110, 1, wb, attraction, a-b-db, 9, 2, 7, 29, 86, 157, 90, 165, 165, 90, 1, 2.157
110, 1, wb, attraction, a-b-db, 9, 2, 7, 29, 86, 157, 90, 165, 165, 90, 3, 0.509047
110, 1, wb, attraction, a-b-da, 5, 2, 7, 30, 90, 165, 161, 88, 165, 90, 3, 1.00616
110, 1, wb, attraction, a-b-da, 5, 2, 7, 30, 90, 165, 161, 88, 165, 90, 2, 0.420447
110, 1, wb, attraction, a-b-db, 14, 2, 7, 31, 165, 90, 90, 165, 83, 153, 3, 0.841619
110, 1, wb, attraction, a-b-db, 14, 2, 7, 31, 165, 90, 90, 165, 83, 153, 1, 0.486597
110, 1, wb, filler, NA, 999, 999, 7, 32, 179, 140, 160, 154, 131, 193, 1, 0.857075
110, 1, wb, filler, NA, 999, 999, 7, 32, 179, 140, 160, 154, 131, 193, 2, 0.413429
110, 1, wb, attraction, a-b-db, 9, 3, 7, 33, 114, 186, 195, 120, 120, 195, 1, 0.842638
110, 1, wb, attraction, a-b-db, 9, 3, 7, 33, 114, 186, 195, 120, 120, 195, 2, 0.471623
110, 1, wb, filler, NA, 999, 999, 7, 34, 146, 184, 61, 143, 93, 78, 3, 0.57875
110, 1, wb, filler, NA, 999, 999, 7, 34, 146, 184, 61, 143, 93, 78, 1, 0.434532
110, 1, wb, attraction, a-b-db, 14, 3, 7, 35, 120, 195, 111, 181, 195, 120, 2, 1.61503
110, 1, wb, attraction, a-b-db, 14, 3, 7, 35, 120, 195, 111, 181, 195, 120, 3, 0.589133
110, 1, wb, filler, NA, 999, 999, 7, 36, 100, 132, 178, 111, 185, 133, 1, 0.60361
110, 1, wb, filler, NA, 999, 999, 7, 36, 100, 132, 178, 111, 185, 133, 3, 0.53869
110, 1, wb, attraction, a-b-da, 14, 2, 7, 37, 90, 165, 153, 83, 165, 90, 2, 0.987195
110, 1, wb, attraction, a-b-da, 14, 2, 7, 37, 90, 165, 153, 83, 165, 90, 1, 0.802988
110, 1, wb, attraction, a-b-db, 9, 2, 8, 1, 90, 165, 165, 90, 86, 157, 3, 0.808578
110, 1, wb, attraction, a-b-db, 9, 2, 8, 1, 90, 165, 165, 90, 86, 157, 1, 0.742965
110, 1, wb, attraction, a-b-da, 14, 1, 8, 2, 60, 135, 125, 56, 135, 60, 1, 1.27862
110, 1, wb, attraction, a-b-da, 14, 1, 8, 2, 60, 135, 125, 56, 135, 60, 3, 0.674355
110, 1, wb, attraction, a-b-db, 2, 2, 8, 3, 165, 90, 89, 163, 90, 165, 2, 1.9245
110, 1, wb, attraction, a-b-db, 2, 2, 8, 3, 165, 90, 89, 163, 90, 165, 3, 0.358073
110, 1, wb, attraction, a-b-db, 5, 1, 8, 4, 135, 60, 60, 135, 58, 132, 1, 1.76647
110, 1, wb, attraction, a-b-db, 5, 1, 8, 4, 135, 60, 60, 135, 58, 132, 2, 0.629245
110, 1, wb, attraction, a-b-db, 5, 3, 8, 5, 117, 190, 195, 120, 120, 195, 3, 1.20956
110, 1, wb, attraction, a-b-db, 5, 3, 8, 5, 117, 190, 195, 120, 120, 195, 2, 0.511933
110, 1, wb, catch, NA, 999, 999, 8, 6, 126, 69, 113, 142, 162, 153, 1, 1.68097
110, 1, wb, catch, NA, 999, 999, 8, 6, 126, 69, 113, 142, 162, 153, 3, 0.3964
110, 1, wb, attraction, a-b-da, 5, 3, 8, 7, 195, 120, 190, 117, 120, 195, 2, 1.37838
110, 1, wb, attraction, a-b-da, 5, 3, 8, 7, 195, 120, 190, 117, 120, 195, 3, 0.361923
110, 1, wb, filler, NA, 999, 999, 8, 8, 188, 186, 94, 72, 124, 59, 2, 0.664967
110, 1, wb, filler, NA, 999, 999, 8, 8, 188, 186, 94, 72, 124, 59, 1, 0.821348
110, 1, wb, attraction, a-b-da, 2, 2, 8, 9, 163, 89, 90, 165, 165, 90, 1, 1.44249
110, 1, wb, attraction, a-b-da, 2, 2, 8, 9, 163, 89, 90, 165, 165, 90, 2, 0.671285
110, 1, wb, attraction, a-b-db, 14, 3, 8, 10, 120, 195, 111, 181, 195, 120, 3, 1.15434
110, 1, wb, attraction, a-b-db, 14, 3, 8, 10, 120, 195, 111, 181, 195, 120, 2, 0.531285
110, 1, wb, filler, NA, 999, 999, 8, 11, 61, 95, 159, 175, 168, 69, 1, 0.587701
110, 1, wb, filler, NA, 999, 999, 8, 11, 61, 95, 159, 175, 168, 69, 2, 0.355576
110, 1, wb, attraction, a-b-da, 5, 1, 8, 12, 135, 60, 132, 58, 60, 135, 2, 1.52333
110, 1, wb, attraction, a-b-da, 5, 1, 8, 12, 135, 60, 132, 58, 60, 135, 3, 0.484901
110, 1, wb, attraction, a-b-db, 5, 2, 8, 13, 165, 90, 90, 165, 88, 161, 2, 1.61527
110, 1, wb, attraction, a-b-db, 5, 2, 8, 13, 165, 90, 90, 165, 88, 161, 1, 0.49341
110, 1, wb, attraction, a-b-da, 5, 2, 8, 14, 161, 88, 90, 165, 165, 90, 2, 1.07122
110, 1, wb, attraction, a-b-da, 5, 2, 8, 14, 161, 88, 90, 165, 165, 90, 3, 0.522843
110, 1, wb, attraction, a-b-db, 2, 1, 8, 15, 59, 134, 135, 60, 60, 135, 1, 1.55599
110, 1, wb, attraction, a-b-db, 2, 1, 8, 15, 59, 134, 135, 60, 60, 135, 2, 0.772164
110, 1, wb, attraction, a-b-db, 9, 1, 8, 16, 57, 129, 60, 135, 135, 60, 1, 2.05115
110, 1, wb, attraction, a-b-db, 9, 1, 8, 16, 57, 129, 60, 135, 135, 60, 3, 0.54394
110, 1, wb, attraction, a-b-da, 14, 2, 8, 17, 153, 83, 90, 165, 165, 90, 1, 1.27951
110, 1, wb, attraction, a-b-da, 14, 2, 8, 17, 153, 83, 90, 165, 165, 90, 3, 0.955184
110, 1, wb, attraction, a-b-db, 9, 3, 8, 18, 195, 120, 120, 195, 114, 186, 3, 3.13083
110, 1, wb, attraction, a-b-db, 9, 3, 8, 18, 195, 120, 120, 195, 114, 186, 1, 0.4358
110, 1, wb, filler, NA, 999, 999, 8, 19, 124, 78, 56, 102, 100, 110, 2, 1.1203
110, 1, wb, filler, NA, 999, 999, 8, 19, 124, 78, 56, 102, 100, 110, 3, 0.658699
110, 1, wb, catch, NA, 999, 999, 8, 20, 193, 122, 116, 139, 99, 96, 3, 0.86162
110, 1, wb, catch, NA, 999, 999, 8, 20, 193, 122, 116, 139, 99, 96, 1, 0.546168
110, 1, wb, attraction, a-b-da, 2, 3, 8, 21, 195, 120, 120, 195, 193, 119, 2, 2.93778
110, 1, wb, attraction, a-b-da, 2, 3, 8, 21, 195, 120, 120, 195, 193, 119, 1, 0.666863
110, 1, wb, attraction, a-b-da, 9, 2, 8, 22, 157, 86, 165, 90, 90, 165, 3, 1.54993
110, 1, wb, attraction, a-b-da, 9, 2, 8, 22, 157, 86, 165, 90, 90, 165, 1, 0.542742
110, 1, wb, attraction, a-b-da, 14, 3, 8, 23, 195, 120, 181, 111, 120, 195, 2, 1.83051
110, 1, wb, attraction, a-b-da, 14, 3, 8, 23, 195, 120, 181, 111, 120, 195, 1, 0.611879
110, 1, wb, attraction, a-b-da, 9, 3, 8, 24, 195, 120, 120, 195, 186, 114, 2, 1.89709
110, 1, wb, attraction, a-b-da, 9, 3, 8, 24, 195, 120, 120, 195, 186, 114, 1, 0.635761
110, 1, wb, filler, NA, 999, 999, 8, 25, 85, 78, 155, 74, 60, 66, 3, 0.880109
110, 1, wb, filler, NA, 999, 999, 8, 25, 85, 78, 155, 74, 60, 66, 2, 0.675951
110, 1, wb, filler, NA, 999, 999, 8, 26, 102, 106, 134, 142, 145, 59, 1, 1.02221
110, 1, wb, filler, NA, 999, 999, 8, 26, 102, 106, 134, 142, 145, 59, 2, 0.395908
110, 1, wb, filler, NA, 999, 999, 8, 27, 77, 183, 134, 171, 149, 178, 1, 1.56991
110, 1, wb, filler, NA, 999, 999, 8, 27, 77, 183, 134, 171, 149, 178, 3, 0.457845
110, 1, wb, filler, NA, 999, 999, 8, 28, 183, 137, 167, 121, 88, 79, 3, 0.812983
110, 1, wb, filler, NA, 999, 999, 8, 28, 183, 137, 167, 121, 88, 79, 1, 0.435365
110, 1, wb, attraction, a-b-db, 2, 3, 8, 29, 195, 120, 120, 195, 119, 193, 2, 2.18385
110, 1, wb, attraction, a-b-db, 2, 3, 8, 29, 195, 120, 120, 195, 119, 193, 3, 0.575133
110, 1, wb, filler, NA, 999, 999, 8, 30, 87, 89, 103, 186, 137, 58, 1, 0.653641
110, 1, wb, filler, NA, 999, 999, 8, 30, 87, 89, 103, 186, 137, 58, 2, 0.434727
110, 1, wb, attraction, a-b-da, 2, 1, 8, 31, 135, 60, 134, 59, 60, 135, 3, 1.25513
110, 1, wb, attraction, a-b-da, 2, 1, 8, 31, 135, 60, 134, 59, 60, 135, 2, 0.39531
110, 1, wb, attraction, a-b-da, 9, 1, 8, 32, 60, 135, 135, 60, 129, 57, 1, 1.49727
110, 1, wb, attraction, a-b-da, 9, 1, 8, 32, 60, 135, 135, 60, 129, 57, 2, 0.603978
110, 1, wb, catch, NA, 999, 999, 8, 33, 145, 170, 107, 148, 101, 94, 3, 0.969871
110, 1, wb, catch, NA, 999, 999, 8, 33, 145, 170, 107, 148, 101, 94, 1, 0.546132
110, 1, wb, attraction, a-b-db, 14, 2, 8, 34, 83, 153, 165, 90, 90, 165, 1, 1.43389
110, 1, wb, attraction, a-b-db, 14, 2, 8, 34, 83, 153, 165, 90, 90, 165, 3, 0.415375
110, 1, wb, attraction, a-b-db, 14, 1, 8, 35, 135, 60, 60, 135, 56, 125, 3, 0.908578
110, 1, wb, attraction, a-b-db, 14, 1, 8, 35, 135, 60, 60, 135, 56, 125, 1, 0.687059
110, 1, wb, filler, NA, 999, 999, 8, 36, 150, 75, 170, 145, 124, 77, 3, 0.841298
110, 1, wb, filler, NA, 999, 999, 8, 36, 150, 75, 170, 145, 124, 77, 2, 0.526383
110, 1, wb, filler, NA, 999, 999, 8, 37, 151, 115, 133, 97, 59, 180, 2, 1.43081
110, 1, wb, filler, NA, 999, 999, 8, 37, 151, 115, 133, 97, 59, 180, 1, 0.452445
