sub_n, computer_n, bw_cond, effect, set, distance, diag, block_n, trial_n, h1, w1, h2, w2, h3, w3, choice, rt 
167, 1, bw, practice, NA, 999, 999, 0, 1, 191, 89, 167, 119, 96, 97, 2, 3.92366
167, 1, bw, practice, NA, 999, 999, 0, 1, 191, 89, 167, 119, 96, 97, 3, 2.41247
167, 1, bw, practice, NA, 999, 999, 0, 2, 140, 122, 121, 188, 67, 82, 2, 2.35045
167, 1, bw, practice, NA, 999, 999, 0, 2, 140, 122, 121, 188, 67, 82, 3, 1.83144
167, 1, bw, practice, NA, 999, 999, 0, 3, 60, 141, 81, 68, 185, 138, 3, 1.87128
167, 1, bw, practice, NA, 999, 999, 0, 3, 60, 141, 81, 68, 185, 138, 2, 2.58708
167, 1, bw, attraction, a-b-db, 9, 3, 1, 1, 120, 195, 195, 120, 114, 186, 1, 7.14573
167, 1, bw, attraction, a-b-db, 9, 3, 1, 1, 120, 195, 195, 120, 114, 186, 2, 4.66491
167, 1, bw, attraction, a-b-da, 5, 3, 1, 2, 195, 120, 190, 117, 120, 195, 3, 7.54666
167, 1, bw, attraction, a-b-da, 5, 3, 1, 2, 195, 120, 190, 117, 120, 195, 2, 2.80966
167, 1, bw, attraction, a-b-da, 5, 1, 1, 3, 60, 135, 135, 60, 132, 58, 1, 4.28601
167, 1, bw, attraction, a-b-da, 5, 1, 1, 3, 60, 135, 135, 60, 132, 58, 2, 4.13653
167, 1, bw, catch, NA, 999, 999, 1, 4, 190, 125, 130, 125, 60, 135, 1, 3.49585
167, 1, bw, catch, NA, 999, 999, 1, 4, 190, 125, 130, 125, 60, 135, 3, 1.71419
167, 1, bw, filler, NA, 999, 999, 1, 5, 121, 160, 169, 165, 86, 71, 2, 1.35483
167, 1, bw, filler, NA, 999, 999, 1, 5, 121, 160, 169, 165, 86, 71, 3, 1.76311
167, 1, bw, filler, NA, 999, 999, 1, 6, 151, 116, 110, 65, 103, 95, 1, 1.54592
167, 1, bw, filler, NA, 999, 999, 1, 6, 151, 116, 110, 65, 103, 95, 2, 2.43469
167, 1, bw, attraction, a-b-da, 14, 3, 1, 7, 195, 120, 181, 111, 120, 195, 3, 18.1744
167, 1, bw, attraction, a-b-da, 14, 3, 1, 7, 195, 120, 181, 111, 120, 195, 2, 1.95346
167, 1, bw, catch, NA, 999, 999, 1, 8, 131, 184, 131, 124, 117, 78, 1, 1.76078
167, 1, bw, catch, NA, 999, 999, 1, 8, 131, 184, 131, 124, 117, 78, 3, 1.23291
167, 1, bw, attraction, a-b-da, 9, 1, 1, 9, 135, 60, 60, 135, 129, 57, 2, 4.93313
167, 1, bw, attraction, a-b-da, 9, 1, 1, 9, 135, 60, 60, 135, 129, 57, 3, 3.24561
167, 1, bw, catch, NA, 999, 999, 1, 10, 134, 121, 104, 91, 150, 165, 3, 1.39241
167, 1, bw, catch, NA, 999, 999, 1, 10, 134, 121, 104, 91, 150, 165, 2, 0.887344
167, 1, bw, filler, NA, 999, 999, 1, 11, 191, 104, 113, 174, 174, 65, 2, 2.72172
167, 1, bw, filler, NA, 999, 999, 1, 11, 191, 104, 113, 174, 174, 65, 3, 0.80338
167, 1, bw, attraction, a-b-db, 14, 1, 1, 12, 56, 125, 135, 60, 60, 135, 3, 9.62506
167, 1, bw, attraction, a-b-db, 14, 1, 1, 12, 56, 125, 135, 60, 60, 135, 1, 3.54014
167, 1, bw, attraction, a-b-db, 9, 2, 1, 13, 165, 90, 90, 165, 86, 157, 2, 18.6276
167, 1, bw, attraction, a-b-db, 9, 2, 1, 13, 165, 90, 90, 165, 86, 157, 3, 1.71588
167, 1, bw, attraction, a-b-db, 5, 1, 1, 14, 60, 135, 58, 132, 135, 60, 1, 9.26055
167, 1, bw, attraction, a-b-db, 5, 1, 1, 14, 60, 135, 58, 132, 135, 60, 2, 1.03016
167, 1, bw, filler, NA, 999, 999, 1, 15, 146, 74, 60, 133, 155, 83, 3, 2.19456
167, 1, bw, filler, NA, 999, 999, 1, 15, 146, 74, 60, 133, 155, 83, 2, 0.697201
167, 1, bw, attraction, a-b-db, 2, 1, 1, 16, 135, 60, 60, 135, 59, 134, 3, 5.11484
167, 1, bw, attraction, a-b-db, 2, 1, 1, 16, 135, 60, 60, 135, 59, 134, 2, 1.41197
167, 1, bw, filler, NA, 999, 999, 1, 17, 70, 126, 56, 132, 115, 186, 3, 0.920784
167, 1, bw, filler, NA, 999, 999, 1, 17, 70, 126, 56, 132, 115, 186, 2, 0.939089
167, 1, bw, attraction, a-b-db, 5, 3, 1, 18, 117, 190, 120, 195, 195, 120, 2, 15.2434
167, 1, bw, attraction, a-b-db, 5, 3, 1, 18, 117, 190, 120, 195, 195, 120, 3, 2.58804
167, 1, bw, attraction, a-b-da, 2, 2, 1, 19, 165, 90, 163, 89, 90, 165, 3, 24.5537
167, 1, bw, attraction, a-b-da, 2, 2, 1, 19, 165, 90, 163, 89, 90, 165, 1, 1.61939
167, 1, bw, attraction, a-b-da, 14, 1, 1, 20, 135, 60, 125, 56, 60, 135, 3, 2.24008
167, 1, bw, attraction, a-b-da, 14, 1, 1, 20, 135, 60, 125, 56, 60, 135, 2, 0.804749
167, 1, bw, filler, NA, 999, 999, 1, 21, 149, 145, 86, 143, 97, 100, 1, 0.962462
167, 1, bw, filler, NA, 999, 999, 1, 21, 149, 145, 86, 143, 97, 100, 3, 1.2668
167, 1, bw, attraction, a-b-db, 9, 1, 1, 22, 60, 135, 135, 60, 57, 129, 1, 6.68576
167, 1, bw, attraction, a-b-db, 9, 1, 1, 22, 60, 135, 135, 60, 57, 129, 3, 0.567509
167, 1, bw, filler, NA, 999, 999, 1, 23, 119, 115, 179, 73, 80, 115, 1, 28.9186
167, 1, bw, filler, NA, 999, 999, 1, 23, 119, 115, 179, 73, 80, 115, 3, 0.952338
167, 1, bw, attraction, a-b-da, 2, 1, 1, 24, 135, 60, 134, 59, 60, 135, 1, 6.19193
167, 1, bw, attraction, a-b-da, 2, 1, 1, 24, 135, 60, 134, 59, 60, 135, 2, 0.661359
167, 1, bw, attraction, a-b-db, 14, 3, 1, 25, 111, 181, 120, 195, 195, 120, 2, 6.56848
167, 1, bw, attraction, a-b-db, 14, 3, 1, 25, 111, 181, 120, 195, 195, 120, 1, 0.895049
167, 1, bw, attraction, a-b-db, 2, 2, 1, 26, 90, 165, 89, 163, 165, 90, 1, 3.43271
167, 1, bw, attraction, a-b-db, 2, 2, 1, 26, 90, 165, 89, 163, 165, 90, 3, 1.35765
167, 1, bw, attraction, a-b-da, 9, 3, 1, 27, 195, 120, 120, 195, 186, 114, 2, 3.66035
167, 1, bw, attraction, a-b-da, 9, 3, 1, 27, 195, 120, 120, 195, 186, 114, 3, 0.759978
167, 1, bw, attraction, a-b-da, 5, 2, 1, 28, 161, 88, 90, 165, 165, 90, 2, 21.8788
167, 1, bw, attraction, a-b-da, 5, 2, 1, 28, 161, 88, 90, 165, 165, 90, 1, 0.540023
167, 1, bw, attraction, a-b-db, 14, 2, 1, 29, 165, 90, 90, 165, 83, 153, 2, 3.4205
167, 1, bw, attraction, a-b-db, 14, 2, 1, 29, 165, 90, 90, 165, 83, 153, 3, 1.47406
167, 1, bw, attraction, a-b-db, 5, 2, 1, 30, 90, 165, 88, 161, 165, 90, 1, 14.2521
167, 1, bw, attraction, a-b-db, 5, 2, 1, 30, 90, 165, 88, 161, 165, 90, 3, 1.83706
167, 1, bw, filler, NA, 999, 999, 1, 31, 130, 101, 157, 162, 135, 141, 2, 0.977058
167, 1, bw, filler, NA, 999, 999, 1, 31, 130, 101, 157, 162, 135, 141, 1, 0.928829
167, 1, bw, attraction, a-b-db, 2, 3, 1, 32, 119, 193, 195, 120, 120, 195, 2, 18.1051
167, 1, bw, attraction, a-b-db, 2, 3, 1, 32, 119, 193, 195, 120, 120, 195, 3, 0.82269
167, 1, bw, filler, NA, 999, 999, 1, 33, 172, 109, 156, 64, 114, 121, 1, 1.50779
167, 1, bw, filler, NA, 999, 999, 1, 33, 172, 109, 156, 64, 114, 121, 2, 0.773965
167, 1, bw, attraction, a-b-da, 2, 3, 1, 34, 195, 120, 193, 119, 120, 195, 3, 4.36435
167, 1, bw, attraction, a-b-da, 2, 3, 1, 34, 195, 120, 193, 119, 120, 195, 2, 4.8355
167, 1, bw, attraction, a-b-da, 9, 2, 1, 35, 157, 86, 90, 165, 165, 90, 3, 15.5267
167, 1, bw, attraction, a-b-da, 9, 2, 1, 35, 157, 86, 90, 165, 165, 90, 1, 1.12374
167, 1, bw, filler, NA, 999, 999, 1, 36, 61, 190, 169, 144, 151, 69, 2, 0.995987
167, 1, bw, filler, NA, 999, 999, 1, 36, 61, 190, 169, 144, 151, 69, 3, 1.04309
167, 1, bw, attraction, a-b-da, 14, 2, 1, 37, 165, 90, 90, 165, 153, 83, 2, 1.72713
167, 1, bw, attraction, a-b-da, 14, 2, 1, 37, 165, 90, 90, 165, 153, 83, 3, 0.671957
167, 1, bw, attraction, a-b-da, 9, 2, 2, 1, 90, 165, 157, 86, 165, 90, 3, 16.7711
167, 1, bw, attraction, a-b-da, 9, 2, 2, 1, 90, 165, 157, 86, 165, 90, 2, 0.454585
167, 1, bw, catch, NA, 999, 999, 2, 2, 123, 72, 96, 159, 186, 129, 3, 1.30627
167, 1, bw, catch, NA, 999, 999, 2, 2, 123, 72, 96, 159, 186, 129, 1, 0.884493
167, 1, bw, attraction, a-b-da, 9, 3, 2, 3, 120, 195, 195, 120, 186, 114, 1, 8.16698
167, 1, bw, attraction, a-b-da, 9, 3, 2, 3, 120, 195, 195, 120, 186, 114, 3, 0.997073
167, 1, bw, attraction, a-b-da, 9, 1, 2, 4, 129, 57, 135, 60, 60, 135, 3, 10.4667
167, 1, bw, attraction, a-b-da, 9, 1, 2, 4, 129, 57, 135, 60, 60, 135, 1, 1.64395
167, 1, bw, filler, NA, 999, 999, 2, 5, 195, 177, 145, 171, 81, 103, 1, 1.00739
167, 1, bw, filler, NA, 999, 999, 2, 5, 195, 177, 145, 171, 81, 103, 3, 0.653677
167, 1, bw, filler, NA, 999, 999, 2, 6, 131, 67, 67, 113, 112, 99, 3, 14.2574
167, 1, bw, filler, NA, 999, 999, 2, 6, 131, 67, 67, 113, 112, 99, 2, 0.906274
167, 1, bw, attraction, a-b-db, 14, 2, 2, 7, 90, 165, 165, 90, 83, 153, 1, 6.78008
167, 1, bw, attraction, a-b-db, 14, 2, 2, 7, 90, 165, 165, 90, 83, 153, 3, 2.29791
167, 1, bw, attraction, a-b-db, 14, 1, 2, 8, 60, 135, 56, 125, 135, 60, 1, 3.051
167, 1, bw, attraction, a-b-db, 14, 1, 2, 8, 60, 135, 56, 125, 135, 60, 3, 1.34344
167, 1, bw, attraction, a-b-da, 14, 2, 2, 9, 153, 83, 165, 90, 90, 165, 3, 2.66298
167, 1, bw, attraction, a-b-da, 14, 2, 2, 9, 153, 83, 165, 90, 90, 165, 1, 1.73871
167, 1, bw, attraction, a-b-db, 2, 2, 2, 10, 90, 165, 89, 163, 165, 90, 1, 4.3627
167, 1, bw, attraction, a-b-db, 2, 2, 2, 10, 90, 165, 89, 163, 165, 90, 2, 0.682075
167, 1, bw, attraction, a-b-db, 5, 2, 2, 11, 165, 90, 88, 161, 90, 165, 3, 4.03645
167, 1, bw, attraction, a-b-db, 5, 2, 2, 11, 165, 90, 88, 161, 90, 165, 2, 0.993152
167, 1, bw, filler, NA, 999, 999, 2, 12, 192, 179, 69, 82, 128, 192, 1, 0.982771
167, 1, bw, filler, NA, 999, 999, 2, 12, 192, 179, 69, 82, 128, 192, 2, 0.702636
167, 1, bw, filler, NA, 999, 999, 2, 13, 124, 90, 155, 97, 102, 67, 2, 1.64014
167, 1, bw, filler, NA, 999, 999, 2, 13, 124, 90, 155, 97, 102, 67, 3, 0.629091
167, 1, bw, catch, NA, 999, 999, 2, 14, 139, 176, 125, 70, 96, 159, 1, 0.937478
167, 1, bw, catch, NA, 999, 999, 2, 14, 139, 176, 125, 70, 96, 159, 2, 0.955154
167, 1, bw, attraction, a-b-da, 2, 3, 2, 15, 193, 119, 195, 120, 120, 195, 1, 18.5386
167, 1, bw, attraction, a-b-da, 2, 3, 2, 15, 193, 119, 195, 120, 120, 195, 2, 0.422836
167, 1, bw, attraction, a-b-da, 5, 2, 2, 16, 165, 90, 161, 88, 90, 165, 1, 23.0441
167, 1, bw, attraction, a-b-da, 5, 2, 2, 16, 165, 90, 161, 88, 90, 165, 2, 0.618864
167, 1, bw, filler, NA, 999, 999, 2, 17, 99, 59, 121, 110, 109, 194, 3, 1.23989
167, 1, bw, filler, NA, 999, 999, 2, 17, 99, 59, 121, 110, 109, 194, 1, 0.612751
167, 1, bw, filler, NA, 999, 999, 2, 18, 137, 68, 57, 141, 152, 110, 3, 0.953853
167, 1, bw, filler, NA, 999, 999, 2, 18, 137, 68, 57, 141, 152, 110, 1, 4.10708
167, 1, bw, filler, NA, 999, 999, 2, 19, 149, 182, 131, 63, 154, 185, 3, 3.98763
167, 1, bw, filler, NA, 999, 999, 2, 19, 149, 182, 131, 63, 154, 185, 2, 0.6264
167, 1, bw, attraction, a-b-da, 5, 3, 2, 20, 190, 117, 120, 195, 195, 120, 2, 3.95884
167, 1, bw, attraction, a-b-da, 5, 3, 2, 20, 190, 117, 120, 195, 195, 120, 3, 1.91826
167, 1, bw, attraction, a-b-db, 2, 1, 2, 21, 135, 60, 59, 134, 60, 135, 1, 17.1748
167, 1, bw, attraction, a-b-db, 2, 1, 2, 21, 135, 60, 59, 134, 60, 135, 3, 0.802118
167, 1, bw, attraction, a-b-da, 14, 1, 2, 22, 60, 135, 135, 60, 125, 56, 2, 8.15982
167, 1, bw, attraction, a-b-da, 14, 1, 2, 22, 60, 135, 135, 60, 125, 56, 3, 0.974075
167, 1, bw, attraction, a-b-da, 14, 3, 2, 23, 181, 111, 195, 120, 120, 195, 3, 5.82813
167, 1, bw, attraction, a-b-da, 14, 3, 2, 23, 181, 111, 195, 120, 120, 195, 1, 1.8243
167, 1, bw, attraction, a-b-da, 2, 2, 2, 24, 90, 165, 163, 89, 165, 90, 1, 13.3163
167, 1, bw, attraction, a-b-da, 2, 2, 2, 24, 90, 165, 163, 89, 165, 90, 2, 0.898773
167, 1, bw, attraction, a-b-da, 2, 1, 2, 25, 134, 59, 60, 135, 135, 60, 3, 6.95653
167, 1, bw, attraction, a-b-da, 2, 1, 2, 25, 134, 59, 60, 135, 135, 60, 1, 1.04364
167, 1, bw, attraction, a-b-da, 5, 1, 2, 26, 135, 60, 60, 135, 132, 58, 2, 8.35927
167, 1, bw, attraction, a-b-da, 5, 1, 2, 26, 135, 60, 60, 135, 132, 58, 3, 10.7413
167, 1, bw, attraction, a-b-db, 5, 1, 2, 27, 58, 132, 135, 60, 60, 135, 2, 9.31444
167, 1, bw, attraction, a-b-db, 5, 1, 2, 27, 58, 132, 135, 60, 60, 135, 1, 2.53028
167, 1, bw, attraction, a-b-db, 9, 3, 2, 28, 114, 186, 195, 120, 120, 195, 3, 8.14615
167, 1, bw, attraction, a-b-db, 9, 3, 2, 28, 114, 186, 195, 120, 120, 195, 2, 0.472858
167, 1, bw, attraction, a-b-db, 2, 3, 2, 29, 120, 195, 195, 120, 119, 193, 1, 6.46799
167, 1, bw, attraction, a-b-db, 2, 3, 2, 29, 120, 195, 195, 120, 119, 193, 3, 0.750643
167, 1, bw, attraction, a-b-db, 14, 3, 2, 30, 120, 195, 111, 181, 195, 120, 1, 2.63022
167, 1, bw, attraction, a-b-db, 14, 3, 2, 30, 120, 195, 111, 181, 195, 120, 2, 0.411529
167, 1, bw, catch, NA, 999, 999, 2, 31, 124, 191, 108, 147, 127, 68, 1, 1.36051
167, 1, bw, catch, NA, 999, 999, 2, 31, 124, 191, 108, 147, 127, 68, 3, 0.880752
167, 1, bw, attraction, a-b-db, 9, 1, 2, 32, 135, 60, 57, 129, 60, 135, 3, 6.68309
167, 1, bw, attraction, a-b-db, 9, 1, 2, 32, 135, 60, 57, 129, 60, 135, 2, 0.541129
167, 1, bw, attraction, a-b-db, 9, 2, 2, 33, 165, 90, 90, 165, 86, 157, 2, 4.22877
167, 1, bw, attraction, a-b-db, 9, 2, 2, 33, 165, 90, 90, 165, 86, 157, 1, 2.25748
167, 1, bw, filler, NA, 999, 999, 2, 34, 128, 120, 131, 186, 161, 162, 2, 3.86803
167, 1, bw, filler, NA, 999, 999, 2, 34, 128, 120, 131, 186, 161, 162, 1, 0.767658
167, 1, bw, attraction, a-b-db, 5, 3, 2, 35, 120, 195, 195, 120, 117, 190, 2, 12.8146
167, 1, bw, attraction, a-b-db, 5, 3, 2, 35, 120, 195, 195, 120, 117, 190, 3, 0.545254
167, 1, bw, filler, NA, 999, 999, 2, 36, 64, 98, 68, 137, 185, 60, 3, 25.721
167, 1, bw, filler, NA, 999, 999, 2, 36, 64, 98, 68, 137, 185, 60, 1, 1.27545
167, 1, bw, filler, NA, 999, 999, 2, 37, 143, 140, 145, 158, 99, 158, 2, 0.837719
167, 1, bw, filler, NA, 999, 999, 2, 37, 143, 140, 145, 158, 99, 158, 3, 1.03538
167, 1, bw, filler, NA, 999, 999, 3, 1, 154, 194, 175, 137, 65, 156, 1, 1.44774
167, 1, bw, filler, NA, 999, 999, 3, 1, 154, 194, 175, 137, 65, 156, 3, 0.636507
167, 1, bw, attraction, a-b-da, 2, 3, 3, 2, 120, 195, 195, 120, 193, 119, 1, 3.42497
167, 1, bw, attraction, a-b-da, 2, 3, 3, 2, 120, 195, 195, 120, 193, 119, 2, 0.549954
167, 1, bw, attraction, a-b-db, 9, 3, 3, 3, 120, 195, 195, 120, 114, 186, 2, 4.18166
167, 1, bw, attraction, a-b-db, 9, 3, 3, 3, 120, 195, 195, 120, 114, 186, 3, 0.372246
167, 1, bw, attraction, a-b-db, 14, 1, 3, 4, 56, 125, 60, 135, 135, 60, 2, 16.7156
167, 1, bw, attraction, a-b-db, 14, 1, 3, 4, 56, 125, 60, 135, 135, 60, 1, 1.9928
167, 1, bw, filler, NA, 999, 999, 3, 5, 121, 62, 63, 118, 160, 78, 3, 1.5103
167, 1, bw, filler, NA, 999, 999, 3, 5, 121, 62, 63, 118, 160, 78, 1, 0.976578
167, 1, bw, filler, NA, 999, 999, 3, 6, 159, 63, 195, 125, 139, 95, 2, 0.926663
167, 1, bw, filler, NA, 999, 999, 3, 6, 159, 63, 195, 125, 139, 95, 1, 1.01633
167, 1, bw, catch, NA, 999, 999, 3, 7, 105, 150, 103, 92, 146, 169, 3, 1.12534
167, 1, bw, catch, NA, 999, 999, 3, 7, 105, 150, 103, 92, 146, 169, 2, 0.766879
167, 1, bw, filler, NA, 999, 999, 3, 8, 176, 82, 114, 60, 109, 83, 1, 1.43796
167, 1, bw, filler, NA, 999, 999, 3, 8, 176, 82, 114, 60, 109, 83, 2, 0.491507
167, 1, bw, attraction, a-b-da, 14, 2, 3, 9, 90, 165, 165, 90, 153, 83, 2, 12.5333
167, 1, bw, attraction, a-b-da, 14, 2, 3, 9, 90, 165, 165, 90, 153, 83, 3, 0.987386
167, 1, bw, filler, NA, 999, 999, 3, 10, 118, 92, 154, 119, 79, 141, 2, 1.08158
167, 1, bw, filler, NA, 999, 999, 3, 10, 118, 92, 154, 119, 79, 141, 3, 1.16535
167, 1, bw, attraction, a-b-db, 14, 2, 3, 11, 90, 165, 83, 153, 165, 90, 1, 28.1403
167, 1, bw, attraction, a-b-db, 14, 2, 3, 11, 90, 165, 83, 153, 165, 90, 2, 0.605363
167, 1, bw, attraction, a-b-db, 2, 2, 3, 12, 165, 90, 89, 163, 90, 165, 3, 3.80323
167, 1, bw, attraction, a-b-db, 2, 2, 3, 12, 165, 90, 89, 163, 90, 165, 2, 0.945241
167, 1, bw, attraction, a-b-da, 9, 1, 3, 13, 60, 135, 135, 60, 129, 57, 1, 3.13695
167, 1, bw, attraction, a-b-da, 9, 1, 3, 13, 60, 135, 135, 60, 129, 57, 2, 0.489942
167, 1, bw, attraction, a-b-da, 2, 2, 3, 14, 90, 165, 163, 89, 165, 90, 3, 1.48435
167, 1, bw, attraction, a-b-da, 2, 2, 3, 14, 90, 165, 163, 89, 165, 90, 2, 0.679807
167, 1, bw, attraction, a-b-da, 9, 3, 3, 15, 186, 114, 120, 195, 195, 120, 2, 1.24234
167, 1, bw, attraction, a-b-da, 9, 3, 3, 15, 186, 114, 120, 195, 195, 120, 1, 0.559133
167, 1, bw, attraction, a-b-db, 2, 3, 3, 16, 119, 193, 120, 195, 195, 120, 2, 5.61441
167, 1, bw, attraction, a-b-db, 2, 3, 3, 16, 119, 193, 120, 195, 195, 120, 3, 0.523203
167, 1, bw, attraction, a-b-db, 5, 2, 3, 17, 165, 90, 88, 161, 90, 165, 2, 2.74838
167, 1, bw, attraction, a-b-db, 5, 2, 3, 17, 165, 90, 88, 161, 90, 165, 1, 0.580639
167, 1, bw, filler, NA, 999, 999, 3, 18, 159, 80, 101, 138, 146, 187, 3, 0.787125
167, 1, bw, filler, NA, 999, 999, 3, 18, 159, 80, 101, 138, 146, 187, 1, 2.07482
167, 1, bw, catch, NA, 999, 999, 3, 19, 130, 125, 102, 93, 173, 142, 3, 0.9329
167, 1, bw, catch, NA, 999, 999, 3, 19, 130, 125, 102, 93, 173, 142, 2, 0.622689
167, 1, bw, attraction, a-b-db, 2, 1, 3, 20, 60, 135, 59, 134, 135, 60, 1, 6.07558
167, 1, bw, attraction, a-b-db, 2, 1, 3, 20, 60, 135, 59, 134, 135, 60, 2, 0.733634
167, 1, bw, attraction, a-b-da, 5, 2, 3, 21, 161, 88, 90, 165, 165, 90, 2, 3.4861
167, 1, bw, attraction, a-b-da, 5, 2, 3, 21, 161, 88, 90, 165, 165, 90, 1, 3.55294
167, 1, bw, attraction, a-b-db, 14, 3, 3, 22, 111, 181, 120, 195, 195, 120, 3, 3.38915
167, 1, bw, attraction, a-b-db, 14, 3, 3, 22, 111, 181, 120, 195, 195, 120, 1, 0.582056
167, 1, bw, attraction, a-b-da, 9, 2, 3, 23, 165, 90, 157, 86, 90, 165, 1, 3.45249
167, 1, bw, attraction, a-b-da, 9, 2, 3, 23, 165, 90, 157, 86, 90, 165, 2, 0.792684
167, 1, bw, filler, NA, 999, 999, 3, 24, 193, 154, 57, 58, 144, 138, 1, 1.20642
167, 1, bw, filler, NA, 999, 999, 3, 24, 193, 154, 57, 58, 144, 138, 2, 1.38867
167, 1, bw, catch, NA, 999, 999, 3, 25, 84, 111, 150, 165, 130, 125, 2, 1.22709
167, 1, bw, catch, NA, 999, 999, 3, 25, 84, 111, 150, 165, 130, 125, 1, 0.488366
167, 1, bw, filler, NA, 999, 999, 3, 26, 175, 193, 143, 82, 182, 78, 1, 1.05085
167, 1, bw, filler, NA, 999, 999, 3, 26, 175, 193, 143, 82, 182, 78, 2, 0.807848
167, 1, bw, attraction, a-b-da, 5, 1, 3, 27, 60, 135, 132, 58, 135, 60, 1, 9.38882
167, 1, bw, attraction, a-b-da, 5, 1, 3, 27, 60, 135, 132, 58, 135, 60, 2, 0.745955
167, 1, bw, attraction, a-b-db, 5, 3, 3, 28, 117, 190, 120, 195, 195, 120, 2, 2.80159
167, 1, bw, attraction, a-b-db, 5, 3, 3, 28, 117, 190, 120, 195, 195, 120, 1, 0.752013
167, 1, bw, attraction, a-b-da, 14, 1, 3, 29, 60, 135, 125, 56, 135, 60, 1, 5.67182
167, 1, bw, attraction, a-b-da, 14, 1, 3, 29, 60, 135, 125, 56, 135, 60, 2, 0.994697
167, 1, bw, attraction, a-b-db, 5, 1, 3, 30, 60, 135, 135, 60, 58, 132, 2, 7.01637
167, 1, bw, attraction, a-b-db, 5, 1, 3, 30, 60, 135, 135, 60, 58, 132, 3, 0.884708
167, 1, bw, attraction, a-b-db, 9, 2, 3, 31, 165, 90, 86, 157, 90, 165, 3, 6.52697
167, 1, bw, attraction, a-b-db, 9, 2, 3, 31, 165, 90, 86, 157, 90, 165, 2, 0.703016
167, 1, bw, filler, NA, 999, 999, 3, 32, 157, 86, 120, 125, 174, 85, 2, 9.81675
167, 1, bw, filler, NA, 999, 999, 3, 32, 157, 86, 120, 125, 174, 85, 1, 0.748222
167, 1, bw, attraction, a-b-db, 9, 1, 3, 33, 60, 135, 135, 60, 57, 129, 1, 8.99603
167, 1, bw, attraction, a-b-db, 9, 1, 3, 33, 60, 135, 135, 60, 57, 129, 3, 0.816486
167, 1, bw, attraction, a-b-da, 14, 3, 3, 34, 195, 120, 120, 195, 181, 111, 2, 0.90957
167, 1, bw, attraction, a-b-da, 14, 3, 3, 34, 195, 120, 120, 195, 181, 111, 3, 0.503941
167, 1, bw, attraction, a-b-da, 5, 3, 3, 35, 195, 120, 190, 117, 120, 195, 1, 8.73754
167, 1, bw, attraction, a-b-da, 5, 3, 3, 35, 195, 120, 190, 117, 120, 195, 2, 0.376817
167, 1, bw, filler, NA, 999, 999, 3, 36, 65, 145, 171, 187, 183, 172, 2, 2.34334
167, 1, bw, filler, NA, 999, 999, 3, 36, 65, 145, 171, 187, 183, 172, 1, 0.607861
167, 1, bw, attraction, a-b-da, 2, 1, 3, 37, 60, 135, 134, 59, 135, 60, 1, 3.03701
167, 1, bw, attraction, a-b-da, 2, 1, 3, 37, 60, 135, 134, 59, 135, 60, 2, 0.482023
167, 1, bw, attraction, a-b-da, 5, 3, 4, 1, 190, 117, 195, 120, 120, 195, 2, 2.51658
167, 1, bw, attraction, a-b-da, 5, 3, 4, 1, 190, 117, 195, 120, 120, 195, 1, 1.25448
167, 1, bw, attraction, a-b-da, 2, 1, 4, 2, 135, 60, 60, 135, 134, 59, 1, 3.48996
167, 1, bw, attraction, a-b-da, 2, 1, 4, 2, 135, 60, 60, 135, 134, 59, 3, 0.740259
167, 1, bw, attraction, a-b-db, 9, 1, 4, 3, 57, 129, 60, 135, 135, 60, 2, 4.32378
167, 1, bw, attraction, a-b-db, 9, 1, 4, 3, 57, 129, 60, 135, 135, 60, 1, 1.18036
167, 1, bw, attraction, a-b-da, 5, 2, 4, 4, 165, 90, 90, 165, 161, 88, 1, 3.40261
167, 1, bw, attraction, a-b-da, 5, 2, 4, 4, 165, 90, 90, 165, 161, 88, 3, 1.12896
167, 1, bw, attraction, a-b-db, 5, 1, 4, 5, 58, 132, 60, 135, 135, 60, 2, 2.62526
167, 1, bw, attraction, a-b-db, 5, 1, 4, 5, 58, 132, 60, 135, 135, 60, 3, 0.950319
167, 1, bw, attraction, a-b-db, 2, 3, 4, 6, 120, 195, 195, 120, 119, 193, 1, 2.96612
167, 1, bw, attraction, a-b-db, 2, 3, 4, 6, 120, 195, 195, 120, 119, 193, 2, 0.6377
167, 1, bw, attraction, a-b-db, 14, 3, 4, 7, 195, 120, 120, 195, 111, 181, 2, 4.15408
167, 1, bw, attraction, a-b-db, 14, 3, 4, 7, 195, 120, 120, 195, 111, 181, 3, 0.6101
167, 1, bw, filler, NA, 999, 999, 4, 8, 109, 83, 172, 64, 140, 149, 3, 1.11123
167, 1, bw, filler, NA, 999, 999, 4, 8, 109, 83, 172, 64, 140, 149, 1, 0.625514
167, 1, bw, catch, NA, 999, 999, 4, 9, 194, 121, 70, 125, 162, 93, 1, 1.04584
167, 1, bw, catch, NA, 999, 999, 4, 9, 194, 121, 70, 125, 162, 93, 2, 1.01896
167, 1, bw, filler, NA, 999, 999, 4, 10, 96, 127, 150, 134, 158, 116, 2, 6.95987
167, 1, bw, filler, NA, 999, 999, 4, 10, 96, 127, 150, 134, 158, 116, 1, 0.462353
167, 1, bw, filler, NA, 999, 999, 4, 11, 83, 86, 155, 79, 62, 78, 2, 1.91347
167, 1, bw, filler, NA, 999, 999, 4, 11, 83, 86, 155, 79, 62, 78, 3, 1.16355
167, 1, bw, catch, NA, 999, 999, 4, 12, 174, 141, 88, 107, 142, 113, 1, 0.738509
167, 1, bw, catch, NA, 999, 999, 4, 12, 174, 141, 88, 107, 142, 113, 2, 0.891509
167, 1, bw, filler, NA, 999, 999, 4, 13, 63, 125, 148, 195, 138, 92, 2, 0.72508
167, 1, bw, filler, NA, 999, 999, 4, 13, 63, 125, 148, 195, 138, 92, 1, 0.710944
167, 1, bw, catch, NA, 999, 999, 4, 14, 98, 157, 152, 163, 123, 72, 2, 1.27989
167, 1, bw, catch, NA, 999, 999, 4, 14, 98, 157, 152, 163, 123, 72, 3, 0.795448
167, 1, bw, attraction, a-b-db, 9, 2, 4, 15, 90, 165, 165, 90, 86, 157, 2, 3.17723
167, 1, bw, attraction, a-b-db, 9, 2, 4, 15, 90, 165, 165, 90, 86, 157, 3, 0.552133
167, 1, bw, attraction, a-b-db, 2, 1, 4, 16, 60, 135, 135, 60, 59, 134, 1, 1.76011
167, 1, bw, attraction, a-b-db, 2, 1, 4, 16, 60, 135, 135, 60, 59, 134, 3, 1.31999
167, 1, bw, attraction, a-b-da, 9, 2, 4, 17, 165, 90, 90, 165, 157, 86, 2, 12.5209
167, 1, bw, attraction, a-b-da, 9, 2, 4, 17, 165, 90, 90, 165, 157, 86, 3, 0.815652
167, 1, bw, attraction, a-b-db, 2, 2, 4, 18, 90, 165, 165, 90, 89, 163, 1, 6.53262
167, 1, bw, attraction, a-b-db, 2, 2, 4, 18, 90, 165, 165, 90, 89, 163, 3, 1.24469
167, 1, bw, attraction, a-b-da, 14, 1, 4, 19, 125, 56, 135, 60, 60, 135, 2, 2.72821
167, 1, bw, attraction, a-b-da, 14, 1, 4, 19, 125, 56, 135, 60, 60, 135, 1, 0.529179
167, 1, bw, attraction, a-b-db, 14, 2, 4, 20, 165, 90, 83, 153, 90, 165, 1, 3.17762
167, 1, bw, attraction, a-b-db, 14, 2, 4, 20, 165, 90, 83, 153, 90, 165, 2, 1.1048
167, 1, bw, attraction, a-b-da, 14, 3, 4, 21, 195, 120, 120, 195, 181, 111, 2, 1.6903
167, 1, bw, attraction, a-b-da, 14, 3, 4, 21, 195, 120, 120, 195, 181, 111, 3, 0.437064
167, 1, bw, filler, NA, 999, 999, 4, 22, 112, 99, 152, 167, 106, 63, 2, 0.62546
167, 1, bw, filler, NA, 999, 999, 4, 22, 112, 99, 152, 167, 106, 63, 3, 0.879234
167, 1, bw, filler, NA, 999, 999, 4, 23, 79, 123, 172, 135, 86, 59, 2, 0.985562
167, 1, bw, filler, NA, 999, 999, 4, 23, 79, 123, 172, 135, 86, 59, 3, 0.553262
167, 1, bw, attraction, a-b-da, 2, 2, 4, 24, 165, 90, 163, 89, 90, 165, 3, 25.009
167, 1, bw, attraction, a-b-da, 2, 2, 4, 24, 165, 90, 163, 89, 90, 165, 2, 0.792474
167, 1, bw, filler, NA, 999, 999, 4, 25, 100, 90, 85, 71, 80, 64, 1, 0.990242
167, 1, bw, filler, NA, 999, 999, 4, 25, 100, 90, 85, 71, 80, 64, 3, 1.84523
167, 1, bw, attraction, a-b-da, 2, 3, 4, 26, 195, 120, 120, 195, 193, 119, 1, 4.57671
167, 1, bw, attraction, a-b-da, 2, 3, 4, 26, 195, 120, 120, 195, 193, 119, 3, 0.535074
167, 1, bw, filler, NA, 999, 999, 4, 27, 194, 91, 110, 59, 84, 70, 1, 0.887512
167, 1, bw, filler, NA, 999, 999, 4, 27, 194, 91, 110, 59, 84, 70, 2, 11.6515
167, 1, bw, filler, NA, 999, 999, 4, 28, 58, 153, 58, 178, 189, 72, 3, 1.01965
167, 1, bw, filler, NA, 999, 999, 4, 28, 58, 153, 58, 178, 189, 72, 1, 0.633925
167, 1, bw, attraction, a-b-da, 14, 2, 4, 29, 90, 165, 165, 90, 153, 83, 2, 2.47027
167, 1, bw, attraction, a-b-da, 14, 2, 4, 29, 90, 165, 165, 90, 153, 83, 3, 0.554114
167, 1, bw, attraction, a-b-db, 5, 3, 4, 30, 195, 120, 117, 190, 120, 195, 1, 5.41003
167, 1, bw, attraction, a-b-db, 5, 3, 4, 30, 195, 120, 117, 190, 120, 195, 2, 0.799004
167, 1, bw, attraction, a-b-da, 5, 1, 4, 31, 60, 135, 135, 60, 132, 58, 2, 7.22059
167, 1, bw, attraction, a-b-da, 5, 1, 4, 31, 60, 135, 135, 60, 132, 58, 3, 0.993067
167, 1, bw, attraction, a-b-db, 5, 2, 4, 32, 165, 90, 88, 161, 90, 165, 2, 1.17453
167, 1, bw, attraction, a-b-db, 5, 2, 4, 32, 165, 90, 88, 161, 90, 165, 3, 0.85424
167, 1, bw, filler, NA, 999, 999, 4, 33, 171, 156, 81, 67, 157, 171, 1, 0.793923
167, 1, bw, filler, NA, 999, 999, 4, 33, 171, 156, 81, 67, 157, 171, 2, 0.688996
167, 1, bw, attraction, a-b-db, 9, 3, 4, 34, 195, 120, 120, 195, 114, 186, 2, 2.66743
167, 1, bw, attraction, a-b-db, 9, 3, 4, 34, 195, 120, 120, 195, 114, 186, 3, 0.607239
167, 1, bw, attraction, a-b-da, 9, 1, 4, 35, 129, 57, 135, 60, 60, 135, 2, 1.71639
167, 1, bw, attraction, a-b-da, 9, 1, 4, 35, 129, 57, 135, 60, 60, 135, 1, 0.510351
167, 1, bw, attraction, a-b-db, 14, 1, 4, 36, 135, 60, 56, 125, 60, 135, 1, 7.2394
167, 1, bw, attraction, a-b-db, 14, 1, 4, 36, 135, 60, 56, 125, 60, 135, 2, 0.603122
167, 1, bw, attraction, a-b-da, 9, 3, 4, 37, 195, 120, 186, 114, 120, 195, 1, 2.56891
167, 1, bw, attraction, a-b-da, 9, 3, 4, 37, 195, 120, 186, 114, 120, 195, 2, 0.456768
167, 1, bw, attraction, a-b-da, 2, 3, 5, 1, 195, 120, 120, 195, 193, 119, 2, 14.7225
167, 1, bw, attraction, a-b-da, 2, 3, 5, 1, 195, 120, 120, 195, 193, 119, 1, 0.656479
167, 1, bw, attraction, a-b-da, 9, 1, 5, 2, 60, 135, 129, 57, 135, 60, 1, 5.04429
167, 1, bw, attraction, a-b-da, 9, 1, 5, 2, 60, 135, 129, 57, 135, 60, 2, 0.560055
167, 1, bw, attraction, a-b-db, 2, 2, 5, 3, 165, 90, 90, 165, 89, 163, 2, 5.31119
167, 1, bw, attraction, a-b-db, 2, 2, 5, 3, 165, 90, 90, 165, 89, 163, 3, 0.400057
167, 1, bw, attraction, a-b-db, 5, 1, 5, 4, 58, 132, 60, 135, 135, 60, 2, 5.42206
167, 1, bw, attraction, a-b-db, 5, 1, 5, 4, 58, 132, 60, 135, 135, 60, 1, 0.667336
167, 1, bw, filler, NA, 999, 999, 5, 5, 165, 99, 172, 118, 156, 174, 3, 1.11799
167, 1, bw, filler, NA, 999, 999, 5, 5, 165, 99, 172, 118, 156, 174, 1, 0.840242
167, 1, bw, catch, NA, 999, 999, 5, 6, 120, 195, 163, 92, 70, 125, 1, 0.98785
167, 1, bw, catch, NA, 999, 999, 5, 6, 120, 195, 163, 92, 70, 125, 3, 0.507588
167, 1, bw, filler, NA, 999, 999, 5, 7, 91, 82, 176, 163, 58, 81, 2, 0.588703
167, 1, bw, filler, NA, 999, 999, 5, 7, 91, 82, 176, 163, 58, 81, 3, 0.667818
167, 1, bw, filler, NA, 999, 999, 5, 8, 156, 149, 105, 166, 167, 176, 3, 0.750958
167, 1, bw, filler, NA, 999, 999, 5, 8, 156, 149, 105, 166, 167, 176, 2, 2.92
167, 1, bw, attraction, a-b-db, 14, 1, 5, 9, 60, 135, 56, 125, 135, 60, 1, 10.1282
167, 1, bw, attraction, a-b-db, 14, 1, 5, 9, 60, 135, 56, 125, 135, 60, 2, 0.655229
167, 1, bw, attraction, a-b-da, 2, 2, 5, 10, 90, 165, 165, 90, 163, 89, 1, 9.39479
167, 1, bw, attraction, a-b-da, 2, 2, 5, 10, 90, 165, 165, 90, 163, 89, 2, 0.49517
167, 1, bw, attraction, a-b-db, 5, 2, 5, 11, 88, 161, 90, 165, 165, 90, 2, 2.61702
167, 1, bw, attraction, a-b-db, 5, 2, 5, 11, 88, 161, 90, 165, 165, 90, 1, 0.518903
167, 1, bw, attraction, a-b-da, 5, 2, 5, 12, 90, 165, 161, 88, 165, 90, 1, 11.4001
167, 1, bw, attraction, a-b-da, 5, 2, 5, 12, 90, 165, 161, 88, 165, 90, 2, 0.379857
167, 1, bw, attraction, a-b-da, 9, 3, 5, 13, 120, 195, 195, 120, 186, 114, 2, 4.02627
167, 1, bw, attraction, a-b-da, 9, 3, 5, 13, 120, 195, 195, 120, 186, 114, 3, 0.462928
167, 1, bw, attraction, a-b-db, 14, 3, 5, 14, 195, 120, 120, 195, 111, 181, 2, 2.51407
167, 1, bw, attraction, a-b-db, 14, 3, 5, 14, 195, 120, 120, 195, 111, 181, 3, 0.291927
167, 1, bw, attraction, a-b-da, 14, 3, 5, 15, 195, 120, 181, 111, 120, 195, 1, 2.5018
167, 1, bw, attraction, a-b-da, 14, 3, 5, 15, 195, 120, 181, 111, 120, 195, 2, 0.592271
167, 1, bw, attraction, a-b-da, 14, 1, 5, 16, 135, 60, 125, 56, 60, 135, 1, 4.26205
167, 1, bw, attraction, a-b-da, 14, 1, 5, 16, 135, 60, 125, 56, 60, 135, 2, 0.457333
167, 1, bw, attraction, a-b-db, 2, 1, 5, 17, 135, 60, 60, 135, 59, 134, 1, 5.5805
167, 1, bw, attraction, a-b-db, 2, 1, 5, 17, 135, 60, 60, 135, 59, 134, 3, 1.61072
167, 1, bw, attraction, a-b-da, 14, 2, 5, 18, 90, 165, 165, 90, 153, 83, 1, 8.23151
167, 1, bw, attraction, a-b-da, 14, 2, 5, 18, 90, 165, 165, 90, 153, 83, 3, 2.8347
167, 1, bw, filler, NA, 999, 999, 5, 19, 111, 176, 90, 170, 86, 140, 1, 0.926664
167, 1, bw, filler, NA, 999, 999, 5, 19, 111, 176, 90, 170, 86, 140, 3, 0.608199
167, 1, bw, attraction, a-b-da, 5, 3, 5, 20, 120, 195, 195, 120, 190, 117, 2, 10.6373
167, 1, bw, attraction, a-b-da, 5, 3, 5, 20, 120, 195, 195, 120, 190, 117, 3, 3.38392
167, 1, bw, filler, NA, 999, 999, 5, 21, 127, 135, 89, 120, 94, 64, 1, 0.907761
167, 1, bw, filler, NA, 999, 999, 5, 21, 127, 135, 89, 120, 94, 64, 3, 0.607862
167, 1, bw, filler, NA, 999, 999, 5, 22, 150, 80, 141, 186, 91, 59, 2, 0.676945
167, 1, bw, filler, NA, 999, 999, 5, 22, 150, 80, 141, 186, 91, 59, 3, 0.664878
167, 1, bw, attraction, a-b-db, 14, 2, 5, 23, 83, 153, 90, 165, 165, 90, 3, 2.31588
167, 1, bw, attraction, a-b-db, 14, 2, 5, 23, 83, 153, 90, 165, 165, 90, 1, 0.749876
167, 1, bw, attraction, a-b-db, 9, 3, 5, 24, 195, 120, 120, 195, 114, 186, 2, 2.59742
167, 1, bw, attraction, a-b-db, 9, 3, 5, 24, 195, 120, 120, 195, 114, 186, 3, 1.06802
167, 1, bw, attraction, a-b-db, 5, 3, 5, 25, 120, 195, 195, 120, 117, 190, 3, 3.31103
167, 1, bw, attraction, a-b-db, 5, 3, 5, 25, 120, 195, 195, 120, 117, 190, 2, 1.00853
167, 1, bw, attraction, a-b-db, 2, 3, 5, 26, 119, 193, 195, 120, 120, 195, 1, 19.9814
167, 1, bw, attraction, a-b-db, 2, 3, 5, 26, 119, 193, 195, 120, 120, 195, 2, 1.39116
167, 1, bw, filler, NA, 999, 999, 5, 27, 147, 188, 153, 181, 64, 90, 1, 1.97259
167, 1, bw, filler, NA, 999, 999, 5, 27, 147, 188, 153, 181, 64, 90, 3, 0.45201
167, 1, bw, attraction, a-b-db, 9, 1, 5, 28, 60, 135, 57, 129, 135, 60, 3, 1.87177
167, 1, bw, attraction, a-b-db, 9, 1, 5, 28, 60, 135, 57, 129, 135, 60, 2, 1.46796
167, 1, bw, attraction, a-b-da, 5, 1, 5, 29, 135, 60, 132, 58, 60, 135, 1, 1.55062
167, 1, bw, attraction, a-b-da, 5, 1, 5, 29, 135, 60, 132, 58, 60, 135, 2, 0.959573
167, 1, bw, attraction, a-b-db, 9, 2, 5, 30, 90, 165, 165, 90, 86, 157, 2, 4.98251
167, 1, bw, attraction, a-b-db, 9, 2, 5, 30, 90, 165, 165, 90, 86, 157, 3, 0.492919
167, 1, bw, filler, NA, 999, 999, 5, 31, 152, 65, 136, 146, 190, 89, 2, 2.77463
167, 1, bw, filler, NA, 999, 999, 5, 31, 152, 65, 136, 146, 190, 89, 1, 0.581759
167, 1, bw, catch, NA, 999, 999, 5, 32, 137, 118, 131, 184, 100, 95, 2, 3.86834
167, 1, bw, catch, NA, 999, 999, 5, 32, 137, 118, 131, 184, 100, 95, 3, 0.559791
167, 1, bw, attraction, a-b-da, 9, 2, 5, 33, 90, 165, 157, 86, 165, 90, 3, 6.43878
167, 1, bw, attraction, a-b-da, 9, 2, 5, 33, 90, 165, 157, 86, 165, 90, 2, 0.650823
167, 1, bw, catch, NA, 999, 999, 5, 34, 182, 133, 60, 135, 150, 105, 1, 0.790385
167, 1, bw, catch, NA, 999, 999, 5, 34, 182, 133, 60, 135, 150, 105, 2, 0.677567
167, 1, bw, filler, NA, 999, 999, 5, 35, 69, 163, 117, 66, 190, 78, 3, 1.25583
167, 1, bw, filler, NA, 999, 999, 5, 35, 69, 163, 117, 66, 190, 78, 2, 0.740268
167, 1, bw, attraction, a-b-da, 2, 1, 5, 36, 60, 135, 134, 59, 135, 60, 3, 9.46786
167, 1, bw, attraction, a-b-da, 2, 1, 5, 36, 60, 135, 134, 59, 135, 60, 1, 0.613544
167, 1, bw, filler, NA, 999, 999, 5, 37, 150, 136, 172, 143, 145, 66, 2, 1.96262
167, 1, bw, filler, NA, 999, 999, 5, 37, 150, 136, 172, 143, 145, 66, 3, 1.2747
167, 1, bw, filler, NA, 999, 999, 6, 1, 112, 112, 75, 107, 166, 61, 1, 2.44482
167, 1, bw, filler, NA, 999, 999, 6, 1, 112, 112, 75, 107, 166, 61, 2, 0.505407
167, 1, bw, attraction, a-b-da, 14, 1, 6, 2, 135, 60, 125, 56, 60, 135, 1, 12.1232
167, 1, bw, attraction, a-b-da, 14, 1, 6, 2, 135, 60, 125, 56, 60, 135, 2, 0.746027
167, 1, bw, attraction, a-b-da, 9, 2, 6, 3, 90, 165, 157, 86, 165, 90, 3, 3.53775
167, 1, bw, attraction, a-b-da, 9, 2, 6, 3, 90, 165, 157, 86, 165, 90, 1, 0.570565
167, 1, bw, attraction, a-b-da, 2, 1, 6, 4, 135, 60, 60, 135, 134, 59, 2, 2.36177
167, 1, bw, attraction, a-b-da, 2, 1, 6, 4, 135, 60, 60, 135, 134, 59, 3, 0.665588
167, 1, bw, attraction, a-b-db, 5, 2, 6, 5, 88, 161, 90, 165, 165, 90, 2, 0.844645
167, 1, bw, attraction, a-b-db, 5, 2, 6, 5, 88, 161, 90, 165, 165, 90, 3, 0.473914
167, 1, bw, filler, NA, 999, 999, 6, 6, 87, 76, 175, 87, 99, 132, 2, 8.66021
167, 1, bw, filler, NA, 999, 999, 6, 6, 87, 76, 175, 87, 99, 132, 1, 0.726155
167, 1, bw, catch, NA, 999, 999, 6, 7, 182, 133, 124, 131, 85, 110, 1, 1.43046
167, 1, bw, catch, NA, 999, 999, 6, 7, 182, 133, 124, 131, 85, 110, 3, 0.635993
167, 1, bw, filler, NA, 999, 999, 6, 8, 183, 139, 92, 78, 146, 86, 1, 0.872443
167, 1, bw, filler, NA, 999, 999, 6, 8, 183, 139, 92, 78, 146, 86, 2, 0.724159
167, 1, bw, filler, NA, 999, 999, 6, 9, 146, 81, 138, 134, 77, 141, 2, 2.34057
167, 1, bw, filler, NA, 999, 999, 6, 9, 146, 81, 138, 134, 77, 141, 3, 0.533138
167, 1, bw, filler, NA, 999, 999, 6, 10, 158, 177, 140, 181, 152, 167, 1, 2.14959
167, 1, bw, filler, NA, 999, 999, 6, 10, 158, 177, 140, 181, 152, 167, 2, 0.454305
167, 1, bw, attraction, a-b-db, 14, 2, 6, 11, 83, 153, 90, 165, 165, 90, 2, 28.866
167, 1, bw, attraction, a-b-db, 14, 2, 6, 11, 83, 153, 90, 165, 165, 90, 1, 0.613542
167, 1, bw, attraction, a-b-db, 2, 2, 6, 12, 165, 90, 89, 163, 90, 165, 1, 6.23471
167, 1, bw, attraction, a-b-db, 2, 2, 6, 12, 165, 90, 89, 163, 90, 165, 2, 0.494785
167, 1, bw, attraction, a-b-da, 9, 1, 6, 13, 60, 135, 135, 60, 129, 57, 1, 1.13659
167, 1, bw, attraction, a-b-da, 9, 1, 6, 13, 60, 135, 135, 60, 129, 57, 2, 1.03423
167, 1, bw, attraction, a-b-da, 14, 3, 6, 14, 181, 111, 120, 195, 195, 120, 3, 3.15845
167, 1, bw, attraction, a-b-da, 14, 3, 6, 14, 181, 111, 120, 195, 195, 120, 1, 0.518007
167, 1, bw, attraction, a-b-db, 9, 3, 6, 15, 195, 120, 120, 195, 114, 186, 2, 5.65517
167, 1, bw, attraction, a-b-db, 9, 3, 6, 15, 195, 120, 120, 195, 114, 186, 3, 0.442812
167, 1, bw, attraction, a-b-da, 5, 3, 6, 16, 120, 195, 195, 120, 190, 117, 2, 1.22251
167, 1, bw, attraction, a-b-da, 5, 3, 6, 16, 120, 195, 195, 120, 190, 117, 1, 0.332043
167, 1, bw, attraction, a-b-da, 9, 3, 6, 17, 186, 114, 195, 120, 120, 195, 3, 2.2047
167, 1, bw, attraction, a-b-da, 9, 3, 6, 17, 186, 114, 195, 120, 120, 195, 1, 1.20329
167, 1, bw, attraction, a-b-db, 14, 3, 6, 18, 120, 195, 111, 181, 195, 120, 1, 2.04077
167, 1, bw, attraction, a-b-db, 14, 3, 6, 18, 120, 195, 111, 181, 195, 120, 2, 0.34966
167, 1, bw, filler, NA, 999, 999, 6, 19, 170, 149, 142, 149, 124, 133, 1, 1.0933
167, 1, bw, filler, NA, 999, 999, 6, 19, 170, 149, 142, 149, 124, 133, 3, 0.456514
167, 1, bw, filler, NA, 999, 999, 6, 20, 162, 182, 75, 150, 146, 135, 1, 1.02015
167, 1, bw, filler, NA, 999, 999, 6, 20, 162, 182, 75, 150, 146, 135, 2, 0.466396
167, 1, bw, attraction, a-b-da, 5, 2, 6, 21, 161, 88, 165, 90, 90, 165, 1, 13.4695
167, 1, bw, attraction, a-b-da, 5, 2, 6, 21, 161, 88, 165, 90, 90, 165, 2, 0.829969
167, 1, bw, attraction, a-b-da, 2, 3, 6, 22, 195, 120, 120, 195, 193, 119, 2, 1.17024
167, 1, bw, attraction, a-b-da, 2, 3, 6, 22, 195, 120, 120, 195, 193, 119, 1, 0.650626
167, 1, bw, catch, NA, 999, 999, 6, 23, 73, 122, 150, 165, 136, 119, 2, 1.04639
167, 1, bw, catch, NA, 999, 999, 6, 23, 73, 122, 150, 165, 136, 119, 1, 0.715398
167, 1, bw, attraction, a-b-da, 5, 1, 6, 24, 60, 135, 132, 58, 135, 60, 1, 2.9404
167, 1, bw, attraction, a-b-da, 5, 1, 6, 24, 60, 135, 132, 58, 135, 60, 2, 1.18067
167, 1, bw, attraction, a-b-db, 5, 3, 6, 25, 117, 190, 195, 120, 120, 195, 2, 2.49895
167, 1, bw, attraction, a-b-db, 5, 3, 6, 25, 117, 190, 195, 120, 120, 195, 3, 1.62147
167, 1, bw, filler, NA, 999, 999, 6, 26, 73, 57, 62, 169, 131, 81, 3, 8.89021
167, 1, bw, filler, NA, 999, 999, 6, 26, 73, 57, 62, 169, 131, 81, 1, 0.883413
167, 1, bw, catch, NA, 999, 999, 6, 27, 94, 101, 103, 152, 140, 175, 3, 1.5019
167, 1, bw, catch, NA, 999, 999, 6, 27, 94, 101, 103, 152, 140, 175, 1, 0.808593
167, 1, bw, attraction, a-b-da, 14, 2, 6, 28, 153, 83, 165, 90, 90, 165, 2, 2.73363
167, 1, bw, attraction, a-b-da, 14, 2, 6, 28, 153, 83, 165, 90, 90, 165, 3, 0.57476
167, 1, bw, attraction, a-b-da, 2, 2, 6, 29, 165, 90, 163, 89, 90, 165, 3, 1.6212
167, 1, bw, attraction, a-b-da, 2, 2, 6, 29, 165, 90, 163, 89, 90, 165, 1, 0.499431
167, 1, bw, attraction, a-b-db, 14, 1, 6, 30, 60, 135, 56, 125, 135, 60, 3, 3.84505
167, 1, bw, attraction, a-b-db, 14, 1, 6, 30, 60, 135, 56, 125, 135, 60, 2, 0.417182
167, 1, bw, filler, NA, 999, 999, 6, 31, 156, 117, 126, 158, 79, 152, 2, 2.32632
167, 1, bw, filler, NA, 999, 999, 6, 31, 156, 117, 126, 158, 79, 152, 3, 0.599739
167, 1, bw, attraction, a-b-db, 5, 1, 6, 32, 60, 135, 135, 60, 58, 132, 1, 14.0053
167, 1, bw, attraction, a-b-db, 5, 1, 6, 32, 60, 135, 135, 60, 58, 132, 3, 0.824439
167, 1, bw, filler, NA, 999, 999, 6, 33, 153, 168, 126, 131, 161, 96, 1, 1.02862
167, 1, bw, filler, NA, 999, 999, 6, 33, 153, 168, 126, 131, 161, 96, 3, 0.338473
167, 1, bw, attraction, a-b-db, 9, 1, 6, 34, 135, 60, 57, 129, 60, 135, 2, 2.17074
167, 1, bw, attraction, a-b-db, 9, 1, 6, 34, 135, 60, 57, 129, 60, 135, 1, 2.87476
167, 1, bw, attraction, a-b-db, 9, 2, 6, 35, 90, 165, 165, 90, 86, 157, 1, 11.0925
167, 1, bw, attraction, a-b-db, 9, 2, 6, 35, 90, 165, 165, 90, 86, 157, 3, 0.572431
167, 1, bw, attraction, a-b-db, 2, 3, 6, 36, 195, 120, 119, 193, 120, 195, 2, 2.29153
167, 1, bw, attraction, a-b-db, 2, 3, 6, 36, 195, 120, 119, 193, 120, 195, 1, 2.00594
167, 1, bw, attraction, a-b-db, 2, 1, 6, 37, 60, 135, 59, 134, 135, 60, 1, 1.65934
167, 1, bw, attraction, a-b-db, 2, 1, 6, 37, 60, 135, 59, 134, 135, 60, 2, 0.399461
167, 1, bw, attraction, a-b-db, 2, 2, 7, 1, 89, 163, 90, 165, 165, 90, 1, 6.06125
167, 1, bw, attraction, a-b-db, 2, 2, 7, 1, 89, 163, 90, 165, 165, 90, 3, 0.383988
167, 1, bw, attraction, a-b-db, 5, 2, 7, 2, 165, 90, 90, 165, 88, 161, 2, 1.91857
167, 1, bw, attraction, a-b-db, 5, 2, 7, 2, 165, 90, 90, 165, 88, 161, 3, 1.35265
167, 1, bw, filler, NA, 999, 999, 7, 3, 183, 60, 184, 183, 134, 69, 2, 0.615995
167, 1, bw, filler, NA, 999, 999, 7, 3, 183, 60, 184, 183, 134, 69, 3, 1.23047
167, 1, bw, attraction, a-b-da, 5, 3, 7, 4, 190, 117, 195, 120, 120, 195, 3, 5.13071
167, 1, bw, attraction, a-b-da, 5, 3, 7, 4, 190, 117, 195, 120, 120, 195, 1, 1.97906
167, 1, bw, filler, NA, 999, 999, 7, 5, 89, 70, 86, 124, 84, 71, 2, 1.47302
167, 1, bw, filler, NA, 999, 999, 7, 5, 89, 70, 86, 124, 84, 71, 3, 1.21263
167, 1, bw, attraction, a-b-da, 14, 1, 7, 6, 125, 56, 135, 60, 60, 135, 3, 3.28951
167, 1, bw, attraction, a-b-da, 14, 1, 7, 6, 125, 56, 135, 60, 60, 135, 1, 1.65979
167, 1, bw, attraction, a-b-db, 5, 3, 7, 7, 120, 195, 195, 120, 117, 190, 1, 18.8785
167, 1, bw, attraction, a-b-db, 5, 3, 7, 7, 120, 195, 195, 120, 117, 190, 3, 0.316621
167, 1, bw, attraction, a-b-da, 14, 2, 7, 8, 90, 165, 153, 83, 165, 90, 1, 3.40579
167, 1, bw, attraction, a-b-da, 14, 2, 7, 8, 90, 165, 153, 83, 165, 90, 2, 0.555437
167, 1, bw, filler, NA, 999, 999, 7, 9, 113, 63, 90, 89, 128, 186, 3, 0.667116
167, 1, bw, filler, NA, 999, 999, 7, 9, 113, 63, 90, 89, 128, 186, 2, 0.559612
167, 1, bw, attraction, a-b-db, 9, 1, 7, 10, 135, 60, 60, 135, 57, 129, 1, 4.99859
167, 1, bw, attraction, a-b-db, 9, 1, 7, 10, 135, 60, 60, 135, 57, 129, 3, 0.644355
167, 1, bw, attraction, a-b-db, 2, 3, 7, 11, 119, 193, 120, 195, 195, 120, 2, 5.76012
167, 1, bw, attraction, a-b-db, 2, 3, 7, 11, 119, 193, 120, 195, 195, 120, 1, 0.551028
167, 1, bw, attraction, a-b-da, 2, 3, 7, 12, 195, 120, 120, 195, 193, 119, 2, 5.63077
167, 1, bw, attraction, a-b-da, 2, 3, 7, 12, 195, 120, 120, 195, 193, 119, 3, 0.611012
167, 1, bw, filler, NA, 999, 999, 7, 13, 132, 175, 106, 87, 90, 163, 1, 0.94405
167, 1, bw, filler, NA, 999, 999, 7, 13, 132, 175, 106, 87, 90, 163, 2, 0.681087
167, 1, bw, filler, NA, 999, 999, 7, 14, 115, 89, 88, 189, 140, 157, 3, 0.963388
167, 1, bw, filler, NA, 999, 999, 7, 14, 115, 89, 88, 189, 140, 157, 1, 0.747783
167, 1, bw, attraction, a-b-da, 5, 1, 7, 15, 60, 135, 132, 58, 135, 60, 1, 10.0276
167, 1, bw, attraction, a-b-da, 5, 1, 7, 15, 60, 135, 132, 58, 135, 60, 2, 0.798325
167, 1, bw, attraction, a-b-da, 9, 1, 7, 16, 129, 57, 60, 135, 135, 60, 3, 5.7321
167, 1, bw, attraction, a-b-da, 9, 1, 7, 16, 129, 57, 60, 135, 135, 60, 2, 0.516217
167, 1, bw, attraction, a-b-da, 5, 2, 7, 17, 90, 165, 161, 88, 165, 90, 1, 2.41328
167, 1, bw, attraction, a-b-da, 5, 2, 7, 17, 90, 165, 161, 88, 165, 90, 2, 0.547163
167, 1, bw, catch, NA, 999, 999, 7, 18, 131, 64, 136, 179, 124, 131, 2, 0.778927
167, 1, bw, catch, NA, 999, 999, 7, 18, 131, 64, 136, 179, 124, 131, 1, 0.666641
167, 1, bw, attraction, a-b-db, 9, 3, 7, 19, 114, 186, 120, 195, 195, 120, 2, 2.37378
167, 1, bw, attraction, a-b-db, 9, 3, 7, 19, 114, 186, 120, 195, 195, 120, 1, 0.412998
167, 1, bw, attraction, a-b-da, 14, 3, 7, 20, 195, 120, 181, 111, 120, 195, 1, 2.35425
167, 1, bw, attraction, a-b-da, 14, 3, 7, 20, 195, 120, 181, 111, 120, 195, 2, 0.386708
167, 1, bw, attraction, a-b-db, 9, 2, 7, 21, 86, 157, 165, 90, 90, 165, 3, 2.08918
167, 1, bw, attraction, a-b-db, 9, 2, 7, 21, 86, 157, 165, 90, 90, 165, 1, 0.427901
167, 1, bw, attraction, a-b-db, 14, 3, 7, 22, 195, 120, 120, 195, 111, 181, 2, 6.16834
167, 1, bw, attraction, a-b-db, 14, 3, 7, 22, 195, 120, 120, 195, 111, 181, 3, 0.359064
167, 1, bw, attraction, a-b-da, 2, 2, 7, 23, 165, 90, 163, 89, 90, 165, 3, 7.03822
167, 1, bw, attraction, a-b-da, 2, 2, 7, 23, 165, 90, 163, 89, 90, 165, 2, 1.25805
167, 1, bw, attraction, a-b-db, 2, 1, 7, 24, 59, 134, 135, 60, 60, 135, 2, 2.89287
167, 1, bw, attraction, a-b-db, 2, 1, 7, 24, 59, 134, 135, 60, 60, 135, 1, 0.599275
167, 1, bw, filler, NA, 999, 999, 7, 25, 113, 131, 82, 99, 195, 168, 3, 0.821156
167, 1, bw, filler, NA, 999, 999, 7, 25, 113, 131, 82, 99, 195, 168, 2, 0.467442
167, 1, bw, filler, NA, 999, 999, 7, 26, 149, 181, 86, 171, 64, 111, 1, 0.926529
167, 1, bw, filler, NA, 999, 999, 7, 26, 149, 181, 86, 171, 64, 111, 3, 0.616184
167, 1, bw, attraction, a-b-db, 5, 1, 7, 27, 135, 60, 58, 132, 60, 135, 3, 13.8854
167, 1, bw, attraction, a-b-db, 5, 1, 7, 27, 135, 60, 58, 132, 60, 135, 2, 0.820903
167, 1, bw, filler, NA, 999, 999, 7, 28, 145, 111, 170, 121, 167, 78, 2, 1.82602
167, 1, bw, filler, NA, 999, 999, 7, 28, 145, 111, 170, 121, 167, 78, 1, 0.423501
167, 1, bw, attraction, a-b-da, 9, 3, 7, 29, 186, 114, 195, 120, 120, 195, 2, 2.05185
167, 1, bw, attraction, a-b-da, 9, 3, 7, 29, 186, 114, 195, 120, 120, 195, 1, 1.41647
167, 1, bw, filler, NA, 999, 999, 7, 30, 183, 117, 152, 153, 126, 120, 2, 1.5013
167, 1, bw, filler, NA, 999, 999, 7, 30, 183, 117, 152, 153, 126, 120, 3, 0.992155
167, 1, bw, filler, NA, 999, 999, 7, 31, 156, 116, 170, 113, 181, 142, 3, 1.13387
167, 1, bw, filler, NA, 999, 999, 7, 31, 156, 116, 170, 113, 181, 142, 1, 1.03956
167, 1, bw, attraction, a-b-da, 2, 1, 7, 32, 60, 135, 134, 59, 135, 60, 1, 3.59586
167, 1, bw, attraction, a-b-da, 2, 1, 7, 32, 60, 135, 134, 59, 135, 60, 3, 0.865886
167, 1, bw, attraction, a-b-da, 9, 2, 7, 33, 165, 90, 90, 165, 157, 86, 2, 2.20145
167, 1, bw, attraction, a-b-da, 9, 2, 7, 33, 165, 90, 90, 165, 157, 86, 3, 0.54754
167, 1, bw, attraction, a-b-db, 14, 1, 7, 34, 56, 125, 60, 135, 135, 60, 2, 2.12338
167, 1, bw, attraction, a-b-db, 14, 1, 7, 34, 56, 125, 60, 135, 135, 60, 1, 2.82853
167, 1, bw, catch, NA, 999, 999, 7, 35, 91, 104, 168, 147, 136, 119, 2, 0.720312
167, 1, bw, catch, NA, 999, 999, 7, 35, 91, 104, 168, 147, 136, 119, 1, 0.906729
167, 1, bw, catch, NA, 999, 999, 7, 36, 107, 148, 95, 100, 194, 121, 3, 0.947697
167, 1, bw, catch, NA, 999, 999, 7, 36, 107, 148, 95, 100, 194, 121, 2, 0.372821
167, 1, bw, attraction, a-b-db, 14, 2, 7, 37, 90, 165, 83, 153, 165, 90, 2, 7.64391
167, 1, bw, attraction, a-b-db, 14, 2, 7, 37, 90, 165, 83, 153, 165, 90, 3, 2.09497
167, 1, bw, attraction, a-b-db, 14, 3, 8, 1, 120, 195, 195, 120, 111, 181, 2, 2.54417
167, 1, bw, attraction, a-b-db, 14, 3, 8, 1, 120, 195, 195, 120, 111, 181, 3, 0.576577
167, 1, bw, filler, NA, 999, 999, 8, 2, 166, 193, 72, 110, 117, 61, 1, 0.695101
167, 1, bw, filler, NA, 999, 999, 8, 2, 166, 193, 72, 110, 117, 61, 3, 1.03411
167, 1, bw, attraction, a-b-db, 5, 3, 8, 3, 117, 190, 195, 120, 120, 195, 2, 3.58244
167, 1, bw, attraction, a-b-db, 5, 3, 8, 3, 117, 190, 195, 120, 120, 195, 1, 1.14123
167, 1, bw, attraction, a-b-db, 14, 2, 8, 4, 165, 90, 83, 153, 90, 165, 1, 7.04501
167, 1, bw, attraction, a-b-db, 14, 2, 8, 4, 165, 90, 83, 153, 90, 165, 2, 0.591966
167, 1, bw, filler, NA, 999, 999, 8, 5, 164, 65, 83, 104, 142, 80, 3, 3.03781
167, 1, bw, filler, NA, 999, 999, 8, 5, 164, 65, 83, 104, 142, 80, 1, 4.62673
167, 1, bw, filler, NA, 999, 999, 8, 6, 102, 100, 188, 154, 107, 135, 2, 0.925871
167, 1, bw, filler, NA, 999, 999, 8, 6, 102, 100, 188, 154, 107, 135, 1, 0.559596
167, 1, bw, attraction, a-b-da, 5, 2, 8, 7, 90, 165, 161, 88, 165, 90, 1, 4.43075
167, 1, bw, attraction, a-b-da, 5, 2, 8, 7, 90, 165, 161, 88, 165, 90, 2, 0.635312
167, 1, bw, attraction, a-b-da, 9, 2, 8, 8, 165, 90, 90, 165, 157, 86, 2, 2.19968
167, 1, bw, attraction, a-b-da, 9, 2, 8, 8, 165, 90, 90, 165, 157, 86, 3, 0.406264
167, 1, bw, attraction, a-b-da, 2, 2, 8, 9, 163, 89, 165, 90, 90, 165, 3, 9.0202
167, 1, bw, attraction, a-b-da, 2, 2, 8, 9, 163, 89, 165, 90, 90, 165, 2, 0.640029
167, 1, bw, attraction, a-b-da, 5, 1, 8, 10, 135, 60, 60, 135, 132, 58, 2, 4.74676
167, 1, bw, attraction, a-b-da, 5, 1, 8, 10, 135, 60, 60, 135, 132, 58, 3, 0.923554
167, 1, bw, filler, NA, 999, 999, 8, 11, 149, 101, 100, 115, 119, 141, 3, 1.88384
167, 1, bw, filler, NA, 999, 999, 8, 11, 149, 101, 100, 115, 119, 141, 2, 1.15121
167, 1, bw, attraction, a-b-db, 2, 2, 8, 12, 165, 90, 89, 163, 90, 165, 2, 4.20675
167, 1, bw, attraction, a-b-db, 2, 2, 8, 12, 165, 90, 89, 163, 90, 165, 1, 0.78807
167, 1, bw, attraction, a-b-da, 14, 1, 8, 13, 60, 135, 135, 60, 125, 56, 1, 8.39446
167, 1, bw, attraction, a-b-da, 14, 1, 8, 13, 60, 135, 135, 60, 125, 56, 3, 1.43127
167, 1, bw, attraction, a-b-da, 5, 3, 8, 14, 190, 117, 195, 120, 120, 195, 3, 9.61132
167, 1, bw, attraction, a-b-da, 5, 3, 8, 14, 190, 117, 195, 120, 120, 195, 2, 0.470935
167, 1, bw, filler, NA, 999, 999, 8, 15, 81, 177, 147, 68, 133, 180, 3, 0.874074
167, 1, bw, filler, NA, 999, 999, 8, 15, 81, 177, 147, 68, 133, 180, 2, 0.469864
167, 1, bw, attraction, a-b-db, 9, 3, 8, 16, 120, 195, 114, 186, 195, 120, 2, 2.90498
167, 1, bw, attraction, a-b-db, 9, 3, 8, 16, 120, 195, 114, 186, 195, 120, 3, 0.595387
167, 1, bw, catch, NA, 999, 999, 8, 17, 182, 133, 97, 158, 133, 62, 1, 0.945012
167, 1, bw, catch, NA, 999, 999, 8, 17, 182, 133, 97, 158, 133, 62, 3, 1.00214
167, 1, bw, filler, NA, 999, 999, 8, 18, 149, 95, 133, 172, 75, 164, 2, 0.839708
167, 1, bw, filler, NA, 999, 999, 8, 18, 149, 95, 133, 172, 75, 164, 1, 1.6928
167, 1, bw, attraction, a-b-db, 5, 2, 8, 19, 88, 161, 165, 90, 90, 165, 3, 2.35024
167, 1, bw, attraction, a-b-db, 5, 2, 8, 19, 88, 161, 165, 90, 90, 165, 2, 0.599384
167, 1, bw, attraction, a-b-da, 14, 2, 8, 20, 165, 90, 153, 83, 90, 165, 1, 2.29248
167, 1, bw, attraction, a-b-da, 14, 2, 8, 20, 165, 90, 153, 83, 90, 165, 2, 0.415109
167, 1, bw, attraction, a-b-db, 2, 3, 8, 21, 119, 193, 120, 195, 195, 120, 2, 1.17223
167, 1, bw, attraction, a-b-db, 2, 3, 8, 21, 119, 193, 120, 195, 195, 120, 1, 0.515744
167, 1, bw, attraction, a-b-da, 9, 3, 8, 22, 186, 114, 120, 195, 195, 120, 3, 2.32494
167, 1, bw, attraction, a-b-da, 9, 3, 8, 22, 186, 114, 120, 195, 195, 120, 1, 0.654211
167, 1, bw, attraction, a-b-db, 9, 2, 8, 23, 165, 90, 90, 165, 86, 157, 2, 1.62588
167, 1, bw, attraction, a-b-db, 9, 2, 8, 23, 165, 90, 90, 165, 86, 157, 3, 0.367433
167, 1, bw, catch, NA, 999, 999, 8, 24, 69, 126, 154, 161, 140, 115, 2, 0.686507
167, 1, bw, catch, NA, 999, 999, 8, 24, 69, 126, 154, 161, 140, 115, 1, 0.39435
167, 1, bw, catch, NA, 999, 999, 8, 25, 92, 163, 139, 176, 103, 92, 2, 0.648295
167, 1, bw, catch, NA, 999, 999, 8, 25, 92, 163, 139, 176, 103, 92, 3, 1.12519
167, 1, bw, filler, NA, 999, 999, 8, 26, 105, 123, 99, 150, 134, 141, 3, 1.58147
167, 1, bw, filler, NA, 999, 999, 8, 26, 105, 123, 99, 150, 134, 141, 1, 0.916945
167, 1, bw, filler, NA, 999, 999, 8, 27, 90, 93, 150, 191, 73, 112, 2, 0.645916
167, 1, bw, filler, NA, 999, 999, 8, 27, 90, 93, 150, 191, 73, 112, 3, 0.603145
167, 1, bw, filler, NA, 999, 999, 8, 28, 162, 187, 112, 61, 126, 101, 1, 0.76082
167, 1, bw, filler, NA, 999, 999, 8, 28, 162, 187, 112, 61, 126, 101, 2, 0.513165
167, 1, bw, attraction, a-b-da, 14, 3, 8, 29, 195, 120, 120, 195, 181, 111, 1, 3.25038
167, 1, bw, attraction, a-b-da, 14, 3, 8, 29, 195, 120, 120, 195, 181, 111, 3, 0.958715
167, 1, bw, attraction, a-b-db, 2, 1, 8, 30, 59, 134, 60, 135, 135, 60, 2, 3.82165
167, 1, bw, attraction, a-b-db, 2, 1, 8, 30, 59, 134, 60, 135, 135, 60, 3, 1.47442
167, 1, bw, attraction, a-b-db, 9, 1, 8, 31, 135, 60, 60, 135, 57, 129, 1, 2.3085
167, 1, bw, attraction, a-b-db, 9, 1, 8, 31, 135, 60, 60, 135, 57, 129, 3, 0.790467
167, 1, bw, attraction, a-b-db, 5, 1, 8, 32, 135, 60, 60, 135, 58, 132, 3, 5.31609
167, 1, bw, attraction, a-b-db, 5, 1, 8, 32, 135, 60, 60, 135, 58, 132, 2, 0.38121
167, 1, bw, attraction, a-b-da, 2, 1, 8, 33, 134, 59, 135, 60, 60, 135, 1, 1.36367
167, 1, bw, attraction, a-b-da, 2, 1, 8, 33, 134, 59, 135, 60, 60, 135, 2, 1.03597
167, 1, bw, filler, NA, 999, 999, 8, 34, 95, 187, 85, 77, 135, 149, 3, 0.608196
167, 1, bw, filler, NA, 999, 999, 8, 34, 95, 187, 85, 77, 135, 149, 2, 0.526668
167, 1, bw, attraction, a-b-db, 14, 1, 8, 35, 56, 125, 60, 135, 135, 60, 2, 5.15893
167, 1, bw, attraction, a-b-db, 14, 1, 8, 35, 56, 125, 60, 135, 135, 60, 1, 0.590084
167, 1, bw, attraction, a-b-da, 9, 1, 8, 36, 135, 60, 129, 57, 60, 135, 1, 1.39587
167, 1, bw, attraction, a-b-da, 9, 1, 8, 36, 135, 60, 129, 57, 60, 135, 2, 0.53061
167, 1, bw, attraction, a-b-da, 2, 3, 8, 37, 193, 119, 195, 120, 120, 195, 3, 4.41912
167, 1, bw, attraction, a-b-da, 2, 3, 8, 37, 193, 119, 195, 120, 120, 195, 2, 0.312374
