sub_n, computer_n, bw_cond, effect, set, distance, diag, block_n, trial_n, h1, w1, h2, w2, h3, w3, choice, rt 
107, 1, bw, practice, NA, 999, 999, 0, 1, 120, 180, 113, 94, 62, 194, 1, 4.6694
107, 1, bw, practice, NA, 999, 999, 0, 1, 120, 180, 113, 94, 62, 194, 3, 29.7366
107, 1, bw, practice, NA, 999, 999, 0, 2, 186, 167, 133, 183, 74, 158, 1, 2.62009
107, 1, bw, practice, NA, 999, 999, 0, 2, 186, 167, 133, 183, 74, 158, 3, 1.76987
107, 1, bw, practice, NA, 999, 999, 0, 3, 89, 92, 140, 155, 132, 66, 2, 1.70258
107, 1, bw, practice, NA, 999, 999, 0, 3, 89, 92, 140, 155, 132, 66, 3, 3.49554
107, 1, bw, attraction, a-b-da, 5, 3, 1, 1, 120, 195, 195, 120, 190, 117, 1, 7.68071
107, 1, bw, attraction, a-b-da, 5, 3, 1, 1, 120, 195, 195, 120, 190, 117, 3, 3.3462
107, 1, bw, attraction, a-b-db, 2, 1, 1, 2, 60, 135, 135, 60, 59, 134, 1, 6.25711
107, 1, bw, attraction, a-b-db, 2, 1, 1, 2, 60, 135, 135, 60, 59, 134, 2, 1.76376
107, 1, bw, catch, NA, 999, 999, 1, 3, 152, 103, 136, 179, 126, 69, 2, 1.4344
107, 1, bw, catch, NA, 999, 999, 1, 3, 152, 103, 136, 179, 126, 69, 3, 1.11195
107, 1, bw, filler, NA, 999, 999, 1, 4, 172, 139, 173, 61, 116, 103, 1, 1.17732
107, 1, bw, filler, NA, 999, 999, 1, 4, 172, 139, 173, 61, 116, 103, 2, 1.72059
107, 1, bw, filler, NA, 999, 999, 1, 5, 187, 162, 139, 157, 79, 73, 1, 0.881359
107, 1, bw, filler, NA, 999, 999, 1, 5, 187, 162, 139, 157, 79, 73, 3, 1.14108
107, 1, bw, attraction, a-b-da, 5, 1, 1, 6, 135, 60, 132, 58, 60, 135, 3, 2.83655
107, 1, bw, attraction, a-b-da, 5, 1, 1, 6, 135, 60, 132, 58, 60, 135, 2, 1.39369
107, 1, bw, attraction, a-b-da, 9, 3, 1, 7, 186, 114, 120, 195, 195, 120, 1, 4.66322
107, 1, bw, attraction, a-b-da, 9, 3, 1, 7, 186, 114, 120, 195, 195, 120, 3, 1.1224
107, 1, bw, attraction, a-b-da, 9, 2, 1, 8, 157, 86, 165, 90, 90, 165, 1, 3.05949
107, 1, bw, attraction, a-b-da, 9, 2, 1, 8, 157, 86, 165, 90, 90, 165, 3, 1.07902
107, 1, bw, attraction, a-b-db, 14, 1, 1, 9, 60, 135, 135, 60, 56, 125, 1, 1.87332
107, 1, bw, attraction, a-b-db, 14, 1, 1, 9, 60, 135, 135, 60, 56, 125, 2, 0.756556
107, 1, bw, attraction, a-b-db, 5, 3, 1, 10, 195, 120, 117, 190, 120, 195, 3, 3.93232
107, 1, bw, attraction, a-b-db, 5, 3, 1, 10, 195, 120, 117, 190, 120, 195, 2, 0.981208
107, 1, bw, filler, NA, 999, 999, 1, 11, 109, 168, 151, 138, 75, 118, 1, 1.0513
107, 1, bw, filler, NA, 999, 999, 1, 11, 109, 168, 151, 138, 75, 118, 3, 1.08833
107, 1, bw, catch, NA, 999, 999, 1, 12, 90, 105, 135, 120, 189, 126, 3, 2.49059
107, 1, bw, catch, NA, 999, 999, 1, 12, 90, 105, 135, 120, 189, 126, 1, 0.789218
107, 1, bw, attraction, a-b-da, 14, 2, 1, 13, 165, 90, 90, 165, 153, 83, 1, 2.5315
107, 1, bw, attraction, a-b-da, 14, 2, 1, 13, 165, 90, 90, 165, 153, 83, 3, 0.660715
107, 1, bw, filler, NA, 999, 999, 1, 14, 177, 96, 167, 176, 136, 152, 2, 1.03173
107, 1, bw, filler, NA, 999, 999, 1, 14, 177, 96, 167, 176, 136, 152, 1, 0.653402
107, 1, bw, attraction, a-b-db, 2, 2, 1, 15, 89, 163, 90, 165, 165, 90, 1, 1.30509
107, 1, bw, attraction, a-b-db, 2, 2, 1, 15, 89, 163, 90, 165, 165, 90, 3, 1.19539
107, 1, bw, attraction, a-b-db, 2, 3, 1, 16, 119, 193, 195, 120, 120, 195, 1, 1.38489
107, 1, bw, attraction, a-b-db, 2, 3, 1, 16, 119, 193, 195, 120, 120, 195, 2, 0.656531
107, 1, bw, attraction, a-b-da, 5, 2, 1, 17, 165, 90, 161, 88, 90, 165, 3, 1.66816
107, 1, bw, attraction, a-b-da, 5, 2, 1, 17, 165, 90, 161, 88, 90, 165, 1, 1.08837
107, 1, bw, attraction, a-b-db, 9, 3, 1, 18, 120, 195, 114, 186, 195, 120, 3, 4.1789
107, 1, bw, attraction, a-b-db, 9, 3, 1, 18, 120, 195, 114, 186, 195, 120, 2, 0.833272
107, 1, bw, attraction, a-b-db, 9, 2, 1, 19, 86, 157, 90, 165, 165, 90, 2, 1.73359
107, 1, bw, attraction, a-b-db, 9, 2, 1, 19, 86, 157, 90, 165, 165, 90, 3, 0.647064
107, 1, bw, attraction, a-b-da, 14, 1, 1, 20, 125, 56, 60, 135, 135, 60, 1, 1.28286
107, 1, bw, attraction, a-b-da, 14, 1, 1, 20, 125, 56, 60, 135, 135, 60, 2, 0.998437
107, 1, bw, attraction, a-b-da, 14, 3, 1, 21, 181, 111, 120, 195, 195, 120, 2, 1.32401
107, 1, bw, attraction, a-b-da, 14, 3, 1, 21, 181, 111, 120, 195, 195, 120, 1, 0.38952
107, 1, bw, attraction, a-b-db, 5, 2, 1, 22, 165, 90, 90, 165, 88, 161, 2, 1.65221
107, 1, bw, attraction, a-b-db, 5, 2, 1, 22, 165, 90, 90, 165, 88, 161, 3, 0.696823
107, 1, bw, attraction, a-b-db, 14, 3, 1, 23, 120, 195, 111, 181, 195, 120, 3, 5.69059
107, 1, bw, attraction, a-b-db, 14, 3, 1, 23, 120, 195, 111, 181, 195, 120, 1, 1.07608
107, 1, bw, attraction, a-b-da, 9, 1, 1, 24, 129, 57, 135, 60, 60, 135, 2, 1.24639
107, 1, bw, attraction, a-b-da, 9, 1, 1, 24, 129, 57, 135, 60, 60, 135, 1, 0.971281
107, 1, bw, attraction, a-b-da, 2, 1, 1, 25, 134, 59, 60, 135, 135, 60, 2, 3.2502
107, 1, bw, attraction, a-b-da, 2, 1, 1, 25, 134, 59, 60, 135, 135, 60, 1, 0.622533
107, 1, bw, attraction, a-b-da, 2, 3, 1, 26, 193, 119, 195, 120, 120, 195, 3, 2.8597
107, 1, bw, attraction, a-b-da, 2, 3, 1, 26, 193, 119, 195, 120, 120, 195, 1, 1.45537
107, 1, bw, catch, NA, 999, 999, 1, 27, 78, 117, 169, 146, 112, 143, 2, 1.89094
107, 1, bw, catch, NA, 999, 999, 1, 27, 78, 117, 169, 146, 112, 143, 1, 0.677581
107, 1, bw, attraction, a-b-db, 9, 1, 1, 28, 57, 129, 135, 60, 60, 135, 3, 3.03192
107, 1, bw, attraction, a-b-db, 9, 1, 1, 28, 57, 129, 135, 60, 60, 135, 2, 0.549009
107, 1, bw, filler, NA, 999, 999, 1, 29, 105, 176, 190, 132, 144, 90, 2, 0.844743
107, 1, bw, filler, NA, 999, 999, 1, 29, 105, 176, 190, 132, 144, 90, 3, 0.721867
107, 1, bw, filler, NA, 999, 999, 1, 30, 62, 137, 190, 97, 153, 171, 3, 0.890866
107, 1, bw, filler, NA, 999, 999, 1, 30, 62, 137, 190, 97, 153, 171, 1, 0.901863
107, 1, bw, filler, NA, 999, 999, 1, 31, 161, 130, 110, 76, 163, 122, 1, 0.703525
107, 1, bw, filler, NA, 999, 999, 1, 31, 161, 130, 110, 76, 163, 122, 2, 0.690748
107, 1, bw, filler, NA, 999, 999, 1, 32, 76, 114, 69, 133, 71, 118, 2, 1.73243
107, 1, bw, filler, NA, 999, 999, 1, 32, 76, 114, 69, 133, 71, 118, 3, 0.485734
107, 1, bw, filler, NA, 999, 999, 1, 33, 88, 178, 150, 183, 58, 69, 2, 1.35227
107, 1, bw, filler, NA, 999, 999, 1, 33, 88, 178, 150, 183, 58, 69, 3, 0.873274
107, 1, bw, attraction, a-b-db, 5, 1, 1, 34, 135, 60, 58, 132, 60, 135, 3, 2.57208
107, 1, bw, attraction, a-b-db, 5, 1, 1, 34, 135, 60, 58, 132, 60, 135, 2, 0.579427
107, 1, bw, filler, NA, 999, 999, 1, 35, 135, 120, 80, 166, 80, 175, 1, 1.12174
107, 1, bw, filler, NA, 999, 999, 1, 35, 135, 120, 80, 166, 80, 175, 2, 0.547353
107, 1, bw, attraction, a-b-db, 14, 2, 1, 36, 165, 90, 83, 153, 90, 165, 3, 1.20305
107, 1, bw, attraction, a-b-db, 14, 2, 1, 36, 165, 90, 83, 153, 90, 165, 1, 0.802103
107, 1, bw, attraction, a-b-da, 2, 2, 1, 37, 163, 89, 90, 165, 165, 90, 3, 0.783734
107, 1, bw, attraction, a-b-da, 2, 2, 1, 37, 163, 89, 90, 165, 165, 90, 1, 1.11166
107, 1, bw, attraction, a-b-da, 2, 3, 2, 1, 193, 119, 120, 195, 195, 120, 1, 1.29638
107, 1, bw, attraction, a-b-da, 2, 3, 2, 1, 193, 119, 120, 195, 195, 120, 3, 0.507272
107, 1, bw, attraction, a-b-da, 5, 1, 2, 2, 60, 135, 132, 58, 135, 60, 1, 1.1484
107, 1, bw, attraction, a-b-da, 5, 1, 2, 2, 60, 135, 132, 58, 135, 60, 3, 0.509394
107, 1, bw, filler, NA, 999, 999, 2, 3, 101, 142, 103, 182, 142, 135, 2, 1.25449
107, 1, bw, filler, NA, 999, 999, 2, 3, 101, 142, 103, 182, 142, 135, 3, 1.61135
107, 1, bw, attraction, a-b-da, 14, 2, 2, 4, 90, 165, 153, 83, 165, 90, 1, 0.864257
107, 1, bw, attraction, a-b-da, 14, 2, 2, 4, 90, 165, 153, 83, 165, 90, 2, 0.468538
107, 1, bw, attraction, a-b-db, 2, 2, 2, 5, 89, 163, 165, 90, 90, 165, 1, 0.887706
107, 1, bw, attraction, a-b-db, 2, 2, 2, 5, 89, 163, 165, 90, 90, 165, 2, 0.635392
107, 1, bw, attraction, a-b-db, 2, 3, 2, 6, 120, 195, 119, 193, 195, 120, 2, 1.34381
107, 1, bw, attraction, a-b-db, 2, 3, 2, 6, 120, 195, 119, 193, 195, 120, 3, 0.680646
107, 1, bw, filler, NA, 999, 999, 2, 7, 93, 161, 126, 113, 144, 129, 3, 1.13916
107, 1, bw, filler, NA, 999, 999, 2, 7, 93, 161, 126, 113, 144, 129, 1, 0.547965
107, 1, bw, attraction, a-b-db, 14, 2, 2, 8, 165, 90, 83, 153, 90, 165, 2, 1.00374
107, 1, bw, attraction, a-b-db, 14, 2, 2, 8, 165, 90, 83, 153, 90, 165, 3, 0.586798
107, 1, bw, attraction, a-b-db, 9, 2, 2, 9, 86, 157, 90, 165, 165, 90, 2, 4.24112
107, 1, bw, attraction, a-b-db, 9, 2, 2, 9, 86, 157, 90, 165, 165, 90, 3, 1.14174
107, 1, bw, attraction, a-b-da, 9, 2, 2, 10, 157, 86, 90, 165, 165, 90, 1, 2.04472
107, 1, bw, attraction, a-b-da, 9, 2, 2, 10, 157, 86, 90, 165, 165, 90, 3, 1.9854
107, 1, bw, filler, NA, 999, 999, 2, 11, 96, 104, 147, 168, 102, 58, 2, 0.943419
107, 1, bw, filler, NA, 999, 999, 2, 11, 96, 104, 147, 168, 102, 58, 3, 2.77642
107, 1, bw, attraction, a-b-da, 14, 3, 2, 12, 181, 111, 195, 120, 120, 195, 1, 2.8062
107, 1, bw, attraction, a-b-da, 14, 3, 2, 12, 181, 111, 195, 120, 120, 195, 3, 2.25204
107, 1, bw, catch, NA, 999, 999, 2, 13, 109, 86, 138, 177, 127, 128, 2, 0.615201
107, 1, bw, catch, NA, 999, 999, 2, 13, 109, 86, 138, 177, 127, 128, 1, 0.629567
107, 1, bw, attraction, a-b-da, 9, 1, 2, 14, 129, 57, 60, 135, 135, 60, 3, 2.71423
107, 1, bw, attraction, a-b-da, 9, 1, 2, 14, 129, 57, 60, 135, 135, 60, 1, 0.651838
107, 1, bw, attraction, a-b-da, 5, 2, 2, 15, 165, 90, 90, 165, 161, 88, 1, 1.40761
107, 1, bw, attraction, a-b-da, 5, 2, 2, 15, 165, 90, 90, 165, 161, 88, 3, 0.76584
107, 1, bw, attraction, a-b-db, 5, 1, 2, 16, 60, 135, 135, 60, 58, 132, 1, 5.58886
107, 1, bw, attraction, a-b-db, 5, 1, 2, 16, 60, 135, 135, 60, 58, 132, 3, 1.21114
107, 1, bw, attraction, a-b-db, 5, 2, 2, 17, 90, 165, 165, 90, 88, 161, 1, 0.839822
107, 1, bw, attraction, a-b-db, 5, 2, 2, 17, 90, 165, 165, 90, 88, 161, 3, 0.811617
107, 1, bw, filler, NA, 999, 999, 2, 18, 155, 77, 88, 111, 184, 192, 3, 0.738066
107, 1, bw, filler, NA, 999, 999, 2, 18, 155, 77, 88, 111, 184, 192, 2, 0.787121
107, 1, bw, attraction, a-b-db, 9, 1, 2, 19, 135, 60, 60, 135, 57, 129, 2, 1.83344
107, 1, bw, attraction, a-b-db, 9, 1, 2, 19, 135, 60, 60, 135, 57, 129, 3, 0.72681
107, 1, bw, filler, NA, 999, 999, 2, 20, 192, 110, 162, 195, 80, 139, 2, 1.13515
107, 1, bw, filler, NA, 999, 999, 2, 20, 192, 110, 162, 195, 80, 139, 3, 0.512824
107, 1, bw, attraction, a-b-db, 2, 1, 2, 21, 135, 60, 60, 135, 59, 134, 2, 1.07398
107, 1, bw, attraction, a-b-db, 2, 1, 2, 21, 135, 60, 60, 135, 59, 134, 3, 0.661571
107, 1, bw, attraction, a-b-db, 9, 3, 2, 22, 114, 186, 120, 195, 195, 120, 3, 1.4406
107, 1, bw, attraction, a-b-db, 9, 3, 2, 22, 114, 186, 120, 195, 195, 120, 1, 0.941482
107, 1, bw, catch, NA, 999, 999, 2, 23, 169, 146, 116, 79, 125, 130, 1, 0.901119
107, 1, bw, catch, NA, 999, 999, 2, 23, 169, 146, 116, 79, 125, 130, 2, 0.696326
107, 1, bw, filler, NA, 999, 999, 2, 24, 59, 111, 191, 79, 169, 68, 2, 0.969851
107, 1, bw, filler, NA, 999, 999, 2, 24, 59, 111, 191, 79, 169, 68, 1, 0.538247
107, 1, bw, filler, NA, 999, 999, 2, 25, 185, 121, 188, 108, 63, 144, 1, 0.986596
107, 1, bw, filler, NA, 999, 999, 2, 25, 185, 121, 188, 108, 63, 144, 3, 0.546324
107, 1, bw, attraction, a-b-da, 2, 2, 2, 26, 163, 89, 90, 165, 165, 90, 2, 0.778121
107, 1, bw, attraction, a-b-da, 2, 2, 2, 26, 163, 89, 90, 165, 165, 90, 3, 1.04198
107, 1, bw, attraction, a-b-da, 14, 1, 2, 27, 60, 135, 125, 56, 135, 60, 2, 0.885566
107, 1, bw, attraction, a-b-da, 14, 1, 2, 27, 60, 135, 125, 56, 135, 60, 3, 1.68125
107, 1, bw, attraction, a-b-db, 14, 3, 2, 28, 111, 181, 120, 195, 195, 120, 1, 1.21125
107, 1, bw, attraction, a-b-db, 14, 3, 2, 28, 111, 181, 120, 195, 195, 120, 3, 0.745562
107, 1, bw, attraction, a-b-db, 5, 3, 2, 29, 117, 190, 120, 195, 195, 120, 1, 0.85726
107, 1, bw, attraction, a-b-db, 5, 3, 2, 29, 117, 190, 120, 195, 195, 120, 3, 0.405573
107, 1, bw, attraction, a-b-da, 2, 1, 2, 30, 60, 135, 134, 59, 135, 60, 1, 0.979399
107, 1, bw, attraction, a-b-da, 2, 1, 2, 30, 60, 135, 134, 59, 135, 60, 3, 0.587214
107, 1, bw, filler, NA, 999, 999, 2, 31, 79, 83, 190, 127, 69, 69, 1, 0.993486
107, 1, bw, filler, NA, 999, 999, 2, 31, 79, 83, 190, 127, 69, 69, 2, 1.08855
107, 1, bw, attraction, a-b-db, 14, 1, 2, 32, 56, 125, 60, 135, 135, 60, 2, 1.80275
107, 1, bw, attraction, a-b-db, 14, 1, 2, 32, 56, 125, 60, 135, 135, 60, 1, 0.577506
107, 1, bw, filler, NA, 999, 999, 2, 33, 174, 147, 166, 87, 128, 122, 1, 0.952016
107, 1, bw, filler, NA, 999, 999, 2, 33, 174, 147, 166, 87, 128, 122, 3, 0.816901
107, 1, bw, attraction, a-b-da, 5, 3, 2, 34, 195, 120, 190, 117, 120, 195, 1, 1.15799
107, 1, bw, attraction, a-b-da, 5, 3, 2, 34, 195, 120, 190, 117, 120, 195, 3, 0.566235
107, 1, bw, attraction, a-b-da, 9, 3, 2, 35, 186, 114, 120, 195, 195, 120, 1, 0.63731
107, 1, bw, attraction, a-b-da, 9, 3, 2, 35, 186, 114, 120, 195, 195, 120, 3, 0.762408
107, 1, bw, filler, NA, 999, 999, 2, 36, 134, 116, 175, 181, 168, 183, 2, 0.713525
107, 1, bw, filler, NA, 999, 999, 2, 36, 134, 116, 175, 181, 168, 183, 1, 0.491948
107, 1, bw, catch, NA, 999, 999, 2, 37, 165, 90, 144, 171, 97, 98, 2, 0.837644
107, 1, bw, catch, NA, 999, 999, 2, 37, 165, 90, 144, 171, 97, 98, 3, 0.4115
107, 1, bw, attraction, a-b-da, 9, 2, 3, 1, 165, 90, 157, 86, 90, 165, 1, 1.08058
107, 1, bw, attraction, a-b-da, 9, 2, 3, 1, 165, 90, 157, 86, 90, 165, 3, 0.396128
107, 1, bw, filler, NA, 999, 999, 3, 2, 58, 138, 57, 140, 86, 195, 3, 2.28993
107, 1, bw, filler, NA, 999, 999, 3, 2, 58, 138, 57, 140, 86, 195, 1, 0.388572
107, 1, bw, catch, NA, 999, 999, 3, 3, 145, 110, 81, 114, 128, 187, 3, 1.26281
107, 1, bw, catch, NA, 999, 999, 3, 3, 145, 110, 81, 114, 128, 187, 2, 0.367329
107, 1, bw, filler, NA, 999, 999, 3, 4, 190, 81, 121, 168, 75, 115, 2, 0.782408
107, 1, bw, filler, NA, 999, 999, 3, 4, 190, 81, 121, 168, 75, 115, 3, 0.502288
107, 1, bw, attraction, a-b-db, 2, 3, 3, 5, 120, 195, 195, 120, 119, 193, 1, 1.06391
107, 1, bw, attraction, a-b-db, 2, 3, 3, 5, 120, 195, 195, 120, 119, 193, 2, 0.404186
107, 1, bw, attraction, a-b-db, 5, 2, 3, 6, 165, 90, 88, 161, 90, 165, 1, 0.84216
107, 1, bw, attraction, a-b-db, 5, 2, 3, 6, 165, 90, 88, 161, 90, 165, 3, 0.495143
107, 1, bw, attraction, a-b-db, 9, 2, 3, 7, 86, 157, 165, 90, 90, 165, 2, 0.824922
107, 1, bw, attraction, a-b-db, 9, 2, 3, 7, 86, 157, 165, 90, 90, 165, 3, 0.598661
107, 1, bw, attraction, a-b-db, 5, 3, 3, 8, 120, 195, 195, 120, 117, 190, 2, 0.988366
107, 1, bw, attraction, a-b-db, 5, 3, 3, 8, 120, 195, 195, 120, 117, 190, 3, 0.387464
107, 1, bw, attraction, a-b-db, 5, 1, 3, 9, 58, 132, 60, 135, 135, 60, 3, 1.47387
107, 1, bw, attraction, a-b-db, 5, 1, 3, 9, 58, 132, 60, 135, 135, 60, 1, 0.565424
107, 1, bw, filler, NA, 999, 999, 3, 10, 148, 151, 132, 115, 131, 193, 1, 0.988532
107, 1, bw, filler, NA, 999, 999, 3, 10, 148, 151, 132, 115, 131, 193, 2, 0.483484
107, 1, bw, attraction, a-b-db, 9, 1, 3, 11, 135, 60, 57, 129, 60, 135, 1, 1.18995
107, 1, bw, attraction, a-b-db, 9, 1, 3, 11, 135, 60, 57, 129, 60, 135, 2, 0.412961
107, 1, bw, attraction, a-b-db, 14, 1, 3, 12, 135, 60, 56, 125, 60, 135, 2, 0.634025
107, 1, bw, attraction, a-b-db, 14, 1, 3, 12, 135, 60, 56, 125, 60, 135, 3, 0.680012
107, 1, bw, catch, NA, 999, 999, 3, 13, 168, 147, 112, 143, 86, 109, 1, 0.682156
107, 1, bw, catch, NA, 999, 999, 3, 13, 168, 147, 112, 143, 86, 109, 3, 0.870113
107, 1, bw, filler, NA, 999, 999, 3, 14, 114, 56, 74, 183, 173, 147, 3, 0.753045
107, 1, bw, filler, NA, 999, 999, 3, 14, 114, 56, 74, 183, 173, 147, 1, 1.20219
107, 1, bw, attraction, a-b-da, 2, 1, 3, 15, 60, 135, 135, 60, 134, 59, 1, 0.807611
107, 1, bw, attraction, a-b-da, 2, 1, 3, 15, 60, 135, 135, 60, 134, 59, 3, 0.598055
107, 1, bw, attraction, a-b-db, 14, 2, 3, 16, 90, 165, 83, 153, 165, 90, 1, 0.811692
107, 1, bw, attraction, a-b-db, 14, 2, 3, 16, 90, 165, 83, 153, 165, 90, 3, 0.994212
107, 1, bw, filler, NA, 999, 999, 3, 17, 60, 63, 178, 164, 118, 104, 2, 0.695992
107, 1, bw, filler, NA, 999, 999, 3, 17, 60, 63, 178, 164, 118, 104, 1, 0.434867
107, 1, bw, filler, NA, 999, 999, 3, 18, 122, 163, 192, 193, 139, 96, 2, 0.679256
107, 1, bw, filler, NA, 999, 999, 3, 18, 122, 163, 192, 193, 139, 96, 3, 0.515144
107, 1, bw, filler, NA, 999, 999, 3, 19, 89, 154, 140, 87, 94, 65, 1, 1.06817
107, 1, bw, filler, NA, 999, 999, 3, 19, 89, 154, 140, 87, 94, 65, 3, 0.640584
107, 1, bw, attraction, a-b-db, 2, 2, 3, 20, 90, 165, 89, 163, 165, 90, 1, 1.65228
107, 1, bw, attraction, a-b-db, 2, 2, 3, 20, 90, 165, 89, 163, 165, 90, 3, 0.633103
107, 1, bw, attraction, a-b-da, 5, 2, 3, 21, 90, 165, 165, 90, 161, 88, 1, 0.941391
107, 1, bw, attraction, a-b-da, 5, 2, 3, 21, 90, 165, 165, 90, 161, 88, 3, 0.502501
107, 1, bw, attraction, a-b-da, 9, 1, 3, 22, 60, 135, 129, 57, 135, 60, 1, 0.648146
107, 1, bw, attraction, a-b-da, 9, 1, 3, 22, 60, 135, 129, 57, 135, 60, 3, 0.637347
107, 1, bw, attraction, a-b-db, 9, 3, 3, 23, 120, 195, 114, 186, 195, 120, 1, 0.649806
107, 1, bw, attraction, a-b-db, 9, 3, 3, 23, 120, 195, 114, 186, 195, 120, 3, 0.710831
107, 1, bw, attraction, a-b-da, 14, 3, 3, 24, 181, 111, 195, 120, 120, 195, 2, 1.18394
107, 1, bw, attraction, a-b-da, 14, 3, 3, 24, 181, 111, 195, 120, 120, 195, 1, 0.407628
107, 1, bw, attraction, a-b-db, 2, 1, 3, 25, 60, 135, 59, 134, 135, 60, 2, 0.836667
107, 1, bw, attraction, a-b-db, 2, 1, 3, 25, 60, 135, 59, 134, 135, 60, 3, 0.562383
107, 1, bw, filler, NA, 999, 999, 3, 26, 169, 79, 127, 99, 117, 69, 1, 0.561414
107, 1, bw, filler, NA, 999, 999, 3, 26, 169, 79, 127, 99, 117, 69, 3, 0.377879
107, 1, bw, filler, NA, 999, 999, 3, 27, 146, 83, 109, 73, 73, 117, 1, 0.600438
107, 1, bw, filler, NA, 999, 999, 3, 27, 146, 83, 109, 73, 73, 117, 3, 1.72758
107, 1, bw, catch, NA, 999, 999, 3, 28, 147, 108, 126, 189, 72, 123, 2, 0.94368
107, 1, bw, catch, NA, 999, 999, 3, 28, 147, 108, 126, 189, 72, 123, 3, 0.616633
107, 1, bw, attraction, a-b-da, 2, 2, 3, 29, 165, 90, 90, 165, 163, 89, 1, 0.693648
107, 1, bw, attraction, a-b-da, 2, 2, 3, 29, 165, 90, 90, 165, 163, 89, 3, 0.416808
107, 1, bw, attraction, a-b-da, 5, 1, 3, 30, 135, 60, 132, 58, 60, 135, 2, 0.805982
107, 1, bw, attraction, a-b-da, 5, 1, 3, 30, 135, 60, 132, 58, 60, 135, 3, 0.420297
107, 1, bw, attraction, a-b-da, 2, 3, 3, 31, 120, 195, 195, 120, 193, 119, 2, 0.545423
107, 1, bw, attraction, a-b-da, 2, 3, 3, 31, 120, 195, 195, 120, 193, 119, 3, 0.522548
107, 1, bw, filler, NA, 999, 999, 3, 32, 181, 131, 191, 116, 177, 190, 3, 0.907772
107, 1, bw, filler, NA, 999, 999, 3, 32, 181, 131, 191, 116, 177, 190, 1, 0.406108
107, 1, bw, attraction, a-b-da, 9, 3, 3, 33, 186, 114, 120, 195, 195, 120, 2, 0.515996
107, 1, bw, attraction, a-b-da, 9, 3, 3, 33, 186, 114, 120, 195, 195, 120, 3, 0.406372
107, 1, bw, attraction, a-b-da, 14, 1, 3, 34, 60, 135, 125, 56, 135, 60, 1, 0.492138
107, 1, bw, attraction, a-b-da, 14, 1, 3, 34, 60, 135, 125, 56, 135, 60, 3, 0.607442
107, 1, bw, attraction, a-b-db, 14, 3, 3, 35, 195, 120, 111, 181, 120, 195, 2, 0.588398
107, 1, bw, attraction, a-b-db, 14, 3, 3, 35, 195, 120, 111, 181, 120, 195, 3, 0.403589
107, 1, bw, attraction, a-b-da, 14, 2, 3, 36, 90, 165, 165, 90, 153, 83, 1, 1.43333
107, 1, bw, attraction, a-b-da, 14, 2, 3, 36, 90, 165, 165, 90, 153, 83, 3, 0.494904
107, 1, bw, attraction, a-b-da, 5, 3, 3, 37, 195, 120, 120, 195, 190, 117, 1, 0.808675
107, 1, bw, attraction, a-b-da, 5, 3, 3, 37, 195, 120, 120, 195, 190, 117, 3, 1.14317
107, 1, bw, attraction, a-b-da, 9, 2, 4, 1, 157, 86, 90, 165, 165, 90, 1, 0.894539
107, 1, bw, attraction, a-b-da, 9, 2, 4, 1, 157, 86, 90, 165, 165, 90, 3, 2.00165
107, 1, bw, catch, NA, 999, 999, 4, 2, 82, 113, 165, 90, 177, 138, 3, 0.726945
107, 1, bw, catch, NA, 999, 999, 4, 2, 82, 113, 165, 90, 177, 138, 1, 0.840771
107, 1, bw, attraction, a-b-db, 5, 3, 4, 3, 195, 120, 117, 190, 120, 195, 1, 1.10045
107, 1, bw, attraction, a-b-db, 5, 3, 4, 3, 195, 120, 117, 190, 120, 195, 3, 0.959407
107, 1, bw, attraction, a-b-db, 5, 1, 4, 4, 135, 60, 60, 135, 58, 132, 1, 0.534317
107, 1, bw, attraction, a-b-db, 5, 1, 4, 4, 135, 60, 60, 135, 58, 132, 3, 0.912331
107, 1, bw, attraction, a-b-da, 9, 1, 4, 5, 129, 57, 60, 135, 135, 60, 1, 0.481072
107, 1, bw, attraction, a-b-da, 9, 1, 4, 5, 129, 57, 60, 135, 135, 60, 3, 1.29298
107, 1, bw, filler, NA, 999, 999, 4, 6, 90, 105, 148, 155, 195, 134, 2, 1.07058
107, 1, bw, filler, NA, 999, 999, 4, 6, 90, 105, 148, 155, 195, 134, 1, 0.810802
107, 1, bw, attraction, a-b-da, 14, 2, 4, 7, 90, 165, 165, 90, 153, 83, 1, 1.09588
107, 1, bw, attraction, a-b-da, 14, 2, 4, 7, 90, 165, 165, 90, 153, 83, 3, 0.506787
107, 1, bw, filler, NA, 999, 999, 4, 8, 131, 148, 76, 110, 84, 155, 1, 0.651844
107, 1, bw, filler, NA, 999, 999, 4, 8, 131, 148, 76, 110, 84, 155, 2, 0.673075
107, 1, bw, filler, NA, 999, 999, 4, 9, 144, 184, 147, 122, 193, 140, 3, 0.764102
107, 1, bw, filler, NA, 999, 999, 4, 9, 144, 184, 147, 122, 193, 140, 2, 0.508457
107, 1, bw, attraction, a-b-da, 14, 1, 4, 10, 125, 56, 135, 60, 60, 135, 3, 1.3656
107, 1, bw, attraction, a-b-da, 14, 1, 4, 10, 125, 56, 135, 60, 60, 135, 2, 0.645795
107, 1, bw, filler, NA, 999, 999, 4, 11, 103, 167, 115, 150, 86, 112, 2, 0.769533
107, 1, bw, filler, NA, 999, 999, 4, 11, 103, 167, 115, 150, 86, 112, 3, 0.345881
107, 1, bw, attraction, a-b-db, 14, 1, 4, 12, 56, 125, 135, 60, 60, 135, 3, 1.26592
107, 1, bw, attraction, a-b-db, 14, 1, 4, 12, 56, 125, 135, 60, 60, 135, 1, 0.886026
107, 1, bw, filler, NA, 999, 999, 4, 13, 91, 120, 136, 61, 134, 140, 3, 0.408374
107, 1, bw, filler, NA, 999, 999, 4, 13, 91, 120, 136, 61, 134, 140, 1, 0.558901
107, 1, bw, attraction, a-b-da, 5, 3, 4, 14, 120, 195, 190, 117, 195, 120, 1, 0.982041
107, 1, bw, attraction, a-b-da, 5, 3, 4, 14, 120, 195, 190, 117, 195, 120, 3, 0.517716
107, 1, bw, attraction, a-b-db, 5, 2, 4, 15, 165, 90, 90, 165, 88, 161, 1, 2.20681
107, 1, bw, attraction, a-b-db, 5, 2, 4, 15, 165, 90, 90, 165, 88, 161, 3, 0.540766
107, 1, bw, attraction, a-b-db, 14, 2, 4, 16, 165, 90, 90, 165, 83, 153, 1, 0.60445
107, 1, bw, attraction, a-b-db, 14, 2, 4, 16, 165, 90, 90, 165, 83, 153, 3, 0.522947
107, 1, bw, attraction, a-b-da, 2, 2, 4, 17, 165, 90, 163, 89, 90, 165, 1, 0.475984
107, 1, bw, attraction, a-b-da, 2, 2, 4, 17, 165, 90, 163, 89, 90, 165, 3, 0.599933
107, 1, bw, filler, NA, 999, 999, 4, 18, 133, 142, 107, 183, 143, 91, 1, 1.18963
107, 1, bw, filler, NA, 999, 999, 4, 18, 133, 142, 107, 183, 143, 91, 3, 0.740532
107, 1, bw, attraction, a-b-db, 9, 1, 4, 19, 135, 60, 57, 129, 60, 135, 3, 0.764381
107, 1, bw, attraction, a-b-db, 9, 1, 4, 19, 135, 60, 57, 129, 60, 135, 1, 0.468603
107, 1, bw, attraction, a-b-db, 14, 3, 4, 20, 111, 181, 195, 120, 120, 195, 3, 0.679771
107, 1, bw, attraction, a-b-db, 14, 3, 4, 20, 111, 181, 195, 120, 120, 195, 1, 0.507481
107, 1, bw, filler, NA, 999, 999, 4, 21, 76, 122, 67, 68, 98, 98, 1, 1.03662
107, 1, bw, filler, NA, 999, 999, 4, 21, 76, 122, 67, 68, 98, 98, 3, 0.602368
107, 1, bw, catch, NA, 999, 999, 4, 22, 117, 78, 129, 126, 139, 176, 3, 0.928071
107, 1, bw, catch, NA, 999, 999, 4, 22, 117, 78, 129, 126, 139, 176, 1, 0.48974
107, 1, bw, attraction, a-b-db, 9, 3, 4, 23, 120, 195, 195, 120, 114, 186, 2, 0.820207
107, 1, bw, attraction, a-b-db, 9, 3, 4, 23, 120, 195, 195, 120, 114, 186, 3, 0.330566
107, 1, bw, filler, NA, 999, 999, 4, 24, 140, 130, 160, 179, 186, 127, 2, 1.51503
107, 1, bw, filler, NA, 999, 999, 4, 24, 140, 130, 160, 179, 186, 127, 1, 0.509204
107, 1, bw, filler, NA, 999, 999, 4, 25, 65, 172, 181, 129, 193, 161, 3, 0.702318
107, 1, bw, filler, NA, 999, 999, 4, 25, 65, 172, 181, 129, 193, 161, 1, 0.617454
107, 1, bw, attraction, a-b-db, 2, 1, 4, 26, 60, 135, 135, 60, 59, 134, 2, 0.598471
107, 1, bw, attraction, a-b-db, 2, 1, 4, 26, 60, 135, 135, 60, 59, 134, 3, 0.373695
107, 1, bw, filler, NA, 999, 999, 4, 27, 159, 139, 154, 86, 127, 176, 1, 0.620062
107, 1, bw, filler, NA, 999, 999, 4, 27, 159, 139, 154, 86, 127, 176, 2, 1.60263
107, 1, bw, catch, NA, 999, 999, 4, 28, 146, 109, 92, 103, 184, 131, 3, 0.831993
107, 1, bw, catch, NA, 999, 999, 4, 28, 146, 109, 92, 103, 184, 131, 2, 0.357809
107, 1, bw, attraction, a-b-da, 5, 1, 4, 29, 135, 60, 60, 135, 132, 58, 3, 0.772888
107, 1, bw, attraction, a-b-da, 5, 1, 4, 29, 135, 60, 60, 135, 132, 58, 2, 0.516632
107, 1, bw, attraction, a-b-db, 2, 3, 4, 30, 195, 120, 120, 195, 119, 193, 1, 1.06175
107, 1, bw, attraction, a-b-db, 2, 3, 4, 30, 195, 120, 120, 195, 119, 193, 2, 0.383429
107, 1, bw, attraction, a-b-db, 2, 2, 4, 31, 89, 163, 90, 165, 165, 90, 1, 0.720506
107, 1, bw, attraction, a-b-db, 2, 2, 4, 31, 89, 163, 90, 165, 165, 90, 2, 0.427012
107, 1, bw, attraction, a-b-da, 5, 2, 4, 32, 161, 88, 90, 165, 165, 90, 1, 0.719575
107, 1, bw, attraction, a-b-da, 5, 2, 4, 32, 161, 88, 90, 165, 165, 90, 2, 0.442003
107, 1, bw, attraction, a-b-db, 9, 2, 4, 33, 165, 90, 90, 165, 86, 157, 1, 0.469613
107, 1, bw, attraction, a-b-db, 9, 2, 4, 33, 165, 90, 90, 165, 86, 157, 2, 0.482193
107, 1, bw, attraction, a-b-da, 2, 1, 4, 34, 134, 59, 60, 135, 135, 60, 1, 0.548747
107, 1, bw, attraction, a-b-da, 2, 1, 4, 34, 134, 59, 60, 135, 135, 60, 2, 0.589768
107, 1, bw, attraction, a-b-da, 14, 3, 4, 35, 195, 120, 120, 195, 181, 111, 2, 0.636164
107, 1, bw, attraction, a-b-da, 14, 3, 4, 35, 195, 120, 120, 195, 181, 111, 3, 0.577975
107, 1, bw, attraction, a-b-da, 2, 3, 4, 36, 120, 195, 195, 120, 193, 119, 2, 0.608474
107, 1, bw, attraction, a-b-da, 2, 3, 4, 36, 120, 195, 195, 120, 193, 119, 3, 0.478881
107, 1, bw, attraction, a-b-da, 9, 3, 4, 37, 186, 114, 195, 120, 120, 195, 2, 0.489321
107, 1, bw, attraction, a-b-da, 9, 3, 4, 37, 186, 114, 195, 120, 120, 195, 3, 0.420441
107, 1, bw, attraction, a-b-db, 2, 3, 5, 1, 195, 120, 120, 195, 119, 193, 2, 3.34349
107, 1, bw, attraction, a-b-db, 2, 3, 5, 1, 195, 120, 120, 195, 119, 193, 3, 1.33585
107, 1, bw, attraction, a-b-db, 14, 1, 5, 2, 56, 125, 135, 60, 60, 135, 2, 1.1762
107, 1, bw, attraction, a-b-db, 14, 1, 5, 2, 56, 125, 135, 60, 60, 135, 3, 0.615592
107, 1, bw, filler, NA, 999, 999, 5, 3, 56, 146, 78, 83, 71, 77, 1, 1.52482
107, 1, bw, filler, NA, 999, 999, 5, 3, 56, 146, 78, 83, 71, 77, 2, 0.398205
107, 1, bw, attraction, a-b-da, 5, 2, 5, 4, 90, 165, 165, 90, 161, 88, 2, 0.891999
107, 1, bw, attraction, a-b-da, 5, 2, 5, 4, 90, 165, 165, 90, 161, 88, 3, 0.479017
107, 1, bw, attraction, a-b-da, 14, 3, 5, 5, 181, 111, 195, 120, 120, 195, 2, 0.657494
107, 1, bw, attraction, a-b-da, 14, 3, 5, 5, 181, 111, 195, 120, 120, 195, 1, 0.574011
107, 1, bw, attraction, a-b-da, 9, 3, 5, 6, 120, 195, 186, 114, 195, 120, 2, 0.820357
107, 1, bw, attraction, a-b-da, 9, 3, 5, 6, 120, 195, 186, 114, 195, 120, 1, 0.59467
107, 1, bw, attraction, a-b-db, 5, 1, 5, 7, 60, 135, 135, 60, 58, 132, 2, 0.640475
107, 1, bw, attraction, a-b-db, 5, 1, 5, 7, 60, 135, 135, 60, 58, 132, 1, 0.485639
107, 1, bw, filler, NA, 999, 999, 5, 8, 158, 131, 148, 134, 142, 135, 2, 0.512102
107, 1, bw, filler, NA, 999, 999, 5, 8, 158, 131, 148, 134, 142, 135, 3, 0.418546
107, 1, bw, attraction, a-b-da, 2, 2, 5, 9, 90, 165, 165, 90, 163, 89, 2, 0.815659
107, 1, bw, attraction, a-b-da, 2, 2, 5, 9, 90, 165, 165, 90, 163, 89, 3, 1.39011
107, 1, bw, attraction, a-b-db, 14, 3, 5, 10, 120, 195, 195, 120, 111, 181, 2, 0.516204
107, 1, bw, attraction, a-b-db, 14, 3, 5, 10, 120, 195, 195, 120, 111, 181, 1, 0.414878
107, 1, bw, attraction, a-b-db, 5, 2, 5, 11, 88, 161, 165, 90, 90, 165, 2, 0.563897
107, 1, bw, attraction, a-b-db, 5, 2, 5, 11, 88, 161, 165, 90, 90, 165, 3, 0.372417
107, 1, bw, attraction, a-b-db, 2, 1, 5, 12, 135, 60, 59, 134, 60, 135, 2, 0.61942
107, 1, bw, attraction, a-b-db, 2, 1, 5, 12, 135, 60, 59, 134, 60, 135, 3, 0.529877
107, 1, bw, attraction, a-b-da, 9, 1, 5, 13, 60, 135, 135, 60, 129, 57, 2, 0.746407
107, 1, bw, attraction, a-b-da, 9, 1, 5, 13, 60, 135, 135, 60, 129, 57, 1, 0.427518
107, 1, bw, attraction, a-b-da, 2, 1, 5, 14, 60, 135, 135, 60, 134, 59, 2, 0.599992
107, 1, bw, attraction, a-b-da, 2, 1, 5, 14, 60, 135, 135, 60, 134, 59, 3, 0.767018
107, 1, bw, attraction, a-b-da, 14, 2, 5, 15, 165, 90, 90, 165, 153, 83, 2, 0.462074
107, 1, bw, attraction, a-b-da, 14, 2, 5, 15, 165, 90, 90, 165, 153, 83, 3, 1.34657
107, 1, bw, attraction, a-b-da, 5, 3, 5, 16, 190, 117, 195, 120, 120, 195, 2, 1.59419
107, 1, bw, attraction, a-b-da, 5, 3, 5, 16, 190, 117, 195, 120, 120, 195, 1, 1.66496
107, 1, bw, filler, NA, 999, 999, 5, 17, 113, 117, 106, 116, 134, 171, 3, 0.763687
107, 1, bw, filler, NA, 999, 999, 5, 17, 113, 117, 106, 116, 134, 171, 2, 0.652159
107, 1, bw, attraction, a-b-da, 14, 1, 5, 18, 125, 56, 60, 135, 135, 60, 3, 1.16773
107, 1, bw, attraction, a-b-da, 14, 1, 5, 18, 125, 56, 60, 135, 135, 60, 2, 0.424142
107, 1, bw, filler, NA, 999, 999, 5, 19, 143, 161, 190, 59, 193, 119, 1, 0.76447
107, 1, bw, filler, NA, 999, 999, 5, 19, 143, 161, 190, 59, 193, 119, 2, 1.22895
107, 1, bw, filler, NA, 999, 999, 5, 20, 192, 125, 138, 131, 76, 66, 1, 0.74528
107, 1, bw, filler, NA, 999, 999, 5, 20, 192, 125, 138, 131, 76, 66, 3, 0.442274
107, 1, bw, attraction, a-b-da, 5, 1, 5, 21, 132, 58, 60, 135, 135, 60, 2, 1.00604
107, 1, bw, attraction, a-b-da, 5, 1, 5, 21, 132, 58, 60, 135, 135, 60, 1, 0.764348
107, 1, bw, attraction, a-b-db, 5, 3, 5, 22, 195, 120, 120, 195, 117, 190, 1, 1.04341
107, 1, bw, attraction, a-b-db, 5, 3, 5, 22, 195, 120, 120, 195, 117, 190, 3, 0.464361
107, 1, bw, attraction, a-b-db, 9, 3, 5, 23, 195, 120, 114, 186, 120, 195, 2, 0.71558
107, 1, bw, attraction, a-b-db, 9, 3, 5, 23, 195, 120, 114, 186, 120, 195, 1, 0.566011
107, 1, bw, attraction, a-b-da, 9, 2, 5, 24, 90, 165, 165, 90, 157, 86, 2, 0.661065
107, 1, bw, attraction, a-b-da, 9, 2, 5, 24, 90, 165, 165, 90, 157, 86, 3, 0.513452
107, 1, bw, catch, NA, 999, 999, 5, 25, 65, 130, 170, 145, 102, 153, 2, 0.410597
107, 1, bw, catch, NA, 999, 999, 5, 25, 65, 130, 170, 145, 102, 153, 1, 0.489016
107, 1, bw, attraction, a-b-db, 9, 2, 5, 26, 90, 165, 165, 90, 86, 157, 1, 0.84351
107, 1, bw, attraction, a-b-db, 9, 2, 5, 26, 90, 165, 165, 90, 86, 157, 2, 0.440724
107, 1, bw, attraction, a-b-db, 9, 1, 5, 27, 135, 60, 60, 135, 57, 129, 2, 0.95635
107, 1, bw, attraction, a-b-db, 9, 1, 5, 27, 135, 60, 60, 135, 57, 129, 1, 0.916756
107, 1, bw, catch, NA, 999, 999, 5, 28, 144, 111, 70, 125, 162, 153, 3, 0.581737
107, 1, bw, catch, NA, 999, 999, 5, 28, 144, 111, 70, 125, 162, 153, 2, 0.493578
107, 1, bw, filler, NA, 999, 999, 5, 29, 89, 105, 164, 190, 118, 110, 2, 0.703263
107, 1, bw, filler, NA, 999, 999, 5, 29, 89, 105, 164, 190, 118, 110, 1, 0.65035
107, 1, bw, filler, NA, 999, 999, 5, 30, 108, 83, 87, 74, 184, 57, 1, 1.68607
107, 1, bw, filler, NA, 999, 999, 5, 30, 108, 83, 87, 74, 184, 57, 2, 0.697645
107, 1, bw, filler, NA, 999, 999, 5, 31, 109, 179, 120, 144, 72, 195, 1, 1.51529
107, 1, bw, filler, NA, 999, 999, 5, 31, 109, 179, 120, 144, 72, 195, 3, 0.429601
107, 1, bw, attraction, a-b-da, 2, 3, 5, 32, 120, 195, 193, 119, 195, 120, 2, 1.16986
107, 1, bw, attraction, a-b-da, 2, 3, 5, 32, 120, 195, 193, 119, 195, 120, 1, 0.458253
107, 1, bw, attraction, a-b-db, 14, 2, 5, 33, 83, 153, 165, 90, 90, 165, 2, 1.41339
107, 1, bw, attraction, a-b-db, 14, 2, 5, 33, 83, 153, 165, 90, 90, 165, 1, 0.635623
107, 1, bw, filler, NA, 999, 999, 5, 34, 190, 129, 152, 163, 137, 85, 2, 1.68002
107, 1, bw, filler, NA, 999, 999, 5, 34, 190, 129, 152, 163, 137, 85, 3, 0.387446
107, 1, bw, attraction, a-b-db, 2, 2, 5, 35, 90, 165, 89, 163, 165, 90, 2, 0.913919
107, 1, bw, attraction, a-b-db, 2, 2, 5, 35, 90, 165, 89, 163, 165, 90, 3, 0.49231
107, 1, bw, filler, NA, 999, 999, 5, 36, 135, 72, 120, 172, 126, 61, 2, 0.662089
107, 1, bw, filler, NA, 999, 999, 5, 36, 135, 72, 120, 172, 126, 61, 3, 0.922657
107, 1, bw, catch, NA, 999, 999, 5, 37, 143, 112, 134, 61, 145, 170, 3, 0.883531
107, 1, bw, catch, NA, 999, 999, 5, 37, 143, 112, 134, 61, 145, 170, 2, 0.599206
107, 1, bw, attraction, a-b-da, 2, 3, 6, 1, 195, 120, 120, 195, 193, 119, 2, 0.796896
107, 1, bw, attraction, a-b-da, 2, 3, 6, 1, 195, 120, 120, 195, 193, 119, 3, 0.931986
107, 1, bw, attraction, a-b-da, 14, 3, 6, 2, 181, 111, 120, 195, 195, 120, 3, 0.836222
107, 1, bw, attraction, a-b-da, 14, 3, 6, 2, 181, 111, 120, 195, 195, 120, 2, 1.2741
107, 1, bw, attraction, a-b-da, 5, 1, 6, 3, 132, 58, 135, 60, 60, 135, 1, 1.03614
107, 1, bw, attraction, a-b-da, 5, 1, 6, 3, 132, 58, 135, 60, 60, 135, 2, 0.761925
107, 1, bw, filler, NA, 999, 999, 6, 4, 191, 128, 123, 189, 188, 165, 1, 0.520861
107, 1, bw, filler, NA, 999, 999, 6, 4, 191, 128, 123, 189, 188, 165, 2, 0.523332
107, 1, bw, filler, NA, 999, 999, 6, 5, 116, 164, 143, 84, 168, 68, 1, 0.643883
107, 1, bw, filler, NA, 999, 999, 6, 5, 116, 164, 143, 84, 168, 68, 2, 0.416922
107, 1, bw, filler, NA, 999, 999, 6, 6, 131, 58, 100, 118, 63, 89, 1, 0.52606
107, 1, bw, filler, NA, 999, 999, 6, 6, 131, 58, 100, 118, 63, 89, 2, 1.07191
107, 1, bw, filler, NA, 999, 999, 6, 7, 177, 60, 93, 63, 184, 140, 3, 0.706963
107, 1, bw, filler, NA, 999, 999, 6, 7, 177, 60, 93, 63, 184, 140, 2, 0.829329
107, 1, bw, catch, NA, 999, 999, 6, 8, 74, 121, 134, 181, 163, 92, 2, 1.35353
107, 1, bw, catch, NA, 999, 999, 6, 8, 74, 121, 134, 181, 163, 92, 1, 0.442432
107, 1, bw, filler, NA, 999, 999, 6, 9, 61, 156, 132, 107, 180, 105, 3, 0.934295
107, 1, bw, filler, NA, 999, 999, 6, 9, 61, 156, 132, 107, 180, 105, 1, 0.567898
107, 1, bw, catch, NA, 999, 999, 6, 10, 130, 185, 154, 101, 135, 60, 1, 0.887017
107, 1, bw, catch, NA, 999, 999, 6, 10, 130, 185, 154, 101, 135, 60, 3, 0.498852
107, 1, bw, attraction, a-b-db, 9, 3, 6, 11, 114, 186, 120, 195, 195, 120, 3, 0.964469
107, 1, bw, attraction, a-b-db, 9, 3, 6, 11, 114, 186, 120, 195, 195, 120, 1, 0.676867
107, 1, bw, attraction, a-b-da, 5, 3, 6, 12, 190, 117, 195, 120, 120, 195, 2, 0.903377
107, 1, bw, attraction, a-b-da, 5, 3, 6, 12, 190, 117, 195, 120, 120, 195, 1, 0.514343
107, 1, bw, filler, NA, 999, 999, 6, 13, 57, 137, 84, 162, 74, 103, 2, 0.947366
107, 1, bw, filler, NA, 999, 999, 6, 13, 57, 137, 84, 162, 74, 103, 3, 0.436413
107, 1, bw, filler, NA, 999, 999, 6, 14, 145, 152, 177, 58, 112, 90, 1, 0.688834
107, 1, bw, filler, NA, 999, 999, 6, 14, 145, 152, 177, 58, 112, 90, 2, 0.73998
107, 1, bw, attraction, a-b-da, 9, 3, 6, 15, 195, 120, 186, 114, 120, 195, 1, 0.54763
107, 1, bw, attraction, a-b-da, 9, 3, 6, 15, 195, 120, 186, 114, 120, 195, 2, 0.700867
107, 1, bw, catch, NA, 999, 999, 6, 16, 153, 102, 61, 134, 189, 126, 3, 0.750547
107, 1, bw, catch, NA, 999, 999, 6, 16, 153, 102, 61, 134, 189, 126, 2, 0.711732
107, 1, bw, attraction, a-b-db, 5, 1, 6, 17, 60, 135, 58, 132, 135, 60, 1, 1.19268
107, 1, bw, attraction, a-b-db, 5, 1, 6, 17, 60, 135, 58, 132, 135, 60, 2, 0.431571
107, 1, bw, attraction, a-b-db, 14, 1, 6, 18, 56, 125, 60, 135, 135, 60, 3, 0.556056
107, 1, bw, attraction, a-b-db, 14, 1, 6, 18, 56, 125, 60, 135, 135, 60, 2, 0.812518
107, 1, bw, attraction, a-b-db, 14, 2, 6, 19, 90, 165, 165, 90, 83, 153, 2, 0.593522
107, 1, bw, attraction, a-b-db, 14, 2, 6, 19, 90, 165, 165, 90, 83, 153, 3, 0.728817
107, 1, bw, attraction, a-b-db, 2, 2, 6, 20, 165, 90, 89, 163, 90, 165, 2, 0.83304
107, 1, bw, attraction, a-b-db, 2, 2, 6, 20, 165, 90, 89, 163, 90, 165, 3, 0.374953
107, 1, bw, filler, NA, 999, 999, 6, 21, 192, 111, 120, 139, 121, 125, 1, 0.677204
107, 1, bw, filler, NA, 999, 999, 6, 21, 192, 111, 120, 139, 121, 125, 3, 1.01699
107, 1, bw, attraction, a-b-db, 2, 1, 6, 22, 60, 135, 59, 134, 135, 60, 1, 0.701915
107, 1, bw, attraction, a-b-db, 2, 1, 6, 22, 60, 135, 59, 134, 135, 60, 3, 0.721095
107, 1, bw, attraction, a-b-db, 9, 2, 6, 23, 165, 90, 90, 165, 86, 157, 1, 0.730113
107, 1, bw, attraction, a-b-db, 9, 2, 6, 23, 165, 90, 90, 165, 86, 157, 2, 0.275801
107, 1, bw, attraction, a-b-db, 9, 1, 6, 24, 135, 60, 60, 135, 57, 129, 1, 1.23832
107, 1, bw, attraction, a-b-db, 9, 1, 6, 24, 135, 60, 60, 135, 57, 129, 2, 0.379422
107, 1, bw, attraction, a-b-db, 5, 2, 6, 25, 165, 90, 90, 165, 88, 161, 1, 0.71392
107, 1, bw, attraction, a-b-db, 5, 2, 6, 25, 165, 90, 90, 165, 88, 161, 2, 0.300359
107, 1, bw, attraction, a-b-da, 9, 2, 6, 26, 157, 86, 165, 90, 90, 165, 2, 0.886039
107, 1, bw, attraction, a-b-da, 9, 2, 6, 26, 157, 86, 165, 90, 90, 165, 3, 0.321707
107, 1, bw, attraction, a-b-da, 9, 1, 6, 27, 135, 60, 129, 57, 60, 135, 1, 0.794889
107, 1, bw, attraction, a-b-da, 9, 1, 6, 27, 135, 60, 129, 57, 60, 135, 3, 0.794053
107, 1, bw, attraction, a-b-db, 2, 3, 6, 28, 120, 195, 195, 120, 119, 193, 2, 0.551626
107, 1, bw, attraction, a-b-db, 2, 3, 6, 28, 120, 195, 195, 120, 119, 193, 3, 0.43276
107, 1, bw, attraction, a-b-da, 14, 2, 6, 29, 90, 165, 165, 90, 153, 83, 2, 0.757321
107, 1, bw, attraction, a-b-da, 14, 2, 6, 29, 90, 165, 165, 90, 153, 83, 3, 0.685724
107, 1, bw, attraction, a-b-da, 2, 2, 6, 30, 163, 89, 165, 90, 90, 165, 1, 0.536164
107, 1, bw, attraction, a-b-da, 2, 2, 6, 30, 163, 89, 165, 90, 90, 165, 3, 0.577943
107, 1, bw, attraction, a-b-da, 14, 1, 6, 31, 60, 135, 125, 56, 135, 60, 2, 0.856349
107, 1, bw, attraction, a-b-da, 14, 1, 6, 31, 60, 135, 125, 56, 135, 60, 3, 0.524817
107, 1, bw, attraction, a-b-da, 2, 1, 6, 32, 135, 60, 134, 59, 60, 135, 2, 0.47725
107, 1, bw, attraction, a-b-da, 2, 1, 6, 32, 135, 60, 134, 59, 60, 135, 1, 0.616917
107, 1, bw, attraction, a-b-db, 5, 3, 6, 33, 120, 195, 195, 120, 117, 190, 2, 0.662063
107, 1, bw, attraction, a-b-db, 5, 3, 6, 33, 120, 195, 195, 120, 117, 190, 1, 0.706473
107, 1, bw, filler, NA, 999, 999, 6, 34, 115, 118, 81, 61, 61, 187, 1, 0.796194
107, 1, bw, filler, NA, 999, 999, 6, 34, 115, 118, 81, 61, 61, 187, 2, 0.459224
107, 1, bw, attraction, a-b-db, 14, 3, 6, 35, 195, 120, 120, 195, 111, 181, 2, 0.662522
107, 1, bw, attraction, a-b-db, 14, 3, 6, 35, 195, 120, 120, 195, 111, 181, 3, 0.650944
107, 1, bw, filler, NA, 999, 999, 6, 36, 69, 148, 140, 96, 125, 135, 2, 0.670686
107, 1, bw, filler, NA, 999, 999, 6, 36, 69, 148, 140, 96, 125, 135, 1, 0.410969
107, 1, bw, attraction, a-b-da, 5, 2, 6, 37, 90, 165, 161, 88, 165, 90, 2, 0.744206
107, 1, bw, attraction, a-b-da, 5, 2, 6, 37, 90, 165, 161, 88, 165, 90, 3, 0.537243
107, 1, bw, attraction, a-b-db, 9, 2, 7, 1, 165, 90, 90, 165, 86, 157, 2, 0.665701
107, 1, bw, attraction, a-b-db, 9, 2, 7, 1, 165, 90, 90, 165, 86, 157, 3, 0.430211
107, 1, bw, attraction, a-b-da, 2, 2, 7, 2, 163, 89, 90, 165, 165, 90, 2, 0.546565
107, 1, bw, attraction, a-b-da, 2, 2, 7, 2, 163, 89, 90, 165, 165, 90, 1, 0.483701
107, 1, bw, catch, NA, 999, 999, 7, 3, 124, 191, 104, 151, 108, 87, 2, 0.590075
107, 1, bw, catch, NA, 999, 999, 7, 3, 124, 191, 104, 151, 108, 87, 3, 0.437235
107, 1, bw, attraction, a-b-da, 14, 2, 7, 4, 90, 165, 165, 90, 153, 83, 2, 0.64977
107, 1, bw, attraction, a-b-da, 14, 2, 7, 4, 90, 165, 165, 90, 153, 83, 3, 0.598788
107, 1, bw, filler, NA, 999, 999, 7, 5, 184, 159, 81, 186, 95, 176, 1, 0.948678
107, 1, bw, filler, NA, 999, 999, 7, 5, 184, 159, 81, 186, 95, 176, 3, 0.517622
107, 1, bw, attraction, a-b-da, 14, 1, 7, 6, 60, 135, 125, 56, 135, 60, 1, 2.03871
107, 1, bw, attraction, a-b-da, 14, 1, 7, 6, 60, 135, 125, 56, 135, 60, 2, 1.31542
107, 1, bw, attraction, a-b-db, 2, 2, 7, 7, 90, 165, 89, 163, 165, 90, 2, 0.788295
107, 1, bw, attraction, a-b-db, 2, 2, 7, 7, 90, 165, 89, 163, 165, 90, 3, 0.635453
107, 1, bw, filler, NA, 999, 999, 7, 8, 195, 147, 128, 150, 99, 138, 1, 1.31972
107, 1, bw, filler, NA, 999, 999, 7, 8, 195, 147, 128, 150, 99, 138, 3, 0.841949
107, 1, bw, attraction, a-b-db, 14, 3, 7, 9, 195, 120, 120, 195, 111, 181, 2, 0.789685
107, 1, bw, attraction, a-b-db, 14, 3, 7, 9, 195, 120, 120, 195, 111, 181, 3, 0.404641
107, 1, bw, attraction, a-b-db, 5, 2, 7, 10, 88, 161, 90, 165, 165, 90, 2, 0.66645
107, 1, bw, attraction, a-b-db, 5, 2, 7, 10, 88, 161, 90, 165, 165, 90, 3, 0.95103
107, 1, bw, attraction, a-b-da, 9, 1, 7, 11, 129, 57, 135, 60, 60, 135, 2, 1.09473
107, 1, bw, attraction, a-b-da, 9, 1, 7, 11, 129, 57, 135, 60, 60, 135, 3, 1.38573
107, 1, bw, attraction, a-b-db, 2, 1, 7, 12, 59, 134, 60, 135, 135, 60, 1, 1.4877
107, 1, bw, attraction, a-b-db, 2, 1, 7, 12, 59, 134, 60, 135, 135, 60, 3, 0.523274
107, 1, bw, catch, NA, 999, 999, 7, 13, 100, 155, 135, 180, 109, 86, 2, 0.940354
107, 1, bw, catch, NA, 999, 999, 7, 13, 100, 155, 135, 180, 109, 86, 3, 0.725407
107, 1, bw, attraction, a-b-da, 5, 2, 7, 14, 165, 90, 161, 88, 90, 165, 2, 1.49387
107, 1, bw, attraction, a-b-da, 5, 2, 7, 14, 165, 90, 161, 88, 90, 165, 1, 0.568589
107, 1, bw, attraction, a-b-da, 9, 2, 7, 15, 157, 86, 165, 90, 90, 165, 2, 0.943673
107, 1, bw, attraction, a-b-da, 9, 2, 7, 15, 157, 86, 165, 90, 90, 165, 3, 0.49664
107, 1, bw, attraction, a-b-db, 14, 2, 7, 16, 83, 153, 165, 90, 90, 165, 2, 0.458628
107, 1, bw, attraction, a-b-db, 14, 2, 7, 16, 83, 153, 165, 90, 90, 165, 3, 0.503001
107, 1, bw, filler, NA, 999, 999, 7, 17, 145, 189, 106, 160, 129, 147, 2, 0.424711
107, 1, bw, filler, NA, 999, 999, 7, 17, 145, 189, 106, 160, 129, 147, 3, 0.518753
107, 1, bw, attraction, a-b-da, 9, 3, 7, 18, 120, 195, 186, 114, 195, 120, 1, 0.591753
107, 1, bw, attraction, a-b-da, 9, 3, 7, 18, 120, 195, 186, 114, 195, 120, 3, 0.574892
107, 1, bw, attraction, a-b-da, 5, 1, 7, 19, 60, 135, 135, 60, 132, 58, 2, 0.461262
107, 1, bw, attraction, a-b-da, 5, 1, 7, 19, 60, 135, 135, 60, 132, 58, 3, 0.409782
107, 1, bw, attraction, a-b-db, 9, 3, 7, 20, 114, 186, 120, 195, 195, 120, 2, 0.374939
107, 1, bw, attraction, a-b-db, 9, 3, 7, 20, 114, 186, 120, 195, 195, 120, 3, 0.390729
107, 1, bw, filler, NA, 999, 999, 7, 21, 65, 73, 86, 101, 82, 84, 2, 0.55659
107, 1, bw, filler, NA, 999, 999, 7, 21, 65, 73, 86, 101, 82, 84, 1, 0.597029
107, 1, bw, filler, NA, 999, 999, 7, 22, 80, 194, 85, 112, 193, 190, 3, 0.490765
107, 1, bw, filler, NA, 999, 999, 7, 22, 80, 194, 85, 112, 193, 190, 2, 0.478074
107, 1, bw, catch, NA, 999, 999, 7, 23, 130, 65, 128, 127, 138, 177, 3, 0.440454
107, 1, bw, catch, NA, 999, 999, 7, 23, 130, 65, 128, 127, 138, 177, 2, 0.429659
107, 1, bw, filler, NA, 999, 999, 7, 24, 169, 79, 128, 182, 93, 97, 2, 0.43411
107, 1, bw, filler, NA, 999, 999, 7, 24, 169, 79, 128, 182, 93, 97, 3, 0.599853
107, 1, bw, attraction, a-b-da, 5, 3, 7, 25, 120, 195, 190, 117, 195, 120, 2, 0.509633
107, 1, bw, attraction, a-b-da, 5, 3, 7, 25, 120, 195, 190, 117, 195, 120, 1, 0.360106
107, 1, bw, attraction, a-b-da, 2, 3, 7, 26, 120, 195, 193, 119, 195, 120, 2, 0.463303
107, 1, bw, attraction, a-b-da, 2, 3, 7, 26, 120, 195, 193, 119, 195, 120, 3, 0.355878
107, 1, bw, attraction, a-b-db, 9, 1, 7, 27, 57, 129, 60, 135, 135, 60, 2, 0.451775
107, 1, bw, attraction, a-b-db, 9, 1, 7, 27, 57, 129, 60, 135, 135, 60, 1, 0.456747
107, 1, bw, filler, NA, 999, 999, 7, 28, 193, 170, 174, 86, 195, 114, 1, 0.82794
107, 1, bw, filler, NA, 999, 999, 7, 28, 193, 170, 174, 86, 195, 114, 2, 0.465594
107, 1, bw, filler, NA, 999, 999, 7, 29, 73, 74, 102, 84, 56, 192, 2, 1.00472
107, 1, bw, filler, NA, 999, 999, 7, 29, 73, 74, 102, 84, 56, 192, 1, 0.57967
107, 1, bw, attraction, a-b-db, 5, 3, 7, 30, 195, 120, 120, 195, 117, 190, 1, 0.834267
107, 1, bw, attraction, a-b-db, 5, 3, 7, 30, 195, 120, 120, 195, 117, 190, 2, 0.296012
107, 1, bw, filler, NA, 999, 999, 7, 31, 79, 160, 79, 94, 60, 143, 1, 0.617687
107, 1, bw, filler, NA, 999, 999, 7, 31, 79, 160, 79, 94, 60, 143, 2, 0.288239
107, 1, bw, attraction, a-b-db, 14, 1, 7, 32, 60, 135, 56, 125, 135, 60, 1, 0.906703
107, 1, bw, attraction, a-b-db, 14, 1, 7, 32, 60, 135, 56, 125, 135, 60, 2, 0.669167
107, 1, bw, attraction, a-b-db, 5, 1, 7, 33, 60, 135, 58, 132, 135, 60, 1, 0.832123
107, 1, bw, attraction, a-b-db, 5, 1, 7, 33, 60, 135, 58, 132, 135, 60, 2, 0.685851
107, 1, bw, attraction, a-b-da, 2, 1, 7, 34, 135, 60, 134, 59, 60, 135, 2, 0.936292
107, 1, bw, attraction, a-b-da, 2, 1, 7, 34, 135, 60, 134, 59, 60, 135, 1, 0.57796
107, 1, bw, attraction, a-b-db, 2, 3, 7, 35, 119, 193, 195, 120, 120, 195, 2, 1.19248
107, 1, bw, attraction, a-b-db, 2, 3, 7, 35, 119, 193, 195, 120, 120, 195, 3, 0.567269
107, 1, bw, filler, NA, 999, 999, 7, 36, 114, 149, 121, 187, 120, 152, 2, 0.590456
107, 1, bw, filler, NA, 999, 999, 7, 36, 114, 149, 121, 187, 120, 152, 3, 0.541628
107, 1, bw, attraction, a-b-da, 14, 3, 7, 37, 195, 120, 120, 195, 181, 111, 2, 0.453237
107, 1, bw, attraction, a-b-da, 14, 3, 7, 37, 195, 120, 120, 195, 181, 111, 1, 0.394497
107, 1, bw, filler, NA, 999, 999, 8, 1, 190, 127, 121, 60, 135, 174, 1, 0.832172
107, 1, bw, filler, NA, 999, 999, 8, 1, 190, 127, 121, 60, 135, 174, 2, 0.437952
107, 1, bw, attraction, a-b-db, 9, 3, 8, 2, 114, 186, 195, 120, 120, 195, 2, 0.826379
107, 1, bw, attraction, a-b-db, 9, 3, 8, 2, 114, 186, 195, 120, 120, 195, 3, 0.400168
107, 1, bw, attraction, a-b-da, 5, 3, 8, 3, 120, 195, 195, 120, 190, 117, 2, 0.526059
107, 1, bw, attraction, a-b-da, 5, 3, 8, 3, 120, 195, 195, 120, 190, 117, 1, 0.807796
107, 1, bw, filler, NA, 999, 999, 8, 4, 133, 180, 61, 150, 172, 156, 3, 0.844894
107, 1, bw, filler, NA, 999, 999, 8, 4, 133, 180, 61, 150, 172, 156, 2, 0.465878
107, 1, bw, attraction, a-b-da, 2, 1, 8, 5, 135, 60, 60, 135, 134, 59, 2, 0.924981
107, 1, bw, attraction, a-b-da, 2, 1, 8, 5, 135, 60, 60, 135, 134, 59, 3, 0.486744
107, 1, bw, catch, NA, 999, 999, 8, 6, 145, 170, 107, 88, 163, 92, 1, 0.74508
107, 1, bw, catch, NA, 999, 999, 8, 6, 145, 170, 107, 88, 163, 92, 2, 0.370172
107, 1, bw, attraction, a-b-db, 5, 2, 8, 7, 90, 165, 165, 90, 88, 161, 2, 0.617292
107, 1, bw, attraction, a-b-db, 5, 2, 8, 7, 90, 165, 165, 90, 88, 161, 3, 0.407768
107, 1, bw, attraction, a-b-da, 14, 1, 8, 8, 60, 135, 135, 60, 125, 56, 2, 0.836983
107, 1, bw, attraction, a-b-da, 14, 1, 8, 8, 60, 135, 135, 60, 125, 56, 1, 0.402684
107, 1, bw, attraction, a-b-db, 9, 2, 8, 9, 86, 157, 165, 90, 90, 165, 2, 0.456878
107, 1, bw, attraction, a-b-db, 9, 2, 8, 9, 86, 157, 165, 90, 90, 165, 3, 0.332994
107, 1, bw, attraction, a-b-da, 2, 2, 8, 10, 165, 90, 163, 89, 90, 165, 2, 0.421617
107, 1, bw, attraction, a-b-da, 2, 2, 8, 10, 165, 90, 163, 89, 90, 165, 1, 0.363308
107, 1, bw, attraction, a-b-da, 14, 3, 8, 11, 195, 120, 120, 195, 181, 111, 2, 0.850452
107, 1, bw, attraction, a-b-da, 14, 3, 8, 11, 195, 120, 120, 195, 181, 111, 3, 0.311544
107, 1, bw, attraction, a-b-db, 9, 1, 8, 12, 135, 60, 60, 135, 57, 129, 2, 0.584671
107, 1, bw, attraction, a-b-db, 9, 1, 8, 12, 135, 60, 60, 135, 57, 129, 3, 0.520461
107, 1, bw, filler, NA, 999, 999, 8, 13, 140, 164, 111, 130, 107, 127, 2, 0.609775
107, 1, bw, filler, NA, 999, 999, 8, 13, 140, 164, 111, 130, 107, 127, 3, 1.45622
107, 1, bw, attraction, a-b-da, 9, 1, 8, 14, 135, 60, 129, 57, 60, 135, 3, 0.771467
107, 1, bw, attraction, a-b-da, 9, 1, 8, 14, 135, 60, 129, 57, 60, 135, 2, 0.523393
107, 1, bw, attraction, a-b-db, 5, 3, 8, 15, 195, 120, 117, 190, 120, 195, 1, 0.435666
107, 1, bw, attraction, a-b-db, 5, 3, 8, 15, 195, 120, 117, 190, 120, 195, 3, 0.449585
107, 1, bw, attraction, a-b-db, 2, 1, 8, 16, 60, 135, 135, 60, 59, 134, 2, 1.06134
107, 1, bw, attraction, a-b-db, 2, 1, 8, 16, 60, 135, 135, 60, 59, 134, 1, 0.441664
107, 1, bw, attraction, a-b-da, 2, 3, 8, 17, 120, 195, 195, 120, 193, 119, 3, 0.781577
107, 1, bw, attraction, a-b-da, 2, 3, 8, 17, 120, 195, 195, 120, 193, 119, 2, 0.437376
107, 1, bw, attraction, a-b-db, 14, 1, 8, 18, 135, 60, 60, 135, 56, 125, 2, 0.657688
107, 1, bw, attraction, a-b-db, 14, 1, 8, 18, 135, 60, 60, 135, 56, 125, 1, 0.622143
107, 1, bw, attraction, a-b-da, 9, 2, 8, 19, 157, 86, 90, 165, 165, 90, 2, 0.595313
107, 1, bw, attraction, a-b-da, 9, 2, 8, 19, 157, 86, 90, 165, 165, 90, 3, 0.386386
107, 1, bw, filler, NA, 999, 999, 8, 20, 91, 128, 152, 152, 85, 180, 2, 0.400798
107, 1, bw, filler, NA, 999, 999, 8, 20, 91, 128, 152, 152, 85, 180, 1, 0.744038
107, 1, bw, attraction, a-b-db, 5, 1, 8, 21, 58, 132, 60, 135, 135, 60, 2, 0.671594
107, 1, bw, attraction, a-b-db, 5, 1, 8, 21, 58, 132, 60, 135, 135, 60, 3, 0.587374
107, 1, bw, filler, NA, 999, 999, 8, 22, 159, 105, 76, 124, 92, 95, 1, 1.24989
107, 1, bw, filler, NA, 999, 999, 8, 22, 159, 105, 76, 124, 92, 95, 3, 0.438779
107, 1, bw, attraction, a-b-db, 2, 2, 8, 23, 89, 163, 90, 165, 165, 90, 2, 1.93935
107, 1, bw, attraction, a-b-db, 2, 2, 8, 23, 89, 163, 90, 165, 165, 90, 3, 1.01189
107, 1, bw, catch, NA, 999, 999, 8, 24, 74, 121, 183, 132, 132, 123, 2, 0.480847
107, 1, bw, catch, NA, 999, 999, 8, 24, 74, 121, 183, 132, 132, 123, 1, 0.564666
107, 1, bw, attraction, a-b-da, 5, 1, 8, 25, 60, 135, 132, 58, 135, 60, 2, 0.595762
107, 1, bw, attraction, a-b-da, 5, 1, 8, 25, 60, 135, 132, 58, 135, 60, 1, 0.546973
107, 1, bw, catch, NA, 999, 999, 8, 26, 81, 114, 105, 150, 195, 120, 3, 1.02679
107, 1, bw, catch, NA, 999, 999, 8, 26, 81, 114, 105, 150, 195, 120, 1, 0.456437
107, 1, bw, attraction, a-b-db, 2, 3, 8, 27, 119, 193, 120, 195, 195, 120, 3, 0.492115
107, 1, bw, attraction, a-b-db, 2, 3, 8, 27, 119, 193, 120, 195, 195, 120, 1, 0.583236
107, 1, bw, attraction, a-b-da, 9, 3, 8, 28, 195, 120, 120, 195, 186, 114, 3, 0.54173
107, 1, bw, attraction, a-b-da, 9, 3, 8, 28, 195, 120, 120, 195, 186, 114, 2, 0.542847
107, 1, bw, filler, NA, 999, 999, 8, 29, 72, 113, 105, 190, 145, 78, 2, 0.798602
107, 1, bw, filler, NA, 999, 999, 8, 29, 72, 113, 105, 190, 145, 78, 3, 0.36631
107, 1, bw, filler, NA, 999, 999, 8, 30, 144, 139, 117, 100, 171, 186, 3, 0.860934
107, 1, bw, filler, NA, 999, 999, 8, 30, 144, 139, 117, 100, 171, 186, 2, 0.497238
107, 1, bw, attraction, a-b-db, 14, 3, 8, 31, 195, 120, 120, 195, 111, 181, 2, 0.778944
107, 1, bw, attraction, a-b-db, 14, 3, 8, 31, 195, 120, 120, 195, 111, 181, 3, 0.38672
107, 1, bw, filler, NA, 999, 999, 8, 32, 119, 114, 137, 151, 166, 56, 2, 0.937186
107, 1, bw, filler, NA, 999, 999, 8, 32, 119, 114, 137, 151, 166, 56, 3, 0.962903
107, 1, bw, attraction, a-b-da, 14, 2, 8, 33, 153, 83, 90, 165, 165, 90, 3, 0.777866
107, 1, bw, attraction, a-b-da, 14, 2, 8, 33, 153, 83, 90, 165, 165, 90, 2, 0.321712
107, 1, bw, filler, NA, 999, 999, 8, 34, 138, 192, 142, 64, 168, 188, 3, 0.77883
107, 1, bw, filler, NA, 999, 999, 8, 34, 138, 192, 142, 64, 168, 188, 2, 0.482596
107, 1, bw, attraction, a-b-db, 14, 2, 8, 35, 83, 153, 90, 165, 165, 90, 3, 0.980982
107, 1, bw, attraction, a-b-db, 14, 2, 8, 35, 83, 153, 90, 165, 165, 90, 2, 0.636664
107, 1, bw, filler, NA, 999, 999, 8, 36, 190, 88, 57, 100, 174, 158, 3, 0.449081
107, 1, bw, filler, NA, 999, 999, 8, 36, 190, 88, 57, 100, 174, 158, 2, 0.75025
107, 1, bw, attraction, a-b-da, 5, 2, 8, 37, 165, 90, 90, 165, 161, 88, 2, 1.5259
107, 1, bw, attraction, a-b-da, 5, 2, 8, 37, 165, 90, 90, 165, 161, 88, 3, 0.407561
