sub_n, computer_n, bw_cond, effect, set, distance, diag, block_n, trial_n, h1, w1, h2, w2, h3, w3, choice, rt 
155, 1, bw, practice, NA, 999, 999, 0, 1, 82, 106, 126, 63, 90, 195, 3, 4.09783
155, 1, bw, practice, NA, 999, 999, 0, 1, 82, 106, 126, 63, 90, 195, 2, 4.55603
155, 1, bw, practice, NA, 999, 999, 0, 2, 75, 76, 187, 140, 186, 120, 2, 2.55743
155, 1, bw, practice, NA, 999, 999, 0, 2, 75, 76, 187, 140, 186, 120, 1, 1.62318
155, 1, bw, practice, NA, 999, 999, 0, 3, 187, 141, 133, 92, 147, 126, 1, 3.21843
155, 1, bw, practice, NA, 999, 999, 0, 3, 187, 141, 133, 92, 147, 126, 2, 1.38029
155, 1, bw, filler, NA, 999, 999, 1, 1, 96, 168, 78, 81, 134, 116, 1, 3.59778
155, 1, bw, filler, NA, 999, 999, 1, 1, 96, 168, 78, 81, 134, 116, 2, 0.651992
155, 1, bw, attraction, a-b-db, 5, 1, 1, 2, 135, 60, 60, 135, 58, 132, 2, 5.11191
155, 1, bw, attraction, a-b-db, 5, 1, 1, 2, 135, 60, 60, 135, 58, 132, 3, 4.56085
155, 1, bw, attraction, a-b-da, 9, 2, 1, 3, 157, 86, 165, 90, 90, 165, 2, 2.7827
155, 1, bw, attraction, a-b-da, 9, 2, 1, 3, 157, 86, 165, 90, 90, 165, 1, 1.03783
155, 1, bw, filler, NA, 999, 999, 1, 4, 112, 142, 185, 152, 121, 131, 2, 2.17813
155, 1, bw, filler, NA, 999, 999, 1, 4, 112, 142, 185, 152, 121, 131, 3, 3.04953
155, 1, bw, filler, NA, 999, 999, 1, 5, 86, 93, 143, 137, 174, 101, 2, 1.65241
155, 1, bw, filler, NA, 999, 999, 1, 5, 86, 93, 143, 137, 174, 101, 1, 0.881144
155, 1, bw, filler, NA, 999, 999, 1, 6, 189, 58, 191, 92, 127, 56, 2, 2.2355
155, 1, bw, filler, NA, 999, 999, 1, 6, 189, 58, 191, 92, 127, 56, 3, 0.992688
155, 1, bw, attraction, a-b-da, 14, 2, 1, 7, 165, 90, 90, 165, 153, 83, 2, 2.81445
155, 1, bw, attraction, a-b-da, 14, 2, 1, 7, 165, 90, 90, 165, 153, 83, 3, 0.860239
155, 1, bw, filler, NA, 999, 999, 1, 8, 181, 165, 105, 124, 153, 117, 1, 1.85523
155, 1, bw, filler, NA, 999, 999, 1, 8, 181, 165, 105, 124, 153, 117, 2, 0.819223
155, 1, bw, attraction, a-b-da, 9, 1, 1, 9, 129, 57, 60, 135, 135, 60, 2, 2.32818
155, 1, bw, attraction, a-b-da, 9, 1, 1, 9, 129, 57, 60, 135, 135, 60, 1, 1.04939
155, 1, bw, catch, NA, 999, 999, 1, 10, 191, 124, 121, 74, 143, 112, 1, 1.36497
155, 1, bw, catch, NA, 999, 999, 1, 10, 191, 124, 121, 74, 143, 112, 2, 1.13326
155, 1, bw, attraction, a-b-db, 9, 1, 1, 11, 135, 60, 60, 135, 57, 129, 2, 2.71755
155, 1, bw, attraction, a-b-db, 9, 1, 1, 11, 135, 60, 60, 135, 57, 129, 3, 1.71131
155, 1, bw, attraction, a-b-da, 2, 1, 1, 12, 134, 59, 60, 135, 135, 60, 2, 2.69614
155, 1, bw, attraction, a-b-da, 2, 1, 1, 12, 134, 59, 60, 135, 135, 60, 1, 1.77868
155, 1, bw, filler, NA, 999, 999, 1, 13, 155, 140, 152, 182, 109, 100, 2, 1.77665
155, 1, bw, filler, NA, 999, 999, 1, 13, 155, 140, 152, 182, 109, 100, 3, 1.09611
155, 1, bw, catch, NA, 999, 999, 1, 14, 67, 128, 144, 111, 134, 181, 3, 1.60966
155, 1, bw, catch, NA, 999, 999, 1, 14, 67, 128, 144, 111, 134, 181, 1, 0.991804
155, 1, bw, attraction, a-b-db, 2, 2, 1, 15, 165, 90, 90, 165, 89, 163, 2, 3.25336
155, 1, bw, attraction, a-b-db, 2, 2, 1, 15, 165, 90, 90, 165, 89, 163, 3, 0.769636
155, 1, bw, attraction, a-b-db, 5, 2, 1, 16, 165, 90, 88, 161, 90, 165, 2, 8.2167
155, 1, bw, attraction, a-b-db, 5, 2, 1, 16, 165, 90, 88, 161, 90, 165, 3, 2.52482
155, 1, bw, filler, NA, 999, 999, 1, 17, 193, 156, 164, 162, 155, 98, 2, 1.96469
155, 1, bw, filler, NA, 999, 999, 1, 17, 193, 156, 164, 162, 155, 98, 3, 1.09265
155, 1, bw, filler, NA, 999, 999, 1, 18, 194, 176, 66, 86, 183, 168, 1, 3.62218
155, 1, bw, filler, NA, 999, 999, 1, 18, 194, 176, 66, 86, 183, 168, 2, 0.955769
155, 1, bw, attraction, a-b-da, 2, 3, 1, 19, 195, 120, 120, 195, 193, 119, 2, 2.25149
155, 1, bw, attraction, a-b-da, 2, 3, 1, 19, 195, 120, 120, 195, 193, 119, 1, 0.800056
155, 1, bw, attraction, a-b-db, 14, 3, 1, 20, 195, 120, 111, 181, 120, 195, 2, 5.21368
155, 1, bw, attraction, a-b-db, 14, 3, 1, 20, 195, 120, 111, 181, 120, 195, 1, 1.38673
155, 1, bw, attraction, a-b-da, 14, 1, 1, 21, 135, 60, 125, 56, 60, 135, 1, 2.79278
155, 1, bw, attraction, a-b-da, 14, 1, 1, 21, 135, 60, 125, 56, 60, 135, 2, 0.55939
155, 1, bw, attraction, a-b-db, 2, 1, 1, 22, 135, 60, 59, 134, 60, 135, 2, 2.72635
155, 1, bw, attraction, a-b-db, 2, 1, 1, 22, 135, 60, 59, 134, 60, 135, 1, 1.03149
155, 1, bw, filler, NA, 999, 999, 1, 23, 104, 150, 183, 171, 174, 146, 2, 1.9318
155, 1, bw, filler, NA, 999, 999, 1, 23, 104, 150, 183, 171, 174, 146, 1, 0.781154
155, 1, bw, attraction, a-b-db, 9, 2, 1, 24, 165, 90, 90, 165, 86, 157, 2, 3.85952
155, 1, bw, attraction, a-b-db, 9, 2, 1, 24, 165, 90, 90, 165, 86, 157, 3, 1.05506
155, 1, bw, attraction, a-b-db, 14, 1, 1, 25, 56, 125, 135, 60, 60, 135, 3, 3.01855
155, 1, bw, attraction, a-b-db, 14, 1, 1, 25, 56, 125, 135, 60, 60, 135, 1, 1.38421
155, 1, bw, attraction, a-b-da, 5, 1, 1, 26, 60, 135, 135, 60, 132, 58, 1, 5.6624
155, 1, bw, attraction, a-b-da, 5, 1, 1, 26, 60, 135, 135, 60, 132, 58, 2, 1.4093
155, 1, bw, filler, NA, 999, 999, 1, 27, 125, 150, 160, 157, 151, 84, 2, 1.92616
155, 1, bw, filler, NA, 999, 999, 1, 27, 125, 150, 160, 157, 151, 84, 3, 0.799614
155, 1, bw, attraction, a-b-da, 2, 2, 1, 28, 163, 89, 165, 90, 90, 165, 1, 4.06919
155, 1, bw, attraction, a-b-da, 2, 2, 1, 28, 163, 89, 165, 90, 90, 165, 2, 1.39266
155, 1, bw, attraction, a-b-db, 14, 2, 1, 29, 165, 90, 83, 153, 90, 165, 3, 3.56606
155, 1, bw, attraction, a-b-db, 14, 2, 1, 29, 165, 90, 83, 153, 90, 165, 2, 1.30967
155, 1, bw, attraction, a-b-db, 2, 3, 1, 30, 120, 195, 119, 193, 195, 120, 2, 6.95846
155, 1, bw, attraction, a-b-db, 2, 3, 1, 30, 120, 195, 119, 193, 195, 120, 1, 3.925
155, 1, bw, attraction, a-b-db, 5, 3, 1, 31, 120, 195, 195, 120, 117, 190, 2, 1.39641
155, 1, bw, attraction, a-b-db, 5, 3, 1, 31, 120, 195, 195, 120, 117, 190, 1, 0.88328
155, 1, bw, attraction, a-b-da, 5, 2, 1, 32, 165, 90, 90, 165, 161, 88, 2, 3.91766
155, 1, bw, attraction, a-b-da, 5, 2, 1, 32, 165, 90, 90, 165, 161, 88, 3, 1.151
155, 1, bw, attraction, a-b-da, 9, 3, 1, 33, 186, 114, 195, 120, 120, 195, 2, 6.83847
155, 1, bw, attraction, a-b-da, 9, 3, 1, 33, 186, 114, 195, 120, 120, 195, 1, 0.674464
155, 1, bw, attraction, a-b-da, 14, 3, 1, 34, 195, 120, 120, 195, 181, 111, 2, 2.50884
155, 1, bw, attraction, a-b-da, 14, 3, 1, 34, 195, 120, 120, 195, 181, 111, 3, 0.59877
155, 1, bw, attraction, a-b-da, 5, 3, 1, 35, 195, 120, 190, 117, 120, 195, 3, 17.6524
155, 1, bw, attraction, a-b-da, 5, 3, 1, 35, 195, 120, 190, 117, 120, 195, 1, 1.83616
155, 1, bw, catch, NA, 999, 999, 1, 36, 158, 157, 108, 87, 101, 154, 1, 1.48819
155, 1, bw, catch, NA, 999, 999, 1, 36, 158, 157, 108, 87, 101, 154, 2, 0.691689
155, 1, bw, attraction, a-b-db, 9, 3, 1, 37, 114, 186, 120, 195, 195, 120, 2, 3.59742
155, 1, bw, attraction, a-b-db, 9, 3, 1, 37, 114, 186, 120, 195, 195, 120, 1, 0.883565
155, 1, bw, attraction, a-b-da, 2, 3, 2, 1, 195, 120, 120, 195, 193, 119, 2, 3.66207
155, 1, bw, attraction, a-b-da, 2, 3, 2, 1, 195, 120, 120, 195, 193, 119, 3, 1.00944
155, 1, bw, attraction, a-b-db, 9, 2, 2, 2, 90, 165, 165, 90, 86, 157, 1, 1.9664
155, 1, bw, attraction, a-b-db, 9, 2, 2, 2, 90, 165, 165, 90, 86, 157, 3, 3.38247
155, 1, bw, catch, NA, 999, 999, 2, 3, 133, 122, 123, 192, 111, 84, 2, 1.27596
155, 1, bw, catch, NA, 999, 999, 2, 3, 133, 122, 123, 192, 111, 84, 3, 0.919575
155, 1, bw, attraction, a-b-db, 5, 3, 2, 4, 120, 195, 195, 120, 117, 190, 1, 3.02454
155, 1, bw, attraction, a-b-db, 5, 3, 2, 4, 120, 195, 195, 120, 117, 190, 3, 0.485777
155, 1, bw, filler, NA, 999, 999, 2, 5, 143, 156, 188, 115, 115, 163, 1, 6.12823
155, 1, bw, filler, NA, 999, 999, 2, 5, 143, 156, 188, 115, 115, 163, 3, 1.71228
155, 1, bw, attraction, a-b-db, 5, 2, 2, 6, 90, 165, 165, 90, 88, 161, 1, 4.56082
155, 1, bw, attraction, a-b-db, 5, 2, 2, 6, 90, 165, 165, 90, 88, 161, 3, 1.39208
155, 1, bw, filler, NA, 999, 999, 2, 7, 191, 113, 181, 103, 162, 135, 1, 7.69356
155, 1, bw, filler, NA, 999, 999, 2, 7, 191, 113, 181, 103, 162, 135, 2, 0.462521
155, 1, bw, filler, NA, 999, 999, 2, 8, 62, 95, 72, 129, 93, 69, 2, 2.7297
155, 1, bw, filler, NA, 999, 999, 2, 8, 62, 95, 72, 129, 93, 69, 1, 0.930746
155, 1, bw, attraction, a-b-da, 5, 1, 2, 9, 132, 58, 135, 60, 60, 135, 3, 3.01099
155, 1, bw, attraction, a-b-da, 5, 1, 2, 9, 132, 58, 135, 60, 60, 135, 1, 2.20074
155, 1, bw, attraction, a-b-db, 14, 2, 2, 10, 90, 165, 83, 153, 165, 90, 1, 2.71799
155, 1, bw, attraction, a-b-db, 14, 2, 2, 10, 90, 165, 83, 153, 165, 90, 2, 0.639753
155, 1, bw, filler, NA, 999, 999, 2, 11, 122, 134, 70, 176, 163, 89, 1, 1.06026
155, 1, bw, filler, NA, 999, 999, 2, 11, 122, 134, 70, 176, 163, 89, 2, 5.48045
155, 1, bw, attraction, a-b-da, 14, 1, 2, 12, 135, 60, 60, 135, 125, 56, 2, 3.39335
155, 1, bw, attraction, a-b-da, 14, 1, 2, 12, 135, 60, 60, 135, 125, 56, 3, 1.82368
155, 1, bw, filler, NA, 999, 999, 2, 13, 95, 133, 115, 93, 127, 69, 1, 4.14764
155, 1, bw, filler, NA, 999, 999, 2, 13, 95, 133, 115, 93, 127, 69, 2, 0.827606
155, 1, bw, attraction, a-b-da, 14, 2, 2, 14, 90, 165, 165, 90, 153, 83, 2, 3.21598
155, 1, bw, attraction, a-b-da, 14, 2, 2, 14, 90, 165, 165, 90, 153, 83, 3, 0.509683
155, 1, bw, attraction, a-b-da, 14, 3, 2, 15, 195, 120, 181, 111, 120, 195, 1, 3.67889
155, 1, bw, attraction, a-b-da, 14, 3, 2, 15, 195, 120, 181, 111, 120, 195, 2, 0.625582
155, 1, bw, attraction, a-b-db, 9, 1, 2, 16, 135, 60, 60, 135, 57, 129, 1, 5.63001
155, 1, bw, attraction, a-b-db, 9, 1, 2, 16, 135, 60, 60, 135, 57, 129, 3, 0.506212
155, 1, bw, catch, NA, 999, 999, 2, 17, 89, 106, 127, 128, 193, 122, 3, 1.88403
155, 1, bw, catch, NA, 999, 999, 2, 17, 89, 106, 127, 128, 193, 122, 1, 1.19933
155, 1, bw, attraction, a-b-db, 9, 3, 2, 18, 195, 120, 120, 195, 114, 186, 2, 6.22907
155, 1, bw, attraction, a-b-db, 9, 3, 2, 18, 195, 120, 120, 195, 114, 186, 3, 0.344892
155, 1, bw, filler, NA, 999, 999, 2, 19, 132, 103, 172, 193, 109, 66, 2, 1.4649
155, 1, bw, filler, NA, 999, 999, 2, 19, 132, 103, 172, 193, 109, 66, 3, 0.917075
155, 1, bw, attraction, a-b-da, 9, 3, 2, 20, 186, 114, 195, 120, 120, 195, 2, 1.71001
155, 1, bw, attraction, a-b-da, 9, 3, 2, 20, 186, 114, 195, 120, 120, 195, 3, 1.27209
155, 1, bw, filler, NA, 999, 999, 2, 21, 152, 188, 57, 137, 113, 114, 1, 1.90692
155, 1, bw, filler, NA, 999, 999, 2, 21, 152, 188, 57, 137, 113, 114, 2, 0.837006
155, 1, bw, attraction, a-b-da, 5, 3, 2, 22, 190, 117, 195, 120, 120, 195, 3, 4.55344
155, 1, bw, attraction, a-b-da, 5, 3, 2, 22, 190, 117, 195, 120, 120, 195, 2, 0.497205
155, 1, bw, attraction, a-b-db, 14, 1, 2, 23, 60, 135, 135, 60, 56, 125, 1, 3.14714
155, 1, bw, attraction, a-b-db, 14, 1, 2, 23, 60, 135, 135, 60, 56, 125, 2, 1.42744
155, 1, bw, attraction, a-b-da, 5, 2, 2, 24, 161, 88, 90, 165, 165, 90, 2, 33.9834
155, 1, bw, attraction, a-b-da, 5, 2, 2, 24, 161, 88, 90, 165, 165, 90, 1, 1.32489
155, 1, bw, attraction, a-b-db, 2, 2, 2, 25, 89, 163, 165, 90, 90, 165, 1, 5.60515
155, 1, bw, attraction, a-b-db, 2, 2, 2, 25, 89, 163, 165, 90, 90, 165, 2, 0.72195
155, 1, bw, catch, NA, 999, 999, 2, 26, 179, 136, 125, 70, 146, 109, 1, 0.866931
155, 1, bw, catch, NA, 999, 999, 2, 26, 179, 136, 125, 70, 146, 109, 2, 0.887409
155, 1, bw, attraction, a-b-db, 14, 3, 2, 27, 120, 195, 195, 120, 111, 181, 1, 1.81774
155, 1, bw, attraction, a-b-db, 14, 3, 2, 27, 120, 195, 195, 120, 111, 181, 3, 0.711844
155, 1, bw, attraction, a-b-da, 2, 2, 2, 28, 163, 89, 90, 165, 165, 90, 2, 1.64899
155, 1, bw, attraction, a-b-da, 2, 2, 2, 28, 163, 89, 90, 165, 165, 90, 1, 1.34965
155, 1, bw, filler, NA, 999, 999, 2, 29, 72, 89, 92, 170, 60, 183, 2, 0.973259
155, 1, bw, filler, NA, 999, 999, 2, 29, 72, 89, 92, 170, 60, 183, 1, 0.548782
155, 1, bw, attraction, a-b-da, 9, 1, 2, 30, 129, 57, 60, 135, 135, 60, 3, 2.07652
155, 1, bw, attraction, a-b-da, 9, 1, 2, 30, 129, 57, 60, 135, 135, 60, 1, 2.06398
155, 1, bw, filler, NA, 999, 999, 2, 31, 68, 184, 171, 170, 85, 150, 2, 1.1625
155, 1, bw, filler, NA, 999, 999, 2, 31, 68, 184, 171, 170, 85, 150, 3, 1.33899
155, 1, bw, attraction, a-b-db, 5, 1, 2, 32, 60, 135, 58, 132, 135, 60, 3, 3.34696
155, 1, bw, attraction, a-b-db, 5, 1, 2, 32, 60, 135, 58, 132, 135, 60, 2, 1.03527
155, 1, bw, attraction, a-b-db, 2, 3, 2, 33, 119, 193, 195, 120, 120, 195, 3, 4.21556
155, 1, bw, attraction, a-b-db, 2, 3, 2, 33, 119, 193, 195, 120, 120, 195, 2, 0.700808
155, 1, bw, attraction, a-b-da, 2, 1, 2, 34, 134, 59, 60, 135, 135, 60, 2, 3.57466
155, 1, bw, attraction, a-b-da, 2, 1, 2, 34, 134, 59, 60, 135, 135, 60, 3, 0.973489
155, 1, bw, attraction, a-b-da, 9, 2, 2, 35, 165, 90, 90, 165, 157, 86, 1, 2.8677
155, 1, bw, attraction, a-b-da, 9, 2, 2, 35, 165, 90, 90, 165, 157, 86, 3, 1.11145
155, 1, bw, attraction, a-b-db, 2, 1, 2, 36, 59, 134, 60, 135, 135, 60, 2, 4.00042
155, 1, bw, attraction, a-b-db, 2, 1, 2, 36, 59, 134, 60, 135, 135, 60, 1, 1.21452
155, 1, bw, filler, NA, 999, 999, 2, 37, 177, 177, 190, 183, 66, 158, 2, 2.13938
155, 1, bw, filler, NA, 999, 999, 2, 37, 177, 177, 190, 183, 66, 158, 3, 0.98807
155, 1, bw, attraction, a-b-db, 14, 2, 3, 1, 165, 90, 83, 153, 90, 165, 1, 1.65042
155, 1, bw, attraction, a-b-db, 14, 2, 3, 1, 165, 90, 83, 153, 90, 165, 2, 0.407135
155, 1, bw, attraction, a-b-db, 14, 3, 3, 2, 195, 120, 120, 195, 111, 181, 2, 2.01236
155, 1, bw, attraction, a-b-db, 14, 3, 3, 2, 195, 120, 120, 195, 111, 181, 3, 0.73024
155, 1, bw, attraction, a-b-db, 2, 3, 3, 3, 195, 120, 119, 193, 120, 195, 2, 2.57058
155, 1, bw, attraction, a-b-db, 2, 3, 3, 3, 195, 120, 119, 193, 120, 195, 1, 0.530551
155, 1, bw, catch, NA, 999, 999, 3, 4, 90, 105, 159, 96, 154, 161, 3, 2.34692
155, 1, bw, catch, NA, 999, 999, 3, 4, 90, 105, 159, 96, 154, 161, 1, 0.755465
155, 1, bw, attraction, a-b-db, 9, 3, 3, 5, 114, 186, 195, 120, 120, 195, 3, 1.42726
155, 1, bw, attraction, a-b-db, 9, 3, 3, 5, 114, 186, 195, 120, 120, 195, 1, 1.09667
155, 1, bw, attraction, a-b-db, 14, 1, 3, 6, 56, 125, 135, 60, 60, 135, 3, 1.59432
155, 1, bw, attraction, a-b-db, 14, 1, 3, 6, 56, 125, 135, 60, 60, 135, 1, 1.30514
155, 1, bw, filler, NA, 999, 999, 3, 7, 131, 192, 85, 161, 181, 112, 1, 0.922645
155, 1, bw, filler, NA, 999, 999, 3, 7, 131, 192, 85, 161, 181, 112, 2, 0.628377
155, 1, bw, attraction, a-b-db, 5, 3, 3, 8, 195, 120, 120, 195, 117, 190, 2, 3.07291
155, 1, bw, attraction, a-b-db, 5, 3, 3, 8, 195, 120, 120, 195, 117, 190, 3, 0.523895
155, 1, bw, filler, NA, 999, 999, 3, 9, 100, 172, 136, 90, 80, 145, 1, 1.7563
155, 1, bw, filler, NA, 999, 999, 3, 9, 100, 172, 136, 90, 80, 145, 2, 0.484374
155, 1, bw, attraction, a-b-db, 2, 2, 3, 10, 165, 90, 89, 163, 90, 165, 3, 1.4468
155, 1, bw, attraction, a-b-db, 2, 2, 3, 10, 165, 90, 89, 163, 90, 165, 2, 0.475555
155, 1, bw, attraction, a-b-da, 5, 1, 3, 11, 132, 58, 60, 135, 135, 60, 2, 5.17415
155, 1, bw, attraction, a-b-da, 5, 1, 3, 11, 132, 58, 60, 135, 135, 60, 1, 0.652492
155, 1, bw, attraction, a-b-db, 9, 2, 3, 12, 165, 90, 86, 157, 90, 165, 3, 2.16816
155, 1, bw, attraction, a-b-db, 9, 2, 3, 12, 165, 90, 86, 157, 90, 165, 2, 1.11212
155, 1, bw, attraction, a-b-db, 5, 2, 3, 13, 165, 90, 90, 165, 88, 161, 3, 7.23309
155, 1, bw, attraction, a-b-db, 5, 2, 3, 13, 165, 90, 90, 165, 88, 161, 2, 1.58894
155, 1, bw, attraction, a-b-da, 2, 1, 3, 14, 60, 135, 134, 59, 135, 60, 3, 2.40297
155, 1, bw, attraction, a-b-da, 2, 1, 3, 14, 60, 135, 134, 59, 135, 60, 2, 0.697419
155, 1, bw, filler, NA, 999, 999, 3, 15, 141, 150, 124, 113, 170, 105, 1, 1.88311
155, 1, bw, filler, NA, 999, 999, 3, 15, 141, 150, 124, 113, 170, 105, 2, 0.518465
155, 1, bw, filler, NA, 999, 999, 3, 16, 187, 116, 152, 70, 181, 133, 3, 1.6157
155, 1, bw, filler, NA, 999, 999, 3, 16, 187, 116, 152, 70, 181, 133, 2, 0.605921
155, 1, bw, attraction, a-b-da, 5, 3, 3, 17, 190, 117, 120, 195, 195, 120, 2, 1.83619
155, 1, bw, attraction, a-b-da, 5, 3, 3, 17, 190, 117, 120, 195, 195, 120, 1, 0.505063
155, 1, bw, attraction, a-b-da, 5, 2, 3, 18, 161, 88, 90, 165, 165, 90, 3, 2.52274
155, 1, bw, attraction, a-b-da, 5, 2, 3, 18, 161, 88, 90, 165, 165, 90, 1, 0.748062
155, 1, bw, filler, NA, 999, 999, 3, 19, 102, 109, 90, 182, 160, 170, 3, 2.45175
155, 1, bw, filler, NA, 999, 999, 3, 19, 102, 109, 90, 182, 160, 170, 1, 0.624116
155, 1, bw, attraction, a-b-da, 14, 2, 3, 20, 90, 165, 165, 90, 153, 83, 2, 1.34861
155, 1, bw, attraction, a-b-da, 14, 2, 3, 20, 90, 165, 165, 90, 153, 83, 3, 0.437434
155, 1, bw, filler, NA, 999, 999, 3, 21, 130, 191, 179, 98, 143, 169, 1, 1.81795
155, 1, bw, filler, NA, 999, 999, 3, 21, 130, 191, 179, 98, 143, 169, 2, 0.896054
155, 1, bw, attraction, a-b-da, 9, 2, 3, 22, 157, 86, 165, 90, 90, 165, 3, 3.16968
155, 1, bw, attraction, a-b-da, 9, 2, 3, 22, 157, 86, 165, 90, 90, 165, 2, 0.801463
155, 1, bw, filler, NA, 999, 999, 3, 23, 118, 87, 180, 145, 153, 159, 2, 1.69501
155, 1, bw, filler, NA, 999, 999, 3, 23, 118, 87, 180, 145, 153, 159, 1, 0.985837
155, 1, bw, attraction, a-b-db, 9, 1, 3, 24, 135, 60, 60, 135, 57, 129, 2, 3.80803
155, 1, bw, attraction, a-b-db, 9, 1, 3, 24, 135, 60, 60, 135, 57, 129, 3, 1.35763
155, 1, bw, attraction, a-b-da, 9, 3, 3, 25, 120, 195, 186, 114, 195, 120, 1, 1.15633
155, 1, bw, attraction, a-b-da, 9, 3, 3, 25, 120, 195, 186, 114, 195, 120, 2, 0.876671
155, 1, bw, filler, NA, 999, 999, 3, 26, 86, 90, 103, 65, 87, 165, 3, 1.66298
155, 1, bw, filler, NA, 999, 999, 3, 26, 86, 90, 103, 65, 87, 165, 2, 0.827236
155, 1, bw, filler, NA, 999, 999, 3, 27, 137, 192, 129, 193, 118, 113, 2, 2.89562
155, 1, bw, filler, NA, 999, 999, 3, 27, 137, 192, 129, 193, 118, 113, 3, 0.801996
155, 1, bw, attraction, a-b-da, 2, 2, 3, 28, 165, 90, 163, 89, 90, 165, 1, 3.67959
155, 1, bw, attraction, a-b-da, 2, 2, 3, 28, 165, 90, 163, 89, 90, 165, 2, 0.426492
155, 1, bw, catch, NA, 999, 999, 3, 29, 147, 168, 68, 127, 144, 111, 1, 1.31895
155, 1, bw, catch, NA, 999, 999, 3, 29, 147, 168, 68, 127, 144, 111, 2, 0.705161
155, 1, bw, attraction, a-b-db, 5, 1, 3, 30, 135, 60, 60, 135, 58, 132, 2, 1.93887
155, 1, bw, attraction, a-b-db, 5, 1, 3, 30, 135, 60, 60, 135, 58, 132, 1, 1.15552
155, 1, bw, filler, NA, 999, 999, 3, 31, 117, 123, 177, 63, 81, 109, 1, 1.53908
155, 1, bw, filler, NA, 999, 999, 3, 31, 117, 123, 177, 63, 81, 109, 3, 0.956026
155, 1, bw, attraction, a-b-da, 9, 1, 3, 32, 135, 60, 60, 135, 129, 57, 2, 3.97161
155, 1, bw, attraction, a-b-da, 9, 1, 3, 32, 135, 60, 60, 135, 129, 57, 3, 0.53898
155, 1, bw, attraction, a-b-da, 14, 1, 3, 33, 125, 56, 135, 60, 60, 135, 3, 1.64347
155, 1, bw, attraction, a-b-da, 14, 1, 3, 33, 125, 56, 135, 60, 60, 135, 1, 0.680223
155, 1, bw, attraction, a-b-da, 14, 3, 3, 34, 120, 195, 195, 120, 181, 111, 1, 2.5066
155, 1, bw, attraction, a-b-da, 14, 3, 3, 34, 120, 195, 195, 120, 181, 111, 3, 0.74043
155, 1, bw, catch, NA, 999, 999, 3, 35, 99, 156, 159, 156, 114, 81, 2, 1.1001
155, 1, bw, catch, NA, 999, 999, 3, 35, 99, 156, 159, 156, 114, 81, 3, 0.99127
155, 1, bw, attraction, a-b-db, 2, 1, 3, 36, 60, 135, 59, 134, 135, 60, 1, 1.47684
155, 1, bw, attraction, a-b-db, 2, 1, 3, 36, 60, 135, 59, 134, 135, 60, 2, 0.840328
155, 1, bw, attraction, a-b-da, 2, 3, 3, 37, 195, 120, 193, 119, 120, 195, 3, 2.02002
155, 1, bw, attraction, a-b-da, 2, 3, 3, 37, 195, 120, 193, 119, 120, 195, 2, 0.513868
155, 1, bw, attraction, a-b-db, 2, 1, 4, 1, 135, 60, 60, 135, 59, 134, 1, 1.60302
155, 1, bw, attraction, a-b-db, 2, 1, 4, 1, 135, 60, 60, 135, 59, 134, 2, 0.641959
155, 1, bw, attraction, a-b-db, 9, 2, 4, 2, 165, 90, 90, 165, 86, 157, 2, 2.12557
155, 1, bw, attraction, a-b-db, 9, 2, 4, 2, 165, 90, 90, 165, 86, 157, 3, 0.423002
155, 1, bw, filler, NA, 999, 999, 4, 3, 188, 178, 83, 98, 183, 106, 1, 1.09209
155, 1, bw, filler, NA, 999, 999, 4, 3, 188, 178, 83, 98, 183, 106, 2, 0.887104
155, 1, bw, attraction, a-b-da, 5, 1, 4, 4, 135, 60, 132, 58, 60, 135, 3, 3.14545
155, 1, bw, attraction, a-b-da, 5, 1, 4, 4, 135, 60, 132, 58, 60, 135, 2, 1.43369
155, 1, bw, attraction, a-b-da, 2, 3, 4, 5, 193, 119, 120, 195, 195, 120, 2, 4.65387
155, 1, bw, attraction, a-b-da, 2, 3, 4, 5, 193, 119, 120, 195, 195, 120, 1, 0.609647
155, 1, bw, attraction, a-b-da, 14, 1, 4, 6, 125, 56, 60, 135, 135, 60, 2, 0.998792
155, 1, bw, attraction, a-b-da, 14, 1, 4, 6, 125, 56, 60, 135, 135, 60, 1, 0.589788
155, 1, bw, attraction, a-b-db, 9, 3, 4, 7, 120, 195, 195, 120, 114, 186, 1, 2.7162
155, 1, bw, attraction, a-b-db, 9, 3, 4, 7, 120, 195, 195, 120, 114, 186, 2, 0.662043
155, 1, bw, catch, NA, 999, 999, 4, 8, 62, 133, 104, 151, 132, 183, 3, 2.71312
155, 1, bw, catch, NA, 999, 999, 4, 8, 62, 133, 104, 151, 132, 183, 1, 0.698859
155, 1, bw, filler, NA, 999, 999, 4, 9, 172, 66, 128, 154, 167, 97, 2, 2.1806
155, 1, bw, filler, NA, 999, 999, 4, 9, 172, 66, 128, 154, 167, 97, 1, 0.923842
155, 1, bw, attraction, a-b-da, 2, 2, 4, 10, 90, 165, 165, 90, 163, 89, 1, 2.13213
155, 1, bw, attraction, a-b-da, 2, 2, 4, 10, 90, 165, 165, 90, 163, 89, 3, 1.03751
155, 1, bw, filler, NA, 999, 999, 4, 11, 107, 83, 177, 116, 146, 182, 3, 1.48181
155, 1, bw, filler, NA, 999, 999, 4, 11, 107, 83, 177, 116, 146, 182, 1, 0.765231
155, 1, bw, attraction, a-b-db, 14, 3, 4, 12, 111, 181, 195, 120, 120, 195, 3, 2.38032
155, 1, bw, attraction, a-b-db, 14, 3, 4, 12, 111, 181, 195, 120, 120, 195, 1, 0.851559
155, 1, bw, attraction, a-b-da, 5, 3, 4, 13, 190, 117, 195, 120, 120, 195, 3, 2.48718
155, 1, bw, attraction, a-b-da, 5, 3, 4, 13, 190, 117, 195, 120, 120, 195, 2, 1.0664
155, 1, bw, catch, NA, 999, 999, 4, 14, 120, 135, 90, 105, 159, 156, 3, 0.933371
155, 1, bw, catch, NA, 999, 999, 4, 14, 120, 135, 90, 105, 159, 156, 2, 0.815087
155, 1, bw, attraction, a-b-da, 14, 3, 4, 15, 120, 195, 181, 111, 195, 120, 1, 1.28403
155, 1, bw, attraction, a-b-da, 14, 3, 4, 15, 120, 195, 181, 111, 195, 120, 2, 0.727757
155, 1, bw, filler, NA, 999, 999, 4, 16, 156, 129, 154, 154, 157, 70, 2, 1.31997
155, 1, bw, filler, NA, 999, 999, 4, 16, 156, 129, 154, 154, 157, 70, 3, 0.970431
155, 1, bw, attraction, a-b-db, 9, 1, 4, 17, 57, 129, 60, 135, 135, 60, 2, 1.54516
155, 1, bw, attraction, a-b-db, 9, 1, 4, 17, 57, 129, 60, 135, 135, 60, 1, 1.10612
155, 1, bw, attraction, a-b-da, 2, 1, 4, 18, 134, 59, 135, 60, 60, 135, 1, 4.32368
155, 1, bw, attraction, a-b-da, 2, 1, 4, 18, 134, 59, 135, 60, 60, 135, 2, 0.764306
155, 1, bw, filler, NA, 999, 999, 4, 19, 84, 56, 192, 93, 67, 171, 2, 1.33141
155, 1, bw, filler, NA, 999, 999, 4, 19, 84, 56, 192, 93, 67, 171, 1, 1.17299
155, 1, bw, attraction, a-b-db, 14, 1, 4, 20, 60, 135, 56, 125, 135, 60, 1, 2.01179
155, 1, bw, attraction, a-b-db, 14, 1, 4, 20, 60, 135, 56, 125, 135, 60, 2, 0.809837
155, 1, bw, filler, NA, 999, 999, 4, 21, 105, 88, 168, 118, 186, 163, 3, 0.830823
155, 1, bw, filler, NA, 999, 999, 4, 21, 105, 88, 168, 118, 186, 163, 1, 0.836547
155, 1, bw, attraction, a-b-da, 9, 1, 4, 22, 60, 135, 129, 57, 135, 60, 1, 1.32899
155, 1, bw, attraction, a-b-da, 9, 1, 4, 22, 60, 135, 129, 57, 135, 60, 3, 1.57052
155, 1, bw, attraction, a-b-da, 14, 2, 4, 23, 90, 165, 165, 90, 153, 83, 1, 0.753186
155, 1, bw, attraction, a-b-da, 14, 2, 4, 23, 90, 165, 165, 90, 153, 83, 3, 1.66632
155, 1, bw, filler, NA, 999, 999, 4, 24, 86, 192, 71, 103, 86, 98, 1, 1.17296
155, 1, bw, filler, NA, 999, 999, 4, 24, 86, 192, 71, 103, 86, 98, 2, 0.868593
155, 1, bw, filler, NA, 999, 999, 4, 25, 87, 132, 126, 79, 136, 84, 1, 2.84776
155, 1, bw, filler, NA, 999, 999, 4, 25, 87, 132, 126, 79, 136, 84, 2, 0.700163
155, 1, bw, attraction, a-b-da, 9, 3, 4, 26, 120, 195, 186, 114, 195, 120, 1, 2.02179
155, 1, bw, attraction, a-b-da, 9, 3, 4, 26, 120, 195, 186, 114, 195, 120, 2, 0.65113
155, 1, bw, attraction, a-b-db, 5, 2, 4, 27, 90, 165, 165, 90, 88, 161, 1, 2.29484
155, 1, bw, attraction, a-b-db, 5, 2, 4, 27, 90, 165, 165, 90, 88, 161, 3, 0.777428
155, 1, bw, attraction, a-b-da, 5, 2, 4, 28, 165, 90, 90, 165, 161, 88, 1, 2.87186
155, 1, bw, attraction, a-b-da, 5, 2, 4, 28, 165, 90, 90, 165, 161, 88, 3, 0.803585
155, 1, bw, attraction, a-b-db, 2, 2, 4, 29, 90, 165, 89, 163, 165, 90, 3, 5.97729
155, 1, bw, attraction, a-b-db, 2, 2, 4, 29, 90, 165, 89, 163, 165, 90, 2, 0.951322
155, 1, bw, attraction, a-b-da, 9, 2, 4, 30, 90, 165, 157, 86, 165, 90, 3, 2.87903
155, 1, bw, attraction, a-b-da, 9, 2, 4, 30, 90, 165, 157, 86, 165, 90, 2, 1.13008
155, 1, bw, attraction, a-b-db, 14, 2, 4, 31, 83, 153, 165, 90, 90, 165, 3, 2.56247
155, 1, bw, attraction, a-b-db, 14, 2, 4, 31, 83, 153, 165, 90, 90, 165, 1, 1.25833
155, 1, bw, attraction, a-b-db, 5, 1, 4, 32, 58, 132, 60, 135, 135, 60, 2, 5.66115
155, 1, bw, attraction, a-b-db, 5, 1, 4, 32, 58, 132, 60, 135, 135, 60, 1, 1.49604
155, 1, bw, filler, NA, 999, 999, 4, 33, 164, 168, 91, 87, 78, 98, 1, 1.1854
155, 1, bw, filler, NA, 999, 999, 4, 33, 164, 168, 91, 87, 78, 98, 2, 0.9291
155, 1, bw, attraction, a-b-db, 2, 3, 4, 34, 120, 195, 195, 120, 119, 193, 1, 3.01742
155, 1, bw, attraction, a-b-db, 2, 3, 4, 34, 120, 195, 195, 120, 119, 193, 3, 0.646976
155, 1, bw, attraction, a-b-db, 5, 3, 4, 35, 195, 120, 120, 195, 117, 190, 1, 4.22674
155, 1, bw, attraction, a-b-db, 5, 3, 4, 35, 195, 120, 120, 195, 117, 190, 3, 0.991399
155, 1, bw, catch, NA, 999, 999, 4, 36, 97, 98, 155, 160, 93, 162, 2, 1.03716
155, 1, bw, catch, NA, 999, 999, 4, 36, 97, 98, 155, 160, 93, 162, 1, 0.602639
155, 1, bw, filler, NA, 999, 999, 4, 37, 161, 92, 152, 60, 84, 91, 1, 1.13658
155, 1, bw, filler, NA, 999, 999, 4, 37, 161, 92, 152, 60, 84, 91, 3, 0.898103
155, 1, bw, attraction, a-b-da, 9, 3, 5, 1, 195, 120, 120, 195, 186, 114, 2, 13.6264
155, 1, bw, attraction, a-b-da, 9, 3, 5, 1, 195, 120, 120, 195, 186, 114, 3, 0.428046
155, 1, bw, filler, NA, 999, 999, 5, 2, 133, 156, 167, 159, 126, 82, 2, 0.672629
155, 1, bw, filler, NA, 999, 999, 5, 2, 133, 156, 167, 159, 126, 82, 3, 0.444369
155, 1, bw, filler, NA, 999, 999, 5, 3, 147, 57, 113, 193, 67, 188, 2, 1.12809
155, 1, bw, filler, NA, 999, 999, 5, 3, 147, 57, 113, 193, 67, 188, 1, 0.977896
155, 1, bw, filler, NA, 999, 999, 5, 4, 149, 188, 121, 78, 120, 147, 1, 0.664138
155, 1, bw, filler, NA, 999, 999, 5, 4, 149, 188, 121, 78, 120, 147, 2, 0.740501
155, 1, bw, attraction, a-b-da, 5, 2, 5, 5, 90, 165, 165, 90, 161, 88, 2, 1.07623
155, 1, bw, attraction, a-b-da, 5, 2, 5, 5, 90, 165, 165, 90, 161, 88, 3, 1.11975
155, 1, bw, attraction, a-b-da, 9, 2, 5, 6, 165, 90, 90, 165, 157, 86, 2, 1.28073
155, 1, bw, attraction, a-b-da, 9, 2, 5, 6, 165, 90, 90, 165, 157, 86, 3, 0.844289
155, 1, bw, catch, NA, 999, 999, 5, 7, 95, 100, 144, 171, 149, 106, 2, 0.735941
155, 1, bw, catch, NA, 999, 999, 5, 7, 95, 100, 144, 171, 149, 106, 1, 0.457727
155, 1, bw, attraction, a-b-db, 14, 3, 5, 8, 111, 181, 120, 195, 195, 120, 2, 1.3409
155, 1, bw, attraction, a-b-db, 14, 3, 5, 8, 111, 181, 120, 195, 195, 120, 1, 0.637805
155, 1, bw, attraction, a-b-da, 14, 1, 5, 9, 135, 60, 125, 56, 60, 135, 1, 0.866143
155, 1, bw, attraction, a-b-da, 14, 1, 5, 9, 135, 60, 125, 56, 60, 135, 2, 0.862501
155, 1, bw, attraction, a-b-db, 2, 1, 5, 10, 60, 135, 59, 134, 135, 60, 1, 2.08153
155, 1, bw, attraction, a-b-db, 2, 1, 5, 10, 60, 135, 59, 134, 135, 60, 3, 0.748871
155, 1, bw, filler, NA, 999, 999, 5, 11, 132, 181, 141, 69, 133, 113, 1, 0.612538
155, 1, bw, filler, NA, 999, 999, 5, 11, 132, 181, 141, 69, 133, 113, 2, 0.538946
155, 1, bw, attraction, a-b-da, 2, 1, 5, 12, 134, 59, 135, 60, 60, 135, 2, 2.25145
155, 1, bw, attraction, a-b-da, 2, 1, 5, 12, 134, 59, 135, 60, 60, 135, 3, 0.456112
155, 1, bw, attraction, a-b-da, 2, 3, 5, 13, 120, 195, 193, 119, 195, 120, 2, 2.28388
155, 1, bw, attraction, a-b-da, 2, 3, 5, 13, 120, 195, 193, 119, 195, 120, 3, 1.4712
155, 1, bw, attraction, a-b-da, 2, 2, 5, 14, 163, 89, 165, 90, 90, 165, 3, 3.51408
155, 1, bw, attraction, a-b-da, 2, 2, 5, 14, 163, 89, 165, 90, 90, 165, 2, 0.939555
155, 1, bw, filler, NA, 999, 999, 5, 15, 133, 137, 112, 127, 147, 123, 1, 1.43576
155, 1, bw, filler, NA, 999, 999, 5, 15, 133, 137, 112, 127, 147, 123, 2, 0.657353
155, 1, bw, attraction, a-b-da, 5, 3, 5, 16, 120, 195, 195, 120, 190, 117, 2, 20.7325
155, 1, bw, attraction, a-b-da, 5, 3, 5, 16, 120, 195, 195, 120, 190, 117, 3, 0.431927
155, 1, bw, attraction, a-b-db, 14, 1, 5, 17, 135, 60, 60, 135, 56, 125, 2, 1.20448
155, 1, bw, attraction, a-b-db, 14, 1, 5, 17, 135, 60, 60, 135, 56, 125, 3, 1.30743
155, 1, bw, attraction, a-b-da, 9, 1, 5, 18, 135, 60, 60, 135, 129, 57, 2, 0.988234
155, 1, bw, attraction, a-b-da, 9, 1, 5, 18, 135, 60, 60, 135, 129, 57, 3, 0.979152
155, 1, bw, attraction, a-b-db, 14, 2, 5, 19, 165, 90, 83, 153, 90, 165, 2, 1.22551
155, 1, bw, attraction, a-b-db, 14, 2, 5, 19, 165, 90, 83, 153, 90, 165, 3, 0.703048
155, 1, bw, attraction, a-b-db, 2, 3, 5, 20, 120, 195, 119, 193, 195, 120, 1, 2.08877
155, 1, bw, attraction, a-b-db, 2, 3, 5, 20, 120, 195, 119, 193, 195, 120, 2, 0.339461
155, 1, bw, filler, NA, 999, 999, 5, 21, 160, 189, 61, 193, 149, 140, 1, 1.08387
155, 1, bw, filler, NA, 999, 999, 5, 21, 160, 189, 61, 193, 149, 140, 2, 0.407578
155, 1, bw, catch, NA, 999, 999, 5, 22, 126, 129, 86, 109, 160, 155, 3, 1.86876
155, 1, bw, catch, NA, 999, 999, 5, 22, 126, 129, 86, 109, 160, 155, 2, 1.20086
155, 1, bw, attraction, a-b-db, 5, 1, 5, 23, 135, 60, 60, 135, 58, 132, 2, 2.11037
155, 1, bw, attraction, a-b-db, 5, 1, 5, 23, 135, 60, 60, 135, 58, 132, 3, 0.616349
155, 1, bw, attraction, a-b-da, 5, 1, 5, 24, 135, 60, 132, 58, 60, 135, 1, 1.27742
155, 1, bw, attraction, a-b-da, 5, 1, 5, 24, 135, 60, 132, 58, 60, 135, 2, 0.753001
155, 1, bw, attraction, a-b-da, 14, 2, 5, 25, 90, 165, 153, 83, 165, 90, 1, 2.67265
155, 1, bw, attraction, a-b-da, 14, 2, 5, 25, 90, 165, 153, 83, 165, 90, 2, 0.56376
155, 1, bw, attraction, a-b-db, 5, 2, 5, 26, 165, 90, 88, 161, 90, 165, 3, 2.41895
155, 1, bw, attraction, a-b-db, 5, 2, 5, 26, 165, 90, 88, 161, 90, 165, 2, 0.36885
155, 1, bw, attraction, a-b-db, 9, 3, 5, 27, 120, 195, 195, 120, 114, 186, 2, 2.74406
155, 1, bw, attraction, a-b-db, 9, 3, 5, 27, 120, 195, 195, 120, 114, 186, 3, 1.17646
155, 1, bw, attraction, a-b-db, 2, 2, 5, 28, 89, 163, 165, 90, 90, 165, 2, 1.63065
155, 1, bw, attraction, a-b-db, 2, 2, 5, 28, 89, 163, 165, 90, 90, 165, 3, 0.444151
155, 1, bw, filler, NA, 999, 999, 5, 29, 158, 185, 96, 87, 89, 128, 1, 0.831907
155, 1, bw, filler, NA, 999, 999, 5, 29, 158, 185, 96, 87, 89, 128, 2, 0.525643
155, 1, bw, attraction, a-b-db, 5, 3, 5, 30, 195, 120, 117, 190, 120, 195, 3, 4.4461
155, 1, bw, attraction, a-b-db, 5, 3, 5, 30, 195, 120, 117, 190, 120, 195, 2, 0.537994
155, 1, bw, attraction, a-b-da, 14, 3, 5, 31, 195, 120, 181, 111, 120, 195, 3, 1.23452
155, 1, bw, attraction, a-b-da, 14, 3, 5, 31, 195, 120, 181, 111, 120, 195, 2, 0.496087
155, 1, bw, attraction, a-b-db, 9, 2, 5, 32, 165, 90, 86, 157, 90, 165, 3, 2.40193
155, 1, bw, attraction, a-b-db, 9, 2, 5, 32, 165, 90, 86, 157, 90, 165, 2, 0.568425
155, 1, bw, filler, NA, 999, 999, 5, 33, 124, 172, 139, 146, 179, 183, 3, 0.975525
155, 1, bw, filler, NA, 999, 999, 5, 33, 124, 172, 139, 146, 179, 183, 2, 0.527125
155, 1, bw, catch, NA, 999, 999, 5, 34, 74, 121, 163, 152, 118, 137, 2, 1.20771
155, 1, bw, catch, NA, 999, 999, 5, 34, 74, 121, 163, 152, 118, 137, 1, 0.861883
155, 1, bw, attraction, a-b-db, 9, 1, 5, 35, 57, 129, 60, 135, 135, 60, 3, 3.80087
155, 1, bw, attraction, a-b-db, 9, 1, 5, 35, 57, 129, 60, 135, 135, 60, 1, 1.01494
155, 1, bw, filler, NA, 999, 999, 5, 36, 177, 183, 162, 93, 108, 147, 1, 1.33189
155, 1, bw, filler, NA, 999, 999, 5, 36, 177, 183, 162, 93, 108, 147, 2, 1.85361
155, 1, bw, filler, NA, 999, 999, 5, 37, 79, 187, 170, 138, 193, 153, 3, 1.4728
155, 1, bw, filler, NA, 999, 999, 5, 37, 79, 187, 170, 138, 193, 153, 1, 0.476312
155, 1, bw, attraction, a-b-da, 14, 1, 6, 1, 60, 135, 135, 60, 125, 56, 1, 1.30279
155, 1, bw, attraction, a-b-da, 14, 1, 6, 1, 60, 135, 135, 60, 125, 56, 3, 0.88177
155, 1, bw, filler, NA, 999, 999, 6, 2, 173, 187, 74, 131, 101, 98, 1, 0.61997
155, 1, bw, filler, NA, 999, 999, 6, 2, 173, 187, 74, 131, 101, 98, 3, 0.722502
155, 1, bw, filler, NA, 999, 999, 6, 3, 110, 80, 194, 98, 135, 127, 2, 4.51555
155, 1, bw, filler, NA, 999, 999, 6, 3, 110, 80, 194, 98, 135, 127, 1, 0.452789
155, 1, bw, filler, NA, 999, 999, 6, 4, 171, 132, 118, 163, 123, 127, 2, 2.41661
155, 1, bw, filler, NA, 999, 999, 6, 4, 171, 132, 118, 163, 123, 127, 3, 0.606491
155, 1, bw, filler, NA, 999, 999, 6, 5, 171, 88, 150, 119, 63, 158, 2, 2.01222
155, 1, bw, filler, NA, 999, 999, 6, 5, 171, 88, 150, 119, 63, 158, 3, 0.458284
155, 1, bw, attraction, a-b-da, 14, 3, 6, 6, 195, 120, 181, 111, 120, 195, 1, 1.87745
155, 1, bw, attraction, a-b-da, 14, 3, 6, 6, 195, 120, 181, 111, 120, 195, 2, 0.58473
155, 1, bw, attraction, a-b-db, 9, 2, 6, 7, 86, 157, 165, 90, 90, 165, 2, 1.35111
155, 1, bw, attraction, a-b-db, 9, 2, 6, 7, 86, 157, 165, 90, 90, 165, 1, 0.552091
155, 1, bw, attraction, a-b-da, 5, 2, 6, 8, 90, 165, 165, 90, 161, 88, 1, 2.00789
155, 1, bw, attraction, a-b-da, 5, 2, 6, 8, 90, 165, 165, 90, 161, 88, 2, 1.09387
155, 1, bw, filler, NA, 999, 999, 6, 9, 127, 56, 70, 181, 70, 78, 2, 2.19947
155, 1, bw, filler, NA, 999, 999, 6, 9, 127, 56, 70, 181, 70, 78, 3, 0.646169
155, 1, bw, attraction, a-b-db, 5, 2, 6, 10, 90, 165, 165, 90, 88, 161, 1, 1.50586
155, 1, bw, attraction, a-b-db, 5, 2, 6, 10, 90, 165, 165, 90, 88, 161, 3, 0.932018
155, 1, bw, attraction, a-b-db, 14, 1, 6, 11, 135, 60, 60, 135, 56, 125, 1, 1.18028
155, 1, bw, attraction, a-b-db, 14, 1, 6, 11, 135, 60, 60, 135, 56, 125, 3, 0.611902
155, 1, bw, attraction, a-b-da, 5, 1, 6, 12, 135, 60, 132, 58, 60, 135, 1, 1.48918
155, 1, bw, attraction, a-b-da, 5, 1, 6, 12, 135, 60, 132, 58, 60, 135, 3, 0.539872
155, 1, bw, attraction, a-b-da, 2, 2, 6, 13, 90, 165, 163, 89, 165, 90, 1, 1.3003
155, 1, bw, attraction, a-b-da, 2, 2, 6, 13, 90, 165, 163, 89, 165, 90, 3, 0.711119
155, 1, bw, filler, NA, 999, 999, 6, 14, 116, 132, 175, 190, 79, 166, 2, 2.66416
155, 1, bw, filler, NA, 999, 999, 6, 14, 116, 132, 175, 190, 79, 166, 3, 1.22808
155, 1, bw, attraction, a-b-da, 2, 3, 6, 15, 193, 119, 195, 120, 120, 195, 2, 1.68822
155, 1, bw, attraction, a-b-da, 2, 3, 6, 15, 193, 119, 195, 120, 120, 195, 3, 1.28378
155, 1, bw, attraction, a-b-db, 5, 1, 6, 16, 60, 135, 135, 60, 58, 132, 1, 3.30188
155, 1, bw, attraction, a-b-db, 5, 1, 6, 16, 60, 135, 135, 60, 58, 132, 2, 5.04815
155, 1, bw, attraction, a-b-db, 2, 2, 6, 17, 89, 163, 90, 165, 165, 90, 1, 2.05047
155, 1, bw, attraction, a-b-db, 2, 2, 6, 17, 89, 163, 90, 165, 165, 90, 3, 2.36722
155, 1, bw, catch, NA, 999, 999, 6, 18, 62, 133, 164, 151, 157, 98, 2, 1.14173
155, 1, bw, catch, NA, 999, 999, 6, 18, 62, 133, 164, 151, 157, 98, 1, 0.766598
155, 1, bw, attraction, a-b-da, 9, 2, 6, 19, 165, 90, 157, 86, 90, 165, 3, 2.02981
155, 1, bw, attraction, a-b-da, 9, 2, 6, 19, 165, 90, 157, 86, 90, 165, 2, 0.963159
155, 1, bw, attraction, a-b-db, 5, 3, 6, 20, 117, 190, 195, 120, 120, 195, 1, 1.73809
155, 1, bw, attraction, a-b-db, 5, 3, 6, 20, 117, 190, 195, 120, 120, 195, 2, 0.763447
155, 1, bw, attraction, a-b-db, 2, 1, 6, 21, 60, 135, 59, 134, 135, 60, 3, 6.59442
155, 1, bw, attraction, a-b-db, 2, 1, 6, 21, 60, 135, 59, 134, 135, 60, 2, 0.591786
155, 1, bw, filler, NA, 999, 999, 6, 22, 191, 146, 132, 153, 80, 180, 1, 1.43748
155, 1, bw, filler, NA, 999, 999, 6, 22, 191, 146, 132, 153, 80, 180, 3, 0.562379
155, 1, bw, filler, NA, 999, 999, 6, 23, 138, 93, 139, 136, 66, 66, 2, 1.0095
155, 1, bw, filler, NA, 999, 999, 6, 23, 138, 93, 139, 136, 66, 66, 3, 0.695814
155, 1, bw, catch, NA, 999, 999, 6, 24, 114, 81, 169, 146, 150, 105, 2, 1.84954
155, 1, bw, catch, NA, 999, 999, 6, 24, 114, 81, 169, 146, 150, 105, 1, 0.76624
155, 1, bw, attraction, a-b-da, 14, 2, 6, 25, 165, 90, 153, 83, 90, 165, 1, 1.52521
155, 1, bw, attraction, a-b-da, 14, 2, 6, 25, 165, 90, 153, 83, 90, 165, 2, 0.59074
155, 1, bw, attraction, a-b-da, 9, 3, 6, 26, 195, 120, 186, 114, 120, 195, 3, 1.31655
155, 1, bw, attraction, a-b-da, 9, 3, 6, 26, 195, 120, 186, 114, 120, 195, 2, 0.703115
155, 1, bw, attraction, a-b-da, 2, 1, 6, 27, 135, 60, 60, 135, 134, 59, 2, 3.4804
155, 1, bw, attraction, a-b-da, 2, 1, 6, 27, 135, 60, 60, 135, 134, 59, 3, 0.827445
155, 1, bw, catch, NA, 999, 999, 6, 28, 77, 118, 157, 98, 186, 129, 3, 1.20765
155, 1, bw, catch, NA, 999, 999, 6, 28, 77, 118, 157, 98, 186, 129, 1, 1.41401
155, 1, bw, attraction, a-b-db, 14, 3, 6, 29, 120, 195, 195, 120, 111, 181, 1, 1.01884
155, 1, bw, attraction, a-b-db, 14, 3, 6, 29, 120, 195, 195, 120, 111, 181, 3, 1.20914
155, 1, bw, attraction, a-b-db, 9, 3, 6, 30, 195, 120, 114, 186, 120, 195, 2, 2.07816
155, 1, bw, attraction, a-b-db, 9, 3, 6, 30, 195, 120, 114, 186, 120, 195, 3, 0.681441
155, 1, bw, attraction, a-b-db, 2, 3, 6, 31, 120, 195, 195, 120, 119, 193, 1, 1.24371
155, 1, bw, attraction, a-b-db, 2, 3, 6, 31, 120, 195, 195, 120, 119, 193, 3, 0.592748
155, 1, bw, filler, NA, 999, 999, 6, 32, 60, 62, 58, 168, 181, 147, 3, 0.958562
155, 1, bw, filler, NA, 999, 999, 6, 32, 60, 62, 58, 168, 181, 147, 1, 0.926824
155, 1, bw, attraction, a-b-db, 14, 2, 6, 33, 83, 153, 165, 90, 90, 165, 3, 1.22307
155, 1, bw, attraction, a-b-db, 14, 2, 6, 33, 83, 153, 165, 90, 90, 165, 2, 2.50872
155, 1, bw, attraction, a-b-db, 9, 1, 6, 34, 60, 135, 135, 60, 57, 129, 2, 1.40517
155, 1, bw, attraction, a-b-db, 9, 1, 6, 34, 60, 135, 135, 60, 57, 129, 3, 0.667374
155, 1, bw, attraction, a-b-da, 9, 1, 6, 35, 135, 60, 129, 57, 60, 135, 1, 0.854318
155, 1, bw, attraction, a-b-da, 9, 1, 6, 35, 135, 60, 129, 57, 60, 135, 2, 1.34738
155, 1, bw, attraction, a-b-da, 5, 3, 6, 36, 120, 195, 190, 117, 195, 120, 1, 1.27496
155, 1, bw, attraction, a-b-da, 5, 3, 6, 36, 120, 195, 190, 117, 195, 120, 2, 0.638486
155, 1, bw, filler, NA, 999, 999, 6, 37, 84, 90, 162, 157, 84, 146, 2, 1.96295
155, 1, bw, filler, NA, 999, 999, 6, 37, 84, 90, 162, 157, 84, 146, 1, 0.60294
155, 1, bw, attraction, a-b-db, 9, 2, 7, 1, 86, 157, 165, 90, 90, 165, 3, 2.88876
155, 1, bw, attraction, a-b-db, 9, 2, 7, 1, 86, 157, 165, 90, 90, 165, 1, 0.859153
155, 1, bw, attraction, a-b-da, 14, 1, 7, 2, 125, 56, 135, 60, 60, 135, 2, 24.6783
155, 1, bw, attraction, a-b-da, 14, 1, 7, 2, 125, 56, 135, 60, 60, 135, 1, 0.62645
155, 1, bw, attraction, a-b-da, 5, 3, 7, 3, 120, 195, 195, 120, 190, 117, 1, 1.78288
155, 1, bw, attraction, a-b-da, 5, 3, 7, 3, 120, 195, 195, 120, 190, 117, 2, 0.854231
155, 1, bw, attraction, a-b-da, 2, 1, 7, 4, 135, 60, 60, 135, 134, 59, 1, 4.74601
155, 1, bw, attraction, a-b-da, 2, 1, 7, 4, 135, 60, 60, 135, 134, 59, 2, 0.825713
155, 1, bw, attraction, a-b-db, 5, 1, 7, 5, 60, 135, 58, 132, 135, 60, 1, 1.16602
155, 1, bw, attraction, a-b-db, 5, 1, 7, 5, 60, 135, 58, 132, 135, 60, 2, 0.486361
155, 1, bw, attraction, a-b-db, 9, 1, 7, 6, 57, 129, 135, 60, 60, 135, 3, 1.36096
155, 1, bw, attraction, a-b-db, 9, 1, 7, 6, 57, 129, 135, 60, 60, 135, 2, 0.680983
155, 1, bw, attraction, a-b-da, 14, 2, 7, 7, 90, 165, 153, 83, 165, 90, 1, 1.28339
155, 1, bw, attraction, a-b-da, 14, 2, 7, 7, 90, 165, 153, 83, 165, 90, 2, 1.079
155, 1, bw, attraction, a-b-db, 5, 3, 7, 8, 120, 195, 195, 120, 117, 190, 1, 3.08134
155, 1, bw, attraction, a-b-db, 5, 3, 7, 8, 120, 195, 195, 120, 117, 190, 2, 0.820224
155, 1, bw, attraction, a-b-db, 14, 2, 7, 9, 90, 165, 83, 153, 165, 90, 1, 2.34534
155, 1, bw, attraction, a-b-db, 14, 2, 7, 9, 90, 165, 83, 153, 165, 90, 2, 1.52989
155, 1, bw, attraction, a-b-db, 5, 2, 7, 10, 88, 161, 90, 165, 165, 90, 2, 1.13807
155, 1, bw, attraction, a-b-db, 5, 2, 7, 10, 88, 161, 90, 165, 165, 90, 1, 0.931748
155, 1, bw, filler, NA, 999, 999, 7, 11, 128, 96, 76, 160, 176, 138, 3, 1.73207
155, 1, bw, filler, NA, 999, 999, 7, 11, 128, 96, 76, 160, 176, 138, 1, 1.45341
155, 1, bw, attraction, a-b-da, 2, 2, 7, 12, 163, 89, 165, 90, 90, 165, 1, 2.8569
155, 1, bw, attraction, a-b-da, 2, 2, 7, 12, 163, 89, 165, 90, 90, 165, 2, 0.532669
155, 1, bw, filler, NA, 999, 999, 7, 13, 109, 65, 172, 146, 90, 117, 2, 0.932992
155, 1, bw, filler, NA, 999, 999, 7, 13, 109, 65, 172, 146, 90, 117, 1, 0.806801
155, 1, bw, attraction, a-b-db, 2, 1, 7, 14, 135, 60, 60, 135, 59, 134, 2, 1.5718
155, 1, bw, attraction, a-b-db, 2, 1, 7, 14, 135, 60, 60, 135, 59, 134, 3, 2.33123
155, 1, bw, attraction, a-b-db, 2, 3, 7, 15, 119, 193, 195, 120, 120, 195, 1, 1.59503
155, 1, bw, attraction, a-b-db, 2, 3, 7, 15, 119, 193, 195, 120, 120, 195, 2, 0.593915
155, 1, bw, attraction, a-b-da, 14, 3, 7, 16, 120, 195, 181, 111, 195, 120, 1, 7.91168
155, 1, bw, attraction, a-b-da, 14, 3, 7, 16, 120, 195, 181, 111, 195, 120, 2, 0.679851
155, 1, bw, attraction, a-b-db, 2, 2, 7, 17, 165, 90, 90, 165, 89, 163, 2, 1.91432
155, 1, bw, attraction, a-b-db, 2, 2, 7, 17, 165, 90, 90, 165, 89, 163, 1, 1.21219
155, 1, bw, attraction, a-b-da, 9, 3, 7, 18, 195, 120, 120, 195, 186, 114, 2, 1.72917
155, 1, bw, attraction, a-b-da, 9, 3, 7, 18, 195, 120, 120, 195, 186, 114, 3, 2.5307
155, 1, bw, catch, NA, 999, 999, 7, 19, 166, 149, 123, 72, 134, 121, 1, 0.762436
155, 1, bw, catch, NA, 999, 999, 7, 19, 166, 149, 123, 72, 134, 121, 2, 0.554906
155, 1, bw, filler, NA, 999, 999, 7, 20, 56, 125, 111, 72, 153, 108, 3, 0.858633
155, 1, bw, filler, NA, 999, 999, 7, 20, 56, 125, 111, 72, 153, 108, 1, 1.25516
155, 1, bw, catch, NA, 999, 999, 7, 21, 167, 148, 94, 101, 132, 123, 1, 0.674703
155, 1, bw, catch, NA, 999, 999, 7, 21, 167, 148, 94, 101, 132, 123, 2, 0.822336
155, 1, bw, attraction, a-b-da, 9, 2, 7, 22, 165, 90, 157, 86, 90, 165, 1, 1.56334
155, 1, bw, attraction, a-b-da, 9, 2, 7, 22, 165, 90, 157, 86, 90, 165, 2, 0.499495
155, 1, bw, attraction, a-b-da, 2, 3, 7, 23, 193, 119, 195, 120, 120, 195, 1, 2.12527
155, 1, bw, attraction, a-b-da, 2, 3, 7, 23, 193, 119, 195, 120, 120, 195, 2, 0.478499
155, 1, bw, attraction, a-b-db, 14, 3, 7, 24, 111, 181, 120, 195, 195, 120, 2, 1.24915
155, 1, bw, attraction, a-b-db, 14, 3, 7, 24, 111, 181, 120, 195, 195, 120, 1, 0.429984
155, 1, bw, filler, NA, 999, 999, 7, 25, 101, 164, 154, 188, 65, 73, 2, 0.754488
155, 1, bw, filler, NA, 999, 999, 7, 25, 101, 164, 154, 188, 65, 73, 3, 0.587428
155, 1, bw, filler, NA, 999, 999, 7, 26, 75, 187, 132, 83, 110, 94, 1, 2.59388
155, 1, bw, filler, NA, 999, 999, 7, 26, 75, 187, 132, 83, 110, 94, 2, 0.824445
155, 1, bw, filler, NA, 999, 999, 7, 27, 88, 162, 97, 94, 155, 77, 1, 2.08482
155, 1, bw, filler, NA, 999, 999, 7, 27, 88, 162, 97, 94, 155, 77, 2, 1.43209
155, 1, bw, attraction, a-b-db, 9, 3, 7, 28, 114, 186, 195, 120, 120, 195, 2, 1.92429
155, 1, bw, attraction, a-b-db, 9, 3, 7, 28, 114, 186, 195, 120, 120, 195, 1, 0.589596
155, 1, bw, catch, NA, 999, 999, 7, 29, 189, 126, 88, 107, 152, 103, 1, 0.995965
155, 1, bw, catch, NA, 999, 999, 7, 29, 189, 126, 88, 107, 152, 103, 2, 0.434993
155, 1, bw, attraction, a-b-da, 5, 2, 7, 30, 161, 88, 165, 90, 90, 165, 2, 0.839565
155, 1, bw, attraction, a-b-da, 5, 2, 7, 30, 161, 88, 165, 90, 90, 165, 1, 1.25269
155, 1, bw, attraction, a-b-da, 5, 1, 7, 31, 60, 135, 132, 58, 135, 60, 3, 1.91229
155, 1, bw, attraction, a-b-da, 5, 1, 7, 31, 60, 135, 132, 58, 135, 60, 2, 1.08206
155, 1, bw, filler, NA, 999, 999, 7, 32, 182, 193, 131, 164, 161, 140, 1, 0.940357
155, 1, bw, filler, NA, 999, 999, 7, 32, 182, 193, 131, 164, 161, 140, 2, 0.717368
155, 1, bw, filler, NA, 999, 999, 7, 33, 119, 191, 163, 132, 73, 61, 2, 1.08639
155, 1, bw, filler, NA, 999, 999, 7, 33, 119, 191, 163, 132, 73, 61, 3, 1.95425
155, 1, bw, attraction, a-b-db, 14, 1, 7, 34, 60, 135, 135, 60, 56, 125, 2, 4.97735
155, 1, bw, attraction, a-b-db, 14, 1, 7, 34, 60, 135, 135, 60, 56, 125, 3, 0.567835
155, 1, bw, attraction, a-b-da, 9, 1, 7, 35, 135, 60, 60, 135, 129, 57, 1, 3.40691
155, 1, bw, attraction, a-b-da, 9, 1, 7, 35, 135, 60, 60, 135, 129, 57, 3, 0.940504
155, 1, bw, filler, NA, 999, 999, 7, 36, 99, 106, 187, 167, 173, 95, 2, 0.740138
155, 1, bw, filler, NA, 999, 999, 7, 36, 99, 106, 187, 167, 173, 95, 1, 0.605165
155, 1, bw, filler, NA, 999, 999, 7, 37, 130, 94, 92, 99, 163, 105, 3, 0.947175
155, 1, bw, filler, NA, 999, 999, 7, 37, 130, 94, 92, 99, 163, 105, 2, 0.811927
155, 1, bw, attraction, a-b-db, 14, 1, 8, 1, 56, 125, 135, 60, 60, 135, 2, 1.20098
155, 1, bw, attraction, a-b-db, 14, 1, 8, 1, 56, 125, 135, 60, 60, 135, 3, 0.463984
155, 1, bw, filler, NA, 999, 999, 8, 2, 186, 192, 60, 99, 137, 175, 1, 0.699048
155, 1, bw, filler, NA, 999, 999, 8, 2, 186, 192, 60, 99, 137, 175, 2, 0.630235
155, 1, bw, attraction, a-b-da, 5, 3, 8, 3, 195, 120, 190, 117, 120, 195, 2, 1.35459
155, 1, bw, attraction, a-b-da, 5, 3, 8, 3, 195, 120, 190, 117, 120, 195, 3, 1.33879
155, 1, bw, attraction, a-b-da, 14, 1, 8, 4, 135, 60, 125, 56, 60, 135, 1, 4.57091
155, 1, bw, attraction, a-b-da, 14, 1, 8, 4, 135, 60, 125, 56, 60, 135, 2, 0.586286
155, 1, bw, attraction, a-b-db, 9, 2, 8, 5, 165, 90, 86, 157, 90, 165, 1, 2.23256
155, 1, bw, attraction, a-b-db, 9, 2, 8, 5, 165, 90, 86, 157, 90, 165, 2, 0.453861
155, 1, bw, attraction, a-b-db, 14, 3, 8, 6, 111, 181, 195, 120, 120, 195, 3, 1.32972
155, 1, bw, attraction, a-b-db, 14, 3, 8, 6, 111, 181, 195, 120, 120, 195, 1, 0.923339
155, 1, bw, filler, NA, 999, 999, 8, 7, 108, 89, 94, 144, 144, 127, 3, 1.35556
155, 1, bw, filler, NA, 999, 999, 8, 7, 108, 89, 94, 144, 144, 127, 1, 0.547747
155, 1, bw, catch, NA, 999, 999, 8, 8, 148, 167, 86, 109, 165, 90, 1, 0.731579
155, 1, bw, catch, NA, 999, 999, 8, 8, 148, 167, 86, 109, 165, 90, 2, 0.613767
155, 1, bw, attraction, a-b-db, 2, 1, 8, 9, 59, 134, 135, 60, 60, 135, 2, 1.75439
155, 1, bw, attraction, a-b-db, 2, 1, 8, 9, 59, 134, 135, 60, 60, 135, 1, 0.419175
155, 1, bw, attraction, a-b-db, 14, 2, 8, 10, 83, 153, 165, 90, 90, 165, 2, 0.920451
155, 1, bw, attraction, a-b-db, 14, 2, 8, 10, 83, 153, 165, 90, 90, 165, 3, 0.386642
155, 1, bw, filler, NA, 999, 999, 8, 11, 186, 169, 83, 81, 144, 127, 1, 0.777231
155, 1, bw, filler, NA, 999, 999, 8, 11, 186, 169, 83, 81, 144, 127, 2, 0.440866
155, 1, bw, attraction, a-b-da, 2, 2, 8, 12, 163, 89, 90, 165, 165, 90, 2, 0.804601
155, 1, bw, attraction, a-b-da, 2, 2, 8, 12, 163, 89, 90, 165, 165, 90, 3, 1.21976
155, 1, bw, filler, NA, 999, 999, 8, 13, 192, 188, 133, 147, 154, 68, 1, 0.52858
155, 1, bw, filler, NA, 999, 999, 8, 13, 192, 188, 133, 147, 154, 68, 2, 0.690458
155, 1, bw, filler, NA, 999, 999, 8, 14, 80, 156, 121, 174, 71, 64, 2, 1.38017
155, 1, bw, filler, NA, 999, 999, 8, 14, 80, 156, 121, 174, 71, 64, 3, 0.587702
155, 1, bw, attraction, a-b-db, 9, 1, 8, 15, 60, 135, 57, 129, 135, 60, 3, 1.98607
155, 1, bw, attraction, a-b-db, 9, 1, 8, 15, 60, 135, 57, 129, 135, 60, 2, 0.785497
155, 1, bw, attraction, a-b-db, 2, 3, 8, 16, 195, 120, 120, 195, 119, 193, 1, 4.13589
155, 1, bw, attraction, a-b-db, 2, 3, 8, 16, 195, 120, 120, 195, 119, 193, 2, 0.592466
155, 1, bw, attraction, a-b-da, 2, 3, 8, 17, 120, 195, 193, 119, 195, 120, 3, 5.50244
155, 1, bw, attraction, a-b-da, 2, 3, 8, 17, 120, 195, 193, 119, 195, 120, 1, 0.431851
155, 1, bw, filler, NA, 999, 999, 8, 18, 123, 125, 150, 82, 60, 68, 2, 1.1724
155, 1, bw, filler, NA, 999, 999, 8, 18, 123, 125, 150, 82, 60, 68, 3, 1.80399
155, 1, bw, filler, NA, 999, 999, 8, 19, 83, 151, 178, 134, 162, 178, 3, 1.08925
155, 1, bw, filler, NA, 999, 999, 8, 19, 83, 151, 178, 134, 162, 178, 1, 0.556278
155, 1, bw, filler, NA, 999, 999, 8, 20, 193, 63, 86, 80, 136, 67, 1, 2.89211
155, 1, bw, filler, NA, 999, 999, 8, 20, 193, 63, 86, 80, 136, 67, 2, 0.77449
155, 1, bw, attraction, a-b-db, 5, 1, 8, 21, 58, 132, 135, 60, 60, 135, 3, 2.03681
155, 1, bw, attraction, a-b-db, 5, 1, 8, 21, 58, 132, 135, 60, 60, 135, 1, 0.554135
155, 1, bw, attraction, a-b-db, 5, 2, 8, 22, 90, 165, 165, 90, 88, 161, 1, 1.13806
155, 1, bw, attraction, a-b-db, 5, 2, 8, 22, 90, 165, 165, 90, 88, 161, 3, 0.595545
155, 1, bw, attraction, a-b-db, 5, 3, 8, 23, 117, 190, 195, 120, 120, 195, 3, 2.22536
155, 1, bw, attraction, a-b-db, 5, 3, 8, 23, 117, 190, 195, 120, 120, 195, 1, 0.390565
155, 1, bw, attraction, a-b-da, 14, 2, 8, 24, 165, 90, 153, 83, 90, 165, 1, 1.07639
155, 1, bw, attraction, a-b-da, 14, 2, 8, 24, 165, 90, 153, 83, 90, 165, 3, 0.448052
155, 1, bw, attraction, a-b-da, 5, 1, 8, 25, 132, 58, 60, 135, 135, 60, 2, 1.73183
155, 1, bw, attraction, a-b-da, 5, 1, 8, 25, 132, 58, 60, 135, 135, 60, 1, 0.901249
155, 1, bw, attraction, a-b-da, 14, 3, 8, 26, 120, 195, 181, 111, 195, 120, 1, 12.2309
155, 1, bw, attraction, a-b-da, 14, 3, 8, 26, 120, 195, 181, 111, 195, 120, 2, 0.849128
155, 1, bw, filler, NA, 999, 999, 8, 27, 136, 90, 186, 112, 91, 185, 2, 1.41284
155, 1, bw, filler, NA, 999, 999, 8, 27, 136, 90, 186, 112, 91, 185, 1, 0.522936
155, 1, bw, attraction, a-b-da, 9, 1, 8, 28, 135, 60, 129, 57, 60, 135, 3, 1.87606
155, 1, bw, attraction, a-b-da, 9, 1, 8, 28, 135, 60, 129, 57, 60, 135, 2, 0.44754
155, 1, bw, attraction, a-b-da, 9, 2, 8, 29, 90, 165, 165, 90, 157, 86, 2, 1.33124
155, 1, bw, attraction, a-b-da, 9, 2, 8, 29, 90, 165, 165, 90, 157, 86, 1, 0.412755
155, 1, bw, catch, NA, 999, 999, 8, 30, 143, 172, 151, 104, 117, 78, 1, 0.905962
155, 1, bw, catch, NA, 999, 999, 8, 30, 143, 172, 151, 104, 117, 78, 3, 0.492826
155, 1, bw, attraction, a-b-da, 5, 2, 8, 31, 161, 88, 165, 90, 90, 165, 3, 1.65412
155, 1, bw, attraction, a-b-da, 5, 2, 8, 31, 161, 88, 165, 90, 90, 165, 2, 1.15501
155, 1, bw, attraction, a-b-da, 9, 3, 8, 32, 195, 120, 186, 114, 120, 195, 1, 1.4346
155, 1, bw, attraction, a-b-da, 9, 3, 8, 32, 195, 120, 186, 114, 120, 195, 2, 0.455997
155, 1, bw, attraction, a-b-db, 9, 3, 8, 33, 195, 120, 120, 195, 114, 186, 2, 1.26788
155, 1, bw, attraction, a-b-db, 9, 3, 8, 33, 195, 120, 120, 195, 114, 186, 3, 0.480068
155, 1, bw, catch, NA, 999, 999, 8, 34, 157, 98, 190, 125, 100, 95, 2, 1.01052
155, 1, bw, catch, NA, 999, 999, 8, 34, 157, 98, 190, 125, 100, 95, 3, 0.808823
155, 1, bw, attraction, a-b-db, 2, 2, 8, 35, 90, 165, 165, 90, 89, 163, 3, 1.1738
155, 1, bw, attraction, a-b-db, 2, 2, 8, 35, 90, 165, 165, 90, 89, 163, 2, 0.421609
155, 1, bw, attraction, a-b-da, 2, 1, 8, 36, 135, 60, 60, 135, 134, 59, 2, 1.42655
155, 1, bw, attraction, a-b-da, 2, 1, 8, 36, 135, 60, 60, 135, 134, 59, 3, 0.864143
155, 1, bw, filler, NA, 999, 999, 8, 37, 111, 97, 178, 130, 167, 70, 2, 1.1712
155, 1, bw, filler, NA, 999, 999, 8, 37, 111, 97, 178, 130, 167, 70, 1, 0.427499
