sub_n, computer_n, bw_cond, effect, set, distance, diag, block_n, trial_n, h1, w1, h2, w2, h3, w3, choice, rt 
11, 1, bw, practice, NA, 999, 999, 0, 1, 130, 103, 58, 98, 121, 146, 3, 2.94223
11, 1, bw, practice, NA, 999, 999, 0, 1, 130, 103, 58, 98, 121, 146, 2, 2.51998
11, 1, bw, practice, NA, 999, 999, 0, 2, 140, 164, 136, 182, 154, 157, 2, 2.70234
11, 1, bw, practice, NA, 999, 999, 0, 2, 140, 164, 136, 182, 154, 157, 1, 1.52141
11, 1, bw, practice, NA, 999, 999, 0, 3, 183, 180, 86, 79, 158, 129, 1, 1.47865
11, 1, bw, practice, NA, 999, 999, 0, 3, 183, 180, 86, 79, 158, 129, 2, 0.986923
11, 1, bw, attraction, a-b-da, 5, 2, 1, 1, 90, 165, 165, 90, 161, 88, 1, 3.0311
11, 1, bw, attraction, a-b-da, 5, 2, 1, 1, 90, 165, 165, 90, 161, 88, 2, 1.59831
11, 1, bw, attraction, a-b-db, 9, 1, 1, 2, 135, 60, 57, 129, 60, 135, 3, 2.5308
11, 1, bw, attraction, a-b-db, 9, 1, 1, 2, 135, 60, 57, 129, 60, 135, 1, 1.75559
11, 1, bw, filler, NA, 999, 999, 1, 3, 171, 140, 56, 157, 88, 155, 1, 1.41848
11, 1, bw, filler, NA, 999, 999, 1, 3, 171, 140, 56, 157, 88, 155, 2, 0.782995
11, 1, bw, filler, NA, 999, 999, 1, 4, 90, 121, 99, 139, 171, 113, 3, 1.99954
11, 1, bw, filler, NA, 999, 999, 1, 4, 90, 121, 99, 139, 171, 113, 1, 0.581611
11, 1, bw, attraction, a-b-da, 9, 1, 1, 5, 135, 60, 60, 135, 129, 57, 2, 2.63521
11, 1, bw, attraction, a-b-da, 9, 1, 1, 5, 135, 60, 60, 135, 129, 57, 3, 0.648874
11, 1, bw, catch, NA, 999, 999, 1, 6, 163, 92, 195, 120, 94, 101, 2, 1.6115
11, 1, bw, catch, NA, 999, 999, 1, 6, 163, 92, 195, 120, 94, 101, 3, 0.835202
11, 1, bw, filler, NA, 999, 999, 1, 7, 124, 160, 95, 135, 183, 144, 3, 1.71327
11, 1, bw, filler, NA, 999, 999, 1, 7, 124, 160, 95, 135, 183, 144, 2, 0.801726
11, 1, bw, attraction, a-b-db, 9, 3, 1, 8, 195, 120, 114, 186, 120, 195, 3, 2.96846
11, 1, bw, attraction, a-b-db, 9, 3, 1, 8, 195, 120, 114, 186, 120, 195, 1, 0.829286
11, 1, bw, attraction, a-b-db, 2, 2, 1, 9, 90, 165, 165, 90, 89, 163, 1, 3.06876
11, 1, bw, attraction, a-b-db, 2, 2, 1, 9, 90, 165, 165, 90, 89, 163, 2, 1.11867
11, 1, bw, filler, NA, 999, 999, 1, 10, 177, 145, 60, 134, 87, 158, 1, 1.81653
11, 1, bw, filler, NA, 999, 999, 1, 10, 177, 145, 60, 134, 87, 158, 2, 0.832268
11, 1, bw, filler, NA, 999, 999, 1, 11, 146, 89, 187, 82, 154, 129, 3, 1.34823
11, 1, bw, filler, NA, 999, 999, 1, 11, 146, 89, 187, 82, 154, 129, 1, 0.76318
11, 1, bw, attraction, a-b-db, 5, 1, 1, 12, 58, 132, 135, 60, 60, 135, 3, 2.4924
11, 1, bw, attraction, a-b-db, 5, 1, 1, 12, 58, 132, 135, 60, 60, 135, 1, 0.806242
11, 1, bw, attraction, a-b-da, 5, 3, 1, 13, 190, 117, 195, 120, 120, 195, 3, 2.43642
11, 1, bw, attraction, a-b-da, 5, 3, 1, 13, 190, 117, 195, 120, 120, 195, 1, 0.868167
11, 1, bw, filler, NA, 999, 999, 1, 14, 193, 143, 100, 134, 110, 89, 1, 2.12426
11, 1, bw, filler, NA, 999, 999, 1, 14, 193, 143, 100, 134, 110, 89, 3, 0.910526
11, 1, bw, filler, NA, 999, 999, 1, 15, 96, 86, 131, 161, 128, 122, 2, 1.56905
11, 1, bw, filler, NA, 999, 999, 1, 15, 96, 86, 131, 161, 128, 122, 1, 1.0472
11, 1, bw, attraction, a-b-db, 14, 3, 1, 16, 195, 120, 120, 195, 111, 181, 2, 2.70824
11, 1, bw, attraction, a-b-db, 14, 3, 1, 16, 195, 120, 120, 195, 111, 181, 3, 1.29441
11, 1, bw, attraction, a-b-da, 14, 2, 1, 17, 153, 83, 165, 90, 90, 165, 3, 1.80261
11, 1, bw, attraction, a-b-da, 14, 2, 1, 17, 153, 83, 165, 90, 90, 165, 1, 0.815346
11, 1, bw, attraction, a-b-da, 2, 2, 1, 18, 90, 165, 163, 89, 165, 90, 1, 1.53274
11, 1, bw, attraction, a-b-da, 2, 2, 1, 18, 90, 165, 163, 89, 165, 90, 2, 2.05493
11, 1, bw, attraction, a-b-da, 2, 3, 1, 19, 195, 120, 193, 119, 120, 195, 3, 2.98014
11, 1, bw, attraction, a-b-da, 2, 3, 1, 19, 195, 120, 193, 119, 120, 195, 1, 4.56914
11, 1, bw, attraction, a-b-db, 9, 2, 1, 20, 165, 90, 90, 165, 86, 157, 2, 3.19165
11, 1, bw, attraction, a-b-db, 9, 2, 1, 20, 165, 90, 90, 165, 86, 157, 1, 4.02955
11, 1, bw, attraction, a-b-db, 5, 3, 1, 21, 117, 190, 195, 120, 120, 195, 3, 2.38773
11, 1, bw, attraction, a-b-db, 5, 3, 1, 21, 117, 190, 195, 120, 120, 195, 2, 1.16895
11, 1, bw, attraction, a-b-db, 2, 1, 1, 22, 60, 135, 135, 60, 59, 134, 3, 10.3532
11, 1, bw, attraction, a-b-db, 2, 1, 1, 22, 60, 135, 135, 60, 59, 134, 2, 0.788315
11, 1, bw, attraction, a-b-db, 14, 2, 1, 23, 83, 153, 165, 90, 90, 165, 3, 2.03786
11, 1, bw, attraction, a-b-db, 14, 2, 1, 23, 83, 153, 165, 90, 90, 165, 2, 0.704613
11, 1, bw, filler, NA, 999, 999, 1, 24, 116, 148, 72, 153, 186, 124, 3, 1.3721
11, 1, bw, filler, NA, 999, 999, 1, 24, 116, 148, 72, 153, 186, 124, 2, 0.876294
11, 1, bw, attraction, a-b-db, 5, 2, 1, 25, 88, 161, 165, 90, 90, 165, 3, 1.72793
11, 1, bw, attraction, a-b-db, 5, 2, 1, 25, 88, 161, 165, 90, 90, 165, 2, 3.97597
11, 1, bw, filler, NA, 999, 999, 1, 26, 79, 80, 128, 166, 88, 109, 2, 1.86342
11, 1, bw, filler, NA, 999, 999, 1, 26, 79, 80, 128, 166, 88, 109, 1, 1.11426
11, 1, bw, attraction, a-b-da, 5, 1, 1, 27, 60, 135, 132, 58, 135, 60, 1, 3.56518
11, 1, bw, attraction, a-b-da, 5, 1, 1, 27, 60, 135, 132, 58, 135, 60, 2, 0.757218
11, 1, bw, attraction, a-b-da, 9, 2, 1, 28, 90, 165, 157, 86, 165, 90, 1, 3.14747
11, 1, bw, attraction, a-b-da, 9, 2, 1, 28, 90, 165, 157, 86, 165, 90, 2, 1.01937
11, 1, bw, filler, NA, 999, 999, 1, 29, 166, 173, 62, 131, 126, 146, 1, 1.54514
11, 1, bw, filler, NA, 999, 999, 1, 29, 166, 173, 62, 131, 126, 146, 2, 0.857886
11, 1, bw, catch, NA, 999, 999, 1, 30, 75, 120, 129, 186, 150, 105, 2, 2.67543
11, 1, bw, catch, NA, 999, 999, 1, 30, 75, 120, 129, 186, 150, 105, 1, 1.16266
11, 1, bw, attraction, a-b-da, 14, 3, 1, 31, 181, 111, 120, 195, 195, 120, 2, 2.33559
11, 1, bw, attraction, a-b-da, 14, 3, 1, 31, 181, 111, 120, 195, 195, 120, 1, 0.882111
11, 1, bw, attraction, a-b-db, 2, 3, 1, 32, 119, 193, 195, 120, 120, 195, 3, 4.80353
11, 1, bw, attraction, a-b-db, 2, 3, 1, 32, 119, 193, 195, 120, 120, 195, 2, 1.97011
11, 1, bw, catch, NA, 999, 999, 1, 33, 120, 135, 89, 106, 171, 144, 3, 1.5528
11, 1, bw, catch, NA, 999, 999, 1, 33, 120, 135, 89, 106, 171, 144, 2, 0.855439
11, 1, bw, attraction, a-b-da, 9, 3, 1, 34, 186, 114, 195, 120, 120, 195, 2, 1.78959
11, 1, bw, attraction, a-b-da, 9, 3, 1, 34, 186, 114, 195, 120, 120, 195, 1, 3.88208
11, 1, bw, attraction, a-b-da, 14, 1, 1, 35, 60, 135, 125, 56, 135, 60, 1, 4.1905
11, 1, bw, attraction, a-b-da, 14, 1, 1, 35, 60, 135, 125, 56, 135, 60, 2, 0.813128
11, 1, bw, attraction, a-b-da, 2, 1, 1, 36, 134, 59, 60, 135, 135, 60, 2, 3.40213
11, 1, bw, attraction, a-b-da, 2, 1, 1, 36, 134, 59, 60, 135, 135, 60, 1, 1.32117
11, 1, bw, attraction, a-b-db, 14, 1, 1, 37, 56, 125, 60, 135, 135, 60, 2, 3.92024
11, 1, bw, attraction, a-b-db, 14, 1, 1, 37, 56, 125, 60, 135, 135, 60, 1, 2.3231
11, 1, bw, attraction, a-b-da, 9, 2, 2, 1, 157, 86, 165, 90, 90, 165, 3, 7.26751
11, 1, bw, attraction, a-b-da, 9, 2, 2, 1, 157, 86, 165, 90, 90, 165, 1, 1.09954
11, 1, bw, filler, NA, 999, 999, 2, 2, 104, 195, 130, 93, 62, 121, 1, 2.81586
11, 1, bw, filler, NA, 999, 999, 2, 2, 104, 195, 130, 93, 62, 121, 3, 0.77905
11, 1, bw, attraction, a-b-da, 5, 1, 2, 3, 135, 60, 132, 58, 60, 135, 3, 1.91505
11, 1, bw, attraction, a-b-da, 5, 1, 2, 3, 135, 60, 132, 58, 60, 135, 2, 2.25282
11, 1, bw, catch, NA, 999, 999, 2, 4, 131, 124, 120, 75, 165, 150, 3, 1.23912
11, 1, bw, catch, NA, 999, 999, 2, 4, 131, 124, 120, 75, 165, 150, 2, 0.854282
11, 1, bw, filler, NA, 999, 999, 2, 5, 142, 112, 137, 113, 116, 182, 3, 2.50568
11, 1, bw, filler, NA, 999, 999, 2, 5, 142, 112, 137, 113, 116, 182, 2, 1.78973
11, 1, bw, attraction, a-b-db, 5, 1, 2, 6, 58, 132, 135, 60, 60, 135, 3, 4.37706
11, 1, bw, attraction, a-b-db, 5, 1, 2, 6, 58, 132, 135, 60, 60, 135, 2, 0.841711
11, 1, bw, attraction, a-b-da, 5, 2, 2, 7, 161, 88, 165, 90, 90, 165, 3, 5.38357
11, 1, bw, attraction, a-b-da, 5, 2, 2, 7, 161, 88, 165, 90, 90, 165, 1, 6.12586
11, 1, bw, filler, NA, 999, 999, 2, 8, 152, 146, 190, 186, 165, 171, 2, 1.33956
11, 1, bw, filler, NA, 999, 999, 2, 8, 152, 146, 190, 186, 165, 171, 1, 1.38999
11, 1, bw, attraction, a-b-db, 2, 1, 2, 9, 135, 60, 59, 134, 60, 135, 3, 3.41209
11, 1, bw, attraction, a-b-db, 2, 1, 2, 9, 135, 60, 59, 134, 60, 135, 1, 1.45779
11, 1, bw, filler, NA, 999, 999, 2, 10, 106, 56, 161, 95, 105, 145, 3, 5.66132
11, 1, bw, filler, NA, 999, 999, 2, 10, 106, 56, 161, 95, 105, 145, 1, 0.808179
11, 1, bw, attraction, a-b-db, 9, 3, 2, 11, 195, 120, 114, 186, 120, 195, 3, 5.41471
11, 1, bw, attraction, a-b-db, 9, 3, 2, 11, 195, 120, 114, 186, 120, 195, 2, 0.801249
11, 1, bw, attraction, a-b-da, 14, 1, 2, 12, 125, 56, 135, 60, 60, 135, 3, 2.44776
11, 1, bw, attraction, a-b-da, 14, 1, 2, 12, 125, 56, 135, 60, 60, 135, 1, 0.779428
11, 1, bw, attraction, a-b-db, 14, 1, 2, 13, 56, 125, 135, 60, 60, 135, 3, 1.54031
11, 1, bw, attraction, a-b-db, 14, 1, 2, 13, 56, 125, 135, 60, 60, 135, 1, 0.742529
11, 1, bw, attraction, a-b-da, 2, 1, 2, 14, 135, 60, 134, 59, 60, 135, 3, 3.82991
11, 1, bw, attraction, a-b-da, 2, 1, 2, 14, 135, 60, 134, 59, 60, 135, 2, 1.29809
11, 1, bw, attraction, a-b-da, 9, 1, 2, 15, 60, 135, 135, 60, 129, 57, 2, 5.16478
11, 1, bw, attraction, a-b-da, 9, 1, 2, 15, 60, 135, 135, 60, 129, 57, 3, 0.893298
11, 1, bw, attraction, a-b-db, 5, 3, 2, 16, 195, 120, 117, 190, 120, 195, 3, 3.47789
11, 1, bw, attraction, a-b-db, 5, 3, 2, 16, 195, 120, 117, 190, 120, 195, 1, 5.21793
11, 1, bw, filler, NA, 999, 999, 2, 17, 87, 85, 172, 91, 93, 59, 2, 2.06884
11, 1, bw, filler, NA, 999, 999, 2, 17, 87, 85, 172, 91, 93, 59, 3, 1.27486
11, 1, bw, attraction, a-b-da, 14, 3, 2, 18, 120, 195, 181, 111, 195, 120, 1, 3.10815
11, 1, bw, attraction, a-b-da, 14, 3, 2, 18, 120, 195, 181, 111, 195, 120, 2, 2.31788
11, 1, bw, attraction, a-b-db, 2, 2, 2, 19, 165, 90, 90, 165, 89, 163, 2, 3.84739
11, 1, bw, attraction, a-b-db, 2, 2, 2, 19, 165, 90, 90, 165, 89, 163, 1, 0.787807
11, 1, bw, filler, NA, 999, 999, 2, 20, 195, 137, 137, 85, 123, 62, 1, 3.23366
11, 1, bw, filler, NA, 999, 999, 2, 20, 195, 137, 137, 85, 123, 62, 3, 0.791718
11, 1, bw, attraction, a-b-da, 5, 3, 2, 21, 190, 117, 195, 120, 120, 195, 3, 3.49248
11, 1, bw, attraction, a-b-da, 5, 3, 2, 21, 190, 117, 195, 120, 120, 195, 1, 1.20062
11, 1, bw, attraction, a-b-da, 9, 3, 2, 22, 120, 195, 195, 120, 186, 114, 1, 4.86895
11, 1, bw, attraction, a-b-da, 9, 3, 2, 22, 120, 195, 195, 120, 186, 114, 3, 0.775402
11, 1, bw, filler, NA, 999, 999, 2, 23, 63, 129, 101, 142, 58, 186, 2, 2.12764
11, 1, bw, filler, NA, 999, 999, 2, 23, 63, 129, 101, 142, 58, 186, 1, 0.706371
11, 1, bw, filler, NA, 999, 999, 2, 24, 178, 129, 69, 129, 108, 85, 1, 1.54613
11, 1, bw, filler, NA, 999, 999, 2, 24, 178, 129, 69, 129, 108, 85, 3, 0.963209
11, 1, bw, attraction, a-b-db, 5, 2, 2, 25, 165, 90, 88, 161, 90, 165, 3, 2.7541
11, 1, bw, attraction, a-b-db, 5, 2, 2, 25, 165, 90, 88, 161, 90, 165, 1, 1.38619
11, 1, bw, attraction, a-b-db, 14, 3, 2, 26, 120, 195, 111, 181, 195, 120, 1, 2.54451
11, 1, bw, attraction, a-b-db, 14, 3, 2, 26, 120, 195, 111, 181, 195, 120, 2, 3.60284
11, 1, bw, catch, NA, 999, 999, 2, 27, 123, 192, 70, 125, 160, 95, 1, 1.37498
11, 1, bw, catch, NA, 999, 999, 2, 27, 123, 192, 70, 125, 160, 95, 2, 0.765084
11, 1, bw, attraction, a-b-db, 9, 2, 2, 28, 165, 90, 86, 157, 90, 165, 3, 2.35605
11, 1, bw, attraction, a-b-db, 9, 2, 2, 28, 165, 90, 86, 157, 90, 165, 2, 1.06289
11, 1, bw, attraction, a-b-db, 9, 1, 2, 29, 57, 129, 135, 60, 60, 135, 3, 2.13747
11, 1, bw, attraction, a-b-db, 9, 1, 2, 29, 57, 129, 135, 60, 60, 135, 1, 2.13076
11, 1, bw, attraction, a-b-da, 2, 2, 2, 30, 163, 89, 90, 165, 165, 90, 2, 6.16331
11, 1, bw, attraction, a-b-da, 2, 2, 2, 30, 163, 89, 90, 165, 165, 90, 3, 1.45162
11, 1, bw, filler, NA, 999, 999, 2, 31, 187, 177, 183, 80, 148, 139, 1, 1.39786
11, 1, bw, filler, NA, 999, 999, 2, 31, 187, 177, 183, 80, 148, 139, 2, 1.53149
11, 1, bw, attraction, a-b-da, 14, 2, 2, 32, 153, 83, 90, 165, 165, 90, 2, 4.09165
11, 1, bw, attraction, a-b-da, 14, 2, 2, 32, 153, 83, 90, 165, 165, 90, 1, 0.757976
11, 1, bw, attraction, a-b-db, 2, 3, 2, 33, 119, 193, 120, 195, 195, 120, 2, 5.95219
11, 1, bw, attraction, a-b-db, 2, 3, 2, 33, 119, 193, 120, 195, 195, 120, 1, 1.05395
11, 1, bw, attraction, a-b-db, 14, 2, 2, 34, 83, 153, 165, 90, 90, 165, 3, 4.2327
11, 1, bw, attraction, a-b-db, 14, 2, 2, 34, 83, 153, 165, 90, 90, 165, 1, 1.15219
11, 1, bw, catch, NA, 999, 999, 2, 35, 123, 132, 76, 119, 138, 177, 3, 1.67048
11, 1, bw, catch, NA, 999, 999, 2, 35, 123, 132, 76, 119, 138, 177, 2, 0.818509
11, 1, bw, attraction, a-b-da, 2, 3, 2, 36, 195, 120, 193, 119, 120, 195, 3, 2.89736
11, 1, bw, attraction, a-b-da, 2, 3, 2, 36, 195, 120, 193, 119, 120, 195, 2, 2.92892
11, 1, bw, filler, NA, 999, 999, 2, 37, 186, 166, 155, 139, 186, 101, 1, 1.62671
11, 1, bw, filler, NA, 999, 999, 2, 37, 186, 166, 155, 139, 186, 101, 3, 0.737607
11, 1, bw, attraction, a-b-db, 2, 2, 3, 1, 165, 90, 89, 163, 90, 165, 3, 2.80063
11, 1, bw, attraction, a-b-db, 2, 2, 3, 1, 165, 90, 89, 163, 90, 165, 1, 4.51278
11, 1, bw, filler, NA, 999, 999, 3, 2, 132, 90, 125, 88, 187, 154, 3, 14.1999
11, 1, bw, filler, NA, 999, 999, 3, 2, 132, 90, 125, 88, 187, 154, 2, 1.64263
11, 1, bw, attraction, a-b-da, 14, 2, 3, 3, 90, 165, 153, 83, 165, 90, 1, 2.50157
11, 1, bw, attraction, a-b-da, 14, 2, 3, 3, 90, 165, 153, 83, 165, 90, 2, 1.02571
11, 1, bw, attraction, a-b-da, 9, 3, 3, 4, 195, 120, 120, 195, 186, 114, 1, 1.90047
11, 1, bw, attraction, a-b-da, 9, 3, 3, 4, 195, 120, 120, 195, 186, 114, 2, 1.91302
11, 1, bw, attraction, a-b-db, 9, 1, 3, 5, 135, 60, 60, 135, 57, 129, 2, 3.43485
11, 1, bw, attraction, a-b-db, 9, 1, 3, 5, 135, 60, 60, 135, 57, 129, 1, 1.87842
11, 1, bw, attraction, a-b-da, 5, 1, 3, 6, 132, 58, 135, 60, 60, 135, 3, 3.25163
11, 1, bw, attraction, a-b-da, 5, 1, 3, 6, 132, 58, 135, 60, 60, 135, 1, 1.09532
11, 1, bw, catch, NA, 999, 999, 3, 7, 159, 96, 167, 148, 90, 105, 2, 1.66478
11, 1, bw, catch, NA, 999, 999, 3, 7, 159, 96, 167, 148, 90, 105, 3, 0.957438
11, 1, bw, filler, NA, 999, 999, 3, 8, 151, 187, 91, 122, 161, 111, 1, 5.82041
11, 1, bw, filler, NA, 999, 999, 3, 8, 151, 187, 91, 122, 161, 111, 2, 0.707067
11, 1, bw, attraction, a-b-db, 5, 2, 3, 9, 88, 161, 90, 165, 165, 90, 2, 2.23487
11, 1, bw, attraction, a-b-db, 5, 2, 3, 9, 88, 161, 90, 165, 165, 90, 1, 2.04875
11, 1, bw, attraction, a-b-da, 2, 3, 3, 10, 195, 120, 193, 119, 120, 195, 3, 2.66031
11, 1, bw, attraction, a-b-da, 2, 3, 3, 10, 195, 120, 193, 119, 120, 195, 1, 1.54378
11, 1, bw, attraction, a-b-db, 2, 1, 3, 11, 60, 135, 59, 134, 135, 60, 1, 5.15319
11, 1, bw, attraction, a-b-db, 2, 1, 3, 11, 60, 135, 59, 134, 135, 60, 2, 1.64783
11, 1, bw, attraction, a-b-db, 9, 2, 3, 12, 90, 165, 86, 157, 165, 90, 1, 9.34904
11, 1, bw, attraction, a-b-db, 9, 2, 3, 12, 90, 165, 86, 157, 165, 90, 2, 4.83367
11, 1, bw, attraction, a-b-db, 14, 1, 3, 13, 56, 125, 135, 60, 60, 135, 3, 3.36543
11, 1, bw, attraction, a-b-db, 14, 1, 3, 13, 56, 125, 135, 60, 60, 135, 1, 0.932672
11, 1, bw, filler, NA, 999, 999, 3, 14, 160, 161, 76, 138, 63, 144, 1, 2.42834
11, 1, bw, filler, NA, 999, 999, 3, 14, 160, 161, 76, 138, 63, 144, 3, 0.737034
11, 1, bw, attraction, a-b-da, 14, 3, 3, 15, 181, 111, 195, 120, 120, 195, 3, 1.96949
11, 1, bw, attraction, a-b-da, 14, 3, 3, 15, 181, 111, 195, 120, 120, 195, 1, 1.28461
11, 1, bw, attraction, a-b-da, 2, 1, 3, 16, 60, 135, 135, 60, 134, 59, 1, 3.98018
11, 1, bw, attraction, a-b-da, 2, 1, 3, 16, 60, 135, 135, 60, 134, 59, 2, 1.30002
11, 1, bw, attraction, a-b-da, 9, 1, 3, 17, 129, 57, 135, 60, 60, 135, 3, 1.92549
11, 1, bw, attraction, a-b-da, 9, 1, 3, 17, 129, 57, 135, 60, 60, 135, 1, 0.914343
11, 1, bw, attraction, a-b-da, 5, 2, 3, 18, 90, 165, 165, 90, 161, 88, 1, 3.26566
11, 1, bw, attraction, a-b-da, 5, 2, 3, 18, 90, 165, 165, 90, 161, 88, 2, 0.987389
11, 1, bw, attraction, a-b-da, 9, 2, 3, 19, 165, 90, 157, 86, 90, 165, 3, 2.37899
11, 1, bw, attraction, a-b-da, 9, 2, 3, 19, 165, 90, 157, 86, 90, 165, 2, 0.77083
11, 1, bw, filler, NA, 999, 999, 3, 20, 141, 107, 67, 74, 123, 104, 1, 1.48014
11, 1, bw, filler, NA, 999, 999, 3, 20, 141, 107, 67, 74, 123, 104, 2, 0.739514
11, 1, bw, filler, NA, 999, 999, 3, 21, 89, 156, 183, 117, 127, 73, 2, 1.22138
11, 1, bw, filler, NA, 999, 999, 3, 21, 89, 156, 183, 117, 127, 73, 3, 0.715472
11, 1, bw, attraction, a-b-db, 14, 2, 3, 22, 165, 90, 90, 165, 83, 153, 2, 2.50738
11, 1, bw, attraction, a-b-db, 14, 2, 3, 22, 165, 90, 90, 165, 83, 153, 3, 0.855641
11, 1, bw, attraction, a-b-da, 14, 1, 3, 23, 125, 56, 135, 60, 60, 135, 3, 1.87509
11, 1, bw, attraction, a-b-da, 14, 1, 3, 23, 125, 56, 135, 60, 60, 135, 1, 0.808517
11, 1, bw, filler, NA, 999, 999, 3, 24, 137, 145, 172, 159, 127, 95, 2, 1.29481
11, 1, bw, filler, NA, 999, 999, 3, 24, 137, 145, 172, 159, 127, 95, 3, 0.728588
11, 1, bw, catch, NA, 999, 999, 3, 25, 65, 130, 163, 92, 158, 157, 3, 1.50576
11, 1, bw, catch, NA, 999, 999, 3, 25, 65, 130, 163, 92, 158, 157, 1, 0.970299
11, 1, bw, attraction, a-b-db, 14, 3, 3, 26, 195, 120, 120, 195, 111, 181, 2, 2.53156
11, 1, bw, attraction, a-b-db, 14, 3, 3, 26, 195, 120, 120, 195, 111, 181, 3, 0.716113
11, 1, bw, attraction, a-b-db, 5, 3, 3, 27, 117, 190, 195, 120, 120, 195, 3, 3.72332
11, 1, bw, attraction, a-b-db, 5, 3, 3, 27, 117, 190, 195, 120, 120, 195, 1, 0.702538
11, 1, bw, attraction, a-b-da, 2, 2, 3, 28, 90, 165, 163, 89, 165, 90, 1, 4.23236
11, 1, bw, attraction, a-b-da, 2, 2, 3, 28, 90, 165, 163, 89, 165, 90, 2, 0.844177
11, 1, bw, attraction, a-b-db, 2, 3, 3, 29, 120, 195, 195, 120, 119, 193, 3, 3.33011
11, 1, bw, attraction, a-b-db, 2, 3, 3, 29, 120, 195, 195, 120, 119, 193, 2, 1.29895
11, 1, bw, filler, NA, 999, 999, 3, 30, 63, 101, 105, 91, 85, 147, 3, 1.3883
11, 1, bw, filler, NA, 999, 999, 3, 30, 63, 101, 105, 91, 85, 147, 1, 0.698462
11, 1, bw, filler, NA, 999, 999, 3, 31, 86, 182, 166, 61, 138, 172, 3, 1.2053
11, 1, bw, filler, NA, 999, 999, 3, 31, 86, 182, 166, 61, 138, 172, 2, 0.611441
11, 1, bw, attraction, a-b-da, 5, 3, 3, 32, 120, 195, 195, 120, 190, 117, 1, 4.23598
11, 1, bw, attraction, a-b-da, 5, 3, 3, 32, 120, 195, 195, 120, 190, 117, 3, 0.764816
11, 1, bw, attraction, a-b-db, 9, 3, 3, 33, 114, 186, 195, 120, 120, 195, 3, 2.86216
11, 1, bw, attraction, a-b-db, 9, 3, 3, 33, 114, 186, 195, 120, 120, 195, 1, 1.6905
11, 1, bw, catch, NA, 999, 999, 3, 34, 156, 159, 68, 127, 155, 100, 1, 1.70801
11, 1, bw, catch, NA, 999, 999, 3, 34, 156, 159, 68, 127, 155, 100, 2, 0.639933
11, 1, bw, filler, NA, 999, 999, 3, 35, 146, 194, 193, 164, 192, 179, 3, 1.78556
11, 1, bw, filler, NA, 999, 999, 3, 35, 146, 194, 193, 164, 192, 179, 1, 0.68201
11, 1, bw, attraction, a-b-db, 5, 1, 3, 36, 58, 132, 135, 60, 60, 135, 2, 6.87576
11, 1, bw, attraction, a-b-db, 5, 1, 3, 36, 58, 132, 135, 60, 60, 135, 1, 0.622576
11, 1, bw, filler, NA, 999, 999, 3, 37, 96, 67, 145, 125, 179, 157, 3, 1.22622
11, 1, bw, filler, NA, 999, 999, 3, 37, 96, 67, 145, 125, 179, 157, 1, 0.713272
11, 1, bw, attraction, a-b-db, 5, 1, 4, 1, 60, 135, 58, 132, 135, 60, 1, 1.8269
11, 1, bw, attraction, a-b-db, 5, 1, 4, 1, 60, 135, 58, 132, 135, 60, 3, 0.859025
11, 1, bw, catch, NA, 999, 999, 4, 2, 171, 144, 152, 103, 124, 71, 1, 1.34805
11, 1, bw, catch, NA, 999, 999, 4, 2, 171, 144, 152, 103, 124, 71, 3, 0.839258
11, 1, bw, attraction, a-b-da, 2, 1, 4, 3, 135, 60, 134, 59, 60, 135, 3, 1.92949
11, 1, bw, attraction, a-b-da, 2, 1, 4, 3, 135, 60, 134, 59, 60, 135, 2, 1.32255
11, 1, bw, attraction, a-b-da, 9, 2, 4, 4, 165, 90, 157, 86, 90, 165, 3, 2.78146
11, 1, bw, attraction, a-b-da, 9, 2, 4, 4, 165, 90, 157, 86, 90, 165, 2, 0.621155
11, 1, bw, filler, NA, 999, 999, 4, 5, 190, 117, 176, 95, 170, 81, 1, 2.68901
11, 1, bw, filler, NA, 999, 999, 4, 5, 190, 117, 176, 95, 170, 81, 3, 0.787505
11, 1, bw, catch, NA, 999, 999, 4, 6, 136, 119, 122, 73, 169, 146, 3, 1.69795
11, 1, bw, catch, NA, 999, 999, 4, 6, 136, 119, 122, 73, 169, 146, 2, 0.632212
11, 1, bw, attraction, a-b-da, 9, 1, 4, 7, 60, 135, 135, 60, 129, 57, 1, 1.40032
11, 1, bw, attraction, a-b-da, 9, 1, 4, 7, 60, 135, 135, 60, 129, 57, 3, 1.12896
11, 1, bw, attraction, a-b-da, 5, 2, 4, 8, 165, 90, 90, 165, 161, 88, 2, 2.28142
11, 1, bw, attraction, a-b-da, 5, 2, 4, 8, 165, 90, 90, 165, 161, 88, 3, 0.710452
11, 1, bw, attraction, a-b-db, 9, 3, 4, 9, 195, 120, 120, 195, 114, 186, 2, 2.63936
11, 1, bw, attraction, a-b-db, 9, 3, 4, 9, 195, 120, 120, 195, 114, 186, 3, 0.690253
11, 1, bw, attraction, a-b-db, 14, 2, 4, 10, 83, 153, 90, 165, 165, 90, 2, 2.87105
11, 1, bw, attraction, a-b-db, 14, 2, 4, 10, 83, 153, 90, 165, 165, 90, 1, 0.705031
11, 1, bw, attraction, a-b-da, 2, 2, 4, 11, 165, 90, 90, 165, 163, 89, 2, 1.9572
11, 1, bw, attraction, a-b-da, 2, 2, 4, 11, 165, 90, 90, 165, 163, 89, 1, 0.900332
11, 1, bw, attraction, a-b-db, 14, 1, 4, 12, 60, 135, 135, 60, 56, 125, 1, 4.26169
11, 1, bw, attraction, a-b-db, 14, 1, 4, 12, 60, 135, 135, 60, 56, 125, 3, 0.888258
11, 1, bw, filler, NA, 999, 999, 4, 13, 99, 70, 109, 152, 80, 80, 2, 3.80318
11, 1, bw, filler, NA, 999, 999, 4, 13, 99, 70, 109, 152, 80, 80, 3, 0.86647
11, 1, bw, filler, NA, 999, 999, 4, 14, 65, 80, 94, 84, 89, 168, 3, 2.46057
11, 1, bw, filler, NA, 999, 999, 4, 14, 65, 80, 94, 84, 89, 168, 1, 1.11392
11, 1, bw, filler, NA, 999, 999, 4, 15, 73, 116, 83, 127, 128, 171, 3, 1.50749
11, 1, bw, filler, NA, 999, 999, 4, 15, 73, 116, 83, 127, 128, 171, 1, 0.847144
11, 1, bw, attraction, a-b-da, 14, 2, 4, 16, 165, 90, 90, 165, 153, 83, 2, 2.14045
11, 1, bw, attraction, a-b-da, 14, 2, 4, 16, 165, 90, 90, 165, 153, 83, 3, 0.660412
11, 1, bw, attraction, a-b-da, 14, 3, 4, 17, 120, 195, 181, 111, 195, 120, 1, 3.06333
11, 1, bw, attraction, a-b-da, 14, 3, 4, 17, 120, 195, 181, 111, 195, 120, 2, 0.85157
11, 1, bw, filler, NA, 999, 999, 4, 18, 59, 157, 144, 110, 66, 90, 2, 1.81389
11, 1, bw, filler, NA, 999, 999, 4, 18, 59, 157, 144, 110, 66, 90, 3, 1.02873
11, 1, bw, attraction, a-b-da, 9, 3, 4, 19, 186, 114, 120, 195, 195, 120, 2, 2.0106
11, 1, bw, attraction, a-b-da, 9, 3, 4, 19, 186, 114, 120, 195, 195, 120, 1, 1.42575
11, 1, bw, attraction, a-b-db, 9, 2, 4, 20, 86, 157, 165, 90, 90, 165, 3, 1.98031
11, 1, bw, attraction, a-b-db, 9, 2, 4, 20, 86, 157, 165, 90, 90, 165, 1, 0.741615
11, 1, bw, attraction, a-b-da, 2, 3, 4, 21, 195, 120, 120, 195, 193, 119, 2, 2.29338
11, 1, bw, attraction, a-b-da, 2, 3, 4, 21, 195, 120, 120, 195, 193, 119, 1, 4.48157
11, 1, bw, filler, NA, 999, 999, 4, 22, 169, 130, 131, 185, 194, 161, 3, 1.41791
11, 1, bw, filler, NA, 999, 999, 4, 22, 169, 130, 131, 185, 194, 161, 1, 0.78553
11, 1, bw, catch, NA, 999, 999, 4, 23, 159, 96, 144, 171, 69, 126, 2, 1.76085
11, 1, bw, catch, NA, 999, 999, 4, 23, 159, 96, 144, 171, 69, 126, 3, 0.800217
11, 1, bw, filler, NA, 999, 999, 4, 24, 121, 130, 175, 74, 68, 110, 1, 2.03589
11, 1, bw, filler, NA, 999, 999, 4, 24, 121, 130, 175, 74, 68, 110, 3, 0.780013
11, 1, bw, attraction, a-b-db, 5, 2, 4, 25, 165, 90, 88, 161, 90, 165, 3, 1.67539
11, 1, bw, attraction, a-b-db, 5, 2, 4, 25, 165, 90, 88, 161, 90, 165, 2, 1.66147
11, 1, bw, attraction, a-b-db, 2, 2, 4, 26, 89, 163, 90, 165, 165, 90, 2, 5.93854
11, 1, bw, attraction, a-b-db, 2, 2, 4, 26, 89, 163, 90, 165, 165, 90, 3, 1.08819
11, 1, bw, attraction, a-b-db, 2, 3, 4, 27, 119, 193, 195, 120, 120, 195, 3, 5.60347
11, 1, bw, attraction, a-b-db, 2, 3, 4, 27, 119, 193, 195, 120, 120, 195, 2, 1.05835
11, 1, bw, filler, NA, 999, 999, 4, 28, 97, 68, 110, 126, 72, 189, 2, 8.31779
11, 1, bw, filler, NA, 999, 999, 4, 28, 97, 68, 110, 126, 72, 189, 1, 0.743182
11, 1, bw, attraction, a-b-db, 9, 1, 4, 29, 60, 135, 135, 60, 57, 129, 2, 8.4137
11, 1, bw, attraction, a-b-db, 9, 1, 4, 29, 60, 135, 135, 60, 57, 129, 3, 0.817582
11, 1, bw, attraction, a-b-db, 5, 3, 4, 30, 120, 195, 195, 120, 117, 190, 1, 4.23202
11, 1, bw, attraction, a-b-db, 5, 3, 4, 30, 120, 195, 195, 120, 117, 190, 3, 1.17866
11, 1, bw, filler, NA, 999, 999, 4, 31, 153, 77, 180, 113, 164, 80, 2, 1.42603
11, 1, bw, filler, NA, 999, 999, 4, 31, 153, 77, 180, 113, 164, 80, 1, 0.751445
11, 1, bw, attraction, a-b-da, 14, 1, 4, 32, 135, 60, 125, 56, 60, 135, 3, 2.48147
11, 1, bw, attraction, a-b-da, 14, 1, 4, 32, 135, 60, 125, 56, 60, 135, 2, 0.628675
11, 1, bw, attraction, a-b-da, 5, 3, 4, 33, 120, 195, 190, 117, 195, 120, 1, 5.58579
11, 1, bw, attraction, a-b-da, 5, 3, 4, 33, 120, 195, 190, 117, 195, 120, 2, 0.789929
11, 1, bw, attraction, a-b-da, 5, 1, 4, 34, 60, 135, 132, 58, 135, 60, 1, 3.25509
11, 1, bw, attraction, a-b-da, 5, 1, 4, 34, 60, 135, 132, 58, 135, 60, 2, 0.690567
11, 1, bw, filler, NA, 999, 999, 4, 35, 180, 113, 58, 87, 112, 134, 1, 1.20512
11, 1, bw, filler, NA, 999, 999, 4, 35, 180, 113, 58, 87, 112, 134, 2, 0.74814
11, 1, bw, attraction, a-b-db, 2, 1, 4, 36, 59, 134, 60, 135, 135, 60, 2, 1.42688
11, 1, bw, attraction, a-b-db, 2, 1, 4, 36, 59, 134, 60, 135, 135, 60, 1, 1.08177
11, 1, bw, attraction, a-b-db, 14, 3, 4, 37, 111, 181, 195, 120, 120, 195, 3, 4.1634
11, 1, bw, attraction, a-b-db, 14, 3, 4, 37, 111, 181, 195, 120, 120, 195, 1, 0.602679
11, 1, bw, attraction, a-b-db, 2, 2, 5, 1, 90, 165, 165, 90, 89, 163, 3, 4.78459
11, 1, bw, attraction, a-b-db, 2, 2, 5, 1, 90, 165, 165, 90, 89, 163, 1, 2.09209
11, 1, bw, attraction, a-b-db, 14, 2, 5, 2, 165, 90, 83, 153, 90, 165, 3, 1.96831
11, 1, bw, attraction, a-b-db, 14, 2, 5, 2, 165, 90, 83, 153, 90, 165, 2, 0.520534
11, 1, bw, filler, NA, 999, 999, 5, 3, 64, 78, 146, 62, 62, 171, 3, 2.11232
11, 1, bw, filler, NA, 999, 999, 5, 3, 64, 78, 146, 62, 62, 171, 1, 0.763442
11, 1, bw, attraction, a-b-db, 2, 3, 5, 4, 120, 195, 195, 120, 119, 193, 3, 1.71327
11, 1, bw, attraction, a-b-db, 2, 3, 5, 4, 120, 195, 195, 120, 119, 193, 2, 2.77205
11, 1, bw, attraction, a-b-db, 9, 1, 5, 5, 57, 129, 135, 60, 60, 135, 3, 1.57112
11, 1, bw, attraction, a-b-db, 9, 1, 5, 5, 57, 129, 135, 60, 60, 135, 1, 1.11582
11, 1, bw, filler, NA, 999, 999, 5, 6, 111, 170, 154, 133, 175, 188, 3, 1.65202
11, 1, bw, filler, NA, 999, 999, 5, 6, 111, 170, 154, 133, 175, 188, 1, 2.45002
11, 1, bw, attraction, a-b-da, 9, 1, 5, 7, 129, 57, 60, 135, 135, 60, 2, 1.64398
11, 1, bw, attraction, a-b-da, 9, 1, 5, 7, 129, 57, 60, 135, 135, 60, 1, 0.859045
11, 1, bw, catch, NA, 999, 999, 5, 8, 172, 143, 163, 92, 98, 97, 1, 1.62211
11, 1, bw, catch, NA, 999, 999, 5, 8, 172, 143, 163, 92, 98, 97, 3, 0.764984
11, 1, bw, filler, NA, 999, 999, 5, 9, 122, 76, 79, 115, 78, 99, 2, 3.31369
11, 1, bw, filler, NA, 999, 999, 5, 9, 122, 76, 79, 115, 78, 99, 3, 1.06813
11, 1, bw, attraction, a-b-db, 5, 2, 5, 10, 165, 90, 88, 161, 90, 165, 3, 4.22442
11, 1, bw, attraction, a-b-db, 5, 2, 5, 10, 165, 90, 88, 161, 90, 165, 2, 2.23555
11, 1, bw, catch, NA, 999, 999, 5, 11, 160, 95, 168, 147, 63, 132, 2, 1.19957
11, 1, bw, catch, NA, 999, 999, 5, 11, 160, 95, 168, 147, 63, 132, 3, 0.623338
11, 1, bw, attraction, a-b-da, 14, 2, 5, 12, 165, 90, 153, 83, 90, 165, 3, 5.09966
11, 1, bw, attraction, a-b-da, 14, 2, 5, 12, 165, 90, 153, 83, 90, 165, 2, 0.7579
11, 1, bw, filler, NA, 999, 999, 5, 13, 70, 109, 189, 133, 107, 160, 2, 1.54148
11, 1, bw, filler, NA, 999, 999, 5, 13, 70, 109, 189, 133, 107, 160, 1, 0.685901
11, 1, bw, attraction, a-b-da, 2, 3, 5, 14, 195, 120, 120, 195, 193, 119, 2, 3.71946
11, 1, bw, attraction, a-b-da, 2, 3, 5, 14, 195, 120, 120, 195, 193, 119, 3, 2.90536
11, 1, bw, attraction, a-b-da, 14, 3, 5, 15, 195, 120, 181, 111, 120, 195, 3, 8.53303
11, 1, bw, attraction, a-b-da, 14, 3, 5, 15, 195, 120, 181, 111, 120, 195, 2, 1.6361
11, 1, bw, filler, NA, 999, 999, 5, 16, 190, 76, 177, 192, 104, 164, 2, 1.55257
11, 1, bw, filler, NA, 999, 999, 5, 16, 190, 76, 177, 192, 104, 164, 1, 0.942945
11, 1, bw, catch, NA, 999, 999, 5, 17, 155, 100, 190, 125, 104, 91, 2, 1.52912
11, 1, bw, catch, NA, 999, 999, 5, 17, 155, 100, 190, 125, 104, 91, 3, 0.658395
11, 1, bw, attraction, a-b-da, 14, 1, 5, 18, 135, 60, 125, 56, 60, 135, 3, 4.88388
11, 1, bw, attraction, a-b-da, 14, 1, 5, 18, 135, 60, 125, 56, 60, 135, 2, 0.84666
11, 1, bw, attraction, a-b-db, 5, 3, 5, 19, 117, 190, 120, 195, 195, 120, 2, 3.02788
11, 1, bw, attraction, a-b-db, 5, 3, 5, 19, 117, 190, 120, 195, 195, 120, 1, 0.594254
11, 1, bw, filler, NA, 999, 999, 5, 20, 143, 172, 100, 193, 129, 152, 1, 1.95107
11, 1, bw, filler, NA, 999, 999, 5, 20, 143, 172, 100, 193, 129, 152, 3, 0.946622
11, 1, bw, filler, NA, 999, 999, 5, 21, 125, 128, 159, 174, 89, 81, 2, 4.40156
11, 1, bw, filler, NA, 999, 999, 5, 21, 125, 128, 159, 174, 89, 81, 3, 4.56005
11, 1, bw, filler, NA, 999, 999, 5, 22, 195, 107, 137, 66, 163, 145, 3, 9.42218
11, 1, bw, filler, NA, 999, 999, 5, 22, 195, 107, 137, 66, 163, 145, 2, 1.65052
11, 1, bw, attraction, a-b-db, 9, 2, 5, 23, 165, 90, 90, 165, 86, 157, 1, 6.278
11, 1, bw, attraction, a-b-db, 9, 2, 5, 23, 165, 90, 90, 165, 86, 157, 2, 0.647207
11, 1, bw, attraction, a-b-db, 14, 1, 5, 24, 56, 125, 60, 135, 135, 60, 2, 2.78831
11, 1, bw, attraction, a-b-db, 14, 1, 5, 24, 56, 125, 60, 135, 135, 60, 1, 2.16407
11, 1, bw, attraction, a-b-da, 5, 3, 5, 25, 120, 195, 190, 117, 195, 120, 1, 2.85891
11, 1, bw, attraction, a-b-da, 5, 3, 5, 25, 120, 195, 190, 117, 195, 120, 2, 1.94325
11, 1, bw, attraction, a-b-da, 5, 2, 5, 26, 161, 88, 90, 165, 165, 90, 2, 2.8219
11, 1, bw, attraction, a-b-da, 5, 2, 5, 26, 161, 88, 90, 165, 165, 90, 1, 0.732275
11, 1, bw, attraction, a-b-db, 9, 3, 5, 27, 195, 120, 114, 186, 120, 195, 3, 3.11715
11, 1, bw, attraction, a-b-db, 9, 3, 5, 27, 195, 120, 114, 186, 120, 195, 2, 1.39983
11, 1, bw, attraction, a-b-da, 2, 1, 5, 28, 135, 60, 134, 59, 60, 135, 3, 1.51645
11, 1, bw, attraction, a-b-da, 2, 1, 5, 28, 135, 60, 134, 59, 60, 135, 2, 1.60713
11, 1, bw, attraction, a-b-db, 2, 1, 5, 29, 135, 60, 59, 134, 60, 135, 3, 2.23464
11, 1, bw, attraction, a-b-db, 2, 1, 5, 29, 135, 60, 59, 134, 60, 135, 1, 1.13772
11, 1, bw, attraction, a-b-da, 5, 1, 5, 30, 60, 135, 135, 60, 132, 58, 2, 3.1289
11, 1, bw, attraction, a-b-da, 5, 1, 5, 30, 60, 135, 135, 60, 132, 58, 3, 0.689912
11, 1, bw, attraction, a-b-da, 9, 2, 5, 31, 165, 90, 157, 86, 90, 165, 3, 2.18024
11, 1, bw, attraction, a-b-da, 9, 2, 5, 31, 165, 90, 157, 86, 90, 165, 2, 0.86912
11, 1, bw, attraction, a-b-db, 14, 3, 5, 32, 111, 181, 120, 195, 195, 120, 2, 2.35079
11, 1, bw, attraction, a-b-db, 14, 3, 5, 32, 111, 181, 120, 195, 195, 120, 1, 0.742742
11, 1, bw, attraction, a-b-da, 9, 3, 5, 33, 195, 120, 120, 195, 186, 114, 2, 2.79291
11, 1, bw, attraction, a-b-da, 9, 3, 5, 33, 195, 120, 120, 195, 186, 114, 3, 0.701686
11, 1, bw, filler, NA, 999, 999, 5, 34, 180, 152, 128, 134, 155, 76, 1, 1.36007
11, 1, bw, filler, NA, 999, 999, 5, 34, 180, 152, 128, 134, 155, 76, 3, 0.993129
11, 1, bw, filler, NA, 999, 999, 5, 35, 57, 183, 162, 68, 103, 64, 2, 2.32071
11, 1, bw, filler, NA, 999, 999, 5, 35, 57, 183, 162, 68, 103, 64, 3, 0.569929
11, 1, bw, attraction, a-b-db, 5, 1, 5, 36, 60, 135, 58, 132, 135, 60, 1, 2.93676
11, 1, bw, attraction, a-b-db, 5, 1, 5, 36, 60, 135, 58, 132, 135, 60, 2, 1.45899
11, 1, bw, attraction, a-b-da, 2, 2, 5, 37, 165, 90, 163, 89, 90, 165, 3, 3.9981
11, 1, bw, attraction, a-b-da, 2, 2, 5, 37, 165, 90, 163, 89, 90, 165, 2, 2.79493
11, 1, bw, attraction, a-b-da, 9, 2, 6, 1, 157, 86, 165, 90, 90, 165, 3, 1.72264
11, 1, bw, attraction, a-b-da, 9, 2, 6, 1, 157, 86, 165, 90, 90, 165, 1, 1.28227
11, 1, bw, catch, NA, 999, 999, 6, 2, 183, 132, 79, 116, 90, 165, 1, 3.94198
11, 1, bw, catch, NA, 999, 999, 6, 2, 183, 132, 79, 116, 90, 165, 2, 1.91079
11, 1, bw, attraction, a-b-da, 9, 1, 6, 3, 135, 60, 129, 57, 60, 135, 3, 2.36892
11, 1, bw, attraction, a-b-da, 9, 1, 6, 3, 135, 60, 129, 57, 60, 135, 2, 0.694125
11, 1, bw, attraction, a-b-da, 5, 3, 6, 4, 120, 195, 190, 117, 195, 120, 3, 7.71367
11, 1, bw, attraction, a-b-da, 5, 3, 6, 4, 120, 195, 190, 117, 195, 120, 2, 3.34641
11, 1, bw, attraction, a-b-db, 9, 1, 6, 5, 60, 135, 57, 129, 135, 60, 1, 3.69725
11, 1, bw, attraction, a-b-db, 9, 1, 6, 5, 60, 135, 57, 129, 135, 60, 2, 0.748835
11, 1, bw, attraction, a-b-da, 14, 1, 6, 6, 60, 135, 125, 56, 135, 60, 1, 1.7397
11, 1, bw, attraction, a-b-da, 14, 1, 6, 6, 60, 135, 125, 56, 135, 60, 2, 0.701552
11, 1, bw, attraction, a-b-db, 9, 2, 6, 7, 90, 165, 165, 90, 86, 157, 1, 2.60658
11, 1, bw, attraction, a-b-db, 9, 2, 6, 7, 90, 165, 165, 90, 86, 157, 2, 3.01442
11, 1, bw, filler, NA, 999, 999, 6, 8, 138, 106, 152, 185, 191, 122, 2, 1.60891
11, 1, bw, filler, NA, 999, 999, 6, 8, 138, 106, 152, 185, 191, 122, 1, 1.91364
11, 1, bw, attraction, a-b-db, 5, 2, 6, 9, 90, 165, 165, 90, 88, 161, 1, 2.47324
11, 1, bw, attraction, a-b-db, 5, 2, 6, 9, 90, 165, 165, 90, 88, 161, 2, 0.967619
11, 1, bw, attraction, a-b-da, 2, 3, 6, 10, 120, 195, 193, 119, 195, 120, 1, 5.45339
11, 1, bw, attraction, a-b-da, 2, 3, 6, 10, 120, 195, 193, 119, 195, 120, 2, 0.833338
11, 1, bw, filler, NA, 999, 999, 6, 11, 141, 161, 148, 62, 154, 166, 3, 1.5824
11, 1, bw, filler, NA, 999, 999, 6, 11, 141, 161, 148, 62, 154, 166, 2, 0.646143
11, 1, bw, attraction, a-b-db, 9, 3, 6, 12, 195, 120, 120, 195, 114, 186, 2, 5.82387
11, 1, bw, attraction, a-b-db, 9, 3, 6, 12, 195, 120, 120, 195, 114, 186, 1, 1.8467
11, 1, bw, attraction, a-b-db, 5, 3, 6, 13, 195, 120, 117, 190, 120, 195, 2, 4.97766
11, 1, bw, attraction, a-b-db, 5, 3, 6, 13, 195, 120, 117, 190, 120, 195, 1, 1.28898
11, 1, bw, filler, NA, 999, 999, 6, 14, 57, 106, 66, 153, 97, 156, 3, 2.12286
11, 1, bw, filler, NA, 999, 999, 6, 14, 57, 106, 66, 153, 97, 156, 1, 0.852761
11, 1, bw, filler, NA, 999, 999, 6, 15, 148, 156, 105, 96, 110, 135, 1, 2.46439
11, 1, bw, filler, NA, 999, 999, 6, 15, 148, 156, 105, 96, 110, 135, 2, 2.05381
11, 1, bw, attraction, a-b-da, 14, 2, 6, 16, 165, 90, 90, 165, 153, 83, 2, 2.01627
11, 1, bw, attraction, a-b-da, 14, 2, 6, 16, 165, 90, 90, 165, 153, 83, 3, 1.07018
11, 1, bw, catch, NA, 999, 999, 6, 17, 185, 130, 106, 149, 121, 74, 1, 5.57779
11, 1, bw, catch, NA, 999, 999, 6, 17, 185, 130, 106, 149, 121, 74, 3, 0.649558
11, 1, bw, filler, NA, 999, 999, 6, 18, 95, 161, 104, 68, 135, 191, 3, 1.70118
11, 1, bw, filler, NA, 999, 999, 6, 18, 95, 161, 104, 68, 135, 191, 2, 0.888949
11, 1, bw, attraction, a-b-db, 2, 2, 6, 19, 90, 165, 89, 163, 165, 90, 1, 2.43515
11, 1, bw, attraction, a-b-db, 2, 2, 6, 19, 90, 165, 89, 163, 165, 90, 2, 1.24588
11, 1, bw, filler, NA, 999, 999, 6, 20, 77, 182, 157, 70, 113, 194, 3, 3.51473
11, 1, bw, filler, NA, 999, 999, 6, 20, 77, 182, 157, 70, 113, 194, 2, 0.947989
11, 1, bw, attraction, a-b-db, 14, 3, 6, 21, 195, 120, 120, 195, 111, 181, 2, 3.01109
11, 1, bw, attraction, a-b-db, 14, 3, 6, 21, 195, 120, 120, 195, 111, 181, 3, 1.21902
11, 1, bw, filler, NA, 999, 999, 6, 22, 157, 90, 135, 69, 138, 157, 3, 3.43843
11, 1, bw, filler, NA, 999, 999, 6, 22, 157, 90, 135, 69, 138, 157, 2, 0.763252
11, 1, bw, attraction, a-b-db, 2, 1, 6, 23, 59, 134, 60, 135, 135, 60, 2, 5.22912
11, 1, bw, attraction, a-b-db, 2, 1, 6, 23, 59, 134, 60, 135, 135, 60, 1, 1.83295
11, 1, bw, catch, NA, 999, 999, 6, 24, 155, 100, 86, 109, 172, 143, 3, 1.4117
11, 1, bw, catch, NA, 999, 999, 6, 24, 155, 100, 86, 109, 172, 143, 2, 0.556715
11, 1, bw, attraction, a-b-da, 2, 1, 6, 25, 134, 59, 135, 60, 60, 135, 3, 5.08348
11, 1, bw, attraction, a-b-da, 2, 1, 6, 25, 134, 59, 135, 60, 60, 135, 1, 0.878938
11, 1, bw, attraction, a-b-da, 5, 1, 6, 26, 135, 60, 132, 58, 60, 135, 3, 2.27429
11, 1, bw, attraction, a-b-da, 5, 1, 6, 26, 135, 60, 132, 58, 60, 135, 2, 0.805413
11, 1, bw, attraction, a-b-da, 9, 3, 6, 27, 120, 195, 195, 120, 186, 114, 1, 2.75631
11, 1, bw, attraction, a-b-da, 9, 3, 6, 27, 120, 195, 195, 120, 186, 114, 3, 1.28288
11, 1, bw, attraction, a-b-da, 2, 2, 6, 28, 163, 89, 90, 165, 165, 90, 2, 2.08651
11, 1, bw, attraction, a-b-da, 2, 2, 6, 28, 163, 89, 90, 165, 165, 90, 1, 0.977813
11, 1, bw, attraction, a-b-db, 14, 1, 6, 29, 60, 135, 56, 125, 135, 60, 1, 2.71909
11, 1, bw, attraction, a-b-db, 14, 1, 6, 29, 60, 135, 56, 125, 135, 60, 2, 1.11486
11, 1, bw, filler, NA, 999, 999, 6, 30, 67, 119, 101, 122, 115, 170, 3, 1.33967
11, 1, bw, filler, NA, 999, 999, 6, 30, 67, 119, 101, 122, 115, 170, 1, 0.716322
11, 1, bw, filler, NA, 999, 999, 6, 31, 114, 80, 81, 70, 75, 128, 3, 2.90937
11, 1, bw, filler, NA, 999, 999, 6, 31, 114, 80, 81, 70, 75, 128, 2, 0.688508
11, 1, bw, attraction, a-b-da, 5, 2, 6, 32, 161, 88, 90, 165, 165, 90, 2, 2.12168
11, 1, bw, attraction, a-b-da, 5, 2, 6, 32, 161, 88, 90, 165, 165, 90, 1, 0.718025
11, 1, bw, filler, NA, 999, 999, 6, 33, 153, 182, 188, 152, 188, 148, 3, 3.98865
11, 1, bw, filler, NA, 999, 999, 6, 33, 153, 182, 188, 152, 188, 148, 2, 0.709494
11, 1, bw, attraction, a-b-da, 14, 3, 6, 34, 195, 120, 120, 195, 181, 111, 2, 2.08697
11, 1, bw, attraction, a-b-da, 14, 3, 6, 34, 195, 120, 120, 195, 181, 111, 3, 1.0243
11, 1, bw, attraction, a-b-db, 5, 1, 6, 35, 135, 60, 60, 135, 58, 132, 2, 3.89462
11, 1, bw, attraction, a-b-db, 5, 1, 6, 35, 135, 60, 60, 135, 58, 132, 1, 2.18374
11, 1, bw, attraction, a-b-db, 2, 3, 6, 36, 120, 195, 119, 193, 195, 120, 1, 5.23014
11, 1, bw, attraction, a-b-db, 2, 3, 6, 36, 120, 195, 119, 193, 195, 120, 2, 2.41039
11, 1, bw, attraction, a-b-db, 14, 2, 6, 37, 165, 90, 83, 153, 90, 165, 3, 4.92003
11, 1, bw, attraction, a-b-db, 14, 2, 6, 37, 165, 90, 83, 153, 90, 165, 2, 0.753439
11, 1, bw, catch, NA, 999, 999, 7, 1, 110, 145, 70, 125, 190, 125, 3, 1.49712
11, 1, bw, catch, NA, 999, 999, 7, 1, 110, 145, 70, 125, 190, 125, 2, 1.55601
11, 1, bw, attraction, a-b-db, 14, 2, 7, 2, 165, 90, 83, 153, 90, 165, 3, 1.70043
11, 1, bw, attraction, a-b-db, 14, 2, 7, 2, 165, 90, 83, 153, 90, 165, 2, 1.1976
11, 1, bw, filler, NA, 999, 999, 7, 3, 111, 177, 109, 192, 187, 107, 2, 1.49243
11, 1, bw, filler, NA, 999, 999, 7, 3, 111, 177, 109, 192, 187, 107, 1, 1.18398
11, 1, bw, attraction, a-b-db, 9, 1, 7, 4, 57, 129, 60, 135, 135, 60, 2, 2.871
11, 1, bw, attraction, a-b-db, 9, 1, 7, 4, 57, 129, 60, 135, 135, 60, 1, 0.617877
11, 1, bw, filler, NA, 999, 999, 7, 5, 126, 183, 101, 63, 171, 72, 1, 1.39155
11, 1, bw, filler, NA, 999, 999, 7, 5, 126, 183, 101, 63, 171, 72, 2, 0.822383
11, 1, bw, attraction, a-b-da, 5, 1, 7, 6, 60, 135, 132, 58, 135, 60, 3, 3.212
11, 1, bw, attraction, a-b-da, 5, 1, 7, 6, 60, 135, 132, 58, 135, 60, 2, 0.970365
11, 1, bw, attraction, a-b-da, 5, 3, 7, 7, 195, 120, 190, 117, 120, 195, 3, 2.92886
11, 1, bw, attraction, a-b-da, 5, 3, 7, 7, 195, 120, 190, 117, 120, 195, 2, 1.64249
11, 1, bw, attraction, a-b-db, 5, 1, 7, 8, 135, 60, 60, 135, 58, 132, 2, 6.23796
11, 1, bw, attraction, a-b-db, 5, 1, 7, 8, 135, 60, 60, 135, 58, 132, 1, 1.34728
11, 1, bw, filler, NA, 999, 999, 7, 9, 56, 164, 99, 178, 181, 148, 3, 1.2042
11, 1, bw, filler, NA, 999, 999, 7, 9, 56, 164, 99, 178, 181, 148, 1, 1.1369
11, 1, bw, filler, NA, 999, 999, 7, 10, 65, 138, 80, 114, 165, 161, 3, 1.54614
11, 1, bw, filler, NA, 999, 999, 7, 10, 65, 138, 80, 114, 165, 161, 2, 0.898211
11, 1, bw, attraction, a-b-db, 2, 1, 7, 11, 60, 135, 135, 60, 59, 134, 1, 3.20426
11, 1, bw, attraction, a-b-db, 2, 1, 7, 11, 60, 135, 135, 60, 59, 134, 2, 0.994538
11, 1, bw, attraction, a-b-da, 14, 1, 7, 12, 60, 135, 125, 56, 135, 60, 1, 1.51425
11, 1, bw, attraction, a-b-da, 14, 1, 7, 12, 60, 135, 125, 56, 135, 60, 2, 1.09937
11, 1, bw, filler, NA, 999, 999, 7, 13, 143, 164, 113, 111, 186, 192, 3, 1.32477
11, 1, bw, filler, NA, 999, 999, 7, 13, 143, 164, 113, 111, 186, 192, 2, 1.10103
11, 1, bw, attraction, a-b-db, 9, 3, 7, 14, 120, 195, 195, 120, 114, 186, 1, 3.59248
11, 1, bw, attraction, a-b-db, 9, 3, 7, 14, 120, 195, 195, 120, 114, 186, 3, 2.01633
11, 1, bw, filler, NA, 999, 999, 7, 15, 105, 99, 129, 185, 72, 59, 2, 1.57098
11, 1, bw, filler, NA, 999, 999, 7, 15, 105, 99, 129, 185, 72, 59, 3, 0.740838
11, 1, bw, attraction, a-b-db, 9, 2, 7, 16, 165, 90, 90, 165, 86, 157, 1, 6.63019
11, 1, bw, attraction, a-b-db, 9, 2, 7, 16, 165, 90, 90, 165, 86, 157, 3, 3.09801
11, 1, bw, attraction, a-b-db, 5, 2, 7, 17, 88, 161, 165, 90, 90, 165, 3, 2.4724
11, 1, bw, attraction, a-b-db, 5, 2, 7, 17, 88, 161, 165, 90, 90, 165, 2, 1.23827
11, 1, bw, attraction, a-b-da, 2, 3, 7, 18, 120, 195, 195, 120, 193, 119, 1, 7.30562
11, 1, bw, attraction, a-b-da, 2, 3, 7, 18, 120, 195, 195, 120, 193, 119, 2, 2.53164
11, 1, bw, attraction, a-b-da, 2, 1, 7, 19, 60, 135, 134, 59, 135, 60, 2, 2.46805
11, 1, bw, attraction, a-b-da, 2, 1, 7, 19, 60, 135, 134, 59, 135, 60, 1, 3.90564
11, 1, bw, filler, NA, 999, 999, 7, 20, 86, 124, 61, 92, 121, 77, 1, 1.64954
11, 1, bw, filler, NA, 999, 999, 7, 20, 86, 124, 61, 92, 121, 77, 2, 1.00456
11, 1, bw, catch, NA, 999, 999, 7, 21, 70, 125, 139, 176, 140, 115, 2, 1.28285
11, 1, bw, catch, NA, 999, 999, 7, 21, 70, 125, 139, 176, 140, 115, 1, 0.580997
11, 1, bw, attraction, a-b-db, 2, 2, 7, 22, 165, 90, 90, 165, 89, 163, 2, 5.43768
11, 1, bw, attraction, a-b-db, 2, 2, 7, 22, 165, 90, 90, 165, 89, 163, 3, 0.776868
11, 1, bw, attraction, a-b-da, 14, 3, 7, 23, 181, 111, 120, 195, 195, 120, 2, 2.56272
11, 1, bw, attraction, a-b-da, 14, 3, 7, 23, 181, 111, 120, 195, 195, 120, 1, 0.640874
11, 1, bw, filler, NA, 999, 999, 7, 24, 148, 69, 130, 152, 168, 121, 2, 13.9102
11, 1, bw, filler, NA, 999, 999, 7, 24, 148, 69, 130, 152, 168, 121, 1, 0.755451
11, 1, bw, attraction, a-b-da, 9, 3, 7, 25, 186, 114, 120, 195, 195, 120, 2, 3.68222
11, 1, bw, attraction, a-b-da, 9, 3, 7, 25, 186, 114, 120, 195, 195, 120, 1, 0.655154
11, 1, bw, attraction, a-b-da, 2, 2, 7, 26, 90, 165, 165, 90, 163, 89, 1, 5.13773
11, 1, bw, attraction, a-b-da, 2, 2, 7, 26, 90, 165, 165, 90, 163, 89, 2, 1.06743
11, 1, bw, catch, NA, 999, 999, 7, 27, 187, 128, 147, 108, 122, 73, 1, 4.17153
11, 1, bw, catch, NA, 999, 999, 7, 27, 187, 128, 147, 108, 122, 73, 3, 0.85424
11, 1, bw, attraction, a-b-db, 14, 3, 7, 28, 120, 195, 111, 181, 195, 120, 3, 2.10383
11, 1, bw, attraction, a-b-db, 14, 3, 7, 28, 120, 195, 111, 181, 195, 120, 2, 3.76292
11, 1, bw, attraction, a-b-db, 5, 3, 7, 29, 195, 120, 117, 190, 120, 195, 2, 2.48438
11, 1, bw, attraction, a-b-db, 5, 3, 7, 29, 195, 120, 117, 190, 120, 195, 1, 2.75709
11, 1, bw, attraction, a-b-da, 9, 2, 7, 30, 157, 86, 90, 165, 165, 90, 3, 5.08409
11, 1, bw, attraction, a-b-da, 9, 2, 7, 30, 157, 86, 90, 165, 165, 90, 1, 0.687106
11, 1, bw, filler, NA, 999, 999, 7, 31, 142, 166, 58, 115, 131, 149, 1, 1.69699
11, 1, bw, filler, NA, 999, 999, 7, 31, 142, 166, 58, 115, 131, 149, 2, 0.724566
11, 1, bw, attraction, a-b-da, 14, 2, 7, 32, 165, 90, 153, 83, 90, 165, 3, 2.07764
11, 1, bw, attraction, a-b-da, 14, 2, 7, 32, 165, 90, 153, 83, 90, 165, 2, 0.823906
11, 1, bw, filler, NA, 999, 999, 7, 33, 105, 135, 130, 126, 158, 112, 3, 6.31773
11, 1, bw, filler, NA, 999, 999, 7, 33, 105, 135, 130, 126, 158, 112, 1, 1.83044
11, 1, bw, attraction, a-b-db, 14, 1, 7, 34, 56, 125, 60, 135, 135, 60, 2, 6.69047
11, 1, bw, attraction, a-b-db, 14, 1, 7, 34, 56, 125, 60, 135, 135, 60, 1, 0.70969
11, 1, bw, attraction, a-b-da, 5, 2, 7, 35, 161, 88, 165, 90, 90, 165, 3, 2.11093
11, 1, bw, attraction, a-b-da, 5, 2, 7, 35, 161, 88, 165, 90, 90, 165, 2, 2.78577
11, 1, bw, attraction, a-b-db, 2, 3, 7, 36, 119, 193, 195, 120, 120, 195, 3, 5.53481
11, 1, bw, attraction, a-b-db, 2, 3, 7, 36, 119, 193, 195, 120, 120, 195, 2, 0.829918
11, 1, bw, attraction, a-b-da, 9, 1, 7, 37, 129, 57, 60, 135, 135, 60, 2, 2.14866
11, 1, bw, attraction, a-b-da, 9, 1, 7, 37, 129, 57, 60, 135, 135, 60, 1, 0.733405
11, 1, bw, attraction, a-b-db, 14, 3, 8, 1, 111, 181, 195, 120, 120, 195, 3, 1.79786
11, 1, bw, attraction, a-b-db, 14, 3, 8, 1, 111, 181, 195, 120, 120, 195, 1, 0.620733
11, 1, bw, attraction, a-b-db, 9, 3, 8, 2, 195, 120, 120, 195, 114, 186, 2, 1.5121
11, 1, bw, attraction, a-b-db, 9, 3, 8, 2, 195, 120, 120, 195, 114, 186, 3, 0.556136
11, 1, bw, attraction, a-b-db, 2, 1, 8, 3, 59, 134, 60, 135, 135, 60, 1, 7.10687
11, 1, bw, attraction, a-b-db, 2, 1, 8, 3, 59, 134, 60, 135, 135, 60, 3, 3.02879
11, 1, bw, filler, NA, 999, 999, 8, 4, 110, 90, 80, 76, 184, 74, 3, 3.85776
11, 1, bw, filler, NA, 999, 999, 8, 4, 110, 90, 80, 76, 184, 74, 2, 1.07633
11, 1, bw, attraction, a-b-da, 5, 1, 8, 5, 132, 58, 60, 135, 135, 60, 2, 4.9917
11, 1, bw, attraction, a-b-da, 5, 1, 8, 5, 132, 58, 60, 135, 135, 60, 1, 1.13449
11, 1, bw, attraction, a-b-db, 9, 1, 8, 6, 60, 135, 135, 60, 57, 129, 1, 4.94985
11, 1, bw, attraction, a-b-db, 9, 1, 8, 6, 60, 135, 135, 60, 57, 129, 3, 1.31042
11, 1, bw, attraction, a-b-da, 14, 1, 8, 7, 135, 60, 125, 56, 60, 135, 3, 4.25588
11, 1, bw, attraction, a-b-da, 14, 1, 8, 7, 135, 60, 125, 56, 60, 135, 2, 0.718057
11, 1, bw, attraction, a-b-da, 14, 3, 8, 8, 195, 120, 181, 111, 120, 195, 3, 4.22813
11, 1, bw, attraction, a-b-da, 14, 3, 8, 8, 195, 120, 181, 111, 120, 195, 2, 0.801795
11, 1, bw, attraction, a-b-db, 5, 1, 8, 9, 135, 60, 60, 135, 58, 132, 2, 4.69586
11, 1, bw, attraction, a-b-db, 5, 1, 8, 9, 135, 60, 60, 135, 58, 132, 3, 0.770517
11, 1, bw, filler, NA, 999, 999, 8, 10, 155, 185, 123, 161, 181, 64, 1, 1.56218
11, 1, bw, filler, NA, 999, 999, 8, 10, 155, 185, 123, 161, 181, 64, 3, 1.65787
11, 1, bw, filler, NA, 999, 999, 8, 11, 70, 140, 142, 102, 154, 133, 3, 1.50994
11, 1, bw, filler, NA, 999, 999, 8, 11, 70, 140, 142, 102, 154, 133, 1, 0.752168
11, 1, bw, filler, NA, 999, 999, 8, 12, 101, 105, 75, 151, 97, 158, 3, 2.30344
11, 1, bw, filler, NA, 999, 999, 8, 12, 101, 105, 75, 151, 97, 158, 1, 2.0094
11, 1, bw, catch, NA, 999, 999, 8, 13, 134, 61, 188, 127, 98, 157, 2, 1.21618
11, 1, bw, catch, NA, 999, 999, 8, 13, 134, 61, 188, 127, 98, 157, 1, 0.756686
11, 1, bw, filler, NA, 999, 999, 8, 14, 58, 171, 178, 93, 149, 141, 3, 3.58208
11, 1, bw, filler, NA, 999, 999, 8, 14, 58, 171, 178, 93, 149, 141, 1, 0.798048
11, 1, bw, attraction, a-b-da, 9, 3, 8, 15, 120, 195, 186, 114, 195, 120, 1, 2.88332
11, 1, bw, attraction, a-b-da, 9, 3, 8, 15, 120, 195, 186, 114, 195, 120, 2, 0.701955
11, 1, bw, attraction, a-b-db, 14, 2, 8, 16, 83, 153, 165, 90, 90, 165, 3, 1.85564
11, 1, bw, attraction, a-b-db, 14, 2, 8, 16, 83, 153, 165, 90, 90, 165, 1, 0.837313
11, 1, bw, attraction, a-b-db, 9, 2, 8, 17, 165, 90, 86, 157, 90, 165, 3, 1.97604
11, 1, bw, attraction, a-b-db, 9, 2, 8, 17, 165, 90, 86, 157, 90, 165, 1, 1.03992
11, 1, bw, attraction, a-b-da, 9, 2, 8, 18, 165, 90, 90, 165, 157, 86, 2, 1.71759
11, 1, bw, attraction, a-b-da, 9, 2, 8, 18, 165, 90, 90, 165, 157, 86, 3, 0.704607
11, 1, bw, attraction, a-b-db, 2, 3, 8, 19, 120, 195, 119, 193, 195, 120, 2, 5.24879
11, 1, bw, attraction, a-b-db, 2, 3, 8, 19, 120, 195, 119, 193, 195, 120, 3, 3.20478
11, 1, bw, filler, NA, 999, 999, 8, 20, 146, 62, 65, 172, 147, 119, 3, 3.52791
11, 1, bw, filler, NA, 999, 999, 8, 20, 146, 62, 65, 172, 147, 119, 1, 0.801111
11, 1, bw, attraction, a-b-da, 9, 1, 8, 21, 135, 60, 60, 135, 129, 57, 2, 2.66359
11, 1, bw, attraction, a-b-da, 9, 1, 8, 21, 135, 60, 60, 135, 129, 57, 3, 0.954685
11, 1, bw, attraction, a-b-da, 5, 2, 8, 22, 165, 90, 90, 165, 161, 88, 2, 4.79483
11, 1, bw, attraction, a-b-da, 5, 2, 8, 22, 165, 90, 90, 165, 161, 88, 3, 0.618322
11, 1, bw, attraction, a-b-da, 2, 1, 8, 23, 60, 135, 135, 60, 134, 59, 1, 1.63072
11, 1, bw, attraction, a-b-da, 2, 1, 8, 23, 60, 135, 135, 60, 134, 59, 3, 2.19042
11, 1, bw, filler, NA, 999, 999, 8, 24, 171, 99, 72, 87, 96, 61, 1, 1.27329
11, 1, bw, filler, NA, 999, 999, 8, 24, 171, 99, 72, 87, 96, 61, 3, 2.79982
11, 1, bw, attraction, a-b-db, 5, 2, 8, 25, 88, 161, 90, 165, 165, 90, 2, 3.65166
11, 1, bw, attraction, a-b-db, 5, 2, 8, 25, 88, 161, 90, 165, 165, 90, 3, 2.14464
11, 1, bw, attraction, a-b-da, 14, 2, 8, 26, 90, 165, 165, 90, 153, 83, 1, 4.67185
11, 1, bw, attraction, a-b-da, 14, 2, 8, 26, 90, 165, 165, 90, 153, 83, 3, 1.64388
11, 1, bw, filler, NA, 999, 999, 8, 27, 96, 115, 139, 165, 158, 121, 2, 1.71231
11, 1, bw, filler, NA, 999, 999, 8, 27, 96, 115, 139, 165, 158, 121, 1, 1.09049
11, 1, bw, attraction, a-b-db, 14, 1, 8, 28, 135, 60, 56, 125, 60, 135, 3, 5.58904
11, 1, bw, attraction, a-b-db, 14, 1, 8, 28, 135, 60, 56, 125, 60, 135, 2, 0.803347
11, 1, bw, attraction, a-b-da, 2, 3, 8, 29, 195, 120, 120, 195, 193, 119, 2, 5.64866
11, 1, bw, attraction, a-b-da, 2, 3, 8, 29, 195, 120, 120, 195, 193, 119, 1, 1.5232
11, 1, bw, catch, NA, 999, 999, 8, 30, 71, 124, 132, 183, 145, 110, 2, 1.75646
11, 1, bw, catch, NA, 999, 999, 8, 30, 71, 124, 132, 183, 145, 110, 1, 1.32505
11, 1, bw, attraction, a-b-da, 5, 3, 8, 31, 195, 120, 120, 195, 190, 117, 2, 2.07791
11, 1, bw, attraction, a-b-da, 5, 3, 8, 31, 195, 120, 120, 195, 190, 117, 3, 2.72018
11, 1, bw, catch, NA, 999, 999, 8, 32, 112, 83, 121, 134, 161, 154, 3, 2.81106
11, 1, bw, catch, NA, 999, 999, 8, 32, 112, 83, 121, 134, 161, 154, 1, 1.43437
11, 1, bw, filler, NA, 999, 999, 8, 33, 151, 109, 129, 114, 106, 65, 1, 2.86194
11, 1, bw, filler, NA, 999, 999, 8, 33, 151, 109, 129, 114, 106, 65, 3, 0.856321
11, 1, bw, attraction, a-b-da, 2, 2, 8, 34, 165, 90, 90, 165, 163, 89, 2, 3.00365
11, 1, bw, attraction, a-b-da, 2, 2, 8, 34, 165, 90, 90, 165, 163, 89, 1, 5.7412
11, 1, bw, attraction, a-b-db, 2, 2, 8, 35, 165, 90, 89, 163, 90, 165, 2, 7.74564
11, 1, bw, attraction, a-b-db, 2, 2, 8, 35, 165, 90, 89, 163, 90, 165, 1, 1.49891
11, 1, bw, filler, NA, 999, 999, 8, 36, 108, 74, 67, 71, 159, 66, 1, 1.83654
11, 1, bw, filler, NA, 999, 999, 8, 36, 108, 74, 67, 71, 159, 66, 2, 2.10524
11, 1, bw, attraction, a-b-db, 5, 3, 8, 37, 120, 195, 195, 120, 117, 190, 1, 3.12909
11, 1, bw, attraction, a-b-db, 5, 3, 8, 37, 120, 195, 195, 120, 117, 190, 2, 1.18827
