sub_n, computer_n, bw_cond, effect, set, distance, diag, block_n, trial_n, h1, w1, h2, w2, h3, w3, choice, rt 
125, 1, bw, practice, NA, 999, 999, 0, 1, 70, 96, 132, 100, 119, 132, 3, 3.53411
125, 1, bw, practice, NA, 999, 999, 0, 1, 70, 96, 132, 100, 119, 132, 1, 2.48597
125, 1, bw, practice, NA, 999, 999, 0, 2, 179, 182, 168, 124, 167, 191, 1, 3.31686
125, 1, bw, practice, NA, 999, 999, 0, 2, 179, 182, 168, 124, 167, 191, 2, 2.25483
125, 1, bw, practice, NA, 999, 999, 0, 3, 110, 155, 57, 149, 75, 178, 1, 2.42181
125, 1, bw, practice, NA, 999, 999, 0, 3, 110, 155, 57, 149, 75, 178, 2, 1.33163
125, 1, bw, attraction, a-b-da, 2, 1, 1, 1, 60, 135, 135, 60, 134, 59, 1, 5.08128
125, 1, bw, attraction, a-b-da, 2, 1, 1, 1, 60, 135, 135, 60, 134, 59, 2, 2.13968
125, 1, bw, filler, NA, 999, 999, 1, 2, 96, 75, 67, 170, 103, 72, 2, 4.13183
125, 1, bw, filler, NA, 999, 999, 1, 2, 96, 75, 67, 170, 103, 72, 3, 2.29235
125, 1, bw, attraction, a-b-db, 2, 2, 1, 3, 165, 90, 90, 165, 89, 163, 2, 3.65364
125, 1, bw, attraction, a-b-db, 2, 2, 1, 3, 165, 90, 90, 165, 89, 163, 3, 2.03378
125, 1, bw, attraction, a-b-da, 5, 3, 1, 4, 195, 120, 190, 117, 120, 195, 3, 1.37369
125, 1, bw, attraction, a-b-da, 5, 3, 1, 4, 195, 120, 190, 117, 120, 195, 2, 0.525415
125, 1, bw, filler, NA, 999, 999, 1, 5, 74, 176, 193, 131, 154, 182, 3, 1.00562
125, 1, bw, filler, NA, 999, 999, 1, 5, 74, 176, 193, 131, 154, 182, 1, 0.403986
125, 1, bw, attraction, a-b-da, 9, 2, 1, 6, 165, 90, 157, 86, 90, 165, 3, 2.09792
125, 1, bw, attraction, a-b-da, 9, 2, 1, 6, 165, 90, 157, 86, 90, 165, 2, 0.532665
125, 1, bw, filler, NA, 999, 999, 1, 7, 160, 191, 133, 63, 184, 186, 3, 1.54084
125, 1, bw, filler, NA, 999, 999, 1, 7, 160, 191, 133, 63, 184, 186, 2, 0.965907
125, 1, bw, attraction, a-b-da, 5, 2, 1, 8, 165, 90, 90, 165, 161, 88, 2, 2.75683
125, 1, bw, attraction, a-b-da, 5, 2, 1, 8, 165, 90, 90, 165, 161, 88, 3, 0.548445
125, 1, bw, attraction, a-b-da, 14, 3, 1, 9, 195, 120, 120, 195, 181, 111, 1, 2.57231
125, 1, bw, attraction, a-b-da, 14, 3, 1, 9, 195, 120, 120, 195, 181, 111, 3, 0.963518
125, 1, bw, catch, NA, 999, 999, 1, 10, 101, 94, 171, 144, 124, 131, 2, 0.986376
125, 1, bw, catch, NA, 999, 999, 1, 10, 101, 94, 171, 144, 124, 131, 1, 0.610071
125, 1, bw, attraction, a-b-db, 5, 2, 1, 11, 88, 161, 90, 165, 165, 90, 2, 1.88731
125, 1, bw, attraction, a-b-db, 5, 2, 1, 11, 88, 161, 90, 165, 165, 90, 1, 0.465906
125, 1, bw, filler, NA, 999, 999, 1, 12, 187, 85, 145, 145, 73, 174, 2, 2.55703
125, 1, bw, filler, NA, 999, 999, 1, 12, 187, 85, 145, 145, 73, 174, 3, 1.20491
125, 1, bw, filler, NA, 999, 999, 1, 13, 194, 175, 109, 90, 188, 115, 1, 1.83445
125, 1, bw, filler, NA, 999, 999, 1, 13, 194, 175, 109, 90, 188, 115, 2, 0.671809
125, 1, bw, attraction, a-b-db, 9, 3, 1, 14, 120, 195, 195, 120, 114, 186, 2, 1.50692
125, 1, bw, attraction, a-b-db, 9, 3, 1, 14, 120, 195, 195, 120, 114, 186, 1, 0.373158
125, 1, bw, attraction, a-b-db, 9, 1, 1, 15, 60, 135, 57, 129, 135, 60, 1, 1.8043
125, 1, bw, attraction, a-b-db, 9, 1, 1, 15, 60, 135, 57, 129, 135, 60, 2, 0.650259
125, 1, bw, filler, NA, 999, 999, 1, 16, 188, 158, 135, 104, 74, 77, 1, 1.59814
125, 1, bw, filler, NA, 999, 999, 1, 16, 188, 158, 135, 104, 74, 77, 3, 0.596813
125, 1, bw, catch, NA, 999, 999, 1, 17, 107, 148, 123, 72, 169, 146, 3, 0.850557
125, 1, bw, catch, NA, 999, 999, 1, 17, 107, 148, 123, 72, 169, 146, 2, 0.511559
125, 1, bw, attraction, a-b-db, 5, 3, 1, 18, 195, 120, 117, 190, 120, 195, 1, 5.18465
125, 1, bw, attraction, a-b-db, 5, 3, 1, 18, 195, 120, 117, 190, 120, 195, 3, 2.40708
125, 1, bw, attraction, a-b-db, 2, 3, 1, 19, 195, 120, 119, 193, 120, 195, 2, 1.48428
125, 1, bw, attraction, a-b-db, 2, 3, 1, 19, 195, 120, 119, 193, 120, 195, 1, 0.423817
125, 1, bw, attraction, a-b-da, 2, 3, 1, 20, 193, 119, 120, 195, 195, 120, 2, 2.03633
125, 1, bw, attraction, a-b-da, 2, 3, 1, 20, 193, 119, 120, 195, 195, 120, 1, 0.409638
125, 1, bw, attraction, a-b-db, 2, 1, 1, 21, 59, 134, 60, 135, 135, 60, 3, 2.67073
125, 1, bw, attraction, a-b-db, 2, 1, 1, 21, 59, 134, 60, 135, 135, 60, 1, 0.658568
125, 1, bw, attraction, a-b-db, 14, 2, 1, 22, 165, 90, 83, 153, 90, 165, 3, 2.18156
125, 1, bw, attraction, a-b-db, 14, 2, 1, 22, 165, 90, 83, 153, 90, 165, 2, 0.533
125, 1, bw, catch, NA, 999, 999, 1, 23, 133, 182, 134, 121, 106, 89, 1, 1.02144
125, 1, bw, catch, NA, 999, 999, 1, 23, 133, 182, 134, 121, 106, 89, 3, 0.587809
125, 1, bw, attraction, a-b-da, 5, 1, 1, 24, 132, 58, 60, 135, 135, 60, 3, 1.17815
125, 1, bw, attraction, a-b-da, 5, 1, 1, 24, 132, 58, 60, 135, 135, 60, 2, 0.377677
125, 1, bw, attraction, a-b-da, 9, 3, 1, 25, 120, 195, 186, 114, 195, 120, 1, 1.60823
125, 1, bw, attraction, a-b-da, 9, 3, 1, 25, 120, 195, 186, 114, 195, 120, 2, 0.366401
125, 1, bw, attraction, a-b-da, 2, 2, 1, 26, 163, 89, 90, 165, 165, 90, 1, 5.29351
125, 1, bw, attraction, a-b-da, 2, 2, 1, 26, 163, 89, 90, 165, 165, 90, 3, 0.767272
125, 1, bw, attraction, a-b-da, 14, 2, 1, 27, 165, 90, 90, 165, 153, 83, 2, 1.15019
125, 1, bw, attraction, a-b-da, 14, 2, 1, 27, 165, 90, 90, 165, 153, 83, 1, 0.495108
125, 1, bw, attraction, a-b-db, 14, 1, 1, 28, 56, 125, 135, 60, 60, 135, 2, 1.10489
125, 1, bw, attraction, a-b-db, 14, 1, 1, 28, 56, 125, 135, 60, 60, 135, 3, 0.467247
125, 1, bw, attraction, a-b-db, 5, 1, 1, 29, 60, 135, 135, 60, 58, 132, 2, 0.974329
125, 1, bw, attraction, a-b-db, 5, 1, 1, 29, 60, 135, 135, 60, 58, 132, 3, 0.486013
125, 1, bw, filler, NA, 999, 999, 1, 30, 120, 60, 109, 69, 141, 81, 3, 0.864457
125, 1, bw, filler, NA, 999, 999, 1, 30, 120, 60, 109, 69, 141, 81, 1, 0.996968
125, 1, bw, filler, NA, 999, 999, 1, 31, 164, 93, 58, 101, 60, 71, 1, 1.00246
125, 1, bw, filler, NA, 999, 999, 1, 31, 164, 93, 58, 101, 60, 71, 3, 0.82551
125, 1, bw, filler, NA, 999, 999, 1, 32, 174, 125, 127, 157, 121, 182, 3, 2.34974
125, 1, bw, filler, NA, 999, 999, 1, 32, 174, 125, 127, 157, 121, 182, 2, 1.76644
125, 1, bw, attraction, a-b-db, 14, 3, 1, 33, 195, 120, 120, 195, 111, 181, 1, 2.34917
125, 1, bw, attraction, a-b-db, 14, 3, 1, 33, 195, 120, 120, 195, 111, 181, 3, 0.405758
125, 1, bw, attraction, a-b-da, 14, 1, 1, 34, 135, 60, 60, 135, 125, 56, 1, 2.73149
125, 1, bw, attraction, a-b-da, 14, 1, 1, 34, 135, 60, 60, 135, 125, 56, 2, 0.684706
125, 1, bw, attraction, a-b-db, 9, 2, 1, 35, 86, 157, 165, 90, 90, 165, 2, 5.38313
125, 1, bw, attraction, a-b-db, 9, 2, 1, 35, 86, 157, 165, 90, 90, 165, 1, 0.701371
125, 1, bw, filler, NA, 999, 999, 1, 36, 173, 193, 161, 93, 58, 188, 1, 0.975125
125, 1, bw, filler, NA, 999, 999, 1, 36, 173, 193, 161, 93, 58, 188, 3, 0.998779
125, 1, bw, attraction, a-b-da, 9, 1, 1, 37, 60, 135, 135, 60, 129, 57, 1, 2.24429
125, 1, bw, attraction, a-b-da, 9, 1, 1, 37, 60, 135, 135, 60, 129, 57, 3, 1.04902
125, 1, bw, attraction, a-b-da, 2, 2, 2, 1, 165, 90, 163, 89, 90, 165, 2, 1.10866
125, 1, bw, attraction, a-b-da, 2, 2, 2, 1, 165, 90, 163, 89, 90, 165, 3, 0.414928
125, 1, bw, attraction, a-b-db, 5, 3, 2, 2, 117, 190, 120, 195, 195, 120, 2, 1.53192
125, 1, bw, attraction, a-b-db, 5, 3, 2, 2, 117, 190, 120, 195, 195, 120, 3, 0.413578
125, 1, bw, filler, NA, 999, 999, 2, 3, 80, 76, 195, 141, 68, 174, 2, 0.754811
125, 1, bw, filler, NA, 999, 999, 2, 3, 80, 76, 195, 141, 68, 174, 1, 0.562984
125, 1, bw, attraction, a-b-db, 14, 2, 2, 4, 165, 90, 90, 165, 83, 153, 1, 0.666105
125, 1, bw, attraction, a-b-db, 14, 2, 2, 4, 165, 90, 90, 165, 83, 153, 2, 0.486654
125, 1, bw, attraction, a-b-db, 9, 1, 2, 5, 57, 129, 135, 60, 60, 135, 2, 1.19311
125, 1, bw, attraction, a-b-db, 9, 1, 2, 5, 57, 129, 135, 60, 60, 135, 1, 0.944008
125, 1, bw, attraction, a-b-da, 14, 2, 2, 6, 165, 90, 153, 83, 90, 165, 3, 0.967703
125, 1, bw, attraction, a-b-da, 14, 2, 2, 6, 165, 90, 153, 83, 90, 165, 2, 0.663991
125, 1, bw, catch, NA, 999, 999, 2, 7, 61, 134, 138, 117, 186, 129, 3, 1.71505
125, 1, bw, catch, NA, 999, 999, 2, 7, 61, 134, 138, 117, 186, 129, 1, 0.60513
125, 1, bw, attraction, a-b-db, 5, 1, 2, 8, 58, 132, 135, 60, 60, 135, 3, 1.71484
125, 1, bw, attraction, a-b-db, 5, 1, 2, 8, 58, 132, 135, 60, 60, 135, 1, 0.388924
125, 1, bw, attraction, a-b-da, 14, 1, 2, 9, 125, 56, 135, 60, 60, 135, 3, 0.811447
125, 1, bw, attraction, a-b-da, 14, 1, 2, 9, 125, 56, 135, 60, 60, 135, 2, 0.953866
125, 1, bw, attraction, a-b-da, 14, 3, 2, 10, 120, 195, 181, 111, 195, 120, 3, 4.45768
125, 1, bw, attraction, a-b-da, 14, 3, 2, 10, 120, 195, 181, 111, 195, 120, 2, 0.364677
125, 1, bw, filler, NA, 999, 999, 2, 11, 137, 193, 149, 115, 100, 79, 1, 1.6359
125, 1, bw, filler, NA, 999, 999, 2, 11, 137, 193, 149, 115, 100, 79, 3, 0.50549
125, 1, bw, attraction, a-b-da, 2, 3, 2, 12, 195, 120, 193, 119, 120, 195, 3, 0.899143
125, 1, bw, attraction, a-b-da, 2, 3, 2, 12, 195, 120, 193, 119, 120, 195, 1, 0.614254
125, 1, bw, attraction, a-b-da, 5, 1, 2, 13, 135, 60, 132, 58, 60, 135, 3, 1.04325
125, 1, bw, attraction, a-b-da, 5, 1, 2, 13, 135, 60, 132, 58, 60, 135, 1, 0.888317
125, 1, bw, catch, NA, 999, 999, 2, 14, 120, 135, 90, 105, 172, 143, 3, 1.09058
125, 1, bw, catch, NA, 999, 999, 2, 14, 120, 135, 90, 105, 172, 143, 2, 0.37349
125, 1, bw, attraction, a-b-db, 2, 3, 2, 15, 120, 195, 119, 193, 195, 120, 2, 1.27601
125, 1, bw, attraction, a-b-db, 2, 3, 2, 15, 120, 195, 119, 193, 195, 120, 3, 0.607665
125, 1, bw, attraction, a-b-db, 14, 1, 2, 16, 60, 135, 135, 60, 56, 125, 3, 1.3648
125, 1, bw, attraction, a-b-db, 14, 1, 2, 16, 60, 135, 135, 60, 56, 125, 2, 0.724846
125, 1, bw, catch, NA, 999, 999, 2, 17, 110, 85, 155, 100, 166, 149, 3, 0.581275
125, 1, bw, catch, NA, 999, 999, 2, 17, 110, 85, 155, 100, 166, 149, 1, 0.509059
125, 1, bw, filler, NA, 999, 999, 2, 18, 151, 145, 145, 136, 165, 109, 1, 2.15027
125, 1, bw, filler, NA, 999, 999, 2, 18, 151, 145, 145, 136, 165, 109, 3, 0.710884
125, 1, bw, filler, NA, 999, 999, 2, 19, 187, 123, 69, 188, 157, 134, 3, 1.30404
125, 1, bw, filler, NA, 999, 999, 2, 19, 187, 123, 69, 188, 157, 134, 2, 0.73079
125, 1, bw, attraction, a-b-db, 9, 2, 2, 20, 86, 157, 165, 90, 90, 165, 3, 3.08326
125, 1, bw, attraction, a-b-db, 9, 2, 2, 20, 86, 157, 165, 90, 90, 165, 2, 0.47015
125, 1, bw, filler, NA, 999, 999, 2, 21, 56, 103, 133, 152, 150, 194, 3, 4.7933
125, 1, bw, filler, NA, 999, 999, 2, 21, 56, 103, 133, 152, 150, 194, 1, 1.55903
125, 1, bw, attraction, a-b-da, 2, 1, 2, 22, 60, 135, 134, 59, 135, 60, 1, 3.55003
125, 1, bw, attraction, a-b-da, 2, 1, 2, 22, 60, 135, 134, 59, 135, 60, 2, 0.902065
125, 1, bw, attraction, a-b-db, 14, 3, 2, 23, 120, 195, 195, 120, 111, 181, 1, 1.59174
125, 1, bw, attraction, a-b-db, 14, 3, 2, 23, 120, 195, 195, 120, 111, 181, 2, 0.470598
125, 1, bw, filler, NA, 999, 999, 2, 24, 177, 136, 178, 195, 160, 181, 2, 1.33768
125, 1, bw, filler, NA, 999, 999, 2, 24, 177, 136, 178, 195, 160, 181, 1, 1.30722
125, 1, bw, attraction, a-b-db, 9, 3, 2, 25, 195, 120, 114, 186, 120, 195, 1, 1.90801
125, 1, bw, attraction, a-b-db, 9, 3, 2, 25, 195, 120, 114, 186, 120, 195, 3, 0.614186
125, 1, bw, attraction, a-b-db, 2, 2, 2, 26, 89, 163, 165, 90, 90, 165, 3, 0.899223
125, 1, bw, attraction, a-b-db, 2, 2, 2, 26, 89, 163, 165, 90, 90, 165, 1, 0.622289
125, 1, bw, attraction, a-b-da, 5, 3, 2, 27, 120, 195, 190, 117, 195, 120, 1, 0.835281
125, 1, bw, attraction, a-b-da, 5, 3, 2, 27, 120, 195, 190, 117, 195, 120, 3, 0.601056
125, 1, bw, attraction, a-b-db, 2, 1, 2, 28, 135, 60, 60, 135, 59, 134, 1, 1.28678
125, 1, bw, attraction, a-b-db, 2, 1, 2, 28, 135, 60, 60, 135, 59, 134, 2, 0.842351
125, 1, bw, filler, NA, 999, 999, 2, 29, 104, 195, 107, 181, 180, 92, 2, 2.70207
125, 1, bw, filler, NA, 999, 999, 2, 29, 104, 195, 107, 181, 180, 92, 3, 0.720526
125, 1, bw, attraction, a-b-da, 9, 1, 2, 30, 60, 135, 129, 57, 135, 60, 1, 0.505501
125, 1, bw, attraction, a-b-da, 9, 1, 2, 30, 60, 135, 129, 57, 135, 60, 3, 0.612114
125, 1, bw, attraction, a-b-da, 9, 2, 2, 31, 90, 165, 157, 86, 165, 90, 1, 0.37715
125, 1, bw, attraction, a-b-da, 9, 2, 2, 31, 90, 165, 157, 86, 165, 90, 3, 0.536945
125, 1, bw, attraction, a-b-db, 5, 2, 2, 32, 88, 161, 90, 165, 165, 90, 1, 0.41735
125, 1, bw, attraction, a-b-db, 5, 2, 2, 32, 88, 161, 90, 165, 165, 90, 2, 0.90398
125, 1, bw, filler, NA, 999, 999, 2, 33, 161, 125, 117, 111, 88, 135, 1, 1.52967
125, 1, bw, filler, NA, 999, 999, 2, 33, 161, 125, 117, 111, 88, 135, 3, 0.61117
125, 1, bw, attraction, a-b-da, 5, 2, 2, 34, 161, 88, 90, 165, 165, 90, 1, 0.856224
125, 1, bw, attraction, a-b-da, 5, 2, 2, 34, 161, 88, 90, 165, 165, 90, 3, 0.788673
125, 1, bw, filler, NA, 999, 999, 2, 35, 184, 130, 183, 136, 163, 91, 1, 0.682928
125, 1, bw, filler, NA, 999, 999, 2, 35, 184, 130, 183, 136, 163, 91, 3, 0.574735
125, 1, bw, attraction, a-b-da, 9, 3, 2, 36, 120, 195, 195, 120, 186, 114, 3, 2.27724
125, 1, bw, attraction, a-b-da, 9, 3, 2, 36, 120, 195, 195, 120, 186, 114, 1, 1.62445
125, 1, bw, filler, NA, 999, 999, 2, 37, 164, 79, 129, 87, 62, 184, 1, 2.1405
125, 1, bw, filler, NA, 999, 999, 2, 37, 164, 79, 129, 87, 62, 184, 3, 0.589252
125, 1, bw, filler, NA, 999, 999, 3, 1, 58, 169, 114, 107, 124, 67, 1, 0.595534
125, 1, bw, filler, NA, 999, 999, 3, 1, 58, 169, 114, 107, 124, 67, 3, 0.770678
125, 1, bw, attraction, a-b-db, 2, 3, 3, 2, 119, 193, 120, 195, 195, 120, 2, 0.561634
125, 1, bw, attraction, a-b-db, 2, 3, 3, 2, 119, 193, 120, 195, 195, 120, 3, 0.370094
125, 1, bw, attraction, a-b-db, 9, 1, 3, 3, 135, 60, 60, 135, 57, 129, 1, 1.90543
125, 1, bw, attraction, a-b-db, 9, 1, 3, 3, 135, 60, 60, 135, 57, 129, 3, 1.0274
125, 1, bw, attraction, a-b-db, 14, 1, 3, 4, 135, 60, 56, 125, 60, 135, 1, 1.35156
125, 1, bw, attraction, a-b-db, 14, 1, 3, 4, 135, 60, 56, 125, 60, 135, 2, 0.408529
125, 1, bw, filler, NA, 999, 999, 3, 5, 82, 150, 90, 114, 82, 173, 3, 0.845605
125, 1, bw, filler, NA, 999, 999, 3, 5, 82, 150, 90, 114, 82, 173, 2, 0.378709
125, 1, bw, attraction, a-b-db, 14, 3, 3, 6, 195, 120, 111, 181, 120, 195, 3, 1.22526
125, 1, bw, attraction, a-b-db, 14, 3, 3, 6, 195, 120, 111, 181, 120, 195, 2, 0.430732
125, 1, bw, attraction, a-b-da, 9, 3, 3, 7, 195, 120, 120, 195, 186, 114, 1, 2.16329
125, 1, bw, attraction, a-b-da, 9, 3, 3, 7, 195, 120, 120, 195, 186, 114, 3, 0.427365
125, 1, bw, attraction, a-b-da, 14, 1, 3, 8, 125, 56, 135, 60, 60, 135, 2, 2.1196
125, 1, bw, attraction, a-b-da, 14, 1, 3, 8, 125, 56, 135, 60, 60, 135, 3, 0.729654
125, 1, bw, attraction, a-b-db, 9, 3, 3, 9, 120, 195, 114, 186, 195, 120, 1, 0.610201
125, 1, bw, attraction, a-b-db, 9, 3, 3, 9, 120, 195, 114, 186, 195, 120, 2, 2.28855
125, 1, bw, attraction, a-b-da, 2, 1, 3, 10, 135, 60, 60, 135, 134, 59, 1, 4.56246
125, 1, bw, attraction, a-b-da, 2, 1, 3, 10, 135, 60, 60, 135, 134, 59, 2, 0.769665
125, 1, bw, filler, NA, 999, 999, 3, 11, 161, 182, 75, 123, 97, 121, 1, 0.648679
125, 1, bw, filler, NA, 999, 999, 3, 11, 161, 182, 75, 123, 97, 121, 2, 0.789855
125, 1, bw, attraction, a-b-db, 2, 2, 3, 12, 165, 90, 90, 165, 89, 163, 3, 0.804256
125, 1, bw, attraction, a-b-db, 2, 2, 3, 12, 165, 90, 90, 165, 89, 163, 1, 0.611159
125, 1, bw, attraction, a-b-db, 5, 3, 3, 13, 120, 195, 117, 190, 195, 120, 3, 1.37621
125, 1, bw, attraction, a-b-db, 5, 3, 3, 13, 120, 195, 117, 190, 195, 120, 2, 0.407775
125, 1, bw, attraction, a-b-da, 5, 1, 3, 14, 132, 58, 135, 60, 60, 135, 1, 0.909018
125, 1, bw, attraction, a-b-da, 5, 1, 3, 14, 132, 58, 135, 60, 60, 135, 2, 0.46341
125, 1, bw, filler, NA, 999, 999, 3, 15, 98, 100, 69, 66, 147, 58, 1, 0.786531
125, 1, bw, filler, NA, 999, 999, 3, 15, 98, 100, 69, 66, 147, 58, 2, 0.346146
125, 1, bw, attraction, a-b-da, 9, 1, 3, 16, 60, 135, 135, 60, 129, 57, 3, 0.617972
125, 1, bw, attraction, a-b-da, 9, 1, 3, 16, 60, 135, 135, 60, 129, 57, 1, 0.408491
125, 1, bw, filler, NA, 999, 999, 3, 17, 96, 136, 115, 159, 189, 66, 2, 0.909579
125, 1, bw, filler, NA, 999, 999, 3, 17, 96, 136, 115, 159, 189, 66, 1, 0.295912
125, 1, bw, catch, NA, 999, 999, 3, 18, 189, 126, 109, 86, 109, 146, 1, 0.489737
125, 1, bw, catch, NA, 999, 999, 3, 18, 189, 126, 109, 86, 109, 146, 3, 0.588996
125, 1, bw, attraction, a-b-da, 2, 3, 3, 19, 193, 119, 195, 120, 120, 195, 2, 0.747358
125, 1, bw, attraction, a-b-da, 2, 3, 3, 19, 193, 119, 195, 120, 120, 195, 3, 0.252451
125, 1, bw, attraction, a-b-db, 2, 1, 3, 20, 60, 135, 59, 134, 135, 60, 1, 1.32024
125, 1, bw, attraction, a-b-db, 2, 1, 3, 20, 60, 135, 59, 134, 135, 60, 2, 0.71459
125, 1, bw, attraction, a-b-da, 5, 3, 3, 21, 190, 117, 195, 120, 120, 195, 1, 0.475578
125, 1, bw, attraction, a-b-da, 5, 3, 3, 21, 190, 117, 195, 120, 120, 195, 2, 0.31941
125, 1, bw, attraction, a-b-da, 9, 2, 3, 22, 90, 165, 157, 86, 165, 90, 3, 0.480638
125, 1, bw, attraction, a-b-da, 9, 2, 3, 22, 90, 165, 157, 86, 165, 90, 2, 0.308363
125, 1, bw, attraction, a-b-da, 2, 2, 3, 23, 90, 165, 165, 90, 163, 89, 3, 0.445552
125, 1, bw, attraction, a-b-da, 2, 2, 3, 23, 90, 165, 165, 90, 163, 89, 2, 0.562735
125, 1, bw, attraction, a-b-da, 14, 3, 3, 24, 120, 195, 181, 111, 195, 120, 3, 0.465872
125, 1, bw, attraction, a-b-da, 14, 3, 3, 24, 120, 195, 181, 111, 195, 120, 2, 1.92649
125, 1, bw, filler, NA, 999, 999, 3, 25, 111, 139, 166, 178, 97, 172, 2, 0.862431
125, 1, bw, filler, NA, 999, 999, 3, 25, 111, 139, 166, 178, 97, 172, 1, 0.141581
125, 1, bw, filler, NA, 999, 999, 3, 26, 90, 183, 184, 155, 96, 147, 2, 4.0507
125, 1, bw, filler, NA, 999, 999, 3, 26, 90, 183, 184, 155, 96, 147, 3, 0.6308
125, 1, bw, filler, NA, 999, 999, 3, 27, 173, 163, 121, 165, 155, 177, 1, 1.53098
125, 1, bw, filler, NA, 999, 999, 3, 27, 173, 163, 121, 165, 155, 177, 2, 0.356594
125, 1, bw, filler, NA, 999, 999, 3, 28, 89, 159, 78, 162, 71, 195, 3, 1.28447
125, 1, bw, filler, NA, 999, 999, 3, 28, 89, 159, 78, 162, 71, 195, 2, 0.543978
125, 1, bw, attraction, a-b-da, 14, 2, 3, 29, 165, 90, 90, 165, 153, 83, 1, 0.919688
125, 1, bw, attraction, a-b-da, 14, 2, 3, 29, 165, 90, 90, 165, 153, 83, 2, 0.57813
125, 1, bw, attraction, a-b-db, 5, 2, 3, 30, 88, 161, 165, 90, 90, 165, 3, 0.496436
125, 1, bw, attraction, a-b-db, 5, 2, 3, 30, 88, 161, 165, 90, 90, 165, 2, 0.683745
125, 1, bw, attraction, a-b-da, 5, 2, 3, 31, 165, 90, 90, 165, 161, 88, 3, 0.742176
125, 1, bw, attraction, a-b-da, 5, 2, 3, 31, 165, 90, 90, 165, 161, 88, 2, 0.759096
125, 1, bw, attraction, a-b-db, 5, 1, 3, 32, 135, 60, 60, 135, 58, 132, 1, 0.814187
125, 1, bw, attraction, a-b-db, 5, 1, 3, 32, 135, 60, 60, 135, 58, 132, 2, 0.660544
125, 1, bw, attraction, a-b-db, 9, 2, 3, 33, 165, 90, 86, 157, 90, 165, 3, 0.607577
125, 1, bw, attraction, a-b-db, 9, 2, 3, 33, 165, 90, 86, 157, 90, 165, 2, 0.366088
125, 1, bw, catch, NA, 999, 999, 3, 34, 106, 149, 144, 171, 74, 121, 2, 0.909254
125, 1, bw, catch, NA, 999, 999, 3, 34, 106, 149, 144, 171, 74, 121, 3, 0.807604
125, 1, bw, attraction, a-b-db, 14, 2, 3, 35, 165, 90, 83, 153, 90, 165, 3, 1.52463
125, 1, bw, attraction, a-b-db, 14, 2, 3, 35, 165, 90, 83, 153, 90, 165, 2, 0.454151
125, 1, bw, filler, NA, 999, 999, 3, 36, 81, 99, 143, 122, 107, 90, 2, 0.889974
125, 1, bw, filler, NA, 999, 999, 3, 36, 81, 99, 143, 122, 107, 90, 1, 0.476909
125, 1, bw, catch, NA, 999, 999, 3, 37, 88, 107, 145, 170, 92, 163, 2, 0.791374
125, 1, bw, catch, NA, 999, 999, 3, 37, 88, 107, 145, 170, 92, 163, 3, 0.382418
125, 1, bw, filler, NA, 999, 999, 4, 1, 195, 115, 110, 72, 83, 149, 1, 2.78091
125, 1, bw, filler, NA, 999, 999, 4, 1, 195, 115, 110, 72, 83, 149, 2, 0.324059
125, 1, bw, filler, NA, 999, 999, 4, 2, 184, 63, 148, 115, 93, 168, 2, 0.644571
125, 1, bw, filler, NA, 999, 999, 4, 2, 184, 63, 148, 115, 93, 168, 1, 0.673695
125, 1, bw, attraction, a-b-db, 9, 2, 4, 3, 165, 90, 86, 157, 90, 165, 3, 1.18006
125, 1, bw, attraction, a-b-db, 9, 2, 4, 3, 165, 90, 86, 157, 90, 165, 1, 0.64384
125, 1, bw, attraction, a-b-da, 2, 2, 4, 4, 165, 90, 90, 165, 163, 89, 3, 0.479375
125, 1, bw, attraction, a-b-da, 2, 2, 4, 4, 165, 90, 90, 165, 163, 89, 2, 0.427235
125, 1, bw, attraction, a-b-db, 2, 3, 4, 5, 119, 193, 195, 120, 120, 195, 2, 2.02367
125, 1, bw, attraction, a-b-db, 2, 3, 4, 5, 119, 193, 195, 120, 120, 195, 3, 0.453024
125, 1, bw, attraction, a-b-db, 2, 1, 4, 6, 60, 135, 135, 60, 59, 134, 2, 0.480984
125, 1, bw, attraction, a-b-db, 2, 1, 4, 6, 60, 135, 135, 60, 59, 134, 3, 1.14072
125, 1, bw, attraction, a-b-db, 2, 2, 4, 7, 90, 165, 89, 163, 165, 90, 3, 1.3003
125, 1, bw, attraction, a-b-db, 2, 2, 4, 7, 90, 165, 89, 163, 165, 90, 1, 0.719221
125, 1, bw, attraction, a-b-db, 14, 3, 4, 8, 120, 195, 195, 120, 111, 181, 2, 0.61624
125, 1, bw, attraction, a-b-db, 14, 3, 4, 8, 120, 195, 195, 120, 111, 181, 3, 0.574671
125, 1, bw, filler, NA, 999, 999, 4, 9, 162, 118, 164, 98, 62, 75, 2, 0.933048
125, 1, bw, filler, NA, 999, 999, 4, 9, 162, 118, 164, 98, 62, 75, 3, 0.582824
125, 1, bw, attraction, a-b-da, 9, 1, 4, 10, 129, 57, 135, 60, 60, 135, 2, 1.18919
125, 1, bw, attraction, a-b-da, 9, 1, 4, 10, 129, 57, 135, 60, 60, 135, 3, 0.492146
125, 1, bw, attraction, a-b-da, 9, 3, 4, 11, 120, 195, 195, 120, 186, 114, 2, 0.605885
125, 1, bw, attraction, a-b-da, 9, 3, 4, 11, 120, 195, 195, 120, 186, 114, 3, 0.612372
125, 1, bw, catch, NA, 999, 999, 4, 12, 90, 165, 168, 147, 85, 110, 2, 0.569404
125, 1, bw, catch, NA, 999, 999, 4, 12, 90, 165, 168, 147, 85, 110, 3, 0.449891
125, 1, bw, catch, NA, 999, 999, 4, 13, 147, 108, 87, 108, 128, 187, 3, 0.509722
125, 1, bw, catch, NA, 999, 999, 4, 13, 147, 108, 87, 108, 128, 187, 2, 0.416157
125, 1, bw, filler, NA, 999, 999, 4, 14, 129, 113, 193, 120, 56, 114, 2, 0.557373
125, 1, bw, filler, NA, 999, 999, 4, 14, 129, 113, 193, 120, 56, 114, 3, 0.405881
125, 1, bw, attraction, a-b-db, 14, 2, 4, 15, 90, 165, 83, 153, 165, 90, 3, 0.97961
125, 1, bw, attraction, a-b-db, 14, 2, 4, 15, 90, 165, 83, 153, 165, 90, 2, 0.339286
125, 1, bw, attraction, a-b-da, 2, 3, 4, 16, 195, 120, 193, 119, 120, 195, 1, 2.3797
125, 1, bw, attraction, a-b-da, 2, 3, 4, 16, 195, 120, 193, 119, 120, 195, 3, 0.355015
125, 1, bw, attraction, a-b-da, 14, 3, 4, 17, 181, 111, 195, 120, 120, 195, 2, 0.546867
125, 1, bw, attraction, a-b-da, 14, 3, 4, 17, 181, 111, 195, 120, 120, 195, 3, 0.40401
125, 1, bw, attraction, a-b-da, 5, 1, 4, 18, 60, 135, 135, 60, 132, 58, 2, 0.61772
125, 1, bw, attraction, a-b-da, 5, 1, 4, 18, 60, 135, 135, 60, 132, 58, 3, 0.632205
125, 1, bw, attraction, a-b-da, 2, 1, 4, 19, 134, 59, 60, 135, 135, 60, 2, 0.516748
125, 1, bw, attraction, a-b-da, 2, 1, 4, 19, 134, 59, 60, 135, 135, 60, 3, 0.767182
125, 1, bw, filler, NA, 999, 999, 4, 20, 187, 129, 79, 90, 105, 78, 1, 2.75806
125, 1, bw, filler, NA, 999, 999, 4, 20, 187, 129, 79, 90, 105, 78, 2, 1.12597
125, 1, bw, attraction, a-b-db, 5, 1, 4, 21, 60, 135, 58, 132, 135, 60, 2, 13.3342
125, 1, bw, attraction, a-b-db, 5, 1, 4, 21, 60, 135, 58, 132, 135, 60, 1, 4.89198
125, 1, bw, filler, NA, 999, 999, 4, 22, 91, 131, 186, 134, 80, 85, 2, 1.29245
125, 1, bw, filler, NA, 999, 999, 4, 22, 91, 131, 186, 134, 80, 85, 3, 1.27939
125, 1, bw, attraction, a-b-da, 14, 2, 4, 23, 90, 165, 165, 90, 153, 83, 2, 0.977482
125, 1, bw, attraction, a-b-da, 14, 2, 4, 23, 90, 165, 165, 90, 153, 83, 3, 0.497165
125, 1, bw, attraction, a-b-da, 5, 2, 4, 24, 161, 88, 90, 165, 165, 90, 2, 0.754876
125, 1, bw, attraction, a-b-da, 5, 2, 4, 24, 161, 88, 90, 165, 165, 90, 3, 0.467366
125, 1, bw, attraction, a-b-da, 14, 1, 4, 25, 125, 56, 60, 135, 135, 60, 1, 1.35846
125, 1, bw, attraction, a-b-da, 14, 1, 4, 25, 125, 56, 60, 135, 135, 60, 3, 1.05472
125, 1, bw, filler, NA, 999, 999, 4, 26, 139, 96, 139, 77, 58, 146, 1, 0.586266
125, 1, bw, filler, NA, 999, 999, 4, 26, 139, 96, 139, 77, 58, 146, 3, 0.978139
125, 1, bw, attraction, a-b-db, 14, 1, 4, 27, 56, 125, 135, 60, 60, 135, 1, 0.672386
125, 1, bw, attraction, a-b-db, 14, 1, 4, 27, 56, 125, 135, 60, 60, 135, 2, 0.684148
125, 1, bw, attraction, a-b-db, 9, 3, 4, 28, 120, 195, 114, 186, 195, 120, 3, 1.1586
125, 1, bw, attraction, a-b-db, 9, 3, 4, 28, 120, 195, 114, 186, 195, 120, 2, 0.656176
125, 1, bw, filler, NA, 999, 999, 4, 29, 105, 192, 98, 177, 171, 130, 3, 0.778566
125, 1, bw, filler, NA, 999, 999, 4, 29, 105, 192, 98, 177, 171, 130, 2, 0.634372
125, 1, bw, attraction, a-b-da, 9, 2, 4, 30, 157, 86, 165, 90, 90, 165, 2, 1.09469
125, 1, bw, attraction, a-b-da, 9, 2, 4, 30, 157, 86, 165, 90, 90, 165, 3, 0.425687
125, 1, bw, catch, NA, 999, 999, 4, 31, 122, 73, 131, 184, 160, 95, 2, 0.742362
125, 1, bw, catch, NA, 999, 999, 4, 31, 122, 73, 131, 184, 160, 95, 1, 0.663243
125, 1, bw, filler, NA, 999, 999, 4, 32, 185, 166, 141, 59, 182, 121, 1, 1.36225
125, 1, bw, filler, NA, 999, 999, 4, 32, 185, 166, 141, 59, 182, 121, 2, 0.73859
125, 1, bw, attraction, a-b-da, 5, 3, 4, 33, 195, 120, 190, 117, 120, 195, 1, 1.08294
125, 1, bw, attraction, a-b-da, 5, 3, 4, 33, 195, 120, 190, 117, 120, 195, 3, 0.85453
125, 1, bw, attraction, a-b-db, 5, 3, 4, 34, 195, 120, 120, 195, 117, 190, 1, 0.658216
125, 1, bw, attraction, a-b-db, 5, 3, 4, 34, 195, 120, 120, 195, 117, 190, 3, 0.854709
125, 1, bw, filler, NA, 999, 999, 4, 35, 187, 95, 150, 65, 148, 128, 1, 0.87434
125, 1, bw, filler, NA, 999, 999, 4, 35, 187, 95, 150, 65, 148, 128, 3, 0.606109
125, 1, bw, attraction, a-b-db, 5, 2, 4, 36, 165, 90, 88, 161, 90, 165, 1, 0.971739
125, 1, bw, attraction, a-b-db, 5, 2, 4, 36, 165, 90, 88, 161, 90, 165, 3, 0.891531
125, 1, bw, attraction, a-b-db, 9, 1, 4, 37, 60, 135, 135, 60, 57, 129, 2, 1.14921
125, 1, bw, attraction, a-b-db, 9, 1, 4, 37, 60, 135, 135, 60, 57, 129, 3, 0.702015
125, 1, bw, catch, NA, 999, 999, 5, 1, 78, 117, 177, 138, 117, 138, 2, 3.75057
125, 1, bw, catch, NA, 999, 999, 5, 1, 78, 117, 177, 138, 117, 138, 1, 0.446488
125, 1, bw, attraction, a-b-db, 2, 3, 5, 2, 120, 195, 119, 193, 195, 120, 3, 0.770344
125, 1, bw, attraction, a-b-db, 2, 3, 5, 2, 120, 195, 119, 193, 195, 120, 2, 0.442746
125, 1, bw, attraction, a-b-da, 14, 1, 5, 3, 135, 60, 60, 135, 125, 56, 1, 0.950551
125, 1, bw, attraction, a-b-da, 14, 1, 5, 3, 135, 60, 60, 135, 125, 56, 2, 0.799651
125, 1, bw, attraction, a-b-da, 2, 1, 5, 4, 60, 135, 134, 59, 135, 60, 3, 0.677387
125, 1, bw, attraction, a-b-da, 2, 1, 5, 4, 60, 135, 134, 59, 135, 60, 2, 0.625007
125, 1, bw, attraction, a-b-db, 2, 2, 5, 5, 90, 165, 89, 163, 165, 90, 3, 0.557546
125, 1, bw, attraction, a-b-db, 2, 2, 5, 5, 90, 165, 89, 163, 165, 90, 2, 0.549984
125, 1, bw, attraction, a-b-db, 14, 2, 5, 6, 90, 165, 83, 153, 165, 90, 3, 0.581677
125, 1, bw, attraction, a-b-db, 14, 2, 5, 6, 90, 165, 83, 153, 165, 90, 1, 0.661468
125, 1, bw, attraction, a-b-da, 9, 1, 5, 7, 135, 60, 129, 57, 60, 135, 1, 0.848653
125, 1, bw, attraction, a-b-da, 9, 1, 5, 7, 135, 60, 129, 57, 60, 135, 3, 0.389505
125, 1, bw, filler, NA, 999, 999, 5, 8, 95, 183, 83, 111, 126, 93, 1, 0.556044
125, 1, bw, filler, NA, 999, 999, 5, 8, 95, 183, 83, 111, 126, 93, 2, 0.596494
125, 1, bw, attraction, a-b-da, 9, 2, 5, 9, 165, 90, 157, 86, 90, 165, 2, 0.610317
125, 1, bw, attraction, a-b-da, 9, 2, 5, 9, 165, 90, 157, 86, 90, 165, 1, 0.416873
125, 1, bw, attraction, a-b-db, 5, 2, 5, 10, 165, 90, 90, 165, 88, 161, 2, 0.76586
125, 1, bw, attraction, a-b-db, 5, 2, 5, 10, 165, 90, 90, 165, 88, 161, 1, 0.590228
125, 1, bw, filler, NA, 999, 999, 5, 11, 89, 176, 58, 92, 156, 88, 1, 0.85198
125, 1, bw, filler, NA, 999, 999, 5, 11, 89, 176, 58, 92, 156, 88, 2, 0.401143
125, 1, bw, attraction, a-b-da, 5, 2, 5, 12, 90, 165, 165, 90, 161, 88, 2, 0.542862
125, 1, bw, attraction, a-b-da, 5, 2, 5, 12, 90, 165, 165, 90, 161, 88, 1, 0.400009
125, 1, bw, attraction, a-b-db, 9, 2, 5, 13, 165, 90, 90, 165, 86, 157, 2, 0.573766
125, 1, bw, attraction, a-b-db, 9, 2, 5, 13, 165, 90, 90, 165, 86, 157, 1, 0.333617
125, 1, bw, filler, NA, 999, 999, 5, 14, 144, 143, 170, 146, 56, 179, 2, 0.37415
125, 1, bw, filler, NA, 999, 999, 5, 14, 144, 143, 170, 146, 56, 179, 3, 1.39001
125, 1, bw, attraction, a-b-db, 2, 1, 5, 15, 60, 135, 135, 60, 59, 134, 1, 0.92409
125, 1, bw, attraction, a-b-db, 2, 1, 5, 15, 60, 135, 135, 60, 59, 134, 2, 0.349931
125, 1, bw, attraction, a-b-da, 14, 2, 5, 16, 90, 165, 153, 83, 165, 90, 2, 1.61364
125, 1, bw, attraction, a-b-da, 14, 2, 5, 16, 90, 165, 153, 83, 165, 90, 1, 0.451748
125, 1, bw, attraction, a-b-db, 9, 3, 5, 17, 114, 186, 195, 120, 120, 195, 2, 0.5276
125, 1, bw, attraction, a-b-db, 9, 3, 5, 17, 114, 186, 195, 120, 120, 195, 3, 0.625386
125, 1, bw, attraction, a-b-db, 9, 1, 5, 18, 60, 135, 135, 60, 57, 129, 1, 0.773901
125, 1, bw, attraction, a-b-db, 9, 1, 5, 18, 60, 135, 135, 60, 57, 129, 2, 0.58154
125, 1, bw, attraction, a-b-db, 14, 1, 5, 19, 135, 60, 56, 125, 60, 135, 1, 1.08397
125, 1, bw, attraction, a-b-db, 14, 1, 5, 19, 135, 60, 56, 125, 60, 135, 2, 0.47173
125, 1, bw, filler, NA, 999, 999, 5, 20, 69, 182, 99, 76, 85, 112, 1, 1.60277
125, 1, bw, filler, NA, 999, 999, 5, 20, 69, 182, 99, 76, 85, 112, 2, 0.697652
125, 1, bw, attraction, a-b-da, 14, 3, 5, 21, 120, 195, 195, 120, 181, 111, 1, 0.47192
125, 1, bw, attraction, a-b-da, 14, 3, 5, 21, 120, 195, 195, 120, 181, 111, 2, 0.903256
125, 1, bw, filler, NA, 999, 999, 5, 22, 85, 115, 106, 168, 69, 112, 1, 0.66493
125, 1, bw, filler, NA, 999, 999, 5, 22, 85, 115, 106, 168, 69, 112, 3, 1.7012
125, 1, bw, attraction, a-b-db, 5, 3, 5, 23, 117, 190, 195, 120, 120, 195, 1, 0.966726
125, 1, bw, attraction, a-b-db, 5, 3, 5, 23, 117, 190, 195, 120, 120, 195, 2, 1.31903
125, 1, bw, catch, NA, 999, 999, 5, 24, 115, 80, 125, 130, 182, 133, 3, 1.27185
125, 1, bw, catch, NA, 999, 999, 5, 24, 115, 80, 125, 130, 182, 133, 1, 0.724977
125, 1, bw, attraction, a-b-db, 14, 3, 5, 25, 111, 181, 120, 195, 195, 120, 2, 0.963816
125, 1, bw, attraction, a-b-db, 14, 3, 5, 25, 111, 181, 120, 195, 195, 120, 1, 0.476192
125, 1, bw, attraction, a-b-da, 5, 1, 5, 26, 132, 58, 135, 60, 60, 135, 3, 1.5666
125, 1, bw, attraction, a-b-da, 5, 1, 5, 26, 132, 58, 135, 60, 60, 135, 1, 0.518751
125, 1, bw, attraction, a-b-db, 5, 1, 5, 27, 58, 132, 60, 135, 135, 60, 3, 0.791864
125, 1, bw, attraction, a-b-db, 5, 1, 5, 27, 58, 132, 60, 135, 135, 60, 1, 1.04687
125, 1, bw, filler, NA, 999, 999, 5, 28, 120, 102, 70, 79, 121, 77, 1, 0.842522
125, 1, bw, filler, NA, 999, 999, 5, 28, 120, 102, 70, 79, 121, 77, 2, 0.655553
125, 1, bw, attraction, a-b-da, 5, 3, 5, 29, 195, 120, 190, 117, 120, 195, 1, 0.611314
125, 1, bw, attraction, a-b-da, 5, 3, 5, 29, 195, 120, 190, 117, 120, 195, 2, 0.609797
125, 1, bw, catch, NA, 999, 999, 5, 30, 116, 139, 70, 125, 147, 168, 3, 1.01496
125, 1, bw, catch, NA, 999, 999, 5, 30, 116, 139, 70, 125, 147, 168, 2, 0.629241
125, 1, bw, filler, NA, 999, 999, 5, 31, 97, 110, 144, 86, 116, 194, 3, 0.689562
125, 1, bw, filler, NA, 999, 999, 5, 31, 97, 110, 144, 86, 116, 194, 1, 0.64458
125, 1, bw, filler, NA, 999, 999, 5, 32, 148, 71, 109, 187, 82, 71, 2, 0.848277
125, 1, bw, filler, NA, 999, 999, 5, 32, 148, 71, 109, 187, 82, 71, 3, 0.637419
125, 1, bw, filler, NA, 999, 999, 5, 33, 145, 94, 91, 153, 124, 120, 3, 1.31385
125, 1, bw, filler, NA, 999, 999, 5, 33, 145, 94, 91, 153, 124, 120, 1, 0.975278
125, 1, bw, attraction, a-b-da, 9, 3, 5, 34, 195, 120, 186, 114, 120, 195, 1, 2.21846
125, 1, bw, attraction, a-b-da, 9, 3, 5, 34, 195, 120, 186, 114, 120, 195, 3, 0.664467
125, 1, bw, filler, NA, 999, 999, 5, 35, 99, 72, 83, 173, 109, 151, 3, 1.82738
125, 1, bw, filler, NA, 999, 999, 5, 35, 99, 72, 83, 173, 109, 151, 1, 0.776876
125, 1, bw, attraction, a-b-da, 2, 2, 5, 36, 90, 165, 165, 90, 163, 89, 3, 1.21509
125, 1, bw, attraction, a-b-da, 2, 2, 5, 36, 90, 165, 165, 90, 163, 89, 1, 0.525454
125, 1, bw, attraction, a-b-da, 2, 3, 5, 37, 195, 120, 193, 119, 120, 195, 3, 0.590015
125, 1, bw, attraction, a-b-da, 2, 3, 5, 37, 195, 120, 193, 119, 120, 195, 1, 0.396877
125, 1, bw, attraction, a-b-da, 9, 2, 6, 1, 90, 165, 165, 90, 157, 86, 2, 0.64273
125, 1, bw, attraction, a-b-da, 9, 2, 6, 1, 90, 165, 165, 90, 157, 86, 1, 0.476946
125, 1, bw, filler, NA, 999, 999, 6, 2, 152, 89, 178, 153, 191, 176, 3, 0.690515
125, 1, bw, filler, NA, 999, 999, 6, 2, 152, 89, 178, 153, 191, 176, 1, 0.637468
125, 1, bw, attraction, a-b-da, 5, 1, 6, 3, 60, 135, 132, 58, 135, 60, 2, 0.81265
125, 1, bw, attraction, a-b-da, 5, 1, 6, 3, 60, 135, 132, 58, 135, 60, 1, 0.616318
125, 1, bw, filler, NA, 999, 999, 6, 4, 124, 168, 95, 120, 59, 121, 1, 1.02137
125, 1, bw, filler, NA, 999, 999, 6, 4, 124, 168, 95, 120, 59, 121, 3, 0.204488
125, 1, bw, filler, NA, 999, 999, 6, 5, 159, 103, 133, 186, 159, 156, 3, 1.04147
125, 1, bw, filler, NA, 999, 999, 6, 5, 159, 103, 133, 186, 159, 156, 1, 0.406476
125, 1, bw, attraction, a-b-da, 14, 1, 6, 6, 60, 135, 135, 60, 125, 56, 1, 0.620432
125, 1, bw, attraction, a-b-da, 14, 1, 6, 6, 60, 135, 135, 60, 125, 56, 3, 0.682713
125, 1, bw, attraction, a-b-da, 2, 2, 6, 7, 90, 165, 165, 90, 163, 89, 1, 0.60522
125, 1, bw, attraction, a-b-da, 2, 2, 6, 7, 90, 165, 165, 90, 163, 89, 3, 0.43571
125, 1, bw, attraction, a-b-da, 5, 3, 6, 8, 190, 117, 120, 195, 195, 120, 1, 0.696055
125, 1, bw, attraction, a-b-da, 5, 3, 6, 8, 190, 117, 120, 195, 195, 120, 3, 0.643199
125, 1, bw, attraction, a-b-db, 5, 2, 6, 9, 90, 165, 88, 161, 165, 90, 1, 0.622903
125, 1, bw, attraction, a-b-db, 5, 2, 6, 9, 90, 165, 88, 161, 165, 90, 3, 0.836738
125, 1, bw, attraction, a-b-db, 2, 1, 6, 10, 59, 134, 135, 60, 60, 135, 1, 0.801089
125, 1, bw, attraction, a-b-db, 2, 1, 6, 10, 59, 134, 135, 60, 60, 135, 2, 0.496207
125, 1, bw, attraction, a-b-db, 14, 1, 6, 11, 56, 125, 135, 60, 60, 135, 1, 0.41787
125, 1, bw, attraction, a-b-db, 14, 1, 6, 11, 56, 125, 135, 60, 60, 135, 2, 0.560391
125, 1, bw, catch, NA, 999, 999, 6, 12, 72, 123, 103, 152, 149, 166, 3, 0.96023
125, 1, bw, catch, NA, 999, 999, 6, 12, 72, 123, 103, 152, 149, 166, 1, 0.839817
125, 1, bw, attraction, a-b-da, 14, 3, 6, 13, 181, 111, 120, 195, 195, 120, 2, 1.34023
125, 1, bw, attraction, a-b-da, 14, 3, 6, 13, 181, 111, 120, 195, 195, 120, 1, 0.3491
125, 1, bw, attraction, a-b-db, 5, 1, 6, 14, 60, 135, 58, 132, 135, 60, 2, 0.780911
125, 1, bw, attraction, a-b-db, 5, 1, 6, 14, 60, 135, 58, 132, 135, 60, 1, 0.708637
125, 1, bw, filler, NA, 999, 999, 6, 15, 86, 186, 142, 173, 139, 91, 2, 0.397841
125, 1, bw, filler, NA, 999, 999, 6, 15, 86, 186, 142, 173, 139, 91, 3, 0.512348
125, 1, bw, attraction, a-b-db, 14, 2, 6, 16, 165, 90, 83, 153, 90, 165, 3, 1.3099
125, 1, bw, attraction, a-b-db, 14, 2, 6, 16, 165, 90, 83, 153, 90, 165, 2, 0.592269
125, 1, bw, attraction, a-b-da, 5, 2, 6, 17, 165, 90, 90, 165, 161, 88, 2, 0.901962
125, 1, bw, attraction, a-b-da, 5, 2, 6, 17, 165, 90, 90, 165, 161, 88, 3, 0.833024
125, 1, bw, attraction, a-b-db, 14, 3, 6, 18, 111, 181, 195, 120, 120, 195, 2, 0.789459
125, 1, bw, attraction, a-b-db, 14, 3, 6, 18, 111, 181, 195, 120, 120, 195, 1, 0.564359
125, 1, bw, filler, NA, 999, 999, 6, 19, 105, 127, 149, 136, 178, 194, 3, 1.13143
125, 1, bw, filler, NA, 999, 999, 6, 19, 105, 127, 149, 136, 178, 194, 1, 0.653111
125, 1, bw, attraction, a-b-da, 14, 2, 6, 20, 165, 90, 153, 83, 90, 165, 3, 0.448812
125, 1, bw, attraction, a-b-da, 14, 2, 6, 20, 165, 90, 153, 83, 90, 165, 1, 0.462028
125, 1, bw, attraction, a-b-db, 2, 2, 6, 21, 165, 90, 90, 165, 89, 163, 3, 0.665092
125, 1, bw, attraction, a-b-db, 2, 2, 6, 21, 165, 90, 90, 165, 89, 163, 1, 0.72565
125, 1, bw, filler, NA, 999, 999, 6, 22, 74, 146, 69, 150, 125, 182, 3, 0.405954
125, 1, bw, filler, NA, 999, 999, 6, 22, 74, 146, 69, 150, 125, 182, 2, 0.788458
125, 1, bw, attraction, a-b-da, 2, 1, 6, 23, 60, 135, 134, 59, 135, 60, 3, 1.22687
125, 1, bw, attraction, a-b-da, 2, 1, 6, 23, 60, 135, 134, 59, 135, 60, 2, 0.568433
125, 1, bw, filler, NA, 999, 999, 6, 24, 188, 154, 188, 121, 111, 132, 1, 1.00755
125, 1, bw, filler, NA, 999, 999, 6, 24, 188, 154, 188, 121, 111, 132, 3, 0.413936
125, 1, bw, filler, NA, 999, 999, 6, 25, 182, 141, 65, 146, 109, 156, 1, 0.443065
125, 1, bw, filler, NA, 999, 999, 6, 25, 182, 141, 65, 146, 109, 156, 3, 0.528155
125, 1, bw, filler, NA, 999, 999, 6, 26, 180, 57, 167, 93, 125, 186, 3, 0.904916
125, 1, bw, filler, NA, 999, 999, 6, 26, 180, 57, 167, 93, 125, 186, 1, 0.595109
125, 1, bw, catch, NA, 999, 999, 6, 27, 159, 96, 121, 194, 87, 108, 2, 1.18564
125, 1, bw, catch, NA, 999, 999, 6, 27, 159, 96, 121, 194, 87, 108, 3, 0.720284
125, 1, bw, attraction, a-b-db, 9, 1, 6, 28, 135, 60, 60, 135, 57, 129, 1, 0.593404
125, 1, bw, attraction, a-b-db, 9, 1, 6, 28, 135, 60, 60, 135, 57, 129, 3, 0.536485
125, 1, bw, attraction, a-b-da, 9, 3, 6, 29, 186, 114, 195, 120, 120, 195, 2, 1.0169
125, 1, bw, attraction, a-b-da, 9, 3, 6, 29, 186, 114, 195, 120, 120, 195, 1, 0.239339
125, 1, bw, attraction, a-b-db, 2, 3, 6, 30, 195, 120, 120, 195, 119, 193, 2, 0.795849
125, 1, bw, attraction, a-b-db, 2, 3, 6, 30, 195, 120, 120, 195, 119, 193, 1, 0.418845
125, 1, bw, attraction, a-b-da, 9, 1, 6, 31, 129, 57, 60, 135, 135, 60, 2, 0.744018
125, 1, bw, attraction, a-b-da, 9, 1, 6, 31, 129, 57, 60, 135, 135, 60, 1, 0.569087
125, 1, bw, attraction, a-b-da, 2, 3, 6, 32, 195, 120, 120, 195, 193, 119, 2, 0.712191
125, 1, bw, attraction, a-b-da, 2, 3, 6, 32, 195, 120, 120, 195, 193, 119, 3, 0.474627
125, 1, bw, attraction, a-b-db, 9, 3, 6, 33, 120, 195, 114, 186, 195, 120, 1, 0.852998
125, 1, bw, attraction, a-b-db, 9, 3, 6, 33, 120, 195, 114, 186, 195, 120, 3, 0.179287
125, 1, bw, attraction, a-b-db, 9, 2, 6, 34, 90, 165, 165, 90, 86, 157, 2, 0.760739
125, 1, bw, attraction, a-b-db, 9, 2, 6, 34, 90, 165, 165, 90, 86, 157, 1, 0.513202
125, 1, bw, attraction, a-b-db, 5, 3, 6, 35, 117, 190, 120, 195, 195, 120, 2, 0.642187
125, 1, bw, attraction, a-b-db, 5, 3, 6, 35, 117, 190, 120, 195, 195, 120, 3, 0.759288
125, 1, bw, catch, NA, 999, 999, 6, 36, 131, 64, 155, 100, 188, 127, 3, 1.31832
125, 1, bw, catch, NA, 999, 999, 6, 36, 131, 64, 155, 100, 188, 127, 1, 0.648576
125, 1, bw, filler, NA, 999, 999, 6, 37, 102, 69, 177, 145, 101, 170, 2, 1.44427
125, 1, bw, filler, NA, 999, 999, 6, 37, 102, 69, 177, 145, 101, 170, 1, 0.641068
125, 1, bw, filler, NA, 999, 999, 7, 1, 157, 158, 103, 190, 151, 157, 3, 0.652942
125, 1, bw, filler, NA, 999, 999, 7, 1, 157, 158, 103, 190, 151, 157, 2, 0.394037
125, 1, bw, catch, NA, 999, 999, 7, 2, 178, 137, 83, 112, 104, 151, 1, 0.855074
125, 1, bw, catch, NA, 999, 999, 7, 2, 178, 137, 83, 112, 104, 151, 3, 0.700233
125, 1, bw, attraction, a-b-db, 14, 3, 7, 3, 120, 195, 111, 181, 195, 120, 1, 0.61384
125, 1, bw, attraction, a-b-db, 14, 3, 7, 3, 120, 195, 111, 181, 195, 120, 3, 0.67646
125, 1, bw, attraction, a-b-da, 9, 1, 7, 4, 129, 57, 60, 135, 135, 60, 2, 0.862808
125, 1, bw, attraction, a-b-da, 9, 1, 7, 4, 129, 57, 60, 135, 135, 60, 1, 0.547232
125, 1, bw, attraction, a-b-da, 14, 2, 7, 5, 165, 90, 90, 165, 153, 83, 1, 0.794877
125, 1, bw, attraction, a-b-da, 14, 2, 7, 5, 165, 90, 90, 165, 153, 83, 2, 0.52994
125, 1, bw, attraction, a-b-da, 5, 2, 7, 6, 90, 165, 161, 88, 165, 90, 3, 0.834344
125, 1, bw, attraction, a-b-da, 5, 2, 7, 6, 90, 165, 161, 88, 165, 90, 2, 0.568083
125, 1, bw, attraction, a-b-db, 14, 1, 7, 7, 135, 60, 60, 135, 56, 125, 3, 0.551164
125, 1, bw, attraction, a-b-db, 14, 1, 7, 7, 135, 60, 60, 135, 56, 125, 1, 0.488359
125, 1, bw, attraction, a-b-db, 9, 2, 7, 8, 90, 165, 165, 90, 86, 157, 2, 0.826699
125, 1, bw, attraction, a-b-db, 9, 2, 7, 8, 90, 165, 165, 90, 86, 157, 3, 0.592552
125, 1, bw, filler, NA, 999, 999, 7, 9, 56, 97, 106, 145, 86, 113, 1, 1.03012
125, 1, bw, filler, NA, 999, 999, 7, 9, 56, 97, 106, 145, 86, 113, 2, 0.339946
125, 1, bw, filler, NA, 999, 999, 7, 10, 152, 175, 193, 56, 137, 183, 3, 0.411673
125, 1, bw, filler, NA, 999, 999, 7, 10, 152, 175, 193, 56, 137, 183, 2, 0.562271
125, 1, bw, filler, NA, 999, 999, 7, 11, 126, 123, 93, 59, 69, 139, 1, 0.833317
125, 1, bw, filler, NA, 999, 999, 7, 11, 126, 123, 93, 59, 69, 139, 2, 0.623202
125, 1, bw, attraction, a-b-db, 5, 1, 7, 12, 60, 135, 58, 132, 135, 60, 2, 1.32409
125, 1, bw, attraction, a-b-db, 5, 1, 7, 12, 60, 135, 58, 132, 135, 60, 3, 0.837694
125, 1, bw, attraction, a-b-da, 2, 3, 7, 13, 195, 120, 193, 119, 120, 195, 1, 1.33021
125, 1, bw, attraction, a-b-da, 2, 3, 7, 13, 195, 120, 193, 119, 120, 195, 3, 0.515599
125, 1, bw, attraction, a-b-db, 5, 3, 7, 14, 120, 195, 195, 120, 117, 190, 1, 0.532761
125, 1, bw, attraction, a-b-db, 5, 3, 7, 14, 120, 195, 195, 120, 117, 190, 2, 0.454422
125, 1, bw, filler, NA, 999, 999, 7, 15, 191, 97, 74, 58, 72, 106, 1, 0.634382
125, 1, bw, filler, NA, 999, 999, 7, 15, 191, 97, 74, 58, 72, 106, 2, 0.600185
125, 1, bw, attraction, a-b-da, 2, 2, 7, 16, 163, 89, 90, 165, 165, 90, 1, 0.709909
125, 1, bw, attraction, a-b-da, 2, 2, 7, 16, 163, 89, 90, 165, 165, 90, 2, 0.384343
125, 1, bw, catch, NA, 999, 999, 7, 17, 75, 120, 128, 127, 127, 188, 3, 1.30282
125, 1, bw, catch, NA, 999, 999, 7, 17, 75, 120, 128, 127, 127, 188, 1, 0.553725
125, 1, bw, attraction, a-b-db, 9, 3, 7, 18, 195, 120, 120, 195, 114, 186, 1, 1.09735
125, 1, bw, attraction, a-b-db, 9, 3, 7, 18, 195, 120, 120, 195, 114, 186, 2, 0.484345
125, 1, bw, attraction, a-b-da, 2, 1, 7, 19, 135, 60, 134, 59, 60, 135, 1, 0.910824
125, 1, bw, attraction, a-b-da, 2, 1, 7, 19, 135, 60, 134, 59, 60, 135, 3, 0.409171
125, 1, bw, attraction, a-b-db, 2, 2, 7, 20, 89, 163, 90, 165, 165, 90, 1, 0.550318
125, 1, bw, attraction, a-b-db, 2, 2, 7, 20, 89, 163, 90, 165, 165, 90, 2, 0.383552
125, 1, bw, attraction, a-b-da, 14, 1, 7, 21, 60, 135, 135, 60, 125, 56, 1, 0.789891
125, 1, bw, attraction, a-b-da, 14, 1, 7, 21, 60, 135, 135, 60, 125, 56, 2, 0.469149
125, 1, bw, attraction, a-b-db, 5, 2, 7, 22, 88, 161, 90, 165, 165, 90, 1, 0.352132
125, 1, bw, attraction, a-b-db, 5, 2, 7, 22, 88, 161, 90, 165, 165, 90, 3, 1.01731
125, 1, bw, attraction, a-b-da, 9, 2, 7, 23, 90, 165, 165, 90, 157, 86, 1, 1.21421
125, 1, bw, attraction, a-b-da, 9, 2, 7, 23, 90, 165, 165, 90, 157, 86, 3, 0.684565
125, 1, bw, filler, NA, 999, 999, 7, 24, 195, 104, 87, 193, 156, 96, 1, 0.270904
125, 1, bw, filler, NA, 999, 999, 7, 24, 195, 104, 87, 193, 156, 96, 3, 0.594997
125, 1, bw, attraction, a-b-db, 2, 1, 7, 25, 135, 60, 59, 134, 60, 135, 1, 0.304577
125, 1, bw, attraction, a-b-db, 2, 1, 7, 25, 135, 60, 59, 134, 60, 135, 3, 0.748009
125, 1, bw, catch, NA, 999, 999, 7, 26, 115, 80, 144, 171, 135, 120, 1, 0.587664
125, 1, bw, catch, NA, 999, 999, 7, 26, 115, 80, 144, 171, 135, 120, 2, 1.41132
125, 1, bw, attraction, a-b-db, 2, 3, 7, 27, 120, 195, 195, 120, 119, 193, 2, 0.672119
125, 1, bw, attraction, a-b-db, 2, 3, 7, 27, 120, 195, 195, 120, 119, 193, 1, 0.355978
125, 1, bw, filler, NA, 999, 999, 7, 28, 91, 73, 137, 118, 73, 168, 2, 0.571736
125, 1, bw, filler, NA, 999, 999, 7, 28, 91, 73, 137, 118, 73, 168, 1, 0.347578
125, 1, bw, filler, NA, 999, 999, 7, 29, 113, 179, 186, 76, 141, 138, 1, 1.01137
125, 1, bw, filler, NA, 999, 999, 7, 29, 113, 179, 186, 76, 141, 138, 2, 0.881658
125, 1, bw, filler, NA, 999, 999, 7, 30, 153, 155, 166, 100, 194, 70, 1, 0.611966
125, 1, bw, filler, NA, 999, 999, 7, 30, 153, 155, 166, 100, 194, 70, 3, 0.466545
125, 1, bw, attraction, a-b-da, 9, 3, 7, 31, 120, 195, 186, 114, 195, 120, 1, 0.565643
125, 1, bw, attraction, a-b-da, 9, 3, 7, 31, 120, 195, 186, 114, 195, 120, 3, 0.525993
125, 1, bw, attraction, a-b-da, 14, 3, 7, 32, 195, 120, 120, 195, 181, 111, 2, 1.04649
125, 1, bw, attraction, a-b-da, 14, 3, 7, 32, 195, 120, 120, 195, 181, 111, 3, 0.859542
125, 1, bw, attraction, a-b-da, 5, 3, 7, 33, 190, 117, 120, 195, 195, 120, 2, 0.61455
125, 1, bw, attraction, a-b-da, 5, 3, 7, 33, 190, 117, 120, 195, 195, 120, 1, 0.348915
125, 1, bw, attraction, a-b-db, 9, 1, 7, 34, 57, 129, 135, 60, 60, 135, 2, 0.716741
125, 1, bw, attraction, a-b-db, 9, 1, 7, 34, 57, 129, 135, 60, 60, 135, 1, 0.559193
125, 1, bw, attraction, a-b-db, 14, 2, 7, 35, 165, 90, 90, 165, 83, 153, 2, 1.31835
125, 1, bw, attraction, a-b-db, 14, 2, 7, 35, 165, 90, 90, 165, 83, 153, 3, 0.656545
125, 1, bw, filler, NA, 999, 999, 7, 36, 71, 80, 180, 124, 136, 150, 2, 2.15633
125, 1, bw, filler, NA, 999, 999, 7, 36, 71, 80, 180, 124, 136, 150, 1, 0.780234
125, 1, bw, attraction, a-b-da, 5, 1, 7, 37, 135, 60, 60, 135, 132, 58, 1, 8.77065
125, 1, bw, attraction, a-b-da, 5, 1, 7, 37, 135, 60, 60, 135, 132, 58, 2, 0.728629
125, 1, bw, filler, NA, 999, 999, 8, 1, 173, 180, 114, 62, 118, 167, 1, 1.04887
125, 1, bw, filler, NA, 999, 999, 8, 1, 173, 180, 114, 62, 118, 167, 2, 0.374001
125, 1, bw, filler, NA, 999, 999, 8, 2, 61, 194, 134, 122, 132, 58, 2, 1.01241
125, 1, bw, filler, NA, 999, 999, 8, 2, 61, 194, 134, 122, 132, 58, 3, 1.01877
125, 1, bw, attraction, a-b-da, 14, 2, 8, 3, 165, 90, 153, 83, 90, 165, 3, 1.21563
125, 1, bw, attraction, a-b-da, 14, 2, 8, 3, 165, 90, 153, 83, 90, 165, 1, 0.725921
125, 1, bw, attraction, a-b-db, 2, 1, 8, 4, 135, 60, 60, 135, 59, 134, 2, 0.75856
125, 1, bw, attraction, a-b-db, 2, 1, 8, 4, 135, 60, 60, 135, 59, 134, 1, 1.01475
125, 1, bw, attraction, a-b-db, 14, 2, 8, 5, 90, 165, 83, 153, 165, 90, 3, 0.723577
125, 1, bw, attraction, a-b-db, 14, 2, 8, 5, 90, 165, 83, 153, 165, 90, 2, 0.621427
125, 1, bw, filler, NA, 999, 999, 8, 6, 78, 162, 92, 117, 179, 162, 3, 0.522428
125, 1, bw, filler, NA, 999, 999, 8, 6, 78, 162, 92, 117, 179, 162, 2, 0.604261
125, 1, bw, filler, NA, 999, 999, 8, 7, 120, 93, 182, 179, 141, 69, 2, 0.5781
125, 1, bw, filler, NA, 999, 999, 8, 7, 120, 93, 182, 179, 141, 69, 3, 0.657783
125, 1, bw, attraction, a-b-da, 2, 3, 8, 8, 193, 119, 195, 120, 120, 195, 3, 1.05284
125, 1, bw, attraction, a-b-da, 2, 3, 8, 8, 193, 119, 195, 120, 120, 195, 2, 0.705821
125, 1, bw, filler, NA, 999, 999, 8, 9, 107, 140, 78, 136, 176, 161, 3, 0.66757
125, 1, bw, filler, NA, 999, 999, 8, 9, 107, 140, 78, 136, 176, 161, 2, 0.632151
125, 1, bw, catch, NA, 999, 999, 8, 10, 179, 136, 151, 104, 66, 129, 1, 1.3244
125, 1, bw, catch, NA, 999, 999, 8, 10, 179, 136, 151, 104, 66, 129, 3, 0.470932
125, 1, bw, filler, NA, 999, 999, 8, 11, 110, 99, 165, 116, 66, 94, 2, 0.761138
125, 1, bw, filler, NA, 999, 999, 8, 11, 110, 99, 165, 116, 66, 94, 3, 0.457456
125, 1, bw, attraction, a-b-da, 9, 3, 8, 12, 186, 114, 120, 195, 195, 120, 3, 0.828772
125, 1, bw, attraction, a-b-da, 9, 3, 8, 12, 186, 114, 120, 195, 195, 120, 2, 0.578288
125, 1, bw, attraction, a-b-da, 5, 1, 8, 13, 60, 135, 135, 60, 132, 58, 1, 1.7767
125, 1, bw, attraction, a-b-da, 5, 1, 8, 13, 60, 135, 135, 60, 132, 58, 3, 0.352324
125, 1, bw, attraction, a-b-da, 2, 1, 8, 14, 135, 60, 60, 135, 134, 59, 2, 1.00009
125, 1, bw, attraction, a-b-da, 2, 1, 8, 14, 135, 60, 60, 135, 134, 59, 3, 0.543098
125, 1, bw, attraction, a-b-db, 14, 3, 8, 15, 111, 181, 120, 195, 195, 120, 2, 0.670874
125, 1, bw, attraction, a-b-db, 14, 3, 8, 15, 111, 181, 120, 195, 195, 120, 3, 0.363244
125, 1, bw, filler, NA, 999, 999, 8, 16, 58, 152, 172, 113, 103, 182, 2, 0.474437
125, 1, bw, filler, NA, 999, 999, 8, 16, 58, 152, 172, 113, 103, 182, 1, 1.0382
125, 1, bw, attraction, a-b-db, 14, 1, 8, 17, 60, 135, 135, 60, 56, 125, 1, 1.25874
125, 1, bw, attraction, a-b-db, 14, 1, 8, 17, 60, 135, 135, 60, 56, 125, 2, 0.462683
125, 1, bw, attraction, a-b-da, 5, 3, 8, 18, 190, 117, 195, 120, 120, 195, 2, 0.6018
125, 1, bw, attraction, a-b-da, 5, 3, 8, 18, 190, 117, 195, 120, 120, 195, 3, 0.368962
125, 1, bw, attraction, a-b-da, 5, 2, 8, 19, 165, 90, 90, 165, 161, 88, 1, 0.832222
125, 1, bw, attraction, a-b-da, 5, 2, 8, 19, 165, 90, 90, 165, 161, 88, 2, 0.373881
125, 1, bw, filler, NA, 999, 999, 8, 20, 177, 67, 134, 166, 91, 95, 2, 0.668405
125, 1, bw, filler, NA, 999, 999, 8, 20, 177, 67, 134, 166, 91, 95, 3, 0.361575
125, 1, bw, catch, NA, 999, 999, 8, 21, 94, 161, 144, 171, 105, 90, 2, 0.51198
125, 1, bw, catch, NA, 999, 999, 8, 21, 94, 161, 144, 171, 105, 90, 3, 0.442496
125, 1, bw, attraction, a-b-da, 2, 2, 8, 22, 90, 165, 163, 89, 165, 90, 2, 0.574215
125, 1, bw, attraction, a-b-da, 2, 2, 8, 22, 90, 165, 163, 89, 165, 90, 3, 0.301927
125, 1, bw, attraction, a-b-db, 9, 1, 8, 23, 135, 60, 57, 129, 60, 135, 2, 0.487866
125, 1, bw, attraction, a-b-db, 9, 1, 8, 23, 135, 60, 57, 129, 60, 135, 3, 0.563082
125, 1, bw, attraction, a-b-da, 9, 2, 8, 24, 165, 90, 157, 86, 90, 165, 2, 0.586076
125, 1, bw, attraction, a-b-da, 9, 2, 8, 24, 165, 90, 157, 86, 90, 165, 1, 0.633909
125, 1, bw, attraction, a-b-db, 9, 2, 8, 25, 165, 90, 86, 157, 90, 165, 1, 1.32634
125, 1, bw, attraction, a-b-db, 9, 2, 8, 25, 165, 90, 86, 157, 90, 165, 2, 0.663855
125, 1, bw, catch, NA, 999, 999, 8, 26, 141, 174, 107, 88, 99, 156, 1, 0.755356
125, 1, bw, catch, NA, 999, 999, 8, 26, 141, 174, 107, 88, 99, 156, 2, 0.883379
125, 1, bw, attraction, a-b-da, 9, 1, 8, 27, 60, 135, 135, 60, 129, 57, 1, 0.885754
125, 1, bw, attraction, a-b-da, 9, 1, 8, 27, 60, 135, 135, 60, 129, 57, 3, 0.841346
125, 1, bw, filler, NA, 999, 999, 8, 28, 142, 129, 177, 140, 140, 139, 2, 0.469069
125, 1, bw, filler, NA, 999, 999, 8, 28, 142, 129, 177, 140, 140, 139, 3, 0.353541
125, 1, bw, attraction, a-b-db, 5, 2, 8, 29, 165, 90, 90, 165, 88, 161, 2, 0.737333
125, 1, bw, attraction, a-b-db, 5, 2, 8, 29, 165, 90, 90, 165, 88, 161, 3, 0.323147
125, 1, bw, attraction, a-b-da, 14, 1, 8, 30, 135, 60, 125, 56, 60, 135, 2, 0.524297
125, 1, bw, attraction, a-b-da, 14, 1, 8, 30, 135, 60, 125, 56, 60, 135, 3, 0.526167
125, 1, bw, attraction, a-b-da, 14, 3, 8, 31, 120, 195, 195, 120, 181, 111, 2, 0.502664
125, 1, bw, attraction, a-b-da, 14, 3, 8, 31, 120, 195, 195, 120, 181, 111, 1, 0.405124
125, 1, bw, attraction, a-b-db, 2, 3, 8, 32, 195, 120, 119, 193, 120, 195, 2, 0.735508
125, 1, bw, attraction, a-b-db, 2, 3, 8, 32, 195, 120, 119, 193, 120, 195, 3, 0.297224
125, 1, bw, attraction, a-b-db, 2, 2, 8, 33, 165, 90, 89, 163, 90, 165, 2, 0.603051
125, 1, bw, attraction, a-b-db, 2, 2, 8, 33, 165, 90, 89, 163, 90, 165, 1, 0.386277
125, 1, bw, attraction, a-b-db, 9, 3, 8, 34, 114, 186, 120, 195, 195, 120, 2, 0.440795
125, 1, bw, attraction, a-b-db, 9, 3, 8, 34, 114, 186, 120, 195, 195, 120, 3, 0.461924
125, 1, bw, filler, NA, 999, 999, 8, 35, 152, 160, 77, 89, 116, 78, 1, 0.897058
125, 1, bw, filler, NA, 999, 999, 8, 35, 152, 160, 77, 89, 116, 78, 2, 1.02816
125, 1, bw, attraction, a-b-db, 5, 1, 8, 36, 60, 135, 58, 132, 135, 60, 2, 0.672451
125, 1, bw, attraction, a-b-db, 5, 1, 8, 36, 60, 135, 58, 132, 135, 60, 3, 0.860095
125, 1, bw, attraction, a-b-db, 5, 3, 8, 37, 195, 120, 120, 195, 117, 190, 2, 0.559073
125, 1, bw, attraction, a-b-db, 5, 3, 8, 37, 195, 120, 120, 195, 117, 190, 3, 0.527626
