sub_n, computer_n, bw_cond, effect, set, distance, diag, block_n, trial_n, h1, w1, h2, w2, h3, w3, choice, rt 
103, 1, bw, practice, NA, 999, 999, 0, 1, 187, 162, 108, 109, 106, 194, 1, 6.64751
103, 1, bw, practice, NA, 999, 999, 0, 1, 187, 162, 108, 109, 106, 194, 2, 2.99351
103, 1, bw, practice, NA, 999, 999, 0, 2, 125, 67, 164, 134, 127, 120, 2, 1.903
103, 1, bw, practice, NA, 999, 999, 0, 2, 125, 67, 164, 134, 127, 120, 1, 1.7447
103, 1, bw, practice, NA, 999, 999, 0, 3, 167, 106, 131, 190, 132, 87, 2, 2.23935
103, 1, bw, practice, NA, 999, 999, 0, 3, 167, 106, 131, 190, 132, 87, 3, 1.44172
103, 1, bw, attraction, a-b-da, 9, 3, 1, 1, 186, 114, 195, 120, 120, 195, 3, 6.48755
103, 1, bw, attraction, a-b-da, 9, 3, 1, 1, 186, 114, 195, 120, 120, 195, 1, 2.37739
103, 1, bw, filler, NA, 999, 999, 1, 2, 184, 103, 66, 139, 126, 166, 1, 5.13527
103, 1, bw, filler, NA, 999, 999, 1, 2, 184, 103, 66, 139, 126, 166, 2, 1.39957
103, 1, bw, attraction, a-b-db, 9, 2, 1, 3, 165, 90, 90, 165, 86, 157, 2, 4.49313
103, 1, bw, attraction, a-b-db, 9, 2, 1, 3, 165, 90, 90, 165, 86, 157, 3, 7.79102
103, 1, bw, attraction, a-b-da, 2, 2, 1, 4, 165, 90, 163, 89, 90, 165, 1, 5.81924
103, 1, bw, attraction, a-b-da, 2, 2, 1, 4, 165, 90, 163, 89, 90, 165, 2, 2.248
103, 1, bw, catch, NA, 999, 999, 1, 5, 105, 90, 144, 111, 145, 170, 3, 1.27518
103, 1, bw, catch, NA, 999, 999, 1, 5, 105, 90, 144, 111, 145, 170, 1, 0.982937
103, 1, bw, attraction, a-b-da, 5, 1, 1, 6, 60, 135, 135, 60, 132, 58, 1, 13.1331
103, 1, bw, attraction, a-b-da, 5, 1, 1, 6, 60, 135, 135, 60, 132, 58, 3, 4.54703
103, 1, bw, filler, NA, 999, 999, 1, 7, 110, 148, 108, 74, 138, 108, 1, 2.78555
103, 1, bw, filler, NA, 999, 999, 1, 7, 110, 148, 108, 74, 138, 108, 2, 1.32081
103, 1, bw, attraction, a-b-da, 9, 1, 1, 8, 60, 135, 135, 60, 129, 57, 1, 2.13752
103, 1, bw, attraction, a-b-da, 9, 1, 1, 8, 60, 135, 135, 60, 129, 57, 3, 2.68282
103, 1, bw, attraction, a-b-da, 14, 1, 1, 9, 125, 56, 135, 60, 60, 135, 2, 6.53253
103, 1, bw, attraction, a-b-da, 14, 1, 1, 9, 125, 56, 135, 60, 60, 135, 1, 7.46867
103, 1, bw, filler, NA, 999, 999, 1, 10, 104, 154, 101, 100, 143, 170, 3, 1.66147
103, 1, bw, filler, NA, 999, 999, 1, 10, 104, 154, 101, 100, 143, 170, 2, 1.30574
103, 1, bw, attraction, a-b-da, 2, 1, 1, 11, 60, 135, 134, 59, 135, 60, 3, 8.37114
103, 1, bw, attraction, a-b-da, 2, 1, 1, 11, 60, 135, 134, 59, 135, 60, 2, 1.20927
103, 1, bw, filler, NA, 999, 999, 1, 12, 96, 91, 66, 151, 190, 147, 3, 1.46218
103, 1, bw, filler, NA, 999, 999, 1, 12, 96, 91, 66, 151, 190, 147, 1, 1.33035
103, 1, bw, attraction, a-b-da, 9, 2, 1, 13, 157, 86, 165, 90, 90, 165, 2, 1.43449
103, 1, bw, attraction, a-b-da, 9, 2, 1, 13, 157, 86, 165, 90, 90, 165, 1, 0.671917
103, 1, bw, attraction, a-b-db, 9, 3, 1, 14, 195, 120, 114, 186, 120, 195, 3, 2.92318
103, 1, bw, attraction, a-b-db, 9, 3, 1, 14, 195, 120, 114, 186, 120, 195, 2, 3.93209
103, 1, bw, attraction, a-b-db, 14, 3, 1, 15, 120, 195, 195, 120, 111, 181, 2, 3.52343
103, 1, bw, attraction, a-b-db, 14, 3, 1, 15, 120, 195, 195, 120, 111, 181, 3, 0.77241
103, 1, bw, catch, NA, 999, 999, 1, 16, 78, 117, 99, 156, 176, 139, 3, 1.07531
103, 1, bw, catch, NA, 999, 999, 1, 16, 78, 117, 99, 156, 176, 139, 1, 0.903014
103, 1, bw, attraction, a-b-db, 5, 1, 1, 17, 58, 132, 60, 135, 135, 60, 2, 2.02474
103, 1, bw, attraction, a-b-db, 5, 1, 1, 17, 58, 132, 60, 135, 135, 60, 1, 1.33398
103, 1, bw, filler, NA, 999, 999, 1, 18, 87, 153, 116, 76, 139, 90, 1, 3.58222
103, 1, bw, filler, NA, 999, 999, 1, 18, 87, 153, 116, 76, 139, 90, 2, 0.549128
103, 1, bw, attraction, a-b-da, 2, 3, 1, 19, 120, 195, 195, 120, 193, 119, 1, 3.01287
103, 1, bw, attraction, a-b-da, 2, 3, 1, 19, 120, 195, 195, 120, 193, 119, 3, 1.65845
103, 1, bw, attraction, a-b-db, 2, 1, 1, 20, 135, 60, 59, 134, 60, 135, 1, 4.18125
103, 1, bw, attraction, a-b-db, 2, 1, 1, 20, 135, 60, 59, 134, 60, 135, 3, 2.02786
103, 1, bw, attraction, a-b-db, 14, 1, 1, 21, 135, 60, 60, 135, 56, 125, 2, 2.03199
103, 1, bw, attraction, a-b-db, 14, 1, 1, 21, 135, 60, 60, 135, 56, 125, 3, 0.89329
103, 1, bw, attraction, a-b-da, 5, 2, 1, 22, 161, 88, 90, 165, 165, 90, 3, 5.3268
103, 1, bw, attraction, a-b-da, 5, 2, 1, 22, 161, 88, 90, 165, 165, 90, 1, 1.67917
103, 1, bw, filler, NA, 999, 999, 1, 23, 157, 116, 153, 140, 194, 96, 2, 2.45736
103, 1, bw, filler, NA, 999, 999, 1, 23, 157, 116, 153, 140, 194, 96, 1, 1.39716
103, 1, bw, attraction, a-b-db, 9, 1, 1, 24, 57, 129, 135, 60, 60, 135, 2, 3.10693
103, 1, bw, attraction, a-b-db, 9, 1, 1, 24, 57, 129, 135, 60, 60, 135, 1, 1.57234
103, 1, bw, attraction, a-b-db, 5, 2, 1, 25, 165, 90, 88, 161, 90, 165, 2, 2.7471
103, 1, bw, attraction, a-b-db, 5, 2, 1, 25, 165, 90, 88, 161, 90, 165, 1, 0.923515
103, 1, bw, filler, NA, 999, 999, 1, 26, 94, 191, 95, 77, 63, 80, 1, 0.923808
103, 1, bw, filler, NA, 999, 999, 1, 26, 94, 191, 95, 77, 63, 80, 3, 0.677716
103, 1, bw, attraction, a-b-da, 5, 3, 1, 27, 120, 195, 190, 117, 195, 120, 2, 1.53591
103, 1, bw, attraction, a-b-da, 5, 3, 1, 27, 120, 195, 190, 117, 195, 120, 3, 0.465427
103, 1, bw, attraction, a-b-db, 14, 2, 1, 28, 165, 90, 83, 153, 90, 165, 2, 1.09267
103, 1, bw, attraction, a-b-db, 14, 2, 1, 28, 165, 90, 83, 153, 90, 165, 3, 1.25551
103, 1, bw, attraction, a-b-da, 14, 2, 1, 29, 153, 83, 165, 90, 90, 165, 3, 1.81121
103, 1, bw, attraction, a-b-da, 14, 2, 1, 29, 153, 83, 165, 90, 90, 165, 1, 1.01723
103, 1, bw, attraction, a-b-db, 2, 2, 1, 30, 90, 165, 89, 163, 165, 90, 1, 6.83017
103, 1, bw, attraction, a-b-db, 2, 2, 1, 30, 90, 165, 89, 163, 165, 90, 3, 2.87393
103, 1, bw, filler, NA, 999, 999, 1, 31, 167, 70, 72, 153, 177, 78, 3, 2.97963
103, 1, bw, filler, NA, 999, 999, 1, 31, 167, 70, 72, 153, 177, 78, 2, 1.50671
103, 1, bw, attraction, a-b-da, 14, 3, 1, 32, 181, 111, 120, 195, 195, 120, 2, 1.64414
103, 1, bw, attraction, a-b-da, 14, 3, 1, 32, 181, 111, 120, 195, 195, 120, 1, 1.37695
103, 1, bw, catch, NA, 999, 999, 1, 33, 115, 80, 181, 134, 133, 122, 2, 2.23111
103, 1, bw, catch, NA, 999, 999, 1, 33, 115, 80, 181, 134, 133, 122, 1, 1.7725
103, 1, bw, filler, NA, 999, 999, 1, 34, 67, 177, 115, 107, 110, 146, 3, 2.36324
103, 1, bw, filler, NA, 999, 999, 1, 34, 67, 177, 115, 107, 110, 146, 1, 4.37908
103, 1, bw, filler, NA, 999, 999, 1, 35, 61, 57, 97, 65, 77, 189, 3, 1.4643
103, 1, bw, filler, NA, 999, 999, 1, 35, 61, 57, 97, 65, 77, 189, 1, 0.804553
103, 1, bw, attraction, a-b-db, 5, 3, 1, 36, 120, 195, 195, 120, 117, 190, 2, 2.99423
103, 1, bw, attraction, a-b-db, 5, 3, 1, 36, 120, 195, 195, 120, 117, 190, 3, 1.28058
103, 1, bw, attraction, a-b-db, 2, 3, 1, 37, 120, 195, 195, 120, 119, 193, 3, 6.67485
103, 1, bw, attraction, a-b-db, 2, 3, 1, 37, 120, 195, 195, 120, 119, 193, 2, 1.90858
103, 1, bw, attraction, a-b-da, 5, 1, 2, 1, 60, 135, 135, 60, 132, 58, 3, 4.43743
103, 1, bw, attraction, a-b-da, 5, 1, 2, 1, 60, 135, 135, 60, 132, 58, 1, 0.817845
103, 1, bw, attraction, a-b-da, 2, 2, 2, 2, 165, 90, 163, 89, 90, 165, 1, 4.16693
103, 1, bw, attraction, a-b-da, 2, 2, 2, 2, 165, 90, 163, 89, 90, 165, 2, 1.62238
103, 1, bw, attraction, a-b-db, 5, 1, 2, 3, 58, 132, 60, 135, 135, 60, 3, 2.42705
103, 1, bw, attraction, a-b-db, 5, 1, 2, 3, 58, 132, 60, 135, 135, 60, 1, 0.656265
103, 1, bw, catch, NA, 999, 999, 2, 4, 128, 67, 165, 150, 100, 155, 2, 1.99595
103, 1, bw, catch, NA, 999, 999, 2, 4, 128, 67, 165, 150, 100, 155, 1, 1.0907
103, 1, bw, attraction, a-b-da, 5, 2, 2, 5, 165, 90, 161, 88, 90, 165, 1, 3.40429
103, 1, bw, attraction, a-b-da, 5, 2, 2, 5, 165, 90, 161, 88, 90, 165, 3, 1.3225
103, 1, bw, attraction, a-b-da, 14, 2, 2, 6, 90, 165, 153, 83, 165, 90, 1, 4.13946
103, 1, bw, attraction, a-b-da, 14, 2, 2, 6, 90, 165, 153, 83, 165, 90, 2, 0.915373
103, 1, bw, attraction, a-b-db, 2, 1, 2, 7, 135, 60, 60, 135, 59, 134, 2, 3.16445
103, 1, bw, attraction, a-b-db, 2, 1, 2, 7, 135, 60, 60, 135, 59, 134, 1, 0.652066
103, 1, bw, filler, NA, 999, 999, 2, 8, 109, 187, 185, 188, 180, 95, 2, 0.903849
103, 1, bw, filler, NA, 999, 999, 2, 8, 109, 187, 185, 188, 180, 95, 3, 0.594768
103, 1, bw, attraction, a-b-db, 9, 2, 2, 9, 86, 157, 90, 165, 165, 90, 3, 12.7286
103, 1, bw, attraction, a-b-db, 9, 2, 2, 9, 86, 157, 90, 165, 165, 90, 1, 1.27055
103, 1, bw, filler, NA, 999, 999, 2, 10, 86, 78, 135, 92, 142, 111, 3, 1.6255
103, 1, bw, filler, NA, 999, 999, 2, 10, 86, 78, 135, 92, 142, 111, 1, 0.822986
103, 1, bw, attraction, a-b-da, 5, 3, 2, 11, 195, 120, 120, 195, 190, 117, 2, 1.50798
103, 1, bw, attraction, a-b-da, 5, 3, 2, 11, 195, 120, 120, 195, 190, 117, 3, 0.662072
103, 1, bw, attraction, a-b-db, 14, 1, 2, 12, 56, 125, 60, 135, 135, 60, 3, 2.53718
103, 1, bw, attraction, a-b-db, 14, 1, 2, 12, 56, 125, 60, 135, 135, 60, 2, 1.11437
103, 1, bw, attraction, a-b-db, 5, 2, 2, 13, 165, 90, 88, 161, 90, 165, 2, 4.1393
103, 1, bw, attraction, a-b-db, 5, 2, 2, 13, 165, 90, 88, 161, 90, 165, 1, 0.443233
103, 1, bw, attraction, a-b-db, 5, 3, 2, 14, 195, 120, 117, 190, 120, 195, 2, 2.35899
103, 1, bw, attraction, a-b-db, 5, 3, 2, 14, 195, 120, 117, 190, 120, 195, 3, 4.95897
103, 1, bw, filler, NA, 999, 999, 2, 15, 171, 183, 189, 95, 109, 185, 1, 1.21269
103, 1, bw, filler, NA, 999, 999, 2, 15, 171, 183, 189, 95, 109, 185, 2, 0.570952
103, 1, bw, attraction, a-b-db, 2, 3, 2, 16, 119, 193, 195, 120, 120, 195, 2, 2.82613
103, 1, bw, attraction, a-b-db, 2, 3, 2, 16, 119, 193, 195, 120, 120, 195, 3, 1.35932
103, 1, bw, filler, NA, 999, 999, 2, 17, 110, 190, 115, 64, 130, 133, 1, 6.68601
103, 1, bw, filler, NA, 999, 999, 2, 17, 110, 190, 115, 64, 130, 133, 2, 0.768072
103, 1, bw, catch, NA, 999, 999, 2, 18, 154, 161, 159, 96, 117, 78, 1, 0.846886
103, 1, bw, catch, NA, 999, 999, 2, 18, 154, 161, 159, 96, 117, 78, 3, 0.620085
103, 1, bw, catch, NA, 999, 999, 2, 19, 123, 192, 127, 128, 92, 103, 1, 0.857068
103, 1, bw, catch, NA, 999, 999, 2, 19, 123, 192, 127, 128, 92, 103, 3, 0.613442
103, 1, bw, attraction, a-b-db, 14, 3, 2, 20, 195, 120, 120, 195, 111, 181, 2, 0.99448
103, 1, bw, attraction, a-b-db, 14, 3, 2, 20, 195, 120, 120, 195, 111, 181, 3, 0.681553
103, 1, bw, attraction, a-b-da, 9, 1, 2, 21, 60, 135, 129, 57, 135, 60, 3, 1.96401
103, 1, bw, attraction, a-b-da, 9, 1, 2, 21, 60, 135, 129, 57, 135, 60, 1, 0.859913
103, 1, bw, filler, NA, 999, 999, 2, 22, 114, 78, 78, 117, 173, 62, 3, 8.42301
103, 1, bw, filler, NA, 999, 999, 2, 22, 114, 78, 78, 117, 173, 62, 1, 0.938937
103, 1, bw, attraction, a-b-db, 9, 1, 2, 23, 60, 135, 135, 60, 57, 129, 1, 3.57917
103, 1, bw, attraction, a-b-db, 9, 1, 2, 23, 60, 135, 135, 60, 57, 129, 3, 0.858107
103, 1, bw, attraction, a-b-da, 2, 3, 2, 24, 193, 119, 120, 195, 195, 120, 2, 1.14921
103, 1, bw, attraction, a-b-da, 2, 3, 2, 24, 193, 119, 120, 195, 195, 120, 1, 2.56598
103, 1, bw, attraction, a-b-da, 14, 1, 2, 25, 60, 135, 135, 60, 125, 56, 2, 3.18053
103, 1, bw, attraction, a-b-da, 14, 1, 2, 25, 60, 135, 135, 60, 125, 56, 1, 2.29147
103, 1, bw, filler, NA, 999, 999, 2, 26, 76, 176, 139, 69, 125, 88, 1, 1.98873
103, 1, bw, filler, NA, 999, 999, 2, 26, 76, 176, 139, 69, 125, 88, 2, 4.42742
103, 1, bw, filler, NA, 999, 999, 2, 27, 95, 175, 188, 195, 130, 149, 2, 1.19056
103, 1, bw, filler, NA, 999, 999, 2, 27, 95, 175, 188, 195, 130, 149, 1, 0.469527
103, 1, bw, attraction, a-b-db, 2, 2, 2, 28, 90, 165, 165, 90, 89, 163, 1, 4.12877
103, 1, bw, attraction, a-b-db, 2, 2, 2, 28, 90, 165, 165, 90, 89, 163, 3, 1.6096
103, 1, bw, attraction, a-b-da, 9, 2, 2, 29, 90, 165, 157, 86, 165, 90, 1, 1.90213
103, 1, bw, attraction, a-b-da, 9, 2, 2, 29, 90, 165, 157, 86, 165, 90, 2, 3.19292
103, 1, bw, attraction, a-b-da, 2, 1, 2, 30, 135, 60, 60, 135, 134, 59, 3, 4.96589
103, 1, bw, attraction, a-b-da, 2, 1, 2, 30, 135, 60, 60, 135, 134, 59, 2, 1.58903
103, 1, bw, filler, NA, 999, 999, 2, 31, 188, 114, 84, 167, 145, 95, 1, 1.4591
103, 1, bw, filler, NA, 999, 999, 2, 31, 188, 114, 84, 167, 145, 95, 3, 1.37521
103, 1, bw, attraction, a-b-da, 9, 3, 2, 32, 186, 114, 120, 195, 195, 120, 2, 1.82149
103, 1, bw, attraction, a-b-da, 9, 3, 2, 32, 186, 114, 120, 195, 195, 120, 1, 2.32272
103, 1, bw, attraction, a-b-db, 14, 2, 2, 33, 90, 165, 165, 90, 83, 153, 1, 1.60341
103, 1, bw, attraction, a-b-db, 14, 2, 2, 33, 90, 165, 165, 90, 83, 153, 2, 0.810128
103, 1, bw, attraction, a-b-da, 14, 3, 2, 34, 195, 120, 120, 195, 181, 111, 2, 1.56721
103, 1, bw, attraction, a-b-da, 14, 3, 2, 34, 195, 120, 120, 195, 181, 111, 3, 0.559255
103, 1, bw, filler, NA, 999, 999, 2, 35, 66, 103, 129, 145, 120, 174, 3, 1.61435
103, 1, bw, filler, NA, 999, 999, 2, 35, 66, 103, 129, 145, 120, 174, 1, 0.772599
103, 1, bw, attraction, a-b-db, 9, 3, 2, 36, 120, 195, 114, 186, 195, 120, 3, 1.84369
103, 1, bw, attraction, a-b-db, 9, 3, 2, 36, 120, 195, 114, 186, 195, 120, 2, 0.968282
103, 1, bw, filler, NA, 999, 999, 2, 37, 147, 134, 154, 90, 120, 132, 1, 1.51121
103, 1, bw, filler, NA, 999, 999, 2, 37, 147, 134, 154, 90, 120, 132, 2, 2.21752
103, 1, bw, attraction, a-b-da, 2, 1, 3, 1, 60, 135, 135, 60, 134, 59, 2, 1.97401
103, 1, bw, attraction, a-b-da, 2, 1, 3, 1, 60, 135, 135, 60, 134, 59, 1, 0.421417
103, 1, bw, attraction, a-b-da, 9, 1, 3, 2, 129, 57, 60, 135, 135, 60, 3, 9.84253
103, 1, bw, attraction, a-b-da, 9, 1, 3, 2, 129, 57, 60, 135, 135, 60, 1, 3.71687
103, 1, bw, attraction, a-b-da, 5, 2, 3, 3, 90, 165, 161, 88, 165, 90, 1, 1.89279
103, 1, bw, attraction, a-b-da, 5, 2, 3, 3, 90, 165, 161, 88, 165, 90, 2, 2.23954
103, 1, bw, attraction, a-b-db, 2, 2, 3, 4, 89, 163, 90, 165, 165, 90, 2, 1.83555
103, 1, bw, attraction, a-b-db, 2, 2, 3, 4, 89, 163, 90, 165, 165, 90, 1, 0.616945
103, 1, bw, filler, NA, 999, 999, 3, 5, 86, 174, 94, 186, 84, 86, 2, 1.74217
103, 1, bw, filler, NA, 999, 999, 3, 5, 86, 174, 94, 186, 84, 86, 3, 0.454887
103, 1, bw, attraction, a-b-db, 9, 3, 3, 6, 195, 120, 120, 195, 114, 186, 2, 1.66657
103, 1, bw, attraction, a-b-db, 9, 3, 3, 6, 195, 120, 120, 195, 114, 186, 3, 0.870745
103, 1, bw, attraction, a-b-db, 5, 3, 3, 7, 195, 120, 120, 195, 117, 190, 2, 1.00183
103, 1, bw, attraction, a-b-db, 5, 3, 3, 7, 195, 120, 120, 195, 117, 190, 3, 4.17669
103, 1, bw, attraction, a-b-db, 9, 1, 3, 8, 57, 129, 60, 135, 135, 60, 2, 0.733922
103, 1, bw, attraction, a-b-db, 9, 1, 3, 8, 57, 129, 60, 135, 135, 60, 3, 1.51984
103, 1, bw, attraction, a-b-da, 14, 2, 3, 9, 153, 83, 90, 165, 165, 90, 3, 3.03248
103, 1, bw, attraction, a-b-da, 14, 2, 3, 9, 153, 83, 90, 165, 165, 90, 1, 0.805539
103, 1, bw, attraction, a-b-da, 14, 1, 3, 10, 135, 60, 125, 56, 60, 135, 1, 2.18715
103, 1, bw, attraction, a-b-da, 14, 1, 3, 10, 135, 60, 125, 56, 60, 135, 2, 2.24256
103, 1, bw, attraction, a-b-da, 5, 3, 3, 11, 195, 120, 120, 195, 190, 117, 1, 3.10966
103, 1, bw, attraction, a-b-da, 5, 3, 3, 11, 195, 120, 120, 195, 190, 117, 2, 0.863434
103, 1, bw, filler, NA, 999, 999, 3, 12, 189, 159, 86, 118, 59, 148, 3, 1.35444
103, 1, bw, filler, NA, 999, 999, 3, 12, 189, 159, 86, 118, 59, 148, 2, 3.84333
103, 1, bw, catch, NA, 999, 999, 3, 13, 168, 147, 119, 136, 124, 71, 1, 4.33413
103, 1, bw, catch, NA, 999, 999, 3, 13, 168, 147, 119, 136, 124, 71, 3, 0.750829
103, 1, bw, attraction, a-b-db, 2, 1, 3, 14, 59, 134, 135, 60, 60, 135, 2, 2.27035
103, 1, bw, attraction, a-b-db, 2, 1, 3, 14, 59, 134, 135, 60, 60, 135, 1, 0.546349
103, 1, bw, attraction, a-b-da, 2, 3, 3, 15, 195, 120, 193, 119, 120, 195, 3, 3.53808
103, 1, bw, attraction, a-b-da, 2, 3, 3, 15, 195, 120, 193, 119, 120, 195, 2, 0.635039
103, 1, bw, filler, NA, 999, 999, 3, 16, 65, 127, 67, 140, 74, 180, 3, 2.60739
103, 1, bw, filler, NA, 999, 999, 3, 16, 65, 127, 67, 140, 74, 180, 1, 0.557294
103, 1, bw, filler, NA, 999, 999, 3, 17, 128, 137, 180, 180, 103, 112, 2, 1.34828
103, 1, bw, filler, NA, 999, 999, 3, 17, 128, 137, 180, 180, 103, 112, 3, 0.373136
103, 1, bw, attraction, a-b-db, 14, 1, 3, 18, 56, 125, 135, 60, 60, 135, 2, 0.883642
103, 1, bw, attraction, a-b-db, 14, 1, 3, 18, 56, 125, 135, 60, 60, 135, 1, 1.26333
103, 1, bw, filler, NA, 999, 999, 3, 19, 120, 143, 93, 194, 77, 76, 2, 2.21825
103, 1, bw, filler, NA, 999, 999, 3, 19, 120, 143, 93, 194, 77, 76, 3, 0.536161
103, 1, bw, attraction, a-b-db, 5, 2, 3, 20, 90, 165, 88, 161, 165, 90, 1, 3.92865
103, 1, bw, attraction, a-b-db, 5, 2, 3, 20, 90, 165, 88, 161, 165, 90, 2, 1.25737
103, 1, bw, catch, NA, 999, 999, 3, 21, 78, 117, 168, 147, 115, 140, 2, 1.58827
103, 1, bw, catch, NA, 999, 999, 3, 21, 78, 117, 168, 147, 115, 140, 1, 0.483958
103, 1, bw, attraction, a-b-da, 5, 1, 3, 22, 135, 60, 60, 135, 132, 58, 2, 1.81429
103, 1, bw, attraction, a-b-da, 5, 1, 3, 22, 135, 60, 60, 135, 132, 58, 3, 0.460323
103, 1, bw, filler, NA, 999, 999, 3, 23, 114, 106, 194, 145, 68, 176, 2, 1.37546
103, 1, bw, filler, NA, 999, 999, 3, 23, 114, 106, 194, 145, 68, 176, 1, 1.53496
103, 1, bw, attraction, a-b-db, 14, 2, 3, 24, 90, 165, 83, 153, 165, 90, 3, 1.55108
103, 1, bw, attraction, a-b-db, 14, 2, 3, 24, 90, 165, 83, 153, 165, 90, 2, 0.79192
103, 1, bw, filler, NA, 999, 999, 3, 25, 128, 190, 176, 100, 114, 159, 1, 1.56562
103, 1, bw, filler, NA, 999, 999, 3, 25, 128, 190, 176, 100, 114, 159, 2, 0.74984
103, 1, bw, attraction, a-b-da, 9, 2, 3, 26, 165, 90, 90, 165, 157, 86, 2, 2.31743
103, 1, bw, attraction, a-b-da, 9, 2, 3, 26, 165, 90, 90, 165, 157, 86, 3, 1.31936
103, 1, bw, attraction, a-b-da, 2, 2, 3, 27, 165, 90, 163, 89, 90, 165, 2, 3.56827
103, 1, bw, attraction, a-b-da, 2, 2, 3, 27, 165, 90, 163, 89, 90, 165, 3, 0.911844
103, 1, bw, attraction, a-b-da, 14, 3, 3, 28, 195, 120, 120, 195, 181, 111, 2, 2.20882
103, 1, bw, attraction, a-b-da, 14, 3, 3, 28, 195, 120, 120, 195, 181, 111, 3, 0.878671
103, 1, bw, filler, NA, 999, 999, 3, 29, 102, 90, 115, 57, 108, 107, 3, 1.42511
103, 1, bw, filler, NA, 999, 999, 3, 29, 102, 90, 115, 57, 108, 107, 2, 0.566573
103, 1, bw, attraction, a-b-da, 9, 3, 3, 30, 195, 120, 120, 195, 186, 114, 2, 1.50977
103, 1, bw, attraction, a-b-da, 9, 3, 3, 30, 195, 120, 120, 195, 186, 114, 1, 1.91193
103, 1, bw, filler, NA, 999, 999, 3, 31, 104, 191, 149, 93, 147, 146, 3, 4.21645
103, 1, bw, filler, NA, 999, 999, 3, 31, 104, 191, 149, 93, 147, 146, 2, 3.2218
103, 1, bw, attraction, a-b-db, 5, 1, 3, 32, 135, 60, 60, 135, 58, 132, 1, 3.15407
103, 1, bw, attraction, a-b-db, 5, 1, 3, 32, 135, 60, 60, 135, 58, 132, 3, 0.650514
103, 1, bw, attraction, a-b-db, 14, 3, 3, 33, 120, 195, 111, 181, 195, 120, 1, 2.26212
103, 1, bw, attraction, a-b-db, 14, 3, 3, 33, 120, 195, 111, 181, 195, 120, 2, 2.11402
103, 1, bw, filler, NA, 999, 999, 3, 34, 166, 106, 96, 167, 110, 163, 3, 1.92271
103, 1, bw, filler, NA, 999, 999, 3, 34, 166, 106, 96, 167, 110, 163, 2, 1.14805
103, 1, bw, catch, NA, 999, 999, 3, 35, 113, 82, 96, 159, 137, 178, 3, 0.987636
103, 1, bw, catch, NA, 999, 999, 3, 35, 113, 82, 96, 159, 137, 178, 1, 0.611343
103, 1, bw, attraction, a-b-db, 2, 3, 3, 36, 119, 193, 195, 120, 120, 195, 3, 4.66451
103, 1, bw, attraction, a-b-db, 2, 3, 3, 36, 119, 193, 195, 120, 120, 195, 2, 0.835671
103, 1, bw, attraction, a-b-db, 9, 2, 3, 37, 90, 165, 165, 90, 86, 157, 1, 1.73589
103, 1, bw, attraction, a-b-db, 9, 2, 3, 37, 90, 165, 165, 90, 86, 157, 3, 1.3454
103, 1, bw, filler, NA, 999, 999, 4, 1, 116, 169, 142, 62, 180, 183, 3, 1.03284
103, 1, bw, filler, NA, 999, 999, 4, 1, 116, 169, 142, 62, 180, 183, 2, 0.526519
103, 1, bw, attraction, a-b-db, 5, 2, 4, 2, 165, 90, 88, 161, 90, 165, 2, 3.25494
103, 1, bw, attraction, a-b-db, 5, 2, 4, 2, 165, 90, 88, 161, 90, 165, 3, 1.97939
103, 1, bw, filler, NA, 999, 999, 4, 3, 118, 121, 104, 173, 119, 84, 1, 3.6092
103, 1, bw, filler, NA, 999, 999, 4, 3, 118, 121, 104, 173, 119, 84, 3, 1.01473
103, 1, bw, attraction, a-b-da, 5, 2, 4, 4, 165, 90, 161, 88, 90, 165, 3, 2.25978
103, 1, bw, attraction, a-b-da, 5, 2, 4, 4, 165, 90, 161, 88, 90, 165, 1, 2.50372
103, 1, bw, attraction, a-b-db, 14, 3, 4, 5, 111, 181, 120, 195, 195, 120, 2, 1.15276
103, 1, bw, attraction, a-b-db, 14, 3, 4, 5, 111, 181, 120, 195, 195, 120, 1, 0.817728
103, 1, bw, filler, NA, 999, 999, 4, 6, 94, 60, 118, 88, 96, 148, 3, 1.11881
103, 1, bw, filler, NA, 999, 999, 4, 6, 94, 60, 118, 88, 96, 148, 1, 0.857057
103, 1, bw, attraction, a-b-db, 9, 1, 4, 7, 60, 135, 135, 60, 57, 129, 2, 0.948067
103, 1, bw, attraction, a-b-db, 9, 1, 4, 7, 60, 135, 135, 60, 57, 129, 3, 1.10924
103, 1, bw, attraction, a-b-da, 2, 3, 4, 8, 195, 120, 120, 195, 193, 119, 2, 0.782131
103, 1, bw, attraction, a-b-da, 2, 3, 4, 8, 195, 120, 120, 195, 193, 119, 1, 1.30175
103, 1, bw, filler, NA, 999, 999, 4, 9, 158, 148, 133, 71, 117, 77, 1, 1.22336
103, 1, bw, filler, NA, 999, 999, 4, 9, 158, 148, 133, 71, 117, 77, 3, 0.493529
103, 1, bw, attraction, a-b-da, 5, 1, 4, 10, 135, 60, 60, 135, 132, 58, 3, 2.51873
103, 1, bw, attraction, a-b-da, 5, 1, 4, 10, 135, 60, 60, 135, 132, 58, 2, 1.21672
103, 1, bw, attraction, a-b-da, 9, 3, 4, 11, 186, 114, 120, 195, 195, 120, 2, 2.68544
103, 1, bw, attraction, a-b-da, 9, 3, 4, 11, 186, 114, 120, 195, 195, 120, 1, 1.47264
103, 1, bw, filler, NA, 999, 999, 4, 12, 186, 126, 191, 96, 148, 73, 1, 0.82729
103, 1, bw, filler, NA, 999, 999, 4, 12, 186, 126, 191, 96, 148, 73, 3, 0.569239
103, 1, bw, filler, NA, 999, 999, 4, 13, 67, 106, 171, 87, 194, 181, 3, 0.664128
103, 1, bw, filler, NA, 999, 999, 4, 13, 67, 106, 171, 87, 194, 181, 1, 0.644576
103, 1, bw, catch, NA, 999, 999, 4, 14, 120, 75, 124, 131, 168, 147, 3, 0.680463
103, 1, bw, catch, NA, 999, 999, 4, 14, 120, 75, 124, 131, 168, 147, 1, 0.72404
103, 1, bw, attraction, a-b-da, 9, 1, 4, 15, 129, 57, 60, 135, 135, 60, 3, 1.48445
103, 1, bw, attraction, a-b-da, 9, 1, 4, 15, 129, 57, 60, 135, 135, 60, 2, 0.584009
103, 1, bw, catch, NA, 999, 999, 4, 16, 159, 96, 77, 118, 185, 130, 3, 0.774466
103, 1, bw, catch, NA, 999, 999, 4, 16, 159, 96, 77, 118, 185, 130, 2, 0.894206
103, 1, bw, attraction, a-b-db, 5, 3, 4, 17, 120, 195, 195, 120, 117, 190, 1, 1.17586
103, 1, bw, attraction, a-b-db, 5, 3, 4, 17, 120, 195, 195, 120, 117, 190, 3, 1.09549
103, 1, bw, attraction, a-b-db, 2, 1, 4, 18, 60, 135, 59, 134, 135, 60, 2, 1.84903
103, 1, bw, attraction, a-b-db, 2, 1, 4, 18, 60, 135, 59, 134, 135, 60, 1, 0.517811
103, 1, bw, filler, NA, 999, 999, 4, 19, 115, 115, 111, 113, 157, 190, 3, 0.558795
103, 1, bw, filler, NA, 999, 999, 4, 19, 115, 115, 111, 113, 157, 190, 2, 0.599353
103, 1, bw, attraction, a-b-db, 5, 1, 4, 20, 58, 132, 135, 60, 60, 135, 2, 1.38911
103, 1, bw, attraction, a-b-db, 5, 1, 4, 20, 58, 132, 135, 60, 60, 135, 1, 0.819991
103, 1, bw, filler, NA, 999, 999, 4, 21, 141, 107, 159, 66, 59, 100, 1, 0.896978
103, 1, bw, filler, NA, 999, 999, 4, 21, 141, 107, 159, 66, 59, 100, 3, 0.548006
103, 1, bw, attraction, a-b-db, 14, 2, 4, 22, 90, 165, 83, 153, 165, 90, 3, 2.36398
103, 1, bw, attraction, a-b-db, 14, 2, 4, 22, 90, 165, 83, 153, 165, 90, 2, 1.12364
103, 1, bw, catch, NA, 999, 999, 4, 23, 163, 92, 173, 142, 133, 62, 2, 1.14786
103, 1, bw, catch, NA, 999, 999, 4, 23, 163, 92, 173, 142, 133, 62, 3, 0.580851
103, 1, bw, attraction, a-b-db, 9, 2, 4, 24, 86, 157, 165, 90, 90, 165, 2, 1.26728
103, 1, bw, attraction, a-b-db, 9, 2, 4, 24, 86, 157, 165, 90, 90, 165, 3, 0.431509
103, 1, bw, attraction, a-b-da, 14, 3, 4, 25, 195, 120, 120, 195, 181, 111, 2, 1.01196
103, 1, bw, attraction, a-b-da, 14, 3, 4, 25, 195, 120, 120, 195, 181, 111, 3, 0.530296
103, 1, bw, attraction, a-b-da, 9, 2, 4, 26, 157, 86, 165, 90, 90, 165, 3, 2.01077
103, 1, bw, attraction, a-b-da, 9, 2, 4, 26, 157, 86, 165, 90, 90, 165, 1, 0.704825
103, 1, bw, attraction, a-b-da, 14, 2, 4, 27, 153, 83, 165, 90, 90, 165, 3, 1.40252
103, 1, bw, attraction, a-b-da, 14, 2, 4, 27, 153, 83, 165, 90, 90, 165, 1, 0.545415
103, 1, bw, attraction, a-b-db, 14, 1, 4, 28, 135, 60, 60, 135, 56, 125, 1, 1.84116
103, 1, bw, attraction, a-b-db, 14, 1, 4, 28, 135, 60, 60, 135, 56, 125, 3, 0.509896
103, 1, bw, attraction, a-b-db, 9, 3, 4, 29, 195, 120, 120, 195, 114, 186, 2, 1.03109
103, 1, bw, attraction, a-b-db, 9, 3, 4, 29, 195, 120, 120, 195, 114, 186, 3, 1.1167
103, 1, bw, attraction, a-b-db, 2, 3, 4, 30, 119, 193, 120, 195, 195, 120, 2, 4.02956
103, 1, bw, attraction, a-b-db, 2, 3, 4, 30, 119, 193, 120, 195, 195, 120, 1, 1.14629
103, 1, bw, attraction, a-b-da, 5, 3, 4, 31, 120, 195, 190, 117, 195, 120, 1, 4.69791
103, 1, bw, attraction, a-b-da, 5, 3, 4, 31, 120, 195, 190, 117, 195, 120, 3, 1.10779
103, 1, bw, attraction, a-b-da, 2, 2, 4, 32, 165, 90, 90, 165, 163, 89, 2, 1.54867
103, 1, bw, attraction, a-b-da, 2, 2, 4, 32, 165, 90, 90, 165, 163, 89, 3, 2.95753
103, 1, bw, filler, NA, 999, 999, 4, 33, 160, 187, 124, 92, 194, 166, 3, 2.03594
103, 1, bw, filler, NA, 999, 999, 4, 33, 160, 187, 124, 92, 194, 166, 2, 0.569174
103, 1, bw, attraction, a-b-da, 2, 1, 4, 34, 135, 60, 60, 135, 134, 59, 3, 1.55234
103, 1, bw, attraction, a-b-da, 2, 1, 4, 34, 135, 60, 60, 135, 134, 59, 2, 0.46503
103, 1, bw, attraction, a-b-da, 14, 1, 4, 35, 135, 60, 60, 135, 125, 56, 1, 1.20425
103, 1, bw, attraction, a-b-da, 14, 1, 4, 35, 135, 60, 60, 135, 125, 56, 3, 1.12315
103, 1, bw, filler, NA, 999, 999, 4, 36, 118, 136, 76, 59, 157, 82, 1, 1.49208
103, 1, bw, filler, NA, 999, 999, 4, 36, 118, 136, 76, 59, 157, 82, 2, 0.422909
103, 1, bw, attraction, a-b-db, 2, 2, 4, 37, 165, 90, 90, 165, 89, 163, 1, 1.788
103, 1, bw, attraction, a-b-db, 2, 2, 4, 37, 165, 90, 90, 165, 89, 163, 3, 1.01954
103, 1, bw, attraction, a-b-db, 5, 1, 5, 1, 135, 60, 60, 135, 58, 132, 1, 16.159
103, 1, bw, attraction, a-b-db, 5, 1, 5, 1, 135, 60, 60, 135, 58, 132, 3, 0.611386
103, 1, bw, attraction, a-b-db, 9, 2, 5, 2, 165, 90, 90, 165, 86, 157, 2, 1.07238
103, 1, bw, attraction, a-b-db, 9, 2, 5, 2, 165, 90, 90, 165, 86, 157, 3, 0.556107
103, 1, bw, filler, NA, 999, 999, 5, 3, 65, 65, 180, 165, 146, 59, 2, 0.675827
103, 1, bw, filler, NA, 999, 999, 5, 3, 65, 65, 180, 165, 146, 59, 1, 0.687552
103, 1, bw, attraction, a-b-db, 9, 1, 5, 4, 135, 60, 60, 135, 57, 129, 1, 0.705989
103, 1, bw, attraction, a-b-db, 9, 1, 5, 4, 135, 60, 60, 135, 57, 129, 3, 0.612327
103, 1, bw, catch, NA, 999, 999, 5, 5, 121, 194, 132, 123, 73, 122, 1, 0.641518
103, 1, bw, catch, NA, 999, 999, 5, 5, 121, 194, 132, 123, 73, 122, 3, 0.494627
103, 1, bw, attraction, a-b-da, 9, 1, 5, 6, 135, 60, 60, 135, 129, 57, 2, 0.976457
103, 1, bw, attraction, a-b-da, 9, 1, 5, 6, 135, 60, 60, 135, 129, 57, 3, 1.12011
103, 1, bw, attraction, a-b-db, 14, 1, 5, 7, 56, 125, 135, 60, 60, 135, 2, 0.849034
103, 1, bw, attraction, a-b-db, 14, 1, 5, 7, 56, 125, 135, 60, 60, 135, 1, 0.502048
103, 1, bw, attraction, a-b-db, 2, 3, 5, 8, 195, 120, 119, 193, 120, 195, 3, 1.59177
103, 1, bw, attraction, a-b-db, 2, 3, 5, 8, 195, 120, 119, 193, 120, 195, 1, 1.28668
103, 1, bw, filler, NA, 999, 999, 5, 9, 160, 65, 122, 71, 89, 86, 1, 1.55273
103, 1, bw, filler, NA, 999, 999, 5, 9, 160, 65, 122, 71, 89, 86, 3, 0.38558
103, 1, bw, filler, NA, 999, 999, 5, 10, 139, 185, 189, 68, 164, 119, 1, 1.4963
103, 1, bw, filler, NA, 999, 999, 5, 10, 139, 185, 189, 68, 164, 119, 2, 0.682865
103, 1, bw, filler, NA, 999, 999, 5, 11, 97, 190, 62, 110, 194, 63, 1, 1.03746
103, 1, bw, filler, NA, 999, 999, 5, 11, 97, 190, 62, 110, 194, 63, 2, 0.394271
103, 1, bw, filler, NA, 999, 999, 5, 12, 118, 70, 78, 191, 147, 188, 3, 0.744048
103, 1, bw, filler, NA, 999, 999, 5, 12, 118, 70, 78, 191, 147, 188, 1, 0.641243
103, 1, bw, attraction, a-b-da, 14, 3, 5, 13, 195, 120, 120, 195, 181, 111, 2, 1.69289
103, 1, bw, attraction, a-b-da, 14, 3, 5, 13, 195, 120, 120, 195, 181, 111, 3, 0.599725
103, 1, bw, attraction, a-b-da, 5, 1, 5, 14, 132, 58, 135, 60, 60, 135, 2, 1.6856
103, 1, bw, attraction, a-b-da, 5, 1, 5, 14, 132, 58, 135, 60, 60, 135, 1, 1.09686
103, 1, bw, attraction, a-b-db, 14, 3, 5, 15, 120, 195, 195, 120, 111, 181, 1, 1.49846
103, 1, bw, attraction, a-b-db, 14, 3, 5, 15, 120, 195, 195, 120, 111, 181, 3, 0.509339
103, 1, bw, attraction, a-b-db, 9, 3, 5, 16, 195, 120, 114, 186, 120, 195, 3, 2.11043
103, 1, bw, attraction, a-b-db, 9, 3, 5, 16, 195, 120, 114, 186, 120, 195, 2, 0.640485
103, 1, bw, catch, NA, 999, 999, 5, 17, 123, 72, 104, 151, 143, 172, 3, 0.676224
103, 1, bw, catch, NA, 999, 999, 5, 17, 123, 72, 104, 151, 143, 172, 1, 0.73597
103, 1, bw, filler, NA, 999, 999, 5, 18, 150, 86, 99, 66, 97, 191, 3, 1.41634
103, 1, bw, filler, NA, 999, 999, 5, 18, 150, 86, 99, 66, 97, 191, 2, 0.694548
103, 1, bw, attraction, a-b-db, 2, 2, 5, 19, 89, 163, 90, 165, 165, 90, 2, 1.60023
103, 1, bw, attraction, a-b-db, 2, 2, 5, 19, 89, 163, 90, 165, 165, 90, 1, 1.31919
103, 1, bw, attraction, a-b-da, 2, 2, 5, 20, 90, 165, 165, 90, 163, 89, 2, 1.72803
103, 1, bw, attraction, a-b-da, 2, 2, 5, 20, 90, 165, 165, 90, 163, 89, 1, 0.793369
103, 1, bw, attraction, a-b-db, 5, 2, 5, 21, 90, 165, 88, 161, 165, 90, 3, 2.42305
103, 1, bw, attraction, a-b-db, 5, 2, 5, 21, 90, 165, 88, 161, 165, 90, 2, 1.64434
103, 1, bw, attraction, a-b-db, 14, 2, 5, 22, 165, 90, 90, 165, 83, 153, 2, 3.7757
103, 1, bw, attraction, a-b-db, 14, 2, 5, 22, 165, 90, 90, 165, 83, 153, 3, 0.454595
103, 1, bw, catch, NA, 999, 999, 5, 23, 189, 126, 102, 153, 86, 109, 1, 1.14634
103, 1, bw, catch, NA, 999, 999, 5, 23, 189, 126, 102, 153, 86, 109, 3, 0.883327
103, 1, bw, attraction, a-b-db, 5, 3, 5, 24, 120, 195, 195, 120, 117, 190, 2, 1.78165
103, 1, bw, attraction, a-b-db, 5, 3, 5, 24, 120, 195, 195, 120, 117, 190, 3, 1.96513
103, 1, bw, attraction, a-b-da, 9, 3, 5, 25, 120, 195, 195, 120, 186, 114, 1, 2.70772
103, 1, bw, attraction, a-b-da, 9, 3, 5, 25, 120, 195, 195, 120, 186, 114, 3, 0.837492
103, 1, bw, attraction, a-b-da, 14, 1, 5, 26, 135, 60, 125, 56, 60, 135, 3, 3.00999
103, 1, bw, attraction, a-b-da, 14, 1, 5, 26, 135, 60, 125, 56, 60, 135, 2, 1.05555
103, 1, bw, filler, NA, 999, 999, 5, 27, 68, 98, 147, 116, 172, 87, 2, 0.875141
103, 1, bw, filler, NA, 999, 999, 5, 27, 68, 98, 147, 116, 172, 87, 1, 0.918771
103, 1, bw, filler, NA, 999, 999, 5, 28, 157, 179, 97, 83, 81, 101, 1, 0.687805
103, 1, bw, filler, NA, 999, 999, 5, 28, 157, 179, 97, 83, 81, 101, 2, 1.24351
103, 1, bw, attraction, a-b-da, 5, 3, 5, 29, 190, 117, 195, 120, 120, 195, 2, 1.45517
103, 1, bw, attraction, a-b-da, 5, 3, 5, 29, 190, 117, 195, 120, 120, 195, 1, 1.5234
103, 1, bw, attraction, a-b-da, 9, 2, 5, 30, 157, 86, 90, 165, 165, 90, 2, 1.64402
103, 1, bw, attraction, a-b-da, 9, 2, 5, 30, 157, 86, 90, 165, 165, 90, 1, 1.53692
103, 1, bw, attraction, a-b-da, 2, 3, 5, 31, 193, 119, 120, 195, 195, 120, 2, 0.60095
103, 1, bw, attraction, a-b-da, 2, 3, 5, 31, 193, 119, 120, 195, 195, 120, 3, 2.87211
103, 1, bw, filler, NA, 999, 999, 5, 32, 70, 143, 70, 82, 65, 147, 1, 1.09843
103, 1, bw, filler, NA, 999, 999, 5, 32, 70, 143, 70, 82, 65, 147, 2, 0.677487
103, 1, bw, attraction, a-b-da, 2, 1, 5, 33, 134, 59, 135, 60, 60, 135, 2, 1.6079
103, 1, bw, attraction, a-b-da, 2, 1, 5, 33, 134, 59, 135, 60, 60, 135, 1, 0.902001
103, 1, bw, attraction, a-b-da, 5, 2, 5, 34, 165, 90, 90, 165, 161, 88, 1, 2.61571
103, 1, bw, attraction, a-b-da, 5, 2, 5, 34, 165, 90, 90, 165, 161, 88, 3, 2.30159
103, 1, bw, filler, NA, 999, 999, 5, 35, 179, 73, 66, 75, 125, 102, 1, 2.23072
103, 1, bw, filler, NA, 999, 999, 5, 35, 179, 73, 66, 75, 125, 102, 2, 0.596017
103, 1, bw, attraction, a-b-da, 14, 2, 5, 36, 153, 83, 165, 90, 90, 165, 2, 1.48184
103, 1, bw, attraction, a-b-da, 14, 2, 5, 36, 153, 83, 165, 90, 90, 165, 1, 0.757247
103, 1, bw, attraction, a-b-db, 2, 1, 5, 37, 60, 135, 59, 134, 135, 60, 3, 2.2763
103, 1, bw, attraction, a-b-db, 2, 1, 5, 37, 60, 135, 59, 134, 135, 60, 1, 1.87169
103, 1, bw, attraction, a-b-da, 2, 3, 6, 1, 195, 120, 193, 119, 120, 195, 2, 4.62617
103, 1, bw, attraction, a-b-da, 2, 3, 6, 1, 195, 120, 193, 119, 120, 195, 3, 2.60672
103, 1, bw, attraction, a-b-db, 2, 2, 6, 2, 90, 165, 89, 163, 165, 90, 3, 5.57196
103, 1, bw, attraction, a-b-db, 2, 2, 6, 2, 90, 165, 89, 163, 165, 90, 2, 1.41127
103, 1, bw, attraction, a-b-da, 2, 2, 6, 3, 163, 89, 90, 165, 165, 90, 2, 2.47166
103, 1, bw, attraction, a-b-da, 2, 2, 6, 3, 163, 89, 90, 165, 165, 90, 1, 0.586957
103, 1, bw, filler, NA, 999, 999, 6, 4, 65, 69, 64, 56, 125, 103, 3, 0.969252
103, 1, bw, filler, NA, 999, 999, 6, 4, 65, 69, 64, 56, 125, 103, 2, 0.625587
103, 1, bw, catch, NA, 999, 999, 6, 5, 150, 165, 130, 125, 86, 109, 1, 1.11797
103, 1, bw, catch, NA, 999, 999, 6, 5, 150, 165, 130, 125, 86, 109, 3, 0.664304
103, 1, bw, attraction, a-b-db, 9, 2, 6, 6, 165, 90, 90, 165, 86, 157, 2, 1.65136
103, 1, bw, attraction, a-b-db, 9, 2, 6, 6, 165, 90, 90, 165, 86, 157, 3, 0.584249
103, 1, bw, filler, NA, 999, 999, 6, 7, 104, 180, 63, 107, 65, 151, 1, 0.766572
103, 1, bw, filler, NA, 999, 999, 6, 7, 104, 180, 63, 107, 65, 151, 2, 0.695067
103, 1, bw, attraction, a-b-db, 9, 3, 6, 8, 114, 186, 120, 195, 195, 120, 2, 2.42473
103, 1, bw, attraction, a-b-db, 9, 3, 6, 8, 114, 186, 120, 195, 195, 120, 1, 0.525927
103, 1, bw, attraction, a-b-db, 5, 1, 6, 9, 135, 60, 58, 132, 60, 135, 1, 1.4623
103, 1, bw, attraction, a-b-db, 5, 1, 6, 9, 135, 60, 58, 132, 60, 135, 3, 1.39459
103, 1, bw, attraction, a-b-da, 9, 1, 6, 10, 60, 135, 129, 57, 135, 60, 3, 2.71208
103, 1, bw, attraction, a-b-da, 9, 1, 6, 10, 60, 135, 129, 57, 135, 60, 1, 0.673979
103, 1, bw, attraction, a-b-db, 2, 3, 6, 11, 195, 120, 119, 193, 120, 195, 2, 2.22018
103, 1, bw, attraction, a-b-db, 2, 3, 6, 11, 195, 120, 119, 193, 120, 195, 1, 2.10617
103, 1, bw, attraction, a-b-da, 14, 3, 6, 12, 181, 111, 195, 120, 120, 195, 2, 1.90746
103, 1, bw, attraction, a-b-da, 14, 3, 6, 12, 181, 111, 195, 120, 120, 195, 1, 0.421485
103, 1, bw, attraction, a-b-db, 5, 3, 6, 13, 195, 120, 117, 190, 120, 195, 1, 1.44264
103, 1, bw, attraction, a-b-db, 5, 3, 6, 13, 195, 120, 117, 190, 120, 195, 2, 0.719517
103, 1, bw, filler, NA, 999, 999, 6, 14, 58, 185, 126, 58, 184, 153, 3, 0.704639
103, 1, bw, filler, NA, 999, 999, 6, 14, 58, 185, 126, 58, 184, 153, 2, 0.467765
103, 1, bw, attraction, a-b-da, 2, 1, 6, 15, 135, 60, 60, 135, 134, 59, 3, 1.41483
103, 1, bw, attraction, a-b-da, 2, 1, 6, 15, 135, 60, 60, 135, 134, 59, 1, 0.836943
103, 1, bw, filler, NA, 999, 999, 6, 16, 59, 78, 166, 106, 72, 125, 2, 1.1454
103, 1, bw, filler, NA, 999, 999, 6, 16, 59, 78, 166, 106, 72, 125, 1, 0.458285
103, 1, bw, filler, NA, 999, 999, 6, 17, 59, 90, 67, 149, 90, 77, 2, 1.3654
103, 1, bw, filler, NA, 999, 999, 6, 17, 59, 90, 67, 149, 90, 77, 1, 0.949619
103, 1, bw, attraction, a-b-da, 5, 2, 6, 18, 161, 88, 90, 165, 165, 90, 3, 1.55724
103, 1, bw, attraction, a-b-da, 5, 2, 6, 18, 161, 88, 90, 165, 165, 90, 2, 0.485447
103, 1, bw, filler, NA, 999, 999, 6, 19, 180, 69, 72, 106, 112, 67, 3, 1.72798
103, 1, bw, filler, NA, 999, 999, 6, 19, 180, 69, 72, 106, 112, 67, 1, 0.617409
103, 1, bw, attraction, a-b-db, 5, 2, 6, 20, 88, 161, 165, 90, 90, 165, 2, 1.19842
103, 1, bw, attraction, a-b-db, 5, 2, 6, 20, 88, 161, 165, 90, 90, 165, 1, 0.709411
103, 1, bw, filler, NA, 999, 999, 6, 21, 158, 125, 71, 156, 86, 175, 1, 0.854394
103, 1, bw, filler, NA, 999, 999, 6, 21, 158, 125, 71, 156, 86, 175, 2, 0.739509
103, 1, bw, attraction, a-b-da, 14, 2, 6, 22, 153, 83, 165, 90, 90, 165, 2, 0.835904
103, 1, bw, attraction, a-b-da, 14, 2, 6, 22, 153, 83, 165, 90, 90, 165, 1, 0.641628
103, 1, bw, attraction, a-b-db, 14, 1, 6, 23, 135, 60, 56, 125, 60, 135, 1, 0.917178
103, 1, bw, attraction, a-b-db, 14, 1, 6, 23, 135, 60, 56, 125, 60, 135, 2, 0.895638
103, 1, bw, attraction, a-b-da, 5, 1, 6, 24, 60, 135, 132, 58, 135, 60, 3, 2.83327
103, 1, bw, attraction, a-b-da, 5, 1, 6, 24, 60, 135, 132, 58, 135, 60, 1, 0.398423
103, 1, bw, attraction, a-b-db, 14, 3, 6, 25, 195, 120, 111, 181, 120, 195, 1, 1.38809
103, 1, bw, attraction, a-b-db, 14, 3, 6, 25, 195, 120, 111, 181, 120, 195, 2, 0.403681
103, 1, bw, filler, NA, 999, 999, 6, 26, 117, 130, 155, 64, 113, 141, 3, 2.1936
103, 1, bw, filler, NA, 999, 999, 6, 26, 117, 130, 155, 64, 113, 141, 2, 0.648097
103, 1, bw, catch, NA, 999, 999, 6, 27, 101, 154, 109, 86, 175, 140, 3, 0.691898
103, 1, bw, catch, NA, 999, 999, 6, 27, 101, 154, 109, 86, 175, 140, 2, 0.474448
103, 1, bw, filler, NA, 999, 999, 6, 28, 57, 103, 118, 180, 179, 117, 2, 0.841515
103, 1, bw, filler, NA, 999, 999, 6, 28, 57, 103, 118, 180, 179, 117, 1, 0.438472
103, 1, bw, attraction, a-b-da, 5, 3, 6, 29, 190, 117, 120, 195, 195, 120, 1, 0.851134
103, 1, bw, attraction, a-b-da, 5, 3, 6, 29, 190, 117, 120, 195, 195, 120, 2, 0.495943
103, 1, bw, attraction, a-b-da, 14, 1, 6, 30, 125, 56, 135, 60, 60, 135, 1, 1.08969
103, 1, bw, attraction, a-b-da, 14, 1, 6, 30, 125, 56, 135, 60, 60, 135, 2, 0.460947
103, 1, bw, attraction, a-b-db, 9, 1, 6, 31, 60, 135, 135, 60, 57, 129, 2, 1.52794
103, 1, bw, attraction, a-b-db, 9, 1, 6, 31, 60, 135, 135, 60, 57, 129, 3, 0.457524
103, 1, bw, attraction, a-b-db, 2, 1, 6, 32, 59, 134, 135, 60, 60, 135, 1, 4.26852
103, 1, bw, attraction, a-b-db, 2, 1, 6, 32, 59, 134, 135, 60, 60, 135, 2, 0.527861
103, 1, bw, attraction, a-b-da, 9, 2, 6, 33, 157, 86, 165, 90, 90, 165, 2, 3.50421
103, 1, bw, attraction, a-b-da, 9, 2, 6, 33, 157, 86, 165, 90, 90, 165, 1, 0.866406
103, 1, bw, attraction, a-b-db, 14, 2, 6, 34, 83, 153, 165, 90, 90, 165, 3, 0.909494
103, 1, bw, attraction, a-b-db, 14, 2, 6, 34, 83, 153, 165, 90, 90, 165, 1, 0.71188
103, 1, bw, attraction, a-b-da, 9, 3, 6, 35, 195, 120, 120, 195, 186, 114, 2, 1.28894
103, 1, bw, attraction, a-b-da, 9, 3, 6, 35, 195, 120, 120, 195, 186, 114, 3, 0.907767
103, 1, bw, filler, NA, 999, 999, 6, 36, 189, 92, 102, 195, 166, 185, 3, 1.0767
103, 1, bw, filler, NA, 999, 999, 6, 36, 189, 92, 102, 195, 166, 185, 2, 2.08049
103, 1, bw, catch, NA, 999, 999, 6, 37, 126, 69, 186, 129, 158, 97, 2, 1.23448
103, 1, bw, catch, NA, 999, 999, 6, 37, 126, 69, 186, 129, 158, 97, 1, 0.432052
103, 1, bw, catch, NA, 999, 999, 7, 1, 87, 108, 110, 145, 158, 157, 3, 0.740475
103, 1, bw, catch, NA, 999, 999, 7, 1, 87, 108, 110, 145, 158, 157, 1, 0.477573
103, 1, bw, filler, NA, 999, 999, 7, 2, 60, 145, 83, 167, 179, 105, 3, 0.959939
103, 1, bw, filler, NA, 999, 999, 7, 2, 60, 145, 83, 167, 179, 105, 1, 0.576512
103, 1, bw, attraction, a-b-db, 9, 2, 7, 3, 165, 90, 86, 157, 90, 165, 3, 3.4867
103, 1, bw, attraction, a-b-db, 9, 2, 7, 3, 165, 90, 86, 157, 90, 165, 2, 1.76157
103, 1, bw, attraction, a-b-db, 5, 3, 7, 4, 120, 195, 195, 120, 117, 190, 1, 3.32836
103, 1, bw, attraction, a-b-db, 5, 3, 7, 4, 120, 195, 195, 120, 117, 190, 3, 2.4174
103, 1, bw, attraction, a-b-db, 2, 3, 7, 5, 119, 193, 120, 195, 195, 120, 2, 2.11784
103, 1, bw, attraction, a-b-db, 2, 3, 7, 5, 119, 193, 120, 195, 195, 120, 3, 1.69576
103, 1, bw, attraction, a-b-da, 2, 3, 7, 6, 120, 195, 195, 120, 193, 119, 1, 2.38532
103, 1, bw, attraction, a-b-da, 2, 3, 7, 6, 120, 195, 195, 120, 193, 119, 3, 1.09644
103, 1, bw, filler, NA, 999, 999, 7, 7, 166, 97, 128, 61, 151, 87, 1, 0.993997
103, 1, bw, filler, NA, 999, 999, 7, 7, 166, 97, 128, 61, 151, 87, 2, 0.785018
103, 1, bw, filler, NA, 999, 999, 7, 8, 148, 125, 62, 180, 164, 102, 1, 1.24736
103, 1, bw, filler, NA, 999, 999, 7, 8, 148, 125, 62, 180, 164, 102, 2, 0.444305
103, 1, bw, attraction, a-b-da, 9, 2, 7, 9, 90, 165, 165, 90, 157, 86, 1, 0.888146
103, 1, bw, attraction, a-b-da, 9, 2, 7, 9, 90, 165, 165, 90, 157, 86, 3, 0.547882
103, 1, bw, attraction, a-b-da, 2, 1, 7, 10, 60, 135, 134, 59, 135, 60, 3, 1.09154
103, 1, bw, attraction, a-b-da, 2, 1, 7, 10, 60, 135, 134, 59, 135, 60, 1, 1.0626
103, 1, bw, attraction, a-b-db, 2, 2, 7, 11, 90, 165, 89, 163, 165, 90, 2, 1.59343
103, 1, bw, attraction, a-b-db, 2, 2, 7, 11, 90, 165, 89, 163, 165, 90, 1, 0.616283
103, 1, bw, attraction, a-b-db, 2, 1, 7, 12, 135, 60, 60, 135, 59, 134, 1, 1.17331
103, 1, bw, attraction, a-b-db, 2, 1, 7, 12, 135, 60, 60, 135, 59, 134, 3, 0.444991
103, 1, bw, attraction, a-b-da, 5, 1, 7, 13, 132, 58, 60, 135, 135, 60, 2, 0.704951
103, 1, bw, attraction, a-b-da, 5, 1, 7, 13, 132, 58, 60, 135, 135, 60, 3, 0.499207
103, 1, bw, attraction, a-b-da, 9, 1, 7, 14, 135, 60, 60, 135, 129, 57, 1, 1.2609
103, 1, bw, attraction, a-b-da, 9, 1, 7, 14, 135, 60, 60, 135, 129, 57, 3, 0.913287
103, 1, bw, attraction, a-b-da, 9, 3, 7, 15, 186, 114, 120, 195, 195, 120, 3, 2.73018
103, 1, bw, attraction, a-b-da, 9, 3, 7, 15, 186, 114, 120, 195, 195, 120, 1, 0.683325
103, 1, bw, attraction, a-b-da, 14, 1, 7, 16, 60, 135, 135, 60, 125, 56, 2, 2.23773
103, 1, bw, attraction, a-b-da, 14, 1, 7, 16, 60, 135, 135, 60, 125, 56, 3, 0.434993
103, 1, bw, attraction, a-b-da, 5, 2, 7, 17, 90, 165, 161, 88, 165, 90, 1, 2.13548
103, 1, bw, attraction, a-b-da, 5, 2, 7, 17, 90, 165, 161, 88, 165, 90, 2, 0.792751
103, 1, bw, attraction, a-b-db, 9, 3, 7, 18, 120, 195, 114, 186, 195, 120, 1, 1.53452
103, 1, bw, attraction, a-b-db, 9, 3, 7, 18, 120, 195, 114, 186, 195, 120, 3, 0.623907
103, 1, bw, filler, NA, 999, 999, 7, 19, 164, 112, 82, 138, 140, 148, 3, 2.70842
103, 1, bw, filler, NA, 999, 999, 7, 19, 164, 112, 82, 138, 140, 148, 2, 0.974136
103, 1, bw, filler, NA, 999, 999, 7, 20, 126, 66, 124, 190, 152, 61, 2, 0.892375
103, 1, bw, filler, NA, 999, 999, 7, 20, 126, 66, 124, 190, 152, 61, 1, 0.847447
103, 1, bw, attraction, a-b-da, 14, 3, 7, 21, 195, 120, 120, 195, 181, 111, 2, 2.17117
103, 1, bw, attraction, a-b-da, 14, 3, 7, 21, 195, 120, 120, 195, 181, 111, 3, 0.619256
103, 1, bw, filler, NA, 999, 999, 7, 22, 162, 180, 163, 152, 71, 74, 1, 0.832136
103, 1, bw, filler, NA, 999, 999, 7, 22, 162, 180, 163, 152, 71, 74, 3, 0.59794
103, 1, bw, attraction, a-b-db, 14, 2, 7, 23, 90, 165, 165, 90, 83, 153, 2, 1.67578
103, 1, bw, attraction, a-b-db, 14, 2, 7, 23, 90, 165, 165, 90, 83, 153, 3, 1.17517
103, 1, bw, attraction, a-b-db, 5, 2, 7, 24, 165, 90, 88, 161, 90, 165, 2, 2.25342
103, 1, bw, attraction, a-b-db, 5, 2, 7, 24, 165, 90, 88, 161, 90, 165, 1, 0.561922
103, 1, bw, filler, NA, 999, 999, 7, 25, 65, 105, 110, 126, 165, 119, 3, 0.777003
103, 1, bw, filler, NA, 999, 999, 7, 25, 65, 105, 110, 126, 165, 119, 1, 0.656789
103, 1, bw, attraction, a-b-da, 2, 2, 7, 26, 165, 90, 90, 165, 163, 89, 3, 1.26784
103, 1, bw, attraction, a-b-da, 2, 2, 7, 26, 165, 90, 90, 165, 163, 89, 2, 0.424048
103, 1, bw, attraction, a-b-da, 5, 3, 7, 27, 195, 120, 190, 117, 120, 195, 3, 1.6927
103, 1, bw, attraction, a-b-da, 5, 3, 7, 27, 195, 120, 190, 117, 120, 195, 2, 0.63137
103, 1, bw, attraction, a-b-db, 9, 1, 7, 28, 57, 129, 60, 135, 135, 60, 2, 1.6277
103, 1, bw, attraction, a-b-db, 9, 1, 7, 28, 57, 129, 60, 135, 135, 60, 3, 0.657225
103, 1, bw, attraction, a-b-da, 14, 2, 7, 29, 165, 90, 153, 83, 90, 165, 3, 1.9003
103, 1, bw, attraction, a-b-da, 14, 2, 7, 29, 165, 90, 153, 83, 90, 165, 2, 0.638958
103, 1, bw, attraction, a-b-db, 14, 1, 7, 30, 56, 125, 60, 135, 135, 60, 2, 1.52344
103, 1, bw, attraction, a-b-db, 14, 1, 7, 30, 56, 125, 60, 135, 135, 60, 3, 1.03689
103, 1, bw, attraction, a-b-db, 5, 1, 7, 31, 135, 60, 60, 135, 58, 132, 2, 1.28115
103, 1, bw, attraction, a-b-db, 5, 1, 7, 31, 135, 60, 60, 135, 58, 132, 1, 1.64479
103, 1, bw, filler, NA, 999, 999, 7, 32, 70, 170, 85, 150, 100, 183, 3, 0.840265
103, 1, bw, filler, NA, 999, 999, 7, 32, 70, 170, 85, 150, 100, 183, 1, 0.749407
103, 1, bw, filler, NA, 999, 999, 7, 33, 187, 127, 63, 133, 193, 97, 1, 1.30902
103, 1, bw, filler, NA, 999, 999, 7, 33, 187, 127, 63, 133, 193, 97, 2, 0.679328
103, 1, bw, catch, NA, 999, 999, 7, 34, 132, 123, 144, 171, 123, 72, 2, 1.06561
103, 1, bw, catch, NA, 999, 999, 7, 34, 132, 123, 144, 171, 123, 72, 3, 3.94992
103, 1, bw, catch, NA, 999, 999, 7, 35, 152, 103, 64, 131, 143, 172, 3, 0.924679
103, 1, bw, catch, NA, 999, 999, 7, 35, 152, 103, 64, 131, 143, 172, 2, 0.534387
103, 1, bw, filler, NA, 999, 999, 7, 36, 135, 156, 65, 95, 71, 123, 1, 1.15867
103, 1, bw, filler, NA, 999, 999, 7, 36, 135, 156, 65, 95, 71, 123, 2, 0.734948
103, 1, bw, attraction, a-b-db, 14, 3, 7, 37, 111, 181, 120, 195, 195, 120, 2, 1.06335
103, 1, bw, attraction, a-b-db, 14, 3, 7, 37, 111, 181, 120, 195, 195, 120, 1, 0.667765
103, 1, bw, attraction, a-b-db, 5, 1, 8, 1, 58, 132, 135, 60, 60, 135, 2, 1.31079
103, 1, bw, attraction, a-b-db, 5, 1, 8, 1, 58, 132, 135, 60, 60, 135, 1, 1.06493
103, 1, bw, catch, NA, 999, 999, 8, 2, 131, 64, 106, 149, 147, 168, 3, 0.811872
103, 1, bw, catch, NA, 999, 999, 8, 2, 131, 64, 106, 149, 147, 168, 1, 0.538317
103, 1, bw, filler, NA, 999, 999, 8, 3, 141, 86, 189, 109, 56, 105, 2, 0.690795
103, 1, bw, filler, NA, 999, 999, 8, 3, 141, 86, 189, 109, 56, 105, 3, 0.65413
103, 1, bw, filler, NA, 999, 999, 8, 4, 72, 136, 101, 191, 135, 148, 2, 1.35358
103, 1, bw, filler, NA, 999, 999, 8, 4, 72, 136, 101, 191, 135, 148, 1, 0.890483
103, 1, bw, attraction, a-b-da, 2, 3, 8, 5, 120, 195, 193, 119, 195, 120, 1, 1.57218
103, 1, bw, attraction, a-b-da, 2, 3, 8, 5, 120, 195, 193, 119, 195, 120, 2, 1.69971
103, 1, bw, attraction, a-b-da, 2, 1, 8, 6, 60, 135, 134, 59, 135, 60, 2, 1.81309
103, 1, bw, attraction, a-b-da, 2, 1, 8, 6, 60, 135, 134, 59, 135, 60, 1, 0.523296
103, 1, bw, attraction, a-b-da, 14, 2, 8, 7, 165, 90, 90, 165, 153, 83, 2, 1.7242
103, 1, bw, attraction, a-b-da, 14, 2, 8, 7, 165, 90, 90, 165, 153, 83, 3, 0.685691
103, 1, bw, attraction, a-b-da, 9, 1, 8, 8, 129, 57, 60, 135, 135, 60, 3, 1.56812
103, 1, bw, attraction, a-b-da, 9, 1, 8, 8, 129, 57, 60, 135, 135, 60, 2, 0.480252
103, 1, bw, attraction, a-b-db, 14, 2, 8, 9, 165, 90, 90, 165, 83, 153, 2, 0.818591
103, 1, bw, attraction, a-b-db, 14, 2, 8, 9, 165, 90, 90, 165, 83, 153, 3, 0.465008
103, 1, bw, attraction, a-b-da, 5, 2, 8, 10, 90, 165, 161, 88, 165, 90, 3, 1.1242
103, 1, bw, attraction, a-b-da, 5, 2, 8, 10, 90, 165, 161, 88, 165, 90, 1, 0.565793
103, 1, bw, attraction, a-b-db, 14, 1, 8, 11, 60, 135, 56, 125, 135, 60, 1, 1.52494
103, 1, bw, attraction, a-b-db, 14, 1, 8, 11, 60, 135, 56, 125, 135, 60, 2, 0.910381
103, 1, bw, catch, NA, 999, 999, 8, 12, 60, 135, 123, 132, 162, 153, 3, 0.751375
103, 1, bw, catch, NA, 999, 999, 8, 12, 60, 135, 123, 132, 162, 153, 1, 0.648431
103, 1, bw, attraction, a-b-db, 2, 2, 8, 13, 90, 165, 165, 90, 89, 163, 1, 1.09212
103, 1, bw, attraction, a-b-db, 2, 2, 8, 13, 90, 165, 165, 90, 89, 163, 3, 0.495124
103, 1, bw, attraction, a-b-da, 2, 2, 8, 14, 165, 90, 90, 165, 163, 89, 2, 0.961032
103, 1, bw, attraction, a-b-da, 2, 2, 8, 14, 165, 90, 90, 165, 163, 89, 3, 0.657247
103, 1, bw, attraction, a-b-db, 5, 3, 8, 15, 195, 120, 117, 190, 120, 195, 3, 1.60442
103, 1, bw, attraction, a-b-db, 5, 3, 8, 15, 195, 120, 117, 190, 120, 195, 1, 0.603156
103, 1, bw, filler, NA, 999, 999, 8, 16, 128, 68, 138, 128, 138, 189, 3, 1.00102
103, 1, bw, filler, NA, 999, 999, 8, 16, 128, 68, 138, 128, 138, 189, 1, 0.559869
103, 1, bw, attraction, a-b-da, 9, 2, 8, 17, 165, 90, 90, 165, 157, 86, 2, 1.65512
103, 1, bw, attraction, a-b-da, 9, 2, 8, 17, 165, 90, 90, 165, 157, 86, 3, 0.595127
103, 1, bw, attraction, a-b-da, 14, 1, 8, 18, 135, 60, 60, 135, 125, 56, 1, 2.97681
103, 1, bw, attraction, a-b-da, 14, 1, 8, 18, 135, 60, 60, 135, 125, 56, 3, 0.567965
103, 1, bw, attraction, a-b-db, 5, 2, 8, 19, 88, 161, 90, 165, 165, 90, 2, 1.08692
103, 1, bw, attraction, a-b-db, 5, 2, 8, 19, 88, 161, 90, 165, 165, 90, 3, 0.642623
103, 1, bw, attraction, a-b-db, 14, 3, 8, 20, 120, 195, 195, 120, 111, 181, 1, 1.1745
103, 1, bw, attraction, a-b-db, 14, 3, 8, 20, 120, 195, 195, 120, 111, 181, 3, 0.549994
103, 1, bw, attraction, a-b-db, 9, 1, 8, 21, 60, 135, 57, 129, 135, 60, 2, 0.893848
103, 1, bw, attraction, a-b-db, 9, 1, 8, 21, 60, 135, 57, 129, 135, 60, 1, 0.976779
103, 1, bw, catch, NA, 999, 999, 8, 22, 156, 99, 71, 124, 139, 176, 3, 1.26313
103, 1, bw, catch, NA, 999, 999, 8, 22, 156, 99, 71, 124, 139, 176, 2, 0.635415
103, 1, bw, filler, NA, 999, 999, 8, 23, 195, 129, 178, 69, 179, 83, 1, 0.863638
103, 1, bw, filler, NA, 999, 999, 8, 23, 195, 129, 178, 69, 179, 83, 3, 0.564142
103, 1, bw, filler, NA, 999, 999, 8, 24, 71, 183, 82, 193, 85, 187, 2, 1.72321
103, 1, bw, filler, NA, 999, 999, 8, 24, 71, 183, 82, 193, 85, 187, 1, 0.564722
103, 1, bw, attraction, a-b-db, 9, 2, 8, 25, 165, 90, 90, 165, 86, 157, 2, 1.29982
103, 1, bw, attraction, a-b-db, 9, 2, 8, 25, 165, 90, 90, 165, 86, 157, 3, 0.470768
103, 1, bw, attraction, a-b-da, 5, 1, 8, 26, 135, 60, 60, 135, 132, 58, 2, 1.67386
103, 1, bw, attraction, a-b-da, 5, 1, 8, 26, 135, 60, 60, 135, 132, 58, 3, 1.34924
103, 1, bw, filler, NA, 999, 999, 8, 27, 180, 70, 111, 84, 63, 117, 1, 0.876677
103, 1, bw, filler, NA, 999, 999, 8, 27, 180, 70, 111, 84, 63, 117, 3, 0.720447
103, 1, bw, filler, NA, 999, 999, 8, 28, 163, 93, 141, 61, 92, 57, 1, 0.817435
103, 1, bw, filler, NA, 999, 999, 8, 28, 163, 93, 141, 61, 92, 57, 3, 0.43992
103, 1, bw, attraction, a-b-da, 14, 3, 8, 29, 120, 195, 195, 120, 181, 111, 1, 1.44366
103, 1, bw, attraction, a-b-da, 14, 3, 8, 29, 120, 195, 195, 120, 181, 111, 3, 0.488646
103, 1, bw, attraction, a-b-da, 9, 3, 8, 30, 120, 195, 195, 120, 186, 114, 1, 1.23506
103, 1, bw, attraction, a-b-da, 9, 3, 8, 30, 120, 195, 195, 120, 186, 114, 3, 0.992589
103, 1, bw, attraction, a-b-da, 5, 3, 8, 31, 190, 117, 120, 195, 195, 120, 2, 1.25425
103, 1, bw, attraction, a-b-da, 5, 3, 8, 31, 190, 117, 120, 195, 195, 120, 1, 0.410451
103, 1, bw, attraction, a-b-db, 2, 3, 8, 32, 120, 195, 195, 120, 119, 193, 1, 1.22367
103, 1, bw, attraction, a-b-db, 2, 3, 8, 32, 120, 195, 195, 120, 119, 193, 2, 0.781225
103, 1, bw, filler, NA, 999, 999, 8, 33, 179, 144, 166, 195, 123, 136, 2, 1.13153
103, 1, bw, filler, NA, 999, 999, 8, 33, 179, 144, 166, 195, 123, 136, 3, 0.477217
103, 1, bw, attraction, a-b-db, 2, 1, 8, 34, 135, 60, 60, 135, 59, 134, 2, 1.05567
103, 1, bw, attraction, a-b-db, 2, 1, 8, 34, 135, 60, 60, 135, 59, 134, 3, 1.97216
103, 1, bw, filler, NA, 999, 999, 8, 35, 108, 97, 170, 64, 93, 137, 2, 2.49864
103, 1, bw, filler, NA, 999, 999, 8, 35, 108, 97, 170, 64, 93, 137, 1, 1.25316
103, 1, bw, attraction, a-b-db, 9, 3, 8, 36, 114, 186, 120, 195, 195, 120, 2, 3.44873
103, 1, bw, attraction, a-b-db, 9, 3, 8, 36, 114, 186, 120, 195, 195, 120, 1, 1.10091
103, 1, bw, filler, NA, 999, 999, 8, 37, 132, 156, 124, 108, 83, 81, 1, 1.06257
103, 1, bw, filler, NA, 999, 999, 8, 37, 132, 156, 124, 108, 83, 81, 3, 0.610824
