sub_n, computer_n, bw_cond, effect, set, distance, diag, block_n, trial_n, h1, w1, h2, w2, h3, w3, choice, rt 
194, 1, wb, practice, NA, 999, 999, 0, 1, 74, 153, 76, 128, 168, 85, 2, 4.40868
194, 1, wb, practice, NA, 999, 999, 0, 1, 74, 153, 76, 128, 168, 85, 3, 5.05464
194, 1, wb, practice, NA, 999, 999, 0, 2, 187, 57, 92, 139, 104, 162, 1, 3.83861
194, 1, wb, practice, NA, 999, 999, 0, 2, 187, 57, 92, 139, 104, 162, 3, 2.95405
194, 1, wb, practice, NA, 999, 999, 0, 3, 166, 136, 104, 116, 130, 164, 2, 4.20629
194, 1, wb, practice, NA, 999, 999, 0, 3, 166, 136, 104, 116, 130, 164, 1, 4.53408
194, 1, wb, filler, NA, 999, 999, 1, 1, 150, 184, 107, 179, 84, 87, 3, 2.21974
194, 1, wb, filler, NA, 999, 999, 1, 1, 150, 184, 107, 179, 84, 87, 1, 5.32973
194, 1, wb, filler, NA, 999, 999, 1, 2, 180, 152, 187, 142, 194, 156, 1, 5.45672
194, 1, wb, filler, NA, 999, 999, 1, 2, 180, 152, 187, 142, 194, 156, 3, 2.25164
194, 1, wb, attraction, a-b-db, 2, 1, 1, 3, 60, 135, 59, 134, 135, 60, 1, 17.5829
194, 1, wb, attraction, a-b-db, 2, 1, 1, 3, 60, 135, 59, 134, 135, 60, 3, 3.1534
194, 1, wb, filler, NA, 999, 999, 1, 4, 133, 160, 160, 188, 86, 147, 3, 2.68825
194, 1, wb, filler, NA, 999, 999, 1, 4, 133, 160, 160, 188, 86, 147, 2, 2.36337
194, 1, wb, attraction, a-b-da, 2, 1, 1, 5, 135, 60, 60, 135, 134, 59, 2, 13.5059
194, 1, wb, attraction, a-b-da, 2, 1, 1, 5, 135, 60, 60, 135, 134, 59, 1, 2.98515
194, 1, wb, attraction, a-b-db, 2, 3, 1, 6, 119, 193, 120, 195, 195, 120, 1, 19.9748
194, 1, wb, attraction, a-b-db, 2, 3, 1, 6, 119, 193, 120, 195, 195, 120, 2, 0.849079
194, 1, wb, filler, NA, 999, 999, 1, 7, 83, 91, 190, 128, 76, 156, 1, 1.94083
194, 1, wb, filler, NA, 999, 999, 1, 7, 83, 91, 190, 128, 76, 156, 2, 1.45351
194, 1, wb, catch, NA, 999, 999, 1, 8, 129, 186, 123, 72, 151, 104, 2, 3.97702
194, 1, wb, catch, NA, 999, 999, 1, 8, 129, 186, 123, 72, 151, 104, 1, 1.13582
194, 1, wb, attraction, a-b-da, 2, 2, 1, 9, 90, 165, 165, 90, 163, 89, 1, 30.4799
194, 1, wb, attraction, a-b-da, 2, 2, 1, 9, 90, 165, 165, 90, 163, 89, 3, 2.09043
194, 1, wb, attraction, a-b-da, 5, 2, 1, 10, 90, 165, 165, 90, 161, 88, 1, 8.31572
194, 1, wb, attraction, a-b-da, 5, 2, 1, 10, 90, 165, 165, 90, 161, 88, 3, 0.97981
194, 1, wb, attraction, a-b-db, 14, 3, 1, 11, 120, 195, 111, 181, 195, 120, 2, 9.69006
194, 1, wb, attraction, a-b-db, 14, 3, 1, 11, 120, 195, 111, 181, 195, 120, 3, 2.35505
194, 1, wb, attraction, a-b-da, 14, 1, 1, 12, 60, 135, 135, 60, 125, 56, 3, 13.2987
194, 1, wb, attraction, a-b-da, 14, 1, 1, 12, 60, 135, 135, 60, 125, 56, 1, 6.52937
194, 1, wb, filler, NA, 999, 999, 1, 13, 126, 195, 105, 170, 115, 117, 2, 10.496
194, 1, wb, filler, NA, 999, 999, 1, 13, 126, 195, 105, 170, 115, 117, 1, 1.63191
194, 1, wb, catch, NA, 999, 999, 1, 14, 107, 88, 184, 131, 94, 161, 1, 7.75594
194, 1, wb, catch, NA, 999, 999, 1, 14, 107, 88, 184, 131, 94, 161, 2, 0.986882
194, 1, wb, catch, NA, 999, 999, 1, 15, 124, 191, 150, 105, 115, 80, 3, 2.32922
194, 1, wb, catch, NA, 999, 999, 1, 15, 124, 191, 150, 105, 115, 80, 1, 1.01054
194, 1, wb, attraction, a-b-da, 14, 3, 1, 16, 120, 195, 181, 111, 195, 120, 2, 15.7514
194, 1, wb, attraction, a-b-da, 14, 3, 1, 16, 120, 195, 181, 111, 195, 120, 3, 2.03573
194, 1, wb, attraction, a-b-db, 14, 2, 1, 17, 90, 165, 165, 90, 83, 153, 3, 3.6719
194, 1, wb, attraction, a-b-db, 14, 2, 1, 17, 90, 165, 165, 90, 83, 153, 2, 2.63542
194, 1, wb, filler, NA, 999, 999, 1, 18, 134, 149, 67, 144, 84, 150, 2, 8.34315
194, 1, wb, filler, NA, 999, 999, 1, 18, 134, 149, 67, 144, 84, 150, 1, 14.8778
194, 1, wb, attraction, a-b-db, 14, 1, 1, 19, 56, 125, 60, 135, 135, 60, 1, 4.13962
194, 1, wb, attraction, a-b-db, 14, 1, 1, 19, 56, 125, 60, 135, 135, 60, 3, 4.4838
194, 1, wb, attraction, a-b-da, 9, 1, 1, 20, 60, 135, 135, 60, 129, 57, 3, 24.4531
194, 1, wb, attraction, a-b-da, 9, 1, 1, 20, 60, 135, 135, 60, 129, 57, 2, 3.87454
194, 1, wb, attraction, a-b-db, 9, 3, 1, 21, 195, 120, 120, 195, 114, 186, 1, 12.324
194, 1, wb, attraction, a-b-db, 9, 3, 1, 21, 195, 120, 120, 195, 114, 186, 2, 0.666939
194, 1, wb, attraction, a-b-db, 9, 2, 1, 22, 86, 157, 90, 165, 165, 90, 1, 4.7498
194, 1, wb, attraction, a-b-db, 9, 2, 1, 22, 86, 157, 90, 165, 165, 90, 3, 2.32568
194, 1, wb, attraction, a-b-db, 5, 1, 1, 23, 58, 132, 135, 60, 60, 135, 1, 22.3736
194, 1, wb, attraction, a-b-db, 5, 1, 1, 23, 58, 132, 135, 60, 60, 135, 2, 2.65526
194, 1, wb, attraction, a-b-db, 5, 3, 1, 24, 117, 190, 195, 120, 120, 195, 1, 7.82629
194, 1, wb, attraction, a-b-db, 5, 3, 1, 24, 117, 190, 195, 120, 120, 195, 3, 3.63003
194, 1, wb, attraction, a-b-da, 9, 3, 1, 25, 186, 114, 120, 195, 195, 120, 1, 8.96135
194, 1, wb, attraction, a-b-da, 9, 3, 1, 25, 186, 114, 120, 195, 195, 120, 2, 0.743175
194, 1, wb, filler, NA, 999, 999, 1, 26, 62, 129, 105, 135, 185, 90, 1, 4.84682
194, 1, wb, filler, NA, 999, 999, 1, 26, 62, 129, 105, 135, 185, 90, 3, 2.01874
194, 1, wb, attraction, a-b-da, 2, 3, 1, 27, 193, 119, 195, 120, 120, 195, 2, 27.9274
194, 1, wb, attraction, a-b-da, 2, 3, 1, 27, 193, 119, 195, 120, 120, 195, 1, 5.87334
194, 1, wb, attraction, a-b-da, 5, 3, 1, 28, 195, 120, 120, 195, 190, 117, 3, 14.8746
194, 1, wb, attraction, a-b-da, 5, 3, 1, 28, 195, 120, 120, 195, 190, 117, 2, 0.898765
194, 1, wb, filler, NA, 999, 999, 1, 29, 159, 128, 191, 60, 138, 155, 2, 5.43639
194, 1, wb, filler, NA, 999, 999, 1, 29, 159, 128, 191, 60, 138, 155, 1, 7.25664
194, 1, wb, filler, NA, 999, 999, 1, 30, 79, 103, 119, 118, 101, 167, 1, 3.69847
194, 1, wb, filler, NA, 999, 999, 1, 30, 79, 103, 119, 118, 101, 167, 3, 5.42048
194, 1, wb, attraction, a-b-db, 2, 2, 1, 31, 165, 90, 89, 163, 90, 165, 3, 19.5921
194, 1, wb, attraction, a-b-db, 2, 2, 1, 31, 165, 90, 89, 163, 90, 165, 1, 1.43376
194, 1, wb, filler, NA, 999, 999, 1, 32, 98, 108, 182, 189, 130, 92, 1, 3.33401
194, 1, wb, filler, NA, 999, 999, 1, 32, 98, 108, 182, 189, 130, 92, 2, 0.878954
194, 1, wb, attraction, a-b-da, 14, 2, 1, 33, 153, 83, 90, 165, 165, 90, 1, 11.6253
194, 1, wb, attraction, a-b-da, 14, 2, 1, 33, 153, 83, 90, 165, 165, 90, 3, 0.667609
194, 1, wb, attraction, a-b-da, 9, 2, 1, 34, 90, 165, 157, 86, 165, 90, 1, 10.4227
194, 1, wb, attraction, a-b-da, 9, 2, 1, 34, 90, 165, 157, 86, 165, 90, 3, 2.41816
194, 1, wb, attraction, a-b-db, 5, 2, 1, 35, 88, 161, 90, 165, 165, 90, 1, 12.4386
194, 1, wb, attraction, a-b-db, 5, 2, 1, 35, 88, 161, 90, 165, 165, 90, 3, 1.1287
194, 1, wb, attraction, a-b-db, 9, 1, 1, 36, 135, 60, 57, 129, 60, 135, 3, 18.3769
194, 1, wb, attraction, a-b-db, 9, 1, 1, 36, 135, 60, 57, 129, 60, 135, 1, 1.24313
194, 1, wb, attraction, a-b-da, 5, 1, 1, 37, 135, 60, 132, 58, 60, 135, 3, 5.13477
194, 1, wb, attraction, a-b-da, 5, 1, 1, 37, 135, 60, 132, 58, 60, 135, 1, 2.26309
194, 1, wb, filler, NA, 999, 999, 2, 1, 88, 187, 189, 121, 167, 84, 3, 17.9778
194, 1, wb, filler, NA, 999, 999, 2, 1, 88, 187, 189, 121, 167, 84, 2, 1.16397
194, 1, wb, attraction, a-b-db, 14, 1, 2, 2, 135, 60, 56, 125, 60, 135, 2, 7.60285
194, 1, wb, attraction, a-b-db, 14, 1, 2, 2, 135, 60, 56, 125, 60, 135, 1, 1.40792
194, 1, wb, attraction, a-b-da, 14, 3, 2, 3, 120, 195, 195, 120, 181, 111, 3, 22.3727
194, 1, wb, attraction, a-b-da, 14, 3, 2, 3, 120, 195, 195, 120, 181, 111, 2, 0.462327
194, 1, wb, attraction, a-b-db, 9, 2, 2, 4, 90, 165, 165, 90, 86, 157, 3, 8.36952
194, 1, wb, attraction, a-b-db, 9, 2, 2, 4, 90, 165, 165, 90, 86, 157, 1, 0.871495
194, 1, wb, attraction, a-b-db, 14, 3, 2, 5, 195, 120, 111, 181, 120, 195, 2, 4.03461
194, 1, wb, attraction, a-b-db, 14, 3, 2, 5, 195, 120, 111, 181, 120, 195, 1, 2.3192
194, 1, wb, attraction, a-b-da, 9, 1, 2, 6, 60, 135, 135, 60, 129, 57, 2, 25.4798
194, 1, wb, attraction, a-b-da, 9, 1, 2, 6, 60, 135, 135, 60, 129, 57, 3, 18.6438
194, 1, wb, attraction, a-b-db, 9, 1, 2, 7, 135, 60, 57, 129, 60, 135, 2, 11.5065
194, 1, wb, attraction, a-b-db, 9, 1, 2, 7, 135, 60, 57, 129, 60, 135, 1, 2.0743
194, 1, wb, attraction, a-b-da, 2, 3, 2, 8, 195, 120, 193, 119, 120, 195, 1, 10.6043
194, 1, wb, attraction, a-b-da, 2, 3, 2, 8, 195, 120, 193, 119, 120, 195, 3, 2.33638
194, 1, wb, attraction, a-b-da, 9, 2, 2, 9, 157, 86, 90, 165, 165, 90, 1, 6.62425
194, 1, wb, attraction, a-b-da, 9, 2, 2, 9, 157, 86, 90, 165, 165, 90, 2, 2.49998
194, 1, wb, attraction, a-b-da, 2, 2, 2, 10, 90, 165, 163, 89, 165, 90, 2, 15.1331
194, 1, wb, attraction, a-b-da, 2, 2, 2, 10, 90, 165, 163, 89, 165, 90, 1, 0.626387
194, 1, wb, attraction, a-b-da, 5, 3, 2, 11, 190, 117, 120, 195, 195, 120, 1, 12.4628
194, 1, wb, attraction, a-b-da, 5, 3, 2, 11, 190, 117, 120, 195, 195, 120, 2, 1.20755
194, 1, wb, catch, NA, 999, 999, 2, 12, 99, 96, 121, 134, 158, 157, 1, 3.82853
194, 1, wb, catch, NA, 999, 999, 2, 12, 99, 96, 121, 134, 158, 157, 3, 1.53733
194, 1, wb, catch, NA, 999, 999, 2, 13, 90, 105, 145, 110, 176, 139, 1, 1.33746
194, 1, wb, catch, NA, 999, 999, 2, 13, 90, 105, 145, 110, 176, 139, 3, 1.88294
194, 1, wb, filler, NA, 999, 999, 2, 14, 74, 84, 101, 156, 70, 90, 1, 3.90107
194, 1, wb, filler, NA, 999, 999, 2, 14, 74, 84, 101, 156, 70, 90, 2, 0.894995
194, 1, wb, attraction, a-b-db, 2, 1, 2, 15, 60, 135, 59, 134, 135, 60, 3, 11.3446
194, 1, wb, attraction, a-b-db, 2, 1, 2, 15, 60, 135, 59, 134, 135, 60, 1, 1.04656
194, 1, wb, attraction, a-b-da, 2, 1, 2, 16, 134, 59, 60, 135, 135, 60, 2, 21.4101
194, 1, wb, attraction, a-b-da, 2, 1, 2, 16, 134, 59, 60, 135, 135, 60, 3, 2.2187
194, 1, wb, attraction, a-b-db, 2, 3, 2, 17, 120, 195, 119, 193, 195, 120, 1, 8.08729
194, 1, wb, attraction, a-b-db, 2, 3, 2, 17, 120, 195, 119, 193, 195, 120, 3, 0.752897
194, 1, wb, catch, NA, 999, 999, 2, 18, 126, 189, 98, 157, 76, 119, 3, 2.04848
194, 1, wb, catch, NA, 999, 999, 2, 18, 126, 189, 98, 157, 76, 119, 1, 0.701032
194, 1, wb, attraction, a-b-da, 14, 2, 2, 19, 90, 165, 153, 83, 165, 90, 1, 13.1028
194, 1, wb, attraction, a-b-da, 14, 2, 2, 19, 90, 165, 153, 83, 165, 90, 3, 0.806069
194, 1, wb, attraction, a-b-db, 5, 2, 2, 20, 165, 90, 90, 165, 88, 161, 3, 22.5237
194, 1, wb, attraction, a-b-db, 5, 2, 2, 20, 165, 90, 90, 165, 88, 161, 1, 0.599337
194, 1, wb, filler, NA, 999, 999, 2, 21, 75, 111, 117, 135, 86, 125, 1, 2.06119
194, 1, wb, filler, NA, 999, 999, 2, 21, 75, 111, 117, 135, 86, 125, 2, 0.769124
194, 1, wb, filler, NA, 999, 999, 2, 22, 58, 118, 142, 114, 142, 194, 1, 1.51219
194, 1, wb, filler, NA, 999, 999, 2, 22, 58, 118, 142, 114, 142, 194, 3, 0.842249
194, 1, wb, filler, NA, 999, 999, 2, 23, 130, 173, 57, 168, 76, 144, 2, 10.814
194, 1, wb, filler, NA, 999, 999, 2, 23, 130, 173, 57, 168, 76, 144, 1, 0.401188
194, 1, wb, filler, NA, 999, 999, 2, 24, 100, 100, 109, 113, 185, 59, 1, 7.51905
194, 1, wb, filler, NA, 999, 999, 2, 24, 100, 100, 109, 113, 185, 59, 3, 5.27941
194, 1, wb, attraction, a-b-db, 2, 2, 2, 25, 90, 165, 89, 163, 165, 90, 1, 22.4003
194, 1, wb, attraction, a-b-db, 2, 2, 2, 25, 90, 165, 89, 163, 165, 90, 3, 0.720542
194, 1, wb, filler, NA, 999, 999, 2, 26, 99, 98, 126, 146, 88, 110, 1, 2.40965
194, 1, wb, filler, NA, 999, 999, 2, 26, 99, 98, 126, 146, 88, 110, 2, 0.75153
194, 1, wb, attraction, a-b-da, 14, 1, 2, 27, 125, 56, 60, 135, 135, 60, 1, 6.65519
194, 1, wb, attraction, a-b-da, 14, 1, 2, 27, 125, 56, 60, 135, 135, 60, 3, 1.0424
194, 1, wb, attraction, a-b-db, 14, 2, 2, 28, 90, 165, 83, 153, 165, 90, 2, 7.95821
194, 1, wb, attraction, a-b-db, 14, 2, 2, 28, 90, 165, 83, 153, 165, 90, 3, 1.59621
194, 1, wb, attraction, a-b-da, 9, 3, 2, 29, 120, 195, 195, 120, 186, 114, 3, 16.2976
194, 1, wb, attraction, a-b-da, 9, 3, 2, 29, 120, 195, 195, 120, 186, 114, 2, 3.26407
194, 1, wb, attraction, a-b-da, 5, 2, 2, 30, 161, 88, 165, 90, 90, 165, 3, 23.6022
194, 1, wb, attraction, a-b-da, 5, 2, 2, 30, 161, 88, 165, 90, 90, 165, 2, 1.61819
194, 1, wb, filler, NA, 999, 999, 2, 31, 102, 99, 56, 120, 99, 124, 2, 7.11096
194, 1, wb, filler, NA, 999, 999, 2, 31, 102, 99, 56, 120, 99, 124, 3, 2.11133
194, 1, wb, attraction, a-b-db, 9, 3, 2, 32, 195, 120, 114, 186, 120, 195, 2, 8.04787
194, 1, wb, attraction, a-b-db, 9, 3, 2, 32, 195, 120, 114, 186, 120, 195, 1, 0.88261
194, 1, wb, filler, NA, 999, 999, 2, 33, 102, 69, 193, 184, 151, 163, 1, 1.39701
194, 1, wb, filler, NA, 999, 999, 2, 33, 102, 69, 193, 184, 151, 163, 2, 1.41996
194, 1, wb, attraction, a-b-db, 5, 1, 2, 34, 135, 60, 60, 135, 58, 132, 3, 3.44079
194, 1, wb, attraction, a-b-db, 5, 1, 2, 34, 135, 60, 60, 135, 58, 132, 1, 4.86091
194, 1, wb, attraction, a-b-db, 5, 3, 2, 35, 117, 190, 120, 195, 195, 120, 1, 9.10267
194, 1, wb, attraction, a-b-db, 5, 3, 2, 35, 117, 190, 120, 195, 195, 120, 2, 1.8072
194, 1, wb, attraction, a-b-da, 5, 1, 2, 36, 60, 135, 132, 58, 135, 60, 1, 25.0199
194, 1, wb, attraction, a-b-da, 5, 1, 2, 36, 60, 135, 132, 58, 135, 60, 2, 1.13077
194, 1, wb, filler, NA, 999, 999, 2, 37, 87, 82, 149, 132, 195, 158, 1, 1.57096
194, 1, wb, filler, NA, 999, 999, 2, 37, 87, 82, 149, 132, 195, 158, 3, 0.875079
194, 1, wb, attraction, a-b-db, 2, 3, 3, 1, 195, 120, 119, 193, 120, 195, 3, 70.0853
194, 1, wb, attraction, a-b-db, 2, 3, 3, 1, 195, 120, 119, 193, 120, 195, 1, 0.708303
194, 1, wb, attraction, a-b-db, 14, 3, 3, 2, 195, 120, 120, 195, 111, 181, 3, 3.20514
194, 1, wb, attraction, a-b-db, 14, 3, 3, 2, 195, 120, 120, 195, 111, 181, 1, 0.68291
194, 1, wb, catch, NA, 999, 999, 3, 3, 117, 78, 165, 90, 187, 128, 1, 2.18122
194, 1, wb, catch, NA, 999, 999, 3, 3, 117, 78, 165, 90, 187, 128, 3, 0.764459
194, 1, wb, attraction, a-b-da, 9, 3, 3, 4, 186, 114, 195, 120, 120, 195, 1, 12.7235
194, 1, wb, attraction, a-b-da, 9, 3, 3, 4, 186, 114, 195, 120, 120, 195, 3, 0.698282
194, 1, wb, attraction, a-b-da, 14, 2, 3, 5, 90, 165, 165, 90, 153, 83, 3, 21.7719
194, 1, wb, attraction, a-b-da, 14, 2, 3, 5, 90, 165, 165, 90, 153, 83, 1, 1.38178
194, 1, wb, filler, NA, 999, 999, 3, 6, 112, 111, 132, 176, 104, 132, 1, 2.77195
194, 1, wb, filler, NA, 999, 999, 3, 6, 112, 111, 132, 176, 104, 132, 2, 0.507168
194, 1, wb, attraction, a-b-db, 5, 2, 3, 7, 165, 90, 90, 165, 88, 161, 3, 4.51626
194, 1, wb, attraction, a-b-db, 5, 2, 3, 7, 165, 90, 90, 165, 88, 161, 1, 0.997431
194, 1, wb, filler, NA, 999, 999, 3, 8, 72, 73, 179, 133, 187, 182, 1, 1.24304
194, 1, wb, filler, NA, 999, 999, 3, 8, 72, 73, 179, 133, 187, 182, 3, 0.936021
194, 1, wb, filler, NA, 999, 999, 3, 9, 64, 137, 178, 183, 129, 73, 1, 7.87235
194, 1, wb, filler, NA, 999, 999, 3, 9, 64, 137, 178, 183, 129, 73, 2, 0.642476
194, 1, wb, attraction, a-b-da, 14, 1, 3, 10, 125, 56, 60, 135, 135, 60, 2, 11.9343
194, 1, wb, attraction, a-b-da, 14, 1, 3, 10, 125, 56, 60, 135, 135, 60, 3, 0.908554
194, 1, wb, filler, NA, 999, 999, 3, 11, 74, 109, 146, 132, 98, 177, 1, 1.42951
194, 1, wb, filler, NA, 999, 999, 3, 11, 74, 109, 146, 132, 98, 177, 2, 4.20308
194, 1, wb, filler, NA, 999, 999, 3, 12, 178, 183, 99, 140, 103, 89, 3, 1.66363
194, 1, wb, filler, NA, 999, 999, 3, 12, 178, 183, 99, 140, 103, 89, 1, 0.651717
194, 1, wb, filler, NA, 999, 999, 3, 13, 69, 184, 175, 91, 141, 151, 1, 2.31159
194, 1, wb, filler, NA, 999, 999, 3, 13, 69, 184, 175, 91, 141, 151, 3, 1.10544
194, 1, wb, attraction, a-b-db, 14, 1, 3, 14, 56, 125, 135, 60, 60, 135, 1, 9.31506
194, 1, wb, attraction, a-b-db, 14, 1, 3, 14, 56, 125, 135, 60, 60, 135, 3, 1.67466
194, 1, wb, attraction, a-b-db, 9, 3, 3, 15, 195, 120, 114, 186, 120, 195, 2, 42.4129
194, 1, wb, attraction, a-b-db, 9, 3, 3, 15, 195, 120, 114, 186, 120, 195, 1, 0.358764
194, 1, wb, attraction, a-b-da, 9, 2, 3, 16, 165, 90, 157, 86, 90, 165, 3, 10.1581
194, 1, wb, attraction, a-b-da, 9, 2, 3, 16, 165, 90, 157, 86, 90, 165, 1, 2.4995
194, 1, wb, catch, NA, 999, 999, 3, 17, 146, 109, 180, 135, 94, 101, 3, 1.02082
194, 1, wb, catch, NA, 999, 999, 3, 17, 146, 109, 180, 135, 94, 101, 2, 1.32295
194, 1, wb, attraction, a-b-da, 14, 3, 3, 18, 195, 120, 181, 111, 120, 195, 2, 4.876
194, 1, wb, attraction, a-b-da, 14, 3, 3, 18, 195, 120, 181, 111, 120, 195, 1, 0.470346
194, 1, wb, attraction, a-b-db, 5, 3, 3, 19, 120, 195, 195, 120, 117, 190, 3, 13.2173
194, 1, wb, attraction, a-b-db, 5, 3, 3, 19, 120, 195, 195, 120, 117, 190, 1, 1.4039
194, 1, wb, catch, NA, 999, 999, 3, 20, 175, 140, 97, 98, 121, 134, 2, 1.22539
194, 1, wb, catch, NA, 999, 999, 3, 20, 175, 140, 97, 98, 121, 134, 1, 2.79902
194, 1, wb, attraction, a-b-da, 9, 1, 3, 21, 129, 57, 60, 135, 135, 60, 1, 15.7481
194, 1, wb, attraction, a-b-da, 9, 1, 3, 21, 129, 57, 60, 135, 135, 60, 2, 1.56057
194, 1, wb, attraction, a-b-db, 9, 2, 3, 22, 86, 157, 165, 90, 90, 165, 1, 10.6953
194, 1, wb, attraction, a-b-db, 9, 2, 3, 22, 86, 157, 165, 90, 90, 165, 2, 0.399186
194, 1, wb, filler, NA, 999, 999, 3, 23, 162, 134, 190, 103, 108, 97, 3, 1.10901
194, 1, wb, filler, NA, 999, 999, 3, 23, 162, 134, 190, 103, 108, 97, 1, 3.64739
194, 1, wb, attraction, a-b-db, 2, 1, 3, 24, 135, 60, 60, 135, 59, 134, 3, 5.14619
194, 1, wb, attraction, a-b-db, 2, 1, 3, 24, 135, 60, 60, 135, 59, 134, 1, 3.80194
194, 1, wb, attraction, a-b-da, 5, 3, 3, 25, 190, 117, 120, 195, 195, 120, 1, 16.2786
194, 1, wb, attraction, a-b-da, 5, 3, 3, 25, 190, 117, 120, 195, 195, 120, 2, 0.781561
194, 1, wb, filler, NA, 999, 999, 3, 26, 138, 56, 142, 135, 104, 65, 3, 2.67577
194, 1, wb, filler, NA, 999, 999, 3, 26, 138, 56, 142, 135, 104, 65, 2, 0.679015
194, 1, wb, attraction, a-b-da, 5, 2, 3, 27, 161, 88, 165, 90, 90, 165, 3, 8.78536
194, 1, wb, attraction, a-b-da, 5, 2, 3, 27, 161, 88, 165, 90, 90, 165, 2, 2.52671
194, 1, wb, filler, NA, 999, 999, 3, 28, 151, 64, 130, 169, 85, 119, 3, 1.95862
194, 1, wb, filler, NA, 999, 999, 3, 28, 151, 64, 130, 169, 85, 119, 2, 0.382343
194, 1, wb, attraction, a-b-db, 2, 2, 3, 29, 165, 90, 90, 165, 89, 163, 3, 6.71684
194, 1, wb, attraction, a-b-db, 2, 2, 3, 29, 165, 90, 90, 165, 89, 163, 1, 0.677504
194, 1, wb, attraction, a-b-da, 2, 3, 3, 30, 195, 120, 193, 119, 120, 195, 3, 14.032
194, 1, wb, attraction, a-b-da, 2, 3, 3, 30, 195, 120, 193, 119, 120, 195, 1, 0.697465
194, 1, wb, filler, NA, 999, 999, 3, 31, 158, 122, 176, 92, 165, 160, 2, 3.78721
194, 1, wb, filler, NA, 999, 999, 3, 31, 158, 122, 176, 92, 165, 160, 3, 0.538045
194, 1, wb, attraction, a-b-db, 9, 1, 3, 32, 60, 135, 57, 129, 135, 60, 1, 1.86636
194, 1, wb, attraction, a-b-db, 9, 1, 3, 32, 60, 135, 57, 129, 135, 60, 2, 1.29444
194, 1, wb, attraction, a-b-da, 2, 1, 3, 33, 60, 135, 134, 59, 135, 60, 1, 2.64808
194, 1, wb, attraction, a-b-da, 2, 1, 3, 33, 60, 135, 134, 59, 135, 60, 3, 1.16454
194, 1, wb, attraction, a-b-db, 14, 2, 3, 34, 90, 165, 165, 90, 83, 153, 3, 7.14738
194, 1, wb, attraction, a-b-db, 14, 2, 3, 34, 90, 165, 165, 90, 83, 153, 1, 0.554452
194, 1, wb, attraction, a-b-da, 5, 1, 3, 35, 132, 58, 135, 60, 60, 135, 1, 2.25017
194, 1, wb, attraction, a-b-da, 5, 1, 3, 35, 132, 58, 135, 60, 60, 135, 3, 0.550846
194, 1, wb, attraction, a-b-db, 5, 1, 3, 36, 60, 135, 135, 60, 58, 132, 2, 1.52658
194, 1, wb, attraction, a-b-db, 5, 1, 3, 36, 60, 135, 135, 60, 58, 132, 1, 1.7842
194, 1, wb, attraction, a-b-da, 2, 2, 3, 37, 163, 89, 90, 165, 165, 90, 2, 11.7581
194, 1, wb, attraction, a-b-da, 2, 2, 3, 37, 163, 89, 90, 165, 165, 90, 1, 2.6191
194, 1, wb, filler, NA, 999, 999, 4, 1, 123, 108, 67, 178, 180, 144, 2, 15.7516
194, 1, wb, filler, NA, 999, 999, 4, 1, 123, 108, 67, 178, 180, 144, 3, 1.1001
194, 1, wb, attraction, a-b-db, 5, 1, 4, 2, 60, 135, 135, 60, 58, 132, 3, 3.9975
194, 1, wb, attraction, a-b-db, 5, 1, 4, 2, 60, 135, 135, 60, 58, 132, 2, 4.48378
194, 1, wb, attraction, a-b-da, 14, 2, 4, 3, 165, 90, 153, 83, 90, 165, 3, 12.637
194, 1, wb, attraction, a-b-da, 14, 2, 4, 3, 165, 90, 153, 83, 90, 165, 1, 1.86287
194, 1, wb, attraction, a-b-db, 9, 3, 4, 4, 195, 120, 114, 186, 120, 195, 3, 10.0336
194, 1, wb, attraction, a-b-db, 9, 3, 4, 4, 195, 120, 114, 186, 120, 195, 2, 0.996447
194, 1, wb, attraction, a-b-db, 5, 3, 4, 5, 117, 190, 195, 120, 120, 195, 1, 26.738
194, 1, wb, attraction, a-b-db, 5, 3, 4, 5, 117, 190, 195, 120, 120, 195, 2, 3.09965
194, 1, wb, filler, NA, 999, 999, 4, 6, 118, 100, 110, 111, 83, 153, 1, 3.20465
194, 1, wb, filler, NA, 999, 999, 4, 6, 118, 100, 110, 111, 83, 153, 3, 1.45106
194, 1, wb, catch, NA, 999, 999, 4, 7, 107, 88, 137, 178, 135, 120, 1, 1.59036
194, 1, wb, catch, NA, 999, 999, 4, 7, 107, 88, 137, 178, 135, 120, 2, 1.78928
194, 1, wb, attraction, a-b-da, 9, 1, 4, 8, 129, 57, 135, 60, 60, 135, 1, 7.69136
194, 1, wb, attraction, a-b-da, 9, 1, 4, 8, 129, 57, 135, 60, 60, 135, 2, 0.948237
194, 1, wb, attraction, a-b-da, 2, 2, 4, 9, 165, 90, 90, 165, 163, 89, 1, 29.98
194, 1, wb, attraction, a-b-da, 2, 2, 4, 9, 165, 90, 90, 165, 163, 89, 2, 0.578469
194, 1, wb, attraction, a-b-db, 14, 1, 4, 10, 56, 125, 135, 60, 60, 135, 1, 1.60084
194, 1, wb, attraction, a-b-db, 14, 1, 4, 10, 56, 125, 135, 60, 60, 135, 2, 0.86383
194, 1, wb, attraction, a-b-da, 9, 3, 4, 11, 186, 114, 195, 120, 120, 195, 1, 3.44274
194, 1, wb, attraction, a-b-da, 9, 3, 4, 11, 186, 114, 195, 120, 120, 195, 2, 2.41499
194, 1, wb, catch, NA, 999, 999, 4, 12, 150, 165, 157, 98, 121, 74, 3, 1.01932
194, 1, wb, catch, NA, 999, 999, 4, 12, 150, 165, 157, 98, 121, 74, 1, 0.921829
194, 1, wb, attraction, a-b-da, 2, 3, 4, 13, 195, 120, 193, 119, 120, 195, 3, 10.5069
194, 1, wb, attraction, a-b-da, 2, 3, 4, 13, 195, 120, 193, 119, 120, 195, 1, 1.58683
194, 1, wb, attraction, a-b-da, 5, 2, 4, 14, 161, 88, 90, 165, 165, 90, 2, 2.90491
194, 1, wb, attraction, a-b-da, 5, 2, 4, 14, 161, 88, 90, 165, 165, 90, 3, 0.963218
194, 1, wb, attraction, a-b-db, 5, 2, 4, 15, 90, 165, 165, 90, 88, 161, 3, 8.57834
194, 1, wb, attraction, a-b-db, 5, 2, 4, 15, 90, 165, 165, 90, 88, 161, 2, 0.80753
194, 1, wb, filler, NA, 999, 999, 4, 16, 137, 189, 58, 62, 86, 167, 2, 1.38862
194, 1, wb, filler, NA, 999, 999, 4, 16, 137, 189, 58, 62, 86, 167, 1, 0.523436
194, 1, wb, filler, NA, 999, 999, 4, 17, 161, 174, 155, 133, 149, 177, 2, 4.60385
194, 1, wb, filler, NA, 999, 999, 4, 17, 161, 174, 155, 133, 149, 177, 1, 1.27367
194, 1, wb, filler, NA, 999, 999, 4, 18, 157, 63, 156, 82, 193, 60, 1, 5.84389
194, 1, wb, filler, NA, 999, 999, 4, 18, 157, 63, 156, 82, 193, 60, 2, 8.59148
194, 1, wb, filler, NA, 999, 999, 4, 19, 141, 147, 128, 113, 130, 56, 3, 2.05937
194, 1, wb, filler, NA, 999, 999, 4, 19, 141, 147, 128, 113, 130, 56, 1, 0.519266
194, 1, wb, attraction, a-b-db, 14, 2, 4, 20, 83, 153, 165, 90, 90, 165, 1, 3.08059
194, 1, wb, attraction, a-b-db, 14, 2, 4, 20, 83, 153, 165, 90, 90, 165, 3, 0.811476
194, 1, wb, attraction, a-b-db, 2, 3, 4, 21, 119, 193, 195, 120, 120, 195, 3, 11.9684
194, 1, wb, attraction, a-b-db, 2, 3, 4, 21, 119, 193, 195, 120, 120, 195, 2, 0.357413
194, 1, wb, attraction, a-b-da, 14, 1, 4, 22, 135, 60, 125, 56, 60, 135, 2, 3.86056
194, 1, wb, attraction, a-b-da, 14, 1, 4, 22, 135, 60, 125, 56, 60, 135, 3, 1.11199
194, 1, wb, filler, NA, 999, 999, 4, 23, 153, 125, 114, 119, 134, 129, 2, 2.29688
194, 1, wb, filler, NA, 999, 999, 4, 23, 153, 125, 114, 119, 134, 129, 1, 2.71555
194, 1, wb, attraction, a-b-da, 14, 3, 4, 24, 120, 195, 195, 120, 181, 111, 3, 8.99591
194, 1, wb, attraction, a-b-da, 14, 3, 4, 24, 120, 195, 195, 120, 181, 111, 1, 0.840435
194, 1, wb, attraction, a-b-da, 2, 1, 4, 25, 135, 60, 134, 59, 60, 135, 1, 5.012
194, 1, wb, attraction, a-b-da, 2, 1, 4, 25, 135, 60, 134, 59, 60, 135, 3, 0.809322
194, 1, wb, attraction, a-b-db, 9, 1, 4, 26, 57, 129, 135, 60, 60, 135, 1, 2.19819
194, 1, wb, attraction, a-b-db, 9, 1, 4, 26, 57, 129, 135, 60, 60, 135, 2, 2.22882
194, 1, wb, attraction, a-b-db, 2, 1, 4, 27, 59, 134, 60, 135, 135, 60, 1, 3.47287
194, 1, wb, attraction, a-b-db, 2, 1, 4, 27, 59, 134, 60, 135, 135, 60, 3, 0.651625
194, 1, wb, catch, NA, 999, 999, 4, 28, 182, 133, 90, 165, 120, 75, 3, 1.6235
194, 1, wb, catch, NA, 999, 999, 4, 28, 182, 133, 90, 165, 120, 75, 1, 0.828788
194, 1, wb, attraction, a-b-da, 5, 3, 4, 29, 120, 195, 195, 120, 190, 117, 1, 7.18511
194, 1, wb, attraction, a-b-da, 5, 3, 4, 29, 120, 195, 195, 120, 190, 117, 2, 1.33483
194, 1, wb, attraction, a-b-db, 9, 2, 4, 30, 90, 165, 165, 90, 86, 157, 2, 7.1591
194, 1, wb, attraction, a-b-db, 9, 2, 4, 30, 90, 165, 165, 90, 86, 157, 1, 1.24544
194, 1, wb, attraction, a-b-db, 14, 3, 4, 31, 120, 195, 111, 181, 195, 120, 2, 4.05702
194, 1, wb, attraction, a-b-db, 14, 3, 4, 31, 120, 195, 111, 181, 195, 120, 3, 2.1004
194, 1, wb, attraction, a-b-db, 2, 2, 4, 32, 165, 90, 89, 163, 90, 165, 3, 4.01367
194, 1, wb, attraction, a-b-db, 2, 2, 4, 32, 165, 90, 89, 163, 90, 165, 1, 1.06701
194, 1, wb, filler, NA, 999, 999, 4, 33, 175, 193, 193, 160, 147, 101, 3, 0.981997
194, 1, wb, filler, NA, 999, 999, 4, 33, 175, 193, 193, 160, 147, 101, 1, 1.00587
194, 1, wb, filler, NA, 999, 999, 4, 34, 170, 140, 166, 62, 174, 58, 2, 3.05939
194, 1, wb, filler, NA, 999, 999, 4, 34, 170, 140, 166, 62, 174, 58, 1, 0.75098
194, 1, wb, attraction, a-b-da, 5, 1, 4, 35, 132, 58, 135, 60, 60, 135, 3, 2.59084
194, 1, wb, attraction, a-b-da, 5, 1, 4, 35, 132, 58, 135, 60, 60, 135, 1, 1.46124
194, 1, wb, attraction, a-b-da, 9, 2, 4, 36, 90, 165, 157, 86, 165, 90, 2, 16.5442
194, 1, wb, attraction, a-b-da, 9, 2, 4, 36, 90, 165, 157, 86, 165, 90, 1, 0.772094
194, 1, wb, filler, NA, 999, 999, 4, 37, 133, 111, 99, 65, 165, 160, 2, 1.22713
194, 1, wb, filler, NA, 999, 999, 4, 37, 133, 111, 99, 65, 165, 160, 3, 0.600863
194, 1, wb, catch, NA, 999, 999, 5, 1, 122, 133, 163, 152, 65, 130, 3, 2.66112
194, 1, wb, catch, NA, 999, 999, 5, 1, 122, 133, 163, 152, 65, 130, 2, 0.361108
194, 1, wb, attraction, a-b-da, 14, 2, 5, 2, 153, 83, 90, 165, 165, 90, 1, 5.39211
194, 1, wb, attraction, a-b-da, 14, 2, 5, 2, 153, 83, 90, 165, 165, 90, 3, 1.95787
194, 1, wb, attraction, a-b-da, 5, 1, 5, 3, 132, 58, 60, 135, 135, 60, 1, 4.34039
194, 1, wb, attraction, a-b-da, 5, 1, 5, 3, 132, 58, 60, 135, 135, 60, 2, 1.13243
194, 1, wb, attraction, a-b-da, 2, 1, 5, 4, 134, 59, 60, 135, 135, 60, 2, 3.70063
194, 1, wb, attraction, a-b-da, 2, 1, 5, 4, 134, 59, 60, 135, 135, 60, 3, 0.662759
194, 1, wb, attraction, a-b-db, 5, 1, 5, 5, 135, 60, 58, 132, 60, 135, 2, 17.7137
194, 1, wb, attraction, a-b-db, 5, 1, 5, 5, 135, 60, 58, 132, 60, 135, 3, 1.07914
194, 1, wb, attraction, a-b-db, 2, 3, 5, 6, 195, 120, 120, 195, 119, 193, 3, 3.00131
194, 1, wb, attraction, a-b-db, 2, 3, 5, 6, 195, 120, 120, 195, 119, 193, 1, 0.975597
194, 1, wb, filler, NA, 999, 999, 5, 7, 85, 69, 178, 147, 63, 70, 3, 1.83785
194, 1, wb, filler, NA, 999, 999, 5, 7, 85, 69, 178, 147, 63, 70, 2, 0.506546
194, 1, wb, filler, NA, 999, 999, 5, 8, 194, 138, 171, 130, 77, 159, 3, 3.65971
194, 1, wb, filler, NA, 999, 999, 5, 8, 194, 138, 171, 130, 77, 159, 1, 0.999657
194, 1, wb, attraction, a-b-da, 9, 2, 5, 9, 165, 90, 90, 165, 157, 86, 3, 6.74083
194, 1, wb, attraction, a-b-da, 9, 2, 5, 9, 165, 90, 90, 165, 157, 86, 2, 1.89999
194, 1, wb, attraction, a-b-db, 9, 1, 5, 10, 57, 129, 135, 60, 60, 135, 1, 3.59729
194, 1, wb, attraction, a-b-db, 9, 1, 5, 10, 57, 129, 135, 60, 60, 135, 2, 2.51556
194, 1, wb, attraction, a-b-da, 2, 2, 5, 11, 165, 90, 163, 89, 90, 165, 3, 4.12415
194, 1, wb, attraction, a-b-da, 2, 2, 5, 11, 165, 90, 163, 89, 90, 165, 2, 0.668836
194, 1, wb, catch, NA, 999, 999, 5, 12, 119, 76, 126, 129, 177, 138, 1, 1.27195
194, 1, wb, catch, NA, 999, 999, 5, 12, 119, 76, 126, 129, 177, 138, 3, 0.659351
194, 1, wb, filler, NA, 999, 999, 5, 13, 112, 95, 83, 68, 72, 95, 2, 1.13438
194, 1, wb, filler, NA, 999, 999, 5, 13, 112, 95, 83, 68, 72, 95, 1, 0.456108
194, 1, wb, attraction, a-b-da, 14, 1, 5, 14, 135, 60, 125, 56, 60, 135, 3, 2.87591
194, 1, wb, attraction, a-b-da, 14, 1, 5, 14, 135, 60, 125, 56, 60, 135, 1, 0.830942
194, 1, wb, attraction, a-b-da, 5, 2, 5, 15, 90, 165, 161, 88, 165, 90, 2, 23.9473
194, 1, wb, attraction, a-b-da, 5, 2, 5, 15, 90, 165, 161, 88, 165, 90, 1, 0.757083
194, 1, wb, attraction, a-b-db, 14, 1, 5, 16, 135, 60, 56, 125, 60, 135, 2, 1.56422
194, 1, wb, attraction, a-b-db, 14, 1, 5, 16, 135, 60, 56, 125, 60, 135, 3, 0.740329
194, 1, wb, attraction, a-b-db, 9, 3, 5, 17, 114, 186, 120, 195, 195, 120, 1, 3.292
194, 1, wb, attraction, a-b-db, 9, 3, 5, 17, 114, 186, 120, 195, 195, 120, 3, 1.10232
194, 1, wb, attraction, a-b-da, 14, 3, 5, 18, 195, 120, 181, 111, 120, 195, 2, 3.03188
194, 1, wb, attraction, a-b-da, 14, 3, 5, 18, 195, 120, 181, 111, 120, 195, 3, 0.572933
194, 1, wb, attraction, a-b-db, 5, 2, 5, 19, 88, 161, 165, 90, 90, 165, 3, 1.58006
194, 1, wb, attraction, a-b-db, 5, 2, 5, 19, 88, 161, 165, 90, 90, 165, 2, 0.787624
194, 1, wb, attraction, a-b-da, 9, 3, 5, 20, 120, 195, 195, 120, 186, 114, 3, 4.26585
194, 1, wb, attraction, a-b-da, 9, 3, 5, 20, 120, 195, 195, 120, 186, 114, 1, 0.925143
194, 1, wb, filler, NA, 999, 999, 5, 21, 126, 139, 139, 72, 172, 135, 2, 1.64548
194, 1, wb, filler, NA, 999, 999, 5, 21, 126, 139, 139, 72, 172, 135, 3, 1.54633
194, 1, wb, filler, NA, 999, 999, 5, 22, 164, 171, 143, 119, 133, 102, 3, 2.07371
194, 1, wb, filler, NA, 999, 999, 5, 22, 164, 171, 143, 119, 133, 102, 1, 0.525043
194, 1, wb, filler, NA, 999, 999, 5, 23, 70, 87, 187, 136, 83, 108, 1, 1.08545
194, 1, wb, filler, NA, 999, 999, 5, 23, 70, 87, 187, 136, 83, 108, 2, 0.609121
194, 1, wb, attraction, a-b-db, 5, 3, 5, 24, 120, 195, 195, 120, 117, 190, 3, 11.5823
194, 1, wb, attraction, a-b-db, 5, 3, 5, 24, 120, 195, 195, 120, 117, 190, 1, 0.706569
194, 1, wb, filler, NA, 999, 999, 5, 25, 102, 84, 122, 137, 63, 91, 3, 1.30029
194, 1, wb, filler, NA, 999, 999, 5, 25, 102, 84, 122, 137, 63, 91, 2, 0.871162
194, 1, wb, attraction, a-b-db, 14, 3, 5, 26, 120, 195, 111, 181, 195, 120, 2, 13.1062
194, 1, wb, attraction, a-b-db, 14, 3, 5, 26, 120, 195, 111, 181, 195, 120, 3, 1.09746
194, 1, wb, attraction, a-b-da, 5, 3, 5, 27, 195, 120, 120, 195, 190, 117, 3, 2.07504
194, 1, wb, attraction, a-b-da, 5, 3, 5, 27, 195, 120, 120, 195, 190, 117, 1, 1.40636
194, 1, wb, attraction, a-b-db, 2, 2, 5, 28, 90, 165, 89, 163, 165, 90, 1, 2.40387
194, 1, wb, attraction, a-b-db, 2, 2, 5, 28, 90, 165, 89, 163, 165, 90, 3, 0.682404
194, 1, wb, attraction, a-b-da, 2, 3, 5, 29, 195, 120, 120, 195, 193, 119, 2, 9.04483
194, 1, wb, attraction, a-b-da, 2, 3, 5, 29, 195, 120, 120, 195, 193, 119, 1, 0.719221
194, 1, wb, filler, NA, 999, 999, 5, 30, 74, 166, 163, 154, 192, 102, 1, 1.01631
194, 1, wb, filler, NA, 999, 999, 5, 30, 74, 166, 163, 154, 192, 102, 2, 0.638568
194, 1, wb, filler, NA, 999, 999, 5, 31, 155, 176, 139, 89, 100, 124, 3, 2.79506
194, 1, wb, filler, NA, 999, 999, 5, 31, 155, 176, 139, 89, 100, 124, 1, 0.497419
194, 1, wb, attraction, a-b-db, 9, 2, 5, 32, 165, 90, 90, 165, 86, 157, 3, 8.78737
194, 1, wb, attraction, a-b-db, 9, 2, 5, 32, 165, 90, 90, 165, 86, 157, 1, 0.784655
194, 1, wb, catch, NA, 999, 999, 5, 33, 100, 155, 109, 86, 168, 147, 2, 1.48698
194, 1, wb, catch, NA, 999, 999, 5, 33, 100, 155, 109, 86, 168, 147, 3, 0.482413
194, 1, wb, attraction, a-b-db, 2, 1, 5, 34, 59, 134, 135, 60, 60, 135, 1, 2.22098
194, 1, wb, attraction, a-b-db, 2, 1, 5, 34, 59, 134, 135, 60, 60, 135, 2, 0.570767
194, 1, wb, attraction, a-b-db, 14, 2, 5, 35, 90, 165, 83, 153, 165, 90, 1, 3.89779
194, 1, wb, attraction, a-b-db, 14, 2, 5, 35, 90, 165, 83, 153, 165, 90, 3, 0.604043
194, 1, wb, filler, NA, 999, 999, 5, 36, 78, 136, 74, 192, 124, 185, 1, 0.913787
194, 1, wb, filler, NA, 999, 999, 5, 36, 78, 136, 74, 192, 124, 185, 3, 0.516187
194, 1, wb, attraction, a-b-da, 9, 1, 5, 37, 135, 60, 129, 57, 60, 135, 3, 1.65319
194, 1, wb, attraction, a-b-da, 9, 1, 5, 37, 135, 60, 129, 57, 60, 135, 1, 0.866079
194, 1, wb, filler, NA, 999, 999, 6, 1, 116, 186, 135, 119, 130, 184, 2, 9.78906
194, 1, wb, filler, NA, 999, 999, 6, 1, 116, 186, 135, 119, 130, 184, 3, 0.737943
194, 1, wb, attraction, a-b-da, 14, 2, 6, 2, 90, 165, 165, 90, 153, 83, 3, 6.28222
194, 1, wb, attraction, a-b-da, 14, 2, 6, 2, 90, 165, 165, 90, 153, 83, 1, 0.404463
194, 1, wb, attraction, a-b-db, 5, 2, 6, 3, 88, 161, 165, 90, 90, 165, 1, 4.15416
194, 1, wb, attraction, a-b-db, 5, 2, 6, 3, 88, 161, 165, 90, 90, 165, 3, 0.826296
194, 1, wb, attraction, a-b-db, 2, 3, 6, 4, 195, 120, 120, 195, 119, 193, 3, 5.1586
194, 1, wb, attraction, a-b-db, 2, 3, 6, 4, 195, 120, 120, 195, 119, 193, 2, 0.645613
194, 1, wb, attraction, a-b-da, 5, 2, 6, 5, 161, 88, 90, 165, 165, 90, 1, 2.23331
194, 1, wb, attraction, a-b-da, 5, 2, 6, 5, 161, 88, 90, 165, 165, 90, 2, 0.870591
194, 1, wb, filler, NA, 999, 999, 6, 6, 79, 144, 168, 147, 86, 194, 1, 0.73756
194, 1, wb, filler, NA, 999, 999, 6, 6, 79, 144, 168, 147, 86, 194, 2, 0.723258
194, 1, wb, attraction, a-b-db, 5, 3, 6, 7, 120, 195, 195, 120, 117, 190, 1, 2.74769
194, 1, wb, attraction, a-b-db, 5, 3, 6, 7, 120, 195, 195, 120, 117, 190, 2, 1.21217
194, 1, wb, filler, NA, 999, 999, 6, 8, 195, 124, 87, 186, 120, 134, 3, 1.80894
194, 1, wb, filler, NA, 999, 999, 6, 8, 195, 124, 87, 186, 120, 134, 1, 0.959134
194, 1, wb, attraction, a-b-db, 14, 2, 6, 9, 83, 153, 90, 165, 165, 90, 1, 2.95002
194, 1, wb, attraction, a-b-db, 14, 2, 6, 9, 83, 153, 90, 165, 165, 90, 2, 0.614536
194, 1, wb, filler, NA, 999, 999, 6, 10, 98, 57, 143, 172, 95, 194, 1, 1.10747
194, 1, wb, filler, NA, 999, 999, 6, 10, 98, 57, 143, 172, 95, 194, 2, 0.533786
194, 1, wb, attraction, a-b-db, 9, 2, 6, 11, 90, 165, 165, 90, 86, 157, 3, 1.72634
194, 1, wb, attraction, a-b-db, 9, 2, 6, 11, 90, 165, 165, 90, 86, 157, 1, 0.839699
194, 1, wb, attraction, a-b-da, 2, 1, 6, 12, 134, 59, 135, 60, 60, 135, 2, 3.28395
194, 1, wb, attraction, a-b-da, 2, 1, 6, 12, 134, 59, 135, 60, 60, 135, 3, 0.742949
194, 1, wb, filler, NA, 999, 999, 6, 13, 61, 64, 59, 96, 75, 187, 1, 1.15075
194, 1, wb, filler, NA, 999, 999, 6, 13, 61, 64, 59, 96, 75, 187, 3, 0.639638
194, 1, wb, filler, NA, 999, 999, 6, 14, 101, 80, 110, 189, 114, 61, 3, 2.20412
194, 1, wb, filler, NA, 999, 999, 6, 14, 101, 80, 110, 189, 114, 61, 2, 0.514697
194, 1, wb, catch, NA, 999, 999, 6, 15, 90, 105, 95, 160, 190, 125, 1, 0.995807
194, 1, wb, catch, NA, 999, 999, 6, 15, 90, 105, 95, 160, 190, 125, 3, 0.778839
194, 1, wb, catch, NA, 999, 999, 6, 16, 127, 188, 121, 134, 94, 101, 3, 1.52911
194, 1, wb, catch, NA, 999, 999, 6, 16, 127, 188, 121, 134, 94, 101, 1, 0.57857
194, 1, wb, attraction, a-b-da, 2, 3, 6, 17, 120, 195, 195, 120, 193, 119, 3, 2.72913
194, 1, wb, attraction, a-b-da, 2, 3, 6, 17, 120, 195, 195, 120, 193, 119, 1, 1.58626
194, 1, wb, attraction, a-b-db, 2, 1, 6, 18, 60, 135, 135, 60, 59, 134, 2, 23.5443
194, 1, wb, attraction, a-b-db, 2, 1, 6, 18, 60, 135, 135, 60, 59, 134, 3, 0.650239
194, 1, wb, attraction, a-b-da, 2, 2, 6, 19, 163, 89, 165, 90, 90, 165, 1, 1.35792
194, 1, wb, attraction, a-b-da, 2, 2, 6, 19, 163, 89, 165, 90, 90, 165, 2, 1.60634
194, 1, wb, filler, NA, 999, 999, 6, 20, 154, 171, 101, 125, 161, 82, 2, 1.35562
194, 1, wb, filler, NA, 999, 999, 6, 20, 154, 171, 101, 125, 161, 82, 1, 0.451853
194, 1, wb, filler, NA, 999, 999, 6, 21, 89, 146, 162, 145, 153, 104, 1, 1.74371
194, 1, wb, filler, NA, 999, 999, 6, 21, 89, 146, 162, 145, 153, 104, 2, 0.832584
194, 1, wb, attraction, a-b-db, 14, 1, 6, 22, 56, 125, 135, 60, 60, 135, 1, 1.76483
194, 1, wb, attraction, a-b-db, 14, 1, 6, 22, 56, 125, 135, 60, 60, 135, 2, 2.09286
194, 1, wb, attraction, a-b-da, 14, 1, 6, 23, 60, 135, 135, 60, 125, 56, 1, 54.4781
194, 1, wb, attraction, a-b-da, 14, 1, 6, 23, 60, 135, 135, 60, 125, 56, 3, 1.33782
194, 1, wb, attraction, a-b-da, 9, 3, 6, 24, 186, 114, 195, 120, 120, 195, 3, 1.72202
194, 1, wb, attraction, a-b-da, 9, 3, 6, 24, 186, 114, 195, 120, 120, 195, 2, 0.531375
194, 1, wb, attraction, a-b-db, 2, 2, 6, 25, 90, 165, 89, 163, 165, 90, 1, 1.87586
194, 1, wb, attraction, a-b-db, 2, 2, 6, 25, 90, 165, 89, 163, 165, 90, 2, 1.25525
194, 1, wb, attraction, a-b-da, 14, 3, 6, 26, 195, 120, 120, 195, 181, 111, 3, 2.25085
194, 1, wb, attraction, a-b-da, 14, 3, 6, 26, 195, 120, 120, 195, 181, 111, 2, 0.679474
194, 1, wb, catch, NA, 999, 999, 6, 27, 174, 141, 108, 87, 121, 134, 2, 2.57783
194, 1, wb, catch, NA, 999, 999, 6, 27, 174, 141, 108, 87, 121, 134, 1, 0.793018
194, 1, wb, attraction, a-b-db, 9, 1, 6, 28, 57, 129, 135, 60, 60, 135, 1, 19.1907
194, 1, wb, attraction, a-b-db, 9, 1, 6, 28, 57, 129, 135, 60, 60, 135, 2, 0.720694
194, 1, wb, attraction, a-b-da, 9, 1, 6, 29, 129, 57, 135, 60, 60, 135, 1, 79.0575
194, 1, wb, attraction, a-b-da, 9, 1, 6, 29, 129, 57, 135, 60, 60, 135, 2, 2.71102
194, 1, wb, filler, NA, 999, 999, 6, 30, 168, 139, 182, 105, 120, 77, 3, 1.23127
194, 1, wb, filler, NA, 999, 999, 6, 30, 168, 139, 182, 105, 120, 77, 1, 2.89304
194, 1, wb, attraction, a-b-db, 9, 3, 6, 31, 120, 195, 195, 120, 114, 186, 3, 4.63805
194, 1, wb, attraction, a-b-db, 9, 3, 6, 31, 120, 195, 195, 120, 114, 186, 2, 1.97063
194, 1, wb, filler, NA, 999, 999, 6, 32, 179, 67, 155, 97, 135, 189, 1, 2.06532
194, 1, wb, filler, NA, 999, 999, 6, 32, 179, 67, 155, 97, 135, 189, 3, 0.861171
194, 1, wb, attraction, a-b-da, 5, 3, 6, 33, 190, 117, 195, 120, 120, 195, 1, 38.3522
194, 1, wb, attraction, a-b-da, 5, 3, 6, 33, 190, 117, 195, 120, 120, 195, 3, 0.581505
194, 1, wb, attraction, a-b-da, 9, 2, 6, 34, 90, 165, 165, 90, 157, 86, 1, 1.9319
194, 1, wb, attraction, a-b-da, 9, 2, 6, 34, 90, 165, 165, 90, 157, 86, 2, 1.55731
194, 1, wb, attraction, a-b-db, 14, 3, 6, 35, 195, 120, 120, 195, 111, 181, 3, 1.29208
194, 1, wb, attraction, a-b-db, 14, 3, 6, 35, 195, 120, 120, 195, 111, 181, 1, 2.41499
194, 1, wb, attraction, a-b-da, 5, 1, 6, 36, 132, 58, 60, 135, 135, 60, 2, 3.09942
194, 1, wb, attraction, a-b-da, 5, 1, 6, 36, 132, 58, 60, 135, 135, 60, 1, 0.973807
194, 1, wb, attraction, a-b-db, 5, 1, 6, 37, 58, 132, 135, 60, 60, 135, 1, 3.74011
194, 1, wb, attraction, a-b-db, 5, 1, 6, 37, 58, 132, 135, 60, 60, 135, 3, 1.32429
194, 1, wb, attraction, a-b-da, 14, 3, 7, 1, 120, 195, 195, 120, 181, 111, 3, 4.86045
194, 1, wb, attraction, a-b-da, 14, 3, 7, 1, 120, 195, 195, 120, 181, 111, 1, 0.431684
194, 1, wb, attraction, a-b-da, 9, 3, 7, 2, 120, 195, 195, 120, 186, 114, 3, 2.01211
194, 1, wb, attraction, a-b-da, 9, 3, 7, 2, 120, 195, 195, 120, 186, 114, 1, 1.61014
194, 1, wb, attraction, a-b-da, 5, 2, 7, 3, 90, 165, 165, 90, 161, 88, 1, 10.7828
194, 1, wb, attraction, a-b-da, 5, 2, 7, 3, 90, 165, 165, 90, 161, 88, 2, 2.13941
194, 1, wb, attraction, a-b-da, 2, 3, 7, 4, 193, 119, 195, 120, 120, 195, 3, 19.8995
194, 1, wb, attraction, a-b-da, 2, 3, 7, 4, 193, 119, 195, 120, 120, 195, 1, 1.95245
194, 1, wb, attraction, a-b-db, 14, 3, 7, 5, 195, 120, 120, 195, 111, 181, 3, 1.37578
194, 1, wb, attraction, a-b-db, 14, 3, 7, 5, 195, 120, 120, 195, 111, 181, 1, 1.15964
194, 1, wb, attraction, a-b-da, 9, 2, 7, 6, 90, 165, 157, 86, 165, 90, 2, 3.31038
194, 1, wb, attraction, a-b-da, 9, 2, 7, 6, 90, 165, 157, 86, 165, 90, 3, 1.47992
194, 1, wb, catch, NA, 999, 999, 7, 7, 171, 144, 130, 125, 86, 109, 3, 0.842004
194, 1, wb, catch, NA, 999, 999, 7, 7, 171, 144, 130, 125, 86, 109, 1, 0.831039
194, 1, wb, attraction, a-b-da, 2, 2, 7, 8, 90, 165, 163, 89, 165, 90, 1, 44.3555
194, 1, wb, attraction, a-b-da, 2, 2, 7, 8, 90, 165, 163, 89, 165, 90, 3, 0.470971
194, 1, wb, filler, NA, 999, 999, 7, 9, 137, 173, 130, 177, 155, 192, 1, 1.01005
194, 1, wb, filler, NA, 999, 999, 7, 9, 137, 173, 130, 177, 155, 192, 3, 1.00829
194, 1, wb, attraction, a-b-db, 2, 2, 7, 10, 90, 165, 89, 163, 165, 90, 1, 21.7012
194, 1, wb, attraction, a-b-db, 2, 2, 7, 10, 90, 165, 89, 163, 165, 90, 3, 0.593773
194, 1, wb, filler, NA, 999, 999, 7, 11, 113, 153, 92, 137, 116, 158, 2, 0.711703
194, 1, wb, filler, NA, 999, 999, 7, 11, 113, 153, 92, 137, 116, 158, 3, 0.954097
194, 1, wb, attraction, a-b-db, 9, 1, 7, 12, 57, 129, 60, 135, 135, 60, 1, 2.08161
194, 1, wb, attraction, a-b-db, 9, 1, 7, 12, 57, 129, 60, 135, 135, 60, 3, 0.756871
194, 1, wb, attraction, a-b-db, 14, 1, 7, 13, 135, 60, 60, 135, 56, 125, 3, 1.14798
194, 1, wb, attraction, a-b-db, 14, 1, 7, 13, 135, 60, 60, 135, 56, 125, 1, 0.660996
194, 1, wb, attraction, a-b-db, 9, 3, 7, 14, 114, 186, 120, 195, 195, 120, 1, 1.33594
194, 1, wb, attraction, a-b-db, 9, 3, 7, 14, 114, 186, 120, 195, 195, 120, 3, 1.27362
194, 1, wb, attraction, a-b-db, 5, 2, 7, 15, 90, 165, 88, 161, 165, 90, 1, 0.723788
194, 1, wb, attraction, a-b-db, 5, 2, 7, 15, 90, 165, 88, 161, 165, 90, 3, 1.05352
194, 1, wb, filler, NA, 999, 999, 7, 16, 58, 187, 155, 113, 147, 71, 3, 1.3371
194, 1, wb, filler, NA, 999, 999, 7, 16, 58, 187, 155, 113, 147, 71, 2, 0.458737
194, 1, wb, attraction, a-b-da, 14, 1, 7, 17, 60, 135, 125, 56, 135, 60, 1, 32.6778
194, 1, wb, attraction, a-b-da, 14, 1, 7, 17, 60, 135, 125, 56, 135, 60, 3, 0.984238
194, 1, wb, filler, NA, 999, 999, 7, 18, 122, 175, 142, 99, 122, 163, 2, 2.63052
194, 1, wb, filler, NA, 999, 999, 7, 18, 122, 175, 142, 99, 122, 163, 1, 1.57969
194, 1, wb, filler, NA, 999, 999, 7, 19, 77, 126, 91, 113, 85, 83, 3, 1.40179
194, 1, wb, filler, NA, 999, 999, 7, 19, 77, 126, 91, 113, 85, 83, 2, 2.13674
194, 1, wb, filler, NA, 999, 999, 7, 20, 85, 181, 170, 118, 159, 173, 1, 2.14465
194, 1, wb, filler, NA, 999, 999, 7, 20, 85, 181, 170, 118, 159, 173, 3, 0.729278
194, 1, wb, attraction, a-b-da, 5, 3, 7, 21, 195, 120, 120, 195, 190, 117, 2, 3.39363
194, 1, wb, attraction, a-b-da, 5, 3, 7, 21, 195, 120, 120, 195, 190, 117, 1, 0.83984
194, 1, wb, attraction, a-b-da, 2, 1, 7, 22, 134, 59, 135, 60, 60, 135, 2, 14.3482
194, 1, wb, attraction, a-b-da, 2, 1, 7, 22, 134, 59, 135, 60, 60, 135, 3, 3.01699
194, 1, wb, attraction, a-b-db, 5, 1, 7, 23, 135, 60, 58, 132, 60, 135, 3, 1.47743
194, 1, wb, attraction, a-b-db, 5, 1, 7, 23, 135, 60, 58, 132, 60, 135, 1, 1.2088
194, 1, wb, attraction, a-b-db, 14, 2, 7, 24, 165, 90, 83, 153, 90, 165, 2, 2.14976
194, 1, wb, attraction, a-b-db, 14, 2, 7, 24, 165, 90, 83, 153, 90, 165, 1, 0.806339
194, 1, wb, filler, NA, 999, 999, 7, 25, 163, 104, 107, 139, 175, 89, 2, 3.73206
194, 1, wb, filler, NA, 999, 999, 7, 25, 163, 104, 107, 139, 175, 89, 1, 0.845065
194, 1, wb, filler, NA, 999, 999, 7, 26, 180, 78, 72, 73, 158, 74, 2, 0.904567
194, 1, wb, filler, NA, 999, 999, 7, 26, 180, 78, 72, 73, 158, 74, 1, 0.786905
194, 1, wb, catch, NA, 999, 999, 7, 27, 102, 153, 77, 118, 120, 195, 2, 1.18532
194, 1, wb, catch, NA, 999, 999, 7, 27, 102, 153, 77, 118, 120, 195, 3, 0.480851
194, 1, wb, attraction, a-b-da, 14, 2, 7, 28, 153, 83, 90, 165, 165, 90, 1, 2.29932
194, 1, wb, attraction, a-b-da, 14, 2, 7, 28, 153, 83, 90, 165, 165, 90, 2, 0.437959
194, 1, wb, attraction, a-b-db, 2, 3, 7, 29, 120, 195, 195, 120, 119, 193, 1, 6.14649
194, 1, wb, attraction, a-b-db, 2, 3, 7, 29, 120, 195, 195, 120, 119, 193, 2, 0.361925
194, 1, wb, attraction, a-b-da, 9, 1, 7, 30, 135, 60, 60, 135, 129, 57, 2, 3.03303
194, 1, wb, attraction, a-b-da, 9, 1, 7, 30, 135, 60, 60, 135, 129, 57, 1, 1.03812
194, 1, wb, attraction, a-b-da, 5, 1, 7, 31, 132, 58, 135, 60, 60, 135, 2, 6.22638
194, 1, wb, attraction, a-b-da, 5, 1, 7, 31, 132, 58, 135, 60, 60, 135, 3, 1.00631
194, 1, wb, attraction, a-b-db, 2, 1, 7, 32, 135, 60, 59, 134, 60, 135, 3, 1.50793
194, 1, wb, attraction, a-b-db, 2, 1, 7, 32, 135, 60, 59, 134, 60, 135, 1, 0.814111
194, 1, wb, catch, NA, 999, 999, 7, 33, 128, 67, 145, 110, 187, 128, 1, 0.987178
194, 1, wb, catch, NA, 999, 999, 7, 33, 128, 67, 145, 110, 187, 128, 3, 0.506823
194, 1, wb, attraction, a-b-db, 9, 2, 7, 34, 165, 90, 86, 157, 90, 165, 2, 4.26008
194, 1, wb, attraction, a-b-db, 9, 2, 7, 34, 165, 90, 86, 157, 90, 165, 1, 0.34324
194, 1, wb, filler, NA, 999, 999, 7, 35, 159, 60, 118, 131, 146, 140, 1, 1.86306
194, 1, wb, filler, NA, 999, 999, 7, 35, 159, 60, 118, 131, 146, 140, 3, 0.611117
194, 1, wb, filler, NA, 999, 999, 7, 36, 134, 167, 74, 190, 63, 68, 3, 1.15219
194, 1, wb, filler, NA, 999, 999, 7, 36, 134, 167, 74, 190, 63, 68, 1, 0.505187
194, 1, wb, attraction, a-b-db, 5, 3, 7, 37, 195, 120, 120, 195, 117, 190, 3, 15.003
194, 1, wb, attraction, a-b-db, 5, 3, 7, 37, 195, 120, 120, 195, 117, 190, 1, 0.829612
194, 1, wb, filler, NA, 999, 999, 8, 1, 97, 122, 180, 93, 81, 60, 3, 1.20188
194, 1, wb, filler, NA, 999, 999, 8, 1, 97, 122, 180, 93, 81, 60, 2, 0.424849
194, 1, wb, attraction, a-b-db, 5, 2, 8, 2, 90, 165, 88, 161, 165, 90, 1, 4.90134
194, 1, wb, attraction, a-b-db, 5, 2, 8, 2, 90, 165, 88, 161, 165, 90, 3, 0.77507
194, 1, wb, attraction, a-b-da, 14, 2, 8, 3, 90, 165, 165, 90, 153, 83, 3, 1.10147
194, 1, wb, attraction, a-b-da, 14, 2, 8, 3, 90, 165, 165, 90, 153, 83, 1, 1.40844
194, 1, wb, filler, NA, 999, 999, 8, 4, 70, 163, 129, 153, 56, 191, 1, 4.59734
194, 1, wb, filler, NA, 999, 999, 8, 4, 70, 163, 129, 153, 56, 191, 2, 0.579071
194, 1, wb, attraction, a-b-db, 14, 2, 8, 5, 165, 90, 90, 165, 83, 153, 3, 2.14573
194, 1, wb, attraction, a-b-db, 14, 2, 8, 5, 165, 90, 90, 165, 83, 153, 1, 0.618211
194, 1, wb, attraction, a-b-db, 9, 2, 8, 6, 165, 90, 90, 165, 86, 157, 3, 1.27925
194, 1, wb, attraction, a-b-db, 9, 2, 8, 6, 165, 90, 90, 165, 86, 157, 1, 1.06687
194, 1, wb, attraction, a-b-da, 2, 1, 8, 7, 135, 60, 134, 59, 60, 135, 3, 27.7179
194, 1, wb, attraction, a-b-da, 2, 1, 8, 7, 135, 60, 134, 59, 60, 135, 1, 1.86369
194, 1, wb, filler, NA, 999, 999, 8, 8, 69, 178, 85, 162, 96, 109, 3, 3.01046
194, 1, wb, filler, NA, 999, 999, 8, 8, 69, 178, 85, 162, 96, 109, 2, 0.664254
194, 1, wb, attraction, a-b-db, 9, 3, 8, 9, 114, 186, 195, 120, 120, 195, 1, 1.32321
194, 1, wb, attraction, a-b-db, 9, 3, 8, 9, 114, 186, 195, 120, 120, 195, 2, 2.76481
194, 1, wb, attraction, a-b-db, 5, 3, 8, 10, 120, 195, 117, 190, 195, 120, 1, 2.95525
194, 1, wb, attraction, a-b-db, 5, 3, 8, 10, 120, 195, 117, 190, 195, 120, 3, 0.507639
194, 1, wb, attraction, a-b-da, 9, 1, 8, 11, 135, 60, 129, 57, 60, 135, 2, 2.45277
194, 1, wb, attraction, a-b-da, 9, 1, 8, 11, 135, 60, 129, 57, 60, 135, 1, 0.945239
194, 1, wb, attraction, a-b-db, 14, 1, 8, 12, 135, 60, 56, 125, 60, 135, 2, 2.04089
194, 1, wb, attraction, a-b-db, 14, 1, 8, 12, 135, 60, 56, 125, 60, 135, 1, 0.829757
194, 1, wb, attraction, a-b-db, 9, 1, 8, 13, 60, 135, 135, 60, 57, 129, 3, 31.0338
194, 1, wb, attraction, a-b-db, 9, 1, 8, 13, 60, 135, 135, 60, 57, 129, 2, 0.782128
194, 1, wb, attraction, a-b-db, 2, 2, 8, 14, 165, 90, 89, 163, 90, 165, 3, 1.66863
194, 1, wb, attraction, a-b-db, 2, 2, 8, 14, 165, 90, 89, 163, 90, 165, 1, 0.560662
194, 1, wb, catch, NA, 999, 999, 8, 15, 88, 107, 130, 185, 163, 92, 1, 1.2237
194, 1, wb, catch, NA, 999, 999, 8, 15, 88, 107, 130, 185, 163, 92, 2, 0.485371
194, 1, wb, filler, NA, 999, 999, 8, 16, 128, 106, 115, 113, 137, 175, 2, 0.983759
194, 1, wb, filler, NA, 999, 999, 8, 16, 128, 106, 115, 113, 137, 175, 3, 0.839488
194, 1, wb, filler, NA, 999, 999, 8, 17, 113, 163, 67, 95, 94, 137, 2, 0.748137
194, 1, wb, filler, NA, 999, 999, 8, 17, 113, 163, 67, 95, 94, 137, 1, 0.53288
194, 1, wb, attraction, a-b-da, 2, 2, 8, 18, 165, 90, 163, 89, 90, 165, 3, 10.6133
194, 1, wb, attraction, a-b-da, 2, 2, 8, 18, 165, 90, 163, 89, 90, 165, 2, 0.448671
194, 1, wb, filler, NA, 999, 999, 8, 19, 116, 115, 150, 148, 106, 122, 1, 1.6125
194, 1, wb, filler, NA, 999, 999, 8, 19, 116, 115, 150, 148, 106, 122, 2, 0.738597
194, 1, wb, attraction, a-b-db, 2, 1, 8, 20, 59, 134, 60, 135, 135, 60, 1, 4.08295
194, 1, wb, attraction, a-b-db, 2, 1, 8, 20, 59, 134, 60, 135, 135, 60, 3, 0.941703
194, 1, wb, attraction, a-b-da, 9, 3, 8, 21, 186, 114, 120, 195, 195, 120, 1, 1.38933
194, 1, wb, attraction, a-b-da, 9, 3, 8, 21, 186, 114, 120, 195, 195, 120, 2, 1.65227
194, 1, wb, attraction, a-b-da, 2, 3, 8, 22, 120, 195, 193, 119, 195, 120, 1, 7.99167
194, 1, wb, attraction, a-b-da, 2, 3, 8, 22, 120, 195, 193, 119, 195, 120, 3, 0.9725
194, 1, wb, attraction, a-b-da, 5, 1, 8, 23, 60, 135, 132, 58, 135, 60, 2, 6.37951
194, 1, wb, attraction, a-b-da, 5, 1, 8, 23, 60, 135, 132, 58, 135, 60, 3, 3.66545
194, 1, wb, filler, NA, 999, 999, 8, 24, 64, 65, 123, 60, 189, 149, 1, 0.907477
194, 1, wb, filler, NA, 999, 999, 8, 24, 64, 65, 123, 60, 189, 149, 3, 0.581949
194, 1, wb, filler, NA, 999, 999, 8, 25, 101, 77, 69, 129, 145, 132, 1, 1.81236
194, 1, wb, filler, NA, 999, 999, 8, 25, 101, 77, 69, 129, 145, 132, 3, 0.874348
194, 1, wb, attraction, a-b-da, 14, 1, 8, 26, 60, 135, 125, 56, 135, 60, 2, 2.5967
194, 1, wb, attraction, a-b-da, 14, 1, 8, 26, 60, 135, 125, 56, 135, 60, 3, 1.7312
194, 1, wb, catch, NA, 999, 999, 8, 27, 169, 146, 149, 106, 118, 77, 3, 1.29127
194, 1, wb, catch, NA, 999, 999, 8, 27, 169, 146, 149, 106, 118, 77, 1, 0.550132
194, 1, wb, catch, NA, 999, 999, 8, 28, 125, 190, 131, 64, 126, 129, 2, 0.821972
194, 1, wb, catch, NA, 999, 999, 8, 28, 125, 190, 131, 64, 126, 129, 1, 4.09974
194, 1, wb, filler, NA, 999, 999, 8, 29, 123, 181, 105, 78, 108, 94, 2, 0.988222
194, 1, wb, filler, NA, 999, 999, 8, 29, 123, 181, 105, 78, 108, 94, 1, 0.451205
194, 1, wb, attraction, a-b-da, 5, 3, 8, 30, 120, 195, 190, 117, 195, 120, 1, 4.75919
194, 1, wb, attraction, a-b-da, 5, 3, 8, 30, 120, 195, 190, 117, 195, 120, 2, 0.902263
194, 1, wb, attraction, a-b-da, 14, 3, 8, 31, 195, 120, 120, 195, 181, 111, 3, 1.26395
194, 1, wb, attraction, a-b-da, 14, 3, 8, 31, 195, 120, 120, 195, 181, 111, 1, 1.31625
194, 1, wb, attraction, a-b-da, 5, 2, 8, 32, 90, 165, 165, 90, 161, 88, 1, 3.84499
194, 1, wb, attraction, a-b-da, 5, 2, 8, 32, 90, 165, 165, 90, 161, 88, 2, 0.577254
194, 1, wb, filler, NA, 999, 999, 8, 33, 132, 93, 66, 155, 62, 92, 3, 0.919635
194, 1, wb, filler, NA, 999, 999, 8, 33, 132, 93, 66, 155, 62, 92, 1, 1.03391
194, 1, wb, attraction, a-b-db, 2, 3, 8, 34, 119, 193, 195, 120, 120, 195, 3, 7.37423
194, 1, wb, attraction, a-b-db, 2, 3, 8, 34, 119, 193, 195, 120, 120, 195, 2, 0.883804
194, 1, wb, attraction, a-b-db, 5, 1, 8, 35, 135, 60, 60, 135, 58, 132, 3, 4.18238
194, 1, wb, attraction, a-b-db, 5, 1, 8, 35, 135, 60, 60, 135, 58, 132, 1, 1.18879
194, 1, wb, attraction, a-b-da, 9, 2, 8, 36, 90, 165, 165, 90, 157, 86, 3, 1.41126
194, 1, wb, attraction, a-b-da, 9, 2, 8, 36, 90, 165, 165, 90, 157, 86, 1, 1.12932
194, 1, wb, attraction, a-b-db, 14, 3, 8, 37, 195, 120, 111, 181, 120, 195, 1, 1.97748
194, 1, wb, attraction, a-b-db, 14, 3, 8, 37, 195, 120, 111, 181, 120, 195, 3, 1.65699
