sub_n, computer_n, bw_cond, effect, set, distance, diag, block_n, trial_n, h1, w1, h2, w2, h3, w3, choice, rt 
1, 1, bw, practice, NA, 999, 999, 0, 1, 142, 116, 126, 90, 68, 123, 1, 3.77597
1, 1, bw, practice, NA, 999, 999, 0, 1, 142, 116, 126, 90, 68, 123, 3, 3.58275
1, 1, bw, practice, NA, 999, 999, 0, 2, 168, 160, 59, 96, 176, 70, 1, 2.20405
1, 1, bw, practice, NA, 999, 999, 0, 2, 168, 160, 59, 96, 176, 70, 2, 7.20742
1, 1, bw, practice, NA, 999, 999, 0, 3, 132, 95, 195, 95, 143, 145, 2, 4.57641
1, 1, bw, practice, NA, 999, 999, 0, 3, 132, 95, 195, 95, 143, 145, 1, 1.63195
1, 1, bw, attraction, a-b-db, 14, 3, 1, 1, 111, 181, 195, 120, 120, 195, 3, 4.48451
1, 1, bw, attraction, a-b-db, 14, 3, 1, 1, 111, 181, 195, 120, 120, 195, 1, 22.7367
1, 1, bw, catch, NA, 999, 999, 1, 2, 139, 176, 85, 110, 118, 137, 1, 5.17686
1, 1, bw, catch, NA, 999, 999, 1, 2, 139, 176, 85, 110, 118, 137, 2, 1.72922
1, 1, bw, attraction, a-b-db, 9, 3, 1, 3, 120, 195, 114, 186, 195, 120, 3, 14.6808
1, 1, bw, attraction, a-b-db, 9, 3, 1, 3, 120, 195, 114, 186, 195, 120, 2, 3.60062
1, 1, bw, filler, NA, 999, 999, 1, 4, 119, 112, 127, 89, 82, 56, 2, 4.43775
1, 1, bw, filler, NA, 999, 999, 1, 4, 119, 112, 127, 89, 82, 56, 3, 1.45241
1, 1, bw, filler, NA, 999, 999, 1, 5, 173, 175, 74, 61, 139, 124, 3, 16.5004
1, 1, bw, filler, NA, 999, 999, 1, 5, 173, 175, 74, 61, 139, 124, 2, 1.1323
1, 1, bw, attraction, a-b-db, 2, 3, 1, 6, 120, 195, 195, 120, 119, 193, 1, 21.6678
1, 1, bw, attraction, a-b-db, 2, 3, 1, 6, 120, 195, 195, 120, 119, 193, 2, 6.4677
1, 1, bw, attraction, a-b-db, 5, 2, 1, 7, 88, 161, 165, 90, 90, 165, 3, 6.72415
1, 1, bw, attraction, a-b-db, 5, 2, 1, 7, 88, 161, 165, 90, 90, 165, 2, 7.03683
1, 1, bw, attraction, a-b-db, 14, 2, 1, 8, 83, 153, 165, 90, 90, 165, 3, 4.10223
1, 1, bw, attraction, a-b-db, 14, 2, 1, 8, 83, 153, 165, 90, 90, 165, 2, 4.94456
1, 1, bw, attraction, a-b-da, 5, 2, 1, 9, 165, 90, 90, 165, 161, 88, 1, 10.8564
1, 1, bw, attraction, a-b-da, 5, 2, 1, 9, 165, 90, 90, 165, 161, 88, 3, 6.78559
1, 1, bw, attraction, a-b-da, 9, 1, 1, 10, 135, 60, 60, 135, 129, 57, 1, 13.1488
1, 1, bw, attraction, a-b-da, 9, 1, 1, 10, 135, 60, 60, 135, 129, 57, 2, 3.12399
1, 1, bw, catch, NA, 999, 999, 1, 11, 178, 137, 115, 140, 110, 85, 1, 2.8771
1, 1, bw, catch, NA, 999, 999, 1, 11, 178, 137, 115, 140, 110, 85, 3, 1.68805
1, 1, bw, attraction, a-b-da, 9, 2, 1, 12, 90, 165, 165, 90, 157, 86, 1, 40.1381
1, 1, bw, attraction, a-b-da, 9, 2, 1, 12, 90, 165, 165, 90, 157, 86, 3, 4.53693
1, 1, bw, filler, NA, 999, 999, 1, 13, 181, 94, 166, 81, 106, 99, 1, 3.97517
1, 1, bw, filler, NA, 999, 999, 1, 13, 181, 94, 166, 81, 106, 99, 2, 0.774832
1, 1, bw, attraction, a-b-db, 9, 1, 1, 14, 135, 60, 57, 129, 60, 135, 3, 25.9323
1, 1, bw, attraction, a-b-db, 9, 1, 1, 14, 135, 60, 57, 129, 60, 135, 2, 2.96065
1, 1, bw, filler, NA, 999, 999, 1, 15, 89, 159, 86, 162, 75, 152, 2, 4.74222
1, 1, bw, filler, NA, 999, 999, 1, 15, 89, 159, 86, 162, 75, 152, 3, 0.831539
1, 1, bw, attraction, a-b-db, 14, 1, 1, 16, 135, 60, 56, 125, 60, 135, 3, 3.35605
1, 1, bw, attraction, a-b-db, 14, 1, 1, 16, 135, 60, 56, 125, 60, 135, 2, 1.09232
1, 1, bw, filler, NA, 999, 999, 1, 17, 93, 164, 130, 187, 69, 176, 2, 4.28639
1, 1, bw, filler, NA, 999, 999, 1, 17, 93, 164, 130, 187, 69, 176, 3, 2.08898
1, 1, bw, attraction, a-b-da, 5, 1, 1, 18, 60, 135, 132, 58, 135, 60, 3, 12.2749
1, 1, bw, attraction, a-b-da, 5, 1, 1, 18, 60, 135, 132, 58, 135, 60, 1, 0.788641
1, 1, bw, filler, NA, 999, 999, 1, 19, 175, 98, 109, 178, 140, 164, 3, 4.21988
1, 1, bw, filler, NA, 999, 999, 1, 19, 175, 98, 109, 178, 140, 164, 2, 1.78312
1, 1, bw, attraction, a-b-da, 14, 1, 1, 20, 60, 135, 125, 56, 135, 60, 3, 6.48466
1, 1, bw, attraction, a-b-da, 14, 1, 1, 20, 60, 135, 125, 56, 135, 60, 2, 2.14464
1, 1, bw, attraction, a-b-db, 5, 3, 1, 21, 120, 195, 117, 190, 195, 120, 2, 14.1591
1, 1, bw, attraction, a-b-db, 5, 3, 1, 21, 120, 195, 117, 190, 195, 120, 3, 0.610333
1, 1, bw, attraction, a-b-da, 2, 3, 1, 22, 120, 195, 195, 120, 193, 119, 1, 9.4249
1, 1, bw, attraction, a-b-da, 2, 3, 1, 22, 120, 195, 195, 120, 193, 119, 3, 1.526
1, 1, bw, attraction, a-b-da, 2, 1, 1, 23, 134, 59, 60, 135, 135, 60, 3, 14.7806
1, 1, bw, attraction, a-b-da, 2, 1, 1, 23, 134, 59, 60, 135, 135, 60, 2, 2.21884
1, 1, bw, attraction, a-b-da, 2, 2, 1, 24, 165, 90, 163, 89, 90, 165, 2, 11.472
1, 1, bw, attraction, a-b-da, 2, 2, 1, 24, 165, 90, 163, 89, 90, 165, 3, 1.16037
1, 1, bw, attraction, a-b-da, 9, 3, 1, 25, 195, 120, 120, 195, 186, 114, 1, 4.84766
1, 1, bw, attraction, a-b-da, 9, 3, 1, 25, 195, 120, 120, 195, 186, 114, 3, 4.17986
1, 1, bw, attraction, a-b-db, 9, 2, 1, 26, 165, 90, 90, 165, 86, 157, 2, 7.20931
1, 1, bw, attraction, a-b-db, 9, 2, 1, 26, 165, 90, 90, 165, 86, 157, 3, 1.02269
1, 1, bw, attraction, a-b-db, 5, 1, 1, 27, 135, 60, 58, 132, 60, 135, 3, 6.10825
1, 1, bw, attraction, a-b-db, 5, 1, 1, 27, 135, 60, 58, 132, 60, 135, 2, 0.525063
1, 1, bw, filler, NA, 999, 999, 1, 28, 138, 172, 165, 115, 84, 148, 1, 4.47955
1, 1, bw, filler, NA, 999, 999, 1, 28, 138, 172, 165, 115, 84, 148, 3, 0.744739
1, 1, bw, attraction, a-b-db, 2, 2, 1, 29, 165, 90, 90, 165, 89, 163, 3, 5.31162
1, 1, bw, attraction, a-b-db, 2, 2, 1, 29, 165, 90, 90, 165, 89, 163, 2, 0.946799
1, 1, bw, attraction, a-b-da, 14, 2, 1, 30, 90, 165, 165, 90, 153, 83, 1, 7.20266
1, 1, bw, attraction, a-b-da, 14, 2, 1, 30, 90, 165, 165, 90, 153, 83, 3, 0.998931
1, 1, bw, filler, NA, 999, 999, 1, 31, 105, 110, 70, 153, 148, 146, 2, 5.66142
1, 1, bw, filler, NA, 999, 999, 1, 31, 105, 110, 70, 153, 148, 146, 1, 3.77682
1, 1, bw, catch, NA, 999, 999, 1, 32, 153, 162, 144, 111, 94, 101, 2, 4.58293
1, 1, bw, catch, NA, 999, 999, 1, 32, 153, 162, 144, 111, 94, 101, 3, 2.99831
1, 1, bw, attraction, a-b-da, 5, 3, 1, 33, 120, 195, 195, 120, 190, 117, 2, 14.2025
1, 1, bw, attraction, a-b-da, 5, 3, 1, 33, 120, 195, 195, 120, 190, 117, 3, 5.27793
1, 1, bw, attraction, a-b-db, 2, 1, 1, 34, 59, 134, 135, 60, 60, 135, 3, 8.63117
1, 1, bw, attraction, a-b-db, 2, 1, 1, 34, 59, 134, 135, 60, 60, 135, 2, 0.578139
1, 1, bw, attraction, a-b-da, 14, 3, 1, 35, 120, 195, 181, 111, 195, 120, 1, 7.22675
1, 1, bw, attraction, a-b-da, 14, 3, 1, 35, 120, 195, 181, 111, 195, 120, 2, 0.742493
1, 1, bw, filler, NA, 999, 999, 1, 36, 156, 168, 91, 193, 106, 114, 2, 3.19136
1, 1, bw, filler, NA, 999, 999, 1, 36, 156, 168, 91, 193, 106, 114, 3, 1.35837
1, 1, bw, filler, NA, 999, 999, 1, 37, 128, 152, 102, 94, 170, 176, 1, 6.86224
1, 1, bw, filler, NA, 999, 999, 1, 37, 128, 152, 102, 94, 170, 176, 2, 0.770184
1, 1, bw, filler, NA, 999, 999, 2, 1, 70, 167, 195, 98, 170, 147, 2, 3.74242
1, 1, bw, filler, NA, 999, 999, 2, 1, 70, 167, 195, 98, 170, 147, 1, 0.849848
1, 1, bw, filler, NA, 999, 999, 2, 2, 193, 187, 117, 178, 142, 110, 2, 3.70788
1, 1, bw, filler, NA, 999, 999, 2, 2, 193, 187, 117, 178, 142, 110, 3, 0.693347
1, 1, bw, attraction, a-b-db, 14, 1, 2, 3, 135, 60, 56, 125, 60, 135, 1, 5.92804
1, 1, bw, attraction, a-b-db, 14, 1, 2, 3, 135, 60, 56, 125, 60, 135, 2, 1.35322
1, 1, bw, attraction, a-b-db, 2, 3, 2, 4, 120, 195, 195, 120, 119, 193, 2, 8.17726
1, 1, bw, attraction, a-b-db, 2, 3, 2, 4, 120, 195, 195, 120, 119, 193, 3, 2.04618
1, 1, bw, attraction, a-b-db, 2, 2, 2, 5, 165, 90, 90, 165, 89, 163, 2, 5.41116
1, 1, bw, attraction, a-b-db, 2, 2, 2, 5, 165, 90, 90, 165, 89, 163, 1, 0.75423
1, 1, bw, attraction, a-b-da, 14, 3, 2, 6, 181, 111, 195, 120, 120, 195, 3, 3.2257
1, 1, bw, attraction, a-b-da, 14, 3, 2, 6, 181, 111, 195, 120, 120, 195, 1, 0.637703
1, 1, bw, attraction, a-b-da, 5, 2, 2, 7, 161, 88, 165, 90, 90, 165, 2, 3.07322
1, 1, bw, attraction, a-b-da, 5, 2, 2, 7, 161, 88, 165, 90, 90, 165, 3, 0.63788
1, 1, bw, attraction, a-b-db, 14, 3, 2, 8, 111, 181, 195, 120, 120, 195, 1, 4.49761
1, 1, bw, attraction, a-b-db, 14, 3, 2, 8, 111, 181, 195, 120, 120, 195, 2, 1.9889
1, 1, bw, filler, NA, 999, 999, 2, 9, 190, 59, 117, 158, 88, 194, 3, 5.01865
1, 1, bw, filler, NA, 999, 999, 2, 9, 190, 59, 117, 158, 88, 194, 1, 1.20044
1, 1, bw, catch, NA, 999, 999, 2, 10, 130, 65, 185, 130, 115, 140, 2, 3.21455
1, 1, bw, catch, NA, 999, 999, 2, 10, 130, 65, 185, 130, 115, 140, 1, 0.844091
1, 1, bw, attraction, a-b-da, 2, 1, 2, 11, 135, 60, 134, 59, 60, 135, 1, 7.43034
1, 1, bw, attraction, a-b-da, 2, 1, 2, 11, 135, 60, 134, 59, 60, 135, 3, 0.844789
1, 1, bw, attraction, a-b-da, 9, 1, 2, 12, 135, 60, 129, 57, 60, 135, 2, 2.55966
1, 1, bw, attraction, a-b-da, 9, 1, 2, 12, 135, 60, 129, 57, 60, 135, 3, 1.27209
1, 1, bw, catch, NA, 999, 999, 2, 13, 110, 145, 190, 125, 79, 116, 2, 1.50166
1, 1, bw, catch, NA, 999, 999, 2, 13, 110, 145, 190, 125, 79, 116, 3, 2.96493
1, 1, bw, attraction, a-b-db, 9, 2, 2, 14, 86, 157, 90, 165, 165, 90, 3, 3.02916
1, 1, bw, attraction, a-b-db, 9, 2, 2, 14, 86, 157, 90, 165, 165, 90, 1, 0.698712
1, 1, bw, attraction, a-b-da, 9, 3, 2, 15, 186, 114, 120, 195, 195, 120, 3, 5.5881
1, 1, bw, attraction, a-b-da, 9, 3, 2, 15, 186, 114, 120, 195, 195, 120, 1, 1.63609
1, 1, bw, filler, NA, 999, 999, 2, 16, 117, 107, 115, 109, 58, 119, 3, 4.41543
1, 1, bw, filler, NA, 999, 999, 2, 16, 117, 107, 115, 109, 58, 119, 2, 0.658679
1, 1, bw, attraction, a-b-db, 5, 3, 2, 17, 120, 195, 195, 120, 117, 190, 1, 5.76741
1, 1, bw, attraction, a-b-db, 5, 3, 2, 17, 120, 195, 195, 120, 117, 190, 2, 0.846098
1, 1, bw, filler, NA, 999, 999, 2, 18, 105, 102, 107, 172, 103, 183, 2, 1.92406
1, 1, bw, filler, NA, 999, 999, 2, 18, 105, 102, 107, 172, 103, 183, 3, 0.87024
1, 1, bw, filler, NA, 999, 999, 2, 19, 106, 99, 186, 117, 109, 115, 2, 3.6078
1, 1, bw, filler, NA, 999, 999, 2, 19, 106, 99, 186, 117, 109, 115, 1, 0.93282
1, 1, bw, attraction, a-b-da, 14, 1, 2, 20, 125, 56, 135, 60, 60, 135, 3, 2.91025
1, 1, bw, attraction, a-b-da, 14, 1, 2, 20, 125, 56, 135, 60, 60, 135, 1, 0.529165
1, 1, bw, attraction, a-b-da, 2, 3, 2, 21, 120, 195, 195, 120, 193, 119, 2, 3.24165
1, 1, bw, attraction, a-b-da, 2, 3, 2, 21, 120, 195, 195, 120, 193, 119, 3, 1.79097
1, 1, bw, attraction, a-b-db, 5, 1, 2, 22, 60, 135, 58, 132, 135, 60, 3, 5.87891
1, 1, bw, attraction, a-b-db, 5, 1, 2, 22, 60, 135, 58, 132, 135, 60, 2, 0.791574
1, 1, bw, attraction, a-b-da, 14, 2, 2, 23, 165, 90, 153, 83, 90, 165, 1, 2.8392
1, 1, bw, attraction, a-b-da, 14, 2, 2, 23, 165, 90, 153, 83, 90, 165, 3, 0.76294
1, 1, bw, attraction, a-b-db, 5, 2, 2, 24, 90, 165, 165, 90, 88, 161, 1, 3.77858
1, 1, bw, attraction, a-b-db, 5, 2, 2, 24, 90, 165, 165, 90, 88, 161, 3, 0.723262
1, 1, bw, attraction, a-b-db, 9, 3, 2, 25, 195, 120, 120, 195, 114, 186, 1, 3.43405
1, 1, bw, attraction, a-b-db, 9, 3, 2, 25, 195, 120, 120, 195, 114, 186, 3, 0.598866
1, 1, bw, attraction, a-b-da, 9, 2, 2, 26, 90, 165, 157, 86, 165, 90, 1, 4.89227
1, 1, bw, attraction, a-b-da, 9, 2, 2, 26, 90, 165, 157, 86, 165, 90, 3, 0.968189
1, 1, bw, attraction, a-b-db, 2, 1, 2, 27, 59, 134, 60, 135, 135, 60, 3, 4.93613
1, 1, bw, attraction, a-b-db, 2, 1, 2, 27, 59, 134, 60, 135, 135, 60, 1, 0.648432
1, 1, bw, catch, NA, 999, 999, 2, 28, 118, 137, 84, 111, 140, 175, 3, 2.32272
1, 1, bw, catch, NA, 999, 999, 2, 28, 118, 137, 84, 111, 140, 175, 2, 1.58229
1, 1, bw, filler, NA, 999, 999, 2, 29, 191, 120, 154, 135, 82, 129, 1, 6.28307
1, 1, bw, filler, NA, 999, 999, 2, 29, 191, 120, 154, 135, 82, 129, 3, 0.590302
1, 1, bw, filler, NA, 999, 999, 2, 30, 159, 178, 115, 117, 183, 188, 3, 6.20367
1, 1, bw, filler, NA, 999, 999, 2, 30, 159, 178, 115, 117, 183, 188, 2, 1.14641
1, 1, bw, attraction, a-b-db, 14, 2, 2, 31, 90, 165, 83, 153, 165, 90, 1, 10.4338
1, 1, bw, attraction, a-b-db, 14, 2, 2, 31, 90, 165, 83, 153, 165, 90, 2, 1.11801
1, 1, bw, attraction, a-b-da, 5, 3, 2, 32, 195, 120, 190, 117, 120, 195, 1, 10.1876
1, 1, bw, attraction, a-b-da, 5, 3, 2, 32, 195, 120, 190, 117, 120, 195, 3, 1.41722
1, 1, bw, attraction, a-b-da, 2, 2, 2, 33, 165, 90, 163, 89, 90, 165, 1, 2.50466
1, 1, bw, attraction, a-b-da, 2, 2, 2, 33, 165, 90, 163, 89, 90, 165, 3, 0.513864
1, 1, bw, filler, NA, 999, 999, 2, 34, 191, 114, 146, 89, 169, 62, 1, 2.23583
1, 1, bw, filler, NA, 999, 999, 2, 34, 191, 114, 146, 89, 169, 62, 3, 0.527938
1, 1, bw, attraction, a-b-da, 5, 1, 2, 35, 132, 58, 135, 60, 60, 135, 1, 3.61032
1, 1, bw, attraction, a-b-da, 5, 1, 2, 35, 132, 58, 135, 60, 60, 135, 3, 0.550252
1, 1, bw, filler, NA, 999, 999, 2, 36, 96, 174, 84, 110, 58, 180, 1, 3.05697
1, 1, bw, filler, NA, 999, 999, 2, 36, 96, 174, 84, 110, 58, 180, 2, 0.764508
1, 1, bw, attraction, a-b-db, 9, 1, 2, 37, 57, 129, 135, 60, 60, 135, 1, 4.2984
1, 1, bw, attraction, a-b-db, 9, 1, 2, 37, 57, 129, 135, 60, 60, 135, 2, 1.71825
1, 1, bw, attraction, a-b-db, 5, 1, 3, 1, 60, 135, 135, 60, 58, 132, 1, 2.84808
1, 1, bw, attraction, a-b-db, 5, 1, 3, 1, 60, 135, 135, 60, 58, 132, 3, 1.47563
1, 1, bw, attraction, a-b-da, 5, 1, 3, 2, 135, 60, 132, 58, 60, 135, 1, 4.14938
1, 1, bw, attraction, a-b-da, 5, 1, 3, 2, 135, 60, 132, 58, 60, 135, 3, 0.784229
1, 1, bw, filler, NA, 999, 999, 3, 3, 102, 125, 96, 147, 170, 193, 3, 1.72586
1, 1, bw, filler, NA, 999, 999, 3, 3, 102, 125, 96, 147, 170, 193, 1, 0.853828
1, 1, bw, filler, NA, 999, 999, 3, 4, 97, 91, 187, 93, 78, 125, 2, 2.30716
1, 1, bw, filler, NA, 999, 999, 3, 4, 97, 91, 187, 93, 78, 125, 3, 1.64597
1, 1, bw, attraction, a-b-db, 2, 2, 3, 5, 89, 163, 90, 165, 165, 90, 1, 3.79238
1, 1, bw, attraction, a-b-db, 2, 2, 3, 5, 89, 163, 90, 165, 165, 90, 2, 1.29375
1, 1, bw, attraction, a-b-db, 2, 3, 3, 6, 120, 195, 119, 193, 195, 120, 1, 2.8511
1, 1, bw, attraction, a-b-db, 2, 3, 3, 6, 120, 195, 119, 193, 195, 120, 2, 1.7985
1, 1, bw, attraction, a-b-da, 9, 3, 3, 7, 186, 114, 195, 120, 120, 195, 3, 7.26864
1, 1, bw, attraction, a-b-da, 9, 3, 3, 7, 186, 114, 195, 120, 120, 195, 1, 3.27861
1, 1, bw, filler, NA, 999, 999, 3, 8, 114, 146, 144, 59, 99, 141, 1, 2.20087
1, 1, bw, filler, NA, 999, 999, 3, 8, 114, 146, 144, 59, 99, 141, 2, 1.19681
1, 1, bw, attraction, a-b-da, 2, 2, 3, 9, 90, 165, 163, 89, 165, 90, 3, 3.78889
1, 1, bw, attraction, a-b-da, 2, 2, 3, 9, 90, 165, 163, 89, 165, 90, 1, 0.708052
1, 1, bw, attraction, a-b-db, 14, 3, 3, 10, 120, 195, 195, 120, 111, 181, 1, 5.67594
1, 1, bw, attraction, a-b-db, 14, 3, 3, 10, 120, 195, 195, 120, 111, 181, 3, 0.664225
1, 1, bw, filler, NA, 999, 999, 3, 11, 141, 170, 66, 88, 189, 85, 1, 2.50068
1, 1, bw, filler, NA, 999, 999, 3, 11, 141, 170, 66, 88, 189, 85, 2, 0.672331
1, 1, bw, filler, NA, 999, 999, 3, 12, 170, 109, 81, 133, 190, 144, 3, 2.06544
1, 1, bw, filler, NA, 999, 999, 3, 12, 170, 109, 81, 133, 190, 144, 2, 0.68588
1, 1, bw, attraction, a-b-da, 9, 2, 3, 13, 165, 90, 157, 86, 90, 165, 1, 2.60172
1, 1, bw, attraction, a-b-da, 9, 2, 3, 13, 165, 90, 157, 86, 90, 165, 3, 0.918197
1, 1, bw, attraction, a-b-da, 9, 1, 3, 14, 135, 60, 60, 135, 129, 57, 1, 2.27953
1, 1, bw, attraction, a-b-da, 9, 1, 3, 14, 135, 60, 60, 135, 129, 57, 2, 0.667176
1, 1, bw, attraction, a-b-db, 14, 2, 3, 15, 165, 90, 83, 153, 90, 165, 1, 2.15661
1, 1, bw, attraction, a-b-db, 14, 2, 3, 15, 165, 90, 83, 153, 90, 165, 2, 0.606333
1, 1, bw, attraction, a-b-db, 9, 2, 3, 16, 165, 90, 86, 157, 90, 165, 3, 5.37921
1, 1, bw, attraction, a-b-db, 9, 2, 3, 16, 165, 90, 86, 157, 90, 165, 2, 1.53778
1, 1, bw, attraction, a-b-db, 5, 3, 3, 17, 117, 190, 195, 120, 120, 195, 3, 2.44203
1, 1, bw, attraction, a-b-db, 5, 3, 3, 17, 117, 190, 195, 120, 120, 195, 2, 1.16064
1, 1, bw, attraction, a-b-da, 2, 3, 3, 18, 120, 195, 193, 119, 195, 120, 1, 3.70427
1, 1, bw, attraction, a-b-da, 2, 3, 3, 18, 120, 195, 193, 119, 195, 120, 2, 0.746892
1, 1, bw, filler, NA, 999, 999, 3, 19, 191, 90, 95, 166, 130, 96, 1, 4.28442
1, 1, bw, filler, NA, 999, 999, 3, 19, 191, 90, 95, 166, 130, 96, 3, 0.901771
1, 1, bw, catch, NA, 999, 999, 3, 20, 91, 104, 122, 193, 156, 99, 2, 1.83969
1, 1, bw, catch, NA, 999, 999, 3, 20, 91, 104, 122, 193, 156, 99, 1, 0.900513
1, 1, bw, attraction, a-b-db, 9, 3, 3, 21, 195, 120, 114, 186, 120, 195, 1, 4.18043
1, 1, bw, attraction, a-b-db, 9, 3, 3, 21, 195, 120, 114, 186, 120, 195, 2, 1.44681
1, 1, bw, filler, NA, 999, 999, 3, 22, 106, 85, 166, 159, 155, 192, 3, 3.24139
1, 1, bw, filler, NA, 999, 999, 3, 22, 106, 85, 166, 159, 155, 192, 1, 0.974345
1, 1, bw, catch, NA, 999, 999, 3, 23, 66, 129, 117, 138, 156, 159, 2, 3.01396
1, 1, bw, catch, NA, 999, 999, 3, 23, 66, 129, 117, 138, 156, 159, 1, 1.03553
1, 1, bw, attraction, a-b-da, 14, 3, 3, 24, 120, 195, 195, 120, 181, 111, 1, 2.26313
1, 1, bw, attraction, a-b-da, 14, 3, 3, 24, 120, 195, 195, 120, 181, 111, 3, 0.64308
1, 1, bw, attraction, a-b-db, 14, 1, 3, 25, 135, 60, 56, 125, 60, 135, 1, 3.61543
1, 1, bw, attraction, a-b-db, 14, 1, 3, 25, 135, 60, 56, 125, 60, 135, 2, 1.77301
1, 1, bw, attraction, a-b-db, 2, 1, 3, 26, 59, 134, 135, 60, 60, 135, 1, 3.67475
1, 1, bw, attraction, a-b-db, 2, 1, 3, 26, 59, 134, 135, 60, 60, 135, 2, 0.774029
1, 1, bw, attraction, a-b-da, 2, 1, 3, 27, 60, 135, 134, 59, 135, 60, 1, 4.00654
1, 1, bw, attraction, a-b-da, 2, 1, 3, 27, 60, 135, 134, 59, 135, 60, 3, 0.915719
1, 1, bw, attraction, a-b-db, 5, 2, 3, 28, 165, 90, 88, 161, 90, 165, 1, 2.25141
1, 1, bw, attraction, a-b-db, 5, 2, 3, 28, 165, 90, 88, 161, 90, 165, 3, 0.649773
1, 1, bw, filler, NA, 999, 999, 3, 29, 74, 71, 168, 141, 90, 144, 2, 2.10012
1, 1, bw, filler, NA, 999, 999, 3, 29, 74, 71, 168, 141, 90, 144, 3, 1.43849
1, 1, bw, attraction, a-b-db, 9, 1, 3, 30, 60, 135, 135, 60, 57, 129, 1, 4.27659
1, 1, bw, attraction, a-b-db, 9, 1, 3, 30, 60, 135, 135, 60, 57, 129, 3, 0.559907
1, 1, bw, attraction, a-b-da, 14, 1, 3, 31, 60, 135, 135, 60, 125, 56, 2, 3.34384
1, 1, bw, attraction, a-b-da, 14, 1, 3, 31, 60, 135, 135, 60, 125, 56, 3, 1.55234
1, 1, bw, filler, NA, 999, 999, 3, 32, 175, 61, 103, 71, 94, 120, 3, 61.3687
1, 1, bw, filler, NA, 999, 999, 3, 32, 175, 61, 103, 71, 94, 120, 2, 2.4289
1, 1, bw, attraction, a-b-da, 5, 2, 3, 33, 161, 88, 165, 90, 90, 165, 2, 16.3548
1, 1, bw, attraction, a-b-da, 5, 2, 3, 33, 161, 88, 165, 90, 90, 165, 3, 1.25351
1, 1, bw, attraction, a-b-da, 14, 2, 3, 34, 153, 83, 165, 90, 90, 165, 3, 2.95338
1, 1, bw, attraction, a-b-da, 14, 2, 3, 34, 153, 83, 165, 90, 90, 165, 1, 0.649988
1, 1, bw, catch, NA, 999, 999, 3, 35, 110, 85, 121, 194, 130, 125, 2, 1.87941
1, 1, bw, catch, NA, 999, 999, 3, 35, 110, 85, 121, 194, 130, 125, 1, 0.62631
1, 1, bw, attraction, a-b-da, 5, 3, 3, 36, 190, 117, 195, 120, 120, 195, 2, 5.55064
1, 1, bw, attraction, a-b-da, 5, 3, 3, 36, 190, 117, 195, 120, 120, 195, 3, 1.51718
1, 1, bw, filler, NA, 999, 999, 3, 37, 153, 152, 140, 159, 128, 130, 2, 5.27787
1, 1, bw, filler, NA, 999, 999, 3, 37, 153, 152, 140, 159, 128, 130, 3, 2.40246
1, 1, bw, attraction, a-b-da, 9, 1, 4, 1, 135, 60, 60, 135, 129, 57, 2, 1.91938
1, 1, bw, attraction, a-b-da, 9, 1, 4, 1, 135, 60, 60, 135, 129, 57, 3, 0.721597
1, 1, bw, attraction, a-b-db, 2, 2, 4, 2, 165, 90, 89, 163, 90, 165, 2, 3.34564
1, 1, bw, attraction, a-b-db, 2, 2, 4, 2, 165, 90, 89, 163, 90, 165, 3, 0.91366
1, 1, bw, attraction, a-b-da, 14, 1, 4, 3, 60, 135, 125, 56, 135, 60, 3, 1.87733
1, 1, bw, attraction, a-b-da, 14, 1, 4, 3, 60, 135, 125, 56, 135, 60, 2, 3.217
1, 1, bw, catch, NA, 999, 999, 4, 4, 113, 82, 113, 142, 137, 178, 3, 2.02151
1, 1, bw, catch, NA, 999, 999, 4, 4, 113, 82, 113, 142, 137, 178, 1, 0.916481
1, 1, bw, filler, NA, 999, 999, 4, 5, 141, 178, 174, 129, 110, 159, 1, 3.94001
1, 1, bw, filler, NA, 999, 999, 4, 5, 141, 178, 174, 129, 110, 159, 3, 1.01218
1, 1, bw, attraction, a-b-db, 2, 1, 4, 6, 135, 60, 59, 134, 60, 135, 1, 3.44165
1, 1, bw, attraction, a-b-db, 2, 1, 4, 6, 135, 60, 59, 134, 60, 135, 3, 0.743939
1, 1, bw, attraction, a-b-db, 14, 2, 4, 7, 165, 90, 90, 165, 83, 153, 1, 3.85588
1, 1, bw, attraction, a-b-db, 14, 2, 4, 7, 165, 90, 90, 165, 83, 153, 3, 0.931963
1, 1, bw, filler, NA, 999, 999, 4, 8, 193, 122, 70, 122, 64, 130, 1, 2.04529
1, 1, bw, filler, NA, 999, 999, 4, 8, 193, 122, 70, 122, 64, 130, 3, 1.79257
1, 1, bw, catch, NA, 999, 999, 4, 9, 122, 73, 166, 149, 157, 98, 2, 3.52131
1, 1, bw, catch, NA, 999, 999, 4, 9, 122, 73, 166, 149, 157, 98, 1, 0.736423
1, 1, bw, filler, NA, 999, 999, 4, 10, 115, 90, 109, 195, 107, 164, 2, 2.05705
1, 1, bw, filler, NA, 999, 999, 4, 10, 115, 90, 109, 195, 107, 164, 1, 0.679795
1, 1, bw, attraction, a-b-db, 9, 3, 4, 11, 195, 120, 120, 195, 114, 186, 1, 2.17024
1, 1, bw, attraction, a-b-db, 9, 3, 4, 11, 195, 120, 120, 195, 114, 186, 3, 0.759819
1, 1, bw, filler, NA, 999, 999, 4, 12, 77, 80, 140, 101, 183, 58, 2, 2.53706
1, 1, bw, filler, NA, 999, 999, 4, 12, 77, 80, 140, 101, 183, 58, 3, 1.22883
1, 1, bw, attraction, a-b-db, 5, 2, 4, 13, 88, 161, 90, 165, 165, 90, 2, 3.93437
1, 1, bw, attraction, a-b-db, 5, 2, 4, 13, 88, 161, 90, 165, 165, 90, 1, 1.06285
1, 1, bw, attraction, a-b-da, 5, 2, 4, 14, 165, 90, 161, 88, 90, 165, 3, 4.64369
1, 1, bw, attraction, a-b-da, 5, 2, 4, 14, 165, 90, 161, 88, 90, 165, 2, 0.519196
1, 1, bw, attraction, a-b-da, 9, 3, 4, 15, 120, 195, 186, 114, 195, 120, 3, 12.0649
1, 1, bw, attraction, a-b-da, 9, 3, 4, 15, 120, 195, 186, 114, 195, 120, 2, 0.673259
1, 1, bw, filler, NA, 999, 999, 4, 16, 157, 58, 164, 192, 69, 118, 2, 9.55783
1, 1, bw, filler, NA, 999, 999, 4, 16, 157, 58, 164, 192, 69, 118, 3, 1.53284
1, 1, bw, attraction, a-b-da, 9, 2, 4, 17, 157, 86, 165, 90, 90, 165, 3, 10.8543
1, 1, bw, attraction, a-b-da, 9, 2, 4, 17, 157, 86, 165, 90, 90, 165, 1, 0.605516
1, 1, bw, attraction, a-b-da, 2, 3, 4, 18, 120, 195, 193, 119, 195, 120, 3, 11.3161
1, 1, bw, attraction, a-b-da, 2, 3, 4, 18, 120, 195, 193, 119, 195, 120, 1, 1.31532
1, 1, bw, catch, NA, 999, 999, 4, 19, 172, 143, 110, 85, 103, 152, 1, 5.78755
1, 1, bw, catch, NA, 999, 999, 4, 19, 172, 143, 110, 85, 103, 152, 2, 0.570624
1, 1, bw, attraction, a-b-da, 2, 1, 4, 20, 134, 59, 135, 60, 60, 135, 2, 3.75259
1, 1, bw, attraction, a-b-da, 2, 1, 4, 20, 134, 59, 135, 60, 60, 135, 1, 0.960302
1, 1, bw, filler, NA, 999, 999, 4, 21, 74, 156, 154, 161, 113, 60, 1, 9.4824
1, 1, bw, filler, NA, 999, 999, 4, 21, 74, 156, 154, 161, 113, 60, 3, 1.69832
1, 1, bw, filler, NA, 999, 999, 4, 22, 56, 115, 151, 117, 115, 156, 3, 6.20371
1, 1, bw, filler, NA, 999, 999, 4, 22, 56, 115, 151, 117, 115, 156, 1, 3.06515
1, 1, bw, attraction, a-b-da, 5, 3, 4, 23, 190, 117, 195, 120, 120, 195, 1, 4.52428
1, 1, bw, attraction, a-b-da, 5, 3, 4, 23, 190, 117, 195, 120, 120, 195, 3, 0.676368
1, 1, bw, filler, NA, 999, 999, 4, 24, 190, 194, 147, 139, 133, 92, 3, 3.00173
1, 1, bw, filler, NA, 999, 999, 4, 24, 190, 194, 147, 139, 133, 92, 2, 0.966594
1, 1, bw, attraction, a-b-da, 5, 1, 4, 25, 135, 60, 60, 135, 132, 58, 1, 7.34893
1, 1, bw, attraction, a-b-da, 5, 1, 4, 25, 135, 60, 60, 135, 132, 58, 2, 0.740932
1, 1, bw, attraction, a-b-db, 9, 2, 4, 26, 165, 90, 90, 165, 86, 157, 3, 12.0631
1, 1, bw, attraction, a-b-db, 9, 2, 4, 26, 165, 90, 90, 165, 86, 157, 2, 0.670704
1, 1, bw, attraction, a-b-db, 2, 3, 4, 27, 195, 120, 120, 195, 119, 193, 3, 3.09778
1, 1, bw, attraction, a-b-db, 2, 3, 4, 27, 195, 120, 120, 195, 119, 193, 1, 2.90884
1, 1, bw, attraction, a-b-da, 14, 2, 4, 28, 165, 90, 153, 83, 90, 165, 1, 3.63926
1, 1, bw, attraction, a-b-da, 14, 2, 4, 28, 165, 90, 153, 83, 90, 165, 3, 0.763867
1, 1, bw, attraction, a-b-da, 2, 2, 4, 29, 165, 90, 90, 165, 163, 89, 3, 3.75304
1, 1, bw, attraction, a-b-da, 2, 2, 4, 29, 165, 90, 90, 165, 163, 89, 2, 0.609806
1, 1, bw, attraction, a-b-db, 5, 3, 4, 30, 117, 190, 195, 120, 120, 195, 2, 5.35914
1, 1, bw, attraction, a-b-db, 5, 3, 4, 30, 117, 190, 195, 120, 120, 195, 1, 1.272
1, 1, bw, filler, NA, 999, 999, 4, 31, 163, 148, 66, 105, 75, 121, 3, 10.6498
1, 1, bw, filler, NA, 999, 999, 4, 31, 163, 148, 66, 105, 75, 121, 2, 2.2109
1, 1, bw, attraction, a-b-db, 14, 3, 4, 32, 111, 181, 195, 120, 120, 195, 1, 9.72181
1, 1, bw, attraction, a-b-db, 14, 3, 4, 32, 111, 181, 195, 120, 120, 195, 3, 0.952291
1, 1, bw, attraction, a-b-da, 14, 3, 4, 33, 181, 111, 195, 120, 120, 195, 3, 3.58524
1, 1, bw, attraction, a-b-da, 14, 3, 4, 33, 181, 111, 195, 120, 120, 195, 1, 1.04666
1, 1, bw, attraction, a-b-db, 14, 1, 4, 34, 135, 60, 60, 135, 56, 125, 2, 3.03788
1, 1, bw, attraction, a-b-db, 14, 1, 4, 34, 135, 60, 60, 135, 56, 125, 3, 0.712059
1, 1, bw, filler, NA, 999, 999, 4, 35, 176, 111, 132, 116, 158, 150, 1, 4.74537
1, 1, bw, filler, NA, 999, 999, 4, 35, 176, 111, 132, 116, 158, 150, 2, 0.731119
1, 1, bw, attraction, a-b-db, 9, 1, 4, 36, 60, 135, 135, 60, 57, 129, 1, 4.69918
1, 1, bw, attraction, a-b-db, 9, 1, 4, 36, 60, 135, 135, 60, 57, 129, 3, 0.564348
1, 1, bw, attraction, a-b-db, 5, 1, 4, 37, 58, 132, 60, 135, 135, 60, 3, 3.18952
1, 1, bw, attraction, a-b-db, 5, 1, 4, 37, 58, 132, 60, 135, 135, 60, 1, 0.958878
1, 1, bw, attraction, a-b-da, 9, 2, 5, 1, 157, 86, 165, 90, 90, 165, 3, 23.6746
1, 1, bw, attraction, a-b-da, 9, 2, 5, 1, 157, 86, 165, 90, 90, 165, 1, 0.609193
1, 1, bw, attraction, a-b-da, 2, 1, 5, 2, 134, 59, 135, 60, 60, 135, 3, 3.0937
1, 1, bw, attraction, a-b-da, 2, 1, 5, 2, 134, 59, 135, 60, 60, 135, 1, 0.95933
1, 1, bw, filler, NA, 999, 999, 5, 3, 57, 134, 191, 164, 105, 174, 2, 3.2348
1, 1, bw, filler, NA, 999, 999, 5, 3, 57, 134, 191, 164, 105, 174, 1, 0.781823
1, 1, bw, catch, NA, 999, 999, 5, 4, 115, 140, 110, 85, 180, 135, 3, 1.62012
1, 1, bw, catch, NA, 999, 999, 5, 4, 115, 140, 110, 85, 180, 135, 2, 0.76178
1, 1, bw, attraction, a-b-da, 2, 3, 5, 5, 120, 195, 195, 120, 193, 119, 1, 3.68176
1, 1, bw, attraction, a-b-da, 2, 3, 5, 5, 120, 195, 195, 120, 193, 119, 3, 0.563766
1, 1, bw, attraction, a-b-db, 14, 2, 5, 6, 165, 90, 90, 165, 83, 153, 1, 3.36337
1, 1, bw, attraction, a-b-db, 14, 2, 5, 6, 165, 90, 90, 165, 83, 153, 3, 0.866958
1, 1, bw, catch, NA, 999, 999, 5, 7, 136, 179, 111, 144, 73, 122, 1, 1.45496
1, 1, bw, catch, NA, 999, 999, 5, 7, 136, 179, 111, 144, 73, 122, 3, 0.610723
1, 1, bw, attraction, a-b-db, 2, 2, 5, 8, 90, 165, 165, 90, 89, 163, 3, 2.43287
1, 1, bw, attraction, a-b-db, 2, 2, 5, 8, 90, 165, 165, 90, 89, 163, 1, 0.759656
1, 1, bw, filler, NA, 999, 999, 5, 9, 117, 154, 109, 78, 187, 188, 1, 8.293
1, 1, bw, filler, NA, 999, 999, 5, 9, 117, 154, 109, 78, 187, 188, 2, 0.632757
1, 1, bw, attraction, a-b-da, 14, 2, 5, 10, 90, 165, 153, 83, 165, 90, 1, 1.97316
1, 1, bw, attraction, a-b-da, 14, 2, 5, 10, 90, 165, 153, 83, 165, 90, 2, 0.643307
1, 1, bw, filler, NA, 999, 999, 5, 11, 79, 135, 73, 61, 142, 97, 3, 3.70584
1, 1, bw, filler, NA, 999, 999, 5, 11, 79, 135, 73, 61, 142, 97, 2, 0.531116
1, 1, bw, attraction, a-b-da, 9, 3, 5, 12, 195, 120, 120, 195, 186, 114, 1, 2.66747
1, 1, bw, attraction, a-b-da, 9, 3, 5, 12, 195, 120, 120, 195, 186, 114, 2, 1.47976
1, 1, bw, filler, NA, 999, 999, 5, 13, 163, 147, 129, 91, 155, 147, 1, 3.16293
1, 1, bw, filler, NA, 999, 999, 5, 13, 163, 147, 129, 91, 155, 147, 2, 0.585594
1, 1, bw, filler, NA, 999, 999, 5, 14, 112, 188, 83, 111, 152, 130, 1, 1.77745
1, 1, bw, filler, NA, 999, 999, 5, 14, 112, 188, 83, 111, 152, 130, 2, 0.698068
1, 1, bw, attraction, a-b-da, 14, 3, 5, 15, 120, 195, 195, 120, 181, 111, 1, 5.41854
1, 1, bw, attraction, a-b-da, 14, 3, 5, 15, 120, 195, 195, 120, 181, 111, 3, 2.06431
1, 1, bw, attraction, a-b-da, 5, 2, 5, 16, 161, 88, 90, 165, 165, 90, 3, 12.8274
1, 1, bw, attraction, a-b-da, 5, 2, 5, 16, 161, 88, 90, 165, 165, 90, 2, 1.25161
1, 1, bw, catch, NA, 999, 999, 5, 17, 95, 100, 186, 129, 100, 155, 2, 9.27368
1, 1, bw, catch, NA, 999, 999, 5, 17, 95, 100, 186, 129, 100, 155, 3, 0.683272
1, 1, bw, filler, NA, 999, 999, 5, 18, 141, 161, 193, 126, 109, 90, 2, 7.89239
1, 1, bw, filler, NA, 999, 999, 5, 18, 141, 161, 193, 126, 109, 90, 3, 1.38437
1, 1, bw, filler, NA, 999, 999, 5, 19, 79, 102, 187, 126, 166, 61, 2, 5.5573
1, 1, bw, filler, NA, 999, 999, 5, 19, 79, 102, 187, 126, 166, 61, 1, 0.940209
1, 1, bw, filler, NA, 999, 999, 5, 20, 179, 75, 186, 140, 143, 69, 2, 5.34685
1, 1, bw, filler, NA, 999, 999, 5, 20, 179, 75, 186, 140, 143, 69, 3, 3.28429
1, 1, bw, attraction, a-b-db, 9, 3, 5, 21, 195, 120, 114, 186, 120, 195, 1, 2.19764
1, 1, bw, attraction, a-b-db, 9, 3, 5, 21, 195, 120, 114, 186, 120, 195, 2, 2.94286
1, 1, bw, attraction, a-b-db, 14, 1, 5, 22, 60, 135, 56, 125, 135, 60, 3, 2.68606
1, 1, bw, attraction, a-b-db, 14, 1, 5, 22, 60, 135, 56, 125, 135, 60, 2, 0.638697
1, 1, bw, attraction, a-b-da, 9, 1, 5, 23, 135, 60, 129, 57, 60, 135, 1, 2.43563
1, 1, bw, attraction, a-b-da, 9, 1, 5, 23, 135, 60, 129, 57, 60, 135, 2, 0.521561
1, 1, bw, attraction, a-b-da, 5, 1, 5, 24, 135, 60, 60, 135, 132, 58, 1, 1.86647
1, 1, bw, attraction, a-b-da, 5, 1, 5, 24, 135, 60, 60, 135, 132, 58, 2, 0.526161
1, 1, bw, attraction, a-b-da, 2, 2, 5, 25, 163, 89, 165, 90, 90, 165, 3, 4.02175
1, 1, bw, attraction, a-b-da, 2, 2, 5, 25, 163, 89, 165, 90, 90, 165, 2, 0.861275
1, 1, bw, attraction, a-b-db, 2, 1, 5, 26, 59, 134, 135, 60, 60, 135, 3, 13.874
1, 1, bw, attraction, a-b-db, 2, 1, 5, 26, 59, 134, 135, 60, 60, 135, 2, 0.72909
1, 1, bw, attraction, a-b-db, 14, 3, 5, 27, 111, 181, 195, 120, 120, 195, 3, 8.09129
1, 1, bw, attraction, a-b-db, 14, 3, 5, 27, 111, 181, 195, 120, 120, 195, 1, 1.55609
1, 1, bw, attraction, a-b-db, 9, 1, 5, 28, 57, 129, 60, 135, 135, 60, 2, 3.2905
1, 1, bw, attraction, a-b-db, 9, 1, 5, 28, 57, 129, 60, 135, 135, 60, 3, 0.797394
1, 1, bw, attraction, a-b-db, 5, 3, 5, 29, 195, 120, 120, 195, 117, 190, 1, 3.72258
1, 1, bw, attraction, a-b-db, 5, 3, 5, 29, 195, 120, 120, 195, 117, 190, 2, 1.09989
1, 1, bw, filler, NA, 999, 999, 5, 30, 157, 125, 139, 95, 170, 159, 1, 3.72571
1, 1, bw, filler, NA, 999, 999, 5, 30, 157, 125, 139, 95, 170, 159, 2, 0.646595
1, 1, bw, attraction, a-b-db, 2, 3, 5, 31, 120, 195, 119, 193, 195, 120, 1, 3.73368
1, 1, bw, attraction, a-b-db, 2, 3, 5, 31, 120, 195, 119, 193, 195, 120, 3, 0.725811
1, 1, bw, attraction, a-b-db, 5, 2, 5, 32, 165, 90, 90, 165, 88, 161, 2, 1.72749
1, 1, bw, attraction, a-b-db, 5, 2, 5, 32, 165, 90, 90, 165, 88, 161, 1, 0.608894
1, 1, bw, attraction, a-b-da, 5, 3, 5, 33, 120, 195, 195, 120, 190, 117, 3, 5.34131
1, 1, bw, attraction, a-b-da, 5, 3, 5, 33, 120, 195, 195, 120, 190, 117, 2, 0.704956
1, 1, bw, filler, NA, 999, 999, 5, 34, 98, 173, 61, 148, 171, 65, 1, 2.03084
1, 1, bw, filler, NA, 999, 999, 5, 34, 98, 173, 61, 148, 171, 65, 2, 0.750954
1, 1, bw, attraction, a-b-db, 5, 1, 5, 35, 135, 60, 58, 132, 60, 135, 1, 2.35866
1, 1, bw, attraction, a-b-db, 5, 1, 5, 35, 135, 60, 58, 132, 60, 135, 3, 0.853281
1, 1, bw, attraction, a-b-da, 14, 1, 5, 36, 125, 56, 135, 60, 60, 135, 3, 3.04192
1, 1, bw, attraction, a-b-da, 14, 1, 5, 36, 125, 56, 135, 60, 60, 135, 2, 1.15901
1, 1, bw, attraction, a-b-db, 9, 2, 5, 37, 86, 157, 90, 165, 165, 90, 2, 3.46072
1, 1, bw, attraction, a-b-db, 9, 2, 5, 37, 86, 157, 90, 165, 165, 90, 3, 0.569016
1, 1, bw, filler, NA, 999, 999, 6, 1, 171, 159, 58, 67, 75, 119, 3, 3.13766
1, 1, bw, filler, NA, 999, 999, 6, 1, 171, 159, 58, 67, 75, 119, 2, 0.603106
1, 1, bw, attraction, a-b-db, 5, 1, 6, 2, 135, 60, 60, 135, 58, 132, 2, 6.04083
1, 1, bw, attraction, a-b-db, 5, 1, 6, 2, 135, 60, 60, 135, 58, 132, 3, 0.956043
1, 1, bw, filler, NA, 999, 999, 6, 3, 85, 121, 149, 142, 106, 56, 1, 14.2037
1, 1, bw, filler, NA, 999, 999, 6, 3, 85, 121, 149, 142, 106, 56, 3, 0.749566
1, 1, bw, catch, NA, 999, 999, 6, 4, 162, 153, 130, 65, 107, 148, 3, 3.30307
1, 1, bw, catch, NA, 999, 999, 6, 4, 162, 153, 130, 65, 107, 148, 2, 0.760631
1, 1, bw, filler, NA, 999, 999, 6, 5, 126, 111, 139, 190, 91, 178, 3, 1.817
1, 1, bw, filler, NA, 999, 999, 6, 5, 126, 111, 139, 190, 91, 178, 1, 2.62542
1, 1, bw, filler, NA, 999, 999, 6, 6, 167, 80, 71, 117, 145, 100, 3, 7.84486
1, 1, bw, filler, NA, 999, 999, 6, 6, 167, 80, 71, 117, 145, 100, 2, 0.693791
1, 1, bw, attraction, a-b-db, 5, 2, 6, 7, 90, 165, 165, 90, 88, 161, 2, 2.10576
1, 1, bw, attraction, a-b-db, 5, 2, 6, 7, 90, 165, 165, 90, 88, 161, 3, 0.674385
1, 1, bw, catch, NA, 999, 999, 6, 8, 126, 69, 150, 105, 189, 126, 3, 3.94181
1, 1, bw, catch, NA, 999, 999, 6, 8, 126, 69, 150, 105, 189, 126, 1, 0.614653
1, 1, bw, filler, NA, 999, 999, 6, 9, 99, 58, 190, 192, 158, 56, 3, 1.96596
1, 1, bw, filler, NA, 999, 999, 6, 9, 99, 58, 190, 192, 158, 56, 1, 0.653034
1, 1, bw, attraction, a-b-da, 5, 2, 6, 10, 161, 88, 90, 165, 165, 90, 3, 9.19246
1, 1, bw, attraction, a-b-da, 5, 2, 6, 10, 161, 88, 90, 165, 165, 90, 2, 0.588368
1, 1, bw, attraction, a-b-da, 5, 1, 6, 11, 60, 135, 132, 58, 135, 60, 2, 8.30796
1, 1, bw, attraction, a-b-da, 5, 1, 6, 11, 60, 135, 132, 58, 135, 60, 3, 0.637621
1, 1, bw, attraction, a-b-da, 2, 1, 6, 12, 134, 59, 60, 135, 135, 60, 3, 2.10486
1, 1, bw, attraction, a-b-da, 2, 1, 6, 12, 134, 59, 60, 135, 135, 60, 2, 0.676347
1, 1, bw, attraction, a-b-db, 2, 3, 6, 13, 195, 120, 119, 193, 120, 195, 1, 2.24791
1, 1, bw, attraction, a-b-db, 2, 3, 6, 13, 195, 120, 119, 193, 120, 195, 2, 0.579289
1, 1, bw, attraction, a-b-da, 5, 3, 6, 14, 120, 195, 190, 117, 195, 120, 3, 1.82628
1, 1, bw, attraction, a-b-da, 5, 3, 6, 14, 120, 195, 190, 117, 195, 120, 2, 0.648953
1, 1, bw, filler, NA, 999, 999, 6, 15, 76, 181, 175, 179, 85, 188, 3, 2.01265
1, 1, bw, filler, NA, 999, 999, 6, 15, 76, 181, 175, 179, 85, 188, 1, 0.628556
1, 1, bw, attraction, a-b-db, 5, 3, 6, 16, 120, 195, 195, 120, 117, 190, 1, 1.60101
1, 1, bw, attraction, a-b-db, 5, 3, 6, 16, 120, 195, 195, 120, 117, 190, 3, 0.752096
1, 1, bw, filler, NA, 999, 999, 6, 17, 101, 81, 67, 189, 144, 151, 3, 2.63924
1, 1, bw, filler, NA, 999, 999, 6, 17, 101, 81, 67, 189, 144, 151, 1, 0.73134
1, 1, bw, attraction, a-b-da, 9, 3, 6, 18, 120, 195, 195, 120, 186, 114, 2, 1.26852
1, 1, bw, attraction, a-b-da, 9, 3, 6, 18, 120, 195, 195, 120, 186, 114, 3, 0.873261
1, 1, bw, attraction, a-b-da, 9, 2, 6, 19, 165, 90, 90, 165, 157, 86, 1, 1.64359
1, 1, bw, attraction, a-b-da, 9, 2, 6, 19, 165, 90, 90, 165, 157, 86, 2, 1.59404
1, 1, bw, filler, NA, 999, 999, 6, 20, 137, 60, 91, 161, 153, 164, 2, 2.92783
1, 1, bw, filler, NA, 999, 999, 6, 20, 137, 60, 91, 161, 153, 164, 1, 0.648761
1, 1, bw, attraction, a-b-da, 2, 3, 6, 21, 120, 195, 195, 120, 193, 119, 2, 2.95072
1, 1, bw, attraction, a-b-da, 2, 3, 6, 21, 120, 195, 195, 120, 193, 119, 1, 0.843362
1, 1, bw, attraction, a-b-da, 14, 3, 6, 22, 120, 195, 181, 111, 195, 120, 3, 1.43437
1, 1, bw, attraction, a-b-da, 14, 3, 6, 22, 120, 195, 181, 111, 195, 120, 1, 0.559186
1, 1, bw, catch, NA, 999, 999, 6, 23, 96, 159, 63, 132, 142, 173, 3, 2.35047
1, 1, bw, catch, NA, 999, 999, 6, 23, 96, 159, 63, 132, 142, 173, 2, 4.07857
1, 1, bw, attraction, a-b-db, 9, 3, 6, 24, 195, 120, 114, 186, 120, 195, 1, 5.19465
1, 1, bw, attraction, a-b-db, 9, 3, 6, 24, 195, 120, 114, 186, 120, 195, 3, 1.13564
1, 1, bw, attraction, a-b-db, 9, 2, 6, 25, 90, 165, 165, 90, 86, 157, 1, 2.52869
1, 1, bw, attraction, a-b-db, 9, 2, 6, 25, 90, 165, 165, 90, 86, 157, 3, 0.616852
1, 1, bw, filler, NA, 999, 999, 6, 26, 93, 189, 178, 127, 106, 69, 2, 1.60564
1, 1, bw, filler, NA, 999, 999, 6, 26, 93, 189, 178, 127, 106, 69, 3, 0.708683
1, 1, bw, attraction, a-b-db, 2, 2, 6, 27, 90, 165, 165, 90, 89, 163, 3, 1.14437
1, 1, bw, attraction, a-b-db, 2, 2, 6, 27, 90, 165, 165, 90, 89, 163, 2, 0.593099
1, 1, bw, attraction, a-b-db, 14, 3, 6, 28, 120, 195, 111, 181, 195, 120, 3, 1.16848
1, 1, bw, attraction, a-b-db, 14, 3, 6, 28, 120, 195, 111, 181, 195, 120, 2, 0.558879
1, 1, bw, attraction, a-b-da, 14, 1, 6, 29, 125, 56, 135, 60, 60, 135, 1, 1.56737
1, 1, bw, attraction, a-b-da, 14, 1, 6, 29, 125, 56, 135, 60, 60, 135, 2, 1.69649
1, 1, bw, attraction, a-b-da, 9, 1, 6, 30, 135, 60, 60, 135, 129, 57, 1, 1.05604
1, 1, bw, attraction, a-b-da, 9, 1, 6, 30, 135, 60, 60, 135, 129, 57, 3, 0.597565
1, 1, bw, attraction, a-b-db, 2, 1, 6, 31, 135, 60, 60, 135, 59, 134, 2, 1.01229
1, 1, bw, attraction, a-b-db, 2, 1, 6, 31, 135, 60, 60, 135, 59, 134, 1, 0.563197
1, 1, bw, attraction, a-b-db, 14, 1, 6, 32, 56, 125, 135, 60, 60, 135, 2, 1.87479
1, 1, bw, attraction, a-b-db, 14, 1, 6, 32, 56, 125, 135, 60, 60, 135, 1, 1.44569
1, 1, bw, filler, NA, 999, 999, 6, 33, 81, 65, 152, 164, 99, 191, 3, 2.60558
1, 1, bw, filler, NA, 999, 999, 6, 33, 81, 65, 152, 164, 99, 191, 1, 0.595999
1, 1, bw, attraction, a-b-da, 14, 2, 6, 34, 165, 90, 153, 83, 90, 165, 1, 1.18636
1, 1, bw, attraction, a-b-da, 14, 2, 6, 34, 165, 90, 153, 83, 90, 165, 2, 0.680966
1, 1, bw, attraction, a-b-da, 2, 2, 6, 35, 163, 89, 165, 90, 90, 165, 2, 1.12403
1, 1, bw, attraction, a-b-da, 2, 2, 6, 35, 163, 89, 165, 90, 90, 165, 3, 0.524771
1, 1, bw, attraction, a-b-db, 14, 2, 6, 36, 90, 165, 83, 153, 165, 90, 2, 1.02942
1, 1, bw, attraction, a-b-db, 14, 2, 6, 36, 90, 165, 83, 153, 165, 90, 3, 0.550481
1, 1, bw, attraction, a-b-db, 9, 1, 6, 37, 135, 60, 60, 135, 57, 129, 2, 1.18031
1, 1, bw, attraction, a-b-db, 9, 1, 6, 37, 135, 60, 60, 135, 57, 129, 3, 0.523945
1, 1, bw, filler, NA, 999, 999, 7, 1, 114, 76, 176, 187, 160, 68, 2, 2.86075
1, 1, bw, filler, NA, 999, 999, 7, 1, 114, 76, 176, 187, 160, 68, 1, 0.543629
1, 1, bw, attraction, a-b-db, 2, 2, 7, 2, 90, 165, 89, 163, 165, 90, 2, 1.20166
1, 1, bw, attraction, a-b-db, 2, 2, 7, 2, 90, 165, 89, 163, 165, 90, 1, 0.641474
1, 1, bw, catch, NA, 999, 999, 7, 3, 135, 120, 185, 130, 83, 112, 2, 1.14193
1, 1, bw, catch, NA, 999, 999, 7, 3, 135, 120, 185, 130, 83, 112, 3, 0.544195
1, 1, bw, filler, NA, 999, 999, 7, 4, 179, 123, 65, 66, 98, 145, 1, 1.24595
1, 1, bw, filler, NA, 999, 999, 7, 4, 179, 123, 65, 66, 98, 145, 3, 0.731898
1, 1, bw, attraction, a-b-da, 9, 3, 7, 5, 195, 120, 186, 114, 120, 195, 2, 1.14076
1, 1, bw, attraction, a-b-da, 9, 3, 7, 5, 195, 120, 186, 114, 120, 195, 3, 1.11044
1, 1, bw, attraction, a-b-db, 5, 3, 7, 6, 117, 190, 195, 120, 120, 195, 1, 1.08693
1, 1, bw, attraction, a-b-db, 5, 3, 7, 6, 117, 190, 195, 120, 120, 195, 3, 0.994785
1, 1, bw, filler, NA, 999, 999, 7, 7, 101, 141, 81, 84, 65, 145, 1, 3.52224
1, 1, bw, filler, NA, 999, 999, 7, 7, 101, 141, 81, 84, 65, 145, 3, 0.779731
1, 1, bw, filler, NA, 999, 999, 7, 8, 103, 154, 134, 120, 99, 141, 1, 1.6993
1, 1, bw, filler, NA, 999, 999, 7, 8, 103, 154, 134, 120, 99, 141, 3, 0.723554
1, 1, bw, attraction, a-b-db, 2, 1, 7, 9, 60, 135, 59, 134, 135, 60, 1, 2.13366
1, 1, bw, attraction, a-b-db, 2, 1, 7, 9, 60, 135, 59, 134, 135, 60, 3, 0.55268
1, 1, bw, filler, NA, 999, 999, 7, 10, 147, 90, 130, 117, 68, 83, 1, 1.08829
1, 1, bw, filler, NA, 999, 999, 7, 10, 147, 90, 130, 117, 68, 83, 3, 0.666442
1, 1, bw, attraction, a-b-db, 9, 1, 7, 11, 57, 129, 135, 60, 60, 135, 1, 1.03685
1, 1, bw, attraction, a-b-db, 9, 1, 7, 11, 57, 129, 135, 60, 60, 135, 3, 1.53132
1, 1, bw, attraction, a-b-db, 9, 2, 7, 12, 90, 165, 86, 157, 165, 90, 2, 1.1786
1, 1, bw, attraction, a-b-db, 9, 2, 7, 12, 90, 165, 86, 157, 165, 90, 3, 0.708715
1, 1, bw, attraction, a-b-db, 5, 2, 7, 13, 165, 90, 88, 161, 90, 165, 1, 1.19905
1, 1, bw, attraction, a-b-db, 5, 2, 7, 13, 165, 90, 88, 161, 90, 165, 3, 0.759157
1, 1, bw, attraction, a-b-da, 5, 1, 7, 14, 132, 58, 135, 60, 60, 135, 1, 1.32554
1, 1, bw, attraction, a-b-da, 5, 1, 7, 14, 132, 58, 135, 60, 60, 135, 3, 1.22219
1, 1, bw, attraction, a-b-da, 9, 2, 7, 15, 90, 165, 157, 86, 165, 90, 3, 2.61019
1, 1, bw, attraction, a-b-da, 9, 2, 7, 15, 90, 165, 157, 86, 165, 90, 1, 0.555348
1, 1, bw, filler, NA, 999, 999, 7, 16, 165, 185, 184, 92, 66, 63, 2, 2.56138
1, 1, bw, filler, NA, 999, 999, 7, 16, 165, 185, 184, 92, 66, 63, 3, 0.669034
1, 1, bw, filler, NA, 999, 999, 7, 17, 76, 129, 188, 124, 72, 138, 2, 1.85424
1, 1, bw, filler, NA, 999, 999, 7, 17, 76, 129, 188, 124, 72, 138, 1, 4.09995
1, 1, bw, attraction, a-b-da, 2, 1, 7, 18, 135, 60, 134, 59, 60, 135, 2, 1.90806
1, 1, bw, attraction, a-b-da, 2, 1, 7, 18, 135, 60, 134, 59, 60, 135, 3, 1.14134
1, 1, bw, catch, NA, 999, 999, 7, 19, 99, 96, 96, 159, 132, 183, 3, 1.43731
1, 1, bw, catch, NA, 999, 999, 7, 19, 99, 96, 96, 159, 132, 183, 2, 0.636979
1, 1, bw, filler, NA, 999, 999, 7, 20, 77, 128, 128, 193, 74, 103, 2, 1.76761
1, 1, bw, filler, NA, 999, 999, 7, 20, 77, 128, 128, 193, 74, 103, 3, 0.776086
1, 1, bw, attraction, a-b-da, 14, 3, 7, 21, 181, 111, 120, 195, 195, 120, 3, 1.28573
1, 1, bw, attraction, a-b-da, 14, 3, 7, 21, 181, 111, 120, 195, 195, 120, 2, 0.729521
1, 1, bw, catch, NA, 999, 999, 7, 22, 145, 110, 78, 117, 121, 194, 3, 1.23628
1, 1, bw, catch, NA, 999, 999, 7, 22, 145, 110, 78, 117, 121, 194, 2, 0.522534
1, 1, bw, attraction, a-b-db, 14, 2, 7, 23, 83, 153, 90, 165, 165, 90, 3, 1.94654
1, 1, bw, attraction, a-b-db, 14, 2, 7, 23, 83, 153, 90, 165, 165, 90, 1, 2.67543
1, 1, bw, attraction, a-b-db, 9, 3, 7, 24, 195, 120, 120, 195, 114, 186, 1, 1.58949
1, 1, bw, attraction, a-b-db, 9, 3, 7, 24, 195, 120, 120, 195, 114, 186, 3, 0.566102
1, 1, bw, attraction, a-b-db, 5, 1, 7, 25, 60, 135, 58, 132, 135, 60, 3, 3.55678
1, 1, bw, attraction, a-b-db, 5, 1, 7, 25, 60, 135, 58, 132, 135, 60, 2, 0.596874
1, 1, bw, attraction, a-b-da, 14, 2, 7, 26, 90, 165, 165, 90, 153, 83, 3, 2.06611
1, 1, bw, attraction, a-b-da, 14, 2, 7, 26, 90, 165, 165, 90, 153, 83, 2, 0.839056
1, 1, bw, attraction, a-b-da, 2, 2, 7, 27, 90, 165, 165, 90, 163, 89, 3, 1.57928
1, 1, bw, attraction, a-b-da, 2, 2, 7, 27, 90, 165, 165, 90, 163, 89, 1, 0.753924
1, 1, bw, attraction, a-b-da, 9, 1, 7, 28, 60, 135, 135, 60, 129, 57, 3, 1.82683
1, 1, bw, attraction, a-b-da, 9, 1, 7, 28, 60, 135, 135, 60, 129, 57, 2, 1.05009
1, 1, bw, attraction, a-b-db, 14, 3, 7, 29, 195, 120, 120, 195, 111, 181, 1, 10.7396
1, 1, bw, attraction, a-b-db, 14, 3, 7, 29, 195, 120, 120, 195, 111, 181, 3, 0.604146
1, 1, bw, attraction, a-b-da, 5, 3, 7, 30, 120, 195, 190, 117, 195, 120, 3, 4.20022
1, 1, bw, attraction, a-b-da, 5, 3, 7, 30, 120, 195, 190, 117, 195, 120, 1, 0.703345
1, 1, bw, attraction, a-b-da, 14, 1, 7, 31, 60, 135, 135, 60, 125, 56, 3, 3.64615
1, 1, bw, attraction, a-b-da, 14, 1, 7, 31, 60, 135, 135, 60, 125, 56, 2, 0.620293
1, 1, bw, filler, NA, 999, 999, 7, 32, 107, 91, 129, 79, 83, 84, 2, 5.1457
1, 1, bw, filler, NA, 999, 999, 7, 32, 107, 91, 129, 79, 83, 84, 1, 0.979303
1, 1, bw, attraction, a-b-da, 2, 3, 7, 33, 120, 195, 193, 119, 195, 120, 3, 8.48322
1, 1, bw, attraction, a-b-da, 2, 3, 7, 33, 120, 195, 193, 119, 195, 120, 1, 0.522579
1, 1, bw, attraction, a-b-db, 2, 3, 7, 34, 195, 120, 120, 195, 119, 193, 2, 8.68268
1, 1, bw, attraction, a-b-db, 2, 3, 7, 34, 195, 120, 120, 195, 119, 193, 3, 0.700427
1, 1, bw, attraction, a-b-db, 14, 1, 7, 35, 56, 125, 60, 135, 135, 60, 3, 3.45489
1, 1, bw, attraction, a-b-db, 14, 1, 7, 35, 56, 125, 60, 135, 135, 60, 1, 1.28509
1, 1, bw, attraction, a-b-da, 5, 2, 7, 36, 90, 165, 165, 90, 161, 88, 2, 1.1177
1, 1, bw, attraction, a-b-da, 5, 2, 7, 36, 90, 165, 165, 90, 161, 88, 3, 0.703885
1, 1, bw, filler, NA, 999, 999, 7, 37, 195, 78, 188, 90, 143, 118, 2, 1.99973
1, 1, bw, filler, NA, 999, 999, 7, 37, 195, 78, 188, 90, 143, 118, 1, 2.5277
1, 1, bw, filler, NA, 999, 999, 8, 1, 95, 173, 186, 83, 173, 172, 2, 2.44818
1, 1, bw, filler, NA, 999, 999, 8, 1, 95, 173, 186, 83, 173, 172, 1, 0.771585
1, 1, bw, filler, NA, 999, 999, 8, 2, 110, 95, 166, 134, 124, 71, 2, 1.59609
1, 1, bw, filler, NA, 999, 999, 8, 2, 110, 95, 166, 134, 124, 71, 3, 1.32211
1, 1, bw, attraction, a-b-db, 5, 2, 8, 3, 165, 90, 88, 161, 90, 165, 3, 2.28241
1, 1, bw, attraction, a-b-db, 5, 2, 8, 3, 165, 90, 88, 161, 90, 165, 2, 0.638301
1, 1, bw, attraction, a-b-db, 2, 1, 8, 4, 60, 135, 59, 134, 135, 60, 2, 1.24992
1, 1, bw, attraction, a-b-db, 2, 1, 8, 4, 60, 135, 59, 134, 135, 60, 1, 0.862727
1, 1, bw, attraction, a-b-da, 5, 3, 8, 5, 195, 120, 190, 117, 120, 195, 2, 3.37206
1, 1, bw, attraction, a-b-da, 5, 3, 8, 5, 195, 120, 190, 117, 120, 195, 3, 0.570229
1, 1, bw, attraction, a-b-da, 5, 1, 8, 6, 60, 135, 132, 58, 135, 60, 2, 1.3789
1, 1, bw, attraction, a-b-da, 5, 1, 8, 6, 60, 135, 132, 58, 135, 60, 3, 0.721052
1, 1, bw, attraction, a-b-da, 2, 1, 8, 7, 134, 59, 60, 135, 135, 60, 2, 1.17131
1, 1, bw, attraction, a-b-da, 2, 1, 8, 7, 134, 59, 60, 135, 135, 60, 3, 0.596824
1, 1, bw, filler, NA, 999, 999, 8, 8, 58, 141, 122, 177, 64, 66, 2, 1.07399
1, 1, bw, filler, NA, 999, 999, 8, 8, 58, 141, 122, 177, 64, 66, 1, 0.584205
1, 1, bw, attraction, a-b-da, 5, 2, 8, 9, 165, 90, 90, 165, 161, 88, 1, 1.2849
1, 1, bw, attraction, a-b-da, 5, 2, 8, 9, 165, 90, 90, 165, 161, 88, 2, 0.568773
1, 1, bw, attraction, a-b-da, 14, 2, 8, 10, 90, 165, 165, 90, 153, 83, 2, 1.27074
1, 1, bw, attraction, a-b-da, 14, 2, 8, 10, 90, 165, 165, 90, 153, 83, 3, 0.7143
1, 1, bw, attraction, a-b-da, 9, 3, 8, 11, 195, 120, 120, 195, 186, 114, 2, 1.05218
1, 1, bw, attraction, a-b-da, 9, 3, 8, 11, 195, 120, 120, 195, 186, 114, 3, 2.56886
1, 1, bw, attraction, a-b-da, 14, 3, 8, 12, 181, 111, 195, 120, 120, 195, 3, 1.4898
1, 1, bw, attraction, a-b-da, 14, 3, 8, 12, 181, 111, 195, 120, 120, 195, 1, 0.59553
1, 1, bw, attraction, a-b-db, 9, 3, 8, 13, 195, 120, 120, 195, 114, 186, 1, 1.25803
1, 1, bw, attraction, a-b-db, 9, 3, 8, 13, 195, 120, 120, 195, 114, 186, 3, 0.576713
1, 1, bw, attraction, a-b-da, 14, 1, 8, 14, 135, 60, 60, 135, 125, 56, 1, 1.51837
1, 1, bw, attraction, a-b-da, 14, 1, 8, 14, 135, 60, 60, 135, 125, 56, 3, 0.937055
1, 1, bw, attraction, a-b-db, 14, 1, 8, 15, 135, 60, 60, 135, 56, 125, 2, 2.13724
1, 1, bw, attraction, a-b-db, 14, 1, 8, 15, 135, 60, 60, 135, 56, 125, 3, 0.514305
1, 1, bw, attraction, a-b-db, 2, 3, 8, 16, 120, 195, 195, 120, 119, 193, 3, 2.30701
1, 1, bw, attraction, a-b-db, 2, 3, 8, 16, 120, 195, 195, 120, 119, 193, 2, 0.757566
1, 1, bw, attraction, a-b-db, 2, 2, 8, 17, 90, 165, 89, 163, 165, 90, 3, 3.11942
1, 1, bw, attraction, a-b-db, 2, 2, 8, 17, 90, 165, 89, 163, 165, 90, 2, 0.648013
1, 1, bw, attraction, a-b-db, 14, 2, 8, 18, 90, 165, 165, 90, 83, 153, 1, 3.73989
1, 1, bw, attraction, a-b-db, 14, 2, 8, 18, 90, 165, 165, 90, 83, 153, 3, 2.48615
1, 1, bw, attraction, a-b-da, 2, 2, 8, 19, 165, 90, 90, 165, 163, 89, 1, 2.07178
1, 1, bw, attraction, a-b-da, 2, 2, 8, 19, 165, 90, 90, 165, 163, 89, 2, 0.57753
1, 1, bw, filler, NA, 999, 999, 8, 20, 123, 130, 150, 61, 64, 191, 3, 1.71233
1, 1, bw, filler, NA, 999, 999, 8, 20, 123, 130, 150, 61, 64, 191, 2, 0.651648
1, 1, bw, attraction, a-b-db, 9, 1, 8, 21, 135, 60, 60, 135, 57, 129, 3, 3.4148
1, 1, bw, attraction, a-b-db, 9, 1, 8, 21, 135, 60, 60, 135, 57, 129, 2, 0.771952
1, 1, bw, attraction, a-b-db, 14, 3, 8, 22, 195, 120, 120, 195, 111, 181, 1, 4.27595
1, 1, bw, attraction, a-b-db, 14, 3, 8, 22, 195, 120, 120, 195, 111, 181, 3, 0.745344
1, 1, bw, filler, NA, 999, 999, 8, 23, 164, 82, 148, 170, 129, 66, 1, 1.32165
1, 1, bw, filler, NA, 999, 999, 8, 23, 164, 82, 148, 170, 129, 66, 3, 0.698416
1, 1, bw, filler, NA, 999, 999, 8, 24, 79, 84, 131, 83, 86, 176, 3, 1.20978
1, 1, bw, filler, NA, 999, 999, 8, 24, 79, 84, 131, 83, 86, 176, 2, 3.29875
1, 1, bw, filler, NA, 999, 999, 8, 25, 187, 147, 142, 63, 181, 76, 1, 1.45256
1, 1, bw, filler, NA, 999, 999, 8, 25, 187, 147, 142, 63, 181, 76, 2, 0.704187
1, 1, bw, attraction, a-b-da, 9, 1, 8, 26, 135, 60, 129, 57, 60, 135, 3, 1.08967
1, 1, bw, attraction, a-b-da, 9, 1, 8, 26, 135, 60, 129, 57, 60, 135, 2, 0.662084
1, 1, bw, attraction, a-b-db, 5, 1, 8, 27, 58, 132, 60, 135, 135, 60, 2, 2.74488
1, 1, bw, attraction, a-b-db, 5, 1, 8, 27, 58, 132, 60, 135, 135, 60, 3, 1.21934
1, 1, bw, attraction, a-b-db, 9, 2, 8, 28, 90, 165, 86, 157, 165, 90, 3, 1.95898
1, 1, bw, attraction, a-b-db, 9, 2, 8, 28, 90, 165, 86, 157, 165, 90, 2, 0.657061
1, 1, bw, filler, NA, 999, 999, 8, 29, 69, 63, 112, 123, 113, 62, 3, 3.173
1, 1, bw, filler, NA, 999, 999, 8, 29, 69, 63, 112, 123, 113, 62, 1, 4.85859
1, 1, bw, attraction, a-b-db, 5, 3, 8, 30, 117, 190, 195, 120, 120, 195, 3, 1.86978
1, 1, bw, attraction, a-b-db, 5, 3, 8, 30, 117, 190, 195, 120, 120, 195, 1, 0.579121
1, 1, bw, catch, NA, 999, 999, 8, 31, 109, 146, 128, 67, 166, 149, 1, 2.29588
1, 1, bw, catch, NA, 999, 999, 8, 31, 109, 146, 128, 67, 166, 149, 2, 0.684966
1, 1, bw, attraction, a-b-da, 2, 3, 8, 32, 120, 195, 195, 120, 193, 119, 3, 1.25387
1, 1, bw, attraction, a-b-da, 2, 3, 8, 32, 120, 195, 195, 120, 193, 119, 1, 0.643373
1, 1, bw, filler, NA, 999, 999, 8, 33, 142, 88, 166, 109, 92, 95, 2, 1.71286
1, 1, bw, filler, NA, 999, 999, 8, 33, 142, 88, 166, 109, 92, 95, 1, 0.672717
1, 1, bw, attraction, a-b-da, 9, 2, 8, 34, 157, 86, 90, 165, 165, 90, 2, 1.90082
1, 1, bw, attraction, a-b-da, 9, 2, 8, 34, 157, 86, 90, 165, 165, 90, 1, 2.2872
1, 1, bw, filler, NA, 999, 999, 8, 35, 114, 102, 115, 82, 76, 112, 2, 1.47464
1, 1, bw, filler, NA, 999, 999, 8, 35, 114, 102, 115, 82, 76, 112, 3, 2.4135
1, 1, bw, catch, NA, 999, 999, 8, 36, 124, 191, 62, 133, 128, 127, 1, 1.0757
1, 1, bw, catch, NA, 999, 999, 8, 36, 124, 191, 62, 133, 128, 127, 2, 0.727603
1, 1, bw, catch, NA, 999, 999, 8, 37, 121, 74, 102, 153, 190, 125, 3, 1.16744
1, 1, bw, catch, NA, 999, 999, 8, 37, 121, 74, 102, 153, 190, 125, 1, 0.752488
