sub_n, computer_n, bw_cond, effect, set, distance, diag, block_n, trial_n, h1, w1, h2, w2, h3, w3, choice, rt 
141, 1, bw, practice, NA, 999, 999, 0, 1, 83, 93, 180, 88, 168, 117, 3, 4.02489
141, 1, bw, practice, NA, 999, 999, 0, 1, 83, 93, 180, 88, 168, 117, 1, 2.28759
141, 1, bw, practice, NA, 999, 999, 0, 2, 97, 134, 73, 187, 189, 178, 3, 1.98239
141, 1, bw, practice, NA, 999, 999, 0, 2, 97, 134, 73, 187, 189, 178, 1, 1.48593
141, 1, bw, practice, NA, 999, 999, 0, 3, 73, 95, 120, 176, 74, 109, 2, 2.00292
141, 1, bw, practice, NA, 999, 999, 0, 3, 73, 95, 120, 176, 74, 109, 1, 2.13903
141, 1, bw, attraction, a-b-da, 2, 3, 1, 1, 193, 119, 195, 120, 120, 195, 1, 4.69253
141, 1, bw, attraction, a-b-da, 2, 3, 1, 1, 193, 119, 195, 120, 120, 195, 2, 1.25432
141, 1, bw, catch, NA, 999, 999, 1, 2, 114, 141, 176, 139, 74, 121, 2, 2.47381
141, 1, bw, catch, NA, 999, 999, 1, 2, 114, 141, 176, 139, 74, 121, 3, 1.02102
141, 1, bw, attraction, a-b-db, 14, 1, 1, 3, 60, 135, 56, 125, 135, 60, 3, 3.85
141, 1, bw, attraction, a-b-db, 14, 1, 1, 3, 60, 135, 56, 125, 135, 60, 2, 0.910041
141, 1, bw, filler, NA, 999, 999, 1, 4, 137, 90, 168, 103, 110, 189, 3, 2.16722
141, 1, bw, filler, NA, 999, 999, 1, 4, 137, 90, 168, 103, 110, 189, 1, 0.670993
141, 1, bw, attraction, a-b-da, 14, 3, 1, 5, 195, 120, 120, 195, 181, 111, 1, 1.47412
141, 1, bw, attraction, a-b-da, 14, 3, 1, 5, 195, 120, 120, 195, 181, 111, 3, 0.74154
141, 1, bw, attraction, a-b-da, 9, 1, 1, 6, 129, 57, 135, 60, 60, 135, 3, 4.86132
141, 1, bw, attraction, a-b-da, 9, 1, 1, 6, 129, 57, 135, 60, 60, 135, 2, 2.28043
141, 1, bw, attraction, a-b-db, 5, 2, 1, 7, 90, 165, 165, 90, 88, 161, 1, 1.42629
141, 1, bw, attraction, a-b-db, 5, 2, 1, 7, 90, 165, 165, 90, 88, 161, 3, 8.1439
141, 1, bw, attraction, a-b-db, 9, 2, 1, 8, 90, 165, 165, 90, 86, 157, 2, 5.49327
141, 1, bw, attraction, a-b-db, 9, 2, 1, 8, 90, 165, 165, 90, 86, 157, 3, 0.830853
141, 1, bw, filler, NA, 999, 999, 1, 9, 119, 166, 100, 60, 59, 112, 1, 0.827076
141, 1, bw, filler, NA, 999, 999, 1, 9, 119, 166, 100, 60, 59, 112, 2, 3.15292
141, 1, bw, attraction, a-b-da, 2, 2, 1, 10, 163, 89, 90, 165, 165, 90, 3, 3.67194
141, 1, bw, attraction, a-b-da, 2, 2, 1, 10, 163, 89, 90, 165, 165, 90, 2, 0.770728
141, 1, bw, attraction, a-b-da, 5, 2, 1, 11, 90, 165, 161, 88, 165, 90, 1, 1.46564
141, 1, bw, attraction, a-b-da, 5, 2, 1, 11, 90, 165, 161, 88, 165, 90, 2, 0.989845
141, 1, bw, attraction, a-b-da, 14, 1, 1, 12, 135, 60, 60, 135, 125, 56, 1, 3.61219
141, 1, bw, attraction, a-b-da, 14, 1, 1, 12, 135, 60, 60, 135, 125, 56, 3, 1.20973
141, 1, bw, filler, NA, 999, 999, 1, 13, 80, 140, 160, 122, 77, 114, 2, 1.63857
141, 1, bw, filler, NA, 999, 999, 1, 13, 80, 140, 160, 122, 77, 114, 3, 0.731484
141, 1, bw, attraction, a-b-db, 5, 3, 1, 14, 195, 120, 120, 195, 117, 190, 1, 4.44372
141, 1, bw, attraction, a-b-db, 5, 3, 1, 14, 195, 120, 120, 195, 117, 190, 2, 2.95179
141, 1, bw, attraction, a-b-db, 14, 2, 1, 15, 165, 90, 90, 165, 83, 153, 1, 1.57473
141, 1, bw, attraction, a-b-db, 14, 2, 1, 15, 165, 90, 90, 165, 83, 153, 3, 0.558253
141, 1, bw, attraction, a-b-db, 5, 1, 1, 16, 135, 60, 60, 135, 58, 132, 1, 2.41329
141, 1, bw, attraction, a-b-db, 5, 1, 1, 16, 135, 60, 60, 135, 58, 132, 3, 2.08319
141, 1, bw, attraction, a-b-da, 5, 1, 1, 17, 132, 58, 135, 60, 60, 135, 2, 3.22103
141, 1, bw, attraction, a-b-da, 5, 1, 1, 17, 132, 58, 135, 60, 60, 135, 3, 0.938778
141, 1, bw, attraction, a-b-da, 5, 3, 1, 18, 190, 117, 120, 195, 195, 120, 3, 2.22704
141, 1, bw, attraction, a-b-da, 5, 3, 1, 18, 190, 117, 120, 195, 195, 120, 1, 1.64028
141, 1, bw, attraction, a-b-da, 9, 2, 1, 19, 165, 90, 90, 165, 157, 86, 1, 5.36443
141, 1, bw, attraction, a-b-da, 9, 2, 1, 19, 165, 90, 90, 165, 157, 86, 3, 2.06762
141, 1, bw, filler, NA, 999, 999, 1, 20, 116, 187, 184, 190, 192, 146, 2, 2.15798
141, 1, bw, filler, NA, 999, 999, 1, 20, 116, 187, 184, 190, 192, 146, 1, 1.12596
141, 1, bw, attraction, a-b-db, 9, 1, 1, 21, 60, 135, 135, 60, 57, 129, 1, 5.69422
141, 1, bw, attraction, a-b-db, 9, 1, 1, 21, 60, 135, 135, 60, 57, 129, 2, 1.57573
141, 1, bw, attraction, a-b-db, 2, 2, 1, 22, 165, 90, 90, 165, 89, 163, 2, 5.37386
141, 1, bw, attraction, a-b-db, 2, 2, 1, 22, 165, 90, 90, 165, 89, 163, 3, 0.860212
141, 1, bw, filler, NA, 999, 999, 1, 23, 106, 113, 136, 168, 124, 142, 2, 0.991319
141, 1, bw, filler, NA, 999, 999, 1, 23, 106, 113, 136, 168, 124, 142, 1, 0.822203
141, 1, bw, attraction, a-b-db, 14, 3, 1, 24, 111, 181, 120, 195, 195, 120, 3, 0.955134
141, 1, bw, attraction, a-b-db, 14, 3, 1, 24, 111, 181, 120, 195, 195, 120, 1, 4.23579
141, 1, bw, attraction, a-b-db, 2, 1, 1, 25, 59, 134, 135, 60, 60, 135, 3, 3.05484
141, 1, bw, attraction, a-b-db, 2, 1, 1, 25, 59, 134, 135, 60, 60, 135, 1, 2.33135
141, 1, bw, attraction, a-b-db, 9, 3, 1, 26, 120, 195, 114, 186, 195, 120, 1, 2.56313
141, 1, bw, attraction, a-b-db, 9, 3, 1, 26, 120, 195, 114, 186, 195, 120, 2, 1.13892
141, 1, bw, filler, NA, 999, 999, 1, 27, 84, 193, 167, 174, 189, 171, 3, 1.71521
141, 1, bw, filler, NA, 999, 999, 1, 27, 84, 193, 167, 174, 189, 171, 1, 0.989292
141, 1, bw, catch, NA, 999, 999, 1, 28, 60, 135, 125, 130, 158, 157, 3, 1.99558
141, 1, bw, catch, NA, 999, 999, 1, 28, 60, 135, 125, 130, 158, 157, 1, 1.42629
141, 1, bw, filler, NA, 999, 999, 1, 29, 113, 80, 84, 99, 188, 171, 3, 0.758437
141, 1, bw, filler, NA, 999, 999, 1, 29, 113, 80, 84, 99, 188, 171, 2, 1.17495
141, 1, bw, filler, NA, 999, 999, 1, 30, 76, 71, 69, 158, 179, 111, 3, 1.2611
141, 1, bw, filler, NA, 999, 999, 1, 30, 76, 71, 69, 158, 179, 111, 1, 0.673358
141, 1, bw, attraction, a-b-da, 2, 1, 1, 31, 60, 135, 135, 60, 134, 59, 1, 2.42843
141, 1, bw, attraction, a-b-da, 2, 1, 1, 31, 60, 135, 135, 60, 134, 59, 3, 1.16162
141, 1, bw, filler, NA, 999, 999, 1, 32, 171, 148, 170, 138, 187, 113, 1, 1.10448
141, 1, bw, filler, NA, 999, 999, 1, 32, 171, 148, 170, 138, 187, 113, 3, 0.827473
141, 1, bw, filler, NA, 999, 999, 1, 33, 152, 155, 119, 92, 170, 142, 3, 7.99986
141, 1, bw, filler, NA, 999, 999, 1, 33, 152, 155, 119, 92, 170, 142, 2, 2.26064
141, 1, bw, catch, NA, 999, 999, 1, 34, 186, 129, 160, 95, 63, 132, 1, 1.34327
141, 1, bw, catch, NA, 999, 999, 1, 34, 186, 129, 160, 95, 63, 132, 3, 0.992024
141, 1, bw, attraction, a-b-db, 2, 3, 1, 35, 195, 120, 120, 195, 119, 193, 3, 15.3737
141, 1, bw, attraction, a-b-db, 2, 3, 1, 35, 195, 120, 120, 195, 119, 193, 1, 3.6176
141, 1, bw, attraction, a-b-da, 9, 3, 1, 36, 120, 195, 195, 120, 186, 114, 1, 1.77375
141, 1, bw, attraction, a-b-da, 9, 3, 1, 36, 120, 195, 195, 120, 186, 114, 3, 1.43714
141, 1, bw, attraction, a-b-da, 14, 2, 1, 37, 165, 90, 90, 165, 153, 83, 1, 1.4334
141, 1, bw, attraction, a-b-da, 14, 2, 1, 37, 165, 90, 90, 165, 153, 83, 3, 0.838747
141, 1, bw, attraction, a-b-da, 5, 1, 2, 1, 135, 60, 60, 135, 132, 58, 1, 10.9311
141, 1, bw, attraction, a-b-da, 5, 1, 2, 1, 135, 60, 60, 135, 132, 58, 3, 0.953721
141, 1, bw, attraction, a-b-db, 2, 2, 2, 2, 89, 163, 165, 90, 90, 165, 1, 1.61732
141, 1, bw, attraction, a-b-db, 2, 2, 2, 2, 89, 163, 165, 90, 90, 165, 2, 1.05549
141, 1, bw, attraction, a-b-db, 14, 1, 2, 3, 56, 125, 60, 135, 135, 60, 3, 3.18704
141, 1, bw, attraction, a-b-db, 14, 1, 2, 3, 56, 125, 60, 135, 135, 60, 2, 0.458019
141, 1, bw, filler, NA, 999, 999, 2, 4, 84, 166, 92, 177, 118, 109, 2, 4.61329
141, 1, bw, filler, NA, 999, 999, 2, 4, 84, 166, 92, 177, 118, 109, 3, 0.922465
141, 1, bw, filler, NA, 999, 999, 2, 5, 102, 57, 191, 168, 139, 72, 2, 0.987563
141, 1, bw, filler, NA, 999, 999, 2, 5, 102, 57, 191, 168, 139, 72, 1, 0.955176
141, 1, bw, filler, NA, 999, 999, 2, 6, 131, 154, 190, 124, 60, 139, 1, 1.45074
141, 1, bw, filler, NA, 999, 999, 2, 6, 131, 154, 190, 124, 60, 139, 3, 0.815684
141, 1, bw, attraction, a-b-da, 2, 3, 2, 7, 120, 195, 195, 120, 193, 119, 1, 3.10061
141, 1, bw, attraction, a-b-da, 2, 3, 2, 7, 120, 195, 195, 120, 193, 119, 2, 0.822927
141, 1, bw, attraction, a-b-da, 5, 2, 2, 8, 161, 88, 165, 90, 90, 165, 1, 4.4039
141, 1, bw, attraction, a-b-da, 5, 2, 2, 8, 161, 88, 165, 90, 90, 165, 3, 0.93794
141, 1, bw, attraction, a-b-db, 14, 2, 2, 9, 83, 153, 90, 165, 165, 90, 3, 4.99424
141, 1, bw, attraction, a-b-db, 14, 2, 2, 9, 83, 153, 90, 165, 165, 90, 2, 0.863993
141, 1, bw, filler, NA, 999, 999, 2, 10, 71, 92, 177, 75, 117, 129, 3, 1.79504
141, 1, bw, filler, NA, 999, 999, 2, 10, 71, 92, 177, 75, 117, 129, 1, 0.657681
141, 1, bw, attraction, a-b-db, 5, 2, 2, 11, 90, 165, 165, 90, 88, 161, 1, 3.55686
141, 1, bw, attraction, a-b-db, 5, 2, 2, 11, 90, 165, 165, 90, 88, 161, 2, 3.54028
141, 1, bw, attraction, a-b-db, 5, 3, 2, 12, 120, 195, 117, 190, 195, 120, 3, 1.49972
141, 1, bw, attraction, a-b-db, 5, 3, 2, 12, 120, 195, 117, 190, 195, 120, 2, 1.11869
141, 1, bw, attraction, a-b-da, 14, 1, 2, 13, 125, 56, 60, 135, 135, 60, 2, 3.31146
141, 1, bw, attraction, a-b-da, 14, 1, 2, 13, 125, 56, 60, 135, 135, 60, 3, 0.7691
141, 1, bw, attraction, a-b-da, 2, 1, 2, 14, 135, 60, 60, 135, 134, 59, 1, 1.64016
141, 1, bw, attraction, a-b-da, 2, 1, 2, 14, 135, 60, 60, 135, 134, 59, 2, 0.765159
141, 1, bw, catch, NA, 999, 999, 2, 15, 124, 71, 144, 111, 139, 176, 3, 1.14001
141, 1, bw, catch, NA, 999, 999, 2, 15, 124, 71, 144, 111, 139, 176, 1, 0.660952
141, 1, bw, attraction, a-b-db, 2, 1, 2, 16, 60, 135, 59, 134, 135, 60, 1, 1.19199
141, 1, bw, attraction, a-b-db, 2, 1, 2, 16, 60, 135, 59, 134, 135, 60, 2, 3.80697
141, 1, bw, attraction, a-b-db, 2, 3, 2, 17, 195, 120, 120, 195, 119, 193, 1, 2.02764
141, 1, bw, attraction, a-b-db, 2, 3, 2, 17, 195, 120, 120, 195, 119, 193, 2, 0.880984
141, 1, bw, attraction, a-b-da, 9, 2, 2, 18, 165, 90, 90, 165, 157, 86, 1, 2.7953
141, 1, bw, attraction, a-b-da, 9, 2, 2, 18, 165, 90, 90, 165, 157, 86, 2, 0.681763
141, 1, bw, attraction, a-b-da, 2, 2, 2, 19, 165, 90, 163, 89, 90, 165, 3, 2.11619
141, 1, bw, attraction, a-b-da, 2, 2, 2, 19, 165, 90, 163, 89, 90, 165, 2, 0.638167
141, 1, bw, filler, NA, 999, 999, 2, 20, 174, 102, 192, 56, 66, 71, 1, 1.09056
141, 1, bw, filler, NA, 999, 999, 2, 20, 174, 102, 192, 56, 66, 71, 3, 0.850909
141, 1, bw, filler, NA, 999, 999, 2, 21, 66, 130, 178, 120, 139, 175, 3, 3.20932
141, 1, bw, filler, NA, 999, 999, 2, 21, 66, 130, 178, 120, 139, 175, 1, 5.51094
141, 1, bw, attraction, a-b-da, 5, 3, 2, 22, 120, 195, 190, 117, 195, 120, 1, 4.48643
141, 1, bw, attraction, a-b-da, 5, 3, 2, 22, 120, 195, 190, 117, 195, 120, 3, 0.800997
141, 1, bw, attraction, a-b-da, 14, 2, 2, 23, 90, 165, 165, 90, 153, 83, 1, 2.29469
141, 1, bw, attraction, a-b-da, 14, 2, 2, 23, 90, 165, 165, 90, 153, 83, 3, 1.43343
141, 1, bw, attraction, a-b-da, 14, 3, 2, 24, 181, 111, 195, 120, 120, 195, 2, 2.49341
141, 1, bw, attraction, a-b-da, 14, 3, 2, 24, 181, 111, 195, 120, 120, 195, 1, 1.288
141, 1, bw, filler, NA, 999, 999, 2, 25, 126, 58, 141, 64, 94, 139, 3, 1.23418
141, 1, bw, filler, NA, 999, 999, 2, 25, 126, 58, 141, 64, 94, 139, 1, 1.53578
141, 1, bw, attraction, a-b-db, 9, 3, 2, 26, 195, 120, 120, 195, 114, 186, 1, 1.27981
141, 1, bw, attraction, a-b-db, 9, 3, 2, 26, 195, 120, 120, 195, 114, 186, 3, 1.20341
141, 1, bw, filler, NA, 999, 999, 2, 27, 66, 59, 122, 80, 142, 95, 3, 1.12108
141, 1, bw, filler, NA, 999, 999, 2, 27, 66, 59, 122, 80, 142, 95, 1, 0.586628
141, 1, bw, catch, NA, 999, 999, 2, 28, 165, 150, 65, 130, 152, 103, 1, 0.921144
141, 1, bw, catch, NA, 999, 999, 2, 28, 165, 150, 65, 130, 152, 103, 2, 0.779478
141, 1, bw, filler, NA, 999, 999, 2, 29, 170, 120, 78, 157, 148, 96, 1, 0.77778
141, 1, bw, filler, NA, 999, 999, 2, 29, 170, 120, 78, 157, 148, 96, 2, 1.08182
141, 1, bw, attraction, a-b-da, 9, 3, 2, 30, 186, 114, 195, 120, 120, 195, 2, 2.11581
141, 1, bw, attraction, a-b-da, 9, 3, 2, 30, 186, 114, 195, 120, 120, 195, 1, 0.357708
141, 1, bw, attraction, a-b-da, 9, 1, 2, 31, 135, 60, 60, 135, 129, 57, 1, 1.34891
141, 1, bw, attraction, a-b-da, 9, 1, 2, 31, 135, 60, 60, 135, 129, 57, 2, 9.38187
141, 1, bw, attraction, a-b-db, 5, 1, 2, 32, 58, 132, 135, 60, 60, 135, 1, 1.24146
141, 1, bw, attraction, a-b-db, 5, 1, 2, 32, 58, 132, 135, 60, 60, 135, 2, 0.510447
141, 1, bw, attraction, a-b-db, 9, 1, 2, 33, 60, 135, 57, 129, 135, 60, 2, 2.91154
141, 1, bw, attraction, a-b-db, 9, 1, 2, 33, 60, 135, 57, 129, 135, 60, 3, 0.505361
141, 1, bw, attraction, a-b-db, 14, 3, 2, 34, 120, 195, 195, 120, 111, 181, 1, 1.3471
141, 1, bw, attraction, a-b-db, 14, 3, 2, 34, 120, 195, 195, 120, 111, 181, 3, 1.91596
141, 1, bw, attraction, a-b-db, 9, 2, 2, 35, 90, 165, 86, 157, 165, 90, 3, 1.79675
141, 1, bw, attraction, a-b-db, 9, 2, 2, 35, 90, 165, 86, 157, 165, 90, 2, 1.07536
141, 1, bw, filler, NA, 999, 999, 2, 36, 102, 150, 193, 170, 73, 101, 2, 0.8696
141, 1, bw, filler, NA, 999, 999, 2, 36, 102, 150, 193, 170, 73, 101, 3, 0.466027
141, 1, bw, catch, NA, 999, 999, 2, 37, 88, 107, 133, 122, 144, 171, 3, 0.861075
141, 1, bw, catch, NA, 999, 999, 2, 37, 88, 107, 133, 122, 144, 171, 1, 0.721482
141, 1, bw, attraction, a-b-db, 9, 1, 3, 1, 57, 129, 135, 60, 60, 135, 3, 1.12248
141, 1, bw, attraction, a-b-db, 9, 1, 3, 1, 57, 129, 135, 60, 60, 135, 1, 0.708133
141, 1, bw, attraction, a-b-da, 2, 1, 3, 2, 134, 59, 135, 60, 60, 135, 1, 0.877176
141, 1, bw, attraction, a-b-da, 2, 1, 3, 2, 134, 59, 135, 60, 60, 135, 2, 1.32892
141, 1, bw, filler, NA, 999, 999, 3, 3, 195, 98, 191, 171, 97, 145, 2, 0.697159
141, 1, bw, filler, NA, 999, 999, 3, 3, 195, 98, 191, 171, 97, 145, 3, 0.404283
141, 1, bw, attraction, a-b-da, 9, 1, 3, 4, 129, 57, 135, 60, 60, 135, 1, 1.12995
141, 1, bw, attraction, a-b-da, 9, 1, 3, 4, 129, 57, 135, 60, 60, 135, 3, 0.371589
141, 1, bw, attraction, a-b-db, 14, 3, 3, 5, 111, 181, 195, 120, 120, 195, 2, 0.938887
141, 1, bw, attraction, a-b-db, 14, 3, 3, 5, 111, 181, 195, 120, 120, 195, 1, 0.339754
141, 1, bw, attraction, a-b-db, 5, 2, 3, 6, 88, 161, 90, 165, 165, 90, 2, 1.19563
141, 1, bw, attraction, a-b-db, 5, 2, 3, 6, 88, 161, 90, 165, 165, 90, 1, 0.810551
141, 1, bw, attraction, a-b-db, 2, 2, 3, 7, 89, 163, 90, 165, 165, 90, 1, 1.65572
141, 1, bw, attraction, a-b-db, 2, 2, 3, 7, 89, 163, 90, 165, 165, 90, 3, 0.635766
141, 1, bw, filler, NA, 999, 999, 3, 8, 127, 195, 186, 142, 148, 164, 2, 2.5762
141, 1, bw, filler, NA, 999, 999, 3, 8, 127, 195, 186, 142, 148, 164, 3, 0.487408
141, 1, bw, attraction, a-b-db, 14, 2, 3, 9, 165, 90, 83, 153, 90, 165, 3, 1.75377
141, 1, bw, attraction, a-b-db, 14, 2, 3, 9, 165, 90, 83, 153, 90, 165, 2, 0.754547
141, 1, bw, attraction, a-b-da, 9, 3, 3, 10, 195, 120, 186, 114, 120, 195, 3, 2.84225
141, 1, bw, attraction, a-b-da, 9, 3, 3, 10, 195, 120, 186, 114, 120, 195, 2, 1.13468
141, 1, bw, attraction, a-b-da, 2, 2, 3, 11, 90, 165, 163, 89, 165, 90, 3, 3.45488
141, 1, bw, attraction, a-b-da, 2, 2, 3, 11, 90, 165, 163, 89, 165, 90, 2, 0.459093
141, 1, bw, attraction, a-b-db, 2, 3, 3, 12, 120, 195, 119, 193, 195, 120, 3, 9.19028
141, 1, bw, attraction, a-b-db, 2, 3, 3, 12, 120, 195, 119, 193, 195, 120, 2, 0.706851
141, 1, bw, attraction, a-b-db, 14, 1, 3, 13, 135, 60, 60, 135, 56, 125, 1, 1.37174
141, 1, bw, attraction, a-b-db, 14, 1, 3, 13, 135, 60, 60, 135, 56, 125, 3, 0.70734
141, 1, bw, filler, NA, 999, 999, 3, 14, 162, 128, 150, 127, 179, 123, 3, 6.57254
141, 1, bw, filler, NA, 999, 999, 3, 14, 162, 128, 150, 127, 179, 123, 2, 0.482975
141, 1, bw, filler, NA, 999, 999, 3, 15, 170, 111, 80, 73, 136, 147, 1, 1.19747
141, 1, bw, filler, NA, 999, 999, 3, 15, 170, 111, 80, 73, 136, 147, 2, 0.44432
141, 1, bw, attraction, a-b-da, 5, 3, 3, 16, 120, 195, 195, 120, 190, 117, 2, 1.11208
141, 1, bw, attraction, a-b-da, 5, 3, 3, 16, 120, 195, 195, 120, 190, 117, 3, 1.8585
141, 1, bw, attraction, a-b-da, 14, 2, 3, 17, 153, 83, 165, 90, 90, 165, 3, 1.94903
141, 1, bw, attraction, a-b-da, 14, 2, 3, 17, 153, 83, 165, 90, 90, 165, 1, 1.52576
141, 1, bw, attraction, a-b-da, 5, 1, 3, 18, 132, 58, 60, 135, 135, 60, 2, 1.11786
141, 1, bw, attraction, a-b-da, 5, 1, 3, 18, 132, 58, 60, 135, 135, 60, 1, 0.640148
141, 1, bw, attraction, a-b-db, 9, 3, 3, 19, 114, 186, 195, 120, 120, 195, 2, 1.70793
141, 1, bw, attraction, a-b-db, 9, 3, 3, 19, 114, 186, 195, 120, 120, 195, 1, 0.870222
141, 1, bw, attraction, a-b-da, 5, 2, 3, 20, 90, 165, 165, 90, 161, 88, 1, 1.71303
141, 1, bw, attraction, a-b-da, 5, 2, 3, 20, 90, 165, 165, 90, 161, 88, 2, 0.675206
141, 1, bw, attraction, a-b-da, 2, 3, 3, 21, 120, 195, 195, 120, 193, 119, 2, 1.64566
141, 1, bw, attraction, a-b-da, 2, 3, 3, 21, 120, 195, 195, 120, 193, 119, 3, 0.562506
141, 1, bw, attraction, a-b-da, 14, 1, 3, 22, 60, 135, 135, 60, 125, 56, 1, 0.865629
141, 1, bw, attraction, a-b-da, 14, 1, 3, 22, 60, 135, 135, 60, 125, 56, 2, 0.381807
141, 1, bw, filler, NA, 999, 999, 3, 23, 150, 83, 97, 149, 73, 126, 2, 1.22031
141, 1, bw, filler, NA, 999, 999, 3, 23, 150, 83, 97, 149, 73, 126, 3, 0.754587
141, 1, bw, attraction, a-b-db, 2, 1, 3, 24, 135, 60, 60, 135, 59, 134, 1, 2.37425
141, 1, bw, attraction, a-b-db, 2, 1, 3, 24, 135, 60, 60, 135, 59, 134, 2, 0.641573
141, 1, bw, filler, NA, 999, 999, 3, 25, 176, 92, 93, 140, 146, 194, 3, 1.52519
141, 1, bw, filler, NA, 999, 999, 3, 25, 176, 92, 93, 140, 146, 194, 2, 0.598819
141, 1, bw, filler, NA, 999, 999, 3, 26, 121, 157, 76, 137, 128, 113, 1, 0.852569
141, 1, bw, filler, NA, 999, 999, 3, 26, 121, 157, 76, 137, 128, 113, 2, 0.857547
141, 1, bw, filler, NA, 999, 999, 3, 27, 179, 132, 130, 170, 120, 119, 2, 0.932549
141, 1, bw, filler, NA, 999, 999, 3, 27, 179, 132, 130, 170, 120, 119, 3, 0.3182
141, 1, bw, catch, NA, 999, 999, 3, 28, 143, 112, 134, 181, 79, 116, 2, 0.831402
141, 1, bw, catch, NA, 999, 999, 3, 28, 143, 112, 134, 181, 79, 116, 3, 0.661125
141, 1, bw, filler, NA, 999, 999, 3, 29, 117, 139, 111, 174, 75, 143, 2, 1.90423
141, 1, bw, filler, NA, 999, 999, 3, 29, 117, 139, 111, 174, 75, 143, 3, 0.386918
141, 1, bw, attraction, a-b-db, 5, 3, 3, 30, 120, 195, 195, 120, 117, 190, 2, 0.977381
141, 1, bw, attraction, a-b-db, 5, 3, 3, 30, 120, 195, 195, 120, 117, 190, 3, 0.497017
141, 1, bw, attraction, a-b-db, 5, 1, 3, 31, 135, 60, 60, 135, 58, 132, 2, 0.762887
141, 1, bw, attraction, a-b-db, 5, 1, 3, 31, 135, 60, 60, 135, 58, 132, 3, 0.459234
141, 1, bw, catch, NA, 999, 999, 3, 32, 124, 191, 83, 112, 106, 149, 1, 0.822295
141, 1, bw, catch, NA, 999, 999, 3, 32, 124, 191, 83, 112, 106, 149, 2, 0.372018
141, 1, bw, filler, NA, 999, 999, 3, 33, 94, 66, 184, 91, 150, 99, 2, 0.779238
141, 1, bw, filler, NA, 999, 999, 3, 33, 94, 66, 184, 91, 150, 99, 1, 0.786951
141, 1, bw, catch, NA, 999, 999, 3, 34, 156, 99, 165, 150, 118, 77, 2, 0.673304
141, 1, bw, catch, NA, 999, 999, 3, 34, 156, 99, 165, 150, 118, 77, 3, 1.0451
141, 1, bw, attraction, a-b-db, 9, 2, 3, 35, 86, 157, 165, 90, 90, 165, 2, 1.03272
141, 1, bw, attraction, a-b-db, 9, 2, 3, 35, 86, 157, 165, 90, 90, 165, 3, 0.167293
141, 1, bw, attraction, a-b-da, 14, 3, 3, 36, 181, 111, 120, 195, 195, 120, 2, 2.13358
141, 1, bw, attraction, a-b-da, 14, 3, 3, 36, 181, 111, 120, 195, 195, 120, 3, 0.0977888
141, 1, bw, attraction, a-b-da, 9, 2, 3, 37, 90, 165, 165, 90, 157, 86, 1, 4.81688
141, 1, bw, attraction, a-b-da, 9, 2, 3, 37, 90, 165, 165, 90, 157, 86, 3, 0.38999
141, 1, bw, attraction, a-b-da, 9, 2, 4, 1, 157, 86, 90, 165, 165, 90, 2, 1.05997
141, 1, bw, attraction, a-b-da, 9, 2, 4, 1, 157, 86, 90, 165, 165, 90, 1, 0.296123
141, 1, bw, attraction, a-b-db, 5, 3, 4, 2, 117, 190, 120, 195, 195, 120, 2, 0.993901
141, 1, bw, attraction, a-b-db, 5, 3, 4, 2, 117, 190, 120, 195, 195, 120, 3, 0.400975
141, 1, bw, attraction, a-b-da, 2, 1, 4, 3, 60, 135, 134, 59, 135, 60, 3, 1.17483
141, 1, bw, attraction, a-b-da, 2, 1, 4, 3, 60, 135, 134, 59, 135, 60, 2, 1.02234
141, 1, bw, attraction, a-b-da, 5, 3, 4, 4, 195, 120, 190, 117, 120, 195, 1, 2.4913
141, 1, bw, attraction, a-b-da, 5, 3, 4, 4, 195, 120, 190, 117, 120, 195, 2, 0.589782
141, 1, bw, attraction, a-b-da, 5, 2, 4, 5, 165, 90, 161, 88, 90, 165, 3, 1.23632
141, 1, bw, attraction, a-b-da, 5, 2, 4, 5, 165, 90, 161, 88, 90, 165, 2, 0.673876
141, 1, bw, attraction, a-b-da, 14, 1, 4, 6, 60, 135, 135, 60, 125, 56, 3, 1.74018
141, 1, bw, attraction, a-b-da, 14, 1, 4, 6, 60, 135, 135, 60, 125, 56, 1, 0.684964
141, 1, bw, attraction, a-b-db, 2, 2, 4, 7, 89, 163, 165, 90, 90, 165, 3, 9.81537
141, 1, bw, attraction, a-b-db, 2, 2, 4, 7, 89, 163, 165, 90, 90, 165, 2, 0.402951
141, 1, bw, filler, NA, 999, 999, 4, 8, 56, 137, 166, 118, 188, 118, 2, 2.58474
141, 1, bw, filler, NA, 999, 999, 4, 8, 56, 137, 166, 118, 188, 118, 1, 2.66397
141, 1, bw, filler, NA, 999, 999, 4, 9, 124, 89, 144, 71, 183, 101, 3, 2.03433
141, 1, bw, filler, NA, 999, 999, 4, 9, 124, 89, 144, 71, 183, 101, 1, 0.495669
141, 1, bw, attraction, a-b-da, 9, 3, 4, 10, 186, 114, 120, 195, 195, 120, 3, 5.06552
141, 1, bw, attraction, a-b-da, 9, 3, 4, 10, 186, 114, 120, 195, 195, 120, 1, 4.6606
141, 1, bw, filler, NA, 999, 999, 4, 11, 183, 92, 178, 183, 76, 127, 2, 1.11845
141, 1, bw, filler, NA, 999, 999, 4, 11, 183, 92, 178, 183, 76, 127, 3, 0.800796
141, 1, bw, attraction, a-b-da, 14, 2, 4, 12, 153, 83, 165, 90, 90, 165, 3, 5.6464
141, 1, bw, attraction, a-b-da, 14, 2, 4, 12, 153, 83, 165, 90, 90, 165, 1, 1.52197
141, 1, bw, attraction, a-b-db, 2, 1, 4, 13, 59, 134, 60, 135, 135, 60, 3, 1.12277
141, 1, bw, attraction, a-b-db, 2, 1, 4, 13, 59, 134, 60, 135, 135, 60, 2, 0.948393
141, 1, bw, catch, NA, 999, 999, 4, 14, 129, 126, 142, 173, 64, 131, 2, 1.21996
141, 1, bw, catch, NA, 999, 999, 4, 14, 129, 126, 142, 173, 64, 131, 3, 0.730265
141, 1, bw, filler, NA, 999, 999, 4, 15, 194, 145, 176, 177, 122, 88, 2, 1.91476
141, 1, bw, filler, NA, 999, 999, 4, 15, 194, 145, 176, 177, 122, 88, 3, 0.740745
141, 1, bw, catch, NA, 999, 999, 4, 16, 119, 76, 97, 158, 154, 161, 3, 1.02031
141, 1, bw, catch, NA, 999, 999, 4, 16, 119, 76, 97, 158, 154, 161, 1, 0.554637
141, 1, bw, attraction, a-b-db, 9, 2, 4, 17, 165, 90, 90, 165, 86, 157, 2, 1.34655
141, 1, bw, attraction, a-b-db, 9, 2, 4, 17, 165, 90, 90, 165, 86, 157, 3, 0.571474
141, 1, bw, attraction, a-b-da, 2, 3, 4, 18, 193, 119, 195, 120, 120, 195, 1, 0.906405
141, 1, bw, attraction, a-b-da, 2, 3, 4, 18, 193, 119, 195, 120, 120, 195, 2, 0.508891
141, 1, bw, attraction, a-b-db, 9, 1, 4, 19, 57, 129, 60, 135, 135, 60, 3, 0.965966
141, 1, bw, attraction, a-b-db, 9, 1, 4, 19, 57, 129, 60, 135, 135, 60, 2, 0.40633
141, 1, bw, attraction, a-b-da, 9, 1, 4, 20, 129, 57, 60, 135, 135, 60, 2, 1.06806
141, 1, bw, attraction, a-b-da, 9, 1, 4, 20, 129, 57, 60, 135, 135, 60, 3, 0.400327
141, 1, bw, filler, NA, 999, 999, 4, 21, 93, 136, 161, 113, 141, 167, 3, 1.15814
141, 1, bw, filler, NA, 999, 999, 4, 21, 93, 136, 161, 113, 141, 167, 2, 0.46244
141, 1, bw, attraction, a-b-db, 9, 3, 4, 22, 120, 195, 195, 120, 114, 186, 3, 0.985657
141, 1, bw, attraction, a-b-db, 9, 3, 4, 22, 120, 195, 195, 120, 114, 186, 2, 2.22534
141, 1, bw, attraction, a-b-db, 14, 2, 4, 23, 90, 165, 83, 153, 165, 90, 1, 1.67714
141, 1, bw, attraction, a-b-db, 14, 2, 4, 23, 90, 165, 83, 153, 165, 90, 2, 0.456652
141, 1, bw, attraction, a-b-da, 14, 3, 4, 24, 195, 120, 181, 111, 120, 195, 1, 2.07584
141, 1, bw, attraction, a-b-da, 14, 3, 4, 24, 195, 120, 181, 111, 120, 195, 2, 0.423266
141, 1, bw, filler, NA, 999, 999, 4, 25, 183, 177, 157, 156, 60, 190, 1, 1.74765
141, 1, bw, filler, NA, 999, 999, 4, 25, 183, 177, 157, 156, 60, 190, 3, 0.604384
141, 1, bw, filler, NA, 999, 999, 4, 26, 127, 84, 111, 185, 148, 120, 2, 2.25008
141, 1, bw, filler, NA, 999, 999, 4, 26, 127, 84, 111, 185, 148, 120, 1, 0.654714
141, 1, bw, attraction, a-b-db, 5, 2, 4, 27, 165, 90, 90, 165, 88, 161, 1, 9.42634
141, 1, bw, attraction, a-b-db, 5, 2, 4, 27, 165, 90, 90, 165, 88, 161, 2, 0.661407
141, 1, bw, attraction, a-b-db, 2, 3, 4, 28, 120, 195, 195, 120, 119, 193, 2, 0.944439
141, 1, bw, attraction, a-b-db, 2, 3, 4, 28, 120, 195, 195, 120, 119, 193, 3, 0.377522
141, 1, bw, attraction, a-b-db, 14, 3, 4, 29, 111, 181, 120, 195, 195, 120, 3, 1.25596
141, 1, bw, attraction, a-b-db, 14, 3, 4, 29, 111, 181, 120, 195, 195, 120, 2, 0.684342
141, 1, bw, attraction, a-b-db, 14, 1, 4, 30, 135, 60, 56, 125, 60, 135, 3, 1.82258
141, 1, bw, attraction, a-b-db, 14, 1, 4, 30, 135, 60, 56, 125, 60, 135, 2, 0.740064
141, 1, bw, attraction, a-b-da, 5, 1, 4, 31, 135, 60, 60, 135, 132, 58, 2, 1.22776
141, 1, bw, attraction, a-b-da, 5, 1, 4, 31, 135, 60, 60, 135, 132, 58, 1, 0.641434
141, 1, bw, filler, NA, 999, 999, 4, 32, 85, 114, 93, 101, 126, 126, 3, 0.76513
141, 1, bw, filler, NA, 999, 999, 4, 32, 85, 114, 93, 101, 126, 126, 2, 0.573603
141, 1, bw, filler, NA, 999, 999, 4, 33, 153, 135, 59, 181, 65, 88, 1, 1.51591
141, 1, bw, filler, NA, 999, 999, 4, 33, 153, 135, 59, 181, 65, 88, 3, 0.654048
141, 1, bw, catch, NA, 999, 999, 4, 34, 188, 127, 138, 117, 65, 130, 1, 0.825779
141, 1, bw, catch, NA, 999, 999, 4, 34, 188, 127, 138, 117, 65, 130, 3, 1.49562
141, 1, bw, filler, NA, 999, 999, 4, 35, 114, 90, 181, 118, 79, 103, 2, 0.809007
141, 1, bw, filler, NA, 999, 999, 4, 35, 114, 90, 181, 118, 79, 103, 3, 0.655403
141, 1, bw, attraction, a-b-da, 2, 2, 4, 36, 165, 90, 163, 89, 90, 165, 1, 1.14721
141, 1, bw, attraction, a-b-da, 2, 2, 4, 36, 165, 90, 163, 89, 90, 165, 2, 0.652177
141, 1, bw, attraction, a-b-db, 5, 1, 4, 37, 58, 132, 135, 60, 60, 135, 3, 1.24781
141, 1, bw, attraction, a-b-db, 5, 1, 4, 37, 58, 132, 135, 60, 60, 135, 2, 0.444744
141, 1, bw, attraction, a-b-da, 5, 2, 5, 1, 90, 165, 165, 90, 161, 88, 2, 1.43123
141, 1, bw, attraction, a-b-da, 5, 2, 5, 1, 90, 165, 165, 90, 161, 88, 3, 0.604746
141, 1, bw, attraction, a-b-db, 9, 3, 5, 2, 120, 195, 114, 186, 195, 120, 3, 1.54648
141, 1, bw, attraction, a-b-db, 9, 3, 5, 2, 120, 195, 114, 186, 195, 120, 2, 0.427293
141, 1, bw, attraction, a-b-da, 9, 1, 5, 3, 60, 135, 135, 60, 129, 57, 1, 1.42368
141, 1, bw, attraction, a-b-da, 9, 1, 5, 3, 60, 135, 135, 60, 129, 57, 3, 0.733378
141, 1, bw, filler, NA, 999, 999, 5, 4, 189, 67, 170, 132, 193, 194, 3, 0.981604
141, 1, bw, filler, NA, 999, 999, 5, 4, 189, 67, 170, 132, 193, 194, 1, 0.933377
141, 1, bw, attraction, a-b-da, 2, 1, 5, 5, 60, 135, 135, 60, 134, 59, 1, 3.34969
141, 1, bw, attraction, a-b-da, 2, 1, 5, 5, 60, 135, 135, 60, 134, 59, 3, 0.773909
141, 1, bw, filler, NA, 999, 999, 5, 6, 87, 150, 84, 104, 157, 90, 3, 1.47635
141, 1, bw, filler, NA, 999, 999, 5, 6, 87, 150, 84, 104, 157, 90, 2, 0.999909
141, 1, bw, attraction, a-b-da, 9, 2, 5, 7, 90, 165, 165, 90, 157, 86, 2, 6.10937
141, 1, bw, attraction, a-b-da, 9, 2, 5, 7, 90, 165, 165, 90, 157, 86, 3, 2.47814
141, 1, bw, attraction, a-b-db, 9, 2, 5, 8, 90, 165, 165, 90, 86, 157, 1, 1.63197
141, 1, bw, attraction, a-b-db, 9, 2, 5, 8, 90, 165, 165, 90, 86, 157, 2, 0.493456
141, 1, bw, filler, NA, 999, 999, 5, 9, 168, 184, 85, 158, 115, 65, 1, 0.639136
141, 1, bw, filler, NA, 999, 999, 5, 9, 168, 184, 85, 158, 115, 65, 3, 0.716323
141, 1, bw, attraction, a-b-da, 14, 3, 5, 10, 120, 195, 181, 111, 195, 120, 3, 1.01354
141, 1, bw, attraction, a-b-da, 14, 3, 5, 10, 120, 195, 181, 111, 195, 120, 2, 0.635727
141, 1, bw, attraction, a-b-da, 5, 3, 5, 11, 120, 195, 195, 120, 190, 117, 3, 0.832064
141, 1, bw, attraction, a-b-da, 5, 3, 5, 11, 120, 195, 195, 120, 190, 117, 2, 0.941839
141, 1, bw, attraction, a-b-da, 2, 2, 5, 12, 90, 165, 163, 89, 165, 90, 3, 1.14164
141, 1, bw, attraction, a-b-da, 2, 2, 5, 12, 90, 165, 163, 89, 165, 90, 2, 0.718494
141, 1, bw, attraction, a-b-da, 9, 3, 5, 13, 120, 195, 195, 120, 186, 114, 2, 1.23954
141, 1, bw, attraction, a-b-da, 9, 3, 5, 13, 120, 195, 195, 120, 186, 114, 3, 1.34837
141, 1, bw, attraction, a-b-db, 14, 1, 5, 14, 60, 135, 56, 125, 135, 60, 3, 1.26803
141, 1, bw, attraction, a-b-db, 14, 1, 5, 14, 60, 135, 56, 125, 135, 60, 2, 0.608181
141, 1, bw, attraction, a-b-da, 2, 3, 5, 15, 195, 120, 193, 119, 120, 195, 1, 3.21327
141, 1, bw, attraction, a-b-da, 2, 3, 5, 15, 195, 120, 193, 119, 120, 195, 3, 1.44293
141, 1, bw, attraction, a-b-db, 5, 2, 5, 16, 90, 165, 88, 161, 165, 90, 1, 2.47031
141, 1, bw, attraction, a-b-db, 5, 2, 5, 16, 90, 165, 88, 161, 165, 90, 2, 0.562248
141, 1, bw, attraction, a-b-db, 2, 2, 5, 17, 89, 163, 90, 165, 165, 90, 3, 2.6333
141, 1, bw, attraction, a-b-db, 2, 2, 5, 17, 89, 163, 90, 165, 165, 90, 2, 0.510482
141, 1, bw, filler, NA, 999, 999, 5, 18, 194, 143, 74, 80, 84, 69, 1, 0.951529
141, 1, bw, filler, NA, 999, 999, 5, 18, 194, 143, 74, 80, 84, 69, 2, 0.728717
141, 1, bw, catch, NA, 999, 999, 5, 19, 108, 87, 126, 129, 182, 133, 3, 1.20905
141, 1, bw, catch, NA, 999, 999, 5, 19, 108, 87, 126, 129, 182, 133, 1, 0.583272
141, 1, bw, attraction, a-b-db, 5, 3, 5, 20, 195, 120, 117, 190, 120, 195, 3, 1.7978
141, 1, bw, attraction, a-b-db, 5, 3, 5, 20, 195, 120, 117, 190, 120, 195, 2, 0.59647
141, 1, bw, attraction, a-b-db, 9, 1, 5, 21, 57, 129, 135, 60, 60, 135, 1, 4.65018
141, 1, bw, attraction, a-b-db, 9, 1, 5, 21, 57, 129, 135, 60, 60, 135, 2, 2.82214
141, 1, bw, filler, NA, 999, 999, 5, 22, 156, 124, 186, 95, 76, 96, 1, 1.21855
141, 1, bw, filler, NA, 999, 999, 5, 22, 156, 124, 186, 95, 76, 96, 3, 0.584726
141, 1, bw, filler, NA, 999, 999, 5, 23, 86, 190, 102, 111, 61, 162, 1, 2.97513
141, 1, bw, filler, NA, 999, 999, 5, 23, 86, 190, 102, 111, 61, 162, 3, 0.974196
141, 1, bw, attraction, a-b-da, 14, 2, 5, 24, 90, 165, 165, 90, 153, 83, 1, 5.66846
141, 1, bw, attraction, a-b-da, 14, 2, 5, 24, 90, 165, 165, 90, 153, 83, 3, 0.719378
141, 1, bw, attraction, a-b-db, 14, 2, 5, 25, 83, 153, 165, 90, 90, 165, 2, 3.60845
141, 1, bw, attraction, a-b-db, 14, 2, 5, 25, 83, 153, 165, 90, 90, 165, 1, 2.50201
141, 1, bw, attraction, a-b-db, 2, 1, 5, 26, 59, 134, 60, 135, 135, 60, 2, 7.07906
141, 1, bw, attraction, a-b-db, 2, 1, 5, 26, 59, 134, 60, 135, 135, 60, 3, 0.376956
141, 1, bw, attraction, a-b-db, 2, 3, 5, 27, 195, 120, 120, 195, 119, 193, 1, 2.64728
141, 1, bw, attraction, a-b-db, 2, 3, 5, 27, 195, 120, 120, 195, 119, 193, 2, 0.467889
141, 1, bw, catch, NA, 999, 999, 5, 28, 189, 126, 118, 77, 96, 159, 1, 1.6069
141, 1, bw, catch, NA, 999, 999, 5, 28, 189, 126, 118, 77, 96, 159, 2, 0.61311
141, 1, bw, filler, NA, 999, 999, 5, 29, 57, 163, 182, 67, 165, 138, 3, 0.746188
141, 1, bw, filler, NA, 999, 999, 5, 29, 57, 163, 182, 67, 165, 138, 1, 1.15542
141, 1, bw, attraction, a-b-db, 5, 1, 5, 30, 58, 132, 135, 60, 60, 135, 3, 1.0909
141, 1, bw, attraction, a-b-db, 5, 1, 5, 30, 58, 132, 135, 60, 60, 135, 2, 0.61383
141, 1, bw, attraction, a-b-da, 5, 1, 5, 31, 132, 58, 60, 135, 135, 60, 2, 0.986844
141, 1, bw, attraction, a-b-da, 5, 1, 5, 31, 132, 58, 60, 135, 135, 60, 1, 0.394538
141, 1, bw, filler, NA, 999, 999, 5, 32, 60, 171, 173, 189, 68, 193, 2, 0.58435
141, 1, bw, filler, NA, 999, 999, 5, 32, 60, 171, 173, 189, 68, 193, 1, 0.61618
141, 1, bw, attraction, a-b-db, 14, 3, 5, 33, 195, 120, 111, 181, 120, 195, 1, 2.19713
141, 1, bw, attraction, a-b-db, 14, 3, 5, 33, 195, 120, 111, 181, 120, 195, 2, 0.491814
141, 1, bw, filler, NA, 999, 999, 5, 34, 104, 171, 73, 63, 116, 191, 3, 1.1576
141, 1, bw, filler, NA, 999, 999, 5, 34, 104, 171, 73, 63, 116, 191, 2, 0.85396
141, 1, bw, catch, NA, 999, 999, 5, 35, 112, 83, 131, 124, 158, 157, 3, 1.18563
141, 1, bw, catch, NA, 999, 999, 5, 35, 112, 83, 131, 124, 158, 157, 1, 0.569271
141, 1, bw, attraction, a-b-da, 14, 1, 5, 36, 135, 60, 60, 135, 125, 56, 2, 2.3842
141, 1, bw, attraction, a-b-da, 14, 1, 5, 36, 135, 60, 60, 135, 125, 56, 3, 0.399501
141, 1, bw, filler, NA, 999, 999, 5, 37, 64, 115, 134, 177, 81, 179, 2, 0.62126
141, 1, bw, filler, NA, 999, 999, 5, 37, 64, 115, 134, 177, 81, 179, 1, 0.637221
141, 1, bw, attraction, a-b-da, 5, 1, 6, 1, 60, 135, 135, 60, 132, 58, 1, 1.00017
141, 1, bw, attraction, a-b-da, 5, 1, 6, 1, 60, 135, 135, 60, 132, 58, 2, 0.399098
141, 1, bw, attraction, a-b-da, 14, 2, 6, 2, 90, 165, 153, 83, 165, 90, 1, 0.780883
141, 1, bw, attraction, a-b-da, 14, 2, 6, 2, 90, 165, 153, 83, 165, 90, 2, 0.492841
141, 1, bw, attraction, a-b-da, 5, 3, 6, 3, 120, 195, 190, 117, 195, 120, 2, 0.75851
141, 1, bw, attraction, a-b-da, 5, 3, 6, 3, 120, 195, 190, 117, 195, 120, 3, 0.446914
141, 1, bw, attraction, a-b-db, 5, 1, 6, 4, 60, 135, 58, 132, 135, 60, 1, 1.91469
141, 1, bw, attraction, a-b-db, 5, 1, 6, 4, 60, 135, 58, 132, 135, 60, 3, 0.964718
141, 1, bw, attraction, a-b-db, 2, 3, 6, 5, 195, 120, 120, 195, 119, 193, 2, 1.15567
141, 1, bw, attraction, a-b-db, 2, 3, 6, 5, 195, 120, 120, 195, 119, 193, 3, 0.739938
141, 1, bw, filler, NA, 999, 999, 6, 6, 117, 177, 188, 57, 158, 127, 1, 2.63634
141, 1, bw, filler, NA, 999, 999, 6, 6, 117, 177, 188, 57, 158, 127, 3, 0.801482
141, 1, bw, filler, NA, 999, 999, 6, 7, 193, 88, 192, 57, 179, 69, 1, 2.71915
141, 1, bw, filler, NA, 999, 999, 6, 7, 193, 88, 192, 57, 179, 69, 3, 0.825124
141, 1, bw, attraction, a-b-db, 5, 2, 6, 8, 88, 161, 165, 90, 90, 165, 3, 1.20529
141, 1, bw, attraction, a-b-db, 5, 2, 6, 8, 88, 161, 165, 90, 90, 165, 2, 0.47557
141, 1, bw, filler, NA, 999, 999, 6, 9, 75, 71, 141, 75, 139, 71, 2, 0.822075
141, 1, bw, filler, NA, 999, 999, 6, 9, 75, 71, 141, 75, 139, 71, 1, 0.547826
141, 1, bw, attraction, a-b-da, 2, 3, 6, 10, 120, 195, 193, 119, 195, 120, 3, 2.05154
141, 1, bw, attraction, a-b-da, 2, 3, 6, 10, 120, 195, 193, 119, 195, 120, 2, 0.336141
141, 1, bw, attraction, a-b-da, 5, 2, 6, 11, 90, 165, 165, 90, 161, 88, 2, 1.04079
141, 1, bw, attraction, a-b-da, 5, 2, 6, 11, 90, 165, 165, 90, 161, 88, 3, 0.309717
141, 1, bw, attraction, a-b-da, 14, 1, 6, 12, 125, 56, 135, 60, 60, 135, 1, 1.17297
141, 1, bw, attraction, a-b-da, 14, 1, 6, 12, 125, 56, 135, 60, 60, 135, 2, 0.718603
141, 1, bw, filler, NA, 999, 999, 6, 13, 159, 189, 167, 134, 116, 161, 2, 0.663633
141, 1, bw, filler, NA, 999, 999, 6, 13, 159, 189, 167, 134, 116, 161, 3, 0.315904
141, 1, bw, attraction, a-b-db, 2, 1, 6, 14, 135, 60, 59, 134, 60, 135, 2, 1.22118
141, 1, bw, attraction, a-b-db, 2, 1, 6, 14, 135, 60, 59, 134, 60, 135, 3, 0.459406
141, 1, bw, attraction, a-b-db, 14, 2, 6, 15, 90, 165, 165, 90, 83, 153, 1, 1.8466
141, 1, bw, attraction, a-b-db, 14, 2, 6, 15, 90, 165, 165, 90, 83, 153, 2, 0.403229
141, 1, bw, attraction, a-b-da, 2, 1, 6, 16, 135, 60, 60, 135, 134, 59, 2, 3.09714
141, 1, bw, attraction, a-b-da, 2, 1, 6, 16, 135, 60, 60, 135, 134, 59, 1, 0.571433
141, 1, bw, catch, NA, 999, 999, 6, 17, 100, 155, 167, 148, 69, 126, 2, 0.762586
141, 1, bw, catch, NA, 999, 999, 6, 17, 100, 155, 167, 148, 69, 126, 3, 0.586976
141, 1, bw, attraction, a-b-da, 2, 2, 6, 18, 165, 90, 90, 165, 163, 89, 1, 3.44133
141, 1, bw, attraction, a-b-da, 2, 2, 6, 18, 165, 90, 90, 165, 163, 89, 2, 0.469546
141, 1, bw, filler, NA, 999, 999, 6, 19, 92, 163, 141, 59, 170, 142, 3, 0.688675
141, 1, bw, filler, NA, 999, 999, 6, 19, 92, 163, 141, 59, 170, 142, 2, 0.443883
141, 1, bw, filler, NA, 999, 999, 6, 20, 188, 174, 58, 121, 185, 174, 3, 0.66363
141, 1, bw, filler, NA, 999, 999, 6, 20, 188, 174, 58, 121, 185, 174, 2, 6.96404
141, 1, bw, attraction, a-b-db, 9, 3, 6, 21, 114, 186, 120, 195, 195, 120, 2, 1.71322
141, 1, bw, attraction, a-b-db, 9, 3, 6, 21, 114, 186, 120, 195, 195, 120, 3, 0.44332
141, 1, bw, attraction, a-b-db, 5, 3, 6, 22, 120, 195, 195, 120, 117, 190, 1, 1.61503
141, 1, bw, attraction, a-b-db, 5, 3, 6, 22, 120, 195, 195, 120, 117, 190, 2, 0.741169
141, 1, bw, attraction, a-b-db, 2, 2, 6, 23, 89, 163, 165, 90, 90, 165, 3, 1.93288
141, 1, bw, attraction, a-b-db, 2, 2, 6, 23, 89, 163, 165, 90, 90, 165, 1, 2.04618
141, 1, bw, attraction, a-b-da, 14, 3, 6, 24, 181, 111, 120, 195, 195, 120, 3, 6.53754
141, 1, bw, attraction, a-b-da, 14, 3, 6, 24, 181, 111, 120, 195, 195, 120, 1, 0.8894
141, 1, bw, attraction, a-b-db, 9, 2, 6, 25, 86, 157, 165, 90, 90, 165, 3, 7.94782
141, 1, bw, attraction, a-b-db, 9, 2, 6, 25, 86, 157, 165, 90, 90, 165, 1, 0.746674
141, 1, bw, attraction, a-b-da, 9, 3, 6, 26, 120, 195, 195, 120, 186, 114, 1, 1.89834
141, 1, bw, attraction, a-b-da, 9, 3, 6, 26, 120, 195, 195, 120, 186, 114, 3, 0.517026
141, 1, bw, filler, NA, 999, 999, 6, 27, 96, 146, 186, 71, 155, 74, 2, 2.32628
141, 1, bw, filler, NA, 999, 999, 6, 27, 96, 146, 186, 71, 155, 74, 3, 0.583501
141, 1, bw, filler, NA, 999, 999, 6, 28, 170, 168, 99, 91, 139, 126, 1, 1.03777
141, 1, bw, filler, NA, 999, 999, 6, 28, 170, 168, 99, 91, 139, 126, 2, 0.34755
141, 1, bw, filler, NA, 999, 999, 6, 29, 123, 125, 166, 144, 89, 115, 2, 0.771289
141, 1, bw, filler, NA, 999, 999, 6, 29, 123, 125, 166, 144, 89, 115, 3, 0.803128
141, 1, bw, catch, NA, 999, 999, 6, 30, 142, 173, 101, 154, 73, 122, 1, 0.904813
141, 1, bw, catch, NA, 999, 999, 6, 30, 142, 173, 101, 154, 73, 122, 3, 0.38792
141, 1, bw, catch, NA, 999, 999, 6, 31, 104, 91, 163, 92, 190, 125, 3, 0.706336
141, 1, bw, catch, NA, 999, 999, 6, 31, 104, 91, 163, 92, 190, 125, 1, 0.52464
141, 1, bw, attraction, a-b-db, 14, 3, 6, 32, 111, 181, 195, 120, 120, 195, 3, 2.03712
141, 1, bw, attraction, a-b-db, 14, 3, 6, 32, 111, 181, 195, 120, 120, 195, 1, 0.666467
141, 1, bw, attraction, a-b-da, 9, 1, 6, 33, 135, 60, 129, 57, 60, 135, 1, 0.981636
141, 1, bw, attraction, a-b-da, 9, 1, 6, 33, 135, 60, 129, 57, 60, 135, 2, 0.645302
141, 1, bw, filler, NA, 999, 999, 6, 34, 96, 150, 183, 91, 95, 141, 2, 1.66499
141, 1, bw, filler, NA, 999, 999, 6, 34, 96, 150, 183, 91, 95, 141, 3, 0.40159
141, 1, bw, attraction, a-b-da, 9, 2, 6, 35, 90, 165, 165, 90, 157, 86, 3, 0.9949
141, 1, bw, attraction, a-b-da, 9, 2, 6, 35, 90, 165, 165, 90, 157, 86, 2, 0.601835
141, 1, bw, attraction, a-b-db, 14, 1, 6, 36, 60, 135, 56, 125, 135, 60, 3, 1.36763
141, 1, bw, attraction, a-b-db, 14, 1, 6, 36, 60, 135, 56, 125, 135, 60, 2, 0.543791
141, 1, bw, attraction, a-b-db, 9, 1, 6, 37, 135, 60, 57, 129, 60, 135, 3, 0.999623
141, 1, bw, attraction, a-b-db, 9, 1, 6, 37, 135, 60, 57, 129, 60, 135, 2, 0.662722
141, 1, bw, filler, NA, 999, 999, 7, 1, 175, 85, 113, 115, 105, 129, 3, 1.70562
141, 1, bw, filler, NA, 999, 999, 7, 1, 175, 85, 113, 115, 105, 129, 2, 1.01982
141, 1, bw, catch, NA, 999, 999, 7, 2, 115, 80, 128, 187, 162, 93, 2, 1.31279
141, 1, bw, catch, NA, 999, 999, 7, 2, 115, 80, 128, 187, 162, 93, 1, 0.426965
141, 1, bw, filler, NA, 999, 999, 7, 3, 106, 134, 185, 193, 141, 191, 2, 2.03947
141, 1, bw, filler, NA, 999, 999, 7, 3, 106, 134, 185, 193, 141, 191, 1, 0.940053
141, 1, bw, catch, NA, 999, 999, 7, 4, 162, 153, 123, 72, 164, 91, 1, 0.900377
141, 1, bw, catch, NA, 999, 999, 7, 4, 162, 153, 123, 72, 164, 91, 2, 0.607394
141, 1, bw, attraction, a-b-da, 9, 1, 7, 5, 129, 57, 135, 60, 60, 135, 2, 2.34871
141, 1, bw, attraction, a-b-da, 9, 1, 7, 5, 129, 57, 135, 60, 60, 135, 3, 0.837143
141, 1, bw, filler, NA, 999, 999, 7, 6, 66, 170, 114, 71, 146, 60, 1, 2.30541
141, 1, bw, filler, NA, 999, 999, 7, 6, 66, 170, 114, 71, 146, 60, 2, 0.795338
141, 1, bw, attraction, a-b-db, 14, 3, 7, 7, 111, 181, 195, 120, 120, 195, 3, 2.51312
141, 1, bw, attraction, a-b-db, 14, 3, 7, 7, 111, 181, 195, 120, 120, 195, 2, 0.419
141, 1, bw, attraction, a-b-db, 2, 3, 7, 8, 119, 193, 120, 195, 195, 120, 2, 1.88003
141, 1, bw, attraction, a-b-db, 2, 3, 7, 8, 119, 193, 120, 195, 195, 120, 3, 0.231472
141, 1, bw, attraction, a-b-da, 2, 1, 7, 9, 60, 135, 134, 59, 135, 60, 1, 3.12807
141, 1, bw, attraction, a-b-da, 2, 1, 7, 9, 60, 135, 134, 59, 135, 60, 3, 0.441072
141, 1, bw, filler, NA, 999, 999, 7, 10, 99, 56, 112, 189, 83, 186, 2, 1.23685
141, 1, bw, filler, NA, 999, 999, 7, 10, 99, 56, 112, 189, 83, 186, 1, 0.370375
141, 1, bw, attraction, a-b-da, 5, 3, 7, 11, 190, 117, 120, 195, 195, 120, 2, 2.83352
141, 1, bw, attraction, a-b-da, 5, 3, 7, 11, 190, 117, 120, 195, 195, 120, 3, 1.23067
141, 1, bw, attraction, a-b-da, 2, 2, 7, 12, 90, 165, 163, 89, 165, 90, 1, 2.4109
141, 1, bw, attraction, a-b-da, 2, 2, 7, 12, 90, 165, 163, 89, 165, 90, 2, 0.720834
141, 1, bw, attraction, a-b-db, 14, 2, 7, 13, 165, 90, 90, 165, 83, 153, 2, 1.24182
141, 1, bw, attraction, a-b-db, 14, 2, 7, 13, 165, 90, 90, 165, 83, 153, 3, 0.734755
141, 1, bw, attraction, a-b-da, 5, 1, 7, 14, 132, 58, 60, 135, 135, 60, 2, 1.4231
141, 1, bw, attraction, a-b-da, 5, 1, 7, 14, 132, 58, 60, 135, 135, 60, 1, 0.596659
141, 1, bw, attraction, a-b-db, 5, 2, 7, 15, 165, 90, 90, 165, 88, 161, 2, 1.67438
141, 1, bw, attraction, a-b-db, 5, 2, 7, 15, 165, 90, 90, 165, 88, 161, 3, 0.717872
141, 1, bw, attraction, a-b-db, 5, 1, 7, 16, 60, 135, 58, 132, 135, 60, 1, 2.87091
141, 1, bw, attraction, a-b-db, 5, 1, 7, 16, 60, 135, 58, 132, 135, 60, 2, 1.16268
141, 1, bw, attraction, a-b-db, 2, 2, 7, 17, 165, 90, 90, 165, 89, 163, 2, 1.21749
141, 1, bw, attraction, a-b-db, 2, 2, 7, 17, 165, 90, 90, 165, 89, 163, 3, 1.23979
141, 1, bw, filler, NA, 999, 999, 7, 18, 119, 133, 96, 176, 143, 195, 3, 1.07593
141, 1, bw, filler, NA, 999, 999, 7, 18, 119, 133, 96, 176, 143, 195, 1, 0.623662
141, 1, bw, filler, NA, 999, 999, 7, 19, 174, 195, 101, 61, 164, 159, 1, 1.34804
141, 1, bw, filler, NA, 999, 999, 7, 19, 174, 195, 101, 61, 164, 159, 2, 0.615119
141, 1, bw, attraction, a-b-db, 9, 1, 7, 20, 135, 60, 60, 135, 57, 129, 2, 1.14603
141, 1, bw, attraction, a-b-db, 9, 1, 7, 20, 135, 60, 60, 135, 57, 129, 3, 0.490909
141, 1, bw, filler, NA, 999, 999, 7, 21, 175, 178, 126, 74, 187, 142, 1, 0.740657
141, 1, bw, filler, NA, 999, 999, 7, 21, 175, 178, 126, 74, 187, 142, 2, 0.637915
141, 1, bw, attraction, a-b-db, 14, 1, 7, 22, 56, 125, 60, 135, 135, 60, 2, 1.41028
141, 1, bw, attraction, a-b-db, 14, 1, 7, 22, 56, 125, 60, 135, 135, 60, 1, 0.952462
141, 1, bw, attraction, a-b-db, 9, 2, 7, 23, 165, 90, 90, 165, 86, 157, 2, 1.52011
141, 1, bw, attraction, a-b-db, 9, 2, 7, 23, 165, 90, 90, 165, 86, 157, 3, 0.60222
141, 1, bw, attraction, a-b-da, 14, 1, 7, 24, 135, 60, 125, 56, 60, 135, 1, 0.847998
141, 1, bw, attraction, a-b-da, 14, 1, 7, 24, 135, 60, 125, 56, 60, 135, 2, 0.485133
141, 1, bw, filler, NA, 999, 999, 7, 25, 142, 167, 193, 119, 147, 69, 2, 2.0555
141, 1, bw, filler, NA, 999, 999, 7, 25, 142, 167, 193, 119, 147, 69, 3, 2.01154
141, 1, bw, attraction, a-b-db, 9, 3, 7, 26, 114, 186, 195, 120, 120, 195, 3, 2.20016
141, 1, bw, attraction, a-b-db, 9, 3, 7, 26, 114, 186, 195, 120, 120, 195, 1, 1.33472
141, 1, bw, attraction, a-b-da, 2, 3, 7, 27, 120, 195, 193, 119, 195, 120, 2, 3.25494
141, 1, bw, attraction, a-b-da, 2, 3, 7, 27, 120, 195, 193, 119, 195, 120, 3, 0.571256
141, 1, bw, attraction, a-b-da, 9, 3, 7, 28, 195, 120, 120, 195, 186, 114, 2, 2.98628
141, 1, bw, attraction, a-b-da, 9, 3, 7, 28, 195, 120, 120, 195, 186, 114, 3, 0.457343
141, 1, bw, attraction, a-b-db, 2, 1, 7, 29, 135, 60, 59, 134, 60, 135, 1, 5.4765
141, 1, bw, attraction, a-b-db, 2, 1, 7, 29, 135, 60, 59, 134, 60, 135, 2, 0.734841
141, 1, bw, attraction, a-b-db, 5, 3, 7, 30, 195, 120, 120, 195, 117, 190, 2, 4.59123
141, 1, bw, attraction, a-b-db, 5, 3, 7, 30, 195, 120, 120, 195, 117, 190, 3, 0.669167
141, 1, bw, filler, NA, 999, 999, 7, 31, 169, 64, 79, 74, 184, 80, 3, 1.93611
141, 1, bw, filler, NA, 999, 999, 7, 31, 169, 64, 79, 74, 184, 80, 2, 8.80146
141, 1, bw, attraction, a-b-da, 5, 2, 7, 32, 161, 88, 90, 165, 165, 90, 3, 7.14873
141, 1, bw, attraction, a-b-da, 5, 2, 7, 32, 161, 88, 90, 165, 165, 90, 2, 1.40377
141, 1, bw, filler, NA, 999, 999, 7, 33, 144, 91, 104, 144, 79, 104, 2, 2.04919
141, 1, bw, filler, NA, 999, 999, 7, 33, 144, 91, 104, 144, 79, 104, 3, 0.453923
141, 1, bw, attraction, a-b-da, 9, 2, 7, 34, 157, 86, 90, 165, 165, 90, 2, 1.2497
141, 1, bw, attraction, a-b-da, 9, 2, 7, 34, 157, 86, 90, 165, 165, 90, 1, 0.486664
141, 1, bw, attraction, a-b-da, 14, 2, 7, 35, 90, 165, 165, 90, 153, 83, 1, 1.92909
141, 1, bw, attraction, a-b-da, 14, 2, 7, 35, 90, 165, 165, 90, 153, 83, 3, 0.634413
141, 1, bw, attraction, a-b-da, 14, 3, 7, 36, 181, 111, 120, 195, 195, 120, 2, 1.03083
141, 1, bw, attraction, a-b-da, 14, 3, 7, 36, 181, 111, 120, 195, 195, 120, 1, 0.732478
141, 1, bw, catch, NA, 999, 999, 7, 37, 171, 144, 78, 117, 117, 138, 1, 0.956827
141, 1, bw, catch, NA, 999, 999, 7, 37, 171, 144, 78, 117, 117, 138, 2, 0.46132
141, 1, bw, attraction, a-b-db, 14, 2, 8, 1, 90, 165, 83, 153, 165, 90, 2, 1.23237
141, 1, bw, attraction, a-b-db, 14, 2, 8, 1, 90, 165, 83, 153, 165, 90, 1, 0.725977
141, 1, bw, attraction, a-b-da, 2, 1, 8, 2, 135, 60, 134, 59, 60, 135, 1, 1.03035
141, 1, bw, attraction, a-b-da, 2, 1, 8, 2, 135, 60, 134, 59, 60, 135, 2, 0.467994
141, 1, bw, attraction, a-b-da, 2, 2, 8, 3, 165, 90, 90, 165, 163, 89, 2, 0.903094
141, 1, bw, attraction, a-b-da, 2, 2, 8, 3, 165, 90, 90, 165, 163, 89, 1, 1.14612
141, 1, bw, attraction, a-b-db, 5, 1, 8, 4, 58, 132, 60, 135, 135, 60, 3, 1.20177
141, 1, bw, attraction, a-b-db, 5, 1, 8, 4, 58, 132, 60, 135, 135, 60, 2, 0.528762
141, 1, bw, attraction, a-b-db, 2, 1, 8, 5, 60, 135, 59, 134, 135, 60, 2, 1.16115
141, 1, bw, attraction, a-b-db, 2, 1, 8, 5, 60, 135, 59, 134, 135, 60, 3, 0.473318
141, 1, bw, attraction, a-b-da, 14, 3, 8, 6, 120, 195, 181, 111, 195, 120, 3, 0.899797
141, 1, bw, attraction, a-b-da, 14, 3, 8, 6, 120, 195, 181, 111, 195, 120, 2, 0.814778
141, 1, bw, attraction, a-b-db, 2, 3, 8, 7, 195, 120, 120, 195, 119, 193, 2, 1.72385
141, 1, bw, attraction, a-b-db, 2, 3, 8, 7, 195, 120, 120, 195, 119, 193, 3, 0.445351
141, 1, bw, attraction, a-b-db, 9, 3, 8, 8, 120, 195, 195, 120, 114, 186, 1, 1.05718
141, 1, bw, attraction, a-b-db, 9, 3, 8, 8, 120, 195, 195, 120, 114, 186, 3, 1.54139
141, 1, bw, attraction, a-b-db, 5, 2, 8, 9, 90, 165, 165, 90, 88, 161, 1, 2.10088
141, 1, bw, attraction, a-b-db, 5, 2, 8, 9, 90, 165, 165, 90, 88, 161, 2, 0.895483
141, 1, bw, attraction, a-b-da, 9, 1, 8, 10, 129, 57, 135, 60, 60, 135, 2, 3.48126
141, 1, bw, attraction, a-b-da, 9, 1, 8, 10, 129, 57, 135, 60, 60, 135, 3, 0.548159
141, 1, bw, attraction, a-b-da, 14, 1, 8, 11, 135, 60, 60, 135, 125, 56, 1, 1.91578
141, 1, bw, attraction, a-b-da, 14, 1, 8, 11, 135, 60, 60, 135, 125, 56, 2, 1.04592
141, 1, bw, attraction, a-b-da, 9, 3, 8, 12, 186, 114, 120, 195, 195, 120, 2, 0.849486
141, 1, bw, attraction, a-b-da, 9, 3, 8, 12, 186, 114, 120, 195, 195, 120, 1, 0.630558
141, 1, bw, attraction, a-b-da, 14, 2, 8, 13, 165, 90, 153, 83, 90, 165, 3, 1.4349
141, 1, bw, attraction, a-b-da, 14, 2, 8, 13, 165, 90, 153, 83, 90, 165, 2, 0.448409
141, 1, bw, filler, NA, 999, 999, 8, 14, 85, 148, 130, 157, 194, 72, 2, 0.940339
141, 1, bw, filler, NA, 999, 999, 8, 14, 85, 148, 130, 157, 194, 72, 1, 0.502292
141, 1, bw, filler, NA, 999, 999, 8, 15, 108, 94, 101, 184, 89, 103, 2, 1.00714
141, 1, bw, filler, NA, 999, 999, 8, 15, 108, 94, 101, 184, 89, 103, 3, 1.43742
141, 1, bw, attraction, a-b-db, 9, 2, 8, 16, 165, 90, 86, 157, 90, 165, 1, 1.1055
141, 1, bw, attraction, a-b-db, 9, 2, 8, 16, 165, 90, 86, 157, 90, 165, 2, 0.595945
141, 1, bw, attraction, a-b-db, 5, 3, 8, 17, 117, 190, 120, 195, 195, 120, 2, 1.73757
141, 1, bw, attraction, a-b-db, 5, 3, 8, 17, 117, 190, 120, 195, 195, 120, 3, 0.435118
141, 1, bw, filler, NA, 999, 999, 8, 18, 137, 172, 88, 178, 79, 87, 1, 1.12747
141, 1, bw, filler, NA, 999, 999, 8, 18, 137, 172, 88, 178, 79, 87, 3, 0.54519
141, 1, bw, attraction, a-b-da, 2, 3, 8, 19, 120, 195, 193, 119, 195, 120, 2, 3.27289
141, 1, bw, attraction, a-b-da, 2, 3, 8, 19, 120, 195, 193, 119, 195, 120, 3, 0.515939
141, 1, bw, attraction, a-b-da, 9, 2, 8, 20, 165, 90, 90, 165, 157, 86, 1, 0.901004
141, 1, bw, attraction, a-b-da, 9, 2, 8, 20, 165, 90, 90, 165, 157, 86, 2, 0.471938
141, 1, bw, filler, NA, 999, 999, 8, 21, 193, 104, 66, 154, 90, 142, 1, 0.811036
141, 1, bw, filler, NA, 999, 999, 8, 21, 193, 104, 66, 154, 90, 142, 2, 0.409574
141, 1, bw, attraction, a-b-da, 5, 3, 8, 22, 120, 195, 190, 117, 195, 120, 2, 0.84675
141, 1, bw, attraction, a-b-da, 5, 3, 8, 22, 120, 195, 190, 117, 195, 120, 1, 0.547861
141, 1, bw, catch, NA, 999, 999, 8, 23, 148, 167, 122, 73, 102, 153, 1, 0.803508
141, 1, bw, catch, NA, 999, 999, 8, 23, 148, 167, 122, 73, 102, 153, 2, 0.378657
141, 1, bw, attraction, a-b-da, 5, 2, 8, 24, 161, 88, 165, 90, 90, 165, 3, 3.36106
141, 1, bw, attraction, a-b-da, 5, 2, 8, 24, 161, 88, 165, 90, 90, 165, 1, 2.3767
141, 1, bw, catch, NA, 999, 999, 8, 25, 181, 134, 136, 119, 111, 84, 1, 1.11059
141, 1, bw, catch, NA, 999, 999, 8, 25, 181, 134, 136, 119, 111, 84, 3, 0.864778
141, 1, bw, filler, NA, 999, 999, 8, 26, 150, 100, 174, 88, 178, 174, 3, 1.90774
141, 1, bw, filler, NA, 999, 999, 8, 26, 150, 100, 174, 88, 178, 174, 1, 1.11786
141, 1, bw, attraction, a-b-db, 14, 3, 8, 27, 111, 181, 195, 120, 120, 195, 3, 2.06269
141, 1, bw, attraction, a-b-db, 14, 3, 8, 27, 111, 181, 195, 120, 120, 195, 1, 1.19481
141, 1, bw, filler, NA, 999, 999, 8, 28, 141, 150, 58, 195, 159, 161, 3, 4.7763
141, 1, bw, filler, NA, 999, 999, 8, 28, 141, 150, 58, 195, 159, 161, 2, 1.03886
141, 1, bw, filler, NA, 999, 999, 8, 29, 90, 76, 100, 123, 146, 106, 3, 2.17108
141, 1, bw, filler, NA, 999, 999, 8, 29, 90, 76, 100, 123, 146, 106, 1, 0.627051
141, 1, bw, catch, NA, 999, 999, 8, 30, 138, 117, 149, 166, 70, 125, 2, 1.18344
141, 1, bw, catch, NA, 999, 999, 8, 30, 138, 117, 149, 166, 70, 125, 3, 0.535027
141, 1, bw, attraction, a-b-da, 5, 1, 8, 31, 60, 135, 132, 58, 135, 60, 3, 3.14342
141, 1, bw, attraction, a-b-da, 5, 1, 8, 31, 60, 135, 132, 58, 135, 60, 2, 0.959933
141, 1, bw, filler, NA, 999, 999, 8, 32, 87, 167, 80, 61, 98, 62, 1, 0.710764
141, 1, bw, filler, NA, 999, 999, 8, 32, 87, 167, 80, 61, 98, 62, 2, 0.441211
141, 1, bw, attraction, a-b-db, 9, 1, 8, 33, 135, 60, 57, 129, 60, 135, 2, 1.42099
141, 1, bw, attraction, a-b-db, 9, 1, 8, 33, 135, 60, 57, 129, 60, 135, 1, 0.603183
141, 1, bw, filler, NA, 999, 999, 8, 34, 110, 81, 159, 163, 141, 142, 2, 0.792893
141, 1, bw, filler, NA, 999, 999, 8, 34, 110, 81, 159, 163, 141, 142, 1, 0.712003
141, 1, bw, attraction, a-b-db, 2, 2, 8, 35, 165, 90, 90, 165, 89, 163, 1, 2.03309
141, 1, bw, attraction, a-b-db, 2, 2, 8, 35, 165, 90, 90, 165, 89, 163, 2, 0.734458
141, 1, bw, attraction, a-b-db, 14, 1, 8, 36, 135, 60, 56, 125, 60, 135, 1, 1.87082
141, 1, bw, attraction, a-b-db, 14, 1, 8, 36, 135, 60, 56, 125, 60, 135, 2, 0.586821
141, 1, bw, filler, NA, 999, 999, 8, 37, 171, 107, 90, 162, 109, 160, 1, 2.60936
141, 1, bw, filler, NA, 999, 999, 8, 37, 171, 107, 90, 162, 109, 160, 2, 1.58313
