sub_n, computer_n, bw_cond, effect, set, distance, diag, block_n, trial_n, h1, w1, h2, w2, h3, w3, choice, rt 
121, 1, bw, practice, NA, 999, 999, 0, 1, 148, 59, 180, 124, 79, 66, 2, 3.09659
121, 1, bw, practice, NA, 999, 999, 0, 1, 148, 59, 180, 124, 79, 66, 3, 1.84592
121, 1, bw, practice, NA, 999, 999, 0, 2, 57, 190, 92, 135, 163, 119, 3, 1.90006
121, 1, bw, practice, NA, 999, 999, 0, 2, 57, 190, 92, 135, 163, 119, 1, 1.95864
121, 1, bw, practice, NA, 999, 999, 0, 3, 148, 121, 185, 79, 176, 136, 3, 2.15249
121, 1, bw, practice, NA, 999, 999, 0, 3, 148, 121, 185, 79, 176, 136, 2, 4.06648
121, 1, bw, attraction, a-b-da, 9, 1, 1, 1, 60, 135, 135, 60, 129, 57, 1, 3.93871
121, 1, bw, attraction, a-b-da, 9, 1, 1, 1, 60, 135, 135, 60, 129, 57, 3, 2.33155
121, 1, bw, attraction, a-b-da, 5, 1, 1, 2, 132, 58, 135, 60, 60, 135, 3, 2.1713
121, 1, bw, attraction, a-b-da, 5, 1, 1, 2, 132, 58, 135, 60, 60, 135, 1, 1.75526
121, 1, bw, attraction, a-b-db, 14, 2, 1, 3, 165, 90, 83, 153, 90, 165, 3, 1.93866
121, 1, bw, attraction, a-b-db, 14, 2, 1, 3, 165, 90, 83, 153, 90, 165, 2, 5.05937
121, 1, bw, attraction, a-b-da, 9, 2, 1, 4, 157, 86, 90, 165, 165, 90, 2, 5.33307
121, 1, bw, attraction, a-b-da, 9, 2, 1, 4, 157, 86, 90, 165, 165, 90, 3, 2.6373
121, 1, bw, attraction, a-b-da, 2, 3, 1, 5, 195, 120, 120, 195, 193, 119, 2, 1.48127
121, 1, bw, attraction, a-b-da, 2, 3, 1, 5, 195, 120, 120, 195, 193, 119, 3, 2.83679
121, 1, bw, filler, NA, 999, 999, 1, 6, 162, 142, 148, 161, 153, 137, 2, 2.9284
121, 1, bw, filler, NA, 999, 999, 1, 6, 162, 142, 148, 161, 153, 137, 3, 1.21743
121, 1, bw, attraction, a-b-da, 9, 3, 1, 7, 120, 195, 186, 114, 195, 120, 1, 2.08633
121, 1, bw, attraction, a-b-da, 9, 3, 1, 7, 120, 195, 186, 114, 195, 120, 2, 1.76963
121, 1, bw, attraction, a-b-db, 14, 1, 1, 8, 60, 135, 135, 60, 56, 125, 1, 1.65634
121, 1, bw, attraction, a-b-db, 14, 1, 1, 8, 60, 135, 135, 60, 56, 125, 3, 1.33262
121, 1, bw, attraction, a-b-db, 2, 1, 1, 9, 135, 60, 60, 135, 59, 134, 3, 9.3807
121, 1, bw, attraction, a-b-db, 2, 1, 1, 9, 135, 60, 60, 135, 59, 134, 1, 0.921835
121, 1, bw, catch, NA, 999, 999, 1, 10, 123, 72, 168, 147, 118, 137, 2, 1.02674
121, 1, bw, catch, NA, 999, 999, 1, 10, 123, 72, 168, 147, 118, 137, 1, 1.07234
121, 1, bw, attraction, a-b-db, 14, 3, 1, 11, 195, 120, 111, 181, 120, 195, 3, 3.62735
121, 1, bw, attraction, a-b-db, 14, 3, 1, 11, 195, 120, 111, 181, 120, 195, 2, 1.82417
121, 1, bw, filler, NA, 999, 999, 1, 12, 105, 102, 74, 117, 170, 122, 3, 1.28422
121, 1, bw, filler, NA, 999, 999, 1, 12, 105, 102, 74, 117, 170, 122, 2, 6.63987
121, 1, bw, attraction, a-b-db, 9, 2, 1, 13, 165, 90, 86, 157, 90, 165, 3, 2.38636
121, 1, bw, attraction, a-b-db, 9, 2, 1, 13, 165, 90, 86, 157, 90, 165, 2, 1.84165
121, 1, bw, filler, NA, 999, 999, 1, 14, 134, 114, 192, 172, 190, 152, 2, 0.94885
121, 1, bw, filler, NA, 999, 999, 1, 14, 134, 114, 192, 172, 190, 152, 1, 1.66192
121, 1, bw, attraction, a-b-db, 9, 3, 1, 15, 195, 120, 114, 186, 120, 195, 2, 2.91279
121, 1, bw, attraction, a-b-db, 9, 3, 1, 15, 195, 120, 114, 186, 120, 195, 1, 2.57846
121, 1, bw, catch, NA, 999, 999, 1, 16, 165, 90, 83, 112, 155, 160, 3, 0.952192
121, 1, bw, catch, NA, 999, 999, 1, 16, 165, 90, 83, 112, 155, 160, 2, 1.11331
121, 1, bw, attraction, a-b-da, 5, 2, 1, 17, 90, 165, 161, 88, 165, 90, 1, 1.75428
121, 1, bw, attraction, a-b-da, 5, 2, 1, 17, 90, 165, 161, 88, 165, 90, 3, 1.76291
121, 1, bw, attraction, a-b-da, 5, 3, 1, 18, 120, 195, 190, 117, 195, 120, 1, 1.12961
121, 1, bw, attraction, a-b-da, 5, 3, 1, 18, 120, 195, 190, 117, 195, 120, 3, 1.59532
121, 1, bw, filler, NA, 999, 999, 1, 19, 124, 70, 90, 85, 145, 142, 3, 2.35281
121, 1, bw, filler, NA, 999, 999, 1, 19, 124, 70, 90, 85, 145, 142, 1, 2.81725
121, 1, bw, filler, NA, 999, 999, 1, 20, 183, 64, 187, 74, 92, 187, 3, 1.25363
121, 1, bw, filler, NA, 999, 999, 1, 20, 183, 64, 187, 74, 92, 187, 2, 1.43467
121, 1, bw, attraction, a-b-da, 14, 1, 1, 21, 135, 60, 125, 56, 60, 135, 3, 3.71074
121, 1, bw, attraction, a-b-da, 14, 1, 1, 21, 135, 60, 125, 56, 60, 135, 2, 0.752194
121, 1, bw, attraction, a-b-da, 2, 2, 1, 22, 165, 90, 163, 89, 90, 165, 3, 1.99201
121, 1, bw, attraction, a-b-da, 2, 2, 1, 22, 165, 90, 163, 89, 90, 165, 2, 1.32674
121, 1, bw, attraction, a-b-db, 2, 2, 1, 23, 165, 90, 89, 163, 90, 165, 2, 5.0947
121, 1, bw, attraction, a-b-db, 2, 2, 1, 23, 165, 90, 89, 163, 90, 165, 1, 3.16867
121, 1, bw, filler, NA, 999, 999, 1, 24, 136, 86, 118, 80, 161, 165, 3, 0.766802
121, 1, bw, filler, NA, 999, 999, 1, 24, 136, 86, 118, 80, 161, 165, 2, 1.11929
121, 1, bw, attraction, a-b-da, 14, 2, 1, 25, 153, 83, 165, 90, 90, 165, 3, 2.23215
121, 1, bw, attraction, a-b-da, 14, 2, 1, 25, 153, 83, 165, 90, 90, 165, 1, 1.6374
121, 1, bw, attraction, a-b-da, 2, 1, 1, 26, 60, 135, 134, 59, 135, 60, 1, 1.56144
121, 1, bw, attraction, a-b-da, 2, 1, 1, 26, 60, 135, 134, 59, 135, 60, 3, 0.929671
121, 1, bw, filler, NA, 999, 999, 1, 27, 93, 63, 110, 164, 143, 191, 3, 1.0499
121, 1, bw, filler, NA, 999, 999, 1, 27, 93, 63, 110, 164, 143, 191, 1, 0.767037
121, 1, bw, attraction, a-b-db, 5, 3, 1, 28, 195, 120, 120, 195, 117, 190, 2, 1.8541
121, 1, bw, attraction, a-b-db, 5, 3, 1, 28, 195, 120, 120, 195, 117, 190, 3, 1.26692
121, 1, bw, catch, NA, 999, 999, 1, 29, 143, 172, 117, 138, 134, 61, 1, 1.2936
121, 1, bw, catch, NA, 999, 999, 1, 29, 143, 172, 117, 138, 134, 61, 3, 1.1046
121, 1, bw, filler, NA, 999, 999, 1, 30, 173, 136, 102, 170, 194, 107, 1, 1.56219
121, 1, bw, filler, NA, 999, 999, 1, 30, 173, 136, 102, 170, 194, 107, 3, 0.690197
121, 1, bw, filler, NA, 999, 999, 1, 31, 105, 143, 83, 135, 179, 174, 3, 1.0919
121, 1, bw, filler, NA, 999, 999, 1, 31, 105, 143, 83, 135, 179, 174, 2, 1.72699
121, 1, bw, attraction, a-b-db, 2, 3, 1, 32, 120, 195, 119, 193, 195, 120, 1, 1.19089
121, 1, bw, attraction, a-b-db, 2, 3, 1, 32, 120, 195, 119, 193, 195, 120, 3, 2.65397
121, 1, bw, attraction, a-b-db, 5, 2, 1, 33, 165, 90, 90, 165, 88, 161, 2, 2.76101
121, 1, bw, attraction, a-b-db, 5, 2, 1, 33, 165, 90, 90, 165, 88, 161, 1, 3.61691
121, 1, bw, filler, NA, 999, 999, 1, 34, 129, 183, 146, 143, 131, 84, 2, 3.205
121, 1, bw, filler, NA, 999, 999, 1, 34, 129, 183, 146, 143, 131, 84, 3, 0.763269
121, 1, bw, attraction, a-b-db, 5, 1, 1, 35, 60, 135, 135, 60, 58, 132, 3, 3.0185
121, 1, bw, attraction, a-b-db, 5, 1, 1, 35, 60, 135, 135, 60, 58, 132, 2, 0.792026
121, 1, bw, attraction, a-b-da, 14, 3, 1, 36, 120, 195, 181, 111, 195, 120, 1, 1.58172
121, 1, bw, attraction, a-b-da, 14, 3, 1, 36, 120, 195, 181, 111, 195, 120, 2, 0.941234
121, 1, bw, attraction, a-b-db, 9, 1, 1, 37, 135, 60, 60, 135, 57, 129, 2, 2.59675
121, 1, bw, attraction, a-b-db, 9, 1, 1, 37, 135, 60, 60, 135, 57, 129, 1, 2.17927
121, 1, bw, attraction, a-b-da, 14, 2, 2, 1, 90, 165, 153, 83, 165, 90, 1, 1.49724
121, 1, bw, attraction, a-b-da, 14, 2, 2, 1, 90, 165, 153, 83, 165, 90, 2, 0.636092
121, 1, bw, filler, NA, 999, 999, 2, 2, 147, 183, 140, 149, 79, 143, 1, 0.952418
121, 1, bw, filler, NA, 999, 999, 2, 2, 147, 183, 140, 149, 79, 143, 3, 1.16959
121, 1, bw, attraction, a-b-da, 14, 1, 2, 3, 60, 135, 135, 60, 125, 56, 1, 2.12041
121, 1, bw, attraction, a-b-da, 14, 1, 2, 3, 60, 135, 135, 60, 125, 56, 3, 0.930437
121, 1, bw, attraction, a-b-db, 9, 2, 2, 4, 86, 157, 90, 165, 165, 90, 2, 2.72269
121, 1, bw, attraction, a-b-db, 9, 2, 2, 4, 86, 157, 90, 165, 165, 90, 3, 1.15588
121, 1, bw, attraction, a-b-da, 9, 3, 2, 5, 120, 195, 195, 120, 186, 114, 1, 1.02748
121, 1, bw, attraction, a-b-da, 9, 3, 2, 5, 120, 195, 195, 120, 186, 114, 3, 1.67309
121, 1, bw, filler, NA, 999, 999, 2, 6, 143, 130, 192, 156, 61, 169, 2, 1.25175
121, 1, bw, filler, NA, 999, 999, 2, 6, 143, 130, 192, 156, 61, 169, 3, 0.944687
121, 1, bw, attraction, a-b-db, 2, 1, 2, 7, 60, 135, 135, 60, 59, 134, 1, 4.24033
121, 1, bw, attraction, a-b-db, 2, 1, 2, 7, 60, 135, 135, 60, 59, 134, 3, 0.644319
121, 1, bw, attraction, a-b-da, 5, 1, 2, 8, 135, 60, 132, 58, 60, 135, 1, 1.96018
121, 1, bw, attraction, a-b-da, 5, 1, 2, 8, 135, 60, 132, 58, 60, 135, 3, 0.824129
121, 1, bw, catch, NA, 999, 999, 2, 9, 103, 152, 107, 88, 150, 165, 3, 0.716433
121, 1, bw, catch, NA, 999, 999, 2, 9, 103, 152, 107, 88, 150, 165, 2, 0.550867
121, 1, bw, attraction, a-b-da, 2, 2, 2, 10, 163, 89, 165, 90, 90, 165, 3, 2.14271
121, 1, bw, attraction, a-b-da, 2, 2, 2, 10, 163, 89, 165, 90, 90, 165, 2, 0.599315
121, 1, bw, filler, NA, 999, 999, 2, 11, 68, 61, 173, 123, 180, 132, 3, 1.09304
121, 1, bw, filler, NA, 999, 999, 2, 11, 68, 61, 173, 123, 180, 132, 1, 1.20002
121, 1, bw, attraction, a-b-db, 5, 1, 2, 12, 60, 135, 58, 132, 135, 60, 1, 5.38965
121, 1, bw, attraction, a-b-db, 5, 1, 2, 12, 60, 135, 58, 132, 135, 60, 3, 0.95525
121, 1, bw, filler, NA, 999, 999, 2, 13, 194, 80, 164, 192, 151, 122, 2, 0.730856
121, 1, bw, filler, NA, 999, 999, 2, 13, 194, 80, 164, 192, 151, 122, 1, 1.74067
121, 1, bw, catch, NA, 999, 999, 2, 14, 173, 142, 73, 122, 141, 114, 1, 0.980125
121, 1, bw, catch, NA, 999, 999, 2, 14, 173, 142, 73, 122, 141, 114, 2, 1.05163
121, 1, bw, attraction, a-b-db, 5, 3, 2, 15, 195, 120, 117, 190, 120, 195, 2, 2.91931
121, 1, bw, attraction, a-b-db, 5, 3, 2, 15, 195, 120, 117, 190, 120, 195, 3, 0.865045
121, 1, bw, filler, NA, 999, 999, 2, 16, 135, 68, 169, 180, 117, 105, 2, 0.931949
121, 1, bw, filler, NA, 999, 999, 2, 16, 135, 68, 169, 180, 117, 105, 1, 2.27766
121, 1, bw, attraction, a-b-da, 9, 2, 2, 17, 157, 86, 90, 165, 165, 90, 2, 3.88752
121, 1, bw, attraction, a-b-da, 9, 2, 2, 17, 157, 86, 90, 165, 165, 90, 1, 1.00235
121, 1, bw, catch, NA, 999, 999, 2, 18, 93, 162, 128, 67, 143, 172, 3, 1.34397
121, 1, bw, catch, NA, 999, 999, 2, 18, 93, 162, 128, 67, 143, 172, 2, 0.616845
121, 1, bw, filler, NA, 999, 999, 2, 19, 82, 193, 85, 101, 78, 86, 1, 1.61391
121, 1, bw, filler, NA, 999, 999, 2, 19, 82, 193, 85, 101, 78, 86, 3, 0.772072
121, 1, bw, attraction, a-b-db, 2, 3, 2, 20, 195, 120, 119, 193, 120, 195, 2, 2.21913
121, 1, bw, attraction, a-b-db, 2, 3, 2, 20, 195, 120, 119, 193, 120, 195, 3, 1.15313
121, 1, bw, filler, NA, 999, 999, 2, 21, 180, 184, 185, 136, 154, 153, 1, 0.944607
121, 1, bw, filler, NA, 999, 999, 2, 21, 180, 184, 185, 136, 154, 153, 3, 0.993679
121, 1, bw, attraction, a-b-db, 5, 2, 2, 22, 165, 90, 90, 165, 88, 161, 2, 1.7192
121, 1, bw, attraction, a-b-db, 5, 2, 2, 22, 165, 90, 90, 165, 88, 161, 1, 1.74546
121, 1, bw, attraction, a-b-db, 14, 3, 2, 23, 111, 181, 120, 195, 195, 120, 2, 1.07278
121, 1, bw, attraction, a-b-db, 14, 3, 2, 23, 111, 181, 120, 195, 195, 120, 3, 0.916447
121, 1, bw, attraction, a-b-db, 9, 1, 2, 24, 57, 129, 135, 60, 60, 135, 2, 2.86942
121, 1, bw, attraction, a-b-db, 9, 1, 2, 24, 57, 129, 135, 60, 60, 135, 1, 0.705209
121, 1, bw, attraction, a-b-db, 9, 3, 2, 25, 114, 186, 120, 195, 195, 120, 3, 2.7389
121, 1, bw, attraction, a-b-db, 9, 3, 2, 25, 114, 186, 120, 195, 195, 120, 1, 1.01939
121, 1, bw, attraction, a-b-da, 2, 1, 2, 26, 134, 59, 135, 60, 60, 135, 2, 1.42437
121, 1, bw, attraction, a-b-da, 2, 1, 2, 26, 134, 59, 135, 60, 60, 135, 1, 1.31787
121, 1, bw, filler, NA, 999, 999, 2, 27, 145, 75, 162, 176, 183, 124, 2, 1.25471
121, 1, bw, filler, NA, 999, 999, 2, 27, 145, 75, 162, 176, 183, 124, 1, 0.994919
121, 1, bw, attraction, a-b-da, 5, 3, 2, 28, 190, 117, 120, 195, 195, 120, 2, 2.3045
121, 1, bw, attraction, a-b-da, 5, 3, 2, 28, 190, 117, 120, 195, 195, 120, 1, 0.859082
121, 1, bw, attraction, a-b-db, 2, 2, 2, 29, 89, 163, 165, 90, 90, 165, 1, 1.43821
121, 1, bw, attraction, a-b-db, 2, 2, 2, 29, 89, 163, 165, 90, 90, 165, 2, 0.634928
121, 1, bw, filler, NA, 999, 999, 2, 30, 101, 113, 167, 82, 76, 110, 2, 2.83948
121, 1, bw, filler, NA, 999, 999, 2, 30, 101, 113, 167, 82, 76, 110, 3, 0.547915
121, 1, bw, attraction, a-b-da, 9, 1, 2, 31, 129, 57, 60, 135, 135, 60, 1, 2.51567
121, 1, bw, attraction, a-b-da, 9, 1, 2, 31, 129, 57, 60, 135, 135, 60, 3, 1.42166
121, 1, bw, attraction, a-b-da, 2, 3, 2, 32, 193, 119, 120, 195, 195, 120, 2, 1.81832
121, 1, bw, attraction, a-b-da, 2, 3, 2, 32, 193, 119, 120, 195, 195, 120, 3, 0.696538
121, 1, bw, attraction, a-b-da, 5, 2, 2, 33, 90, 165, 161, 88, 165, 90, 1, 0.954105
121, 1, bw, attraction, a-b-da, 5, 2, 2, 33, 90, 165, 161, 88, 165, 90, 3, 0.787122
121, 1, bw, filler, NA, 999, 999, 2, 34, 155, 141, 180, 161, 60, 150, 2, 2.52953
121, 1, bw, filler, NA, 999, 999, 2, 34, 155, 141, 180, 161, 60, 150, 3, 0.898729
121, 1, bw, attraction, a-b-da, 14, 3, 2, 35, 181, 111, 195, 120, 120, 195, 3, 0.90028
121, 1, bw, attraction, a-b-da, 14, 3, 2, 35, 181, 111, 195, 120, 120, 195, 1, 0.735451
121, 1, bw, attraction, a-b-db, 14, 1, 2, 36, 60, 135, 135, 60, 56, 125, 1, 3.42371
121, 1, bw, attraction, a-b-db, 14, 1, 2, 36, 60, 135, 135, 60, 56, 125, 2, 1.12463
121, 1, bw, attraction, a-b-db, 14, 2, 2, 37, 165, 90, 83, 153, 90, 165, 3, 1.11682
121, 1, bw, attraction, a-b-db, 14, 2, 2, 37, 165, 90, 83, 153, 90, 165, 1, 2.19122
121, 1, bw, attraction, a-b-da, 9, 1, 3, 1, 135, 60, 60, 135, 129, 57, 2, 1.73241
121, 1, bw, attraction, a-b-da, 9, 1, 3, 1, 135, 60, 60, 135, 129, 57, 3, 0.709885
121, 1, bw, attraction, a-b-db, 2, 2, 3, 2, 165, 90, 89, 163, 90, 165, 3, 2.4869
121, 1, bw, attraction, a-b-db, 2, 2, 3, 2, 165, 90, 89, 163, 90, 165, 1, 0.786214
121, 1, bw, attraction, a-b-da, 14, 1, 3, 3, 135, 60, 60, 135, 125, 56, 2, 3.24857
121, 1, bw, attraction, a-b-da, 14, 1, 3, 3, 135, 60, 60, 135, 125, 56, 3, 0.540698
121, 1, bw, attraction, a-b-da, 5, 3, 3, 4, 195, 120, 190, 117, 120, 195, 3, 0.892433
121, 1, bw, attraction, a-b-da, 5, 3, 3, 4, 195, 120, 190, 117, 120, 195, 2, 0.655555
121, 1, bw, attraction, a-b-db, 5, 3, 3, 5, 120, 195, 195, 120, 117, 190, 1, 1.56331
121, 1, bw, attraction, a-b-db, 5, 3, 3, 5, 120, 195, 195, 120, 117, 190, 2, 0.675556
121, 1, bw, attraction, a-b-da, 5, 1, 3, 6, 135, 60, 132, 58, 60, 135, 3, 1.17381
121, 1, bw, attraction, a-b-da, 5, 1, 3, 6, 135, 60, 132, 58, 60, 135, 2, 1.10942
121, 1, bw, attraction, a-b-da, 2, 2, 3, 7, 90, 165, 165, 90, 163, 89, 1, 2.75835
121, 1, bw, attraction, a-b-da, 2, 2, 3, 7, 90, 165, 165, 90, 163, 89, 3, 0.606307
121, 1, bw, attraction, a-b-da, 5, 2, 3, 8, 90, 165, 165, 90, 161, 88, 1, 0.963887
121, 1, bw, attraction, a-b-da, 5, 2, 3, 8, 90, 165, 165, 90, 161, 88, 3, 1.22832
121, 1, bw, attraction, a-b-da, 14, 2, 3, 9, 153, 83, 165, 90, 90, 165, 3, 1.08047
121, 1, bw, attraction, a-b-da, 14, 2, 3, 9, 153, 83, 165, 90, 90, 165, 1, 0.940076
121, 1, bw, catch, NA, 999, 999, 3, 10, 116, 79, 120, 195, 141, 114, 2, 0.707773
121, 1, bw, catch, NA, 999, 999, 3, 10, 116, 79, 120, 195, 141, 114, 1, 0.670098
121, 1, bw, attraction, a-b-db, 2, 1, 3, 11, 60, 135, 135, 60, 59, 134, 1, 1.83322
121, 1, bw, attraction, a-b-db, 2, 1, 3, 11, 60, 135, 135, 60, 59, 134, 3, 0.694593
121, 1, bw, filler, NA, 999, 999, 3, 12, 101, 144, 75, 149, 80, 167, 1, 1.67232
121, 1, bw, filler, NA, 999, 999, 3, 12, 101, 144, 75, 149, 80, 167, 2, 1.08393
121, 1, bw, attraction, a-b-db, 14, 3, 3, 13, 111, 181, 195, 120, 120, 195, 3, 1.55813
121, 1, bw, attraction, a-b-db, 14, 3, 3, 13, 111, 181, 195, 120, 120, 195, 1, 1.79829
121, 1, bw, filler, NA, 999, 999, 3, 14, 78, 173, 139, 187, 148, 129, 2, 0.851556
121, 1, bw, filler, NA, 999, 999, 3, 14, 78, 173, 139, 187, 148, 129, 1, 0.792641
121, 1, bw, catch, NA, 999, 999, 3, 15, 108, 147, 127, 68, 134, 181, 3, 1.15038
121, 1, bw, catch, NA, 999, 999, 3, 15, 108, 147, 127, 68, 134, 181, 2, 0.775294
121, 1, bw, attraction, a-b-db, 14, 2, 3, 16, 83, 153, 90, 165, 165, 90, 2, 2.71762
121, 1, bw, attraction, a-b-db, 14, 2, 3, 16, 83, 153, 90, 165, 165, 90, 1, 0.695423
121, 1, bw, filler, NA, 999, 999, 3, 17, 118, 128, 82, 137, 86, 60, 1, 1.02531
121, 1, bw, filler, NA, 999, 999, 3, 17, 118, 128, 82, 137, 86, 60, 3, 0.974811
121, 1, bw, attraction, a-b-da, 2, 1, 3, 18, 60, 135, 135, 60, 134, 59, 1, 2.1011
121, 1, bw, attraction, a-b-da, 2, 1, 3, 18, 60, 135, 135, 60, 134, 59, 2, 0.959819
121, 1, bw, attraction, a-b-da, 14, 3, 3, 19, 195, 120, 120, 195, 181, 111, 1, 1.55884
121, 1, bw, attraction, a-b-da, 14, 3, 3, 19, 195, 120, 120, 195, 181, 111, 3, 0.718915
121, 1, bw, attraction, a-b-db, 14, 1, 3, 20, 60, 135, 56, 125, 135, 60, 1, 1.27189
121, 1, bw, attraction, a-b-db, 14, 1, 3, 20, 60, 135, 56, 125, 135, 60, 2, 0.843536
121, 1, bw, attraction, a-b-db, 2, 3, 3, 21, 119, 193, 120, 195, 195, 120, 1, 2.19925
121, 1, bw, attraction, a-b-db, 2, 3, 3, 21, 119, 193, 120, 195, 195, 120, 3, 1.5499
121, 1, bw, catch, NA, 999, 999, 3, 22, 78, 117, 144, 111, 142, 173, 3, 0.933319
121, 1, bw, catch, NA, 999, 999, 3, 22, 78, 117, 144, 111, 142, 173, 1, 1.47111
121, 1, bw, filler, NA, 999, 999, 3, 23, 161, 92, 180, 102, 148, 116, 3, 3.04176
121, 1, bw, filler, NA, 999, 999, 3, 23, 161, 92, 180, 102, 148, 116, 1, 0.846116
121, 1, bw, attraction, a-b-da, 2, 3, 3, 24, 195, 120, 120, 195, 193, 119, 2, 2.3058
121, 1, bw, attraction, a-b-da, 2, 3, 3, 24, 195, 120, 120, 195, 193, 119, 3, 0.523757
121, 1, bw, filler, NA, 999, 999, 3, 25, 135, 136, 146, 62, 87, 141, 1, 0.788163
121, 1, bw, filler, NA, 999, 999, 3, 25, 135, 136, 146, 62, 87, 141, 2, 1.81923
121, 1, bw, attraction, a-b-db, 5, 2, 3, 26, 88, 161, 90, 165, 165, 90, 2, 6.9839
121, 1, bw, attraction, a-b-db, 5, 2, 3, 26, 88, 161, 90, 165, 165, 90, 3, 0.701817
121, 1, bw, attraction, a-b-db, 9, 3, 3, 27, 120, 195, 114, 186, 195, 120, 1, 0.967358
121, 1, bw, attraction, a-b-db, 9, 3, 3, 27, 120, 195, 114, 186, 195, 120, 3, 0.895733
121, 1, bw, attraction, a-b-db, 5, 1, 3, 28, 58, 132, 135, 60, 60, 135, 3, 3.15358
121, 1, bw, attraction, a-b-db, 5, 1, 3, 28, 58, 132, 135, 60, 60, 135, 1, 0.721786
121, 1, bw, attraction, a-b-da, 9, 2, 3, 29, 157, 86, 90, 165, 165, 90, 2, 1.13087
121, 1, bw, attraction, a-b-da, 9, 2, 3, 29, 157, 86, 90, 165, 165, 90, 3, 0.748493
121, 1, bw, filler, NA, 999, 999, 3, 30, 97, 129, 151, 181, 62, 80, 2, 0.740118
121, 1, bw, filler, NA, 999, 999, 3, 30, 97, 129, 151, 181, 62, 80, 3, 0.693311
121, 1, bw, filler, NA, 999, 999, 3, 31, 168, 177, 133, 104, 117, 193, 1, 0.878911
121, 1, bw, filler, NA, 999, 999, 3, 31, 168, 177, 133, 104, 117, 193, 2, 0.866643
121, 1, bw, filler, NA, 999, 999, 3, 32, 97, 134, 114, 171, 137, 124, 2, 2.13358
121, 1, bw, filler, NA, 999, 999, 3, 32, 97, 134, 114, 171, 137, 124, 1, 1.07091
121, 1, bw, attraction, a-b-db, 9, 1, 3, 33, 135, 60, 57, 129, 60, 135, 1, 1.34599
121, 1, bw, attraction, a-b-db, 9, 1, 3, 33, 135, 60, 57, 129, 60, 135, 3, 0.698951
121, 1, bw, filler, NA, 999, 999, 3, 34, 97, 167, 94, 134, 146, 140, 3, 1.04461
121, 1, bw, filler, NA, 999, 999, 3, 34, 97, 167, 94, 134, 146, 140, 2, 0.697613
121, 1, bw, attraction, a-b-db, 9, 2, 3, 35, 86, 157, 90, 165, 165, 90, 1, 1.45931
121, 1, bw, attraction, a-b-db, 9, 2, 3, 35, 86, 157, 90, 165, 165, 90, 3, 1.2474
121, 1, bw, attraction, a-b-da, 9, 3, 3, 36, 195, 120, 186, 114, 120, 195, 3, 1.50701
121, 1, bw, attraction, a-b-da, 9, 3, 3, 36, 195, 120, 186, 114, 120, 195, 2, 0.749145
121, 1, bw, filler, NA, 999, 999, 3, 37, 177, 170, 171, 76, 156, 147, 1, 1.00478
121, 1, bw, filler, NA, 999, 999, 3, 37, 177, 170, 171, 76, 156, 147, 2, 1.93916
121, 1, bw, filler, NA, 999, 999, 4, 1, 183, 191, 82, 64, 65, 115, 1, 0.739139
121, 1, bw, filler, NA, 999, 999, 4, 1, 183, 191, 82, 64, 65, 115, 2, 0.852178
121, 1, bw, attraction, a-b-da, 9, 2, 4, 2, 165, 90, 157, 86, 90, 165, 3, 1.50388
121, 1, bw, attraction, a-b-da, 9, 2, 4, 2, 165, 90, 157, 86, 90, 165, 2, 1.00271
121, 1, bw, attraction, a-b-db, 14, 3, 4, 3, 111, 181, 195, 120, 120, 195, 3, 1.02438
121, 1, bw, attraction, a-b-db, 14, 3, 4, 3, 111, 181, 195, 120, 120, 195, 2, 0.646086
121, 1, bw, filler, NA, 999, 999, 4, 4, 94, 95, 109, 173, 134, 153, 3, 1.25779
121, 1, bw, filler, NA, 999, 999, 4, 4, 94, 95, 109, 173, 134, 153, 1, 1.16614
121, 1, bw, filler, NA, 999, 999, 4, 5, 104, 146, 85, 84, 121, 98, 1, 1.02903
121, 1, bw, filler, NA, 999, 999, 4, 5, 104, 146, 85, 84, 121, 98, 2, 0.73061
121, 1, bw, attraction, a-b-db, 5, 3, 4, 6, 195, 120, 120, 195, 117, 190, 2, 1.69095
121, 1, bw, attraction, a-b-db, 5, 3, 4, 6, 195, 120, 120, 195, 117, 190, 3, 0.74187
121, 1, bw, filler, NA, 999, 999, 4, 7, 77, 81, 171, 161, 106, 166, 2, 1.14937
121, 1, bw, filler, NA, 999, 999, 4, 7, 77, 81, 171, 161, 106, 166, 1, 0.782356
121, 1, bw, attraction, a-b-db, 2, 3, 4, 8, 195, 120, 119, 193, 120, 195, 2, 1.62867
121, 1, bw, attraction, a-b-db, 2, 3, 4, 8, 195, 120, 119, 193, 120, 195, 3, 0.650271
121, 1, bw, attraction, a-b-db, 14, 1, 4, 9, 56, 125, 135, 60, 60, 135, 1, 1.39805
121, 1, bw, attraction, a-b-db, 14, 1, 4, 9, 56, 125, 135, 60, 60, 135, 3, 0.620832
121, 1, bw, attraction, a-b-da, 9, 1, 4, 10, 129, 57, 60, 135, 135, 60, 2, 1.44989
121, 1, bw, attraction, a-b-da, 9, 1, 4, 10, 129, 57, 60, 135, 135, 60, 3, 0.654792
121, 1, bw, attraction, a-b-db, 14, 2, 4, 11, 90, 165, 165, 90, 83, 153, 1, 1.10652
121, 1, bw, attraction, a-b-db, 14, 2, 4, 11, 90, 165, 165, 90, 83, 153, 3, 1.07687
121, 1, bw, catch, NA, 999, 999, 4, 12, 115, 140, 107, 88, 171, 144, 3, 0.838999
121, 1, bw, catch, NA, 999, 999, 4, 12, 115, 140, 107, 88, 171, 144, 2, 0.548178
121, 1, bw, attraction, a-b-da, 2, 1, 4, 13, 134, 59, 135, 60, 60, 135, 1, 1.29189
121, 1, bw, attraction, a-b-da, 2, 1, 4, 13, 134, 59, 135, 60, 60, 135, 3, 0.686788
121, 1, bw, catch, NA, 999, 999, 4, 14, 150, 165, 89, 106, 119, 136, 1, 0.825079
121, 1, bw, catch, NA, 999, 999, 4, 14, 150, 165, 89, 106, 119, 136, 2, 0.622842
121, 1, bw, attraction, a-b-da, 2, 2, 4, 15, 163, 89, 165, 90, 90, 165, 3, 1.99593
121, 1, bw, attraction, a-b-da, 2, 2, 4, 15, 163, 89, 165, 90, 90, 165, 1, 0.61871
121, 1, bw, attraction, a-b-db, 5, 2, 4, 16, 88, 161, 165, 90, 90, 165, 3, 0.879758
121, 1, bw, attraction, a-b-db, 5, 2, 4, 16, 88, 161, 165, 90, 90, 165, 2, 0.547442
121, 1, bw, attraction, a-b-da, 5, 2, 4, 17, 90, 165, 161, 88, 165, 90, 1, 0.771235
121, 1, bw, attraction, a-b-da, 5, 2, 4, 17, 90, 165, 161, 88, 165, 90, 3, 0.899725
121, 1, bw, attraction, a-b-db, 9, 3, 4, 18, 120, 195, 195, 120, 114, 186, 1, 0.797226
121, 1, bw, attraction, a-b-db, 9, 3, 4, 18, 120, 195, 195, 120, 114, 186, 3, 0.572327
121, 1, bw, attraction, a-b-da, 5, 1, 4, 19, 60, 135, 132, 58, 135, 60, 1, 1.23544
121, 1, bw, attraction, a-b-da, 5, 1, 4, 19, 60, 135, 132, 58, 135, 60, 3, 0.736976
121, 1, bw, attraction, a-b-db, 5, 1, 4, 20, 58, 132, 135, 60, 60, 135, 1, 1.1935
121, 1, bw, attraction, a-b-db, 5, 1, 4, 20, 58, 132, 135, 60, 60, 135, 3, 0.560358
121, 1, bw, attraction, a-b-da, 9, 3, 4, 21, 195, 120, 186, 114, 120, 195, 3, 0.895348
121, 1, bw, attraction, a-b-da, 9, 3, 4, 21, 195, 120, 186, 114, 120, 195, 1, 0.922537
121, 1, bw, attraction, a-b-db, 2, 2, 4, 22, 90, 165, 89, 163, 165, 90, 1, 0.747356
121, 1, bw, attraction, a-b-db, 2, 2, 4, 22, 90, 165, 89, 163, 165, 90, 3, 0.572604
121, 1, bw, attraction, a-b-db, 9, 2, 4, 23, 90, 165, 165, 90, 86, 157, 1, 1.02757
121, 1, bw, attraction, a-b-db, 9, 2, 4, 23, 90, 165, 165, 90, 86, 157, 3, 0.865299
121, 1, bw, filler, NA, 999, 999, 4, 24, 113, 121, 131, 130, 92, 113, 2, 0.940337
121, 1, bw, filler, NA, 999, 999, 4, 24, 113, 121, 131, 130, 92, 113, 3, 0.485375
121, 1, bw, attraction, a-b-da, 14, 1, 4, 25, 135, 60, 60, 135, 125, 56, 1, 1.64786
121, 1, bw, attraction, a-b-da, 14, 1, 4, 25, 135, 60, 60, 135, 125, 56, 3, 0.844522
121, 1, bw, filler, NA, 999, 999, 4, 26, 71, 131, 165, 111, 78, 130, 2, 0.640222
121, 1, bw, filler, NA, 999, 999, 4, 26, 71, 131, 165, 111, 78, 130, 1, 0.829331
121, 1, bw, attraction, a-b-da, 14, 2, 4, 27, 153, 83, 90, 165, 165, 90, 2, 1.02577
121, 1, bw, attraction, a-b-da, 14, 2, 4, 27, 153, 83, 90, 165, 165, 90, 1, 0.50331
121, 1, bw, attraction, a-b-da, 14, 3, 4, 28, 120, 195, 195, 120, 181, 111, 1, 0.809081
121, 1, bw, attraction, a-b-da, 14, 3, 4, 28, 120, 195, 195, 120, 181, 111, 3, 0.751493
121, 1, bw, attraction, a-b-db, 9, 1, 4, 29, 135, 60, 60, 135, 57, 129, 2, 1.21514
121, 1, bw, attraction, a-b-db, 9, 1, 4, 29, 135, 60, 60, 135, 57, 129, 1, 0.789477
121, 1, bw, filler, NA, 999, 999, 4, 30, 165, 91, 76, 70, 111, 147, 3, 1.33177
121, 1, bw, filler, NA, 999, 999, 4, 30, 165, 91, 76, 70, 111, 147, 2, 0.861388
121, 1, bw, attraction, a-b-da, 5, 3, 4, 31, 120, 195, 190, 117, 195, 120, 1, 1.67245
121, 1, bw, attraction, a-b-da, 5, 3, 4, 31, 120, 195, 190, 117, 195, 120, 3, 0.475983
121, 1, bw, filler, NA, 999, 999, 4, 32, 183, 73, 74, 124, 143, 144, 3, 0.646308
121, 1, bw, filler, NA, 999, 999, 4, 32, 183, 73, 74, 124, 143, 144, 2, 0.82744
121, 1, bw, attraction, a-b-db, 2, 1, 4, 33, 60, 135, 135, 60, 59, 134, 1, 0.751676
121, 1, bw, attraction, a-b-db, 2, 1, 4, 33, 60, 135, 135, 60, 59, 134, 3, 0.504786
121, 1, bw, filler, NA, 999, 999, 4, 34, 161, 83, 87, 98, 169, 90, 1, 1.21068
121, 1, bw, filler, NA, 999, 999, 4, 34, 161, 83, 87, 98, 169, 90, 2, 1.21683
121, 1, bw, catch, NA, 999, 999, 4, 35, 113, 82, 192, 123, 156, 99, 2, 0.869724
121, 1, bw, catch, NA, 999, 999, 4, 35, 113, 82, 192, 123, 156, 99, 1, 0.690121
121, 1, bw, filler, NA, 999, 999, 4, 36, 56, 133, 192, 56, 174, 61, 2, 1.76448
121, 1, bw, filler, NA, 999, 999, 4, 36, 56, 133, 192, 56, 174, 61, 1, 0.724699
121, 1, bw, attraction, a-b-da, 2, 3, 4, 37, 120, 195, 193, 119, 195, 120, 1, 1.5969
121, 1, bw, attraction, a-b-da, 2, 3, 4, 37, 120, 195, 193, 119, 195, 120, 3, 0.835789
121, 1, bw, filler, NA, 999, 999, 5, 1, 82, 128, 154, 103, 114, 167, 3, 6.15082
121, 1, bw, filler, NA, 999, 999, 5, 1, 82, 128, 154, 103, 114, 167, 1, 0.870222
121, 1, bw, attraction, a-b-db, 14, 2, 5, 2, 90, 165, 83, 153, 165, 90, 1, 1.67312
121, 1, bw, attraction, a-b-db, 14, 2, 5, 2, 90, 165, 83, 153, 165, 90, 3, 0.684702
121, 1, bw, catch, NA, 999, 999, 5, 3, 93, 162, 179, 136, 100, 95, 2, 0.638978
121, 1, bw, catch, NA, 999, 999, 5, 3, 93, 162, 179, 136, 100, 95, 3, 0.500085
121, 1, bw, filler, NA, 999, 999, 5, 4, 58, 93, 74, 124, 177, 184, 3, 0.701905
121, 1, bw, filler, NA, 999, 999, 5, 4, 58, 93, 74, 124, 177, 184, 1, 0.600998
121, 1, bw, attraction, a-b-db, 9, 2, 5, 5, 90, 165, 165, 90, 86, 157, 1, 0.670652
121, 1, bw, attraction, a-b-db, 9, 2, 5, 5, 90, 165, 165, 90, 86, 157, 3, 0.739095
121, 1, bw, filler, NA, 999, 999, 5, 6, 84, 114, 187, 140, 109, 190, 2, 0.675624
121, 1, bw, filler, NA, 999, 999, 5, 6, 84, 114, 187, 140, 109, 190, 1, 0.495301
121, 1, bw, attraction, a-b-db, 2, 2, 5, 7, 90, 165, 89, 163, 165, 90, 1, 0.681175
121, 1, bw, attraction, a-b-db, 2, 2, 5, 7, 90, 165, 89, 163, 165, 90, 3, 1.11688
121, 1, bw, filler, NA, 999, 999, 5, 8, 138, 113, 163, 195, 143, 108, 2, 0.645697
121, 1, bw, filler, NA, 999, 999, 5, 8, 138, 113, 163, 195, 143, 108, 1, 0.515114
121, 1, bw, attraction, a-b-da, 14, 2, 5, 9, 90, 165, 153, 83, 165, 90, 1, 0.684042
121, 1, bw, attraction, a-b-da, 14, 2, 5, 9, 90, 165, 153, 83, 165, 90, 3, 0.647773
121, 1, bw, filler, NA, 999, 999, 5, 10, 75, 60, 64, 134, 191, 151, 3, 0.867502
121, 1, bw, filler, NA, 999, 999, 5, 10, 75, 60, 64, 134, 191, 151, 1, 0.671874
121, 1, bw, attraction, a-b-db, 14, 1, 5, 11, 135, 60, 56, 125, 60, 135, 1, 2.27499
121, 1, bw, attraction, a-b-db, 14, 1, 5, 11, 135, 60, 56, 125, 60, 135, 2, 0.974168
121, 1, bw, attraction, a-b-da, 2, 1, 5, 12, 135, 60, 134, 59, 60, 135, 3, 0.964536
121, 1, bw, attraction, a-b-da, 2, 1, 5, 12, 135, 60, 134, 59, 60, 135, 2, 0.732926
121, 1, bw, filler, NA, 999, 999, 5, 13, 107, 105, 81, 111, 129, 141, 3, 0.653134
121, 1, bw, filler, NA, 999, 999, 5, 13, 107, 105, 81, 111, 129, 141, 2, 0.826312
121, 1, bw, filler, NA, 999, 999, 5, 14, 59, 172, 127, 160, 92, 144, 2, 0.90264
121, 1, bw, filler, NA, 999, 999, 5, 14, 59, 172, 127, 160, 92, 144, 1, 0.873841
121, 1, bw, attraction, a-b-db, 5, 1, 5, 15, 58, 132, 60, 135, 135, 60, 2, 1.05204
121, 1, bw, attraction, a-b-db, 5, 1, 5, 15, 58, 132, 60, 135, 135, 60, 3, 0.681091
121, 1, bw, catch, NA, 999, 999, 5, 16, 119, 76, 127, 128, 161, 154, 3, 0.62739
121, 1, bw, catch, NA, 999, 999, 5, 16, 119, 76, 127, 128, 161, 154, 1, 0.65713
121, 1, bw, catch, NA, 999, 999, 5, 17, 115, 80, 157, 158, 102, 153, 2, 1.18825
121, 1, bw, catch, NA, 999, 999, 5, 17, 115, 80, 157, 158, 102, 153, 1, 0.659183
121, 1, bw, attraction, a-b-db, 5, 2, 5, 18, 90, 165, 165, 90, 88, 161, 1, 0.926171
121, 1, bw, attraction, a-b-db, 5, 2, 5, 18, 90, 165, 165, 90, 88, 161, 2, 0.607932
121, 1, bw, attraction, a-b-db, 9, 1, 5, 19, 135, 60, 60, 135, 57, 129, 1, 1.38893
121, 1, bw, attraction, a-b-db, 9, 1, 5, 19, 135, 60, 60, 135, 57, 129, 3, 0.747879
121, 1, bw, attraction, a-b-db, 2, 3, 5, 20, 119, 193, 120, 195, 195, 120, 2, 0.955538
121, 1, bw, attraction, a-b-db, 2, 3, 5, 20, 119, 193, 120, 195, 195, 120, 3, 0.491943
121, 1, bw, attraction, a-b-db, 14, 3, 5, 21, 111, 181, 195, 120, 120, 195, 3, 0.949758
121, 1, bw, attraction, a-b-db, 14, 3, 5, 21, 111, 181, 195, 120, 120, 195, 2, 0.470795
121, 1, bw, attraction, a-b-da, 5, 1, 5, 22, 135, 60, 60, 135, 132, 58, 1, 1.16191
121, 1, bw, attraction, a-b-da, 5, 1, 5, 22, 135, 60, 60, 135, 132, 58, 3, 0.650293
121, 1, bw, filler, NA, 999, 999, 5, 23, 153, 166, 98, 181, 95, 149, 1, 0.693838
121, 1, bw, filler, NA, 999, 999, 5, 23, 153, 166, 98, 181, 95, 149, 3, 0.592925
121, 1, bw, attraction, a-b-db, 5, 3, 5, 24, 120, 195, 195, 120, 117, 190, 1, 0.654853
121, 1, bw, attraction, a-b-db, 5, 3, 5, 24, 120, 195, 195, 120, 117, 190, 2, 0.499388
121, 1, bw, attraction, a-b-db, 9, 3, 5, 25, 114, 186, 195, 120, 120, 195, 1, 0.932879
121, 1, bw, attraction, a-b-db, 9, 3, 5, 25, 114, 186, 195, 120, 120, 195, 3, 0.59887
121, 1, bw, filler, NA, 999, 999, 5, 26, 170, 175, 183, 142, 165, 100, 1, 0.740355
121, 1, bw, filler, NA, 999, 999, 5, 26, 170, 175, 183, 142, 165, 100, 3, 0.77349
121, 1, bw, attraction, a-b-da, 9, 1, 5, 27, 129, 57, 135, 60, 60, 135, 3, 0.851755
121, 1, bw, attraction, a-b-da, 9, 1, 5, 27, 129, 57, 135, 60, 60, 135, 2, 0.688836
121, 1, bw, attraction, a-b-da, 5, 2, 5, 28, 165, 90, 161, 88, 90, 165, 3, 0.691161
121, 1, bw, attraction, a-b-da, 5, 2, 5, 28, 165, 90, 161, 88, 90, 165, 2, 0.558473
121, 1, bw, attraction, a-b-da, 5, 3, 5, 29, 120, 195, 190, 117, 195, 120, 1, 1.66945
121, 1, bw, attraction, a-b-da, 5, 3, 5, 29, 120, 195, 190, 117, 195, 120, 3, 0.601554
121, 1, bw, attraction, a-b-da, 14, 3, 5, 30, 120, 195, 195, 120, 181, 111, 1, 0.783325
121, 1, bw, attraction, a-b-da, 14, 3, 5, 30, 120, 195, 195, 120, 181, 111, 3, 0.871015
121, 1, bw, attraction, a-b-da, 9, 3, 5, 31, 186, 114, 120, 195, 195, 120, 2, 0.674165
121, 1, bw, attraction, a-b-da, 9, 3, 5, 31, 186, 114, 120, 195, 195, 120, 3, 0.797814
121, 1, bw, filler, NA, 999, 999, 5, 32, 63, 83, 138, 110, 80, 89, 2, 0.611482
121, 1, bw, filler, NA, 999, 999, 5, 32, 63, 83, 138, 110, 80, 89, 1, 0.513921
121, 1, bw, attraction, a-b-da, 2, 2, 5, 33, 90, 165, 165, 90, 163, 89, 1, 1.21104
121, 1, bw, attraction, a-b-da, 2, 2, 5, 33, 90, 165, 165, 90, 163, 89, 3, 0.625304
121, 1, bw, attraction, a-b-da, 2, 3, 5, 34, 195, 120, 120, 195, 193, 119, 2, 0.861672
121, 1, bw, attraction, a-b-da, 2, 3, 5, 34, 195, 120, 120, 195, 193, 119, 3, 0.546291
121, 1, bw, attraction, a-b-da, 14, 1, 5, 35, 135, 60, 125, 56, 60, 135, 3, 0.929945
121, 1, bw, attraction, a-b-da, 14, 1, 5, 35, 135, 60, 125, 56, 60, 135, 2, 0.771549
121, 1, bw, attraction, a-b-da, 9, 2, 5, 36, 165, 90, 157, 86, 90, 165, 3, 0.77868
121, 1, bw, attraction, a-b-da, 9, 2, 5, 36, 165, 90, 157, 86, 90, 165, 2, 0.578403
121, 1, bw, attraction, a-b-db, 2, 1, 5, 37, 135, 60, 59, 134, 60, 135, 2, 1.80079
121, 1, bw, attraction, a-b-db, 2, 1, 5, 37, 135, 60, 59, 134, 60, 135, 3, 0.695487
121, 1, bw, attraction, a-b-db, 14, 1, 6, 1, 56, 125, 60, 135, 135, 60, 2, 0.8332
121, 1, bw, attraction, a-b-db, 14, 1, 6, 1, 56, 125, 60, 135, 135, 60, 3, 0.703012
121, 1, bw, filler, NA, 999, 999, 6, 2, 156, 115, 84, 60, 126, 77, 1, 0.680765
121, 1, bw, filler, NA, 999, 999, 6, 2, 156, 115, 84, 60, 126, 77, 2, 1.3164
121, 1, bw, attraction, a-b-da, 14, 1, 6, 3, 125, 56, 135, 60, 60, 135, 2, 0.70932
121, 1, bw, attraction, a-b-da, 14, 1, 6, 3, 125, 56, 135, 60, 60, 135, 3, 0.639725
121, 1, bw, filler, NA, 999, 999, 6, 4, 82, 75, 164, 77, 62, 84, 2, 0.804161
121, 1, bw, filler, NA, 999, 999, 6, 4, 82, 75, 164, 77, 62, 84, 3, 0.795338
121, 1, bw, attraction, a-b-db, 5, 2, 6, 5, 165, 90, 90, 165, 88, 161, 2, 0.872875
121, 1, bw, attraction, a-b-db, 5, 2, 6, 5, 165, 90, 90, 165, 88, 161, 3, 0.676626
121, 1, bw, attraction, a-b-da, 2, 2, 6, 6, 163, 89, 165, 90, 90, 165, 3, 0.855189
121, 1, bw, attraction, a-b-da, 2, 2, 6, 6, 163, 89, 165, 90, 90, 165, 1, 0.907374
121, 1, bw, attraction, a-b-db, 14, 3, 6, 7, 120, 195, 111, 181, 195, 120, 1, 1.86022
121, 1, bw, attraction, a-b-db, 14, 3, 6, 7, 120, 195, 111, 181, 195, 120, 3, 0.872428
121, 1, bw, attraction, a-b-da, 9, 1, 6, 8, 129, 57, 60, 135, 135, 60, 2, 1.01955
121, 1, bw, attraction, a-b-da, 9, 1, 6, 8, 129, 57, 60, 135, 135, 60, 3, 0.585788
121, 1, bw, filler, NA, 999, 999, 6, 9, 182, 65, 120, 191, 195, 78, 2, 0.520195
121, 1, bw, filler, NA, 999, 999, 6, 9, 182, 65, 120, 191, 195, 78, 1, 0.922601
121, 1, bw, catch, NA, 999, 999, 6, 10, 101, 94, 137, 178, 92, 163, 2, 1.17956
121, 1, bw, catch, NA, 999, 999, 6, 10, 101, 94, 137, 178, 92, 163, 1, 0.547234
121, 1, bw, attraction, a-b-db, 2, 2, 6, 11, 90, 165, 89, 163, 165, 90, 2, 0.883003
121, 1, bw, attraction, a-b-db, 2, 2, 6, 11, 90, 165, 89, 163, 165, 90, 3, 0.7586
121, 1, bw, attraction, a-b-db, 5, 1, 6, 12, 135, 60, 60, 135, 58, 132, 2, 1.36562
121, 1, bw, attraction, a-b-db, 5, 1, 6, 12, 135, 60, 60, 135, 58, 132, 3, 0.533914
121, 1, bw, attraction, a-b-db, 14, 2, 6, 13, 90, 165, 83, 153, 165, 90, 1, 1.05435
121, 1, bw, attraction, a-b-db, 14, 2, 6, 13, 90, 165, 83, 153, 165, 90, 3, 0.699384
121, 1, bw, catch, NA, 999, 999, 6, 14, 190, 125, 133, 62, 156, 99, 1, 0.693142
121, 1, bw, catch, NA, 999, 999, 6, 14, 190, 125, 133, 62, 156, 99, 2, 0.520176
121, 1, bw, filler, NA, 999, 999, 6, 15, 116, 174, 137, 120, 107, 161, 1, 0.721239
121, 1, bw, filler, NA, 999, 999, 6, 15, 116, 174, 137, 120, 107, 161, 2, 0.627731
121, 1, bw, filler, NA, 999, 999, 6, 16, 179, 138, 185, 172, 194, 123, 2, 1.20008
121, 1, bw, filler, NA, 999, 999, 6, 16, 179, 138, 185, 172, 194, 123, 1, 0.559036
121, 1, bw, attraction, a-b-db, 5, 3, 6, 17, 117, 190, 195, 120, 120, 195, 2, 4.29414
121, 1, bw, attraction, a-b-db, 5, 3, 6, 17, 117, 190, 195, 120, 120, 195, 3, 0.528103
121, 1, bw, attraction, a-b-db, 2, 1, 6, 18, 60, 135, 135, 60, 59, 134, 2, 1.77657
121, 1, bw, attraction, a-b-db, 2, 1, 6, 18, 60, 135, 135, 60, 59, 134, 3, 0.535951
121, 1, bw, catch, NA, 999, 999, 6, 19, 75, 120, 161, 94, 138, 177, 3, 0.792351
121, 1, bw, catch, NA, 999, 999, 6, 19, 75, 120, 161, 94, 138, 177, 1, 1.26354
121, 1, bw, attraction, a-b-db, 9, 2, 6, 20, 165, 90, 86, 157, 90, 165, 2, 1.6744
121, 1, bw, attraction, a-b-db, 9, 2, 6, 20, 165, 90, 86, 157, 90, 165, 1, 0.541744
121, 1, bw, attraction, a-b-da, 5, 2, 6, 21, 161, 88, 165, 90, 90, 165, 1, 1.48567
121, 1, bw, attraction, a-b-da, 5, 2, 6, 21, 161, 88, 165, 90, 90, 165, 3, 0.545006
121, 1, bw, attraction, a-b-da, 2, 1, 6, 22, 60, 135, 135, 60, 134, 59, 1, 1.12085
121, 1, bw, attraction, a-b-da, 2, 1, 6, 22, 60, 135, 135, 60, 134, 59, 3, 0.819229
121, 1, bw, attraction, a-b-da, 9, 3, 6, 23, 120, 195, 186, 114, 195, 120, 1, 0.712168
121, 1, bw, attraction, a-b-da, 9, 3, 6, 23, 120, 195, 186, 114, 195, 120, 3, 0.570543
121, 1, bw, attraction, a-b-da, 9, 2, 6, 24, 157, 86, 165, 90, 90, 165, 3, 0.849675
121, 1, bw, attraction, a-b-da, 9, 2, 6, 24, 157, 86, 165, 90, 90, 165, 1, 0.670681
121, 1, bw, attraction, a-b-db, 9, 3, 6, 25, 195, 120, 120, 195, 114, 186, 2, 2.36178
121, 1, bw, attraction, a-b-db, 9, 3, 6, 25, 195, 120, 120, 195, 114, 186, 3, 0.561651
121, 1, bw, attraction, a-b-da, 14, 3, 6, 26, 181, 111, 195, 120, 120, 195, 3, 0.696794
121, 1, bw, attraction, a-b-da, 14, 3, 6, 26, 181, 111, 195, 120, 120, 195, 1, 0.683992
121, 1, bw, filler, NA, 999, 999, 6, 27, 72, 146, 93, 71, 103, 181, 3, 1.27021
121, 1, bw, filler, NA, 999, 999, 6, 27, 72, 146, 93, 71, 103, 181, 2, 0.72257
121, 1, bw, attraction, a-b-da, 14, 2, 6, 28, 90, 165, 153, 83, 165, 90, 1, 1.00352
121, 1, bw, attraction, a-b-da, 14, 2, 6, 28, 90, 165, 153, 83, 165, 90, 2, 0.706569
121, 1, bw, filler, NA, 999, 999, 6, 29, 148, 178, 65, 108, 131, 82, 1, 0.700194
121, 1, bw, filler, NA, 999, 999, 6, 29, 148, 178, 65, 108, 131, 82, 2, 0.559341
121, 1, bw, attraction, a-b-da, 5, 1, 6, 30, 60, 135, 135, 60, 132, 58, 1, 0.958533
121, 1, bw, attraction, a-b-da, 5, 1, 6, 30, 60, 135, 135, 60, 132, 58, 2, 0.470899
121, 1, bw, attraction, a-b-da, 2, 3, 6, 31, 195, 120, 193, 119, 120, 195, 1, 1.51392
121, 1, bw, attraction, a-b-da, 2, 3, 6, 31, 195, 120, 193, 119, 120, 195, 3, 0.612058
121, 1, bw, filler, NA, 999, 999, 6, 32, 160, 125, 158, 61, 140, 63, 1, 0.649077
121, 1, bw, filler, NA, 999, 999, 6, 32, 160, 125, 158, 61, 140, 63, 3, 0.942303
121, 1, bw, attraction, a-b-db, 9, 1, 6, 33, 135, 60, 57, 129, 60, 135, 1, 3.94987
121, 1, bw, attraction, a-b-db, 9, 1, 6, 33, 135, 60, 57, 129, 60, 135, 2, 0.486077
121, 1, bw, filler, NA, 999, 999, 6, 34, 170, 111, 87, 117, 191, 133, 1, 0.728519
121, 1, bw, filler, NA, 999, 999, 6, 34, 170, 111, 87, 117, 191, 133, 2, 1.68223
121, 1, bw, filler, NA, 999, 999, 6, 35, 173, 141, 187, 158, 103, 106, 2, 1.09227
121, 1, bw, filler, NA, 999, 999, 6, 35, 173, 141, 187, 158, 103, 106, 3, 0.711261
121, 1, bw, attraction, a-b-db, 2, 3, 6, 36, 120, 195, 119, 193, 195, 120, 2, 0.928372
121, 1, bw, attraction, a-b-db, 2, 3, 6, 36, 120, 195, 119, 193, 195, 120, 3, 0.554086
121, 1, bw, attraction, a-b-da, 5, 3, 6, 37, 190, 117, 195, 120, 120, 195, 2, 2.68166
121, 1, bw, attraction, a-b-da, 5, 3, 6, 37, 190, 117, 195, 120, 120, 195, 3, 0.908922
121, 1, bw, attraction, a-b-db, 14, 1, 7, 1, 60, 135, 135, 60, 56, 125, 1, 1.88592
121, 1, bw, attraction, a-b-db, 14, 1, 7, 1, 60, 135, 135, 60, 56, 125, 3, 0.513396
121, 1, bw, attraction, a-b-db, 14, 2, 7, 2, 165, 90, 90, 165, 83, 153, 2, 1.53842
121, 1, bw, attraction, a-b-db, 14, 2, 7, 2, 165, 90, 90, 165, 83, 153, 3, 0.659857
121, 1, bw, attraction, a-b-da, 9, 2, 7, 3, 157, 86, 165, 90, 90, 165, 3, 1.21496
121, 1, bw, attraction, a-b-da, 9, 2, 7, 3, 157, 86, 165, 90, 90, 165, 2, 0.677312
121, 1, bw, attraction, a-b-da, 5, 1, 7, 4, 135, 60, 132, 58, 60, 135, 2, 2.49561
121, 1, bw, attraction, a-b-da, 5, 1, 7, 4, 135, 60, 132, 58, 60, 135, 3, 0.682268
121, 1, bw, filler, NA, 999, 999, 7, 5, 136, 163, 91, 59, 75, 173, 1, 1.14056
121, 1, bw, filler, NA, 999, 999, 7, 5, 136, 163, 91, 59, 75, 173, 2, 1.10144
121, 1, bw, filler, NA, 999, 999, 7, 6, 186, 161, 61, 125, 101, 93, 1, 0.807035
121, 1, bw, filler, NA, 999, 999, 7, 6, 186, 161, 61, 125, 101, 93, 2, 1.14147
121, 1, bw, catch, NA, 999, 999, 7, 7, 106, 89, 160, 155, 102, 153, 2, 1.07721
121, 1, bw, catch, NA, 999, 999, 7, 7, 106, 89, 160, 155, 102, 153, 1, 0.800716
121, 1, bw, attraction, a-b-da, 5, 2, 7, 8, 165, 90, 90, 165, 161, 88, 1, 1.4064
121, 1, bw, attraction, a-b-da, 5, 2, 7, 8, 165, 90, 90, 165, 161, 88, 3, 0.628708
121, 1, bw, filler, NA, 999, 999, 7, 9, 176, 120, 188, 110, 172, 151, 3, 1.00111
121, 1, bw, filler, NA, 999, 999, 7, 9, 176, 120, 188, 110, 172, 151, 1, 0.583981
121, 1, bw, attraction, a-b-da, 2, 3, 7, 10, 195, 120, 120, 195, 193, 119, 2, 1.18245
121, 1, bw, attraction, a-b-da, 2, 3, 7, 10, 195, 120, 120, 195, 193, 119, 3, 0.55004
121, 1, bw, attraction, a-b-da, 14, 2, 7, 11, 165, 90, 153, 83, 90, 165, 1, 1.37383
121, 1, bw, attraction, a-b-da, 14, 2, 7, 11, 165, 90, 153, 83, 90, 165, 2, 0.6774
121, 1, bw, attraction, a-b-da, 5, 3, 7, 12, 190, 117, 195, 120, 120, 195, 2, 1.11973
121, 1, bw, attraction, a-b-da, 5, 3, 7, 12, 190, 117, 195, 120, 120, 195, 3, 0.922092
121, 1, bw, attraction, a-b-da, 14, 1, 7, 13, 135, 60, 60, 135, 125, 56, 1, 1.61897
121, 1, bw, attraction, a-b-da, 14, 1, 7, 13, 135, 60, 60, 135, 125, 56, 3, 1.33719
121, 1, bw, attraction, a-b-db, 14, 3, 7, 14, 195, 120, 111, 181, 120, 195, 1, 5.8413
121, 1, bw, attraction, a-b-db, 14, 3, 7, 14, 195, 120, 111, 181, 120, 195, 3, 0.660816
121, 1, bw, attraction, a-b-db, 5, 3, 7, 15, 117, 190, 195, 120, 120, 195, 3, 1.35985
121, 1, bw, attraction, a-b-db, 5, 3, 7, 15, 117, 190, 195, 120, 120, 195, 2, 0.608102
121, 1, bw, filler, NA, 999, 999, 7, 16, 56, 136, 106, 108, 168, 163, 3, 0.933204
121, 1, bw, filler, NA, 999, 999, 7, 16, 56, 136, 106, 108, 168, 163, 1, 0.990904
121, 1, bw, attraction, a-b-db, 2, 2, 7, 17, 90, 165, 165, 90, 89, 163, 3, 1.80441
121, 1, bw, attraction, a-b-db, 2, 2, 7, 17, 90, 165, 165, 90, 89, 163, 2, 0.611304
121, 1, bw, attraction, a-b-da, 2, 2, 7, 18, 163, 89, 165, 90, 90, 165, 3, 1.01635
121, 1, bw, attraction, a-b-da, 2, 2, 7, 18, 163, 89, 165, 90, 90, 165, 2, 0.590678
121, 1, bw, attraction, a-b-db, 9, 3, 7, 19, 114, 186, 120, 195, 195, 120, 2, 0.940351
121, 1, bw, attraction, a-b-db, 9, 3, 7, 19, 114, 186, 120, 195, 195, 120, 3, 0.525345
121, 1, bw, filler, NA, 999, 999, 7, 20, 89, 84, 100, 67, 81, 108, 3, 1.24598
121, 1, bw, filler, NA, 999, 999, 7, 20, 89, 84, 100, 67, 81, 108, 2, 0.570827
121, 1, bw, attraction, a-b-db, 5, 2, 7, 21, 88, 161, 165, 90, 90, 165, 2, 1.08178
121, 1, bw, attraction, a-b-db, 5, 2, 7, 21, 88, 161, 165, 90, 90, 165, 1, 0.805439
121, 1, bw, attraction, a-b-da, 2, 1, 7, 22, 135, 60, 60, 135, 134, 59, 1, 1.86712
121, 1, bw, attraction, a-b-da, 2, 1, 7, 22, 135, 60, 60, 135, 134, 59, 2, 0.871267
121, 1, bw, attraction, a-b-db, 2, 1, 7, 23, 135, 60, 60, 135, 59, 134, 1, 1.01035
121, 1, bw, attraction, a-b-db, 2, 1, 7, 23, 135, 60, 60, 135, 59, 134, 3, 0.688502
121, 1, bw, attraction, a-b-da, 9, 1, 7, 24, 129, 57, 135, 60, 60, 135, 3, 1.09092
121, 1, bw, attraction, a-b-da, 9, 1, 7, 24, 129, 57, 135, 60, 60, 135, 2, 0.470058
121, 1, bw, filler, NA, 999, 999, 7, 25, 126, 170, 127, 178, 102, 121, 2, 0.737061
121, 1, bw, filler, NA, 999, 999, 7, 25, 126, 170, 127, 178, 102, 121, 3, 0.770855
121, 1, bw, attraction, a-b-da, 9, 3, 7, 26, 186, 114, 120, 195, 195, 120, 2, 3.12987
121, 1, bw, attraction, a-b-da, 9, 3, 7, 26, 186, 114, 120, 195, 195, 120, 3, 0.522917
121, 1, bw, filler, NA, 999, 999, 7, 27, 180, 177, 172, 180, 92, 62, 2, 1.22003
121, 1, bw, filler, NA, 999, 999, 7, 27, 180, 177, 172, 180, 92, 62, 3, 0.762155
121, 1, bw, filler, NA, 999, 999, 7, 28, 63, 124, 101, 122, 117, 195, 3, 0.849366
121, 1, bw, filler, NA, 999, 999, 7, 28, 63, 124, 101, 122, 117, 195, 1, 0.598258
121, 1, bw, attraction, a-b-db, 9, 1, 7, 29, 60, 135, 57, 129, 135, 60, 2, 0.900007
121, 1, bw, attraction, a-b-db, 9, 1, 7, 29, 60, 135, 57, 129, 135, 60, 3, 0.559114
121, 1, bw, attraction, a-b-db, 2, 3, 7, 30, 119, 193, 195, 120, 120, 195, 1, 0.806132
121, 1, bw, attraction, a-b-db, 2, 3, 7, 30, 119, 193, 195, 120, 120, 195, 2, 0.524568
121, 1, bw, attraction, a-b-da, 14, 3, 7, 31, 181, 111, 195, 120, 120, 195, 3, 0.837009
121, 1, bw, attraction, a-b-da, 14, 3, 7, 31, 181, 111, 195, 120, 120, 195, 1, 0.538681
121, 1, bw, attraction, a-b-db, 5, 1, 7, 32, 60, 135, 58, 132, 135, 60, 2, 0.963084
121, 1, bw, attraction, a-b-db, 5, 1, 7, 32, 60, 135, 58, 132, 135, 60, 3, 0.963506
121, 1, bw, catch, NA, 999, 999, 7, 33, 120, 135, 129, 66, 166, 149, 3, 0.55446
121, 1, bw, catch, NA, 999, 999, 7, 33, 120, 135, 129, 66, 166, 149, 2, 0.771588
121, 1, bw, filler, NA, 999, 999, 7, 34, 119, 83, 152, 58, 65, 78, 1, 2.1386
121, 1, bw, filler, NA, 999, 999, 7, 34, 119, 83, 152, 58, 65, 78, 3, 0.939443
121, 1, bw, attraction, a-b-db, 9, 2, 7, 35, 90, 165, 165, 90, 86, 157, 1, 2.28363
121, 1, bw, attraction, a-b-db, 9, 2, 7, 35, 90, 165, 165, 90, 86, 157, 2, 0.670899
121, 1, bw, catch, NA, 999, 999, 7, 36, 150, 165, 146, 109, 108, 87, 1, 0.737855
121, 1, bw, catch, NA, 999, 999, 7, 36, 150, 165, 146, 109, 108, 87, 3, 0.683608
121, 1, bw, filler, NA, 999, 999, 7, 37, 155, 153, 56, 95, 114, 97, 1, 7.13412
121, 1, bw, filler, NA, 999, 999, 7, 37, 155, 153, 56, 95, 114, 97, 2, 0.813754
121, 1, bw, catch, NA, 999, 999, 8, 1, 148, 167, 144, 111, 134, 61, 1, 0.730818
121, 1, bw, catch, NA, 999, 999, 8, 1, 148, 167, 144, 111, 134, 61, 3, 0.644583
121, 1, bw, catch, NA, 999, 999, 8, 2, 77, 118, 114, 141, 125, 190, 3, 1.42438
121, 1, bw, catch, NA, 999, 999, 8, 2, 77, 118, 114, 141, 125, 190, 1, 0.749953
121, 1, bw, attraction, a-b-db, 9, 1, 8, 3, 135, 60, 57, 129, 60, 135, 3, 2.10958
121, 1, bw, attraction, a-b-db, 9, 1, 8, 3, 135, 60, 57, 129, 60, 135, 1, 0.82356
121, 1, bw, attraction, a-b-db, 14, 2, 8, 4, 90, 165, 83, 153, 165, 90, 1, 0.88388
121, 1, bw, attraction, a-b-db, 14, 2, 8, 4, 90, 165, 83, 153, 165, 90, 3, 0.695705
121, 1, bw, filler, NA, 999, 999, 8, 5, 72, 73, 91, 91, 77, 142, 3, 0.95336
121, 1, bw, filler, NA, 999, 999, 8, 5, 72, 73, 91, 91, 77, 142, 1, 0.850335
121, 1, bw, catch, NA, 999, 999, 8, 6, 146, 109, 192, 123, 103, 92, 2, 0.90997
121, 1, bw, catch, NA, 999, 999, 8, 6, 146, 109, 192, 123, 103, 92, 3, 0.520308
121, 1, bw, filler, NA, 999, 999, 8, 7, 93, 180, 81, 162, 163, 172, 3, 1.01739
121, 1, bw, filler, NA, 999, 999, 8, 7, 93, 180, 81, 162, 163, 172, 2, 0.599871
121, 1, bw, attraction, a-b-da, 9, 1, 8, 8, 129, 57, 60, 135, 135, 60, 2, 1.4936
121, 1, bw, attraction, a-b-da, 9, 1, 8, 8, 129, 57, 60, 135, 135, 60, 3, 0.680324
121, 1, bw, attraction, a-b-db, 9, 3, 8, 9, 120, 195, 114, 186, 195, 120, 1, 2.45863
121, 1, bw, attraction, a-b-db, 9, 3, 8, 9, 120, 195, 114, 186, 195, 120, 3, 0.638638
121, 1, bw, filler, NA, 999, 999, 8, 10, 156, 190, 63, 85, 118, 101, 1, 0.667014
121, 1, bw, filler, NA, 999, 999, 8, 10, 156, 190, 63, 85, 118, 101, 2, 0.63147
121, 1, bw, attraction, a-b-db, 5, 2, 8, 11, 90, 165, 88, 161, 165, 90, 2, 1.67592
121, 1, bw, attraction, a-b-db, 5, 2, 8, 11, 90, 165, 88, 161, 165, 90, 3, 0.583319
121, 1, bw, attraction, a-b-da, 9, 2, 8, 12, 165, 90, 90, 165, 157, 86, 1, 1.44585
121, 1, bw, attraction, a-b-da, 9, 2, 8, 12, 165, 90, 90, 165, 157, 86, 3, 0.586569
121, 1, bw, attraction, a-b-db, 9, 2, 8, 13, 90, 165, 165, 90, 86, 157, 1, 1.16895
121, 1, bw, attraction, a-b-db, 9, 2, 8, 13, 90, 165, 165, 90, 86, 157, 3, 0.457377
121, 1, bw, attraction, a-b-db, 5, 3, 8, 14, 120, 195, 117, 190, 195, 120, 2, 0.964483
121, 1, bw, attraction, a-b-db, 5, 3, 8, 14, 120, 195, 117, 190, 195, 120, 3, 0.916817
121, 1, bw, attraction, a-b-db, 2, 1, 8, 15, 59, 134, 135, 60, 60, 135, 1, 1.13377
121, 1, bw, attraction, a-b-db, 2, 1, 8, 15, 59, 134, 135, 60, 60, 135, 2, 0.583414
121, 1, bw, attraction, a-b-da, 2, 3, 8, 16, 195, 120, 120, 195, 193, 119, 1, 1.59784
121, 1, bw, attraction, a-b-da, 2, 3, 8, 16, 195, 120, 120, 195, 193, 119, 2, 0.500594
121, 1, bw, filler, NA, 999, 999, 8, 17, 69, 118, 94, 173, 96, 193, 3, 1.7265
121, 1, bw, filler, NA, 999, 999, 8, 17, 69, 118, 94, 173, 96, 193, 1, 1.18386
121, 1, bw, filler, NA, 999, 999, 8, 18, 130, 93, 118, 85, 73, 74, 1, 0.790029
121, 1, bw, filler, NA, 999, 999, 8, 18, 130, 93, 118, 85, 73, 74, 3, 0.677195
121, 1, bw, attraction, a-b-da, 5, 3, 8, 19, 120, 195, 195, 120, 190, 117, 1, 1.20761
121, 1, bw, attraction, a-b-da, 5, 3, 8, 19, 120, 195, 195, 120, 190, 117, 3, 0.765849
121, 1, bw, attraction, a-b-da, 5, 2, 8, 20, 161, 88, 90, 165, 165, 90, 2, 1.43691
121, 1, bw, attraction, a-b-da, 5, 2, 8, 20, 161, 88, 90, 165, 165, 90, 3, 0.554421
121, 1, bw, attraction, a-b-db, 2, 3, 8, 21, 195, 120, 119, 193, 120, 195, 3, 1.01807
121, 1, bw, attraction, a-b-db, 2, 3, 8, 21, 195, 120, 119, 193, 120, 195, 1, 0.800442
121, 1, bw, attraction, a-b-db, 2, 2, 8, 22, 165, 90, 89, 163, 90, 165, 1, 0.902061
121, 1, bw, attraction, a-b-db, 2, 2, 8, 22, 165, 90, 89, 163, 90, 165, 3, 0.521195
121, 1, bw, attraction, a-b-db, 14, 1, 8, 23, 135, 60, 60, 135, 56, 125, 1, 1.95424
121, 1, bw, attraction, a-b-db, 14, 1, 8, 23, 135, 60, 60, 135, 56, 125, 3, 0.698299
121, 1, bw, attraction, a-b-da, 2, 1, 8, 24, 134, 59, 60, 135, 135, 60, 1, 0.924036
121, 1, bw, attraction, a-b-da, 2, 1, 8, 24, 134, 59, 60, 135, 135, 60, 3, 0.693972
121, 1, bw, attraction, a-b-da, 5, 1, 8, 25, 135, 60, 132, 58, 60, 135, 3, 0.935487
121, 1, bw, attraction, a-b-da, 5, 1, 8, 25, 135, 60, 132, 58, 60, 135, 1, 0.817231
121, 1, bw, attraction, a-b-db, 14, 3, 8, 26, 120, 195, 195, 120, 111, 181, 1, 0.934168
121, 1, bw, attraction, a-b-db, 14, 3, 8, 26, 120, 195, 195, 120, 111, 181, 3, 0.471902
121, 1, bw, attraction, a-b-da, 14, 2, 8, 27, 153, 83, 165, 90, 90, 165, 3, 0.618927
121, 1, bw, attraction, a-b-da, 14, 2, 8, 27, 153, 83, 165, 90, 90, 165, 1, 0.513395
121, 1, bw, attraction, a-b-da, 9, 3, 8, 28, 120, 195, 195, 120, 186, 114, 2, 1.01856
121, 1, bw, attraction, a-b-da, 9, 3, 8, 28, 120, 195, 195, 120, 186, 114, 3, 0.536829
121, 1, bw, attraction, a-b-da, 2, 2, 8, 29, 90, 165, 165, 90, 163, 89, 1, 0.769267
121, 1, bw, attraction, a-b-da, 2, 2, 8, 29, 90, 165, 165, 90, 163, 89, 3, 0.489652
121, 1, bw, filler, NA, 999, 999, 8, 30, 84, 171, 155, 69, 164, 106, 3, 1.10818
121, 1, bw, filler, NA, 999, 999, 8, 30, 84, 171, 155, 69, 164, 106, 1, 1.07042
121, 1, bw, attraction, a-b-da, 14, 1, 8, 31, 135, 60, 125, 56, 60, 135, 3, 3.00141
121, 1, bw, attraction, a-b-da, 14, 1, 8, 31, 135, 60, 125, 56, 60, 135, 2, 1.56784
121, 1, bw, attraction, a-b-db, 5, 1, 8, 32, 60, 135, 135, 60, 58, 132, 1, 0.758501
121, 1, bw, attraction, a-b-db, 5, 1, 8, 32, 60, 135, 135, 60, 58, 132, 2, 0.735269
121, 1, bw, filler, NA, 999, 999, 8, 33, 118, 135, 121, 108, 136, 139, 3, 1.06335
121, 1, bw, filler, NA, 999, 999, 8, 33, 118, 135, 121, 108, 136, 139, 2, 0.923712
121, 1, bw, attraction, a-b-da, 14, 3, 8, 34, 195, 120, 181, 111, 120, 195, 3, 1.0679
121, 1, bw, attraction, a-b-da, 14, 3, 8, 34, 195, 120, 181, 111, 120, 195, 2, 0.856302
121, 1, bw, filler, NA, 999, 999, 8, 35, 92, 179, 96, 184, 132, 181, 3, 0.796
121, 1, bw, filler, NA, 999, 999, 8, 35, 92, 179, 96, 184, 132, 181, 1, 0.755177
121, 1, bw, filler, NA, 999, 999, 8, 36, 109, 136, 140, 71, 188, 129, 3, 0.72273
121, 1, bw, filler, NA, 999, 999, 8, 36, 109, 136, 140, 71, 188, 129, 2, 0.628504
121, 1, bw, filler, NA, 999, 999, 8, 37, 117, 112, 166, 59, 180, 188, 3, 0.688871
121, 1, bw, filler, NA, 999, 999, 8, 37, 117, 112, 166, 59, 180, 188, 2, 0.907923
