sub_n, computer_n, bw_cond, effect, set, distance, diag, block_n, trial_n, h1, w1, h2, w2, h3, w3, choice, rt 
19, 1, bw, practice, NA, 999, 999, 0, 1, 126, 61, 154, 62, 178, 121, 3, 7.10471
19, 1, bw, practice, NA, 999, 999, 0, 1, 126, 61, 154, 62, 178, 121, 1, 4.47625
19, 1, bw, practice, NA, 999, 999, 0, 2, 86, 183, 146, 148, 96, 139, 2, 16.5649
19, 1, bw, practice, NA, 999, 999, 0, 2, 86, 183, 146, 148, 96, 139, 3, 5.79028
19, 1, bw, practice, NA, 999, 999, 0, 3, 150, 63, 63, 156, 63, 157, 2, 35.8794
19, 1, bw, practice, NA, 999, 999, 0, 3, 150, 63, 63, 156, 63, 157, 1, 6.28088
19, 1, bw, attraction, a-b-da, 14, 1, 1, 1, 60, 135, 125, 56, 135, 60, 1, 35.5917
19, 1, bw, attraction, a-b-da, 14, 1, 1, 1, 60, 135, 125, 56, 135, 60, 2, 1.83512
19, 1, bw, filler, NA, 999, 999, 1, 2, 124, 160, 73, 124, 161, 113, 1, 33.2222
19, 1, bw, filler, NA, 999, 999, 1, 2, 124, 160, 73, 124, 161, 113, 2, 1.78652
19, 1, bw, attraction, a-b-da, 9, 2, 1, 3, 165, 90, 90, 165, 157, 86, 2, 38.9457
19, 1, bw, attraction, a-b-da, 9, 2, 1, 3, 165, 90, 90, 165, 157, 86, 3, 1.99077
19, 1, bw, attraction, a-b-db, 9, 2, 1, 4, 165, 90, 86, 157, 90, 165, 3, 67.3086
19, 1, bw, attraction, a-b-db, 9, 2, 1, 4, 165, 90, 86, 157, 90, 165, 2, 1.62798
19, 1, bw, attraction, a-b-db, 5, 3, 1, 5, 120, 195, 117, 190, 195, 120, 2, 53.3593
19, 1, bw, attraction, a-b-db, 5, 3, 1, 5, 120, 195, 117, 190, 195, 120, 1, 3.09088
19, 1, bw, attraction, a-b-db, 2, 2, 1, 6, 89, 163, 90, 165, 165, 90, 2, 12.0043
19, 1, bw, attraction, a-b-db, 2, 2, 1, 6, 89, 163, 90, 165, 165, 90, 3, 1.68771
19, 1, bw, attraction, a-b-da, 2, 3, 1, 7, 195, 120, 120, 195, 193, 119, 2, 28.1383
19, 1, bw, attraction, a-b-da, 2, 3, 1, 7, 195, 120, 120, 195, 193, 119, 3, 1.24541
19, 1, bw, catch, NA, 999, 999, 1, 8, 163, 92, 150, 165, 72, 123, 2, 5.87892
19, 1, bw, catch, NA, 999, 999, 1, 8, 163, 92, 150, 165, 72, 123, 3, 1.0886
19, 1, bw, filler, NA, 999, 999, 1, 9, 151, 153, 105, 78, 137, 72, 1, 5.69106
19, 1, bw, filler, NA, 999, 999, 1, 9, 151, 153, 105, 78, 137, 72, 2, 1.88523
19, 1, bw, filler, NA, 999, 999, 1, 10, 133, 78, 121, 57, 114, 159, 3, 5.15901
19, 1, bw, filler, NA, 999, 999, 1, 10, 133, 78, 121, 57, 114, 159, 2, 1.2166
19, 1, bw, attraction, a-b-db, 5, 2, 1, 11, 165, 90, 90, 165, 88, 161, 1, 18.19
19, 1, bw, attraction, a-b-db, 5, 2, 1, 11, 165, 90, 90, 165, 88, 161, 3, 1.39209
19, 1, bw, filler, NA, 999, 999, 1, 12, 163, 85, 91, 114, 95, 88, 1, 10.7578
19, 1, bw, filler, NA, 999, 999, 1, 12, 163, 85, 91, 114, 95, 88, 3, 1.06628
19, 1, bw, attraction, a-b-da, 5, 2, 1, 13, 161, 88, 165, 90, 90, 165, 2, 44.4394
19, 1, bw, attraction, a-b-da, 5, 2, 1, 13, 161, 88, 165, 90, 90, 165, 1, 3.25446
19, 1, bw, attraction, a-b-db, 14, 3, 1, 14, 111, 181, 120, 195, 195, 120, 2, 12.9544
19, 1, bw, attraction, a-b-db, 14, 3, 1, 14, 111, 181, 120, 195, 195, 120, 1, 0.90942
19, 1, bw, filler, NA, 999, 999, 1, 15, 115, 140, 189, 112, 168, 89, 2, 33.0644
19, 1, bw, filler, NA, 999, 999, 1, 15, 115, 140, 189, 112, 168, 89, 3, 2.8504
19, 1, bw, attraction, a-b-da, 5, 1, 1, 16, 132, 58, 135, 60, 60, 135, 2, 8.50092
19, 1, bw, attraction, a-b-da, 5, 1, 1, 16, 132, 58, 135, 60, 60, 135, 1, 6.94965
19, 1, bw, attraction, a-b-db, 9, 3, 1, 17, 114, 186, 195, 120, 120, 195, 3, 27.029
19, 1, bw, attraction, a-b-db, 9, 3, 1, 17, 114, 186, 195, 120, 120, 195, 1, 1.33179
19, 1, bw, catch, NA, 999, 999, 1, 18, 117, 78, 125, 130, 167, 148, 3, 3.50084
19, 1, bw, catch, NA, 999, 999, 1, 18, 117, 78, 125, 130, 167, 148, 1, 1.71893
19, 1, bw, attraction, a-b-da, 14, 2, 1, 19, 153, 83, 165, 90, 90, 165, 2, 12.8469
19, 1, bw, attraction, a-b-da, 14, 2, 1, 19, 153, 83, 165, 90, 90, 165, 3, 5.7601
19, 1, bw, filler, NA, 999, 999, 1, 20, 164, 147, 182, 160, 88, 141, 2, 4.41368
19, 1, bw, filler, NA, 999, 999, 1, 20, 164, 147, 182, 160, 88, 141, 3, 1.12465
19, 1, bw, attraction, a-b-db, 9, 1, 1, 21, 60, 135, 57, 129, 135, 60, 3, 7.95566
19, 1, bw, attraction, a-b-db, 9, 1, 1, 21, 60, 135, 57, 129, 135, 60, 2, 1.46711
19, 1, bw, attraction, a-b-da, 9, 1, 1, 22, 129, 57, 60, 135, 135, 60, 2, 6.72695
19, 1, bw, attraction, a-b-da, 9, 1, 1, 22, 129, 57, 60, 135, 135, 60, 1, 0.774541
19, 1, bw, attraction, a-b-db, 14, 1, 1, 23, 60, 135, 135, 60, 56, 125, 1, 36.2764
19, 1, bw, attraction, a-b-db, 14, 1, 1, 23, 60, 135, 135, 60, 56, 125, 3, 1.04721
19, 1, bw, filler, NA, 999, 999, 1, 24, 120, 139, 167, 128, 58, 146, 2, 2.6587
19, 1, bw, filler, NA, 999, 999, 1, 24, 120, 139, 167, 128, 58, 146, 3, 1.06343
19, 1, bw, filler, NA, 999, 999, 1, 25, 126, 186, 173, 144, 195, 160, 3, 4.86671
19, 1, bw, filler, NA, 999, 999, 1, 25, 126, 186, 173, 144, 195, 160, 1, 1.16003
19, 1, bw, attraction, a-b-da, 5, 3, 1, 26, 190, 117, 120, 195, 195, 120, 2, 49.3265
19, 1, bw, attraction, a-b-da, 5, 3, 1, 26, 190, 117, 120, 195, 195, 120, 1, 1.03401
19, 1, bw, attraction, a-b-da, 14, 3, 1, 27, 181, 111, 195, 120, 120, 195, 2, 12.5824
19, 1, bw, attraction, a-b-da, 14, 3, 1, 27, 181, 111, 195, 120, 120, 195, 1, 1.08503
19, 1, bw, attraction, a-b-da, 9, 3, 1, 28, 120, 195, 186, 114, 195, 120, 1, 9.22882
19, 1, bw, attraction, a-b-da, 9, 3, 1, 28, 120, 195, 186, 114, 195, 120, 2, 0.785277
19, 1, bw, attraction, a-b-da, 2, 1, 1, 29, 135, 60, 134, 59, 60, 135, 1, 7.58411
19, 1, bw, attraction, a-b-da, 2, 1, 1, 29, 135, 60, 134, 59, 60, 135, 3, 1.71761
19, 1, bw, catch, NA, 999, 999, 1, 30, 161, 94, 162, 153, 86, 109, 2, 2.39
19, 1, bw, catch, NA, 999, 999, 1, 30, 161, 94, 162, 153, 86, 109, 3, 1.61362
19, 1, bw, filler, NA, 999, 999, 1, 31, 147, 115, 132, 193, 130, 96, 2, 2.81074
19, 1, bw, filler, NA, 999, 999, 1, 31, 147, 115, 132, 193, 130, 96, 3, 1.13552
19, 1, bw, attraction, a-b-db, 2, 3, 1, 32, 120, 195, 119, 193, 195, 120, 1, 26.2239
19, 1, bw, attraction, a-b-db, 2, 3, 1, 32, 120, 195, 119, 193, 195, 120, 3, 3.40695
19, 1, bw, attraction, a-b-db, 14, 2, 1, 33, 90, 165, 83, 153, 165, 90, 1, 4.88284
19, 1, bw, attraction, a-b-db, 14, 2, 1, 33, 90, 165, 83, 153, 165, 90, 2, 0.959694
19, 1, bw, attraction, a-b-da, 2, 2, 1, 34, 163, 89, 165, 90, 90, 165, 2, 6.15169
19, 1, bw, attraction, a-b-da, 2, 2, 1, 34, 163, 89, 165, 90, 90, 165, 1, 1.2054
19, 1, bw, attraction, a-b-db, 5, 1, 1, 35, 135, 60, 60, 135, 58, 132, 2, 5.8446
19, 1, bw, attraction, a-b-db, 5, 1, 1, 35, 135, 60, 60, 135, 58, 132, 1, 0.888006
19, 1, bw, filler, NA, 999, 999, 1, 36, 106, 146, 71, 91, 69, 134, 1, 2.22618
19, 1, bw, filler, NA, 999, 999, 1, 36, 106, 146, 71, 91, 69, 134, 2, 0.967987
19, 1, bw, attraction, a-b-db, 2, 1, 1, 37, 60, 135, 59, 134, 135, 60, 1, 36.935
19, 1, bw, attraction, a-b-db, 2, 1, 1, 37, 60, 135, 59, 134, 135, 60, 3, 1.24632
19, 1, bw, attraction, a-b-db, 2, 1, 2, 1, 135, 60, 59, 134, 60, 135, 2, 2.6655
19, 1, bw, attraction, a-b-db, 2, 1, 2, 1, 135, 60, 59, 134, 60, 135, 1, 0.765038
19, 1, bw, filler, NA, 999, 999, 2, 2, 114, 153, 162, 86, 121, 90, 1, 18.5965
19, 1, bw, filler, NA, 999, 999, 2, 2, 114, 153, 162, 86, 121, 90, 3, 0.966249
19, 1, bw, filler, NA, 999, 999, 2, 3, 170, 61, 137, 143, 164, 87, 2, 4.59698
19, 1, bw, filler, NA, 999, 999, 2, 3, 170, 61, 137, 143, 164, 87, 1, 1.33141
19, 1, bw, attraction, a-b-db, 14, 1, 2, 4, 135, 60, 60, 135, 56, 125, 2, 4.81249
19, 1, bw, attraction, a-b-db, 14, 1, 2, 4, 135, 60, 60, 135, 56, 125, 3, 0.826846
19, 1, bw, filler, NA, 999, 999, 2, 5, 146, 65, 85, 84, 147, 92, 3, 3.112
19, 1, bw, filler, NA, 999, 999, 2, 5, 146, 65, 85, 84, 147, 92, 2, 2.11419
19, 1, bw, attraction, a-b-da, 5, 3, 2, 6, 120, 195, 195, 120, 190, 117, 2, 24.7859
19, 1, bw, attraction, a-b-da, 5, 3, 2, 6, 120, 195, 195, 120, 190, 117, 1, 1.2352
19, 1, bw, attraction, a-b-da, 5, 1, 2, 7, 60, 135, 132, 58, 135, 60, 3, 7.63939
19, 1, bw, attraction, a-b-da, 5, 1, 2, 7, 60, 135, 132, 58, 135, 60, 2, 0.916229
19, 1, bw, attraction, a-b-da, 14, 1, 2, 8, 135, 60, 60, 135, 125, 56, 1, 7.48458
19, 1, bw, attraction, a-b-da, 14, 1, 2, 8, 135, 60, 60, 135, 125, 56, 3, 0.780976
19, 1, bw, attraction, a-b-db, 14, 3, 2, 9, 120, 195, 195, 120, 111, 181, 1, 5.19843
19, 1, bw, attraction, a-b-db, 14, 3, 2, 9, 120, 195, 195, 120, 111, 181, 3, 0.795101
19, 1, bw, attraction, a-b-da, 9, 3, 2, 10, 186, 114, 195, 120, 120, 195, 3, 24.5459
19, 1, bw, attraction, a-b-da, 9, 3, 2, 10, 186, 114, 195, 120, 120, 195, 1, 0.92233
19, 1, bw, attraction, a-b-db, 9, 3, 2, 11, 120, 195, 114, 186, 195, 120, 1, 27.0288
19, 1, bw, attraction, a-b-db, 9, 3, 2, 11, 120, 195, 114, 186, 195, 120, 2, 2.84347
19, 1, bw, catch, NA, 999, 999, 2, 12, 111, 84, 155, 100, 187, 128, 3, 1.63725
19, 1, bw, catch, NA, 999, 999, 2, 12, 111, 84, 155, 100, 187, 128, 1, 0.789063
19, 1, bw, filler, NA, 999, 999, 2, 13, 56, 79, 76, 145, 82, 91, 2, 2.3474
19, 1, bw, filler, NA, 999, 999, 2, 13, 56, 79, 76, 145, 82, 91, 1, 1.14601
19, 1, bw, catch, NA, 999, 999, 2, 14, 141, 174, 125, 130, 71, 124, 1, 1.30827
19, 1, bw, catch, NA, 999, 999, 2, 14, 141, 174, 125, 130, 71, 124, 3, 1.06107
19, 1, bw, attraction, a-b-db, 2, 2, 2, 15, 90, 165, 89, 163, 165, 90, 2, 37.3033
19, 1, bw, attraction, a-b-db, 2, 2, 2, 15, 90, 165, 89, 163, 165, 90, 1, 1.47196
19, 1, bw, attraction, a-b-db, 14, 2, 2, 16, 165, 90, 83, 153, 90, 165, 3, 3.5665
19, 1, bw, attraction, a-b-db, 14, 2, 2, 16, 165, 90, 83, 153, 90, 165, 2, 0.731981
19, 1, bw, attraction, a-b-da, 14, 3, 2, 17, 181, 111, 195, 120, 120, 195, 2, 1.72467
19, 1, bw, attraction, a-b-da, 14, 3, 2, 17, 181, 111, 195, 120, 120, 195, 1, 7.911
19, 1, bw, attraction, a-b-db, 9, 1, 2, 18, 60, 135, 57, 129, 135, 60, 3, 3.35915
19, 1, bw, attraction, a-b-db, 9, 1, 2, 18, 60, 135, 57, 129, 135, 60, 2, 0.797048
19, 1, bw, attraction, a-b-db, 5, 3, 2, 19, 117, 190, 195, 120, 120, 195, 1, 5.40383
19, 1, bw, attraction, a-b-db, 5, 3, 2, 19, 117, 190, 195, 120, 120, 195, 3, 0.744854
19, 1, bw, filler, NA, 999, 999, 2, 20, 171, 135, 143, 70, 88, 191, 1, 1.7151
19, 1, bw, filler, NA, 999, 999, 2, 20, 171, 135, 143, 70, 88, 191, 2, 0.812451
19, 1, bw, attraction, a-b-da, 2, 2, 2, 21, 90, 165, 163, 89, 165, 90, 3, 7.58588
19, 1, bw, attraction, a-b-da, 2, 2, 2, 21, 90, 165, 163, 89, 165, 90, 1, 0.791863
19, 1, bw, attraction, a-b-da, 5, 2, 2, 22, 161, 88, 165, 90, 90, 165, 2, 27.0063
19, 1, bw, attraction, a-b-da, 5, 2, 2, 22, 161, 88, 165, 90, 90, 165, 1, 1.50186
19, 1, bw, attraction, a-b-db, 2, 3, 2, 23, 195, 120, 119, 193, 120, 195, 3, 19.2146
19, 1, bw, attraction, a-b-db, 2, 3, 2, 23, 195, 120, 119, 193, 120, 195, 2, 1.02477
19, 1, bw, filler, NA, 999, 999, 2, 24, 111, 164, 86, 155, 73, 94, 1, 2.50993
19, 1, bw, filler, NA, 999, 999, 2, 24, 111, 164, 86, 155, 73, 94, 3, 0.784458
19, 1, bw, attraction, a-b-db, 9, 2, 2, 25, 165, 90, 86, 157, 90, 165, 3, 4.04456
19, 1, bw, attraction, a-b-db, 9, 2, 2, 25, 165, 90, 86, 157, 90, 165, 2, 0.779143
19, 1, bw, catch, NA, 999, 999, 2, 26, 151, 164, 80, 115, 106, 149, 1, 1.45571
19, 1, bw, catch, NA, 999, 999, 2, 26, 151, 164, 80, 115, 106, 149, 2, 0.806375
19, 1, bw, attraction, a-b-da, 9, 2, 2, 27, 165, 90, 157, 86, 90, 165, 3, 4.81169
19, 1, bw, attraction, a-b-da, 9, 2, 2, 27, 165, 90, 157, 86, 90, 165, 2, 6.94488
19, 1, bw, filler, NA, 999, 999, 2, 28, 98, 60, 56, 149, 195, 65, 3, 1.5377
19, 1, bw, filler, NA, 999, 999, 2, 28, 98, 60, 56, 149, 195, 65, 1, 0.850353
19, 1, bw, attraction, a-b-db, 5, 2, 2, 29, 165, 90, 88, 161, 90, 165, 3, 31.7671
19, 1, bw, attraction, a-b-db, 5, 2, 2, 29, 165, 90, 88, 161, 90, 165, 2, 2.07619
19, 1, bw, attraction, a-b-da, 2, 3, 2, 30, 193, 119, 120, 195, 195, 120, 2, 8.70365
19, 1, bw, attraction, a-b-da, 2, 3, 2, 30, 193, 119, 120, 195, 195, 120, 1, 0.863489
19, 1, bw, attraction, a-b-da, 9, 1, 2, 31, 135, 60, 60, 135, 129, 57, 1, 2.34723
19, 1, bw, attraction, a-b-da, 9, 1, 2, 31, 135, 60, 60, 135, 129, 57, 3, 0.995505
19, 1, bw, attraction, a-b-da, 14, 2, 2, 32, 165, 90, 90, 165, 153, 83, 3, 15.9559
19, 1, bw, attraction, a-b-da, 14, 2, 2, 32, 165, 90, 90, 165, 153, 83, 2, 1.90342
19, 1, bw, filler, NA, 999, 999, 2, 33, 90, 195, 63, 91, 80, 188, 1, 2.92795
19, 1, bw, filler, NA, 999, 999, 2, 33, 90, 195, 63, 91, 80, 188, 2, 0.754845
19, 1, bw, attraction, a-b-da, 2, 1, 2, 34, 134, 59, 60, 135, 135, 60, 3, 5.17652
19, 1, bw, attraction, a-b-da, 2, 1, 2, 34, 134, 59, 60, 135, 135, 60, 2, 2.12044
19, 1, bw, attraction, a-b-db, 5, 1, 2, 35, 135, 60, 58, 132, 60, 135, 1, 11.2265
19, 1, bw, attraction, a-b-db, 5, 1, 2, 35, 135, 60, 58, 132, 60, 135, 2, 0.810895
19, 1, bw, filler, NA, 999, 999, 2, 36, 107, 94, 130, 58, 71, 194, 3, 2.19553
19, 1, bw, filler, NA, 999, 999, 2, 36, 107, 94, 130, 58, 71, 194, 2, 11.3832
19, 1, bw, filler, NA, 999, 999, 2, 37, 83, 113, 145, 72, 146, 84, 3, 3.14048
19, 1, bw, filler, NA, 999, 999, 2, 37, 83, 113, 145, 72, 146, 84, 1, 2.11755
19, 1, bw, attraction, a-b-da, 2, 3, 3, 1, 195, 120, 193, 119, 120, 195, 1, 24.6074
19, 1, bw, attraction, a-b-da, 2, 3, 3, 1, 195, 120, 193, 119, 120, 195, 2, 0.981496
19, 1, bw, attraction, a-b-da, 9, 1, 3, 2, 135, 60, 129, 57, 60, 135, 1, 17.6832
19, 1, bw, attraction, a-b-da, 9, 1, 3, 2, 135, 60, 129, 57, 60, 135, 2, 0.825355
19, 1, bw, attraction, a-b-da, 5, 1, 3, 3, 60, 135, 135, 60, 132, 58, 3, 1.77623
19, 1, bw, attraction, a-b-da, 5, 1, 3, 3, 60, 135, 135, 60, 132, 58, 2, 0.800175
19, 1, bw, catch, NA, 999, 999, 3, 4, 118, 77, 120, 195, 151, 104, 2, 1.52555
19, 1, bw, catch, NA, 999, 999, 3, 4, 118, 77, 120, 195, 151, 104, 1, 0.74285
19, 1, bw, filler, NA, 999, 999, 3, 5, 150, 67, 141, 133, 166, 178, 3, 1.57563
19, 1, bw, filler, NA, 999, 999, 3, 5, 150, 67, 141, 133, 166, 178, 1, 1.29798
19, 1, bw, filler, NA, 999, 999, 3, 6, 152, 149, 110, 86, 69, 189, 1, 2.75551
19, 1, bw, filler, NA, 999, 999, 3, 6, 152, 149, 110, 86, 69, 189, 2, 0.915441
19, 1, bw, attraction, a-b-db, 14, 2, 3, 7, 165, 90, 90, 165, 83, 153, 2, 4.95768
19, 1, bw, attraction, a-b-db, 14, 2, 3, 7, 165, 90, 90, 165, 83, 153, 3, 2.26099
19, 1, bw, attraction, a-b-da, 5, 2, 3, 8, 90, 165, 161, 88, 165, 90, 2, 33.0163
19, 1, bw, attraction, a-b-da, 5, 2, 3, 8, 90, 165, 161, 88, 165, 90, 3, 1.1081
19, 1, bw, attraction, a-b-db, 5, 3, 3, 9, 120, 195, 117, 190, 195, 120, 3, 9.51703
19, 1, bw, attraction, a-b-db, 5, 3, 3, 9, 120, 195, 117, 190, 195, 120, 2, 1.18184
19, 1, bw, attraction, a-b-da, 2, 2, 3, 10, 165, 90, 163, 89, 90, 165, 1, 5.38726
19, 1, bw, attraction, a-b-da, 2, 2, 3, 10, 165, 90, 163, 89, 90, 165, 3, 0.897141
19, 1, bw, attraction, a-b-db, 9, 3, 3, 11, 114, 186, 120, 195, 195, 120, 3, 31.38
19, 1, bw, attraction, a-b-db, 9, 3, 3, 11, 114, 186, 120, 195, 195, 120, 1, 1.85069
19, 1, bw, filler, NA, 999, 999, 3, 12, 162, 171, 73, 167, 185, 84, 1, 2.09424
19, 1, bw, filler, NA, 999, 999, 3, 12, 162, 171, 73, 167, 185, 84, 2, 1.9696
19, 1, bw, attraction, a-b-da, 14, 3, 3, 13, 120, 195, 195, 120, 181, 111, 2, 34.8171
19, 1, bw, attraction, a-b-da, 14, 3, 3, 13, 120, 195, 195, 120, 181, 111, 3, 1.23802
19, 1, bw, attraction, a-b-db, 14, 3, 3, 14, 120, 195, 195, 120, 111, 181, 1, 2.44848
19, 1, bw, attraction, a-b-db, 14, 3, 3, 14, 120, 195, 195, 120, 111, 181, 3, 0.797904
19, 1, bw, catch, NA, 999, 999, 3, 15, 146, 109, 71, 124, 184, 131, 3, 2.02866
19, 1, bw, catch, NA, 999, 999, 3, 15, 146, 109, 71, 124, 184, 131, 2, 1.03405
19, 1, bw, attraction, a-b-da, 14, 2, 3, 16, 153, 83, 165, 90, 90, 165, 2, 2.26141
19, 1, bw, attraction, a-b-da, 14, 2, 3, 16, 153, 83, 165, 90, 90, 165, 1, 1.54119
19, 1, bw, attraction, a-b-db, 2, 1, 3, 17, 59, 134, 135, 60, 60, 135, 2, 42.4767
19, 1, bw, attraction, a-b-db, 2, 1, 3, 17, 59, 134, 135, 60, 60, 135, 1, 3.22743
19, 1, bw, attraction, a-b-da, 9, 3, 3, 18, 186, 114, 195, 120, 120, 195, 3, 10.3592
19, 1, bw, attraction, a-b-da, 9, 3, 3, 18, 186, 114, 195, 120, 120, 195, 1, 0.894572
19, 1, bw, attraction, a-b-da, 14, 1, 3, 19, 125, 56, 135, 60, 60, 135, 3, 2.78403
19, 1, bw, attraction, a-b-da, 14, 1, 3, 19, 125, 56, 135, 60, 60, 135, 1, 2.31007
19, 1, bw, attraction, a-b-da, 2, 1, 3, 20, 60, 135, 135, 60, 134, 59, 1, 27.6868
19, 1, bw, attraction, a-b-da, 2, 1, 3, 20, 60, 135, 135, 60, 134, 59, 2, 1.5572
19, 1, bw, filler, NA, 999, 999, 3, 21, 103, 192, 184, 161, 87, 166, 2, 1.60359
19, 1, bw, filler, NA, 999, 999, 3, 21, 103, 192, 184, 161, 87, 166, 3, 0.835799
19, 1, bw, attraction, a-b-db, 2, 2, 3, 22, 90, 165, 89, 163, 165, 90, 3, 48.4703
19, 1, bw, attraction, a-b-db, 2, 2, 3, 22, 90, 165, 89, 163, 165, 90, 2, 2.83619
19, 1, bw, attraction, a-b-db, 2, 3, 3, 23, 120, 195, 119, 193, 195, 120, 2, 4.56988
19, 1, bw, attraction, a-b-db, 2, 3, 3, 23, 120, 195, 119, 193, 195, 120, 1, 2.10291
19, 1, bw, attraction, a-b-da, 9, 2, 3, 24, 90, 165, 165, 90, 157, 86, 2, 3.25778
19, 1, bw, attraction, a-b-da, 9, 2, 3, 24, 90, 165, 165, 90, 157, 86, 3, 1.25323
19, 1, bw, filler, NA, 999, 999, 3, 25, 109, 113, 101, 175, 65, 113, 2, 1.77025
19, 1, bw, filler, NA, 999, 999, 3, 25, 109, 113, 101, 175, 65, 113, 3, 1.04111
19, 1, bw, filler, NA, 999, 999, 3, 26, 120, 76, 178, 192, 161, 171, 2, 1.36486
19, 1, bw, filler, NA, 999, 999, 3, 26, 120, 76, 178, 192, 161, 171, 1, 0.846346
19, 1, bw, filler, NA, 999, 999, 3, 27, 174, 186, 86, 98, 165, 127, 1, 1.6269
19, 1, bw, filler, NA, 999, 999, 3, 27, 174, 186, 86, 98, 165, 127, 2, 0.815706
19, 1, bw, filler, NA, 999, 999, 3, 28, 181, 192, 136, 194, 78, 131, 1, 1.65981
19, 1, bw, filler, NA, 999, 999, 3, 28, 181, 192, 136, 194, 78, 131, 3, 0.753383
19, 1, bw, attraction, a-b-db, 5, 2, 3, 29, 88, 161, 165, 90, 90, 165, 3, 109.896
19, 1, bw, attraction, a-b-db, 5, 2, 3, 29, 88, 161, 165, 90, 90, 165, 1, 1.63706
19, 1, bw, filler, NA, 999, 999, 3, 30, 115, 175, 129, 117, 98, 109, 1, 1.97377
19, 1, bw, filler, NA, 999, 999, 3, 30, 115, 175, 129, 117, 98, 109, 3, 0.73713
19, 1, bw, attraction, a-b-db, 5, 1, 3, 31, 60, 135, 58, 132, 135, 60, 3, 2.70533
19, 1, bw, attraction, a-b-db, 5, 1, 3, 31, 60, 135, 58, 132, 135, 60, 2, 0.617968
19, 1, bw, catch, NA, 999, 999, 3, 32, 182, 133, 115, 140, 120, 75, 1, 1.28697
19, 1, bw, catch, NA, 999, 999, 3, 32, 182, 133, 115, 140, 120, 75, 3, 0.660903
19, 1, bw, attraction, a-b-db, 14, 1, 3, 33, 56, 125, 135, 60, 60, 135, 2, 3.05556
19, 1, bw, attraction, a-b-db, 14, 1, 3, 33, 56, 125, 135, 60, 60, 135, 1, 0.754247
19, 1, bw, attraction, a-b-da, 5, 3, 3, 34, 120, 195, 195, 120, 190, 117, 2, 20.3392
19, 1, bw, attraction, a-b-da, 5, 3, 3, 34, 120, 195, 195, 120, 190, 117, 1, 2.19793
19, 1, bw, filler, NA, 999, 999, 3, 35, 145, 183, 173, 143, 162, 85, 1, 29.3725
19, 1, bw, filler, NA, 999, 999, 3, 35, 145, 183, 173, 143, 162, 85, 3, 0.948356
19, 1, bw, attraction, a-b-db, 9, 2, 3, 36, 86, 157, 165, 90, 90, 165, 3, 15.7883
19, 1, bw, attraction, a-b-db, 9, 2, 3, 36, 86, 157, 165, 90, 90, 165, 1, 0.927573
19, 1, bw, attraction, a-b-db, 9, 1, 3, 37, 60, 135, 57, 129, 135, 60, 3, 6.05585
19, 1, bw, attraction, a-b-db, 9, 1, 3, 37, 60, 135, 57, 129, 135, 60, 2, 1.07459
19, 1, bw, attraction, a-b-db, 2, 2, 4, 1, 165, 90, 89, 163, 90, 165, 2, 3.25434
19, 1, bw, attraction, a-b-db, 2, 2, 4, 1, 165, 90, 89, 163, 90, 165, 3, 0.970387
19, 1, bw, attraction, a-b-da, 14, 2, 4, 2, 153, 83, 90, 165, 165, 90, 3, 5.47198
19, 1, bw, attraction, a-b-da, 14, 2, 4, 2, 153, 83, 90, 165, 165, 90, 1, 0.810268
19, 1, bw, attraction, a-b-db, 9, 2, 4, 3, 86, 157, 90, 165, 165, 90, 3, 3.13064
19, 1, bw, attraction, a-b-db, 9, 2, 4, 3, 86, 157, 90, 165, 165, 90, 1, 0.763633
19, 1, bw, attraction, a-b-db, 5, 2, 4, 4, 88, 161, 90, 165, 165, 90, 3, 28.1631
19, 1, bw, attraction, a-b-db, 5, 2, 4, 4, 88, 161, 90, 165, 165, 90, 1, 0.714051
19, 1, bw, attraction, a-b-da, 14, 1, 4, 5, 135, 60, 125, 56, 60, 135, 1, 2.61413
19, 1, bw, attraction, a-b-da, 14, 1, 4, 5, 135, 60, 125, 56, 60, 135, 2, 1.7852
19, 1, bw, attraction, a-b-da, 2, 3, 4, 6, 120, 195, 193, 119, 195, 120, 2, 2.39185
19, 1, bw, attraction, a-b-da, 2, 3, 4, 6, 120, 195, 193, 119, 195, 120, 1, 4.99301
19, 1, bw, attraction, a-b-db, 2, 1, 4, 7, 59, 134, 135, 60, 60, 135, 2, 3.20343
19, 1, bw, attraction, a-b-db, 2, 1, 4, 7, 59, 134, 135, 60, 60, 135, 1, 0.723703
19, 1, bw, attraction, a-b-db, 14, 1, 4, 8, 56, 125, 60, 135, 135, 60, 3, 1.88422
19, 1, bw, attraction, a-b-db, 14, 1, 4, 8, 56, 125, 60, 135, 135, 60, 1, 0.545273
19, 1, bw, attraction, a-b-da, 5, 1, 4, 9, 60, 135, 132, 58, 135, 60, 2, 4.70494
19, 1, bw, attraction, a-b-da, 5, 1, 4, 9, 60, 135, 132, 58, 135, 60, 1, 0.658284
19, 1, bw, filler, NA, 999, 999, 4, 10, 82, 120, 192, 124, 156, 109, 2, 1.27105
19, 1, bw, filler, NA, 999, 999, 4, 10, 82, 120, 192, 124, 156, 109, 1, 0.808381
19, 1, bw, attraction, a-b-da, 9, 1, 4, 11, 60, 135, 135, 60, 129, 57, 3, 10.0323
19, 1, bw, attraction, a-b-da, 9, 1, 4, 11, 60, 135, 135, 60, 129, 57, 2, 0.739456
19, 1, bw, catch, NA, 999, 999, 4, 12, 61, 134, 124, 131, 132, 183, 3, 1.33969
19, 1, bw, catch, NA, 999, 999, 4, 12, 61, 134, 124, 131, 132, 183, 1, 0.765531
19, 1, bw, catch, NA, 999, 999, 4, 13, 95, 160, 82, 113, 176, 139, 3, 2.45875
19, 1, bw, catch, NA, 999, 999, 4, 13, 95, 160, 82, 113, 176, 139, 2, 0.550778
19, 1, bw, attraction, a-b-db, 9, 1, 4, 14, 57, 129, 60, 135, 135, 60, 3, 2.13551
19, 1, bw, attraction, a-b-db, 9, 1, 4, 14, 57, 129, 60, 135, 135, 60, 1, 0.593047
19, 1, bw, attraction, a-b-db, 9, 3, 4, 15, 114, 186, 195, 120, 120, 195, 3, 11.8569
19, 1, bw, attraction, a-b-db, 9, 3, 4, 15, 114, 186, 195, 120, 120, 195, 1, 0.625716
19, 1, bw, attraction, a-b-da, 2, 2, 4, 16, 165, 90, 163, 89, 90, 165, 1, 3.74915
19, 1, bw, attraction, a-b-da, 2, 2, 4, 16, 165, 90, 163, 89, 90, 165, 2, 1.68453
19, 1, bw, attraction, a-b-da, 9, 3, 4, 17, 186, 114, 120, 195, 195, 120, 2, 5.63943
19, 1, bw, attraction, a-b-da, 9, 3, 4, 17, 186, 114, 120, 195, 195, 120, 1, 0.588412
19, 1, bw, attraction, a-b-da, 14, 3, 4, 18, 181, 111, 120, 195, 195, 120, 2, 2.94865
19, 1, bw, attraction, a-b-da, 14, 3, 4, 18, 181, 111, 120, 195, 195, 120, 1, 0.876371
19, 1, bw, attraction, a-b-db, 14, 3, 4, 19, 195, 120, 120, 195, 111, 181, 1, 2.16684
19, 1, bw, attraction, a-b-db, 14, 3, 4, 19, 195, 120, 120, 195, 111, 181, 3, 0.677804
19, 1, bw, attraction, a-b-da, 5, 3, 4, 20, 195, 120, 190, 117, 120, 195, 2, 11.3291
19, 1, bw, attraction, a-b-da, 5, 3, 4, 20, 195, 120, 190, 117, 120, 195, 1, 1.13605
19, 1, bw, filler, NA, 999, 999, 4, 21, 80, 140, 166, 73, 168, 168, 3, 1.30409
19, 1, bw, filler, NA, 999, 999, 4, 21, 80, 140, 166, 73, 168, 168, 1, 0.7231
19, 1, bw, filler, NA, 999, 999, 4, 22, 154, 151, 63, 186, 138, 149, 1, 2.24425
19, 1, bw, filler, NA, 999, 999, 4, 22, 154, 151, 63, 186, 138, 149, 2, 2.99357
19, 1, bw, filler, NA, 999, 999, 4, 23, 135, 125, 147, 58, 86, 140, 1, 3.18325
19, 1, bw, filler, NA, 999, 999, 4, 23, 135, 125, 147, 58, 86, 140, 3, 0.734062
19, 1, bw, attraction, a-b-da, 5, 2, 4, 24, 165, 90, 90, 165, 161, 88, 2, 19.5606
19, 1, bw, attraction, a-b-da, 5, 2, 4, 24, 165, 90, 90, 165, 161, 88, 1, 0.604598
19, 1, bw, filler, NA, 999, 999, 4, 25, 113, 128, 108, 133, 71, 144, 2, 2.43348
19, 1, bw, filler, NA, 999, 999, 4, 25, 113, 128, 108, 133, 71, 144, 3, 0.684525
19, 1, bw, filler, NA, 999, 999, 4, 26, 91, 97, 93, 167, 72, 108, 2, 2.05452
19, 1, bw, filler, NA, 999, 999, 4, 26, 91, 97, 93, 167, 72, 108, 1, 0.780159
19, 1, bw, attraction, a-b-db, 5, 3, 4, 27, 117, 190, 120, 195, 195, 120, 2, 10.9312
19, 1, bw, attraction, a-b-db, 5, 3, 4, 27, 117, 190, 120, 195, 195, 120, 1, 0.7314
19, 1, bw, filler, NA, 999, 999, 4, 28, 166, 145, 176, 65, 108, 189, 1, 2.26831
19, 1, bw, filler, NA, 999, 999, 4, 28, 166, 145, 176, 65, 108, 189, 2, 1.27782
19, 1, bw, attraction, a-b-db, 14, 2, 4, 29, 90, 165, 83, 153, 165, 90, 1, 9.71436
19, 1, bw, attraction, a-b-db, 14, 2, 4, 29, 90, 165, 83, 153, 165, 90, 2, 0.922246
19, 1, bw, catch, NA, 999, 999, 4, 30, 68, 127, 144, 111, 144, 171, 3, 1.46667
19, 1, bw, catch, NA, 999, 999, 4, 30, 68, 127, 144, 111, 144, 171, 1, 0.696083
19, 1, bw, filler, NA, 999, 999, 4, 31, 86, 185, 141, 171, 149, 66, 2, 1.67275
19, 1, bw, filler, NA, 999, 999, 4, 31, 86, 185, 141, 171, 149, 66, 3, 0.7335
19, 1, bw, filler, NA, 999, 999, 4, 32, 97, 173, 96, 113, 165, 131, 3, 2.01392
19, 1, bw, filler, NA, 999, 999, 4, 32, 97, 173, 96, 113, 165, 131, 2, 0.692148
19, 1, bw, attraction, a-b-db, 5, 1, 4, 33, 135, 60, 58, 132, 60, 135, 1, 2.98077
19, 1, bw, attraction, a-b-db, 5, 1, 4, 33, 135, 60, 58, 132, 60, 135, 2, 1.81413
19, 1, bw, attraction, a-b-da, 2, 1, 4, 34, 60, 135, 135, 60, 134, 59, 3, 15.1952
19, 1, bw, attraction, a-b-da, 2, 1, 4, 34, 60, 135, 135, 60, 134, 59, 1, 0.733921
19, 1, bw, attraction, a-b-da, 9, 2, 4, 35, 165, 90, 90, 165, 157, 86, 1, 3.86962
19, 1, bw, attraction, a-b-da, 9, 2, 4, 35, 165, 90, 90, 165, 157, 86, 3, 1.94555
19, 1, bw, filler, NA, 999, 999, 4, 36, 190, 72, 145, 132, 157, 68, 2, 2.04267
19, 1, bw, filler, NA, 999, 999, 4, 36, 190, 72, 145, 132, 157, 68, 3, 0.878014
19, 1, bw, attraction, a-b-db, 2, 3, 4, 37, 195, 120, 120, 195, 119, 193, 3, 7.64395
19, 1, bw, attraction, a-b-db, 2, 3, 4, 37, 195, 120, 120, 195, 119, 193, 2, 0.743007
19, 1, bw, attraction, a-b-da, 5, 2, 5, 1, 90, 165, 165, 90, 161, 88, 1, 19.8933
19, 1, bw, attraction, a-b-da, 5, 2, 5, 1, 90, 165, 165, 90, 161, 88, 3, 0.915328
19, 1, bw, filler, NA, 999, 999, 5, 2, 103, 144, 90, 142, 158, 74, 3, 1.88372
19, 1, bw, filler, NA, 999, 999, 5, 2, 103, 144, 90, 142, 158, 74, 2, 0.78907
19, 1, bw, filler, NA, 999, 999, 5, 3, 127, 187, 64, 98, 159, 74, 1, 1.52761
19, 1, bw, filler, NA, 999, 999, 5, 3, 127, 187, 64, 98, 159, 74, 2, 0.910165
19, 1, bw, attraction, a-b-db, 2, 1, 5, 4, 135, 60, 60, 135, 59, 134, 1, 6.60158
19, 1, bw, attraction, a-b-db, 2, 1, 5, 4, 135, 60, 60, 135, 59, 134, 2, 0.870019
19, 1, bw, attraction, a-b-da, 14, 3, 5, 5, 120, 195, 181, 111, 195, 120, 3, 7.09589
19, 1, bw, attraction, a-b-da, 14, 3, 5, 5, 120, 195, 181, 111, 195, 120, 2, 0.764027
19, 1, bw, attraction, a-b-da, 9, 3, 5, 6, 195, 120, 186, 114, 120, 195, 1, 5.25143
19, 1, bw, attraction, a-b-da, 9, 3, 5, 6, 195, 120, 186, 114, 120, 195, 2, 0.838312
19, 1, bw, attraction, a-b-da, 9, 2, 5, 7, 157, 86, 165, 90, 90, 165, 2, 4.23679
19, 1, bw, attraction, a-b-da, 9, 2, 5, 7, 157, 86, 165, 90, 90, 165, 1, 1.07281
19, 1, bw, attraction, a-b-db, 5, 3, 5, 8, 195, 120, 120, 195, 117, 190, 2, 2.38605
19, 1, bw, attraction, a-b-db, 5, 3, 5, 8, 195, 120, 120, 195, 117, 190, 3, 0.83509
19, 1, bw, attraction, a-b-da, 14, 2, 5, 9, 165, 90, 153, 83, 90, 165, 3, 2.38311
19, 1, bw, attraction, a-b-da, 14, 2, 5, 9, 165, 90, 153, 83, 90, 165, 2, 0.646447
19, 1, bw, attraction, a-b-db, 2, 2, 5, 10, 89, 163, 90, 165, 165, 90, 1, 4.56899
19, 1, bw, attraction, a-b-db, 2, 2, 5, 10, 89, 163, 90, 165, 165, 90, 2, 3.6582
19, 1, bw, attraction, a-b-da, 14, 1, 5, 11, 125, 56, 135, 60, 60, 135, 2, 2.05155
19, 1, bw, attraction, a-b-da, 14, 1, 5, 11, 125, 56, 135, 60, 60, 135, 1, 0.737988
19, 1, bw, attraction, a-b-db, 14, 3, 5, 12, 111, 181, 195, 120, 120, 195, 2, 2.26563
19, 1, bw, attraction, a-b-db, 14, 3, 5, 12, 111, 181, 195, 120, 120, 195, 1, 0.964282
19, 1, bw, filler, NA, 999, 999, 5, 13, 172, 178, 185, 87, 57, 190, 1, 1.53348
19, 1, bw, filler, NA, 999, 999, 5, 13, 172, 178, 185, 87, 57, 190, 3, 0.805019
19, 1, bw, attraction, a-b-da, 2, 1, 5, 14, 134, 59, 135, 60, 60, 135, 2, 2.69823
19, 1, bw, attraction, a-b-da, 2, 1, 5, 14, 134, 59, 135, 60, 60, 135, 1, 4.14312
19, 1, bw, attraction, a-b-db, 9, 1, 5, 15, 135, 60, 57, 129, 60, 135, 1, 2.67902
19, 1, bw, attraction, a-b-db, 9, 1, 5, 15, 135, 60, 57, 129, 60, 135, 2, 0.768185
19, 1, bw, attraction, a-b-db, 9, 2, 5, 16, 90, 165, 86, 157, 165, 90, 1, 26.2862
19, 1, bw, attraction, a-b-db, 9, 2, 5, 16, 90, 165, 86, 157, 165, 90, 2, 0.628516
19, 1, bw, attraction, a-b-db, 14, 1, 5, 17, 56, 125, 60, 135, 135, 60, 2, 1.7688
19, 1, bw, attraction, a-b-db, 14, 1, 5, 17, 56, 125, 60, 135, 135, 60, 1, 0.936774
19, 1, bw, filler, NA, 999, 999, 5, 18, 73, 178, 173, 62, 73, 124, 1, 3.57604
19, 1, bw, filler, NA, 999, 999, 5, 18, 73, 178, 173, 62, 73, 124, 3, 0.824815
19, 1, bw, attraction, a-b-db, 9, 3, 5, 19, 120, 195, 114, 186, 195, 120, 1, 5.57172
19, 1, bw, attraction, a-b-db, 9, 3, 5, 19, 120, 195, 114, 186, 195, 120, 2, 0.796742
19, 1, bw, attraction, a-b-db, 2, 3, 5, 20, 119, 193, 195, 120, 120, 195, 1, 25.0906
19, 1, bw, attraction, a-b-db, 2, 3, 5, 20, 119, 193, 195, 120, 120, 195, 3, 0.952161
19, 1, bw, attraction, a-b-db, 14, 2, 5, 21, 83, 153, 165, 90, 90, 165, 3, 3.1421
19, 1, bw, attraction, a-b-db, 14, 2, 5, 21, 83, 153, 165, 90, 90, 165, 1, 0.704523
19, 1, bw, attraction, a-b-da, 2, 3, 5, 22, 120, 195, 195, 120, 193, 119, 2, 1.59964
19, 1, bw, attraction, a-b-da, 2, 3, 5, 22, 120, 195, 195, 120, 193, 119, 3, 0.759297
19, 1, bw, filler, NA, 999, 999, 5, 23, 162, 140, 80, 182, 63, 119, 1, 1.38475
19, 1, bw, filler, NA, 999, 999, 5, 23, 162, 140, 80, 182, 63, 119, 3, 1.75132
19, 1, bw, filler, NA, 999, 999, 5, 24, 59, 95, 178, 107, 144, 67, 2, 1.59815
19, 1, bw, filler, NA, 999, 999, 5, 24, 59, 95, 178, 107, 144, 67, 1, 0.829208
19, 1, bw, filler, NA, 999, 999, 5, 25, 94, 119, 184, 135, 157, 81, 2, 2.01919
19, 1, bw, filler, NA, 999, 999, 5, 25, 94, 119, 184, 135, 157, 81, 1, 16.1755
19, 1, bw, attraction, a-b-da, 9, 1, 5, 26, 129, 57, 60, 135, 135, 60, 3, 10.7792
19, 1, bw, attraction, a-b-da, 9, 1, 5, 26, 129, 57, 60, 135, 135, 60, 1, 1.24026
19, 1, bw, filler, NA, 999, 999, 5, 27, 184, 91, 111, 123, 146, 63, 1, 1.61329
19, 1, bw, filler, NA, 999, 999, 5, 27, 184, 91, 111, 123, 146, 63, 3, 0.851898
19, 1, bw, attraction, a-b-db, 5, 2, 5, 28, 165, 90, 90, 165, 88, 161, 3, 10.4854
19, 1, bw, attraction, a-b-db, 5, 2, 5, 28, 165, 90, 90, 165, 88, 161, 1, 1.42344
19, 1, bw, attraction, a-b-da, 5, 1, 5, 29, 135, 60, 132, 58, 60, 135, 3, 2.26731
19, 1, bw, attraction, a-b-da, 5, 1, 5, 29, 135, 60, 132, 58, 60, 135, 2, 1.32712
19, 1, bw, attraction, a-b-da, 2, 2, 5, 30, 90, 165, 165, 90, 163, 89, 1, 12.1921
19, 1, bw, attraction, a-b-da, 2, 2, 5, 30, 90, 165, 165, 90, 163, 89, 2, 0.733398
19, 1, bw, catch, NA, 999, 999, 5, 31, 145, 110, 93, 102, 134, 181, 3, 2.38156
19, 1, bw, catch, NA, 999, 999, 5, 31, 145, 110, 93, 102, 134, 181, 2, 0.667755
19, 1, bw, filler, NA, 999, 999, 5, 32, 71, 89, 176, 62, 183, 132, 3, 1.50988
19, 1, bw, filler, NA, 999, 999, 5, 32, 71, 89, 176, 62, 183, 132, 1, 0.656185
19, 1, bw, attraction, a-b-da, 5, 3, 5, 33, 195, 120, 190, 117, 120, 195, 2, 19.0219
19, 1, bw, attraction, a-b-da, 5, 3, 5, 33, 195, 120, 190, 117, 120, 195, 3, 2.48603
19, 1, bw, catch, NA, 999, 999, 5, 34, 99, 96, 136, 119, 168, 147, 3, 1.63129
19, 1, bw, catch, NA, 999, 999, 5, 34, 99, 96, 136, 119, 168, 147, 1, 0.72711
19, 1, bw, attraction, a-b-db, 5, 1, 5, 35, 58, 132, 135, 60, 60, 135, 1, 8.59139
19, 1, bw, attraction, a-b-db, 5, 1, 5, 35, 58, 132, 135, 60, 60, 135, 2, 0.731855
19, 1, bw, filler, NA, 999, 999, 5, 36, 156, 56, 97, 162, 131, 72, 2, 4.02216
19, 1, bw, filler, NA, 999, 999, 5, 36, 156, 56, 97, 162, 131, 72, 3, 1.09802
19, 1, bw, catch, NA, 999, 999, 5, 37, 135, 60, 138, 177, 120, 135, 2, 1.29234
19, 1, bw, catch, NA, 999, 999, 5, 37, 135, 60, 138, 177, 120, 135, 1, 0.712563
19, 1, bw, filler, NA, 999, 999, 6, 1, 118, 141, 140, 189, 63, 194, 2, 1.50567
19, 1, bw, filler, NA, 999, 999, 6, 1, 118, 141, 140, 189, 63, 194, 3, 1.14845
19, 1, bw, attraction, a-b-db, 14, 3, 6, 2, 195, 120, 111, 181, 120, 195, 1, 2.89221
19, 1, bw, attraction, a-b-db, 14, 3, 6, 2, 195, 120, 111, 181, 120, 195, 2, 0.806129
19, 1, bw, catch, NA, 999, 999, 6, 3, 69, 126, 116, 139, 153, 162, 3, 1.50097
19, 1, bw, catch, NA, 999, 999, 6, 3, 69, 126, 116, 139, 153, 162, 1, 0.721421
19, 1, bw, attraction, a-b-da, 14, 2, 6, 4, 90, 165, 153, 83, 165, 90, 3, 9.24076
19, 1, bw, attraction, a-b-da, 14, 2, 6, 4, 90, 165, 153, 83, 165, 90, 2, 0.987466
19, 1, bw, attraction, a-b-da, 2, 3, 6, 5, 193, 119, 120, 195, 195, 120, 1, 3.17862
19, 1, bw, attraction, a-b-da, 2, 3, 6, 5, 193, 119, 120, 195, 195, 120, 2, 6.48134
19, 1, bw, catch, NA, 999, 999, 6, 6, 135, 60, 106, 149, 168, 147, 3, 1.53872
19, 1, bw, catch, NA, 999, 999, 6, 6, 135, 60, 106, 149, 168, 147, 1, 0.83748
19, 1, bw, attraction, a-b-da, 5, 1, 6, 7, 60, 135, 135, 60, 132, 58, 3, 6.51377
19, 1, bw, attraction, a-b-da, 5, 1, 6, 7, 60, 135, 135, 60, 132, 58, 2, 1.96275
19, 1, bw, attraction, a-b-db, 14, 1, 6, 8, 60, 135, 56, 125, 135, 60, 1, 2.53039
19, 1, bw, attraction, a-b-db, 14, 1, 6, 8, 60, 135, 56, 125, 135, 60, 2, 0.746442
19, 1, bw, filler, NA, 999, 999, 6, 9, 96, 89, 124, 88, 139, 138, 3, 1.28345
19, 1, bw, filler, NA, 999, 999, 6, 9, 96, 89, 124, 88, 139, 138, 1, 0.902057
19, 1, bw, attraction, a-b-db, 5, 2, 6, 10, 90, 165, 88, 161, 165, 90, 1, 54.792
19, 1, bw, attraction, a-b-db, 5, 2, 6, 10, 90, 165, 88, 161, 165, 90, 2, 1.1839
19, 1, bw, attraction, a-b-db, 2, 2, 6, 11, 165, 90, 89, 163, 90, 165, 3, 44.7578
19, 1, bw, attraction, a-b-db, 2, 2, 6, 11, 165, 90, 89, 163, 90, 165, 2, 0.689024
19, 1, bw, attraction, a-b-db, 5, 1, 6, 12, 58, 132, 135, 60, 60, 135, 3, 3.45114
19, 1, bw, attraction, a-b-db, 5, 1, 6, 12, 58, 132, 135, 60, 60, 135, 1, 2.67173
19, 1, bw, catch, NA, 999, 999, 6, 13, 130, 65, 146, 169, 98, 157, 2, 1.54623
19, 1, bw, catch, NA, 999, 999, 6, 13, 130, 65, 146, 169, 98, 157, 1, 0.883182
19, 1, bw, filler, NA, 999, 999, 6, 14, 85, 169, 143, 75, 116, 146, 3, 4.38041
19, 1, bw, filler, NA, 999, 999, 6, 14, 85, 169, 143, 75, 116, 146, 2, 0.829175
19, 1, bw, filler, NA, 999, 999, 6, 15, 81, 114, 184, 58, 157, 63, 2, 1.96137
19, 1, bw, filler, NA, 999, 999, 6, 15, 81, 114, 184, 58, 157, 63, 1, 1.32991
19, 1, bw, attraction, a-b-db, 2, 3, 6, 16, 119, 193, 120, 195, 195, 120, 1, 7.72289
19, 1, bw, attraction, a-b-db, 2, 3, 6, 16, 119, 193, 120, 195, 195, 120, 3, 0.932918
19, 1, bw, attraction, a-b-db, 14, 2, 6, 17, 165, 90, 90, 165, 83, 153, 2, 2.10704
19, 1, bw, attraction, a-b-db, 14, 2, 6, 17, 165, 90, 90, 165, 83, 153, 3, 0.765442
19, 1, bw, attraction, a-b-db, 9, 3, 6, 18, 114, 186, 195, 120, 120, 195, 3, 3.70269
19, 1, bw, attraction, a-b-db, 9, 3, 6, 18, 114, 186, 195, 120, 120, 195, 1, 1.14289
19, 1, bw, attraction, a-b-da, 14, 1, 6, 19, 60, 135, 125, 56, 135, 60, 3, 3.06232
19, 1, bw, attraction, a-b-da, 14, 1, 6, 19, 60, 135, 125, 56, 135, 60, 2, 1.18959
19, 1, bw, filler, NA, 999, 999, 6, 20, 90, 151, 118, 179, 63, 73, 2, 1.49759
19, 1, bw, filler, NA, 999, 999, 6, 20, 90, 151, 118, 179, 63, 73, 3, 0.876107
19, 1, bw, attraction, a-b-da, 9, 3, 6, 21, 195, 120, 120, 195, 186, 114, 1, 2.39034
19, 1, bw, attraction, a-b-da, 9, 3, 6, 21, 195, 120, 120, 195, 186, 114, 2, 0.742169
19, 1, bw, attraction, a-b-db, 2, 1, 6, 22, 135, 60, 60, 135, 59, 134, 1, 2.04608
19, 1, bw, attraction, a-b-db, 2, 1, 6, 22, 135, 60, 60, 135, 59, 134, 2, 0.868056
19, 1, bw, filler, NA, 999, 999, 6, 23, 66, 89, 89, 63, 189, 191, 3, 1.47234
19, 1, bw, filler, NA, 999, 999, 6, 23, 66, 89, 89, 63, 189, 191, 1, 4.92356
19, 1, bw, attraction, a-b-db, 9, 1, 6, 24, 135, 60, 60, 135, 57, 129, 1, 3.56488
19, 1, bw, attraction, a-b-db, 9, 1, 6, 24, 135, 60, 60, 135, 57, 129, 3, 1.29158
19, 1, bw, attraction, a-b-da, 2, 1, 6, 25, 60, 135, 134, 59, 135, 60, 2, 6.08623
19, 1, bw, attraction, a-b-da, 2, 1, 6, 25, 60, 135, 134, 59, 135, 60, 3, 2.74491
19, 1, bw, attraction, a-b-db, 5, 3, 6, 26, 117, 190, 120, 195, 195, 120, 1, 19.887
19, 1, bw, attraction, a-b-db, 5, 3, 6, 26, 117, 190, 120, 195, 195, 120, 3, 4.07669
19, 1, bw, filler, NA, 999, 999, 6, 27, 186, 67, 133, 132, 105, 104, 2, 1.78145
19, 1, bw, filler, NA, 999, 999, 6, 27, 186, 67, 133, 132, 105, 104, 3, 0.774075
19, 1, bw, filler, NA, 999, 999, 6, 28, 129, 116, 71, 186, 96, 85, 1, 1.68632
19, 1, bw, filler, NA, 999, 999, 6, 28, 129, 116, 71, 186, 96, 85, 3, 0.841959
19, 1, bw, filler, NA, 999, 999, 6, 29, 191, 155, 99, 128, 56, 172, 1, 1.52593
19, 1, bw, filler, NA, 999, 999, 6, 29, 191, 155, 99, 128, 56, 172, 3, 4.55801
19, 1, bw, attraction, a-b-da, 14, 3, 6, 30, 195, 120, 181, 111, 120, 195, 3, 3.55648
19, 1, bw, attraction, a-b-da, 14, 3, 6, 30, 195, 120, 181, 111, 120, 195, 2, 1.27698
19, 1, bw, attraction, a-b-da, 2, 2, 6, 31, 163, 89, 165, 90, 90, 165, 1, 6.77006
19, 1, bw, attraction, a-b-da, 2, 2, 6, 31, 163, 89, 165, 90, 90, 165, 2, 0.831671
19, 1, bw, attraction, a-b-da, 5, 3, 6, 32, 120, 195, 190, 117, 195, 120, 3, 5.25172
19, 1, bw, attraction, a-b-da, 5, 3, 6, 32, 120, 195, 190, 117, 195, 120, 1, 0.648622
19, 1, bw, attraction, a-b-da, 5, 2, 6, 33, 165, 90, 90, 165, 161, 88, 2, 1.54581
19, 1, bw, attraction, a-b-da, 5, 2, 6, 33, 165, 90, 90, 165, 161, 88, 3, 2.01058
19, 1, bw, attraction, a-b-db, 9, 2, 6, 34, 90, 165, 165, 90, 86, 157, 2, 1.55939
19, 1, bw, attraction, a-b-db, 9, 2, 6, 34, 90, 165, 165, 90, 86, 157, 3, 0.56953
19, 1, bw, filler, NA, 999, 999, 6, 35, 140, 81, 109, 185, 78, 93, 2, 1.31296
19, 1, bw, filler, NA, 999, 999, 6, 35, 140, 81, 109, 185, 78, 93, 3, 0.739943
19, 1, bw, attraction, a-b-da, 9, 2, 6, 36, 90, 165, 157, 86, 165, 90, 3, 18.5636
19, 1, bw, attraction, a-b-da, 9, 2, 6, 36, 90, 165, 157, 86, 165, 90, 2, 0.573651
19, 1, bw, attraction, a-b-da, 9, 1, 6, 37, 60, 135, 135, 60, 129, 57, 2, 1.7174
19, 1, bw, attraction, a-b-da, 9, 1, 6, 37, 60, 135, 135, 60, 129, 57, 3, 0.657404
19, 1, bw, attraction, a-b-db, 9, 2, 7, 1, 165, 90, 86, 157, 90, 165, 1, 4.33206
19, 1, bw, attraction, a-b-db, 9, 2, 7, 1, 165, 90, 86, 157, 90, 165, 3, 0.763028
19, 1, bw, attraction, a-b-da, 5, 3, 7, 2, 120, 195, 195, 120, 190, 117, 3, 3.91593
19, 1, bw, attraction, a-b-da, 5, 3, 7, 2, 120, 195, 195, 120, 190, 117, 1, 1.25318
19, 1, bw, attraction, a-b-db, 9, 1, 7, 3, 135, 60, 60, 135, 57, 129, 1, 2.58491
19, 1, bw, attraction, a-b-db, 9, 1, 7, 3, 135, 60, 60, 135, 57, 129, 3, 1.74378
19, 1, bw, attraction, a-b-db, 5, 3, 7, 4, 195, 120, 120, 195, 117, 190, 2, 4.1386
19, 1, bw, attraction, a-b-db, 5, 3, 7, 4, 195, 120, 120, 195, 117, 190, 3, 0.735457
19, 1, bw, attraction, a-b-db, 14, 2, 7, 5, 165, 90, 83, 153, 90, 165, 3, 8.0808
19, 1, bw, attraction, a-b-db, 14, 2, 7, 5, 165, 90, 83, 153, 90, 165, 1, 0.635639
19, 1, bw, attraction, a-b-da, 9, 2, 7, 6, 165, 90, 157, 86, 90, 165, 2, 8.97469
19, 1, bw, attraction, a-b-da, 9, 2, 7, 6, 165, 90, 157, 86, 90, 165, 3, 1.81228
19, 1, bw, filler, NA, 999, 999, 7, 7, 146, 102, 178, 182, 89, 137, 2, 1.33906
19, 1, bw, filler, NA, 999, 999, 7, 7, 146, 102, 178, 182, 89, 137, 3, 0.868646
19, 1, bw, attraction, a-b-db, 2, 2, 7, 8, 89, 163, 90, 165, 165, 90, 3, 2.13442
19, 1, bw, attraction, a-b-db, 2, 2, 7, 8, 89, 163, 90, 165, 165, 90, 2, 0.832495
19, 1, bw, attraction, a-b-db, 5, 1, 7, 9, 58, 132, 60, 135, 135, 60, 3, 2.12573
19, 1, bw, attraction, a-b-db, 5, 1, 7, 9, 58, 132, 60, 135, 135, 60, 2, 0.736538
19, 1, bw, attraction, a-b-da, 9, 3, 7, 10, 195, 120, 186, 114, 120, 195, 1, 3.3185
19, 1, bw, attraction, a-b-da, 9, 3, 7, 10, 195, 120, 186, 114, 120, 195, 2, 1.38368
19, 1, bw, attraction, a-b-da, 2, 2, 7, 11, 163, 89, 90, 165, 165, 90, 3, 4.09529
19, 1, bw, attraction, a-b-da, 2, 2, 7, 11, 163, 89, 90, 165, 165, 90, 1, 0.721957
19, 1, bw, attraction, a-b-db, 14, 1, 7, 12, 135, 60, 56, 125, 60, 135, 3, 35.3314
19, 1, bw, attraction, a-b-db, 14, 1, 7, 12, 135, 60, 56, 125, 60, 135, 2, 0.811692
19, 1, bw, filler, NA, 999, 999, 7, 13, 100, 144, 79, 173, 109, 103, 1, 8.29031
19, 1, bw, filler, NA, 999, 999, 7, 13, 100, 144, 79, 173, 109, 103, 3, 1.14553
19, 1, bw, catch, NA, 999, 999, 7, 14, 195, 120, 107, 148, 102, 93, 1, 2.41059
19, 1, bw, catch, NA, 999, 999, 7, 14, 195, 120, 107, 148, 102, 93, 3, 1.20923
19, 1, bw, catch, NA, 999, 999, 7, 15, 159, 156, 151, 104, 99, 96, 1, 2.13471
19, 1, bw, catch, NA, 999, 999, 7, 15, 159, 156, 151, 104, 99, 96, 3, 0.918586
19, 1, bw, filler, NA, 999, 999, 7, 16, 188, 92, 98, 171, 185, 120, 3, 2.50504
19, 1, bw, filler, NA, 999, 999, 7, 16, 188, 92, 98, 171, 185, 120, 2, 2.87567
19, 1, bw, attraction, a-b-db, 9, 3, 7, 17, 114, 186, 120, 195, 195, 120, 3, 1.8944
19, 1, bw, attraction, a-b-db, 9, 3, 7, 17, 114, 186, 120, 195, 195, 120, 1, 0.888838
19, 1, bw, filler, NA, 999, 999, 7, 18, 158, 188, 126, 166, 176, 171, 3, 6.28395
19, 1, bw, filler, NA, 999, 999, 7, 18, 158, 188, 126, 166, 176, 171, 2, 0.851951
19, 1, bw, filler, NA, 999, 999, 7, 19, 130, 140, 140, 76, 191, 126, 3, 2.08143
19, 1, bw, filler, NA, 999, 999, 7, 19, 130, 140, 140, 76, 191, 126, 2, 1.73386
19, 1, bw, attraction, a-b-da, 2, 3, 7, 20, 195, 120, 193, 119, 120, 195, 1, 10.0213
19, 1, bw, attraction, a-b-da, 2, 3, 7, 20, 195, 120, 193, 119, 120, 195, 2, 0.822974
19, 1, bw, filler, NA, 999, 999, 7, 21, 110, 175, 134, 132, 104, 130, 1, 2.3012
19, 1, bw, filler, NA, 999, 999, 7, 21, 110, 175, 134, 132, 104, 130, 3, 0.535204
19, 1, bw, attraction, a-b-db, 14, 3, 7, 22, 120, 195, 195, 120, 111, 181, 2, 1.40056
19, 1, bw, attraction, a-b-db, 14, 3, 7, 22, 120, 195, 195, 120, 111, 181, 3, 0.720528
19, 1, bw, filler, NA, 999, 999, 7, 23, 113, 189, 171, 180, 117, 191, 2, 1.34491
19, 1, bw, filler, NA, 999, 999, 7, 23, 113, 189, 171, 180, 117, 191, 1, 2.96924
19, 1, bw, attraction, a-b-da, 14, 3, 7, 24, 195, 120, 120, 195, 181, 111, 1, 53.5602
19, 1, bw, attraction, a-b-da, 14, 3, 7, 24, 195, 120, 120, 195, 181, 111, 3, 0.945315
19, 1, bw, attraction, a-b-da, 14, 1, 7, 25, 135, 60, 125, 56, 60, 135, 1, 3.4331
19, 1, bw, attraction, a-b-da, 14, 1, 7, 25, 135, 60, 125, 56, 60, 135, 2, 2.4791
19, 1, bw, filler, NA, 999, 999, 7, 26, 84, 169, 142, 164, 157, 70, 2, 3.39451
19, 1, bw, filler, NA, 999, 999, 7, 26, 84, 169, 142, 164, 157, 70, 3, 0.791563
19, 1, bw, attraction, a-b-db, 5, 2, 7, 27, 90, 165, 88, 161, 165, 90, 3, 2.80798
19, 1, bw, attraction, a-b-db, 5, 2, 7, 27, 90, 165, 88, 161, 165, 90, 2, 0.613638
19, 1, bw, attraction, a-b-da, 5, 1, 7, 28, 135, 60, 60, 135, 132, 58, 1, 1.97779
19, 1, bw, attraction, a-b-da, 5, 1, 7, 28, 135, 60, 60, 135, 132, 58, 2, 3.64884
19, 1, bw, attraction, a-b-da, 14, 2, 7, 29, 153, 83, 90, 165, 165, 90, 2, 1.82233
19, 1, bw, attraction, a-b-da, 14, 2, 7, 29, 153, 83, 90, 165, 165, 90, 1, 1.17055
19, 1, bw, attraction, a-b-da, 5, 2, 7, 30, 165, 90, 90, 165, 161, 88, 3, 4.35679
19, 1, bw, attraction, a-b-da, 5, 2, 7, 30, 165, 90, 90, 165, 161, 88, 2, 1.30612
19, 1, bw, filler, NA, 999, 999, 7, 31, 146, 85, 108, 126, 168, 167, 3, 1.91596
19, 1, bw, filler, NA, 999, 999, 7, 31, 146, 85, 108, 126, 168, 167, 2, 0.845937
19, 1, bw, attraction, a-b-db, 2, 3, 7, 32, 195, 120, 119, 193, 120, 195, 1, 1.54802
19, 1, bw, attraction, a-b-db, 2, 3, 7, 32, 195, 120, 119, 193, 120, 195, 3, 0.908658
19, 1, bw, catch, NA, 999, 999, 7, 33, 131, 64, 165, 150, 98, 157, 2, 1.32537
19, 1, bw, catch, NA, 999, 999, 7, 33, 131, 64, 165, 150, 98, 157, 1, 0.816158
19, 1, bw, attraction, a-b-da, 9, 1, 7, 34, 135, 60, 129, 57, 60, 135, 1, 4.87494
19, 1, bw, attraction, a-b-da, 9, 1, 7, 34, 135, 60, 129, 57, 60, 135, 3, 1.49703
19, 1, bw, filler, NA, 999, 999, 7, 35, 84, 158, 142, 106, 186, 110, 3, 1.58675
19, 1, bw, filler, NA, 999, 999, 7, 35, 84, 158, 142, 106, 186, 110, 1, 0.753545
19, 1, bw, attraction, a-b-db, 2, 1, 7, 36, 60, 135, 135, 60, 59, 134, 1, 5.1778
19, 1, bw, attraction, a-b-db, 2, 1, 7, 36, 60, 135, 135, 60, 59, 134, 2, 0.736734
19, 1, bw, attraction, a-b-da, 2, 1, 7, 37, 134, 59, 135, 60, 60, 135, 2, 1.79965
19, 1, bw, attraction, a-b-da, 2, 1, 7, 37, 134, 59, 135, 60, 60, 135, 3, 1.06403
19, 1, bw, attraction, a-b-da, 2, 3, 8, 1, 120, 195, 195, 120, 193, 119, 2, 3.32353
19, 1, bw, attraction, a-b-da, 2, 3, 8, 1, 120, 195, 195, 120, 193, 119, 1, 1.82109
19, 1, bw, attraction, a-b-db, 14, 3, 8, 2, 195, 120, 111, 181, 120, 195, 1, 2.70332
19, 1, bw, attraction, a-b-db, 14, 3, 8, 2, 195, 120, 111, 181, 120, 195, 2, 0.867655
19, 1, bw, filler, NA, 999, 999, 8, 3, 109, 124, 193, 193, 130, 148, 2, 1.13367
19, 1, bw, filler, NA, 999, 999, 8, 3, 109, 124, 193, 193, 130, 148, 1, 0.721881
19, 1, bw, attraction, a-b-db, 2, 1, 8, 4, 135, 60, 60, 135, 59, 134, 2, 4.32842
19, 1, bw, attraction, a-b-db, 2, 1, 8, 4, 135, 60, 60, 135, 59, 134, 3, 3.06718
19, 1, bw, attraction, a-b-db, 9, 2, 8, 5, 90, 165, 165, 90, 86, 157, 1, 1.73437
19, 1, bw, attraction, a-b-db, 9, 2, 8, 5, 90, 165, 165, 90, 86, 157, 3, 0.732766
19, 1, bw, attraction, a-b-da, 9, 3, 8, 6, 120, 195, 195, 120, 186, 114, 2, 1.57392
19, 1, bw, attraction, a-b-da, 9, 3, 8, 6, 120, 195, 195, 120, 186, 114, 3, 0.895902
19, 1, bw, filler, NA, 999, 999, 8, 7, 130, 190, 64, 137, 175, 180, 3, 1.5115
19, 1, bw, filler, NA, 999, 999, 8, 7, 130, 190, 64, 137, 175, 180, 2, 0.731926
19, 1, bw, attraction, a-b-da, 14, 2, 8, 8, 153, 83, 90, 165, 165, 90, 2, 1.84496
19, 1, bw, attraction, a-b-da, 14, 2, 8, 8, 153, 83, 90, 165, 165, 90, 1, 0.675234
19, 1, bw, attraction, a-b-da, 2, 1, 8, 9, 134, 59, 135, 60, 60, 135, 2, 4.22739
19, 1, bw, attraction, a-b-da, 2, 1, 8, 9, 134, 59, 135, 60, 60, 135, 1, 0.753803
19, 1, bw, attraction, a-b-da, 2, 2, 8, 10, 163, 89, 90, 165, 165, 90, 3, 3.00204
19, 1, bw, attraction, a-b-da, 2, 2, 8, 10, 163, 89, 90, 165, 165, 90, 2, 0.632533
19, 1, bw, attraction, a-b-db, 2, 2, 8, 11, 165, 90, 89, 163, 90, 165, 1, 1.70025
19, 1, bw, attraction, a-b-db, 2, 2, 8, 11, 165, 90, 89, 163, 90, 165, 2, 0.80009
19, 1, bw, attraction, a-b-da, 5, 2, 8, 12, 165, 90, 161, 88, 90, 165, 3, 7.197
19, 1, bw, attraction, a-b-da, 5, 2, 8, 12, 165, 90, 161, 88, 90, 165, 1, 1.29671
19, 1, bw, filler, NA, 999, 999, 8, 13, 181, 149, 58, 151, 119, 195, 1, 3.10117
19, 1, bw, filler, NA, 999, 999, 8, 13, 181, 149, 58, 151, 119, 195, 2, 0.735628
19, 1, bw, catch, NA, 999, 999, 8, 14, 110, 85, 168, 147, 155, 100, 2, 1.53581
19, 1, bw, catch, NA, 999, 999, 8, 14, 110, 85, 168, 147, 155, 100, 1, 1.28849
19, 1, bw, attraction, a-b-da, 5, 1, 8, 15, 60, 135, 135, 60, 132, 58, 2, 6.70677
19, 1, bw, attraction, a-b-da, 5, 1, 8, 15, 60, 135, 135, 60, 132, 58, 3, 1.54807
19, 1, bw, attraction, a-b-db, 14, 1, 8, 16, 60, 135, 135, 60, 56, 125, 1, 2.70864
19, 1, bw, attraction, a-b-db, 14, 1, 8, 16, 60, 135, 135, 60, 56, 125, 3, 0.836969
19, 1, bw, attraction, a-b-da, 5, 3, 8, 17, 195, 120, 120, 195, 190, 117, 1, 1.81722
19, 1, bw, attraction, a-b-da, 5, 3, 8, 17, 195, 120, 120, 195, 190, 117, 3, 0.682204
19, 1, bw, filler, NA, 999, 999, 8, 18, 108, 157, 67, 129, 168, 84, 1, 2.21149
19, 1, bw, filler, NA, 999, 999, 8, 18, 108, 157, 67, 129, 168, 84, 2, 0.600903
19, 1, bw, attraction, a-b-db, 5, 2, 8, 19, 165, 90, 88, 161, 90, 165, 2, 1.6557
19, 1, bw, attraction, a-b-db, 5, 2, 8, 19, 165, 90, 88, 161, 90, 165, 3, 0.749755
19, 1, bw, catch, NA, 999, 999, 8, 20, 100, 155, 179, 136, 100, 95, 2, 1.17293
19, 1, bw, catch, NA, 999, 999, 8, 20, 100, 155, 179, 136, 100, 95, 3, 0.716309
19, 1, bw, attraction, a-b-db, 5, 3, 8, 21, 195, 120, 120, 195, 117, 190, 2, 4.3358
19, 1, bw, attraction, a-b-db, 5, 3, 8, 21, 195, 120, 120, 195, 117, 190, 3, 0.606844
19, 1, bw, filler, NA, 999, 999, 8, 22, 64, 166, 142, 130, 158, 136, 3, 4.63642
19, 1, bw, filler, NA, 999, 999, 8, 22, 64, 166, 142, 130, 158, 136, 1, 0.833671
19, 1, bw, filler, NA, 999, 999, 8, 23, 56, 89, 76, 128, 119, 171, 3, 1.30873
19, 1, bw, filler, NA, 999, 999, 8, 23, 56, 89, 76, 128, 119, 171, 1, 0.713813
19, 1, bw, attraction, a-b-da, 9, 2, 8, 24, 90, 165, 157, 86, 165, 90, 3, 5.95361
19, 1, bw, attraction, a-b-da, 9, 2, 8, 24, 90, 165, 157, 86, 165, 90, 2, 0.673101
19, 1, bw, filler, NA, 999, 999, 8, 25, 73, 103, 105, 116, 135, 145, 3, 1.52397
19, 1, bw, filler, NA, 999, 999, 8, 25, 73, 103, 105, 116, 135, 145, 1, 0.662901
19, 1, bw, catch, NA, 999, 999, 8, 26, 115, 80, 127, 128, 190, 125, 2, 2.40864
19, 1, bw, catch, NA, 999, 999, 8, 26, 115, 80, 127, 128, 190, 125, 1, 3.32674
19, 1, bw, filler, NA, 999, 999, 8, 27, 151, 100, 122, 87, 169, 188, 3, 1.64247
19, 1, bw, filler, NA, 999, 999, 8, 27, 151, 100, 122, 87, 169, 188, 2, 0.680141
19, 1, bw, filler, NA, 999, 999, 8, 28, 148, 148, 91, 159, 96, 171, 1, 1.45673
19, 1, bw, filler, NA, 999, 999, 8, 28, 148, 148, 91, 159, 96, 171, 3, 0.719604
19, 1, bw, attraction, a-b-db, 2, 3, 8, 29, 119, 193, 195, 120, 120, 195, 2, 3.67195
19, 1, bw, attraction, a-b-db, 2, 3, 8, 29, 119, 193, 195, 120, 120, 195, 3, 0.668627
19, 1, bw, attraction, a-b-db, 9, 3, 8, 30, 195, 120, 120, 195, 114, 186, 1, 1.75975
19, 1, bw, attraction, a-b-db, 9, 3, 8, 30, 195, 120, 120, 195, 114, 186, 3, 0.885035
19, 1, bw, attraction, a-b-db, 5, 1, 8, 31, 60, 135, 135, 60, 58, 132, 1, 1.75941
19, 1, bw, attraction, a-b-db, 5, 1, 8, 31, 60, 135, 135, 60, 58, 132, 3, 0.94486
19, 1, bw, attraction, a-b-da, 14, 3, 8, 32, 120, 195, 195, 120, 181, 111, 2, 3.33708
19, 1, bw, attraction, a-b-da, 14, 3, 8, 32, 120, 195, 195, 120, 181, 111, 1, 0.785782
19, 1, bw, attraction, a-b-db, 9, 1, 8, 33, 135, 60, 57, 129, 60, 135, 3, 2.85552
19, 1, bw, attraction, a-b-db, 9, 1, 8, 33, 135, 60, 57, 129, 60, 135, 2, 1.213
19, 1, bw, attraction, a-b-db, 14, 2, 8, 34, 83, 153, 165, 90, 90, 165, 3, 15.2273
19, 1, bw, attraction, a-b-db, 14, 2, 8, 34, 83, 153, 165, 90, 90, 165, 1, 0.692759
19, 1, bw, attraction, a-b-da, 9, 1, 8, 35, 135, 60, 129, 57, 60, 135, 1, 4.84799
19, 1, bw, attraction, a-b-da, 9, 1, 8, 35, 135, 60, 129, 57, 60, 135, 3, 0.636437
19, 1, bw, attraction, a-b-da, 14, 1, 8, 36, 135, 60, 125, 56, 60, 135, 3, 2.48823
19, 1, bw, attraction, a-b-da, 14, 1, 8, 36, 135, 60, 125, 56, 60, 135, 2, 0.604546
19, 1, bw, filler, NA, 999, 999, 8, 37, 171, 195, 169, 111, 172, 136, 1, 1.43215
19, 1, bw, filler, NA, 999, 999, 8, 37, 171, 195, 169, 111, 172, 136, 2, 0.910814
