sub_n, computer_n, bw_cond, effect, set, distance, diag, block_n, trial_n, h1, w1, h2, w2, h3, w3, choice, rt 
133, 1, bw, practice, NA, 999, 999, 0, 1, 91, 175, 161, 167, 120, 170, 2, 10.8266
133, 1, bw, practice, NA, 999, 999, 0, 1, 91, 175, 161, 167, 120, 170, 1, 9.22973
133, 1, bw, practice, NA, 999, 999, 0, 2, 100, 58, 139, 90, 93, 59, 2, 3.93355
133, 1, bw, practice, NA, 999, 999, 0, 2, 100, 58, 139, 90, 93, 59, 1, 15.1505
133, 1, bw, practice, NA, 999, 999, 0, 3, 76, 148, 124, 103, 88, 139, 2, 16.941
133, 1, bw, practice, NA, 999, 999, 0, 3, 76, 148, 124, 103, 88, 139, 3, 5.23427
133, 1, bw, attraction, a-b-da, 9, 1, 1, 1, 129, 57, 60, 135, 135, 60, 3, 10.5923
133, 1, bw, attraction, a-b-da, 9, 1, 1, 1, 129, 57, 60, 135, 135, 60, 1, 4.69225
133, 1, bw, filler, NA, 999, 999, 1, 2, 150, 105, 189, 157, 172, 176, 3, 6.14881
133, 1, bw, filler, NA, 999, 999, 1, 2, 150, 105, 189, 157, 172, 176, 1, 1.78806
133, 1, bw, attraction, a-b-db, 2, 3, 1, 3, 195, 120, 120, 195, 119, 193, 2, 14.7302
133, 1, bw, attraction, a-b-db, 2, 3, 1, 3, 195, 120, 120, 195, 119, 193, 1, 3.03964
133, 1, bw, filler, NA, 999, 999, 1, 4, 189, 77, 71, 74, 65, 188, 1, 5.61934
133, 1, bw, filler, NA, 999, 999, 1, 4, 189, 77, 71, 74, 65, 188, 2, 1.64829
133, 1, bw, attraction, a-b-db, 14, 1, 1, 5, 135, 60, 60, 135, 56, 125, 2, 8.50762
133, 1, bw, attraction, a-b-db, 14, 1, 1, 5, 135, 60, 60, 135, 56, 125, 3, 3.53162
133, 1, bw, filler, NA, 999, 999, 1, 6, 87, 74, 150, 142, 68, 140, 2, 1.65101
133, 1, bw, filler, NA, 999, 999, 1, 6, 87, 74, 150, 142, 68, 140, 1, 1.1278
133, 1, bw, attraction, a-b-da, 5, 3, 1, 7, 190, 117, 120, 195, 195, 120, 2, 4.22404
133, 1, bw, attraction, a-b-da, 5, 3, 1, 7, 190, 117, 120, 195, 195, 120, 1, 3.63686
133, 1, bw, attraction, a-b-db, 5, 1, 1, 8, 60, 135, 58, 132, 135, 60, 3, 9.78422
133, 1, bw, attraction, a-b-db, 5, 1, 1, 8, 60, 135, 58, 132, 135, 60, 2, 1.40512
133, 1, bw, attraction, a-b-db, 5, 3, 1, 9, 120, 195, 117, 190, 195, 120, 1, 8.22668
133, 1, bw, attraction, a-b-db, 5, 3, 1, 9, 120, 195, 117, 190, 195, 120, 2, 2.48599
133, 1, bw, filler, NA, 999, 999, 1, 10, 77, 57, 131, 115, 130, 124, 3, 1.86383
133, 1, bw, filler, NA, 999, 999, 1, 10, 77, 57, 131, 115, 130, 124, 1, 1.45988
133, 1, bw, catch, NA, 999, 999, 1, 11, 173, 142, 113, 82, 131, 124, 1, 1.40674
133, 1, bw, catch, NA, 999, 999, 1, 11, 173, 142, 113, 82, 131, 124, 2, 0.813039
133, 1, bw, attraction, a-b-db, 9, 1, 1, 12, 135, 60, 57, 129, 60, 135, 1, 8.34593
133, 1, bw, attraction, a-b-db, 9, 1, 1, 12, 135, 60, 57, 129, 60, 135, 2, 1.29661
133, 1, bw, attraction, a-b-db, 14, 2, 1, 13, 83, 153, 90, 165, 165, 90, 2, 2.24223
133, 1, bw, attraction, a-b-db, 14, 2, 1, 13, 83, 153, 90, 165, 165, 90, 1, 0.79872
133, 1, bw, filler, NA, 999, 999, 1, 14, 82, 73, 171, 101, 175, 58, 2, 2.77249
133, 1, bw, filler, NA, 999, 999, 1, 14, 82, 73, 171, 101, 175, 58, 1, 0.771644
133, 1, bw, attraction, a-b-db, 9, 2, 1, 15, 90, 165, 86, 157, 165, 90, 3, 6.82684
133, 1, bw, attraction, a-b-db, 9, 2, 1, 15, 90, 165, 86, 157, 165, 90, 2, 0.998587
133, 1, bw, filler, NA, 999, 999, 1, 16, 145, 146, 195, 121, 183, 120, 2, 2.82002
133, 1, bw, filler, NA, 999, 999, 1, 16, 145, 146, 195, 121, 183, 120, 1, 0.713811
133, 1, bw, attraction, a-b-db, 5, 2, 1, 17, 165, 90, 90, 165, 88, 161, 2, 5.27489
133, 1, bw, attraction, a-b-db, 5, 2, 1, 17, 165, 90, 90, 165, 88, 161, 3, 3.72521
133, 1, bw, filler, NA, 999, 999, 1, 18, 81, 63, 69, 89, 153, 103, 3, 1.34862
133, 1, bw, filler, NA, 999, 999, 1, 18, 81, 63, 69, 89, 153, 103, 1, 0.973529
133, 1, bw, attraction, a-b-da, 5, 1, 1, 19, 135, 60, 132, 58, 60, 135, 2, 2.17188
133, 1, bw, attraction, a-b-da, 5, 1, 1, 19, 135, 60, 132, 58, 60, 135, 1, 1.1078
133, 1, bw, filler, NA, 999, 999, 1, 20, 89, 190, 90, 106, 160, 158, 3, 2.77266
133, 1, bw, filler, NA, 999, 999, 1, 20, 89, 190, 90, 106, 160, 158, 2, 0.69994
133, 1, bw, attraction, a-b-da, 14, 2, 1, 21, 153, 83, 90, 165, 165, 90, 2, 5.7575
133, 1, bw, attraction, a-b-da, 14, 2, 1, 21, 153, 83, 90, 165, 165, 90, 1, 2.81234
133, 1, bw, attraction, a-b-db, 2, 2, 1, 22, 165, 90, 89, 163, 90, 165, 3, 2.16902
133, 1, bw, attraction, a-b-db, 2, 2, 1, 22, 165, 90, 89, 163, 90, 165, 1, 1.36872
133, 1, bw, attraction, a-b-da, 14, 1, 1, 23, 135, 60, 125, 56, 60, 135, 3, 3.03958
133, 1, bw, attraction, a-b-da, 14, 1, 1, 23, 135, 60, 125, 56, 60, 135, 2, 0.747995
133, 1, bw, attraction, a-b-da, 14, 3, 1, 24, 195, 120, 181, 111, 120, 195, 3, 4.73964
133, 1, bw, attraction, a-b-da, 14, 3, 1, 24, 195, 120, 181, 111, 120, 195, 2, 1.13152
133, 1, bw, filler, NA, 999, 999, 1, 25, 57, 113, 103, 130, 112, 118, 1, 2.07574
133, 1, bw, filler, NA, 999, 999, 1, 25, 57, 113, 103, 130, 112, 118, 2, 1.69502
133, 1, bw, attraction, a-b-da, 2, 1, 1, 26, 135, 60, 134, 59, 60, 135, 2, 6.1846
133, 1, bw, attraction, a-b-da, 2, 1, 1, 26, 135, 60, 134, 59, 60, 135, 1, 1.33453
133, 1, bw, attraction, a-b-da, 5, 2, 1, 27, 90, 165, 165, 90, 161, 88, 1, 3.39862
133, 1, bw, attraction, a-b-da, 5, 2, 1, 27, 90, 165, 165, 90, 161, 88, 3, 1.93288
133, 1, bw, attraction, a-b-db, 14, 3, 1, 28, 120, 195, 195, 120, 111, 181, 1, 5.35699
133, 1, bw, attraction, a-b-db, 14, 3, 1, 28, 120, 195, 195, 120, 111, 181, 3, 1.09996
133, 1, bw, filler, NA, 999, 999, 1, 29, 153, 102, 96, 145, 150, 180, 3, 1.53348
133, 1, bw, filler, NA, 999, 999, 1, 29, 153, 102, 96, 145, 150, 180, 2, 0.871137
133, 1, bw, attraction, a-b-da, 2, 2, 1, 30, 90, 165, 163, 89, 165, 90, 1, 6.1621
133, 1, bw, attraction, a-b-da, 2, 2, 1, 30, 90, 165, 163, 89, 165, 90, 2, 1.81672
133, 1, bw, attraction, a-b-da, 2, 3, 1, 31, 193, 119, 120, 195, 195, 120, 2, 2.00556
133, 1, bw, attraction, a-b-da, 2, 3, 1, 31, 193, 119, 120, 195, 195, 120, 1, 1.37147
133, 1, bw, attraction, a-b-db, 2, 1, 1, 32, 135, 60, 60, 135, 59, 134, 3, 1.81844
133, 1, bw, attraction, a-b-db, 2, 1, 1, 32, 135, 60, 60, 135, 59, 134, 1, 2.55252
133, 1, bw, attraction, a-b-db, 9, 3, 1, 33, 114, 186, 195, 120, 120, 195, 2, 4.17558
133, 1, bw, attraction, a-b-db, 9, 3, 1, 33, 114, 186, 195, 120, 120, 195, 3, 1.28634
133, 1, bw, catch, NA, 999, 999, 1, 34, 177, 138, 130, 125, 121, 74, 1, 4.18438
133, 1, bw, catch, NA, 999, 999, 1, 34, 177, 138, 130, 125, 121, 74, 3, 3.51909
133, 1, bw, attraction, a-b-da, 9, 3, 1, 35, 186, 114, 120, 195, 195, 120, 2, 3.23124
133, 1, bw, attraction, a-b-da, 9, 3, 1, 35, 186, 114, 120, 195, 195, 120, 1, 0.956189
133, 1, bw, catch, NA, 999, 999, 1, 36, 105, 150, 128, 67, 184, 131, 3, 4.93976
133, 1, bw, catch, NA, 999, 999, 1, 36, 105, 150, 128, 67, 184, 131, 2, 0.907664
133, 1, bw, attraction, a-b-da, 9, 2, 1, 37, 165, 90, 90, 165, 157, 86, 2, 7.01255
133, 1, bw, attraction, a-b-da, 9, 2, 1, 37, 165, 90, 90, 165, 157, 86, 3, 0.873029
133, 1, bw, attraction, a-b-da, 5, 2, 2, 1, 165, 90, 161, 88, 90, 165, 1, 3.34812
133, 1, bw, attraction, a-b-da, 5, 2, 2, 1, 165, 90, 161, 88, 90, 165, 2, 1.17226
133, 1, bw, attraction, a-b-db, 2, 1, 2, 2, 60, 135, 59, 134, 135, 60, 1, 1.86721
133, 1, bw, attraction, a-b-db, 2, 1, 2, 2, 60, 135, 59, 134, 135, 60, 3, 0.951341
133, 1, bw, attraction, a-b-da, 5, 3, 2, 3, 120, 195, 195, 120, 190, 117, 1, 4.93484
133, 1, bw, attraction, a-b-da, 5, 3, 2, 3, 120, 195, 195, 120, 190, 117, 3, 1.15935
133, 1, bw, attraction, a-b-db, 14, 2, 2, 4, 165, 90, 90, 165, 83, 153, 2, 3.13429
133, 1, bw, attraction, a-b-db, 14, 2, 2, 4, 165, 90, 90, 165, 83, 153, 3, 3.03139
133, 1, bw, filler, NA, 999, 999, 2, 5, 95, 128, 130, 137, 195, 192, 3, 1.43496
133, 1, bw, filler, NA, 999, 999, 2, 5, 95, 128, 130, 137, 195, 192, 1, 1.04044
133, 1, bw, attraction, a-b-da, 2, 1, 2, 6, 135, 60, 60, 135, 134, 59, 1, 3.91619
133, 1, bw, attraction, a-b-da, 2, 1, 2, 6, 135, 60, 60, 135, 134, 59, 3, 1.32544
133, 1, bw, filler, NA, 999, 999, 2, 7, 75, 171, 122, 93, 172, 170, 3, 1.34176
133, 1, bw, filler, NA, 999, 999, 2, 7, 75, 171, 122, 93, 172, 170, 2, 0.646633
133, 1, bw, attraction, a-b-da, 14, 3, 2, 8, 195, 120, 181, 111, 120, 195, 1, 6.37836
133, 1, bw, attraction, a-b-da, 14, 3, 2, 8, 195, 120, 181, 111, 120, 195, 2, 0.824245
133, 1, bw, attraction, a-b-da, 2, 3, 2, 9, 193, 119, 120, 195, 195, 120, 2, 3.28468
133, 1, bw, attraction, a-b-da, 2, 3, 2, 9, 193, 119, 120, 195, 195, 120, 3, 1.86359
133, 1, bw, attraction, a-b-db, 9, 3, 2, 10, 195, 120, 120, 195, 114, 186, 1, 7.61827
133, 1, bw, attraction, a-b-db, 9, 3, 2, 10, 195, 120, 120, 195, 114, 186, 3, 0.854558
133, 1, bw, attraction, a-b-db, 9, 2, 2, 11, 165, 90, 90, 165, 86, 157, 2, 2.97831
133, 1, bw, attraction, a-b-db, 9, 2, 2, 11, 165, 90, 90, 165, 86, 157, 1, 0.537265
133, 1, bw, filler, NA, 999, 999, 2, 12, 186, 124, 104, 81, 192, 94, 1, 2.28169
133, 1, bw, filler, NA, 999, 999, 2, 12, 186, 124, 104, 81, 192, 94, 2, 1.22096
133, 1, bw, attraction, a-b-da, 9, 2, 2, 13, 90, 165, 157, 86, 165, 90, 1, 4.40982
133, 1, bw, attraction, a-b-da, 9, 2, 2, 13, 90, 165, 157, 86, 165, 90, 2, 0.743098
133, 1, bw, attraction, a-b-db, 2, 2, 2, 14, 90, 165, 165, 90, 89, 163, 1, 2.81481
133, 1, bw, attraction, a-b-db, 2, 2, 2, 14, 90, 165, 165, 90, 89, 163, 2, 0.548577
133, 1, bw, attraction, a-b-db, 14, 3, 2, 15, 111, 181, 195, 120, 120, 195, 1, 3.48441
133, 1, bw, attraction, a-b-db, 14, 3, 2, 15, 111, 181, 195, 120, 120, 195, 2, 0.887329
133, 1, bw, catch, NA, 999, 999, 2, 16, 146, 109, 72, 123, 177, 138, 3, 2.27348
133, 1, bw, catch, NA, 999, 999, 2, 16, 146, 109, 72, 123, 177, 138, 2, 0.932853
133, 1, bw, catch, NA, 999, 999, 2, 17, 94, 101, 95, 160, 137, 178, 3, 1.04515
133, 1, bw, catch, NA, 999, 999, 2, 17, 94, 101, 95, 160, 137, 178, 1, 0.962254
133, 1, bw, attraction, a-b-da, 14, 2, 2, 18, 90, 165, 165, 90, 153, 83, 1, 1.84112
133, 1, bw, attraction, a-b-da, 14, 2, 2, 18, 90, 165, 165, 90, 153, 83, 3, 0.669961
133, 1, bw, attraction, a-b-db, 9, 1, 2, 19, 135, 60, 60, 135, 57, 129, 1, 6.44888
133, 1, bw, attraction, a-b-db, 9, 1, 2, 19, 135, 60, 60, 135, 57, 129, 3, 0.916252
133, 1, bw, filler, NA, 999, 999, 2, 20, 89, 151, 92, 181, 161, 156, 3, 1.16526
133, 1, bw, filler, NA, 999, 999, 2, 20, 89, 151, 92, 181, 161, 156, 1, 1.58957
133, 1, bw, attraction, a-b-db, 5, 3, 2, 21, 117, 190, 120, 195, 195, 120, 2, 2.97972
133, 1, bw, attraction, a-b-db, 5, 3, 2, 21, 117, 190, 120, 195, 195, 120, 3, 2.42672
133, 1, bw, attraction, a-b-da, 9, 3, 2, 22, 195, 120, 186, 114, 120, 195, 1, 7.99047
133, 1, bw, attraction, a-b-da, 9, 3, 2, 22, 195, 120, 186, 114, 120, 195, 3, 0.955384
133, 1, bw, attraction, a-b-db, 5, 2, 2, 23, 88, 161, 90, 165, 165, 90, 1, 3.64299
133, 1, bw, attraction, a-b-db, 5, 2, 2, 23, 88, 161, 90, 165, 165, 90, 3, 0.631135
133, 1, bw, attraction, a-b-da, 2, 2, 2, 24, 90, 165, 163, 89, 165, 90, 1, 2.13949
133, 1, bw, attraction, a-b-da, 2, 2, 2, 24, 90, 165, 163, 89, 165, 90, 3, 0.908143
133, 1, bw, filler, NA, 999, 999, 2, 25, 148, 194, 134, 189, 82, 151, 1, 2.22924
133, 1, bw, filler, NA, 999, 999, 2, 25, 148, 194, 134, 189, 82, 151, 3, 0.914354
133, 1, bw, filler, NA, 999, 999, 2, 26, 183, 158, 128, 128, 131, 195, 1, 1.82739
133, 1, bw, filler, NA, 999, 999, 2, 26, 183, 158, 128, 128, 131, 195, 2, 0.632876
133, 1, bw, attraction, a-b-da, 5, 1, 2, 27, 135, 60, 60, 135, 132, 58, 1, 5.08513
133, 1, bw, attraction, a-b-da, 5, 1, 2, 27, 135, 60, 60, 135, 132, 58, 3, 0.75157
133, 1, bw, attraction, a-b-da, 14, 1, 2, 28, 135, 60, 125, 56, 60, 135, 3, 4.00728
133, 1, bw, attraction, a-b-da, 14, 1, 2, 28, 135, 60, 125, 56, 60, 135, 1, 0.860721
133, 1, bw, attraction, a-b-db, 14, 1, 2, 29, 56, 125, 135, 60, 60, 135, 2, 3.34377
133, 1, bw, attraction, a-b-db, 14, 1, 2, 29, 56, 125, 135, 60, 60, 135, 3, 1.11197
133, 1, bw, filler, NA, 999, 999, 2, 30, 94, 82, 90, 153, 132, 142, 3, 1.19292
133, 1, bw, filler, NA, 999, 999, 2, 30, 94, 82, 90, 153, 132, 142, 1, 0.703967
133, 1, bw, catch, NA, 999, 999, 2, 31, 161, 94, 110, 85, 159, 156, 3, 1.41767
133, 1, bw, catch, NA, 999, 999, 2, 31, 161, 94, 110, 85, 159, 156, 2, 0.767734
133, 1, bw, attraction, a-b-db, 2, 3, 2, 32, 119, 193, 120, 195, 195, 120, 2, 3.61474
133, 1, bw, attraction, a-b-db, 2, 3, 2, 32, 119, 193, 120, 195, 195, 120, 1, 1.2923
133, 1, bw, filler, NA, 999, 999, 2, 33, 190, 171, 128, 112, 108, 80, 1, 1.88578
133, 1, bw, filler, NA, 999, 999, 2, 33, 190, 171, 128, 112, 108, 80, 3, 0.825265
133, 1, bw, filler, NA, 999, 999, 2, 34, 56, 110, 61, 173, 89, 173, 3, 1.66153
133, 1, bw, filler, NA, 999, 999, 2, 34, 56, 110, 61, 173, 89, 173, 1, 0.817726
133, 1, bw, attraction, a-b-da, 9, 1, 2, 35, 129, 57, 60, 135, 135, 60, 3, 8.67879
133, 1, bw, attraction, a-b-da, 9, 1, 2, 35, 129, 57, 60, 135, 135, 60, 2, 1.08004
133, 1, bw, filler, NA, 999, 999, 2, 36, 117, 114, 177, 120, 96, 169, 2, 1.75416
133, 1, bw, filler, NA, 999, 999, 2, 36, 117, 114, 177, 120, 96, 169, 1, 0.827026
133, 1, bw, attraction, a-b-db, 5, 1, 2, 37, 58, 132, 60, 135, 135, 60, 3, 2.4474
133, 1, bw, attraction, a-b-db, 5, 1, 2, 37, 58, 132, 60, 135, 135, 60, 1, 1.28389
133, 1, bw, attraction, a-b-da, 9, 2, 3, 1, 165, 90, 90, 165, 157, 86, 2, 2.4462
133, 1, bw, attraction, a-b-da, 9, 2, 3, 1, 165, 90, 90, 165, 157, 86, 3, 0.698666
133, 1, bw, attraction, a-b-db, 14, 2, 3, 2, 90, 165, 83, 153, 165, 90, 1, 2.10835
133, 1, bw, attraction, a-b-db, 14, 2, 3, 2, 90, 165, 83, 153, 165, 90, 2, 0.582311
133, 1, bw, filler, NA, 999, 999, 3, 3, 118, 189, 138, 177, 134, 77, 2, 4.70879
133, 1, bw, filler, NA, 999, 999, 3, 3, 118, 189, 138, 177, 134, 77, 3, 0.805854
133, 1, bw, attraction, a-b-da, 5, 1, 3, 4, 135, 60, 132, 58, 60, 135, 2, 7.89972
133, 1, bw, attraction, a-b-da, 5, 1, 3, 4, 135, 60, 132, 58, 60, 135, 3, 1.49243
133, 1, bw, attraction, a-b-da, 14, 2, 3, 5, 165, 90, 153, 83, 90, 165, 1, 1.19797
133, 1, bw, attraction, a-b-da, 14, 2, 3, 5, 165, 90, 153, 83, 90, 165, 2, 2.069
133, 1, bw, attraction, a-b-db, 2, 3, 3, 6, 195, 120, 119, 193, 120, 195, 1, 1.87952
133, 1, bw, attraction, a-b-db, 2, 3, 3, 6, 195, 120, 119, 193, 120, 195, 3, 1.13087
133, 1, bw, attraction, a-b-da, 14, 3, 3, 7, 120, 195, 181, 111, 195, 120, 3, 2.3712
133, 1, bw, attraction, a-b-da, 14, 3, 3, 7, 120, 195, 181, 111, 195, 120, 1, 0.763133
133, 1, bw, filler, NA, 999, 999, 3, 8, 141, 179, 147, 58, 147, 100, 1, 3.84212
133, 1, bw, filler, NA, 999, 999, 3, 8, 141, 179, 147, 58, 147, 100, 3, 0.694179
133, 1, bw, filler, NA, 999, 999, 3, 9, 66, 67, 150, 72, 61, 144, 2, 5.7839
133, 1, bw, filler, NA, 999, 999, 3, 9, 66, 67, 150, 72, 61, 144, 1, 0.830233
133, 1, bw, attraction, a-b-da, 9, 1, 3, 10, 60, 135, 135, 60, 129, 57, 2, 8.42648
133, 1, bw, attraction, a-b-da, 9, 1, 3, 10, 60, 135, 135, 60, 129, 57, 3, 0.709837
133, 1, bw, attraction, a-b-da, 9, 3, 3, 11, 120, 195, 186, 114, 195, 120, 3, 8.59895
133, 1, bw, attraction, a-b-da, 9, 3, 3, 11, 120, 195, 186, 114, 195, 120, 2, 1.57941
133, 1, bw, attraction, a-b-da, 2, 2, 3, 12, 90, 165, 163, 89, 165, 90, 2, 3.48164
133, 1, bw, attraction, a-b-da, 2, 2, 3, 12, 90, 165, 163, 89, 165, 90, 1, 2.20433
133, 1, bw, attraction, a-b-db, 9, 3, 3, 13, 114, 186, 195, 120, 120, 195, 2, 5.20968
133, 1, bw, attraction, a-b-db, 9, 3, 3, 13, 114, 186, 195, 120, 120, 195, 1, 0.81471
133, 1, bw, attraction, a-b-da, 5, 3, 3, 14, 190, 117, 120, 195, 195, 120, 2, 5.00371
133, 1, bw, attraction, a-b-da, 5, 3, 3, 14, 190, 117, 120, 195, 195, 120, 1, 1.71348
133, 1, bw, attraction, a-b-db, 5, 1, 3, 15, 60, 135, 58, 132, 135, 60, 1, 3.57833
133, 1, bw, attraction, a-b-db, 5, 1, 3, 15, 60, 135, 58, 132, 135, 60, 2, 1.50509
133, 1, bw, filler, NA, 999, 999, 3, 16, 147, 89, 133, 131, 123, 140, 3, 3.67455
133, 1, bw, filler, NA, 999, 999, 3, 16, 147, 89, 133, 131, 123, 140, 1, 1.66945
133, 1, bw, attraction, a-b-db, 9, 1, 3, 17, 60, 135, 57, 129, 135, 60, 3, 2.1841
133, 1, bw, attraction, a-b-db, 9, 1, 3, 17, 60, 135, 57, 129, 135, 60, 1, 0.919343
133, 1, bw, attraction, a-b-db, 5, 2, 3, 18, 88, 161, 165, 90, 90, 165, 2, 2.16035
133, 1, bw, attraction, a-b-db, 5, 2, 3, 18, 88, 161, 165, 90, 90, 165, 1, 0.952345
133, 1, bw, attraction, a-b-db, 14, 3, 3, 19, 195, 120, 111, 181, 120, 195, 1, 3.66407
133, 1, bw, attraction, a-b-db, 14, 3, 3, 19, 195, 120, 111, 181, 120, 195, 3, 0.939633
133, 1, bw, attraction, a-b-da, 2, 1, 3, 20, 60, 135, 134, 59, 135, 60, 3, 3.76387
133, 1, bw, attraction, a-b-da, 2, 1, 3, 20, 60, 135, 134, 59, 135, 60, 1, 0.619241
133, 1, bw, filler, NA, 999, 999, 3, 21, 175, 122, 174, 76, 121, 61, 2, 2.6565
133, 1, bw, filler, NA, 999, 999, 3, 21, 175, 122, 174, 76, 121, 61, 1, 0.908222
133, 1, bw, attraction, a-b-db, 14, 1, 3, 22, 60, 135, 56, 125, 135, 60, 2, 3.11707
133, 1, bw, attraction, a-b-db, 14, 1, 3, 22, 60, 135, 56, 125, 135, 60, 1, 0.838756
133, 1, bw, attraction, a-b-da, 2, 3, 3, 23, 120, 195, 193, 119, 195, 120, 2, 2.45914
133, 1, bw, attraction, a-b-da, 2, 3, 3, 23, 120, 195, 193, 119, 195, 120, 1, 1.10301
133, 1, bw, attraction, a-b-db, 2, 1, 3, 24, 135, 60, 60, 135, 59, 134, 1, 2.52069
133, 1, bw, attraction, a-b-db, 2, 1, 3, 24, 135, 60, 60, 135, 59, 134, 2, 0.802608
133, 1, bw, filler, NA, 999, 999, 3, 25, 132, 131, 79, 156, 108, 120, 1, 1.53616
133, 1, bw, filler, NA, 999, 999, 3, 25, 132, 131, 79, 156, 108, 120, 3, 2.00973
133, 1, bw, filler, NA, 999, 999, 3, 26, 189, 123, 173, 189, 113, 145, 2, 1.46232
133, 1, bw, filler, NA, 999, 999, 3, 26, 189, 123, 173, 189, 113, 145, 3, 0.954501
133, 1, bw, attraction, a-b-db, 9, 2, 3, 27, 86, 157, 165, 90, 90, 165, 3, 2.33015
133, 1, bw, attraction, a-b-db, 9, 2, 3, 27, 86, 157, 165, 90, 90, 165, 1, 0.611333
133, 1, bw, attraction, a-b-db, 5, 3, 3, 28, 117, 190, 195, 120, 120, 195, 2, 1.79241
133, 1, bw, attraction, a-b-db, 5, 3, 3, 28, 117, 190, 195, 120, 120, 195, 1, 0.823151
133, 1, bw, filler, NA, 999, 999, 3, 29, 134, 92, 87, 64, 162, 137, 3, 1.39626
133, 1, bw, filler, NA, 999, 999, 3, 29, 134, 92, 87, 64, 162, 137, 1, 1.18714
133, 1, bw, catch, NA, 999, 999, 3, 30, 175, 140, 93, 162, 111, 84, 1, 1.92136
133, 1, bw, catch, NA, 999, 999, 3, 30, 175, 140, 93, 162, 111, 84, 3, 1.05131
133, 1, bw, filler, NA, 999, 999, 3, 31, 174, 68, 161, 156, 86, 182, 2, 2.38291
133, 1, bw, filler, NA, 999, 999, 3, 31, 174, 68, 161, 156, 86, 182, 3, 3.55027
133, 1, bw, catch, NA, 999, 999, 3, 32, 148, 167, 100, 95, 101, 154, 1, 1.02905
133, 1, bw, catch, NA, 999, 999, 3, 32, 148, 167, 100, 95, 101, 154, 3, 0.914737
133, 1, bw, attraction, a-b-da, 5, 2, 3, 33, 165, 90, 161, 88, 90, 165, 3, 5.24372
133, 1, bw, attraction, a-b-da, 5, 2, 3, 33, 165, 90, 161, 88, 90, 165, 1, 1.15934
133, 1, bw, filler, NA, 999, 999, 3, 34, 189, 67, 107, 167, 139, 94, 2, 1.87026
133, 1, bw, filler, NA, 999, 999, 3, 34, 189, 67, 107, 167, 139, 94, 3, 0.882348
133, 1, bw, attraction, a-b-db, 2, 2, 3, 35, 165, 90, 89, 163, 90, 165, 3, 2.36476
133, 1, bw, attraction, a-b-db, 2, 2, 3, 35, 165, 90, 89, 163, 90, 165, 1, 0.788995
133, 1, bw, attraction, a-b-da, 14, 1, 3, 36, 125, 56, 135, 60, 60, 135, 2, 4.73093
133, 1, bw, attraction, a-b-da, 14, 1, 3, 36, 125, 56, 135, 60, 60, 135, 1, 0.787424
133, 1, bw, catch, NA, 999, 999, 3, 37, 73, 122, 136, 119, 120, 195, 3, 8.65786
133, 1, bw, catch, NA, 999, 999, 3, 37, 73, 122, 136, 119, 120, 195, 1, 1.04381
133, 1, bw, attraction, a-b-da, 9, 1, 4, 1, 135, 60, 60, 135, 129, 57, 3, 4.09534
133, 1, bw, attraction, a-b-da, 9, 1, 4, 1, 135, 60, 60, 135, 129, 57, 2, 1.55336
133, 1, bw, catch, NA, 999, 999, 4, 2, 90, 105, 94, 161, 135, 180, 3, 1.96086
133, 1, bw, catch, NA, 999, 999, 4, 2, 90, 105, 94, 161, 135, 180, 1, 2.20082
133, 1, bw, attraction, a-b-da, 14, 2, 4, 3, 90, 165, 165, 90, 153, 83, 1, 2.0461
133, 1, bw, attraction, a-b-da, 14, 2, 4, 3, 90, 165, 165, 90, 153, 83, 3, 0.938863
133, 1, bw, attraction, a-b-db, 2, 2, 4, 4, 165, 90, 90, 165, 89, 163, 2, 2.23512
133, 1, bw, attraction, a-b-db, 2, 2, 4, 4, 165, 90, 90, 165, 89, 163, 3, 1.74441
133, 1, bw, filler, NA, 999, 999, 4, 5, 174, 173, 180, 127, 124, 195, 1, 1.43975
133, 1, bw, filler, NA, 999, 999, 4, 5, 174, 173, 180, 127, 124, 195, 3, 5.82066
133, 1, bw, attraction, a-b-db, 9, 1, 4, 6, 57, 129, 60, 135, 135, 60, 3, 4.66408
133, 1, bw, attraction, a-b-db, 9, 1, 4, 6, 57, 129, 60, 135, 135, 60, 1, 1.13925
133, 1, bw, attraction, a-b-db, 14, 2, 4, 7, 90, 165, 165, 90, 83, 153, 1, 3.02755
133, 1, bw, attraction, a-b-db, 14, 2, 4, 7, 90, 165, 165, 90, 83, 153, 3, 0.904625
133, 1, bw, filler, NA, 999, 999, 4, 8, 81, 181, 134, 106, 169, 123, 3, 2.47418
133, 1, bw, filler, NA, 999, 999, 4, 8, 81, 181, 134, 106, 169, 123, 2, 0.741478
133, 1, bw, attraction, a-b-db, 5, 1, 4, 9, 135, 60, 58, 132, 60, 135, 1, 3.38906
133, 1, bw, attraction, a-b-db, 5, 1, 4, 9, 135, 60, 58, 132, 60, 135, 3, 1.41143
133, 1, bw, filler, NA, 999, 999, 4, 10, 72, 128, 116, 114, 128, 89, 3, 6.4881
133, 1, bw, filler, NA, 999, 999, 4, 10, 72, 128, 116, 114, 128, 89, 1, 0.802058
133, 1, bw, filler, NA, 999, 999, 4, 11, 107, 82, 192, 167, 193, 97, 2, 4.19993
133, 1, bw, filler, NA, 999, 999, 4, 11, 107, 82, 192, 167, 193, 97, 1, 0.669864
133, 1, bw, attraction, a-b-da, 5, 1, 4, 12, 60, 135, 132, 58, 135, 60, 1, 5.69692
133, 1, bw, attraction, a-b-da, 5, 1, 4, 12, 60, 135, 132, 58, 135, 60, 2, 0.554475
133, 1, bw, filler, NA, 999, 999, 4, 13, 74, 64, 119, 180, 133, 161, 3, 1.42617
133, 1, bw, filler, NA, 999, 999, 4, 13, 74, 64, 119, 180, 133, 161, 1, 0.815646
133, 1, bw, attraction, a-b-db, 5, 3, 4, 14, 120, 195, 117, 190, 195, 120, 1, 1.36469
133, 1, bw, attraction, a-b-db, 5, 3, 4, 14, 120, 195, 117, 190, 195, 120, 2, 0.884878
133, 1, bw, attraction, a-b-da, 2, 3, 4, 15, 195, 120, 120, 195, 193, 119, 1, 2.14323
133, 1, bw, attraction, a-b-da, 2, 3, 4, 15, 195, 120, 120, 195, 193, 119, 2, 0.663901
133, 1, bw, attraction, a-b-da, 14, 3, 4, 16, 120, 195, 195, 120, 181, 111, 1, 5.38702
133, 1, bw, attraction, a-b-da, 14, 3, 4, 16, 120, 195, 195, 120, 181, 111, 3, 0.729302
133, 1, bw, attraction, a-b-da, 9, 3, 4, 17, 186, 114, 120, 195, 195, 120, 3, 1.49766
133, 1, bw, attraction, a-b-da, 9, 3, 4, 17, 186, 114, 120, 195, 195, 120, 1, 0.756506
133, 1, bw, filler, NA, 999, 999, 4, 18, 170, 92, 125, 58, 56, 195, 1, 3.38013
133, 1, bw, filler, NA, 999, 999, 4, 18, 170, 92, 125, 58, 56, 195, 2, 0.9151
133, 1, bw, attraction, a-b-db, 5, 2, 4, 19, 90, 165, 88, 161, 165, 90, 3, 3.24408
133, 1, bw, attraction, a-b-db, 5, 2, 4, 19, 90, 165, 88, 161, 165, 90, 1, 1.16848
133, 1, bw, attraction, a-b-da, 5, 3, 4, 20, 190, 117, 195, 120, 120, 195, 3, 8.20737
133, 1, bw, attraction, a-b-da, 5, 3, 4, 20, 190, 117, 195, 120, 120, 195, 1, 1.30739
133, 1, bw, attraction, a-b-db, 2, 1, 4, 21, 60, 135, 135, 60, 59, 134, 1, 2.73228
133, 1, bw, attraction, a-b-db, 2, 1, 4, 21, 60, 135, 135, 60, 59, 134, 2, 0.597338
133, 1, bw, attraction, a-b-da, 2, 1, 4, 22, 134, 59, 135, 60, 60, 135, 3, 2.19508
133, 1, bw, attraction, a-b-da, 2, 1, 4, 22, 134, 59, 135, 60, 60, 135, 1, 0.93769
133, 1, bw, attraction, a-b-db, 9, 2, 4, 23, 165, 90, 86, 157, 90, 165, 3, 3.69798
133, 1, bw, attraction, a-b-db, 9, 2, 4, 23, 165, 90, 86, 157, 90, 165, 1, 0.95634
133, 1, bw, attraction, a-b-db, 9, 3, 4, 24, 195, 120, 114, 186, 120, 195, 3, 3.36389
133, 1, bw, attraction, a-b-db, 9, 3, 4, 24, 195, 120, 114, 186, 120, 195, 2, 0.571411
133, 1, bw, attraction, a-b-db, 14, 3, 4, 25, 120, 195, 195, 120, 111, 181, 2, 2.59459
133, 1, bw, attraction, a-b-db, 14, 3, 4, 25, 120, 195, 195, 120, 111, 181, 3, 0.673094
133, 1, bw, attraction, a-b-db, 14, 1, 4, 26, 60, 135, 135, 60, 56, 125, 2, 3.97208
133, 1, bw, attraction, a-b-db, 14, 1, 4, 26, 60, 135, 135, 60, 56, 125, 3, 0.771538
133, 1, bw, filler, NA, 999, 999, 4, 27, 188, 162, 147, 185, 69, 180, 1, 2.14648
133, 1, bw, filler, NA, 999, 999, 4, 27, 188, 162, 147, 185, 69, 180, 2, 0.691314
133, 1, bw, filler, NA, 999, 999, 4, 28, 116, 95, 166, 138, 109, 191, 2, 5.52504
133, 1, bw, filler, NA, 999, 999, 4, 28, 116, 95, 166, 138, 109, 191, 3, 0.917192
133, 1, bw, attraction, a-b-db, 2, 3, 4, 29, 119, 193, 195, 120, 120, 195, 3, 2.61415
133, 1, bw, attraction, a-b-db, 2, 3, 4, 29, 119, 193, 195, 120, 120, 195, 1, 0.484177
133, 1, bw, catch, NA, 999, 999, 4, 30, 135, 60, 153, 162, 142, 113, 2, 1.45443
133, 1, bw, catch, NA, 999, 999, 4, 30, 135, 60, 153, 162, 142, 113, 3, 0.563471
133, 1, bw, attraction, a-b-da, 2, 2, 4, 31, 165, 90, 90, 165, 163, 89, 1, 1.86652
133, 1, bw, attraction, a-b-da, 2, 2, 4, 31, 165, 90, 90, 165, 163, 89, 2, 0.646455
133, 1, bw, attraction, a-b-da, 9, 2, 4, 32, 165, 90, 157, 86, 90, 165, 3, 1.50608
133, 1, bw, attraction, a-b-da, 9, 2, 4, 32, 165, 90, 157, 86, 90, 165, 2, 1.11634
133, 1, bw, filler, NA, 999, 999, 4, 33, 125, 69, 109, 187, 79, 139, 2, 1.74126
133, 1, bw, filler, NA, 999, 999, 4, 33, 125, 69, 109, 187, 79, 139, 3, 0.653974
133, 1, bw, filler, NA, 999, 999, 4, 34, 177, 105, 188, 147, 76, 86, 2, 1.53782
133, 1, bw, filler, NA, 999, 999, 4, 34, 177, 105, 188, 147, 76, 86, 3, 0.531382
133, 1, bw, attraction, a-b-da, 14, 1, 4, 35, 125, 56, 60, 135, 135, 60, 3, 1.69973
133, 1, bw, attraction, a-b-da, 14, 1, 4, 35, 125, 56, 60, 135, 135, 60, 2, 0.662486
133, 1, bw, attraction, a-b-da, 5, 2, 4, 36, 165, 90, 161, 88, 90, 165, 3, 1.68155
133, 1, bw, attraction, a-b-da, 5, 2, 4, 36, 165, 90, 161, 88, 90, 165, 1, 1.17295
133, 1, bw, catch, NA, 999, 999, 4, 37, 116, 139, 87, 108, 194, 121, 3, 7.00396
133, 1, bw, catch, NA, 999, 999, 4, 37, 116, 139, 87, 108, 194, 121, 2, 2.21712
133, 1, bw, attraction, a-b-db, 14, 1, 5, 1, 135, 60, 60, 135, 56, 125, 2, 4.00421
133, 1, bw, attraction, a-b-db, 14, 1, 5, 1, 135, 60, 60, 135, 56, 125, 3, 0.818295
133, 1, bw, attraction, a-b-db, 9, 1, 5, 2, 57, 129, 135, 60, 60, 135, 3, 4.16745
133, 1, bw, attraction, a-b-db, 9, 1, 5, 2, 57, 129, 135, 60, 60, 135, 1, 0.974691
133, 1, bw, attraction, a-b-db, 5, 2, 5, 3, 165, 90, 90, 165, 88, 161, 2, 1.94892
133, 1, bw, attraction, a-b-db, 5, 2, 5, 3, 165, 90, 90, 165, 88, 161, 1, 1.19769
133, 1, bw, attraction, a-b-da, 9, 2, 5, 4, 157, 86, 90, 165, 165, 90, 2, 1.50724
133, 1, bw, attraction, a-b-da, 9, 2, 5, 4, 157, 86, 90, 165, 165, 90, 1, 0.573358
133, 1, bw, filler, NA, 999, 999, 5, 5, 167, 175, 173, 142, 162, 79, 1, 1.62782
133, 1, bw, filler, NA, 999, 999, 5, 5, 167, 175, 173, 142, 162, 79, 3, 1.11326
133, 1, bw, filler, NA, 999, 999, 5, 6, 125, 122, 70, 169, 103, 146, 3, 2.6262
133, 1, bw, filler, NA, 999, 999, 5, 6, 125, 122, 70, 169, 103, 146, 1, 0.679412
133, 1, bw, filler, NA, 999, 999, 5, 7, 156, 68, 69, 138, 135, 193, 3, 1.6818
133, 1, bw, filler, NA, 999, 999, 5, 7, 156, 68, 69, 138, 135, 193, 2, 0.72529
133, 1, bw, attraction, a-b-da, 14, 2, 5, 8, 153, 83, 165, 90, 90, 165, 3, 1.74161
133, 1, bw, attraction, a-b-da, 14, 2, 5, 8, 153, 83, 165, 90, 90, 165, 1, 0.710298
133, 1, bw, attraction, a-b-da, 9, 1, 5, 9, 60, 135, 129, 57, 135, 60, 1, 2.47945
133, 1, bw, attraction, a-b-da, 9, 1, 5, 9, 60, 135, 129, 57, 135, 60, 2, 0.63455
133, 1, bw, attraction, a-b-da, 2, 1, 5, 10, 60, 135, 134, 59, 135, 60, 1, 1.92705
133, 1, bw, attraction, a-b-da, 2, 1, 5, 10, 60, 135, 134, 59, 135, 60, 3, 1.14446
133, 1, bw, attraction, a-b-da, 14, 1, 5, 11, 135, 60, 125, 56, 60, 135, 3, 1.59205
133, 1, bw, attraction, a-b-da, 14, 1, 5, 11, 135, 60, 125, 56, 60, 135, 2, 0.878751
133, 1, bw, attraction, a-b-da, 5, 3, 5, 12, 120, 195, 190, 117, 195, 120, 1, 2.03308
133, 1, bw, attraction, a-b-da, 5, 3, 5, 12, 120, 195, 190, 117, 195, 120, 2, 1.04659
133, 1, bw, filler, NA, 999, 999, 5, 13, 182, 79, 101, 68, 140, 57, 1, 2.21815
133, 1, bw, filler, NA, 999, 999, 5, 13, 182, 79, 101, 68, 140, 57, 2, 0.672053
133, 1, bw, attraction, a-b-db, 14, 2, 5, 14, 83, 153, 165, 90, 90, 165, 3, 1.80302
133, 1, bw, attraction, a-b-db, 14, 2, 5, 14, 83, 153, 165, 90, 90, 165, 1, 0.75388
133, 1, bw, filler, NA, 999, 999, 5, 15, 192, 165, 112, 144, 181, 78, 1, 1.83352
133, 1, bw, filler, NA, 999, 999, 5, 15, 192, 165, 112, 144, 181, 78, 2, 0.734871
133, 1, bw, catch, NA, 999, 999, 5, 16, 153, 162, 119, 136, 113, 82, 1, 1.33527
133, 1, bw, catch, NA, 999, 999, 5, 16, 153, 162, 119, 136, 113, 82, 3, 1.28881
133, 1, bw, filler, NA, 999, 999, 5, 17, 158, 160, 118, 192, 79, 151, 1, 4.83503
133, 1, bw, filler, NA, 999, 999, 5, 17, 158, 160, 118, 192, 79, 151, 3, 0.863552
133, 1, bw, attraction, a-b-db, 5, 3, 5, 18, 117, 190, 120, 195, 195, 120, 2, 1.82642
133, 1, bw, attraction, a-b-db, 5, 3, 5, 18, 117, 190, 120, 195, 195, 120, 1, 1.20795
133, 1, bw, filler, NA, 999, 999, 5, 19, 103, 168, 140, 115, 86, 192, 1, 5.76478
133, 1, bw, filler, NA, 999, 999, 5, 19, 103, 168, 140, 115, 86, 192, 2, 0.539691
133, 1, bw, attraction, a-b-db, 2, 3, 5, 20, 195, 120, 120, 195, 119, 193, 2, 6.49226
133, 1, bw, attraction, a-b-db, 2, 3, 5, 20, 195, 120, 120, 195, 119, 193, 3, 0.70135
133, 1, bw, attraction, a-b-db, 5, 1, 5, 21, 60, 135, 135, 60, 58, 132, 3, 2.45521
133, 1, bw, attraction, a-b-db, 5, 1, 5, 21, 60, 135, 135, 60, 58, 132, 1, 1.21092
133, 1, bw, filler, NA, 999, 999, 5, 22, 92, 111, 173, 160, 155, 61, 2, 0.991784
133, 1, bw, filler, NA, 999, 999, 5, 22, 92, 111, 173, 160, 155, 61, 1, 0.67099
133, 1, bw, attraction, a-b-db, 9, 3, 5, 23, 114, 186, 195, 120, 120, 195, 3, 2.01793
133, 1, bw, attraction, a-b-db, 9, 3, 5, 23, 114, 186, 195, 120, 120, 195, 1, 0.695955
133, 1, bw, catch, NA, 999, 999, 5, 24, 156, 159, 128, 67, 144, 111, 1, 2.25777
133, 1, bw, catch, NA, 999, 999, 5, 24, 156, 159, 128, 67, 144, 111, 2, 0.917603
133, 1, bw, attraction, a-b-db, 2, 2, 5, 25, 89, 163, 165, 90, 90, 165, 3, 1.95859
133, 1, bw, attraction, a-b-db, 2, 2, 5, 25, 89, 163, 165, 90, 90, 165, 1, 1.33461
133, 1, bw, attraction, a-b-db, 9, 2, 5, 26, 90, 165, 165, 90, 86, 157, 2, 4.11087
133, 1, bw, attraction, a-b-db, 9, 2, 5, 26, 90, 165, 165, 90, 86, 157, 3, 0.544186
133, 1, bw, attraction, a-b-da, 5, 1, 5, 27, 132, 58, 135, 60, 60, 135, 3, 2.75994
133, 1, bw, attraction, a-b-da, 5, 1, 5, 27, 132, 58, 135, 60, 60, 135, 1, 1.43168
133, 1, bw, attraction, a-b-db, 2, 1, 5, 28, 135, 60, 59, 134, 60, 135, 3, 1.60388
133, 1, bw, attraction, a-b-db, 2, 1, 5, 28, 135, 60, 59, 134, 60, 135, 1, 0.794757
133, 1, bw, attraction, a-b-da, 9, 3, 5, 29, 120, 195, 186, 114, 195, 120, 3, 4.16832
133, 1, bw, attraction, a-b-da, 9, 3, 5, 29, 120, 195, 186, 114, 195, 120, 1, 0.807683
133, 1, bw, attraction, a-b-da, 2, 2, 5, 30, 165, 90, 90, 165, 163, 89, 3, 2.3167
133, 1, bw, attraction, a-b-da, 2, 2, 5, 30, 165, 90, 90, 165, 163, 89, 2, 0.62272
133, 1, bw, attraction, a-b-da, 5, 2, 5, 31, 90, 165, 165, 90, 161, 88, 3, 3.00377
133, 1, bw, attraction, a-b-da, 5, 2, 5, 31, 90, 165, 165, 90, 161, 88, 1, 0.674098
133, 1, bw, filler, NA, 999, 999, 5, 32, 112, 145, 138, 104, 130, 63, 1, 1.74046
133, 1, bw, filler, NA, 999, 999, 5, 32, 112, 145, 138, 104, 130, 63, 3, 1.27732
133, 1, bw, attraction, a-b-da, 2, 3, 5, 33, 120, 195, 193, 119, 195, 120, 1, 2.7754
133, 1, bw, attraction, a-b-da, 2, 3, 5, 33, 120, 195, 193, 119, 195, 120, 3, 0.582602
133, 1, bw, attraction, a-b-db, 14, 3, 5, 34, 120, 195, 195, 120, 111, 181, 1, 2.50104
133, 1, bw, attraction, a-b-db, 14, 3, 5, 34, 120, 195, 195, 120, 111, 181, 3, 1.49562
133, 1, bw, catch, NA, 999, 999, 5, 35, 136, 119, 88, 107, 143, 172, 3, 1.97705
133, 1, bw, catch, NA, 999, 999, 5, 35, 136, 119, 88, 107, 143, 172, 2, 0.784416
133, 1, bw, filler, NA, 999, 999, 5, 36, 67, 177, 116, 64, 152, 86, 3, 3.23868
133, 1, bw, filler, NA, 999, 999, 5, 36, 67, 177, 116, 64, 152, 86, 2, 0.579817
133, 1, bw, attraction, a-b-da, 14, 3, 5, 37, 120, 195, 181, 111, 195, 120, 1, 3.49
133, 1, bw, attraction, a-b-da, 14, 3, 5, 37, 120, 195, 181, 111, 195, 120, 2, 0.660336
133, 1, bw, attraction, a-b-db, 9, 3, 6, 1, 114, 186, 195, 120, 120, 195, 2, 2.69537
133, 1, bw, attraction, a-b-db, 9, 3, 6, 1, 114, 186, 195, 120, 120, 195, 1, 0.546024
133, 1, bw, attraction, a-b-da, 5, 2, 6, 2, 165, 90, 90, 165, 161, 88, 1, 2.85759
133, 1, bw, attraction, a-b-da, 5, 2, 6, 2, 165, 90, 90, 165, 161, 88, 3, 1.21338
133, 1, bw, filler, NA, 999, 999, 6, 3, 63, 100, 136, 159, 65, 134, 2, 1.21039
133, 1, bw, filler, NA, 999, 999, 6, 3, 63, 100, 136, 159, 65, 134, 1, 0.720474
133, 1, bw, catch, NA, 999, 999, 6, 4, 128, 187, 128, 67, 97, 158, 1, 2.86565
133, 1, bw, catch, NA, 999, 999, 6, 4, 128, 187, 128, 67, 97, 158, 2, 0.805395
133, 1, bw, attraction, a-b-da, 14, 1, 6, 5, 125, 56, 60, 135, 135, 60, 3, 2.17116
133, 1, bw, attraction, a-b-da, 14, 1, 6, 5, 125, 56, 60, 135, 135, 60, 1, 0.915013
133, 1, bw, attraction, a-b-db, 14, 1, 6, 6, 56, 125, 135, 60, 60, 135, 2, 2.20397
133, 1, bw, attraction, a-b-db, 14, 1, 6, 6, 56, 125, 135, 60, 60, 135, 1, 0.554602
133, 1, bw, attraction, a-b-da, 14, 3, 6, 7, 195, 120, 181, 111, 120, 195, 1, 1.14627
133, 1, bw, attraction, a-b-da, 14, 3, 6, 7, 195, 120, 181, 111, 120, 195, 2, 0.435326
133, 1, bw, attraction, a-b-db, 9, 2, 6, 8, 86, 157, 90, 165, 165, 90, 2, 1.50374
133, 1, bw, attraction, a-b-db, 9, 2, 6, 8, 86, 157, 90, 165, 165, 90, 1, 0.994733
133, 1, bw, catch, NA, 999, 999, 6, 9, 156, 99, 113, 82, 163, 152, 3, 1.4402
133, 1, bw, catch, NA, 999, 999, 6, 9, 156, 99, 113, 82, 163, 152, 2, 0.653149
133, 1, bw, filler, NA, 999, 999, 6, 10, 176, 111, 182, 177, 95, 141, 2, 1.03278
133, 1, bw, filler, NA, 999, 999, 6, 10, 176, 111, 182, 177, 95, 141, 3, 0.55846
133, 1, bw, attraction, a-b-db, 14, 3, 6, 11, 195, 120, 111, 181, 120, 195, 3, 1.95772
133, 1, bw, attraction, a-b-db, 14, 3, 6, 11, 195, 120, 111, 181, 120, 195, 2, 0.597642
133, 1, bw, attraction, a-b-da, 2, 1, 6, 12, 135, 60, 134, 59, 60, 135, 3, 1.92336
133, 1, bw, attraction, a-b-da, 2, 1, 6, 12, 135, 60, 134, 59, 60, 135, 1, 0.89267
133, 1, bw, filler, NA, 999, 999, 6, 13, 161, 187, 188, 147, 134, 94, 1, 0.950324
133, 1, bw, filler, NA, 999, 999, 6, 13, 161, 187, 188, 147, 134, 94, 3, 0.575505
133, 1, bw, attraction, a-b-db, 5, 2, 6, 14, 88, 161, 90, 165, 165, 90, 3, 2.02182
133, 1, bw, attraction, a-b-db, 5, 2, 6, 14, 88, 161, 90, 165, 165, 90, 1, 0.667321
133, 1, bw, attraction, a-b-db, 2, 1, 6, 15, 135, 60, 59, 134, 60, 135, 3, 1.95825
133, 1, bw, attraction, a-b-db, 2, 1, 6, 15, 135, 60, 59, 134, 60, 135, 2, 0.526221
133, 1, bw, attraction, a-b-db, 2, 2, 6, 16, 165, 90, 90, 165, 89, 163, 1, 1.63885
133, 1, bw, attraction, a-b-db, 2, 2, 6, 16, 165, 90, 90, 165, 89, 163, 2, 0.475664
133, 1, bw, attraction, a-b-da, 9, 3, 6, 17, 186, 114, 195, 120, 120, 195, 3, 1.62192
133, 1, bw, attraction, a-b-da, 9, 3, 6, 17, 186, 114, 195, 120, 120, 195, 2, 0.555567
133, 1, bw, attraction, a-b-db, 5, 3, 6, 18, 117, 190, 195, 120, 120, 195, 3, 1.62716
133, 1, bw, attraction, a-b-db, 5, 3, 6, 18, 117, 190, 195, 120, 120, 195, 2, 0.544688
133, 1, bw, attraction, a-b-da, 5, 1, 6, 19, 135, 60, 60, 135, 132, 58, 1, 1.69641
133, 1, bw, attraction, a-b-da, 5, 1, 6, 19, 135, 60, 60, 135, 132, 58, 2, 0.699228
133, 1, bw, filler, NA, 999, 999, 6, 20, 141, 56, 108, 137, 177, 149, 3, 0.972921
133, 1, bw, filler, NA, 999, 999, 6, 20, 141, 56, 108, 137, 177, 149, 2, 0.596698
133, 1, bw, filler, NA, 999, 999, 6, 21, 126, 56, 73, 127, 141, 82, 3, 1.11437
133, 1, bw, filler, NA, 999, 999, 6, 21, 126, 56, 73, 127, 141, 82, 2, 0.556719
133, 1, bw, attraction, a-b-da, 9, 1, 6, 22, 129, 57, 135, 60, 60, 135, 1, 3.45179
133, 1, bw, attraction, a-b-da, 9, 1, 6, 22, 129, 57, 135, 60, 60, 135, 3, 0.89597
133, 1, bw, filler, NA, 999, 999, 6, 23, 155, 154, 178, 175, 120, 127, 2, 0.913574
133, 1, bw, filler, NA, 999, 999, 6, 23, 155, 154, 178, 175, 120, 127, 3, 0.532049
133, 1, bw, attraction, a-b-db, 9, 1, 6, 24, 57, 129, 135, 60, 60, 135, 3, 2.77242
133, 1, bw, attraction, a-b-db, 9, 1, 6, 24, 57, 129, 135, 60, 60, 135, 1, 0.723472
133, 1, bw, attraction, a-b-da, 14, 2, 6, 25, 90, 165, 165, 90, 153, 83, 2, 1.89992
133, 1, bw, attraction, a-b-da, 14, 2, 6, 25, 90, 165, 165, 90, 153, 83, 3, 0.966748
133, 1, bw, filler, NA, 999, 999, 6, 26, 57, 136, 164, 69, 68, 98, 2, 2.66166
133, 1, bw, filler, NA, 999, 999, 6, 26, 57, 136, 164, 69, 68, 98, 3, 0.561436
133, 1, bw, attraction, a-b-db, 5, 1, 6, 27, 60, 135, 58, 132, 135, 60, 3, 1.3365
133, 1, bw, attraction, a-b-db, 5, 1, 6, 27, 60, 135, 58, 132, 135, 60, 2, 0.466226
133, 1, bw, attraction, a-b-da, 2, 2, 6, 28, 163, 89, 90, 165, 165, 90, 3, 3.0213
133, 1, bw, attraction, a-b-da, 2, 2, 6, 28, 163, 89, 90, 165, 165, 90, 2, 0.666902
133, 1, bw, attraction, a-b-da, 2, 3, 6, 29, 120, 195, 195, 120, 193, 119, 3, 1.43791
133, 1, bw, attraction, a-b-da, 2, 3, 6, 29, 120, 195, 195, 120, 193, 119, 2, 0.707422
133, 1, bw, filler, NA, 999, 999, 6, 30, 95, 157, 88, 85, 182, 153, 3, 1.1166
133, 1, bw, filler, NA, 999, 999, 6, 30, 95, 157, 88, 85, 182, 153, 2, 0.694902
133, 1, bw, filler, NA, 999, 999, 6, 31, 120, 88, 74, 75, 91, 69, 1, 1.00061
133, 1, bw, filler, NA, 999, 999, 6, 31, 120, 88, 74, 75, 91, 69, 2, 0.815574
133, 1, bw, attraction, a-b-da, 5, 3, 6, 32, 190, 117, 120, 195, 195, 120, 3, 1.48465
133, 1, bw, attraction, a-b-da, 5, 3, 6, 32, 190, 117, 120, 195, 195, 120, 1, 0.544065
133, 1, bw, attraction, a-b-db, 2, 3, 6, 33, 119, 193, 120, 195, 195, 120, 3, 1.77596
133, 1, bw, attraction, a-b-db, 2, 3, 6, 33, 119, 193, 120, 195, 195, 120, 2, 0.591256
133, 1, bw, filler, NA, 999, 999, 6, 34, 131, 147, 146, 108, 174, 133, 3, 2.70108
133, 1, bw, filler, NA, 999, 999, 6, 34, 131, 147, 146, 108, 174, 133, 1, 0.823495
133, 1, bw, attraction, a-b-da, 9, 2, 6, 35, 165, 90, 90, 165, 157, 86, 1, 3.90774
133, 1, bw, attraction, a-b-da, 9, 2, 6, 35, 165, 90, 90, 165, 157, 86, 3, 0.837272
133, 1, bw, catch, NA, 999, 999, 6, 36, 122, 73, 133, 122, 169, 146, 3, 1.6577
133, 1, bw, catch, NA, 999, 999, 6, 36, 122, 73, 133, 122, 169, 146, 1, 0.837755
133, 1, bw, attraction, a-b-db, 14, 2, 6, 37, 90, 165, 83, 153, 165, 90, 1, 1.7629
133, 1, bw, attraction, a-b-db, 14, 2, 6, 37, 90, 165, 83, 153, 165, 90, 2, 0.722255
133, 1, bw, attraction, a-b-da, 9, 3, 7, 1, 186, 114, 195, 120, 120, 195, 2, 1.50718
133, 1, bw, attraction, a-b-da, 9, 3, 7, 1, 186, 114, 195, 120, 120, 195, 3, 0.485428
133, 1, bw, attraction, a-b-da, 5, 1, 7, 2, 135, 60, 132, 58, 60, 135, 3, 2.34377
133, 1, bw, attraction, a-b-da, 5, 1, 7, 2, 135, 60, 132, 58, 60, 135, 2, 0.52039
133, 1, bw, attraction, a-b-da, 5, 3, 7, 3, 120, 195, 195, 120, 190, 117, 1, 1.32952
133, 1, bw, attraction, a-b-da, 5, 3, 7, 3, 120, 195, 195, 120, 190, 117, 3, 0.739162
133, 1, bw, filler, NA, 999, 999, 7, 4, 131, 77, 161, 174, 111, 139, 2, 2.81947
133, 1, bw, filler, NA, 999, 999, 7, 4, 131, 77, 161, 174, 111, 139, 3, 1.41739
133, 1, bw, attraction, a-b-da, 2, 2, 7, 5, 163, 89, 90, 165, 165, 90, 3, 1.26202
133, 1, bw, attraction, a-b-da, 2, 2, 7, 5, 163, 89, 90, 165, 165, 90, 2, 0.530437
133, 1, bw, attraction, a-b-db, 5, 1, 7, 6, 60, 135, 135, 60, 58, 132, 2, 1.50671
133, 1, bw, attraction, a-b-db, 5, 1, 7, 6, 60, 135, 135, 60, 58, 132, 1, 0.500867
133, 1, bw, attraction, a-b-da, 9, 2, 7, 7, 90, 165, 157, 86, 165, 90, 3, 2.29472
133, 1, bw, attraction, a-b-da, 9, 2, 7, 7, 90, 165, 157, 86, 165, 90, 1, 0.729285
133, 1, bw, filler, NA, 999, 999, 7, 8, 190, 192, 135, 145, 85, 147, 1, 1.28165
133, 1, bw, filler, NA, 999, 999, 7, 8, 190, 192, 135, 145, 85, 147, 3, 0.685262
133, 1, bw, attraction, a-b-db, 9, 2, 7, 9, 165, 90, 90, 165, 86, 157, 1, 1.56763
133, 1, bw, attraction, a-b-db, 9, 2, 7, 9, 165, 90, 90, 165, 86, 157, 3, 0.575893
133, 1, bw, attraction, a-b-db, 14, 3, 7, 10, 120, 195, 195, 120, 111, 181, 1, 1.0142
133, 1, bw, attraction, a-b-db, 14, 3, 7, 10, 120, 195, 195, 120, 111, 181, 3, 0.820477
133, 1, bw, attraction, a-b-da, 14, 1, 7, 11, 60, 135, 125, 56, 135, 60, 3, 1.8176
133, 1, bw, attraction, a-b-da, 14, 1, 7, 11, 60, 135, 125, 56, 135, 60, 1, 0.687589
133, 1, bw, filler, NA, 999, 999, 7, 12, 79, 139, 126, 139, 62, 166, 1, 2.13003
133, 1, bw, filler, NA, 999, 999, 7, 12, 79, 139, 126, 139, 62, 166, 3, 1.89138
133, 1, bw, attraction, a-b-db, 9, 3, 7, 13, 120, 195, 114, 186, 195, 120, 1, 2.07659
133, 1, bw, attraction, a-b-db, 9, 3, 7, 13, 120, 195, 114, 186, 195, 120, 2, 0.568027
133, 1, bw, attraction, a-b-da, 2, 3, 7, 14, 120, 195, 195, 120, 193, 119, 2, 2.20706
133, 1, bw, attraction, a-b-da, 2, 3, 7, 14, 120, 195, 195, 120, 193, 119, 1, 0.765136
133, 1, bw, attraction, a-b-db, 5, 2, 7, 15, 165, 90, 88, 161, 90, 165, 3, 1.62016
133, 1, bw, attraction, a-b-db, 5, 2, 7, 15, 165, 90, 88, 161, 90, 165, 2, 0.706282
133, 1, bw, attraction, a-b-da, 14, 3, 7, 16, 195, 120, 120, 195, 181, 111, 2, 1.60393
133, 1, bw, attraction, a-b-da, 14, 3, 7, 16, 195, 120, 120, 195, 181, 111, 3, 0.562786
133, 1, bw, attraction, a-b-db, 2, 1, 7, 17, 135, 60, 59, 134, 60, 135, 3, 1.91384
133, 1, bw, attraction, a-b-db, 2, 1, 7, 17, 135, 60, 59, 134, 60, 135, 2, 0.579928
133, 1, bw, filler, NA, 999, 999, 7, 18, 186, 66, 154, 81, 104, 136, 3, 2.77042
133, 1, bw, filler, NA, 999, 999, 7, 18, 186, 66, 154, 81, 104, 136, 2, 1.48227
133, 1, bw, attraction, a-b-db, 2, 2, 7, 19, 90, 165, 165, 90, 89, 163, 3, 2.46021
133, 1, bw, attraction, a-b-db, 2, 2, 7, 19, 90, 165, 165, 90, 89, 163, 2, 0.720239
133, 1, bw, attraction, a-b-da, 9, 1, 7, 20, 60, 135, 129, 57, 135, 60, 3, 1.40111
133, 1, bw, attraction, a-b-da, 9, 1, 7, 20, 60, 135, 129, 57, 135, 60, 1, 0.60004
133, 1, bw, filler, NA, 999, 999, 7, 21, 141, 77, 158, 69, 75, 113, 1, 1.02192
133, 1, bw, filler, NA, 999, 999, 7, 21, 141, 77, 158, 69, 75, 113, 3, 0.50745
133, 1, bw, filler, NA, 999, 999, 7, 22, 157, 72, 93, 181, 170, 116, 3, 1.38057
133, 1, bw, filler, NA, 999, 999, 7, 22, 157, 72, 93, 181, 170, 116, 1, 0.572116
133, 1, bw, filler, NA, 999, 999, 7, 23, 75, 146, 133, 64, 68, 190, 1, 1.58719
133, 1, bw, filler, NA, 999, 999, 7, 23, 75, 146, 133, 64, 68, 190, 2, 0.490673
133, 1, bw, catch, NA, 999, 999, 7, 24, 139, 116, 99, 96, 125, 190, 1, 1.81243
133, 1, bw, catch, NA, 999, 999, 7, 24, 139, 116, 99, 96, 125, 190, 2, 0.642505
133, 1, bw, attraction, a-b-db, 9, 1, 7, 25, 135, 60, 57, 129, 60, 135, 1, 1.27821
133, 1, bw, attraction, a-b-db, 9, 1, 7, 25, 135, 60, 57, 129, 60, 135, 2, 0.649845
133, 1, bw, filler, NA, 999, 999, 7, 26, 104, 132, 102, 180, 67, 104, 2, 1.9655
133, 1, bw, filler, NA, 999, 999, 7, 26, 104, 132, 102, 180, 67, 104, 3, 1.34166
133, 1, bw, filler, NA, 999, 999, 7, 27, 79, 104, 188, 178, 65, 95, 2, 1.26114
133, 1, bw, filler, NA, 999, 999, 7, 27, 79, 104, 188, 178, 65, 95, 3, 1.59345
133, 1, bw, catch, NA, 999, 999, 7, 28, 132, 183, 116, 139, 85, 110, 1, 1.37482
133, 1, bw, catch, NA, 999, 999, 7, 28, 132, 183, 116, 139, 85, 110, 3, 0.670375
133, 1, bw, attraction, a-b-da, 14, 2, 7, 29, 165, 90, 90, 165, 153, 83, 1, 6.68154
133, 1, bw, attraction, a-b-da, 14, 2, 7, 29, 165, 90, 90, 165, 153, 83, 3, 0.723351
133, 1, bw, attraction, a-b-db, 14, 1, 7, 30, 56, 125, 135, 60, 60, 135, 2, 1.33161
133, 1, bw, attraction, a-b-db, 14, 1, 7, 30, 56, 125, 135, 60, 60, 135, 1, 0.541206
133, 1, bw, attraction, a-b-db, 5, 3, 7, 31, 195, 120, 120, 195, 117, 190, 1, 2.70921
133, 1, bw, attraction, a-b-db, 5, 3, 7, 31, 195, 120, 120, 195, 117, 190, 3, 0.550881
133, 1, bw, attraction, a-b-da, 5, 2, 7, 32, 165, 90, 90, 165, 161, 88, 1, 1.04661
133, 1, bw, attraction, a-b-da, 5, 2, 7, 32, 165, 90, 90, 165, 161, 88, 2, 0.627659
133, 1, bw, attraction, a-b-da, 2, 1, 7, 33, 134, 59, 60, 135, 135, 60, 3, 1.21594
133, 1, bw, attraction, a-b-da, 2, 1, 7, 33, 134, 59, 60, 135, 135, 60, 2, 0.518211
133, 1, bw, filler, NA, 999, 999, 7, 34, 96, 172, 188, 76, 67, 84, 1, 0.735307
133, 1, bw, filler, NA, 999, 999, 7, 34, 96, 172, 188, 76, 67, 84, 3, 1.19311
133, 1, bw, attraction, a-b-db, 2, 3, 7, 35, 119, 193, 195, 120, 120, 195, 1, 1.27067
133, 1, bw, attraction, a-b-db, 2, 3, 7, 35, 119, 193, 195, 120, 120, 195, 2, 0.514887
133, 1, bw, catch, NA, 999, 999, 7, 36, 72, 123, 104, 151, 171, 144, 3, 0.884077
133, 1, bw, catch, NA, 999, 999, 7, 36, 72, 123, 104, 151, 171, 144, 1, 0.543784
133, 1, bw, attraction, a-b-db, 14, 2, 7, 37, 83, 153, 165, 90, 90, 165, 2, 1.32746
133, 1, bw, attraction, a-b-db, 14, 2, 7, 37, 83, 153, 165, 90, 90, 165, 1, 0.489115
133, 1, bw, catch, NA, 999, 999, 8, 1, 110, 85, 99, 156, 184, 131, 3, 1.21147
133, 1, bw, catch, NA, 999, 999, 8, 1, 110, 85, 99, 156, 184, 131, 1, 0.497893
133, 1, bw, filler, NA, 999, 999, 8, 2, 130, 95, 155, 108, 177, 58, 2, 1.77957
133, 1, bw, filler, NA, 999, 999, 8, 2, 130, 95, 155, 108, 177, 58, 1, 1.06702
133, 1, bw, attraction, a-b-da, 9, 2, 8, 3, 90, 165, 165, 90, 157, 86, 3, 1.67801
133, 1, bw, attraction, a-b-da, 9, 2, 8, 3, 90, 165, 165, 90, 157, 86, 2, 0.5535
133, 1, bw, attraction, a-b-db, 9, 1, 8, 4, 57, 129, 135, 60, 60, 135, 3, 1.80915
133, 1, bw, attraction, a-b-db, 9, 1, 8, 4, 57, 129, 135, 60, 60, 135, 2, 0.775146
133, 1, bw, attraction, a-b-db, 2, 2, 8, 5, 89, 163, 165, 90, 90, 165, 2, 0.869488
133, 1, bw, attraction, a-b-db, 2, 2, 8, 5, 89, 163, 165, 90, 90, 165, 1, 0.537964
133, 1, bw, attraction, a-b-db, 14, 2, 8, 6, 165, 90, 83, 153, 90, 165, 1, 1.63438
133, 1, bw, attraction, a-b-db, 14, 2, 8, 6, 165, 90, 83, 153, 90, 165, 2, 0.631975
133, 1, bw, attraction, a-b-db, 9, 2, 8, 7, 90, 165, 86, 157, 165, 90, 1, 1.26831
133, 1, bw, attraction, a-b-db, 9, 2, 8, 7, 90, 165, 86, 157, 165, 90, 2, 1.66453
133, 1, bw, attraction, a-b-db, 5, 3, 8, 8, 195, 120, 117, 190, 120, 195, 1, 1.36329
133, 1, bw, attraction, a-b-db, 5, 3, 8, 8, 195, 120, 117, 190, 120, 195, 3, 1.01952
133, 1, bw, attraction, a-b-db, 14, 3, 8, 9, 195, 120, 111, 181, 120, 195, 1, 1.41649
133, 1, bw, attraction, a-b-db, 14, 3, 8, 9, 195, 120, 111, 181, 120, 195, 2, 1.43058
133, 1, bw, attraction, a-b-da, 9, 3, 8, 10, 186, 114, 195, 120, 120, 195, 1, 1.65076
133, 1, bw, attraction, a-b-da, 9, 3, 8, 10, 186, 114, 195, 120, 120, 195, 3, 1.91166
133, 1, bw, filler, NA, 999, 999, 8, 11, 144, 174, 98, 57, 176, 63, 1, 1.52843
133, 1, bw, filler, NA, 999, 999, 8, 11, 144, 174, 98, 57, 176, 63, 2, 0.737831
133, 1, bw, catch, NA, 999, 999, 8, 12, 66, 129, 182, 133, 154, 101, 2, 1.7381
133, 1, bw, catch, NA, 999, 999, 8, 12, 66, 129, 182, 133, 154, 101, 1, 0.53884
133, 1, bw, attraction, a-b-db, 9, 3, 8, 13, 120, 195, 195, 120, 114, 186, 2, 2.49152
133, 1, bw, attraction, a-b-db, 9, 3, 8, 13, 120, 195, 195, 120, 114, 186, 3, 0.573874
133, 1, bw, attraction, a-b-da, 9, 1, 8, 14, 60, 135, 129, 57, 135, 60, 3, 1.65235
133, 1, bw, attraction, a-b-da, 9, 1, 8, 14, 60, 135, 129, 57, 135, 60, 2, 0.897174
133, 1, bw, catch, NA, 999, 999, 8, 15, 90, 105, 96, 159, 135, 180, 3, 1.33871
133, 1, bw, catch, NA, 999, 999, 8, 15, 90, 105, 96, 159, 135, 180, 1, 1.19579
133, 1, bw, attraction, a-b-da, 14, 2, 8, 16, 165, 90, 153, 83, 90, 165, 3, 1.63327
133, 1, bw, attraction, a-b-da, 14, 2, 8, 16, 165, 90, 153, 83, 90, 165, 2, 0.494682
133, 1, bw, filler, NA, 999, 999, 8, 17, 123, 62, 143, 80, 73, 112, 2, 1.27242
133, 1, bw, filler, NA, 999, 999, 8, 17, 123, 62, 143, 80, 73, 112, 1, 0.499965
133, 1, bw, filler, NA, 999, 999, 8, 18, 130, 85, 131, 108, 173, 85, 3, 1.80579
133, 1, bw, filler, NA, 999, 999, 8, 18, 130, 85, 131, 108, 173, 85, 1, 0.539933
133, 1, bw, attraction, a-b-da, 5, 2, 8, 19, 90, 165, 165, 90, 161, 88, 2, 1.2917
133, 1, bw, attraction, a-b-da, 5, 2, 8, 19, 90, 165, 165, 90, 161, 88, 3, 0.686587
133, 1, bw, filler, NA, 999, 999, 8, 20, 144, 175, 71, 104, 76, 179, 1, 1.29687
133, 1, bw, filler, NA, 999, 999, 8, 20, 144, 175, 71, 104, 76, 179, 2, 0.419877
133, 1, bw, attraction, a-b-db, 2, 1, 8, 21, 135, 60, 60, 135, 59, 134, 1, 2.39304
133, 1, bw, attraction, a-b-db, 2, 1, 8, 21, 135, 60, 60, 135, 59, 134, 3, 0.59956
133, 1, bw, attraction, a-b-da, 5, 3, 8, 22, 120, 195, 190, 117, 195, 120, 1, 1.18128
133, 1, bw, attraction, a-b-da, 5, 3, 8, 22, 120, 195, 190, 117, 195, 120, 2, 0.469082
133, 1, bw, attraction, a-b-da, 2, 2, 8, 23, 165, 90, 163, 89, 90, 165, 1, 2.55218
133, 1, bw, attraction, a-b-da, 2, 2, 8, 23, 165, 90, 163, 89, 90, 165, 2, 0.544564
133, 1, bw, attraction, a-b-da, 2, 1, 8, 24, 60, 135, 135, 60, 134, 59, 3, 1.88827
133, 1, bw, attraction, a-b-da, 2, 1, 8, 24, 60, 135, 135, 60, 134, 59, 1, 0.851196
133, 1, bw, attraction, a-b-da, 2, 3, 8, 25, 120, 195, 193, 119, 195, 120, 1, 1.54271
133, 1, bw, attraction, a-b-da, 2, 3, 8, 25, 120, 195, 193, 119, 195, 120, 2, 0.631613
133, 1, bw, attraction, a-b-db, 5, 2, 8, 26, 88, 161, 90, 165, 165, 90, 3, 2.44406
133, 1, bw, attraction, a-b-db, 5, 2, 8, 26, 88, 161, 90, 165, 165, 90, 1, 0.58448
133, 1, bw, filler, NA, 999, 999, 8, 27, 90, 71, 126, 70, 70, 110, 2, 1.19089
133, 1, bw, filler, NA, 999, 999, 8, 27, 90, 71, 126, 70, 70, 110, 1, 0.757789
133, 1, bw, attraction, a-b-da, 14, 3, 8, 28, 195, 120, 120, 195, 181, 111, 1, 2.74089
133, 1, bw, attraction, a-b-da, 14, 3, 8, 28, 195, 120, 120, 195, 181, 111, 3, 0.885315
133, 1, bw, attraction, a-b-db, 5, 1, 8, 29, 135, 60, 60, 135, 58, 132, 1, 2.02365
133, 1, bw, attraction, a-b-db, 5, 1, 8, 29, 135, 60, 60, 135, 58, 132, 3, 1.22908
133, 1, bw, filler, NA, 999, 999, 8, 30, 81, 136, 89, 136, 157, 111, 3, 0.985173
133, 1, bw, filler, NA, 999, 999, 8, 30, 81, 136, 89, 136, 157, 111, 1, 0.544947
133, 1, bw, filler, NA, 999, 999, 8, 31, 112, 184, 159, 103, 194, 110, 1, 1.42466
133, 1, bw, filler, NA, 999, 999, 8, 31, 112, 184, 159, 103, 194, 110, 2, 0.478308
133, 1, bw, attraction, a-b-da, 14, 1, 8, 32, 60, 135, 135, 60, 125, 56, 1, 1.98467
133, 1, bw, attraction, a-b-da, 14, 1, 8, 32, 60, 135, 135, 60, 125, 56, 2, 0.840038
133, 1, bw, filler, NA, 999, 999, 8, 33, 60, 182, 145, 137, 163, 107, 3, 3.83577
133, 1, bw, filler, NA, 999, 999, 8, 33, 60, 182, 145, 137, 163, 107, 1, 0.760464
133, 1, bw, filler, NA, 999, 999, 8, 34, 165, 117, 93, 83, 152, 155, 3, 1.55142
133, 1, bw, filler, NA, 999, 999, 8, 34, 165, 117, 93, 83, 152, 155, 2, 0.736399
133, 1, bw, attraction, a-b-da, 5, 1, 8, 35, 60, 135, 135, 60, 132, 58, 1, 2.48081
133, 1, bw, attraction, a-b-da, 5, 1, 8, 35, 60, 135, 135, 60, 132, 58, 3, 0.571869
133, 1, bw, attraction, a-b-db, 14, 1, 8, 36, 135, 60, 60, 135, 56, 125, 1, 1.54691
133, 1, bw, attraction, a-b-db, 14, 1, 8, 36, 135, 60, 60, 135, 56, 125, 3, 0.723897
133, 1, bw, attraction, a-b-db, 2, 3, 8, 37, 119, 193, 195, 120, 120, 195, 1, 0.828202
133, 1, bw, attraction, a-b-db, 2, 3, 8, 37, 119, 193, 195, 120, 120, 195, 3, 0.593916
