sub_n, computer_n, bw_cond, effect, set, distance, diag, block_n, trial_n, h1, w1, h2, w2, h3, w3, choice, rt 
115, 1, bw, practice, NA, 999, 999, 0, 1, 100, 102, 190, 113, 128, 162, 3, 4.49974
115, 1, bw, practice, NA, 999, 999, 0, 1, 100, 102, 190, 113, 128, 162, 1, 6.41168
115, 1, bw, practice, NA, 999, 999, 0, 2, 157, 103, 115, 154, 74, 64, 2, 3.4213
115, 1, bw, practice, NA, 999, 999, 0, 2, 157, 103, 115, 154, 74, 64, 3, 2.24976
115, 1, bw, practice, NA, 999, 999, 0, 3, 71, 193, 76, 58, 78, 146, 1, 3.43424
115, 1, bw, practice, NA, 999, 999, 0, 3, 71, 193, 76, 58, 78, 146, 2, 2.27171
115, 1, bw, catch, NA, 999, 999, 1, 1, 135, 180, 68, 127, 105, 150, 1, 2.0747
115, 1, bw, catch, NA, 999, 999, 1, 1, 135, 180, 68, 127, 105, 150, 2, 1.78192
115, 1, bw, attraction, a-b-db, 5, 3, 1, 2, 195, 120, 117, 190, 120, 195, 3, 9.36414
115, 1, bw, attraction, a-b-db, 5, 3, 1, 2, 195, 120, 117, 190, 120, 195, 2, 1.89776
115, 1, bw, attraction, a-b-db, 14, 3, 1, 3, 195, 120, 111, 181, 120, 195, 3, 4.01105
115, 1, bw, attraction, a-b-db, 14, 3, 1, 3, 195, 120, 111, 181, 120, 195, 2, 1.96041
115, 1, bw, attraction, a-b-db, 2, 1, 1, 4, 135, 60, 60, 135, 59, 134, 1, 5.33506
115, 1, bw, attraction, a-b-db, 2, 1, 1, 4, 135, 60, 60, 135, 59, 134, 3, 1.69532
115, 1, bw, attraction, a-b-da, 2, 1, 1, 5, 135, 60, 134, 59, 60, 135, 1, 5.38473
115, 1, bw, attraction, a-b-da, 2, 1, 1, 5, 135, 60, 134, 59, 60, 135, 3, 1.51905
115, 1, bw, attraction, a-b-da, 9, 1, 1, 6, 60, 135, 135, 60, 129, 57, 2, 4.3279
115, 1, bw, attraction, a-b-da, 9, 1, 1, 6, 60, 135, 135, 60, 129, 57, 1, 1.47239
115, 1, bw, filler, NA, 999, 999, 1, 7, 155, 176, 121, 167, 91, 103, 1, 1.55524
115, 1, bw, filler, NA, 999, 999, 1, 7, 155, 176, 121, 167, 91, 103, 3, 1.24345
115, 1, bw, attraction, a-b-da, 9, 2, 1, 8, 90, 165, 165, 90, 157, 86, 1, 4.90296
115, 1, bw, attraction, a-b-da, 9, 2, 1, 8, 90, 165, 165, 90, 157, 86, 3, 2.39278
115, 1, bw, attraction, a-b-db, 14, 2, 1, 9, 165, 90, 83, 153, 90, 165, 3, 2.90996
115, 1, bw, attraction, a-b-db, 14, 2, 1, 9, 165, 90, 83, 153, 90, 165, 2, 1.37583
115, 1, bw, attraction, a-b-db, 9, 3, 1, 10, 120, 195, 195, 120, 114, 186, 2, 1.93382
115, 1, bw, attraction, a-b-db, 9, 3, 1, 10, 120, 195, 195, 120, 114, 186, 3, 1.60732
115, 1, bw, catch, NA, 999, 999, 1, 11, 161, 154, 96, 159, 131, 64, 1, 2.04405
115, 1, bw, catch, NA, 999, 999, 1, 11, 161, 154, 96, 159, 131, 64, 3, 1.05677
115, 1, bw, filler, NA, 999, 999, 1, 12, 88, 172, 178, 147, 94, 75, 2, 1.4436
115, 1, bw, filler, NA, 999, 999, 1, 12, 88, 172, 178, 147, 94, 75, 3, 0.744434
115, 1, bw, filler, NA, 999, 999, 1, 13, 120, 94, 86, 183, 186, 136, 3, 1.27221
115, 1, bw, filler, NA, 999, 999, 1, 13, 120, 94, 86, 183, 186, 136, 1, 0.987733
115, 1, bw, attraction, a-b-db, 9, 2, 1, 14, 165, 90, 86, 157, 90, 165, 1, 3.962
115, 1, bw, attraction, a-b-db, 9, 2, 1, 14, 165, 90, 86, 157, 90, 165, 2, 0.601437
115, 1, bw, attraction, a-b-da, 2, 2, 1, 15, 165, 90, 163, 89, 90, 165, 2, 3.4072
115, 1, bw, attraction, a-b-da, 2, 2, 1, 15, 165, 90, 163, 89, 90, 165, 3, 0.580807
115, 1, bw, attraction, a-b-db, 9, 1, 1, 16, 57, 129, 135, 60, 60, 135, 2, 6.20325
115, 1, bw, attraction, a-b-db, 9, 1, 1, 16, 57, 129, 135, 60, 60, 135, 1, 0.672591
115, 1, bw, attraction, a-b-db, 14, 1, 1, 17, 135, 60, 56, 125, 60, 135, 1, 3.65976
115, 1, bw, attraction, a-b-db, 14, 1, 1, 17, 135, 60, 56, 125, 60, 135, 2, 0.711071
115, 1, bw, attraction, a-b-da, 5, 3, 1, 18, 195, 120, 190, 117, 120, 195, 1, 2.02424
115, 1, bw, attraction, a-b-da, 5, 3, 1, 18, 195, 120, 190, 117, 120, 195, 2, 1.41359
115, 1, bw, attraction, a-b-da, 5, 1, 1, 19, 135, 60, 60, 135, 132, 58, 1, 3.21845
115, 1, bw, attraction, a-b-da, 5, 1, 1, 19, 135, 60, 60, 135, 132, 58, 2, 0.55999
115, 1, bw, attraction, a-b-db, 5, 1, 1, 20, 58, 132, 60, 135, 135, 60, 3, 1.61516
115, 1, bw, attraction, a-b-db, 5, 1, 1, 20, 58, 132, 60, 135, 135, 60, 1, 1.85323
115, 1, bw, filler, NA, 999, 999, 1, 21, 169, 101, 78, 193, 166, 94, 1, 1.74463
115, 1, bw, filler, NA, 999, 999, 1, 21, 169, 101, 78, 193, 166, 94, 3, 0.817368
115, 1, bw, attraction, a-b-db, 2, 2, 1, 22, 165, 90, 89, 163, 90, 165, 3, 3.47035
115, 1, bw, attraction, a-b-db, 2, 2, 1, 22, 165, 90, 89, 163, 90, 165, 2, 0.625925
115, 1, bw, attraction, a-b-da, 5, 2, 1, 23, 165, 90, 161, 88, 90, 165, 3, 1.39031
115, 1, bw, attraction, a-b-da, 5, 2, 1, 23, 165, 90, 161, 88, 90, 165, 2, 1.34138
115, 1, bw, attraction, a-b-da, 9, 3, 1, 24, 120, 195, 195, 120, 186, 114, 3, 1.141
115, 1, bw, attraction, a-b-da, 9, 3, 1, 24, 120, 195, 195, 120, 186, 114, 2, 0.509651
115, 1, bw, filler, NA, 999, 999, 1, 25, 83, 188, 143, 61, 70, 100, 1, 1.22284
115, 1, bw, filler, NA, 999, 999, 1, 25, 83, 188, 143, 61, 70, 100, 3, 0.724373
115, 1, bw, filler, NA, 999, 999, 1, 26, 105, 73, 190, 95, 73, 144, 2, 1.12481
115, 1, bw, filler, NA, 999, 999, 1, 26, 105, 73, 190, 95, 73, 144, 1, 0.574432
115, 1, bw, attraction, a-b-da, 14, 3, 1, 27, 181, 111, 195, 120, 120, 195, 3, 2.04483
115, 1, bw, attraction, a-b-da, 14, 3, 1, 27, 181, 111, 195, 120, 120, 195, 1, 1.92152
115, 1, bw, filler, NA, 999, 999, 1, 28, 147, 73, 60, 71, 131, 79, 1, 1.64213
115, 1, bw, filler, NA, 999, 999, 1, 28, 147, 73, 60, 71, 131, 79, 2, 0.559004
115, 1, bw, attraction, a-b-da, 14, 2, 1, 29, 165, 90, 90, 165, 153, 83, 2, 1.75007
115, 1, bw, attraction, a-b-da, 14, 2, 1, 29, 165, 90, 90, 165, 153, 83, 3, 0.446807
115, 1, bw, filler, NA, 999, 999, 1, 30, 91, 157, 123, 101, 169, 84, 2, 2.9226
115, 1, bw, filler, NA, 999, 999, 1, 30, 91, 157, 123, 101, 169, 84, 3, 2.44363
115, 1, bw, attraction, a-b-da, 2, 3, 1, 31, 195, 120, 193, 119, 120, 195, 3, 2.57479
115, 1, bw, attraction, a-b-da, 2, 3, 1, 31, 195, 120, 193, 119, 120, 195, 2, 0.797958
115, 1, bw, catch, NA, 999, 999, 1, 32, 195, 120, 131, 64, 94, 161, 3, 1.96379
115, 1, bw, catch, NA, 999, 999, 1, 32, 195, 120, 131, 64, 94, 161, 2, 0.435702
115, 1, bw, filler, NA, 999, 999, 1, 33, 78, 162, 103, 174, 168, 119, 3, 1.36827
115, 1, bw, filler, NA, 999, 999, 1, 33, 78, 162, 103, 174, 168, 119, 1, 0.472435
115, 1, bw, filler, NA, 999, 999, 1, 34, 109, 101, 127, 141, 122, 78, 2, 1.05957
115, 1, bw, filler, NA, 999, 999, 1, 34, 109, 101, 127, 141, 122, 78, 1, 0.439881
115, 1, bw, attraction, a-b-db, 5, 2, 1, 35, 165, 90, 90, 165, 88, 161, 2, 3.02023
115, 1, bw, attraction, a-b-db, 5, 2, 1, 35, 165, 90, 90, 165, 88, 161, 1, 0.458045
115, 1, bw, attraction, a-b-da, 14, 1, 1, 36, 135, 60, 60, 135, 125, 56, 1, 2.73315
115, 1, bw, attraction, a-b-da, 14, 1, 1, 36, 135, 60, 60, 135, 125, 56, 2, 0.470244
115, 1, bw, attraction, a-b-db, 2, 3, 1, 37, 119, 193, 120, 195, 195, 120, 1, 2.51346
115, 1, bw, attraction, a-b-db, 2, 3, 1, 37, 119, 193, 120, 195, 195, 120, 2, 1.06731
115, 1, bw, filler, NA, 999, 999, 2, 1, 85, 155, 137, 65, 114, 141, 3, 1.08612
115, 1, bw, filler, NA, 999, 999, 2, 1, 85, 155, 137, 65, 114, 141, 2, 0.545826
115, 1, bw, attraction, a-b-da, 2, 3, 2, 2, 120, 195, 193, 119, 195, 120, 1, 2.60173
115, 1, bw, attraction, a-b-da, 2, 3, 2, 2, 120, 195, 193, 119, 195, 120, 2, 0.656105
115, 1, bw, attraction, a-b-da, 5, 2, 2, 3, 165, 90, 90, 165, 161, 88, 2, 1.69992
115, 1, bw, attraction, a-b-da, 5, 2, 2, 3, 165, 90, 90, 165, 161, 88, 1, 1.72657
115, 1, bw, attraction, a-b-db, 5, 1, 2, 4, 60, 135, 58, 132, 135, 60, 3, 4.15869
115, 1, bw, attraction, a-b-db, 5, 1, 2, 4, 60, 135, 58, 132, 135, 60, 2, 2.07021
115, 1, bw, filler, NA, 999, 999, 2, 5, 106, 82, 87, 151, 162, 181, 3, 1.14472
115, 1, bw, filler, NA, 999, 999, 2, 5, 106, 82, 87, 151, 162, 181, 1, 0.713757
115, 1, bw, catch, NA, 999, 999, 2, 6, 131, 64, 142, 113, 180, 135, 3, 1.35463
115, 1, bw, catch, NA, 999, 999, 2, 6, 131, 64, 142, 113, 180, 135, 1, 0.483491
115, 1, bw, attraction, a-b-da, 9, 2, 2, 7, 157, 86, 90, 165, 165, 90, 2, 1.44596
115, 1, bw, attraction, a-b-da, 9, 2, 2, 7, 157, 86, 90, 165, 165, 90, 1, 0.466778
115, 1, bw, filler, NA, 999, 999, 2, 8, 112, 162, 63, 86, 115, 68, 1, 0.917947
115, 1, bw, filler, NA, 999, 999, 2, 8, 112, 162, 63, 86, 115, 68, 2, 0.800358
115, 1, bw, attraction, a-b-da, 9, 1, 2, 9, 135, 60, 129, 57, 60, 135, 1, 2.22201
115, 1, bw, attraction, a-b-da, 9, 1, 2, 9, 135, 60, 129, 57, 60, 135, 3, 0.971326
115, 1, bw, attraction, a-b-da, 2, 2, 2, 10, 165, 90, 163, 89, 90, 165, 3, 2.15431
115, 1, bw, attraction, a-b-da, 2, 2, 2, 10, 165, 90, 163, 89, 90, 165, 2, 0.866286
115, 1, bw, filler, NA, 999, 999, 2, 11, 195, 127, 134, 179, 111, 184, 2, 2.41325
115, 1, bw, filler, NA, 999, 999, 2, 11, 195, 127, 134, 179, 111, 184, 3, 0.915103
115, 1, bw, catch, NA, 999, 999, 2, 12, 77, 118, 95, 160, 156, 159, 3, 0.748213
115, 1, bw, catch, NA, 999, 999, 2, 12, 77, 118, 95, 160, 156, 159, 1, 0.397204
115, 1, bw, catch, NA, 999, 999, 2, 13, 124, 71, 151, 104, 169, 146, 3, 0.79505
115, 1, bw, catch, NA, 999, 999, 2, 13, 124, 71, 151, 104, 169, 146, 1, 0.490131
115, 1, bw, attraction, a-b-da, 14, 2, 2, 14, 153, 83, 90, 165, 165, 90, 3, 1.37984
115, 1, bw, attraction, a-b-da, 14, 2, 2, 14, 153, 83, 90, 165, 165, 90, 2, 1.0035
115, 1, bw, attraction, a-b-db, 5, 3, 2, 15, 120, 195, 195, 120, 117, 190, 1, 1.841
115, 1, bw, attraction, a-b-db, 5, 3, 2, 15, 120, 195, 195, 120, 117, 190, 2, 1.56587
115, 1, bw, attraction, a-b-db, 14, 1, 2, 16, 56, 125, 60, 135, 135, 60, 2, 1.46064
115, 1, bw, attraction, a-b-db, 14, 1, 2, 16, 56, 125, 60, 135, 135, 60, 1, 0.880702
115, 1, bw, attraction, a-b-db, 9, 2, 2, 17, 90, 165, 165, 90, 86, 157, 1, 1.85905
115, 1, bw, attraction, a-b-db, 9, 2, 2, 17, 90, 165, 165, 90, 86, 157, 2, 0.671112
115, 1, bw, attraction, a-b-da, 2, 1, 2, 18, 135, 60, 134, 59, 60, 135, 1, 1.57011
115, 1, bw, attraction, a-b-da, 2, 1, 2, 18, 135, 60, 134, 59, 60, 135, 3, 0.954399
115, 1, bw, filler, NA, 999, 999, 2, 19, 91, 152, 98, 127, 61, 189, 1, 2.06601
115, 1, bw, filler, NA, 999, 999, 2, 19, 91, 152, 98, 127, 61, 189, 3, 2.80603
115, 1, bw, attraction, a-b-db, 5, 2, 2, 20, 88, 161, 165, 90, 90, 165, 3, 1.79509
115, 1, bw, attraction, a-b-db, 5, 2, 2, 20, 88, 161, 165, 90, 90, 165, 2, 0.753864
115, 1, bw, attraction, a-b-db, 2, 2, 2, 21, 89, 163, 165, 90, 90, 165, 3, 1.49742
115, 1, bw, attraction, a-b-db, 2, 2, 2, 21, 89, 163, 165, 90, 90, 165, 2, 1.77252
115, 1, bw, filler, NA, 999, 999, 2, 22, 102, 79, 180, 90, 125, 166, 3, 1.19503
115, 1, bw, filler, NA, 999, 999, 2, 22, 102, 79, 180, 90, 125, 166, 1, 0.506145
115, 1, bw, attraction, a-b-da, 14, 1, 2, 23, 60, 135, 135, 60, 125, 56, 1, 3.12382
115, 1, bw, attraction, a-b-da, 14, 1, 2, 23, 60, 135, 135, 60, 125, 56, 3, 0.78086
115, 1, bw, attraction, a-b-db, 2, 3, 2, 24, 120, 195, 195, 120, 119, 193, 2, 3.26713
115, 1, bw, attraction, a-b-db, 2, 3, 2, 24, 120, 195, 195, 120, 119, 193, 3, 0.406734
115, 1, bw, filler, NA, 999, 999, 2, 25, 132, 193, 98, 115, 158, 135, 1, 1.79597
115, 1, bw, filler, NA, 999, 999, 2, 25, 132, 193, 98, 115, 158, 135, 2, 0.466757
115, 1, bw, attraction, a-b-da, 14, 3, 2, 26, 120, 195, 195, 120, 181, 111, 2, 2.62973
115, 1, bw, attraction, a-b-da, 14, 3, 2, 26, 120, 195, 195, 120, 181, 111, 3, 2.53907
115, 1, bw, attraction, a-b-db, 2, 1, 2, 27, 60, 135, 59, 134, 135, 60, 2, 2.18678
115, 1, bw, attraction, a-b-db, 2, 1, 2, 27, 60, 135, 59, 134, 135, 60, 1, 1.05805
115, 1, bw, attraction, a-b-da, 5, 3, 2, 28, 120, 195, 195, 120, 190, 117, 2, 2.34104
115, 1, bw, attraction, a-b-da, 5, 3, 2, 28, 120, 195, 195, 120, 190, 117, 3, 3.54161
115, 1, bw, attraction, a-b-da, 9, 3, 2, 29, 186, 114, 195, 120, 120, 195, 1, 1.8283
115, 1, bw, attraction, a-b-da, 9, 3, 2, 29, 186, 114, 195, 120, 120, 195, 2, 0.785735
115, 1, bw, filler, NA, 999, 999, 2, 30, 166, 68, 90, 141, 102, 62, 2, 2.21626
115, 1, bw, filler, NA, 999, 999, 2, 30, 166, 68, 90, 141, 102, 62, 3, 0.55011
115, 1, bw, attraction, a-b-db, 14, 2, 2, 31, 165, 90, 83, 153, 90, 165, 2, 4.66187
115, 1, bw, attraction, a-b-db, 14, 2, 2, 31, 165, 90, 83, 153, 90, 165, 1, 0.865028
115, 1, bw, attraction, a-b-db, 9, 1, 2, 32, 135, 60, 60, 135, 57, 129, 1, 2.15606
115, 1, bw, attraction, a-b-db, 9, 1, 2, 32, 135, 60, 60, 135, 57, 129, 3, 0.508061
115, 1, bw, attraction, a-b-da, 5, 1, 2, 33, 135, 60, 60, 135, 132, 58, 1, 2.13318
115, 1, bw, attraction, a-b-da, 5, 1, 2, 33, 135, 60, 60, 135, 132, 58, 3, 0.462416
115, 1, bw, attraction, a-b-db, 9, 3, 2, 34, 114, 186, 195, 120, 120, 195, 3, 3.04962
115, 1, bw, attraction, a-b-db, 9, 3, 2, 34, 114, 186, 195, 120, 120, 195, 1, 1.4459
115, 1, bw, filler, NA, 999, 999, 2, 35, 145, 148, 69, 74, 138, 60, 1, 1.36949
115, 1, bw, filler, NA, 999, 999, 2, 35, 145, 148, 69, 74, 138, 60, 2, 0.401706
115, 1, bw, attraction, a-b-db, 14, 3, 2, 36, 111, 181, 195, 120, 120, 195, 3, 2.35147
115, 1, bw, attraction, a-b-db, 14, 3, 2, 36, 111, 181, 195, 120, 120, 195, 2, 0.672155
115, 1, bw, filler, NA, 999, 999, 2, 37, 96, 97, 90, 74, 68, 96, 1, 3.51513
115, 1, bw, filler, NA, 999, 999, 2, 37, 96, 97, 90, 74, 68, 96, 2, 0.524714
115, 1, bw, attraction, a-b-db, 14, 2, 3, 1, 90, 165, 165, 90, 83, 153, 1, 1.71708
115, 1, bw, attraction, a-b-db, 14, 2, 3, 1, 90, 165, 165, 90, 83, 153, 3, 0.471177
115, 1, bw, attraction, a-b-db, 9, 3, 3, 2, 120, 195, 114, 186, 195, 120, 3, 1.54644
115, 1, bw, attraction, a-b-db, 9, 3, 3, 2, 120, 195, 114, 186, 195, 120, 2, 0.48309
115, 1, bw, filler, NA, 999, 999, 3, 3, 71, 67, 104, 91, 187, 69, 3, 1.1575
115, 1, bw, filler, NA, 999, 999, 3, 3, 71, 67, 104, 91, 187, 69, 1, 0.541918
115, 1, bw, attraction, a-b-da, 5, 3, 3, 4, 190, 117, 120, 195, 195, 120, 2, 1.98955
115, 1, bw, attraction, a-b-da, 5, 3, 3, 4, 190, 117, 120, 195, 195, 120, 1, 0.55631
115, 1, bw, catch, NA, 999, 999, 3, 5, 99, 156, 140, 175, 80, 115, 2, 2.91622
115, 1, bw, catch, NA, 999, 999, 3, 5, 99, 156, 140, 175, 80, 115, 3, 0.517845
115, 1, bw, catch, NA, 999, 999, 3, 6, 151, 164, 137, 118, 90, 105, 1, 1.51892
115, 1, bw, catch, NA, 999, 999, 3, 6, 151, 164, 137, 118, 90, 105, 3, 0.553131
115, 1, bw, filler, NA, 999, 999, 3, 7, 75, 90, 56, 69, 131, 120, 3, 0.768829
115, 1, bw, filler, NA, 999, 999, 3, 7, 75, 90, 56, 69, 131, 120, 2, 0.465264
115, 1, bw, filler, NA, 999, 999, 3, 8, 142, 112, 171, 163, 147, 86, 2, 0.860435
115, 1, bw, filler, NA, 999, 999, 3, 8, 142, 112, 171, 163, 147, 86, 1, 1.24078
115, 1, bw, attraction, a-b-da, 5, 2, 3, 9, 161, 88, 90, 165, 165, 90, 2, 1.50027
115, 1, bw, attraction, a-b-da, 5, 2, 3, 9, 161, 88, 90, 165, 165, 90, 1, 0.52729
115, 1, bw, attraction, a-b-db, 9, 1, 3, 10, 57, 129, 135, 60, 60, 135, 3, 1.37549
115, 1, bw, attraction, a-b-db, 9, 1, 3, 10, 57, 129, 135, 60, 60, 135, 2, 1.32724
115, 1, bw, attraction, a-b-db, 2, 1, 3, 11, 60, 135, 59, 134, 135, 60, 3, 1.48752
115, 1, bw, attraction, a-b-db, 2, 1, 3, 11, 60, 135, 59, 134, 135, 60, 2, 0.474846
115, 1, bw, attraction, a-b-db, 5, 2, 3, 12, 90, 165, 88, 161, 165, 90, 3, 1.24536
115, 1, bw, attraction, a-b-db, 5, 2, 3, 12, 90, 165, 88, 161, 165, 90, 2, 0.434216
115, 1, bw, attraction, a-b-da, 9, 2, 3, 13, 165, 90, 157, 86, 90, 165, 1, 2.01471
115, 1, bw, attraction, a-b-da, 9, 2, 3, 13, 165, 90, 157, 86, 90, 165, 2, 0.516677
115, 1, bw, attraction, a-b-da, 14, 3, 3, 14, 195, 120, 181, 111, 120, 195, 3, 1.42984
115, 1, bw, attraction, a-b-da, 14, 3, 3, 14, 195, 120, 181, 111, 120, 195, 2, 1.3874
115, 1, bw, attraction, a-b-db, 14, 3, 3, 15, 195, 120, 120, 195, 111, 181, 1, 1.9215
115, 1, bw, attraction, a-b-db, 14, 3, 3, 15, 195, 120, 120, 195, 111, 181, 3, 0.427607
115, 1, bw, filler, NA, 999, 999, 3, 16, 110, 181, 68, 168, 140, 150, 3, 1.92813
115, 1, bw, filler, NA, 999, 999, 3, 16, 110, 181, 68, 168, 140, 150, 2, 0.44155
115, 1, bw, filler, NA, 999, 999, 3, 17, 166, 168, 95, 113, 142, 180, 1, 1.10115
115, 1, bw, filler, NA, 999, 999, 3, 17, 166, 168, 95, 113, 142, 180, 2, 0.824246
115, 1, bw, catch, NA, 999, 999, 3, 18, 180, 135, 152, 103, 116, 79, 1, 0.82851
115, 1, bw, catch, NA, 999, 999, 3, 18, 180, 135, 152, 103, 116, 79, 3, 0.442319
115, 1, bw, attraction, a-b-da, 9, 3, 3, 19, 195, 120, 120, 195, 186, 114, 3, 1.00598
115, 1, bw, attraction, a-b-da, 9, 3, 3, 19, 195, 120, 120, 195, 186, 114, 1, 0.332348
115, 1, bw, attraction, a-b-da, 2, 3, 3, 20, 195, 120, 193, 119, 120, 195, 1, 1.10888
115, 1, bw, attraction, a-b-da, 2, 3, 3, 20, 195, 120, 193, 119, 120, 195, 3, 0.44726
115, 1, bw, attraction, a-b-da, 2, 1, 3, 21, 134, 59, 135, 60, 60, 135, 1, 2.85092
115, 1, bw, attraction, a-b-da, 2, 1, 3, 21, 134, 59, 135, 60, 60, 135, 3, 0.495365
115, 1, bw, attraction, a-b-db, 2, 2, 3, 22, 165, 90, 89, 163, 90, 165, 3, 1.09719
115, 1, bw, attraction, a-b-db, 2, 2, 3, 22, 165, 90, 89, 163, 90, 165, 2, 0.660054
115, 1, bw, attraction, a-b-da, 9, 1, 3, 23, 129, 57, 60, 135, 135, 60, 2, 1.55116
115, 1, bw, attraction, a-b-da, 9, 1, 3, 23, 129, 57, 60, 135, 135, 60, 1, 0.76804
115, 1, bw, attraction, a-b-db, 2, 3, 3, 24, 195, 120, 120, 195, 119, 193, 1, 0.799125
115, 1, bw, attraction, a-b-db, 2, 3, 3, 24, 195, 120, 120, 195, 119, 193, 3, 0.830141
115, 1, bw, filler, NA, 999, 999, 3, 25, 57, 112, 158, 99, 191, 165, 3, 0.810477
115, 1, bw, filler, NA, 999, 999, 3, 25, 57, 112, 158, 99, 191, 165, 1, 0.392863
115, 1, bw, attraction, a-b-da, 14, 1, 3, 26, 135, 60, 125, 56, 60, 135, 1, 1.67875
115, 1, bw, attraction, a-b-da, 14, 1, 3, 26, 135, 60, 125, 56, 60, 135, 3, 0.602205
115, 1, bw, attraction, a-b-da, 14, 2, 3, 27, 90, 165, 153, 83, 165, 90, 3, 1.26399
115, 1, bw, attraction, a-b-da, 14, 2, 3, 27, 90, 165, 153, 83, 165, 90, 2, 0.372087
115, 1, bw, filler, NA, 999, 999, 3, 28, 171, 177, 72, 167, 84, 129, 1, 0.843273
115, 1, bw, filler, NA, 999, 999, 3, 28, 171, 177, 72, 167, 84, 129, 3, 0.40037
115, 1, bw, filler, NA, 999, 999, 3, 29, 93, 162, 144, 106, 81, 157, 2, 1.19015
115, 1, bw, filler, NA, 999, 999, 3, 29, 93, 162, 144, 106, 81, 157, 3, 0.613063
115, 1, bw, attraction, a-b-da, 2, 2, 3, 30, 90, 165, 165, 90, 163, 89, 3, 1.67421
115, 1, bw, attraction, a-b-da, 2, 2, 3, 30, 90, 165, 165, 90, 163, 89, 1, 0.621611
115, 1, bw, attraction, a-b-db, 14, 1, 3, 31, 135, 60, 60, 135, 56, 125, 2, 1.65068
115, 1, bw, attraction, a-b-db, 14, 1, 3, 31, 135, 60, 60, 135, 56, 125, 3, 1.07952
115, 1, bw, attraction, a-b-db, 5, 3, 3, 32, 195, 120, 117, 190, 120, 195, 3, 0.689676
115, 1, bw, attraction, a-b-db, 5, 3, 3, 32, 195, 120, 117, 190, 120, 195, 1, 0.748785
115, 1, bw, attraction, a-b-db, 9, 2, 3, 33, 86, 157, 165, 90, 90, 165, 3, 1.04449
115, 1, bw, attraction, a-b-db, 9, 2, 3, 33, 86, 157, 165, 90, 90, 165, 1, 0.489517
115, 1, bw, filler, NA, 999, 999, 3, 34, 117, 151, 149, 137, 162, 83, 2, 0.884057
115, 1, bw, filler, NA, 999, 999, 3, 34, 117, 151, 149, 137, 162, 83, 3, 0.607871
115, 1, bw, attraction, a-b-da, 5, 1, 3, 35, 132, 58, 135, 60, 60, 135, 3, 0.948712
115, 1, bw, attraction, a-b-da, 5, 1, 3, 35, 132, 58, 135, 60, 60, 135, 2, 0.397674
115, 1, bw, attraction, a-b-db, 5, 1, 3, 36, 60, 135, 135, 60, 58, 132, 1, 1.49975
115, 1, bw, attraction, a-b-db, 5, 1, 3, 36, 60, 135, 135, 60, 58, 132, 2, 0.862519
115, 1, bw, filler, NA, 999, 999, 3, 37, 92, 175, 168, 154, 81, 60, 2, 1.08942
115, 1, bw, filler, NA, 999, 999, 3, 37, 92, 175, 168, 154, 81, 60, 3, 0.644503
115, 1, bw, catch, NA, 999, 999, 4, 1, 144, 171, 127, 128, 101, 94, 1, 0.760189
115, 1, bw, catch, NA, 999, 999, 4, 1, 144, 171, 127, 128, 101, 94, 3, 0.408571
115, 1, bw, attraction, a-b-db, 2, 3, 4, 2, 195, 120, 119, 193, 120, 195, 3, 0.85369
115, 1, bw, attraction, a-b-db, 2, 3, 4, 2, 195, 120, 119, 193, 120, 195, 2, 0.690719
115, 1, bw, filler, NA, 999, 999, 4, 3, 167, 82, 91, 157, 59, 154, 2, 2.00448
115, 1, bw, filler, NA, 999, 999, 4, 3, 167, 82, 91, 157, 59, 154, 3, 0.875082
115, 1, bw, filler, NA, 999, 999, 4, 4, 150, 149, 74, 98, 115, 159, 1, 1.51741
115, 1, bw, filler, NA, 999, 999, 4, 4, 150, 149, 74, 98, 115, 159, 2, 0.471589
115, 1, bw, attraction, a-b-da, 9, 2, 4, 5, 157, 86, 165, 90, 90, 165, 2, 1.0347
115, 1, bw, attraction, a-b-da, 9, 2, 4, 5, 157, 86, 165, 90, 90, 165, 1, 0.384356
115, 1, bw, filler, NA, 999, 999, 4, 6, 169, 107, 155, 166, 124, 185, 2, 0.758932
115, 1, bw, filler, NA, 999, 999, 4, 6, 169, 107, 155, 166, 124, 185, 1, 0.59935
115, 1, bw, filler, NA, 999, 999, 4, 7, 65, 136, 175, 83, 179, 111, 3, 0.676984
115, 1, bw, filler, NA, 999, 999, 4, 7, 65, 136, 175, 83, 179, 111, 1, 0.800829
115, 1, bw, filler, NA, 999, 999, 4, 8, 166, 84, 120, 166, 110, 127, 2, 0.782512
115, 1, bw, filler, NA, 999, 999, 4, 8, 166, 84, 120, 166, 110, 127, 3, 0.534348
115, 1, bw, attraction, a-b-db, 9, 1, 4, 9, 135, 60, 57, 129, 60, 135, 1, 5.91885
115, 1, bw, attraction, a-b-db, 9, 1, 4, 9, 135, 60, 57, 129, 60, 135, 3, 0.503545
115, 1, bw, filler, NA, 999, 999, 4, 10, 174, 166, 124, 187, 124, 184, 1, 1.96923
115, 1, bw, filler, NA, 999, 999, 4, 10, 174, 166, 124, 187, 124, 184, 2, 2.03323
115, 1, bw, attraction, a-b-db, 5, 3, 4, 11, 117, 190, 195, 120, 120, 195, 3, 0.909217
115, 1, bw, attraction, a-b-db, 5, 3, 4, 11, 117, 190, 195, 120, 120, 195, 1, 1.18388
115, 1, bw, attraction, a-b-da, 5, 1, 4, 12, 135, 60, 132, 58, 60, 135, 2, 2.74193
115, 1, bw, attraction, a-b-da, 5, 1, 4, 12, 135, 60, 132, 58, 60, 135, 3, 0.558249
115, 1, bw, attraction, a-b-db, 9, 2, 4, 13, 90, 165, 86, 157, 165, 90, 3, 2.09335
115, 1, bw, attraction, a-b-db, 9, 2, 4, 13, 90, 165, 86, 157, 165, 90, 2, 0.53603
115, 1, bw, filler, NA, 999, 999, 4, 14, 119, 79, 161, 138, 139, 94, 2, 0.8326
115, 1, bw, filler, NA, 999, 999, 4, 14, 119, 79, 161, 138, 139, 94, 1, 0.374252
115, 1, bw, filler, NA, 999, 999, 4, 15, 144, 95, 141, 190, 138, 177, 2, 1.13273
115, 1, bw, filler, NA, 999, 999, 4, 15, 144, 95, 141, 190, 138, 177, 1, 0.550267
115, 1, bw, attraction, a-b-da, 9, 1, 4, 16, 60, 135, 129, 57, 135, 60, 2, 1.31811
115, 1, bw, attraction, a-b-da, 9, 1, 4, 16, 60, 135, 129, 57, 135, 60, 1, 0.36826
115, 1, bw, attraction, a-b-da, 9, 3, 4, 17, 195, 120, 120, 195, 186, 114, 1, 1.32753
115, 1, bw, attraction, a-b-da, 9, 3, 4, 17, 195, 120, 120, 195, 186, 114, 3, 0.777043
115, 1, bw, attraction, a-b-db, 9, 3, 4, 18, 195, 120, 120, 195, 114, 186, 2, 0.807466
115, 1, bw, attraction, a-b-db, 9, 3, 4, 18, 195, 120, 120, 195, 114, 186, 3, 0.357787
115, 1, bw, attraction, a-b-db, 2, 1, 4, 19, 59, 134, 60, 135, 135, 60, 3, 1.101
115, 1, bw, attraction, a-b-db, 2, 1, 4, 19, 59, 134, 60, 135, 135, 60, 1, 0.479924
115, 1, bw, attraction, a-b-da, 14, 3, 4, 20, 195, 120, 181, 111, 120, 195, 3, 1.01038
115, 1, bw, attraction, a-b-da, 14, 3, 4, 20, 195, 120, 181, 111, 120, 195, 2, 0.488778
115, 1, bw, attraction, a-b-db, 14, 3, 4, 21, 120, 195, 111, 181, 195, 120, 3, 1.33917
115, 1, bw, attraction, a-b-db, 14, 3, 4, 21, 120, 195, 111, 181, 195, 120, 2, 0.388037
115, 1, bw, attraction, a-b-da, 14, 2, 4, 22, 90, 165, 153, 83, 165, 90, 3, 1.04254
115, 1, bw, attraction, a-b-da, 14, 2, 4, 22, 90, 165, 153, 83, 165, 90, 2, 0.447441
115, 1, bw, attraction, a-b-da, 5, 2, 4, 23, 161, 88, 90, 165, 165, 90, 2, 1.15532
115, 1, bw, attraction, a-b-da, 5, 2, 4, 23, 161, 88, 90, 165, 165, 90, 1, 0.339548
115, 1, bw, attraction, a-b-da, 14, 1, 4, 24, 135, 60, 125, 56, 60, 135, 1, 2.38809
115, 1, bw, attraction, a-b-da, 14, 1, 4, 24, 135, 60, 125, 56, 60, 135, 2, 0.507432
115, 1, bw, attraction, a-b-db, 5, 2, 4, 25, 165, 90, 88, 161, 90, 165, 3, 1.62046
115, 1, bw, attraction, a-b-db, 5, 2, 4, 25, 165, 90, 88, 161, 90, 165, 2, 0.49868
115, 1, bw, attraction, a-b-da, 5, 3, 4, 26, 120, 195, 195, 120, 190, 117, 2, 1.1164
115, 1, bw, attraction, a-b-da, 5, 3, 4, 26, 120, 195, 195, 120, 190, 117, 1, 0.454649
115, 1, bw, catch, NA, 999, 999, 4, 27, 119, 136, 116, 79, 174, 141, 3, 0.81869
115, 1, bw, catch, NA, 999, 999, 4, 27, 119, 136, 116, 79, 174, 141, 2, 0.42487
115, 1, bw, filler, NA, 999, 999, 4, 28, 104, 122, 171, 137, 181, 81, 2, 0.957265
115, 1, bw, filler, NA, 999, 999, 4, 28, 104, 122, 171, 137, 181, 81, 3, 0.365683
115, 1, bw, filler, NA, 999, 999, 4, 29, 66, 175, 148, 73, 71, 157, 1, 1.42087
115, 1, bw, filler, NA, 999, 999, 4, 29, 66, 175, 148, 73, 71, 157, 3, 0.643003
115, 1, bw, attraction, a-b-da, 2, 3, 4, 30, 120, 195, 195, 120, 193, 119, 3, 0.846735
115, 1, bw, attraction, a-b-da, 2, 3, 4, 30, 120, 195, 195, 120, 193, 119, 2, 0.467818
115, 1, bw, attraction, a-b-db, 14, 2, 4, 31, 90, 165, 83, 153, 165, 90, 2, 1.01509
115, 1, bw, attraction, a-b-db, 14, 2, 4, 31, 90, 165, 83, 153, 165, 90, 3, 1.10138
115, 1, bw, attraction, a-b-db, 14, 1, 4, 32, 60, 135, 56, 125, 135, 60, 2, 0.926755
115, 1, bw, attraction, a-b-db, 14, 1, 4, 32, 60, 135, 56, 125, 135, 60, 3, 0.392588
115, 1, bw, catch, NA, 999, 999, 4, 33, 170, 145, 165, 90, 94, 101, 2, 0.654351
115, 1, bw, catch, NA, 999, 999, 4, 33, 170, 145, 165, 90, 94, 101, 3, 0.49083
115, 1, bw, attraction, a-b-da, 2, 2, 4, 34, 90, 165, 163, 89, 165, 90, 2, 1.18872
115, 1, bw, attraction, a-b-da, 2, 2, 4, 34, 90, 165, 163, 89, 165, 90, 1, 0.299521
115, 1, bw, attraction, a-b-da, 2, 1, 4, 35, 60, 135, 134, 59, 135, 60, 3, 1.36545
115, 1, bw, attraction, a-b-da, 2, 1, 4, 35, 60, 135, 134, 59, 135, 60, 2, 0.429552
115, 1, bw, attraction, a-b-db, 5, 1, 4, 36, 60, 135, 135, 60, 58, 132, 2, 0.969974
115, 1, bw, attraction, a-b-db, 5, 1, 4, 36, 60, 135, 135, 60, 58, 132, 3, 0.346403
115, 1, bw, attraction, a-b-db, 2, 2, 4, 37, 89, 163, 165, 90, 90, 165, 1, 1.5702
115, 1, bw, attraction, a-b-db, 2, 2, 4, 37, 89, 163, 165, 90, 90, 165, 3, 1.19444
115, 1, bw, attraction, a-b-da, 9, 2, 5, 1, 90, 165, 157, 86, 165, 90, 3, 2.79858
115, 1, bw, attraction, a-b-da, 9, 2, 5, 1, 90, 165, 157, 86, 165, 90, 2, 0.788982
115, 1, bw, catch, NA, 999, 999, 5, 2, 121, 74, 141, 114, 141, 174, 3, 0.675343
115, 1, bw, catch, NA, 999, 999, 5, 2, 121, 74, 141, 114, 141, 174, 1, 1.0391
115, 1, bw, attraction, a-b-da, 14, 2, 5, 3, 153, 83, 90, 165, 165, 90, 2, 1.24345
115, 1, bw, attraction, a-b-da, 14, 2, 5, 3, 153, 83, 90, 165, 165, 90, 1, 0.704421
115, 1, bw, attraction, a-b-db, 2, 2, 5, 4, 90, 165, 89, 163, 165, 90, 3, 1.16198
115, 1, bw, attraction, a-b-db, 2, 2, 5, 4, 90, 165, 89, 163, 165, 90, 2, 0.698282
115, 1, bw, attraction, a-b-da, 14, 3, 5, 5, 195, 120, 120, 195, 181, 111, 2, 0.756092
115, 1, bw, attraction, a-b-da, 14, 3, 5, 5, 195, 120, 120, 195, 181, 111, 3, 0.35639
115, 1, bw, filler, NA, 999, 999, 5, 6, 139, 175, 162, 143, 65, 90, 2, 0.772198
115, 1, bw, filler, NA, 999, 999, 5, 6, 139, 175, 162, 143, 65, 90, 3, 0.436051
115, 1, bw, attraction, a-b-db, 9, 2, 5, 7, 165, 90, 90, 165, 86, 157, 3, 0.776448
115, 1, bw, attraction, a-b-db, 9, 2, 5, 7, 165, 90, 90, 165, 86, 157, 2, 0.408403
115, 1, bw, attraction, a-b-db, 14, 2, 5, 8, 90, 165, 83, 153, 165, 90, 2, 1.62125
115, 1, bw, attraction, a-b-db, 14, 2, 5, 8, 90, 165, 83, 153, 165, 90, 3, 0.435562
115, 1, bw, attraction, a-b-da, 5, 3, 5, 9, 190, 117, 120, 195, 195, 120, 3, 2.36802
115, 1, bw, attraction, a-b-da, 5, 3, 5, 9, 190, 117, 120, 195, 195, 120, 2, 0.343847
115, 1, bw, attraction, a-b-da, 2, 3, 5, 10, 195, 120, 120, 195, 193, 119, 2, 1.6877
115, 1, bw, attraction, a-b-da, 2, 3, 5, 10, 195, 120, 120, 195, 193, 119, 3, 0.547255
115, 1, bw, attraction, a-b-db, 5, 1, 5, 11, 58, 132, 60, 135, 135, 60, 2, 1.58711
115, 1, bw, attraction, a-b-db, 5, 1, 5, 11, 58, 132, 60, 135, 135, 60, 1, 0.850384
115, 1, bw, filler, NA, 999, 999, 5, 12, 185, 84, 67, 194, 187, 66, 1, 1.71805
115, 1, bw, filler, NA, 999, 999, 5, 12, 185, 84, 67, 194, 187, 66, 3, 0.632142
115, 1, bw, filler, NA, 999, 999, 5, 13, 87, 119, 59, 151, 100, 88, 2, 1.58857
115, 1, bw, filler, NA, 999, 999, 5, 13, 87, 119, 59, 151, 100, 88, 3, 0.715386
115, 1, bw, attraction, a-b-db, 14, 3, 5, 14, 120, 195, 111, 181, 195, 120, 3, 1.97248
115, 1, bw, attraction, a-b-db, 14, 3, 5, 14, 120, 195, 111, 181, 195, 120, 2, 0.379706
115, 1, bw, attraction, a-b-da, 2, 1, 5, 15, 135, 60, 60, 135, 134, 59, 2, 1.3544
115, 1, bw, attraction, a-b-da, 2, 1, 5, 15, 135, 60, 60, 135, 134, 59, 1, 0.634557
115, 1, bw, attraction, a-b-db, 9, 1, 5, 16, 135, 60, 57, 129, 60, 135, 1, 1.8469
115, 1, bw, attraction, a-b-db, 9, 1, 5, 16, 135, 60, 57, 129, 60, 135, 2, 0.57166
115, 1, bw, attraction, a-b-da, 5, 1, 5, 17, 132, 58, 135, 60, 60, 135, 2, 1.23477
115, 1, bw, attraction, a-b-da, 5, 1, 5, 17, 132, 58, 135, 60, 60, 135, 3, 0.696365
115, 1, bw, attraction, a-b-db, 5, 3, 5, 18, 120, 195, 117, 190, 195, 120, 3, 1.18597
115, 1, bw, attraction, a-b-db, 5, 3, 5, 18, 120, 195, 117, 190, 195, 120, 2, 0.449588
115, 1, bw, attraction, a-b-db, 9, 3, 5, 19, 195, 120, 120, 195, 114, 186, 1, 1.23741
115, 1, bw, attraction, a-b-db, 9, 3, 5, 19, 195, 120, 120, 195, 114, 186, 3, 0.667012
115, 1, bw, catch, NA, 999, 999, 5, 20, 68, 127, 146, 109, 149, 166, 3, 0.702113
115, 1, bw, catch, NA, 999, 999, 5, 20, 68, 127, 146, 109, 149, 166, 1, 1.07333
115, 1, bw, attraction, a-b-db, 5, 2, 5, 21, 165, 90, 88, 161, 90, 165, 1, 0.755462
115, 1, bw, attraction, a-b-db, 5, 2, 5, 21, 165, 90, 88, 161, 90, 165, 2, 0.411879
115, 1, bw, attraction, a-b-da, 9, 1, 5, 22, 60, 135, 135, 60, 129, 57, 2, 1.67296
115, 1, bw, attraction, a-b-da, 9, 1, 5, 22, 60, 135, 135, 60, 129, 57, 1, 0.508366
115, 1, bw, attraction, a-b-db, 14, 1, 5, 23, 135, 60, 60, 135, 56, 125, 1, 1.29357
115, 1, bw, attraction, a-b-db, 14, 1, 5, 23, 135, 60, 60, 135, 56, 125, 2, 0.424485
115, 1, bw, filler, NA, 999, 999, 5, 24, 143, 127, 140, 60, 160, 62, 1, 0.844912
115, 1, bw, filler, NA, 999, 999, 5, 24, 143, 127, 140, 60, 160, 62, 2, 0.393939
115, 1, bw, attraction, a-b-db, 2, 3, 5, 25, 195, 120, 120, 195, 119, 193, 1, 1.09582
115, 1, bw, attraction, a-b-db, 2, 3, 5, 25, 195, 120, 120, 195, 119, 193, 2, 0.874851
115, 1, bw, filler, NA, 999, 999, 5, 26, 70, 103, 119, 144, 66, 103, 2, 0.71703
115, 1, bw, filler, NA, 999, 999, 5, 26, 70, 103, 119, 144, 66, 103, 1, 0.615497
115, 1, bw, filler, NA, 999, 999, 5, 27, 195, 123, 96, 144, 84, 124, 1, 0.804639
115, 1, bw, filler, NA, 999, 999, 5, 27, 195, 123, 96, 144, 84, 124, 3, 0.635753
115, 1, bw, filler, NA, 999, 999, 5, 28, 65, 154, 173, 183, 92, 126, 2, 0.68012
115, 1, bw, filler, NA, 999, 999, 5, 28, 65, 154, 173, 183, 92, 126, 1, 0.579922
115, 1, bw, attraction, a-b-da, 2, 2, 5, 29, 163, 89, 90, 165, 165, 90, 1, 1.17022
115, 1, bw, attraction, a-b-da, 2, 2, 5, 29, 163, 89, 90, 165, 165, 90, 2, 0.46651
115, 1, bw, attraction, a-b-da, 14, 1, 5, 30, 125, 56, 135, 60, 60, 135, 2, 1.6217
115, 1, bw, attraction, a-b-da, 14, 1, 5, 30, 125, 56, 135, 60, 60, 135, 3, 0.587189
115, 1, bw, catch, NA, 999, 999, 5, 31, 149, 166, 119, 76, 137, 118, 1, 0.889593
115, 1, bw, catch, NA, 999, 999, 5, 31, 149, 166, 119, 76, 137, 118, 2, 0.732591
115, 1, bw, filler, NA, 999, 999, 5, 32, 191, 79, 135, 100, 153, 182, 3, 0.72491
115, 1, bw, filler, NA, 999, 999, 5, 32, 191, 79, 135, 100, 153, 182, 2, 1.27865
115, 1, bw, attraction, a-b-da, 9, 3, 5, 33, 186, 114, 195, 120, 120, 195, 3, 1.43284
115, 1, bw, attraction, a-b-da, 9, 3, 5, 33, 186, 114, 195, 120, 120, 195, 2, 0.790429
115, 1, bw, filler, NA, 999, 999, 5, 34, 108, 65, 195, 79, 160, 60, 2, 0.668185
115, 1, bw, filler, NA, 999, 999, 5, 34, 108, 65, 195, 79, 160, 60, 1, 0.600681
115, 1, bw, attraction, a-b-da, 5, 2, 5, 35, 161, 88, 165, 90, 90, 165, 1, 0.974334
115, 1, bw, attraction, a-b-da, 5, 2, 5, 35, 161, 88, 165, 90, 90, 165, 3, 1.49396
115, 1, bw, attraction, a-b-db, 2, 1, 5, 36, 60, 135, 59, 134, 135, 60, 3, 1.16754
115, 1, bw, attraction, a-b-db, 2, 1, 5, 36, 60, 135, 59, 134, 135, 60, 2, 0.415675
115, 1, bw, filler, NA, 999, 999, 5, 37, 56, 123, 143, 109, 92, 102, 2, 0.860926
115, 1, bw, filler, NA, 999, 999, 5, 37, 56, 123, 143, 109, 92, 102, 1, 0.68124
115, 1, bw, attraction, a-b-db, 9, 3, 6, 1, 120, 195, 195, 120, 114, 186, 1, 1.83565
115, 1, bw, attraction, a-b-db, 9, 3, 6, 1, 120, 195, 195, 120, 114, 186, 2, 0.769106
115, 1, bw, filler, NA, 999, 999, 6, 2, 180, 154, 70, 176, 102, 150, 1, 0.848017
115, 1, bw, filler, NA, 999, 999, 6, 2, 180, 154, 70, 176, 102, 150, 3, 0.597173
115, 1, bw, attraction, a-b-da, 14, 1, 6, 3, 125, 56, 60, 135, 135, 60, 3, 1.49885
115, 1, bw, attraction, a-b-da, 14, 1, 6, 3, 125, 56, 60, 135, 135, 60, 1, 0.509715
115, 1, bw, filler, NA, 999, 999, 6, 4, 130, 176, 130, 137, 159, 123, 1, 0.798814
115, 1, bw, filler, NA, 999, 999, 6, 4, 130, 176, 130, 137, 159, 123, 2, 0.381871
115, 1, bw, attraction, a-b-db, 9, 2, 6, 5, 90, 165, 165, 90, 86, 157, 2, 1.41242
115, 1, bw, attraction, a-b-db, 9, 2, 6, 5, 90, 165, 165, 90, 86, 157, 3, 0.474585
115, 1, bw, attraction, a-b-db, 5, 3, 6, 6, 117, 190, 195, 120, 120, 195, 3, 1.00513
115, 1, bw, attraction, a-b-db, 5, 3, 6, 6, 117, 190, 195, 120, 120, 195, 2, 0.795356
115, 1, bw, attraction, a-b-db, 5, 2, 6, 7, 88, 161, 165, 90, 90, 165, 3, 1.78512
115, 1, bw, attraction, a-b-db, 5, 2, 6, 7, 88, 161, 165, 90, 90, 165, 1, 0.808494
115, 1, bw, attraction, a-b-db, 5, 1, 6, 8, 58, 132, 135, 60, 60, 135, 2, 1.63752
115, 1, bw, attraction, a-b-db, 5, 1, 6, 8, 58, 132, 135, 60, 60, 135, 3, 0.483084
115, 1, bw, attraction, a-b-da, 5, 3, 6, 9, 190, 117, 195, 120, 120, 195, 3, 0.917431
115, 1, bw, attraction, a-b-da, 5, 3, 6, 9, 190, 117, 195, 120, 120, 195, 2, 0.327748
115, 1, bw, filler, NA, 999, 999, 6, 10, 77, 69, 170, 177, 78, 73, 2, 0.8644
115, 1, bw, filler, NA, 999, 999, 6, 10, 77, 69, 170, 177, 78, 73, 1, 0.644794
115, 1, bw, attraction, a-b-da, 5, 1, 6, 11, 60, 135, 135, 60, 132, 58, 3, 1.16055
115, 1, bw, attraction, a-b-da, 5, 1, 6, 11, 60, 135, 135, 60, 132, 58, 1, 0.768711
115, 1, bw, catch, NA, 999, 999, 6, 12, 124, 191, 81, 114, 94, 161, 1, 0.855844
115, 1, bw, catch, NA, 999, 999, 6, 12, 124, 191, 81, 114, 94, 161, 2, 0.348009
115, 1, bw, attraction, a-b-da, 9, 3, 6, 13, 120, 195, 195, 120, 186, 114, 2, 1.25981
115, 1, bw, attraction, a-b-da, 9, 3, 6, 13, 120, 195, 195, 120, 186, 114, 1, 0.912367
115, 1, bw, attraction, a-b-da, 9, 1, 6, 14, 60, 135, 129, 57, 135, 60, 3, 0.897117
115, 1, bw, attraction, a-b-da, 9, 1, 6, 14, 60, 135, 129, 57, 135, 60, 1, 0.652132
115, 1, bw, attraction, a-b-da, 2, 2, 6, 15, 163, 89, 90, 165, 165, 90, 2, 1.9199
115, 1, bw, attraction, a-b-da, 2, 2, 6, 15, 163, 89, 90, 165, 165, 90, 3, 0.650118
115, 1, bw, attraction, a-b-db, 2, 1, 6, 16, 135, 60, 60, 135, 59, 134, 2, 1.13372
115, 1, bw, attraction, a-b-db, 2, 1, 6, 16, 135, 60, 60, 135, 59, 134, 3, 0.687315
115, 1, bw, attraction, a-b-da, 2, 3, 6, 17, 195, 120, 193, 119, 120, 195, 3, 0.993637
115, 1, bw, attraction, a-b-da, 2, 3, 6, 17, 195, 120, 193, 119, 120, 195, 2, 0.64862
115, 1, bw, filler, NA, 999, 999, 6, 18, 179, 115, 149, 131, 188, 78, 1, 1.09241
115, 1, bw, filler, NA, 999, 999, 6, 18, 179, 115, 149, 131, 188, 78, 2, 1.02337
115, 1, bw, attraction, a-b-da, 9, 2, 6, 19, 165, 90, 90, 165, 157, 86, 2, 1.08372
115, 1, bw, attraction, a-b-da, 9, 2, 6, 19, 165, 90, 90, 165, 157, 86, 3, 0.95139
115, 1, bw, attraction, a-b-db, 2, 2, 6, 20, 165, 90, 90, 165, 89, 163, 2, 2.83102
115, 1, bw, attraction, a-b-db, 2, 2, 6, 20, 165, 90, 90, 165, 89, 163, 3, 0.612056
115, 1, bw, filler, NA, 999, 999, 6, 21, 144, 129, 101, 176, 133, 147, 3, 1.90509
115, 1, bw, filler, NA, 999, 999, 6, 21, 144, 129, 101, 176, 133, 147, 1, 1.13993
115, 1, bw, attraction, a-b-da, 2, 1, 6, 22, 134, 59, 135, 60, 60, 135, 1, 1.7161
115, 1, bw, attraction, a-b-da, 2, 1, 6, 22, 134, 59, 135, 60, 60, 135, 3, 0.550193
115, 1, bw, attraction, a-b-da, 14, 2, 6, 23, 153, 83, 165, 90, 90, 165, 3, 1.55803
115, 1, bw, attraction, a-b-da, 14, 2, 6, 23, 153, 83, 165, 90, 90, 165, 1, 0.438076
115, 1, bw, attraction, a-b-db, 14, 2, 6, 24, 83, 153, 90, 165, 165, 90, 3, 1.05064
115, 1, bw, attraction, a-b-db, 14, 2, 6, 24, 83, 153, 90, 165, 165, 90, 1, 0.423624
115, 1, bw, filler, NA, 999, 999, 6, 25, 99, 165, 65, 131, 163, 129, 3, 1.10809
115, 1, bw, filler, NA, 999, 999, 6, 25, 99, 165, 65, 131, 163, 129, 2, 0.366319
115, 1, bw, filler, NA, 999, 999, 6, 26, 97, 135, 104, 173, 125, 80, 2, 1.18945
115, 1, bw, filler, NA, 999, 999, 6, 26, 97, 135, 104, 173, 125, 80, 3, 1.23661
115, 1, bw, filler, NA, 999, 999, 6, 27, 159, 132, 144, 117, 71, 189, 1, 1.09674
115, 1, bw, filler, NA, 999, 999, 6, 27, 159, 132, 144, 117, 71, 189, 3, 0.81978
115, 1, bw, attraction, a-b-db, 2, 3, 6, 28, 120, 195, 119, 193, 195, 120, 3, 0.928633
115, 1, bw, attraction, a-b-db, 2, 3, 6, 28, 120, 195, 119, 193, 195, 120, 2, 0.426341
115, 1, bw, attraction, a-b-da, 14, 3, 6, 29, 120, 195, 181, 111, 195, 120, 3, 0.974901
115, 1, bw, attraction, a-b-da, 14, 3, 6, 29, 120, 195, 181, 111, 195, 120, 2, 0.358427
115, 1, bw, filler, NA, 999, 999, 6, 30, 129, 83, 148, 174, 137, 161, 3, 0.741712
115, 1, bw, filler, NA, 999, 999, 6, 30, 129, 83, 148, 174, 137, 161, 1, 0.670711
115, 1, bw, attraction, a-b-db, 14, 1, 6, 31, 56, 125, 60, 135, 135, 60, 3, 1.26583
115, 1, bw, attraction, a-b-db, 14, 1, 6, 31, 56, 125, 60, 135, 135, 60, 1, 0.870023
115, 1, bw, filler, NA, 999, 999, 6, 32, 192, 130, 179, 158, 188, 180, 3, 0.897138
115, 1, bw, filler, NA, 999, 999, 6, 32, 192, 130, 179, 158, 188, 180, 1, 0.556141
115, 1, bw, attraction, a-b-db, 14, 3, 6, 33, 120, 195, 111, 181, 195, 120, 1, 1.83591
115, 1, bw, attraction, a-b-db, 14, 3, 6, 33, 120, 195, 111, 181, 195, 120, 2, 1.91327
115, 1, bw, attraction, a-b-db, 9, 1, 6, 34, 135, 60, 57, 129, 60, 135, 1, 1.5859
115, 1, bw, attraction, a-b-db, 9, 1, 6, 34, 135, 60, 57, 129, 60, 135, 2, 1.00941
115, 1, bw, catch, NA, 999, 999, 6, 35, 134, 61, 128, 127, 124, 191, 3, 0.766446
115, 1, bw, catch, NA, 999, 999, 6, 35, 134, 61, 128, 127, 124, 191, 1, 0.422732
115, 1, bw, catch, NA, 999, 999, 6, 36, 178, 137, 71, 124, 92, 163, 1, 0.651795
115, 1, bw, catch, NA, 999, 999, 6, 36, 178, 137, 71, 124, 92, 163, 2, 0.368988
115, 1, bw, attraction, a-b-da, 5, 2, 6, 37, 165, 90, 90, 165, 161, 88, 1, 1.0242
115, 1, bw, attraction, a-b-da, 5, 2, 6, 37, 165, 90, 90, 165, 161, 88, 2, 1.14177
115, 1, bw, attraction, a-b-db, 2, 2, 7, 1, 89, 163, 90, 165, 165, 90, 2, 1.34133
115, 1, bw, attraction, a-b-db, 2, 2, 7, 1, 89, 163, 90, 165, 165, 90, 1, 0.470416
115, 1, bw, filler, NA, 999, 999, 7, 2, 172, 132, 57, 161, 179, 147, 3, 1.41744
115, 1, bw, filler, NA, 999, 999, 7, 2, 172, 132, 57, 161, 179, 147, 2, 0.719535
115, 1, bw, catch, NA, 999, 999, 7, 3, 127, 68, 139, 116, 178, 137, 3, 0.712747
115, 1, bw, catch, NA, 999, 999, 7, 3, 127, 68, 139, 116, 178, 137, 1, 0.435057
115, 1, bw, attraction, a-b-db, 5, 2, 7, 4, 88, 161, 90, 165, 165, 90, 2, 0.919609
115, 1, bw, attraction, a-b-db, 5, 2, 7, 4, 88, 161, 90, 165, 165, 90, 1, 0.99403
115, 1, bw, filler, NA, 999, 999, 7, 5, 72, 146, 124, 147, 98, 183, 3, 0.719624
115, 1, bw, filler, NA, 999, 999, 7, 5, 72, 146, 124, 147, 98, 183, 1, 0.377928
115, 1, bw, attraction, a-b-db, 5, 1, 7, 6, 58, 132, 135, 60, 60, 135, 2, 1.34453
115, 1, bw, attraction, a-b-db, 5, 1, 7, 6, 58, 132, 135, 60, 60, 135, 3, 0.409321
115, 1, bw, attraction, a-b-da, 9, 2, 7, 7, 90, 165, 157, 86, 165, 90, 3, 0.902594
115, 1, bw, attraction, a-b-da, 9, 2, 7, 7, 90, 165, 157, 86, 165, 90, 2, 0.505517
115, 1, bw, attraction, a-b-da, 14, 1, 7, 8, 60, 135, 135, 60, 125, 56, 1, 0.995371
115, 1, bw, attraction, a-b-da, 14, 1, 7, 8, 60, 135, 135, 60, 125, 56, 3, 0.474311
115, 1, bw, attraction, a-b-da, 14, 3, 7, 9, 195, 120, 120, 195, 181, 111, 1, 1.10889
115, 1, bw, attraction, a-b-da, 14, 3, 7, 9, 195, 120, 120, 195, 181, 111, 3, 0.743059
115, 1, bw, attraction, a-b-da, 2, 1, 7, 10, 134, 59, 60, 135, 135, 60, 3, 1.5348
115, 1, bw, attraction, a-b-da, 2, 1, 7, 10, 134, 59, 60, 135, 135, 60, 2, 0.368236
115, 1, bw, attraction, a-b-da, 9, 3, 7, 11, 186, 114, 195, 120, 120, 195, 2, 0.91131
115, 1, bw, attraction, a-b-da, 9, 3, 7, 11, 186, 114, 195, 120, 120, 195, 1, 1.49774
115, 1, bw, filler, NA, 999, 999, 7, 12, 195, 176, 94, 80, 76, 153, 1, 0.6352
115, 1, bw, filler, NA, 999, 999, 7, 12, 195, 176, 94, 80, 76, 153, 2, 0.416945
115, 1, bw, attraction, a-b-db, 9, 3, 7, 13, 114, 186, 120, 195, 195, 120, 2, 0.870183
115, 1, bw, attraction, a-b-db, 9, 3, 7, 13, 114, 186, 120, 195, 195, 120, 1, 0.37843
115, 1, bw, attraction, a-b-da, 14, 2, 7, 14, 153, 83, 90, 165, 165, 90, 3, 0.857128
115, 1, bw, attraction, a-b-da, 14, 2, 7, 14, 153, 83, 90, 165, 165, 90, 2, 0.941368
115, 1, bw, catch, NA, 999, 999, 7, 15, 101, 154, 121, 74, 134, 181, 3, 1.06907
115, 1, bw, catch, NA, 999, 999, 7, 15, 101, 154, 121, 74, 134, 181, 2, 0.633293
115, 1, bw, attraction, a-b-db, 2, 3, 7, 16, 120, 195, 195, 120, 119, 193, 2, 1.02977
115, 1, bw, attraction, a-b-db, 2, 3, 7, 16, 120, 195, 195, 120, 119, 193, 3, 0.363461
115, 1, bw, attraction, a-b-da, 5, 3, 7, 17, 195, 120, 190, 117, 120, 195, 3, 2.51469
115, 1, bw, attraction, a-b-da, 5, 3, 7, 17, 195, 120, 190, 117, 120, 195, 2, 0.956455
115, 1, bw, attraction, a-b-da, 5, 2, 7, 18, 90, 165, 161, 88, 165, 90, 2, 1.06012
115, 1, bw, attraction, a-b-da, 5, 2, 7, 18, 90, 165, 161, 88, 165, 90, 1, 1.12835
115, 1, bw, attraction, a-b-db, 14, 3, 7, 19, 195, 120, 111, 181, 120, 195, 1, 0.976652
115, 1, bw, attraction, a-b-db, 14, 3, 7, 19, 195, 120, 111, 181, 120, 195, 2, 0.744313
115, 1, bw, attraction, a-b-db, 9, 1, 7, 20, 60, 135, 135, 60, 57, 129, 2, 0.895973
115, 1, bw, attraction, a-b-db, 9, 1, 7, 20, 60, 135, 135, 60, 57, 129, 1, 0.427026
115, 1, bw, attraction, a-b-da, 5, 1, 7, 21, 132, 58, 135, 60, 60, 135, 2, 2.02362
115, 1, bw, attraction, a-b-da, 5, 1, 7, 21, 132, 58, 135, 60, 60, 135, 3, 0.468843
115, 1, bw, filler, NA, 999, 999, 7, 22, 126, 138, 66, 77, 192, 186, 3, 0.663973
115, 1, bw, filler, NA, 999, 999, 7, 22, 126, 138, 66, 77, 192, 186, 2, 0.516407
115, 1, bw, filler, NA, 999, 999, 7, 23, 64, 111, 118, 129, 84, 66, 2, 0.925623
115, 1, bw, filler, NA, 999, 999, 7, 23, 64, 111, 118, 129, 84, 66, 3, 0.431132
115, 1, bw, catch, NA, 999, 999, 7, 24, 165, 150, 159, 96, 97, 98, 1, 1.76374
115, 1, bw, catch, NA, 999, 999, 7, 24, 165, 150, 159, 96, 97, 98, 3, 0.643819
115, 1, bw, attraction, a-b-db, 14, 1, 7, 25, 56, 125, 135, 60, 60, 135, 2, 1.23167
115, 1, bw, attraction, a-b-db, 14, 1, 7, 25, 56, 125, 135, 60, 60, 135, 1, 0.60517
115, 1, bw, attraction, a-b-da, 9, 1, 7, 26, 60, 135, 135, 60, 129, 57, 2, 1.76295
115, 1, bw, attraction, a-b-da, 9, 1, 7, 26, 60, 135, 135, 60, 129, 57, 1, 0.778924
115, 1, bw, attraction, a-b-db, 9, 2, 7, 27, 165, 90, 90, 165, 86, 157, 2, 2.59327
115, 1, bw, attraction, a-b-db, 9, 2, 7, 27, 165, 90, 90, 165, 86, 157, 3, 1.75981
115, 1, bw, attraction, a-b-db, 5, 3, 7, 28, 120, 195, 195, 120, 117, 190, 2, 1.36655
115, 1, bw, attraction, a-b-db, 5, 3, 7, 28, 120, 195, 195, 120, 117, 190, 3, 1.11069
115, 1, bw, filler, NA, 999, 999, 7, 29, 178, 132, 159, 170, 95, 71, 2, 0.839609
115, 1, bw, filler, NA, 999, 999, 7, 29, 178, 132, 159, 170, 95, 71, 3, 0.476605
115, 1, bw, attraction, a-b-da, 2, 2, 7, 30, 90, 165, 163, 89, 165, 90, 3, 1.20712
115, 1, bw, attraction, a-b-da, 2, 2, 7, 30, 90, 165, 163, 89, 165, 90, 1, 0.429365
115, 1, bw, filler, NA, 999, 999, 7, 31, 146, 157, 116, 58, 195, 189, 3, 1.03394
115, 1, bw, filler, NA, 999, 999, 7, 31, 146, 157, 116, 58, 195, 189, 2, 0.503536
115, 1, bw, filler, NA, 999, 999, 7, 32, 131, 119, 146, 72, 94, 154, 1, 4.76126
115, 1, bw, filler, NA, 999, 999, 7, 32, 131, 119, 146, 72, 94, 154, 2, 0.40852
115, 1, bw, attraction, a-b-db, 14, 2, 7, 33, 165, 90, 90, 165, 83, 153, 2, 1.02161
115, 1, bw, attraction, a-b-db, 14, 2, 7, 33, 165, 90, 90, 165, 83, 153, 3, 0.38722
115, 1, bw, attraction, a-b-db, 2, 1, 7, 34, 60, 135, 59, 134, 135, 60, 2, 1.75379
115, 1, bw, attraction, a-b-db, 2, 1, 7, 34, 60, 135, 59, 134, 135, 60, 1, 1.22653
115, 1, bw, filler, NA, 999, 999, 7, 35, 95, 127, 167, 90, 186, 184, 3, 1.1188
115, 1, bw, filler, NA, 999, 999, 7, 35, 95, 127, 167, 90, 186, 184, 1, 0.664958
115, 1, bw, attraction, a-b-da, 2, 3, 7, 36, 195, 120, 120, 195, 193, 119, 2, 1.47617
115, 1, bw, attraction, a-b-da, 2, 3, 7, 36, 195, 120, 120, 195, 193, 119, 3, 0.583618
115, 1, bw, filler, NA, 999, 999, 7, 37, 180, 161, 82, 144, 134, 69, 1, 1.05417
115, 1, bw, filler, NA, 999, 999, 7, 37, 180, 161, 82, 144, 134, 69, 3, 1.81906
115, 1, bw, attraction, a-b-da, 5, 2, 8, 1, 165, 90, 161, 88, 90, 165, 3, 1.83175
115, 1, bw, attraction, a-b-da, 5, 2, 8, 1, 165, 90, 161, 88, 90, 165, 2, 0.901118
115, 1, bw, catch, NA, 999, 999, 8, 2, 127, 128, 166, 149, 70, 125, 2, 1.11071
115, 1, bw, catch, NA, 999, 999, 8, 2, 127, 128, 166, 149, 70, 125, 3, 0.425034
115, 1, bw, attraction, a-b-da, 9, 1, 8, 3, 60, 135, 135, 60, 129, 57, 2, 2.10964
115, 1, bw, attraction, a-b-da, 9, 1, 8, 3, 60, 135, 135, 60, 129, 57, 3, 0.4716
115, 1, bw, filler, NA, 999, 999, 8, 4, 96, 140, 192, 61, 187, 151, 3, 1.6346
115, 1, bw, filler, NA, 999, 999, 8, 4, 96, 140, 192, 61, 187, 151, 1, 0.880049
115, 1, bw, catch, NA, 999, 999, 8, 5, 77, 118, 154, 161, 149, 106, 2, 1.93041
115, 1, bw, catch, NA, 999, 999, 8, 5, 77, 118, 154, 161, 149, 106, 1, 0.579813
115, 1, bw, attraction, a-b-db, 14, 1, 8, 6, 135, 60, 60, 135, 56, 125, 2, 1.70621
115, 1, bw, attraction, a-b-db, 14, 1, 8, 6, 135, 60, 60, 135, 56, 125, 3, 0.388339
115, 1, bw, attraction, a-b-db, 5, 1, 8, 7, 135, 60, 58, 132, 60, 135, 3, 1.59479
115, 1, bw, attraction, a-b-db, 5, 1, 8, 7, 135, 60, 58, 132, 60, 135, 2, 1.0016
115, 1, bw, attraction, a-b-da, 2, 2, 8, 8, 163, 89, 165, 90, 90, 165, 3, 1.91127
115, 1, bw, attraction, a-b-da, 2, 2, 8, 8, 163, 89, 165, 90, 90, 165, 2, 0.577329
115, 1, bw, filler, NA, 999, 999, 8, 9, 116, 180, 79, 151, 116, 163, 1, 2.08778
115, 1, bw, filler, NA, 999, 999, 8, 9, 116, 180, 79, 151, 116, 163, 2, 0.49106
115, 1, bw, filler, NA, 999, 999, 8, 10, 141, 91, 152, 106, 179, 98, 3, 1.00493
115, 1, bw, filler, NA, 999, 999, 8, 10, 141, 91, 152, 106, 179, 98, 1, 0.419191
115, 1, bw, attraction, a-b-db, 2, 1, 8, 11, 59, 134, 135, 60, 60, 135, 2, 1.00822
115, 1, bw, attraction, a-b-db, 2, 1, 8, 11, 59, 134, 135, 60, 60, 135, 1, 0.446615
115, 1, bw, filler, NA, 999, 999, 8, 12, 92, 188, 147, 61, 193, 116, 3, 0.890372
115, 1, bw, filler, NA, 999, 999, 8, 12, 92, 188, 147, 61, 193, 116, 2, 0.765556
115, 1, bw, attraction, a-b-da, 9, 2, 8, 13, 157, 86, 90, 165, 165, 90, 2, 0.956449
115, 1, bw, attraction, a-b-da, 9, 2, 8, 13, 157, 86, 90, 165, 165, 90, 3, 0.324931
115, 1, bw, filler, NA, 999, 999, 8, 14, 74, 64, 162, 153, 120, 64, 2, 0.677982
115, 1, bw, filler, NA, 999, 999, 8, 14, 74, 64, 162, 153, 120, 64, 1, 0.457094
115, 1, bw, attraction, a-b-da, 2, 3, 8, 15, 193, 119, 120, 195, 195, 120, 1, 1.24417
115, 1, bw, attraction, a-b-da, 2, 3, 8, 15, 193, 119, 120, 195, 195, 120, 2, 0.561255
115, 1, bw, attraction, a-b-db, 2, 2, 8, 16, 165, 90, 89, 163, 90, 165, 2, 1.96821
115, 1, bw, attraction, a-b-db, 2, 2, 8, 16, 165, 90, 89, 163, 90, 165, 3, 0.552258
115, 1, bw, filler, NA, 999, 999, 8, 17, 142, 152, 66, 153, 127, 117, 1, 0.744196
115, 1, bw, filler, NA, 999, 999, 8, 17, 142, 152, 66, 153, 127, 117, 2, 0.457171
115, 1, bw, attraction, a-b-db, 2, 3, 8, 18, 195, 120, 120, 195, 119, 193, 2, 0.87626
115, 1, bw, attraction, a-b-db, 2, 3, 8, 18, 195, 120, 120, 195, 119, 193, 3, 0.360152
115, 1, bw, attraction, a-b-db, 9, 3, 8, 19, 114, 186, 195, 120, 120, 195, 2, 0.78315
115, 1, bw, attraction, a-b-db, 9, 3, 8, 19, 114, 186, 195, 120, 120, 195, 1, 0.262881
115, 1, bw, attraction, a-b-da, 9, 3, 8, 20, 186, 114, 120, 195, 195, 120, 2, 1.03398
115, 1, bw, attraction, a-b-da, 9, 3, 8, 20, 186, 114, 120, 195, 195, 120, 1, 0.40761
115, 1, bw, catch, NA, 999, 999, 8, 21, 97, 98, 129, 126, 120, 195, 2, 0.684994
115, 1, bw, catch, NA, 999, 999, 8, 21, 97, 98, 129, 126, 120, 195, 3, 1.00998
115, 1, bw, attraction, a-b-db, 5, 2, 8, 22, 90, 165, 165, 90, 88, 161, 2, 1.94153
115, 1, bw, attraction, a-b-db, 5, 2, 8, 22, 90, 165, 165, 90, 88, 161, 3, 0.534318
115, 1, bw, filler, NA, 999, 999, 8, 23, 134, 190, 75, 88, 120, 72, 1, 0.662803
115, 1, bw, filler, NA, 999, 999, 8, 23, 134, 190, 75, 88, 120, 72, 2, 0.379116
115, 1, bw, attraction, a-b-da, 2, 1, 8, 24, 135, 60, 134, 59, 60, 135, 2, 0.961605
115, 1, bw, attraction, a-b-da, 2, 1, 8, 24, 135, 60, 134, 59, 60, 135, 1, 1.27398
115, 1, bw, filler, NA, 999, 999, 8, 25, 139, 63, 103, 64, 90, 148, 3, 1.14015
115, 1, bw, filler, NA, 999, 999, 8, 25, 139, 63, 103, 64, 90, 148, 2, 0.445132
115, 1, bw, attraction, a-b-da, 14, 2, 8, 26, 90, 165, 153, 83, 165, 90, 3, 1.01705
115, 1, bw, attraction, a-b-da, 14, 2, 8, 26, 90, 165, 153, 83, 165, 90, 2, 0.415159
115, 1, bw, attraction, a-b-da, 14, 3, 8, 27, 181, 111, 120, 195, 195, 120, 3, 1.66843
115, 1, bw, attraction, a-b-da, 14, 3, 8, 27, 181, 111, 120, 195, 195, 120, 1, 0.824657
115, 1, bw, filler, NA, 999, 999, 8, 28, 182, 160, 169, 92, 120, 116, 1, 0.756954
115, 1, bw, filler, NA, 999, 999, 8, 28, 182, 160, 169, 92, 120, 116, 3, 0.381232
115, 1, bw, attraction, a-b-db, 9, 1, 8, 29, 57, 129, 135, 60, 60, 135, 2, 4.57183
115, 1, bw, attraction, a-b-db, 9, 1, 8, 29, 57, 129, 135, 60, 60, 135, 1, 0.547042
115, 1, bw, attraction, a-b-db, 9, 2, 8, 30, 165, 90, 86, 157, 90, 165, 3, 0.834814
115, 1, bw, attraction, a-b-db, 9, 2, 8, 30, 165, 90, 86, 157, 90, 165, 2, 0.36862
115, 1, bw, filler, NA, 999, 999, 8, 31, 90, 169, 142, 66, 191, 176, 3, 0.85553
115, 1, bw, filler, NA, 999, 999, 8, 31, 90, 169, 142, 66, 191, 176, 2, 0.467959
115, 1, bw, attraction, a-b-da, 5, 1, 8, 32, 60, 135, 135, 60, 132, 58, 2, 2.287
115, 1, bw, attraction, a-b-da, 5, 1, 8, 32, 60, 135, 135, 60, 132, 58, 1, 0.522377
115, 1, bw, attraction, a-b-db, 5, 3, 8, 33, 195, 120, 120, 195, 117, 190, 1, 3.09141
115, 1, bw, attraction, a-b-db, 5, 3, 8, 33, 195, 120, 120, 195, 117, 190, 3, 0.533957
115, 1, bw, attraction, a-b-da, 14, 1, 8, 34, 135, 60, 125, 56, 60, 135, 1, 1.84645
115, 1, bw, attraction, a-b-da, 14, 1, 8, 34, 135, 60, 125, 56, 60, 135, 3, 0.771063
115, 1, bw, attraction, a-b-da, 5, 3, 8, 35, 195, 120, 120, 195, 190, 117, 2, 1.73005
115, 1, bw, attraction, a-b-da, 5, 3, 8, 35, 195, 120, 120, 195, 190, 117, 3, 0.699393
115, 1, bw, attraction, a-b-db, 14, 2, 8, 36, 83, 153, 165, 90, 90, 165, 3, 1.30915
115, 1, bw, attraction, a-b-db, 14, 2, 8, 36, 83, 153, 165, 90, 90, 165, 1, 0.463419
115, 1, bw, attraction, a-b-db, 14, 3, 8, 37, 111, 181, 195, 120, 120, 195, 3, 2.93058
115, 1, bw, attraction, a-b-db, 14, 3, 8, 37, 111, 181, 195, 120, 120, 195, 1, 0.491592
