sub_n, computer_n, bw_cond, effect, set, distance, diag, block_n, trial_n, h1, w1, h2, w2, h3, w3, choice, rt 
129, 1, bw, practice, NA, 999, 999, 0, 1, 70, 85, 174, 163, 82, 110, 2, 2.06614
129, 1, bw, practice, NA, 999, 999, 0, 1, 70, 85, 174, 163, 82, 110, 1, 2.64531
129, 1, bw, practice, NA, 999, 999, 0, 2, 90, 142, 156, 105, 132, 70, 2, 1.69346
129, 1, bw, practice, NA, 999, 999, 0, 2, 90, 142, 156, 105, 132, 70, 3, 0.960133
129, 1, bw, practice, NA, 999, 999, 0, 3, 162, 188, 90, 99, 178, 65, 1, 1.41985
129, 1, bw, practice, NA, 999, 999, 0, 3, 162, 188, 90, 99, 178, 65, 2, 0.787705
129, 1, bw, attraction, a-b-da, 9, 1, 1, 1, 129, 57, 135, 60, 60, 135, 3, 2.28542
129, 1, bw, attraction, a-b-da, 9, 1, 1, 1, 129, 57, 135, 60, 60, 135, 2, 0.632665
129, 1, bw, attraction, a-b-da, 14, 1, 1, 2, 135, 60, 125, 56, 60, 135, 3, 1.51704
129, 1, bw, attraction, a-b-da, 14, 1, 1, 2, 135, 60, 125, 56, 60, 135, 2, 0.751286
129, 1, bw, attraction, a-b-db, 2, 2, 1, 3, 165, 90, 90, 165, 89, 163, 3, 2.71894
129, 1, bw, attraction, a-b-db, 2, 2, 1, 3, 165, 90, 90, 165, 89, 163, 1, 0.440699
129, 1, bw, filler, NA, 999, 999, 1, 4, 60, 64, 116, 120, 112, 77, 2, 0.852504
129, 1, bw, filler, NA, 999, 999, 1, 4, 60, 64, 116, 120, 112, 77, 1, 0.561589
129, 1, bw, filler, NA, 999, 999, 1, 5, 132, 166, 123, 72, 136, 136, 1, 0.72865
129, 1, bw, filler, NA, 999, 999, 1, 5, 132, 166, 123, 72, 136, 136, 2, 0.466458
129, 1, bw, filler, NA, 999, 999, 1, 6, 93, 139, 189, 64, 169, 168, 3, 0.693512
129, 1, bw, filler, NA, 999, 999, 1, 6, 93, 139, 189, 64, 169, 168, 1, 0.720598
129, 1, bw, attraction, a-b-da, 9, 3, 1, 7, 120, 195, 195, 120, 186, 114, 1, 1.44968
129, 1, bw, attraction, a-b-da, 9, 3, 1, 7, 120, 195, 195, 120, 186, 114, 3, 0.37457
129, 1, bw, attraction, a-b-da, 14, 3, 1, 8, 181, 111, 120, 195, 195, 120, 3, 1.10096
129, 1, bw, attraction, a-b-da, 14, 3, 1, 8, 181, 111, 120, 195, 195, 120, 1, 0.368008
129, 1, bw, filler, NA, 999, 999, 1, 9, 157, 109, 125, 173, 57, 106, 1, 0.983083
129, 1, bw, filler, NA, 999, 999, 1, 9, 157, 109, 125, 173, 57, 106, 3, 0.670802
129, 1, bw, filler, NA, 999, 999, 1, 10, 124, 143, 154, 142, 120, 60, 2, 0.753978
129, 1, bw, filler, NA, 999, 999, 1, 10, 124, 143, 154, 142, 120, 60, 3, 0.546916
129, 1, bw, attraction, a-b-db, 9, 2, 1, 11, 165, 90, 86, 157, 90, 165, 3, 1.00275
129, 1, bw, attraction, a-b-db, 9, 2, 1, 11, 165, 90, 86, 157, 90, 165, 1, 0.433752
129, 1, bw, attraction, a-b-da, 14, 2, 1, 12, 153, 83, 90, 165, 165, 90, 3, 0.878299
129, 1, bw, attraction, a-b-da, 14, 2, 1, 12, 153, 83, 90, 165, 165, 90, 1, 0.457793
129, 1, bw, attraction, a-b-db, 5, 2, 1, 13, 90, 165, 88, 161, 165, 90, 3, 0.773003
129, 1, bw, attraction, a-b-db, 5, 2, 1, 13, 90, 165, 88, 161, 165, 90, 1, 0.332771
129, 1, bw, attraction, a-b-db, 9, 3, 1, 14, 114, 186, 120, 195, 195, 120, 2, 0.853235
129, 1, bw, attraction, a-b-db, 9, 3, 1, 14, 114, 186, 120, 195, 195, 120, 3, 0.402209
129, 1, bw, attraction, a-b-db, 5, 1, 1, 15, 60, 135, 135, 60, 58, 132, 1, 2.33619
129, 1, bw, attraction, a-b-db, 5, 1, 1, 15, 60, 135, 135, 60, 58, 132, 2, 0.585375
129, 1, bw, filler, NA, 999, 999, 1, 16, 131, 192, 92, 187, 122, 194, 3, 1.90374
129, 1, bw, filler, NA, 999, 999, 1, 16, 131, 192, 92, 187, 122, 194, 2, 0.522562
129, 1, bw, attraction, a-b-da, 9, 2, 1, 17, 157, 86, 165, 90, 90, 165, 3, 1.6437
129, 1, bw, attraction, a-b-da, 9, 2, 1, 17, 157, 86, 165, 90, 90, 165, 1, 0.320436
129, 1, bw, filler, NA, 999, 999, 1, 18, 122, 115, 87, 167, 86, 109, 1, 1.33761
129, 1, bw, filler, NA, 999, 999, 1, 18, 122, 115, 87, 167, 86, 109, 3, 0.33918
129, 1, bw, attraction, a-b-da, 5, 2, 1, 19, 165, 90, 161, 88, 90, 165, 2, 1.2597
129, 1, bw, attraction, a-b-da, 5, 2, 1, 19, 165, 90, 161, 88, 90, 165, 1, 0.30388
129, 1, bw, filler, NA, 999, 999, 1, 20, 165, 66, 164, 180, 101, 88, 2, 0.681654
129, 1, bw, filler, NA, 999, 999, 1, 20, 165, 66, 164, 180, 101, 88, 3, 0.317438
129, 1, bw, attraction, a-b-db, 5, 3, 1, 21, 120, 195, 195, 120, 117, 190, 2, 1.08677
129, 1, bw, attraction, a-b-db, 5, 3, 1, 21, 120, 195, 195, 120, 117, 190, 1, 0.298413
129, 1, bw, filler, NA, 999, 999, 1, 22, 87, 76, 110, 93, 102, 97, 3, 1.62814
129, 1, bw, filler, NA, 999, 999, 1, 22, 87, 76, 110, 93, 102, 97, 1, 0.433622
129, 1, bw, filler, NA, 999, 999, 1, 23, 94, 114, 85, 191, 80, 194, 3, 1.27811
129, 1, bw, filler, NA, 999, 999, 1, 23, 94, 114, 85, 191, 80, 194, 1, 0.569626
129, 1, bw, attraction, a-b-da, 2, 2, 1, 24, 165, 90, 163, 89, 90, 165, 2, 1.2488
129, 1, bw, attraction, a-b-da, 2, 2, 1, 24, 165, 90, 163, 89, 90, 165, 1, 0.309736
129, 1, bw, attraction, a-b-db, 14, 2, 1, 25, 83, 153, 165, 90, 90, 165, 2, 0.726826
129, 1, bw, attraction, a-b-db, 14, 2, 1, 25, 83, 153, 165, 90, 90, 165, 1, 1.04859
129, 1, bw, attraction, a-b-da, 2, 3, 1, 26, 193, 119, 195, 120, 120, 195, 1, 1.57219
129, 1, bw, attraction, a-b-da, 2, 3, 1, 26, 193, 119, 195, 120, 120, 195, 2, 1.04365
129, 1, bw, attraction, a-b-db, 2, 1, 1, 27, 135, 60, 59, 134, 60, 135, 3, 0.943324
129, 1, bw, attraction, a-b-db, 2, 1, 1, 27, 135, 60, 59, 134, 60, 135, 1, 0.608273
129, 1, bw, catch, NA, 999, 999, 1, 28, 165, 150, 148, 107, 104, 91, 1, 0.845382
129, 1, bw, catch, NA, 999, 999, 1, 28, 165, 150, 148, 107, 104, 91, 3, 0.442472
129, 1, bw, attraction, a-b-db, 14, 1, 1, 29, 135, 60, 56, 125, 60, 135, 3, 0.894233
129, 1, bw, attraction, a-b-db, 14, 1, 1, 29, 135, 60, 56, 125, 60, 135, 1, 0.569269
129, 1, bw, attraction, a-b-da, 5, 3, 1, 30, 190, 117, 195, 120, 120, 195, 1, 1.32051
129, 1, bw, attraction, a-b-da, 5, 3, 1, 30, 190, 117, 195, 120, 120, 195, 2, 0.386562
129, 1, bw, attraction, a-b-db, 14, 3, 1, 31, 120, 195, 195, 120, 111, 181, 3, 1.31304
129, 1, bw, attraction, a-b-db, 14, 3, 1, 31, 120, 195, 195, 120, 111, 181, 2, 0.339415
129, 1, bw, catch, NA, 999, 999, 1, 32, 140, 115, 92, 103, 149, 166, 3, 1.39584
129, 1, bw, catch, NA, 999, 999, 1, 32, 140, 115, 92, 103, 149, 166, 2, 0.362676
129, 1, bw, attraction, a-b-da, 5, 1, 1, 33, 132, 58, 135, 60, 60, 135, 3, 1.19385
129, 1, bw, attraction, a-b-da, 5, 1, 1, 33, 132, 58, 135, 60, 60, 135, 1, 0.728851
129, 1, bw, attraction, a-b-db, 9, 1, 1, 34, 60, 135, 57, 129, 135, 60, 3, 0.993241
129, 1, bw, attraction, a-b-db, 9, 1, 1, 34, 60, 135, 57, 129, 135, 60, 1, 0.44015
129, 1, bw, attraction, a-b-db, 2, 3, 1, 35, 195, 120, 119, 193, 120, 195, 2, 1.55592
129, 1, bw, attraction, a-b-db, 2, 3, 1, 35, 195, 120, 119, 193, 120, 195, 1, 0.636263
129, 1, bw, catch, NA, 999, 999, 1, 36, 113, 142, 172, 143, 96, 99, 2, 0.824717
129, 1, bw, catch, NA, 999, 999, 1, 36, 113, 142, 172, 143, 96, 99, 3, 0.414248
129, 1, bw, attraction, a-b-da, 2, 1, 1, 37, 135, 60, 60, 135, 134, 59, 3, 1.17135
129, 1, bw, attraction, a-b-da, 2, 1, 1, 37, 135, 60, 60, 135, 134, 59, 2, 0.411069
129, 1, bw, filler, NA, 999, 999, 2, 1, 63, 102, 104, 140, 79, 132, 2, 1.48814
129, 1, bw, filler, NA, 999, 999, 2, 1, 63, 102, 104, 140, 79, 132, 1, 0.56365
129, 1, bw, attraction, a-b-db, 5, 3, 2, 2, 117, 190, 195, 120, 120, 195, 3, 0.786836
129, 1, bw, attraction, a-b-db, 5, 3, 2, 2, 117, 190, 195, 120, 120, 195, 2, 0.44249
129, 1, bw, attraction, a-b-db, 9, 3, 2, 3, 120, 195, 195, 120, 114, 186, 3, 1.2142
129, 1, bw, attraction, a-b-db, 9, 3, 2, 3, 120, 195, 195, 120, 114, 186, 2, 0.340636
129, 1, bw, attraction, a-b-da, 9, 3, 2, 4, 195, 120, 120, 195, 186, 114, 2, 0.852332
129, 1, bw, attraction, a-b-da, 9, 3, 2, 4, 195, 120, 120, 195, 186, 114, 1, 0.385417
129, 1, bw, filler, NA, 999, 999, 2, 5, 140, 64, 58, 179, 172, 163, 3, 0.799896
129, 1, bw, filler, NA, 999, 999, 2, 5, 140, 64, 58, 179, 172, 163, 2, 0.478945
129, 1, bw, attraction, a-b-da, 5, 2, 2, 6, 90, 165, 165, 90, 161, 88, 2, 1.10536
129, 1, bw, attraction, a-b-da, 5, 2, 2, 6, 90, 165, 165, 90, 161, 88, 3, 0.499733
129, 1, bw, attraction, a-b-db, 9, 2, 2, 7, 90, 165, 86, 157, 165, 90, 3, 0.90944
129, 1, bw, attraction, a-b-db, 9, 2, 2, 7, 90, 165, 86, 157, 165, 90, 2, 0.359868
129, 1, bw, attraction, a-b-db, 9, 1, 2, 8, 60, 135, 57, 129, 135, 60, 1, 1.35101
129, 1, bw, attraction, a-b-db, 9, 1, 2, 8, 60, 135, 57, 129, 135, 60, 2, 0.367912
129, 1, bw, filler, NA, 999, 999, 2, 9, 167, 130, 156, 69, 140, 138, 3, 0.759155
129, 1, bw, filler, NA, 999, 999, 2, 9, 167, 130, 156, 69, 140, 138, 2, 0.327448
129, 1, bw, attraction, a-b-da, 14, 2, 2, 10, 153, 83, 165, 90, 90, 165, 3, 0.768091
129, 1, bw, attraction, a-b-da, 14, 2, 2, 10, 153, 83, 165, 90, 90, 165, 1, 0.832367
129, 1, bw, attraction, a-b-da, 2, 1, 2, 11, 134, 59, 135, 60, 60, 135, 3, 1.09279
129, 1, bw, attraction, a-b-da, 2, 1, 2, 11, 134, 59, 135, 60, 60, 135, 2, 0.407694
129, 1, bw, attraction, a-b-db, 14, 2, 2, 12, 83, 153, 165, 90, 90, 165, 3, 0.780819
129, 1, bw, attraction, a-b-db, 14, 2, 2, 12, 83, 153, 165, 90, 90, 165, 1, 0.900529
129, 1, bw, attraction, a-b-da, 2, 2, 2, 13, 163, 89, 165, 90, 90, 165, 3, 0.702231
129, 1, bw, attraction, a-b-da, 2, 2, 2, 13, 163, 89, 165, 90, 90, 165, 2, 0.377278
129, 1, bw, filler, NA, 999, 999, 2, 14, 131, 60, 61, 195, 167, 131, 3, 0.671759
129, 1, bw, filler, NA, 999, 999, 2, 14, 131, 60, 61, 195, 167, 131, 1, 0.483729
129, 1, bw, filler, NA, 999, 999, 2, 15, 83, 151, 99, 165, 60, 80, 2, 0.942028
129, 1, bw, filler, NA, 999, 999, 2, 15, 83, 151, 99, 165, 60, 80, 3, 0.335032
129, 1, bw, attraction, a-b-db, 5, 2, 2, 16, 90, 165, 88, 161, 165, 90, 2, 1.25559
129, 1, bw, attraction, a-b-db, 5, 2, 2, 16, 90, 165, 88, 161, 165, 90, 1, 0.451741
129, 1, bw, catch, NA, 999, 999, 2, 17, 107, 148, 61, 134, 169, 146, 1, 0.75154
129, 1, bw, catch, NA, 999, 999, 2, 17, 107, 148, 61, 134, 169, 146, 2, 0.576627
129, 1, bw, attraction, a-b-db, 5, 1, 2, 18, 60, 135, 135, 60, 58, 132, 3, 0.679038
129, 1, bw, attraction, a-b-db, 5, 1, 2, 18, 60, 135, 135, 60, 58, 132, 2, 0.434896
129, 1, bw, attraction, a-b-da, 5, 3, 2, 19, 190, 117, 195, 120, 120, 195, 2, 0.687297
129, 1, bw, attraction, a-b-da, 5, 3, 2, 19, 190, 117, 195, 120, 120, 195, 1, 0.347174
129, 1, bw, attraction, a-b-da, 5, 1, 2, 20, 132, 58, 135, 60, 60, 135, 3, 1.019
129, 1, bw, attraction, a-b-da, 5, 1, 2, 20, 132, 58, 135, 60, 60, 135, 2, 0.497279
129, 1, bw, filler, NA, 999, 999, 2, 21, 83, 172, 138, 175, 90, 106, 2, 0.883021
129, 1, bw, filler, NA, 999, 999, 2, 21, 83, 172, 138, 175, 90, 106, 3, 0.438765
129, 1, bw, catch, NA, 999, 999, 2, 22, 113, 82, 126, 129, 121, 194, 2, 0.891176
129, 1, bw, catch, NA, 999, 999, 2, 22, 113, 82, 126, 129, 121, 194, 1, 0.470281
129, 1, bw, filler, NA, 999, 999, 2, 23, 124, 122, 183, 131, 68, 126, 2, 0.913383
129, 1, bw, filler, NA, 999, 999, 2, 23, 124, 122, 183, 131, 68, 126, 3, 0.371795
129, 1, bw, attraction, a-b-db, 2, 1, 2, 24, 59, 134, 135, 60, 60, 135, 3, 0.834838
129, 1, bw, attraction, a-b-db, 2, 1, 2, 24, 59, 134, 135, 60, 60, 135, 2, 0.43261
129, 1, bw, filler, NA, 999, 999, 2, 25, 184, 194, 148, 113, 190, 93, 1, 0.645097
129, 1, bw, filler, NA, 999, 999, 2, 25, 184, 194, 148, 113, 190, 93, 2, 0.482151
129, 1, bw, attraction, a-b-db, 14, 3, 2, 26, 111, 181, 195, 120, 120, 195, 2, 1.17273
129, 1, bw, attraction, a-b-db, 14, 3, 2, 26, 111, 181, 195, 120, 120, 195, 1, 0.308327
129, 1, bw, attraction, a-b-da, 14, 1, 2, 27, 125, 56, 135, 60, 60, 135, 2, 0.84533
129, 1, bw, attraction, a-b-da, 14, 1, 2, 27, 125, 56, 135, 60, 60, 135, 3, 0.386445
129, 1, bw, attraction, a-b-db, 2, 2, 2, 28, 165, 90, 90, 165, 89, 163, 2, 1.233
129, 1, bw, attraction, a-b-db, 2, 2, 2, 28, 165, 90, 90, 165, 89, 163, 1, 0.574506
129, 1, bw, attraction, a-b-da, 9, 2, 2, 29, 157, 86, 90, 165, 165, 90, 2, 0.941008
129, 1, bw, attraction, a-b-da, 9, 2, 2, 29, 157, 86, 90, 165, 165, 90, 1, 0.653876
129, 1, bw, attraction, a-b-db, 14, 1, 2, 30, 56, 125, 135, 60, 60, 135, 3, 0.825671
129, 1, bw, attraction, a-b-db, 14, 1, 2, 30, 56, 125, 135, 60, 60, 135, 2, 0.647371
129, 1, bw, attraction, a-b-da, 2, 3, 2, 31, 195, 120, 120, 195, 193, 119, 2, 0.699054
129, 1, bw, attraction, a-b-da, 2, 3, 2, 31, 195, 120, 120, 195, 193, 119, 1, 0.606335
129, 1, bw, catch, NA, 999, 999, 2, 32, 192, 123, 161, 94, 131, 64, 1, 0.955968
129, 1, bw, catch, NA, 999, 999, 2, 32, 192, 123, 161, 94, 131, 64, 3, 0.404428
129, 1, bw, attraction, a-b-da, 14, 3, 2, 33, 181, 111, 120, 195, 195, 120, 2, 0.914125
129, 1, bw, attraction, a-b-da, 14, 3, 2, 33, 181, 111, 120, 195, 195, 120, 1, 0.436421
129, 1, bw, filler, NA, 999, 999, 2, 34, 69, 107, 80, 102, 137, 108, 3, 0.832916
129, 1, bw, filler, NA, 999, 999, 2, 34, 69, 107, 80, 102, 137, 108, 1, 1.08684
129, 1, bw, attraction, a-b-db, 2, 3, 2, 35, 119, 193, 120, 195, 195, 120, 2, 1.04105
129, 1, bw, attraction, a-b-db, 2, 3, 2, 35, 119, 193, 120, 195, 195, 120, 1, 1.00586
129, 1, bw, attraction, a-b-da, 9, 1, 2, 36, 129, 57, 135, 60, 60, 135, 3, 1.37153
129, 1, bw, attraction, a-b-da, 9, 1, 2, 36, 129, 57, 135, 60, 60, 135, 2, 0.443111
129, 1, bw, filler, NA, 999, 999, 2, 37, 97, 83, 85, 194, 115, 149, 2, 1.25497
129, 1, bw, filler, NA, 999, 999, 2, 37, 97, 83, 85, 194, 115, 149, 1, 1.10779
129, 1, bw, attraction, a-b-db, 5, 2, 3, 1, 88, 161, 90, 165, 165, 90, 3, 1.71678
129, 1, bw, attraction, a-b-db, 5, 2, 3, 1, 88, 161, 90, 165, 165, 90, 2, 0.510828
129, 1, bw, attraction, a-b-da, 2, 2, 3, 2, 163, 89, 165, 90, 90, 165, 2, 1.64797
129, 1, bw, attraction, a-b-da, 2, 2, 3, 2, 163, 89, 165, 90, 90, 165, 3, 0.516864
129, 1, bw, attraction, a-b-da, 2, 3, 3, 3, 195, 120, 193, 119, 120, 195, 2, 1.09374
129, 1, bw, attraction, a-b-da, 2, 3, 3, 3, 195, 120, 193, 119, 120, 195, 3, 0.448934
129, 1, bw, filler, NA, 999, 999, 3, 4, 83, 143, 84, 108, 69, 95, 1, 1.10858
129, 1, bw, filler, NA, 999, 999, 3, 4, 83, 143, 84, 108, 69, 95, 3, 0.566899
129, 1, bw, attraction, a-b-db, 9, 1, 3, 5, 135, 60, 60, 135, 57, 129, 2, 1.60605
129, 1, bw, attraction, a-b-db, 9, 1, 3, 5, 135, 60, 60, 135, 57, 129, 1, 0.532099
129, 1, bw, attraction, a-b-da, 2, 1, 3, 6, 60, 135, 134, 59, 135, 60, 2, 0.996644
129, 1, bw, attraction, a-b-da, 2, 1, 3, 6, 60, 135, 134, 59, 135, 60, 3, 0.379672
129, 1, bw, attraction, a-b-db, 5, 1, 3, 7, 60, 135, 58, 132, 135, 60, 1, 1.38603
129, 1, bw, attraction, a-b-db, 5, 1, 3, 7, 60, 135, 58, 132, 135, 60, 3, 0.617635
129, 1, bw, attraction, a-b-da, 5, 2, 3, 8, 90, 165, 165, 90, 161, 88, 2, 0.766836
129, 1, bw, attraction, a-b-da, 5, 2, 3, 8, 90, 165, 165, 90, 161, 88, 3, 0.38315
129, 1, bw, attraction, a-b-da, 9, 3, 3, 9, 186, 114, 195, 120, 120, 195, 1, 0.853563
129, 1, bw, attraction, a-b-da, 9, 3, 3, 9, 186, 114, 195, 120, 120, 195, 3, 0.322859
129, 1, bw, attraction, a-b-db, 14, 3, 3, 10, 195, 120, 120, 195, 111, 181, 2, 0.699871
129, 1, bw, attraction, a-b-db, 14, 3, 3, 10, 195, 120, 120, 195, 111, 181, 3, 0.782928
129, 1, bw, attraction, a-b-da, 14, 2, 3, 11, 165, 90, 90, 165, 153, 83, 2, 1.0932
129, 1, bw, attraction, a-b-da, 14, 2, 3, 11, 165, 90, 90, 165, 153, 83, 3, 0.760332
129, 1, bw, attraction, a-b-da, 5, 1, 3, 12, 132, 58, 135, 60, 60, 135, 3, 2.59929
129, 1, bw, attraction, a-b-da, 5, 1, 3, 12, 132, 58, 135, 60, 60, 135, 2, 0.533736
129, 1, bw, attraction, a-b-db, 9, 2, 3, 13, 90, 165, 165, 90, 86, 157, 2, 1.05415
129, 1, bw, attraction, a-b-db, 9, 2, 3, 13, 90, 165, 165, 90, 86, 157, 3, 0.30648
129, 1, bw, filler, NA, 999, 999, 3, 14, 123, 191, 140, 148, 59, 176, 2, 1.01234
129, 1, bw, filler, NA, 999, 999, 3, 14, 123, 191, 140, 148, 59, 176, 3, 0.666629
129, 1, bw, catch, NA, 999, 999, 3, 15, 100, 95, 137, 118, 190, 125, 2, 0.685782
129, 1, bw, catch, NA, 999, 999, 3, 15, 100, 95, 137, 118, 190, 125, 1, 0.385604
129, 1, bw, filler, NA, 999, 999, 3, 16, 132, 150, 91, 155, 130, 185, 1, 0.791993
129, 1, bw, filler, NA, 999, 999, 3, 16, 132, 150, 91, 155, 130, 185, 2, 0.33507
129, 1, bw, catch, NA, 999, 999, 3, 17, 166, 149, 132, 63, 103, 152, 1, 0.751559
129, 1, bw, catch, NA, 999, 999, 3, 17, 166, 149, 132, 63, 103, 152, 2, 0.405427
129, 1, bw, attraction, a-b-db, 5, 3, 3, 18, 120, 195, 195, 120, 117, 190, 2, 1.71854
129, 1, bw, attraction, a-b-db, 5, 3, 3, 18, 120, 195, 195, 120, 117, 190, 1, 0.512613
129, 1, bw, filler, NA, 999, 999, 3, 19, 80, 178, 124, 163, 77, 116, 2, 0.945748
129, 1, bw, filler, NA, 999, 999, 3, 19, 80, 178, 124, 163, 77, 116, 3, 0.322644
129, 1, bw, attraction, a-b-db, 14, 1, 3, 20, 60, 135, 56, 125, 135, 60, 3, 1.88396
129, 1, bw, attraction, a-b-db, 14, 1, 3, 20, 60, 135, 56, 125, 135, 60, 2, 0.383226
129, 1, bw, filler, NA, 999, 999, 3, 21, 182, 113, 117, 158, 82, 154, 2, 1.09377
129, 1, bw, filler, NA, 999, 999, 3, 21, 182, 113, 117, 158, 82, 154, 3, 0.272825
129, 1, bw, attraction, a-b-da, 14, 3, 3, 22, 195, 120, 181, 111, 120, 195, 1, 1.46795
129, 1, bw, attraction, a-b-da, 14, 3, 3, 22, 195, 120, 181, 111, 120, 195, 2, 0.656079
129, 1, bw, attraction, a-b-db, 9, 3, 3, 23, 120, 195, 195, 120, 114, 186, 3, 3.26799
129, 1, bw, attraction, a-b-db, 9, 3, 3, 23, 120, 195, 195, 120, 114, 186, 2, 0.29549
129, 1, bw, filler, NA, 999, 999, 3, 24, 93, 161, 192, 116, 86, 65, 2, 0.921318
129, 1, bw, filler, NA, 999, 999, 3, 24, 93, 161, 192, 116, 86, 65, 3, 0.555005
129, 1, bw, attraction, a-b-da, 14, 1, 3, 25, 60, 135, 125, 56, 135, 60, 3, 1.17881
129, 1, bw, attraction, a-b-da, 14, 1, 3, 25, 60, 135, 125, 56, 135, 60, 2, 0.54634
129, 1, bw, attraction, a-b-db, 2, 2, 3, 26, 89, 163, 165, 90, 90, 165, 2, 1.02615
129, 1, bw, attraction, a-b-db, 2, 2, 3, 26, 89, 163, 165, 90, 90, 165, 1, 0.263769
129, 1, bw, attraction, a-b-da, 9, 2, 3, 27, 157, 86, 90, 165, 165, 90, 1, 3.76304
129, 1, bw, attraction, a-b-da, 9, 2, 3, 27, 157, 86, 90, 165, 165, 90, 2, 0.32248
129, 1, bw, catch, NA, 999, 999, 3, 28, 174, 141, 93, 102, 157, 98, 1, 0.795537
129, 1, bw, catch, NA, 999, 999, 3, 28, 174, 141, 93, 102, 157, 98, 2, 0.666802
129, 1, bw, attraction, a-b-da, 9, 1, 3, 29, 129, 57, 60, 135, 135, 60, 2, 0.797779
129, 1, bw, attraction, a-b-da, 9, 1, 3, 29, 129, 57, 60, 135, 135, 60, 3, 0.468915
129, 1, bw, filler, NA, 999, 999, 3, 30, 97, 146, 164, 167, 174, 130, 2, 0.783861
129, 1, bw, filler, NA, 999, 999, 3, 30, 97, 146, 164, 167, 174, 130, 1, 0.311603
129, 1, bw, attraction, a-b-db, 14, 2, 3, 31, 90, 165, 165, 90, 83, 153, 2, 0.816923
129, 1, bw, attraction, a-b-db, 14, 2, 3, 31, 90, 165, 165, 90, 83, 153, 1, 0.319206
129, 1, bw, attraction, a-b-db, 2, 3, 3, 32, 195, 120, 119, 193, 120, 195, 2, 1.31247
129, 1, bw, attraction, a-b-db, 2, 3, 3, 32, 195, 120, 119, 193, 120, 195, 3, 0.570622
129, 1, bw, filler, NA, 999, 999, 3, 33, 106, 139, 155, 94, 79, 186, 2, 0.649699
129, 1, bw, filler, NA, 999, 999, 3, 33, 106, 139, 155, 94, 79, 186, 1, 0.414826
129, 1, bw, filler, NA, 999, 999, 3, 34, 58, 193, 66, 73, 149, 190, 3, 0.635965
129, 1, bw, filler, NA, 999, 999, 3, 34, 58, 193, 66, 73, 149, 190, 2, 0.369765
129, 1, bw, filler, NA, 999, 999, 3, 35, 180, 165, 84, 152, 182, 98, 2, 0.600868
129, 1, bw, filler, NA, 999, 999, 3, 35, 180, 165, 84, 152, 182, 98, 1, 0.231984
129, 1, bw, attraction, a-b-da, 5, 3, 3, 36, 195, 120, 120, 195, 190, 117, 2, 1.86054
129, 1, bw, attraction, a-b-da, 5, 3, 3, 36, 195, 120, 120, 195, 190, 117, 1, 0.896624
129, 1, bw, attraction, a-b-db, 2, 1, 3, 37, 59, 134, 60, 135, 135, 60, 3, 0.978237
129, 1, bw, attraction, a-b-db, 2, 1, 3, 37, 59, 134, 60, 135, 135, 60, 2, 0.34593
129, 1, bw, filler, NA, 999, 999, 4, 1, 60, 108, 148, 144, 71, 66, 2, 0.721734
129, 1, bw, filler, NA, 999, 999, 4, 1, 60, 108, 148, 144, 71, 66, 3, 0.523591
129, 1, bw, attraction, a-b-da, 2, 3, 4, 2, 120, 195, 193, 119, 195, 120, 2, 1.52395
129, 1, bw, attraction, a-b-da, 2, 3, 4, 2, 120, 195, 193, 119, 195, 120, 1, 0.653537
129, 1, bw, attraction, a-b-da, 9, 3, 4, 3, 195, 120, 186, 114, 120, 195, 3, 0.921275
129, 1, bw, attraction, a-b-da, 9, 3, 4, 3, 195, 120, 186, 114, 120, 195, 2, 0.298938
129, 1, bw, attraction, a-b-da, 5, 3, 4, 4, 195, 120, 190, 117, 120, 195, 3, 3.98872
129, 1, bw, attraction, a-b-da, 5, 3, 4, 4, 195, 120, 190, 117, 120, 195, 1, 0.794746
129, 1, bw, filler, NA, 999, 999, 4, 5, 177, 124, 174, 190, 187, 170, 2, 1.35241
129, 1, bw, filler, NA, 999, 999, 4, 5, 177, 124, 174, 190, 187, 170, 1, 1.09738
129, 1, bw, filler, NA, 999, 999, 4, 6, 105, 160, 87, 127, 191, 190, 3, 0.762955
129, 1, bw, filler, NA, 999, 999, 4, 6, 105, 160, 87, 127, 191, 190, 2, 1.18747
129, 1, bw, attraction, a-b-da, 2, 1, 4, 7, 134, 59, 135, 60, 60, 135, 3, 2.24153
129, 1, bw, attraction, a-b-da, 2, 1, 4, 7, 134, 59, 135, 60, 60, 135, 1, 0.63822
129, 1, bw, attraction, a-b-da, 5, 1, 4, 8, 132, 58, 135, 60, 60, 135, 3, 1.4187
129, 1, bw, attraction, a-b-da, 5, 1, 4, 8, 132, 58, 135, 60, 60, 135, 1, 0.472891
129, 1, bw, attraction, a-b-da, 14, 2, 4, 9, 153, 83, 90, 165, 165, 90, 2, 1.56413
129, 1, bw, attraction, a-b-da, 14, 2, 4, 9, 153, 83, 90, 165, 165, 90, 3, 0.388131
129, 1, bw, attraction, a-b-da, 9, 2, 4, 10, 90, 165, 157, 86, 165, 90, 2, 1.70657
129, 1, bw, attraction, a-b-da, 9, 2, 4, 10, 90, 165, 157, 86, 165, 90, 1, 0.468785
129, 1, bw, attraction, a-b-db, 14, 2, 4, 11, 165, 90, 83, 153, 90, 165, 2, 1.14379
129, 1, bw, attraction, a-b-db, 14, 2, 4, 11, 165, 90, 83, 153, 90, 165, 3, 0.288739
129, 1, bw, attraction, a-b-da, 14, 3, 4, 12, 120, 195, 181, 111, 195, 120, 2, 1.08335
129, 1, bw, attraction, a-b-da, 14, 3, 4, 12, 120, 195, 181, 111, 195, 120, 1, 0.670928
129, 1, bw, attraction, a-b-db, 9, 1, 4, 13, 60, 135, 57, 129, 135, 60, 3, 0.945999
129, 1, bw, attraction, a-b-db, 9, 1, 4, 13, 60, 135, 57, 129, 135, 60, 2, 0.411019
129, 1, bw, catch, NA, 999, 999, 4, 14, 139, 176, 69, 126, 116, 139, 1, 0.752139
129, 1, bw, catch, NA, 999, 999, 4, 14, 139, 176, 69, 126, 116, 139, 2, 0.497355
129, 1, bw, filler, NA, 999, 999, 4, 15, 114, 104, 90, 75, 109, 99, 3, 1.9471
129, 1, bw, filler, NA, 999, 999, 4, 15, 114, 104, 90, 75, 109, 99, 2, 0.475692
129, 1, bw, filler, NA, 999, 999, 4, 16, 110, 83, 112, 98, 145, 58, 2, 0.838146
129, 1, bw, filler, NA, 999, 999, 4, 16, 110, 83, 112, 98, 145, 58, 1, 0.395214
129, 1, bw, attraction, a-b-db, 9, 2, 4, 17, 90, 165, 86, 157, 165, 90, 2, 2.16918
129, 1, bw, attraction, a-b-db, 9, 2, 4, 17, 90, 165, 86, 157, 165, 90, 1, 0.521275
129, 1, bw, attraction, a-b-da, 2, 2, 4, 18, 90, 165, 165, 90, 163, 89, 2, 0.954041
129, 1, bw, attraction, a-b-da, 2, 2, 4, 18, 90, 165, 165, 90, 163, 89, 3, 0.467042
129, 1, bw, catch, NA, 999, 999, 4, 19, 164, 91, 127, 188, 61, 134, 2, 0.766249
129, 1, bw, catch, NA, 999, 999, 4, 19, 164, 91, 127, 188, 61, 134, 3, 0.526688
129, 1, bw, catch, NA, 999, 999, 4, 20, 121, 134, 124, 71, 147, 168, 3, 0.72709
129, 1, bw, catch, NA, 999, 999, 4, 20, 121, 134, 124, 71, 147, 168, 2, 0.432807
129, 1, bw, attraction, a-b-db, 14, 1, 4, 21, 135, 60, 60, 135, 56, 125, 2, 1.31723
129, 1, bw, attraction, a-b-db, 14, 1, 4, 21, 135, 60, 60, 135, 56, 125, 1, 0.503544
129, 1, bw, attraction, a-b-da, 9, 1, 4, 22, 60, 135, 129, 57, 135, 60, 3, 1.16932
129, 1, bw, attraction, a-b-da, 9, 1, 4, 22, 60, 135, 129, 57, 135, 60, 2, 0.37754
129, 1, bw, attraction, a-b-da, 14, 1, 4, 23, 135, 60, 60, 135, 125, 56, 2, 0.768159
129, 1, bw, attraction, a-b-da, 14, 1, 4, 23, 135, 60, 60, 135, 125, 56, 1, 0.456511
129, 1, bw, attraction, a-b-db, 5, 1, 4, 24, 58, 132, 60, 135, 135, 60, 2, 0.667688
129, 1, bw, attraction, a-b-db, 5, 1, 4, 24, 58, 132, 60, 135, 135, 60, 1, 0.43203
129, 1, bw, filler, NA, 999, 999, 4, 25, 181, 101, 125, 175, 100, 181, 2, 0.724439
129, 1, bw, filler, NA, 999, 999, 4, 25, 181, 101, 125, 175, 100, 181, 3, 0.294295
129, 1, bw, attraction, a-b-db, 9, 3, 4, 26, 195, 120, 114, 186, 120, 195, 2, 0.64811
129, 1, bw, attraction, a-b-db, 9, 3, 4, 26, 195, 120, 114, 186, 120, 195, 3, 0.301257
129, 1, bw, attraction, a-b-db, 2, 1, 4, 27, 59, 134, 135, 60, 60, 135, 2, 0.671081
129, 1, bw, attraction, a-b-db, 2, 1, 4, 27, 59, 134, 135, 60, 60, 135, 1, 0.218833
129, 1, bw, filler, NA, 999, 999, 4, 28, 114, 69, 158, 60, 165, 188, 3, 0.671999
129, 1, bw, filler, NA, 999, 999, 4, 28, 114, 69, 158, 60, 165, 188, 1, 0.63587
129, 1, bw, attraction, a-b-db, 5, 3, 4, 29, 120, 195, 195, 120, 117, 190, 3, 1.10422
129, 1, bw, attraction, a-b-db, 5, 3, 4, 29, 120, 195, 195, 120, 117, 190, 2, 0.363155
129, 1, bw, filler, NA, 999, 999, 4, 30, 61, 181, 65, 100, 91, 75, 2, 1.06629
129, 1, bw, filler, NA, 999, 999, 4, 30, 61, 181, 65, 100, 91, 75, 1, 0.494634
129, 1, bw, filler, NA, 999, 999, 4, 31, 61, 60, 100, 164, 113, 113, 2, 0.624363
129, 1, bw, filler, NA, 999, 999, 4, 31, 61, 60, 100, 164, 113, 113, 1, 0.830148
129, 1, bw, attraction, a-b-db, 2, 2, 4, 32, 89, 163, 165, 90, 90, 165, 3, 0.714514
129, 1, bw, attraction, a-b-db, 2, 2, 4, 32, 89, 163, 165, 90, 90, 165, 2, 0.380898
129, 1, bw, attraction, a-b-db, 2, 3, 4, 33, 119, 193, 195, 120, 120, 195, 2, 0.579473
129, 1, bw, attraction, a-b-db, 2, 3, 4, 33, 119, 193, 195, 120, 120, 195, 1, 0.347219
129, 1, bw, filler, NA, 999, 999, 4, 34, 84, 78, 150, 130, 107, 167, 2, 1.01906
129, 1, bw, filler, NA, 999, 999, 4, 34, 84, 78, 150, 130, 107, 167, 1, 0.31343
129, 1, bw, attraction, a-b-db, 5, 2, 4, 35, 90, 165, 88, 161, 165, 90, 3, 0.842595
129, 1, bw, attraction, a-b-db, 5, 2, 4, 35, 90, 165, 88, 161, 165, 90, 1, 0.359599
129, 1, bw, attraction, a-b-da, 5, 2, 4, 36, 165, 90, 90, 165, 161, 88, 2, 0.582773
129, 1, bw, attraction, a-b-da, 5, 2, 4, 36, 165, 90, 90, 165, 161, 88, 1, 0.326603
129, 1, bw, attraction, a-b-db, 14, 3, 4, 37, 120, 195, 111, 181, 195, 120, 3, 0.855089
129, 1, bw, attraction, a-b-db, 14, 3, 4, 37, 120, 195, 111, 181, 195, 120, 2, 0.267466
129, 1, bw, attraction, a-b-db, 5, 2, 5, 1, 88, 161, 165, 90, 90, 165, 3, 1.7013
129, 1, bw, attraction, a-b-db, 5, 2, 5, 1, 88, 161, 165, 90, 90, 165, 2, 0.576109
129, 1, bw, filler, NA, 999, 999, 5, 2, 67, 127, 140, 61, 180, 135, 3, 0.638473
129, 1, bw, filler, NA, 999, 999, 5, 2, 67, 127, 140, 61, 180, 135, 2, 0.491621
129, 1, bw, attraction, a-b-db, 9, 3, 5, 3, 195, 120, 114, 186, 120, 195, 1, 0.813287
129, 1, bw, attraction, a-b-db, 9, 3, 5, 3, 195, 120, 114, 186, 120, 195, 2, 0.883885
129, 1, bw, filler, NA, 999, 999, 5, 4, 192, 116, 95, 180, 178, 180, 3, 0.822052
129, 1, bw, filler, NA, 999, 999, 5, 4, 192, 116, 95, 180, 178, 180, 2, 0.403717
129, 1, bw, catch, NA, 999, 999, 5, 5, 190, 125, 106, 89, 116, 139, 1, 0.817578
129, 1, bw, catch, NA, 999, 999, 5, 5, 190, 125, 106, 89, 116, 139, 2, 0.344031
129, 1, bw, filler, NA, 999, 999, 5, 6, 151, 180, 62, 142, 172, 74, 1, 0.975816
129, 1, bw, filler, NA, 999, 999, 5, 6, 151, 180, 62, 142, 172, 74, 2, 0.343534
129, 1, bw, attraction, a-b-da, 2, 2, 5, 7, 163, 89, 90, 165, 165, 90, 3, 0.895338
129, 1, bw, attraction, a-b-da, 2, 2, 5, 7, 163, 89, 90, 165, 165, 90, 2, 0.290493
129, 1, bw, filler, NA, 999, 999, 5, 8, 130, 180, 150, 173, 81, 84, 2, 0.740227
129, 1, bw, filler, NA, 999, 999, 5, 8, 130, 180, 150, 173, 81, 84, 3, 0.341314
129, 1, bw, attraction, a-b-da, 5, 3, 5, 9, 195, 120, 120, 195, 190, 117, 1, 0.781094
129, 1, bw, attraction, a-b-da, 5, 3, 5, 9, 195, 120, 120, 195, 190, 117, 2, 0.325422
129, 1, bw, catch, NA, 999, 999, 5, 10, 162, 153, 85, 110, 165, 90, 1, 0.765325
129, 1, bw, catch, NA, 999, 999, 5, 10, 162, 153, 85, 110, 165, 90, 2, 0.325722
129, 1, bw, filler, NA, 999, 999, 5, 11, 153, 57, 134, 125, 84, 158, 2, 0.702186
129, 1, bw, filler, NA, 999, 999, 5, 11, 153, 57, 134, 125, 84, 158, 1, 0.977427
129, 1, bw, filler, NA, 999, 999, 5, 12, 126, 132, 125, 174, 90, 147, 2, 0.639596
129, 1, bw, filler, NA, 999, 999, 5, 12, 126, 132, 125, 174, 90, 147, 3, 0.348768
129, 1, bw, attraction, a-b-db, 2, 3, 5, 13, 120, 195, 195, 120, 119, 193, 2, 0.588576
129, 1, bw, attraction, a-b-db, 2, 3, 5, 13, 120, 195, 195, 120, 119, 193, 1, 0.291679
129, 1, bw, attraction, a-b-da, 9, 3, 5, 14, 120, 195, 186, 114, 195, 120, 1, 0.701571
129, 1, bw, attraction, a-b-da, 9, 3, 5, 14, 120, 195, 186, 114, 195, 120, 2, 0.312703
129, 1, bw, filler, NA, 999, 999, 5, 15, 185, 70, 182, 87, 155, 140, 3, 0.841871
129, 1, bw, filler, NA, 999, 999, 5, 15, 185, 70, 182, 87, 155, 140, 1, 0.550784
129, 1, bw, filler, NA, 999, 999, 5, 16, 104, 114, 74, 166, 56, 145, 1, 1.21464
129, 1, bw, filler, NA, 999, 999, 5, 16, 104, 114, 74, 166, 56, 145, 3, 0.661079
129, 1, bw, attraction, a-b-da, 14, 2, 5, 17, 90, 165, 165, 90, 153, 83, 3, 0.792048
129, 1, bw, attraction, a-b-da, 14, 2, 5, 17, 90, 165, 165, 90, 153, 83, 2, 0.255116
129, 1, bw, attraction, a-b-da, 9, 1, 5, 18, 129, 57, 60, 135, 135, 60, 2, 0.586887
129, 1, bw, attraction, a-b-da, 9, 1, 5, 18, 129, 57, 60, 135, 135, 60, 3, 0.386718
129, 1, bw, attraction, a-b-db, 14, 3, 5, 19, 120, 195, 195, 120, 111, 181, 1, 0.633217
129, 1, bw, attraction, a-b-db, 14, 3, 5, 19, 120, 195, 195, 120, 111, 181, 2, 0.254948
129, 1, bw, attraction, a-b-db, 9, 2, 5, 20, 90, 165, 165, 90, 86, 157, 2, 0.866792
129, 1, bw, attraction, a-b-db, 9, 2, 5, 20, 90, 165, 165, 90, 86, 157, 1, 0.287119
129, 1, bw, attraction, a-b-da, 2, 3, 5, 21, 193, 119, 195, 120, 120, 195, 1, 1.09778
129, 1, bw, attraction, a-b-da, 2, 3, 5, 21, 193, 119, 195, 120, 120, 195, 2, 0.460594
129, 1, bw, attraction, a-b-da, 14, 3, 5, 22, 120, 195, 181, 111, 195, 120, 1, 0.983821
129, 1, bw, attraction, a-b-da, 14, 3, 5, 22, 120, 195, 181, 111, 195, 120, 2, 0.431587
129, 1, bw, attraction, a-b-da, 2, 1, 5, 23, 134, 59, 135, 60, 60, 135, 3, 0.891897
129, 1, bw, attraction, a-b-da, 2, 1, 5, 23, 134, 59, 135, 60, 60, 135, 2, 0.398932
129, 1, bw, attraction, a-b-db, 14, 1, 5, 24, 60, 135, 56, 125, 135, 60, 1, 0.812739
129, 1, bw, attraction, a-b-db, 14, 1, 5, 24, 60, 135, 56, 125, 135, 60, 3, 0.371343
129, 1, bw, attraction, a-b-da, 5, 1, 5, 25, 132, 58, 60, 135, 135, 60, 1, 0.706384
129, 1, bw, attraction, a-b-da, 5, 1, 5, 25, 132, 58, 60, 135, 135, 60, 2, 0.436702
129, 1, bw, catch, NA, 999, 999, 5, 26, 163, 92, 135, 180, 80, 115, 2, 0.657154
129, 1, bw, catch, NA, 999, 999, 5, 26, 163, 92, 135, 180, 80, 115, 3, 0.277661
129, 1, bw, attraction, a-b-da, 5, 2, 5, 27, 90, 165, 165, 90, 161, 88, 2, 0.672322
129, 1, bw, attraction, a-b-da, 5, 2, 5, 27, 90, 165, 165, 90, 161, 88, 1, 0.324023
129, 1, bw, attraction, a-b-db, 5, 1, 5, 28, 135, 60, 58, 132, 60, 135, 3, 0.628475
129, 1, bw, attraction, a-b-db, 5, 1, 5, 28, 135, 60, 58, 132, 60, 135, 2, 0.314201
129, 1, bw, attraction, a-b-db, 14, 2, 5, 29, 165, 90, 83, 153, 90, 165, 1, 1.02736
129, 1, bw, attraction, a-b-db, 14, 2, 5, 29, 165, 90, 83, 153, 90, 165, 2, 0.305055
129, 1, bw, attraction, a-b-db, 2, 1, 5, 30, 59, 134, 135, 60, 60, 135, 2, 1.32299
129, 1, bw, attraction, a-b-db, 2, 1, 5, 30, 59, 134, 135, 60, 60, 135, 3, 0.324457
129, 1, bw, attraction, a-b-db, 2, 2, 5, 31, 89, 163, 90, 165, 165, 90, 2, 0.788921
129, 1, bw, attraction, a-b-db, 2, 2, 5, 31, 89, 163, 90, 165, 165, 90, 3, 0.284037
129, 1, bw, filler, NA, 999, 999, 5, 32, 124, 83, 66, 146, 134, 102, 3, 1.08645
129, 1, bw, filler, NA, 999, 999, 5, 32, 124, 83, 66, 146, 134, 102, 2, 0.402156
129, 1, bw, filler, NA, 999, 999, 5, 33, 100, 177, 149, 134, 90, 147, 2, 0.591959
129, 1, bw, filler, NA, 999, 999, 5, 33, 100, 177, 149, 134, 90, 147, 1, 0.359146
129, 1, bw, attraction, a-b-da, 14, 1, 5, 34, 125, 56, 135, 60, 60, 135, 3, 0.590264
129, 1, bw, attraction, a-b-da, 14, 1, 5, 34, 125, 56, 135, 60, 60, 135, 2, 0.381439
129, 1, bw, attraction, a-b-db, 9, 1, 5, 35, 60, 135, 57, 129, 135, 60, 2, 0.723886
129, 1, bw, attraction, a-b-db, 9, 1, 5, 35, 60, 135, 57, 129, 135, 60, 3, 0.405652
129, 1, bw, attraction, a-b-db, 5, 3, 5, 36, 117, 190, 195, 120, 120, 195, 1, 1.03546
129, 1, bw, attraction, a-b-db, 5, 3, 5, 36, 117, 190, 195, 120, 120, 195, 2, 0.78512
129, 1, bw, attraction, a-b-da, 9, 2, 5, 37, 157, 86, 90, 165, 165, 90, 2, 1.16744
129, 1, bw, attraction, a-b-da, 9, 2, 5, 37, 157, 86, 90, 165, 165, 90, 1, 0.439769
129, 1, bw, attraction, a-b-db, 5, 3, 6, 1, 120, 195, 195, 120, 117, 190, 3, 1.00434
129, 1, bw, attraction, a-b-db, 5, 3, 6, 1, 120, 195, 195, 120, 117, 190, 2, 0.331103
129, 1, bw, filler, NA, 999, 999, 6, 2, 57, 114, 174, 166, 189, 112, 2, 0.7396
129, 1, bw, filler, NA, 999, 999, 6, 2, 57, 114, 174, 166, 189, 112, 1, 0.412799
129, 1, bw, filler, NA, 999, 999, 6, 3, 94, 135, 130, 106, 125, 137, 3, 6.45793
129, 1, bw, filler, NA, 999, 999, 6, 3, 94, 135, 130, 106, 125, 137, 1, 0.980556
129, 1, bw, attraction, a-b-da, 9, 1, 6, 4, 129, 57, 135, 60, 60, 135, 3, 1.05087
129, 1, bw, attraction, a-b-da, 9, 1, 6, 4, 129, 57, 135, 60, 60, 135, 1, 1.09583
129, 1, bw, attraction, a-b-da, 9, 2, 6, 5, 90, 165, 157, 86, 165, 90, 1, 1.12944
129, 1, bw, attraction, a-b-da, 9, 2, 6, 5, 90, 165, 157, 86, 165, 90, 3, 0.771059
129, 1, bw, filler, NA, 999, 999, 6, 6, 104, 151, 79, 80, 109, 88, 1, 0.826112
129, 1, bw, filler, NA, 999, 999, 6, 6, 104, 151, 79, 80, 109, 88, 2, 0.94391
129, 1, bw, filler, NA, 999, 999, 6, 7, 152, 108, 86, 177, 149, 175, 3, 0.751531
129, 1, bw, filler, NA, 999, 999, 6, 7, 152, 108, 86, 177, 149, 175, 2, 0.464558
129, 1, bw, attraction, a-b-da, 14, 1, 6, 8, 60, 135, 125, 56, 135, 60, 1, 1.29155
129, 1, bw, attraction, a-b-da, 14, 1, 6, 8, 60, 135, 125, 56, 135, 60, 2, 0.43059
129, 1, bw, attraction, a-b-db, 14, 1, 6, 9, 60, 135, 135, 60, 56, 125, 2, 1.58699
129, 1, bw, attraction, a-b-db, 14, 1, 6, 9, 60, 135, 135, 60, 56, 125, 3, 0.378525
129, 1, bw, attraction, a-b-da, 5, 3, 6, 10, 190, 117, 195, 120, 120, 195, 3, 2.20896
129, 1, bw, attraction, a-b-da, 5, 3, 6, 10, 190, 117, 195, 120, 120, 195, 1, 0.606983
129, 1, bw, attraction, a-b-db, 5, 2, 6, 11, 88, 161, 90, 165, 165, 90, 2, 0.995987
129, 1, bw, attraction, a-b-db, 5, 2, 6, 11, 88, 161, 90, 165, 165, 90, 3, 0.322976
129, 1, bw, attraction, a-b-da, 5, 1, 6, 12, 60, 135, 135, 60, 132, 58, 2, 0.828106
129, 1, bw, attraction, a-b-da, 5, 1, 6, 12, 60, 135, 135, 60, 132, 58, 3, 0.66597
129, 1, bw, catch, NA, 999, 999, 6, 13, 149, 166, 117, 78, 161, 94, 1, 0.740958
129, 1, bw, catch, NA, 999, 999, 6, 13, 149, 166, 117, 78, 161, 94, 2, 0.438138
129, 1, bw, catch, NA, 999, 999, 6, 14, 100, 155, 146, 169, 114, 81, 2, 0.770456
129, 1, bw, catch, NA, 999, 999, 6, 14, 100, 155, 146, 169, 114, 81, 3, 0.458932
129, 1, bw, attraction, a-b-da, 9, 3, 6, 15, 120, 195, 195, 120, 186, 114, 2, 0.758081
129, 1, bw, attraction, a-b-da, 9, 3, 6, 15, 120, 195, 195, 120, 186, 114, 1, 0.342524
129, 1, bw, filler, NA, 999, 999, 6, 16, 112, 132, 162, 94, 166, 101, 3, 0.67033
129, 1, bw, filler, NA, 999, 999, 6, 16, 112, 132, 162, 94, 166, 101, 2, 0.306806
129, 1, bw, attraction, a-b-db, 9, 1, 6, 17, 60, 135, 135, 60, 57, 129, 2, 0.940103
129, 1, bw, attraction, a-b-db, 9, 1, 6, 17, 60, 135, 135, 60, 57, 129, 3, 0.340959
129, 1, bw, filler, NA, 999, 999, 6, 18, 67, 122, 158, 82, 157, 138, 3, 0.692746
129, 1, bw, filler, NA, 999, 999, 6, 18, 67, 122, 158, 82, 157, 138, 1, 0.479847
129, 1, bw, attraction, a-b-db, 2, 1, 6, 19, 135, 60, 60, 135, 59, 134, 1, 2.31421
129, 1, bw, attraction, a-b-db, 2, 1, 6, 19, 135, 60, 60, 135, 59, 134, 2, 0.676167
129, 1, bw, attraction, a-b-db, 9, 2, 6, 20, 86, 157, 165, 90, 90, 165, 2, 0.790506
129, 1, bw, attraction, a-b-db, 9, 2, 6, 20, 86, 157, 165, 90, 90, 165, 1, 0.821597
129, 1, bw, attraction, a-b-da, 2, 2, 6, 21, 165, 90, 163, 89, 90, 165, 1, 1.06676
129, 1, bw, attraction, a-b-da, 2, 2, 6, 21, 165, 90, 163, 89, 90, 165, 2, 1.29493
129, 1, bw, filler, NA, 999, 999, 6, 22, 114, 93, 97, 96, 116, 192, 3, 0.816509
129, 1, bw, filler, NA, 999, 999, 6, 22, 114, 93, 97, 96, 116, 192, 2, 0.358882
129, 1, bw, attraction, a-b-db, 2, 2, 6, 23, 89, 163, 165, 90, 90, 165, 3, 0.790088
129, 1, bw, attraction, a-b-db, 2, 2, 6, 23, 89, 163, 165, 90, 90, 165, 2, 0.293172
129, 1, bw, attraction, a-b-db, 9, 3, 6, 24, 195, 120, 120, 195, 114, 186, 2, 0.854981
129, 1, bw, attraction, a-b-db, 9, 3, 6, 24, 195, 120, 120, 195, 114, 186, 3, 0.579361
129, 1, bw, attraction, a-b-da, 14, 2, 6, 25, 90, 165, 165, 90, 153, 83, 2, 1.03386
129, 1, bw, attraction, a-b-da, 14, 2, 6, 25, 90, 165, 165, 90, 153, 83, 3, 0.359445
129, 1, bw, attraction, a-b-db, 14, 2, 6, 26, 90, 165, 83, 153, 165, 90, 1, 1.32655
129, 1, bw, attraction, a-b-db, 14, 2, 6, 26, 90, 165, 83, 153, 165, 90, 2, 0.360182
129, 1, bw, filler, NA, 999, 999, 6, 27, 195, 127, 120, 108, 75, 142, 1, 0.735341
129, 1, bw, filler, NA, 999, 999, 6, 27, 195, 127, 120, 108, 75, 142, 3, 0.889065
129, 1, bw, attraction, a-b-db, 14, 3, 6, 28, 111, 181, 120, 195, 195, 120, 2, 1.05936
129, 1, bw, attraction, a-b-db, 14, 3, 6, 28, 111, 181, 120, 195, 195, 120, 1, 0.343662
129, 1, bw, attraction, a-b-db, 2, 3, 6, 29, 195, 120, 120, 195, 119, 193, 1, 1.00751
129, 1, bw, attraction, a-b-db, 2, 3, 6, 29, 195, 120, 120, 195, 119, 193, 3, 0.381857
129, 1, bw, catch, NA, 999, 999, 6, 30, 95, 160, 69, 126, 161, 154, 3, 0.796367
129, 1, bw, catch, NA, 999, 999, 6, 30, 95, 160, 69, 126, 161, 154, 2, 0.411285
129, 1, bw, filler, NA, 999, 999, 6, 31, 104, 129, 101, 179, 122, 142, 2, 0.800599
129, 1, bw, filler, NA, 999, 999, 6, 31, 104, 129, 101, 179, 122, 142, 1, 0.359702
129, 1, bw, attraction, a-b-db, 5, 1, 6, 32, 58, 132, 135, 60, 60, 135, 3, 0.870765
129, 1, bw, attraction, a-b-db, 5, 1, 6, 32, 58, 132, 135, 60, 60, 135, 2, 0.459053
129, 1, bw, attraction, a-b-da, 2, 1, 6, 33, 135, 60, 60, 135, 134, 59, 2, 0.694173
129, 1, bw, attraction, a-b-da, 2, 1, 6, 33, 135, 60, 60, 135, 134, 59, 3, 0.601326
129, 1, bw, attraction, a-b-da, 14, 3, 6, 34, 181, 111, 120, 195, 195, 120, 2, 0.727063
129, 1, bw, attraction, a-b-da, 14, 3, 6, 34, 181, 111, 120, 195, 195, 120, 1, 0.352791
129, 1, bw, attraction, a-b-da, 2, 3, 6, 35, 120, 195, 195, 120, 193, 119, 3, 0.816631
129, 1, bw, attraction, a-b-da, 2, 3, 6, 35, 120, 195, 195, 120, 193, 119, 2, 0.335037
129, 1, bw, attraction, a-b-da, 5, 2, 6, 36, 90, 165, 165, 90, 161, 88, 2, 0.847652
129, 1, bw, attraction, a-b-da, 5, 2, 6, 36, 90, 165, 165, 90, 161, 88, 3, 0.300613
129, 1, bw, filler, NA, 999, 999, 6, 37, 189, 124, 143, 73, 134, 142, 1, 0.71038
129, 1, bw, filler, NA, 999, 999, 6, 37, 189, 124, 143, 73, 134, 142, 2, 0.38484
129, 1, bw, attraction, a-b-db, 2, 3, 7, 1, 195, 120, 119, 193, 120, 195, 2, 1.08737
129, 1, bw, attraction, a-b-db, 2, 3, 7, 1, 195, 120, 119, 193, 120, 195, 1, 0.314964
129, 1, bw, filler, NA, 999, 999, 7, 2, 78, 133, 141, 187, 60, 186, 2, 0.724169
129, 1, bw, filler, NA, 999, 999, 7, 2, 78, 133, 141, 187, 60, 186, 1, 0.317884
129, 1, bw, filler, NA, 999, 999, 7, 3, 175, 178, 138, 195, 150, 174, 1, 1.47919
129, 1, bw, filler, NA, 999, 999, 7, 3, 175, 178, 138, 195, 150, 174, 2, 0.826632
129, 1, bw, attraction, a-b-db, 5, 3, 7, 4, 117, 190, 120, 195, 195, 120, 2, 1.25502
129, 1, bw, attraction, a-b-db, 5, 3, 7, 4, 117, 190, 120, 195, 195, 120, 1, 0.499213
129, 1, bw, catch, NA, 999, 999, 7, 5, 81, 114, 191, 124, 126, 129, 2, 0.701141
129, 1, bw, catch, NA, 999, 999, 7, 5, 81, 114, 191, 124, 126, 129, 1, 0.37608
129, 1, bw, catch, NA, 999, 999, 7, 6, 161, 94, 131, 64, 144, 171, 3, 1.24671
129, 1, bw, catch, NA, 999, 999, 7, 6, 161, 94, 131, 64, 144, 171, 2, 0.707567
129, 1, bw, filler, NA, 999, 999, 7, 7, 79, 56, 172, 151, 61, 81, 2, 0.548597
129, 1, bw, filler, NA, 999, 999, 7, 7, 79, 56, 172, 151, 61, 81, 1, 0.389732
129, 1, bw, attraction, a-b-db, 2, 1, 7, 8, 135, 60, 60, 135, 59, 134, 2, 1.50023
129, 1, bw, attraction, a-b-db, 2, 1, 7, 8, 135, 60, 60, 135, 59, 134, 1, 0.366949
129, 1, bw, attraction, a-b-da, 14, 1, 7, 9, 135, 60, 125, 56, 60, 135, 3, 0.742279
129, 1, bw, attraction, a-b-da, 14, 1, 7, 9, 135, 60, 125, 56, 60, 135, 2, 0.511203
129, 1, bw, attraction, a-b-db, 2, 2, 7, 10, 90, 165, 165, 90, 89, 163, 3, 1.33637
129, 1, bw, attraction, a-b-db, 2, 2, 7, 10, 90, 165, 165, 90, 89, 163, 2, 0.337865
129, 1, bw, filler, NA, 999, 999, 7, 11, 73, 77, 106, 61, 136, 131, 3, 0.594364
129, 1, bw, filler, NA, 999, 999, 7, 11, 73, 77, 106, 61, 136, 131, 1, 0.425492
129, 1, bw, attraction, a-b-da, 9, 2, 7, 12, 157, 86, 90, 165, 165, 90, 3, 0.918096
129, 1, bw, attraction, a-b-da, 9, 2, 7, 12, 157, 86, 90, 165, 165, 90, 2, 0.40838
129, 1, bw, attraction, a-b-da, 14, 2, 7, 13, 165, 90, 153, 83, 90, 165, 1, 0.893494
129, 1, bw, attraction, a-b-da, 14, 2, 7, 13, 165, 90, 153, 83, 90, 165, 2, 0.304555
129, 1, bw, attraction, a-b-da, 2, 1, 7, 14, 60, 135, 135, 60, 134, 59, 2, 0.97038
129, 1, bw, attraction, a-b-da, 2, 1, 7, 14, 60, 135, 135, 60, 134, 59, 3, 0.394733
129, 1, bw, attraction, a-b-db, 5, 1, 7, 15, 58, 132, 60, 135, 135, 60, 1, 1.27256
129, 1, bw, attraction, a-b-db, 5, 1, 7, 15, 58, 132, 60, 135, 135, 60, 2, 0.356056
129, 1, bw, filler, NA, 999, 999, 7, 16, 99, 66, 133, 129, 61, 184, 2, 0.643891
129, 1, bw, filler, NA, 999, 999, 7, 16, 99, 66, 133, 129, 61, 184, 1, 0.409009
129, 1, bw, attraction, a-b-da, 5, 1, 7, 17, 60, 135, 132, 58, 135, 60, 1, 0.84611
129, 1, bw, attraction, a-b-da, 5, 1, 7, 17, 60, 135, 132, 58, 135, 60, 2, 0.539164
129, 1, bw, filler, NA, 999, 999, 7, 18, 88, 168, 108, 165, 67, 173, 2, 0.707641
129, 1, bw, filler, NA, 999, 999, 7, 18, 88, 168, 108, 165, 67, 173, 3, 0.742115
129, 1, bw, attraction, a-b-da, 14, 3, 7, 19, 181, 111, 195, 120, 120, 195, 2, 0.661854
129, 1, bw, attraction, a-b-da, 14, 3, 7, 19, 181, 111, 195, 120, 120, 195, 1, 0.56226
129, 1, bw, attraction, a-b-db, 14, 1, 7, 20, 56, 125, 135, 60, 60, 135, 2, 1.00128
129, 1, bw, attraction, a-b-db, 14, 1, 7, 20, 56, 125, 135, 60, 60, 135, 3, 0.304502
129, 1, bw, attraction, a-b-db, 14, 2, 7, 21, 165, 90, 90, 165, 83, 153, 2, 0.602172
129, 1, bw, attraction, a-b-db, 14, 2, 7, 21, 165, 90, 90, 165, 83, 153, 3, 0.537333
129, 1, bw, filler, NA, 999, 999, 7, 22, 77, 169, 195, 85, 65, 154, 2, 0.625697
129, 1, bw, filler, NA, 999, 999, 7, 22, 77, 169, 195, 85, 65, 154, 1, 0.303498
129, 1, bw, attraction, a-b-db, 9, 2, 7, 23, 165, 90, 86, 157, 90, 165, 3, 1.32934
129, 1, bw, attraction, a-b-db, 9, 2, 7, 23, 165, 90, 86, 157, 90, 165, 2, 0.282881
129, 1, bw, attraction, a-b-da, 2, 3, 7, 24, 120, 195, 195, 120, 193, 119, 2, 0.933395
129, 1, bw, attraction, a-b-da, 2, 3, 7, 24, 120, 195, 195, 120, 193, 119, 3, 0.287222
129, 1, bw, attraction, a-b-da, 9, 1, 7, 25, 60, 135, 135, 60, 129, 57, 2, 1.36167
129, 1, bw, attraction, a-b-da, 9, 1, 7, 25, 60, 135, 135, 60, 129, 57, 3, 0.361812
129, 1, bw, attraction, a-b-da, 5, 2, 7, 26, 165, 90, 90, 165, 161, 88, 2, 0.729001
129, 1, bw, attraction, a-b-da, 5, 2, 7, 26, 165, 90, 90, 165, 161, 88, 3, 0.362683
129, 1, bw, attraction, a-b-db, 9, 1, 7, 27, 57, 129, 135, 60, 60, 135, 3, 1.02594
129, 1, bw, attraction, a-b-db, 9, 1, 7, 27, 57, 129, 135, 60, 60, 135, 2, 0.40762
129, 1, bw, attraction, a-b-db, 5, 2, 7, 28, 90, 165, 165, 90, 88, 161, 3, 0.804734
129, 1, bw, attraction, a-b-db, 5, 2, 7, 28, 90, 165, 165, 90, 88, 161, 2, 0.33113
129, 1, bw, attraction, a-b-db, 9, 3, 7, 29, 120, 195, 195, 120, 114, 186, 3, 0.939617
129, 1, bw, attraction, a-b-db, 9, 3, 7, 29, 120, 195, 195, 120, 114, 186, 2, 0.260624
129, 1, bw, attraction, a-b-da, 9, 3, 7, 30, 195, 120, 186, 114, 120, 195, 1, 0.83982
129, 1, bw, attraction, a-b-da, 9, 3, 7, 30, 195, 120, 186, 114, 120, 195, 2, 0.324878
129, 1, bw, catch, NA, 999, 999, 7, 31, 162, 93, 112, 83, 143, 172, 3, 0.893435
129, 1, bw, catch, NA, 999, 999, 7, 31, 162, 93, 112, 83, 143, 172, 2, 0.408391
129, 1, bw, filler, NA, 999, 999, 7, 32, 64, 92, 65, 151, 154, 131, 3, 0.645557
129, 1, bw, filler, NA, 999, 999, 7, 32, 64, 92, 65, 151, 154, 131, 1, 0.698647
129, 1, bw, filler, NA, 999, 999, 7, 33, 178, 194, 81, 160, 173, 83, 1, 0.724406
129, 1, bw, filler, NA, 999, 999, 7, 33, 178, 194, 81, 160, 173, 83, 2, 0.318049
129, 1, bw, attraction, a-b-db, 14, 3, 7, 34, 111, 181, 195, 120, 120, 195, 3, 0.663306
129, 1, bw, attraction, a-b-db, 14, 3, 7, 34, 111, 181, 195, 120, 120, 195, 2, 0.275722
129, 1, bw, attraction, a-b-da, 2, 2, 7, 35, 165, 90, 90, 165, 163, 89, 2, 0.678247
129, 1, bw, attraction, a-b-da, 2, 2, 7, 35, 165, 90, 90, 165, 163, 89, 3, 0.241994
129, 1, bw, attraction, a-b-da, 5, 3, 7, 36, 120, 195, 195, 120, 190, 117, 3, 0.853848
129, 1, bw, attraction, a-b-da, 5, 3, 7, 36, 120, 195, 195, 120, 190, 117, 2, 0.370279
129, 1, bw, filler, NA, 999, 999, 7, 37, 107, 185, 126, 81, 144, 91, 3, 1.17738
129, 1, bw, filler, NA, 999, 999, 7, 37, 107, 185, 126, 81, 144, 91, 2, 0.561101
129, 1, bw, attraction, a-b-da, 2, 3, 8, 1, 120, 195, 193, 119, 195, 120, 3, 0.968161
129, 1, bw, attraction, a-b-da, 2, 3, 8, 1, 120, 195, 193, 119, 195, 120, 1, 0.512572
129, 1, bw, filler, NA, 999, 999, 8, 2, 73, 94, 94, 149, 87, 129, 3, 1.30555
129, 1, bw, filler, NA, 999, 999, 8, 2, 73, 94, 94, 149, 87, 129, 1, 0.491697
129, 1, bw, filler, NA, 999, 999, 8, 3, 186, 104, 103, 77, 114, 195, 3, 1.02156
129, 1, bw, filler, NA, 999, 999, 8, 3, 186, 104, 103, 77, 114, 195, 2, 0.37928
129, 1, bw, attraction, a-b-db, 2, 2, 8, 4, 165, 90, 90, 165, 89, 163, 2, 1.12171
129, 1, bw, attraction, a-b-db, 2, 2, 8, 4, 165, 90, 90, 165, 89, 163, 3, 0.443359
129, 1, bw, attraction, a-b-db, 5, 3, 8, 5, 195, 120, 120, 195, 117, 190, 2, 0.767174
129, 1, bw, attraction, a-b-db, 5, 3, 8, 5, 195, 120, 120, 195, 117, 190, 1, 0.543501
129, 1, bw, attraction, a-b-db, 14, 2, 8, 6, 165, 90, 90, 165, 83, 153, 3, 1.35923
129, 1, bw, attraction, a-b-db, 14, 2, 8, 6, 165, 90, 90, 165, 83, 153, 2, 1.35944
129, 1, bw, attraction, a-b-da, 5, 1, 8, 7, 135, 60, 60, 135, 132, 58, 1, 0.982299
129, 1, bw, attraction, a-b-da, 5, 1, 8, 7, 135, 60, 60, 135, 132, 58, 2, 0.661999
129, 1, bw, attraction, a-b-db, 2, 3, 8, 8, 120, 195, 195, 120, 119, 193, 2, 0.665057
129, 1, bw, attraction, a-b-db, 2, 3, 8, 8, 120, 195, 195, 120, 119, 193, 3, 0.301539
129, 1, bw, attraction, a-b-db, 2, 1, 8, 9, 59, 134, 135, 60, 60, 135, 1, 0.807291
129, 1, bw, attraction, a-b-db, 2, 1, 8, 9, 59, 134, 135, 60, 60, 135, 2, 0.269725
129, 1, bw, attraction, a-b-da, 9, 1, 8, 10, 129, 57, 60, 135, 135, 60, 2, 1.04092
129, 1, bw, attraction, a-b-da, 9, 1, 8, 10, 129, 57, 60, 135, 135, 60, 3, 0.325909
129, 1, bw, filler, NA, 999, 999, 8, 11, 156, 172, 136, 184, 101, 111, 2, 0.678445
129, 1, bw, filler, NA, 999, 999, 8, 11, 156, 172, 136, 184, 101, 111, 3, 0.274172
129, 1, bw, attraction, a-b-db, 5, 2, 8, 12, 165, 90, 88, 161, 90, 165, 2, 0.556673
129, 1, bw, attraction, a-b-db, 5, 2, 8, 12, 165, 90, 88, 161, 90, 165, 1, 0.565125
129, 1, bw, attraction, a-b-db, 9, 1, 8, 13, 57, 129, 60, 135, 135, 60, 2, 0.668271
129, 1, bw, attraction, a-b-db, 9, 1, 8, 13, 57, 129, 60, 135, 135, 60, 3, 0.344852
129, 1, bw, attraction, a-b-da, 5, 2, 8, 14, 165, 90, 161, 88, 90, 165, 2, 0.520758
129, 1, bw, attraction, a-b-da, 5, 2, 8, 14, 165, 90, 161, 88, 90, 165, 1, 0.355043
129, 1, bw, attraction, a-b-da, 14, 2, 8, 15, 90, 165, 153, 83, 165, 90, 2, 0.602859
129, 1, bw, attraction, a-b-da, 14, 2, 8, 15, 90, 165, 153, 83, 165, 90, 1, 0.537956
129, 1, bw, filler, NA, 999, 999, 8, 16, 90, 113, 176, 150, 97, 99, 2, 0.578446
129, 1, bw, filler, NA, 999, 999, 8, 16, 90, 113, 176, 150, 97, 99, 3, 0.378355
129, 1, bw, filler, NA, 999, 999, 8, 17, 141, 154, 193, 145, 157, 77, 2, 0.424689
129, 1, bw, filler, NA, 999, 999, 8, 17, 141, 154, 193, 145, 157, 77, 3, 0.502576
129, 1, bw, attraction, a-b-da, 9, 3, 8, 18, 195, 120, 120, 195, 186, 114, 2, 0.616376
129, 1, bw, attraction, a-b-da, 9, 3, 8, 18, 195, 120, 120, 195, 186, 114, 1, 0.366888
129, 1, bw, filler, NA, 999, 999, 8, 19, 98, 58, 146, 120, 72, 91, 2, 0.62201
129, 1, bw, filler, NA, 999, 999, 8, 19, 98, 58, 146, 120, 72, 91, 3, 0.787818
129, 1, bw, attraction, a-b-da, 9, 2, 8, 20, 157, 86, 90, 165, 165, 90, 2, 1.43406
129, 1, bw, attraction, a-b-da, 9, 2, 8, 20, 157, 86, 90, 165, 165, 90, 1, 0.91159
129, 1, bw, catch, NA, 999, 999, 8, 21, 163, 152, 115, 140, 87, 108, 2, 0.552676
129, 1, bw, catch, NA, 999, 999, 8, 21, 163, 152, 115, 140, 87, 108, 3, 0.321788
129, 1, bw, filler, NA, 999, 999, 8, 22, 170, 140, 105, 174, 96, 86, 2, 0.906982
129, 1, bw, filler, NA, 999, 999, 8, 22, 170, 140, 105, 174, 96, 86, 3, 1.22126
129, 1, bw, attraction, a-b-db, 9, 3, 8, 23, 120, 195, 195, 120, 114, 186, 2, 0.770128
129, 1, bw, attraction, a-b-db, 9, 3, 8, 23, 120, 195, 195, 120, 114, 186, 1, 0.394526
129, 1, bw, catch, NA, 999, 999, 8, 24, 75, 120, 125, 130, 139, 176, 3, 0.65634
129, 1, bw, catch, NA, 999, 999, 8, 24, 75, 120, 125, 130, 139, 176, 1, 0.404925
129, 1, bw, attraction, a-b-da, 2, 2, 8, 25, 165, 90, 163, 89, 90, 165, 3, 1.06658
129, 1, bw, attraction, a-b-da, 2, 2, 8, 25, 165, 90, 163, 89, 90, 165, 2, 0.326894
129, 1, bw, filler, NA, 999, 999, 8, 26, 192, 112, 191, 183, 99, 150, 2, 0.799381
129, 1, bw, filler, NA, 999, 999, 8, 26, 192, 112, 191, 183, 99, 150, 3, 0.566512
129, 1, bw, attraction, a-b-da, 14, 1, 8, 27, 60, 135, 125, 56, 135, 60, 3, 0.733557
129, 1, bw, attraction, a-b-da, 14, 1, 8, 27, 60, 135, 125, 56, 135, 60, 1, 0.695298
129, 1, bw, attraction, a-b-da, 2, 1, 8, 28, 135, 60, 134, 59, 60, 135, 1, 0.737012
129, 1, bw, attraction, a-b-da, 2, 1, 8, 28, 135, 60, 134, 59, 60, 135, 3, 0.306846
129, 1, bw, attraction, a-b-db, 5, 1, 8, 29, 58, 132, 60, 135, 135, 60, 3, 0.819964
129, 1, bw, attraction, a-b-db, 5, 1, 8, 29, 58, 132, 60, 135, 135, 60, 2, 0.354378
129, 1, bw, attraction, a-b-db, 14, 3, 8, 30, 120, 195, 111, 181, 195, 120, 3, 0.674183
129, 1, bw, attraction, a-b-db, 14, 3, 8, 30, 120, 195, 111, 181, 195, 120, 1, 0.373953
129, 1, bw, attraction, a-b-db, 9, 2, 8, 31, 165, 90, 90, 165, 86, 157, 1, 0.524471
129, 1, bw, attraction, a-b-db, 9, 2, 8, 31, 165, 90, 90, 165, 86, 157, 3, 0.382315
129, 1, bw, catch, NA, 999, 999, 8, 32, 67, 128, 91, 164, 125, 190, 3, 1.00469
129, 1, bw, catch, NA, 999, 999, 8, 32, 67, 128, 91, 164, 125, 190, 1, 0.371042
129, 1, bw, attraction, a-b-da, 5, 3, 8, 33, 190, 117, 120, 195, 195, 120, 2, 2.49832
129, 1, bw, attraction, a-b-da, 5, 3, 8, 33, 190, 117, 120, 195, 195, 120, 3, 0.396821
129, 1, bw, attraction, a-b-db, 14, 1, 8, 34, 56, 125, 135, 60, 60, 135, 3, 1.15461
129, 1, bw, attraction, a-b-db, 14, 1, 8, 34, 56, 125, 135, 60, 60, 135, 1, 0.547029
129, 1, bw, filler, NA, 999, 999, 8, 35, 72, 138, 62, 138, 192, 151, 3, 3.43457
129, 1, bw, filler, NA, 999, 999, 8, 35, 72, 138, 62, 138, 192, 151, 1, 0.647528
129, 1, bw, filler, NA, 999, 999, 8, 36, 172, 121, 86, 92, 90, 173, 1, 0.88318
129, 1, bw, filler, NA, 999, 999, 8, 36, 172, 121, 86, 92, 90, 173, 2, 0.662999
129, 1, bw, attraction, a-b-da, 14, 3, 8, 37, 195, 120, 120, 195, 181, 111, 2, 0.881951
129, 1, bw, attraction, a-b-da, 14, 3, 8, 37, 195, 120, 120, 195, 181, 111, 3, 0.381942
