sub_n, computer_n, bw_cond, effect, set, distance, diag, block_n, trial_n, h1, w1, h2, w2, h3, w3, choice, rt 
163, 1, bw, practice, NA, 999, 999, 0, 1, 112, 95, 83, 190, 116, 145, 3, 15.6636
163, 1, bw, practice, NA, 999, 999, 0, 1, 112, 95, 83, 190, 116, 145, 1, 1.76938
163, 1, bw, practice, NA, 999, 999, 0, 2, 188, 169, 140, 189, 195, 103, 1, 5.93944
163, 1, bw, practice, NA, 999, 999, 0, 2, 188, 169, 140, 189, 195, 103, 3, 1.73899
163, 1, bw, practice, NA, 999, 999, 0, 3, 134, 110, 180, 69, 174, 132, 3, 9.88863
163, 1, bw, practice, NA, 999, 999, 0, 3, 134, 110, 180, 69, 174, 132, 2, 1.12145
163, 1, bw, attraction, a-b-db, 5, 2, 1, 1, 165, 90, 90, 165, 88, 161, 2, 4.56365
163, 1, bw, attraction, a-b-db, 5, 2, 1, 1, 165, 90, 90, 165, 88, 161, 1, 3.67484
163, 1, bw, catch, NA, 999, 999, 1, 2, 188, 127, 101, 94, 124, 131, 1, 1.44434
163, 1, bw, catch, NA, 999, 999, 1, 2, 188, 127, 101, 94, 124, 131, 2, 1.0252
163, 1, bw, attraction, a-b-db, 14, 3, 1, 3, 195, 120, 120, 195, 111, 181, 2, 1.26144
163, 1, bw, attraction, a-b-db, 14, 3, 1, 3, 195, 120, 120, 195, 111, 181, 3, 0.417796
163, 1, bw, attraction, a-b-db, 14, 2, 1, 4, 83, 153, 165, 90, 90, 165, 3, 1.57484
163, 1, bw, attraction, a-b-db, 14, 2, 1, 4, 83, 153, 165, 90, 90, 165, 1, 0.414321
163, 1, bw, filler, NA, 999, 999, 1, 5, 192, 69, 157, 89, 56, 147, 2, 3.77147
163, 1, bw, filler, NA, 999, 999, 1, 5, 192, 69, 157, 89, 56, 147, 3, 1.00309
163, 1, bw, filler, NA, 999, 999, 1, 6, 58, 122, 98, 182, 68, 91, 2, 0.776646
163, 1, bw, filler, NA, 999, 999, 1, 6, 58, 122, 98, 182, 68, 91, 3, 0.640425
163, 1, bw, attraction, a-b-da, 5, 3, 1, 7, 195, 120, 190, 117, 120, 195, 3, 1.66804
163, 1, bw, attraction, a-b-da, 5, 3, 1, 7, 195, 120, 190, 117, 120, 195, 2, 2.99225
163, 1, bw, attraction, a-b-db, 5, 1, 1, 8, 58, 132, 135, 60, 60, 135, 3, 1.50912
163, 1, bw, attraction, a-b-db, 5, 1, 1, 8, 58, 132, 135, 60, 60, 135, 2, 1.17536
163, 1, bw, attraction, a-b-da, 9, 3, 1, 9, 195, 120, 186, 114, 120, 195, 3, 8.97352
163, 1, bw, attraction, a-b-da, 9, 3, 1, 9, 195, 120, 186, 114, 120, 195, 2, 0.730668
163, 1, bw, filler, NA, 999, 999, 1, 10, 119, 170, 70, 130, 127, 154, 1, 1.70701
163, 1, bw, filler, NA, 999, 999, 1, 10, 119, 170, 70, 130, 127, 154, 2, 0.47727
163, 1, bw, filler, NA, 999, 999, 1, 11, 124, 178, 156, 131, 56, 71, 1, 1.74373
163, 1, bw, filler, NA, 999, 999, 1, 11, 124, 178, 156, 131, 56, 71, 3, 1.02459
163, 1, bw, filler, NA, 999, 999, 1, 12, 117, 81, 82, 181, 108, 126, 3, 12.0527
163, 1, bw, filler, NA, 999, 999, 1, 12, 117, 81, 82, 181, 108, 126, 1, 0.550337
163, 1, bw, attraction, a-b-da, 14, 1, 1, 13, 125, 56, 135, 60, 60, 135, 3, 2.95807
163, 1, bw, attraction, a-b-da, 14, 1, 1, 13, 125, 56, 135, 60, 60, 135, 1, 1.32573
163, 1, bw, attraction, a-b-da, 5, 2, 1, 14, 90, 165, 165, 90, 161, 88, 1, 3.44606
163, 1, bw, attraction, a-b-da, 5, 2, 1, 14, 90, 165, 165, 90, 161, 88, 3, 0.610309
163, 1, bw, filler, NA, 999, 999, 1, 15, 107, 110, 149, 123, 56, 144, 2, 0.999267
163, 1, bw, filler, NA, 999, 999, 1, 15, 107, 110, 149, 123, 56, 144, 3, 1.7423
163, 1, bw, filler, NA, 999, 999, 1, 16, 166, 135, 193, 136, 170, 182, 3, 1.14956
163, 1, bw, filler, NA, 999, 999, 1, 16, 166, 135, 193, 136, 170, 182, 1, 0.958598
163, 1, bw, attraction, a-b-db, 14, 1, 1, 17, 60, 135, 135, 60, 56, 125, 3, 2.74148
163, 1, bw, attraction, a-b-db, 14, 1, 1, 17, 60, 135, 135, 60, 56, 125, 1, 0.734104
163, 1, bw, catch, NA, 999, 999, 1, 18, 110, 85, 115, 140, 154, 161, 3, 3.04641
163, 1, bw, catch, NA, 999, 999, 1, 18, 110, 85, 115, 140, 154, 161, 1, 0.746713
163, 1, bw, attraction, a-b-da, 14, 3, 1, 19, 120, 195, 181, 111, 195, 120, 3, 2.91454
163, 1, bw, attraction, a-b-da, 14, 3, 1, 19, 120, 195, 181, 111, 195, 120, 2, 1.02816
163, 1, bw, attraction, a-b-da, 14, 2, 1, 20, 165, 90, 153, 83, 90, 165, 3, 2.26461
163, 1, bw, attraction, a-b-da, 14, 2, 1, 20, 165, 90, 153, 83, 90, 165, 2, 1.12446
163, 1, bw, filler, NA, 999, 999, 1, 21, 61, 111, 99, 172, 168, 95, 2, 1.42864
163, 1, bw, filler, NA, 999, 999, 1, 21, 61, 111, 99, 172, 168, 95, 1, 0.538211
163, 1, bw, filler, NA, 999, 999, 1, 22, 142, 178, 160, 165, 138, 63, 2, 1.01856
163, 1, bw, filler, NA, 999, 999, 1, 22, 142, 178, 160, 165, 138, 63, 3, 0.840908
163, 1, bw, attraction, a-b-db, 2, 1, 1, 23, 135, 60, 59, 134, 60, 135, 3, 4.13279
163, 1, bw, attraction, a-b-db, 2, 1, 1, 23, 135, 60, 59, 134, 60, 135, 2, 0.805446
163, 1, bw, attraction, a-b-db, 9, 1, 1, 24, 57, 129, 135, 60, 60, 135, 3, 5.56299
163, 1, bw, attraction, a-b-db, 9, 1, 1, 24, 57, 129, 135, 60, 60, 135, 1, 0.498013
163, 1, bw, attraction, a-b-da, 2, 2, 1, 25, 90, 165, 163, 89, 165, 90, 2, 1.21974
163, 1, bw, attraction, a-b-da, 2, 2, 1, 25, 90, 165, 163, 89, 165, 90, 3, 2.60206
163, 1, bw, attraction, a-b-db, 5, 3, 1, 26, 120, 195, 117, 190, 195, 120, 3, 4.71105
163, 1, bw, attraction, a-b-db, 5, 3, 1, 26, 120, 195, 117, 190, 195, 120, 1, 0.480197
163, 1, bw, attraction, a-b-da, 9, 2, 1, 27, 165, 90, 90, 165, 157, 86, 2, 1.8187
163, 1, bw, attraction, a-b-da, 9, 2, 1, 27, 165, 90, 90, 165, 157, 86, 3, 0.680859
163, 1, bw, filler, NA, 999, 999, 1, 28, 79, 146, 108, 160, 84, 159, 2, 1.19512
163, 1, bw, filler, NA, 999, 999, 1, 28, 79, 146, 108, 160, 84, 159, 1, 0.473997
163, 1, bw, attraction, a-b-db, 2, 2, 1, 29, 165, 90, 90, 165, 89, 163, 3, 3.62056
163, 1, bw, attraction, a-b-db, 2, 2, 1, 29, 165, 90, 90, 165, 89, 163, 1, 0.634124
163, 1, bw, attraction, a-b-da, 5, 1, 1, 30, 132, 58, 60, 135, 135, 60, 2, 5.27063
163, 1, bw, attraction, a-b-da, 5, 1, 1, 30, 132, 58, 60, 135, 135, 60, 1, 0.77759
163, 1, bw, attraction, a-b-db, 2, 3, 1, 31, 119, 193, 195, 120, 120, 195, 2, 1.19985
163, 1, bw, attraction, a-b-db, 2, 3, 1, 31, 119, 193, 195, 120, 120, 195, 1, 0.51088
163, 1, bw, attraction, a-b-da, 2, 3, 1, 32, 120, 195, 193, 119, 195, 120, 3, 5.31983
163, 1, bw, attraction, a-b-da, 2, 3, 1, 32, 120, 195, 193, 119, 195, 120, 2, 0.504879
163, 1, bw, attraction, a-b-db, 9, 3, 1, 33, 195, 120, 120, 195, 114, 186, 2, 1.35466
163, 1, bw, attraction, a-b-db, 9, 3, 1, 33, 195, 120, 120, 195, 114, 186, 1, 1.60346
163, 1, bw, attraction, a-b-da, 9, 1, 1, 34, 60, 135, 135, 60, 129, 57, 2, 1.92097
163, 1, bw, attraction, a-b-da, 9, 1, 1, 34, 60, 135, 135, 60, 129, 57, 1, 0.579014
163, 1, bw, attraction, a-b-db, 9, 2, 1, 35, 86, 157, 165, 90, 90, 165, 3, 1.52937
163, 1, bw, attraction, a-b-db, 9, 2, 1, 35, 86, 157, 165, 90, 90, 165, 1, 0.555028
163, 1, bw, catch, NA, 999, 999, 1, 36, 155, 160, 107, 148, 79, 116, 1, 1.31467
163, 1, bw, catch, NA, 999, 999, 1, 36, 155, 160, 107, 148, 79, 116, 3, 0.732932
163, 1, bw, attraction, a-b-da, 2, 1, 1, 37, 60, 135, 135, 60, 134, 59, 3, 2.3334
163, 1, bw, attraction, a-b-da, 2, 1, 1, 37, 60, 135, 135, 60, 134, 59, 2, 1.94266
163, 1, bw, catch, NA, 999, 999, 2, 1, 99, 96, 187, 128, 157, 98, 2, 0.845938
163, 1, bw, catch, NA, 999, 999, 2, 1, 99, 96, 187, 128, 157, 98, 1, 0.434982
163, 1, bw, attraction, a-b-da, 9, 2, 2, 2, 165, 90, 157, 86, 90, 165, 3, 3.71131
163, 1, bw, attraction, a-b-da, 9, 2, 2, 2, 165, 90, 157, 86, 90, 165, 2, 0.456952
163, 1, bw, attraction, a-b-da, 5, 2, 2, 3, 161, 88, 90, 165, 165, 90, 2, 6.10003
163, 1, bw, attraction, a-b-da, 5, 2, 2, 3, 161, 88, 90, 165, 165, 90, 1, 0.805459
163, 1, bw, filler, NA, 999, 999, 2, 4, 178, 185, 185, 120, 195, 148, 1, 2.09913
163, 1, bw, filler, NA, 999, 999, 2, 4, 178, 185, 185, 120, 195, 148, 2, 0.55793
163, 1, bw, attraction, a-b-db, 14, 3, 2, 5, 111, 181, 120, 195, 195, 120, 2, 2.08488
163, 1, bw, attraction, a-b-db, 14, 3, 2, 5, 111, 181, 120, 195, 195, 120, 1, 0.528294
163, 1, bw, filler, NA, 999, 999, 2, 6, 98, 70, 144, 138, 109, 98, 2, 1.64058
163, 1, bw, filler, NA, 999, 999, 2, 6, 98, 70, 144, 138, 109, 98, 1, 0.565429
163, 1, bw, catch, NA, 999, 999, 2, 7, 80, 115, 142, 113, 186, 129, 3, 1.14854
163, 1, bw, catch, NA, 999, 999, 2, 7, 80, 115, 142, 113, 186, 129, 1, 0.917571
163, 1, bw, attraction, a-b-da, 5, 1, 2, 8, 135, 60, 60, 135, 132, 58, 2, 4.51857
163, 1, bw, attraction, a-b-da, 5, 1, 2, 8, 135, 60, 60, 135, 132, 58, 3, 2.66384
163, 1, bw, attraction, a-b-da, 2, 2, 2, 9, 165, 90, 163, 89, 90, 165, 3, 4.15422
163, 1, bw, attraction, a-b-da, 2, 2, 2, 9, 165, 90, 163, 89, 90, 165, 2, 0.914254
163, 1, bw, attraction, a-b-da, 9, 3, 2, 10, 195, 120, 186, 114, 120, 195, 3, 6.40314
163, 1, bw, attraction, a-b-da, 9, 3, 2, 10, 195, 120, 186, 114, 120, 195, 2, 3.80042
163, 1, bw, attraction, a-b-da, 2, 1, 2, 11, 60, 135, 134, 59, 135, 60, 1, 2.54122
163, 1, bw, attraction, a-b-da, 2, 1, 2, 11, 60, 135, 134, 59, 135, 60, 3, 0.933787
163, 1, bw, attraction, a-b-da, 14, 1, 2, 12, 135, 60, 60, 135, 125, 56, 2, 0.934014
163, 1, bw, attraction, a-b-da, 14, 1, 2, 12, 135, 60, 60, 135, 125, 56, 3, 0.511662
163, 1, bw, attraction, a-b-da, 9, 1, 2, 13, 135, 60, 129, 57, 60, 135, 3, 4.88883
163, 1, bw, attraction, a-b-da, 9, 1, 2, 13, 135, 60, 129, 57, 60, 135, 2, 0.522551
163, 1, bw, attraction, a-b-db, 14, 1, 2, 14, 135, 60, 56, 125, 60, 135, 2, 4.3239
163, 1, bw, attraction, a-b-db, 14, 1, 2, 14, 135, 60, 56, 125, 60, 135, 1, 4.02032
163, 1, bw, filler, NA, 999, 999, 2, 15, 85, 56, 177, 191, 68, 165, 2, 1.02437
163, 1, bw, filler, NA, 999, 999, 2, 15, 85, 56, 177, 191, 68, 165, 1, 0.62995
163, 1, bw, attraction, a-b-da, 14, 2, 2, 16, 153, 83, 165, 90, 90, 165, 2, 7.72238
163, 1, bw, attraction, a-b-da, 14, 2, 2, 16, 153, 83, 165, 90, 90, 165, 1, 0.834654
163, 1, bw, attraction, a-b-db, 9, 3, 2, 17, 195, 120, 120, 195, 114, 186, 2, 2.95102
163, 1, bw, attraction, a-b-db, 9, 3, 2, 17, 195, 120, 120, 195, 114, 186, 3, 0.575392
163, 1, bw, attraction, a-b-db, 5, 1, 2, 18, 58, 132, 60, 135, 135, 60, 3, 2.73385
163, 1, bw, attraction, a-b-db, 5, 1, 2, 18, 58, 132, 60, 135, 135, 60, 1, 1.64697
163, 1, bw, attraction, a-b-da, 2, 3, 2, 19, 195, 120, 120, 195, 193, 119, 2, 1.82645
163, 1, bw, attraction, a-b-da, 2, 3, 2, 19, 195, 120, 120, 195, 193, 119, 3, 1.14379
163, 1, bw, filler, NA, 999, 999, 2, 20, 170, 111, 85, 97, 129, 164, 3, 1.31137
163, 1, bw, filler, NA, 999, 999, 2, 20, 170, 111, 85, 97, 129, 164, 2, 0.433622
163, 1, bw, filler, NA, 999, 999, 2, 21, 95, 169, 187, 76, 164, 157, 3, 0.998024
163, 1, bw, filler, NA, 999, 999, 2, 21, 95, 169, 187, 76, 164, 157, 1, 0.340989
163, 1, bw, filler, NA, 999, 999, 2, 22, 70, 141, 116, 165, 149, 137, 2, 3.44486
163, 1, bw, filler, NA, 999, 999, 2, 22, 70, 141, 116, 165, 149, 137, 1, 0.569097
163, 1, bw, attraction, a-b-da, 14, 3, 2, 23, 181, 111, 120, 195, 195, 120, 2, 1.8082
163, 1, bw, attraction, a-b-da, 14, 3, 2, 23, 181, 111, 120, 195, 195, 120, 1, 0.382236
163, 1, bw, attraction, a-b-db, 5, 3, 2, 24, 195, 120, 120, 195, 117, 190, 2, 2.94868
163, 1, bw, attraction, a-b-db, 5, 3, 2, 24, 195, 120, 120, 195, 117, 190, 3, 4.81311
163, 1, bw, filler, NA, 999, 999, 2, 25, 172, 58, 157, 75, 150, 144, 3, 1.27286
163, 1, bw, filler, NA, 999, 999, 2, 25, 172, 58, 157, 75, 150, 144, 1, 0.540432
163, 1, bw, attraction, a-b-db, 2, 1, 2, 26, 59, 134, 135, 60, 60, 135, 3, 1.35619
163, 1, bw, attraction, a-b-db, 2, 1, 2, 26, 59, 134, 135, 60, 60, 135, 1, 0.484561
163, 1, bw, attraction, a-b-db, 14, 2, 2, 27, 90, 165, 83, 153, 165, 90, 3, 5.1911
163, 1, bw, attraction, a-b-db, 14, 2, 2, 27, 90, 165, 83, 153, 165, 90, 1, 0.444532
163, 1, bw, filler, NA, 999, 999, 2, 28, 106, 178, 125, 147, 95, 115, 1, 1.24038
163, 1, bw, filler, NA, 999, 999, 2, 28, 106, 178, 125, 147, 95, 115, 3, 0.405353
163, 1, bw, filler, NA, 999, 999, 2, 29, 58, 112, 67, 102, 129, 169, 3, 0.987292
163, 1, bw, filler, NA, 999, 999, 2, 29, 58, 112, 67, 102, 129, 169, 1, 1.98681
163, 1, bw, attraction, a-b-db, 9, 1, 2, 30, 60, 135, 57, 129, 135, 60, 3, 6.6408
163, 1, bw, attraction, a-b-db, 9, 1, 2, 30, 60, 135, 57, 129, 135, 60, 1, 1.43605
163, 1, bw, attraction, a-b-da, 5, 3, 2, 31, 195, 120, 190, 117, 120, 195, 3, 2.10422
163, 1, bw, attraction, a-b-da, 5, 3, 2, 31, 195, 120, 190, 117, 120, 195, 2, 3.01022
163, 1, bw, catch, NA, 999, 999, 2, 32, 140, 115, 130, 65, 158, 157, 3, 0.998536
163, 1, bw, catch, NA, 999, 999, 2, 32, 140, 115, 130, 65, 158, 157, 2, 0.413504
163, 1, bw, attraction, a-b-db, 2, 2, 2, 33, 90, 165, 89, 163, 165, 90, 2, 2.3147
163, 1, bw, attraction, a-b-db, 2, 2, 2, 33, 90, 165, 89, 163, 165, 90, 3, 0.58055
163, 1, bw, filler, NA, 999, 999, 2, 34, 132, 140, 172, 185, 180, 77, 2, 1.29106
163, 1, bw, filler, NA, 999, 999, 2, 34, 132, 140, 172, 185, 180, 77, 3, 0.477954
163, 1, bw, attraction, a-b-db, 2, 3, 2, 35, 119, 193, 120, 195, 195, 120, 2, 8.50429
163, 1, bw, attraction, a-b-db, 2, 3, 2, 35, 119, 193, 120, 195, 195, 120, 1, 0.784966
163, 1, bw, attraction, a-b-db, 9, 2, 2, 36, 165, 90, 90, 165, 86, 157, 2, 2.59133
163, 1, bw, attraction, a-b-db, 9, 2, 2, 36, 165, 90, 90, 165, 86, 157, 3, 1.02192
163, 1, bw, attraction, a-b-db, 5, 2, 2, 37, 90, 165, 88, 161, 165, 90, 2, 6.27479
163, 1, bw, attraction, a-b-db, 5, 2, 2, 37, 90, 165, 88, 161, 165, 90, 1, 4.1808
163, 1, bw, attraction, a-b-db, 14, 1, 3, 1, 135, 60, 56, 125, 60, 135, 2, 1.37021
163, 1, bw, attraction, a-b-db, 14, 1, 3, 1, 135, 60, 56, 125, 60, 135, 1, 0.826398
163, 1, bw, attraction, a-b-da, 2, 2, 3, 2, 163, 89, 165, 90, 90, 165, 3, 2.03869
163, 1, bw, attraction, a-b-da, 2, 2, 3, 2, 163, 89, 165, 90, 90, 165, 1, 0.899463
163, 1, bw, attraction, a-b-da, 5, 2, 3, 3, 161, 88, 165, 90, 90, 165, 3, 2.02895
163, 1, bw, attraction, a-b-da, 5, 2, 3, 3, 161, 88, 165, 90, 90, 165, 1, 0.546324
163, 1, bw, attraction, a-b-db, 5, 2, 3, 4, 88, 161, 90, 165, 165, 90, 2, 1.80211
163, 1, bw, attraction, a-b-db, 5, 2, 3, 4, 88, 161, 90, 165, 165, 90, 1, 1.84095
163, 1, bw, attraction, a-b-da, 9, 3, 3, 5, 195, 120, 186, 114, 120, 195, 3, 1.30818
163, 1, bw, attraction, a-b-da, 9, 3, 3, 5, 195, 120, 186, 114, 120, 195, 1, 0.56646
163, 1, bw, filler, NA, 999, 999, 3, 6, 154, 57, 124, 192, 163, 175, 3, 3.31761
163, 1, bw, filler, NA, 999, 999, 3, 6, 154, 57, 124, 192, 163, 175, 1, 1.86312
163, 1, bw, attraction, a-b-db, 9, 2, 3, 7, 165, 90, 90, 165, 86, 157, 2, 1.48188
163, 1, bw, attraction, a-b-db, 9, 2, 3, 7, 165, 90, 90, 165, 86, 157, 1, 0.989525
163, 1, bw, attraction, a-b-da, 14, 3, 3, 8, 181, 111, 195, 120, 120, 195, 2, 3.05168
163, 1, bw, attraction, a-b-da, 14, 3, 3, 8, 181, 111, 195, 120, 120, 195, 1, 0.936051
163, 1, bw, filler, NA, 999, 999, 3, 9, 73, 96, 56, 160, 152, 71, 3, 3.75235
163, 1, bw, filler, NA, 999, 999, 3, 9, 73, 96, 56, 160, 152, 71, 1, 1.36054
163, 1, bw, filler, NA, 999, 999, 3, 10, 142, 141, 88, 80, 70, 80, 1, 1.25547
163, 1, bw, filler, NA, 999, 999, 3, 10, 142, 141, 88, 80, 70, 80, 3, 0.547645
163, 1, bw, attraction, a-b-da, 5, 1, 3, 11, 132, 58, 60, 135, 135, 60, 2, 8.65143
163, 1, bw, attraction, a-b-da, 5, 1, 3, 11, 132, 58, 60, 135, 135, 60, 1, 0.533927
163, 1, bw, attraction, a-b-db, 9, 1, 3, 12, 57, 129, 60, 135, 135, 60, 2, 1.97436
163, 1, bw, attraction, a-b-db, 9, 1, 3, 12, 57, 129, 60, 135, 135, 60, 1, 0.733771
163, 1, bw, attraction, a-b-db, 2, 2, 3, 13, 165, 90, 89, 163, 90, 165, 2, 9.44612
163, 1, bw, attraction, a-b-db, 2, 2, 3, 13, 165, 90, 89, 163, 90, 165, 1, 0.432619
163, 1, bw, filler, NA, 999, 999, 3, 14, 94, 140, 193, 133, 124, 56, 2, 0.749095
163, 1, bw, filler, NA, 999, 999, 3, 14, 94, 140, 193, 133, 124, 56, 3, 0.614072
163, 1, bw, attraction, a-b-db, 14, 2, 3, 15, 90, 165, 83, 153, 165, 90, 1, 1.63509
163, 1, bw, attraction, a-b-db, 14, 2, 3, 15, 90, 165, 83, 153, 165, 90, 3, 1.04869
163, 1, bw, attraction, a-b-da, 14, 1, 3, 16, 135, 60, 60, 135, 125, 56, 2, 10.3482
163, 1, bw, attraction, a-b-da, 14, 1, 3, 16, 135, 60, 60, 135, 125, 56, 3, 0.682315
163, 1, bw, filler, NA, 999, 999, 3, 17, 73, 144, 195, 61, 135, 193, 3, 1.00469
163, 1, bw, filler, NA, 999, 999, 3, 17, 73, 144, 195, 61, 135, 193, 2, 1.17916
163, 1, bw, attraction, a-b-db, 2, 3, 3, 18, 119, 193, 195, 120, 120, 195, 2, 1.30522
163, 1, bw, attraction, a-b-db, 2, 3, 3, 18, 119, 193, 195, 120, 120, 195, 1, 0.555456
163, 1, bw, attraction, a-b-da, 9, 1, 3, 19, 135, 60, 129, 57, 60, 135, 3, 4.36324
163, 1, bw, attraction, a-b-da, 9, 1, 3, 19, 135, 60, 129, 57, 60, 135, 2, 1.35452
163, 1, bw, filler, NA, 999, 999, 3, 20, 88, 169, 65, 152, 57, 123, 1, 0.954024
163, 1, bw, filler, NA, 999, 999, 3, 20, 88, 169, 65, 152, 57, 123, 3, 0.467005
163, 1, bw, attraction, a-b-db, 2, 1, 3, 21, 135, 60, 59, 134, 60, 135, 3, 4.85415
163, 1, bw, attraction, a-b-db, 2, 1, 3, 21, 135, 60, 59, 134, 60, 135, 2, 0.665937
163, 1, bw, filler, NA, 999, 999, 3, 22, 194, 144, 97, 60, 89, 130, 1, 0.805018
163, 1, bw, filler, NA, 999, 999, 3, 22, 194, 144, 97, 60, 89, 130, 2, 0.483539
163, 1, bw, catch, NA, 999, 999, 3, 23, 152, 163, 156, 99, 71, 124, 1, 0.957896
163, 1, bw, catch, NA, 999, 999, 3, 23, 152, 163, 156, 99, 71, 124, 2, 0.414255
163, 1, bw, attraction, a-b-da, 2, 1, 3, 24, 135, 60, 60, 135, 134, 59, 3, 7.56343
163, 1, bw, attraction, a-b-da, 2, 1, 3, 24, 135, 60, 60, 135, 134, 59, 1, 0.64962
163, 1, bw, attraction, a-b-da, 9, 2, 3, 25, 157, 86, 165, 90, 90, 165, 3, 1.20531
163, 1, bw, attraction, a-b-da, 9, 2, 3, 25, 157, 86, 165, 90, 90, 165, 1, 0.691603
163, 1, bw, filler, NA, 999, 999, 3, 26, 184, 115, 188, 83, 151, 189, 3, 1.7254
163, 1, bw, filler, NA, 999, 999, 3, 26, 184, 115, 188, 83, 151, 189, 2, 2.05489
163, 1, bw, catch, NA, 999, 999, 3, 27, 126, 69, 142, 173, 91, 164, 2, 1.26609
163, 1, bw, catch, NA, 999, 999, 3, 27, 126, 69, 142, 173, 91, 164, 1, 0.45427
163, 1, bw, catch, NA, 999, 999, 3, 28, 163, 92, 192, 123, 94, 101, 2, 0.778139
163, 1, bw, catch, NA, 999, 999, 3, 28, 163, 92, 192, 123, 94, 101, 1, 0.641963
163, 1, bw, attraction, a-b-db, 5, 1, 3, 29, 135, 60, 60, 135, 58, 132, 2, 7.6377
163, 1, bw, attraction, a-b-db, 5, 1, 3, 29, 135, 60, 60, 135, 58, 132, 3, 3.07325
163, 1, bw, attraction, a-b-da, 5, 3, 3, 30, 195, 120, 190, 117, 120, 195, 3, 2.99572
163, 1, bw, attraction, a-b-da, 5, 3, 3, 30, 195, 120, 190, 117, 120, 195, 2, 0.842009
163, 1, bw, filler, NA, 999, 999, 3, 31, 193, 60, 156, 103, 97, 188, 3, 4.28558
163, 1, bw, filler, NA, 999, 999, 3, 31, 193, 60, 156, 103, 97, 188, 1, 0.512211
163, 1, bw, attraction, a-b-db, 9, 3, 3, 32, 120, 195, 114, 186, 195, 120, 2, 1.50529
163, 1, bw, attraction, a-b-db, 9, 3, 3, 32, 120, 195, 114, 186, 195, 120, 1, 0.603495
163, 1, bw, attraction, a-b-da, 14, 2, 3, 33, 165, 90, 90, 165, 153, 83, 2, 1.90533
163, 1, bw, attraction, a-b-da, 14, 2, 3, 33, 165, 90, 90, 165, 153, 83, 3, 3.51529
163, 1, bw, filler, NA, 999, 999, 3, 34, 97, 161, 125, 67, 116, 145, 3, 1.44338
163, 1, bw, filler, NA, 999, 999, 3, 34, 97, 161, 125, 67, 116, 145, 2, 0.48825
163, 1, bw, attraction, a-b-db, 14, 3, 3, 35, 120, 195, 195, 120, 111, 181, 2, 0.754732
163, 1, bw, attraction, a-b-db, 14, 3, 3, 35, 120, 195, 195, 120, 111, 181, 3, 0.467159
163, 1, bw, attraction, a-b-db, 5, 3, 3, 36, 117, 190, 195, 120, 120, 195, 2, 3.09429
163, 1, bw, attraction, a-b-db, 5, 3, 3, 36, 117, 190, 195, 120, 120, 195, 1, 0.52065
163, 1, bw, attraction, a-b-da, 2, 3, 3, 37, 120, 195, 195, 120, 193, 119, 3, 2.5937
163, 1, bw, attraction, a-b-da, 2, 3, 3, 37, 120, 195, 195, 120, 193, 119, 1, 0.440243
163, 1, bw, attraction, a-b-da, 2, 3, 4, 1, 193, 119, 120, 195, 195, 120, 2, 6.74063
163, 1, bw, attraction, a-b-da, 2, 3, 4, 1, 193, 119, 120, 195, 195, 120, 1, 0.403234
163, 1, bw, attraction, a-b-db, 14, 2, 4, 2, 90, 165, 83, 153, 165, 90, 1, 2.36116
163, 1, bw, attraction, a-b-db, 14, 2, 4, 2, 90, 165, 83, 153, 165, 90, 2, 0.432981
163, 1, bw, attraction, a-b-da, 5, 3, 4, 3, 190, 117, 120, 195, 195, 120, 2, 1.06953
163, 1, bw, attraction, a-b-da, 5, 3, 4, 3, 190, 117, 120, 195, 195, 120, 1, 0.473845
163, 1, bw, attraction, a-b-db, 14, 3, 4, 4, 111, 181, 195, 120, 120, 195, 2, 1.85216
163, 1, bw, attraction, a-b-db, 14, 3, 4, 4, 111, 181, 195, 120, 120, 195, 3, 0.865003
163, 1, bw, attraction, a-b-da, 14, 3, 4, 5, 195, 120, 120, 195, 181, 111, 2, 1.54788
163, 1, bw, attraction, a-b-da, 14, 3, 4, 5, 195, 120, 120, 195, 181, 111, 3, 0.988785
163, 1, bw, attraction, a-b-da, 14, 2, 4, 6, 153, 83, 165, 90, 90, 165, 2, 1.89103
163, 1, bw, attraction, a-b-da, 14, 2, 4, 6, 153, 83, 165, 90, 90, 165, 1, 0.421761
163, 1, bw, attraction, a-b-db, 2, 1, 4, 7, 135, 60, 60, 135, 59, 134, 2, 2.64294
163, 1, bw, attraction, a-b-db, 2, 1, 4, 7, 135, 60, 60, 135, 59, 134, 3, 0.359454
163, 1, bw, attraction, a-b-da, 9, 2, 4, 8, 90, 165, 165, 90, 157, 86, 1, 2.31052
163, 1, bw, attraction, a-b-da, 9, 2, 4, 8, 90, 165, 165, 90, 157, 86, 3, 0.536514
163, 1, bw, attraction, a-b-db, 9, 2, 4, 9, 165, 90, 90, 165, 86, 157, 2, 2.2489
163, 1, bw, attraction, a-b-db, 9, 2, 4, 9, 165, 90, 90, 165, 86, 157, 3, 0.509644
163, 1, bw, attraction, a-b-da, 9, 3, 4, 10, 186, 114, 120, 195, 195, 120, 2, 2.54268
163, 1, bw, attraction, a-b-da, 9, 3, 4, 10, 186, 114, 120, 195, 195, 120, 1, 0.439118
163, 1, bw, attraction, a-b-da, 5, 2, 4, 11, 90, 165, 165, 90, 161, 88, 1, 3.49961
163, 1, bw, attraction, a-b-da, 5, 2, 4, 11, 90, 165, 165, 90, 161, 88, 3, 0.83792
163, 1, bw, filler, NA, 999, 999, 4, 12, 148, 108, 67, 174, 165, 125, 3, 2.37014
163, 1, bw, filler, NA, 999, 999, 4, 12, 148, 108, 67, 174, 165, 125, 2, 0.906079
163, 1, bw, filler, NA, 999, 999, 4, 13, 59, 113, 146, 186, 175, 81, 2, 0.731717
163, 1, bw, filler, NA, 999, 999, 4, 13, 59, 113, 146, 186, 175, 81, 1, 0.397481
163, 1, bw, filler, NA, 999, 999, 4, 14, 84, 134, 150, 164, 89, 130, 2, 0.731232
163, 1, bw, filler, NA, 999, 999, 4, 14, 84, 134, 150, 164, 89, 130, 1, 1.70096
163, 1, bw, attraction, a-b-db, 5, 3, 4, 15, 195, 120, 117, 190, 120, 195, 3, 1.87862
163, 1, bw, attraction, a-b-db, 5, 3, 4, 15, 195, 120, 117, 190, 120, 195, 2, 2.82581
163, 1, bw, attraction, a-b-da, 14, 1, 4, 16, 135, 60, 60, 135, 125, 56, 1, 4.05353
163, 1, bw, attraction, a-b-da, 14, 1, 4, 16, 135, 60, 60, 135, 125, 56, 3, 0.793716
163, 1, bw, filler, NA, 999, 999, 4, 17, 161, 152, 74, 125, 166, 59, 1, 1.04735
163, 1, bw, filler, NA, 999, 999, 4, 17, 161, 152, 74, 125, 166, 59, 2, 0.556244
163, 1, bw, catch, NA, 999, 999, 4, 18, 150, 165, 92, 163, 61, 134, 1, 1.00067
163, 1, bw, catch, NA, 999, 999, 4, 18, 150, 165, 92, 163, 61, 134, 3, 0.403077
163, 1, bw, attraction, a-b-da, 2, 2, 4, 19, 163, 89, 165, 90, 90, 165, 3, 1.2889
163, 1, bw, attraction, a-b-da, 2, 2, 4, 19, 163, 89, 165, 90, 90, 165, 1, 1.83576
163, 1, bw, filler, NA, 999, 999, 4, 20, 167, 155, 172, 188, 154, 108, 2, 0.855823
163, 1, bw, filler, NA, 999, 999, 4, 20, 167, 155, 172, 188, 154, 108, 3, 0.300163
163, 1, bw, catch, NA, 999, 999, 4, 21, 154, 161, 99, 156, 89, 106, 1, 0.670046
163, 1, bw, catch, NA, 999, 999, 4, 21, 154, 161, 99, 156, 89, 106, 3, 0.514484
163, 1, bw, attraction, a-b-db, 9, 1, 4, 22, 57, 129, 135, 60, 60, 135, 3, 0.931505
163, 1, bw, attraction, a-b-db, 9, 1, 4, 22, 57, 129, 135, 60, 60, 135, 1, 1.15719
163, 1, bw, attraction, a-b-da, 9, 1, 4, 23, 129, 57, 60, 135, 135, 60, 2, 2.67609
163, 1, bw, attraction, a-b-da, 9, 1, 4, 23, 129, 57, 60, 135, 135, 60, 3, 0.839305
163, 1, bw, attraction, a-b-db, 14, 1, 4, 24, 135, 60, 60, 135, 56, 125, 2, 2.20371
163, 1, bw, attraction, a-b-db, 14, 1, 4, 24, 135, 60, 60, 135, 56, 125, 3, 1.90628
163, 1, bw, filler, NA, 999, 999, 4, 25, 107, 179, 173, 176, 76, 102, 2, 0.755776
163, 1, bw, filler, NA, 999, 999, 4, 25, 107, 179, 173, 176, 76, 102, 3, 0.708111
163, 1, bw, filler, NA, 999, 999, 4, 26, 140, 164, 103, 113, 133, 82, 1, 1.05311
163, 1, bw, filler, NA, 999, 999, 4, 26, 140, 164, 103, 113, 133, 82, 3, 2.12225
163, 1, bw, attraction, a-b-da, 2, 1, 4, 27, 60, 135, 134, 59, 135, 60, 1, 2.03465
163, 1, bw, attraction, a-b-da, 2, 1, 4, 27, 60, 135, 134, 59, 135, 60, 2, 1.99209
163, 1, bw, catch, NA, 999, 999, 4, 28, 185, 130, 77, 118, 129, 126, 1, 1.43725
163, 1, bw, catch, NA, 999, 999, 4, 28, 185, 130, 77, 118, 129, 126, 2, 0.634861
163, 1, bw, attraction, a-b-db, 9, 3, 4, 29, 120, 195, 114, 186, 195, 120, 2, 1.55924
163, 1, bw, attraction, a-b-db, 9, 3, 4, 29, 120, 195, 114, 186, 195, 120, 1, 3.95141
163, 1, bw, attraction, a-b-db, 5, 2, 4, 30, 90, 165, 165, 90, 88, 161, 3, 9.08614
163, 1, bw, attraction, a-b-db, 5, 2, 4, 30, 90, 165, 165, 90, 88, 161, 2, 0.679243
163, 1, bw, attraction, a-b-db, 2, 3, 4, 31, 119, 193, 120, 195, 195, 120, 2, 2.94564
163, 1, bw, attraction, a-b-db, 2, 3, 4, 31, 119, 193, 120, 195, 195, 120, 1, 1.47411
163, 1, bw, attraction, a-b-da, 5, 1, 4, 32, 135, 60, 132, 58, 60, 135, 3, 3.4443
163, 1, bw, attraction, a-b-da, 5, 1, 4, 32, 135, 60, 132, 58, 60, 135, 2, 1.23249
163, 1, bw, filler, NA, 999, 999, 4, 33, 112, 174, 149, 142, 165, 161, 3, 3.06878
163, 1, bw, filler, NA, 999, 999, 4, 33, 112, 174, 149, 142, 165, 161, 1, 2.19233
163, 1, bw, filler, NA, 999, 999, 4, 34, 165, 114, 180, 126, 149, 178, 3, 1.14157
163, 1, bw, filler, NA, 999, 999, 4, 34, 165, 114, 180, 126, 149, 178, 1, 0.910666
163, 1, bw, filler, NA, 999, 999, 4, 35, 116, 84, 60, 191, 79, 150, 3, 3.71146
163, 1, bw, filler, NA, 999, 999, 4, 35, 116, 84, 60, 191, 79, 150, 1, 0.504941
163, 1, bw, attraction, a-b-db, 2, 2, 4, 36, 165, 90, 90, 165, 89, 163, 2, 4.38686
163, 1, bw, attraction, a-b-db, 2, 2, 4, 36, 165, 90, 90, 165, 89, 163, 3, 1.03349
163, 1, bw, attraction, a-b-db, 5, 1, 4, 37, 135, 60, 58, 132, 60, 135, 2, 5.80574
163, 1, bw, attraction, a-b-db, 5, 1, 4, 37, 135, 60, 58, 132, 60, 135, 1, 1.10661
163, 1, bw, attraction, a-b-db, 2, 3, 5, 1, 119, 193, 195, 120, 120, 195, 2, 2.56212
163, 1, bw, attraction, a-b-db, 2, 3, 5, 1, 119, 193, 195, 120, 120, 195, 1, 0.433852
163, 1, bw, attraction, a-b-db, 2, 1, 5, 2, 59, 134, 135, 60, 60, 135, 1, 1.81431
163, 1, bw, attraction, a-b-db, 2, 1, 5, 2, 59, 134, 135, 60, 60, 135, 2, 2.5966
163, 1, bw, attraction, a-b-da, 9, 2, 5, 3, 157, 86, 165, 90, 90, 165, 3, 2.14557
163, 1, bw, attraction, a-b-da, 9, 2, 5, 3, 157, 86, 165, 90, 90, 165, 1, 1.32213
163, 1, bw, attraction, a-b-da, 9, 3, 5, 4, 186, 114, 195, 120, 120, 195, 2, 2.97919
163, 1, bw, attraction, a-b-da, 9, 3, 5, 4, 186, 114, 195, 120, 120, 195, 1, 0.522011
163, 1, bw, attraction, a-b-db, 9, 3, 5, 5, 195, 120, 120, 195, 114, 186, 2, 1.07519
163, 1, bw, attraction, a-b-db, 9, 3, 5, 5, 195, 120, 120, 195, 114, 186, 3, 0.454857
163, 1, bw, attraction, a-b-da, 5, 1, 5, 6, 135, 60, 132, 58, 60, 135, 1, 3.28277
163, 1, bw, attraction, a-b-da, 5, 1, 5, 6, 135, 60, 132, 58, 60, 135, 3, 0.429565
163, 1, bw, attraction, a-b-da, 2, 3, 5, 7, 195, 120, 193, 119, 120, 195, 1, 6.59398
163, 1, bw, attraction, a-b-da, 2, 3, 5, 7, 195, 120, 193, 119, 120, 195, 2, 0.391301
163, 1, bw, filler, NA, 999, 999, 5, 8, 125, 68, 145, 107, 176, 90, 2, 1.41317
163, 1, bw, filler, NA, 999, 999, 5, 8, 125, 68, 145, 107, 176, 90, 1, 0.36349
163, 1, bw, attraction, a-b-db, 5, 3, 5, 9, 195, 120, 120, 195, 117, 190, 1, 2.15457
163, 1, bw, attraction, a-b-db, 5, 3, 5, 9, 195, 120, 120, 195, 117, 190, 3, 0.843107
163, 1, bw, catch, NA, 999, 999, 5, 10, 153, 162, 124, 131, 90, 105, 1, 1.01485
163, 1, bw, catch, NA, 999, 999, 5, 10, 153, 162, 124, 131, 90, 105, 3, 0.541076
163, 1, bw, filler, NA, 999, 999, 5, 11, 115, 98, 165, 105, 82, 71, 2, 0.724854
163, 1, bw, filler, NA, 999, 999, 5, 11, 115, 98, 165, 105, 82, 71, 3, 0.566681
163, 1, bw, attraction, a-b-da, 9, 1, 5, 12, 129, 57, 60, 135, 135, 60, 3, 1.24568
163, 1, bw, attraction, a-b-da, 9, 1, 5, 12, 129, 57, 60, 135, 135, 60, 1, 1.32265
163, 1, bw, filler, NA, 999, 999, 5, 13, 147, 105, 86, 159, 175, 179, 3, 0.587549
163, 1, bw, filler, NA, 999, 999, 5, 13, 147, 105, 86, 159, 175, 179, 2, 3.00275
163, 1, bw, attraction, a-b-db, 2, 2, 5, 14, 89, 163, 165, 90, 90, 165, 2, 0.999617
163, 1, bw, attraction, a-b-db, 2, 2, 5, 14, 89, 163, 165, 90, 90, 165, 1, 1.10263
163, 1, bw, attraction, a-b-db, 14, 2, 5, 15, 165, 90, 90, 165, 83, 153, 2, 1.73618
163, 1, bw, attraction, a-b-db, 14, 2, 5, 15, 165, 90, 90, 165, 83, 153, 3, 0.473704
163, 1, bw, filler, NA, 999, 999, 5, 16, 193, 71, 189, 156, 138, 171, 2, 0.78014
163, 1, bw, filler, NA, 999, 999, 5, 16, 193, 71, 189, 156, 138, 171, 1, 3.0439
163, 1, bw, attraction, a-b-da, 14, 3, 5, 17, 195, 120, 120, 195, 181, 111, 2, 1.80709
163, 1, bw, attraction, a-b-da, 14, 3, 5, 17, 195, 120, 120, 195, 181, 111, 3, 0.660909
163, 1, bw, attraction, a-b-da, 14, 1, 5, 18, 135, 60, 60, 135, 125, 56, 1, 2.20809
163, 1, bw, attraction, a-b-da, 14, 1, 5, 18, 135, 60, 60, 135, 125, 56, 3, 0.974
163, 1, bw, attraction, a-b-db, 14, 1, 5, 19, 135, 60, 56, 125, 60, 135, 3, 2.94817
163, 1, bw, attraction, a-b-db, 14, 1, 5, 19, 135, 60, 56, 125, 60, 135, 1, 1.19665
163, 1, bw, filler, NA, 999, 999, 5, 20, 139, 61, 104, 98, 60, 98, 2, 1.27426
163, 1, bw, filler, NA, 999, 999, 5, 20, 139, 61, 104, 98, 60, 98, 3, 0.413794
163, 1, bw, attraction, a-b-db, 9, 1, 5, 21, 60, 135, 135, 60, 57, 129, 3, 3.65101
163, 1, bw, attraction, a-b-db, 9, 1, 5, 21, 60, 135, 135, 60, 57, 129, 2, 0.383074
163, 1, bw, attraction, a-b-db, 5, 2, 5, 22, 88, 161, 90, 165, 165, 90, 2, 1.46154
163, 1, bw, attraction, a-b-db, 5, 2, 5, 22, 88, 161, 90, 165, 165, 90, 1, 0.737742
163, 1, bw, attraction, a-b-db, 5, 1, 5, 23, 135, 60, 58, 132, 60, 135, 2, 6.68221
163, 1, bw, attraction, a-b-db, 5, 1, 5, 23, 135, 60, 58, 132, 60, 135, 1, 3.45194
163, 1, bw, catch, NA, 999, 999, 5, 24, 147, 168, 118, 77, 162, 93, 1, 0.75093
163, 1, bw, catch, NA, 999, 999, 5, 24, 147, 168, 118, 77, 162, 93, 2, 0.607997
163, 1, bw, attraction, a-b-da, 2, 2, 5, 25, 163, 89, 90, 165, 165, 90, 2, 3.75714
163, 1, bw, attraction, a-b-da, 2, 2, 5, 25, 163, 89, 90, 165, 165, 90, 3, 0.596612
163, 1, bw, filler, NA, 999, 999, 5, 26, 141, 152, 185, 116, 163, 90, 2, 5.91428
163, 1, bw, filler, NA, 999, 999, 5, 26, 141, 152, 185, 116, 163, 90, 3, 0.363093
163, 1, bw, attraction, a-b-db, 14, 3, 5, 27, 195, 120, 111, 181, 120, 195, 3, 3.29825
163, 1, bw, attraction, a-b-db, 14, 3, 5, 27, 195, 120, 111, 181, 120, 195, 2, 0.900458
163, 1, bw, filler, NA, 999, 999, 5, 28, 152, 182, 74, 155, 152, 178, 3, 0.894228
163, 1, bw, filler, NA, 999, 999, 5, 28, 152, 182, 74, 155, 152, 178, 2, 0.273158
163, 1, bw, filler, NA, 999, 999, 5, 29, 172, 94, 73, 179, 109, 81, 2, 1.25235
163, 1, bw, filler, NA, 999, 999, 5, 29, 172, 94, 73, 179, 109, 81, 3, 0.92928
163, 1, bw, attraction, a-b-da, 2, 1, 5, 30, 135, 60, 134, 59, 60, 135, 3, 2.64169
163, 1, bw, attraction, a-b-da, 2, 1, 5, 30, 135, 60, 134, 59, 60, 135, 2, 0.438118
163, 1, bw, attraction, a-b-da, 5, 2, 5, 31, 161, 88, 90, 165, 165, 90, 2, 1.0266
163, 1, bw, attraction, a-b-da, 5, 2, 5, 31, 161, 88, 90, 165, 165, 90, 1, 0.864331
163, 1, bw, attraction, a-b-da, 5, 3, 5, 32, 190, 117, 120, 195, 195, 120, 2, 1.69931
163, 1, bw, attraction, a-b-da, 5, 3, 5, 32, 190, 117, 120, 195, 195, 120, 1, 0.47008
163, 1, bw, filler, NA, 999, 999, 5, 33, 178, 164, 130, 177, 174, 119, 1, 2.16913
163, 1, bw, filler, NA, 999, 999, 5, 33, 178, 164, 130, 177, 174, 119, 2, 1.66523
163, 1, bw, catch, NA, 999, 999, 5, 34, 97, 158, 67, 128, 151, 164, 3, 0.763871
163, 1, bw, catch, NA, 999, 999, 5, 34, 97, 158, 67, 128, 151, 164, 2, 0.308269
163, 1, bw, attraction, a-b-da, 14, 2, 5, 35, 90, 165, 165, 90, 153, 83, 2, 0.853445
163, 1, bw, attraction, a-b-da, 14, 2, 5, 35, 90, 165, 165, 90, 153, 83, 1, 0.962488
163, 1, bw, filler, NA, 999, 999, 5, 36, 101, 60, 168, 92, 148, 59, 2, 0.60939
163, 1, bw, filler, NA, 999, 999, 5, 36, 101, 60, 168, 92, 148, 59, 1, 0.727858
163, 1, bw, attraction, a-b-db, 9, 2, 5, 37, 90, 165, 86, 157, 165, 90, 3, 3.94431
163, 1, bw, attraction, a-b-db, 9, 2, 5, 37, 90, 165, 86, 157, 165, 90, 2, 0.328327
163, 1, bw, filler, NA, 999, 999, 6, 1, 103, 170, 63, 180, 103, 130, 1, 1.09677
163, 1, bw, filler, NA, 999, 999, 6, 1, 103, 170, 63, 180, 103, 130, 2, 1.24392
163, 1, bw, attraction, a-b-da, 14, 3, 6, 2, 181, 111, 120, 195, 195, 120, 2, 1.64741
163, 1, bw, attraction, a-b-da, 14, 3, 6, 2, 181, 111, 120, 195, 195, 120, 1, 0.844157
163, 1, bw, attraction, a-b-da, 5, 3, 6, 3, 195, 120, 120, 195, 190, 117, 2, 1.85585
163, 1, bw, attraction, a-b-da, 5, 3, 6, 3, 195, 120, 120, 195, 190, 117, 3, 2.5639
163, 1, bw, attraction, a-b-db, 9, 2, 6, 4, 86, 157, 165, 90, 90, 165, 2, 1.02627
163, 1, bw, attraction, a-b-db, 9, 2, 6, 4, 86, 157, 165, 90, 90, 165, 1, 0.823919
163, 1, bw, filler, NA, 999, 999, 6, 5, 61, 79, 87, 150, 153, 94, 2, 2.69235
163, 1, bw, filler, NA, 999, 999, 6, 5, 61, 79, 87, 150, 153, 94, 1, 0.510801
163, 1, bw, filler, NA, 999, 999, 6, 6, 123, 176, 118, 143, 185, 73, 1, 1.30395
163, 1, bw, filler, NA, 999, 999, 6, 6, 123, 176, 118, 143, 185, 73, 2, 0.594913
163, 1, bw, attraction, a-b-db, 2, 3, 6, 7, 119, 193, 120, 195, 195, 120, 2, 1.78454
163, 1, bw, attraction, a-b-db, 2, 3, 6, 7, 119, 193, 120, 195, 195, 120, 1, 1.00008
163, 1, bw, attraction, a-b-db, 2, 2, 6, 8, 89, 163, 165, 90, 90, 165, 3, 1.38176
163, 1, bw, attraction, a-b-db, 2, 2, 6, 8, 89, 163, 165, 90, 90, 165, 1, 1.26128
163, 1, bw, filler, NA, 999, 999, 6, 9, 63, 156, 190, 122, 143, 119, 2, 1.00814
163, 1, bw, filler, NA, 999, 999, 6, 9, 63, 156, 190, 122, 143, 119, 1, 0.406415
163, 1, bw, attraction, a-b-da, 2, 2, 6, 10, 163, 89, 165, 90, 90, 165, 3, 2.78832
163, 1, bw, attraction, a-b-da, 2, 2, 6, 10, 163, 89, 165, 90, 90, 165, 1, 0.451211
163, 1, bw, filler, NA, 999, 999, 6, 11, 184, 72, 170, 65, 60, 85, 1, 1.57509
163, 1, bw, filler, NA, 999, 999, 6, 11, 184, 72, 170, 65, 60, 85, 3, 0.390507
163, 1, bw, filler, NA, 999, 999, 6, 12, 105, 148, 83, 187, 114, 64, 1, 4.41249
163, 1, bw, filler, NA, 999, 999, 6, 12, 105, 148, 83, 187, 114, 64, 3, 0.449749
163, 1, bw, catch, NA, 999, 999, 6, 13, 146, 169, 144, 111, 86, 109, 1, 0.901449
163, 1, bw, catch, NA, 999, 999, 6, 13, 146, 169, 144, 111, 86, 109, 3, 0.720555
163, 1, bw, attraction, a-b-db, 14, 2, 6, 14, 83, 153, 90, 165, 165, 90, 3, 1.75356
163, 1, bw, attraction, a-b-db, 14, 2, 6, 14, 83, 153, 90, 165, 165, 90, 1, 0.330396
163, 1, bw, attraction, a-b-db, 14, 1, 6, 15, 56, 125, 135, 60, 60, 135, 3, 1.13082
163, 1, bw, attraction, a-b-db, 14, 1, 6, 15, 56, 125, 135, 60, 60, 135, 1, 0.404366
163, 1, bw, attraction, a-b-da, 14, 2, 6, 16, 153, 83, 90, 165, 165, 90, 2, 2.62622
163, 1, bw, attraction, a-b-da, 14, 2, 6, 16, 153, 83, 90, 165, 165, 90, 1, 0.399449
163, 1, bw, attraction, a-b-da, 9, 1, 6, 17, 129, 57, 60, 135, 135, 60, 2, 2.93323
163, 1, bw, attraction, a-b-da, 9, 1, 6, 17, 129, 57, 60, 135, 135, 60, 3, 0.47839
163, 1, bw, catch, NA, 999, 999, 6, 18, 133, 122, 170, 145, 92, 103, 2, 1.05684
163, 1, bw, catch, NA, 999, 999, 6, 18, 133, 122, 170, 145, 92, 103, 3, 0.765037
163, 1, bw, attraction, a-b-db, 5, 2, 6, 19, 90, 165, 88, 161, 165, 90, 2, 4.85219
163, 1, bw, attraction, a-b-db, 5, 2, 6, 19, 90, 165, 88, 161, 165, 90, 1, 0.567899
163, 1, bw, attraction, a-b-da, 9, 3, 6, 20, 120, 195, 195, 120, 186, 114, 1, 3.37511
163, 1, bw, attraction, a-b-da, 9, 3, 6, 20, 120, 195, 195, 120, 186, 114, 2, 1.34992
163, 1, bw, attraction, a-b-db, 9, 3, 6, 21, 120, 195, 114, 186, 195, 120, 3, 5.70161
163, 1, bw, attraction, a-b-db, 9, 3, 6, 21, 120, 195, 114, 186, 195, 120, 2, 0.42293
163, 1, bw, attraction, a-b-db, 14, 3, 6, 22, 111, 181, 120, 195, 195, 120, 2, 2.21216
163, 1, bw, attraction, a-b-db, 14, 3, 6, 22, 111, 181, 120, 195, 195, 120, 1, 0.570033
163, 1, bw, attraction, a-b-db, 5, 1, 6, 23, 58, 132, 60, 135, 135, 60, 2, 2.41726
163, 1, bw, attraction, a-b-db, 5, 1, 6, 23, 58, 132, 60, 135, 135, 60, 3, 2.37511
163, 1, bw, attraction, a-b-da, 5, 2, 6, 24, 165, 90, 161, 88, 90, 165, 3, 4.14881
163, 1, bw, attraction, a-b-da, 5, 2, 6, 24, 165, 90, 161, 88, 90, 165, 2, 0.508787
163, 1, bw, catch, NA, 999, 999, 6, 25, 177, 138, 140, 115, 88, 107, 1, 1.21402
163, 1, bw, catch, NA, 999, 999, 6, 25, 177, 138, 140, 115, 88, 107, 3, 0.324243
163, 1, bw, attraction, a-b-db, 5, 3, 6, 26, 195, 120, 120, 195, 117, 190, 2, 4.56479
163, 1, bw, attraction, a-b-db, 5, 3, 6, 26, 195, 120, 120, 195, 117, 190, 1, 2.34012
163, 1, bw, filler, NA, 999, 999, 6, 27, 178, 138, 69, 77, 70, 184, 1, 0.859963
163, 1, bw, filler, NA, 999, 999, 6, 27, 178, 138, 69, 77, 70, 184, 2, 0.624227
163, 1, bw, attraction, a-b-da, 5, 1, 6, 28, 135, 60, 132, 58, 60, 135, 3, 1.83655
163, 1, bw, attraction, a-b-da, 5, 1, 6, 28, 135, 60, 132, 58, 60, 135, 2, 0.513973
163, 1, bw, filler, NA, 999, 999, 6, 29, 146, 122, 109, 98, 135, 59, 1, 0.819119
163, 1, bw, filler, NA, 999, 999, 6, 29, 146, 122, 109, 98, 135, 59, 2, 6.32165
163, 1, bw, filler, NA, 999, 999, 6, 30, 175, 144, 120, 107, 122, 124, 1, 4.52093
163, 1, bw, filler, NA, 999, 999, 6, 30, 175, 144, 120, 107, 122, 124, 2, 0.394069
163, 1, bw, attraction, a-b-db, 2, 1, 6, 31, 135, 60, 59, 134, 60, 135, 2, 1.93594
163, 1, bw, attraction, a-b-db, 2, 1, 6, 31, 135, 60, 59, 134, 60, 135, 1, 1.1293
163, 1, bw, attraction, a-b-da, 14, 1, 6, 32, 60, 135, 125, 56, 135, 60, 1, 1.4495
163, 1, bw, attraction, a-b-da, 14, 1, 6, 32, 60, 135, 125, 56, 135, 60, 2, 0.438309
163, 1, bw, attraction, a-b-db, 9, 1, 6, 33, 57, 129, 135, 60, 60, 135, 3, 0.762886
163, 1, bw, attraction, a-b-db, 9, 1, 6, 33, 57, 129, 135, 60, 60, 135, 2, 0.619304
163, 1, bw, attraction, a-b-da, 2, 1, 6, 34, 60, 135, 135, 60, 134, 59, 1, 2.17636
163, 1, bw, attraction, a-b-da, 2, 1, 6, 34, 60, 135, 135, 60, 134, 59, 2, 0.839617
163, 1, bw, attraction, a-b-da, 2, 3, 6, 35, 120, 195, 193, 119, 195, 120, 1, 3.54807
163, 1, bw, attraction, a-b-da, 2, 3, 6, 35, 120, 195, 193, 119, 195, 120, 3, 1.08422
163, 1, bw, attraction, a-b-da, 9, 2, 6, 36, 165, 90, 90, 165, 157, 86, 2, 1.95845
163, 1, bw, attraction, a-b-da, 9, 2, 6, 36, 165, 90, 90, 165, 157, 86, 3, 0.414708
163, 1, bw, filler, NA, 999, 999, 6, 37, 77, 178, 148, 130, 126, 122, 2, 1.32361
163, 1, bw, filler, NA, 999, 999, 6, 37, 77, 178, 148, 130, 126, 122, 1, 1.16512
163, 1, bw, filler, NA, 999, 999, 7, 1, 100, 190, 93, 110, 96, 145, 1, 2.74002
163, 1, bw, filler, NA, 999, 999, 7, 1, 100, 190, 93, 110, 96, 145, 2, 0.372584
163, 1, bw, attraction, a-b-da, 5, 3, 7, 2, 120, 195, 190, 117, 195, 120, 2, 1.74781
163, 1, bw, attraction, a-b-da, 5, 3, 7, 2, 120, 195, 190, 117, 195, 120, 3, 1.25251
163, 1, bw, filler, NA, 999, 999, 7, 3, 149, 92, 93, 94, 137, 167, 3, 0.927938
163, 1, bw, filler, NA, 999, 999, 7, 3, 149, 92, 93, 94, 137, 167, 1, 1.64173
163, 1, bw, catch, NA, 999, 999, 7, 4, 124, 191, 91, 164, 60, 135, 1, 1.09301
163, 1, bw, catch, NA, 999, 999, 7, 4, 124, 191, 91, 164, 60, 135, 3, 0.448236
163, 1, bw, attraction, a-b-db, 9, 1, 7, 5, 135, 60, 57, 129, 60, 135, 2, 1.02788
163, 1, bw, attraction, a-b-db, 9, 1, 7, 5, 135, 60, 57, 129, 60, 135, 1, 0.561486
163, 1, bw, attraction, a-b-db, 2, 1, 7, 6, 59, 134, 60, 135, 135, 60, 2, 1.32076
163, 1, bw, attraction, a-b-db, 2, 1, 7, 6, 59, 134, 60, 135, 135, 60, 3, 1.41884
163, 1, bw, attraction, a-b-db, 14, 1, 7, 7, 135, 60, 60, 135, 56, 125, 2, 1.6476
163, 1, bw, attraction, a-b-db, 14, 1, 7, 7, 135, 60, 60, 135, 56, 125, 1, 2.66054
163, 1, bw, attraction, a-b-da, 9, 1, 7, 8, 60, 135, 129, 57, 135, 60, 3, 0.862918
163, 1, bw, attraction, a-b-da, 9, 1, 7, 8, 60, 135, 129, 57, 135, 60, 2, 0.427232
163, 1, bw, attraction, a-b-da, 14, 3, 7, 9, 120, 195, 195, 120, 181, 111, 2, 1.58383
163, 1, bw, attraction, a-b-da, 14, 3, 7, 9, 120, 195, 195, 120, 181, 111, 3, 0.319768
163, 1, bw, filler, NA, 999, 999, 7, 10, 164, 94, 124, 158, 119, 171, 2, 1.7844
163, 1, bw, filler, NA, 999, 999, 7, 10, 164, 94, 124, 158, 119, 171, 1, 0.735847
163, 1, bw, attraction, a-b-db, 9, 3, 7, 11, 195, 120, 120, 195, 114, 186, 2, 2.47213
163, 1, bw, attraction, a-b-db, 9, 3, 7, 11, 195, 120, 120, 195, 114, 186, 3, 2.57945
163, 1, bw, attraction, a-b-db, 5, 2, 7, 12, 90, 165, 88, 161, 165, 90, 2, 2.07318
163, 1, bw, attraction, a-b-db, 5, 2, 7, 12, 90, 165, 88, 161, 165, 90, 1, 0.388539
163, 1, bw, attraction, a-b-da, 14, 2, 7, 13, 165, 90, 153, 83, 90, 165, 3, 1.26698
163, 1, bw, attraction, a-b-da, 14, 2, 7, 13, 165, 90, 153, 83, 90, 165, 2, 0.359252
163, 1, bw, attraction, a-b-db, 14, 2, 7, 14, 83, 153, 90, 165, 165, 90, 2, 0.90238
163, 1, bw, attraction, a-b-db, 14, 2, 7, 14, 83, 153, 90, 165, 165, 90, 1, 0.353426
163, 1, bw, catch, NA, 999, 999, 7, 15, 105, 90, 98, 157, 169, 146, 3, 1.63334
163, 1, bw, catch, NA, 999, 999, 7, 15, 105, 90, 98, 157, 169, 146, 1, 0.366693
163, 1, bw, attraction, a-b-db, 9, 2, 7, 16, 86, 157, 165, 90, 90, 165, 2, 2.39799
163, 1, bw, attraction, a-b-db, 9, 2, 7, 16, 86, 157, 165, 90, 90, 165, 1, 0.38041
163, 1, bw, attraction, a-b-db, 5, 1, 7, 17, 60, 135, 135, 60, 58, 132, 1, 1.57891
163, 1, bw, attraction, a-b-db, 5, 1, 7, 17, 60, 135, 135, 60, 58, 132, 2, 0.322433
163, 1, bw, attraction, a-b-da, 9, 3, 7, 18, 195, 120, 186, 114, 120, 195, 2, 1.60371
163, 1, bw, attraction, a-b-da, 9, 3, 7, 18, 195, 120, 186, 114, 120, 195, 1, 2.80235
163, 1, bw, attraction, a-b-db, 14, 3, 7, 19, 120, 195, 111, 181, 195, 120, 2, 1.04744
163, 1, bw, attraction, a-b-db, 14, 3, 7, 19, 120, 195, 111, 181, 195, 120, 3, 1.03651
163, 1, bw, filler, NA, 999, 999, 7, 20, 88, 70, 102, 120, 128, 106, 3, 0.896748
163, 1, bw, filler, NA, 999, 999, 7, 20, 88, 70, 102, 120, 128, 106, 1, 0.331741
163, 1, bw, filler, NA, 999, 999, 7, 21, 58, 78, 86, 80, 136, 174, 3, 0.564426
163, 1, bw, filler, NA, 999, 999, 7, 21, 58, 78, 86, 80, 136, 174, 1, 0.548709
163, 1, bw, catch, NA, 999, 999, 7, 22, 109, 86, 136, 119, 178, 137, 3, 2.02852
163, 1, bw, catch, NA, 999, 999, 7, 22, 109, 86, 136, 119, 178, 137, 1, 0.481953
163, 1, bw, attraction, a-b-da, 9, 2, 7, 23, 165, 90, 157, 86, 90, 165, 3, 4.45234
163, 1, bw, attraction, a-b-da, 9, 2, 7, 23, 165, 90, 157, 86, 90, 165, 1, 0.69624
163, 1, bw, attraction, a-b-da, 2, 1, 7, 24, 60, 135, 134, 59, 135, 60, 2, 1.13793
163, 1, bw, attraction, a-b-da, 2, 1, 7, 24, 60, 135, 134, 59, 135, 60, 3, 1.34762
163, 1, bw, filler, NA, 999, 999, 7, 25, 79, 113, 119, 156, 124, 194, 2, 0.76312
163, 1, bw, filler, NA, 999, 999, 7, 25, 79, 113, 119, 156, 124, 194, 3, 1.04354
163, 1, bw, filler, NA, 999, 999, 7, 26, 186, 153, 163, 188, 105, 123, 2, 4.33523
163, 1, bw, filler, NA, 999, 999, 7, 26, 186, 153, 163, 188, 105, 123, 3, 0.431726
163, 1, bw, attraction, a-b-da, 14, 1, 7, 27, 125, 56, 135, 60, 60, 135, 2, 3.15628
163, 1, bw, attraction, a-b-da, 14, 1, 7, 27, 125, 56, 135, 60, 60, 135, 1, 0.755866
163, 1, bw, filler, NA, 999, 999, 7, 28, 62, 90, 68, 85, 84, 166, 3, 0.627495
163, 1, bw, filler, NA, 999, 999, 7, 28, 62, 90, 68, 85, 84, 166, 1, 2.77741
163, 1, bw, attraction, a-b-db, 2, 2, 7, 29, 90, 165, 89, 163, 165, 90, 2, 3.69511
163, 1, bw, attraction, a-b-db, 2, 2, 7, 29, 90, 165, 89, 163, 165, 90, 3, 0.649334
163, 1, bw, filler, NA, 999, 999, 7, 30, 68, 62, 144, 166, 170, 84, 2, 1.47702
163, 1, bw, filler, NA, 999, 999, 7, 30, 68, 62, 144, 166, 170, 84, 1, 0.360536
163, 1, bw, attraction, a-b-db, 5, 3, 7, 31, 120, 195, 195, 120, 117, 190, 1, 5.97565
163, 1, bw, attraction, a-b-db, 5, 3, 7, 31, 120, 195, 195, 120, 117, 190, 2, 0.797788
163, 1, bw, filler, NA, 999, 999, 7, 32, 116, 106, 95, 100, 101, 153, 3, 1.33141
163, 1, bw, filler, NA, 999, 999, 7, 32, 116, 106, 95, 100, 101, 153, 2, 0.54117
163, 1, bw, attraction, a-b-da, 5, 2, 7, 33, 165, 90, 161, 88, 90, 165, 2, 6.58878
163, 1, bw, attraction, a-b-da, 5, 2, 7, 33, 165, 90, 161, 88, 90, 165, 1, 0.786644
163, 1, bw, attraction, a-b-da, 2, 3, 7, 34, 120, 195, 195, 120, 193, 119, 2, 2.72906
163, 1, bw, attraction, a-b-da, 2, 3, 7, 34, 120, 195, 195, 120, 193, 119, 1, 0.562111
163, 1, bw, attraction, a-b-da, 5, 1, 7, 35, 132, 58, 60, 135, 135, 60, 2, 1.23335
163, 1, bw, attraction, a-b-da, 5, 1, 7, 35, 132, 58, 60, 135, 135, 60, 1, 0.950894
163, 1, bw, attraction, a-b-db, 2, 3, 7, 36, 195, 120, 119, 193, 120, 195, 2, 2.57449
163, 1, bw, attraction, a-b-db, 2, 3, 7, 36, 195, 120, 119, 193, 120, 195, 1, 0.477735
163, 1, bw, attraction, a-b-da, 2, 2, 7, 37, 165, 90, 163, 89, 90, 165, 2, 0.952121
163, 1, bw, attraction, a-b-da, 2, 2, 7, 37, 165, 90, 163, 89, 90, 165, 1, 0.457198
163, 1, bw, attraction, a-b-db, 9, 1, 8, 1, 60, 135, 57, 129, 135, 60, 2, 1.1403
163, 1, bw, attraction, a-b-db, 9, 1, 8, 1, 60, 135, 57, 129, 135, 60, 1, 0.981196
163, 1, bw, attraction, a-b-da, 2, 1, 8, 2, 60, 135, 134, 59, 135, 60, 1, 1.10749
163, 1, bw, attraction, a-b-da, 2, 1, 8, 2, 60, 135, 134, 59, 135, 60, 2, 0.373822
163, 1, bw, attraction, a-b-da, 9, 2, 8, 3, 165, 90, 90, 165, 157, 86, 2, 1.15646
163, 1, bw, attraction, a-b-da, 9, 2, 8, 3, 165, 90, 90, 165, 157, 86, 1, 0.356559
163, 1, bw, attraction, a-b-db, 5, 3, 8, 4, 195, 120, 117, 190, 120, 195, 2, 0.747676
163, 1, bw, attraction, a-b-db, 5, 3, 8, 4, 195, 120, 117, 190, 120, 195, 1, 0.924826
163, 1, bw, filler, NA, 999, 999, 8, 5, 174, 100, 145, 155, 116, 173, 2, 2.15712
163, 1, bw, filler, NA, 999, 999, 8, 5, 174, 100, 145, 155, 116, 173, 1, 0.413063
163, 1, bw, attraction, a-b-db, 14, 2, 8, 6, 83, 153, 90, 165, 165, 90, 2, 0.82615
163, 1, bw, attraction, a-b-db, 14, 2, 8, 6, 83, 153, 90, 165, 165, 90, 1, 0.431906
163, 1, bw, attraction, a-b-da, 14, 2, 8, 7, 165, 90, 153, 83, 90, 165, 3, 0.828426
163, 1, bw, attraction, a-b-da, 14, 2, 8, 7, 165, 90, 153, 83, 90, 165, 2, 0.35412
163, 1, bw, filler, NA, 999, 999, 8, 8, 62, 190, 112, 122, 190, 120, 3, 0.88996
163, 1, bw, filler, NA, 999, 999, 8, 8, 62, 190, 112, 122, 190, 120, 1, 0.556951
163, 1, bw, filler, NA, 999, 999, 8, 9, 156, 63, 66, 145, 130, 92, 2, 2.124
163, 1, bw, filler, NA, 999, 999, 8, 9, 156, 63, 66, 145, 130, 92, 1, 0.893509
163, 1, bw, catch, NA, 999, 999, 8, 10, 147, 108, 127, 188, 68, 127, 2, 1.4392
163, 1, bw, catch, NA, 999, 999, 8, 10, 147, 108, 127, 188, 68, 127, 1, 0.435901
163, 1, bw, attraction, a-b-da, 5, 1, 8, 11, 60, 135, 135, 60, 132, 58, 1, 2.33638
163, 1, bw, attraction, a-b-da, 5, 1, 8, 11, 60, 135, 135, 60, 132, 58, 2, 0.721671
163, 1, bw, attraction, a-b-da, 9, 1, 8, 12, 60, 135, 129, 57, 135, 60, 2, 1.30662
163, 1, bw, attraction, a-b-da, 9, 1, 8, 12, 60, 135, 129, 57, 135, 60, 3, 1.04494
163, 1, bw, attraction, a-b-da, 14, 1, 8, 13, 125, 56, 135, 60, 60, 135, 2, 1.25664
163, 1, bw, attraction, a-b-da, 14, 1, 8, 13, 125, 56, 135, 60, 60, 135, 3, 0.468759
163, 1, bw, attraction, a-b-db, 2, 1, 8, 14, 60, 135, 59, 134, 135, 60, 1, 2.26391
163, 1, bw, attraction, a-b-db, 2, 1, 8, 14, 60, 135, 59, 134, 135, 60, 2, 0.499865
163, 1, bw, catch, NA, 999, 999, 8, 15, 146, 169, 81, 114, 153, 102, 1, 1.12563
163, 1, bw, catch, NA, 999, 999, 8, 15, 146, 169, 81, 114, 153, 102, 2, 0.431338
163, 1, bw, filler, NA, 999, 999, 8, 16, 114, 192, 65, 192, 160, 192, 3, 1.0838
163, 1, bw, filler, NA, 999, 999, 8, 16, 114, 192, 65, 192, 160, 192, 2, 0.463442
163, 1, bw, attraction, a-b-da, 2, 2, 8, 17, 90, 165, 165, 90, 163, 89, 2, 1.37852
163, 1, bw, attraction, a-b-da, 2, 2, 8, 17, 90, 165, 165, 90, 163, 89, 3, 1.45007
163, 1, bw, attraction, a-b-db, 5, 1, 8, 18, 58, 132, 135, 60, 60, 135, 2, 1.41351
163, 1, bw, attraction, a-b-db, 5, 1, 8, 18, 58, 132, 135, 60, 60, 135, 1, 1.21972
163, 1, bw, filler, NA, 999, 999, 8, 19, 182, 163, 140, 120, 120, 145, 1, 0.8326
163, 1, bw, filler, NA, 999, 999, 8, 19, 182, 163, 140, 120, 120, 145, 2, 0.34239
163, 1, bw, attraction, a-b-db, 14, 1, 8, 20, 135, 60, 60, 135, 56, 125, 2, 2.87834
163, 1, bw, attraction, a-b-db, 14, 1, 8, 20, 135, 60, 60, 135, 56, 125, 3, 0.297366
163, 1, bw, catch, NA, 999, 999, 8, 21, 129, 126, 88, 107, 136, 179, 3, 0.73904
163, 1, bw, catch, NA, 999, 999, 8, 21, 129, 126, 88, 107, 136, 179, 2, 0.364121
163, 1, bw, attraction, a-b-db, 9, 2, 8, 22, 86, 157, 90, 165, 165, 90, 2, 1.17136
163, 1, bw, attraction, a-b-db, 9, 2, 8, 22, 86, 157, 90, 165, 165, 90, 1, 0.40295
163, 1, bw, filler, NA, 999, 999, 8, 23, 116, 92, 84, 167, 145, 72, 2, 0.896734
163, 1, bw, filler, NA, 999, 999, 8, 23, 116, 92, 84, 167, 145, 72, 1, 0.299758
163, 1, bw, attraction, a-b-da, 5, 3, 8, 24, 120, 195, 190, 117, 195, 120, 2, 1.1418
163, 1, bw, attraction, a-b-da, 5, 3, 8, 24, 120, 195, 190, 117, 195, 120, 1, 0.326531
163, 1, bw, attraction, a-b-da, 2, 3, 8, 25, 120, 195, 195, 120, 193, 119, 2, 1.07918
163, 1, bw, attraction, a-b-da, 2, 3, 8, 25, 120, 195, 195, 120, 193, 119, 1, 0.314653
163, 1, bw, attraction, a-b-da, 14, 3, 8, 26, 195, 120, 120, 195, 181, 111, 2, 2.71586
163, 1, bw, attraction, a-b-da, 14, 3, 8, 26, 195, 120, 120, 195, 181, 111, 3, 0.30968
163, 1, bw, attraction, a-b-db, 2, 2, 8, 27, 90, 165, 165, 90, 89, 163, 3, 0.759009
163, 1, bw, attraction, a-b-db, 2, 2, 8, 27, 90, 165, 165, 90, 89, 163, 2, 0.319376
163, 1, bw, filler, NA, 999, 999, 8, 28, 79, 192, 94, 148, 95, 190, 3, 0.816433
163, 1, bw, filler, NA, 999, 999, 8, 28, 79, 192, 94, 148, 95, 190, 2, 0.430854
163, 1, bw, attraction, a-b-db, 14, 3, 8, 29, 120, 195, 111, 181, 195, 120, 1, 2.55534
163, 1, bw, attraction, a-b-db, 14, 3, 8, 29, 120, 195, 111, 181, 195, 120, 2, 0.267267
163, 1, bw, filler, NA, 999, 999, 8, 30, 133, 188, 136, 152, 123, 92, 1, 0.614333
163, 1, bw, filler, NA, 999, 999, 8, 30, 133, 188, 136, 152, 123, 92, 3, 0.3649
163, 1, bw, attraction, a-b-db, 2, 3, 8, 31, 195, 120, 119, 193, 120, 195, 2, 0.900037
163, 1, bw, attraction, a-b-db, 2, 3, 8, 31, 195, 120, 119, 193, 120, 195, 1, 0.318993
163, 1, bw, attraction, a-b-da, 9, 3, 8, 32, 186, 114, 195, 120, 120, 195, 3, 1.86411
163, 1, bw, attraction, a-b-da, 9, 3, 8, 32, 186, 114, 195, 120, 120, 195, 1, 0.300171
163, 1, bw, filler, NA, 999, 999, 8, 33, 131, 161, 99, 78, 167, 98, 1, 1.03816
163, 1, bw, filler, NA, 999, 999, 8, 33, 131, 161, 99, 78, 167, 98, 2, 0.523075
163, 1, bw, attraction, a-b-db, 5, 2, 8, 34, 90, 165, 165, 90, 88, 161, 2, 0.884175
163, 1, bw, attraction, a-b-db, 5, 2, 8, 34, 90, 165, 165, 90, 88, 161, 1, 0.495799
163, 1, bw, filler, NA, 999, 999, 8, 35, 110, 95, 112, 126, 188, 163, 3, 0.649698
163, 1, bw, filler, NA, 999, 999, 8, 35, 110, 95, 112, 126, 188, 163, 1, 0.478808
163, 1, bw, attraction, a-b-da, 5, 2, 8, 36, 161, 88, 165, 90, 90, 165, 2, 1.11331
163, 1, bw, attraction, a-b-da, 5, 2, 8, 36, 161, 88, 165, 90, 90, 165, 1, 0.203509
163, 1, bw, attraction, a-b-db, 9, 3, 8, 37, 114, 186, 195, 120, 120, 195, 2, 0.777396
163, 1, bw, attraction, a-b-db, 9, 3, 8, 37, 114, 186, 195, 120, 120, 195, 3, 0.721348
