sub_n, computer_n, bw_cond, effect, set, distance, diag, block_n, trial_n, h1, w1, h2, w2, h3, w3, choice, rt 
154, 1, wb, practice, NA, 999, 999, 0, 1, 130, 134, 107, 166, 183, 101, 1, 5.91803
154, 1, wb, practice, NA, 999, 999, 0, 1, 130, 134, 107, 166, 183, 101, 3, 6.55137
154, 1, wb, practice, NA, 999, 999, 0, 2, 98, 129, 126, 164, 142, 99, 1, 4.03258
154, 1, wb, practice, NA, 999, 999, 0, 2, 98, 129, 126, 164, 142, 99, 2, 2.30003
154, 1, wb, practice, NA, 999, 999, 0, 3, 64, 124, 195, 158, 98, 176, 1, 2.6834
154, 1, wb, practice, NA, 999, 999, 0, 3, 64, 124, 195, 158, 98, 176, 2, 1.5419
154, 1, wb, attraction, a-b-da, 9, 1, 1, 1, 60, 135, 135, 60, 129, 57, 2, 5.76287
154, 1, wb, attraction, a-b-da, 9, 1, 1, 1, 60, 135, 135, 60, 129, 57, 3, 5.99368
154, 1, wb, filler, NA, 999, 999, 1, 2, 62, 194, 164, 192, 141, 159, 1, 5.27001
154, 1, wb, filler, NA, 999, 999, 1, 2, 62, 194, 164, 192, 141, 159, 2, 1.08079
154, 1, wb, attraction, a-b-da, 5, 1, 1, 3, 60, 135, 132, 58, 135, 60, 2, 3.14702
154, 1, wb, attraction, a-b-da, 5, 1, 1, 3, 60, 135, 132, 58, 135, 60, 1, 0.707303
154, 1, wb, attraction, a-b-db, 2, 2, 1, 4, 89, 163, 90, 165, 165, 90, 3, 3.64442
154, 1, wb, attraction, a-b-db, 2, 2, 1, 4, 89, 163, 90, 165, 165, 90, 2, 1.36857
154, 1, wb, attraction, a-b-da, 14, 1, 1, 5, 135, 60, 125, 56, 60, 135, 1, 2.62342
154, 1, wb, attraction, a-b-da, 14, 1, 1, 5, 135, 60, 125, 56, 60, 135, 2, 1.06058
154, 1, wb, attraction, a-b-da, 2, 3, 1, 6, 120, 195, 195, 120, 193, 119, 1, 2.51158
154, 1, wb, attraction, a-b-da, 2, 3, 1, 6, 120, 195, 195, 120, 193, 119, 2, 0.449404
154, 1, wb, attraction, a-b-db, 2, 1, 1, 7, 60, 135, 135, 60, 59, 134, 1, 2.86127
154, 1, wb, attraction, a-b-db, 2, 1, 1, 7, 60, 135, 135, 60, 59, 134, 2, 0.792984
154, 1, wb, attraction, a-b-da, 5, 2, 1, 8, 90, 165, 161, 88, 165, 90, 2, 2.45468
154, 1, wb, attraction, a-b-da, 5, 2, 1, 8, 90, 165, 161, 88, 165, 90, 1, 0.658459
154, 1, wb, filler, NA, 999, 999, 1, 9, 66, 88, 150, 186, 117, 149, 1, 1.31768
154, 1, wb, filler, NA, 999, 999, 1, 9, 66, 88, 150, 186, 117, 149, 2, 0.535786
154, 1, wb, filler, NA, 999, 999, 1, 10, 79, 122, 69, 147, 75, 60, 3, 2.04025
154, 1, wb, filler, NA, 999, 999, 1, 10, 79, 122, 69, 147, 75, 60, 2, 0.900921
154, 1, wb, attraction, a-b-da, 14, 2, 1, 11, 165, 90, 90, 165, 153, 83, 1, 3.20656
154, 1, wb, attraction, a-b-da, 14, 2, 1, 11, 165, 90, 90, 165, 153, 83, 3, 0.620116
154, 1, wb, attraction, a-b-db, 5, 3, 1, 12, 195, 120, 117, 190, 120, 195, 2, 2.06544
154, 1, wb, attraction, a-b-db, 5, 3, 1, 12, 195, 120, 117, 190, 120, 195, 1, 0.413193
154, 1, wb, attraction, a-b-db, 14, 2, 1, 13, 165, 90, 90, 165, 83, 153, 3, 1.41048
154, 1, wb, attraction, a-b-db, 14, 2, 1, 13, 165, 90, 90, 165, 83, 153, 1, 0.648561
154, 1, wb, attraction, a-b-db, 2, 3, 1, 14, 119, 193, 195, 120, 120, 195, 3, 1.89235
154, 1, wb, attraction, a-b-db, 2, 3, 1, 14, 119, 193, 195, 120, 120, 195, 1, 0.59906
154, 1, wb, catch, NA, 999, 999, 1, 15, 79, 116, 138, 117, 164, 151, 1, 1.11681
154, 1, wb, catch, NA, 999, 999, 1, 15, 79, 116, 138, 117, 164, 151, 3, 0.637558
154, 1, wb, attraction, a-b-db, 9, 3, 1, 16, 120, 195, 195, 120, 114, 186, 3, 1.50752
154, 1, wb, attraction, a-b-db, 9, 3, 1, 16, 120, 195, 195, 120, 114, 186, 1, 0.477763
154, 1, wb, attraction, a-b-db, 5, 1, 1, 17, 60, 135, 135, 60, 58, 132, 3, 1.18415
154, 1, wb, attraction, a-b-db, 5, 1, 1, 17, 60, 135, 135, 60, 58, 132, 1, 0.367919
154, 1, wb, filler, NA, 999, 999, 1, 18, 142, 66, 102, 94, 185, 104, 2, 0.902826
154, 1, wb, filler, NA, 999, 999, 1, 18, 142, 66, 102, 94, 185, 104, 3, 0.409888
154, 1, wb, attraction, a-b-da, 2, 1, 1, 19, 134, 59, 135, 60, 60, 135, 3, 2.46313
154, 1, wb, attraction, a-b-da, 2, 1, 1, 19, 134, 59, 135, 60, 60, 135, 1, 0.522883
154, 1, wb, filler, NA, 999, 999, 1, 20, 170, 130, 95, 83, 191, 126, 2, 0.956021
154, 1, wb, filler, NA, 999, 999, 1, 20, 170, 130, 95, 83, 191, 126, 3, 0.548406
154, 1, wb, filler, NA, 999, 999, 1, 21, 195, 195, 116, 133, 79, 75, 3, 1.40427
154, 1, wb, filler, NA, 999, 999, 1, 21, 195, 195, 116, 133, 79, 75, 1, 0.475124
154, 1, wb, filler, NA, 999, 999, 1, 22, 100, 69, 108, 91, 166, 164, 1, 0.981463
154, 1, wb, filler, NA, 999, 999, 1, 22, 100, 69, 108, 91, 166, 164, 3, 0.309141
154, 1, wb, attraction, a-b-db, 5, 2, 1, 23, 165, 90, 90, 165, 88, 161, 1, 2.17433
154, 1, wb, attraction, a-b-db, 5, 2, 1, 23, 165, 90, 90, 165, 88, 161, 3, 0.549716
154, 1, wb, filler, NA, 999, 999, 1, 24, 183, 128, 65, 92, 99, 72, 2, 0.869394
154, 1, wb, filler, NA, 999, 999, 1, 24, 183, 128, 65, 92, 99, 72, 1, 0.43028
154, 1, wb, catch, NA, 999, 999, 1, 25, 164, 151, 114, 81, 132, 123, 2, 0.966256
154, 1, wb, catch, NA, 999, 999, 1, 25, 164, 151, 114, 81, 132, 123, 1, 0.534695
154, 1, wb, attraction, a-b-da, 2, 2, 1, 26, 90, 165, 163, 89, 165, 90, 2, 1.06319
154, 1, wb, attraction, a-b-da, 2, 2, 1, 26, 90, 165, 163, 89, 165, 90, 1, 0.36336
154, 1, wb, attraction, a-b-db, 9, 2, 1, 27, 90, 165, 86, 157, 165, 90, 2, 2.23448
154, 1, wb, attraction, a-b-db, 9, 2, 1, 27, 90, 165, 86, 157, 165, 90, 3, 0.431909
154, 1, wb, attraction, a-b-db, 9, 1, 1, 28, 60, 135, 135, 60, 57, 129, 2, 1.74826
154, 1, wb, attraction, a-b-db, 9, 1, 1, 28, 60, 135, 135, 60, 57, 129, 1, 0.453079
154, 1, wb, attraction, a-b-da, 14, 3, 1, 29, 120, 195, 195, 120, 181, 111, 1, 1.83283
154, 1, wb, attraction, a-b-da, 14, 3, 1, 29, 120, 195, 195, 120, 181, 111, 3, 0.590151
154, 1, wb, catch, NA, 999, 999, 1, 30, 156, 99, 99, 96, 138, 177, 2, 0.98
154, 1, wb, catch, NA, 999, 999, 1, 30, 156, 99, 99, 96, 138, 177, 3, 0.795731
154, 1, wb, attraction, a-b-db, 14, 1, 1, 31, 135, 60, 56, 125, 60, 135, 2, 1.08933
154, 1, wb, attraction, a-b-db, 14, 1, 1, 31, 135, 60, 56, 125, 60, 135, 3, 1.49226
154, 1, wb, filler, NA, 999, 999, 1, 32, 96, 94, 96, 93, 114, 105, 2, 0.74974
154, 1, wb, filler, NA, 999, 999, 1, 32, 96, 94, 96, 93, 114, 105, 3, 0.862978
154, 1, wb, attraction, a-b-da, 9, 3, 1, 33, 186, 114, 120, 195, 195, 120, 1, 2.02606
154, 1, wb, attraction, a-b-da, 9, 3, 1, 33, 186, 114, 120, 195, 195, 120, 2, 0.559272
154, 1, wb, filler, NA, 999, 999, 1, 34, 144, 76, 182, 124, 135, 62, 3, 1.16636
154, 1, wb, filler, NA, 999, 999, 1, 34, 144, 76, 182, 124, 135, 62, 2, 0.63863
154, 1, wb, attraction, a-b-da, 9, 2, 1, 35, 165, 90, 90, 165, 157, 86, 2, 1.12299
154, 1, wb, attraction, a-b-da, 9, 2, 1, 35, 165, 90, 90, 165, 157, 86, 1, 0.764581
154, 1, wb, attraction, a-b-db, 14, 3, 1, 36, 195, 120, 120, 195, 111, 181, 3, 0.651714
154, 1, wb, attraction, a-b-db, 14, 3, 1, 36, 195, 120, 120, 195, 111, 181, 1, 0.472822
154, 1, wb, attraction, a-b-da, 5, 3, 1, 37, 195, 120, 190, 117, 120, 195, 3, 0.547957
154, 1, wb, attraction, a-b-da, 5, 3, 1, 37, 195, 120, 190, 117, 120, 195, 1, 0.701096
154, 1, wb, catch, NA, 999, 999, 2, 1, 146, 169, 104, 151, 99, 96, 3, 0.390654
154, 1, wb, catch, NA, 999, 999, 2, 1, 146, 169, 104, 151, 99, 96, 1, 0.53395
154, 1, wb, filler, NA, 999, 999, 2, 2, 68, 154, 165, 79, 67, 186, 1, 0.91035
154, 1, wb, filler, NA, 999, 999, 2, 2, 68, 154, 165, 79, 67, 186, 3, 0.640776
154, 1, wb, attraction, a-b-da, 9, 2, 2, 3, 90, 165, 165, 90, 157, 86, 1, 0.524404
154, 1, wb, attraction, a-b-da, 9, 2, 2, 3, 90, 165, 165, 90, 157, 86, 3, 0.510324
154, 1, wb, attraction, a-b-db, 14, 3, 2, 4, 120, 195, 111, 181, 195, 120, 2, 0.543413
154, 1, wb, attraction, a-b-db, 14, 3, 2, 4, 120, 195, 111, 181, 195, 120, 3, 0.5285
154, 1, wb, filler, NA, 999, 999, 2, 5, 100, 91, 97, 112, 145, 107, 1, 0.640862
154, 1, wb, filler, NA, 999, 999, 2, 5, 100, 91, 97, 112, 145, 107, 3, 0.414065
154, 1, wb, filler, NA, 999, 999, 2, 6, 191, 109, 157, 139, 91, 72, 3, 0.62723
154, 1, wb, filler, NA, 999, 999, 2, 6, 191, 109, 157, 139, 91, 72, 1, 0.488972
154, 1, wb, catch, NA, 999, 999, 2, 7, 125, 70, 162, 93, 174, 141, 1, 0.835491
154, 1, wb, catch, NA, 999, 999, 2, 7, 125, 70, 162, 93, 174, 141, 3, 0.665177
154, 1, wb, filler, NA, 999, 999, 2, 8, 121, 180, 167, 123, 187, 173, 1, 1.45223
154, 1, wb, filler, NA, 999, 999, 2, 8, 121, 180, 167, 123, 187, 173, 3, 0.705127
154, 1, wb, filler, NA, 999, 999, 2, 9, 88, 171, 71, 57, 63, 125, 2, 0.658879
154, 1, wb, filler, NA, 999, 999, 2, 9, 88, 171, 71, 57, 63, 125, 1, 0.319345
154, 1, wb, filler, NA, 999, 999, 2, 10, 159, 165, 97, 125, 126, 109, 2, 0.816372
154, 1, wb, filler, NA, 999, 999, 2, 10, 159, 165, 97, 125, 126, 109, 1, 0.374779
154, 1, wb, attraction, a-b-da, 14, 3, 2, 11, 120, 195, 181, 111, 195, 120, 1, 0.789294
154, 1, wb, attraction, a-b-da, 14, 3, 2, 11, 120, 195, 181, 111, 195, 120, 3, 0.612344
154, 1, wb, attraction, a-b-da, 14, 1, 2, 12, 135, 60, 125, 56, 60, 135, 1, 1.06549
154, 1, wb, attraction, a-b-da, 14, 1, 2, 12, 135, 60, 125, 56, 60, 135, 2, 0.749811
154, 1, wb, attraction, a-b-db, 5, 3, 2, 13, 195, 120, 117, 190, 120, 195, 2, 1.91738
154, 1, wb, attraction, a-b-db, 5, 3, 2, 13, 195, 120, 117, 190, 120, 195, 1, 0.511395
154, 1, wb, catch, NA, 999, 999, 2, 14, 94, 161, 154, 161, 133, 62, 3, 0.752505
154, 1, wb, catch, NA, 999, 999, 2, 14, 94, 161, 154, 161, 133, 62, 2, 0.401764
154, 1, wb, attraction, a-b-da, 9, 1, 2, 15, 135, 60, 60, 135, 129, 57, 2, 1.06344
154, 1, wb, attraction, a-b-da, 9, 1, 2, 15, 135, 60, 60, 135, 129, 57, 1, 0.435702
154, 1, wb, attraction, a-b-da, 5, 1, 2, 16, 132, 58, 60, 135, 135, 60, 1, 1.03227
154, 1, wb, attraction, a-b-da, 5, 1, 2, 16, 132, 58, 60, 135, 135, 60, 3, 0.493847
154, 1, wb, attraction, a-b-da, 2, 3, 2, 17, 195, 120, 120, 195, 193, 119, 1, 0.607692
154, 1, wb, attraction, a-b-da, 2, 3, 2, 17, 195, 120, 120, 195, 193, 119, 3, 0.446199
154, 1, wb, attraction, a-b-db, 14, 2, 2, 18, 83, 153, 165, 90, 90, 165, 1, 0.601864
154, 1, wb, attraction, a-b-db, 14, 2, 2, 18, 83, 153, 165, 90, 90, 165, 3, 0.409162
154, 1, wb, filler, NA, 999, 999, 2, 19, 119, 81, 172, 61, 194, 74, 1, 0.598261
154, 1, wb, filler, NA, 999, 999, 2, 19, 119, 81, 172, 61, 194, 74, 3, 0.51729
154, 1, wb, attraction, a-b-db, 9, 2, 2, 20, 165, 90, 90, 165, 86, 157, 2, 0.638404
154, 1, wb, attraction, a-b-db, 9, 2, 2, 20, 165, 90, 90, 165, 86, 157, 1, 0.37968
154, 1, wb, attraction, a-b-db, 14, 1, 2, 21, 56, 125, 135, 60, 60, 135, 1, 0.762036
154, 1, wb, attraction, a-b-db, 14, 1, 2, 21, 56, 125, 135, 60, 60, 135, 3, 0.530521
154, 1, wb, attraction, a-b-da, 5, 3, 2, 22, 195, 120, 120, 195, 190, 117, 2, 0.594933
154, 1, wb, attraction, a-b-da, 5, 3, 2, 22, 195, 120, 120, 195, 190, 117, 1, 0.489981
154, 1, wb, attraction, a-b-da, 9, 3, 2, 23, 195, 120, 186, 114, 120, 195, 2, 0.563713
154, 1, wb, attraction, a-b-da, 9, 3, 2, 23, 195, 120, 186, 114, 120, 195, 1, 0.404228
154, 1, wb, attraction, a-b-db, 2, 3, 2, 24, 195, 120, 119, 193, 120, 195, 2, 0.402117
154, 1, wb, attraction, a-b-db, 2, 3, 2, 24, 195, 120, 119, 193, 120, 195, 1, 0.433228
154, 1, wb, attraction, a-b-db, 5, 1, 2, 25, 58, 132, 60, 135, 135, 60, 1, 0.645776
154, 1, wb, attraction, a-b-db, 5, 1, 2, 25, 58, 132, 60, 135, 135, 60, 3, 0.546841
154, 1, wb, filler, NA, 999, 999, 2, 26, 147, 142, 186, 94, 151, 135, 2, 0.410551
154, 1, wb, filler, NA, 999, 999, 2, 26, 147, 142, 186, 94, 151, 135, 1, 0.42506
154, 1, wb, filler, NA, 999, 999, 2, 27, 122, 139, 109, 190, 144, 189, 1, 0.62957
154, 1, wb, filler, NA, 999, 999, 2, 27, 122, 139, 109, 190, 144, 189, 3, 0.371379
154, 1, wb, attraction, a-b-da, 2, 2, 2, 28, 165, 90, 90, 165, 163, 89, 1, 0.554433
154, 1, wb, attraction, a-b-da, 2, 2, 2, 28, 165, 90, 90, 165, 163, 89, 3, 0.555899
154, 1, wb, attraction, a-b-db, 5, 2, 2, 29, 165, 90, 88, 161, 90, 165, 2, 0.867425
154, 1, wb, attraction, a-b-db, 5, 2, 2, 29, 165, 90, 88, 161, 90, 165, 1, 0.375779
154, 1, wb, attraction, a-b-da, 2, 1, 2, 30, 60, 135, 135, 60, 134, 59, 1, 0.606285
154, 1, wb, attraction, a-b-da, 2, 1, 2, 30, 60, 135, 135, 60, 134, 59, 3, 0.468781
154, 1, wb, attraction, a-b-db, 9, 1, 2, 31, 57, 129, 135, 60, 60, 135, 1, 0.631788
154, 1, wb, attraction, a-b-db, 9, 1, 2, 31, 57, 129, 135, 60, 60, 135, 3, 0.357576
154, 1, wb, attraction, a-b-db, 2, 1, 2, 32, 59, 134, 135, 60, 60, 135, 1, 0.356731
154, 1, wb, attraction, a-b-db, 2, 1, 2, 32, 59, 134, 135, 60, 60, 135, 3, 0.53339
154, 1, wb, attraction, a-b-db, 9, 3, 2, 33, 114, 186, 120, 195, 195, 120, 2, 0.493819
154, 1, wb, attraction, a-b-db, 9, 3, 2, 33, 114, 186, 120, 195, 195, 120, 1, 0.392872
154, 1, wb, attraction, a-b-da, 5, 2, 2, 34, 90, 165, 161, 88, 165, 90, 1, 0.358736
154, 1, wb, attraction, a-b-da, 5, 2, 2, 34, 90, 165, 161, 88, 165, 90, 3, 0.351211
154, 1, wb, filler, NA, 999, 999, 2, 35, 178, 181, 164, 115, 91, 117, 3, 0.663114
154, 1, wb, filler, NA, 999, 999, 2, 35, 178, 181, 164, 115, 91, 117, 1, 0.331465
154, 1, wb, attraction, a-b-da, 14, 2, 2, 36, 165, 90, 153, 83, 90, 165, 3, 1.452
154, 1, wb, attraction, a-b-da, 14, 2, 2, 36, 165, 90, 153, 83, 90, 165, 1, 0.369072
154, 1, wb, attraction, a-b-db, 2, 2, 2, 37, 165, 90, 89, 163, 90, 165, 2, 0.688079
154, 1, wb, attraction, a-b-db, 2, 2, 2, 37, 165, 90, 89, 163, 90, 165, 1, 0.579205
154, 1, wb, catch, NA, 999, 999, 3, 1, 101, 94, 117, 138, 188, 127, 1, 0.753539
154, 1, wb, catch, NA, 999, 999, 3, 1, 101, 94, 117, 138, 188, 127, 3, 0.658784
154, 1, wb, attraction, a-b-db, 2, 2, 3, 2, 89, 163, 90, 165, 165, 90, 1, 1.16566
154, 1, wb, attraction, a-b-db, 2, 2, 3, 2, 89, 163, 90, 165, 165, 90, 3, 0.374092
154, 1, wb, attraction, a-b-da, 9, 3, 3, 3, 120, 195, 186, 114, 195, 120, 1, 1.10848
154, 1, wb, attraction, a-b-da, 9, 3, 3, 3, 120, 195, 186, 114, 195, 120, 3, 0.654882
154, 1, wb, attraction, a-b-db, 9, 3, 3, 4, 114, 186, 120, 195, 195, 120, 1, 0.706809
154, 1, wb, attraction, a-b-db, 9, 3, 3, 4, 114, 186, 120, 195, 195, 120, 3, 0.89297
154, 1, wb, attraction, a-b-db, 9, 2, 3, 5, 165, 90, 90, 165, 86, 157, 2, 0.950734
154, 1, wb, attraction, a-b-db, 9, 2, 3, 5, 165, 90, 90, 165, 86, 157, 1, 0.527538
154, 1, wb, filler, NA, 999, 999, 3, 6, 184, 66, 146, 136, 95, 190, 1, 0.639996
154, 1, wb, filler, NA, 999, 999, 3, 6, 184, 66, 146, 136, 95, 190, 3, 0.373173
154, 1, wb, attraction, a-b-db, 2, 1, 3, 7, 59, 134, 60, 135, 135, 60, 2, 1.23563
154, 1, wb, attraction, a-b-db, 2, 1, 3, 7, 59, 134, 60, 135, 135, 60, 3, 0.641236
154, 1, wb, filler, NA, 999, 999, 3, 8, 90, 74, 136, 95, 130, 169, 1, 0.68497
154, 1, wb, filler, NA, 999, 999, 3, 8, 90, 74, 136, 95, 130, 169, 3, 0.368643
154, 1, wb, catch, NA, 999, 999, 3, 9, 154, 161, 152, 103, 100, 95, 3, 0.815981
154, 1, wb, catch, NA, 999, 999, 3, 9, 154, 161, 152, 103, 100, 95, 1, 0.350294
154, 1, wb, attraction, a-b-da, 2, 1, 3, 10, 60, 135, 134, 59, 135, 60, 1, 0.646132
154, 1, wb, attraction, a-b-da, 2, 1, 3, 10, 60, 135, 134, 59, 135, 60, 3, 1.26735
154, 1, wb, attraction, a-b-db, 2, 3, 3, 11, 195, 120, 119, 193, 120, 195, 2, 1.99007
154, 1, wb, attraction, a-b-db, 2, 3, 3, 11, 195, 120, 119, 193, 120, 195, 1, 0.348741
154, 1, wb, filler, NA, 999, 999, 3, 12, 146, 57, 129, 79, 181, 74, 1, 0.580584
154, 1, wb, filler, NA, 999, 999, 3, 12, 146, 57, 129, 79, 181, 74, 3, 0.812589
154, 1, wb, filler, NA, 999, 999, 3, 13, 189, 83, 174, 130, 146, 188, 1, 0.521562
154, 1, wb, filler, NA, 999, 999, 3, 13, 189, 83, 174, 130, 146, 188, 3, 0.4273
154, 1, wb, filler, NA, 999, 999, 3, 14, 120, 170, 64, 58, 187, 182, 2, 0.751741
154, 1, wb, filler, NA, 999, 999, 3, 14, 120, 170, 64, 58, 187, 182, 3, 0.248866
154, 1, wb, catch, NA, 999, 999, 3, 15, 104, 151, 87, 108, 130, 185, 2, 0.964729
154, 1, wb, catch, NA, 999, 999, 3, 15, 104, 151, 87, 108, 130, 185, 3, 0.300936
154, 1, wb, attraction, a-b-da, 9, 2, 3, 16, 157, 86, 90, 165, 165, 90, 2, 0.99083
154, 1, wb, attraction, a-b-da, 9, 2, 3, 16, 157, 86, 90, 165, 165, 90, 1, 0.677831
154, 1, wb, attraction, a-b-db, 14, 3, 3, 17, 195, 120, 111, 181, 120, 195, 2, 0.960112
154, 1, wb, attraction, a-b-db, 14, 3, 3, 17, 195, 120, 111, 181, 120, 195, 1, 0.504584
154, 1, wb, filler, NA, 999, 999, 3, 18, 90, 99, 147, 124, 193, 94, 1, 0.674267
154, 1, wb, filler, NA, 999, 999, 3, 18, 90, 99, 147, 124, 193, 94, 3, 0.358106
154, 1, wb, filler, NA, 999, 999, 3, 19, 146, 186, 156, 147, 132, 120, 3, 0.749262
154, 1, wb, filler, NA, 999, 999, 3, 19, 146, 186, 156, 147, 132, 120, 1, 0.366476
154, 1, wb, attraction, a-b-da, 2, 2, 3, 20, 163, 89, 165, 90, 90, 165, 1, 0.629453
154, 1, wb, attraction, a-b-da, 2, 2, 3, 20, 163, 89, 165, 90, 90, 165, 3, 0.731295
154, 1, wb, filler, NA, 999, 999, 3, 21, 107, 151, 184, 126, 139, 192, 1, 0.459661
154, 1, wb, filler, NA, 999, 999, 3, 21, 107, 151, 184, 126, 139, 192, 3, 0.416125
154, 1, wb, attraction, a-b-da, 5, 2, 3, 22, 161, 88, 165, 90, 90, 165, 1, 0.517232
154, 1, wb, attraction, a-b-da, 5, 2, 3, 22, 161, 88, 165, 90, 90, 165, 2, 0.535734
154, 1, wb, attraction, a-b-da, 5, 1, 3, 23, 60, 135, 135, 60, 132, 58, 2, 0.912317
154, 1, wb, attraction, a-b-da, 5, 1, 3, 23, 60, 135, 135, 60, 132, 58, 1, 0.346676
154, 1, wb, attraction, a-b-db, 5, 3, 3, 24, 120, 195, 117, 190, 195, 120, 2, 1.50634
154, 1, wb, attraction, a-b-db, 5, 3, 3, 24, 120, 195, 117, 190, 195, 120, 3, 0.308594
154, 1, wb, attraction, a-b-da, 2, 3, 3, 25, 120, 195, 195, 120, 193, 119, 2, 2.34982
154, 1, wb, attraction, a-b-da, 2, 3, 3, 25, 120, 195, 195, 120, 193, 119, 3, 0.61433
154, 1, wb, attraction, a-b-db, 14, 1, 3, 26, 135, 60, 60, 135, 56, 125, 1, 2.06739
154, 1, wb, attraction, a-b-db, 14, 1, 3, 26, 135, 60, 60, 135, 56, 125, 2, 0.423415
154, 1, wb, attraction, a-b-da, 9, 1, 3, 27, 60, 135, 129, 57, 135, 60, 1, 2.01985
154, 1, wb, attraction, a-b-da, 9, 1, 3, 27, 60, 135, 129, 57, 135, 60, 2, 0.473904
154, 1, wb, attraction, a-b-da, 14, 3, 3, 28, 195, 120, 120, 195, 181, 111, 2, 1.75632
154, 1, wb, attraction, a-b-da, 14, 3, 3, 28, 195, 120, 120, 195, 181, 111, 3, 2.1085
154, 1, wb, attraction, a-b-db, 14, 2, 3, 29, 90, 165, 165, 90, 83, 153, 3, 1.73312
154, 1, wb, attraction, a-b-db, 14, 2, 3, 29, 90, 165, 165, 90, 83, 153, 2, 1.0865
154, 1, wb, attraction, a-b-da, 14, 2, 3, 30, 165, 90, 90, 165, 153, 83, 2, 0.784706
154, 1, wb, attraction, a-b-da, 14, 2, 3, 30, 165, 90, 90, 165, 153, 83, 1, 0.328594
154, 1, wb, attraction, a-b-da, 14, 1, 3, 31, 125, 56, 135, 60, 60, 135, 1, 0.601019
154, 1, wb, attraction, a-b-da, 14, 1, 3, 31, 125, 56, 135, 60, 60, 135, 2, 0.320185
154, 1, wb, attraction, a-b-db, 5, 2, 3, 32, 88, 161, 90, 165, 165, 90, 1, 0.785282
154, 1, wb, attraction, a-b-db, 5, 2, 3, 32, 88, 161, 90, 165, 165, 90, 3, 0.313009
154, 1, wb, filler, NA, 999, 999, 3, 33, 173, 146, 185, 147, 158, 135, 1, 0.522113
154, 1, wb, filler, NA, 999, 999, 3, 33, 173, 146, 185, 147, 158, 135, 3, 0.332038
154, 1, wb, attraction, a-b-db, 9, 1, 3, 34, 57, 129, 60, 135, 135, 60, 2, 1.54052
154, 1, wb, attraction, a-b-db, 9, 1, 3, 34, 57, 129, 60, 135, 135, 60, 3, 0.341372
154, 1, wb, filler, NA, 999, 999, 3, 35, 80, 167, 135, 76, 144, 99, 2, 0.501092
154, 1, wb, filler, NA, 999, 999, 3, 35, 80, 167, 135, 76, 144, 99, 3, 0.448272
154, 1, wb, attraction, a-b-da, 5, 3, 3, 36, 120, 195, 190, 117, 195, 120, 1, 0.916053
154, 1, wb, attraction, a-b-da, 5, 3, 3, 36, 120, 195, 190, 117, 195, 120, 3, 0.494606
154, 1, wb, attraction, a-b-db, 5, 1, 3, 37, 60, 135, 58, 132, 135, 60, 2, 1.47222
154, 1, wb, attraction, a-b-db, 5, 1, 3, 37, 60, 135, 58, 132, 135, 60, 3, 0.355809
154, 1, wb, attraction, a-b-da, 2, 1, 4, 1, 134, 59, 60, 135, 135, 60, 3, 1.8598
154, 1, wb, attraction, a-b-da, 2, 1, 4, 1, 134, 59, 60, 135, 135, 60, 1, 0.519702
154, 1, wb, catch, NA, 999, 999, 4, 2, 122, 133, 123, 192, 87, 108, 3, 0.768978
154, 1, wb, catch, NA, 999, 999, 4, 2, 122, 133, 123, 192, 87, 108, 2, 0.38524
154, 1, wb, filler, NA, 999, 999, 4, 3, 193, 84, 187, 154, 70, 125, 3, 0.967631
154, 1, wb, filler, NA, 999, 999, 4, 3, 193, 84, 187, 154, 70, 125, 2, 0.343975
154, 1, wb, filler, NA, 999, 999, 4, 4, 178, 187, 64, 110, 101, 76, 2, 0.959949
154, 1, wb, filler, NA, 999, 999, 4, 4, 178, 187, 64, 110, 101, 76, 1, 0.312275
154, 1, wb, filler, NA, 999, 999, 4, 5, 132, 89, 121, 179, 141, 179, 1, 0.633414
154, 1, wb, filler, NA, 999, 999, 4, 5, 132, 89, 121, 179, 141, 179, 3, 0.32719
154, 1, wb, filler, NA, 999, 999, 4, 6, 157, 103, 159, 72, 188, 99, 2, 1.02358
154, 1, wb, filler, NA, 999, 999, 4, 6, 157, 103, 159, 72, 188, 99, 3, 0.837471
154, 1, wb, attraction, a-b-da, 14, 1, 4, 7, 60, 135, 125, 56, 135, 60, 1, 0.401695
154, 1, wb, attraction, a-b-da, 14, 1, 4, 7, 60, 135, 125, 56, 135, 60, 3, 0.48889
154, 1, wb, attraction, a-b-db, 9, 3, 4, 8, 120, 195, 195, 120, 114, 186, 2, 0.523336
154, 1, wb, attraction, a-b-db, 9, 3, 4, 8, 120, 195, 195, 120, 114, 186, 1, 0.821035
154, 1, wb, filler, NA, 999, 999, 4, 9, 81, 100, 133, 94, 131, 146, 1, 1.16209
154, 1, wb, filler, NA, 999, 999, 4, 9, 81, 100, 133, 94, 131, 146, 3, 0.410468
154, 1, wb, attraction, a-b-db, 2, 2, 4, 10, 89, 163, 90, 165, 165, 90, 1, 1.47949
154, 1, wb, attraction, a-b-db, 2, 2, 4, 10, 89, 163, 90, 165, 165, 90, 3, 0.554975
154, 1, wb, attraction, a-b-db, 5, 3, 4, 11, 195, 120, 120, 195, 117, 190, 3, 1.10675
154, 1, wb, attraction, a-b-db, 5, 3, 4, 11, 195, 120, 120, 195, 117, 190, 1, 0.565006
154, 1, wb, attraction, a-b-da, 5, 2, 4, 12, 165, 90, 90, 165, 161, 88, 2, 0.540216
154, 1, wb, attraction, a-b-da, 5, 2, 4, 12, 165, 90, 90, 165, 161, 88, 1, 0.493376
154, 1, wb, attraction, a-b-db, 2, 3, 4, 13, 119, 193, 195, 120, 120, 195, 3, 0.759088
154, 1, wb, attraction, a-b-db, 2, 3, 4, 13, 119, 193, 195, 120, 120, 195, 2, 0.407623
154, 1, wb, attraction, a-b-db, 5, 1, 4, 14, 60, 135, 58, 132, 135, 60, 1, 0.500804
154, 1, wb, attraction, a-b-db, 5, 1, 4, 14, 60, 135, 58, 132, 135, 60, 3, 0.847843
154, 1, wb, attraction, a-b-da, 9, 3, 4, 15, 120, 195, 186, 114, 195, 120, 1, 1.96348
154, 1, wb, attraction, a-b-da, 9, 3, 4, 15, 120, 195, 186, 114, 195, 120, 3, 0.395449
154, 1, wb, filler, NA, 999, 999, 4, 16, 152, 121, 144, 74, 152, 73, 2, 0.529424
154, 1, wb, filler, NA, 999, 999, 4, 16, 152, 121, 144, 74, 152, 73, 1, 0.331157
154, 1, wb, filler, NA, 999, 999, 4, 17, 94, 80, 80, 71, 91, 171, 2, 0.643704
154, 1, wb, filler, NA, 999, 999, 4, 17, 94, 80, 80, 71, 91, 171, 3, 0.312761
154, 1, wb, attraction, a-b-db, 14, 1, 4, 18, 135, 60, 60, 135, 56, 125, 3, 0.969927
154, 1, wb, attraction, a-b-db, 14, 1, 4, 18, 135, 60, 60, 135, 56, 125, 2, 0.562328
154, 1, wb, catch, NA, 999, 999, 4, 19, 93, 162, 109, 86, 166, 149, 2, 0.849394
154, 1, wb, catch, NA, 999, 999, 4, 19, 93, 162, 109, 86, 166, 149, 3, 0.318432
154, 1, wb, filler, NA, 999, 999, 4, 20, 105, 108, 141, 133, 132, 152, 1, 0.511528
154, 1, wb, filler, NA, 999, 999, 4, 20, 105, 108, 141, 133, 132, 152, 3, 0.297974
154, 1, wb, attraction, a-b-da, 14, 2, 4, 21, 90, 165, 153, 83, 165, 90, 2, 0.995913
154, 1, wb, attraction, a-b-da, 14, 2, 4, 21, 90, 165, 153, 83, 165, 90, 1, 0.802878
154, 1, wb, attraction, a-b-da, 9, 1, 4, 22, 129, 57, 135, 60, 60, 135, 2, 1.21654
154, 1, wb, attraction, a-b-da, 9, 1, 4, 22, 129, 57, 135, 60, 60, 135, 1, 0.366827
154, 1, wb, attraction, a-b-da, 14, 3, 4, 23, 195, 120, 120, 195, 181, 111, 2, 1.31807
154, 1, wb, attraction, a-b-da, 14, 3, 4, 23, 195, 120, 120, 195, 181, 111, 3, 0.368233
154, 1, wb, attraction, a-b-da, 2, 2, 4, 24, 90, 165, 165, 90, 163, 89, 3, 0.991476
154, 1, wb, attraction, a-b-da, 2, 2, 4, 24, 90, 165, 165, 90, 163, 89, 1, 0.542436
154, 1, wb, attraction, a-b-da, 5, 3, 4, 25, 120, 195, 190, 117, 195, 120, 1, 0.614243
154, 1, wb, attraction, a-b-da, 5, 3, 4, 25, 120, 195, 190, 117, 195, 120, 3, 0.684675
154, 1, wb, attraction, a-b-db, 14, 3, 4, 26, 111, 181, 195, 120, 120, 195, 2, 0.542966
154, 1, wb, attraction, a-b-db, 14, 3, 4, 26, 111, 181, 195, 120, 120, 195, 3, 0.296253
154, 1, wb, attraction, a-b-db, 5, 2, 4, 27, 90, 165, 165, 90, 88, 161, 1, 0.497968
154, 1, wb, attraction, a-b-db, 5, 2, 4, 27, 90, 165, 165, 90, 88, 161, 2, 0.30914
154, 1, wb, attraction, a-b-db, 14, 2, 4, 28, 165, 90, 90, 165, 83, 153, 3, 0.566258
154, 1, wb, attraction, a-b-db, 14, 2, 4, 28, 165, 90, 90, 165, 83, 153, 1, 0.438702
154, 1, wb, attraction, a-b-db, 2, 1, 4, 29, 59, 134, 60, 135, 135, 60, 2, 0.579331
154, 1, wb, attraction, a-b-db, 2, 1, 4, 29, 59, 134, 60, 135, 135, 60, 3, 0.322986
154, 1, wb, catch, NA, 999, 999, 4, 30, 86, 109, 154, 161, 142, 113, 1, 0.532146
154, 1, wb, catch, NA, 999, 999, 4, 30, 86, 109, 154, 161, 142, 113, 2, 0.565999
154, 1, wb, attraction, a-b-da, 2, 3, 4, 31, 195, 120, 120, 195, 193, 119, 2, 0.997156
154, 1, wb, attraction, a-b-da, 2, 3, 4, 31, 195, 120, 120, 195, 193, 119, 3, 0.300267
154, 1, wb, filler, NA, 999, 999, 4, 32, 81, 159, 117, 176, 114, 151, 1, 0.51796
154, 1, wb, filler, NA, 999, 999, 4, 32, 81, 159, 117, 176, 114, 151, 2, 0.352472
154, 1, wb, attraction, a-b-db, 9, 2, 4, 33, 90, 165, 86, 157, 165, 90, 3, 0.512292
154, 1, wb, attraction, a-b-db, 9, 2, 4, 33, 90, 165, 86, 157, 165, 90, 2, 0.40281
154, 1, wb, attraction, a-b-da, 9, 2, 4, 34, 157, 86, 165, 90, 90, 165, 1, 0.592555
154, 1, wb, attraction, a-b-da, 9, 2, 4, 34, 157, 86, 165, 90, 90, 165, 2, 0.367748
154, 1, wb, filler, NA, 999, 999, 4, 35, 191, 116, 63, 148, 102, 122, 3, 1.51084
154, 1, wb, filler, NA, 999, 999, 4, 35, 191, 116, 63, 148, 102, 122, 1, 0.313061
154, 1, wb, attraction, a-b-db, 9, 1, 4, 36, 60, 135, 57, 129, 135, 60, 2, 0.626211
154, 1, wb, attraction, a-b-db, 9, 1, 4, 36, 60, 135, 57, 129, 135, 60, 3, 0.687976
154, 1, wb, attraction, a-b-da, 5, 1, 4, 37, 60, 135, 132, 58, 135, 60, 2, 0.562378
154, 1, wb, attraction, a-b-da, 5, 1, 4, 37, 60, 135, 132, 58, 135, 60, 1, 0.506861
154, 1, wb, attraction, a-b-db, 5, 3, 5, 1, 120, 195, 195, 120, 117, 190, 3, 3.49059
154, 1, wb, attraction, a-b-db, 5, 3, 5, 1, 120, 195, 195, 120, 117, 190, 2, 0.468829
154, 1, wb, attraction, a-b-da, 2, 2, 5, 2, 163, 89, 165, 90, 90, 165, 2, 1.20791
154, 1, wb, attraction, a-b-da, 2, 2, 5, 2, 163, 89, 165, 90, 90, 165, 1, 0.358231
154, 1, wb, attraction, a-b-da, 5, 2, 5, 3, 165, 90, 90, 165, 161, 88, 2, 0.61329
154, 1, wb, attraction, a-b-da, 5, 2, 5, 3, 165, 90, 90, 165, 161, 88, 3, 0.36376
154, 1, wb, attraction, a-b-da, 14, 1, 5, 4, 135, 60, 125, 56, 60, 135, 2, 1.02706
154, 1, wb, attraction, a-b-da, 14, 1, 5, 4, 135, 60, 125, 56, 60, 135, 3, 0.368643
154, 1, wb, attraction, a-b-db, 14, 3, 5, 5, 120, 195, 111, 181, 195, 120, 2, 1.26373
154, 1, wb, attraction, a-b-db, 14, 3, 5, 5, 120, 195, 111, 181, 195, 120, 3, 0.29212
154, 1, wb, attraction, a-b-da, 9, 1, 5, 6, 60, 135, 129, 57, 135, 60, 2, 0.830017
154, 1, wb, attraction, a-b-da, 9, 1, 5, 6, 60, 135, 129, 57, 135, 60, 1, 0.307673
154, 1, wb, filler, NA, 999, 999, 5, 7, 65, 96, 172, 113, 168, 158, 1, 0.820722
154, 1, wb, filler, NA, 999, 999, 5, 7, 65, 96, 172, 113, 168, 158, 2, 0.347125
154, 1, wb, filler, NA, 999, 999, 5, 8, 190, 129, 114, 79, 149, 133, 2, 0.786956
154, 1, wb, filler, NA, 999, 999, 5, 8, 190, 129, 114, 79, 149, 133, 1, 0.274674
154, 1, wb, filler, NA, 999, 999, 5, 9, 170, 133, 105, 142, 175, 186, 2, 0.597224
154, 1, wb, filler, NA, 999, 999, 5, 9, 170, 133, 105, 142, 175, 186, 3, 0.324395
154, 1, wb, attraction, a-b-da, 2, 1, 5, 10, 134, 59, 135, 60, 60, 135, 2, 0.740808
154, 1, wb, attraction, a-b-da, 2, 1, 5, 10, 134, 59, 135, 60, 60, 135, 1, 0.317921
154, 1, wb, attraction, a-b-da, 9, 2, 5, 11, 90, 165, 165, 90, 157, 86, 2, 0.831282
154, 1, wb, attraction, a-b-da, 9, 2, 5, 11, 90, 165, 165, 90, 157, 86, 3, 0.372846
154, 1, wb, attraction, a-b-db, 2, 1, 5, 12, 135, 60, 60, 135, 59, 134, 2, 0.70812
154, 1, wb, attraction, a-b-db, 2, 1, 5, 12, 135, 60, 60, 135, 59, 134, 1, 0.318439
154, 1, wb, filler, NA, 999, 999, 5, 13, 173, 90, 188, 74, 64, 67, 3, 0.855601
154, 1, wb, filler, NA, 999, 999, 5, 13, 173, 90, 188, 74, 64, 67, 1, 0.339975
154, 1, wb, attraction, a-b-da, 2, 3, 5, 14, 195, 120, 120, 195, 193, 119, 2, 0.803814
154, 1, wb, attraction, a-b-da, 2, 3, 5, 14, 195, 120, 120, 195, 193, 119, 3, 0.322857
154, 1, wb, attraction, a-b-db, 9, 2, 5, 15, 86, 157, 90, 165, 165, 90, 2, 0.716004
154, 1, wb, attraction, a-b-db, 9, 2, 5, 15, 86, 157, 90, 165, 165, 90, 3, 0.390337
154, 1, wb, filler, NA, 999, 999, 5, 16, 91, 117, 71, 114, 134, 66, 2, 0.60423
154, 1, wb, filler, NA, 999, 999, 5, 16, 91, 117, 71, 114, 134, 66, 1, 0.28332
154, 1, wb, attraction, a-b-db, 14, 2, 5, 17, 83, 153, 90, 165, 165, 90, 1, 1.11003
154, 1, wb, attraction, a-b-db, 14, 2, 5, 17, 83, 153, 90, 165, 165, 90, 2, 0.584088
154, 1, wb, filler, NA, 999, 999, 5, 18, 82, 123, 189, 189, 122, 67, 1, 0.654644
154, 1, wb, filler, NA, 999, 999, 5, 18, 82, 123, 189, 189, 122, 67, 2, 0.307085
154, 1, wb, attraction, a-b-da, 5, 3, 5, 19, 120, 195, 190, 117, 195, 120, 2, 0.684249
154, 1, wb, attraction, a-b-da, 5, 3, 5, 19, 120, 195, 190, 117, 195, 120, 1, 0.304078
154, 1, wb, attraction, a-b-da, 5, 1, 5, 20, 132, 58, 135, 60, 60, 135, 2, 0.706213
154, 1, wb, attraction, a-b-da, 5, 1, 5, 20, 132, 58, 135, 60, 60, 135, 3, 0.292333
154, 1, wb, attraction, a-b-da, 9, 3, 5, 21, 195, 120, 120, 195, 186, 114, 2, 0.726164
154, 1, wb, attraction, a-b-da, 9, 3, 5, 21, 195, 120, 120, 195, 186, 114, 1, 0.271845
154, 1, wb, attraction, a-b-da, 14, 3, 5, 22, 195, 120, 120, 195, 181, 111, 2, 0.530984
154, 1, wb, attraction, a-b-da, 14, 3, 5, 22, 195, 120, 120, 195, 181, 111, 1, 0.30082
154, 1, wb, attraction, a-b-db, 9, 1, 5, 23, 60, 135, 57, 129, 135, 60, 2, 0.694675
154, 1, wb, attraction, a-b-db, 9, 1, 5, 23, 60, 135, 57, 129, 135, 60, 1, 1.26587
154, 1, wb, attraction, a-b-db, 14, 1, 5, 24, 56, 125, 60, 135, 135, 60, 2, 0.908627
154, 1, wb, attraction, a-b-db, 14, 1, 5, 24, 56, 125, 60, 135, 135, 60, 1, 0.622984
154, 1, wb, filler, NA, 999, 999, 5, 25, 83, 103, 185, 89, 195, 109, 1, 0.692044
154, 1, wb, filler, NA, 999, 999, 5, 25, 83, 103, 185, 89, 195, 109, 3, 0.495198
154, 1, wb, attraction, a-b-db, 2, 3, 5, 26, 119, 193, 195, 120, 120, 195, 2, 0.688937
154, 1, wb, attraction, a-b-db, 2, 3, 5, 26, 119, 193, 195, 120, 120, 195, 3, 0.28408
154, 1, wb, filler, NA, 999, 999, 5, 27, 194, 74, 105, 86, 65, 89, 2, 0.526644
154, 1, wb, filler, NA, 999, 999, 5, 27, 194, 74, 105, 86, 65, 89, 3, 0.61638
154, 1, wb, catch, NA, 999, 999, 5, 28, 141, 114, 132, 63, 177, 138, 2, 0.549455
154, 1, wb, catch, NA, 999, 999, 5, 28, 141, 114, 132, 63, 177, 138, 3, 0.334567
154, 1, wb, catch, NA, 999, 999, 5, 29, 166, 149, 156, 99, 111, 84, 3, 0.767259
154, 1, wb, catch, NA, 999, 999, 5, 29, 166, 149, 156, 99, 111, 84, 1, 0.351576
154, 1, wb, filler, NA, 999, 999, 5, 30, 177, 104, 136, 56, 99, 100, 3, 0.799352
154, 1, wb, filler, NA, 999, 999, 5, 30, 177, 104, 136, 56, 99, 100, 1, 0.358799
154, 1, wb, attraction, a-b-db, 9, 3, 5, 31, 114, 186, 120, 195, 195, 120, 1, 2.1895
154, 1, wb, attraction, a-b-db, 9, 3, 5, 31, 114, 186, 120, 195, 195, 120, 2, 0.324196
154, 1, wb, attraction, a-b-db, 5, 1, 5, 32, 135, 60, 60, 135, 58, 132, 2, 0.876658
154, 1, wb, attraction, a-b-db, 5, 1, 5, 32, 135, 60, 60, 135, 58, 132, 1, 0.368325
154, 1, wb, attraction, a-b-db, 5, 2, 5, 33, 90, 165, 88, 161, 165, 90, 2, 0.57547
154, 1, wb, attraction, a-b-db, 5, 2, 5, 33, 90, 165, 88, 161, 165, 90, 1, 0.38339
154, 1, wb, attraction, a-b-da, 14, 2, 5, 34, 153, 83, 165, 90, 90, 165, 1, 1.19784
154, 1, wb, attraction, a-b-da, 14, 2, 5, 34, 153, 83, 165, 90, 90, 165, 3, 0.300821
154, 1, wb, catch, NA, 999, 999, 5, 35, 115, 80, 152, 163, 158, 97, 1, 0.542675
154, 1, wb, catch, NA, 999, 999, 5, 35, 115, 80, 152, 163, 158, 97, 2, 0.871819
154, 1, wb, filler, NA, 999, 999, 5, 36, 82, 147, 152, 142, 178, 143, 1, 0.60271
154, 1, wb, filler, NA, 999, 999, 5, 36, 82, 147, 152, 142, 178, 143, 2, 0.265863
154, 1, wb, attraction, a-b-db, 2, 2, 5, 37, 89, 163, 165, 90, 90, 165, 1, 0.789024
154, 1, wb, attraction, a-b-db, 2, 2, 5, 37, 89, 163, 165, 90, 90, 165, 2, 0.348153
154, 1, wb, attraction, a-b-da, 9, 3, 6, 1, 186, 114, 120, 195, 195, 120, 1, 0.580037
154, 1, wb, attraction, a-b-da, 9, 3, 6, 1, 186, 114, 120, 195, 195, 120, 2, 0.491735
154, 1, wb, attraction, a-b-db, 9, 1, 6, 2, 60, 135, 57, 129, 135, 60, 2, 0.89359
154, 1, wb, attraction, a-b-db, 9, 1, 6, 2, 60, 135, 57, 129, 135, 60, 1, 0.320559
154, 1, wb, catch, NA, 999, 999, 6, 3, 90, 105, 148, 167, 157, 98, 1, 0.665801
154, 1, wb, catch, NA, 999, 999, 6, 3, 90, 105, 148, 167, 157, 98, 2, 0.550142
154, 1, wb, attraction, a-b-da, 5, 3, 6, 4, 120, 195, 195, 120, 190, 117, 1, 0.637941
154, 1, wb, attraction, a-b-da, 5, 3, 6, 4, 120, 195, 195, 120, 190, 117, 2, 0.251768
154, 1, wb, filler, NA, 999, 999, 6, 5, 75, 75, 140, 91, 139, 97, 1, 0.479605
154, 1, wb, filler, NA, 999, 999, 6, 5, 75, 75, 140, 91, 139, 97, 2, 0.379382
154, 1, wb, attraction, a-b-da, 2, 1, 6, 6, 135, 60, 60, 135, 134, 59, 2, 0.610429
154, 1, wb, attraction, a-b-da, 2, 1, 6, 6, 135, 60, 60, 135, 134, 59, 1, 0.608341
154, 1, wb, filler, NA, 999, 999, 6, 7, 165, 161, 138, 153, 185, 103, 1, 0.533501
154, 1, wb, filler, NA, 999, 999, 6, 7, 165, 161, 138, 153, 185, 103, 2, 0.279408
154, 1, wb, attraction, a-b-da, 9, 2, 6, 8, 90, 165, 157, 86, 165, 90, 2, 0.617735
154, 1, wb, attraction, a-b-da, 9, 2, 6, 8, 90, 165, 157, 86, 165, 90, 1, 0.296178
154, 1, wb, attraction, a-b-da, 5, 1, 6, 9, 132, 58, 135, 60, 60, 135, 1, 0.914042
154, 1, wb, attraction, a-b-da, 5, 1, 6, 9, 132, 58, 135, 60, 60, 135, 2, 0.316432
154, 1, wb, attraction, a-b-db, 2, 3, 6, 10, 119, 193, 120, 195, 195, 120, 1, 0.437488
154, 1, wb, attraction, a-b-db, 2, 3, 6, 10, 119, 193, 120, 195, 195, 120, 2, 0.299417
154, 1, wb, attraction, a-b-da, 14, 2, 6, 11, 153, 83, 90, 165, 165, 90, 1, 0.517182
154, 1, wb, attraction, a-b-da, 14, 2, 6, 11, 153, 83, 90, 165, 165, 90, 2, 0.359783
154, 1, wb, filler, NA, 999, 999, 6, 12, 156, 103, 163, 135, 130, 138, 1, 0.390803
154, 1, wb, filler, NA, 999, 999, 6, 12, 156, 103, 163, 135, 130, 138, 2, 0.918299
154, 1, wb, attraction, a-b-db, 2, 2, 6, 13, 89, 163, 90, 165, 165, 90, 2, 0.807068
154, 1, wb, attraction, a-b-db, 2, 2, 6, 13, 89, 163, 90, 165, 165, 90, 3, 0.397436
154, 1, wb, filler, NA, 999, 999, 6, 14, 99, 151, 138, 73, 161, 126, 1, 1.02733
154, 1, wb, filler, NA, 999, 999, 6, 14, 99, 151, 138, 73, 161, 126, 3, 0.361017
154, 1, wb, attraction, a-b-db, 14, 2, 6, 15, 90, 165, 83, 153, 165, 90, 2, 1.56812
154, 1, wb, attraction, a-b-db, 14, 2, 6, 15, 90, 165, 83, 153, 165, 90, 3, 0.872245
154, 1, wb, attraction, a-b-db, 14, 3, 6, 16, 195, 120, 111, 181, 120, 195, 2, 0.451288
154, 1, wb, attraction, a-b-db, 14, 3, 6, 16, 195, 120, 111, 181, 120, 195, 1, 0.440333
154, 1, wb, attraction, a-b-da, 9, 1, 6, 17, 60, 135, 129, 57, 135, 60, 2, 0.540152
154, 1, wb, attraction, a-b-da, 9, 1, 6, 17, 60, 135, 129, 57, 135, 60, 1, 0.965277
154, 1, wb, filler, NA, 999, 999, 6, 18, 177, 121, 65, 136, 103, 156, 2, 0.524252
154, 1, wb, filler, NA, 999, 999, 6, 18, 177, 121, 65, 136, 103, 156, 1, 0.886061
154, 1, wb, attraction, a-b-db, 5, 1, 6, 19, 135, 60, 58, 132, 60, 135, 2, 0.480496
154, 1, wb, attraction, a-b-db, 5, 1, 6, 19, 135, 60, 58, 132, 60, 135, 1, 0.516244
154, 1, wb, attraction, a-b-db, 14, 1, 6, 20, 60, 135, 135, 60, 56, 125, 2, 0.893306
154, 1, wb, attraction, a-b-db, 14, 1, 6, 20, 60, 135, 135, 60, 56, 125, 1, 0.680374
154, 1, wb, attraction, a-b-da, 5, 2, 6, 21, 165, 90, 161, 88, 90, 165, 2, 0.594763
154, 1, wb, attraction, a-b-da, 5, 2, 6, 21, 165, 90, 161, 88, 90, 165, 3, 0.32998
154, 1, wb, catch, NA, 999, 999, 6, 22, 126, 69, 143, 112, 165, 150, 2, 0.442425
154, 1, wb, catch, NA, 999, 999, 6, 22, 126, 69, 143, 112, 165, 150, 3, 0.35958
154, 1, wb, attraction, a-b-da, 14, 3, 6, 23, 195, 120, 120, 195, 181, 111, 2, 2.0694
154, 1, wb, attraction, a-b-da, 14, 3, 6, 23, 195, 120, 120, 195, 181, 111, 1, 0.66616
154, 1, wb, attraction, a-b-db, 9, 2, 6, 24, 165, 90, 86, 157, 90, 165, 2, 0.525073
154, 1, wb, attraction, a-b-db, 9, 2, 6, 24, 165, 90, 86, 157, 90, 165, 1, 0.366903
154, 1, wb, filler, NA, 999, 999, 6, 25, 167, 136, 153, 123, 56, 114, 3, 0.678055
154, 1, wb, filler, NA, 999, 999, 6, 25, 167, 136, 153, 123, 56, 114, 1, 0.401909
154, 1, wb, attraction, a-b-db, 5, 2, 6, 26, 165, 90, 88, 161, 90, 165, 2, 0.455765
154, 1, wb, attraction, a-b-db, 5, 2, 6, 26, 165, 90, 88, 161, 90, 165, 1, 0.436285
154, 1, wb, attraction, a-b-db, 5, 3, 6, 27, 117, 190, 120, 195, 195, 120, 2, 0.464708
154, 1, wb, attraction, a-b-db, 5, 3, 6, 27, 117, 190, 120, 195, 195, 120, 3, 0.333183
154, 1, wb, filler, NA, 999, 999, 6, 28, 143, 130, 122, 124, 135, 68, 2, 0.861685
154, 1, wb, filler, NA, 999, 999, 6, 28, 143, 130, 122, 124, 135, 68, 1, 0.274027
154, 1, wb, filler, NA, 999, 999, 6, 29, 104, 188, 141, 149, 64, 186, 3, 0.852659
154, 1, wb, filler, NA, 999, 999, 6, 29, 104, 188, 141, 149, 64, 186, 2, 0.4418
154, 1, wb, catch, NA, 999, 999, 6, 30, 109, 146, 100, 95, 166, 149, 2, 0.621483
154, 1, wb, catch, NA, 999, 999, 6, 30, 109, 146, 100, 95, 166, 149, 3, 0.299143
154, 1, wb, filler, NA, 999, 999, 6, 31, 141, 194, 83, 147, 104, 79, 2, 0.59703
154, 1, wb, filler, NA, 999, 999, 6, 31, 141, 194, 83, 147, 104, 79, 1, 0.27625
154, 1, wb, attraction, a-b-da, 2, 3, 6, 32, 193, 119, 195, 120, 120, 195, 3, 0.622692
154, 1, wb, attraction, a-b-da, 2, 3, 6, 32, 193, 119, 195, 120, 120, 195, 2, 0.324467
154, 1, wb, attraction, a-b-da, 14, 1, 6, 33, 125, 56, 60, 135, 135, 60, 1, 1.7091
154, 1, wb, attraction, a-b-da, 14, 1, 6, 33, 125, 56, 60, 135, 135, 60, 2, 0.311064
154, 1, wb, attraction, a-b-da, 2, 2, 6, 34, 163, 89, 90, 165, 165, 90, 2, 0.440254
154, 1, wb, attraction, a-b-da, 2, 2, 6, 34, 163, 89, 90, 165, 165, 90, 3, 0.389334
154, 1, wb, attraction, a-b-db, 9, 3, 6, 35, 114, 186, 195, 120, 120, 195, 2, 1.05983
154, 1, wb, attraction, a-b-db, 9, 3, 6, 35, 114, 186, 195, 120, 120, 195, 3, 0.168597
154, 1, wb, filler, NA, 999, 999, 6, 36, 124, 116, 127, 116, 168, 88, 2, 0.751425
154, 1, wb, filler, NA, 999, 999, 6, 36, 124, 116, 127, 116, 168, 88, 1, 0.32056
154, 1, wb, attraction, a-b-db, 2, 1, 6, 37, 135, 60, 60, 135, 59, 134, 2, 0.505621
154, 1, wb, attraction, a-b-db, 2, 1, 6, 37, 135, 60, 60, 135, 59, 134, 3, 0.324277
154, 1, wb, catch, NA, 999, 999, 7, 1, 137, 118, 127, 188, 98, 97, 3, 0.780621
154, 1, wb, catch, NA, 999, 999, 7, 1, 137, 118, 127, 188, 98, 97, 2, 0.380486
154, 1, wb, filler, NA, 999, 999, 7, 2, 161, 89, 121, 133, 108, 81, 3, 0.739001
154, 1, wb, filler, NA, 999, 999, 7, 2, 161, 89, 121, 133, 108, 81, 2, 0.315971
154, 1, wb, attraction, a-b-da, 9, 1, 7, 3, 129, 57, 135, 60, 60, 135, 3, 0.685178
154, 1, wb, attraction, a-b-da, 9, 1, 7, 3, 129, 57, 135, 60, 60, 135, 2, 0.456908
154, 1, wb, attraction, a-b-db, 2, 3, 7, 4, 119, 193, 195, 120, 120, 195, 2, 0.676094
154, 1, wb, attraction, a-b-db, 2, 3, 7, 4, 119, 193, 195, 120, 120, 195, 3, 0.351817
154, 1, wb, attraction, a-b-db, 9, 1, 7, 5, 135, 60, 60, 135, 57, 129, 2, 0.663562
154, 1, wb, attraction, a-b-db, 9, 1, 7, 5, 135, 60, 60, 135, 57, 129, 1, 0.404002
154, 1, wb, filler, NA, 999, 999, 7, 6, 124, 89, 163, 76, 99, 73, 3, 0.665948
154, 1, wb, filler, NA, 999, 999, 7, 6, 124, 89, 163, 76, 99, 73, 1, 0.398399
154, 1, wb, filler, NA, 999, 999, 7, 7, 188, 62, 136, 166, 77, 105, 3, 0.652117
154, 1, wb, filler, NA, 999, 999, 7, 7, 188, 62, 136, 166, 77, 105, 2, 0.329265
154, 1, wb, attraction, a-b-db, 5, 3, 7, 8, 117, 190, 195, 120, 120, 195, 3, 0.521713
154, 1, wb, attraction, a-b-db, 5, 3, 7, 8, 117, 190, 195, 120, 120, 195, 2, 0.275632
154, 1, wb, attraction, a-b-da, 5, 1, 7, 9, 60, 135, 132, 58, 135, 60, 1, 0.590016
154, 1, wb, attraction, a-b-da, 5, 1, 7, 9, 60, 135, 132, 58, 135, 60, 3, 0.682322
154, 1, wb, attraction, a-b-da, 14, 1, 7, 10, 135, 60, 60, 135, 125, 56, 2, 0.431614
154, 1, wb, attraction, a-b-da, 14, 1, 7, 10, 135, 60, 60, 135, 125, 56, 3, 0.365408
154, 1, wb, filler, NA, 999, 999, 7, 11, 82, 127, 175, 130, 75, 111, 3, 0.988547
154, 1, wb, filler, NA, 999, 999, 7, 11, 82, 127, 175, 130, 75, 111, 2, 0.819561
154, 1, wb, catch, NA, 999, 999, 7, 12, 164, 151, 152, 103, 120, 75, 3, 0.488685
154, 1, wb, catch, NA, 999, 999, 7, 12, 164, 151, 152, 103, 120, 75, 1, 0.65169
154, 1, wb, attraction, a-b-da, 2, 1, 7, 13, 135, 60, 134, 59, 60, 135, 1, 0.903532
154, 1, wb, attraction, a-b-da, 2, 1, 7, 13, 135, 60, 134, 59, 60, 135, 2, 0.410527
154, 1, wb, filler, NA, 999, 999, 7, 14, 191, 105, 148, 72, 156, 58, 3, 0.639689
154, 1, wb, filler, NA, 999, 999, 7, 14, 191, 105, 148, 72, 156, 58, 1, 0.716746
154, 1, wb, attraction, a-b-da, 9, 2, 7, 15, 90, 165, 157, 86, 165, 90, 2, 0.73375
154, 1, wb, attraction, a-b-da, 9, 2, 7, 15, 90, 165, 157, 86, 165, 90, 3, 0.35955
154, 1, wb, filler, NA, 999, 999, 7, 16, 194, 171, 112, 161, 102, 126, 3, 0.702649
154, 1, wb, filler, NA, 999, 999, 7, 16, 194, 171, 112, 161, 102, 126, 1, 0.409837
154, 1, wb, attraction, a-b-da, 5, 3, 7, 17, 120, 195, 190, 117, 195, 120, 2, 1.18301
154, 1, wb, attraction, a-b-da, 5, 3, 7, 17, 120, 195, 190, 117, 195, 120, 3, 0.374549
154, 1, wb, attraction, a-b-db, 2, 1, 7, 18, 135, 60, 59, 134, 60, 135, 2, 0.669102
154, 1, wb, attraction, a-b-db, 2, 1, 7, 18, 135, 60, 59, 134, 60, 135, 1, 1.32941
154, 1, wb, attraction, a-b-da, 2, 2, 7, 19, 163, 89, 90, 165, 165, 90, 2, 0.465613
154, 1, wb, attraction, a-b-da, 2, 2, 7, 19, 163, 89, 90, 165, 165, 90, 3, 0.638985
154, 1, wb, filler, NA, 999, 999, 7, 20, 160, 174, 165, 117, 85, 86, 3, 0.578613
154, 1, wb, filler, NA, 999, 999, 7, 20, 160, 174, 165, 117, 85, 86, 1, 0.370315
154, 1, wb, attraction, a-b-db, 5, 1, 7, 21, 60, 135, 135, 60, 58, 132, 2, 0.833532
154, 1, wb, attraction, a-b-db, 5, 1, 7, 21, 60, 135, 135, 60, 58, 132, 1, 0.591381
154, 1, wb, attraction, a-b-db, 9, 3, 7, 22, 114, 186, 120, 195, 195, 120, 2, 0.444915
154, 1, wb, attraction, a-b-db, 9, 3, 7, 22, 114, 186, 120, 195, 195, 120, 3, 0.322098
154, 1, wb, attraction, a-b-db, 5, 2, 7, 23, 88, 161, 165, 90, 90, 165, 2, 0.443341
154, 1, wb, attraction, a-b-db, 5, 2, 7, 23, 88, 161, 165, 90, 90, 165, 1, 0.360439
154, 1, wb, attraction, a-b-db, 2, 2, 7, 24, 165, 90, 90, 165, 89, 163, 3, 0.911791
154, 1, wb, attraction, a-b-db, 2, 2, 7, 24, 165, 90, 90, 165, 89, 163, 1, 0.452159
154, 1, wb, attraction, a-b-da, 5, 2, 7, 25, 161, 88, 90, 165, 165, 90, 2, 0.429865
154, 1, wb, attraction, a-b-da, 5, 2, 7, 25, 161, 88, 90, 165, 165, 90, 3, 0.331802
154, 1, wb, filler, NA, 999, 999, 7, 26, 145, 118, 136, 178, 64, 156, 3, 0.780215
154, 1, wb, filler, NA, 999, 999, 7, 26, 145, 118, 136, 178, 64, 156, 1, 0.371854
154, 1, wb, attraction, a-b-db, 14, 3, 7, 27, 120, 195, 111, 181, 195, 120, 2, 0.411104
154, 1, wb, attraction, a-b-db, 14, 3, 7, 27, 120, 195, 111, 181, 195, 120, 3, 0.297686
154, 1, wb, attraction, a-b-da, 2, 3, 7, 28, 193, 119, 120, 195, 195, 120, 2, 0.467491
154, 1, wb, attraction, a-b-da, 2, 3, 7, 28, 193, 119, 120, 195, 195, 120, 1, 0.423919
154, 1, wb, attraction, a-b-da, 14, 2, 7, 29, 165, 90, 153, 83, 90, 165, 2, 0.836365
154, 1, wb, attraction, a-b-da, 14, 2, 7, 29, 165, 90, 153, 83, 90, 165, 1, 0.426102
154, 1, wb, attraction, a-b-db, 14, 1, 7, 30, 56, 125, 135, 60, 60, 135, 3, 0.574504
154, 1, wb, attraction, a-b-db, 14, 1, 7, 30, 56, 125, 135, 60, 60, 135, 2, 0.534315
154, 1, wb, attraction, a-b-da, 9, 3, 7, 31, 120, 195, 195, 120, 186, 114, 2, 1.4948
154, 1, wb, attraction, a-b-da, 9, 3, 7, 31, 120, 195, 195, 120, 186, 114, 1, 0.361628
154, 1, wb, attraction, a-b-da, 14, 3, 7, 32, 181, 111, 120, 195, 195, 120, 2, 0.536809
154, 1, wb, attraction, a-b-da, 14, 3, 7, 32, 181, 111, 120, 195, 195, 120, 3, 0.330625
154, 1, wb, catch, NA, 999, 999, 7, 33, 93, 162, 171, 144, 133, 62, 3, 0.747101
154, 1, wb, catch, NA, 999, 999, 7, 33, 93, 162, 171, 144, 133, 62, 2, 0.444222
154, 1, wb, attraction, a-b-db, 14, 2, 7, 34, 90, 165, 83, 153, 165, 90, 2, 0.487918
154, 1, wb, attraction, a-b-db, 14, 2, 7, 34, 90, 165, 83, 153, 165, 90, 3, 0.387843
154, 1, wb, attraction, a-b-db, 9, 2, 7, 35, 90, 165, 165, 90, 86, 157, 2, 0.610298
154, 1, wb, attraction, a-b-db, 9, 2, 7, 35, 90, 165, 165, 90, 86, 157, 1, 0.328703
154, 1, wb, filler, NA, 999, 999, 7, 36, 116, 121, 178, 67, 127, 104, 2, 0.521195
154, 1, wb, filler, NA, 999, 999, 7, 36, 116, 121, 178, 67, 127, 104, 3, 0.307057
154, 1, wb, filler, NA, 999, 999, 7, 37, 180, 82, 90, 135, 109, 186, 3, 0.788417
154, 1, wb, filler, NA, 999, 999, 7, 37, 180, 82, 90, 135, 109, 186, 1, 0.379332
154, 1, wb, attraction, a-b-db, 9, 3, 8, 1, 114, 186, 120, 195, 195, 120, 2, 0.569796
154, 1, wb, attraction, a-b-db, 9, 3, 8, 1, 114, 186, 120, 195, 195, 120, 3, 0.3543
154, 1, wb, attraction, a-b-da, 2, 3, 8, 2, 195, 120, 193, 119, 120, 195, 2, 2.29007
154, 1, wb, attraction, a-b-da, 2, 3, 8, 2, 195, 120, 193, 119, 120, 195, 1, 0.300647
154, 1, wb, attraction, a-b-da, 9, 2, 8, 3, 165, 90, 157, 86, 90, 165, 2, 0.590538
154, 1, wb, attraction, a-b-da, 9, 2, 8, 3, 165, 90, 157, 86, 90, 165, 3, 0.701645
154, 1, wb, attraction, a-b-db, 5, 1, 8, 4, 58, 132, 135, 60, 60, 135, 2, 0.719292
154, 1, wb, attraction, a-b-db, 5, 1, 8, 4, 58, 132, 135, 60, 60, 135, 1, 0.361977
154, 1, wb, filler, NA, 999, 999, 8, 5, 149, 56, 130, 57, 75, 153, 3, 1.03299
154, 1, wb, filler, NA, 999, 999, 8, 5, 149, 56, 130, 57, 75, 153, 2, 0.398624
154, 1, wb, attraction, a-b-da, 2, 1, 8, 6, 60, 135, 134, 59, 135, 60, 3, 0.748485
154, 1, wb, attraction, a-b-da, 2, 1, 8, 6, 60, 135, 134, 59, 135, 60, 2, 0.517576
154, 1, wb, attraction, a-b-da, 5, 1, 8, 7, 60, 135, 132, 58, 135, 60, 2, 0.822107
154, 1, wb, attraction, a-b-da, 5, 1, 8, 7, 60, 135, 132, 58, 135, 60, 3, 0.420405
154, 1, wb, attraction, a-b-da, 5, 3, 8, 8, 190, 117, 195, 120, 120, 195, 2, 0.377446
154, 1, wb, attraction, a-b-da, 5, 3, 8, 8, 190, 117, 195, 120, 120, 195, 3, 0.353295
154, 1, wb, attraction, a-b-db, 14, 3, 8, 9, 195, 120, 120, 195, 111, 181, 2, 0.36118
154, 1, wb, attraction, a-b-db, 14, 3, 8, 9, 195, 120, 120, 195, 111, 181, 1, 0.305698
154, 1, wb, filler, NA, 999, 999, 8, 10, 155, 80, 115, 88, 61, 184, 2, 0.563545
154, 1, wb, filler, NA, 999, 999, 8, 10, 155, 80, 115, 88, 61, 184, 1, 0.292129
154, 1, wb, attraction, a-b-db, 14, 2, 8, 11, 83, 153, 165, 90, 90, 165, 2, 0.509938
154, 1, wb, attraction, a-b-db, 14, 2, 8, 11, 83, 153, 165, 90, 90, 165, 1, 0.397184
154, 1, wb, attraction, a-b-db, 2, 2, 8, 12, 90, 165, 165, 90, 89, 163, 2, 0.486145
154, 1, wb, attraction, a-b-db, 2, 2, 8, 12, 90, 165, 165, 90, 89, 163, 1, 0.361984
154, 1, wb, filler, NA, 999, 999, 8, 13, 105, 88, 191, 178, 134, 183, 2, 0.249067
154, 1, wb, filler, NA, 999, 999, 8, 13, 105, 88, 191, 178, 134, 183, 1, 0.622335
154, 1, wb, filler, NA, 999, 999, 8, 14, 60, 125, 79, 106, 160, 79, 2, 0.939424
154, 1, wb, filler, NA, 999, 999, 8, 14, 60, 125, 79, 106, 160, 79, 3, 0.324479
154, 1, wb, filler, NA, 999, 999, 8, 15, 162, 123, 71, 63, 165, 135, 2, 0.580963
154, 1, wb, filler, NA, 999, 999, 8, 15, 162, 123, 71, 63, 165, 135, 3, 0.332738
154, 1, wb, attraction, a-b-da, 9, 3, 8, 16, 120, 195, 195, 120, 186, 114, 3, 0.885273
154, 1, wb, attraction, a-b-da, 9, 3, 8, 16, 120, 195, 195, 120, 186, 114, 2, 0.856954
154, 1, wb, filler, NA, 999, 999, 8, 17, 99, 166, 157, 71, 72, 95, 3, 0.683884
154, 1, wb, filler, NA, 999, 999, 8, 17, 99, 166, 157, 71, 72, 95, 1, 0.351813
154, 1, wb, attraction, a-b-db, 9, 1, 8, 18, 57, 129, 60, 135, 135, 60, 2, 0.655651
154, 1, wb, attraction, a-b-db, 9, 1, 8, 18, 57, 129, 60, 135, 135, 60, 3, 0.689531
154, 1, wb, attraction, a-b-db, 14, 1, 8, 19, 56, 125, 60, 135, 135, 60, 2, 0.56658
154, 1, wb, attraction, a-b-db, 14, 1, 8, 19, 56, 125, 60, 135, 135, 60, 3, 0.374807
154, 1, wb, attraction, a-b-da, 14, 3, 8, 20, 181, 111, 120, 195, 195, 120, 2, 1.14126
154, 1, wb, attraction, a-b-da, 14, 3, 8, 20, 181, 111, 120, 195, 195, 120, 3, 0.590365
154, 1, wb, attraction, a-b-da, 14, 1, 8, 21, 125, 56, 135, 60, 60, 135, 3, 0.78
154, 1, wb, attraction, a-b-da, 14, 1, 8, 21, 125, 56, 135, 60, 60, 135, 1, 0.475782
154, 1, wb, attraction, a-b-db, 2, 1, 8, 22, 135, 60, 59, 134, 60, 135, 2, 0.74216
154, 1, wb, attraction, a-b-db, 2, 1, 8, 22, 135, 60, 59, 134, 60, 135, 1, 0.415309
154, 1, wb, attraction, a-b-da, 5, 2, 8, 23, 165, 90, 161, 88, 90, 165, 3, 0.6684
154, 1, wb, attraction, a-b-da, 5, 2, 8, 23, 165, 90, 161, 88, 90, 165, 2, 0.352847
154, 1, wb, attraction, a-b-db, 9, 2, 8, 24, 86, 157, 165, 90, 90, 165, 2, 0.560711
154, 1, wb, attraction, a-b-db, 9, 2, 8, 24, 86, 157, 165, 90, 90, 165, 3, 0.297127
154, 1, wb, attraction, a-b-da, 9, 1, 8, 25, 129, 57, 60, 135, 135, 60, 2, 0.699017
154, 1, wb, attraction, a-b-da, 9, 1, 8, 25, 129, 57, 60, 135, 135, 60, 3, 0.366104
154, 1, wb, filler, NA, 999, 999, 8, 26, 168, 194, 103, 98, 168, 112, 2, 0.565369
154, 1, wb, filler, NA, 999, 999, 8, 26, 168, 194, 103, 98, 168, 112, 1, 0.301738
154, 1, wb, attraction, a-b-db, 2, 3, 8, 27, 195, 120, 120, 195, 119, 193, 2, 0.447553
154, 1, wb, attraction, a-b-db, 2, 3, 8, 27, 195, 120, 120, 195, 119, 193, 1, 0.63675
154, 1, wb, filler, NA, 999, 999, 8, 28, 59, 168, 67, 72, 133, 165, 2, 1.1371
154, 1, wb, filler, NA, 999, 999, 8, 28, 59, 168, 67, 72, 133, 165, 3, 0.27481
154, 1, wb, attraction, a-b-db, 5, 3, 8, 29, 117, 190, 120, 195, 195, 120, 2, 0.917203
154, 1, wb, attraction, a-b-db, 5, 3, 8, 29, 117, 190, 120, 195, 195, 120, 3, 0.479335
154, 1, wb, catch, NA, 999, 999, 8, 30, 75, 120, 135, 180, 156, 99, 1, 0.578154
154, 1, wb, catch, NA, 999, 999, 8, 30, 75, 120, 135, 180, 156, 99, 2, 0.273984
154, 1, wb, filler, NA, 999, 999, 8, 31, 79, 119, 115, 119, 178, 154, 1, 1.2124
154, 1, wb, filler, NA, 999, 999, 8, 31, 79, 119, 115, 119, 178, 154, 3, 0.346617
154, 1, wb, catch, NA, 999, 999, 8, 32, 118, 77, 124, 191, 159, 96, 1, 0.706593
154, 1, wb, catch, NA, 999, 999, 8, 32, 118, 77, 124, 191, 159, 96, 2, 0.57302
154, 1, wb, catch, NA, 999, 999, 8, 33, 181, 134, 73, 122, 163, 92, 2, 0.659971
154, 1, wb, catch, NA, 999, 999, 8, 33, 181, 134, 73, 122, 163, 92, 1, 0.296391
154, 1, wb, attraction, a-b-db, 5, 2, 8, 34, 90, 165, 88, 161, 165, 90, 1, 0.706323
154, 1, wb, attraction, a-b-db, 5, 2, 8, 34, 90, 165, 88, 161, 165, 90, 2, 0.268693
154, 1, wb, attraction, a-b-da, 14, 2, 8, 35, 165, 90, 153, 83, 90, 165, 2, 0.463976
154, 1, wb, attraction, a-b-da, 14, 2, 8, 35, 165, 90, 153, 83, 90, 165, 1, 0.316355
154, 1, wb, attraction, a-b-da, 2, 2, 8, 36, 163, 89, 165, 90, 90, 165, 2, 0.429543
154, 1, wb, attraction, a-b-da, 2, 2, 8, 36, 163, 89, 165, 90, 90, 165, 3, 0.771405
154, 1, wb, filler, NA, 999, 999, 8, 37, 80, 91, 66, 186, 191, 122, 1, 1.1385
154, 1, wb, filler, NA, 999, 999, 8, 37, 80, 91, 66, 186, 191, 122, 3, 0.339416
