sub_n, computer_n, bw_cond, effect, set, distance, diag, block_n, trial_n, h1, w1, h2, w2, h3, w3, choice, rt 
153, 1, bw, practice, NA, 999, 999, 0, 1, 128, 58, 131, 144, 68, 147, 2, 3.78932
153, 1, bw, practice, NA, 999, 999, 0, 1, 128, 58, 131, 144, 68, 147, 1, 1.94767
153, 1, bw, practice, NA, 999, 999, 0, 2, 159, 117, 144, 195, 147, 126, 2, 4.0078
153, 1, bw, practice, NA, 999, 999, 0, 2, 159, 117, 144, 195, 147, 126, 1, 4.4148
153, 1, bw, practice, NA, 999, 999, 0, 3, 87, 168, 129, 78, 76, 143, 1, 2.66476
153, 1, bw, practice, NA, 999, 999, 0, 3, 87, 168, 129, 78, 76, 143, 2, 1.66816
153, 1, bw, attraction, a-b-db, 5, 3, 1, 1, 120, 195, 117, 190, 195, 120, 1, 2.90823
153, 1, bw, attraction, a-b-db, 5, 3, 1, 1, 120, 195, 117, 190, 195, 120, 3, 1.17387
153, 1, bw, attraction, a-b-db, 9, 1, 1, 2, 60, 135, 135, 60, 57, 129, 1, 1.68422
153, 1, bw, attraction, a-b-db, 9, 1, 1, 2, 60, 135, 135, 60, 57, 129, 2, 1.57555
153, 1, bw, filler, NA, 999, 999, 1, 3, 84, 66, 93, 166, 112, 95, 2, 1.08567
153, 1, bw, filler, NA, 999, 999, 1, 3, 84, 66, 93, 166, 112, 95, 1, 0.841286
153, 1, bw, filler, NA, 999, 999, 1, 4, 91, 115, 99, 122, 150, 90, 3, 2.62906
153, 1, bw, filler, NA, 999, 999, 1, 4, 91, 115, 99, 122, 150, 90, 1, 0.754098
153, 1, bw, attraction, a-b-da, 14, 2, 1, 5, 90, 165, 165, 90, 153, 83, 1, 1.40981
153, 1, bw, attraction, a-b-da, 14, 2, 1, 5, 90, 165, 165, 90, 153, 83, 2, 0.807999
153, 1, bw, attraction, a-b-da, 5, 3, 1, 6, 190, 117, 195, 120, 120, 195, 2, 1.82909
153, 1, bw, attraction, a-b-da, 5, 3, 1, 6, 190, 117, 195, 120, 120, 195, 3, 1.33855
153, 1, bw, attraction, a-b-db, 2, 2, 1, 7, 90, 165, 165, 90, 89, 163, 1, 2.17863
153, 1, bw, attraction, a-b-db, 2, 2, 1, 7, 90, 165, 165, 90, 89, 163, 2, 0.777937
153, 1, bw, attraction, a-b-da, 2, 2, 1, 8, 90, 165, 163, 89, 165, 90, 3, 1.8964
153, 1, bw, attraction, a-b-da, 2, 2, 1, 8, 90, 165, 163, 89, 165, 90, 2, 0.955056
153, 1, bw, filler, NA, 999, 999, 1, 9, 117, 148, 167, 167, 124, 126, 2, 0.882732
153, 1, bw, filler, NA, 999, 999, 1, 9, 117, 148, 167, 167, 124, 126, 3, 0.806466
153, 1, bw, attraction, a-b-da, 5, 1, 1, 10, 132, 58, 60, 135, 135, 60, 3, 2.22738
153, 1, bw, attraction, a-b-da, 5, 1, 1, 10, 132, 58, 60, 135, 135, 60, 2, 1.28858
153, 1, bw, attraction, a-b-da, 9, 1, 1, 11, 135, 60, 60, 135, 129, 57, 2, 1.73079
153, 1, bw, attraction, a-b-da, 9, 1, 1, 11, 135, 60, 60, 135, 129, 57, 3, 2.44431
153, 1, bw, catch, NA, 999, 999, 1, 12, 69, 126, 188, 127, 121, 134, 2, 1.51145
153, 1, bw, catch, NA, 999, 999, 1, 12, 69, 126, 188, 127, 121, 134, 1, 0.873588
153, 1, bw, attraction, a-b-da, 14, 3, 1, 13, 195, 120, 120, 195, 181, 111, 1, 1.90006
153, 1, bw, attraction, a-b-da, 14, 3, 1, 13, 195, 120, 120, 195, 181, 111, 3, 1.83873
153, 1, bw, attraction, a-b-db, 9, 3, 1, 14, 195, 120, 120, 195, 114, 186, 1, 3.02677
153, 1, bw, attraction, a-b-db, 9, 3, 1, 14, 195, 120, 120, 195, 114, 186, 3, 0.583787
153, 1, bw, attraction, a-b-da, 14, 1, 1, 15, 60, 135, 135, 60, 125, 56, 1, 1.20619
153, 1, bw, attraction, a-b-da, 14, 1, 1, 15, 60, 135, 135, 60, 125, 56, 2, 1.92452
153, 1, bw, filler, NA, 999, 999, 1, 16, 68, 77, 104, 103, 171, 170, 3, 0.740467
153, 1, bw, filler, NA, 999, 999, 1, 16, 68, 77, 104, 103, 171, 170, 1, 1.09361
153, 1, bw, attraction, a-b-da, 5, 2, 1, 17, 90, 165, 165, 90, 161, 88, 1, 2.36705
153, 1, bw, attraction, a-b-da, 5, 2, 1, 17, 90, 165, 165, 90, 161, 88, 2, 0.470981
153, 1, bw, filler, NA, 999, 999, 1, 18, 178, 126, 110, 115, 88, 111, 1, 0.7221
153, 1, bw, filler, NA, 999, 999, 1, 18, 178, 126, 110, 115, 88, 111, 3, 0.499897
153, 1, bw, filler, NA, 999, 999, 1, 19, 128, 116, 166, 138, 67, 148, 2, 1.50164
153, 1, bw, filler, NA, 999, 999, 1, 19, 128, 116, 166, 138, 67, 148, 3, 0.752518
153, 1, bw, attraction, a-b-da, 2, 1, 1, 20, 60, 135, 135, 60, 134, 59, 3, 1.30433
153, 1, bw, attraction, a-b-da, 2, 1, 1, 20, 60, 135, 135, 60, 134, 59, 2, 0.563047
153, 1, bw, filler, NA, 999, 999, 1, 21, 64, 144, 150, 151, 148, 88, 2, 0.762126
153, 1, bw, filler, NA, 999, 999, 1, 21, 64, 144, 150, 151, 148, 88, 1, 0.538597
153, 1, bw, attraction, a-b-db, 2, 3, 1, 22, 119, 193, 120, 195, 195, 120, 1, 0.971136
153, 1, bw, attraction, a-b-db, 2, 3, 1, 22, 119, 193, 120, 195, 195, 120, 2, 0.651413
153, 1, bw, attraction, a-b-da, 9, 2, 1, 23, 157, 86, 90, 165, 165, 90, 3, 1.15911
153, 1, bw, attraction, a-b-da, 9, 2, 1, 23, 157, 86, 90, 165, 165, 90, 1, 1.09547
153, 1, bw, catch, NA, 999, 999, 1, 24, 127, 128, 98, 97, 163, 152, 3, 1.17693
153, 1, bw, catch, NA, 999, 999, 1, 24, 127, 128, 98, 97, 163, 152, 2, 0.680603
153, 1, bw, catch, NA, 999, 999, 1, 25, 128, 187, 89, 106, 103, 152, 1, 0.778953
153, 1, bw, catch, NA, 999, 999, 1, 25, 128, 187, 89, 106, 103, 152, 2, 0.458751
153, 1, bw, attraction, a-b-db, 14, 1, 1, 26, 135, 60, 56, 125, 60, 135, 3, 1.42182
153, 1, bw, attraction, a-b-db, 14, 1, 1, 26, 135, 60, 56, 125, 60, 135, 2, 0.45939
153, 1, bw, attraction, a-b-db, 14, 3, 1, 27, 195, 120, 120, 195, 111, 181, 2, 1.20646
153, 1, bw, attraction, a-b-db, 14, 3, 1, 27, 195, 120, 120, 195, 111, 181, 3, 1.22893
153, 1, bw, filler, NA, 999, 999, 1, 28, 99, 158, 160, 137, 151, 181, 3, 0.872962
153, 1, bw, filler, NA, 999, 999, 1, 28, 99, 158, 160, 137, 151, 181, 1, 0.79685
153, 1, bw, attraction, a-b-db, 14, 2, 1, 29, 165, 90, 90, 165, 83, 153, 1, 2.07437
153, 1, bw, attraction, a-b-db, 14, 2, 1, 29, 165, 90, 90, 165, 83, 153, 3, 0.501702
153, 1, bw, filler, NA, 999, 999, 1, 30, 159, 157, 61, 58, 95, 137, 1, 0.87148
153, 1, bw, filler, NA, 999, 999, 1, 30, 159, 157, 61, 58, 95, 137, 2, 0.731274
153, 1, bw, attraction, a-b-da, 2, 3, 1, 31, 195, 120, 193, 119, 120, 195, 2, 1.21963
153, 1, bw, attraction, a-b-da, 2, 3, 1, 31, 195, 120, 193, 119, 120, 195, 3, 0.633868
153, 1, bw, attraction, a-b-db, 5, 2, 1, 32, 165, 90, 90, 165, 88, 161, 2, 1.03035
153, 1, bw, attraction, a-b-db, 5, 2, 1, 32, 165, 90, 90, 165, 88, 161, 3, 0.915949
153, 1, bw, attraction, a-b-da, 9, 3, 1, 33, 186, 114, 120, 195, 195, 120, 3, 4.00493
153, 1, bw, attraction, a-b-da, 9, 3, 1, 33, 186, 114, 120, 195, 195, 120, 1, 0.819041
153, 1, bw, attraction, a-b-db, 2, 1, 1, 34, 59, 134, 135, 60, 60, 135, 1, 3.55194
153, 1, bw, attraction, a-b-db, 2, 1, 1, 34, 59, 134, 135, 60, 60, 135, 3, 0.656176
153, 1, bw, attraction, a-b-db, 5, 1, 1, 35, 58, 132, 60, 135, 135, 60, 3, 3.796
153, 1, bw, attraction, a-b-db, 5, 1, 1, 35, 58, 132, 60, 135, 135, 60, 1, 0.794087
153, 1, bw, attraction, a-b-db, 9, 2, 1, 36, 90, 165, 86, 157, 165, 90, 1, 3.18384
153, 1, bw, attraction, a-b-db, 9, 2, 1, 36, 90, 165, 86, 157, 165, 90, 2, 1.01464
153, 1, bw, filler, NA, 999, 999, 1, 37, 113, 109, 100, 61, 104, 72, 1, 1.2679
153, 1, bw, filler, NA, 999, 999, 1, 37, 113, 109, 100, 61, 104, 72, 2, 0.503921
153, 1, bw, attraction, a-b-db, 2, 3, 2, 1, 120, 195, 195, 120, 119, 193, 2, 1.7777
153, 1, bw, attraction, a-b-db, 2, 3, 2, 1, 120, 195, 195, 120, 119, 193, 3, 0.473092
153, 1, bw, attraction, a-b-db, 2, 1, 2, 2, 60, 135, 59, 134, 135, 60, 1, 2.27642
153, 1, bw, attraction, a-b-db, 2, 1, 2, 2, 60, 135, 59, 134, 135, 60, 3, 0.919541
153, 1, bw, attraction, a-b-db, 5, 1, 2, 3, 60, 135, 58, 132, 135, 60, 3, 1.1125
153, 1, bw, attraction, a-b-db, 5, 1, 2, 3, 60, 135, 58, 132, 135, 60, 2, 1.01876
153, 1, bw, attraction, a-b-db, 14, 2, 2, 4, 165, 90, 90, 165, 83, 153, 2, 1.95169
153, 1, bw, attraction, a-b-db, 14, 2, 2, 4, 165, 90, 90, 165, 83, 153, 3, 1.1445
153, 1, bw, filler, NA, 999, 999, 2, 5, 135, 125, 96, 102, 106, 57, 1, 0.608018
153, 1, bw, filler, NA, 999, 999, 2, 5, 135, 125, 96, 102, 106, 57, 3, 0.958456
153, 1, bw, filler, NA, 999, 999, 2, 6, 189, 127, 139, 102, 148, 117, 1, 1.62946
153, 1, bw, filler, NA, 999, 999, 2, 6, 189, 127, 139, 102, 148, 117, 2, 0.490951
153, 1, bw, catch, NA, 999, 999, 2, 7, 130, 65, 125, 190, 148, 107, 2, 0.676673
153, 1, bw, catch, NA, 999, 999, 2, 7, 130, 65, 125, 190, 148, 107, 1, 0.536489
153, 1, bw, attraction, a-b-db, 2, 2, 2, 8, 165, 90, 89, 163, 90, 165, 1, 1.23293
153, 1, bw, attraction, a-b-db, 2, 2, 2, 8, 165, 90, 89, 163, 90, 165, 2, 0.478485
153, 1, bw, catch, NA, 999, 999, 2, 9, 148, 167, 95, 160, 81, 114, 1, 1.14492
153, 1, bw, catch, NA, 999, 999, 2, 9, 148, 167, 95, 160, 81, 114, 3, 0.649977
153, 1, bw, attraction, a-b-db, 14, 1, 2, 10, 56, 125, 60, 135, 135, 60, 2, 1.7337
153, 1, bw, attraction, a-b-db, 14, 1, 2, 10, 56, 125, 60, 135, 135, 60, 1, 0.591091
153, 1, bw, attraction, a-b-da, 14, 3, 2, 11, 120, 195, 195, 120, 181, 111, 1, 1.58881
153, 1, bw, attraction, a-b-da, 14, 3, 2, 11, 120, 195, 195, 120, 181, 111, 3, 0.899707
153, 1, bw, attraction, a-b-da, 14, 1, 2, 12, 60, 135, 135, 60, 125, 56, 1, 0.925384
153, 1, bw, attraction, a-b-da, 14, 1, 2, 12, 60, 135, 135, 60, 125, 56, 3, 0.638981
153, 1, bw, attraction, a-b-db, 5, 3, 2, 13, 195, 120, 117, 190, 120, 195, 3, 2.44341
153, 1, bw, attraction, a-b-db, 5, 3, 2, 13, 195, 120, 117, 190, 120, 195, 2, 0.527938
153, 1, bw, attraction, a-b-da, 5, 1, 2, 14, 132, 58, 60, 135, 135, 60, 2, 1.16056
153, 1, bw, attraction, a-b-da, 5, 1, 2, 14, 132, 58, 60, 135, 135, 60, 1, 0.536649
153, 1, bw, filler, NA, 999, 999, 2, 15, 149, 67, 145, 77, 119, 126, 3, 0.649077
153, 1, bw, filler, NA, 999, 999, 2, 15, 149, 67, 145, 77, 119, 126, 1, 1.23023
153, 1, bw, filler, NA, 999, 999, 2, 16, 177, 136, 86, 67, 99, 76, 1, 0.762349
153, 1, bw, filler, NA, 999, 999, 2, 16, 177, 136, 86, 67, 99, 76, 2, 0.530853
153, 1, bw, attraction, a-b-db, 14, 3, 2, 17, 120, 195, 195, 120, 111, 181, 2, 1.11519
153, 1, bw, attraction, a-b-db, 14, 3, 2, 17, 120, 195, 195, 120, 111, 181, 1, 0.637553
153, 1, bw, attraction, a-b-db, 9, 3, 2, 18, 114, 186, 195, 120, 120, 195, 3, 4.93792
153, 1, bw, attraction, a-b-db, 9, 3, 2, 18, 114, 186, 195, 120, 120, 195, 1, 0.682384
153, 1, bw, filler, NA, 999, 999, 2, 19, 83, 91, 59, 119, 159, 126, 3, 1.08481
153, 1, bw, filler, NA, 999, 999, 2, 19, 83, 91, 59, 119, 159, 126, 2, 2.47251
153, 1, bw, attraction, a-b-da, 14, 2, 2, 20, 153, 83, 90, 165, 165, 90, 2, 1.09889
153, 1, bw, attraction, a-b-da, 14, 2, 2, 20, 153, 83, 90, 165, 165, 90, 3, 0.717963
153, 1, bw, attraction, a-b-da, 2, 2, 2, 21, 163, 89, 165, 90, 90, 165, 1, 1.34297
153, 1, bw, attraction, a-b-da, 2, 2, 2, 21, 163, 89, 165, 90, 90, 165, 2, 0.415801
153, 1, bw, attraction, a-b-da, 2, 1, 2, 22, 60, 135, 135, 60, 134, 59, 1, 1.15698
153, 1, bw, attraction, a-b-da, 2, 1, 2, 22, 60, 135, 135, 60, 134, 59, 3, 0.501284
153, 1, bw, attraction, a-b-da, 9, 3, 2, 23, 120, 195, 195, 120, 186, 114, 3, 1.63114
153, 1, bw, attraction, a-b-da, 9, 3, 2, 23, 120, 195, 195, 120, 186, 114, 2, 1.0925
153, 1, bw, attraction, a-b-da, 2, 3, 2, 24, 195, 120, 193, 119, 120, 195, 2, 1.52617
153, 1, bw, attraction, a-b-da, 2, 3, 2, 24, 195, 120, 193, 119, 120, 195, 3, 0.471732
153, 1, bw, catch, NA, 999, 999, 2, 25, 100, 95, 130, 185, 152, 103, 2, 0.954715
153, 1, bw, catch, NA, 999, 999, 2, 25, 100, 95, 130, 185, 152, 103, 1, 0.723017
153, 1, bw, attraction, a-b-da, 5, 3, 2, 26, 195, 120, 190, 117, 120, 195, 1, 0.964091
153, 1, bw, attraction, a-b-da, 5, 3, 2, 26, 195, 120, 190, 117, 120, 195, 2, 0.844469
153, 1, bw, filler, NA, 999, 999, 2, 27, 189, 63, 84, 75, 118, 122, 3, 1.35222
153, 1, bw, filler, NA, 999, 999, 2, 27, 189, 63, 84, 75, 118, 122, 2, 0.569029
153, 1, bw, filler, NA, 999, 999, 2, 28, 192, 131, 158, 60, 194, 192, 3, 0.976137
153, 1, bw, filler, NA, 999, 999, 2, 28, 192, 131, 158, 60, 194, 192, 2, 0.455729
153, 1, bw, filler, NA, 999, 999, 2, 29, 73, 96, 75, 190, 66, 195, 2, 1.38758
153, 1, bw, filler, NA, 999, 999, 2, 29, 73, 96, 75, 190, 66, 195, 1, 0.523103
153, 1, bw, attraction, a-b-db, 9, 1, 2, 30, 57, 129, 135, 60, 60, 135, 1, 1.14828
153, 1, bw, attraction, a-b-db, 9, 1, 2, 30, 57, 129, 135, 60, 60, 135, 2, 0.429205
153, 1, bw, filler, NA, 999, 999, 2, 31, 95, 176, 137, 142, 77, 89, 2, 0.961698
153, 1, bw, filler, NA, 999, 999, 2, 31, 95, 176, 137, 142, 77, 89, 3, 0.450036
153, 1, bw, attraction, a-b-da, 5, 2, 2, 32, 90, 165, 161, 88, 165, 90, 3, 0.957855
153, 1, bw, attraction, a-b-da, 5, 2, 2, 32, 90, 165, 161, 88, 165, 90, 2, 0.414117
153, 1, bw, attraction, a-b-db, 9, 2, 2, 33, 86, 157, 90, 165, 165, 90, 3, 0.87532
153, 1, bw, attraction, a-b-db, 9, 2, 2, 33, 86, 157, 90, 165, 165, 90, 1, 0.806918
153, 1, bw, filler, NA, 999, 999, 2, 34, 127, 88, 74, 85, 93, 81, 1, 1.42804
153, 1, bw, filler, NA, 999, 999, 2, 34, 127, 88, 74, 85, 93, 81, 2, 0.62566
153, 1, bw, attraction, a-b-da, 9, 2, 2, 35, 165, 90, 157, 86, 90, 165, 1, 0.925982
153, 1, bw, attraction, a-b-da, 9, 2, 2, 35, 165, 90, 157, 86, 90, 165, 2, 0.455584
153, 1, bw, attraction, a-b-da, 9, 1, 2, 36, 60, 135, 135, 60, 129, 57, 3, 1.65954
153, 1, bw, attraction, a-b-da, 9, 1, 2, 36, 60, 135, 135, 60, 129, 57, 2, 0.679509
153, 1, bw, attraction, a-b-db, 5, 2, 2, 37, 165, 90, 88, 161, 90, 165, 2, 0.826022
153, 1, bw, attraction, a-b-db, 5, 2, 2, 37, 165, 90, 88, 161, 90, 165, 3, 0.511703
153, 1, bw, filler, NA, 999, 999, 3, 1, 83, 88, 86, 88, 74, 108, 3, 1.38482
153, 1, bw, filler, NA, 999, 999, 3, 1, 83, 88, 86, 88, 74, 108, 2, 0.600481
153, 1, bw, attraction, a-b-da, 9, 3, 3, 2, 186, 114, 120, 195, 195, 120, 2, 1.27004
153, 1, bw, attraction, a-b-da, 9, 3, 3, 2, 186, 114, 120, 195, 195, 120, 3, 0.498305
153, 1, bw, attraction, a-b-db, 5, 3, 3, 3, 117, 190, 195, 120, 120, 195, 3, 2.76422
153, 1, bw, attraction, a-b-db, 5, 3, 3, 3, 117, 190, 195, 120, 120, 195, 1, 0.707811
153, 1, bw, filler, NA, 999, 999, 3, 4, 121, 141, 74, 79, 148, 118, 3, 1.05302
153, 1, bw, filler, NA, 999, 999, 3, 4, 121, 141, 74, 79, 148, 118, 2, 0.937989
153, 1, bw, attraction, a-b-db, 14, 1, 3, 5, 135, 60, 56, 125, 60, 135, 2, 1.0103
153, 1, bw, attraction, a-b-db, 14, 1, 3, 5, 135, 60, 56, 125, 60, 135, 3, 0.68054
153, 1, bw, attraction, a-b-da, 14, 1, 3, 6, 125, 56, 135, 60, 60, 135, 2, 0.74706
153, 1, bw, attraction, a-b-da, 14, 1, 3, 6, 125, 56, 135, 60, 60, 135, 3, 0.892038
153, 1, bw, attraction, a-b-da, 2, 1, 3, 7, 135, 60, 60, 135, 134, 59, 1, 1.15775
153, 1, bw, attraction, a-b-da, 2, 1, 3, 7, 135, 60, 60, 135, 134, 59, 2, 1.50254
153, 1, bw, attraction, a-b-da, 14, 2, 3, 8, 90, 165, 153, 83, 165, 90, 3, 0.91138
153, 1, bw, attraction, a-b-da, 14, 2, 3, 8, 90, 165, 153, 83, 165, 90, 2, 1.21787
153, 1, bw, attraction, a-b-da, 9, 2, 3, 9, 90, 165, 157, 86, 165, 90, 3, 1.96676
153, 1, bw, attraction, a-b-da, 9, 2, 3, 9, 90, 165, 157, 86, 165, 90, 2, 0.998749
153, 1, bw, attraction, a-b-db, 2, 2, 3, 10, 90, 165, 89, 163, 165, 90, 2, 0.88435
153, 1, bw, attraction, a-b-db, 2, 2, 3, 10, 90, 165, 89, 163, 165, 90, 3, 0.704254
153, 1, bw, attraction, a-b-db, 14, 3, 3, 11, 120, 195, 111, 181, 195, 120, 1, 1.19373
153, 1, bw, attraction, a-b-db, 14, 3, 3, 11, 120, 195, 111, 181, 195, 120, 2, 0.712644
153, 1, bw, filler, NA, 999, 999, 3, 12, 183, 100, 97, 152, 135, 141, 3, 1.19384
153, 1, bw, filler, NA, 999, 999, 3, 12, 183, 100, 97, 152, 135, 141, 2, 0.488686
153, 1, bw, attraction, a-b-da, 2, 2, 3, 13, 90, 165, 165, 90, 163, 89, 3, 1.77912
153, 1, bw, attraction, a-b-da, 2, 2, 3, 13, 90, 165, 165, 90, 163, 89, 2, 0.738591
153, 1, bw, catch, NA, 999, 999, 3, 14, 149, 106, 179, 136, 120, 75, 2, 0.906905
153, 1, bw, catch, NA, 999, 999, 3, 14, 149, 106, 179, 136, 120, 75, 3, 0.645424
153, 1, bw, catch, NA, 999, 999, 3, 15, 97, 158, 84, 111, 132, 183, 3, 1.16104
153, 1, bw, catch, NA, 999, 999, 3, 15, 97, 158, 84, 111, 132, 183, 2, 0.729321
153, 1, bw, attraction, a-b-db, 5, 1, 3, 16, 58, 132, 135, 60, 60, 135, 2, 0.681655
153, 1, bw, attraction, a-b-db, 5, 1, 3, 16, 58, 132, 135, 60, 60, 135, 3, 0.589504
153, 1, bw, attraction, a-b-db, 9, 2, 3, 17, 86, 157, 165, 90, 90, 165, 2, 2.00397
153, 1, bw, attraction, a-b-db, 9, 2, 3, 17, 86, 157, 165, 90, 90, 165, 1, 0.922528
153, 1, bw, attraction, a-b-db, 2, 3, 3, 18, 119, 193, 120, 195, 195, 120, 1, 1.28348
153, 1, bw, attraction, a-b-db, 2, 3, 3, 18, 119, 193, 120, 195, 195, 120, 3, 1.06308
153, 1, bw, filler, NA, 999, 999, 3, 19, 156, 115, 115, 170, 102, 143, 2, 2.49008
153, 1, bw, filler, NA, 999, 999, 3, 19, 156, 115, 115, 170, 102, 143, 3, 0.652651
153, 1, bw, attraction, a-b-db, 9, 1, 3, 20, 60, 135, 57, 129, 135, 60, 1, 1.4643
153, 1, bw, attraction, a-b-db, 9, 1, 3, 20, 60, 135, 57, 129, 135, 60, 2, 0.556543
153, 1, bw, filler, NA, 999, 999, 3, 21, 152, 177, 193, 169, 189, 102, 2, 0.916279
153, 1, bw, filler, NA, 999, 999, 3, 21, 152, 177, 193, 169, 189, 102, 3, 0.798689
153, 1, bw, catch, NA, 999, 999, 3, 22, 119, 136, 105, 90, 164, 151, 3, 0.684404
153, 1, bw, catch, NA, 999, 999, 3, 22, 119, 136, 105, 90, 164, 151, 2, 0.480046
153, 1, bw, attraction, a-b-db, 9, 3, 3, 23, 120, 195, 114, 186, 195, 120, 2, 1.0826
153, 1, bw, attraction, a-b-db, 9, 3, 3, 23, 120, 195, 114, 186, 195, 120, 3, 0.566109
153, 1, bw, filler, NA, 999, 999, 3, 24, 134, 113, 149, 150, 108, 121, 2, 0.637329
153, 1, bw, filler, NA, 999, 999, 3, 24, 134, 113, 149, 150, 108, 121, 3, 0.395053
153, 1, bw, attraction, a-b-da, 5, 2, 3, 25, 90, 165, 161, 88, 165, 90, 3, 0.832925
153, 1, bw, attraction, a-b-da, 5, 2, 3, 25, 90, 165, 161, 88, 165, 90, 2, 0.414525
153, 1, bw, attraction, a-b-da, 2, 3, 3, 26, 193, 119, 195, 120, 120, 195, 2, 1.05169
153, 1, bw, attraction, a-b-da, 2, 3, 3, 26, 193, 119, 195, 120, 120, 195, 3, 0.448693
153, 1, bw, attraction, a-b-db, 5, 2, 3, 27, 88, 161, 90, 165, 165, 90, 3, 0.788621
153, 1, bw, attraction, a-b-db, 5, 2, 3, 27, 88, 161, 90, 165, 165, 90, 2, 0.507549
153, 1, bw, filler, NA, 999, 999, 3, 28, 61, 86, 66, 129, 71, 128, 3, 1.14063
153, 1, bw, filler, NA, 999, 999, 3, 28, 61, 86, 66, 129, 71, 128, 1, 0.757773
153, 1, bw, filler, NA, 999, 999, 3, 29, 65, 190, 99, 159, 69, 98, 1, 1.02866
153, 1, bw, filler, NA, 999, 999, 3, 29, 65, 190, 99, 159, 69, 98, 3, 0.658357
153, 1, bw, attraction, a-b-da, 5, 1, 3, 30, 135, 60, 60, 135, 132, 58, 2, 0.773516
153, 1, bw, attraction, a-b-da, 5, 1, 3, 30, 135, 60, 60, 135, 132, 58, 3, 0.565139
153, 1, bw, attraction, a-b-db, 14, 2, 3, 31, 165, 90, 83, 153, 90, 165, 1, 2.63622
153, 1, bw, attraction, a-b-db, 14, 2, 3, 31, 165, 90, 83, 153, 90, 165, 2, 0.409382
153, 1, bw, filler, NA, 999, 999, 3, 32, 66, 148, 106, 144, 174, 79, 2, 1.89458
153, 1, bw, filler, NA, 999, 999, 3, 32, 66, 148, 106, 144, 174, 79, 1, 0.457171
153, 1, bw, attraction, a-b-da, 5, 3, 3, 33, 195, 120, 190, 117, 120, 195, 3, 1.28443
153, 1, bw, attraction, a-b-da, 5, 3, 3, 33, 195, 120, 190, 117, 120, 195, 2, 0.455887
153, 1, bw, attraction, a-b-db, 2, 1, 3, 34, 59, 134, 135, 60, 60, 135, 3, 1.31583
153, 1, bw, attraction, a-b-db, 2, 1, 3, 34, 59, 134, 135, 60, 60, 135, 1, 0.48593
153, 1, bw, filler, NA, 999, 999, 3, 35, 149, 76, 183, 169, 98, 94, 2, 2.09645
153, 1, bw, filler, NA, 999, 999, 3, 35, 149, 76, 183, 169, 98, 94, 1, 1.04317
153, 1, bw, attraction, a-b-da, 14, 3, 3, 36, 120, 195, 195, 120, 181, 111, 1, 2.52672
153, 1, bw, attraction, a-b-da, 14, 3, 3, 36, 120, 195, 195, 120, 181, 111, 3, 0.887865
153, 1, bw, attraction, a-b-da, 9, 1, 3, 37, 129, 57, 135, 60, 60, 135, 1, 0.746182
153, 1, bw, attraction, a-b-da, 9, 1, 3, 37, 129, 57, 135, 60, 60, 135, 2, 0.659351
153, 1, bw, filler, NA, 999, 999, 4, 1, 121, 128, 174, 90, 140, 93, 2, 1.19043
153, 1, bw, filler, NA, 999, 999, 4, 1, 121, 128, 174, 90, 140, 93, 3, 0.373397
153, 1, bw, attraction, a-b-da, 14, 1, 4, 2, 60, 135, 135, 60, 125, 56, 1, 1.30775
153, 1, bw, attraction, a-b-da, 14, 1, 4, 2, 60, 135, 135, 60, 125, 56, 2, 0.494057
153, 1, bw, attraction, a-b-da, 5, 2, 4, 3, 165, 90, 90, 165, 161, 88, 2, 2.5438
153, 1, bw, attraction, a-b-da, 5, 2, 4, 3, 165, 90, 90, 165, 161, 88, 3, 0.496261
153, 1, bw, attraction, a-b-da, 2, 1, 4, 4, 60, 135, 135, 60, 134, 59, 2, 1.53002
153, 1, bw, attraction, a-b-da, 2, 1, 4, 4, 60, 135, 135, 60, 134, 59, 3, 0.62766
153, 1, bw, filler, NA, 999, 999, 4, 5, 163, 172, 184, 130, 85, 175, 1, 0.655967
153, 1, bw, filler, NA, 999, 999, 4, 5, 163, 172, 184, 130, 85, 175, 3, 0.740424
153, 1, bw, filler, NA, 999, 999, 4, 6, 127, 143, 161, 58, 144, 164, 3, 1.14015
153, 1, bw, filler, NA, 999, 999, 4, 6, 127, 143, 161, 58, 144, 164, 2, 0.493075
153, 1, bw, attraction, a-b-db, 2, 3, 4, 7, 119, 193, 195, 120, 120, 195, 3, 1.17498
153, 1, bw, attraction, a-b-db, 2, 3, 4, 7, 119, 193, 195, 120, 120, 195, 1, 0.878448
153, 1, bw, attraction, a-b-db, 14, 3, 4, 8, 120, 195, 195, 120, 111, 181, 2, 1.09694
153, 1, bw, attraction, a-b-db, 14, 3, 4, 8, 120, 195, 195, 120, 111, 181, 3, 0.371725
153, 1, bw, attraction, a-b-da, 5, 1, 4, 9, 132, 58, 60, 135, 135, 60, 1, 1.33898
153, 1, bw, attraction, a-b-da, 5, 1, 4, 9, 132, 58, 60, 135, 135, 60, 3, 0.7959
153, 1, bw, catch, NA, 999, 999, 4, 10, 132, 63, 135, 120, 123, 192, 3, 1.08952
153, 1, bw, catch, NA, 999, 999, 4, 10, 132, 63, 135, 120, 123, 192, 1, 0.700469
153, 1, bw, attraction, a-b-da, 2, 2, 4, 11, 165, 90, 90, 165, 163, 89, 1, 1.10222
153, 1, bw, attraction, a-b-da, 2, 2, 4, 11, 165, 90, 90, 165, 163, 89, 3, 0.481261
153, 1, bw, filler, NA, 999, 999, 4, 12, 183, 144, 149, 154, 84, 143, 1, 0.899556
153, 1, bw, filler, NA, 999, 999, 4, 12, 183, 144, 149, 154, 84, 143, 3, 0.678593
153, 1, bw, attraction, a-b-db, 5, 2, 4, 13, 90, 165, 88, 161, 165, 90, 3, 1.07311
153, 1, bw, attraction, a-b-db, 5, 2, 4, 13, 90, 165, 88, 161, 165, 90, 2, 0.484627
153, 1, bw, attraction, a-b-db, 9, 1, 4, 14, 57, 129, 135, 60, 60, 135, 1, 3.51111
153, 1, bw, attraction, a-b-db, 9, 1, 4, 14, 57, 129, 135, 60, 60, 135, 3, 1.67263
153, 1, bw, attraction, a-b-db, 9, 2, 4, 15, 90, 165, 86, 157, 165, 90, 1, 1.1714
153, 1, bw, attraction, a-b-db, 9, 2, 4, 15, 90, 165, 86, 157, 165, 90, 2, 0.779715
153, 1, bw, attraction, a-b-db, 9, 3, 4, 16, 120, 195, 114, 186, 195, 120, 1, 1.3541
153, 1, bw, attraction, a-b-db, 9, 3, 4, 16, 120, 195, 114, 186, 195, 120, 2, 0.507012
153, 1, bw, attraction, a-b-da, 9, 3, 4, 17, 186, 114, 120, 195, 195, 120, 2, 1.45221
153, 1, bw, attraction, a-b-da, 9, 3, 4, 17, 186, 114, 120, 195, 195, 120, 1, 0.408864
153, 1, bw, attraction, a-b-db, 14, 1, 4, 18, 135, 60, 56, 125, 60, 135, 1, 0.910047
153, 1, bw, attraction, a-b-db, 14, 1, 4, 18, 135, 60, 56, 125, 60, 135, 2, 0.864393
153, 1, bw, catch, NA, 999, 999, 4, 19, 100, 155, 107, 88, 189, 126, 3, 1.33944
153, 1, bw, catch, NA, 999, 999, 4, 19, 100, 155, 107, 88, 189, 126, 2, 0.444349
153, 1, bw, attraction, a-b-da, 9, 2, 4, 20, 165, 90, 157, 86, 90, 165, 2, 0.816238
153, 1, bw, attraction, a-b-da, 9, 2, 4, 20, 165, 90, 157, 86, 90, 165, 1, 0.406452
153, 1, bw, attraction, a-b-da, 2, 3, 4, 21, 193, 119, 120, 195, 195, 120, 2, 0.876359
153, 1, bw, attraction, a-b-da, 2, 3, 4, 21, 193, 119, 120, 195, 195, 120, 3, 0.864118
153, 1, bw, attraction, a-b-db, 5, 1, 4, 22, 135, 60, 58, 132, 60, 135, 1, 0.883219
153, 1, bw, attraction, a-b-db, 5, 1, 4, 22, 135, 60, 58, 132, 60, 135, 2, 0.526781
153, 1, bw, attraction, a-b-db, 2, 1, 4, 23, 59, 134, 135, 60, 60, 135, 1, 0.807132
153, 1, bw, attraction, a-b-db, 2, 1, 4, 23, 59, 134, 135, 60, 60, 135, 2, 0.373549
153, 1, bw, attraction, a-b-da, 5, 3, 4, 24, 195, 120, 120, 195, 190, 117, 2, 1.17206
153, 1, bw, attraction, a-b-da, 5, 3, 4, 24, 195, 120, 120, 195, 190, 117, 3, 0.579628
153, 1, bw, filler, NA, 999, 999, 4, 25, 72, 72, 131, 181, 177, 149, 3, 0.906055
153, 1, bw, filler, NA, 999, 999, 4, 25, 72, 72, 131, 181, 177, 149, 1, 0.724479
153, 1, bw, catch, NA, 999, 999, 4, 26, 81, 114, 180, 135, 131, 124, 2, 0.860949
153, 1, bw, catch, NA, 999, 999, 4, 26, 81, 114, 180, 135, 131, 124, 1, 0.665151
153, 1, bw, attraction, a-b-da, 9, 1, 4, 27, 60, 135, 129, 57, 135, 60, 1, 0.884314
153, 1, bw, attraction, a-b-da, 9, 1, 4, 27, 60, 135, 129, 57, 135, 60, 2, 0.776416
153, 1, bw, attraction, a-b-db, 2, 2, 4, 28, 165, 90, 89, 163, 90, 165, 1, 0.862357
153, 1, bw, attraction, a-b-db, 2, 2, 4, 28, 165, 90, 89, 163, 90, 165, 2, 0.434663
153, 1, bw, attraction, a-b-da, 14, 3, 4, 29, 120, 195, 181, 111, 195, 120, 1, 1.31915
153, 1, bw, attraction, a-b-da, 14, 3, 4, 29, 120, 195, 181, 111, 195, 120, 2, 0.45735
153, 1, bw, attraction, a-b-da, 14, 2, 4, 30, 153, 83, 165, 90, 90, 165, 3, 1.58044
153, 1, bw, attraction, a-b-da, 14, 2, 4, 30, 153, 83, 165, 90, 90, 165, 1, 0.427931
153, 1, bw, filler, NA, 999, 999, 4, 31, 189, 143, 109, 159, 80, 160, 1, 0.832392
153, 1, bw, filler, NA, 999, 999, 4, 31, 189, 143, 109, 159, 80, 160, 3, 0.838121
153, 1, bw, attraction, a-b-db, 14, 2, 4, 32, 90, 165, 83, 153, 165, 90, 3, 0.954608
153, 1, bw, attraction, a-b-db, 14, 2, 4, 32, 90, 165, 83, 153, 165, 90, 2, 0.731487
153, 1, bw, filler, NA, 999, 999, 4, 33, 184, 123, 105, 104, 127, 159, 1, 0.699971
153, 1, bw, filler, NA, 999, 999, 4, 33, 184, 123, 105, 104, 127, 159, 2, 0.390983
153, 1, bw, filler, NA, 999, 999, 4, 34, 67, 114, 86, 71, 153, 78, 3, 0.596844
153, 1, bw, filler, NA, 999, 999, 4, 34, 67, 114, 86, 71, 153, 78, 2, 0.459964
153, 1, bw, attraction, a-b-db, 5, 3, 4, 35, 120, 195, 195, 120, 117, 190, 2, 0.839174
153, 1, bw, attraction, a-b-db, 5, 3, 4, 35, 120, 195, 195, 120, 117, 190, 3, 0.644089
153, 1, bw, filler, NA, 999, 999, 4, 36, 133, 192, 117, 125, 58, 72, 1, 1.01579
153, 1, bw, filler, NA, 999, 999, 4, 36, 133, 192, 117, 125, 58, 72, 3, 0.494326
153, 1, bw, filler, NA, 999, 999, 4, 37, 97, 141, 77, 181, 107, 103, 2, 2.06394
153, 1, bw, filler, NA, 999, 999, 4, 37, 97, 141, 77, 181, 107, 103, 3, 0.467924
153, 1, bw, attraction, a-b-db, 14, 3, 5, 1, 120, 195, 111, 181, 195, 120, 3, 6.79771
153, 1, bw, attraction, a-b-db, 14, 3, 5, 1, 120, 195, 111, 181, 195, 120, 2, 2.67486
153, 1, bw, attraction, a-b-da, 9, 2, 5, 2, 157, 86, 90, 165, 165, 90, 3, 7.17271
153, 1, bw, attraction, a-b-da, 9, 2, 5, 2, 157, 86, 90, 165, 165, 90, 1, 2.54653
153, 1, bw, attraction, a-b-db, 2, 2, 5, 3, 165, 90, 89, 163, 90, 165, 1, 2.2816
153, 1, bw, attraction, a-b-db, 2, 2, 5, 3, 165, 90, 89, 163, 90, 165, 3, 1.38881
153, 1, bw, attraction, a-b-db, 9, 1, 5, 4, 60, 135, 57, 129, 135, 60, 1, 3.99501
153, 1, bw, attraction, a-b-db, 9, 1, 5, 4, 60, 135, 57, 129, 135, 60, 2, 1.28108
153, 1, bw, attraction, a-b-da, 14, 2, 5, 5, 165, 90, 90, 165, 153, 83, 1, 4.86719
153, 1, bw, attraction, a-b-da, 14, 2, 5, 5, 165, 90, 90, 165, 153, 83, 3, 1.3584
153, 1, bw, filler, NA, 999, 999, 5, 6, 175, 80, 67, 80, 180, 93, 3, 1.66124
153, 1, bw, filler, NA, 999, 999, 5, 6, 175, 80, 67, 80, 180, 93, 1, 0.809479
153, 1, bw, filler, NA, 999, 999, 5, 7, 90, 134, 115, 56, 108, 167, 3, 0.974408
153, 1, bw, filler, NA, 999, 999, 5, 7, 90, 134, 115, 56, 108, 167, 1, 1.67
153, 1, bw, catch, NA, 999, 999, 5, 8, 100, 155, 140, 175, 115, 80, 2, 1.21682
153, 1, bw, catch, NA, 999, 999, 5, 8, 100, 155, 140, 175, 115, 80, 3, 0.823046
153, 1, bw, filler, NA, 999, 999, 5, 9, 84, 181, 117, 141, 151, 57, 1, 1.43614
153, 1, bw, filler, NA, 999, 999, 5, 9, 84, 181, 117, 141, 151, 57, 3, 1.0337
153, 1, bw, attraction, a-b-da, 2, 1, 5, 10, 60, 135, 135, 60, 134, 59, 1, 1.94992
153, 1, bw, attraction, a-b-da, 2, 1, 5, 10, 60, 135, 135, 60, 134, 59, 2, 0.526553
153, 1, bw, attraction, a-b-db, 2, 3, 5, 11, 120, 195, 195, 120, 119, 193, 2, 2.26306
153, 1, bw, attraction, a-b-db, 2, 3, 5, 11, 120, 195, 195, 120, 119, 193, 1, 0.546968
153, 1, bw, attraction, a-b-da, 14, 3, 5, 12, 195, 120, 181, 111, 120, 195, 1, 1.87478
153, 1, bw, attraction, a-b-da, 14, 3, 5, 12, 195, 120, 181, 111, 120, 195, 2, 0.702212
153, 1, bw, filler, NA, 999, 999, 5, 13, 142, 149, 184, 94, 173, 186, 3, 1.86377
153, 1, bw, filler, NA, 999, 999, 5, 13, 142, 149, 184, 94, 173, 186, 2, 0.899863
153, 1, bw, attraction, a-b-db, 5, 1, 5, 14, 135, 60, 58, 132, 60, 135, 1, 1.08556
153, 1, bw, attraction, a-b-db, 5, 1, 5, 14, 135, 60, 58, 132, 60, 135, 2, 0.801241
153, 1, bw, attraction, a-b-da, 9, 1, 5, 15, 135, 60, 129, 57, 60, 135, 1, 1.75881
153, 1, bw, attraction, a-b-da, 9, 1, 5, 15, 135, 60, 129, 57, 60, 135, 2, 0.894889
153, 1, bw, attraction, a-b-db, 5, 3, 5, 16, 120, 195, 117, 190, 195, 120, 2, 7.17666
153, 1, bw, attraction, a-b-db, 5, 3, 5, 16, 120, 195, 117, 190, 195, 120, 1, 1.44629
153, 1, bw, filler, NA, 999, 999, 5, 17, 191, 174, 64, 182, 192, 195, 3, 2.27405
153, 1, bw, filler, NA, 999, 999, 5, 17, 191, 174, 64, 182, 192, 195, 2, 0.477123
153, 1, bw, filler, NA, 999, 999, 5, 18, 178, 102, 83, 195, 97, 179, 1, 2.21568
153, 1, bw, filler, NA, 999, 999, 5, 18, 178, 102, 83, 195, 97, 179, 2, 0.637537
153, 1, bw, attraction, a-b-db, 5, 2, 5, 19, 165, 90, 88, 161, 90, 165, 2, 2.07391
153, 1, bw, attraction, a-b-db, 5, 2, 5, 19, 165, 90, 88, 161, 90, 165, 1, 0.669262
153, 1, bw, attraction, a-b-da, 5, 1, 5, 20, 135, 60, 132, 58, 60, 135, 3, 1.93634
153, 1, bw, attraction, a-b-da, 5, 1, 5, 20, 135, 60, 132, 58, 60, 135, 2, 0.55364
153, 1, bw, attraction, a-b-db, 9, 3, 5, 21, 120, 195, 195, 120, 114, 186, 2, 1.13744
153, 1, bw, attraction, a-b-db, 9, 3, 5, 21, 120, 195, 195, 120, 114, 186, 3, 3.3392
153, 1, bw, filler, NA, 999, 999, 5, 22, 131, 133, 189, 151, 124, 125, 2, 1.43474
153, 1, bw, filler, NA, 999, 999, 5, 22, 131, 133, 189, 151, 124, 125, 3, 1.3442
153, 1, bw, attraction, a-b-db, 14, 2, 5, 23, 83, 153, 165, 90, 90, 165, 3, 1.01567
153, 1, bw, attraction, a-b-db, 14, 2, 5, 23, 83, 153, 165, 90, 90, 165, 2, 0.710094
153, 1, bw, attraction, a-b-db, 9, 2, 5, 24, 165, 90, 90, 165, 86, 157, 1, 1.27103
153, 1, bw, attraction, a-b-db, 9, 2, 5, 24, 165, 90, 90, 165, 86, 157, 3, 0.675307
153, 1, bw, attraction, a-b-da, 9, 3, 5, 25, 195, 120, 120, 195, 186, 114, 3, 1.94164
153, 1, bw, attraction, a-b-da, 9, 3, 5, 25, 195, 120, 120, 195, 186, 114, 2, 1.16655
153, 1, bw, catch, NA, 999, 999, 5, 26, 161, 154, 160, 95, 106, 89, 1, 0.853366
153, 1, bw, catch, NA, 999, 999, 5, 26, 161, 154, 160, 95, 106, 89, 3, 0.674364
153, 1, bw, filler, NA, 999, 999, 5, 27, 139, 85, 152, 152, 151, 123, 2, 1.55671
153, 1, bw, filler, NA, 999, 999, 5, 27, 139, 85, 152, 152, 151, 123, 1, 0.661002
153, 1, bw, attraction, a-b-da, 14, 1, 5, 28, 125, 56, 135, 60, 60, 135, 3, 1.78405
153, 1, bw, attraction, a-b-da, 14, 1, 5, 28, 125, 56, 135, 60, 60, 135, 1, 0.959375
153, 1, bw, attraction, a-b-da, 5, 3, 5, 29, 190, 117, 120, 195, 195, 120, 1, 1.4944
153, 1, bw, attraction, a-b-da, 5, 3, 5, 29, 190, 117, 120, 195, 195, 120, 3, 0.6731
153, 1, bw, attraction, a-b-db, 14, 1, 5, 30, 135, 60, 56, 125, 60, 135, 3, 3.66837
153, 1, bw, attraction, a-b-db, 14, 1, 5, 30, 135, 60, 56, 125, 60, 135, 2, 1.22374
153, 1, bw, attraction, a-b-db, 2, 1, 5, 31, 60, 135, 135, 60, 59, 134, 2, 1.18811
153, 1, bw, attraction, a-b-db, 2, 1, 5, 31, 60, 135, 135, 60, 59, 134, 1, 0.578993
153, 1, bw, attraction, a-b-da, 5, 2, 5, 32, 165, 90, 161, 88, 90, 165, 1, 1.88935
153, 1, bw, attraction, a-b-da, 5, 2, 5, 32, 165, 90, 161, 88, 90, 165, 2, 1.02802
153, 1, bw, attraction, a-b-da, 2, 3, 5, 33, 195, 120, 120, 195, 193, 119, 2, 2.56031
153, 1, bw, attraction, a-b-da, 2, 3, 5, 33, 195, 120, 120, 195, 193, 119, 3, 1.56021
153, 1, bw, filler, NA, 999, 999, 5, 34, 101, 136, 98, 94, 177, 189, 3, 1.43903
153, 1, bw, filler, NA, 999, 999, 5, 34, 101, 136, 98, 94, 177, 189, 2, 0.731911
153, 1, bw, attraction, a-b-da, 2, 2, 5, 35, 163, 89, 90, 165, 165, 90, 2, 2.83625
153, 1, bw, attraction, a-b-da, 2, 2, 5, 35, 163, 89, 90, 165, 165, 90, 3, 1.15325
153, 1, bw, filler, NA, 999, 999, 5, 36, 96, 128, 154, 74, 110, 77, 1, 1.67307
153, 1, bw, filler, NA, 999, 999, 5, 36, 96, 128, 154, 74, 110, 77, 3, 1.14042
153, 1, bw, catch, NA, 999, 999, 5, 37, 124, 71, 129, 186, 139, 116, 2, 1.56394
153, 1, bw, catch, NA, 999, 999, 5, 37, 124, 71, 129, 186, 139, 116, 1, 0.628111
153, 1, bw, filler, NA, 999, 999, 6, 1, 80, 95, 167, 118, 79, 102, 2, 1.47242
153, 1, bw, filler, NA, 999, 999, 6, 1, 80, 95, 167, 118, 79, 102, 1, 0.979905
153, 1, bw, filler, NA, 999, 999, 6, 2, 128, 146, 186, 161, 132, 108, 2, 5.8583
153, 1, bw, filler, NA, 999, 999, 6, 2, 128, 146, 186, 161, 132, 108, 3, 1.0612
153, 1, bw, filler, NA, 999, 999, 6, 3, 151, 88, 79, 142, 143, 144, 3, 3.88795
153, 1, bw, filler, NA, 999, 999, 6, 3, 151, 88, 79, 142, 143, 144, 2, 0.586794
153, 1, bw, attraction, a-b-da, 14, 2, 6, 4, 153, 83, 90, 165, 165, 90, 2, 4.48938
153, 1, bw, attraction, a-b-da, 14, 2, 6, 4, 153, 83, 90, 165, 165, 90, 1, 0.923024
153, 1, bw, catch, NA, 999, 999, 6, 5, 88, 107, 122, 133, 136, 179, 3, 2.18813
153, 1, bw, catch, NA, 999, 999, 6, 5, 88, 107, 122, 133, 136, 179, 1, 0.819419
153, 1, bw, attraction, a-b-db, 2, 2, 6, 6, 165, 90, 90, 165, 89, 163, 1, 1.28041
153, 1, bw, attraction, a-b-db, 2, 2, 6, 6, 165, 90, 90, 165, 89, 163, 2, 0.763988
153, 1, bw, attraction, a-b-da, 14, 1, 6, 7, 135, 60, 125, 56, 60, 135, 1, 1.18707
153, 1, bw, attraction, a-b-da, 14, 1, 6, 7, 135, 60, 125, 56, 60, 135, 3, 0.602571
153, 1, bw, attraction, a-b-db, 2, 3, 6, 8, 119, 193, 195, 120, 120, 195, 2, 6.06441
153, 1, bw, attraction, a-b-db, 2, 3, 6, 8, 119, 193, 195, 120, 120, 195, 1, 0.763074
153, 1, bw, attraction, a-b-db, 14, 2, 6, 9, 165, 90, 90, 165, 83, 153, 1, 1.69014
153, 1, bw, attraction, a-b-db, 14, 2, 6, 9, 165, 90, 90, 165, 83, 153, 3, 0.789058
153, 1, bw, attraction, a-b-da, 5, 1, 6, 10, 135, 60, 60, 135, 132, 58, 3, 2.3874
153, 1, bw, attraction, a-b-da, 5, 1, 6, 10, 135, 60, 60, 135, 132, 58, 2, 1.47458
153, 1, bw, filler, NA, 999, 999, 6, 11, 153, 132, 119, 141, 104, 56, 1, 1.89265
153, 1, bw, filler, NA, 999, 999, 6, 11, 153, 132, 119, 141, 104, 56, 3, 0.823405
153, 1, bw, catch, NA, 999, 999, 6, 12, 181, 134, 72, 123, 164, 91, 1, 0.771628
153, 1, bw, catch, NA, 999, 999, 6, 12, 181, 134, 72, 123, 164, 91, 2, 0.603535
153, 1, bw, attraction, a-b-db, 5, 1, 6, 13, 58, 132, 60, 135, 135, 60, 2, 1.16137
153, 1, bw, attraction, a-b-db, 5, 1, 6, 13, 58, 132, 60, 135, 135, 60, 1, 0.713549
153, 1, bw, filler, NA, 999, 999, 6, 14, 173, 170, 186, 125, 73, 118, 1, 1.09051
153, 1, bw, filler, NA, 999, 999, 6, 14, 173, 170, 186, 125, 73, 118, 3, 0.49357
153, 1, bw, filler, NA, 999, 999, 6, 15, 141, 86, 183, 138, 118, 127, 2, 0.903418
153, 1, bw, filler, NA, 999, 999, 6, 15, 141, 86, 183, 138, 118, 127, 1, 0.522229
153, 1, bw, attraction, a-b-da, 5, 3, 6, 16, 120, 195, 190, 117, 195, 120, 1, 1.15559
153, 1, bw, attraction, a-b-da, 5, 3, 6, 16, 120, 195, 190, 117, 195, 120, 2, 0.427701
153, 1, bw, attraction, a-b-da, 14, 3, 6, 17, 195, 120, 120, 195, 181, 111, 2, 1.44033
153, 1, bw, attraction, a-b-da, 14, 3, 6, 17, 195, 120, 120, 195, 181, 111, 3, 0.845234
153, 1, bw, attraction, a-b-da, 2, 1, 6, 18, 135, 60, 134, 59, 60, 135, 3, 5.22473
153, 1, bw, attraction, a-b-da, 2, 1, 6, 18, 135, 60, 134, 59, 60, 135, 2, 1.19706
153, 1, bw, attraction, a-b-db, 9, 2, 6, 19, 86, 157, 90, 165, 165, 90, 2, 0.978806
153, 1, bw, attraction, a-b-db, 9, 2, 6, 19, 86, 157, 90, 165, 165, 90, 1, 0.594401
153, 1, bw, attraction, a-b-db, 14, 1, 6, 20, 56, 125, 60, 135, 135, 60, 2, 1.48008
153, 1, bw, attraction, a-b-db, 14, 1, 6, 20, 56, 125, 60, 135, 135, 60, 1, 0.515586
153, 1, bw, attraction, a-b-db, 9, 3, 6, 21, 195, 120, 120, 195, 114, 186, 2, 1.38072
153, 1, bw, attraction, a-b-db, 9, 3, 6, 21, 195, 120, 120, 195, 114, 186, 3, 0.524231
153, 1, bw, attraction, a-b-da, 5, 2, 6, 22, 90, 165, 161, 88, 165, 90, 3, 1.00467
153, 1, bw, attraction, a-b-da, 5, 2, 6, 22, 90, 165, 161, 88, 165, 90, 2, 0.707789
153, 1, bw, attraction, a-b-da, 9, 2, 6, 23, 90, 165, 157, 86, 165, 90, 2, 1.10083
153, 1, bw, attraction, a-b-da, 9, 2, 6, 23, 90, 165, 157, 86, 165, 90, 3, 3.02367
153, 1, bw, attraction, a-b-db, 5, 3, 6, 24, 117, 190, 195, 120, 120, 195, 1, 5.29215
153, 1, bw, attraction, a-b-db, 5, 3, 6, 24, 117, 190, 195, 120, 120, 195, 3, 1.10968
153, 1, bw, filler, NA, 999, 999, 6, 25, 185, 81, 143, 139, 69, 152, 2, 1.00656
153, 1, bw, filler, NA, 999, 999, 6, 25, 185, 81, 143, 139, 69, 152, 3, 0.661081
153, 1, bw, attraction, a-b-db, 2, 1, 6, 26, 135, 60, 60, 135, 59, 134, 2, 1.81595
153, 1, bw, attraction, a-b-db, 2, 1, 6, 26, 135, 60, 60, 135, 59, 134, 3, 0.686115
153, 1, bw, attraction, a-b-da, 2, 3, 6, 27, 193, 119, 195, 120, 120, 195, 1, 1.41644
153, 1, bw, attraction, a-b-da, 2, 3, 6, 27, 193, 119, 195, 120, 120, 195, 2, 0.998636
153, 1, bw, attraction, a-b-db, 9, 1, 6, 28, 57, 129, 135, 60, 60, 135, 2, 1.93226
153, 1, bw, attraction, a-b-db, 9, 1, 6, 28, 57, 129, 135, 60, 60, 135, 1, 0.653654
153, 1, bw, filler, NA, 999, 999, 6, 29, 82, 167, 121, 60, 68, 98, 1, 1.04137
153, 1, bw, filler, NA, 999, 999, 6, 29, 82, 167, 121, 60, 68, 98, 3, 4.70242
153, 1, bw, attraction, a-b-da, 9, 1, 6, 30, 60, 135, 129, 57, 135, 60, 3, 3.64693
153, 1, bw, attraction, a-b-da, 9, 1, 6, 30, 60, 135, 129, 57, 135, 60, 2, 1.05905
153, 1, bw, catch, NA, 999, 999, 6, 31, 103, 92, 92, 163, 125, 190, 3, 1.61388
153, 1, bw, catch, NA, 999, 999, 6, 31, 103, 92, 92, 163, 125, 190, 1, 1.07608
153, 1, bw, attraction, a-b-da, 9, 3, 6, 32, 120, 195, 195, 120, 186, 114, 1, 3.74234
153, 1, bw, attraction, a-b-da, 9, 3, 6, 32, 120, 195, 195, 120, 186, 114, 2, 0.686566
153, 1, bw, attraction, a-b-db, 14, 3, 6, 33, 120, 195, 195, 120, 111, 181, 1, 2.14499
153, 1, bw, attraction, a-b-db, 14, 3, 6, 33, 120, 195, 195, 120, 111, 181, 3, 0.745505
153, 1, bw, attraction, a-b-db, 5, 2, 6, 34, 90, 165, 88, 161, 165, 90, 3, 3.08918
153, 1, bw, attraction, a-b-db, 5, 2, 6, 34, 90, 165, 88, 161, 165, 90, 2, 0.819556
153, 1, bw, filler, NA, 999, 999, 6, 35, 131, 192, 119, 129, 95, 170, 1, 1.56062
153, 1, bw, filler, NA, 999, 999, 6, 35, 131, 192, 119, 129, 95, 170, 2, 4.72082
153, 1, bw, filler, NA, 999, 999, 6, 36, 130, 118, 191, 58, 127, 143, 3, 1.53656
153, 1, bw, filler, NA, 999, 999, 6, 36, 130, 118, 191, 58, 127, 143, 2, 0.970073
153, 1, bw, attraction, a-b-da, 2, 2, 6, 37, 163, 89, 165, 90, 90, 165, 2, 2.74507
153, 1, bw, attraction, a-b-da, 2, 2, 6, 37, 163, 89, 165, 90, 90, 165, 3, 0.665485
153, 1, bw, attraction, a-b-da, 14, 2, 7, 1, 153, 83, 165, 90, 90, 165, 3, 1.30858
153, 1, bw, attraction, a-b-da, 14, 2, 7, 1, 153, 83, 165, 90, 90, 165, 2, 1.05489
153, 1, bw, attraction, a-b-db, 5, 1, 7, 2, 135, 60, 58, 132, 60, 135, 1, 2.1384
153, 1, bw, attraction, a-b-db, 5, 1, 7, 2, 135, 60, 58, 132, 60, 135, 2, 0.683043
153, 1, bw, attraction, a-b-db, 14, 2, 7, 3, 165, 90, 90, 165, 83, 153, 2, 1.00542
153, 1, bw, attraction, a-b-db, 14, 2, 7, 3, 165, 90, 90, 165, 83, 153, 3, 0.499794
153, 1, bw, filler, NA, 999, 999, 7, 4, 146, 144, 165, 125, 94, 147, 1, 1.15751
153, 1, bw, filler, NA, 999, 999, 7, 4, 146, 144, 165, 125, 94, 147, 3, 0.613873
153, 1, bw, attraction, a-b-db, 2, 2, 7, 5, 89, 163, 165, 90, 90, 165, 3, 1.14684
153, 1, bw, attraction, a-b-db, 2, 2, 7, 5, 89, 163, 165, 90, 90, 165, 1, 1.10777
153, 1, bw, filler, NA, 999, 999, 7, 6, 173, 174, 121, 159, 137, 123, 1, 0.892706
153, 1, bw, filler, NA, 999, 999, 7, 6, 173, 174, 121, 159, 137, 123, 3, 0.951811
153, 1, bw, attraction, a-b-db, 5, 2, 7, 7, 90, 165, 165, 90, 88, 161, 3, 1.10348
153, 1, bw, attraction, a-b-db, 5, 2, 7, 7, 90, 165, 165, 90, 88, 161, 1, 0.858289
153, 1, bw, attraction, a-b-db, 2, 3, 7, 8, 119, 193, 195, 120, 120, 195, 3, 1.34949
153, 1, bw, attraction, a-b-db, 2, 3, 7, 8, 119, 193, 195, 120, 120, 195, 1, 0.822271
153, 1, bw, attraction, a-b-da, 2, 3, 7, 9, 195, 120, 193, 119, 120, 195, 1, 2.45924
153, 1, bw, attraction, a-b-da, 2, 3, 7, 9, 195, 120, 193, 119, 120, 195, 2, 0.663121
153, 1, bw, catch, NA, 999, 999, 7, 10, 104, 91, 162, 93, 175, 140, 3, 0.818257
153, 1, bw, catch, NA, 999, 999, 7, 10, 104, 91, 162, 93, 175, 140, 1, 0.904535
153, 1, bw, filler, NA, 999, 999, 7, 11, 192, 189, 106, 180, 82, 98, 1, 0.994398
153, 1, bw, filler, NA, 999, 999, 7, 11, 192, 189, 106, 180, 82, 98, 3, 0.921453
153, 1, bw, attraction, a-b-da, 5, 2, 7, 12, 165, 90, 161, 88, 90, 165, 3, 1.40225
153, 1, bw, attraction, a-b-da, 5, 2, 7, 12, 165, 90, 161, 88, 90, 165, 2, 0.793169
153, 1, bw, attraction, a-b-da, 2, 2, 7, 13, 165, 90, 163, 89, 90, 165, 2, 1.18281
153, 1, bw, attraction, a-b-da, 2, 2, 7, 13, 165, 90, 163, 89, 90, 165, 3, 0.566468
153, 1, bw, attraction, a-b-da, 5, 1, 7, 14, 135, 60, 60, 135, 132, 58, 2, 0.91745
153, 1, bw, attraction, a-b-da, 5, 1, 7, 14, 135, 60, 60, 135, 132, 58, 1, 0.592094
153, 1, bw, attraction, a-b-db, 9, 2, 7, 15, 165, 90, 90, 165, 86, 157, 1, 1.54956
153, 1, bw, attraction, a-b-db, 9, 2, 7, 15, 165, 90, 90, 165, 86, 157, 2, 0.798402
153, 1, bw, attraction, a-b-da, 14, 3, 7, 16, 181, 111, 195, 120, 120, 195, 3, 1.93205
153, 1, bw, attraction, a-b-da, 14, 3, 7, 16, 181, 111, 195, 120, 120, 195, 2, 0.637565
153, 1, bw, attraction, a-b-db, 9, 1, 7, 17, 60, 135, 135, 60, 57, 129, 2, 1.39401
153, 1, bw, attraction, a-b-db, 9, 1, 7, 17, 60, 135, 135, 60, 57, 129, 3, 0.736777
153, 1, bw, attraction, a-b-da, 9, 3, 7, 18, 195, 120, 120, 195, 186, 114, 1, 1.20124
153, 1, bw, attraction, a-b-da, 9, 3, 7, 18, 195, 120, 120, 195, 186, 114, 3, 1.70407
153, 1, bw, attraction, a-b-da, 14, 1, 7, 19, 125, 56, 60, 135, 135, 60, 2, 1.40151
153, 1, bw, attraction, a-b-da, 14, 1, 7, 19, 125, 56, 60, 135, 135, 60, 1, 0.752348
153, 1, bw, attraction, a-b-da, 5, 3, 7, 20, 120, 195, 195, 120, 190, 117, 1, 1.56813
153, 1, bw, attraction, a-b-da, 5, 3, 7, 20, 120, 195, 195, 120, 190, 117, 3, 0.528282
153, 1, bw, catch, NA, 999, 999, 7, 21, 95, 160, 153, 162, 76, 119, 2, 1.88875
153, 1, bw, catch, NA, 999, 999, 7, 21, 95, 160, 153, 162, 76, 119, 3, 0.843532
153, 1, bw, filler, NA, 999, 999, 7, 22, 161, 91, 177, 122, 158, 93, 2, 12.167
153, 1, bw, filler, NA, 999, 999, 7, 22, 161, 91, 177, 122, 158, 93, 3, 1.08402
153, 1, bw, attraction, a-b-db, 14, 3, 7, 23, 111, 181, 120, 195, 195, 120, 3, 2.07822
153, 1, bw, attraction, a-b-db, 14, 3, 7, 23, 111, 181, 120, 195, 195, 120, 1, 1.16952
153, 1, bw, attraction, a-b-da, 9, 2, 7, 24, 165, 90, 90, 165, 157, 86, 2, 6.80881
153, 1, bw, attraction, a-b-da, 9, 2, 7, 24, 165, 90, 90, 165, 157, 86, 3, 0.804895
153, 1, bw, attraction, a-b-db, 2, 1, 7, 25, 135, 60, 59, 134, 60, 135, 3, 1.28274
153, 1, bw, attraction, a-b-db, 2, 1, 7, 25, 135, 60, 59, 134, 60, 135, 2, 0.670251
153, 1, bw, filler, NA, 999, 999, 7, 26, 94, 67, 118, 170, 72, 117, 2, 7.32931
153, 1, bw, filler, NA, 999, 999, 7, 26, 94, 67, 118, 170, 72, 117, 1, 0.809102
153, 1, bw, filler, NA, 999, 999, 7, 27, 105, 113, 136, 193, 57, 168, 2, 1.88589
153, 1, bw, filler, NA, 999, 999, 7, 27, 105, 113, 136, 193, 57, 168, 3, 0.681437
153, 1, bw, attraction, a-b-db, 5, 3, 7, 28, 117, 190, 195, 120, 120, 195, 3, 1.03582
153, 1, bw, attraction, a-b-db, 5, 3, 7, 28, 117, 190, 195, 120, 120, 195, 2, 1.66555
153, 1, bw, attraction, a-b-da, 9, 1, 7, 29, 129, 57, 60, 135, 135, 60, 3, 2.07628
153, 1, bw, attraction, a-b-da, 9, 1, 7, 29, 129, 57, 60, 135, 135, 60, 1, 0.9675
153, 1, bw, attraction, a-b-da, 2, 1, 7, 30, 60, 135, 134, 59, 135, 60, 3, 3.7264
153, 1, bw, attraction, a-b-da, 2, 1, 7, 30, 60, 135, 134, 59, 135, 60, 2, 0.591226
153, 1, bw, filler, NA, 999, 999, 7, 31, 185, 63, 157, 128, 151, 83, 2, 1.98103
153, 1, bw, filler, NA, 999, 999, 7, 31, 185, 63, 157, 128, 151, 83, 3, 0.588286
153, 1, bw, catch, NA, 999, 999, 7, 32, 124, 131, 106, 89, 183, 132, 3, 1.1149
153, 1, bw, catch, NA, 999, 999, 7, 32, 124, 131, 106, 89, 183, 132, 2, 0.861125
153, 1, bw, filler, NA, 999, 999, 7, 33, 136, 174, 179, 193, 159, 136, 2, 1.07208
153, 1, bw, filler, NA, 999, 999, 7, 33, 136, 174, 179, 193, 159, 136, 1, 0.699821
153, 1, bw, attraction, a-b-db, 9, 3, 7, 34, 195, 120, 114, 186, 120, 195, 3, 3.06141
153, 1, bw, attraction, a-b-db, 9, 3, 7, 34, 195, 120, 114, 186, 120, 195, 2, 0.697289
153, 1, bw, attraction, a-b-db, 14, 1, 7, 35, 60, 135, 56, 125, 135, 60, 3, 0.954798
153, 1, bw, attraction, a-b-db, 14, 1, 7, 35, 60, 135, 56, 125, 135, 60, 2, 0.923899
153, 1, bw, filler, NA, 999, 999, 7, 36, 148, 186, 140, 66, 101, 173, 1, 1.03613
153, 1, bw, filler, NA, 999, 999, 7, 36, 148, 186, 140, 66, 101, 173, 2, 0.537931
153, 1, bw, filler, NA, 999, 999, 7, 37, 92, 105, 167, 124, 160, 72, 2, 0.826352
153, 1, bw, filler, NA, 999, 999, 7, 37, 92, 105, 167, 124, 160, 72, 1, 0.464
153, 1, bw, attraction, a-b-da, 14, 2, 8, 1, 90, 165, 165, 90, 153, 83, 1, 1.2911
153, 1, bw, attraction, a-b-da, 14, 2, 8, 1, 90, 165, 165, 90, 153, 83, 2, 1.00608
153, 1, bw, attraction, a-b-db, 5, 1, 8, 2, 58, 132, 135, 60, 60, 135, 2, 11.1477
153, 1, bw, attraction, a-b-db, 5, 1, 8, 2, 58, 132, 135, 60, 60, 135, 1, 0.593401
153, 1, bw, catch, NA, 999, 999, 8, 3, 74, 121, 125, 130, 195, 120, 3, 1.00719
153, 1, bw, catch, NA, 999, 999, 8, 3, 74, 121, 125, 130, 195, 120, 1, 0.637712
153, 1, bw, filler, NA, 999, 999, 8, 4, 87, 58, 104, 107, 97, 70, 2, 1.25797
153, 1, bw, filler, NA, 999, 999, 8, 4, 87, 58, 104, 107, 97, 70, 1, 1.1662
153, 1, bw, catch, NA, 999, 999, 8, 5, 136, 119, 110, 85, 175, 140, 3, 0.845106
153, 1, bw, catch, NA, 999, 999, 8, 5, 136, 119, 110, 85, 175, 140, 2, 0.754149
153, 1, bw, filler, NA, 999, 999, 8, 6, 65, 99, 109, 91, 166, 187, 3, 0.865837
153, 1, bw, filler, NA, 999, 999, 8, 6, 65, 99, 109, 91, 166, 187, 1, 0.870171
153, 1, bw, attraction, a-b-da, 5, 2, 8, 7, 90, 165, 161, 88, 165, 90, 2, 3.35337
153, 1, bw, attraction, a-b-da, 5, 2, 8, 7, 90, 165, 161, 88, 165, 90, 3, 0.657525
153, 1, bw, attraction, a-b-da, 5, 3, 8, 8, 120, 195, 190, 117, 195, 120, 3, 0.956712
153, 1, bw, attraction, a-b-da, 5, 3, 8, 8, 120, 195, 190, 117, 195, 120, 2, 0.773061
153, 1, bw, attraction, a-b-da, 2, 2, 8, 9, 90, 165, 163, 89, 165, 90, 3, 1.07588
153, 1, bw, attraction, a-b-da, 2, 2, 8, 9, 90, 165, 163, 89, 165, 90, 1, 0.519625
153, 1, bw, attraction, a-b-da, 14, 1, 8, 10, 60, 135, 125, 56, 135, 60, 3, 1.01686
153, 1, bw, attraction, a-b-da, 14, 1, 8, 10, 60, 135, 125, 56, 135, 60, 2, 0.471036
153, 1, bw, attraction, a-b-da, 5, 1, 8, 11, 132, 58, 135, 60, 60, 135, 2, 1.0981
153, 1, bw, attraction, a-b-da, 5, 1, 8, 11, 132, 58, 135, 60, 60, 135, 1, 0.661069
153, 1, bw, attraction, a-b-db, 2, 3, 8, 12, 120, 195, 195, 120, 119, 193, 2, 1.47216
153, 1, bw, attraction, a-b-db, 2, 3, 8, 12, 120, 195, 195, 120, 119, 193, 3, 0.5558
153, 1, bw, attraction, a-b-db, 14, 3, 8, 13, 120, 195, 195, 120, 111, 181, 2, 1.2354
153, 1, bw, attraction, a-b-db, 14, 3, 8, 13, 120, 195, 195, 120, 111, 181, 3, 0.401156
153, 1, bw, filler, NA, 999, 999, 8, 14, 94, 116, 79, 158, 103, 171, 3, 1.0308
153, 1, bw, filler, NA, 999, 999, 8, 14, 94, 116, 79, 158, 103, 171, 1, 0.548457
153, 1, bw, filler, NA, 999, 999, 8, 15, 164, 155, 174, 66, 97, 66, 1, 0.924196
153, 1, bw, filler, NA, 999, 999, 8, 15, 164, 155, 174, 66, 97, 66, 3, 0.950104
153, 1, bw, attraction, a-b-da, 2, 3, 8, 16, 193, 119, 120, 195, 195, 120, 3, 2.54154
153, 1, bw, attraction, a-b-da, 2, 3, 8, 16, 193, 119, 120, 195, 195, 120, 1, 0.878077
153, 1, bw, attraction, a-b-db, 2, 1, 8, 17, 135, 60, 60, 135, 59, 134, 2, 5.59258
153, 1, bw, attraction, a-b-db, 2, 1, 8, 17, 135, 60, 60, 135, 59, 134, 3, 0.774115
153, 1, bw, attraction, a-b-db, 9, 2, 8, 18, 165, 90, 86, 157, 90, 165, 1, 1.74062
153, 1, bw, attraction, a-b-db, 9, 2, 8, 18, 165, 90, 86, 157, 90, 165, 2, 2.15721
153, 1, bw, filler, NA, 999, 999, 8, 19, 57, 170, 137, 119, 125, 107, 2, 0.835676
153, 1, bw, filler, NA, 999, 999, 8, 19, 57, 170, 137, 119, 125, 107, 1, 1.79348
153, 1, bw, attraction, a-b-da, 14, 3, 8, 20, 120, 195, 181, 111, 195, 120, 1, 2.80681
153, 1, bw, attraction, a-b-da, 14, 3, 8, 20, 120, 195, 181, 111, 195, 120, 2, 0.660976
153, 1, bw, attraction, a-b-db, 5, 3, 8, 21, 117, 190, 195, 120, 120, 195, 2, 1.53562
153, 1, bw, attraction, a-b-db, 5, 3, 8, 21, 117, 190, 195, 120, 120, 195, 3, 0.76119
153, 1, bw, filler, NA, 999, 999, 8, 22, 104, 148, 76, 61, 183, 78, 1, 1.20023
153, 1, bw, filler, NA, 999, 999, 8, 22, 104, 148, 76, 61, 183, 78, 2, 1.03922
153, 1, bw, filler, NA, 999, 999, 8, 23, 168, 81, 99, 180, 127, 177, 2, 0.971473
153, 1, bw, filler, NA, 999, 999, 8, 23, 168, 81, 99, 180, 127, 177, 1, 1.01181
153, 1, bw, attraction, a-b-db, 9, 3, 8, 24, 195, 120, 114, 186, 120, 195, 1, 4.56867
153, 1, bw, attraction, a-b-db, 9, 3, 8, 24, 195, 120, 114, 186, 120, 195, 2, 0.784038
153, 1, bw, attraction, a-b-db, 14, 2, 8, 25, 165, 90, 90, 165, 83, 153, 1, 1.2863
153, 1, bw, attraction, a-b-db, 14, 2, 8, 25, 165, 90, 90, 165, 83, 153, 3, 0.649878
153, 1, bw, catch, NA, 999, 999, 8, 26, 116, 79, 143, 112, 142, 173, 3, 1.21359
153, 1, bw, catch, NA, 999, 999, 8, 26, 116, 79, 143, 112, 142, 173, 1, 0.683851
153, 1, bw, attraction, a-b-da, 9, 1, 8, 27, 60, 135, 135, 60, 129, 57, 1, 2.34224
153, 1, bw, attraction, a-b-da, 9, 1, 8, 27, 60, 135, 135, 60, 129, 57, 2, 0.510862
153, 1, bw, attraction, a-b-da, 2, 1, 8, 28, 134, 59, 60, 135, 135, 60, 2, 1.17595
153, 1, bw, attraction, a-b-da, 2, 1, 8, 28, 134, 59, 60, 135, 135, 60, 3, 2.18369
153, 1, bw, attraction, a-b-db, 2, 2, 8, 29, 165, 90, 90, 165, 89, 163, 1, 1.82939
153, 1, bw, attraction, a-b-db, 2, 2, 8, 29, 165, 90, 90, 165, 89, 163, 2, 0.938917
153, 1, bw, filler, NA, 999, 999, 8, 30, 91, 167, 79, 103, 73, 103, 1, 1.53909
153, 1, bw, filler, NA, 999, 999, 8, 30, 91, 167, 79, 103, 73, 103, 2, 3.0522
153, 1, bw, filler, NA, 999, 999, 8, 31, 173, 99, 171, 126, 127, 150, 2, 3.04719
153, 1, bw, filler, NA, 999, 999, 8, 31, 173, 99, 171, 126, 127, 150, 1, 2.77162
153, 1, bw, attraction, a-b-db, 14, 1, 8, 32, 60, 135, 56, 125, 135, 60, 1, 4.36968
153, 1, bw, attraction, a-b-db, 14, 1, 8, 32, 60, 135, 56, 125, 135, 60, 2, 0.521187
153, 1, bw, attraction, a-b-db, 9, 1, 8, 33, 135, 60, 57, 129, 60, 135, 1, 4.69824
153, 1, bw, attraction, a-b-db, 9, 1, 8, 33, 135, 60, 57, 129, 60, 135, 2, 0.828031
153, 1, bw, attraction, a-b-da, 9, 3, 8, 34, 186, 114, 120, 195, 195, 120, 2, 1.00838
153, 1, bw, attraction, a-b-da, 9, 3, 8, 34, 186, 114, 120, 195, 195, 120, 1, 0.726665
153, 1, bw, attraction, a-b-db, 5, 2, 8, 35, 165, 90, 90, 165, 88, 161, 1, 1.55105
153, 1, bw, attraction, a-b-db, 5, 2, 8, 35, 165, 90, 90, 165, 88, 161, 3, 0.87187
153, 1, bw, attraction, a-b-da, 9, 2, 8, 36, 157, 86, 165, 90, 90, 165, 3, 1.32304
153, 1, bw, attraction, a-b-da, 9, 2, 8, 36, 157, 86, 165, 90, 90, 165, 2, 0.75656
153, 1, bw, filler, NA, 999, 999, 8, 37, 109, 175, 101, 65, 174, 176, 3, 0.891416
153, 1, bw, filler, NA, 999, 999, 8, 37, 109, 175, 101, 65, 174, 176, 2, 0.766494
