sub_n, computer_n, bw_cond, effect, set, distance, diag, block_n, trial_n, h1, w1, h2, w2, h3, w3, choice, rt 
178, 1, wb, practice, NA, 999, 999, 0, 1, 106, 168, 185, 96, 128, 179, 2, 9.19868
178, 1, wb, practice, NA, 999, 999, 0, 1, 106, 168, 185, 96, 128, 179, 3, 2.65332
178, 1, wb, practice, NA, 999, 999, 0, 2, 145, 85, 166, 127, 83, 96, 3, 2.77161
178, 1, wb, practice, NA, 999, 999, 0, 2, 145, 85, 166, 127, 83, 96, 2, 2.658
178, 1, wb, practice, NA, 999, 999, 0, 3, 170, 79, 163, 96, 112, 73, 3, 2.16253
178, 1, wb, practice, NA, 999, 999, 0, 3, 170, 79, 163, 96, 112, 73, 2, 2.0094
178, 1, wb, catch, NA, 999, 999, 1, 1, 68, 127, 147, 168, 146, 109, 1, 3.7203
178, 1, wb, catch, NA, 999, 999, 1, 1, 68, 127, 147, 168, 146, 109, 2, 2.04989
178, 1, wb, attraction, a-b-db, 5, 3, 1, 2, 195, 120, 120, 195, 117, 190, 3, 9.27711
178, 1, wb, attraction, a-b-db, 5, 3, 1, 2, 195, 120, 120, 195, 117, 190, 1, 0.774197
178, 1, wb, attraction, a-b-db, 5, 2, 1, 3, 165, 90, 90, 165, 88, 161, 2, 16.2127
178, 1, wb, attraction, a-b-db, 5, 2, 1, 3, 165, 90, 90, 165, 88, 161, 1, 1.54216
178, 1, wb, filler, NA, 999, 999, 1, 4, 177, 156, 129, 147, 159, 129, 2, 7.80574
178, 1, wb, filler, NA, 999, 999, 1, 4, 177, 156, 129, 147, 159, 129, 1, 0.914433
178, 1, wb, attraction, a-b-db, 5, 1, 1, 5, 58, 132, 135, 60, 60, 135, 2, 15.6914
178, 1, wb, attraction, a-b-db, 5, 1, 1, 5, 58, 132, 135, 60, 60, 135, 3, 1.21856
178, 1, wb, attraction, a-b-da, 5, 3, 1, 6, 120, 195, 190, 117, 195, 120, 1, 31.3435
178, 1, wb, attraction, a-b-da, 5, 3, 1, 6, 120, 195, 190, 117, 195, 120, 3, 0.631737
178, 1, wb, catch, NA, 999, 999, 1, 7, 97, 158, 80, 115, 151, 164, 2, 2.44401
178, 1, wb, catch, NA, 999, 999, 1, 7, 97, 158, 80, 115, 151, 164, 3, 0.640522
178, 1, wb, attraction, a-b-db, 9, 3, 1, 8, 195, 120, 114, 186, 120, 195, 2, 11.1884
178, 1, wb, attraction, a-b-db, 9, 3, 1, 8, 195, 120, 114, 186, 120, 195, 3, 0.344863
178, 1, wb, attraction, a-b-da, 14, 1, 1, 9, 135, 60, 125, 56, 60, 135, 1, 1.76072
178, 1, wb, attraction, a-b-da, 14, 1, 1, 9, 135, 60, 125, 56, 60, 135, 3, 2.72074
178, 1, wb, attraction, a-b-da, 5, 1, 1, 10, 60, 135, 135, 60, 132, 58, 3, 16.5292
178, 1, wb, attraction, a-b-da, 5, 1, 1, 10, 60, 135, 135, 60, 132, 58, 2, 4.47797
178, 1, wb, filler, NA, 999, 999, 1, 11, 153, 63, 80, 62, 86, 107, 2, 2.38314
178, 1, wb, filler, NA, 999, 999, 1, 11, 153, 63, 80, 62, 86, 107, 3, 23.6544
178, 1, wb, attraction, a-b-db, 9, 1, 1, 12, 135, 60, 60, 135, 57, 129, 1, 6.16281
178, 1, wb, attraction, a-b-db, 9, 1, 1, 12, 135, 60, 60, 135, 57, 129, 3, 19.2897
178, 1, wb, attraction, a-b-da, 5, 2, 1, 13, 161, 88, 90, 165, 165, 90, 1, 38.8783
178, 1, wb, attraction, a-b-da, 5, 2, 1, 13, 161, 88, 90, 165, 165, 90, 3, 0.50278
178, 1, wb, attraction, a-b-da, 14, 3, 1, 14, 181, 111, 195, 120, 120, 195, 2, 22.9685
178, 1, wb, attraction, a-b-da, 14, 3, 1, 14, 181, 111, 195, 120, 120, 195, 3, 0.777971
178, 1, wb, attraction, a-b-da, 2, 3, 1, 15, 195, 120, 193, 119, 120, 195, 3, 0.976379
178, 1, wb, attraction, a-b-da, 2, 3, 1, 15, 195, 120, 193, 119, 120, 195, 2, 0.472036
178, 1, wb, attraction, a-b-db, 14, 3, 1, 16, 120, 195, 111, 181, 195, 120, 1, 1.51511
178, 1, wb, attraction, a-b-db, 14, 3, 1, 16, 120, 195, 111, 181, 195, 120, 3, 1.04534
178, 1, wb, attraction, a-b-db, 9, 2, 1, 17, 90, 165, 86, 157, 165, 90, 2, 1.16086
178, 1, wb, attraction, a-b-db, 9, 2, 1, 17, 90, 165, 86, 157, 165, 90, 3, 0.713146
178, 1, wb, filler, NA, 999, 999, 1, 18, 111, 102, 114, 154, 148, 114, 1, 3.21019
178, 1, wb, filler, NA, 999, 999, 1, 18, 111, 102, 114, 154, 148, 114, 3, 3.43194
178, 1, wb, filler, NA, 999, 999, 1, 19, 79, 58, 189, 122, 89, 107, 1, 1.26738
178, 1, wb, filler, NA, 999, 999, 1, 19, 79, 58, 189, 122, 89, 107, 2, 0.863635
178, 1, wb, catch, NA, 999, 999, 1, 20, 110, 85, 178, 137, 97, 158, 1, 1.52261
178, 1, wb, catch, NA, 999, 999, 1, 20, 110, 85, 178, 137, 97, 158, 2, 0.468138
178, 1, wb, attraction, a-b-da, 2, 2, 1, 21, 163, 89, 90, 165, 165, 90, 1, 3.19936
178, 1, wb, attraction, a-b-da, 2, 2, 1, 21, 163, 89, 90, 165, 165, 90, 2, 0.797684
178, 1, wb, attraction, a-b-da, 9, 3, 1, 22, 120, 195, 186, 114, 195, 120, 1, 10.0833
178, 1, wb, attraction, a-b-da, 9, 3, 1, 22, 120, 195, 186, 114, 195, 120, 2, 0.604044
178, 1, wb, filler, NA, 999, 999, 1, 23, 148, 169, 91, 178, 117, 61, 3, 1.02582
178, 1, wb, filler, NA, 999, 999, 1, 23, 148, 169, 91, 178, 117, 61, 1, 0.663532
178, 1, wb, filler, NA, 999, 999, 1, 24, 105, 169, 94, 118, 160, 94, 2, 1.47447
178, 1, wb, filler, NA, 999, 999, 1, 24, 105, 169, 94, 118, 160, 94, 3, 0.566083
178, 1, wb, filler, NA, 999, 999, 1, 25, 183, 109, 155, 136, 84, 157, 3, 2.81324
178, 1, wb, filler, NA, 999, 999, 1, 25, 183, 109, 155, 136, 84, 157, 2, 0.482918
178, 1, wb, attraction, a-b-db, 14, 2, 1, 26, 83, 153, 90, 165, 165, 90, 3, 5.12546
178, 1, wb, attraction, a-b-db, 14, 2, 1, 26, 83, 153, 90, 165, 165, 90, 2, 0.709852
178, 1, wb, filler, NA, 999, 999, 1, 27, 126, 154, 66, 180, 174, 150, 2, 3.12682
178, 1, wb, filler, NA, 999, 999, 1, 27, 126, 154, 66, 180, 174, 150, 3, 0.455838
178, 1, wb, attraction, a-b-da, 9, 2, 1, 28, 157, 86, 90, 165, 165, 90, 1, 0.867636
178, 1, wb, attraction, a-b-da, 9, 2, 1, 28, 157, 86, 90, 165, 165, 90, 2, 0.519969
178, 1, wb, filler, NA, 999, 999, 1, 29, 156, 188, 122, 103, 57, 90, 3, 0.79313
178, 1, wb, filler, NA, 999, 999, 1, 29, 156, 188, 122, 103, 57, 90, 1, 0.648234
178, 1, wb, attraction, a-b-da, 2, 1, 1, 30, 134, 59, 60, 135, 135, 60, 3, 1.24384
178, 1, wb, attraction, a-b-da, 2, 1, 1, 30, 134, 59, 60, 135, 135, 60, 2, 0.920886
178, 1, wb, attraction, a-b-da, 14, 2, 1, 31, 165, 90, 153, 83, 90, 165, 1, 0.761794
178, 1, wb, attraction, a-b-da, 14, 2, 1, 31, 165, 90, 153, 83, 90, 165, 3, 0.610299
178, 1, wb, attraction, a-b-db, 14, 1, 1, 32, 56, 125, 135, 60, 60, 135, 2, 0.735294
178, 1, wb, attraction, a-b-db, 14, 1, 1, 32, 56, 125, 135, 60, 60, 135, 1, 0.537182
178, 1, wb, attraction, a-b-db, 2, 3, 1, 33, 119, 193, 195, 120, 120, 195, 1, 2.74541
178, 1, wb, attraction, a-b-db, 2, 3, 1, 33, 119, 193, 195, 120, 120, 195, 2, 0.553859
178, 1, wb, attraction, a-b-db, 2, 1, 1, 34, 59, 134, 60, 135, 135, 60, 1, 3.13771
178, 1, wb, attraction, a-b-db, 2, 1, 1, 34, 59, 134, 60, 135, 135, 60, 3, 0.914658
178, 1, wb, attraction, a-b-da, 9, 1, 1, 35, 135, 60, 60, 135, 129, 57, 1, 1.6036
178, 1, wb, attraction, a-b-da, 9, 1, 1, 35, 135, 60, 60, 135, 129, 57, 3, 1.03448
178, 1, wb, attraction, a-b-db, 2, 2, 1, 36, 90, 165, 89, 163, 165, 90, 3, 1.95877
178, 1, wb, attraction, a-b-db, 2, 2, 1, 36, 90, 165, 89, 163, 165, 90, 2, 1.29487
178, 1, wb, filler, NA, 999, 999, 1, 37, 181, 155, 77, 101, 78, 115, 2, 2.44837
178, 1, wb, filler, NA, 999, 999, 1, 37, 181, 155, 77, 101, 78, 115, 1, 0.70893
178, 1, wb, filler, NA, 999, 999, 2, 1, 69, 172, 111, 112, 101, 195, 1, 39.6699
178, 1, wb, filler, NA, 999, 999, 2, 1, 69, 172, 111, 112, 101, 195, 3, 0.57418
178, 1, wb, filler, NA, 999, 999, 2, 2, 138, 77, 122, 109, 149, 145, 1, 3.58864
178, 1, wb, filler, NA, 999, 999, 2, 2, 138, 77, 122, 109, 149, 145, 3, 0.651486
178, 1, wb, attraction, a-b-da, 5, 1, 2, 3, 60, 135, 135, 60, 132, 58, 1, 0.975224
178, 1, wb, attraction, a-b-da, 5, 1, 2, 3, 60, 135, 135, 60, 132, 58, 2, 0.910925
178, 1, wb, filler, NA, 999, 999, 2, 4, 144, 101, 112, 74, 190, 177, 2, 3.34403
178, 1, wb, filler, NA, 999, 999, 2, 4, 144, 101, 112, 74, 190, 177, 3, 0.480133
178, 1, wb, attraction, a-b-da, 5, 2, 2, 5, 165, 90, 90, 165, 161, 88, 1, 0.914589
178, 1, wb, attraction, a-b-da, 5, 2, 2, 5, 165, 90, 90, 165, 161, 88, 2, 1.32496
178, 1, wb, catch, NA, 999, 999, 2, 6, 176, 139, 129, 126, 69, 126, 3, 1.54132
178, 1, wb, catch, NA, 999, 999, 2, 6, 176, 139, 129, 126, 69, 126, 1, 0.918167
178, 1, wb, catch, NA, 999, 999, 2, 7, 133, 182, 164, 91, 120, 75, 3, 36.2068
178, 1, wb, catch, NA, 999, 999, 2, 7, 133, 182, 164, 91, 120, 75, 1, 0.690985
178, 1, wb, attraction, a-b-da, 14, 3, 2, 8, 181, 111, 120, 195, 195, 120, 1, 3.18864
178, 1, wb, attraction, a-b-da, 14, 3, 2, 8, 181, 111, 120, 195, 195, 120, 3, 0.731077
178, 1, wb, attraction, a-b-da, 14, 1, 2, 9, 125, 56, 60, 135, 135, 60, 1, 2.21128
178, 1, wb, attraction, a-b-da, 14, 1, 2, 9, 125, 56, 60, 135, 135, 60, 3, 0.641233
178, 1, wb, attraction, a-b-da, 14, 2, 2, 10, 165, 90, 90, 165, 153, 83, 1, 1.67707
178, 1, wb, attraction, a-b-da, 14, 2, 2, 10, 165, 90, 90, 165, 153, 83, 2, 0.760527
178, 1, wb, attraction, a-b-da, 2, 2, 2, 11, 165, 90, 163, 89, 90, 165, 1, 1.1516
178, 1, wb, attraction, a-b-da, 2, 2, 2, 11, 165, 90, 163, 89, 90, 165, 3, 0.536547
178, 1, wb, attraction, a-b-db, 2, 3, 2, 12, 119, 193, 195, 120, 120, 195, 2, 1.10497
178, 1, wb, attraction, a-b-db, 2, 3, 2, 12, 119, 193, 195, 120, 120, 195, 3, 1.24326
178, 1, wb, attraction, a-b-da, 2, 3, 2, 13, 120, 195, 195, 120, 193, 119, 3, 2.24672
178, 1, wb, attraction, a-b-da, 2, 3, 2, 13, 120, 195, 195, 120, 193, 119, 2, 0.547354
178, 1, wb, attraction, a-b-db, 14, 3, 2, 14, 195, 120, 120, 195, 111, 181, 3, 2.77912
178, 1, wb, attraction, a-b-db, 14, 3, 2, 14, 195, 120, 120, 195, 111, 181, 2, 0.610262
178, 1, wb, attraction, a-b-db, 2, 2, 2, 15, 89, 163, 90, 165, 165, 90, 2, 1.98338
178, 1, wb, attraction, a-b-db, 2, 2, 2, 15, 89, 163, 90, 165, 165, 90, 3, 0.51063
178, 1, wb, filler, NA, 999, 999, 2, 16, 101, 101, 157, 166, 137, 121, 1, 1.46381
178, 1, wb, filler, NA, 999, 999, 2, 16, 101, 101, 157, 166, 137, 121, 2, 1.12393
178, 1, wb, attraction, a-b-da, 2, 1, 2, 17, 60, 135, 134, 59, 135, 60, 2, 1.26836
178, 1, wb, attraction, a-b-da, 2, 1, 2, 17, 60, 135, 134, 59, 135, 60, 3, 0.384509
178, 1, wb, attraction, a-b-db, 14, 1, 2, 18, 135, 60, 60, 135, 56, 125, 1, 1.17488
178, 1, wb, attraction, a-b-db, 14, 1, 2, 18, 135, 60, 60, 135, 56, 125, 3, 0.550666
178, 1, wb, attraction, a-b-db, 9, 3, 2, 19, 114, 186, 120, 195, 195, 120, 1, 1.73436
178, 1, wb, attraction, a-b-db, 9, 3, 2, 19, 114, 186, 120, 195, 195, 120, 3, 0.463908
178, 1, wb, attraction, a-b-da, 9, 2, 2, 20, 165, 90, 90, 165, 157, 86, 1, 0.938803
178, 1, wb, attraction, a-b-da, 9, 2, 2, 20, 165, 90, 90, 165, 157, 86, 2, 0.915913
178, 1, wb, filler, NA, 999, 999, 2, 21, 72, 151, 64, 191, 101, 134, 2, 13.205
178, 1, wb, filler, NA, 999, 999, 2, 21, 72, 151, 64, 191, 101, 134, 3, 0.864211
178, 1, wb, attraction, a-b-da, 9, 3, 2, 22, 186, 114, 120, 195, 195, 120, 1, 1.05901
178, 1, wb, attraction, a-b-da, 9, 3, 2, 22, 186, 114, 120, 195, 195, 120, 2, 0.527392
178, 1, wb, filler, NA, 999, 999, 2, 23, 120, 111, 176, 112, 179, 106, 1, 3.0638
178, 1, wb, filler, NA, 999, 999, 2, 23, 120, 111, 176, 112, 179, 106, 2, 0.475454
178, 1, wb, filler, NA, 999, 999, 2, 24, 85, 152, 57, 131, 112, 163, 2, 1.21406
178, 1, wb, filler, NA, 999, 999, 2, 24, 85, 152, 57, 131, 112, 163, 3, 0.764302
178, 1, wb, attraction, a-b-db, 5, 2, 2, 25, 90, 165, 88, 161, 165, 90, 1, 0.843208
178, 1, wb, attraction, a-b-db, 5, 2, 2, 25, 90, 165, 88, 161, 165, 90, 2, 0.528399
178, 1, wb, attraction, a-b-db, 5, 3, 2, 26, 195, 120, 117, 190, 120, 195, 2, 1.56885
178, 1, wb, attraction, a-b-db, 5, 3, 2, 26, 195, 120, 117, 190, 120, 195, 3, 1.11294
178, 1, wb, attraction, a-b-da, 9, 1, 2, 27, 129, 57, 135, 60, 60, 135, 2, 11.5938
178, 1, wb, attraction, a-b-da, 9, 1, 2, 27, 129, 57, 135, 60, 60, 135, 3, 0.693461
178, 1, wb, attraction, a-b-db, 9, 2, 2, 28, 165, 90, 86, 157, 90, 165, 2, 1.07926
178, 1, wb, attraction, a-b-db, 9, 2, 2, 28, 165, 90, 86, 157, 90, 165, 1, 0.834928
178, 1, wb, attraction, a-b-db, 9, 1, 2, 29, 135, 60, 60, 135, 57, 129, 2, 27.1192
178, 1, wb, attraction, a-b-db, 9, 1, 2, 29, 135, 60, 60, 135, 57, 129, 3, 0.617465
178, 1, wb, filler, NA, 999, 999, 2, 30, 171, 154, 146, 148, 83, 159, 3, 2.42259
178, 1, wb, filler, NA, 999, 999, 2, 30, 171, 154, 146, 148, 83, 159, 1, 0.659626
178, 1, wb, attraction, a-b-da, 5, 3, 2, 31, 195, 120, 120, 195, 190, 117, 2, 1.15867
178, 1, wb, attraction, a-b-da, 5, 3, 2, 31, 195, 120, 120, 195, 190, 117, 3, 2.91096
178, 1, wb, attraction, a-b-db, 5, 1, 2, 32, 58, 132, 60, 135, 135, 60, 2, 1.53539
178, 1, wb, attraction, a-b-db, 5, 1, 2, 32, 58, 132, 60, 135, 135, 60, 1, 7.72095
178, 1, wb, filler, NA, 999, 999, 2, 33, 56, 72, 145, 95, 69, 109, 1, 1.09566
178, 1, wb, filler, NA, 999, 999, 2, 33, 56, 72, 145, 95, 69, 109, 2, 0.626747
178, 1, wb, attraction, a-b-db, 2, 1, 2, 34, 135, 60, 59, 134, 60, 135, 1, 1.32722
178, 1, wb, attraction, a-b-db, 2, 1, 2, 34, 135, 60, 59, 134, 60, 135, 2, 0.64871
178, 1, wb, attraction, a-b-db, 14, 2, 2, 35, 90, 165, 83, 153, 165, 90, 2, 2.69247
178, 1, wb, attraction, a-b-db, 14, 2, 2, 35, 90, 165, 83, 153, 165, 90, 3, 1.02303
178, 1, wb, filler, NA, 999, 999, 2, 36, 67, 86, 125, 100, 102, 132, 1, 3.20379
178, 1, wb, filler, NA, 999, 999, 2, 36, 67, 86, 125, 100, 102, 132, 3, 1.44229
178, 1, wb, catch, NA, 999, 999, 2, 37, 158, 97, 94, 101, 133, 182, 2, 3.02968
178, 1, wb, catch, NA, 999, 999, 2, 37, 158, 97, 94, 101, 133, 182, 3, 1.49861
178, 1, wb, attraction, a-b-db, 2, 1, 3, 1, 59, 134, 60, 135, 135, 60, 1, 1.96417
178, 1, wb, attraction, a-b-db, 2, 1, 3, 1, 59, 134, 60, 135, 135, 60, 2, 1.30812
178, 1, wb, attraction, a-b-db, 5, 3, 3, 2, 117, 190, 195, 120, 120, 195, 2, 1.59714
178, 1, wb, attraction, a-b-db, 5, 3, 3, 2, 117, 190, 195, 120, 120, 195, 1, 1.21182
178, 1, wb, attraction, a-b-db, 2, 2, 3, 3, 89, 163, 90, 165, 165, 90, 3, 1.0568
178, 1, wb, attraction, a-b-db, 2, 2, 3, 3, 89, 163, 90, 165, 165, 90, 2, 0.781056
178, 1, wb, attraction, a-b-da, 14, 2, 3, 4, 90, 165, 153, 83, 165, 90, 2, 1.4915
178, 1, wb, attraction, a-b-da, 14, 2, 3, 4, 90, 165, 153, 83, 165, 90, 3, 0.798357
178, 1, wb, attraction, a-b-da, 14, 1, 3, 5, 135, 60, 125, 56, 60, 135, 1, 1.38791
178, 1, wb, attraction, a-b-da, 14, 1, 3, 5, 135, 60, 125, 56, 60, 135, 2, 1.1236
178, 1, wb, attraction, a-b-da, 9, 3, 3, 6, 195, 120, 120, 195, 186, 114, 1, 0.995723
178, 1, wb, attraction, a-b-da, 9, 3, 3, 6, 195, 120, 120, 195, 186, 114, 2, 0.602715
178, 1, wb, attraction, a-b-db, 14, 1, 3, 7, 135, 60, 56, 125, 60, 135, 3, 0.84846
178, 1, wb, attraction, a-b-db, 14, 1, 3, 7, 135, 60, 56, 125, 60, 135, 2, 0.669523
178, 1, wb, attraction, a-b-da, 5, 2, 3, 8, 90, 165, 165, 90, 161, 88, 1, 1.1366
178, 1, wb, attraction, a-b-da, 5, 2, 3, 8, 90, 165, 165, 90, 161, 88, 2, 0.874313
178, 1, wb, attraction, a-b-da, 5, 1, 3, 9, 60, 135, 135, 60, 132, 58, 2, 0.956551
178, 1, wb, attraction, a-b-da, 5, 1, 3, 9, 60, 135, 135, 60, 132, 58, 3, 0.604981
178, 1, wb, attraction, a-b-db, 9, 2, 3, 10, 90, 165, 165, 90, 86, 157, 2, 0.946701
178, 1, wb, attraction, a-b-db, 9, 2, 3, 10, 90, 165, 165, 90, 86, 157, 1, 0.603683
178, 1, wb, filler, NA, 999, 999, 3, 11, 167, 148, 131, 62, 157, 181, 2, 1.76939
178, 1, wb, filler, NA, 999, 999, 3, 11, 167, 148, 131, 62, 157, 181, 3, 1.20156
178, 1, wb, filler, NA, 999, 999, 3, 12, 168, 121, 131, 159, 189, 138, 1, 3.76703
178, 1, wb, filler, NA, 999, 999, 3, 12, 168, 121, 131, 159, 189, 138, 3, 0.902609
178, 1, wb, attraction, a-b-da, 14, 3, 3, 13, 195, 120, 120, 195, 181, 111, 3, 3.24018
178, 1, wb, attraction, a-b-da, 14, 3, 3, 13, 195, 120, 120, 195, 181, 111, 1, 1.38853
178, 1, wb, filler, NA, 999, 999, 3, 14, 193, 75, 63, 115, 123, 74, 2, 1.19471
178, 1, wb, filler, NA, 999, 999, 3, 14, 193, 75, 63, 115, 123, 74, 1, 2.90562
178, 1, wb, attraction, a-b-db, 2, 3, 3, 15, 119, 193, 120, 195, 195, 120, 2, 3.33861
178, 1, wb, attraction, a-b-db, 2, 3, 3, 15, 119, 193, 120, 195, 195, 120, 3, 0.355644
178, 1, wb, filler, NA, 999, 999, 3, 16, 95, 117, 129, 90, 154, 173, 1, 12.9954
178, 1, wb, filler, NA, 999, 999, 3, 16, 95, 117, 129, 90, 154, 173, 3, 0.574636
178, 1, wb, attraction, a-b-da, 5, 3, 3, 17, 190, 117, 195, 120, 120, 195, 2, 4.12509
178, 1, wb, attraction, a-b-da, 5, 3, 3, 17, 190, 117, 195, 120, 120, 195, 3, 0.437866
178, 1, wb, attraction, a-b-db, 9, 3, 3, 18, 195, 120, 114, 186, 120, 195, 2, 2.23432
178, 1, wb, attraction, a-b-db, 9, 3, 3, 18, 195, 120, 114, 186, 120, 195, 3, 0.479511
178, 1, wb, attraction, a-b-da, 2, 2, 3, 19, 165, 90, 163, 89, 90, 165, 2, 1.75394
178, 1, wb, attraction, a-b-da, 2, 2, 3, 19, 165, 90, 163, 89, 90, 165, 3, 0.65074
178, 1, wb, filler, NA, 999, 999, 3, 20, 179, 94, 68, 103, 155, 124, 2, 2.32663
178, 1, wb, filler, NA, 999, 999, 3, 20, 179, 94, 68, 103, 155, 124, 3, 0.92773
178, 1, wb, attraction, a-b-db, 9, 1, 3, 21, 60, 135, 57, 129, 135, 60, 2, 1.51212
178, 1, wb, attraction, a-b-db, 9, 1, 3, 21, 60, 135, 57, 129, 135, 60, 1, 0.578269
178, 1, wb, attraction, a-b-da, 2, 1, 3, 22, 135, 60, 60, 135, 134, 59, 2, 1.38456
178, 1, wb, attraction, a-b-da, 2, 1, 3, 22, 135, 60, 60, 135, 134, 59, 1, 0.464343
178, 1, wb, filler, NA, 999, 999, 3, 23, 104, 88, 69, 177, 155, 157, 1, 1.1793
178, 1, wb, filler, NA, 999, 999, 3, 23, 104, 88, 69, 177, 155, 157, 3, 2.97907
178, 1, wb, attraction, a-b-da, 2, 3, 3, 24, 195, 120, 193, 119, 120, 195, 1, 4.91256
178, 1, wb, attraction, a-b-da, 2, 3, 3, 24, 195, 120, 193, 119, 120, 195, 2, 0.705814
178, 1, wb, attraction, a-b-da, 9, 1, 3, 25, 135, 60, 60, 135, 129, 57, 2, 0.939319
178, 1, wb, attraction, a-b-da, 9, 1, 3, 25, 135, 60, 60, 135, 129, 57, 1, 0.756363
178, 1, wb, filler, NA, 999, 999, 3, 26, 136, 121, 172, 140, 83, 131, 3, 2.17208
178, 1, wb, filler, NA, 999, 999, 3, 26, 136, 121, 172, 140, 83, 131, 2, 0.371481
178, 1, wb, filler, NA, 999, 999, 3, 27, 109, 142, 106, 142, 169, 92, 2, 37.8505
178, 1, wb, filler, NA, 999, 999, 3, 27, 109, 142, 106, 142, 169, 92, 3, 0.444026
178, 1, wb, filler, NA, 999, 999, 3, 28, 79, 94, 169, 193, 160, 85, 1, 1.49575
178, 1, wb, filler, NA, 999, 999, 3, 28, 79, 94, 169, 193, 160, 85, 2, 0.458683
178, 1, wb, attraction, a-b-db, 14, 3, 3, 29, 111, 181, 195, 120, 120, 195, 2, 0.861828
178, 1, wb, attraction, a-b-db, 14, 3, 3, 29, 111, 181, 195, 120, 120, 195, 1, 0.370116
178, 1, wb, catch, NA, 999, 999, 3, 30, 87, 108, 126, 189, 139, 116, 1, 1.43334
178, 1, wb, catch, NA, 999, 999, 3, 30, 87, 108, 126, 189, 139, 116, 2, 0.60687
178, 1, wb, catch, NA, 999, 999, 3, 31, 133, 182, 103, 92, 164, 91, 2, 1.49198
178, 1, wb, catch, NA, 999, 999, 3, 31, 133, 182, 103, 92, 164, 91, 1, 1.28684
178, 1, wb, filler, NA, 999, 999, 3, 32, 86, 65, 190, 62, 96, 105, 1, 1.01702
178, 1, wb, filler, NA, 999, 999, 3, 32, 86, 65, 190, 62, 96, 105, 2, 2.27134
178, 1, wb, attraction, a-b-db, 5, 1, 3, 33, 135, 60, 60, 135, 58, 132, 1, 1.0019
178, 1, wb, attraction, a-b-db, 5, 1, 3, 33, 135, 60, 60, 135, 58, 132, 2, 0.760887
178, 1, wb, attraction, a-b-db, 14, 2, 3, 34, 90, 165, 83, 153, 165, 90, 2, 1.80011
178, 1, wb, attraction, a-b-db, 14, 2, 3, 34, 90, 165, 83, 153, 165, 90, 1, 0.550757
178, 1, wb, catch, NA, 999, 999, 3, 35, 184, 131, 121, 74, 112, 143, 2, 1.26238
178, 1, wb, catch, NA, 999, 999, 3, 35, 184, 131, 121, 74, 112, 143, 1, 0.722607
178, 1, wb, attraction, a-b-da, 9, 2, 3, 36, 90, 165, 157, 86, 165, 90, 2, 1.17972
178, 1, wb, attraction, a-b-da, 9, 2, 3, 36, 90, 165, 157, 86, 165, 90, 1, 0.95548
178, 1, wb, attraction, a-b-db, 5, 2, 3, 37, 165, 90, 88, 161, 90, 165, 3, 1.77907
178, 1, wb, attraction, a-b-db, 5, 2, 3, 37, 165, 90, 88, 161, 90, 165, 2, 0.722368
178, 1, wb, attraction, a-b-da, 9, 2, 4, 1, 165, 90, 90, 165, 157, 86, 1, 1.29954
178, 1, wb, attraction, a-b-da, 9, 2, 4, 1, 165, 90, 90, 165, 157, 86, 2, 0.654307
178, 1, wb, filler, NA, 999, 999, 4, 2, 98, 84, 96, 183, 108, 189, 1, 0.994183
178, 1, wb, filler, NA, 999, 999, 4, 2, 98, 84, 96, 183, 108, 189, 2, 0.489139
178, 1, wb, catch, NA, 999, 999, 4, 3, 131, 64, 160, 155, 127, 128, 1, 1.31553
178, 1, wb, catch, NA, 999, 999, 4, 3, 131, 64, 160, 155, 127, 128, 2, 0.421725
178, 1, wb, catch, NA, 999, 999, 4, 4, 165, 150, 163, 92, 92, 103, 3, 0.922959
178, 1, wb, catch, NA, 999, 999, 4, 4, 165, 150, 163, 92, 92, 103, 1, 0.340588
178, 1, wb, catch, NA, 999, 999, 4, 5, 137, 178, 92, 103, 136, 119, 2, 0.900407
178, 1, wb, catch, NA, 999, 999, 4, 5, 137, 178, 92, 103, 136, 119, 1, 1.23154
178, 1, wb, attraction, a-b-db, 2, 2, 4, 6, 90, 165, 89, 163, 165, 90, 2, 0.683741
178, 1, wb, attraction, a-b-db, 2, 2, 4, 6, 90, 165, 89, 163, 165, 90, 3, 0.327419
178, 1, wb, attraction, a-b-da, 14, 3, 4, 7, 120, 195, 195, 120, 181, 111, 2, 0.719893
178, 1, wb, attraction, a-b-da, 14, 3, 4, 7, 120, 195, 195, 120, 181, 111, 1, 0.266362
178, 1, wb, filler, NA, 999, 999, 4, 8, 115, 187, 114, 177, 175, 89, 2, 0.60554
178, 1, wb, filler, NA, 999, 999, 4, 8, 115, 187, 114, 177, 175, 89, 1, 7.39611
178, 1, wb, attraction, a-b-da, 5, 3, 4, 9, 195, 120, 190, 117, 120, 195, 2, 3.21566
178, 1, wb, attraction, a-b-da, 5, 3, 4, 9, 195, 120, 190, 117, 120, 195, 3, 0.453374
178, 1, wb, attraction, a-b-da, 5, 2, 4, 10, 165, 90, 161, 88, 90, 165, 1, 0.785177
178, 1, wb, attraction, a-b-da, 5, 2, 4, 10, 165, 90, 161, 88, 90, 165, 2, 0.600869
178, 1, wb, filler, NA, 999, 999, 4, 11, 117, 105, 191, 125, 105, 72, 3, 0.590516
178, 1, wb, filler, NA, 999, 999, 4, 11, 117, 105, 191, 125, 105, 72, 2, 0.613697
178, 1, wb, attraction, a-b-da, 14, 2, 4, 12, 90, 165, 153, 83, 165, 90, 2, 1.13071
178, 1, wb, attraction, a-b-da, 14, 2, 4, 12, 90, 165, 153, 83, 165, 90, 1, 1.1564
178, 1, wb, filler, NA, 999, 999, 4, 13, 110, 144, 76, 82, 91, 150, 2, 0.70795
178, 1, wb, filler, NA, 999, 999, 4, 13, 110, 144, 76, 82, 91, 150, 1, 1.56642
178, 1, wb, filler, NA, 999, 999, 4, 14, 154, 134, 130, 59, 91, 160, 2, 1.58915
178, 1, wb, filler, NA, 999, 999, 4, 14, 154, 134, 130, 59, 91, 160, 1, 0.364091
178, 1, wb, attraction, a-b-da, 2, 1, 4, 15, 134, 59, 60, 135, 135, 60, 2, 0.739131
178, 1, wb, attraction, a-b-da, 2, 1, 4, 15, 134, 59, 60, 135, 135, 60, 3, 0.380244
178, 1, wb, attraction, a-b-db, 2, 1, 4, 16, 59, 134, 135, 60, 60, 135, 2, 0.738799
178, 1, wb, attraction, a-b-db, 2, 1, 4, 16, 59, 134, 135, 60, 60, 135, 1, 0.587722
178, 1, wb, filler, NA, 999, 999, 4, 17, 177, 160, 162, 99, 179, 180, 2, 2.55412
178, 1, wb, filler, NA, 999, 999, 4, 17, 177, 160, 162, 99, 179, 180, 3, 2.16207
178, 1, wb, attraction, a-b-da, 9, 3, 4, 18, 195, 120, 186, 114, 120, 195, 2, 0.880577
178, 1, wb, attraction, a-b-da, 9, 3, 4, 18, 195, 120, 186, 114, 120, 195, 3, 0.420805
178, 1, wb, attraction, a-b-db, 14, 3, 4, 19, 195, 120, 111, 181, 120, 195, 2, 1.35341
178, 1, wb, attraction, a-b-db, 14, 3, 4, 19, 195, 120, 111, 181, 120, 195, 3, 0.282524
178, 1, wb, attraction, a-b-db, 5, 3, 4, 20, 117, 190, 120, 195, 195, 120, 2, 1.46896
178, 1, wb, attraction, a-b-db, 5, 3, 4, 20, 117, 190, 120, 195, 195, 120, 1, 0.257081
178, 1, wb, attraction, a-b-db, 9, 1, 4, 21, 57, 129, 60, 135, 135, 60, 2, 2.1322
178, 1, wb, attraction, a-b-db, 9, 1, 4, 21, 57, 129, 60, 135, 135, 60, 1, 0.509624
178, 1, wb, attraction, a-b-db, 9, 3, 4, 22, 120, 195, 114, 186, 195, 120, 1, 1.31063
178, 1, wb, attraction, a-b-db, 9, 3, 4, 22, 120, 195, 114, 186, 195, 120, 2, 0.736912
178, 1, wb, filler, NA, 999, 999, 4, 23, 165, 95, 162, 72, 118, 129, 2, 23.3533
178, 1, wb, filler, NA, 999, 999, 4, 23, 165, 95, 162, 72, 118, 129, 3, 0.699286
178, 1, wb, filler, NA, 999, 999, 4, 24, 168, 195, 155, 154, 70, 195, 3, 1.75697
178, 1, wb, filler, NA, 999, 999, 4, 24, 168, 195, 155, 154, 70, 195, 1, 0.47712
178, 1, wb, attraction, a-b-db, 9, 2, 4, 25, 165, 90, 90, 165, 86, 157, 2, 1.31961
178, 1, wb, attraction, a-b-db, 9, 2, 4, 25, 165, 90, 90, 165, 86, 157, 3, 0.521814
178, 1, wb, attraction, a-b-db, 5, 2, 4, 26, 90, 165, 165, 90, 88, 161, 2, 16.307
178, 1, wb, attraction, a-b-db, 5, 2, 4, 26, 90, 165, 165, 90, 88, 161, 1, 0.745149
178, 1, wb, filler, NA, 999, 999, 4, 27, 83, 181, 140, 140, 92, 83, 3, 1.23306
178, 1, wb, filler, NA, 999, 999, 4, 27, 83, 181, 140, 140, 92, 83, 2, 0.6784
178, 1, wb, attraction, a-b-da, 5, 1, 4, 28, 132, 58, 135, 60, 60, 135, 1, 1.1449
178, 1, wb, attraction, a-b-da, 5, 1, 4, 28, 132, 58, 135, 60, 60, 135, 2, 0.673804
178, 1, wb, attraction, a-b-db, 2, 3, 4, 29, 195, 120, 120, 195, 119, 193, 3, 8.33218
178, 1, wb, attraction, a-b-db, 2, 3, 4, 29, 195, 120, 120, 195, 119, 193, 2, 0.483535
178, 1, wb, filler, NA, 999, 999, 4, 30, 68, 180, 136, 130, 139, 171, 1, 8.30989
178, 1, wb, filler, NA, 999, 999, 4, 30, 68, 180, 136, 130, 139, 171, 3, 0.614084
178, 1, wb, attraction, a-b-da, 2, 2, 4, 31, 90, 165, 163, 89, 165, 90, 2, 3.26721
178, 1, wb, attraction, a-b-da, 2, 2, 4, 31, 90, 165, 163, 89, 165, 90, 3, 0.470765
178, 1, wb, attraction, a-b-db, 5, 1, 4, 32, 58, 132, 60, 135, 135, 60, 3, 1.66602
178, 1, wb, attraction, a-b-db, 5, 1, 4, 32, 58, 132, 60, 135, 135, 60, 2, 1.01401
178, 1, wb, attraction, a-b-db, 14, 2, 4, 33, 165, 90, 83, 153, 90, 165, 2, 1.69895
178, 1, wb, attraction, a-b-db, 14, 2, 4, 33, 165, 90, 83, 153, 90, 165, 1, 0.573692
178, 1, wb, attraction, a-b-da, 14, 1, 4, 34, 60, 135, 125, 56, 135, 60, 2, 1.28418
178, 1, wb, attraction, a-b-da, 14, 1, 4, 34, 60, 135, 125, 56, 135, 60, 3, 0.70379
178, 1, wb, attraction, a-b-da, 9, 1, 4, 35, 60, 135, 135, 60, 129, 57, 2, 1.04157
178, 1, wb, attraction, a-b-da, 9, 1, 4, 35, 60, 135, 135, 60, 129, 57, 3, 0.558448
178, 1, wb, attraction, a-b-db, 14, 1, 4, 36, 135, 60, 56, 125, 60, 135, 2, 3.2216
178, 1, wb, attraction, a-b-db, 14, 1, 4, 36, 135, 60, 56, 125, 60, 135, 3, 0.683116
178, 1, wb, attraction, a-b-da, 2, 3, 4, 37, 193, 119, 120, 195, 195, 120, 2, 1.61354
178, 1, wb, attraction, a-b-da, 2, 3, 4, 37, 193, 119, 120, 195, 195, 120, 1, 0.78769
178, 1, wb, attraction, a-b-da, 9, 2, 5, 1, 165, 90, 157, 86, 90, 165, 2, 6.55206
178, 1, wb, attraction, a-b-da, 9, 2, 5, 1, 165, 90, 157, 86, 90, 165, 3, 0.535277
178, 1, wb, attraction, a-b-db, 5, 3, 5, 2, 120, 195, 117, 190, 195, 120, 2, 2.26371
178, 1, wb, attraction, a-b-db, 5, 3, 5, 2, 120, 195, 117, 190, 195, 120, 3, 0.483705
178, 1, wb, attraction, a-b-da, 2, 1, 5, 3, 135, 60, 60, 135, 134, 59, 2, 1.79006
178, 1, wb, attraction, a-b-da, 2, 1, 5, 3, 135, 60, 60, 135, 134, 59, 1, 0.436792
178, 1, wb, attraction, a-b-da, 14, 2, 5, 4, 165, 90, 90, 165, 153, 83, 2, 5.19329
178, 1, wb, attraction, a-b-da, 14, 2, 5, 4, 165, 90, 90, 165, 153, 83, 1, 0.431141
178, 1, wb, filler, NA, 999, 999, 5, 5, 166, 65, 89, 167, 101, 122, 1, 15.9554
178, 1, wb, filler, NA, 999, 999, 5, 5, 166, 65, 89, 167, 101, 122, 2, 0.415807
178, 1, wb, attraction, a-b-da, 5, 3, 5, 6, 190, 117, 120, 195, 195, 120, 1, 19.469
178, 1, wb, attraction, a-b-da, 5, 3, 5, 6, 190, 117, 120, 195, 195, 120, 2, 0.45947
178, 1, wb, catch, NA, 999, 999, 5, 7, 126, 129, 138, 177, 75, 120, 3, 1.61471
178, 1, wb, catch, NA, 999, 999, 5, 7, 126, 129, 138, 177, 75, 120, 2, 0.764791
178, 1, wb, attraction, a-b-db, 2, 1, 5, 8, 59, 134, 135, 60, 60, 135, 2, 1.3958
178, 1, wb, attraction, a-b-db, 2, 1, 5, 8, 59, 134, 135, 60, 60, 135, 3, 0.642748
178, 1, wb, attraction, a-b-db, 5, 1, 5, 9, 135, 60, 60, 135, 58, 132, 2, 2.15845
178, 1, wb, attraction, a-b-db, 5, 1, 5, 9, 135, 60, 60, 135, 58, 132, 3, 0.718505
178, 1, wb, filler, NA, 999, 999, 5, 10, 162, 175, 175, 188, 76, 120, 3, 1.63145
178, 1, wb, filler, NA, 999, 999, 5, 10, 162, 175, 175, 188, 76, 120, 2, 0.572909
178, 1, wb, attraction, a-b-db, 9, 3, 5, 11, 120, 195, 114, 186, 195, 120, 2, 1.62007
178, 1, wb, attraction, a-b-db, 9, 3, 5, 11, 120, 195, 114, 186, 195, 120, 3, 0.778135
178, 1, wb, attraction, a-b-da, 9, 3, 5, 12, 186, 114, 195, 120, 120, 195, 2, 1.76846
178, 1, wb, attraction, a-b-da, 9, 3, 5, 12, 186, 114, 195, 120, 120, 195, 3, 0.648617
178, 1, wb, filler, NA, 999, 999, 5, 13, 143, 184, 122, 83, 169, 126, 2, 2.35642
178, 1, wb, filler, NA, 999, 999, 5, 13, 143, 184, 122, 83, 169, 126, 3, 3.26029
178, 1, wb, attraction, a-b-da, 5, 2, 5, 14, 161, 88, 165, 90, 90, 165, 2, 1.41451
178, 1, wb, attraction, a-b-da, 5, 2, 5, 14, 161, 88, 165, 90, 90, 165, 3, 0.836827
178, 1, wb, attraction, a-b-db, 14, 3, 5, 15, 120, 195, 195, 120, 111, 181, 2, 1.7611
178, 1, wb, attraction, a-b-db, 14, 3, 5, 15, 120, 195, 195, 120, 111, 181, 1, 0.553156
178, 1, wb, attraction, a-b-db, 2, 3, 5, 16, 120, 195, 195, 120, 119, 193, 2, 5.52893
178, 1, wb, attraction, a-b-db, 2, 3, 5, 16, 120, 195, 195, 120, 119, 193, 1, 1.06524
178, 1, wb, attraction, a-b-db, 14, 1, 5, 17, 135, 60, 60, 135, 56, 125, 2, 1.66019
178, 1, wb, attraction, a-b-db, 14, 1, 5, 17, 135, 60, 60, 135, 56, 125, 3, 0.784316
178, 1, wb, attraction, a-b-db, 9, 1, 5, 18, 60, 135, 135, 60, 57, 129, 2, 1.74264
178, 1, wb, attraction, a-b-db, 9, 1, 5, 18, 60, 135, 135, 60, 57, 129, 1, 0.727298
178, 1, wb, attraction, a-b-db, 5, 2, 5, 19, 165, 90, 88, 161, 90, 165, 2, 1.93566
178, 1, wb, attraction, a-b-db, 5, 2, 5, 19, 165, 90, 88, 161, 90, 165, 3, 0.69707
178, 1, wb, catch, NA, 999, 999, 5, 20, 127, 128, 191, 124, 121, 74, 3, 1.66694
178, 1, wb, catch, NA, 999, 999, 5, 20, 127, 128, 191, 124, 121, 74, 2, 0.535164
178, 1, wb, filler, NA, 999, 999, 5, 21, 192, 77, 67, 82, 181, 73, 2, 1.51933
178, 1, wb, filler, NA, 999, 999, 5, 21, 192, 77, 67, 82, 181, 73, 1, 0.897612
178, 1, wb, catch, NA, 999, 999, 5, 22, 150, 105, 150, 165, 109, 86, 3, 1.38722
178, 1, wb, catch, NA, 999, 999, 5, 22, 150, 105, 150, 165, 109, 86, 2, 1.80287
178, 1, wb, attraction, a-b-da, 14, 3, 5, 23, 120, 195, 195, 120, 181, 111, 2, 1.22426
178, 1, wb, attraction, a-b-da, 14, 3, 5, 23, 120, 195, 195, 120, 181, 111, 3, 0.901818
178, 1, wb, attraction, a-b-da, 14, 1, 5, 24, 135, 60, 60, 135, 125, 56, 3, 1.57543
178, 1, wb, attraction, a-b-da, 14, 1, 5, 24, 135, 60, 60, 135, 125, 56, 2, 0.454851
178, 1, wb, attraction, a-b-db, 14, 2, 5, 25, 83, 153, 165, 90, 90, 165, 1, 1.13859
178, 1, wb, attraction, a-b-db, 14, 2, 5, 25, 83, 153, 165, 90, 90, 165, 2, 0.347612
178, 1, wb, attraction, a-b-db, 9, 2, 5, 26, 86, 157, 165, 90, 90, 165, 2, 1.23549
178, 1, wb, attraction, a-b-db, 9, 2, 5, 26, 86, 157, 165, 90, 90, 165, 1, 0.624987
178, 1, wb, attraction, a-b-da, 9, 1, 5, 27, 60, 135, 135, 60, 129, 57, 2, 0.861376
178, 1, wb, attraction, a-b-da, 9, 1, 5, 27, 60, 135, 135, 60, 129, 57, 3, 0.609733
178, 1, wb, attraction, a-b-da, 2, 2, 5, 28, 90, 165, 163, 89, 165, 90, 3, 3.35092
178, 1, wb, attraction, a-b-da, 2, 2, 5, 28, 90, 165, 163, 89, 165, 90, 2, 0.679229
178, 1, wb, attraction, a-b-da, 2, 3, 5, 29, 193, 119, 195, 120, 120, 195, 2, 5.23362
178, 1, wb, attraction, a-b-da, 2, 3, 5, 29, 193, 119, 195, 120, 120, 195, 3, 0.621864
178, 1, wb, filler, NA, 999, 999, 5, 30, 149, 189, 105, 134, 181, 68, 3, 4.55505
178, 1, wb, filler, NA, 999, 999, 5, 30, 149, 189, 105, 134, 181, 68, 1, 0.882864
178, 1, wb, filler, NA, 999, 999, 5, 31, 104, 101, 187, 184, 193, 101, 1, 4.96517
178, 1, wb, filler, NA, 999, 999, 5, 31, 104, 101, 187, 184, 193, 101, 2, 1.57239
178, 1, wb, filler, NA, 999, 999, 5, 32, 66, 102, 94, 102, 151, 82, 1, 1.84311
178, 1, wb, filler, NA, 999, 999, 5, 32, 66, 102, 94, 102, 151, 82, 3, 0.655844
178, 1, wb, attraction, a-b-db, 2, 2, 5, 33, 165, 90, 89, 163, 90, 165, 2, 1.18749
178, 1, wb, attraction, a-b-db, 2, 2, 5, 33, 165, 90, 89, 163, 90, 165, 3, 0.499142
178, 1, wb, attraction, a-b-da, 5, 1, 5, 34, 60, 135, 135, 60, 132, 58, 2, 0.772953
178, 1, wb, attraction, a-b-da, 5, 1, 5, 34, 60, 135, 135, 60, 132, 58, 3, 0.80468
178, 1, wb, filler, NA, 999, 999, 5, 35, 142, 141, 62, 118, 59, 155, 2, 1.7945
178, 1, wb, filler, NA, 999, 999, 5, 35, 142, 141, 62, 118, 59, 155, 1, 0.529106
178, 1, wb, filler, NA, 999, 999, 5, 36, 180, 80, 163, 73, 107, 121, 2, 17.7455
178, 1, wb, filler, NA, 999, 999, 5, 36, 180, 80, 163, 73, 107, 121, 3, 0.485384
178, 1, wb, filler, NA, 999, 999, 5, 37, 84, 191, 187, 113, 152, 121, 1, 1.84769
178, 1, wb, filler, NA, 999, 999, 5, 37, 84, 191, 187, 113, 152, 121, 3, 0.364457
178, 1, wb, attraction, a-b-db, 5, 2, 6, 1, 90, 165, 165, 90, 88, 161, 3, 2.10766
178, 1, wb, attraction, a-b-db, 5, 2, 6, 1, 90, 165, 165, 90, 88, 161, 1, 0.749596
178, 1, wb, attraction, a-b-da, 2, 1, 6, 2, 135, 60, 60, 135, 134, 59, 2, 1.29334
178, 1, wb, attraction, a-b-da, 2, 1, 6, 2, 135, 60, 60, 135, 134, 59, 3, 0.872233
178, 1, wb, attraction, a-b-db, 9, 3, 6, 3, 114, 186, 195, 120, 120, 195, 2, 8.4272
178, 1, wb, attraction, a-b-db, 9, 3, 6, 3, 114, 186, 195, 120, 120, 195, 3, 0.414693
178, 1, wb, filler, NA, 999, 999, 6, 4, 97, 124, 147, 56, 189, 178, 2, 1.17965
178, 1, wb, filler, NA, 999, 999, 6, 4, 97, 124, 147, 56, 189, 178, 3, 0.355248
178, 1, wb, attraction, a-b-db, 5, 3, 6, 5, 195, 120, 120, 195, 117, 190, 2, 1.08315
178, 1, wb, attraction, a-b-db, 5, 3, 6, 5, 195, 120, 120, 195, 117, 190, 3, 0.438873
178, 1, wb, attraction, a-b-da, 5, 1, 6, 6, 132, 58, 135, 60, 60, 135, 2, 0.771318
178, 1, wb, attraction, a-b-da, 5, 1, 6, 6, 132, 58, 135, 60, 60, 135, 3, 0.323787
178, 1, wb, attraction, a-b-da, 5, 2, 6, 7, 161, 88, 165, 90, 90, 165, 3, 2.02855
178, 1, wb, attraction, a-b-da, 5, 2, 6, 7, 161, 88, 165, 90, 90, 165, 2, 0.377617
178, 1, wb, filler, NA, 999, 999, 6, 8, 115, 188, 150, 128, 101, 59, 3, 0.704042
178, 1, wb, filler, NA, 999, 999, 6, 8, 115, 188, 150, 128, 101, 59, 1, 1.97916
178, 1, wb, attraction, a-b-da, 14, 1, 6, 9, 60, 135, 125, 56, 135, 60, 2, 1.02512
178, 1, wb, attraction, a-b-da, 14, 1, 6, 9, 60, 135, 125, 56, 135, 60, 3, 0.486672
178, 1, wb, catch, NA, 999, 999, 6, 10, 178, 137, 65, 130, 133, 122, 2, 1.30521
178, 1, wb, catch, NA, 999, 999, 6, 10, 178, 137, 65, 130, 133, 122, 1, 0.419355
178, 1, wb, filler, NA, 999, 999, 6, 11, 141, 112, 65, 79, 98, 130, 2, 1.48848
178, 1, wb, filler, NA, 999, 999, 6, 11, 141, 112, 65, 79, 98, 130, 1, 1.70749
178, 1, wb, attraction, a-b-da, 9, 1, 6, 12, 60, 135, 129, 57, 135, 60, 2, 1.18008
178, 1, wb, attraction, a-b-da, 9, 1, 6, 12, 60, 135, 129, 57, 135, 60, 3, 0.475751
178, 1, wb, attraction, a-b-da, 2, 3, 6, 13, 195, 120, 120, 195, 193, 119, 2, 1.22219
178, 1, wb, attraction, a-b-da, 2, 3, 6, 13, 195, 120, 120, 195, 193, 119, 1, 0.403767
178, 1, wb, attraction, a-b-db, 14, 1, 6, 14, 60, 135, 56, 125, 135, 60, 2, 1.51349
178, 1, wb, attraction, a-b-db, 14, 1, 6, 14, 60, 135, 56, 125, 135, 60, 1, 0.699827
178, 1, wb, filler, NA, 999, 999, 6, 15, 68, 188, 83, 135, 191, 169, 2, 14.4135
178, 1, wb, filler, NA, 999, 999, 6, 15, 68, 188, 83, 135, 191, 169, 3, 0.439756
178, 1, wb, attraction, a-b-db, 9, 1, 6, 16, 60, 135, 57, 129, 135, 60, 2, 1.42006
178, 1, wb, attraction, a-b-db, 9, 1, 6, 16, 60, 135, 57, 129, 135, 60, 3, 0.498275
178, 1, wb, attraction, a-b-db, 14, 3, 6, 17, 111, 181, 195, 120, 120, 195, 2, 1.02005
178, 1, wb, attraction, a-b-db, 14, 3, 6, 17, 111, 181, 195, 120, 120, 195, 1, 0.474338
178, 1, wb, filler, NA, 999, 999, 6, 18, 194, 132, 123, 90, 172, 141, 2, 1.3088
178, 1, wb, filler, NA, 999, 999, 6, 18, 194, 132, 123, 90, 172, 141, 1, 1.35903
178, 1, wb, attraction, a-b-da, 14, 2, 6, 19, 165, 90, 90, 165, 153, 83, 2, 0.589921
178, 1, wb, attraction, a-b-da, 14, 2, 6, 19, 165, 90, 90, 165, 153, 83, 1, 0.852991
178, 1, wb, attraction, a-b-db, 5, 1, 6, 20, 58, 132, 135, 60, 60, 135, 2, 0.9608
178, 1, wb, attraction, a-b-db, 5, 1, 6, 20, 58, 132, 135, 60, 60, 135, 1, 0.441146
178, 1, wb, attraction, a-b-db, 2, 3, 6, 21, 195, 120, 119, 193, 120, 195, 2, 1.24484
178, 1, wb, attraction, a-b-db, 2, 3, 6, 21, 195, 120, 119, 193, 120, 195, 3, 0.393744
178, 1, wb, filler, NA, 999, 999, 6, 22, 140, 171, 163, 155, 80, 158, 3, 1.37561
178, 1, wb, filler, NA, 999, 999, 6, 22, 140, 171, 163, 155, 80, 158, 2, 1.15123
178, 1, wb, attraction, a-b-da, 5, 3, 6, 23, 195, 120, 190, 117, 120, 195, 2, 1.10273
178, 1, wb, attraction, a-b-da, 5, 3, 6, 23, 195, 120, 190, 117, 120, 195, 3, 0.393735
178, 1, wb, catch, NA, 999, 999, 6, 24, 139, 176, 87, 108, 109, 146, 2, 0.943496
178, 1, wb, catch, NA, 999, 999, 6, 24, 139, 176, 87, 108, 109, 146, 1, 0.368587
178, 1, wb, filler, NA, 999, 999, 6, 25, 122, 61, 110, 85, 113, 193, 1, 1.33567
178, 1, wb, filler, NA, 999, 999, 6, 25, 122, 61, 110, 85, 113, 193, 3, 0.361331
178, 1, wb, catch, NA, 999, 999, 6, 26, 140, 115, 193, 122, 76, 119, 3, 1.16849
178, 1, wb, catch, NA, 999, 999, 6, 26, 140, 115, 193, 122, 76, 119, 2, 0.432683
178, 1, wb, attraction, a-b-da, 2, 2, 6, 27, 165, 90, 90, 165, 163, 89, 3, 1.11726
178, 1, wb, attraction, a-b-da, 2, 2, 6, 27, 165, 90, 90, 165, 163, 89, 2, 0.519465
178, 1, wb, filler, NA, 999, 999, 6, 28, 80, 127, 155, 62, 149, 156, 1, 1.7526
178, 1, wb, filler, NA, 999, 999, 6, 28, 80, 127, 155, 62, 149, 156, 3, 1.00144
178, 1, wb, attraction, a-b-db, 2, 1, 6, 29, 60, 135, 59, 134, 135, 60, 2, 2.79087
178, 1, wb, attraction, a-b-db, 2, 1, 6, 29, 60, 135, 59, 134, 135, 60, 1, 0.397413
178, 1, wb, attraction, a-b-da, 9, 3, 6, 30, 120, 195, 195, 120, 186, 114, 1, 1.44332
178, 1, wb, attraction, a-b-da, 9, 3, 6, 30, 120, 195, 195, 120, 186, 114, 2, 0.336216
178, 1, wb, filler, NA, 999, 999, 6, 31, 172, 64, 172, 195, 165, 104, 1, 1.29671
178, 1, wb, filler, NA, 999, 999, 6, 31, 172, 64, 172, 195, 165, 104, 2, 0.34748
178, 1, wb, attraction, a-b-db, 2, 2, 6, 32, 90, 165, 165, 90, 89, 163, 3, 0.819286
178, 1, wb, attraction, a-b-db, 2, 2, 6, 32, 90, 165, 165, 90, 89, 163, 2, 0.577691
178, 1, wb, attraction, a-b-db, 9, 2, 6, 33, 165, 90, 90, 165, 86, 157, 3, 1.15213
178, 1, wb, attraction, a-b-db, 9, 2, 6, 33, 165, 90, 90, 165, 86, 157, 2, 0.481057
178, 1, wb, attraction, a-b-db, 14, 2, 6, 34, 83, 153, 90, 165, 165, 90, 2, 1.11542
178, 1, wb, attraction, a-b-db, 14, 2, 6, 34, 83, 153, 90, 165, 165, 90, 1, 0.501801
178, 1, wb, attraction, a-b-da, 14, 3, 6, 35, 195, 120, 120, 195, 181, 111, 3, 15.8397
178, 1, wb, attraction, a-b-da, 14, 3, 6, 35, 195, 120, 120, 195, 181, 111, 2, 0.272569
178, 1, wb, attraction, a-b-da, 9, 2, 6, 36, 165, 90, 90, 165, 157, 86, 3, 1.09187
178, 1, wb, attraction, a-b-da, 9, 2, 6, 36, 165, 90, 90, 165, 157, 86, 2, 0.302766
178, 1, wb, filler, NA, 999, 999, 6, 37, 143, 183, 185, 118, 156, 77, 3, 0.816547
178, 1, wb, filler, NA, 999, 999, 6, 37, 143, 183, 185, 118, 156, 77, 2, 0.422992
178, 1, wb, attraction, a-b-db, 2, 2, 7, 1, 165, 90, 89, 163, 90, 165, 2, 1.12408
178, 1, wb, attraction, a-b-db, 2, 2, 7, 1, 165, 90, 89, 163, 90, 165, 1, 0.389712
178, 1, wb, attraction, a-b-db, 14, 3, 7, 2, 111, 181, 195, 120, 120, 195, 2, 3.66025
178, 1, wb, attraction, a-b-db, 14, 3, 7, 2, 111, 181, 195, 120, 120, 195, 1, 0.263772
178, 1, wb, attraction, a-b-db, 2, 3, 7, 3, 120, 195, 119, 193, 195, 120, 2, 0.667001
178, 1, wb, attraction, a-b-db, 2, 3, 7, 3, 120, 195, 119, 193, 195, 120, 1, 0.367417
178, 1, wb, filler, NA, 999, 999, 7, 4, 174, 92, 125, 76, 152, 147, 2, 1.05458
178, 1, wb, filler, NA, 999, 999, 7, 4, 174, 92, 125, 76, 152, 147, 3, 0.363698
178, 1, wb, attraction, a-b-db, 9, 2, 7, 5, 86, 157, 90, 165, 165, 90, 2, 0.514761
178, 1, wb, attraction, a-b-db, 9, 2, 7, 5, 86, 157, 90, 165, 165, 90, 1, 0.27708
178, 1, wb, attraction, a-b-da, 9, 2, 7, 6, 165, 90, 157, 86, 90, 165, 1, 1.07966
178, 1, wb, attraction, a-b-da, 9, 2, 7, 6, 165, 90, 157, 86, 90, 165, 2, 0.347247
178, 1, wb, attraction, a-b-db, 5, 1, 7, 7, 58, 132, 60, 135, 135, 60, 2, 0.931345
178, 1, wb, attraction, a-b-db, 5, 1, 7, 7, 58, 132, 60, 135, 135, 60, 1, 0.724827
178, 1, wb, attraction, a-b-da, 2, 1, 7, 8, 135, 60, 60, 135, 134, 59, 2, 1.6533
178, 1, wb, attraction, a-b-da, 2, 1, 7, 8, 135, 60, 60, 135, 134, 59, 1, 1.05004
178, 1, wb, attraction, a-b-da, 5, 2, 7, 9, 90, 165, 165, 90, 161, 88, 2, 0.821558
178, 1, wb, attraction, a-b-da, 5, 2, 7, 9, 90, 165, 165, 90, 161, 88, 1, 0.467322
178, 1, wb, catch, NA, 999, 999, 7, 10, 135, 120, 103, 92, 120, 195, 2, 0.93462
178, 1, wb, catch, NA, 999, 999, 7, 10, 135, 120, 103, 92, 120, 195, 3, 0.928257
178, 1, wb, filler, NA, 999, 999, 7, 11, 170, 153, 150, 138, 99, 70, 3, 4.0964
178, 1, wb, filler, NA, 999, 999, 7, 11, 170, 153, 150, 138, 99, 70, 1, 0.466699
178, 1, wb, attraction, a-b-da, 5, 1, 7, 12, 135, 60, 60, 135, 132, 58, 2, 0.83754
178, 1, wb, attraction, a-b-da, 5, 1, 7, 12, 135, 60, 60, 135, 132, 58, 1, 0.707385
178, 1, wb, attraction, a-b-db, 14, 2, 7, 13, 83, 153, 90, 165, 165, 90, 2, 1.48452
178, 1, wb, attraction, a-b-db, 14, 2, 7, 13, 83, 153, 90, 165, 165, 90, 1, 0.407997
178, 1, wb, attraction, a-b-db, 14, 1, 7, 14, 135, 60, 56, 125, 60, 135, 2, 0.965091
178, 1, wb, attraction, a-b-db, 14, 1, 7, 14, 135, 60, 56, 125, 60, 135, 1, 0.669324
178, 1, wb, attraction, a-b-da, 9, 1, 7, 15, 129, 57, 60, 135, 135, 60, 2, 0.960403
178, 1, wb, attraction, a-b-da, 9, 1, 7, 15, 129, 57, 60, 135, 135, 60, 1, 0.568855
178, 1, wb, attraction, a-b-da, 14, 3, 7, 16, 120, 195, 181, 111, 195, 120, 2, 1.0159
178, 1, wb, attraction, a-b-da, 14, 3, 7, 16, 120, 195, 181, 111, 195, 120, 1, 0.422158
178, 1, wb, filler, NA, 999, 999, 7, 17, 74, 143, 74, 176, 124, 120, 1, 4.24349
178, 1, wb, filler, NA, 999, 999, 7, 17, 74, 143, 74, 176, 124, 120, 3, 0.53535
178, 1, wb, filler, NA, 999, 999, 7, 18, 115, 156, 182, 181, 79, 189, 3, 7.9437
178, 1, wb, filler, NA, 999, 999, 7, 18, 115, 156, 182, 181, 79, 189, 2, 0.478531
178, 1, wb, attraction, a-b-da, 9, 3, 7, 19, 195, 120, 120, 195, 186, 114, 1, 1.11312
178, 1, wb, attraction, a-b-da, 9, 3, 7, 19, 195, 120, 120, 195, 186, 114, 2, 0.33938
178, 1, wb, attraction, a-b-db, 5, 3, 7, 20, 117, 190, 120, 195, 195, 120, 3, 0.947815
178, 1, wb, attraction, a-b-db, 5, 3, 7, 20, 117, 190, 120, 195, 195, 120, 2, 0.308872
178, 1, wb, filler, NA, 999, 999, 7, 21, 98, 136, 189, 87, 125, 119, 1, 37.102
178, 1, wb, filler, NA, 999, 999, 7, 21, 98, 136, 189, 87, 125, 119, 2, 0.805812
178, 1, wb, catch, NA, 999, 999, 7, 22, 195, 120, 74, 121, 129, 126, 2, 0.97952
178, 1, wb, catch, NA, 999, 999, 7, 22, 195, 120, 74, 121, 129, 126, 1, 0.531118
178, 1, wb, filler, NA, 999, 999, 7, 23, 193, 62, 186, 57, 119, 161, 1, 1.85156
178, 1, wb, filler, NA, 999, 999, 7, 23, 193, 62, 186, 57, 119, 161, 3, 0.288429
178, 1, wb, attraction, a-b-db, 9, 1, 7, 24, 60, 135, 57, 129, 135, 60, 2, 1.87476
178, 1, wb, attraction, a-b-db, 9, 1, 7, 24, 60, 135, 57, 129, 135, 60, 3, 0.566233
178, 1, wb, attraction, a-b-da, 14, 1, 7, 25, 125, 56, 60, 135, 135, 60, 2, 1.35746
178, 1, wb, attraction, a-b-da, 14, 1, 7, 25, 125, 56, 60, 135, 135, 60, 1, 0.357552
178, 1, wb, attraction, a-b-db, 2, 1, 7, 26, 135, 60, 60, 135, 59, 134, 2, 0.780695
178, 1, wb, attraction, a-b-db, 2, 1, 7, 26, 135, 60, 60, 135, 59, 134, 1, 0.452468
178, 1, wb, catch, NA, 999, 999, 7, 27, 136, 119, 89, 106, 152, 163, 2, 1.48818
178, 1, wb, catch, NA, 999, 999, 7, 27, 136, 119, 89, 106, 152, 163, 3, 0.547727
178, 1, wb, attraction, a-b-da, 2, 2, 7, 28, 165, 90, 90, 165, 163, 89, 2, 0.875674
178, 1, wb, attraction, a-b-da, 2, 2, 7, 28, 165, 90, 90, 165, 163, 89, 1, 0.375206
178, 1, wb, filler, NA, 999, 999, 7, 29, 188, 87, 84, 117, 128, 56, 3, 0.997743
178, 1, wb, filler, NA, 999, 999, 7, 29, 188, 87, 84, 117, 128, 56, 1, 1.11662
178, 1, wb, filler, NA, 999, 999, 7, 30, 113, 164, 147, 162, 96, 148, 3, 1.56566
178, 1, wb, filler, NA, 999, 999, 7, 30, 113, 164, 147, 162, 96, 148, 2, 0.949911
178, 1, wb, attraction, a-b-da, 14, 2, 7, 31, 153, 83, 165, 90, 90, 165, 2, 1.11746
178, 1, wb, attraction, a-b-da, 14, 2, 7, 31, 153, 83, 165, 90, 90, 165, 1, 0.45568
178, 1, wb, attraction, a-b-db, 9, 3, 7, 32, 195, 120, 120, 195, 114, 186, 2, 1.44349
178, 1, wb, attraction, a-b-db, 9, 3, 7, 32, 195, 120, 120, 195, 114, 186, 1, 0.448484
178, 1, wb, attraction, a-b-da, 2, 3, 7, 33, 193, 119, 195, 120, 120, 195, 2, 1.46019
178, 1, wb, attraction, a-b-da, 2, 3, 7, 33, 193, 119, 195, 120, 120, 195, 1, 0.536241
178, 1, wb, attraction, a-b-da, 5, 3, 7, 34, 120, 195, 195, 120, 190, 117, 2, 1.11274
178, 1, wb, attraction, a-b-da, 5, 3, 7, 34, 120, 195, 195, 120, 190, 117, 1, 0.555065
178, 1, wb, filler, NA, 999, 999, 7, 35, 120, 86, 178, 69, 99, 80, 3, 2.02712
178, 1, wb, filler, NA, 999, 999, 7, 35, 120, 86, 178, 69, 99, 80, 2, 2.32816
178, 1, wb, filler, NA, 999, 999, 7, 36, 131, 178, 190, 66, 195, 90, 2, 3.06414
178, 1, wb, filler, NA, 999, 999, 7, 36, 131, 178, 190, 66, 195, 90, 1, 0.39573
178, 1, wb, attraction, a-b-db, 5, 2, 7, 37, 88, 161, 90, 165, 165, 90, 2, 1.15363
178, 1, wb, attraction, a-b-db, 5, 2, 7, 37, 88, 161, 90, 165, 165, 90, 1, 0.90642
178, 1, wb, attraction, a-b-da, 9, 1, 8, 1, 129, 57, 60, 135, 135, 60, 2, 0.764241
178, 1, wb, attraction, a-b-da, 9, 1, 8, 1, 129, 57, 60, 135, 135, 60, 1, 0.444559
178, 1, wb, attraction, a-b-da, 5, 3, 8, 2, 190, 117, 195, 120, 120, 195, 2, 1.22439
178, 1, wb, attraction, a-b-da, 5, 3, 8, 2, 190, 117, 195, 120, 120, 195, 1, 0.677969
178, 1, wb, attraction, a-b-db, 9, 3, 8, 3, 195, 120, 114, 186, 120, 195, 2, 5.56832
178, 1, wb, attraction, a-b-db, 9, 3, 8, 3, 195, 120, 114, 186, 120, 195, 1, 0.503206
178, 1, wb, catch, NA, 999, 999, 8, 4, 146, 109, 145, 170, 84, 111, 3, 6.40105
178, 1, wb, catch, NA, 999, 999, 8, 4, 146, 109, 145, 170, 84, 111, 2, 0.414332
178, 1, wb, attraction, a-b-da, 9, 2, 8, 5, 157, 86, 90, 165, 165, 90, 2, 2.42756
178, 1, wb, attraction, a-b-da, 9, 2, 8, 5, 157, 86, 90, 165, 165, 90, 1, 0.528851
178, 1, wb, attraction, a-b-da, 5, 1, 8, 6, 132, 58, 60, 135, 135, 60, 2, 1.28916
178, 1, wb, attraction, a-b-da, 5, 1, 8, 6, 132, 58, 60, 135, 135, 60, 1, 0.604007
178, 1, wb, attraction, a-b-db, 5, 2, 8, 7, 90, 165, 88, 161, 165, 90, 1, 1.49785
178, 1, wb, attraction, a-b-db, 5, 2, 8, 7, 90, 165, 88, 161, 165, 90, 2, 0.74058
178, 1, wb, attraction, a-b-da, 14, 2, 8, 8, 165, 90, 90, 165, 153, 83, 2, 0.812288
178, 1, wb, attraction, a-b-da, 14, 2, 8, 8, 165, 90, 90, 165, 153, 83, 1, 0.946753
178, 1, wb, attraction, a-b-da, 14, 1, 8, 9, 135, 60, 125, 56, 60, 135, 3, 1.09034
178, 1, wb, attraction, a-b-da, 14, 1, 8, 9, 135, 60, 125, 56, 60, 135, 1, 0.52546
178, 1, wb, attraction, a-b-da, 14, 3, 8, 10, 181, 111, 195, 120, 120, 195, 3, 1.5818
178, 1, wb, attraction, a-b-da, 14, 3, 8, 10, 181, 111, 195, 120, 120, 195, 2, 0.55731
178, 1, wb, filler, NA, 999, 999, 8, 11, 68, 184, 174, 153, 164, 131, 1, 1.0205
178, 1, wb, filler, NA, 999, 999, 8, 11, 68, 184, 174, 153, 164, 131, 2, 0.946666
178, 1, wb, filler, NA, 999, 999, 8, 12, 98, 96, 116, 135, 103, 129, 1, 2.69039
178, 1, wb, filler, NA, 999, 999, 8, 12, 98, 96, 116, 135, 103, 129, 3, 0.524795
178, 1, wb, catch, NA, 999, 999, 8, 13, 114, 141, 190, 125, 112, 83, 3, 1.02122
178, 1, wb, catch, NA, 999, 999, 8, 13, 114, 141, 190, 125, 112, 83, 2, 0.362904
178, 1, wb, attraction, a-b-da, 2, 1, 8, 14, 135, 60, 134, 59, 60, 135, 3, 0.778011
178, 1, wb, attraction, a-b-da, 2, 1, 8, 14, 135, 60, 134, 59, 60, 135, 2, 0.393853
178, 1, wb, attraction, a-b-db, 9, 2, 8, 15, 90, 165, 165, 90, 86, 157, 1, 1.83169
178, 1, wb, attraction, a-b-db, 9, 2, 8, 15, 90, 165, 165, 90, 86, 157, 2, 0.804992
178, 1, wb, attraction, a-b-db, 2, 3, 8, 16, 119, 193, 195, 120, 120, 195, 1, 1.6348
178, 1, wb, attraction, a-b-db, 2, 3, 8, 16, 119, 193, 195, 120, 120, 195, 2, 0.712083
178, 1, wb, attraction, a-b-db, 5, 3, 8, 17, 117, 190, 195, 120, 120, 195, 1, 0.881184
178, 1, wb, attraction, a-b-db, 5, 3, 8, 17, 117, 190, 195, 120, 120, 195, 2, 0.484974
178, 1, wb, attraction, a-b-da, 2, 3, 8, 18, 195, 120, 193, 119, 120, 195, 3, 0.711378
178, 1, wb, attraction, a-b-da, 2, 3, 8, 18, 195, 120, 193, 119, 120, 195, 2, 0.329772
178, 1, wb, filler, NA, 999, 999, 8, 19, 82, 194, 119, 159, 79, 87, 3, 0.786373
178, 1, wb, filler, NA, 999, 999, 8, 19, 82, 194, 119, 159, 79, 87, 2, 0.45015
178, 1, wb, attraction, a-b-db, 14, 1, 8, 20, 60, 135, 56, 125, 135, 60, 3, 1.07782
178, 1, wb, attraction, a-b-db, 14, 1, 8, 20, 60, 135, 56, 125, 135, 60, 2, 0.50543
178, 1, wb, attraction, a-b-db, 5, 1, 8, 21, 60, 135, 58, 132, 135, 60, 3, 16.5952
178, 1, wb, attraction, a-b-db, 5, 1, 8, 21, 60, 135, 58, 132, 135, 60, 2, 0.557412
178, 1, wb, attraction, a-b-da, 9, 3, 8, 22, 186, 114, 195, 120, 120, 195, 1, 1.66853
178, 1, wb, attraction, a-b-da, 9, 3, 8, 22, 186, 114, 195, 120, 120, 195, 2, 0.472517
178, 1, wb, filler, NA, 999, 999, 8, 23, 139, 57, 123, 186, 75, 180, 1, 1.37973
178, 1, wb, filler, NA, 999, 999, 8, 23, 139, 57, 123, 186, 75, 180, 2, 0.443179
178, 1, wb, catch, NA, 999, 999, 8, 24, 143, 112, 178, 137, 74, 121, 3, 1.71111
178, 1, wb, catch, NA, 999, 999, 8, 24, 143, 112, 178, 137, 74, 121, 2, 0.58525
178, 1, wb, filler, NA, 999, 999, 8, 25, 132, 159, 155, 145, 64, 129, 3, 0.871679
178, 1, wb, filler, NA, 999, 999, 8, 25, 132, 159, 155, 145, 64, 129, 2, 0.62738
178, 1, wb, attraction, a-b-db, 14, 2, 8, 26, 90, 165, 83, 153, 165, 90, 3, 1.15969
178, 1, wb, attraction, a-b-db, 14, 2, 8, 26, 90, 165, 83, 153, 165, 90, 2, 0.512003
178, 1, wb, attraction, a-b-db, 2, 1, 8, 27, 135, 60, 59, 134, 60, 135, 1, 1.63311
178, 1, wb, attraction, a-b-db, 2, 1, 8, 27, 135, 60, 59, 134, 60, 135, 2, 0.558549
178, 1, wb, attraction, a-b-da, 2, 2, 8, 28, 165, 90, 163, 89, 90, 165, 3, 0.701601
178, 1, wb, attraction, a-b-da, 2, 2, 8, 28, 165, 90, 163, 89, 90, 165, 2, 0.688864
178, 1, wb, attraction, a-b-db, 2, 2, 8, 29, 90, 165, 165, 90, 89, 163, 1, 1.25103
178, 1, wb, attraction, a-b-db, 2, 2, 8, 29, 90, 165, 165, 90, 89, 163, 2, 0.576014
178, 1, wb, attraction, a-b-da, 5, 2, 8, 30, 90, 165, 165, 90, 161, 88, 1, 1.1825
178, 1, wb, attraction, a-b-da, 5, 2, 8, 30, 90, 165, 165, 90, 161, 88, 2, 0.774043
178, 1, wb, filler, NA, 999, 999, 8, 31, 99, 88, 61, 115, 69, 92, 3, 16.7884
178, 1, wb, filler, NA, 999, 999, 8, 31, 99, 88, 61, 115, 69, 92, 1, 0.439218
178, 1, wb, filler, NA, 999, 999, 8, 32, 62, 109, 159, 186, 179, 69, 1, 1.18755
178, 1, wb, filler, NA, 999, 999, 8, 32, 62, 109, 159, 186, 179, 69, 2, 0.843257
178, 1, wb, filler, NA, 999, 999, 8, 33, 83, 162, 119, 107, 159, 111, 1, 25.6149
178, 1, wb, filler, NA, 999, 999, 8, 33, 83, 162, 119, 107, 159, 111, 3, 1.78158
178, 1, wb, attraction, a-b-db, 9, 1, 8, 34, 57, 129, 60, 135, 135, 60, 3, 0.851553
178, 1, wb, attraction, a-b-db, 9, 1, 8, 34, 57, 129, 60, 135, 135, 60, 2, 0.336812
178, 1, wb, attraction, a-b-db, 14, 3, 8, 35, 120, 195, 195, 120, 111, 181, 1, 1.78513
178, 1, wb, attraction, a-b-db, 14, 3, 8, 35, 120, 195, 195, 120, 111, 181, 2, 0.608576
178, 1, wb, filler, NA, 999, 999, 8, 36, 107, 108, 60, 94, 182, 164, 2, 1.34173
178, 1, wb, filler, NA, 999, 999, 8, 36, 107, 108, 60, 94, 182, 164, 3, 0.390504
178, 1, wb, filler, NA, 999, 999, 8, 37, 143, 141, 61, 96, 173, 119, 2, 1.45242
178, 1, wb, filler, NA, 999, 999, 8, 37, 143, 141, 61, 96, 173, 119, 3, 6.36141
