sub_n, computer_n, bw_cond, effect, set, distance, diag, block_n, trial_n, h1, w1, h2, w2, h3, w3, choice, rt 
190, 1, wb, practice, NA, 999, 999, 0, 1, 134, 175, 141, 146, 172, 58, 3, 3.206
190, 1, wb, practice, NA, 999, 999, 0, 1, 134, 175, 141, 146, 172, 58, 1, 3.35559
190, 1, wb, practice, NA, 999, 999, 0, 2, 162, 101, 108, 143, 177, 84, 2, 2.95407
190, 1, wb, practice, NA, 999, 999, 0, 2, 162, 101, 108, 143, 177, 84, 3, 1.68132
190, 1, wb, practice, NA, 999, 999, 0, 3, 125, 58, 115, 166, 104, 125, 1, 3.825
190, 1, wb, practice, NA, 999, 999, 0, 3, 125, 58, 115, 166, 104, 125, 2, 1.77896
190, 1, wb, attraction, a-b-da, 2, 2, 1, 1, 90, 165, 163, 89, 165, 90, 1, 3.90749
190, 1, wb, attraction, a-b-da, 2, 2, 1, 1, 90, 165, 163, 89, 165, 90, 3, 2.19689
190, 1, wb, attraction, a-b-db, 5, 3, 1, 2, 195, 120, 120, 195, 117, 190, 3, 4.23417
190, 1, wb, attraction, a-b-db, 5, 3, 1, 2, 195, 120, 120, 195, 117, 190, 2, 4.96674
190, 1, wb, catch, NA, 999, 999, 1, 3, 62, 133, 145, 170, 107, 148, 1, 0.964553
190, 1, wb, catch, NA, 999, 999, 1, 3, 62, 133, 145, 170, 107, 148, 2, 1.02888
190, 1, wb, filler, NA, 999, 999, 1, 4, 191, 164, 60, 118, 148, 192, 2, 1.30506
190, 1, wb, filler, NA, 999, 999, 1, 4, 191, 164, 60, 118, 148, 192, 1, 2.11544
190, 1, wb, filler, NA, 999, 999, 1, 5, 85, 76, 70, 166, 98, 168, 1, 0.931879
190, 1, wb, filler, NA, 999, 999, 1, 5, 85, 76, 70, 166, 98, 168, 3, 1.42973
190, 1, wb, attraction, a-b-db, 9, 1, 1, 6, 57, 129, 60, 135, 135, 60, 1, 2.70579
190, 1, wb, attraction, a-b-db, 9, 1, 1, 6, 57, 129, 60, 135, 135, 60, 3, 1.45977
190, 1, wb, attraction, a-b-da, 14, 2, 1, 7, 90, 165, 165, 90, 153, 83, 1, 4.0786
190, 1, wb, attraction, a-b-da, 14, 2, 1, 7, 90, 165, 165, 90, 153, 83, 2, 1.25705
190, 1, wb, filler, NA, 999, 999, 1, 8, 100, 140, 146, 82, 154, 91, 1, 4.02
190, 1, wb, filler, NA, 999, 999, 1, 8, 100, 140, 146, 82, 154, 91, 3, 0.449476
190, 1, wb, filler, NA, 999, 999, 1, 9, 172, 98, 182, 82, 160, 81, 3, 2.75728
190, 1, wb, filler, NA, 999, 999, 1, 9, 172, 98, 182, 82, 160, 81, 1, 0.685046
190, 1, wb, attraction, a-b-da, 5, 1, 1, 10, 60, 135, 135, 60, 132, 58, 1, 5.87147
190, 1, wb, attraction, a-b-da, 5, 1, 1, 10, 60, 135, 135, 60, 132, 58, 2, 1.31417
190, 1, wb, filler, NA, 999, 999, 1, 11, 121, 168, 158, 94, 63, 106, 3, 0.683053
190, 1, wb, filler, NA, 999, 999, 1, 11, 121, 168, 158, 94, 63, 106, 1, 0.494757
190, 1, wb, attraction, a-b-db, 5, 2, 1, 12, 90, 165, 88, 161, 165, 90, 2, 2.5926
190, 1, wb, attraction, a-b-db, 5, 2, 1, 12, 90, 165, 88, 161, 165, 90, 3, 0.535191
190, 1, wb, catch, NA, 999, 999, 1, 13, 135, 60, 138, 117, 122, 193, 1, 0.887449
190, 1, wb, catch, NA, 999, 999, 1, 13, 135, 60, 138, 117, 122, 193, 3, 0.523338
190, 1, wb, filler, NA, 999, 999, 1, 14, 143, 94, 68, 148, 160, 64, 2, 1.77965
190, 1, wb, filler, NA, 999, 999, 1, 14, 143, 94, 68, 148, 160, 64, 1, 2.89911
190, 1, wb, filler, NA, 999, 999, 1, 15, 84, 184, 158, 192, 108, 187, 1, 1.6282
190, 1, wb, filler, NA, 999, 999, 1, 15, 84, 184, 158, 192, 108, 187, 2, 0.329597
190, 1, wb, attraction, a-b-da, 9, 1, 1, 16, 60, 135, 135, 60, 129, 57, 3, 2.48201
190, 1, wb, attraction, a-b-da, 9, 1, 1, 16, 60, 135, 135, 60, 129, 57, 2, 1.56527
190, 1, wb, attraction, a-b-da, 14, 1, 1, 17, 125, 56, 60, 135, 135, 60, 1, 1.6202
190, 1, wb, attraction, a-b-da, 14, 1, 1, 17, 125, 56, 60, 135, 135, 60, 3, 1.39428
190, 1, wb, attraction, a-b-da, 14, 3, 1, 18, 120, 195, 181, 111, 195, 120, 2, 1.78375
190, 1, wb, attraction, a-b-da, 14, 3, 1, 18, 120, 195, 181, 111, 195, 120, 1, 0.423127
190, 1, wb, catch, NA, 999, 999, 1, 19, 101, 94, 194, 121, 110, 145, 1, 1.26024
190, 1, wb, catch, NA, 999, 999, 1, 19, 101, 94, 194, 121, 110, 145, 2, 0.488626
190, 1, wb, attraction, a-b-da, 2, 1, 1, 20, 60, 135, 135, 60, 134, 59, 2, 2.29899
190, 1, wb, attraction, a-b-da, 2, 1, 1, 20, 60, 135, 135, 60, 134, 59, 3, 1.77355
190, 1, wb, attraction, a-b-db, 14, 1, 1, 21, 60, 135, 56, 125, 135, 60, 2, 3.61163
190, 1, wb, attraction, a-b-db, 14, 1, 1, 21, 60, 135, 56, 125, 135, 60, 1, 1.20909
190, 1, wb, attraction, a-b-da, 2, 3, 1, 22, 195, 120, 193, 119, 120, 195, 3, 6.00606
190, 1, wb, attraction, a-b-da, 2, 3, 1, 22, 195, 120, 193, 119, 120, 195, 1, 1.73946
190, 1, wb, filler, NA, 999, 999, 1, 23, 135, 89, 102, 135, 119, 170, 1, 1.34775
190, 1, wb, filler, NA, 999, 999, 1, 23, 135, 89, 102, 135, 119, 170, 3, 1.09253
190, 1, wb, filler, NA, 999, 999, 1, 24, 121, 113, 194, 182, 136, 194, 1, 0.870013
190, 1, wb, filler, NA, 999, 999, 1, 24, 121, 113, 194, 182, 136, 194, 2, 0.786359
190, 1, wb, attraction, a-b-db, 5, 1, 1, 25, 60, 135, 135, 60, 58, 132, 2, 2.53678
190, 1, wb, attraction, a-b-db, 5, 1, 1, 25, 60, 135, 135, 60, 58, 132, 3, 0.35393
190, 1, wb, attraction, a-b-db, 9, 2, 1, 26, 165, 90, 86, 157, 90, 165, 1, 3.95374
190, 1, wb, attraction, a-b-db, 9, 2, 1, 26, 165, 90, 86, 157, 90, 165, 3, 0.345803
190, 1, wb, attraction, a-b-db, 14, 2, 1, 27, 90, 165, 165, 90, 83, 153, 3, 1.52166
190, 1, wb, attraction, a-b-db, 14, 2, 1, 27, 90, 165, 165, 90, 83, 153, 1, 1.02783
190, 1, wb, attraction, a-b-db, 9, 3, 1, 28, 195, 120, 120, 195, 114, 186, 3, 4.00815
190, 1, wb, attraction, a-b-db, 9, 3, 1, 28, 195, 120, 120, 195, 114, 186, 2, 0.853652
190, 1, wb, filler, NA, 999, 999, 1, 29, 124, 94, 122, 150, 180, 195, 1, 1.42517
190, 1, wb, filler, NA, 999, 999, 1, 29, 124, 94, 122, 150, 180, 195, 3, 0.286772
190, 1, wb, attraction, a-b-da, 9, 2, 1, 30, 90, 165, 165, 90, 157, 86, 1, 2.04917
190, 1, wb, attraction, a-b-da, 9, 2, 1, 30, 90, 165, 165, 90, 157, 86, 3, 0.29384
190, 1, wb, attraction, a-b-da, 9, 3, 1, 31, 195, 120, 120, 195, 186, 114, 3, 2.19189
190, 1, wb, attraction, a-b-da, 9, 3, 1, 31, 195, 120, 120, 195, 186, 114, 2, 1.23032
190, 1, wb, attraction, a-b-db, 2, 3, 1, 32, 120, 195, 195, 120, 119, 193, 1, 1.36251
190, 1, wb, attraction, a-b-db, 2, 3, 1, 32, 120, 195, 195, 120, 119, 193, 2, 0.370829
190, 1, wb, attraction, a-b-da, 5, 2, 1, 33, 90, 165, 161, 88, 165, 90, 3, 6.05795
190, 1, wb, attraction, a-b-da, 5, 2, 1, 33, 90, 165, 161, 88, 165, 90, 1, 0.524625
190, 1, wb, attraction, a-b-db, 2, 1, 1, 34, 59, 134, 60, 135, 135, 60, 3, 2.17312
190, 1, wb, attraction, a-b-db, 2, 1, 1, 34, 59, 134, 60, 135, 135, 60, 1, 0.404416
190, 1, wb, attraction, a-b-da, 5, 3, 1, 35, 120, 195, 195, 120, 190, 117, 3, 2.51423
190, 1, wb, attraction, a-b-da, 5, 3, 1, 35, 120, 195, 195, 120, 190, 117, 2, 0.300174
190, 1, wb, attraction, a-b-db, 14, 3, 1, 36, 195, 120, 120, 195, 111, 181, 3, 2.54202
190, 1, wb, attraction, a-b-db, 14, 3, 1, 36, 195, 120, 120, 195, 111, 181, 2, 0.806637
190, 1, wb, attraction, a-b-db, 2, 2, 1, 37, 89, 163, 90, 165, 165, 90, 1, 1.63552
190, 1, wb, attraction, a-b-db, 2, 2, 1, 37, 89, 163, 90, 165, 165, 90, 2, 1.17696
190, 1, wb, attraction, a-b-da, 9, 1, 2, 1, 129, 57, 60, 135, 135, 60, 3, 1.13519
190, 1, wb, attraction, a-b-da, 9, 1, 2, 1, 129, 57, 60, 135, 135, 60, 2, 0.928811
190, 1, wb, catch, NA, 999, 999, 2, 2, 148, 167, 143, 112, 84, 111, 3, 0.841188
190, 1, wb, catch, NA, 999, 999, 2, 2, 148, 167, 143, 112, 84, 111, 1, 0.382265
190, 1, wb, attraction, a-b-da, 14, 3, 2, 3, 181, 111, 195, 120, 120, 195, 3, 1.78072
190, 1, wb, attraction, a-b-da, 14, 3, 2, 3, 181, 111, 195, 120, 120, 195, 2, 0.364071
190, 1, wb, attraction, a-b-db, 14, 1, 2, 4, 135, 60, 56, 125, 60, 135, 2, 2.11534
190, 1, wb, attraction, a-b-db, 14, 1, 2, 4, 135, 60, 56, 125, 60, 135, 1, 0.717193
190, 1, wb, attraction, a-b-db, 2, 2, 2, 5, 89, 163, 90, 165, 165, 90, 1, 3.44622
190, 1, wb, attraction, a-b-db, 2, 2, 2, 5, 89, 163, 90, 165, 165, 90, 2, 0.370429
190, 1, wb, filler, NA, 999, 999, 2, 6, 121, 137, 180, 67, 191, 154, 1, 1.30558
190, 1, wb, filler, NA, 999, 999, 2, 6, 121, 137, 180, 67, 191, 154, 3, 0.499961
190, 1, wb, attraction, a-b-da, 2, 2, 2, 7, 163, 89, 90, 165, 165, 90, 1, 2.69385
190, 1, wb, attraction, a-b-da, 2, 2, 2, 7, 163, 89, 90, 165, 165, 90, 2, 0.672275
190, 1, wb, catch, NA, 999, 999, 2, 8, 120, 135, 65, 130, 128, 187, 2, 1.39531
190, 1, wb, catch, NA, 999, 999, 2, 8, 120, 135, 65, 130, 128, 187, 3, 0.442102
190, 1, wb, attraction, a-b-db, 2, 1, 2, 9, 135, 60, 60, 135, 59, 134, 3, 2.60588
190, 1, wb, attraction, a-b-db, 2, 1, 2, 9, 135, 60, 60, 135, 59, 134, 2, 0.363692
190, 1, wb, filler, NA, 999, 999, 2, 10, 93, 90, 158, 64, 60, 194, 1, 1.75484
190, 1, wb, filler, NA, 999, 999, 2, 10, 93, 90, 158, 64, 60, 194, 3, 0.642907
190, 1, wb, attraction, a-b-db, 14, 3, 2, 11, 120, 195, 111, 181, 195, 120, 2, 2.85476
190, 1, wb, attraction, a-b-db, 14, 3, 2, 11, 120, 195, 111, 181, 195, 120, 1, 0.29905
190, 1, wb, attraction, a-b-da, 5, 1, 2, 12, 132, 58, 60, 135, 135, 60, 3, 1.73301
190, 1, wb, attraction, a-b-da, 5, 1, 2, 12, 132, 58, 60, 135, 135, 60, 1, 1.44636
190, 1, wb, attraction, a-b-db, 2, 3, 2, 13, 119, 193, 120, 195, 195, 120, 1, 2.20187
190, 1, wb, attraction, a-b-db, 2, 3, 2, 13, 119, 193, 120, 195, 195, 120, 2, 0.360543
190, 1, wb, attraction, a-b-da, 14, 1, 2, 14, 135, 60, 60, 135, 125, 56, 3, 0.935666
190, 1, wb, attraction, a-b-da, 14, 1, 2, 14, 135, 60, 60, 135, 125, 56, 1, 1.61738
190, 1, wb, filler, NA, 999, 999, 2, 15, 87, 174, 126, 194, 67, 159, 3, 1.10214
190, 1, wb, filler, NA, 999, 999, 2, 15, 87, 174, 126, 194, 67, 159, 2, 0.801123
190, 1, wb, attraction, a-b-da, 14, 2, 2, 16, 153, 83, 90, 165, 165, 90, 1, 1.28681
190, 1, wb, attraction, a-b-da, 14, 2, 2, 16, 153, 83, 90, 165, 165, 90, 2, 1.14631
190, 1, wb, attraction, a-b-da, 2, 3, 2, 17, 193, 119, 195, 120, 120, 195, 3, 1.97802
190, 1, wb, attraction, a-b-da, 2, 3, 2, 17, 193, 119, 195, 120, 120, 195, 2, 0.913304
190, 1, wb, attraction, a-b-da, 2, 1, 2, 18, 134, 59, 135, 60, 60, 135, 3, 1.57027
190, 1, wb, attraction, a-b-da, 2, 1, 2, 18, 134, 59, 135, 60, 60, 135, 2, 1.13841
190, 1, wb, filler, NA, 999, 999, 2, 19, 82, 95, 152, 69, 60, 90, 3, 0.738695
190, 1, wb, filler, NA, 999, 999, 2, 19, 82, 95, 152, 69, 60, 90, 2, 0.651755
190, 1, wb, attraction, a-b-da, 9, 2, 2, 20, 90, 165, 165, 90, 157, 86, 3, 2.71148
190, 1, wb, attraction, a-b-da, 9, 2, 2, 20, 90, 165, 165, 90, 157, 86, 1, 0.849247
190, 1, wb, filler, NA, 999, 999, 2, 21, 170, 80, 61, 186, 105, 130, 2, 3.29299
190, 1, wb, filler, NA, 999, 999, 2, 21, 170, 80, 61, 186, 105, 130, 1, 0.447322
190, 1, wb, filler, NA, 999, 999, 2, 22, 126, 176, 183, 62, 195, 69, 3, 2.29117
190, 1, wb, filler, NA, 999, 999, 2, 22, 126, 176, 183, 62, 195, 69, 1, 0.333712
190, 1, wb, attraction, a-b-db, 5, 3, 2, 23, 195, 120, 120, 195, 117, 190, 3, 4.1342
190, 1, wb, attraction, a-b-db, 5, 3, 2, 23, 195, 120, 120, 195, 117, 190, 2, 1.43088
190, 1, wb, filler, NA, 999, 999, 2, 24, 162, 137, 104, 122, 99, 189, 2, 1.28298
190, 1, wb, filler, NA, 999, 999, 2, 24, 162, 137, 104, 122, 99, 189, 1, 1.07059
190, 1, wb, attraction, a-b-db, 9, 3, 2, 25, 114, 186, 195, 120, 120, 195, 1, 1.97746
190, 1, wb, attraction, a-b-db, 9, 3, 2, 25, 114, 186, 195, 120, 120, 195, 3, 1.05693
190, 1, wb, filler, NA, 999, 999, 2, 26, 124, 153, 77, 157, 119, 171, 2, 1.56387
190, 1, wb, filler, NA, 999, 999, 2, 26, 124, 153, 77, 157, 119, 171, 3, 0.300005
190, 1, wb, attraction, a-b-db, 5, 1, 2, 27, 58, 132, 60, 135, 135, 60, 1, 2.4777
190, 1, wb, attraction, a-b-db, 5, 1, 2, 27, 58, 132, 60, 135, 135, 60, 3, 0.67292
190, 1, wb, attraction, a-b-da, 9, 3, 2, 28, 195, 120, 120, 195, 186, 114, 3, 4.47618
190, 1, wb, attraction, a-b-da, 9, 3, 2, 28, 195, 120, 120, 195, 186, 114, 2, 0.782579
190, 1, wb, attraction, a-b-db, 9, 1, 2, 29, 60, 135, 57, 129, 135, 60, 1, 2.28509
190, 1, wb, attraction, a-b-db, 9, 1, 2, 29, 60, 135, 57, 129, 135, 60, 3, 0.880296
190, 1, wb, attraction, a-b-db, 14, 2, 2, 30, 165, 90, 90, 165, 83, 153, 3, 1.42661
190, 1, wb, attraction, a-b-db, 14, 2, 2, 30, 165, 90, 90, 165, 83, 153, 2, 0.704158
190, 1, wb, attraction, a-b-db, 9, 2, 2, 31, 86, 157, 165, 90, 90, 165, 1, 0.985798
190, 1, wb, attraction, a-b-db, 9, 2, 2, 31, 86, 157, 165, 90, 90, 165, 3, 0.969527
190, 1, wb, attraction, a-b-da, 5, 2, 2, 32, 90, 165, 161, 88, 165, 90, 1, 1.84838
190, 1, wb, attraction, a-b-da, 5, 2, 2, 32, 90, 165, 161, 88, 165, 90, 3, 0.925312
190, 1, wb, catch, NA, 999, 999, 2, 33, 127, 188, 114, 141, 62, 133, 3, 0.685518
190, 1, wb, catch, NA, 999, 999, 2, 33, 127, 188, 114, 141, 62, 133, 1, 0.41728
190, 1, wb, attraction, a-b-da, 5, 3, 2, 34, 195, 120, 120, 195, 190, 117, 1, 1.73441
190, 1, wb, attraction, a-b-da, 5, 3, 2, 34, 195, 120, 120, 195, 190, 117, 2, 1.04784
190, 1, wb, filler, NA, 999, 999, 2, 35, 155, 122, 70, 106, 76, 175, 2, 1.71539
190, 1, wb, filler, NA, 999, 999, 2, 35, 155, 122, 70, 106, 76, 175, 1, 0.293721
190, 1, wb, attraction, a-b-db, 5, 2, 2, 36, 90, 165, 88, 161, 165, 90, 1, 4.99948
190, 1, wb, attraction, a-b-db, 5, 2, 2, 36, 90, 165, 88, 161, 165, 90, 3, 2.21324
190, 1, wb, filler, NA, 999, 999, 2, 37, 163, 176, 133, 123, 106, 131, 3, 1.48989
190, 1, wb, filler, NA, 999, 999, 2, 37, 163, 176, 133, 123, 106, 131, 1, 0.796614
190, 1, wb, attraction, a-b-da, 2, 1, 3, 1, 60, 135, 134, 59, 135, 60, 3, 2.5863
190, 1, wb, attraction, a-b-da, 2, 1, 3, 1, 60, 135, 134, 59, 135, 60, 2, 0.585424
190, 1, wb, attraction, a-b-db, 14, 1, 3, 2, 56, 125, 60, 135, 135, 60, 1, 1.02382
190, 1, wb, attraction, a-b-db, 14, 1, 3, 2, 56, 125, 60, 135, 135, 60, 3, 0.61353
190, 1, wb, filler, NA, 999, 999, 3, 3, 191, 184, 89, 62, 137, 126, 2, 1.04277
190, 1, wb, filler, NA, 999, 999, 3, 3, 191, 184, 89, 62, 137, 126, 1, 0.503672
190, 1, wb, attraction, a-b-db, 9, 3, 3, 4, 114, 186, 195, 120, 120, 195, 1, 2.49736
190, 1, wb, attraction, a-b-db, 9, 3, 3, 4, 114, 186, 195, 120, 120, 195, 3, 1.83591
190, 1, wb, filler, NA, 999, 999, 3, 5, 173, 110, 190, 111, 125, 166, 1, 1.94389
190, 1, wb, filler, NA, 999, 999, 3, 5, 173, 110, 190, 111, 125, 166, 2, 1.02469
190, 1, wb, filler, NA, 999, 999, 3, 6, 93, 59, 162, 150, 98, 95, 1, 1.09297
190, 1, wb, filler, NA, 999, 999, 3, 6, 93, 59, 162, 150, 98, 95, 2, 0.295853
190, 1, wb, attraction, a-b-da, 2, 3, 3, 7, 193, 119, 195, 120, 120, 195, 1, 1.64965
190, 1, wb, attraction, a-b-da, 2, 3, 3, 7, 193, 119, 195, 120, 120, 195, 3, 0.822564
190, 1, wb, filler, NA, 999, 999, 3, 8, 142, 137, 195, 102, 73, 127, 3, 1.67551
190, 1, wb, filler, NA, 999, 999, 3, 8, 142, 137, 195, 102, 73, 127, 1, 0.366992
190, 1, wb, filler, NA, 999, 999, 3, 9, 149, 101, 156, 87, 81, 136, 3, 1.49419
190, 1, wb, filler, NA, 999, 999, 3, 9, 149, 101, 156, 87, 81, 136, 1, 0.513037
190, 1, wb, attraction, a-b-db, 5, 2, 3, 10, 165, 90, 88, 161, 90, 165, 3, 2.61011
190, 1, wb, attraction, a-b-db, 5, 2, 3, 10, 165, 90, 88, 161, 90, 165, 1, 0.887933
190, 1, wb, filler, NA, 999, 999, 3, 11, 168, 177, 94, 176, 57, 116, 3, 0.578328
190, 1, wb, filler, NA, 999, 999, 3, 11, 168, 177, 94, 176, 57, 116, 1, 0.674138
190, 1, wb, attraction, a-b-db, 5, 1, 3, 12, 60, 135, 135, 60, 58, 132, 2, 1.12448
190, 1, wb, attraction, a-b-db, 5, 1, 3, 12, 60, 135, 135, 60, 58, 132, 3, 0.798115
190, 1, wb, attraction, a-b-da, 2, 2, 3, 13, 90, 165, 165, 90, 163, 89, 2, 1.52377
190, 1, wb, attraction, a-b-da, 2, 2, 3, 13, 90, 165, 165, 90, 163, 89, 3, 0.325215
190, 1, wb, attraction, a-b-da, 14, 3, 3, 14, 195, 120, 120, 195, 181, 111, 3, 1.41383
190, 1, wb, attraction, a-b-da, 14, 3, 3, 14, 195, 120, 120, 195, 181, 111, 2, 0.836071
190, 1, wb, filler, NA, 999, 999, 3, 15, 146, 175, 104, 135, 64, 157, 3, 1.80834
190, 1, wb, filler, NA, 999, 999, 3, 15, 146, 175, 104, 135, 64, 157, 1, 0.254481
190, 1, wb, attraction, a-b-da, 14, 1, 3, 16, 60, 135, 135, 60, 125, 56, 2, 2.01028
190, 1, wb, attraction, a-b-da, 14, 1, 3, 16, 60, 135, 135, 60, 125, 56, 1, 0.640283
190, 1, wb, catch, NA, 999, 999, 3, 17, 173, 142, 67, 128, 154, 101, 2, 0.812002
190, 1, wb, catch, NA, 999, 999, 3, 17, 173, 142, 67, 128, 154, 101, 1, 0.882476
190, 1, wb, attraction, a-b-db, 2, 1, 3, 18, 60, 135, 59, 134, 135, 60, 2, 1.4928
190, 1, wb, attraction, a-b-db, 2, 1, 3, 18, 60, 135, 59, 134, 135, 60, 1, 0.807606
190, 1, wb, attraction, a-b-db, 9, 1, 3, 19, 135, 60, 60, 135, 57, 129, 1, 1.97264
190, 1, wb, attraction, a-b-db, 9, 1, 3, 19, 135, 60, 60, 135, 57, 129, 2, 0.31592
190, 1, wb, attraction, a-b-db, 9, 2, 3, 20, 90, 165, 86, 157, 165, 90, 3, 4.40521
190, 1, wb, attraction, a-b-db, 9, 2, 3, 20, 90, 165, 86, 157, 165, 90, 1, 0.562408
190, 1, wb, filler, NA, 999, 999, 3, 21, 85, 61, 195, 95, 99, 85, 1, 0.825395
190, 1, wb, filler, NA, 999, 999, 3, 21, 85, 61, 195, 95, 99, 85, 2, 0.263217
190, 1, wb, filler, NA, 999, 999, 3, 22, 90, 129, 181, 61, 105, 182, 2, 1.60239
190, 1, wb, filler, NA, 999, 999, 3, 22, 90, 129, 181, 61, 105, 182, 3, 0.27321
190, 1, wb, filler, NA, 999, 999, 3, 23, 94, 58, 153, 150, 101, 84, 1, 0.747687
190, 1, wb, filler, NA, 999, 999, 3, 23, 94, 58, 153, 150, 101, 84, 2, 0.236791
190, 1, wb, attraction, a-b-da, 5, 2, 3, 24, 90, 165, 165, 90, 161, 88, 3, 2.92139
190, 1, wb, attraction, a-b-da, 5, 2, 3, 24, 90, 165, 165, 90, 161, 88, 1, 1.21914
190, 1, wb, attraction, a-b-da, 14, 2, 3, 25, 165, 90, 90, 165, 153, 83, 1, 1.24793
190, 1, wb, attraction, a-b-da, 14, 2, 3, 25, 165, 90, 90, 165, 153, 83, 2, 0.324876
190, 1, wb, attraction, a-b-da, 5, 3, 3, 26, 190, 117, 120, 195, 195, 120, 3, 1.23732
190, 1, wb, attraction, a-b-da, 5, 3, 3, 26, 190, 117, 120, 195, 195, 120, 2, 0.290978
190, 1, wb, catch, NA, 999, 999, 3, 27, 155, 100, 106, 89, 148, 167, 2, 0.924739
190, 1, wb, catch, NA, 999, 999, 3, 27, 155, 100, 106, 89, 148, 167, 3, 0.214473
190, 1, wb, attraction, a-b-db, 5, 3, 3, 28, 120, 195, 117, 190, 195, 120, 1, 2.83568
190, 1, wb, attraction, a-b-db, 5, 3, 3, 28, 120, 195, 117, 190, 195, 120, 3, 0.760735
190, 1, wb, attraction, a-b-db, 14, 3, 3, 29, 195, 120, 120, 195, 111, 181, 3, 1.43181
190, 1, wb, attraction, a-b-db, 14, 3, 3, 29, 195, 120, 120, 195, 111, 181, 1, 0.781311
190, 1, wb, attraction, a-b-da, 5, 1, 3, 30, 60, 135, 132, 58, 135, 60, 3, 1.02771
190, 1, wb, attraction, a-b-da, 5, 1, 3, 30, 60, 135, 132, 58, 135, 60, 2, 1.38543
190, 1, wb, attraction, a-b-da, 9, 2, 3, 31, 157, 86, 165, 90, 90, 165, 1, 1.67956
190, 1, wb, attraction, a-b-da, 9, 2, 3, 31, 157, 86, 165, 90, 90, 165, 3, 0.259099
190, 1, wb, attraction, a-b-da, 9, 3, 3, 32, 186, 114, 120, 195, 195, 120, 1, 4.94219
190, 1, wb, attraction, a-b-da, 9, 3, 3, 32, 186, 114, 120, 195, 195, 120, 2, 0.286061
190, 1, wb, attraction, a-b-db, 2, 3, 3, 33, 119, 193, 195, 120, 120, 195, 1, 1.02448
190, 1, wb, attraction, a-b-db, 2, 3, 3, 33, 119, 193, 195, 120, 120, 195, 3, 1.67808
190, 1, wb, attraction, a-b-db, 14, 2, 3, 34, 83, 153, 90, 165, 165, 90, 1, 1.30421
190, 1, wb, attraction, a-b-db, 14, 2, 3, 34, 83, 153, 90, 165, 165, 90, 3, 0.923496
190, 1, wb, catch, NA, 999, 999, 3, 35, 101, 154, 167, 148, 105, 90, 3, 0.859446
190, 1, wb, catch, NA, 999, 999, 3, 35, 101, 154, 167, 148, 105, 90, 2, 0.263696
190, 1, wb, attraction, a-b-da, 9, 1, 3, 36, 60, 135, 129, 57, 135, 60, 2, 1.34737
190, 1, wb, attraction, a-b-da, 9, 1, 3, 36, 60, 135, 129, 57, 135, 60, 3, 1.16383
190, 1, wb, attraction, a-b-db, 2, 2, 3, 37, 89, 163, 165, 90, 90, 165, 3, 1.89875
190, 1, wb, attraction, a-b-db, 2, 2, 3, 37, 89, 163, 165, 90, 90, 165, 2, 1.56559
190, 1, wb, catch, NA, 999, 999, 4, 1, 131, 184, 111, 84, 143, 112, 2, 0.676322
190, 1, wb, catch, NA, 999, 999, 4, 1, 131, 184, 111, 84, 143, 112, 1, 1.07217
190, 1, wb, attraction, a-b-db, 9, 2, 4, 2, 86, 157, 90, 165, 165, 90, 1, 1.32311
190, 1, wb, attraction, a-b-db, 9, 2, 4, 2, 86, 157, 90, 165, 165, 90, 3, 0.308704
190, 1, wb, catch, NA, 999, 999, 4, 3, 126, 189, 147, 108, 103, 92, 3, 1.47771
190, 1, wb, catch, NA, 999, 999, 4, 3, 126, 189, 147, 108, 103, 92, 1, 0.257188
190, 1, wb, attraction, a-b-da, 2, 1, 4, 4, 135, 60, 134, 59, 60, 135, 1, 1.25242
190, 1, wb, attraction, a-b-da, 2, 1, 4, 4, 135, 60, 134, 59, 60, 135, 2, 1.02532
190, 1, wb, attraction, a-b-da, 9, 2, 4, 5, 90, 165, 165, 90, 157, 86, 3, 1.11769
190, 1, wb, attraction, a-b-da, 9, 2, 4, 5, 90, 165, 165, 90, 157, 86, 2, 0.943822
190, 1, wb, catch, NA, 999, 999, 4, 6, 130, 65, 120, 195, 101, 154, 1, 0.855659
190, 1, wb, catch, NA, 999, 999, 4, 6, 130, 65, 120, 195, 101, 154, 2, 0.507869
190, 1, wb, filler, NA, 999, 999, 4, 7, 111, 94, 97, 127, 180, 65, 1, 1.06899
190, 1, wb, filler, NA, 999, 999, 4, 7, 111, 94, 97, 127, 180, 65, 3, 2.97733
190, 1, wb, filler, NA, 999, 999, 4, 8, 79, 161, 83, 166, 77, 195, 1, 1.21499
190, 1, wb, filler, NA, 999, 999, 4, 8, 79, 161, 83, 166, 77, 195, 3, 0.501234
190, 1, wb, attraction, a-b-da, 5, 3, 4, 9, 195, 120, 120, 195, 190, 117, 3, 1.27108
190, 1, wb, attraction, a-b-da, 5, 3, 4, 9, 195, 120, 120, 195, 190, 117, 2, 1.30732
190, 1, wb, attraction, a-b-da, 9, 3, 4, 10, 186, 114, 120, 195, 195, 120, 1, 0.900214
190, 1, wb, attraction, a-b-da, 9, 3, 4, 10, 186, 114, 120, 195, 195, 120, 2, 0.775236
190, 1, wb, attraction, a-b-db, 9, 3, 4, 11, 195, 120, 114, 186, 120, 195, 1, 1.84555
190, 1, wb, attraction, a-b-db, 9, 3, 4, 11, 195, 120, 114, 186, 120, 195, 3, 0.546254
190, 1, wb, filler, NA, 999, 999, 4, 12, 169, 183, 153, 128, 62, 137, 3, 0.674107
190, 1, wb, filler, NA, 999, 999, 4, 12, 169, 183, 153, 128, 62, 137, 1, 0.749735
190, 1, wb, attraction, a-b-db, 2, 2, 4, 13, 90, 165, 165, 90, 89, 163, 1, 0.773519
190, 1, wb, attraction, a-b-db, 2, 2, 4, 13, 90, 165, 165, 90, 89, 163, 3, 0.397308
190, 1, wb, attraction, a-b-db, 5, 2, 4, 14, 90, 165, 165, 90, 88, 161, 3, 2.53902
190, 1, wb, attraction, a-b-db, 5, 2, 4, 14, 90, 165, 165, 90, 88, 161, 2, 1.71565
190, 1, wb, attraction, a-b-da, 14, 2, 4, 15, 165, 90, 90, 165, 153, 83, 3, 2.46029
190, 1, wb, attraction, a-b-da, 14, 2, 4, 15, 165, 90, 90, 165, 153, 83, 2, 1.28017
190, 1, wb, attraction, a-b-db, 2, 3, 4, 16, 119, 193, 120, 195, 195, 120, 3, 4.75436
190, 1, wb, attraction, a-b-db, 2, 3, 4, 16, 119, 193, 120, 195, 195, 120, 2, 0.90626
190, 1, wb, attraction, a-b-da, 9, 1, 4, 17, 135, 60, 60, 135, 129, 57, 1, 1.01191
190, 1, wb, attraction, a-b-da, 9, 1, 4, 17, 135, 60, 60, 135, 129, 57, 2, 0.346215
190, 1, wb, attraction, a-b-db, 9, 1, 4, 18, 57, 129, 60, 135, 135, 60, 3, 1.34618
190, 1, wb, attraction, a-b-db, 9, 1, 4, 18, 57, 129, 60, 135, 135, 60, 2, 1.23493
190, 1, wb, filler, NA, 999, 999, 4, 19, 62, 91, 137, 157, 85, 87, 1, 1.05517
190, 1, wb, filler, NA, 999, 999, 4, 19, 62, 91, 137, 157, 85, 87, 2, 0.291578
190, 1, wb, attraction, a-b-db, 14, 1, 4, 20, 60, 135, 135, 60, 56, 125, 3, 1.06938
190, 1, wb, attraction, a-b-db, 14, 1, 4, 20, 60, 135, 135, 60, 56, 125, 2, 0.817666
190, 1, wb, attraction, a-b-db, 14, 3, 4, 21, 195, 120, 120, 195, 111, 181, 3, 2.29468
190, 1, wb, attraction, a-b-db, 14, 3, 4, 21, 195, 120, 120, 195, 111, 181, 1, 0.609294
190, 1, wb, attraction, a-b-da, 14, 1, 4, 22, 125, 56, 60, 135, 135, 60, 1, 0.974329
190, 1, wb, attraction, a-b-da, 14, 1, 4, 22, 125, 56, 60, 135, 135, 60, 3, 1.14196
190, 1, wb, filler, NA, 999, 999, 4, 23, 169, 120, 99, 117, 137, 109, 2, 0.95751
190, 1, wb, filler, NA, 999, 999, 4, 23, 169, 120, 99, 117, 137, 109, 1, 0.526096
190, 1, wb, attraction, a-b-db, 5, 1, 4, 24, 135, 60, 58, 132, 60, 135, 3, 2.79833
190, 1, wb, attraction, a-b-db, 5, 1, 4, 24, 135, 60, 58, 132, 60, 135, 1, 1.82886
190, 1, wb, attraction, a-b-da, 14, 3, 4, 25, 195, 120, 120, 195, 181, 111, 3, 1.08083
190, 1, wb, attraction, a-b-da, 14, 3, 4, 25, 195, 120, 120, 195, 181, 111, 2, 0.508517
190, 1, wb, filler, NA, 999, 999, 4, 26, 89, 151, 96, 125, 66, 98, 3, 0.597598
190, 1, wb, filler, NA, 999, 999, 4, 26, 89, 151, 96, 125, 66, 98, 1, 0.268809
190, 1, wb, attraction, a-b-db, 5, 3, 4, 27, 195, 120, 120, 195, 117, 190, 3, 0.919965
190, 1, wb, attraction, a-b-db, 5, 3, 4, 27, 195, 120, 120, 195, 117, 190, 1, 0.30627
190, 1, wb, filler, NA, 999, 999, 4, 28, 121, 108, 110, 129, 85, 59, 3, 0.676034
190, 1, wb, filler, NA, 999, 999, 4, 28, 121, 108, 110, 129, 85, 59, 2, 0.887805
190, 1, wb, attraction, a-b-db, 14, 2, 4, 29, 165, 90, 90, 165, 83, 153, 3, 2.7142
190, 1, wb, attraction, a-b-db, 14, 2, 4, 29, 165, 90, 90, 165, 83, 153, 2, 0.708071
190, 1, wb, attraction, a-b-da, 5, 2, 4, 30, 161, 88, 165, 90, 90, 165, 1, 1.22903
190, 1, wb, attraction, a-b-da, 5, 2, 4, 30, 161, 88, 165, 90, 90, 165, 3, 0.762731
190, 1, wb, filler, NA, 999, 999, 4, 31, 133, 156, 125, 58, 62, 92, 3, 0.705639
190, 1, wb, filler, NA, 999, 999, 4, 31, 133, 156, 125, 58, 62, 92, 1, 0.532113
190, 1, wb, attraction, a-b-da, 2, 2, 4, 32, 165, 90, 90, 165, 163, 89, 1, 1.23653
190, 1, wb, attraction, a-b-da, 2, 2, 4, 32, 165, 90, 90, 165, 163, 89, 2, 0.266049
190, 1, wb, filler, NA, 999, 999, 4, 33, 134, 178, 57, 169, 117, 156, 3, 1.04526
190, 1, wb, filler, NA, 999, 999, 4, 33, 134, 178, 57, 169, 117, 156, 1, 0.250267
190, 1, wb, attraction, a-b-da, 2, 3, 4, 34, 195, 120, 120, 195, 193, 119, 3, 2.19826
190, 1, wb, attraction, a-b-da, 2, 3, 4, 34, 195, 120, 120, 195, 193, 119, 2, 0.452789
190, 1, wb, attraction, a-b-db, 2, 1, 4, 35, 60, 135, 59, 134, 135, 60, 1, 1.66464
190, 1, wb, attraction, a-b-db, 2, 1, 4, 35, 60, 135, 59, 134, 135, 60, 3, 0.516724
190, 1, wb, filler, NA, 999, 999, 4, 36, 143, 103, 122, 60, 184, 68, 1, 1.22985
190, 1, wb, filler, NA, 999, 999, 4, 36, 143, 103, 122, 60, 184, 68, 3, 1.60344
190, 1, wb, attraction, a-b-da, 5, 1, 4, 37, 132, 58, 135, 60, 60, 135, 3, 1.44877
190, 1, wb, attraction, a-b-da, 5, 1, 4, 37, 132, 58, 135, 60, 60, 135, 1, 0.237645
190, 1, wb, catch, NA, 999, 999, 5, 1, 178, 137, 88, 107, 97, 158, 2, 3.08025
190, 1, wb, catch, NA, 999, 999, 5, 1, 178, 137, 88, 107, 97, 158, 1, 0.611171
190, 1, wb, attraction, a-b-db, 2, 1, 5, 2, 60, 135, 135, 60, 59, 134, 1, 2.24851
190, 1, wb, attraction, a-b-db, 2, 1, 5, 2, 60, 135, 135, 60, 59, 134, 3, 0.972856
190, 1, wb, filler, NA, 999, 999, 5, 3, 133, 128, 194, 191, 173, 70, 3, 1.77256
190, 1, wb, filler, NA, 999, 999, 5, 3, 133, 128, 194, 191, 173, 70, 2, 0.219193
190, 1, wb, attraction, a-b-db, 9, 2, 5, 4, 90, 165, 86, 157, 165, 90, 3, 1.47249
190, 1, wb, attraction, a-b-db, 9, 2, 5, 4, 90, 165, 86, 157, 165, 90, 1, 0.419879
190, 1, wb, attraction, a-b-da, 14, 1, 5, 5, 135, 60, 60, 135, 125, 56, 3, 1.32929
190, 1, wb, attraction, a-b-da, 14, 1, 5, 5, 135, 60, 60, 135, 125, 56, 1, 0.99474
190, 1, wb, attraction, a-b-da, 9, 2, 5, 6, 157, 86, 90, 165, 165, 90, 1, 2.22433
190, 1, wb, attraction, a-b-da, 9, 2, 5, 6, 157, 86, 90, 165, 165, 90, 2, 0.453608
190, 1, wb, attraction, a-b-da, 2, 3, 5, 7, 195, 120, 193, 119, 120, 195, 1, 2.50539
190, 1, wb, attraction, a-b-da, 2, 3, 5, 7, 195, 120, 193, 119, 120, 195, 3, 0.571324
190, 1, wb, filler, NA, 999, 999, 5, 8, 112, 175, 142, 142, 87, 130, 3, 0.786317
190, 1, wb, filler, NA, 999, 999, 5, 8, 112, 175, 142, 142, 87, 130, 1, 1.70616
190, 1, wb, attraction, a-b-da, 9, 3, 5, 9, 195, 120, 186, 114, 120, 195, 3, 2.57961
190, 1, wb, attraction, a-b-da, 9, 3, 5, 9, 195, 120, 186, 114, 120, 195, 1, 0.706642
190, 1, wb, attraction, a-b-da, 9, 1, 5, 10, 60, 135, 135, 60, 129, 57, 1, 0.852288
190, 1, wb, attraction, a-b-da, 9, 1, 5, 10, 60, 135, 135, 60, 129, 57, 3, 0.58542
190, 1, wb, attraction, a-b-db, 14, 2, 5, 11, 83, 153, 90, 165, 165, 90, 1, 1.07981
190, 1, wb, attraction, a-b-db, 14, 2, 5, 11, 83, 153, 90, 165, 165, 90, 2, 0.875421
190, 1, wb, filler, NA, 999, 999, 5, 12, 128, 59, 164, 99, 159, 195, 1, 1.12587
190, 1, wb, filler, NA, 999, 999, 5, 12, 128, 59, 164, 99, 159, 195, 3, 0.279399
190, 1, wb, attraction, a-b-db, 5, 3, 5, 13, 117, 190, 195, 120, 120, 195, 1, 1.88988
190, 1, wb, attraction, a-b-db, 5, 3, 5, 13, 117, 190, 195, 120, 120, 195, 3, 0.196633
190, 1, wb, filler, NA, 999, 999, 5, 14, 63, 70, 116, 178, 102, 146, 1, 0.674436
190, 1, wb, filler, NA, 999, 999, 5, 14, 63, 70, 116, 178, 102, 146, 2, 0.294261
190, 1, wb, attraction, a-b-da, 5, 3, 5, 15, 190, 117, 195, 120, 120, 195, 3, 1.32024
190, 1, wb, attraction, a-b-da, 5, 3, 5, 15, 190, 117, 195, 120, 120, 195, 2, 0.218396
190, 1, wb, filler, NA, 999, 999, 5, 16, 126, 143, 127, 171, 194, 116, 1, 0.655567
190, 1, wb, filler, NA, 999, 999, 5, 16, 126, 143, 127, 171, 194, 116, 2, 1.46807
190, 1, wb, attraction, a-b-db, 2, 3, 5, 17, 119, 193, 195, 120, 120, 195, 1, 0.854875
190, 1, wb, attraction, a-b-db, 2, 3, 5, 17, 119, 193, 195, 120, 120, 195, 2, 0.363325
190, 1, wb, attraction, a-b-db, 14, 3, 5, 18, 195, 120, 120, 195, 111, 181, 3, 0.738463
190, 1, wb, attraction, a-b-db, 14, 3, 5, 18, 195, 120, 120, 195, 111, 181, 2, 0.283373
190, 1, wb, attraction, a-b-da, 14, 2, 5, 19, 153, 83, 165, 90, 90, 165, 1, 0.845876
190, 1, wb, attraction, a-b-da, 14, 2, 5, 19, 153, 83, 165, 90, 90, 165, 3, 0.418998
190, 1, wb, catch, NA, 999, 999, 5, 20, 114, 141, 95, 100, 149, 166, 2, 0.648232
190, 1, wb, catch, NA, 999, 999, 5, 20, 114, 141, 95, 100, 149, 166, 3, 0.309263
190, 1, wb, attraction, a-b-db, 9, 1, 5, 21, 135, 60, 60, 135, 57, 129, 1, 2.35834
190, 1, wb, attraction, a-b-db, 9, 1, 5, 21, 135, 60, 60, 135, 57, 129, 3, 0.254297
190, 1, wb, attraction, a-b-db, 9, 3, 5, 22, 195, 120, 114, 186, 120, 195, 3, 1.88226
190, 1, wb, attraction, a-b-db, 9, 3, 5, 22, 195, 120, 114, 186, 120, 195, 2, 0.245598
190, 1, wb, attraction, a-b-da, 14, 3, 5, 23, 120, 195, 195, 120, 181, 111, 1, 1.73742
190, 1, wb, attraction, a-b-da, 14, 3, 5, 23, 120, 195, 195, 120, 181, 111, 2, 0.250867
190, 1, wb, catch, NA, 999, 999, 5, 24, 73, 122, 179, 136, 163, 92, 1, 0.702722
190, 1, wb, catch, NA, 999, 999, 5, 24, 73, 122, 179, 136, 163, 92, 2, 0.209805
190, 1, wb, attraction, a-b-da, 5, 1, 5, 25, 60, 135, 135, 60, 132, 58, 3, 1.12705
190, 1, wb, attraction, a-b-da, 5, 1, 5, 25, 60, 135, 135, 60, 132, 58, 2, 0.520765
190, 1, wb, attraction, a-b-db, 2, 2, 5, 26, 90, 165, 89, 163, 165, 90, 3, 2.05779
190, 1, wb, attraction, a-b-db, 2, 2, 5, 26, 90, 165, 89, 163, 165, 90, 2, 0.245737
190, 1, wb, filler, NA, 999, 999, 5, 27, 116, 116, 151, 181, 95, 98, 3, 0.897668
190, 1, wb, filler, NA, 999, 999, 5, 27, 116, 116, 151, 181, 95, 98, 2, 0.300763
190, 1, wb, filler, NA, 999, 999, 5, 28, 162, 191, 56, 110, 170, 160, 2, 1.31853
190, 1, wb, filler, NA, 999, 999, 5, 28, 162, 191, 56, 110, 170, 160, 1, 0.528778
190, 1, wb, attraction, a-b-db, 5, 1, 5, 29, 135, 60, 60, 135, 58, 132, 1, 1.80113
190, 1, wb, attraction, a-b-db, 5, 1, 5, 29, 135, 60, 60, 135, 58, 132, 2, 0.5599
190, 1, wb, attraction, a-b-da, 2, 2, 5, 30, 90, 165, 163, 89, 165, 90, 1, 2.43101
190, 1, wb, attraction, a-b-da, 2, 2, 5, 30, 90, 165, 163, 89, 165, 90, 2, 0.81228
190, 1, wb, attraction, a-b-da, 2, 1, 5, 31, 135, 60, 134, 59, 60, 135, 1, 1.52144
190, 1, wb, attraction, a-b-da, 2, 1, 5, 31, 135, 60, 134, 59, 60, 135, 3, 0.314731
190, 1, wb, attraction, a-b-da, 5, 2, 5, 32, 165, 90, 161, 88, 90, 165, 3, 2.41204
190, 1, wb, attraction, a-b-da, 5, 2, 5, 32, 165, 90, 161, 88, 90, 165, 2, 1.28179
190, 1, wb, filler, NA, 999, 999, 5, 33, 195, 77, 81, 152, 111, 141, 2, 1.66001
190, 1, wb, filler, NA, 999, 999, 5, 33, 195, 77, 81, 152, 111, 141, 3, 1.12016
190, 1, wb, filler, NA, 999, 999, 5, 34, 150, 72, 126, 154, 95, 162, 1, 1.60119
190, 1, wb, filler, NA, 999, 999, 5, 34, 150, 72, 126, 154, 95, 162, 2, 0.263823
190, 1, wb, attraction, a-b-db, 5, 2, 5, 35, 90, 165, 165, 90, 88, 161, 1, 1.55504
190, 1, wb, attraction, a-b-db, 5, 2, 5, 35, 90, 165, 165, 90, 88, 161, 2, 1.08323
190, 1, wb, attraction, a-b-db, 14, 1, 5, 36, 56, 125, 60, 135, 135, 60, 1, 1.14153
190, 1, wb, attraction, a-b-db, 14, 1, 5, 36, 56, 125, 60, 135, 135, 60, 3, 0.846562
190, 1, wb, filler, NA, 999, 999, 5, 37, 56, 132, 172, 106, 156, 169, 1, 0.874333
190, 1, wb, filler, NA, 999, 999, 5, 37, 56, 132, 172, 106, 156, 169, 3, 0.237837
190, 1, wb, attraction, a-b-da, 5, 2, 6, 1, 161, 88, 165, 90, 90, 165, 1, 1.98629
190, 1, wb, attraction, a-b-da, 5, 2, 6, 1, 161, 88, 165, 90, 90, 165, 3, 0.521697
190, 1, wb, attraction, a-b-da, 2, 3, 6, 2, 195, 120, 193, 119, 120, 195, 1, 1.37082
190, 1, wb, attraction, a-b-da, 2, 3, 6, 2, 195, 120, 193, 119, 120, 195, 3, 0.635121
190, 1, wb, attraction, a-b-da, 14, 1, 6, 3, 135, 60, 60, 135, 125, 56, 2, 0.951363
190, 1, wb, attraction, a-b-da, 14, 1, 6, 3, 135, 60, 60, 135, 125, 56, 1, 0.784454
190, 1, wb, filler, NA, 999, 999, 6, 4, 142, 86, 123, 139, 105, 79, 3, 1.2149
190, 1, wb, filler, NA, 999, 999, 6, 4, 142, 86, 123, 139, 105, 79, 2, 0.205093
190, 1, wb, attraction, a-b-db, 2, 3, 6, 5, 119, 193, 195, 120, 120, 195, 3, 0.923061
190, 1, wb, attraction, a-b-db, 2, 3, 6, 5, 119, 193, 195, 120, 120, 195, 2, 0.62058
190, 1, wb, catch, NA, 999, 999, 6, 6, 148, 167, 125, 130, 119, 76, 3, 0.625667
190, 1, wb, catch, NA, 999, 999, 6, 6, 148, 167, 125, 130, 119, 76, 1, 0.223616
190, 1, wb, attraction, a-b-db, 14, 2, 6, 7, 83, 153, 90, 165, 165, 90, 1, 0.884041
190, 1, wb, attraction, a-b-db, 14, 2, 6, 7, 83, 153, 90, 165, 165, 90, 3, 0.519828
190, 1, wb, attraction, a-b-da, 2, 1, 6, 8, 60, 135, 134, 59, 135, 60, 1, 1.63288
190, 1, wb, attraction, a-b-da, 2, 1, 6, 8, 60, 135, 134, 59, 135, 60, 3, 0.454407
190, 1, wb, filler, NA, 999, 999, 6, 9, 157, 166, 138, 184, 76, 183, 3, 1.03409
190, 1, wb, filler, NA, 999, 999, 6, 9, 157, 166, 138, 184, 76, 183, 2, 0.615803
190, 1, wb, attraction, a-b-db, 9, 3, 6, 10, 120, 195, 195, 120, 114, 186, 1, 2.36479
190, 1, wb, attraction, a-b-db, 9, 3, 6, 10, 120, 195, 195, 120, 114, 186, 2, 0.404822
190, 1, wb, attraction, a-b-db, 2, 2, 6, 11, 165, 90, 90, 165, 89, 163, 2, 1.17865
190, 1, wb, attraction, a-b-db, 2, 2, 6, 11, 165, 90, 90, 165, 89, 163, 3, 0.954254
190, 1, wb, attraction, a-b-db, 14, 1, 6, 12, 56, 125, 60, 135, 135, 60, 1, 2.69785
190, 1, wb, attraction, a-b-db, 14, 1, 6, 12, 56, 125, 60, 135, 135, 60, 3, 0.996308
190, 1, wb, attraction, a-b-db, 9, 2, 6, 13, 165, 90, 90, 165, 86, 157, 1, 1.57789
190, 1, wb, attraction, a-b-db, 9, 2, 6, 13, 165, 90, 90, 165, 86, 157, 3, 0.825413
190, 1, wb, attraction, a-b-da, 14, 2, 6, 14, 165, 90, 90, 165, 153, 83, 2, 0.845772
190, 1, wb, attraction, a-b-da, 14, 2, 6, 14, 165, 90, 90, 165, 153, 83, 3, 0.714817
190, 1, wb, attraction, a-b-db, 9, 1, 6, 15, 60, 135, 57, 129, 135, 60, 2, 1.04379
190, 1, wb, attraction, a-b-db, 9, 1, 6, 15, 60, 135, 57, 129, 135, 60, 1, 0.552829
190, 1, wb, attraction, a-b-da, 9, 1, 6, 16, 135, 60, 129, 57, 60, 135, 2, 2.00065
190, 1, wb, attraction, a-b-da, 9, 1, 6, 16, 135, 60, 129, 57, 60, 135, 3, 0.263299
190, 1, wb, filler, NA, 999, 999, 6, 17, 74, 136, 153, 64, 123, 70, 2, 1.21043
190, 1, wb, filler, NA, 999, 999, 6, 17, 74, 136, 153, 64, 123, 70, 1, 2.37672
190, 1, wb, attraction, a-b-db, 5, 2, 6, 18, 90, 165, 88, 161, 165, 90, 2, 1.03059
190, 1, wb, attraction, a-b-db, 5, 2, 6, 18, 90, 165, 88, 161, 165, 90, 3, 0.460326
190, 1, wb, attraction, a-b-db, 2, 1, 6, 19, 59, 134, 135, 60, 60, 135, 3, 2.27939
190, 1, wb, attraction, a-b-db, 2, 1, 6, 19, 59, 134, 135, 60, 60, 135, 2, 0.442559
190, 1, wb, filler, NA, 999, 999, 6, 20, 93, 111, 123, 104, 169, 137, 1, 0.774364
190, 1, wb, filler, NA, 999, 999, 6, 20, 93, 111, 123, 104, 169, 137, 3, 0.470112
190, 1, wb, filler, NA, 999, 999, 6, 21, 98, 158, 59, 150, 114, 101, 3, 1.7693
190, 1, wb, filler, NA, 999, 999, 6, 21, 98, 158, 59, 150, 114, 101, 1, 0.321347
190, 1, wb, attraction, a-b-da, 2, 2, 6, 22, 165, 90, 90, 165, 163, 89, 3, 1.97853
190, 1, wb, attraction, a-b-da, 2, 2, 6, 22, 165, 90, 90, 165, 163, 89, 2, 0.27389
190, 1, wb, attraction, a-b-da, 5, 1, 6, 23, 132, 58, 135, 60, 60, 135, 3, 2.13236
190, 1, wb, attraction, a-b-da, 5, 1, 6, 23, 132, 58, 135, 60, 60, 135, 2, 1.26179
190, 1, wb, catch, NA, 999, 999, 6, 24, 152, 103, 84, 111, 131, 184, 2, 1.6647
190, 1, wb, catch, NA, 999, 999, 6, 24, 152, 103, 84, 111, 131, 184, 3, 0.172721
190, 1, wb, filler, NA, 999, 999, 6, 25, 137, 108, 91, 80, 169, 89, 2, 0.67589
190, 1, wb, filler, NA, 999, 999, 6, 25, 137, 108, 91, 80, 169, 89, 3, 2.45574
190, 1, wb, attraction, a-b-db, 14, 3, 6, 26, 111, 181, 120, 195, 195, 120, 1, 3.69884
190, 1, wb, attraction, a-b-db, 14, 3, 6, 26, 111, 181, 120, 195, 195, 120, 2, 0.965172
190, 1, wb, filler, NA, 999, 999, 6, 27, 74, 141, 83, 170, 85, 161, 1, 1.65998
190, 1, wb, filler, NA, 999, 999, 6, 27, 74, 141, 83, 170, 85, 161, 3, 0.480073
190, 1, wb, filler, NA, 999, 999, 6, 28, 96, 107, 160, 151, 81, 65, 3, 0.786651
190, 1, wb, filler, NA, 999, 999, 6, 28, 96, 107, 160, 151, 81, 65, 2, 0.210249
190, 1, wb, attraction, a-b-da, 14, 3, 6, 29, 195, 120, 120, 195, 181, 111, 3, 2.51157
190, 1, wb, attraction, a-b-da, 14, 3, 6, 29, 195, 120, 120, 195, 181, 111, 2, 0.793403
190, 1, wb, attraction, a-b-da, 5, 3, 6, 30, 190, 117, 120, 195, 195, 120, 3, 1.31916
190, 1, wb, attraction, a-b-da, 5, 3, 6, 30, 190, 117, 120, 195, 195, 120, 2, 0.657362
190, 1, wb, attraction, a-b-da, 9, 3, 6, 31, 195, 120, 186, 114, 120, 195, 3, 1.49254
190, 1, wb, attraction, a-b-da, 9, 3, 6, 31, 195, 120, 186, 114, 120, 195, 1, 0.247176
190, 1, wb, attraction, a-b-da, 9, 2, 6, 32, 90, 165, 157, 86, 165, 90, 3, 3.73911
190, 1, wb, attraction, a-b-da, 9, 2, 6, 32, 90, 165, 157, 86, 165, 90, 2, 1.01135
190, 1, wb, filler, NA, 999, 999, 6, 33, 188, 132, 151, 111, 147, 86, 3, 0.792239
190, 1, wb, filler, NA, 999, 999, 6, 33, 188, 132, 151, 111, 147, 86, 1, 0.223227
190, 1, wb, attraction, a-b-db, 5, 3, 6, 34, 117, 190, 195, 120, 120, 195, 1, 0.972612
190, 1, wb, attraction, a-b-db, 5, 3, 6, 34, 117, 190, 195, 120, 120, 195, 2, 0.380085
190, 1, wb, catch, NA, 999, 999, 6, 35, 125, 70, 128, 187, 136, 119, 1, 0.786529
190, 1, wb, catch, NA, 999, 999, 6, 35, 125, 70, 128, 187, 136, 119, 2, 0.274271
190, 1, wb, attraction, a-b-db, 5, 1, 6, 36, 58, 132, 60, 135, 135, 60, 2, 1.19679
190, 1, wb, attraction, a-b-db, 5, 1, 6, 36, 58, 132, 60, 135, 135, 60, 3, 1.09981
190, 1, wb, filler, NA, 999, 999, 6, 37, 177, 144, 56, 131, 100, 87, 3, 1.09341
190, 1, wb, filler, NA, 999, 999, 6, 37, 177, 144, 56, 131, 100, 87, 1, 0.264311
190, 1, wb, attraction, a-b-da, 2, 1, 7, 1, 134, 59, 135, 60, 60, 135, 1, 0.819504
190, 1, wb, attraction, a-b-da, 2, 1, 7, 1, 134, 59, 135, 60, 60, 135, 2, 1.0099
190, 1, wb, attraction, a-b-db, 2, 2, 7, 2, 89, 163, 90, 165, 165, 90, 1, 1.26291
190, 1, wb, attraction, a-b-db, 2, 2, 7, 2, 89, 163, 90, 165, 165, 90, 2, 0.587103
190, 1, wb, attraction, a-b-db, 14, 3, 7, 3, 111, 181, 195, 120, 120, 195, 1, 0.993695
190, 1, wb, attraction, a-b-db, 14, 3, 7, 3, 111, 181, 195, 120, 120, 195, 2, 0.632759
190, 1, wb, attraction, a-b-da, 2, 3, 7, 4, 195, 120, 120, 195, 193, 119, 1, 1.39711
190, 1, wb, attraction, a-b-da, 2, 3, 7, 4, 195, 120, 120, 195, 193, 119, 2, 2.39578
190, 1, wb, attraction, a-b-da, 5, 3, 7, 5, 195, 120, 190, 117, 120, 195, 3, 0.897088
190, 1, wb, attraction, a-b-da, 5, 3, 7, 5, 195, 120, 190, 117, 120, 195, 1, 0.42808
190, 1, wb, filler, NA, 999, 999, 7, 6, 175, 83, 180, 98, 116, 128, 3, 0.720705
190, 1, wb, filler, NA, 999, 999, 7, 6, 175, 83, 180, 98, 116, 128, 2, 0.426933
190, 1, wb, attraction, a-b-db, 5, 3, 7, 7, 117, 190, 195, 120, 120, 195, 3, 0.527486
190, 1, wb, attraction, a-b-db, 5, 3, 7, 7, 117, 190, 195, 120, 120, 195, 2, 0.937291
190, 1, wb, attraction, a-b-db, 9, 2, 7, 8, 90, 165, 86, 157, 165, 90, 1, 0.66553
190, 1, wb, attraction, a-b-db, 9, 2, 7, 8, 90, 165, 86, 157, 165, 90, 2, 0.59802
190, 1, wb, catch, NA, 999, 999, 7, 9, 95, 100, 178, 137, 106, 149, 1, 0.939747
190, 1, wb, catch, NA, 999, 999, 7, 9, 95, 100, 178, 137, 106, 149, 2, 0.268715
190, 1, wb, filler, NA, 999, 999, 7, 10, 100, 73, 78, 141, 68, 146, 1, 0.864017
190, 1, wb, filler, NA, 999, 999, 7, 10, 100, 73, 78, 141, 68, 146, 2, 0.580233
190, 1, wb, attraction, a-b-db, 14, 1, 7, 11, 135, 60, 60, 135, 56, 125, 3, 1.85076
190, 1, wb, attraction, a-b-db, 14, 1, 7, 11, 135, 60, 60, 135, 56, 125, 2, 0.89544
190, 1, wb, attraction, a-b-da, 14, 1, 7, 12, 135, 60, 60, 135, 125, 56, 3, 0.769184
190, 1, wb, attraction, a-b-da, 14, 1, 7, 12, 135, 60, 60, 135, 125, 56, 2, 0.84158
190, 1, wb, attraction, a-b-da, 5, 2, 7, 13, 90, 165, 165, 90, 161, 88, 1, 0.589107
190, 1, wb, attraction, a-b-da, 5, 2, 7, 13, 90, 165, 165, 90, 161, 88, 2, 1.42042
190, 1, wb, filler, NA, 999, 999, 7, 14, 125, 155, 140, 128, 180, 158, 2, 1.77716
190, 1, wb, filler, NA, 999, 999, 7, 14, 125, 155, 140, 128, 180, 158, 3, 0.232611
190, 1, wb, attraction, a-b-db, 9, 3, 7, 15, 120, 195, 114, 186, 195, 120, 2, 1.66925
190, 1, wb, attraction, a-b-db, 9, 3, 7, 15, 120, 195, 114, 186, 195, 120, 3, 0.833373
190, 1, wb, attraction, a-b-db, 2, 3, 7, 16, 195, 120, 119, 193, 120, 195, 3, 1.65373
190, 1, wb, attraction, a-b-db, 2, 3, 7, 16, 195, 120, 119, 193, 120, 195, 2, 0.370391
190, 1, wb, attraction, a-b-da, 9, 1, 7, 17, 60, 135, 135, 60, 129, 57, 1, 0.905531
190, 1, wb, attraction, a-b-da, 9, 1, 7, 17, 60, 135, 135, 60, 129, 57, 2, 0.451959
190, 1, wb, catch, NA, 999, 999, 7, 18, 174, 141, 118, 137, 83, 112, 3, 0.575704
190, 1, wb, catch, NA, 999, 999, 7, 18, 174, 141, 118, 137, 83, 112, 1, 0.335707
190, 1, wb, attraction, a-b-db, 9, 1, 7, 19, 57, 129, 60, 135, 135, 60, 1, 1.62398
190, 1, wb, attraction, a-b-db, 9, 1, 7, 19, 57, 129, 60, 135, 135, 60, 3, 0.877451
190, 1, wb, filler, NA, 999, 999, 7, 20, 79, 180, 183, 76, 171, 118, 1, 1.99985
190, 1, wb, filler, NA, 999, 999, 7, 20, 79, 180, 183, 76, 171, 118, 3, 0.454415
190, 1, wb, filler, NA, 999, 999, 7, 21, 121, 176, 135, 131, 189, 91, 3, 1.06637
190, 1, wb, filler, NA, 999, 999, 7, 21, 121, 176, 135, 131, 189, 91, 2, 1.13459
190, 1, wb, filler, NA, 999, 999, 7, 22, 182, 193, 189, 176, 145, 141, 3, 1.1428
190, 1, wb, filler, NA, 999, 999, 7, 22, 182, 193, 189, 176, 145, 141, 2, 0.239727
190, 1, wb, filler, NA, 999, 999, 7, 23, 184, 156, 83, 58, 70, 84, 2, 1.34035
190, 1, wb, filler, NA, 999, 999, 7, 23, 184, 156, 83, 58, 70, 84, 1, 0.573164
190, 1, wb, attraction, a-b-da, 14, 3, 7, 24, 181, 111, 195, 120, 120, 195, 1, 1.46021
190, 1, wb, attraction, a-b-da, 14, 3, 7, 24, 181, 111, 195, 120, 120, 195, 2, 0.624581
190, 1, wb, attraction, a-b-db, 5, 1, 7, 25, 135, 60, 60, 135, 58, 132, 3, 3.57286
190, 1, wb, attraction, a-b-db, 5, 1, 7, 25, 135, 60, 60, 135, 58, 132, 2, 0.603697
190, 1, wb, attraction, a-b-da, 2, 2, 7, 26, 90, 165, 163, 89, 165, 90, 3, 1.1695
190, 1, wb, attraction, a-b-da, 2, 2, 7, 26, 90, 165, 163, 89, 165, 90, 2, 0.28177
190, 1, wb, filler, NA, 999, 999, 7, 27, 146, 113, 170, 191, 193, 74, 1, 1.42033
190, 1, wb, filler, NA, 999, 999, 7, 27, 146, 113, 170, 191, 193, 74, 2, 0.730414
190, 1, wb, attraction, a-b-da, 9, 2, 7, 28, 165, 90, 90, 165, 157, 86, 3, 2.09888
190, 1, wb, attraction, a-b-da, 9, 2, 7, 28, 165, 90, 90, 165, 157, 86, 2, 0.301568
190, 1, wb, attraction, a-b-db, 14, 2, 7, 29, 83, 153, 90, 165, 165, 90, 1, 0.935439
190, 1, wb, attraction, a-b-db, 14, 2, 7, 29, 83, 153, 90, 165, 165, 90, 2, 0.601025
190, 1, wb, filler, NA, 999, 999, 7, 30, 65, 57, 141, 100, 138, 83, 1, 1.28672
190, 1, wb, filler, NA, 999, 999, 7, 30, 65, 57, 141, 100, 138, 83, 2, 0.578367
190, 1, wb, attraction, a-b-da, 9, 3, 7, 31, 186, 114, 120, 195, 195, 120, 3, 2.96076
190, 1, wb, attraction, a-b-da, 9, 3, 7, 31, 186, 114, 120, 195, 195, 120, 2, 0.280539
190, 1, wb, attraction, a-b-db, 2, 1, 7, 32, 59, 134, 60, 135, 135, 60, 1, 1.41904
190, 1, wb, attraction, a-b-db, 2, 1, 7, 32, 59, 134, 60, 135, 135, 60, 2, 0.625268
190, 1, wb, catch, NA, 999, 999, 7, 33, 161, 94, 131, 64, 194, 121, 2, 0.829734
190, 1, wb, catch, NA, 999, 999, 7, 33, 161, 94, 131, 64, 194, 121, 3, 0.267325
190, 1, wb, attraction, a-b-db, 5, 2, 7, 34, 90, 165, 88, 161, 165, 90, 3, 1.60661
190, 1, wb, attraction, a-b-db, 5, 2, 7, 34, 90, 165, 88, 161, 165, 90, 2, 0.804741
190, 1, wb, attraction, a-b-da, 5, 1, 7, 35, 135, 60, 60, 135, 132, 58, 3, 2.15444
190, 1, wb, attraction, a-b-da, 5, 1, 7, 35, 135, 60, 60, 135, 132, 58, 2, 0.426982
190, 1, wb, filler, NA, 999, 999, 7, 36, 179, 88, 183, 128, 67, 107, 3, 0.62345
190, 1, wb, filler, NA, 999, 999, 7, 36, 179, 88, 183, 128, 67, 107, 2, 0.781262
190, 1, wb, attraction, a-b-da, 14, 2, 7, 37, 90, 165, 153, 83, 165, 90, 3, 1.28367
190, 1, wb, attraction, a-b-da, 14, 2, 7, 37, 90, 165, 153, 83, 165, 90, 2, 0.991252
190, 1, wb, filler, NA, 999, 999, 8, 1, 148, 104, 190, 69, 160, 101, 3, 1.58093
190, 1, wb, filler, NA, 999, 999, 8, 1, 148, 104, 190, 69, 160, 101, 2, 0.436349
190, 1, wb, attraction, a-b-da, 14, 2, 8, 2, 165, 90, 90, 165, 153, 83, 3, 1.62475
190, 1, wb, attraction, a-b-da, 14, 2, 8, 2, 165, 90, 90, 165, 153, 83, 2, 0.302175
190, 1, wb, attraction, a-b-db, 9, 1, 8, 3, 60, 135, 57, 129, 135, 60, 1, 2.0801
190, 1, wb, attraction, a-b-db, 9, 1, 8, 3, 60, 135, 57, 129, 135, 60, 3, 1.45942
190, 1, wb, attraction, a-b-da, 2, 2, 8, 4, 165, 90, 90, 165, 163, 89, 3, 1.45426
190, 1, wb, attraction, a-b-da, 2, 2, 8, 4, 165, 90, 90, 165, 163, 89, 2, 0.307089
190, 1, wb, attraction, a-b-da, 5, 2, 8, 5, 90, 165, 165, 90, 161, 88, 1, 2.01303
190, 1, wb, attraction, a-b-da, 5, 2, 8, 5, 90, 165, 165, 90, 161, 88, 2, 0.578279
190, 1, wb, filler, NA, 999, 999, 8, 6, 75, 125, 70, 161, 69, 133, 1, 1.64072
190, 1, wb, filler, NA, 999, 999, 8, 6, 75, 125, 70, 161, 69, 133, 2, 0.397458
190, 1, wb, attraction, a-b-db, 2, 3, 8, 7, 195, 120, 119, 193, 120, 195, 3, 2.05142
190, 1, wb, attraction, a-b-db, 2, 3, 8, 7, 195, 120, 119, 193, 120, 195, 2, 0.840007
190, 1, wb, filler, NA, 999, 999, 8, 8, 125, 111, 171, 106, 158, 76, 3, 2.01163
190, 1, wb, filler, NA, 999, 999, 8, 8, 125, 111, 171, 106, 158, 76, 2, 0.569697
190, 1, wb, attraction, a-b-db, 2, 2, 8, 9, 165, 90, 89, 163, 90, 165, 1, 1.51277
190, 1, wb, attraction, a-b-db, 2, 2, 8, 9, 165, 90, 89, 163, 90, 165, 2, 0.339087
190, 1, wb, filler, NA, 999, 999, 8, 10, 115, 172, 83, 157, 97, 186, 2, 1.3074
190, 1, wb, filler, NA, 999, 999, 8, 10, 115, 172, 83, 157, 97, 186, 1, 0.221644
190, 1, wb, attraction, a-b-db, 5, 2, 8, 11, 88, 161, 90, 165, 165, 90, 1, 2.19506
190, 1, wb, attraction, a-b-db, 5, 2, 8, 11, 88, 161, 90, 165, 165, 90, 2, 0.257447
190, 1, wb, catch, NA, 999, 999, 8, 12, 93, 162, 176, 139, 62, 133, 3, 0.588661
190, 1, wb, catch, NA, 999, 999, 8, 12, 93, 162, 176, 139, 62, 133, 2, 0.315789
190, 1, wb, filler, NA, 999, 999, 8, 13, 111, 128, 195, 75, 122, 75, 3, 1.27711
190, 1, wb, filler, NA, 999, 999, 8, 13, 111, 128, 195, 75, 122, 75, 2, 2.22463
190, 1, wb, filler, NA, 999, 999, 8, 14, 145, 195, 114, 193, 127, 67, 3, 1.87658
190, 1, wb, filler, NA, 999, 999, 8, 14, 145, 195, 114, 193, 127, 67, 1, 0.519971
190, 1, wb, attraction, a-b-da, 9, 3, 8, 15, 195, 120, 186, 114, 120, 195, 1, 1.64104
190, 1, wb, attraction, a-b-da, 9, 3, 8, 15, 195, 120, 186, 114, 120, 195, 3, 0.365803
190, 1, wb, attraction, a-b-da, 2, 1, 8, 16, 134, 59, 60, 135, 135, 60, 1, 1.08501
190, 1, wb, attraction, a-b-da, 2, 1, 8, 16, 134, 59, 60, 135, 135, 60, 3, 0.664688
190, 1, wb, filler, NA, 999, 999, 8, 17, 120, 183, 71, 87, 173, 146, 2, 0.835563
190, 1, wb, filler, NA, 999, 999, 8, 17, 120, 183, 71, 87, 173, 146, 3, 1.71343
190, 1, wb, catch, NA, 999, 999, 8, 18, 150, 105, 166, 149, 117, 78, 3, 0.674239
190, 1, wb, catch, NA, 999, 999, 8, 18, 150, 105, 166, 149, 117, 78, 2, 0.237809
190, 1, wb, filler, NA, 999, 999, 8, 19, 120, 195, 115, 184, 135, 130, 3, 2.6105
190, 1, wb, filler, NA, 999, 999, 8, 19, 120, 195, 115, 184, 135, 130, 1, 0.336178
190, 1, wb, attraction, a-b-db, 14, 3, 8, 20, 195, 120, 120, 195, 111, 181, 3, 2.50479
190, 1, wb, attraction, a-b-db, 14, 3, 8, 20, 195, 120, 120, 195, 111, 181, 2, 0.203306
190, 1, wb, attraction, a-b-da, 2, 3, 8, 21, 120, 195, 193, 119, 195, 120, 1, 1.14518
190, 1, wb, attraction, a-b-da, 2, 3, 8, 21, 120, 195, 193, 119, 195, 120, 2, 1.19415
190, 1, wb, attraction, a-b-db, 14, 2, 8, 22, 90, 165, 83, 153, 165, 90, 2, 1.90366
190, 1, wb, attraction, a-b-db, 14, 2, 8, 22, 90, 165, 83, 153, 165, 90, 1, 0.570297
190, 1, wb, attraction, a-b-db, 5, 1, 8, 23, 135, 60, 60, 135, 58, 132, 3, 1.39356
190, 1, wb, attraction, a-b-db, 5, 1, 8, 23, 135, 60, 60, 135, 58, 132, 2, 1.11233
190, 1, wb, attraction, a-b-da, 5, 3, 8, 24, 195, 120, 190, 117, 120, 195, 3, 2.5133
190, 1, wb, attraction, a-b-da, 5, 3, 8, 24, 195, 120, 190, 117, 120, 195, 1, 0.499198
190, 1, wb, attraction, a-b-db, 5, 3, 8, 25, 120, 195, 117, 190, 195, 120, 2, 1.3089
190, 1, wb, attraction, a-b-db, 5, 3, 8, 25, 120, 195, 117, 190, 195, 120, 1, 1.26313
190, 1, wb, attraction, a-b-da, 14, 3, 8, 26, 181, 111, 195, 120, 120, 195, 1, 1.10595
190, 1, wb, attraction, a-b-da, 14, 3, 8, 26, 181, 111, 195, 120, 120, 195, 2, 0.332224
190, 1, wb, attraction, a-b-db, 14, 1, 8, 27, 60, 135, 56, 125, 135, 60, 2, 1.00485
190, 1, wb, attraction, a-b-db, 14, 1, 8, 27, 60, 135, 56, 125, 135, 60, 1, 0.77191
190, 1, wb, attraction, a-b-db, 9, 3, 8, 28, 120, 195, 114, 186, 195, 120, 3, 1.53884
190, 1, wb, attraction, a-b-db, 9, 3, 8, 28, 120, 195, 114, 186, 195, 120, 2, 0.515673
190, 1, wb, catch, NA, 999, 999, 8, 29, 66, 129, 98, 157, 187, 128, 1, 0.692726
190, 1, wb, catch, NA, 999, 999, 8, 29, 66, 129, 98, 157, 187, 128, 3, 0.887851
190, 1, wb, attraction, a-b-db, 2, 1, 8, 30, 135, 60, 59, 134, 60, 135, 2, 1.13822
190, 1, wb, attraction, a-b-db, 2, 1, 8, 30, 135, 60, 59, 134, 60, 135, 3, 0.827222
190, 1, wb, attraction, a-b-da, 5, 1, 8, 31, 132, 58, 60, 135, 135, 60, 1, 0.74355
190, 1, wb, attraction, a-b-da, 5, 1, 8, 31, 132, 58, 60, 135, 135, 60, 2, 0.504562
190, 1, wb, filler, NA, 999, 999, 8, 32, 56, 136, 89, 64, 191, 152, 2, 0.786267
190, 1, wb, filler, NA, 999, 999, 8, 32, 56, 136, 89, 64, 191, 152, 3, 1.07413
190, 1, wb, attraction, a-b-da, 14, 1, 8, 33, 125, 56, 60, 135, 135, 60, 1, 1.79641
190, 1, wb, attraction, a-b-da, 14, 1, 8, 33, 125, 56, 60, 135, 135, 60, 3, 2.3632
190, 1, wb, attraction, a-b-da, 9, 2, 8, 34, 165, 90, 157, 86, 90, 165, 3, 1.17771
190, 1, wb, attraction, a-b-da, 9, 2, 8, 34, 165, 90, 157, 86, 90, 165, 1, 0.681248
190, 1, wb, attraction, a-b-da, 9, 1, 8, 35, 135, 60, 129, 57, 60, 135, 1, 1.73156
190, 1, wb, attraction, a-b-da, 9, 1, 8, 35, 135, 60, 129, 57, 60, 135, 2, 0.317072
190, 1, wb, filler, NA, 999, 999, 8, 36, 98, 80, 95, 77, 158, 148, 2, 0.942202
190, 1, wb, filler, NA, 999, 999, 8, 36, 98, 80, 95, 77, 158, 148, 3, 0.639184
190, 1, wb, attraction, a-b-db, 9, 2, 8, 37, 90, 165, 165, 90, 86, 157, 3, 2.05966
190, 1, wb, attraction, a-b-db, 9, 2, 8, 37, 90, 165, 165, 90, 86, 157, 1, 0.711607
