sub_n, computer_n, bw_cond, effect, set, distance, diag, block_n, trial_n, h1, w1, h2, w2, h3, w3, choice, rt 
144, 1, wb, practice, NA, 999, 999, 0, 1, 80, 62, 122, 148, 59, 58, 3, 4.35099
144, 1, wb, practice, NA, 999, 999, 0, 1, 80, 62, 122, 148, 59, 58, 2, 2.07919
144, 1, wb, practice, NA, 999, 999, 0, 2, 118, 63, 118, 58, 69, 146, 2, 8.67641
144, 1, wb, practice, NA, 999, 999, 0, 2, 118, 63, 118, 58, 69, 146, 3, 2.32786
144, 1, wb, practice, NA, 999, 999, 0, 3, 181, 167, 175, 145, 147, 90, 3, 2.40402
144, 1, wb, practice, NA, 999, 999, 0, 3, 181, 167, 175, 145, 147, 90, 1, 1.33952
144, 1, wb, filler, NA, 999, 999, 1, 1, 162, 58, 158, 92, 92, 135, 1, 8.1633
144, 1, wb, filler, NA, 999, 999, 1, 1, 162, 58, 158, 92, 92, 135, 2, 1.06541
144, 1, wb, attraction, a-b-da, 5, 2, 1, 2, 90, 165, 165, 90, 161, 88, 3, 4.78028
144, 1, wb, attraction, a-b-da, 5, 2, 1, 2, 90, 165, 165, 90, 161, 88, 1, 2.14687
144, 1, wb, attraction, a-b-db, 14, 1, 1, 3, 135, 60, 60, 135, 56, 125, 3, 6.15422
144, 1, wb, attraction, a-b-db, 14, 1, 1, 3, 135, 60, 60, 135, 56, 125, 1, 2.35344
144, 1, wb, attraction, a-b-da, 9, 2, 1, 4, 90, 165, 165, 90, 157, 86, 3, 2.33673
144, 1, wb, attraction, a-b-da, 9, 2, 1, 4, 90, 165, 165, 90, 157, 86, 1, 1.00193
144, 1, wb, attraction, a-b-da, 2, 3, 1, 5, 193, 119, 195, 120, 120, 195, 2, 7.62369
144, 1, wb, attraction, a-b-da, 2, 3, 1, 5, 193, 119, 195, 120, 120, 195, 3, 1.13124
144, 1, wb, attraction, a-b-db, 5, 3, 1, 6, 117, 190, 120, 195, 195, 120, 1, 9.13134
144, 1, wb, attraction, a-b-db, 5, 3, 1, 6, 117, 190, 120, 195, 195, 120, 3, 2.03447
144, 1, wb, attraction, a-b-db, 9, 2, 1, 7, 86, 157, 90, 165, 165, 90, 1, 8.47039
144, 1, wb, attraction, a-b-db, 9, 2, 1, 7, 86, 157, 90, 165, 165, 90, 3, 8.95259
144, 1, wb, attraction, a-b-db, 14, 2, 1, 8, 83, 153, 90, 165, 165, 90, 1, 3.22956
144, 1, wb, attraction, a-b-db, 14, 2, 1, 8, 83, 153, 90, 165, 165, 90, 2, 1.83465
144, 1, wb, filler, NA, 999, 999, 1, 9, 67, 61, 145, 82, 122, 77, 1, 3.47064
144, 1, wb, filler, NA, 999, 999, 1, 9, 67, 61, 145, 82, 122, 77, 2, 1.59416
144, 1, wb, filler, NA, 999, 999, 1, 10, 184, 75, 125, 174, 169, 108, 1, 6.08759
144, 1, wb, filler, NA, 999, 999, 1, 10, 184, 75, 125, 174, 169, 108, 2, 1.18569
144, 1, wb, attraction, a-b-da, 5, 1, 1, 11, 135, 60, 60, 135, 132, 58, 3, 10.056
144, 1, wb, attraction, a-b-da, 5, 1, 1, 11, 135, 60, 60, 135, 132, 58, 1, 1.73818
144, 1, wb, filler, NA, 999, 999, 1, 12, 127, 140, 130, 185, 64, 89, 3, 1.92213
144, 1, wb, filler, NA, 999, 999, 1, 12, 127, 140, 130, 185, 64, 89, 2, 0.70765
144, 1, wb, attraction, a-b-da, 9, 1, 1, 13, 129, 57, 135, 60, 60, 135, 1, 3.69249
144, 1, wb, attraction, a-b-da, 9, 1, 1, 13, 129, 57, 135, 60, 60, 135, 2, 3.08677
144, 1, wb, attraction, a-b-db, 9, 1, 1, 14, 57, 129, 60, 135, 135, 60, 1, 3.64048
144, 1, wb, attraction, a-b-db, 9, 1, 1, 14, 57, 129, 60, 135, 135, 60, 2, 1.01255
144, 1, wb, attraction, a-b-da, 2, 1, 1, 15, 60, 135, 135, 60, 134, 59, 1, 9.43347
144, 1, wb, attraction, a-b-da, 2, 1, 1, 15, 60, 135, 135, 60, 134, 59, 3, 3.98056
144, 1, wb, attraction, a-b-da, 2, 2, 1, 16, 165, 90, 90, 165, 163, 89, 1, 4.45783
144, 1, wb, attraction, a-b-da, 2, 2, 1, 16, 165, 90, 90, 165, 163, 89, 2, 1.63758
144, 1, wb, attraction, a-b-da, 14, 1, 1, 17, 135, 60, 125, 56, 60, 135, 2, 1.86529
144, 1, wb, attraction, a-b-da, 14, 1, 1, 17, 135, 60, 125, 56, 60, 135, 1, 2.43731
144, 1, wb, catch, NA, 999, 999, 1, 18, 128, 127, 161, 154, 118, 77, 3, 2.07323
144, 1, wb, catch, NA, 999, 999, 1, 18, 128, 127, 161, 154, 118, 77, 2, 1.34857
144, 1, wb, attraction, a-b-da, 5, 3, 1, 19, 195, 120, 190, 117, 120, 195, 2, 10.5879
144, 1, wb, attraction, a-b-da, 5, 3, 1, 19, 195, 120, 190, 117, 120, 195, 3, 2.16875
144, 1, wb, attraction, a-b-db, 2, 2, 1, 20, 165, 90, 90, 165, 89, 163, 3, 3.60737
144, 1, wb, attraction, a-b-db, 2, 2, 1, 20, 165, 90, 90, 165, 89, 163, 1, 0.980742
144, 1, wb, attraction, a-b-db, 5, 2, 1, 21, 90, 165, 88, 161, 165, 90, 3, 12.1151
144, 1, wb, attraction, a-b-db, 5, 2, 1, 21, 90, 165, 88, 161, 165, 90, 1, 0.801869
144, 1, wb, filler, NA, 999, 999, 1, 22, 126, 170, 148, 107, 158, 110, 2, 2.25574
144, 1, wb, filler, NA, 999, 999, 1, 22, 126, 170, 148, 107, 158, 110, 1, 0.699694
144, 1, wb, catch, NA, 999, 999, 1, 23, 127, 128, 130, 185, 60, 135, 3, 1.23729
144, 1, wb, catch, NA, 999, 999, 1, 23, 127, 128, 130, 185, 60, 135, 2, 0.586954
144, 1, wb, attraction, a-b-db, 14, 3, 1, 24, 111, 181, 195, 120, 120, 195, 1, 3.72147
144, 1, wb, attraction, a-b-db, 14, 3, 1, 24, 111, 181, 195, 120, 120, 195, 3, 1.12269
144, 1, wb, attraction, a-b-da, 14, 3, 1, 25, 181, 111, 195, 120, 120, 195, 1, 2.79562
144, 1, wb, attraction, a-b-da, 14, 3, 1, 25, 181, 111, 195, 120, 120, 195, 3, 0.858074
144, 1, wb, filler, NA, 999, 999, 1, 26, 152, 72, 73, 188, 151, 142, 1, 1.35707
144, 1, wb, filler, NA, 999, 999, 1, 26, 152, 72, 73, 188, 151, 142, 3, 0.605277
144, 1, wb, filler, NA, 999, 999, 1, 27, 147, 113, 159, 103, 78, 88, 3, 3.2271
144, 1, wb, filler, NA, 999, 999, 1, 27, 147, 113, 159, 103, 78, 88, 1, 3.03212
144, 1, wb, attraction, a-b-db, 9, 3, 1, 28, 114, 186, 195, 120, 120, 195, 1, 12.1397
144, 1, wb, attraction, a-b-db, 9, 3, 1, 28, 114, 186, 195, 120, 120, 195, 2, 0.641839
144, 1, wb, attraction, a-b-da, 9, 3, 1, 29, 195, 120, 186, 114, 120, 195, 2, 7.74962
144, 1, wb, attraction, a-b-da, 9, 3, 1, 29, 195, 120, 186, 114, 120, 195, 3, 0.644556
144, 1, wb, catch, NA, 999, 999, 1, 30, 161, 154, 92, 103, 136, 119, 2, 1.25629
144, 1, wb, catch, NA, 999, 999, 1, 30, 161, 154, 92, 103, 136, 119, 1, 0.460679
144, 1, wb, attraction, a-b-db, 2, 3, 1, 31, 120, 195, 195, 120, 119, 193, 2, 4.89571
144, 1, wb, attraction, a-b-db, 2, 3, 1, 31, 120, 195, 195, 120, 119, 193, 1, 1.3534
144, 1, wb, filler, NA, 999, 999, 1, 32, 115, 104, 169, 155, 160, 91, 1, 1.27293
144, 1, wb, filler, NA, 999, 999, 1, 32, 115, 104, 169, 155, 160, 91, 2, 0.420455
144, 1, wb, attraction, a-b-db, 5, 1, 1, 33, 135, 60, 60, 135, 58, 132, 2, 5.60972
144, 1, wb, attraction, a-b-db, 5, 1, 1, 33, 135, 60, 60, 135, 58, 132, 1, 0.542736
144, 1, wb, filler, NA, 999, 999, 1, 34, 106, 163, 135, 170, 83, 169, 3, 7.01444
144, 1, wb, filler, NA, 999, 999, 1, 34, 106, 163, 135, 170, 83, 169, 2, 0.538747
144, 1, wb, filler, NA, 999, 999, 1, 35, 125, 97, 94, 179, 159, 90, 1, 5.28312
144, 1, wb, filler, NA, 999, 999, 1, 35, 125, 97, 94, 179, 159, 90, 2, 0.717495
144, 1, wb, attraction, a-b-db, 2, 1, 1, 36, 60, 135, 59, 134, 135, 60, 3, 4.51868
144, 1, wb, attraction, a-b-db, 2, 1, 1, 36, 60, 135, 59, 134, 135, 60, 1, 1.17588
144, 1, wb, attraction, a-b-da, 14, 2, 1, 37, 165, 90, 90, 165, 153, 83, 3, 1.73405
144, 1, wb, attraction, a-b-da, 14, 2, 1, 37, 165, 90, 90, 165, 153, 83, 2, 1.02352
144, 1, wb, attraction, a-b-da, 14, 3, 2, 1, 120, 195, 181, 111, 195, 120, 2, 2.6999
144, 1, wb, attraction, a-b-da, 14, 3, 2, 1, 120, 195, 181, 111, 195, 120, 3, 1.8622
144, 1, wb, filler, NA, 999, 999, 2, 2, 90, 87, 72, 128, 86, 147, 2, 10.7049
144, 1, wb, filler, NA, 999, 999, 2, 2, 90, 87, 72, 128, 86, 147, 3, 2.40893
144, 1, wb, filler, NA, 999, 999, 2, 3, 59, 147, 128, 133, 174, 75, 1, 6.38938
144, 1, wb, filler, NA, 999, 999, 2, 3, 59, 147, 128, 133, 174, 75, 2, 5.29948
144, 1, wb, attraction, a-b-da, 5, 1, 2, 4, 135, 60, 132, 58, 60, 135, 2, 7.13959
144, 1, wb, attraction, a-b-da, 5, 1, 2, 4, 135, 60, 132, 58, 60, 135, 1, 1.72348
144, 1, wb, attraction, a-b-da, 9, 3, 2, 5, 120, 195, 195, 120, 186, 114, 3, 3.22813
144, 1, wb, attraction, a-b-da, 9, 3, 2, 5, 120, 195, 195, 120, 186, 114, 1, 0.785237
144, 1, wb, attraction, a-b-db, 2, 3, 2, 6, 120, 195, 119, 193, 195, 120, 1, 3.84749
144, 1, wb, attraction, a-b-db, 2, 3, 2, 6, 120, 195, 119, 193, 195, 120, 2, 2.25172
144, 1, wb, filler, NA, 999, 999, 2, 7, 95, 130, 192, 89, 105, 65, 3, 2.43881
144, 1, wb, filler, NA, 999, 999, 2, 7, 95, 130, 192, 89, 105, 65, 2, 0.931335
144, 1, wb, attraction, a-b-db, 14, 2, 2, 8, 83, 153, 90, 165, 165, 90, 1, 2.99561
144, 1, wb, attraction, a-b-db, 14, 2, 2, 8, 83, 153, 90, 165, 165, 90, 2, 0.86604
144, 1, wb, attraction, a-b-db, 14, 3, 2, 9, 111, 181, 195, 120, 120, 195, 1, 1.80499
144, 1, wb, attraction, a-b-db, 14, 3, 2, 9, 111, 181, 195, 120, 120, 195, 3, 0.651104
144, 1, wb, attraction, a-b-db, 5, 3, 2, 10, 120, 195, 195, 120, 117, 190, 3, 5.35103
144, 1, wb, attraction, a-b-db, 5, 3, 2, 10, 120, 195, 195, 120, 117, 190, 1, 0.774437
144, 1, wb, catch, NA, 999, 999, 2, 11, 92, 163, 97, 98, 126, 189, 2, 4.04492
144, 1, wb, catch, NA, 999, 999, 2, 11, 92, 163, 97, 98, 126, 189, 3, 0.536875
144, 1, wb, filler, NA, 999, 999, 2, 12, 74, 102, 107, 155, 169, 126, 1, 1.61726
144, 1, wb, filler, NA, 999, 999, 2, 12, 74, 102, 107, 155, 169, 126, 3, 0.631526
144, 1, wb, catch, NA, 999, 999, 2, 13, 163, 152, 75, 120, 119, 136, 2, 1.62804
144, 1, wb, catch, NA, 999, 999, 2, 13, 163, 152, 75, 120, 119, 136, 1, 0.497354
144, 1, wb, attraction, a-b-da, 2, 3, 2, 14, 120, 195, 193, 119, 195, 120, 1, 3.24325
144, 1, wb, attraction, a-b-da, 2, 3, 2, 14, 120, 195, 193, 119, 195, 120, 3, 1.10356
144, 1, wb, attraction, a-b-da, 2, 2, 2, 15, 165, 90, 163, 89, 90, 165, 1, 4.72905
144, 1, wb, attraction, a-b-da, 2, 2, 2, 15, 165, 90, 163, 89, 90, 165, 3, 0.425484
144, 1, wb, attraction, a-b-db, 9, 3, 2, 16, 120, 195, 114, 186, 195, 120, 2, 4.85396
144, 1, wb, attraction, a-b-db, 9, 3, 2, 16, 120, 195, 114, 186, 195, 120, 3, 0.561798
144, 1, wb, filler, NA, 999, 999, 2, 17, 137, 135, 96, 91, 60, 136, 3, 5.67291
144, 1, wb, filler, NA, 999, 999, 2, 17, 137, 135, 96, 91, 60, 136, 1, 0.499115
144, 1, wb, attraction, a-b-da, 14, 2, 2, 18, 153, 83, 90, 165, 165, 90, 1, 6.22084
144, 1, wb, attraction, a-b-da, 14, 2, 2, 18, 153, 83, 90, 165, 165, 90, 2, 0.825623
144, 1, wb, attraction, a-b-db, 9, 1, 2, 19, 57, 129, 60, 135, 135, 60, 1, 5.46997
144, 1, wb, attraction, a-b-db, 9, 1, 2, 19, 57, 129, 60, 135, 135, 60, 3, 0.816895
144, 1, wb, attraction, a-b-da, 2, 1, 2, 20, 60, 135, 134, 59, 135, 60, 1, 7.23783
144, 1, wb, attraction, a-b-da, 2, 1, 2, 20, 60, 135, 134, 59, 135, 60, 3, 2.53768
144, 1, wb, attraction, a-b-db, 2, 1, 2, 21, 135, 60, 59, 134, 60, 135, 3, 4.77745
144, 1, wb, attraction, a-b-db, 2, 1, 2, 21, 135, 60, 59, 134, 60, 135, 1, 3.72792
144, 1, wb, attraction, a-b-db, 2, 2, 2, 22, 90, 165, 165, 90, 89, 163, 2, 2.57538
144, 1, wb, attraction, a-b-db, 2, 2, 2, 22, 90, 165, 165, 90, 89, 163, 1, 0.470526
144, 1, wb, filler, NA, 999, 999, 2, 23, 118, 87, 176, 176, 56, 79, 3, 1.75373
144, 1, wb, filler, NA, 999, 999, 2, 23, 118, 87, 176, 176, 56, 79, 2, 0.698423
144, 1, wb, attraction, a-b-da, 14, 1, 2, 24, 125, 56, 60, 135, 135, 60, 1, 4.37226
144, 1, wb, attraction, a-b-da, 14, 1, 2, 24, 125, 56, 60, 135, 135, 60, 2, 0.482677
144, 1, wb, attraction, a-b-da, 9, 1, 2, 25, 60, 135, 129, 57, 135, 60, 3, 4.14916
144, 1, wb, attraction, a-b-da, 9, 1, 2, 25, 60, 135, 129, 57, 135, 60, 1, 1.84523
144, 1, wb, attraction, a-b-db, 9, 2, 2, 26, 90, 165, 165, 90, 86, 157, 2, 3.01663
144, 1, wb, attraction, a-b-db, 9, 2, 2, 26, 90, 165, 165, 90, 86, 157, 1, 1.15022
144, 1, wb, catch, NA, 999, 999, 2, 27, 86, 109, 194, 121, 163, 92, 1, 1.34983
144, 1, wb, catch, NA, 999, 999, 2, 27, 86, 109, 194, 121, 163, 92, 2, 0.606729
144, 1, wb, attraction, a-b-da, 5, 2, 2, 28, 165, 90, 90, 165, 161, 88, 3, 5.45978
144, 1, wb, attraction, a-b-da, 5, 2, 2, 28, 165, 90, 90, 165, 161, 88, 2, 0.942698
144, 1, wb, attraction, a-b-db, 5, 2, 2, 29, 88, 161, 165, 90, 90, 165, 1, 6.04637
144, 1, wb, attraction, a-b-db, 5, 2, 2, 29, 88, 161, 165, 90, 90, 165, 3, 2.57788
144, 1, wb, attraction, a-b-db, 5, 1, 2, 30, 58, 132, 60, 135, 135, 60, 1, 3.63961
144, 1, wb, attraction, a-b-db, 5, 1, 2, 30, 58, 132, 60, 135, 135, 60, 2, 0.55576
144, 1, wb, attraction, a-b-db, 14, 1, 2, 31, 56, 125, 60, 135, 135, 60, 1, 7.89963
144, 1, wb, attraction, a-b-db, 14, 1, 2, 31, 56, 125, 60, 135, 135, 60, 2, 0.476484
144, 1, wb, filler, NA, 999, 999, 2, 32, 176, 63, 154, 165, 119, 89, 3, 1.39079
144, 1, wb, filler, NA, 999, 999, 2, 32, 176, 63, 154, 165, 119, 89, 2, 0.7097
144, 1, wb, filler, NA, 999, 999, 2, 33, 151, 95, 180, 135, 71, 178, 3, 1.46265
144, 1, wb, filler, NA, 999, 999, 2, 33, 151, 95, 180, 135, 71, 178, 2, 1.06704
144, 1, wb, filler, NA, 999, 999, 2, 34, 80, 105, 142, 147, 128, 177, 1, 1.12601
144, 1, wb, filler, NA, 999, 999, 2, 34, 80, 105, 142, 147, 128, 177, 3, 0.719613
144, 1, wb, attraction, a-b-da, 5, 3, 2, 35, 120, 195, 190, 117, 195, 120, 2, 2.81659
144, 1, wb, attraction, a-b-da, 5, 3, 2, 35, 120, 195, 190, 117, 195, 120, 1, 0.686351
144, 1, wb, attraction, a-b-da, 9, 2, 2, 36, 90, 165, 165, 90, 157, 86, 3, 1.75278
144, 1, wb, attraction, a-b-da, 9, 2, 2, 36, 90, 165, 165, 90, 157, 86, 1, 0.497507
144, 1, wb, filler, NA, 999, 999, 2, 37, 70, 152, 150, 80, 189, 147, 1, 1.66729
144, 1, wb, filler, NA, 999, 999, 2, 37, 70, 152, 150, 80, 189, 147, 3, 0.50361
144, 1, wb, attraction, a-b-db, 5, 1, 3, 1, 58, 132, 60, 135, 135, 60, 1, 3.12132
144, 1, wb, attraction, a-b-db, 5, 1, 3, 1, 58, 132, 60, 135, 135, 60, 3, 0.618948
144, 1, wb, catch, NA, 999, 999, 3, 2, 181, 134, 122, 133, 90, 105, 3, 1.4639
144, 1, wb, catch, NA, 999, 999, 3, 2, 181, 134, 122, 133, 90, 105, 1, 0.476215
144, 1, wb, attraction, a-b-db, 14, 1, 3, 3, 135, 60, 60, 135, 56, 125, 3, 1.35055
144, 1, wb, attraction, a-b-db, 14, 1, 3, 3, 135, 60, 60, 135, 56, 125, 1, 0.623398
144, 1, wb, filler, NA, 999, 999, 3, 4, 70, 136, 146, 152, 112, 68, 3, 1.89181
144, 1, wb, filler, NA, 999, 999, 3, 4, 70, 136, 146, 152, 112, 68, 2, 0.470637
144, 1, wb, attraction, a-b-da, 9, 3, 3, 5, 195, 120, 186, 114, 120, 195, 2, 2.00161
144, 1, wb, attraction, a-b-da, 9, 3, 3, 5, 195, 120, 186, 114, 120, 195, 3, 0.832484
144, 1, wb, attraction, a-b-da, 5, 1, 3, 6, 132, 58, 60, 135, 135, 60, 3, 2.28476
144, 1, wb, attraction, a-b-da, 5, 1, 3, 6, 132, 58, 60, 135, 135, 60, 2, 0.808071
144, 1, wb, attraction, a-b-da, 14, 3, 3, 7, 120, 195, 195, 120, 181, 111, 3, 2.76499
144, 1, wb, attraction, a-b-da, 14, 3, 3, 7, 120, 195, 195, 120, 181, 111, 2, 0.492876
144, 1, wb, attraction, a-b-db, 2, 2, 3, 8, 89, 163, 90, 165, 165, 90, 1, 2.54269
144, 1, wb, attraction, a-b-db, 2, 2, 3, 8, 89, 163, 90, 165, 165, 90, 3, 1.02316
144, 1, wb, catch, NA, 999, 999, 3, 9, 186, 129, 116, 79, 140, 115, 2, 1.31609
144, 1, wb, catch, NA, 999, 999, 3, 9, 186, 129, 116, 79, 140, 115, 1, 0.53436
144, 1, wb, filler, NA, 999, 999, 3, 10, 195, 86, 89, 130, 139, 74, 3, 2.51869
144, 1, wb, filler, NA, 999, 999, 3, 10, 195, 86, 89, 130, 139, 74, 1, 0.680595
144, 1, wb, filler, NA, 999, 999, 3, 11, 142, 126, 66, 168, 115, 62, 3, 1.25102
144, 1, wb, filler, NA, 999, 999, 3, 11, 142, 126, 66, 168, 115, 62, 1, 1.18392
144, 1, wb, attraction, a-b-da, 9, 1, 3, 12, 135, 60, 129, 57, 60, 135, 2, 1.80621
144, 1, wb, attraction, a-b-da, 9, 1, 3, 12, 135, 60, 129, 57, 60, 135, 1, 0.788187
144, 1, wb, attraction, a-b-da, 2, 2, 3, 13, 163, 89, 90, 165, 165, 90, 1, 2.33055
144, 1, wb, attraction, a-b-da, 2, 2, 3, 13, 163, 89, 90, 165, 165, 90, 2, 0.675827
144, 1, wb, filler, NA, 999, 999, 3, 14, 78, 108, 150, 94, 83, 60, 3, 3.41426
144, 1, wb, filler, NA, 999, 999, 3, 14, 78, 108, 150, 94, 83, 60, 2, 0.755767
144, 1, wb, attraction, a-b-db, 9, 3, 3, 15, 114, 186, 120, 195, 195, 120, 1, 7.22745
144, 1, wb, attraction, a-b-db, 9, 3, 3, 15, 114, 186, 120, 195, 195, 120, 2, 0.551219
144, 1, wb, filler, NA, 999, 999, 3, 16, 125, 175, 113, 107, 149, 115, 2, 1.09509
144, 1, wb, filler, NA, 999, 999, 3, 16, 125, 175, 113, 107, 149, 115, 1, 0.490072
144, 1, wb, attraction, a-b-db, 5, 3, 3, 17, 117, 190, 195, 120, 120, 195, 2, 5.95566
144, 1, wb, attraction, a-b-db, 5, 3, 3, 17, 117, 190, 195, 120, 120, 195, 3, 0.715096
144, 1, wb, attraction, a-b-da, 9, 2, 3, 18, 157, 86, 165, 90, 90, 165, 1, 2.06819
144, 1, wb, attraction, a-b-da, 9, 2, 3, 18, 157, 86, 165, 90, 90, 165, 3, 1.16023
144, 1, wb, filler, NA, 999, 999, 3, 19, 83, 178, 166, 149, 58, 123, 3, 3.7752
144, 1, wb, filler, NA, 999, 999, 3, 19, 83, 178, 166, 149, 58, 123, 2, 0.62186
144, 1, wb, attraction, a-b-db, 5, 2, 3, 20, 90, 165, 88, 161, 165, 90, 1, 2.61097
144, 1, wb, attraction, a-b-db, 5, 2, 3, 20, 90, 165, 88, 161, 165, 90, 3, 0.504782
144, 1, wb, attraction, a-b-db, 9, 1, 3, 21, 57, 129, 135, 60, 60, 135, 2, 6.58655
144, 1, wb, attraction, a-b-db, 9, 1, 3, 21, 57, 129, 135, 60, 60, 135, 3, 0.808517
144, 1, wb, attraction, a-b-db, 2, 1, 3, 22, 59, 134, 60, 135, 135, 60, 3, 7.04553
144, 1, wb, attraction, a-b-db, 2, 1, 3, 22, 59, 134, 60, 135, 135, 60, 1, 0.800663
144, 1, wb, attraction, a-b-db, 2, 3, 3, 23, 120, 195, 195, 120, 119, 193, 1, 10.4223
144, 1, wb, attraction, a-b-db, 2, 3, 3, 23, 120, 195, 195, 120, 119, 193, 3, 0.433831
144, 1, wb, attraction, a-b-db, 9, 2, 3, 24, 165, 90, 90, 165, 86, 157, 1, 1.39823
144, 1, wb, attraction, a-b-db, 9, 2, 3, 24, 165, 90, 90, 165, 86, 157, 2, 0.749181
144, 1, wb, attraction, a-b-da, 14, 2, 3, 25, 165, 90, 90, 165, 153, 83, 3, 1.59674
144, 1, wb, attraction, a-b-da, 14, 2, 3, 25, 165, 90, 90, 165, 153, 83, 2, 0.867545
144, 1, wb, attraction, a-b-da, 2, 1, 3, 26, 134, 59, 60, 135, 135, 60, 1, 1.10258
144, 1, wb, attraction, a-b-da, 2, 1, 3, 26, 134, 59, 60, 135, 135, 60, 2, 1.7536
144, 1, wb, catch, NA, 999, 999, 3, 27, 122, 73, 161, 94, 145, 170, 1, 1.2569
144, 1, wb, catch, NA, 999, 999, 3, 27, 122, 73, 161, 94, 145, 170, 3, 0.421248
144, 1, wb, attraction, a-b-da, 5, 3, 3, 28, 120, 195, 195, 120, 190, 117, 2, 2.49028
144, 1, wb, attraction, a-b-da, 5, 3, 3, 28, 120, 195, 195, 120, 190, 117, 1, 0.460855
144, 1, wb, attraction, a-b-da, 5, 2, 3, 29, 165, 90, 161, 88, 90, 165, 1, 1.1039
144, 1, wb, attraction, a-b-da, 5, 2, 3, 29, 165, 90, 161, 88, 90, 165, 3, 1.6272
144, 1, wb, filler, NA, 999, 999, 3, 30, 167, 125, 148, 60, 64, 162, 2, 1.03905
144, 1, wb, filler, NA, 999, 999, 3, 30, 167, 125, 148, 60, 64, 162, 1, 0.420053
144, 1, wb, filler, NA, 999, 999, 3, 31, 120, 174, 80, 76, 107, 144, 2, 0.929269
144, 1, wb, filler, NA, 999, 999, 3, 31, 120, 174, 80, 76, 107, 144, 1, 0.410809
144, 1, wb, attraction, a-b-db, 14, 2, 3, 32, 83, 153, 90, 165, 165, 90, 1, 1.25607
144, 1, wb, attraction, a-b-db, 14, 2, 3, 32, 83, 153, 90, 165, 165, 90, 2, 0.412217
144, 1, wb, attraction, a-b-db, 14, 3, 3, 33, 195, 120, 120, 195, 111, 181, 3, 1.61744
144, 1, wb, attraction, a-b-db, 14, 3, 3, 33, 195, 120, 120, 195, 111, 181, 1, 1.17546
144, 1, wb, attraction, a-b-da, 14, 1, 3, 34, 125, 56, 135, 60, 60, 135, 1, 1.03787
144, 1, wb, attraction, a-b-da, 14, 1, 3, 34, 125, 56, 135, 60, 60, 135, 3, 0.914723
144, 1, wb, filler, NA, 999, 999, 3, 35, 63, 66, 159, 190, 147, 74, 1, 0.787889
144, 1, wb, filler, NA, 999, 999, 3, 35, 63, 66, 159, 190, 147, 74, 2, 0.531445
144, 1, wb, filler, NA, 999, 999, 3, 36, 64, 186, 155, 133, 168, 132, 1, 1.50004
144, 1, wb, filler, NA, 999, 999, 3, 36, 64, 186, 155, 133, 168, 132, 3, 1.2068
144, 1, wb, attraction, a-b-da, 2, 3, 3, 37, 195, 120, 193, 119, 120, 195, 2, 2.40371
144, 1, wb, attraction, a-b-da, 2, 3, 3, 37, 195, 120, 193, 119, 120, 195, 3, 0.418278
144, 1, wb, catch, NA, 999, 999, 4, 1, 85, 110, 189, 126, 131, 124, 1, 1.47143
144, 1, wb, catch, NA, 999, 999, 4, 1, 85, 110, 189, 126, 131, 124, 2, 0.698883
144, 1, wb, attraction, a-b-db, 2, 2, 4, 2, 165, 90, 89, 163, 90, 165, 3, 1.1726
144, 1, wb, attraction, a-b-db, 2, 2, 4, 2, 165, 90, 89, 163, 90, 165, 2, 0.860218
144, 1, wb, attraction, a-b-db, 14, 1, 4, 3, 56, 125, 135, 60, 60, 135, 1, 1.58313
144, 1, wb, attraction, a-b-db, 14, 1, 4, 3, 56, 125, 135, 60, 60, 135, 3, 0.6226
144, 1, wb, attraction, a-b-db, 9, 2, 4, 4, 86, 157, 90, 165, 165, 90, 3, 3.33177
144, 1, wb, attraction, a-b-db, 9, 2, 4, 4, 86, 157, 90, 165, 165, 90, 2, 1.56471
144, 1, wb, attraction, a-b-da, 5, 2, 4, 5, 165, 90, 161, 88, 90, 165, 1, 1.48351
144, 1, wb, attraction, a-b-da, 5, 2, 4, 5, 165, 90, 161, 88, 90, 165, 3, 0.575056
144, 1, wb, attraction, a-b-db, 5, 2, 4, 6, 90, 165, 165, 90, 88, 161, 2, 2.37333
144, 1, wb, attraction, a-b-db, 5, 2, 4, 6, 90, 165, 165, 90, 88, 161, 3, 0.412585
144, 1, wb, filler, NA, 999, 999, 4, 7, 138, 93, 97, 123, 80, 184, 2, 4.11374
144, 1, wb, filler, NA, 999, 999, 4, 7, 138, 93, 97, 123, 80, 184, 3, 0.619255
144, 1, wb, attraction, a-b-da, 2, 3, 4, 8, 120, 195, 195, 120, 193, 119, 2, 4.25618
144, 1, wb, attraction, a-b-da, 2, 3, 4, 8, 120, 195, 195, 120, 193, 119, 3, 0.459497
144, 1, wb, attraction, a-b-db, 14, 2, 4, 9, 83, 153, 165, 90, 90, 165, 1, 0.990591
144, 1, wb, attraction, a-b-db, 14, 2, 4, 9, 83, 153, 165, 90, 90, 165, 3, 0.661757
144, 1, wb, attraction, a-b-da, 2, 1, 4, 10, 135, 60, 134, 59, 60, 135, 3, 1.12076
144, 1, wb, attraction, a-b-da, 2, 1, 4, 10, 135, 60, 134, 59, 60, 135, 1, 0.594446
144, 1, wb, attraction, a-b-db, 9, 3, 4, 11, 114, 186, 120, 195, 195, 120, 1, 1.59204
144, 1, wb, attraction, a-b-db, 9, 3, 4, 11, 114, 186, 120, 195, 195, 120, 2, 0.406889
144, 1, wb, attraction, a-b-da, 9, 3, 4, 12, 120, 195, 186, 114, 195, 120, 2, 1.58805
144, 1, wb, attraction, a-b-da, 9, 3, 4, 12, 120, 195, 186, 114, 195, 120, 3, 1.61091
144, 1, wb, attraction, a-b-da, 14, 2, 4, 13, 90, 165, 153, 83, 165, 90, 2, 1.29557
144, 1, wb, attraction, a-b-da, 14, 2, 4, 13, 90, 165, 153, 83, 165, 90, 1, 0.690608
144, 1, wb, attraction, a-b-db, 9, 1, 4, 14, 135, 60, 60, 135, 57, 129, 1, 1.73225
144, 1, wb, attraction, a-b-db, 9, 1, 4, 14, 135, 60, 60, 135, 57, 129, 2, 2.27772
144, 1, wb, filler, NA, 999, 999, 4, 15, 185, 129, 80, 154, 127, 105, 3, 3.1756
144, 1, wb, filler, NA, 999, 999, 4, 15, 185, 129, 80, 154, 127, 105, 1, 0.790606
144, 1, wb, catch, NA, 999, 999, 4, 16, 105, 150, 130, 185, 105, 90, 3, 1.30033
144, 1, wb, catch, NA, 999, 999, 4, 16, 105, 150, 130, 185, 105, 90, 2, 0.559179
144, 1, wb, attraction, a-b-da, 2, 2, 4, 17, 163, 89, 165, 90, 90, 165, 2, 2.5263
144, 1, wb, attraction, a-b-da, 2, 2, 4, 17, 163, 89, 165, 90, 90, 165, 3, 2.35952
144, 1, wb, attraction, a-b-db, 5, 3, 4, 18, 195, 120, 120, 195, 117, 190, 3, 4.33401
144, 1, wb, attraction, a-b-db, 5, 3, 4, 18, 195, 120, 120, 195, 117, 190, 1, 0.55057
144, 1, wb, filler, NA, 999, 999, 4, 19, 113, 75, 155, 106, 145, 118, 1, 1.89438
144, 1, wb, filler, NA, 999, 999, 4, 19, 113, 75, 155, 106, 145, 118, 3, 0.937297
144, 1, wb, filler, NA, 999, 999, 4, 20, 175, 155, 133, 164, 176, 148, 2, 2.1376
144, 1, wb, filler, NA, 999, 999, 4, 20, 175, 155, 133, 164, 176, 148, 1, 0.698665
144, 1, wb, filler, NA, 999, 999, 4, 21, 108, 94, 186, 135, 186, 86, 1, 2.10041
144, 1, wb, filler, NA, 999, 999, 4, 21, 108, 94, 186, 135, 186, 86, 2, 0.679153
144, 1, wb, attraction, a-b-da, 9, 2, 4, 22, 90, 165, 165, 90, 157, 86, 3, 6.05756
144, 1, wb, attraction, a-b-da, 9, 2, 4, 22, 90, 165, 165, 90, 157, 86, 1, 0.636302
144, 1, wb, filler, NA, 999, 999, 4, 23, 153, 176, 172, 194, 116, 169, 3, 2.65676
144, 1, wb, filler, NA, 999, 999, 4, 23, 153, 176, 172, 194, 116, 169, 2, 0.52442
144, 1, wb, catch, NA, 999, 999, 4, 24, 170, 145, 161, 94, 98, 97, 3, 2.32485
144, 1, wb, catch, NA, 999, 999, 4, 24, 170, 145, 161, 94, 98, 97, 1, 0.430134
144, 1, wb, attraction, a-b-db, 2, 3, 4, 25, 195, 120, 120, 195, 119, 193, 3, 5.90666
144, 1, wb, attraction, a-b-db, 2, 3, 4, 25, 195, 120, 120, 195, 119, 193, 2, 0.627414
144, 1, wb, attraction, a-b-db, 14, 3, 4, 26, 111, 181, 120, 195, 195, 120, 1, 1.26375
144, 1, wb, attraction, a-b-db, 14, 3, 4, 26, 111, 181, 120, 195, 195, 120, 2, 0.612078
144, 1, wb, attraction, a-b-db, 5, 1, 4, 27, 60, 135, 58, 132, 135, 60, 2, 1.71313
144, 1, wb, attraction, a-b-db, 5, 1, 4, 27, 60, 135, 58, 132, 135, 60, 1, 0.707223
144, 1, wb, attraction, a-b-da, 9, 1, 4, 28, 129, 57, 135, 60, 60, 135, 1, 1.2843
144, 1, wb, attraction, a-b-da, 9, 1, 4, 28, 129, 57, 135, 60, 60, 135, 2, 0.759947
144, 1, wb, filler, NA, 999, 999, 4, 29, 126, 95, 60, 57, 166, 183, 2, 0.982867
144, 1, wb, filler, NA, 999, 999, 4, 29, 126, 95, 60, 57, 166, 183, 3, 0.390532
144, 1, wb, filler, NA, 999, 999, 4, 30, 162, 173, 188, 173, 59, 79, 3, 1.27647
144, 1, wb, filler, NA, 999, 999, 4, 30, 162, 173, 188, 173, 59, 79, 2, 0.51991
144, 1, wb, attraction, a-b-da, 5, 3, 4, 31, 120, 195, 190, 117, 195, 120, 2, 2.60904
144, 1, wb, attraction, a-b-da, 5, 3, 4, 31, 120, 195, 190, 117, 195, 120, 1, 0.454848
144, 1, wb, attraction, a-b-da, 14, 3, 4, 32, 120, 195, 181, 111, 195, 120, 2, 0.906698
144, 1, wb, attraction, a-b-da, 14, 3, 4, 32, 120, 195, 181, 111, 195, 120, 1, 0.381067
144, 1, wb, filler, NA, 999, 999, 4, 33, 139, 97, 122, 148, 78, 187, 1, 1.0995
144, 1, wb, filler, NA, 999, 999, 4, 33, 139, 97, 122, 148, 78, 187, 2, 0.454639
144, 1, wb, attraction, a-b-da, 14, 1, 4, 34, 60, 135, 135, 60, 125, 56, 3, 1.5463
144, 1, wb, attraction, a-b-da, 14, 1, 4, 34, 60, 135, 135, 60, 125, 56, 2, 0.371049
144, 1, wb, attraction, a-b-da, 5, 1, 4, 35, 132, 58, 135, 60, 60, 135, 1, 1.41826
144, 1, wb, attraction, a-b-da, 5, 1, 4, 35, 132, 58, 135, 60, 60, 135, 2, 0.712523
144, 1, wb, attraction, a-b-db, 2, 1, 4, 36, 60, 135, 135, 60, 59, 134, 2, 2.9696
144, 1, wb, attraction, a-b-db, 2, 1, 4, 36, 60, 135, 135, 60, 59, 134, 1, 0.585336
144, 1, wb, filler, NA, 999, 999, 4, 37, 72, 181, 117, 140, 136, 115, 1, 1.93563
144, 1, wb, filler, NA, 999, 999, 4, 37, 72, 181, 117, 140, 136, 115, 2, 0.481097
144, 1, wb, attraction, a-b-db, 5, 3, 5, 1, 120, 195, 195, 120, 117, 190, 3, 4.78621
144, 1, wb, attraction, a-b-db, 5, 3, 5, 1, 120, 195, 195, 120, 117, 190, 1, 0.528626
144, 1, wb, filler, NA, 999, 999, 5, 2, 106, 117, 165, 194, 116, 143, 1, 0.817006
144, 1, wb, filler, NA, 999, 999, 5, 2, 106, 117, 165, 194, 116, 143, 2, 0.399553
144, 1, wb, attraction, a-b-db, 14, 3, 5, 3, 111, 181, 195, 120, 120, 195, 1, 2.39721
144, 1, wb, attraction, a-b-db, 14, 3, 5, 3, 111, 181, 195, 120, 120, 195, 3, 0.45979
144, 1, wb, attraction, a-b-da, 2, 2, 5, 4, 90, 165, 163, 89, 165, 90, 2, 1.10301
144, 1, wb, attraction, a-b-da, 2, 2, 5, 4, 90, 165, 163, 89, 165, 90, 1, 0.433929
144, 1, wb, attraction, a-b-da, 14, 2, 5, 5, 153, 83, 165, 90, 90, 165, 1, 1.10236
144, 1, wb, attraction, a-b-da, 14, 2, 5, 5, 153, 83, 165, 90, 90, 165, 3, 0.409454
144, 1, wb, attraction, a-b-da, 9, 3, 5, 6, 195, 120, 120, 195, 186, 114, 3, 1.78258
144, 1, wb, attraction, a-b-da, 9, 3, 5, 6, 195, 120, 120, 195, 186, 114, 1, 0.493918
144, 1, wb, filler, NA, 999, 999, 5, 7, 76, 183, 188, 122, 125, 61, 3, 1.5837
144, 1, wb, filler, NA, 999, 999, 5, 7, 76, 183, 188, 122, 125, 61, 2, 1.18323
144, 1, wb, filler, NA, 999, 999, 5, 8, 130, 181, 92, 150, 161, 106, 2, 1.22141
144, 1, wb, filler, NA, 999, 999, 5, 8, 130, 181, 92, 150, 161, 106, 1, 0.435059
144, 1, wb, attraction, a-b-db, 14, 1, 5, 9, 135, 60, 56, 125, 60, 135, 2, 1.28762
144, 1, wb, attraction, a-b-db, 14, 1, 5, 9, 135, 60, 56, 125, 60, 135, 3, 0.626329
144, 1, wb, attraction, a-b-db, 5, 1, 5, 10, 58, 132, 135, 60, 60, 135, 1, 1.63879
144, 1, wb, attraction, a-b-db, 5, 1, 5, 10, 58, 132, 135, 60, 60, 135, 2, 0.491587
144, 1, wb, filler, NA, 999, 999, 5, 11, 131, 165, 192, 150, 176, 141, 1, 2.71739
144, 1, wb, filler, NA, 999, 999, 5, 11, 131, 165, 192, 150, 176, 141, 2, 0.351189
144, 1, wb, attraction, a-b-db, 9, 2, 5, 12, 86, 157, 90, 165, 165, 90, 1, 1.12693
144, 1, wb, attraction, a-b-db, 9, 2, 5, 12, 86, 157, 90, 165, 165, 90, 2, 0.39261
144, 1, wb, filler, NA, 999, 999, 5, 13, 106, 141, 147, 131, 177, 78, 3, 3.68654
144, 1, wb, filler, NA, 999, 999, 5, 13, 106, 141, 147, 131, 177, 78, 2, 1.90525
144, 1, wb, attraction, a-b-da, 9, 1, 5, 14, 60, 135, 129, 57, 135, 60, 2, 1.41856
144, 1, wb, attraction, a-b-da, 9, 1, 5, 14, 60, 135, 129, 57, 135, 60, 1, 0.38483
144, 1, wb, attraction, a-b-db, 9, 1, 5, 15, 57, 129, 60, 135, 135, 60, 2, 1.42328
144, 1, wb, attraction, a-b-db, 9, 1, 5, 15, 57, 129, 60, 135, 135, 60, 3, 0.437006
144, 1, wb, attraction, a-b-db, 2, 2, 5, 16, 165, 90, 90, 165, 89, 163, 3, 1.48944
144, 1, wb, attraction, a-b-db, 2, 2, 5, 16, 165, 90, 90, 165, 89, 163, 1, 0.388286
144, 1, wb, filler, NA, 999, 999, 5, 17, 140, 180, 170, 174, 186, 61, 3, 1.51469
144, 1, wb, filler, NA, 999, 999, 5, 17, 140, 180, 170, 174, 186, 61, 2, 0.508714
144, 1, wb, filler, NA, 999, 999, 5, 18, 61, 172, 121, 105, 113, 56, 3, 8.26206
144, 1, wb, filler, NA, 999, 999, 5, 18, 61, 172, 121, 105, 113, 56, 1, 1.81591
144, 1, wb, attraction, a-b-da, 14, 3, 5, 19, 181, 111, 120, 195, 195, 120, 2, 2.06875
144, 1, wb, attraction, a-b-da, 14, 3, 5, 19, 181, 111, 120, 195, 195, 120, 1, 4.35269
144, 1, wb, attraction, a-b-da, 9, 2, 5, 20, 90, 165, 157, 86, 165, 90, 2, 1.69524
144, 1, wb, attraction, a-b-da, 9, 2, 5, 20, 90, 165, 157, 86, 165, 90, 1, 0.953967
144, 1, wb, attraction, a-b-da, 14, 1, 5, 21, 135, 60, 125, 56, 60, 135, 2, 1.50585
144, 1, wb, attraction, a-b-da, 14, 1, 5, 21, 135, 60, 125, 56, 60, 135, 1, 0.827814
144, 1, wb, filler, NA, 999, 999, 5, 22, 57, 165, 185, 143, 179, 116, 1, 2.64012
144, 1, wb, filler, NA, 999, 999, 5, 22, 57, 165, 185, 143, 179, 116, 2, 0.372698
144, 1, wb, attraction, a-b-db, 2, 3, 5, 23, 120, 195, 119, 193, 195, 120, 2, 3.86781
144, 1, wb, attraction, a-b-db, 2, 3, 5, 23, 120, 195, 119, 193, 195, 120, 3, 0.407404
144, 1, wb, attraction, a-b-da, 2, 3, 5, 24, 120, 195, 193, 119, 195, 120, 2, 1.62841
144, 1, wb, attraction, a-b-da, 2, 3, 5, 24, 120, 195, 193, 119, 195, 120, 1, 0.417832
144, 1, wb, attraction, a-b-da, 5, 2, 5, 25, 90, 165, 165, 90, 161, 88, 2, 0.935045
144, 1, wb, attraction, a-b-da, 5, 2, 5, 25, 90, 165, 165, 90, 161, 88, 3, 0.71272
144, 1, wb, attraction, a-b-db, 9, 3, 5, 26, 195, 120, 114, 186, 120, 195, 2, 1.64168
144, 1, wb, attraction, a-b-db, 9, 3, 5, 26, 195, 120, 114, 186, 120, 195, 3, 1.87852
144, 1, wb, filler, NA, 999, 999, 5, 27, 159, 75, 68, 127, 188, 58, 2, 0.880549
144, 1, wb, filler, NA, 999, 999, 5, 27, 159, 75, 68, 127, 188, 58, 1, 0.556185
144, 1, wb, attraction, a-b-db, 14, 2, 5, 28, 83, 153, 90, 165, 165, 90, 1, 1.37215
144, 1, wb, attraction, a-b-db, 14, 2, 5, 28, 83, 153, 90, 165, 165, 90, 2, 0.651606
144, 1, wb, attraction, a-b-db, 5, 2, 5, 29, 90, 165, 88, 161, 165, 90, 3, 1.7594
144, 1, wb, attraction, a-b-db, 5, 2, 5, 29, 90, 165, 88, 161, 165, 90, 1, 0.6314
144, 1, wb, catch, NA, 999, 999, 5, 30, 160, 155, 135, 120, 68, 127, 3, 0.835821
144, 1, wb, catch, NA, 999, 999, 5, 30, 160, 155, 135, 120, 68, 127, 1, 0.593597
144, 1, wb, catch, NA, 999, 999, 5, 31, 128, 67, 110, 145, 152, 163, 1, 0.935245
144, 1, wb, catch, NA, 999, 999, 5, 31, 128, 67, 110, 145, 152, 163, 3, 0.433039
144, 1, wb, filler, NA, 999, 999, 5, 32, 194, 61, 173, 147, 135, 71, 3, 1.31743
144, 1, wb, filler, NA, 999, 999, 5, 32, 194, 61, 173, 147, 135, 71, 2, 0.455673
144, 1, wb, attraction, a-b-da, 5, 1, 5, 33, 60, 135, 135, 60, 132, 58, 3, 2.98743
144, 1, wb, attraction, a-b-da, 5, 1, 5, 33, 60, 135, 135, 60, 132, 58, 1, 0.370496
144, 1, wb, catch, NA, 999, 999, 5, 34, 153, 162, 77, 118, 134, 121, 2, 1.46561
144, 1, wb, catch, NA, 999, 999, 5, 34, 153, 162, 77, 118, 134, 121, 1, 0.81385
144, 1, wb, attraction, a-b-db, 2, 1, 5, 35, 60, 135, 59, 134, 135, 60, 3, 2.37888
144, 1, wb, attraction, a-b-db, 2, 1, 5, 35, 60, 135, 59, 134, 135, 60, 1, 0.5461
144, 1, wb, attraction, a-b-da, 2, 1, 5, 36, 60, 135, 135, 60, 134, 59, 3, 2.12189
144, 1, wb, attraction, a-b-da, 2, 1, 5, 36, 60, 135, 135, 60, 134, 59, 2, 0.419652
144, 1, wb, attraction, a-b-da, 5, 3, 5, 37, 195, 120, 190, 117, 120, 195, 3, 2.77649
144, 1, wb, attraction, a-b-da, 5, 3, 5, 37, 195, 120, 190, 117, 120, 195, 1, 0.535356
144, 1, wb, filler, NA, 999, 999, 6, 1, 195, 155, 61, 56, 77, 191, 2, 1.0079
144, 1, wb, filler, NA, 999, 999, 6, 1, 195, 155, 61, 56, 77, 191, 1, 0.438162
144, 1, wb, attraction, a-b-da, 2, 3, 6, 2, 120, 195, 195, 120, 193, 119, 1, 1.61865
144, 1, wb, attraction, a-b-da, 2, 3, 6, 2, 120, 195, 195, 120, 193, 119, 2, 0.544882
144, 1, wb, attraction, a-b-da, 2, 1, 6, 3, 134, 59, 135, 60, 60, 135, 3, 2.0005
144, 1, wb, attraction, a-b-da, 2, 1, 6, 3, 134, 59, 135, 60, 60, 135, 1, 0.511214
144, 1, wb, catch, NA, 999, 999, 6, 4, 133, 122, 95, 100, 171, 144, 2, 1.21637
144, 1, wb, catch, NA, 999, 999, 6, 4, 133, 122, 95, 100, 171, 144, 3, 0.414552
144, 1, wb, filler, NA, 999, 999, 6, 5, 164, 192, 83, 87, 87, 57, 3, 1.33978
144, 1, wb, filler, NA, 999, 999, 6, 5, 164, 192, 83, 87, 87, 57, 1, 0.484687
144, 1, wb, filler, NA, 999, 999, 6, 6, 190, 176, 161, 136, 143, 149, 2, 2.65505
144, 1, wb, filler, NA, 999, 999, 6, 6, 190, 176, 161, 136, 143, 149, 1, 0.619617
144, 1, wb, filler, NA, 999, 999, 6, 7, 104, 149, 159, 188, 101, 118, 3, 1.88878
144, 1, wb, filler, NA, 999, 999, 6, 7, 104, 149, 159, 188, 101, 118, 2, 0.419461
144, 1, wb, attraction, a-b-db, 9, 3, 6, 8, 114, 186, 195, 120, 120, 195, 1, 5.56051
144, 1, wb, attraction, a-b-db, 9, 3, 6, 8, 114, 186, 195, 120, 120, 195, 2, 2.08737
144, 1, wb, attraction, a-b-da, 2, 2, 6, 9, 90, 165, 163, 89, 165, 90, 3, 3.16144
144, 1, wb, attraction, a-b-da, 2, 2, 6, 9, 90, 165, 163, 89, 165, 90, 1, 0.737149
144, 1, wb, filler, NA, 999, 999, 6, 10, 159, 167, 130, 84, 148, 151, 2, 1.33742
144, 1, wb, filler, NA, 999, 999, 6, 10, 159, 167, 130, 84, 148, 151, 1, 0.538992
144, 1, wb, catch, NA, 999, 999, 6, 11, 132, 123, 134, 61, 123, 192, 2, 1.13944
144, 1, wb, catch, NA, 999, 999, 6, 11, 132, 123, 134, 61, 123, 192, 3, 0.500498
144, 1, wb, attraction, a-b-db, 14, 2, 6, 12, 165, 90, 90, 165, 83, 153, 3, 2.21413
144, 1, wb, attraction, a-b-db, 14, 2, 6, 12, 165, 90, 90, 165, 83, 153, 1, 0.900167
144, 1, wb, attraction, a-b-da, 5, 1, 6, 13, 135, 60, 132, 58, 60, 135, 1, 5.31777
144, 1, wb, attraction, a-b-da, 5, 1, 6, 13, 135, 60, 132, 58, 60, 135, 3, 0.718727
144, 1, wb, attraction, a-b-da, 5, 3, 6, 14, 120, 195, 195, 120, 190, 117, 3, 5.15176
144, 1, wb, attraction, a-b-da, 5, 3, 6, 14, 120, 195, 195, 120, 190, 117, 1, 0.535512
144, 1, wb, attraction, a-b-db, 5, 3, 6, 15, 120, 195, 117, 190, 195, 120, 3, 7.51215
144, 1, wb, attraction, a-b-db, 5, 3, 6, 15, 120, 195, 117, 190, 195, 120, 1, 0.656301
144, 1, wb, attraction, a-b-db, 5, 2, 6, 16, 90, 165, 88, 161, 165, 90, 3, 2.42001
144, 1, wb, attraction, a-b-db, 5, 2, 6, 16, 90, 165, 88, 161, 165, 90, 1, 0.626008
144, 1, wb, attraction, a-b-da, 9, 1, 6, 17, 135, 60, 60, 135, 129, 57, 3, 1.8142
144, 1, wb, attraction, a-b-da, 9, 1, 6, 17, 135, 60, 60, 135, 129, 57, 1, 0.612262
144, 1, wb, attraction, a-b-db, 9, 1, 6, 18, 135, 60, 60, 135, 57, 129, 3, 2.88142
144, 1, wb, attraction, a-b-db, 9, 1, 6, 18, 135, 60, 60, 135, 57, 129, 1, 1.87664
144, 1, wb, attraction, a-b-da, 14, 1, 6, 19, 60, 135, 125, 56, 135, 60, 2, 1.63852
144, 1, wb, attraction, a-b-da, 14, 1, 6, 19, 60, 135, 125, 56, 135, 60, 3, 0.851369
144, 1, wb, attraction, a-b-da, 9, 3, 6, 20, 120, 195, 186, 114, 195, 120, 2, 1.67095
144, 1, wb, attraction, a-b-da, 9, 3, 6, 20, 120, 195, 186, 114, 195, 120, 1, 0.459138
144, 1, wb, filler, NA, 999, 999, 6, 21, 150, 176, 79, 111, 160, 167, 2, 1.28619
144, 1, wb, filler, NA, 999, 999, 6, 21, 150, 176, 79, 111, 160, 167, 1, 0.457777
144, 1, wb, attraction, a-b-db, 5, 1, 6, 22, 135, 60, 60, 135, 58, 132, 3, 1.13301
144, 1, wb, attraction, a-b-db, 5, 1, 6, 22, 135, 60, 60, 135, 58, 132, 1, 0.758563
144, 1, wb, filler, NA, 999, 999, 6, 23, 71, 166, 175, 93, 77, 153, 3, 1.17357
144, 1, wb, filler, NA, 999, 999, 6, 23, 71, 166, 175, 93, 77, 153, 2, 0.381188
144, 1, wb, filler, NA, 999, 999, 6, 24, 177, 125, 150, 192, 191, 90, 3, 2.43583
144, 1, wb, filler, NA, 999, 999, 6, 24, 177, 125, 150, 192, 191, 90, 2, 0.440911
144, 1, wb, attraction, a-b-db, 14, 3, 6, 25, 120, 195, 195, 120, 111, 181, 3, 1.44473
144, 1, wb, attraction, a-b-db, 14, 3, 6, 25, 120, 195, 195, 120, 111, 181, 1, 0.825614
144, 1, wb, attraction, a-b-db, 9, 2, 6, 26, 90, 165, 86, 157, 165, 90, 1, 1.83789
144, 1, wb, attraction, a-b-db, 9, 2, 6, 26, 90, 165, 86, 157, 165, 90, 3, 1.05934
144, 1, wb, attraction, a-b-da, 14, 2, 6, 27, 165, 90, 90, 165, 153, 83, 3, 1.15026
144, 1, wb, attraction, a-b-da, 14, 2, 6, 27, 165, 90, 90, 165, 153, 83, 2, 1.31119
144, 1, wb, attraction, a-b-db, 2, 1, 6, 28, 60, 135, 59, 134, 135, 60, 2, 1.80014
144, 1, wb, attraction, a-b-db, 2, 1, 6, 28, 60, 135, 59, 134, 135, 60, 3, 0.982799
144, 1, wb, attraction, a-b-da, 5, 2, 6, 29, 90, 165, 161, 88, 165, 90, 3, 2.67713
144, 1, wb, attraction, a-b-da, 5, 2, 6, 29, 90, 165, 161, 88, 165, 90, 1, 0.632277
144, 1, wb, attraction, a-b-da, 14, 3, 6, 30, 181, 111, 120, 195, 195, 120, 1, 1.93261
144, 1, wb, attraction, a-b-da, 14, 3, 6, 30, 181, 111, 120, 195, 195, 120, 2, 0.526113
144, 1, wb, filler, NA, 999, 999, 6, 31, 153, 80, 73, 72, 151, 177, 2, 1.13441
144, 1, wb, filler, NA, 999, 999, 6, 31, 153, 80, 73, 72, 151, 177, 3, 0.464159
144, 1, wb, catch, NA, 999, 999, 6, 32, 92, 163, 99, 96, 175, 140, 2, 2.13115
144, 1, wb, catch, NA, 999, 999, 6, 32, 92, 163, 99, 96, 175, 140, 3, 0.868587
144, 1, wb, attraction, a-b-db, 2, 2, 6, 33, 90, 165, 89, 163, 165, 90, 2, 3.6156
144, 1, wb, attraction, a-b-db, 2, 2, 6, 33, 90, 165, 89, 163, 165, 90, 3, 1.317
144, 1, wb, attraction, a-b-da, 9, 2, 6, 34, 165, 90, 157, 86, 90, 165, 3, 1.47006
144, 1, wb, attraction, a-b-da, 9, 2, 6, 34, 165, 90, 157, 86, 90, 165, 1, 0.986124
144, 1, wb, attraction, a-b-db, 2, 3, 6, 35, 119, 193, 120, 195, 195, 120, 3, 2.41646
144, 1, wb, attraction, a-b-db, 2, 3, 6, 35, 119, 193, 120, 195, 195, 120, 2, 0.742335
144, 1, wb, filler, NA, 999, 999, 6, 36, 141, 171, 173, 67, 75, 95, 3, 1.11805
144, 1, wb, filler, NA, 999, 999, 6, 36, 141, 171, 173, 67, 75, 95, 1, 0.400265
144, 1, wb, attraction, a-b-db, 14, 1, 6, 37, 56, 125, 135, 60, 60, 135, 1, 3.06201
144, 1, wb, attraction, a-b-db, 14, 1, 6, 37, 56, 125, 135, 60, 60, 135, 3, 0.65788
144, 1, wb, attraction, a-b-da, 2, 1, 7, 1, 135, 60, 60, 135, 134, 59, 2, 4.47703
144, 1, wb, attraction, a-b-da, 2, 1, 7, 1, 135, 60, 60, 135, 134, 59, 1, 0.479387
144, 1, wb, attraction, a-b-da, 2, 3, 7, 2, 193, 119, 120, 195, 195, 120, 3, 2.52989
144, 1, wb, attraction, a-b-da, 2, 3, 7, 2, 193, 119, 120, 195, 195, 120, 2, 1.66705
144, 1, wb, attraction, a-b-da, 14, 2, 7, 3, 165, 90, 153, 83, 90, 165, 2, 3.92591
144, 1, wb, attraction, a-b-da, 14, 2, 7, 3, 165, 90, 153, 83, 90, 165, 1, 0.526567
144, 1, wb, attraction, a-b-db, 14, 1, 7, 4, 60, 135, 56, 125, 135, 60, 2, 2.44709
144, 1, wb, attraction, a-b-db, 14, 1, 7, 4, 60, 135, 56, 125, 135, 60, 3, 0.73159
144, 1, wb, attraction, a-b-db, 9, 2, 7, 5, 165, 90, 86, 157, 90, 165, 1, 2.58001
144, 1, wb, attraction, a-b-db, 9, 2, 7, 5, 165, 90, 86, 157, 90, 165, 3, 0.875031
144, 1, wb, attraction, a-b-db, 9, 1, 7, 6, 135, 60, 60, 135, 57, 129, 3, 4.20557
144, 1, wb, attraction, a-b-db, 9, 1, 7, 6, 135, 60, 60, 135, 57, 129, 1, 0.922845
144, 1, wb, filler, NA, 999, 999, 7, 7, 56, 159, 123, 159, 192, 69, 1, 1.58775
144, 1, wb, filler, NA, 999, 999, 7, 7, 56, 159, 123, 159, 192, 69, 2, 0.51459
144, 1, wb, attraction, a-b-da, 9, 2, 7, 8, 165, 90, 90, 165, 157, 86, 3, 3.67577
144, 1, wb, attraction, a-b-da, 9, 2, 7, 8, 165, 90, 90, 165, 157, 86, 1, 0.4865
144, 1, wb, filler, NA, 999, 999, 7, 9, 110, 90, 88, 139, 124, 111, 1, 1.32897
144, 1, wb, filler, NA, 999, 999, 7, 9, 110, 90, 88, 139, 124, 111, 3, 0.802573
144, 1, wb, catch, NA, 999, 999, 7, 10, 90, 105, 189, 126, 113, 142, 1, 1.48817
144, 1, wb, catch, NA, 999, 999, 7, 10, 90, 105, 189, 126, 113, 142, 2, 0.523044
144, 1, wb, filler, NA, 999, 999, 7, 11, 72, 97, 121, 122, 144, 186, 1, 0.932199
144, 1, wb, filler, NA, 999, 999, 7, 11, 72, 97, 121, 122, 144, 186, 3, 0.509815
144, 1, wb, attraction, a-b-da, 5, 2, 7, 12, 165, 90, 90, 165, 161, 88, 3, 2.73496
144, 1, wb, attraction, a-b-da, 5, 2, 7, 12, 165, 90, 90, 165, 161, 88, 1, 0.608116
144, 1, wb, attraction, a-b-da, 9, 1, 7, 13, 135, 60, 60, 135, 129, 57, 3, 4.49333
144, 1, wb, attraction, a-b-da, 9, 1, 7, 13, 135, 60, 60, 135, 129, 57, 1, 1.03905
144, 1, wb, attraction, a-b-db, 5, 2, 7, 14, 90, 165, 88, 161, 165, 90, 3, 1.62737
144, 1, wb, attraction, a-b-db, 5, 2, 7, 14, 90, 165, 88, 161, 165, 90, 1, 0.632939
144, 1, wb, filler, NA, 999, 999, 7, 15, 62, 59, 115, 84, 106, 58, 1, 2.47722
144, 1, wb, filler, NA, 999, 999, 7, 15, 62, 59, 115, 84, 106, 58, 2, 0.808413
144, 1, wb, filler, NA, 999, 999, 7, 16, 79, 75, 157, 117, 65, 97, 3, 1.29349
144, 1, wb, filler, NA, 999, 999, 7, 16, 79, 75, 157, 117, 65, 97, 2, 0.568532
144, 1, wb, filler, NA, 999, 999, 7, 17, 83, 80, 192, 81, 147, 180, 1, 1.44745
144, 1, wb, filler, NA, 999, 999, 7, 17, 83, 80, 192, 81, 147, 180, 3, 0.548257
144, 1, wb, filler, NA, 999, 999, 7, 18, 191, 59, 142, 144, 88, 167, 1, 3.348
144, 1, wb, filler, NA, 999, 999, 7, 18, 191, 59, 142, 144, 88, 167, 2, 0.724252
144, 1, wb, catch, NA, 999, 999, 7, 19, 140, 115, 108, 87, 133, 182, 2, 3.14077
144, 1, wb, catch, NA, 999, 999, 7, 19, 140, 115, 108, 87, 133, 182, 3, 0.709068
144, 1, wb, attraction, a-b-da, 5, 1, 7, 20, 135, 60, 60, 135, 132, 58, 3, 4.64615
144, 1, wb, attraction, a-b-da, 5, 1, 7, 20, 135, 60, 60, 135, 132, 58, 2, 0.921957
144, 1, wb, attraction, a-b-db, 14, 2, 7, 21, 90, 165, 83, 153, 165, 90, 2, 3.03495
144, 1, wb, attraction, a-b-db, 14, 2, 7, 21, 90, 165, 83, 153, 165, 90, 1, 2.10403
144, 1, wb, attraction, a-b-da, 9, 3, 7, 22, 120, 195, 195, 120, 186, 114, 3, 2.57725
144, 1, wb, attraction, a-b-da, 9, 3, 7, 22, 120, 195, 195, 120, 186, 114, 2, 0.592432
144, 1, wb, filler, NA, 999, 999, 7, 23, 67, 176, 80, 124, 130, 161, 2, 2.73427
144, 1, wb, filler, NA, 999, 999, 7, 23, 67, 176, 80, 124, 130, 161, 3, 0.479216
144, 1, wb, filler, NA, 999, 999, 7, 24, 58, 79, 88, 61, 182, 152, 1, 1.12978
144, 1, wb, filler, NA, 999, 999, 7, 24, 58, 79, 88, 61, 182, 152, 3, 0.571754
144, 1, wb, attraction, a-b-db, 2, 2, 7, 25, 90, 165, 165, 90, 89, 163, 2, 2.57046
144, 1, wb, attraction, a-b-db, 2, 2, 7, 25, 90, 165, 165, 90, 89, 163, 1, 0.450228
144, 1, wb, attraction, a-b-da, 5, 3, 7, 26, 190, 117, 195, 120, 120, 195, 1, 1.71011
144, 1, wb, attraction, a-b-da, 5, 3, 7, 26, 190, 117, 195, 120, 120, 195, 3, 0.624179
144, 1, wb, attraction, a-b-db, 5, 1, 7, 27, 58, 132, 135, 60, 60, 135, 3, 2.54856
144, 1, wb, attraction, a-b-db, 5, 1, 7, 27, 58, 132, 135, 60, 60, 135, 2, 0.63721
144, 1, wb, attraction, a-b-db, 2, 3, 7, 28, 195, 120, 120, 195, 119, 193, 3, 4.94552
144, 1, wb, attraction, a-b-db, 2, 3, 7, 28, 195, 120, 120, 195, 119, 193, 1, 0.481331
144, 1, wb, attraction, a-b-da, 14, 3, 7, 29, 181, 111, 120, 195, 195, 120, 1, 1.48377
144, 1, wb, attraction, a-b-da, 14, 3, 7, 29, 181, 111, 120, 195, 195, 120, 2, 1.02329
144, 1, wb, filler, NA, 999, 999, 7, 30, 190, 193, 79, 182, 163, 192, 2, 2.30026
144, 1, wb, filler, NA, 999, 999, 7, 30, 190, 193, 79, 182, 163, 192, 1, 0.822856
144, 1, wb, attraction, a-b-db, 9, 3, 7, 31, 120, 195, 195, 120, 114, 186, 3, 4.7159
144, 1, wb, attraction, a-b-db, 9, 3, 7, 31, 120, 195, 195, 120, 114, 186, 1, 0.732942
144, 1, wb, attraction, a-b-da, 2, 2, 7, 32, 165, 90, 90, 165, 163, 89, 3, 1.88542
144, 1, wb, attraction, a-b-da, 2, 2, 7, 32, 165, 90, 90, 165, 163, 89, 2, 0.43282
144, 1, wb, attraction, a-b-db, 14, 3, 7, 33, 195, 120, 111, 181, 120, 195, 3, 8.66931
144, 1, wb, attraction, a-b-db, 14, 3, 7, 33, 195, 120, 111, 181, 120, 195, 1, 0.487092
144, 1, wb, catch, NA, 999, 999, 7, 34, 153, 102, 77, 118, 195, 120, 2, 0.769614
144, 1, wb, catch, NA, 999, 999, 7, 34, 153, 102, 77, 118, 195, 120, 3, 0.641994
144, 1, wb, attraction, a-b-db, 5, 3, 7, 35, 120, 195, 117, 190, 195, 120, 3, 1.93373
144, 1, wb, attraction, a-b-db, 5, 3, 7, 35, 120, 195, 117, 190, 195, 120, 1, 0.615226
144, 1, wb, attraction, a-b-da, 14, 1, 7, 36, 125, 56, 135, 60, 60, 135, 1, 1.70022
144, 1, wb, attraction, a-b-da, 14, 1, 7, 36, 125, 56, 135, 60, 60, 135, 2, 0.550946
144, 1, wb, attraction, a-b-db, 2, 1, 7, 37, 59, 134, 135, 60, 60, 135, 1, 1.51087
144, 1, wb, attraction, a-b-db, 2, 1, 7, 37, 59, 134, 135, 60, 60, 135, 3, 0.481016
144, 1, wb, filler, NA, 999, 999, 8, 1, 62, 85, 145, 191, 58, 138, 1, 1.44337
144, 1, wb, filler, NA, 999, 999, 8, 1, 62, 85, 145, 191, 58, 138, 2, 0.60826
144, 1, wb, filler, NA, 999, 999, 8, 2, 153, 105, 66, 125, 60, 132, 3, 1.3012
144, 1, wb, filler, NA, 999, 999, 8, 2, 153, 105, 66, 125, 60, 132, 1, 0.544223
144, 1, wb, attraction, a-b-db, 14, 3, 8, 3, 195, 120, 120, 195, 111, 181, 3, 2.45604
144, 1, wb, attraction, a-b-db, 14, 3, 8, 3, 195, 120, 120, 195, 111, 181, 2, 1.00383
144, 1, wb, catch, NA, 999, 999, 8, 4, 147, 108, 137, 178, 105, 90, 3, 1.21748
144, 1, wb, catch, NA, 999, 999, 8, 4, 147, 108, 137, 178, 105, 90, 2, 0.607959
144, 1, wb, attraction, a-b-db, 9, 2, 8, 5, 90, 165, 165, 90, 86, 157, 3, 3.02095
144, 1, wb, attraction, a-b-db, 9, 2, 8, 5, 90, 165, 165, 90, 86, 157, 1, 0.682538
144, 1, wb, filler, NA, 999, 999, 8, 6, 119, 81, 185, 135, 102, 97, 3, 1.38884
144, 1, wb, filler, NA, 999, 999, 8, 6, 119, 81, 185, 135, 102, 97, 2, 2.56391
144, 1, wb, filler, NA, 999, 999, 8, 7, 100, 56, 81, 122, 57, 80, 3, 1.81033
144, 1, wb, filler, NA, 999, 999, 8, 7, 100, 56, 81, 122, 57, 80, 2, 0.632374
144, 1, wb, attraction, a-b-da, 9, 3, 8, 8, 195, 120, 186, 114, 120, 195, 2, 3.63686
144, 1, wb, attraction, a-b-da, 9, 3, 8, 8, 195, 120, 186, 114, 120, 195, 1, 0.761705
144, 1, wb, attraction, a-b-da, 2, 2, 8, 9, 90, 165, 163, 89, 165, 90, 2, 1.72871
144, 1, wb, attraction, a-b-da, 2, 2, 8, 9, 90, 165, 163, 89, 165, 90, 1, 0.706216
144, 1, wb, attraction, a-b-da, 2, 3, 8, 10, 195, 120, 120, 195, 193, 119, 3, 6.97981
144, 1, wb, attraction, a-b-da, 2, 3, 8, 10, 195, 120, 120, 195, 193, 119, 2, 0.665622
144, 1, wb, attraction, a-b-db, 9, 3, 8, 11, 195, 120, 114, 186, 120, 195, 3, 8.42074
144, 1, wb, attraction, a-b-db, 9, 3, 8, 11, 195, 120, 114, 186, 120, 195, 1, 0.72068
144, 1, wb, attraction, a-b-da, 14, 1, 8, 12, 125, 56, 135, 60, 60, 135, 1, 2.42567
144, 1, wb, attraction, a-b-da, 14, 1, 8, 12, 125, 56, 135, 60, 60, 135, 3, 1.53492
144, 1, wb, filler, NA, 999, 999, 8, 13, 130, 98, 115, 160, 187, 78, 1, 5.49513
144, 1, wb, filler, NA, 999, 999, 8, 13, 130, 98, 115, 160, 187, 78, 2, 0.75268
144, 1, wb, filler, NA, 999, 999, 8, 14, 190, 65, 71, 195, 66, 177, 3, 1.80842
144, 1, wb, filler, NA, 999, 999, 8, 14, 190, 65, 71, 195, 66, 177, 1, 0.662506
144, 1, wb, attraction, a-b-db, 2, 1, 8, 15, 60, 135, 59, 134, 135, 60, 1, 1.83356
144, 1, wb, attraction, a-b-db, 2, 1, 8, 15, 60, 135, 59, 134, 135, 60, 3, 0.566909
144, 1, wb, attraction, a-b-db, 9, 1, 8, 16, 57, 129, 135, 60, 60, 135, 2, 1.42194
144, 1, wb, attraction, a-b-db, 9, 1, 8, 16, 57, 129, 135, 60, 60, 135, 3, 1.21153
144, 1, wb, attraction, a-b-da, 5, 1, 8, 17, 132, 58, 135, 60, 60, 135, 3, 3.00048
144, 1, wb, attraction, a-b-da, 5, 1, 8, 17, 132, 58, 135, 60, 60, 135, 2, 1.4308
144, 1, wb, filler, NA, 999, 999, 8, 18, 153, 125, 110, 138, 90, 143, 3, 1.16303
144, 1, wb, filler, NA, 999, 999, 8, 18, 153, 125, 110, 138, 90, 143, 1, 0.467337
144, 1, wb, catch, NA, 999, 999, 8, 19, 125, 70, 140, 115, 169, 146, 1, 1.62231
144, 1, wb, catch, NA, 999, 999, 8, 19, 125, 70, 140, 115, 169, 146, 3, 0.52413
144, 1, wb, filler, NA, 999, 999, 8, 20, 176, 165, 121, 194, 142, 138, 3, 1.78018
144, 1, wb, filler, NA, 999, 999, 8, 20, 176, 165, 121, 194, 142, 138, 1, 0.563691
144, 1, wb, attraction, a-b-da, 14, 2, 8, 21, 165, 90, 153, 83, 90, 165, 2, 1.51477
144, 1, wb, attraction, a-b-da, 14, 2, 8, 21, 165, 90, 153, 83, 90, 165, 1, 0.460989
144, 1, wb, attraction, a-b-db, 14, 1, 8, 22, 56, 125, 135, 60, 60, 135, 1, 1.56807
144, 1, wb, attraction, a-b-db, 14, 1, 8, 22, 56, 125, 135, 60, 60, 135, 3, 0.648409
144, 1, wb, attraction, a-b-da, 2, 1, 8, 23, 135, 60, 134, 59, 60, 135, 3, 1.73999
144, 1, wb, attraction, a-b-da, 2, 1, 8, 23, 135, 60, 134, 59, 60, 135, 1, 0.668694
144, 1, wb, attraction, a-b-da, 9, 1, 8, 24, 135, 60, 60, 135, 129, 57, 3, 3.23979
144, 1, wb, attraction, a-b-da, 9, 1, 8, 24, 135, 60, 60, 135, 129, 57, 1, 0.572275
144, 1, wb, attraction, a-b-db, 2, 2, 8, 25, 165, 90, 89, 163, 90, 165, 3, 1.97917
144, 1, wb, attraction, a-b-db, 2, 2, 8, 25, 165, 90, 89, 163, 90, 165, 1, 0.954581
144, 1, wb, attraction, a-b-db, 2, 3, 8, 26, 195, 120, 120, 195, 119, 193, 1, 1.70617
144, 1, wb, attraction, a-b-db, 2, 3, 8, 26, 195, 120, 120, 195, 119, 193, 2, 0.476316
144, 1, wb, catch, NA, 999, 999, 8, 27, 174, 141, 108, 147, 64, 131, 3, 0.870708
144, 1, wb, catch, NA, 999, 999, 8, 27, 174, 141, 108, 147, 64, 131, 1, 0.683222
144, 1, wb, attraction, a-b-db, 5, 3, 8, 28, 117, 190, 195, 120, 120, 195, 3, 2.62966
144, 1, wb, attraction, a-b-db, 5, 3, 8, 28, 117, 190, 195, 120, 120, 195, 2, 0.738774
144, 1, wb, attraction, a-b-da, 14, 3, 8, 29, 195, 120, 120, 195, 181, 111, 3, 1.67505
144, 1, wb, attraction, a-b-da, 14, 3, 8, 29, 195, 120, 120, 195, 181, 111, 2, 0.542532
144, 1, wb, attraction, a-b-da, 9, 2, 8, 30, 157, 86, 165, 90, 90, 165, 1, 1.41428
144, 1, wb, attraction, a-b-da, 9, 2, 8, 30, 157, 86, 165, 90, 90, 165, 2, 0.532511
144, 1, wb, filler, NA, 999, 999, 8, 31, 130, 176, 180, 189, 66, 113, 3, 1.72492
144, 1, wb, filler, NA, 999, 999, 8, 31, 130, 176, 180, 189, 66, 113, 2, 1.03831
144, 1, wb, attraction, a-b-da, 5, 2, 8, 32, 90, 165, 165, 90, 161, 88, 3, 2.33075
144, 1, wb, attraction, a-b-da, 5, 2, 8, 32, 90, 165, 165, 90, 161, 88, 1, 0.459797
144, 1, wb, attraction, a-b-db, 14, 2, 8, 33, 90, 165, 83, 153, 165, 90, 2, 1.27905
144, 1, wb, attraction, a-b-db, 14, 2, 8, 33, 90, 165, 83, 153, 165, 90, 1, 0.65853
144, 1, wb, attraction, a-b-db, 5, 2, 8, 34, 88, 161, 90, 165, 165, 90, 1, 1.49358
144, 1, wb, attraction, a-b-db, 5, 2, 8, 34, 88, 161, 90, 165, 165, 90, 2, 0.448441
144, 1, wb, attraction, a-b-da, 5, 3, 8, 35, 195, 120, 190, 117, 120, 195, 2, 2.44421
144, 1, wb, attraction, a-b-da, 5, 3, 8, 35, 195, 120, 190, 117, 120, 195, 1, 1.28091
144, 1, wb, filler, NA, 999, 999, 8, 36, 180, 172, 191, 57, 160, 121, 2, 1.17098
144, 1, wb, filler, NA, 999, 999, 8, 36, 180, 172, 191, 57, 160, 121, 1, 1.03465
144, 1, wb, attraction, a-b-db, 5, 1, 8, 37, 60, 135, 58, 132, 135, 60, 3, 3.17491
144, 1, wb, attraction, a-b-db, 5, 1, 8, 37, 60, 135, 58, 132, 135, 60, 1, 0.80603
