sub_n, computer_n, bw_cond, effect, set, distance, diag, block_n, trial_n, h1, w1, h2, w2, h3, w3, choice, rt 
182, 1, wb, practice, NA, 999, 999, 0, 1, 180, 159, 69, 161, 77, 167, 2, 6.29899
182, 1, wb, practice, NA, 999, 999, 0, 1, 180, 159, 69, 161, 77, 167, 1, 9.93223
182, 1, wb, practice, NA, 999, 999, 0, 2, 145, 167, 98, 144, 186, 171, 2, 7.79814
182, 1, wb, practice, NA, 999, 999, 0, 2, 145, 167, 98, 144, 186, 171, 3, 2.16333
182, 1, wb, practice, NA, 999, 999, 0, 3, 73, 106, 95, 99, 106, 63, 3, 11.28
182, 1, wb, practice, NA, 999, 999, 0, 3, 73, 106, 95, 99, 106, 63, 1, 3.50273
182, 1, wb, attraction, a-b-da, 14, 1, 1, 1, 60, 135, 125, 56, 135, 60, 2, 5.07643
182, 1, wb, attraction, a-b-da, 14, 1, 1, 1, 60, 135, 125, 56, 135, 60, 1, 2.08692
182, 1, wb, filler, NA, 999, 999, 1, 2, 106, 86, 66, 97, 100, 145, 2, 4.77676
182, 1, wb, filler, NA, 999, 999, 1, 2, 106, 86, 66, 97, 100, 145, 3, 1.01533
182, 1, wb, attraction, a-b-da, 5, 3, 1, 3, 120, 195, 190, 117, 195, 120, 2, 38.0843
182, 1, wb, attraction, a-b-da, 5, 3, 1, 3, 120, 195, 190, 117, 195, 120, 1, 2.69234
182, 1, wb, attraction, a-b-da, 14, 2, 1, 4, 165, 90, 153, 83, 90, 165, 2, 4.46955
182, 1, wb, attraction, a-b-da, 14, 2, 1, 4, 165, 90, 153, 83, 90, 165, 3, 2.68858
182, 1, wb, attraction, a-b-db, 5, 3, 1, 5, 117, 190, 195, 120, 120, 195, 3, 49.8583
182, 1, wb, attraction, a-b-db, 5, 3, 1, 5, 117, 190, 195, 120, 120, 195, 2, 2.54408
182, 1, wb, attraction, a-b-db, 5, 1, 1, 6, 135, 60, 60, 135, 58, 132, 3, 14.3754
182, 1, wb, attraction, a-b-db, 5, 1, 1, 6, 135, 60, 60, 135, 58, 132, 2, 2.21879
182, 1, wb, attraction, a-b-db, 14, 2, 1, 7, 90, 165, 83, 153, 165, 90, 2, 26.5113
182, 1, wb, attraction, a-b-db, 14, 2, 1, 7, 90, 165, 83, 153, 165, 90, 3, 1.82639
182, 1, wb, filler, NA, 999, 999, 1, 8, 141, 104, 151, 89, 57, 139, 3, 2.49442
182, 1, wb, filler, NA, 999, 999, 1, 8, 141, 104, 151, 89, 57, 139, 2, 36.737
182, 1, wb, attraction, a-b-da, 9, 2, 1, 9, 90, 165, 157, 86, 165, 90, 2, 47.406
182, 1, wb, attraction, a-b-da, 9, 2, 1, 9, 90, 165, 157, 86, 165, 90, 1, 1.12657
182, 1, wb, catch, NA, 999, 999, 1, 10, 160, 155, 137, 118, 116, 79, 3, 5.37485
182, 1, wb, catch, NA, 999, 999, 1, 10, 160, 155, 137, 118, 116, 79, 1, 0.96513
182, 1, wb, filler, NA, 999, 999, 1, 11, 168, 193, 126, 163, 109, 116, 3, 4.47605
182, 1, wb, filler, NA, 999, 999, 1, 11, 168, 193, 126, 163, 109, 116, 1, 0.902626
182, 1, wb, attraction, a-b-da, 2, 2, 1, 12, 165, 90, 90, 165, 163, 89, 1, 4.85638
182, 1, wb, attraction, a-b-da, 2, 2, 1, 12, 165, 90, 90, 165, 163, 89, 2, 0.843391
182, 1, wb, attraction, a-b-da, 2, 1, 1, 13, 135, 60, 134, 59, 60, 135, 2, 16.5112
182, 1, wb, attraction, a-b-da, 2, 1, 1, 13, 135, 60, 134, 59, 60, 135, 3, 2.4445
182, 1, wb, attraction, a-b-da, 9, 1, 1, 14, 135, 60, 60, 135, 129, 57, 3, 4.38372
182, 1, wb, attraction, a-b-da, 9, 1, 1, 14, 135, 60, 60, 135, 129, 57, 1, 2.5425
182, 1, wb, catch, NA, 999, 999, 1, 15, 83, 112, 141, 174, 165, 90, 1, 1.87755
182, 1, wb, catch, NA, 999, 999, 1, 15, 83, 112, 141, 174, 165, 90, 2, 0.848952
182, 1, wb, filler, NA, 999, 999, 1, 16, 66, 150, 143, 167, 157, 106, 1, 2.16462
182, 1, wb, filler, NA, 999, 999, 1, 16, 66, 150, 143, 167, 157, 106, 2, 0.4365
182, 1, wb, filler, NA, 999, 999, 1, 17, 76, 185, 80, 76, 168, 61, 3, 13.705
182, 1, wb, filler, NA, 999, 999, 1, 17, 76, 185, 80, 76, 168, 61, 1, 0.544116
182, 1, wb, attraction, a-b-da, 2, 3, 1, 18, 195, 120, 193, 119, 120, 195, 2, 23.6559
182, 1, wb, attraction, a-b-da, 2, 3, 1, 18, 195, 120, 193, 119, 120, 195, 1, 1.87763
182, 1, wb, attraction, a-b-db, 14, 1, 1, 19, 60, 135, 56, 125, 135, 60, 2, 7.32781
182, 1, wb, attraction, a-b-db, 14, 1, 1, 19, 60, 135, 56, 125, 135, 60, 1, 0.591339
182, 1, wb, attraction, a-b-db, 9, 2, 1, 20, 165, 90, 90, 165, 86, 157, 3, 8.09323
182, 1, wb, attraction, a-b-db, 9, 2, 1, 20, 165, 90, 90, 165, 86, 157, 2, 0.661887
182, 1, wb, attraction, a-b-db, 9, 3, 1, 21, 120, 195, 114, 186, 195, 120, 3, 10.305
182, 1, wb, attraction, a-b-db, 9, 3, 1, 21, 120, 195, 114, 186, 195, 120, 2, 1.00908
182, 1, wb, filler, NA, 999, 999, 1, 22, 142, 129, 84, 131, 121, 77, 3, 3.03804
182, 1, wb, filler, NA, 999, 999, 1, 22, 142, 129, 84, 131, 121, 77, 1, 8.37108
182, 1, wb, filler, NA, 999, 999, 1, 23, 75, 135, 121, 103, 177, 72, 1, 28.1118
182, 1, wb, filler, NA, 999, 999, 1, 23, 75, 135, 121, 103, 177, 72, 3, 4.49827
182, 1, wb, attraction, a-b-da, 5, 2, 1, 24, 90, 165, 165, 90, 161, 88, 3, 13.1387
182, 1, wb, attraction, a-b-da, 5, 2, 1, 24, 90, 165, 165, 90, 161, 88, 1, 1.00873
182, 1, wb, attraction, a-b-db, 9, 1, 1, 25, 135, 60, 60, 135, 57, 129, 1, 6.29359
182, 1, wb, attraction, a-b-db, 9, 1, 1, 25, 135, 60, 60, 135, 57, 129, 2, 1.79098
182, 1, wb, filler, NA, 999, 999, 1, 26, 66, 150, 74, 130, 141, 85, 1, 16.8444
182, 1, wb, filler, NA, 999, 999, 1, 26, 66, 150, 74, 130, 141, 85, 2, 1.41242
182, 1, wb, catch, NA, 999, 999, 1, 27, 108, 87, 134, 121, 180, 135, 1, 3.38526
182, 1, wb, catch, NA, 999, 999, 1, 27, 108, 87, 134, 121, 180, 135, 3, 1.24812
182, 1, wb, attraction, a-b-db, 5, 2, 1, 28, 165, 90, 90, 165, 88, 161, 3, 26.8756
182, 1, wb, attraction, a-b-db, 5, 2, 1, 28, 165, 90, 90, 165, 88, 161, 2, 1.24788
182, 1, wb, attraction, a-b-db, 2, 1, 1, 29, 135, 60, 59, 134, 60, 135, 1, 11.4354
182, 1, wb, attraction, a-b-db, 2, 1, 1, 29, 135, 60, 59, 134, 60, 135, 2, 0.845812
182, 1, wb, attraction, a-b-db, 14, 3, 1, 30, 120, 195, 195, 120, 111, 181, 3, 9.96949
182, 1, wb, attraction, a-b-db, 14, 3, 1, 30, 120, 195, 195, 120, 111, 181, 2, 0.39109
182, 1, wb, filler, NA, 999, 999, 1, 31, 125, 166, 70, 86, 158, 82, 2, 1.64491
182, 1, wb, filler, NA, 999, 999, 1, 31, 125, 166, 70, 86, 158, 82, 1, 1.22583
182, 1, wb, attraction, a-b-da, 9, 3, 1, 32, 120, 195, 186, 114, 195, 120, 1, 25.5099
182, 1, wb, attraction, a-b-da, 9, 3, 1, 32, 120, 195, 186, 114, 195, 120, 3, 3.21729
182, 1, wb, filler, NA, 999, 999, 1, 33, 140, 89, 109, 133, 108, 113, 1, 3.86163
182, 1, wb, filler, NA, 999, 999, 1, 33, 140, 89, 109, 133, 108, 113, 2, 0.984954
182, 1, wb, attraction, a-b-db, 2, 3, 1, 34, 119, 193, 120, 195, 195, 120, 3, 7.38325
182, 1, wb, attraction, a-b-db, 2, 3, 1, 34, 119, 193, 120, 195, 195, 120, 2, 1.53293
182, 1, wb, attraction, a-b-db, 2, 2, 1, 35, 90, 165, 165, 90, 89, 163, 3, 2.317
182, 1, wb, attraction, a-b-db, 2, 2, 1, 35, 90, 165, 165, 90, 89, 163, 2, 0.846928
182, 1, wb, attraction, a-b-da, 14, 3, 1, 36, 120, 195, 181, 111, 195, 120, 2, 7.75479
182, 1, wb, attraction, a-b-da, 14, 3, 1, 36, 120, 195, 181, 111, 195, 120, 1, 0.393649
182, 1, wb, attraction, a-b-da, 5, 1, 1, 37, 135, 60, 60, 135, 132, 58, 3, 7.61531
182, 1, wb, attraction, a-b-da, 5, 1, 1, 37, 135, 60, 60, 135, 132, 58, 2, 0.771663
182, 1, wb, attraction, a-b-da, 2, 3, 2, 1, 120, 195, 193, 119, 195, 120, 3, 10.1227
182, 1, wb, attraction, a-b-da, 2, 3, 2, 1, 120, 195, 193, 119, 195, 120, 1, 0.786124
182, 1, wb, attraction, a-b-db, 9, 1, 2, 2, 135, 60, 60, 135, 57, 129, 3, 14.2005
182, 1, wb, attraction, a-b-db, 9, 1, 2, 2, 135, 60, 60, 135, 57, 129, 2, 1.79536
182, 1, wb, attraction, a-b-db, 2, 2, 2, 3, 165, 90, 89, 163, 90, 165, 1, 24.2887
182, 1, wb, attraction, a-b-db, 2, 2, 2, 3, 165, 90, 89, 163, 90, 165, 2, 0.941122
182, 1, wb, attraction, a-b-db, 5, 2, 2, 4, 88, 161, 165, 90, 90, 165, 3, 13.1248
182, 1, wb, attraction, a-b-db, 5, 2, 2, 4, 88, 161, 165, 90, 90, 165, 2, 0.922656
182, 1, wb, attraction, a-b-da, 9, 2, 2, 5, 90, 165, 165, 90, 157, 86, 3, 2.4917
182, 1, wb, attraction, a-b-da, 9, 2, 2, 5, 90, 165, 165, 90, 157, 86, 2, 0.910213
182, 1, wb, catch, NA, 999, 999, 2, 6, 165, 150, 108, 147, 111, 84, 3, 1.37525
182, 1, wb, catch, NA, 999, 999, 2, 6, 165, 150, 108, 147, 111, 84, 1, 0.846731
182, 1, wb, attraction, a-b-db, 9, 3, 2, 7, 114, 186, 120, 195, 195, 120, 1, 7.55435
182, 1, wb, attraction, a-b-db, 9, 3, 2, 7, 114, 186, 120, 195, 195, 120, 3, 3.48135
182, 1, wb, attraction, a-b-db, 14, 1, 2, 8, 135, 60, 56, 125, 60, 135, 2, 3.07488
182, 1, wb, attraction, a-b-db, 14, 1, 2, 8, 135, 60, 56, 125, 60, 135, 1, 5.22206
182, 1, wb, filler, NA, 999, 999, 2, 9, 111, 177, 149, 64, 86, 155, 2, 2.03361
182, 1, wb, filler, NA, 999, 999, 2, 9, 111, 177, 149, 64, 86, 155, 1, 0.566846
182, 1, wb, attraction, a-b-db, 5, 1, 2, 10, 135, 60, 58, 132, 60, 135, 2, 13.238
182, 1, wb, attraction, a-b-db, 5, 1, 2, 10, 135, 60, 58, 132, 60, 135, 1, 1.8638
182, 1, wb, attraction, a-b-da, 5, 1, 2, 11, 135, 60, 132, 58, 60, 135, 2, 9.25857
182, 1, wb, attraction, a-b-da, 5, 1, 2, 11, 135, 60, 132, 58, 60, 135, 3, 2.19627
182, 1, wb, filler, NA, 999, 999, 2, 12, 103, 147, 164, 173, 180, 118, 1, 2.68955
182, 1, wb, filler, NA, 999, 999, 2, 12, 103, 147, 164, 173, 180, 118, 3, 34.804
182, 1, wb, attraction, a-b-db, 14, 3, 2, 13, 195, 120, 111, 181, 120, 195, 1, 33.359
182, 1, wb, attraction, a-b-db, 14, 3, 2, 13, 195, 120, 111, 181, 120, 195, 2, 0.781838
182, 1, wb, attraction, a-b-db, 2, 3, 2, 14, 119, 193, 120, 195, 195, 120, 1, 5.24417
182, 1, wb, attraction, a-b-db, 2, 3, 2, 14, 119, 193, 120, 195, 195, 120, 2, 0.768093
182, 1, wb, filler, NA, 999, 999, 2, 15, 162, 135, 131, 125, 144, 143, 2, 13.8549
182, 1, wb, filler, NA, 999, 999, 2, 15, 162, 135, 131, 125, 144, 143, 1, 1.68012
182, 1, wb, attraction, a-b-da, 9, 3, 2, 16, 186, 114, 195, 120, 120, 195, 2, 18.8022
182, 1, wb, attraction, a-b-da, 9, 3, 2, 16, 186, 114, 195, 120, 120, 195, 3, 7.98745
182, 1, wb, attraction, a-b-da, 2, 2, 2, 17, 90, 165, 165, 90, 163, 89, 3, 1.45565
182, 1, wb, attraction, a-b-da, 2, 2, 2, 17, 90, 165, 165, 90, 163, 89, 2, 2.65977
182, 1, wb, filler, NA, 999, 999, 2, 18, 90, 145, 86, 189, 180, 118, 1, 1.69423
182, 1, wb, filler, NA, 999, 999, 2, 18, 90, 145, 86, 189, 180, 118, 3, 0.72899
182, 1, wb, catch, NA, 999, 999, 2, 19, 168, 147, 145, 110, 82, 113, 3, 1.94552
182, 1, wb, catch, NA, 999, 999, 2, 19, 168, 147, 145, 110, 82, 113, 1, 1.88211
182, 1, wb, attraction, a-b-db, 14, 2, 2, 20, 90, 165, 83, 153, 165, 90, 2, 3.13206
182, 1, wb, attraction, a-b-db, 14, 2, 2, 20, 90, 165, 83, 153, 165, 90, 1, 0.877021
182, 1, wb, attraction, a-b-db, 9, 2, 2, 21, 165, 90, 90, 165, 86, 157, 3, 5.99139
182, 1, wb, attraction, a-b-db, 9, 2, 2, 21, 165, 90, 90, 165, 86, 157, 2, 1.42888
182, 1, wb, attraction, a-b-da, 2, 1, 2, 22, 135, 60, 134, 59, 60, 135, 3, 9.92905
182, 1, wb, attraction, a-b-da, 2, 1, 2, 22, 135, 60, 134, 59, 60, 135, 1, 0.807913
182, 1, wb, filler, NA, 999, 999, 2, 23, 118, 59, 187, 132, 151, 106, 1, 4.07692
182, 1, wb, filler, NA, 999, 999, 2, 23, 118, 59, 187, 132, 151, 106, 2, 0.719502
182, 1, wb, filler, NA, 999, 999, 2, 24, 106, 138, 186, 90, 117, 118, 3, 11.4246
182, 1, wb, filler, NA, 999, 999, 2, 24, 106, 138, 186, 90, 117, 118, 2, 2.76379
182, 1, wb, attraction, a-b-da, 5, 3, 2, 25, 195, 120, 120, 195, 190, 117, 2, 9.28208
182, 1, wb, attraction, a-b-da, 5, 3, 2, 25, 195, 120, 120, 195, 190, 117, 1, 1.1713
182, 1, wb, attraction, a-b-da, 14, 3, 2, 26, 181, 111, 120, 195, 195, 120, 1, 2.03403
182, 1, wb, attraction, a-b-da, 14, 3, 2, 26, 181, 111, 120, 195, 195, 120, 2, 0.567372
182, 1, wb, attraction, a-b-db, 5, 3, 2, 27, 117, 190, 195, 120, 120, 195, 2, 34.5425
182, 1, wb, attraction, a-b-db, 5, 3, 2, 27, 117, 190, 195, 120, 120, 195, 3, 0.869757
182, 1, wb, attraction, a-b-db, 2, 1, 2, 28, 59, 134, 135, 60, 60, 135, 1, 9.60868
182, 1, wb, attraction, a-b-db, 2, 1, 2, 28, 59, 134, 135, 60, 60, 135, 3, 0.588433
182, 1, wb, attraction, a-b-da, 5, 2, 2, 29, 90, 165, 165, 90, 161, 88, 1, 17.0588
182, 1, wb, attraction, a-b-da, 5, 2, 2, 29, 90, 165, 165, 90, 161, 88, 2, 0.410842
182, 1, wb, filler, NA, 999, 999, 2, 30, 60, 121, 86, 94, 119, 142, 1, 4.77582
182, 1, wb, filler, NA, 999, 999, 2, 30, 60, 121, 86, 94, 119, 142, 3, 1.60638
182, 1, wb, filler, NA, 999, 999, 2, 31, 104, 112, 117, 111, 172, 144, 1, 12.1318
182, 1, wb, filler, NA, 999, 999, 2, 31, 104, 112, 117, 111, 172, 144, 3, 0.698046
182, 1, wb, attraction, a-b-da, 9, 1, 2, 32, 60, 135, 129, 57, 135, 60, 2, 12.2117
182, 1, wb, attraction, a-b-da, 9, 1, 2, 32, 60, 135, 129, 57, 135, 60, 1, 0.686519
182, 1, wb, filler, NA, 999, 999, 2, 33, 156, 126, 192, 64, 80, 192, 2, 2.53698
182, 1, wb, filler, NA, 999, 999, 2, 33, 156, 126, 192, 64, 80, 192, 1, 1.05003
182, 1, wb, catch, NA, 999, 999, 2, 34, 147, 108, 182, 133, 124, 71, 3, 2.63788
182, 1, wb, catch, NA, 999, 999, 2, 34, 147, 108, 182, 133, 124, 71, 2, 0.434816
182, 1, wb, attraction, a-b-da, 14, 1, 2, 35, 135, 60, 125, 56, 60, 135, 2, 2.61547
182, 1, wb, attraction, a-b-da, 14, 1, 2, 35, 135, 60, 125, 56, 60, 135, 3, 0.477171
182, 1, wb, attraction, a-b-da, 14, 2, 2, 36, 153, 83, 90, 165, 165, 90, 1, 3.07161
182, 1, wb, attraction, a-b-da, 14, 2, 2, 36, 153, 83, 90, 165, 165, 90, 2, 0.587423
182, 1, wb, filler, NA, 999, 999, 2, 37, 188, 186, 195, 76, 148, 114, 2, 36.1938
182, 1, wb, filler, NA, 999, 999, 2, 37, 188, 186, 195, 76, 148, 114, 3, 0.662531
182, 1, wb, attraction, a-b-da, 9, 1, 3, 1, 135, 60, 60, 135, 129, 57, 3, 5.58547
182, 1, wb, attraction, a-b-da, 9, 1, 3, 1, 135, 60, 60, 135, 129, 57, 2, 0.423731
182, 1, wb, attraction, a-b-db, 5, 1, 3, 2, 60, 135, 135, 60, 58, 132, 3, 7.22813
182, 1, wb, attraction, a-b-db, 5, 1, 3, 2, 60, 135, 135, 60, 58, 132, 1, 0.415935
182, 1, wb, attraction, a-b-db, 9, 1, 3, 3, 135, 60, 60, 135, 57, 129, 3, 3.22903
182, 1, wb, attraction, a-b-db, 9, 1, 3, 3, 135, 60, 60, 135, 57, 129, 2, 1.45797
182, 1, wb, filler, NA, 999, 999, 3, 4, 68, 192, 77, 155, 176, 195, 1, 7.14893
182, 1, wb, filler, NA, 999, 999, 3, 4, 68, 192, 77, 155, 176, 195, 3, 0.660003
182, 1, wb, attraction, a-b-db, 2, 2, 3, 5, 165, 90, 89, 163, 90, 165, 3, 16.231
182, 1, wb, attraction, a-b-db, 2, 2, 3, 5, 165, 90, 89, 163, 90, 165, 1, 0.583884
182, 1, wb, attraction, a-b-db, 14, 2, 3, 6, 165, 90, 83, 153, 90, 165, 2, 13.9743
182, 1, wb, attraction, a-b-db, 14, 2, 3, 6, 165, 90, 83, 153, 90, 165, 1, 0.962536
182, 1, wb, attraction, a-b-da, 5, 1, 3, 7, 132, 58, 135, 60, 60, 135, 3, 7.96154
182, 1, wb, attraction, a-b-da, 5, 1, 3, 7, 132, 58, 135, 60, 60, 135, 2, 0.671647
182, 1, wb, attraction, a-b-db, 9, 2, 3, 8, 165, 90, 90, 165, 86, 157, 3, 5.61888
182, 1, wb, attraction, a-b-db, 9, 2, 3, 8, 165, 90, 90, 165, 86, 157, 1, 1.87975
182, 1, wb, catch, NA, 999, 999, 3, 9, 99, 156, 95, 100, 128, 187, 1, 4.59369
182, 1, wb, catch, NA, 999, 999, 3, 9, 99, 156, 95, 100, 128, 187, 3, 2.0797
182, 1, wb, attraction, a-b-db, 2, 3, 3, 10, 119, 193, 120, 195, 195, 120, 3, 11.0015
182, 1, wb, attraction, a-b-db, 2, 3, 3, 10, 119, 193, 120, 195, 195, 120, 2, 5.94145
182, 1, wb, attraction, a-b-da, 5, 3, 3, 11, 195, 120, 120, 195, 190, 117, 3, 6.81939
182, 1, wb, attraction, a-b-da, 5, 3, 3, 11, 195, 120, 120, 195, 190, 117, 2, 6.58403
182, 1, wb, attraction, a-b-db, 2, 1, 3, 12, 59, 134, 60, 135, 135, 60, 2, 15.3805
182, 1, wb, attraction, a-b-db, 2, 1, 3, 12, 59, 134, 60, 135, 135, 60, 1, 2.72769
182, 1, wb, attraction, a-b-da, 14, 2, 3, 13, 90, 165, 165, 90, 153, 83, 3, 8.23139
182, 1, wb, attraction, a-b-da, 14, 2, 3, 13, 90, 165, 165, 90, 153, 83, 1, 1.19485
182, 1, wb, filler, NA, 999, 999, 3, 14, 112, 88, 180, 145, 124, 154, 1, 1.89662
182, 1, wb, filler, NA, 999, 999, 3, 14, 112, 88, 180, 145, 124, 154, 2, 0.899089
182, 1, wb, attraction, a-b-da, 14, 1, 3, 15, 60, 135, 135, 60, 125, 56, 3, 44.4289
182, 1, wb, attraction, a-b-da, 14, 1, 3, 15, 60, 135, 135, 60, 125, 56, 1, 3.17375
182, 1, wb, attraction, a-b-db, 5, 2, 3, 16, 165, 90, 88, 161, 90, 165, 1, 14.6039
182, 1, wb, attraction, a-b-db, 5, 2, 3, 16, 165, 90, 88, 161, 90, 165, 2, 1.05469
182, 1, wb, filler, NA, 999, 999, 3, 17, 72, 168, 160, 175, 144, 181, 1, 2.12221
182, 1, wb, filler, NA, 999, 999, 3, 17, 72, 168, 160, 175, 144, 181, 2, 2.77145
182, 1, wb, filler, NA, 999, 999, 3, 18, 106, 106, 150, 149, 143, 180, 1, 1.45788
182, 1, wb, filler, NA, 999, 999, 3, 18, 106, 106, 150, 149, 143, 180, 3, 1.3183
182, 1, wb, filler, NA, 999, 999, 3, 19, 120, 140, 119, 140, 91, 134, 3, 2.91895
182, 1, wb, filler, NA, 999, 999, 3, 19, 120, 140, 119, 140, 91, 134, 1, 1.88061
182, 1, wb, attraction, a-b-da, 2, 3, 3, 20, 195, 120, 193, 119, 120, 195, 2, 10.4187
182, 1, wb, attraction, a-b-da, 2, 3, 3, 20, 195, 120, 193, 119, 120, 195, 3, 0.71818
182, 1, wb, attraction, a-b-db, 9, 3, 3, 21, 120, 195, 195, 120, 114, 186, 3, 3.50315
182, 1, wb, attraction, a-b-db, 9, 3, 3, 21, 120, 195, 195, 120, 114, 186, 2, 1.82534
182, 1, wb, filler, NA, 999, 999, 3, 22, 132, 109, 154, 78, 117, 180, 2, 4.58953
182, 1, wb, filler, NA, 999, 999, 3, 22, 132, 109, 154, 78, 117, 180, 3, 1.44339
182, 1, wb, attraction, a-b-da, 9, 2, 3, 23, 157, 86, 165, 90, 90, 165, 3, 5.47094
182, 1, wb, attraction, a-b-da, 9, 2, 3, 23, 157, 86, 165, 90, 90, 165, 1, 2.76172
182, 1, wb, filler, NA, 999, 999, 3, 24, 188, 137, 193, 170, 101, 194, 3, 3.79231
182, 1, wb, filler, NA, 999, 999, 3, 24, 188, 137, 193, 170, 101, 194, 2, 0.934325
182, 1, wb, catch, NA, 999, 999, 3, 25, 104, 91, 150, 165, 123, 132, 1, 1.6946
182, 1, wb, catch, NA, 999, 999, 3, 25, 104, 91, 150, 165, 123, 132, 2, 0.83333
182, 1, wb, filler, NA, 999, 999, 3, 26, 149, 101, 168, 79, 137, 81, 3, 2.42179
182, 1, wb, filler, NA, 999, 999, 3, 26, 149, 101, 168, 79, 137, 81, 1, 1.14759
182, 1, wb, attraction, a-b-da, 2, 2, 3, 27, 163, 89, 165, 90, 90, 165, 1, 3.43512
182, 1, wb, attraction, a-b-da, 2, 2, 3, 27, 163, 89, 165, 90, 90, 165, 2, 0.320086
182, 1, wb, attraction, a-b-da, 5, 2, 3, 28, 165, 90, 90, 165, 161, 88, 1, 5.30516
182, 1, wb, attraction, a-b-da, 5, 2, 3, 28, 165, 90, 90, 165, 161, 88, 2, 0.458832
182, 1, wb, attraction, a-b-da, 9, 3, 3, 29, 195, 120, 120, 195, 186, 114, 3, 3.78211
182, 1, wb, attraction, a-b-da, 9, 3, 3, 29, 195, 120, 120, 195, 186, 114, 1, 2.18084
182, 1, wb, attraction, a-b-db, 5, 3, 3, 30, 117, 190, 120, 195, 195, 120, 3, 2.71474
182, 1, wb, attraction, a-b-db, 5, 3, 3, 30, 117, 190, 120, 195, 195, 120, 2, 0.444501
182, 1, wb, attraction, a-b-db, 14, 1, 3, 31, 60, 135, 56, 125, 135, 60, 2, 1.6003
182, 1, wb, attraction, a-b-db, 14, 1, 3, 31, 60, 135, 56, 125, 135, 60, 3, 4.92733
182, 1, wb, attraction, a-b-da, 2, 1, 3, 32, 134, 59, 60, 135, 135, 60, 3, 3.23031
182, 1, wb, attraction, a-b-da, 2, 1, 3, 32, 134, 59, 60, 135, 135, 60, 2, 0.699131
182, 1, wb, filler, NA, 999, 999, 3, 33, 61, 175, 186, 184, 154, 192, 1, 5.3569
182, 1, wb, filler, NA, 999, 999, 3, 33, 61, 175, 186, 184, 154, 192, 2, 0.595891
182, 1, wb, filler, NA, 999, 999, 3, 34, 172, 161, 152, 117, 63, 73, 3, 2.24153
182, 1, wb, filler, NA, 999, 999, 3, 34, 172, 161, 152, 117, 63, 73, 1, 8.80617
182, 1, wb, attraction, a-b-da, 14, 3, 3, 35, 181, 111, 120, 195, 195, 120, 1, 3.18538
182, 1, wb, attraction, a-b-da, 14, 3, 3, 35, 181, 111, 120, 195, 195, 120, 2, 0.848382
182, 1, wb, attraction, a-b-db, 14, 3, 3, 36, 195, 120, 111, 181, 120, 195, 1, 25.5241
182, 1, wb, attraction, a-b-db, 14, 3, 3, 36, 195, 120, 111, 181, 120, 195, 2, 0.646736
182, 1, wb, catch, NA, 999, 999, 3, 37, 130, 65, 134, 121, 144, 171, 1, 2.07452
182, 1, wb, catch, NA, 999, 999, 3, 37, 130, 65, 134, 121, 144, 171, 3, 1.76576
182, 1, wb, filler, NA, 999, 999, 4, 1, 80, 144, 152, 135, 160, 157, 1, 1.57258
182, 1, wb, filler, NA, 999, 999, 4, 1, 80, 144, 152, 135, 160, 157, 3, 3.60399
182, 1, wb, attraction, a-b-db, 9, 3, 4, 2, 195, 120, 114, 186, 120, 195, 1, 11.3208
182, 1, wb, attraction, a-b-db, 9, 3, 4, 2, 195, 120, 114, 186, 120, 195, 2, 0.735873
182, 1, wb, attraction, a-b-db, 5, 3, 4, 3, 120, 195, 195, 120, 117, 190, 3, 4.11224
182, 1, wb, attraction, a-b-db, 5, 3, 4, 3, 120, 195, 195, 120, 117, 190, 2, 0.953883
182, 1, wb, attraction, a-b-da, 5, 3, 4, 4, 195, 120, 120, 195, 190, 117, 3, 5.11328
182, 1, wb, attraction, a-b-da, 5, 3, 4, 4, 195, 120, 120, 195, 190, 117, 2, 0.682304
182, 1, wb, attraction, a-b-da, 2, 2, 4, 5, 90, 165, 165, 90, 163, 89, 3, 9.46066
182, 1, wb, attraction, a-b-da, 2, 2, 4, 5, 90, 165, 165, 90, 163, 89, 1, 1.07043
182, 1, wb, filler, NA, 999, 999, 4, 6, 142, 82, 76, 156, 163, 115, 1, 2.52935
182, 1, wb, filler, NA, 999, 999, 4, 6, 142, 82, 76, 156, 163, 115, 3, 0.674634
182, 1, wb, attraction, a-b-db, 14, 1, 4, 7, 60, 135, 135, 60, 56, 125, 3, 1.0929
182, 1, wb, attraction, a-b-db, 14, 1, 4, 7, 60, 135, 135, 60, 56, 125, 2, 5.82397
182, 1, wb, attraction, a-b-da, 9, 3, 4, 8, 195, 120, 186, 114, 120, 195, 2, 4.57931
182, 1, wb, attraction, a-b-da, 9, 3, 4, 8, 195, 120, 186, 114, 120, 195, 1, 2.68181
182, 1, wb, attraction, a-b-db, 9, 2, 4, 9, 86, 157, 90, 165, 165, 90, 1, 12.5477
182, 1, wb, attraction, a-b-db, 9, 2, 4, 9, 86, 157, 90, 165, 165, 90, 2, 2.08119
182, 1, wb, attraction, a-b-db, 2, 2, 4, 10, 89, 163, 165, 90, 90, 165, 1, 26.171
182, 1, wb, attraction, a-b-db, 2, 2, 4, 10, 89, 163, 165, 90, 90, 165, 2, 0.643488
182, 1, wb, attraction, a-b-db, 9, 1, 4, 11, 135, 60, 60, 135, 57, 129, 3, 1.39125
182, 1, wb, attraction, a-b-db, 9, 1, 4, 11, 135, 60, 60, 135, 57, 129, 2, 2.9902
182, 1, wb, attraction, a-b-da, 14, 3, 4, 12, 120, 195, 195, 120, 181, 111, 3, 5.53184
182, 1, wb, attraction, a-b-da, 14, 3, 4, 12, 120, 195, 195, 120, 181, 111, 2, 1.48393
182, 1, wb, attraction, a-b-da, 5, 2, 4, 13, 161, 88, 90, 165, 165, 90, 1, 13.1902
182, 1, wb, attraction, a-b-da, 5, 2, 4, 13, 161, 88, 90, 165, 165, 90, 2, 0.778014
182, 1, wb, attraction, a-b-db, 2, 3, 4, 14, 195, 120, 120, 195, 119, 193, 1, 4.08034
182, 1, wb, attraction, a-b-db, 2, 3, 4, 14, 195, 120, 120, 195, 119, 193, 2, 1.87502
182, 1, wb, attraction, a-b-db, 14, 3, 4, 15, 195, 120, 111, 181, 120, 195, 2, 3.54908
182, 1, wb, attraction, a-b-db, 14, 3, 4, 15, 195, 120, 111, 181, 120, 195, 1, 0.877243
182, 1, wb, attraction, a-b-da, 2, 3, 4, 16, 195, 120, 120, 195, 193, 119, 1, 7.22363
182, 1, wb, attraction, a-b-da, 2, 3, 4, 16, 195, 120, 120, 195, 193, 119, 2, 0.483358
182, 1, wb, attraction, a-b-db, 5, 2, 4, 17, 90, 165, 88, 161, 165, 90, 3, 4.69387
182, 1, wb, attraction, a-b-db, 5, 2, 4, 17, 90, 165, 88, 161, 165, 90, 2, 0.823605
182, 1, wb, filler, NA, 999, 999, 4, 18, 177, 131, 92, 141, 63, 184, 3, 1.09997
182, 1, wb, filler, NA, 999, 999, 4, 18, 177, 131, 92, 141, 63, 184, 1, 0.462946
182, 1, wb, filler, NA, 999, 999, 4, 19, 188, 83, 172, 195, 178, 159, 1, 1.69802
182, 1, wb, filler, NA, 999, 999, 4, 19, 188, 83, 172, 195, 178, 159, 2, 0.508923
182, 1, wb, catch, NA, 999, 999, 4, 20, 122, 133, 147, 168, 70, 125, 3, 1.47
182, 1, wb, catch, NA, 999, 999, 4, 20, 122, 133, 147, 168, 70, 125, 2, 0.410192
182, 1, wb, filler, NA, 999, 999, 4, 21, 183, 174, 101, 133, 128, 182, 2, 0.983363
182, 1, wb, filler, NA, 999, 999, 4, 21, 183, 174, 101, 133, 128, 182, 1, 0.39094
182, 1, wb, attraction, a-b-db, 14, 2, 4, 22, 165, 90, 83, 153, 90, 165, 2, 12.7487
182, 1, wb, attraction, a-b-db, 14, 2, 4, 22, 165, 90, 83, 153, 90, 165, 3, 0.370103
182, 1, wb, catch, NA, 999, 999, 4, 23, 194, 121, 99, 96, 143, 112, 2, 0.921655
182, 1, wb, catch, NA, 999, 999, 4, 23, 194, 121, 99, 96, 143, 112, 1, 0.386885
182, 1, wb, filler, NA, 999, 999, 4, 24, 122, 68, 131, 154, 150, 191, 1, 2.01752
182, 1, wb, filler, NA, 999, 999, 4, 24, 122, 68, 131, 154, 150, 191, 3, 0.823505
182, 1, wb, attraction, a-b-da, 9, 1, 4, 25, 60, 135, 135, 60, 129, 57, 1, 2.4038
182, 1, wb, attraction, a-b-da, 9, 1, 4, 25, 60, 135, 135, 60, 129, 57, 2, 0.562355
182, 1, wb, attraction, a-b-db, 2, 1, 4, 26, 60, 135, 135, 60, 59, 134, 2, 8.19353
182, 1, wb, attraction, a-b-db, 2, 1, 4, 26, 60, 135, 135, 60, 59, 134, 1, 2.03016
182, 1, wb, attraction, a-b-da, 14, 1, 4, 27, 135, 60, 125, 56, 60, 135, 2, 12.6582
182, 1, wb, attraction, a-b-da, 14, 1, 4, 27, 135, 60, 125, 56, 60, 135, 3, 1.83501
182, 1, wb, catch, NA, 999, 999, 4, 28, 146, 109, 73, 122, 148, 167, 2, 0.814878
182, 1, wb, catch, NA, 999, 999, 4, 28, 146, 109, 73, 122, 148, 167, 3, 0.469272
182, 1, wb, attraction, a-b-da, 14, 2, 4, 29, 165, 90, 90, 165, 153, 83, 3, 3.82452
182, 1, wb, attraction, a-b-da, 14, 2, 4, 29, 165, 90, 90, 165, 153, 83, 2, 0.517203
182, 1, wb, filler, NA, 999, 999, 4, 30, 88, 186, 171, 179, 168, 61, 3, 2.79029
182, 1, wb, filler, NA, 999, 999, 4, 30, 88, 186, 171, 179, 168, 61, 2, 0.500705
182, 1, wb, attraction, a-b-da, 5, 1, 4, 31, 135, 60, 132, 58, 60, 135, 2, 3.3345
182, 1, wb, attraction, a-b-da, 5, 1, 4, 31, 135, 60, 132, 58, 60, 135, 3, 0.415453
182, 1, wb, attraction, a-b-da, 2, 1, 4, 32, 135, 60, 134, 59, 60, 135, 1, 5.20471
182, 1, wb, attraction, a-b-da, 2, 1, 4, 32, 135, 60, 134, 59, 60, 135, 2, 0.378287
182, 1, wb, attraction, a-b-db, 5, 1, 4, 33, 60, 135, 135, 60, 58, 132, 2, 7.9609
182, 1, wb, attraction, a-b-db, 5, 1, 4, 33, 60, 135, 135, 60, 58, 132, 1, 0.478947
182, 1, wb, attraction, a-b-da, 9, 2, 4, 34, 90, 165, 165, 90, 157, 86, 1, 5.99335
182, 1, wb, attraction, a-b-da, 9, 2, 4, 34, 90, 165, 165, 90, 157, 86, 2, 0.366771
182, 1, wb, filler, NA, 999, 999, 4, 35, 152, 128, 92, 170, 80, 174, 3, 7.53391
182, 1, wb, filler, NA, 999, 999, 4, 35, 152, 128, 92, 170, 80, 174, 1, 1.59759
182, 1, wb, filler, NA, 999, 999, 4, 36, 88, 103, 64, 113, 71, 104, 2, 0.907027
182, 1, wb, filler, NA, 999, 999, 4, 36, 88, 103, 64, 113, 71, 104, 1, 0.381318
182, 1, wb, filler, NA, 999, 999, 4, 37, 175, 149, 115, 91, 152, 144, 2, 1.19599
182, 1, wb, filler, NA, 999, 999, 4, 37, 175, 149, 115, 91, 152, 144, 1, 0.826896
182, 1, wb, attraction, a-b-da, 2, 3, 5, 1, 193, 119, 195, 120, 120, 195, 1, 8.46175
182, 1, wb, attraction, a-b-da, 2, 3, 5, 1, 193, 119, 195, 120, 120, 195, 2, 0.76007
182, 1, wb, attraction, a-b-da, 5, 3, 5, 2, 190, 117, 195, 120, 120, 195, 1, 15.2947
182, 1, wb, attraction, a-b-da, 5, 3, 5, 2, 190, 117, 195, 120, 120, 195, 2, 0.701307
182, 1, wb, attraction, a-b-db, 9, 2, 5, 3, 90, 165, 165, 90, 86, 157, 2, 10.5032
182, 1, wb, attraction, a-b-db, 9, 2, 5, 3, 90, 165, 165, 90, 86, 157, 1, 1.03118
182, 1, wb, attraction, a-b-da, 9, 2, 5, 4, 90, 165, 165, 90, 157, 86, 1, 2.08339
182, 1, wb, attraction, a-b-da, 9, 2, 5, 4, 90, 165, 165, 90, 157, 86, 2, 0.654725
182, 1, wb, filler, NA, 999, 999, 5, 5, 63, 101, 66, 84, 56, 83, 3, 2.69054
182, 1, wb, filler, NA, 999, 999, 5, 5, 63, 101, 66, 84, 56, 83, 1, 1.18895
182, 1, wb, filler, NA, 999, 999, 5, 6, 116, 167, 145, 123, 173, 124, 1, 5.93115
182, 1, wb, filler, NA, 999, 999, 5, 6, 116, 167, 145, 123, 173, 124, 3, 0.899256
182, 1, wb, attraction, a-b-db, 2, 1, 5, 7, 60, 135, 59, 134, 135, 60, 1, 5.66899
182, 1, wb, attraction, a-b-db, 2, 1, 5, 7, 60, 135, 59, 134, 135, 60, 3, 0.591865
182, 1, wb, attraction, a-b-db, 5, 3, 5, 8, 195, 120, 120, 195, 117, 190, 3, 7.51762
182, 1, wb, attraction, a-b-db, 5, 3, 5, 8, 195, 120, 120, 195, 117, 190, 2, 0.941827
182, 1, wb, attraction, a-b-db, 5, 2, 5, 9, 165, 90, 88, 161, 90, 165, 3, 13.1336
182, 1, wb, attraction, a-b-db, 5, 2, 5, 9, 165, 90, 88, 161, 90, 165, 1, 0.387389
182, 1, wb, attraction, a-b-da, 5, 1, 5, 10, 132, 58, 135, 60, 60, 135, 3, 4.75384
182, 1, wb, attraction, a-b-da, 5, 1, 5, 10, 132, 58, 135, 60, 60, 135, 2, 0.9057
182, 1, wb, attraction, a-b-db, 14, 2, 5, 11, 165, 90, 83, 153, 90, 165, 2, 22.9474
182, 1, wb, attraction, a-b-db, 14, 2, 5, 11, 165, 90, 83, 153, 90, 165, 3, 0.893608
182, 1, wb, filler, NA, 999, 999, 5, 12, 106, 71, 194, 109, 64, 102, 3, 0.751124
182, 1, wb, filler, NA, 999, 999, 5, 12, 106, 71, 194, 109, 64, 102, 2, 0.424246
182, 1, wb, attraction, a-b-db, 14, 3, 5, 13, 120, 195, 111, 181, 195, 120, 2, 4.05274
182, 1, wb, attraction, a-b-db, 14, 3, 5, 13, 120, 195, 111, 181, 195, 120, 1, 0.672741
182, 1, wb, attraction, a-b-db, 9, 1, 5, 14, 57, 129, 60, 135, 135, 60, 1, 3.73975
182, 1, wb, attraction, a-b-db, 9, 1, 5, 14, 57, 129, 60, 135, 135, 60, 3, 1.64403
182, 1, wb, attraction, a-b-db, 5, 1, 5, 15, 58, 132, 135, 60, 60, 135, 1, 2.77541
182, 1, wb, attraction, a-b-db, 5, 1, 5, 15, 58, 132, 135, 60, 60, 135, 2, 5.96661
182, 1, wb, filler, NA, 999, 999, 5, 16, 65, 123, 186, 176, 71, 171, 1, 2.84392
182, 1, wb, filler, NA, 999, 999, 5, 16, 65, 123, 186, 176, 71, 171, 2, 0.840206
182, 1, wb, catch, NA, 999, 999, 5, 17, 120, 75, 191, 124, 161, 94, 1, 1.05187
182, 1, wb, catch, NA, 999, 999, 5, 17, 120, 75, 191, 124, 161, 94, 2, 0.441083
182, 1, wb, attraction, a-b-da, 14, 3, 5, 18, 120, 195, 195, 120, 181, 111, 3, 2.91671
182, 1, wb, attraction, a-b-da, 14, 3, 5, 18, 120, 195, 195, 120, 181, 111, 2, 0.95047
182, 1, wb, attraction, a-b-db, 14, 1, 5, 19, 60, 135, 56, 125, 135, 60, 2, 6.92611
182, 1, wb, attraction, a-b-db, 14, 1, 5, 19, 60, 135, 56, 125, 135, 60, 3, 0.453998
182, 1, wb, filler, NA, 999, 999, 5, 20, 100, 160, 70, 182, 140, 126, 2, 9.88169
182, 1, wb, filler, NA, 999, 999, 5, 20, 100, 160, 70, 182, 140, 126, 3, 0.634595
182, 1, wb, attraction, a-b-da, 9, 1, 5, 21, 60, 135, 135, 60, 129, 57, 3, 15.6231
182, 1, wb, attraction, a-b-da, 9, 1, 5, 21, 60, 135, 135, 60, 129, 57, 1, 0.6169
182, 1, wb, attraction, a-b-da, 5, 2, 5, 22, 161, 88, 90, 165, 165, 90, 1, 10.1739
182, 1, wb, attraction, a-b-da, 5, 2, 5, 22, 161, 88, 90, 165, 165, 90, 2, 0.595467
182, 1, wb, filler, NA, 999, 999, 5, 23, 193, 111, 150, 124, 166, 149, 2, 5.04105
182, 1, wb, filler, NA, 999, 999, 5, 23, 193, 111, 150, 124, 166, 149, 3, 4.46883
182, 1, wb, attraction, a-b-da, 2, 1, 5, 24, 135, 60, 134, 59, 60, 135, 3, 22.8387
182, 1, wb, attraction, a-b-da, 2, 1, 5, 24, 135, 60, 134, 59, 60, 135, 1, 3.64567
182, 1, wb, filler, NA, 999, 999, 5, 25, 69, 137, 63, 113, 193, 113, 2, 1.4725
182, 1, wb, filler, NA, 999, 999, 5, 25, 69, 137, 63, 113, 193, 113, 3, 0.571854
182, 1, wb, attraction, a-b-da, 2, 2, 5, 26, 165, 90, 163, 89, 90, 165, 2, 23.7309
182, 1, wb, attraction, a-b-da, 2, 2, 5, 26, 165, 90, 163, 89, 90, 165, 3, 0.373484
182, 1, wb, attraction, a-b-da, 14, 2, 5, 27, 90, 165, 153, 83, 165, 90, 2, 19.6761
182, 1, wb, attraction, a-b-da, 14, 2, 5, 27, 90, 165, 153, 83, 165, 90, 3, 1.17859
182, 1, wb, catch, NA, 999, 999, 5, 28, 99, 96, 164, 151, 106, 149, 1, 1.23275
182, 1, wb, catch, NA, 999, 999, 5, 28, 99, 96, 164, 151, 106, 149, 2, 0.358387
182, 1, wb, filler, NA, 999, 999, 5, 29, 64, 192, 79, 70, 130, 83, 2, 1.05345
182, 1, wb, filler, NA, 999, 999, 5, 29, 64, 192, 79, 70, 130, 83, 3, 0.898518
182, 1, wb, attraction, a-b-db, 2, 3, 5, 30, 195, 120, 120, 195, 119, 193, 3, 8.96421
182, 1, wb, attraction, a-b-db, 2, 3, 5, 30, 195, 120, 120, 195, 119, 193, 2, 0.665974
182, 1, wb, attraction, a-b-da, 14, 1, 5, 31, 135, 60, 60, 135, 125, 56, 3, 2.5011
182, 1, wb, attraction, a-b-da, 14, 1, 5, 31, 135, 60, 60, 135, 125, 56, 1, 0.59955
182, 1, wb, filler, NA, 999, 999, 5, 32, 120, 142, 88, 58, 76, 98, 3, 1.04537
182, 1, wb, filler, NA, 999, 999, 5, 32, 120, 142, 88, 58, 76, 98, 1, 0.826267
182, 1, wb, filler, NA, 999, 999, 5, 33, 87, 139, 85, 125, 105, 90, 3, 5.25473
182, 1, wb, filler, NA, 999, 999, 5, 33, 87, 139, 85, 125, 105, 90, 1, 0.442248
182, 1, wb, catch, NA, 999, 999, 5, 34, 117, 138, 120, 195, 65, 130, 3, 2.74212
182, 1, wb, catch, NA, 999, 999, 5, 34, 117, 138, 120, 195, 65, 130, 2, 0.646603
182, 1, wb, attraction, a-b-db, 2, 2, 5, 35, 89, 163, 165, 90, 90, 165, 1, 3.90623
182, 1, wb, attraction, a-b-db, 2, 2, 5, 35, 89, 163, 165, 90, 90, 165, 2, 0.731715
182, 1, wb, attraction, a-b-da, 9, 3, 5, 36, 120, 195, 195, 120, 186, 114, 3, 6.06022
182, 1, wb, attraction, a-b-da, 9, 3, 5, 36, 120, 195, 195, 120, 186, 114, 2, 1.23088
182, 1, wb, attraction, a-b-db, 9, 3, 5, 37, 120, 195, 114, 186, 195, 120, 2, 10.667
182, 1, wb, attraction, a-b-db, 9, 3, 5, 37, 120, 195, 114, 186, 195, 120, 3, 0.532408
182, 1, wb, attraction, a-b-db, 9, 2, 6, 1, 86, 157, 165, 90, 90, 165, 1, 4.80487
182, 1, wb, attraction, a-b-db, 9, 2, 6, 1, 86, 157, 165, 90, 90, 165, 2, 0.69059
182, 1, wb, attraction, a-b-da, 5, 2, 6, 2, 161, 88, 90, 165, 165, 90, 1, 3.68437
182, 1, wb, attraction, a-b-da, 5, 2, 6, 2, 161, 88, 90, 165, 165, 90, 2, 0.487231
182, 1, wb, attraction, a-b-da, 2, 2, 6, 3, 163, 89, 165, 90, 90, 165, 1, 10.5136
182, 1, wb, attraction, a-b-da, 2, 2, 6, 3, 163, 89, 165, 90, 90, 165, 2, 0.344986
182, 1, wb, filler, NA, 999, 999, 6, 4, 83, 164, 65, 191, 87, 148, 2, 30.4409
182, 1, wb, filler, NA, 999, 999, 6, 4, 83, 164, 65, 191, 87, 148, 1, 0.389244
182, 1, wb, filler, NA, 999, 999, 6, 5, 172, 56, 190, 76, 183, 155, 1, 2.57983
182, 1, wb, filler, NA, 999, 999, 6, 5, 172, 56, 190, 76, 183, 155, 3, 0.434966
182, 1, wb, attraction, a-b-da, 9, 3, 6, 6, 195, 120, 120, 195, 186, 114, 3, 7.59147
182, 1, wb, attraction, a-b-da, 9, 3, 6, 6, 195, 120, 120, 195, 186, 114, 1, 3.06839
182, 1, wb, attraction, a-b-da, 5, 1, 6, 7, 135, 60, 60, 135, 132, 58, 1, 2.23875
182, 1, wb, attraction, a-b-da, 5, 1, 6, 7, 135, 60, 60, 135, 132, 58, 2, 0.699257
182, 1, wb, attraction, a-b-da, 9, 2, 6, 8, 157, 86, 90, 165, 165, 90, 1, 7.16496
182, 1, wb, attraction, a-b-da, 9, 2, 6, 8, 157, 86, 90, 165, 165, 90, 2, 0.691398
182, 1, wb, attraction, a-b-db, 9, 3, 6, 9, 114, 186, 120, 195, 195, 120, 1, 4.34913
182, 1, wb, attraction, a-b-db, 9, 3, 6, 9, 114, 186, 120, 195, 195, 120, 2, 2.62907
182, 1, wb, attraction, a-b-da, 2, 1, 6, 10, 135, 60, 60, 135, 134, 59, 1, 10.4888
182, 1, wb, attraction, a-b-da, 2, 1, 6, 10, 135, 60, 60, 135, 134, 59, 2, 3.10556
182, 1, wb, attraction, a-b-db, 14, 1, 6, 11, 60, 135, 135, 60, 56, 125, 3, 2.84256
182, 1, wb, attraction, a-b-db, 14, 1, 6, 11, 60, 135, 135, 60, 56, 125, 2, 0.638857
182, 1, wb, attraction, a-b-db, 2, 2, 6, 12, 90, 165, 165, 90, 89, 163, 3, 3.37943
182, 1, wb, attraction, a-b-db, 2, 2, 6, 12, 90, 165, 165, 90, 89, 163, 2, 1.88235
182, 1, wb, attraction, a-b-db, 14, 3, 6, 13, 111, 181, 195, 120, 120, 195, 1, 2.74029
182, 1, wb, attraction, a-b-db, 14, 3, 6, 13, 111, 181, 195, 120, 120, 195, 2, 0.460691
182, 1, wb, attraction, a-b-db, 9, 1, 6, 14, 57, 129, 135, 60, 60, 135, 1, 9.97585
182, 1, wb, attraction, a-b-db, 9, 1, 6, 14, 57, 129, 135, 60, 60, 135, 2, 0.748619
182, 1, wb, filler, NA, 999, 999, 6, 15, 128, 167, 188, 158, 92, 169, 3, 3.78033
182, 1, wb, filler, NA, 999, 999, 6, 15, 128, 167, 188, 158, 92, 169, 2, 0.731195
182, 1, wb, attraction, a-b-db, 5, 2, 6, 16, 90, 165, 165, 90, 88, 161, 3, 31.6516
182, 1, wb, attraction, a-b-db, 5, 2, 6, 16, 90, 165, 165, 90, 88, 161, 2, 2.37518
182, 1, wb, filler, NA, 999, 999, 6, 17, 183, 61, 90, 70, 63, 134, 2, 2.7809
182, 1, wb, filler, NA, 999, 999, 6, 17, 183, 61, 90, 70, 63, 134, 1, 0.747958
182, 1, wb, attraction, a-b-da, 14, 2, 6, 18, 153, 83, 90, 165, 165, 90, 1, 2.17971
182, 1, wb, attraction, a-b-da, 14, 2, 6, 18, 153, 83, 90, 165, 165, 90, 2, 5.947
182, 1, wb, filler, NA, 999, 999, 6, 19, 188, 193, 58, 179, 171, 92, 2, 4.60917
182, 1, wb, filler, NA, 999, 999, 6, 19, 188, 193, 58, 179, 171, 92, 1, 0.806259
182, 1, wb, attraction, a-b-da, 14, 3, 6, 20, 195, 120, 120, 195, 181, 111, 3, 6.97194
182, 1, wb, attraction, a-b-da, 14, 3, 6, 20, 195, 120, 120, 195, 181, 111, 2, 0.418433
182, 1, wb, attraction, a-b-da, 14, 1, 6, 21, 135, 60, 60, 135, 125, 56, 1, 27.8475
182, 1, wb, attraction, a-b-da, 14, 1, 6, 21, 135, 60, 60, 135, 125, 56, 2, 0.996076
182, 1, wb, attraction, a-b-da, 5, 3, 6, 22, 190, 117, 195, 120, 120, 195, 3, 13.3697
182, 1, wb, attraction, a-b-da, 5, 3, 6, 22, 190, 117, 195, 120, 120, 195, 2, 2.98224
182, 1, wb, attraction, a-b-db, 2, 3, 6, 23, 120, 195, 195, 120, 119, 193, 1, 6.58791
182, 1, wb, attraction, a-b-db, 2, 3, 6, 23, 120, 195, 195, 120, 119, 193, 2, 0.417914
182, 1, wb, attraction, a-b-db, 2, 1, 6, 24, 135, 60, 60, 135, 59, 134, 3, 6.01501
182, 1, wb, attraction, a-b-db, 2, 1, 6, 24, 135, 60, 60, 135, 59, 134, 2, 0.587881
182, 1, wb, attraction, a-b-da, 2, 3, 6, 25, 195, 120, 193, 119, 120, 195, 1, 27.5862
182, 1, wb, attraction, a-b-da, 2, 3, 6, 25, 195, 120, 193, 119, 120, 195, 3, 0.929587
182, 1, wb, filler, NA, 999, 999, 6, 26, 77, 59, 134, 64, 77, 114, 1, 1.56984
182, 1, wb, filler, NA, 999, 999, 6, 26, 77, 59, 134, 64, 77, 114, 2, 0.64214
182, 1, wb, catch, NA, 999, 999, 6, 27, 128, 67, 172, 143, 103, 152, 1, 0.781713
182, 1, wb, catch, NA, 999, 999, 6, 27, 128, 67, 172, 143, 103, 152, 2, 0.749472
182, 1, wb, catch, NA, 999, 999, 6, 28, 190, 125, 148, 107, 65, 130, 3, 1.52399
182, 1, wb, catch, NA, 999, 999, 6, 28, 190, 125, 148, 107, 65, 130, 1, 0.28661
182, 1, wb, filler, NA, 999, 999, 6, 29, 181, 168, 189, 157, 116, 150, 3, 0.81711
182, 1, wb, filler, NA, 999, 999, 6, 29, 181, 168, 189, 157, 116, 150, 2, 7.07159
182, 1, wb, filler, NA, 999, 999, 6, 30, 163, 141, 170, 73, 61, 171, 3, 0.968702
182, 1, wb, filler, NA, 999, 999, 6, 30, 163, 141, 170, 73, 61, 171, 1, 1.98504
182, 1, wb, attraction, a-b-db, 5, 3, 6, 31, 120, 195, 117, 190, 195, 120, 1, 12.023
182, 1, wb, attraction, a-b-db, 5, 3, 6, 31, 120, 195, 117, 190, 195, 120, 3, 0.393815
182, 1, wb, attraction, a-b-da, 9, 1, 6, 32, 129, 57, 60, 135, 135, 60, 1, 5.23166
182, 1, wb, attraction, a-b-da, 9, 1, 6, 32, 129, 57, 60, 135, 135, 60, 2, 0.579979
182, 1, wb, attraction, a-b-db, 5, 1, 6, 33, 58, 132, 60, 135, 135, 60, 1, 2.3384
182, 1, wb, attraction, a-b-db, 5, 1, 6, 33, 58, 132, 60, 135, 135, 60, 3, 1.12315
182, 1, wb, attraction, a-b-db, 14, 2, 6, 34, 165, 90, 83, 153, 90, 165, 2, 3.27592
182, 1, wb, attraction, a-b-db, 14, 2, 6, 34, 165, 90, 83, 153, 90, 165, 1, 0.582977
182, 1, wb, catch, NA, 999, 999, 6, 35, 192, 123, 134, 121, 96, 99, 3, 1.86935
182, 1, wb, catch, NA, 999, 999, 6, 35, 192, 123, 134, 121, 96, 99, 1, 1.02548
182, 1, wb, filler, NA, 999, 999, 6, 36, 149, 116, 167, 73, 183, 152, 2, 2.78166
182, 1, wb, filler, NA, 999, 999, 6, 36, 149, 116, 167, 73, 183, 152, 3, 2.62878
182, 1, wb, filler, NA, 999, 999, 6, 37, 113, 80, 141, 192, 115, 146, 1, 2.52847
182, 1, wb, filler, NA, 999, 999, 6, 37, 113, 80, 141, 192, 115, 146, 2, 0.585755
182, 1, wb, attraction, a-b-da, 2, 3, 7, 1, 193, 119, 195, 120, 120, 195, 3, 6.72014
182, 1, wb, attraction, a-b-da, 2, 3, 7, 1, 193, 119, 195, 120, 120, 195, 2, 2.40065
182, 1, wb, attraction, a-b-da, 14, 2, 7, 2, 153, 83, 90, 165, 165, 90, 1, 2.18198
182, 1, wb, attraction, a-b-da, 14, 2, 7, 2, 153, 83, 90, 165, 165, 90, 3, 0.933326
182, 1, wb, filler, NA, 999, 999, 7, 3, 168, 163, 80, 156, 162, 87, 2, 1.42948
182, 1, wb, filler, NA, 999, 999, 7, 3, 168, 163, 80, 156, 162, 87, 1, 0.45897
182, 1, wb, attraction, a-b-db, 9, 2, 7, 4, 90, 165, 165, 90, 86, 157, 3, 6.19808
182, 1, wb, attraction, a-b-db, 9, 2, 7, 4, 90, 165, 165, 90, 86, 157, 2, 0.731644
182, 1, wb, attraction, a-b-db, 9, 1, 7, 5, 60, 135, 57, 129, 135, 60, 2, 3.57991
182, 1, wb, attraction, a-b-db, 9, 1, 7, 5, 60, 135, 57, 129, 135, 60, 3, 1.53883
182, 1, wb, filler, NA, 999, 999, 7, 6, 155, 76, 63, 193, 58, 125, 3, 1.35482
182, 1, wb, filler, NA, 999, 999, 7, 6, 155, 76, 63, 193, 58, 125, 1, 0.539164
182, 1, wb, catch, NA, 999, 999, 7, 7, 152, 163, 112, 143, 96, 99, 3, 2.09957
182, 1, wb, catch, NA, 999, 999, 7, 7, 152, 163, 112, 143, 96, 99, 1, 0.85444
182, 1, wb, attraction, a-b-db, 14, 1, 7, 8, 60, 135, 135, 60, 56, 125, 3, 3.4178
182, 1, wb, attraction, a-b-db, 14, 1, 7, 8, 60, 135, 135, 60, 56, 125, 2, 0.687369
182, 1, wb, attraction, a-b-da, 14, 1, 7, 9, 60, 135, 135, 60, 125, 56, 3, 3.63397
182, 1, wb, attraction, a-b-da, 14, 1, 7, 9, 60, 135, 135, 60, 125, 56, 2, 2.45476
182, 1, wb, attraction, a-b-da, 9, 2, 7, 10, 165, 90, 157, 86, 90, 165, 2, 16.6898
182, 1, wb, attraction, a-b-da, 9, 2, 7, 10, 165, 90, 157, 86, 90, 165, 1, 0.560604
182, 1, wb, attraction, a-b-db, 14, 2, 7, 11, 165, 90, 83, 153, 90, 165, 2, 4.84775
182, 1, wb, attraction, a-b-db, 14, 2, 7, 11, 165, 90, 83, 153, 90, 165, 1, 0.355613
182, 1, wb, attraction, a-b-db, 9, 3, 7, 12, 195, 120, 120, 195, 114, 186, 3, 6.04332
182, 1, wb, attraction, a-b-db, 9, 3, 7, 12, 195, 120, 120, 195, 114, 186, 2, 0.494759
182, 1, wb, attraction, a-b-db, 5, 2, 7, 13, 88, 161, 165, 90, 90, 165, 1, 2.0406
182, 1, wb, attraction, a-b-db, 5, 2, 7, 13, 88, 161, 165, 90, 90, 165, 3, 3.86126
182, 1, wb, attraction, a-b-da, 14, 3, 7, 14, 120, 195, 195, 120, 181, 111, 3, 6.04727
182, 1, wb, attraction, a-b-da, 14, 3, 7, 14, 120, 195, 195, 120, 181, 111, 2, 0.546649
182, 1, wb, attraction, a-b-db, 2, 1, 7, 15, 59, 134, 135, 60, 60, 135, 2, 3.21044
182, 1, wb, attraction, a-b-db, 2, 1, 7, 15, 59, 134, 135, 60, 60, 135, 3, 0.704113
182, 1, wb, filler, NA, 999, 999, 7, 16, 186, 104, 97, 144, 119, 103, 3, 1.68987
182, 1, wb, filler, NA, 999, 999, 7, 16, 186, 104, 97, 144, 119, 103, 1, 2.08463
182, 1, wb, attraction, a-b-db, 5, 3, 7, 17, 117, 190, 195, 120, 120, 195, 1, 1.63848
182, 1, wb, attraction, a-b-db, 5, 3, 7, 17, 117, 190, 195, 120, 120, 195, 2, 1.05137
182, 1, wb, filler, NA, 999, 999, 7, 18, 173, 169, 60, 70, 57, 113, 2, 0.926912
182, 1, wb, filler, NA, 999, 999, 7, 18, 173, 169, 60, 70, 57, 113, 1, 0.272585
182, 1, wb, attraction, a-b-db, 2, 2, 7, 19, 90, 165, 165, 90, 89, 163, 3, 5.06787
182, 1, wb, attraction, a-b-db, 2, 2, 7, 19, 90, 165, 165, 90, 89, 163, 2, 3.03094
182, 1, wb, attraction, a-b-da, 9, 3, 7, 20, 186, 114, 195, 120, 120, 195, 1, 1.03457
182, 1, wb, attraction, a-b-da, 9, 3, 7, 20, 186, 114, 195, 120, 120, 195, 2, 0.416178
182, 1, wb, attraction, a-b-da, 2, 1, 7, 21, 135, 60, 134, 59, 60, 135, 3, 5.98931
182, 1, wb, attraction, a-b-da, 2, 1, 7, 21, 135, 60, 134, 59, 60, 135, 2, 1.8355
182, 1, wb, filler, NA, 999, 999, 7, 22, 114, 87, 61, 115, 163, 110, 2, 3.63965
182, 1, wb, filler, NA, 999, 999, 7, 22, 114, 87, 61, 115, 163, 110, 3, 0.947784
182, 1, wb, catch, NA, 999, 999, 7, 23, 160, 155, 114, 141, 74, 121, 3, 1.49141
182, 1, wb, catch, NA, 999, 999, 7, 23, 160, 155, 114, 141, 74, 121, 1, 0.742191
182, 1, wb, attraction, a-b-da, 5, 3, 7, 24, 120, 195, 195, 120, 190, 117, 3, 11.0539
182, 1, wb, attraction, a-b-da, 5, 3, 7, 24, 120, 195, 195, 120, 190, 117, 1, 5.7277
182, 1, wb, filler, NA, 999, 999, 7, 25, 63, 107, 73, 120, 78, 147, 1, 1.92645
182, 1, wb, filler, NA, 999, 999, 7, 25, 63, 107, 73, 120, 78, 147, 3, 0.44782
182, 1, wb, filler, NA, 999, 999, 7, 26, 83, 92, 167, 126, 145, 69, 1, 1.58766
182, 1, wb, filler, NA, 999, 999, 7, 26, 83, 92, 167, 126, 145, 69, 2, 0.415322
182, 1, wb, attraction, a-b-db, 2, 3, 7, 27, 119, 193, 195, 120, 120, 195, 1, 4.22437
182, 1, wb, attraction, a-b-db, 2, 3, 7, 27, 119, 193, 195, 120, 120, 195, 2, 0.957126
182, 1, wb, filler, NA, 999, 999, 7, 28, 58, 188, 190, 96, 151, 74, 1, 1.38799
182, 1, wb, filler, NA, 999, 999, 7, 28, 58, 188, 190, 96, 151, 74, 2, 0.866805
182, 1, wb, attraction, a-b-da, 9, 1, 7, 29, 60, 135, 135, 60, 129, 57, 3, 4.58985
182, 1, wb, attraction, a-b-da, 9, 1, 7, 29, 60, 135, 135, 60, 129, 57, 2, 1.79574
182, 1, wb, attraction, a-b-db, 5, 1, 7, 30, 58, 132, 60, 135, 135, 60, 1, 19.2571
182, 1, wb, attraction, a-b-db, 5, 1, 7, 30, 58, 132, 60, 135, 135, 60, 2, 0.456361
182, 1, wb, attraction, a-b-db, 14, 3, 7, 31, 120, 195, 195, 120, 111, 181, 3, 5.9162
182, 1, wb, attraction, a-b-db, 14, 3, 7, 31, 120, 195, 195, 120, 111, 181, 2, 3.70109
182, 1, wb, filler, NA, 999, 999, 7, 32, 157, 106, 146, 58, 164, 68, 2, 3.78193
182, 1, wb, filler, NA, 999, 999, 7, 32, 157, 106, 146, 58, 164, 68, 1, 2.18849
182, 1, wb, attraction, a-b-da, 5, 2, 7, 33, 161, 88, 90, 165, 165, 90, 1, 2.47443
182, 1, wb, attraction, a-b-da, 5, 2, 7, 33, 161, 88, 90, 165, 165, 90, 2, 0.941771
182, 1, wb, catch, NA, 999, 999, 7, 34, 125, 130, 180, 135, 75, 120, 3, 0.861365
182, 1, wb, catch, NA, 999, 999, 7, 34, 125, 130, 180, 135, 75, 120, 2, 0.64984
182, 1, wb, filler, NA, 999, 999, 7, 35, 109, 173, 172, 193, 192, 150, 1, 2.38155
182, 1, wb, filler, NA, 999, 999, 7, 35, 109, 173, 172, 193, 192, 150, 2, 3.16467
182, 1, wb, attraction, a-b-da, 2, 2, 7, 36, 90, 165, 163, 89, 165, 90, 1, 2.32291
182, 1, wb, attraction, a-b-da, 2, 2, 7, 36, 90, 165, 163, 89, 165, 90, 2, 0.356151
182, 1, wb, attraction, a-b-da, 5, 1, 7, 37, 135, 60, 132, 58, 60, 135, 1, 2.68402
182, 1, wb, attraction, a-b-da, 5, 1, 7, 37, 135, 60, 132, 58, 60, 135, 2, 0.663173
182, 1, wb, attraction, a-b-db, 9, 1, 8, 1, 60, 135, 135, 60, 57, 129, 1, 1.46613
182, 1, wb, attraction, a-b-db, 9, 1, 8, 1, 60, 135, 135, 60, 57, 129, 2, 0.934417
182, 1, wb, filler, NA, 999, 999, 8, 2, 162, 94, 60, 187, 83, 109, 2, 1.35113
182, 1, wb, filler, NA, 999, 999, 8, 2, 162, 94, 60, 187, 83, 109, 1, 3.95963
182, 1, wb, attraction, a-b-db, 2, 2, 8, 3, 165, 90, 89, 163, 90, 165, 3, 2.06958
182, 1, wb, attraction, a-b-db, 2, 2, 8, 3, 165, 90, 89, 163, 90, 165, 1, 2.67361
182, 1, wb, filler, NA, 999, 999, 8, 4, 151, 132, 117, 180, 96, 143, 3, 2.22006
182, 1, wb, filler, NA, 999, 999, 8, 4, 151, 132, 117, 180, 96, 143, 2, 0.850166
182, 1, wb, filler, NA, 999, 999, 8, 5, 163, 189, 173, 103, 109, 148, 3, 4.29392
182, 1, wb, filler, NA, 999, 999, 8, 5, 163, 189, 173, 103, 109, 148, 1, 1.71969
182, 1, wb, filler, NA, 999, 999, 8, 6, 81, 134, 60, 107, 123, 175, 2, 1.32838
182, 1, wb, filler, NA, 999, 999, 8, 6, 81, 134, 60, 107, 123, 175, 3, 0.665967
182, 1, wb, attraction, a-b-db, 14, 2, 8, 7, 165, 90, 83, 153, 90, 165, 2, 11.3732
182, 1, wb, attraction, a-b-db, 14, 2, 8, 7, 165, 90, 83, 153, 90, 165, 1, 0.666128
182, 1, wb, filler, NA, 999, 999, 8, 8, 106, 189, 192, 151, 96, 78, 3, 2.20514
182, 1, wb, filler, NA, 999, 999, 8, 8, 106, 189, 192, 151, 96, 78, 2, 0.411099
182, 1, wb, attraction, a-b-db, 5, 3, 8, 9, 120, 195, 117, 190, 195, 120, 2, 14.9043
182, 1, wb, attraction, a-b-db, 5, 3, 8, 9, 120, 195, 117, 190, 195, 120, 3, 2.55107
182, 1, wb, filler, NA, 999, 999, 8, 10, 148, 145, 56, 67, 59, 76, 2, 1.67824
182, 1, wb, filler, NA, 999, 999, 8, 10, 148, 145, 56, 67, 59, 76, 1, 0.417494
182, 1, wb, filler, NA, 999, 999, 8, 11, 98, 129, 147, 157, 163, 131, 1, 0.918635
182, 1, wb, filler, NA, 999, 999, 8, 11, 98, 129, 147, 157, 163, 131, 2, 0.44125
182, 1, wb, attraction, a-b-da, 14, 1, 8, 12, 135, 60, 60, 135, 125, 56, 3, 8.21285
182, 1, wb, attraction, a-b-da, 14, 1, 8, 12, 135, 60, 60, 135, 125, 56, 1, 1.51288
182, 1, wb, attraction, a-b-da, 14, 3, 8, 13, 181, 111, 195, 120, 120, 195, 1, 4.83374
182, 1, wb, attraction, a-b-da, 14, 3, 8, 13, 181, 111, 195, 120, 120, 195, 2, 0.414144
182, 1, wb, attraction, a-b-da, 5, 3, 8, 14, 190, 117, 195, 120, 120, 195, 1, 1.29932
182, 1, wb, attraction, a-b-da, 5, 3, 8, 14, 190, 117, 195, 120, 120, 195, 2, 0.446199
182, 1, wb, attraction, a-b-db, 9, 3, 8, 15, 114, 186, 195, 120, 120, 195, 1, 2.44211
182, 1, wb, attraction, a-b-db, 9, 3, 8, 15, 114, 186, 195, 120, 120, 195, 2, 2.54267
182, 1, wb, attraction, a-b-db, 9, 2, 8, 16, 165, 90, 86, 157, 90, 165, 2, 4.22179
182, 1, wb, attraction, a-b-db, 9, 2, 8, 16, 165, 90, 86, 157, 90, 165, 3, 0.723029
182, 1, wb, attraction, a-b-db, 14, 3, 8, 17, 195, 120, 120, 195, 111, 181, 3, 9.00407
182, 1, wb, attraction, a-b-db, 14, 3, 8, 17, 195, 120, 120, 195, 111, 181, 1, 0.904554
182, 1, wb, attraction, a-b-da, 9, 3, 8, 18, 195, 120, 186, 114, 120, 195, 2, 5.39431
182, 1, wb, attraction, a-b-da, 9, 3, 8, 18, 195, 120, 186, 114, 120, 195, 1, 3.9438
182, 1, wb, attraction, a-b-db, 14, 1, 8, 19, 60, 135, 135, 60, 56, 125, 3, 1.7346
182, 1, wb, attraction, a-b-db, 14, 1, 8, 19, 60, 135, 135, 60, 56, 125, 1, 1.64
182, 1, wb, attraction, a-b-db, 2, 3, 8, 20, 195, 120, 120, 195, 119, 193, 3, 4.97202
182, 1, wb, attraction, a-b-db, 2, 3, 8, 20, 195, 120, 120, 195, 119, 193, 1, 3.97928
182, 1, wb, catch, NA, 999, 999, 8, 21, 154, 101, 154, 161, 94, 101, 3, 1.78454
182, 1, wb, catch, NA, 999, 999, 8, 21, 154, 101, 154, 161, 94, 101, 2, 0.463967
182, 1, wb, attraction, a-b-da, 2, 3, 8, 22, 193, 119, 195, 120, 120, 195, 1, 2.38711
182, 1, wb, attraction, a-b-da, 2, 3, 8, 22, 193, 119, 195, 120, 120, 195, 2, 1.69829
182, 1, wb, attraction, a-b-da, 5, 1, 8, 23, 60, 135, 135, 60, 132, 58, 1, 6.16378
182, 1, wb, attraction, a-b-da, 5, 1, 8, 23, 60, 135, 135, 60, 132, 58, 2, 0.618406
182, 1, wb, filler, NA, 999, 999, 8, 24, 135, 62, 134, 165, 63, 103, 3, 2.72762
182, 1, wb, filler, NA, 999, 999, 8, 24, 135, 62, 134, 165, 63, 103, 2, 0.608777
182, 1, wb, attraction, a-b-db, 5, 1, 8, 25, 60, 135, 135, 60, 58, 132, 3, 5.15764
182, 1, wb, attraction, a-b-db, 5, 1, 8, 25, 60, 135, 135, 60, 58, 132, 1, 0.972817
182, 1, wb, attraction, a-b-da, 14, 2, 8, 26, 165, 90, 153, 83, 90, 165, 2, 11.9637
182, 1, wb, attraction, a-b-da, 14, 2, 8, 26, 165, 90, 153, 83, 90, 165, 1, 0.584718
182, 1, wb, attraction, a-b-da, 9, 1, 8, 27, 60, 135, 135, 60, 129, 57, 3, 8.87908
182, 1, wb, attraction, a-b-da, 9, 1, 8, 27, 60, 135, 135, 60, 129, 57, 2, 0.408277
182, 1, wb, attraction, a-b-db, 5, 2, 8, 28, 90, 165, 165, 90, 88, 161, 2, 21.4773
182, 1, wb, attraction, a-b-db, 5, 2, 8, 28, 90, 165, 165, 90, 88, 161, 3, 0.843438
182, 1, wb, attraction, a-b-da, 2, 2, 8, 29, 165, 90, 90, 165, 163, 89, 3, 9.35913
182, 1, wb, attraction, a-b-da, 2, 2, 8, 29, 165, 90, 90, 165, 163, 89, 2, 0.70875
182, 1, wb, attraction, a-b-da, 2, 1, 8, 30, 60, 135, 135, 60, 134, 59, 3, 5.88583
182, 1, wb, attraction, a-b-da, 2, 1, 8, 30, 60, 135, 135, 60, 134, 59, 2, 0.592078
182, 1, wb, attraction, a-b-db, 2, 1, 8, 31, 60, 135, 59, 134, 135, 60, 1, 7.80581
182, 1, wb, attraction, a-b-db, 2, 1, 8, 31, 60, 135, 59, 134, 135, 60, 2, 0.554575
182, 1, wb, attraction, a-b-da, 5, 2, 8, 32, 165, 90, 90, 165, 161, 88, 3, 6.24229
182, 1, wb, attraction, a-b-da, 5, 2, 8, 32, 165, 90, 90, 165, 161, 88, 2, 0.965783
182, 1, wb, attraction, a-b-da, 9, 2, 8, 33, 165, 90, 157, 86, 90, 165, 3, 9.02864
182, 1, wb, attraction, a-b-da, 9, 2, 8, 33, 165, 90, 157, 86, 90, 165, 1, 0.735748
182, 1, wb, catch, NA, 999, 999, 8, 34, 135, 180, 162, 93, 113, 82, 3, 1.02414
182, 1, wb, catch, NA, 999, 999, 8, 34, 135, 180, 162, 93, 113, 82, 1, 0.79788
182, 1, wb, filler, NA, 999, 999, 8, 35, 99, 101, 159, 175, 64, 177, 3, 4.7796
182, 1, wb, filler, NA, 999, 999, 8, 35, 99, 101, 159, 175, 64, 177, 2, 0.418071
182, 1, wb, filler, NA, 999, 999, 8, 36, 159, 193, 183, 56, 174, 123, 2, 2.68718
182, 1, wb, filler, NA, 999, 999, 8, 36, 159, 193, 183, 56, 174, 123, 1, 0.354259
182, 1, wb, catch, NA, 999, 999, 8, 37, 187, 128, 89, 106, 109, 146, 2, 0.738107
182, 1, wb, catch, NA, 999, 999, 8, 37, 187, 128, 89, 106, 109, 146, 1, 0.315103
