sub_n, computer_n, bw_cond, effect, set, distance, diag, block_n, trial_n, h1, w1, h2, w2, h3, w3, choice, rt 
120, 1, wb, practice, NA, 999, 999, 0, 1, 113, 148, 97, 116, 60, 118, 3, 14.0789
120, 1, wb, practice, NA, 999, 999, 0, 1, 113, 148, 97, 116, 60, 118, 1, 2.88046
120, 1, wb, practice, NA, 999, 999, 0, 2, 149, 184, 148, 159, 157, 131, 3, 28.5276
120, 1, wb, practice, NA, 999, 999, 0, 2, 149, 184, 148, 159, 157, 131, 1, 1.90543
120, 1, wb, practice, NA, 999, 999, 0, 3, 171, 96, 171, 135, 157, 92, 3, 10.1205
120, 1, wb, practice, NA, 999, 999, 0, 3, 171, 96, 171, 135, 157, 92, 2, 1.40698
120, 1, wb, catch, NA, 999, 999, 1, 1, 156, 159, 118, 77, 104, 151, 2, 9.73532
120, 1, wb, catch, NA, 999, 999, 1, 1, 156, 159, 118, 77, 104, 151, 1, 0.814161
120, 1, wb, catch, NA, 999, 999, 1, 2, 189, 126, 101, 154, 123, 72, 3, 17.4512
120, 1, wb, catch, NA, 999, 999, 1, 2, 189, 126, 101, 154, 123, 72, 1, 5.77113
120, 1, wb, attraction, a-b-db, 2, 1, 1, 3, 60, 135, 135, 60, 59, 134, 1, 70.0004
120, 1, wb, attraction, a-b-db, 2, 1, 1, 3, 60, 135, 135, 60, 59, 134, 2, 0.634724
120, 1, wb, attraction, a-b-db, 9, 3, 1, 4, 120, 195, 195, 120, 114, 186, 3, 11.2552
120, 1, wb, attraction, a-b-db, 9, 3, 1, 4, 120, 195, 195, 120, 114, 186, 2, 0.832742
120, 1, wb, filler, NA, 999, 999, 1, 5, 101, 127, 156, 182, 95, 167, 1, 5.97313
120, 1, wb, filler, NA, 999, 999, 1, 5, 101, 127, 156, 182, 95, 167, 2, 1.74729
120, 1, wb, filler, NA, 999, 999, 1, 6, 83, 92, 89, 66, 179, 134, 2, 7.1628
120, 1, wb, filler, NA, 999, 999, 1, 6, 83, 92, 89, 66, 179, 134, 3, 1.13721
120, 1, wb, filler, NA, 999, 999, 1, 7, 138, 122, 190, 185, 94, 137, 3, 7.49731
120, 1, wb, filler, NA, 999, 999, 1, 7, 138, 122, 190, 185, 94, 137, 2, 0.626352
120, 1, wb, attraction, a-b-db, 9, 2, 1, 8, 90, 165, 86, 157, 165, 90, 2, 38.3507
120, 1, wb, attraction, a-b-db, 9, 2, 1, 8, 90, 165, 86, 157, 165, 90, 3, 0.948151
120, 1, wb, attraction, a-b-da, 9, 2, 1, 9, 165, 90, 157, 86, 90, 165, 1, 11.0357
120, 1, wb, attraction, a-b-da, 9, 2, 1, 9, 165, 90, 157, 86, 90, 165, 3, 0.566302
120, 1, wb, attraction, a-b-da, 2, 2, 1, 10, 163, 89, 90, 165, 165, 90, 1, 7.74129
120, 1, wb, attraction, a-b-da, 2, 2, 1, 10, 163, 89, 90, 165, 165, 90, 2, 0.636154
120, 1, wb, attraction, a-b-da, 5, 1, 1, 11, 60, 135, 132, 58, 135, 60, 3, 10.6887
120, 1, wb, attraction, a-b-da, 5, 1, 1, 11, 60, 135, 132, 58, 135, 60, 1, 0.609173
120, 1, wb, attraction, a-b-db, 5, 2, 1, 12, 165, 90, 90, 165, 88, 161, 1, 5.99846
120, 1, wb, attraction, a-b-db, 5, 2, 1, 12, 165, 90, 90, 165, 88, 161, 2, 0.995732
120, 1, wb, filler, NA, 999, 999, 1, 13, 110, 191, 110, 101, 88, 153, 2, 5.67334
120, 1, wb, filler, NA, 999, 999, 1, 13, 110, 191, 110, 101, 88, 153, 1, 2.98766
120, 1, wb, filler, NA, 999, 999, 1, 14, 104, 109, 184, 129, 181, 84, 1, 15.8972
120, 1, wb, filler, NA, 999, 999, 1, 14, 104, 109, 184, 129, 181, 84, 2, 0.735615
120, 1, wb, attraction, a-b-da, 14, 1, 1, 15, 60, 135, 125, 56, 135, 60, 1, 3.06388
120, 1, wb, attraction, a-b-da, 14, 1, 1, 15, 60, 135, 125, 56, 135, 60, 3, 4.74755
120, 1, wb, attraction, a-b-db, 2, 2, 1, 16, 165, 90, 90, 165, 89, 163, 1, 4.1622
120, 1, wb, attraction, a-b-db, 2, 2, 1, 16, 165, 90, 90, 165, 89, 163, 2, 1.03339
120, 1, wb, attraction, a-b-da, 2, 1, 1, 17, 134, 59, 60, 135, 135, 60, 1, 2.84575
120, 1, wb, attraction, a-b-da, 2, 1, 1, 17, 134, 59, 60, 135, 135, 60, 2, 2.16217
120, 1, wb, attraction, a-b-db, 5, 1, 1, 18, 58, 132, 60, 135, 135, 60, 3, 7.45681
120, 1, wb, attraction, a-b-db, 5, 1, 1, 18, 58, 132, 60, 135, 135, 60, 2, 2.53969
120, 1, wb, filler, NA, 999, 999, 1, 19, 159, 143, 81, 58, 62, 165, 2, 3.5235
120, 1, wb, filler, NA, 999, 999, 1, 19, 159, 143, 81, 58, 62, 165, 1, 0.812438
120, 1, wb, attraction, a-b-db, 2, 3, 1, 20, 120, 195, 119, 193, 195, 120, 3, 4.70547
120, 1, wb, attraction, a-b-db, 2, 3, 1, 20, 120, 195, 119, 193, 195, 120, 2, 1.17863
120, 1, wb, attraction, a-b-da, 9, 1, 1, 21, 135, 60, 60, 135, 129, 57, 1, 3.57685
120, 1, wb, attraction, a-b-da, 9, 1, 1, 21, 135, 60, 60, 135, 129, 57, 2, 0.695843
120, 1, wb, attraction, a-b-db, 14, 3, 1, 22, 195, 120, 120, 195, 111, 181, 1, 5.0494
120, 1, wb, attraction, a-b-db, 14, 3, 1, 22, 195, 120, 120, 195, 111, 181, 2, 0.509185
120, 1, wb, attraction, a-b-db, 14, 1, 1, 23, 60, 135, 135, 60, 56, 125, 2, 3.97431
120, 1, wb, attraction, a-b-db, 14, 1, 1, 23, 60, 135, 135, 60, 56, 125, 1, 2.22899
120, 1, wb, catch, NA, 999, 999, 1, 24, 124, 71, 178, 137, 100, 155, 1, 4.28898
120, 1, wb, catch, NA, 999, 999, 1, 24, 124, 71, 178, 137, 100, 155, 2, 0.619519
120, 1, wb, filler, NA, 999, 999, 1, 25, 108, 141, 83, 154, 188, 166, 2, 4.32066
120, 1, wb, filler, NA, 999, 999, 1, 25, 108, 141, 83, 154, 188, 166, 3, 0.769819
120, 1, wb, attraction, a-b-da, 2, 3, 1, 26, 120, 195, 195, 120, 193, 119, 3, 17.513
120, 1, wb, attraction, a-b-da, 2, 3, 1, 26, 120, 195, 195, 120, 193, 119, 1, 0.814262
120, 1, wb, attraction, a-b-da, 9, 3, 1, 27, 195, 120, 120, 195, 186, 114, 3, 8.05118
120, 1, wb, attraction, a-b-da, 9, 3, 1, 27, 195, 120, 120, 195, 186, 114, 2, 0.886016
120, 1, wb, attraction, a-b-da, 5, 3, 1, 28, 120, 195, 195, 120, 190, 117, 3, 9.58421
120, 1, wb, attraction, a-b-da, 5, 3, 1, 28, 120, 195, 195, 120, 190, 117, 1, 0.837369
120, 1, wb, attraction, a-b-db, 9, 1, 1, 29, 60, 135, 135, 60, 57, 129, 2, 3.78557
120, 1, wb, attraction, a-b-db, 9, 1, 1, 29, 60, 135, 135, 60, 57, 129, 1, 0.544519
120, 1, wb, attraction, a-b-db, 5, 3, 1, 30, 117, 190, 120, 195, 195, 120, 3, 6.60814
120, 1, wb, attraction, a-b-db, 5, 3, 1, 30, 117, 190, 120, 195, 195, 120, 2, 0.596675
120, 1, wb, attraction, a-b-db, 14, 2, 1, 31, 165, 90, 90, 165, 83, 153, 3, 8.42651
120, 1, wb, attraction, a-b-db, 14, 2, 1, 31, 165, 90, 90, 165, 83, 153, 2, 0.973952
120, 1, wb, filler, NA, 999, 999, 1, 32, 165, 85, 186, 64, 103, 87, 3, 7.22823
120, 1, wb, filler, NA, 999, 999, 1, 32, 165, 85, 186, 64, 103, 87, 1, 0.927955
120, 1, wb, attraction, a-b-da, 14, 2, 1, 33, 165, 90, 153, 83, 90, 165, 1, 7.36012
120, 1, wb, attraction, a-b-da, 14, 2, 1, 33, 165, 90, 153, 83, 90, 165, 3, 0.82249
120, 1, wb, attraction, a-b-da, 14, 3, 1, 34, 181, 111, 195, 120, 120, 195, 1, 3.41152
120, 1, wb, attraction, a-b-da, 14, 3, 1, 34, 181, 111, 195, 120, 120, 195, 2, 0.481016
120, 1, wb, attraction, a-b-da, 5, 2, 1, 35, 161, 88, 90, 165, 165, 90, 3, 7.9476
120, 1, wb, attraction, a-b-da, 5, 2, 1, 35, 161, 88, 90, 165, 165, 90, 2, 0.874392
120, 1, wb, filler, NA, 999, 999, 1, 36, 169, 62, 68, 162, 109, 130, 1, 27.4367
120, 1, wb, filler, NA, 999, 999, 1, 36, 169, 62, 68, 162, 109, 130, 2, 0.690005
120, 1, wb, filler, NA, 999, 999, 1, 37, 60, 192, 93, 78, 95, 120, 2, 6.03647
120, 1, wb, filler, NA, 999, 999, 1, 37, 60, 192, 93, 78, 95, 120, 1, 2.88861
120, 1, wb, catch, NA, 999, 999, 2, 1, 95, 160, 146, 169, 109, 86, 3, 5.09839
120, 1, wb, catch, NA, 999, 999, 2, 1, 95, 160, 146, 169, 109, 86, 2, 0.700113
120, 1, wb, attraction, a-b-da, 14, 1, 2, 2, 125, 56, 60, 135, 135, 60, 1, 4.38169
120, 1, wb, attraction, a-b-da, 14, 1, 2, 2, 125, 56, 60, 135, 135, 60, 2, 4.55636
120, 1, wb, filler, NA, 999, 999, 2, 3, 159, 93, 153, 182, 69, 163, 3, 9.58677
120, 1, wb, filler, NA, 999, 999, 2, 3, 159, 93, 153, 182, 69, 163, 2, 0.655917
120, 1, wb, filler, NA, 999, 999, 2, 4, 85, 65, 132, 188, 135, 173, 1, 4.08353
120, 1, wb, filler, NA, 999, 999, 2, 4, 85, 65, 132, 188, 135, 173, 2, 0.950326
120, 1, wb, attraction, a-b-db, 9, 1, 2, 5, 60, 135, 57, 129, 135, 60, 2, 4.94999
120, 1, wb, attraction, a-b-db, 9, 1, 2, 5, 60, 135, 57, 129, 135, 60, 3, 1.0297
120, 1, wb, attraction, a-b-da, 2, 3, 2, 6, 195, 120, 120, 195, 193, 119, 3, 3.61803
120, 1, wb, attraction, a-b-da, 2, 3, 2, 6, 195, 120, 120, 195, 193, 119, 2, 0.719388
120, 1, wb, attraction, a-b-db, 2, 2, 2, 7, 165, 90, 89, 163, 90, 165, 3, 48.8326
120, 1, wb, attraction, a-b-db, 2, 2, 2, 7, 165, 90, 89, 163, 90, 165, 1, 0.631855
120, 1, wb, attraction, a-b-da, 2, 1, 2, 8, 135, 60, 60, 135, 134, 59, 1, 3.43635
120, 1, wb, attraction, a-b-da, 2, 1, 2, 8, 135, 60, 60, 135, 134, 59, 2, 0.545196
120, 1, wb, attraction, a-b-da, 9, 2, 2, 9, 157, 86, 165, 90, 90, 165, 1, 5.44099
120, 1, wb, attraction, a-b-da, 9, 2, 2, 9, 157, 86, 165, 90, 90, 165, 3, 0.572538
120, 1, wb, filler, NA, 999, 999, 2, 10, 163, 72, 97, 122, 187, 122, 2, 7.84372
120, 1, wb, filler, NA, 999, 999, 2, 10, 163, 72, 97, 122, 187, 122, 3, 0.550536
120, 1, wb, filler, NA, 999, 999, 2, 11, 76, 61, 128, 172, 167, 165, 1, 3.7504
120, 1, wb, filler, NA, 999, 999, 2, 11, 76, 61, 128, 172, 167, 165, 3, 0.918551
120, 1, wb, attraction, a-b-da, 5, 3, 2, 12, 120, 195, 190, 117, 195, 120, 1, 10.9434
120, 1, wb, attraction, a-b-da, 5, 3, 2, 12, 120, 195, 190, 117, 195, 120, 3, 0.66935
120, 1, wb, attraction, a-b-db, 5, 1, 2, 13, 135, 60, 60, 135, 58, 132, 1, 11.6964
120, 1, wb, attraction, a-b-db, 5, 1, 2, 13, 135, 60, 60, 135, 58, 132, 2, 0.687986
120, 1, wb, attraction, a-b-db, 9, 2, 2, 14, 90, 165, 165, 90, 86, 157, 2, 3.28245
120, 1, wb, attraction, a-b-db, 9, 2, 2, 14, 90, 165, 165, 90, 86, 157, 1, 0.749328
120, 1, wb, attraction, a-b-db, 14, 2, 2, 15, 83, 153, 165, 90, 90, 165, 1, 4.92511
120, 1, wb, attraction, a-b-db, 14, 2, 2, 15, 83, 153, 165, 90, 90, 165, 3, 0.613586
120, 1, wb, catch, NA, 999, 999, 2, 16, 180, 135, 92, 103, 93, 162, 2, 2.77868
120, 1, wb, catch, NA, 999, 999, 2, 16, 180, 135, 92, 103, 93, 162, 1, 1.08969
120, 1, wb, attraction, a-b-da, 2, 2, 2, 17, 163, 89, 90, 165, 165, 90, 1, 4.54005
120, 1, wb, attraction, a-b-da, 2, 2, 2, 17, 163, 89, 90, 165, 165, 90, 2, 0.443904
120, 1, wb, catch, NA, 999, 999, 2, 18, 119, 136, 74, 121, 170, 145, 2, 2.9757
120, 1, wb, catch, NA, 999, 999, 2, 18, 119, 136, 74, 121, 170, 145, 3, 0.614756
120, 1, wb, attraction, a-b-da, 9, 1, 2, 19, 129, 57, 135, 60, 60, 135, 1, 2.57175
120, 1, wb, attraction, a-b-da, 9, 1, 2, 19, 129, 57, 135, 60, 60, 135, 3, 1.71565
120, 1, wb, filler, NA, 999, 999, 2, 20, 176, 88, 58, 120, 156, 152, 2, 3.10852
120, 1, wb, filler, NA, 999, 999, 2, 20, 176, 88, 58, 120, 156, 152, 3, 1.67801
120, 1, wb, filler, NA, 999, 999, 2, 21, 126, 167, 57, 156, 92, 64, 3, 2.80854
120, 1, wb, filler, NA, 999, 999, 2, 21, 126, 167, 57, 156, 92, 64, 1, 1.15805
120, 1, wb, attraction, a-b-da, 5, 1, 2, 22, 135, 60, 132, 58, 60, 135, 2, 6.06081
120, 1, wb, attraction, a-b-da, 5, 1, 2, 22, 135, 60, 132, 58, 60, 135, 3, 0.631726
120, 1, wb, filler, NA, 999, 999, 2, 23, 155, 123, 63, 80, 83, 162, 2, 5.81187
120, 1, wb, filler, NA, 999, 999, 2, 23, 155, 123, 63, 80, 83, 162, 1, 0.592709
120, 1, wb, filler, NA, 999, 999, 2, 24, 142, 69, 60, 81, 160, 137, 2, 1.9585
120, 1, wb, filler, NA, 999, 999, 2, 24, 142, 69, 60, 81, 160, 137, 3, 0.590495
120, 1, wb, attraction, a-b-db, 14, 3, 2, 25, 120, 195, 195, 120, 111, 181, 3, 8.98838
120, 1, wb, attraction, a-b-db, 14, 3, 2, 25, 120, 195, 195, 120, 111, 181, 2, 7.19357
120, 1, wb, attraction, a-b-da, 9, 3, 2, 26, 120, 195, 195, 120, 186, 114, 3, 4.66129
120, 1, wb, attraction, a-b-da, 9, 3, 2, 26, 120, 195, 195, 120, 186, 114, 1, 1.75236
120, 1, wb, attraction, a-b-db, 9, 3, 2, 27, 120, 195, 195, 120, 114, 186, 3, 5.7838
120, 1, wb, attraction, a-b-db, 9, 3, 2, 27, 120, 195, 195, 120, 114, 186, 2, 0.685917
120, 1, wb, attraction, a-b-db, 2, 1, 2, 28, 59, 134, 60, 135, 135, 60, 3, 6.69631
120, 1, wb, attraction, a-b-db, 2, 1, 2, 28, 59, 134, 60, 135, 135, 60, 1, 1.60968
120, 1, wb, filler, NA, 999, 999, 2, 29, 159, 64, 72, 136, 181, 140, 1, 3.68638
120, 1, wb, filler, NA, 999, 999, 2, 29, 159, 64, 72, 136, 181, 140, 3, 5.08119
120, 1, wb, attraction, a-b-db, 2, 3, 2, 30, 119, 193, 195, 120, 120, 195, 2, 10.5142
120, 1, wb, attraction, a-b-db, 2, 3, 2, 30, 119, 193, 195, 120, 120, 195, 3, 0.433522
120, 1, wb, attraction, a-b-db, 14, 1, 2, 31, 56, 125, 135, 60, 60, 135, 2, 2.67016
120, 1, wb, attraction, a-b-db, 14, 1, 2, 31, 56, 125, 135, 60, 60, 135, 3, 0.617713
120, 1, wb, attraction, a-b-db, 5, 3, 2, 32, 195, 120, 120, 195, 117, 190, 1, 6.10292
120, 1, wb, attraction, a-b-db, 5, 3, 2, 32, 195, 120, 120, 195, 117, 190, 2, 0.672283
120, 1, wb, attraction, a-b-da, 5, 2, 2, 33, 165, 90, 90, 165, 161, 88, 2, 8.68348
120, 1, wb, attraction, a-b-da, 5, 2, 2, 33, 165, 90, 90, 165, 161, 88, 3, 2.51656
120, 1, wb, attraction, a-b-da, 14, 3, 2, 34, 181, 111, 195, 120, 120, 195, 1, 75.6371
120, 1, wb, attraction, a-b-da, 14, 3, 2, 34, 181, 111, 195, 120, 120, 195, 3, 0.500005
120, 1, wb, attraction, a-b-da, 14, 2, 2, 35, 90, 165, 153, 83, 165, 90, 2, 3.038
120, 1, wb, attraction, a-b-da, 14, 2, 2, 35, 90, 165, 153, 83, 165, 90, 1, 0.514155
120, 1, wb, attraction, a-b-db, 5, 2, 2, 36, 88, 161, 90, 165, 165, 90, 3, 2.48351
120, 1, wb, attraction, a-b-db, 5, 2, 2, 36, 88, 161, 90, 165, 165, 90, 2, 0.486611
120, 1, wb, filler, NA, 999, 999, 2, 37, 144, 90, 193, 104, 56, 80, 3, 1.21696
120, 1, wb, filler, NA, 999, 999, 2, 37, 144, 90, 193, 104, 56, 80, 2, 0.431314
120, 1, wb, filler, NA, 999, 999, 3, 1, 69, 79, 114, 113, 140, 176, 1, 1.39581
120, 1, wb, filler, NA, 999, 999, 3, 1, 69, 79, 114, 113, 140, 176, 3, 0.570615
120, 1, wb, filler, NA, 999, 999, 3, 2, 125, 146, 115, 176, 194, 159, 1, 7.1458
120, 1, wb, filler, NA, 999, 999, 3, 2, 125, 146, 115, 176, 194, 159, 3, 0.448819
120, 1, wb, catch, NA, 999, 999, 3, 3, 155, 160, 104, 91, 157, 98, 2, 2.01264
120, 1, wb, catch, NA, 999, 999, 3, 3, 155, 160, 104, 91, 157, 98, 1, 0.490709
120, 1, wb, attraction, a-b-db, 5, 3, 3, 4, 195, 120, 120, 195, 117, 190, 1, 14.9244
120, 1, wb, attraction, a-b-db, 5, 3, 3, 4, 195, 120, 120, 195, 117, 190, 2, 0.482412
120, 1, wb, attraction, a-b-db, 2, 2, 3, 5, 165, 90, 89, 163, 90, 165, 2, 8.19683
120, 1, wb, attraction, a-b-db, 2, 2, 3, 5, 165, 90, 89, 163, 90, 165, 1, 0.513595
120, 1, wb, attraction, a-b-da, 5, 1, 3, 6, 135, 60, 60, 135, 132, 58, 1, 2.66677
120, 1, wb, attraction, a-b-da, 5, 1, 3, 6, 135, 60, 60, 135, 132, 58, 2, 0.454479
120, 1, wb, attraction, a-b-db, 14, 1, 3, 7, 60, 135, 135, 60, 56, 125, 3, 8.47427
120, 1, wb, attraction, a-b-db, 14, 1, 3, 7, 60, 135, 135, 60, 56, 125, 2, 1.35565
120, 1, wb, attraction, a-b-da, 2, 3, 3, 8, 193, 119, 195, 120, 120, 195, 1, 5.23505
120, 1, wb, attraction, a-b-da, 2, 3, 3, 8, 193, 119, 195, 120, 120, 195, 3, 0.735414
120, 1, wb, catch, NA, 999, 999, 3, 9, 80, 115, 158, 157, 100, 155, 1, 1.3279
120, 1, wb, catch, NA, 999, 999, 3, 9, 80, 115, 158, 157, 100, 155, 2, 0.513427
120, 1, wb, attraction, a-b-da, 14, 3, 3, 10, 181, 111, 120, 195, 195, 120, 1, 4.93846
120, 1, wb, attraction, a-b-da, 14, 3, 3, 10, 181, 111, 120, 195, 195, 120, 2, 1.02696
120, 1, wb, attraction, a-b-db, 5, 1, 3, 11, 135, 60, 58, 132, 60, 135, 2, 8.99125
120, 1, wb, attraction, a-b-db, 5, 1, 3, 11, 135, 60, 58, 132, 60, 135, 1, 0.587678
120, 1, wb, filler, NA, 999, 999, 3, 12, 72, 78, 58, 121, 154, 100, 1, 1.99418
120, 1, wb, filler, NA, 999, 999, 3, 12, 72, 78, 58, 121, 154, 100, 3, 0.440837
120, 1, wb, filler, NA, 999, 999, 3, 13, 139, 156, 181, 169, 183, 115, 3, 2.84465
120, 1, wb, filler, NA, 999, 999, 3, 13, 139, 156, 181, 169, 183, 115, 2, 0.489146
120, 1, wb, attraction, a-b-db, 9, 3, 3, 14, 120, 195, 195, 120, 114, 186, 2, 3.23553
120, 1, wb, attraction, a-b-db, 9, 3, 3, 14, 120, 195, 195, 120, 114, 186, 1, 0.464449
120, 1, wb, filler, NA, 999, 999, 3, 15, 192, 180, 148, 103, 152, 157, 2, 4.32376
120, 1, wb, filler, NA, 999, 999, 3, 15, 192, 180, 148, 103, 152, 157, 1, 0.460234
120, 1, wb, attraction, a-b-da, 14, 1, 3, 16, 135, 60, 60, 135, 125, 56, 3, 2.14343
120, 1, wb, attraction, a-b-da, 14, 1, 3, 16, 135, 60, 60, 135, 125, 56, 2, 0.46392
120, 1, wb, attraction, a-b-db, 14, 2, 3, 17, 83, 153, 90, 165, 165, 90, 1, 4.65128
120, 1, wb, attraction, a-b-db, 14, 2, 3, 17, 83, 153, 90, 165, 165, 90, 3, 2.919
120, 1, wb, attraction, a-b-da, 9, 1, 3, 18, 129, 57, 135, 60, 60, 135, 1, 5.34338
120, 1, wb, attraction, a-b-da, 9, 1, 3, 18, 129, 57, 135, 60, 60, 135, 3, 0.791076
120, 1, wb, filler, NA, 999, 999, 3, 19, 77, 138, 141, 109, 140, 74, 3, 5.82868
120, 1, wb, filler, NA, 999, 999, 3, 19, 77, 138, 141, 109, 140, 74, 2, 0.352794
120, 1, wb, filler, NA, 999, 999, 3, 20, 60, 162, 184, 144, 77, 118, 3, 7.08067
120, 1, wb, filler, NA, 999, 999, 3, 20, 60, 162, 184, 144, 77, 118, 2, 0.31437
120, 1, wb, attraction, a-b-da, 2, 2, 3, 21, 165, 90, 90, 165, 163, 89, 3, 9.75565
120, 1, wb, attraction, a-b-da, 2, 2, 3, 21, 165, 90, 90, 165, 163, 89, 2, 0.449895
120, 1, wb, filler, NA, 999, 999, 3, 22, 69, 152, 93, 140, 140, 150, 1, 4.49363
120, 1, wb, filler, NA, 999, 999, 3, 22, 69, 152, 93, 140, 140, 150, 3, 0.471534
120, 1, wb, attraction, a-b-da, 5, 3, 3, 23, 120, 195, 190, 117, 195, 120, 2, 10.2027
120, 1, wb, attraction, a-b-da, 5, 3, 3, 23, 120, 195, 190, 117, 195, 120, 1, 0.68676
120, 1, wb, attraction, a-b-db, 14, 3, 3, 24, 120, 195, 111, 181, 195, 120, 2, 14.7133
120, 1, wb, attraction, a-b-db, 14, 3, 3, 24, 120, 195, 111, 181, 195, 120, 3, 0.647213
120, 1, wb, filler, NA, 999, 999, 3, 25, 101, 94, 193, 87, 173, 189, 1, 2.22699
120, 1, wb, filler, NA, 999, 999, 3, 25, 101, 94, 193, 87, 173, 189, 3, 0.536281
120, 1, wb, filler, NA, 999, 999, 3, 26, 150, 119, 87, 89, 71, 101, 3, 1.88864
120, 1, wb, filler, NA, 999, 999, 3, 26, 150, 119, 87, 89, 71, 101, 1, 0.859487
120, 1, wb, attraction, a-b-da, 9, 3, 3, 27, 186, 114, 195, 120, 120, 195, 1, 10.7584
120, 1, wb, attraction, a-b-da, 9, 3, 3, 27, 186, 114, 195, 120, 120, 195, 3, 0.531659
120, 1, wb, attraction, a-b-db, 9, 1, 3, 28, 135, 60, 60, 135, 57, 129, 1, 3.30014
120, 1, wb, attraction, a-b-db, 9, 1, 3, 28, 135, 60, 60, 135, 57, 129, 2, 1.18238
120, 1, wb, attraction, a-b-db, 2, 1, 3, 29, 135, 60, 60, 135, 59, 134, 3, 16.2287
120, 1, wb, attraction, a-b-db, 2, 1, 3, 29, 135, 60, 60, 135, 59, 134, 1, 0.669633
120, 1, wb, attraction, a-b-db, 5, 2, 3, 30, 88, 161, 165, 90, 90, 165, 2, 9.92878
120, 1, wb, attraction, a-b-db, 5, 2, 3, 30, 88, 161, 165, 90, 90, 165, 3, 0.631531
120, 1, wb, attraction, a-b-da, 2, 1, 3, 31, 60, 135, 135, 60, 134, 59, 2, 2.23585
120, 1, wb, attraction, a-b-da, 2, 1, 3, 31, 60, 135, 135, 60, 134, 59, 1, 0.897188
120, 1, wb, catch, NA, 999, 999, 3, 32, 95, 160, 170, 145, 88, 107, 3, 2.49123
120, 1, wb, catch, NA, 999, 999, 3, 32, 95, 160, 170, 145, 88, 107, 2, 0.725389
120, 1, wb, attraction, a-b-da, 14, 2, 3, 33, 165, 90, 90, 165, 153, 83, 3, 3.52592
120, 1, wb, attraction, a-b-da, 14, 2, 3, 33, 165, 90, 90, 165, 153, 83, 2, 0.638543
120, 1, wb, attraction, a-b-db, 9, 2, 3, 34, 165, 90, 90, 165, 86, 157, 1, 5.21907
120, 1, wb, attraction, a-b-db, 9, 2, 3, 34, 165, 90, 90, 165, 86, 157, 2, 0.687985
120, 1, wb, attraction, a-b-da, 5, 2, 3, 35, 161, 88, 165, 90, 90, 165, 1, 7.34646
120, 1, wb, attraction, a-b-da, 5, 2, 3, 35, 161, 88, 165, 90, 90, 165, 3, 0.457397
120, 1, wb, attraction, a-b-db, 2, 3, 3, 36, 195, 120, 120, 195, 119, 193, 1, 4.90053
120, 1, wb, attraction, a-b-db, 2, 3, 3, 36, 195, 120, 120, 195, 119, 193, 2, 3.15032
120, 1, wb, attraction, a-b-da, 9, 2, 3, 37, 90, 165, 165, 90, 157, 86, 3, 10.3252
120, 1, wb, attraction, a-b-da, 9, 2, 3, 37, 90, 165, 165, 90, 157, 86, 1, 0.364094
120, 1, wb, attraction, a-b-da, 5, 3, 4, 1, 195, 120, 190, 117, 120, 195, 1, 12.9152
120, 1, wb, attraction, a-b-da, 5, 3, 4, 1, 195, 120, 190, 117, 120, 195, 3, 0.417775
120, 1, wb, filler, NA, 999, 999, 4, 2, 122, 173, 88, 183, 64, 80, 3, 2.39907
120, 1, wb, filler, NA, 999, 999, 4, 2, 122, 173, 88, 183, 64, 80, 1, 0.469658
120, 1, wb, attraction, a-b-da, 14, 2, 4, 3, 90, 165, 165, 90, 153, 83, 3, 8.02476
120, 1, wb, attraction, a-b-da, 14, 2, 4, 3, 90, 165, 165, 90, 153, 83, 1, 0.900087
120, 1, wb, attraction, a-b-da, 14, 3, 4, 4, 120, 195, 195, 120, 181, 111, 3, 9.85395
120, 1, wb, attraction, a-b-da, 14, 3, 4, 4, 120, 195, 195, 120, 181, 111, 1, 0.432077
120, 1, wb, attraction, a-b-da, 2, 1, 4, 5, 60, 135, 134, 59, 135, 60, 1, 4.48455
120, 1, wb, attraction, a-b-da, 2, 1, 4, 5, 60, 135, 134, 59, 135, 60, 2, 2.89511
120, 1, wb, attraction, a-b-db, 5, 1, 4, 6, 58, 132, 60, 135, 135, 60, 3, 4.10416
120, 1, wb, attraction, a-b-db, 5, 1, 4, 6, 58, 132, 60, 135, 135, 60, 2, 0.890115
120, 1, wb, attraction, a-b-da, 5, 1, 4, 7, 60, 135, 135, 60, 132, 58, 2, 22.7077
120, 1, wb, attraction, a-b-da, 5, 1, 4, 7, 60, 135, 135, 60, 132, 58, 1, 0.544047
120, 1, wb, filler, NA, 999, 999, 4, 8, 135, 131, 96, 115, 91, 106, 3, 2.44775
120, 1, wb, filler, NA, 999, 999, 4, 8, 135, 131, 96, 115, 91, 106, 1, 0.436411
120, 1, wb, attraction, a-b-da, 9, 2, 4, 9, 90, 165, 157, 86, 165, 90, 3, 5.53671
120, 1, wb, attraction, a-b-da, 9, 2, 4, 9, 90, 165, 157, 86, 165, 90, 1, 1.07295
120, 1, wb, attraction, a-b-da, 2, 2, 4, 10, 90, 165, 165, 90, 163, 89, 2, 9.46795
120, 1, wb, attraction, a-b-da, 2, 2, 4, 10, 90, 165, 165, 90, 163, 89, 1, 0.389649
120, 1, wb, attraction, a-b-da, 2, 3, 4, 11, 120, 195, 195, 120, 193, 119, 3, 4.79547
120, 1, wb, attraction, a-b-da, 2, 3, 4, 11, 120, 195, 195, 120, 193, 119, 1, 0.561926
120, 1, wb, attraction, a-b-db, 2, 2, 4, 12, 165, 90, 90, 165, 89, 163, 1, 8.20105
120, 1, wb, attraction, a-b-db, 2, 2, 4, 12, 165, 90, 90, 165, 89, 163, 2, 0.677758
120, 1, wb, attraction, a-b-db, 5, 2, 4, 13, 90, 165, 88, 161, 165, 90, 1, 8.34425
120, 1, wb, attraction, a-b-db, 5, 2, 4, 13, 90, 165, 88, 161, 165, 90, 3, 2.55092
120, 1, wb, filler, NA, 999, 999, 4, 14, 104, 175, 118, 170, 83, 185, 3, 10.3421
120, 1, wb, filler, NA, 999, 999, 4, 14, 104, 175, 118, 170, 83, 185, 2, 0.644066
120, 1, wb, catch, NA, 999, 999, 4, 15, 76, 119, 182, 133, 129, 126, 1, 1.89578
120, 1, wb, catch, NA, 999, 999, 4, 15, 76, 119, 182, 133, 129, 126, 2, 0.538503
120, 1, wb, attraction, a-b-db, 14, 3, 4, 16, 111, 181, 120, 195, 195, 120, 1, 6.68308
120, 1, wb, attraction, a-b-db, 14, 3, 4, 16, 111, 181, 120, 195, 195, 120, 3, 0.764971
120, 1, wb, attraction, a-b-db, 9, 3, 4, 17, 120, 195, 195, 120, 114, 186, 3, 5.33997
120, 1, wb, attraction, a-b-db, 9, 3, 4, 17, 120, 195, 195, 120, 114, 186, 2, 0.401101
120, 1, wb, filler, NA, 999, 999, 4, 18, 186, 75, 161, 115, 195, 81, 1, 8.98527
120, 1, wb, filler, NA, 999, 999, 4, 18, 186, 75, 161, 115, 195, 81, 2, 0.302513
120, 1, wb, filler, NA, 999, 999, 4, 19, 96, 120, 57, 106, 58, 57, 3, 1.52033
120, 1, wb, filler, NA, 999, 999, 4, 19, 96, 120, 57, 106, 58, 57, 1, 0.394504
120, 1, wb, attraction, a-b-db, 9, 2, 4, 20, 165, 90, 86, 157, 90, 165, 2, 4.48849
120, 1, wb, attraction, a-b-db, 9, 2, 4, 20, 165, 90, 86, 157, 90, 165, 1, 0.354992
120, 1, wb, attraction, a-b-db, 14, 1, 4, 21, 60, 135, 135, 60, 56, 125, 2, 3.5708
120, 1, wb, attraction, a-b-db, 14, 1, 4, 21, 60, 135, 135, 60, 56, 125, 1, 2.36247
120, 1, wb, catch, NA, 999, 999, 4, 22, 141, 174, 61, 134, 160, 95, 2, 3.12875
120, 1, wb, catch, NA, 999, 999, 4, 22, 141, 174, 61, 134, 160, 95, 1, 0.425794
120, 1, wb, attraction, a-b-da, 5, 2, 4, 23, 161, 88, 90, 165, 165, 90, 1, 3.48634
120, 1, wb, attraction, a-b-da, 5, 2, 4, 23, 161, 88, 90, 165, 165, 90, 2, 0.545208
120, 1, wb, attraction, a-b-db, 14, 2, 4, 24, 165, 90, 90, 165, 83, 153, 3, 4.58497
120, 1, wb, attraction, a-b-db, 14, 2, 4, 24, 165, 90, 90, 165, 83, 153, 1, 0.727542
120, 1, wb, attraction, a-b-db, 2, 1, 4, 25, 59, 134, 135, 60, 60, 135, 2, 6.18399
120, 1, wb, attraction, a-b-db, 2, 1, 4, 25, 59, 134, 135, 60, 60, 135, 3, 0.950006
120, 1, wb, attraction, a-b-db, 2, 3, 4, 26, 119, 193, 120, 195, 195, 120, 1, 10.3097
120, 1, wb, attraction, a-b-db, 2, 3, 4, 26, 119, 193, 120, 195, 195, 120, 3, 0.668966
120, 1, wb, filler, NA, 999, 999, 4, 27, 135, 102, 131, 164, 129, 111, 1, 3.4001
120, 1, wb, filler, NA, 999, 999, 4, 27, 135, 102, 131, 164, 129, 111, 2, 0.838394
120, 1, wb, filler, NA, 999, 999, 4, 28, 62, 107, 90, 128, 74, 194, 1, 4.73069
120, 1, wb, filler, NA, 999, 999, 4, 28, 62, 107, 90, 128, 74, 194, 3, 0.523077
120, 1, wb, attraction, a-b-da, 9, 1, 4, 29, 60, 135, 129, 57, 135, 60, 2, 2.66832
120, 1, wb, attraction, a-b-da, 9, 1, 4, 29, 60, 135, 129, 57, 135, 60, 3, 1.00826
120, 1, wb, filler, NA, 999, 999, 4, 30, 155, 76, 171, 64, 89, 117, 3, 7.84504
120, 1, wb, filler, NA, 999, 999, 4, 30, 155, 76, 171, 64, 89, 117, 1, 3.50401
120, 1, wb, catch, NA, 999, 999, 4, 31, 134, 121, 160, 155, 98, 97, 3, 2.78489
120, 1, wb, catch, NA, 999, 999, 4, 31, 134, 121, 160, 155, 98, 97, 2, 0.703865
120, 1, wb, filler, NA, 999, 999, 4, 32, 138, 119, 103, 121, 88, 134, 2, 16.5536
120, 1, wb, filler, NA, 999, 999, 4, 32, 138, 119, 103, 121, 88, 134, 1, 0.34974
120, 1, wb, attraction, a-b-db, 9, 1, 4, 33, 57, 129, 135, 60, 60, 135, 2, 10.1097
120, 1, wb, attraction, a-b-db, 9, 1, 4, 33, 57, 129, 135, 60, 60, 135, 3, 0.485134
120, 1, wb, attraction, a-b-da, 14, 1, 4, 34, 135, 60, 60, 135, 125, 56, 3, 12.7357
120, 1, wb, attraction, a-b-da, 14, 1, 4, 34, 135, 60, 60, 135, 125, 56, 2, 0.469457
120, 1, wb, filler, NA, 999, 999, 4, 35, 74, 165, 83, 185, 62, 151, 3, 4.08858
120, 1, wb, filler, NA, 999, 999, 4, 35, 74, 165, 83, 185, 62, 151, 2, 0.61932
120, 1, wb, attraction, a-b-da, 9, 3, 4, 36, 186, 114, 195, 120, 120, 195, 1, 5.1603
120, 1, wb, attraction, a-b-da, 9, 3, 4, 36, 186, 114, 195, 120, 120, 195, 3, 0.455341
120, 1, wb, attraction, a-b-db, 5, 3, 4, 37, 195, 120, 117, 190, 120, 195, 2, 9.77114
120, 1, wb, attraction, a-b-db, 5, 3, 4, 37, 195, 120, 117, 190, 120, 195, 1, 0.400815
120, 1, wb, attraction, a-b-db, 9, 2, 5, 1, 90, 165, 165, 90, 86, 157, 3, 15.7413
120, 1, wb, attraction, a-b-db, 9, 2, 5, 1, 90, 165, 165, 90, 86, 157, 2, 0.826421
120, 1, wb, filler, NA, 999, 999, 5, 2, 69, 191, 67, 166, 64, 56, 3, 3.06274
120, 1, wb, filler, NA, 999, 999, 5, 2, 69, 191, 67, 166, 64, 56, 1, 0.722339
120, 1, wb, attraction, a-b-da, 9, 2, 5, 3, 165, 90, 90, 165, 157, 86, 3, 3.3235
120, 1, wb, attraction, a-b-da, 9, 2, 5, 3, 165, 90, 90, 165, 157, 86, 2, 0.580269
120, 1, wb, attraction, a-b-da, 5, 2, 5, 4, 90, 165, 165, 90, 161, 88, 1, 10.8427
120, 1, wb, attraction, a-b-da, 5, 2, 5, 4, 90, 165, 165, 90, 161, 88, 2, 1.22075
120, 1, wb, catch, NA, 999, 999, 5, 5, 61, 134, 193, 122, 112, 143, 1, 3.70543
120, 1, wb, catch, NA, 999, 999, 5, 5, 61, 134, 193, 122, 112, 143, 2, 0.779668
120, 1, wb, filler, NA, 999, 999, 5, 6, 130, 123, 58, 76, 168, 180, 2, 1.43414
120, 1, wb, filler, NA, 999, 999, 5, 6, 130, 123, 58, 76, 168, 180, 3, 0.343596
120, 1, wb, attraction, a-b-da, 14, 3, 5, 7, 195, 120, 181, 111, 120, 195, 2, 6.32741
120, 1, wb, attraction, a-b-da, 14, 3, 5, 7, 195, 120, 181, 111, 120, 195, 3, 0.359604
120, 1, wb, filler, NA, 999, 999, 5, 8, 145, 85, 68, 66, 99, 108, 2, 8.27857
120, 1, wb, filler, NA, 999, 999, 5, 8, 145, 85, 68, 66, 99, 108, 1, 0.312067
120, 1, wb, attraction, a-b-db, 14, 1, 5, 9, 60, 135, 56, 125, 135, 60, 2, 3.78519
120, 1, wb, attraction, a-b-db, 14, 1, 5, 9, 60, 135, 56, 125, 135, 60, 3, 0.655947
120, 1, wb, filler, NA, 999, 999, 5, 10, 102, 185, 172, 120, 63, 168, 3, 10.3158
120, 1, wb, filler, NA, 999, 999, 5, 10, 102, 185, 172, 120, 63, 168, 2, 0.411077
120, 1, wb, attraction, a-b-db, 14, 3, 5, 11, 120, 195, 111, 181, 195, 120, 2, 12.0082
120, 1, wb, attraction, a-b-db, 14, 3, 5, 11, 120, 195, 111, 181, 195, 120, 3, 0.515832
120, 1, wb, attraction, a-b-db, 9, 3, 5, 12, 195, 120, 120, 195, 114, 186, 3, 4.10892
120, 1, wb, attraction, a-b-db, 9, 3, 5, 12, 195, 120, 120, 195, 114, 186, 1, 0.374218
120, 1, wb, attraction, a-b-da, 5, 3, 5, 13, 120, 195, 195, 120, 190, 117, 3, 23.8288
120, 1, wb, attraction, a-b-da, 5, 3, 5, 13, 120, 195, 195, 120, 190, 117, 1, 0.419183
120, 1, wb, attraction, a-b-db, 5, 1, 5, 14, 58, 132, 135, 60, 60, 135, 2, 2.64043
120, 1, wb, attraction, a-b-db, 5, 1, 5, 14, 58, 132, 135, 60, 60, 135, 3, 0.564974
120, 1, wb, attraction, a-b-db, 9, 1, 5, 15, 60, 135, 57, 129, 135, 60, 2, 3.45213
120, 1, wb, attraction, a-b-db, 9, 1, 5, 15, 60, 135, 57, 129, 135, 60, 3, 0.592314
120, 1, wb, filler, NA, 999, 999, 5, 16, 175, 82, 95, 184, 188, 57, 3, 6.9421
120, 1, wb, filler, NA, 999, 999, 5, 16, 175, 82, 95, 184, 188, 57, 2, 0.597189
120, 1, wb, attraction, a-b-da, 5, 1, 5, 17, 135, 60, 132, 58, 60, 135, 2, 2.89897
120, 1, wb, attraction, a-b-da, 5, 1, 5, 17, 135, 60, 132, 58, 60, 135, 3, 0.541298
120, 1, wb, attraction, a-b-da, 2, 1, 5, 18, 135, 60, 134, 59, 60, 135, 1, 2.59704
120, 1, wb, attraction, a-b-da, 2, 1, 5, 18, 135, 60, 134, 59, 60, 135, 3, 0.739588
120, 1, wb, attraction, a-b-da, 14, 1, 5, 19, 125, 56, 60, 135, 135, 60, 1, 3.0119
120, 1, wb, attraction, a-b-da, 14, 1, 5, 19, 125, 56, 60, 135, 135, 60, 2, 2.96967
120, 1, wb, filler, NA, 999, 999, 5, 20, 178, 191, 194, 154, 108, 166, 3, 5.16801
120, 1, wb, filler, NA, 999, 999, 5, 20, 178, 191, 194, 154, 108, 166, 1, 0.438936
120, 1, wb, catch, NA, 999, 999, 5, 21, 187, 128, 108, 87, 120, 135, 2, 2.72354
120, 1, wb, catch, NA, 999, 999, 5, 21, 187, 128, 108, 87, 120, 135, 1, 0.516557
120, 1, wb, attraction, a-b-db, 2, 3, 5, 22, 119, 193, 195, 120, 120, 195, 2, 3.90168
120, 1, wb, attraction, a-b-db, 2, 3, 5, 22, 119, 193, 195, 120, 120, 195, 3, 0.703887
120, 1, wb, attraction, a-b-db, 5, 2, 5, 23, 88, 161, 90, 165, 165, 90, 3, 8.87347
120, 1, wb, attraction, a-b-db, 5, 2, 5, 23, 88, 161, 90, 165, 165, 90, 2, 0.418702
120, 1, wb, attraction, a-b-db, 5, 3, 5, 24, 117, 190, 120, 195, 195, 120, 1, 8.78378
120, 1, wb, attraction, a-b-db, 5, 3, 5, 24, 117, 190, 120, 195, 195, 120, 3, 0.421069
120, 1, wb, filler, NA, 999, 999, 5, 25, 58, 141, 135, 73, 143, 126, 1, 3.18631
120, 1, wb, filler, NA, 999, 999, 5, 25, 58, 141, 135, 73, 143, 126, 3, 0.425213
120, 1, wb, attraction, a-b-da, 2, 3, 5, 26, 195, 120, 193, 119, 120, 195, 1, 6.36574
120, 1, wb, attraction, a-b-da, 2, 3, 5, 26, 195, 120, 193, 119, 120, 195, 3, 0.460389
120, 1, wb, attraction, a-b-db, 2, 1, 5, 27, 59, 134, 135, 60, 60, 135, 2, 2.84759
120, 1, wb, attraction, a-b-db, 2, 1, 5, 27, 59, 134, 135, 60, 60, 135, 3, 0.587913
120, 1, wb, attraction, a-b-db, 14, 2, 5, 28, 83, 153, 165, 90, 90, 165, 1, 6.2423
120, 1, wb, attraction, a-b-db, 14, 2, 5, 28, 83, 153, 165, 90, 90, 165, 3, 0.44569
120, 1, wb, attraction, a-b-da, 2, 2, 5, 29, 90, 165, 163, 89, 165, 90, 2, 4.76148
120, 1, wb, attraction, a-b-da, 2, 2, 5, 29, 90, 165, 163, 89, 165, 90, 1, 0.576637
120, 1, wb, attraction, a-b-da, 14, 2, 5, 30, 165, 90, 153, 83, 90, 165, 2, 2.64723
120, 1, wb, attraction, a-b-da, 14, 2, 5, 30, 165, 90, 153, 83, 90, 165, 3, 0.323637
120, 1, wb, attraction, a-b-db, 2, 2, 5, 31, 90, 165, 165, 90, 89, 163, 2, 3.29207
120, 1, wb, attraction, a-b-db, 2, 2, 5, 31, 90, 165, 165, 90, 89, 163, 3, 0.950354
120, 1, wb, filler, NA, 999, 999, 5, 32, 98, 120, 180, 160, 133, 101, 1, 10.31
120, 1, wb, filler, NA, 999, 999, 5, 32, 98, 120, 180, 160, 133, 101, 2, 0.445415
120, 1, wb, attraction, a-b-da, 9, 1, 5, 33, 135, 60, 129, 57, 60, 135, 2, 2.7932
120, 1, wb, attraction, a-b-da, 9, 1, 5, 33, 135, 60, 129, 57, 60, 135, 3, 0.639569
120, 1, wb, attraction, a-b-da, 9, 3, 5, 34, 120, 195, 195, 120, 186, 114, 3, 4.69992
120, 1, wb, attraction, a-b-da, 9, 3, 5, 34, 120, 195, 195, 120, 186, 114, 1, 0.661798
120, 1, wb, catch, NA, 999, 999, 5, 35, 184, 131, 87, 108, 99, 156, 2, 2.23296
120, 1, wb, catch, NA, 999, 999, 5, 35, 184, 131, 87, 108, 99, 156, 1, 0.518288
120, 1, wb, filler, NA, 999, 999, 5, 36, 168, 117, 180, 62, 68, 74, 3, 4.02332
120, 1, wb, filler, NA, 999, 999, 5, 36, 168, 117, 180, 62, 68, 74, 1, 0.539987
120, 1, wb, filler, NA, 999, 999, 5, 37, 138, 149, 120, 147, 188, 123, 1, 7.83595
120, 1, wb, filler, NA, 999, 999, 5, 37, 138, 149, 120, 147, 188, 123, 3, 0.423306
120, 1, wb, filler, NA, 999, 999, 6, 1, 69, 143, 148, 79, 142, 111, 1, 6.56379
120, 1, wb, filler, NA, 999, 999, 6, 1, 69, 143, 148, 79, 142, 111, 3, 0.738419
120, 1, wb, attraction, a-b-db, 2, 1, 6, 2, 60, 135, 135, 60, 59, 134, 2, 7.02684
120, 1, wb, attraction, a-b-db, 2, 1, 6, 2, 60, 135, 135, 60, 59, 134, 3, 0.566615
120, 1, wb, catch, NA, 999, 999, 6, 3, 90, 165, 102, 93, 166, 149, 2, 3.44559
120, 1, wb, catch, NA, 999, 999, 6, 3, 90, 165, 102, 93, 166, 149, 3, 0.777966
120, 1, wb, attraction, a-b-da, 2, 3, 6, 4, 120, 195, 195, 120, 193, 119, 3, 10.9442
120, 1, wb, attraction, a-b-da, 2, 3, 6, 4, 120, 195, 195, 120, 193, 119, 1, 0.470176
120, 1, wb, attraction, a-b-db, 14, 2, 6, 5, 165, 90, 90, 165, 83, 153, 1, 6.24924
120, 1, wb, attraction, a-b-db, 14, 2, 6, 5, 165, 90, 90, 165, 83, 153, 2, 0.508582
120, 1, wb, filler, NA, 999, 999, 6, 6, 93, 181, 154, 90, 185, 114, 2, 2.47774
120, 1, wb, filler, NA, 999, 999, 6, 6, 93, 181, 154, 90, 185, 114, 3, 0.496942
120, 1, wb, attraction, a-b-da, 14, 1, 6, 7, 135, 60, 125, 56, 60, 135, 2, 2.44281
120, 1, wb, attraction, a-b-da, 14, 1, 6, 7, 135, 60, 125, 56, 60, 135, 3, 3.66344
120, 1, wb, attraction, a-b-da, 9, 2, 6, 8, 157, 86, 90, 165, 165, 90, 1, 7.10168
120, 1, wb, attraction, a-b-da, 9, 2, 6, 8, 157, 86, 90, 165, 165, 90, 2, 0.562481
120, 1, wb, filler, NA, 999, 999, 6, 9, 56, 147, 100, 132, 152, 105, 1, 4.87368
120, 1, wb, filler, NA, 999, 999, 6, 9, 56, 147, 100, 132, 152, 105, 3, 0.892009
120, 1, wb, filler, NA, 999, 999, 6, 10, 121, 102, 80, 185, 82, 165, 1, 9.42171
120, 1, wb, filler, NA, 999, 999, 6, 10, 121, 102, 80, 185, 82, 165, 2, 1.05738
120, 1, wb, attraction, a-b-db, 2, 3, 6, 11, 195, 120, 120, 195, 119, 193, 1, 5.26029
120, 1, wb, attraction, a-b-db, 2, 3, 6, 11, 195, 120, 120, 195, 119, 193, 2, 0.735274
120, 1, wb, attraction, a-b-da, 5, 3, 6, 12, 190, 117, 195, 120, 120, 195, 1, 9.79958
120, 1, wb, attraction, a-b-da, 5, 3, 6, 12, 190, 117, 195, 120, 120, 195, 3, 0.451984
120, 1, wb, filler, NA, 999, 999, 6, 13, 140, 188, 83, 151, 141, 72, 3, 9.5918
120, 1, wb, filler, NA, 999, 999, 6, 13, 140, 188, 83, 151, 141, 72, 1, 0.324064
120, 1, wb, attraction, a-b-da, 5, 1, 6, 14, 60, 135, 132, 58, 135, 60, 1, 4.18056
120, 1, wb, attraction, a-b-da, 5, 1, 6, 14, 60, 135, 132, 58, 135, 60, 3, 1.21116
120, 1, wb, filler, NA, 999, 999, 6, 15, 92, 81, 138, 153, 166, 67, 1, 5.92017
120, 1, wb, filler, NA, 999, 999, 6, 15, 92, 81, 138, 153, 166, 67, 2, 2.63295
120, 1, wb, attraction, a-b-da, 5, 2, 6, 16, 165, 90, 161, 88, 90, 165, 1, 2.18071
120, 1, wb, attraction, a-b-da, 5, 2, 6, 16, 165, 90, 161, 88, 90, 165, 3, 0.57204
120, 1, wb, attraction, a-b-db, 2, 2, 6, 17, 90, 165, 165, 90, 89, 163, 2, 2.4512
120, 1, wb, attraction, a-b-db, 2, 2, 6, 17, 90, 165, 165, 90, 89, 163, 3, 1.2797
120, 1, wb, attraction, a-b-db, 14, 3, 6, 18, 120, 195, 195, 120, 111, 181, 2, 4.92979
120, 1, wb, attraction, a-b-db, 14, 3, 6, 18, 120, 195, 195, 120, 111, 181, 1, 0.394372
120, 1, wb, attraction, a-b-da, 14, 2, 6, 19, 90, 165, 153, 83, 165, 90, 2, 3.87208
120, 1, wb, attraction, a-b-da, 14, 2, 6, 19, 90, 165, 153, 83, 165, 90, 1, 0.466782
120, 1, wb, catch, NA, 999, 999, 6, 20, 76, 119, 130, 125, 137, 178, 1, 3.59808
120, 1, wb, catch, NA, 999, 999, 6, 20, 76, 119, 130, 125, 137, 178, 3, 0.476232
120, 1, wb, filler, NA, 999, 999, 6, 21, 128, 144, 96, 167, 161, 165, 2, 8.27058
120, 1, wb, filler, NA, 999, 999, 6, 21, 128, 144, 96, 167, 161, 165, 3, 0.368646
120, 1, wb, attraction, a-b-db, 9, 1, 6, 22, 60, 135, 135, 60, 57, 129, 3, 5.37593
120, 1, wb, attraction, a-b-db, 9, 1, 6, 22, 60, 135, 135, 60, 57, 129, 2, 0.310027
120, 1, wb, filler, NA, 999, 999, 6, 23, 67, 93, 129, 70, 169, 80, 1, 3.73549
120, 1, wb, filler, NA, 999, 999, 6, 23, 67, 93, 129, 70, 169, 80, 3, 0.600129
120, 1, wb, attraction, a-b-db, 9, 3, 6, 24, 195, 120, 114, 186, 120, 195, 2, 2.4458
120, 1, wb, attraction, a-b-db, 9, 3, 6, 24, 195, 120, 114, 186, 120, 195, 1, 0.322358
120, 1, wb, attraction, a-b-da, 9, 1, 6, 25, 129, 57, 135, 60, 60, 135, 1, 3.43565
120, 1, wb, attraction, a-b-da, 9, 1, 6, 25, 129, 57, 135, 60, 60, 135, 3, 0.384397
120, 1, wb, attraction, a-b-da, 14, 3, 6, 26, 195, 120, 181, 111, 120, 195, 3, 4.62309
120, 1, wb, attraction, a-b-da, 14, 3, 6, 26, 195, 120, 181, 111, 120, 195, 1, 4.70748
120, 1, wb, attraction, a-b-db, 5, 2, 6, 27, 90, 165, 88, 161, 165, 90, 3, 6.51599
120, 1, wb, attraction, a-b-db, 5, 2, 6, 27, 90, 165, 88, 161, 165, 90, 2, 0.564563
120, 1, wb, attraction, a-b-db, 9, 2, 6, 28, 86, 157, 165, 90, 90, 165, 1, 5.25203
120, 1, wb, attraction, a-b-db, 9, 2, 6, 28, 86, 157, 165, 90, 90, 165, 2, 0.575342
120, 1, wb, attraction, a-b-db, 5, 3, 6, 29, 120, 195, 117, 190, 195, 120, 1, 16.2298
120, 1, wb, attraction, a-b-db, 5, 3, 6, 29, 120, 195, 117, 190, 195, 120, 3, 0.638644
120, 1, wb, attraction, a-b-db, 14, 1, 6, 30, 135, 60, 60, 135, 56, 125, 3, 2.33909
120, 1, wb, attraction, a-b-db, 14, 1, 6, 30, 135, 60, 60, 135, 56, 125, 1, 0.48374
120, 1, wb, attraction, a-b-db, 5, 1, 6, 31, 60, 135, 58, 132, 135, 60, 2, 6.14215
120, 1, wb, attraction, a-b-db, 5, 1, 6, 31, 60, 135, 58, 132, 135, 60, 3, 0.565532
120, 1, wb, attraction, a-b-da, 9, 3, 6, 32, 186, 114, 120, 195, 195, 120, 1, 2.58077
120, 1, wb, attraction, a-b-da, 9, 3, 6, 32, 186, 114, 120, 195, 195, 120, 2, 0.33174
120, 1, wb, filler, NA, 999, 999, 6, 33, 155, 86, 150, 148, 137, 136, 1, 6.91623
120, 1, wb, filler, NA, 999, 999, 6, 33, 155, 86, 150, 148, 137, 136, 2, 0.348699
120, 1, wb, attraction, a-b-da, 2, 2, 6, 34, 165, 90, 163, 89, 90, 165, 3, 8.48476
120, 1, wb, attraction, a-b-da, 2, 2, 6, 34, 165, 90, 163, 89, 90, 165, 1, 2.25391
120, 1, wb, catch, NA, 999, 999, 6, 35, 138, 117, 155, 160, 61, 134, 3, 2.84112
120, 1, wb, catch, NA, 999, 999, 6, 35, 138, 117, 155, 160, 61, 134, 2, 0.46955
120, 1, wb, filler, NA, 999, 999, 6, 36, 154, 77, 137, 107, 145, 102, 1, 5.15274
120, 1, wb, filler, NA, 999, 999, 6, 36, 154, 77, 137, 107, 145, 102, 2, 0.432364
120, 1, wb, attraction, a-b-da, 2, 1, 6, 37, 60, 135, 134, 59, 135, 60, 1, 3.13298
120, 1, wb, attraction, a-b-da, 2, 1, 6, 37, 60, 135, 134, 59, 135, 60, 2, 0.42989
120, 1, wb, attraction, a-b-da, 14, 1, 7, 1, 125, 56, 60, 135, 135, 60, 1, 1.45837
120, 1, wb, attraction, a-b-da, 14, 1, 7, 1, 125, 56, 60, 135, 135, 60, 2, 0.33464
120, 1, wb, attraction, a-b-db, 2, 1, 7, 2, 60, 135, 59, 134, 135, 60, 1, 7.88697
120, 1, wb, attraction, a-b-db, 2, 1, 7, 2, 60, 135, 59, 134, 135, 60, 3, 1.0165
120, 1, wb, attraction, a-b-db, 2, 3, 7, 3, 120, 195, 195, 120, 119, 193, 2, 2.57358
120, 1, wb, attraction, a-b-db, 2, 3, 7, 3, 120, 195, 195, 120, 119, 193, 3, 0.532637
120, 1, wb, attraction, a-b-db, 9, 2, 7, 4, 86, 157, 90, 165, 165, 90, 3, 2.78113
120, 1, wb, attraction, a-b-db, 9, 2, 7, 4, 86, 157, 90, 165, 165, 90, 2, 0.308181
120, 1, wb, attraction, a-b-db, 14, 1, 7, 5, 60, 135, 135, 60, 56, 125, 2, 4.96551
120, 1, wb, attraction, a-b-db, 14, 1, 7, 5, 60, 135, 135, 60, 56, 125, 1, 0.532451
120, 1, wb, catch, NA, 999, 999, 7, 6, 118, 137, 74, 121, 128, 187, 2, 1.8929
120, 1, wb, catch, NA, 999, 999, 7, 6, 118, 137, 74, 121, 128, 187, 3, 0.407669
120, 1, wb, attraction, a-b-da, 5, 1, 7, 7, 60, 135, 135, 60, 132, 58, 2, 4.12473
120, 1, wb, attraction, a-b-da, 5, 1, 7, 7, 60, 135, 135, 60, 132, 58, 1, 0.285494
120, 1, wb, catch, NA, 999, 999, 7, 8, 154, 101, 134, 61, 127, 188, 2, 2.2481
120, 1, wb, catch, NA, 999, 999, 7, 8, 154, 101, 134, 61, 127, 188, 3, 0.308505
120, 1, wb, attraction, a-b-da, 5, 3, 7, 9, 190, 117, 195, 120, 120, 195, 1, 6.04578
120, 1, wb, attraction, a-b-da, 5, 3, 7, 9, 190, 117, 195, 120, 120, 195, 3, 0.385166
120, 1, wb, attraction, a-b-da, 9, 2, 7, 10, 165, 90, 157, 86, 90, 165, 1, 5.11166
120, 1, wb, attraction, a-b-da, 9, 2, 7, 10, 165, 90, 157, 86, 90, 165, 3, 0.400651
120, 1, wb, attraction, a-b-db, 9, 3, 7, 11, 195, 120, 114, 186, 120, 195, 1, 3.03866
120, 1, wb, attraction, a-b-db, 9, 3, 7, 11, 195, 120, 114, 186, 120, 195, 3, 2.81886
120, 1, wb, filler, NA, 999, 999, 7, 12, 86, 116, 137, 95, 87, 187, 1, 2.72732
120, 1, wb, filler, NA, 999, 999, 7, 12, 86, 116, 137, 95, 87, 187, 3, 0.544417
120, 1, wb, attraction, a-b-da, 5, 2, 7, 13, 165, 90, 90, 165, 161, 88, 3, 2.05618
120, 1, wb, attraction, a-b-da, 5, 2, 7, 13, 165, 90, 90, 165, 161, 88, 2, 0.604189
120, 1, wb, filler, NA, 999, 999, 7, 14, 129, 116, 84, 133, 175, 61, 3, 16.5459
120, 1, wb, filler, NA, 999, 999, 7, 14, 129, 116, 84, 133, 175, 61, 2, 0.34998
120, 1, wb, attraction, a-b-da, 2, 3, 7, 15, 195, 120, 193, 119, 120, 195, 2, 4.45396
120, 1, wb, attraction, a-b-da, 2, 3, 7, 15, 195, 120, 193, 119, 120, 195, 3, 0.377779
120, 1, wb, attraction, a-b-da, 9, 1, 7, 16, 135, 60, 60, 135, 129, 57, 3, 3.00029
120, 1, wb, attraction, a-b-da, 9, 1, 7, 16, 135, 60, 60, 135, 129, 57, 2, 0.302738
120, 1, wb, filler, NA, 999, 999, 7, 17, 163, 57, 138, 160, 158, 120, 1, 1.72048
120, 1, wb, filler, NA, 999, 999, 7, 17, 163, 57, 138, 160, 158, 120, 2, 0.298546
120, 1, wb, attraction, a-b-da, 9, 3, 7, 18, 186, 114, 195, 120, 120, 195, 2, 4.42057
120, 1, wb, attraction, a-b-da, 9, 3, 7, 18, 186, 114, 195, 120, 120, 195, 3, 0.265788
120, 1, wb, attraction, a-b-da, 2, 2, 7, 19, 163, 89, 165, 90, 90, 165, 1, 5.12499
120, 1, wb, attraction, a-b-da, 2, 2, 7, 19, 163, 89, 165, 90, 90, 165, 3, 0.277204
120, 1, wb, attraction, a-b-db, 5, 3, 7, 20, 195, 120, 120, 195, 117, 190, 2, 4.22385
120, 1, wb, attraction, a-b-db, 5, 3, 7, 20, 195, 120, 120, 195, 117, 190, 1, 0.612448
120, 1, wb, attraction, a-b-da, 14, 2, 7, 21, 90, 165, 165, 90, 153, 83, 2, 21.9375
120, 1, wb, attraction, a-b-da, 14, 2, 7, 21, 90, 165, 165, 90, 153, 83, 1, 0.708685
120, 1, wb, filler, NA, 999, 999, 7, 22, 141, 63, 131, 113, 62, 151, 1, 1.39775
120, 1, wb, filler, NA, 999, 999, 7, 22, 141, 63, 131, 113, 62, 151, 2, 0.660627
120, 1, wb, attraction, a-b-db, 14, 3, 7, 23, 195, 120, 120, 195, 111, 181, 3, 5.87168
120, 1, wb, attraction, a-b-db, 14, 3, 7, 23, 195, 120, 120, 195, 111, 181, 1, 1.70644
120, 1, wb, attraction, a-b-db, 5, 2, 7, 24, 88, 161, 165, 90, 90, 165, 2, 2.69203
120, 1, wb, attraction, a-b-db, 5, 2, 7, 24, 88, 161, 165, 90, 90, 165, 1, 0.87041
120, 1, wb, attraction, a-b-da, 14, 3, 7, 25, 120, 195, 195, 120, 181, 111, 3, 2.96134
120, 1, wb, attraction, a-b-da, 14, 3, 7, 25, 120, 195, 195, 120, 181, 111, 2, 1.51306
120, 1, wb, catch, NA, 999, 999, 7, 26, 120, 75, 119, 136, 150, 165, 1, 2.77792
120, 1, wb, catch, NA, 999, 999, 7, 26, 120, 75, 119, 136, 150, 165, 3, 0.553018
120, 1, wb, attraction, a-b-db, 14, 2, 7, 27, 83, 153, 165, 90, 90, 165, 2, 4.52873
120, 1, wb, attraction, a-b-db, 14, 2, 7, 27, 83, 153, 165, 90, 90, 165, 3, 0.521277
120, 1, wb, filler, NA, 999, 999, 7, 28, 168, 166, 154, 133, 78, 162, 3, 3.86651
120, 1, wb, filler, NA, 999, 999, 7, 28, 168, 166, 154, 133, 78, 162, 1, 0.581756
120, 1, wb, attraction, a-b-db, 5, 1, 7, 29, 58, 132, 135, 60, 60, 135, 2, 3.02825
120, 1, wb, attraction, a-b-db, 5, 1, 7, 29, 58, 132, 135, 60, 60, 135, 3, 1.04139
120, 1, wb, attraction, a-b-da, 2, 1, 7, 30, 60, 135, 134, 59, 135, 60, 3, 6.59689
120, 1, wb, attraction, a-b-da, 2, 1, 7, 30, 60, 135, 134, 59, 135, 60, 2, 0.89814
120, 1, wb, attraction, a-b-db, 9, 1, 7, 31, 135, 60, 60, 135, 57, 129, 3, 6.59582
120, 1, wb, attraction, a-b-db, 9, 1, 7, 31, 135, 60, 60, 135, 57, 129, 1, 0.569016
120, 1, wb, filler, NA, 999, 999, 7, 32, 191, 178, 168, 102, 153, 189, 2, 4.96806
120, 1, wb, filler, NA, 999, 999, 7, 32, 191, 178, 168, 102, 153, 189, 1, 0.999223
120, 1, wb, attraction, a-b-db, 2, 2, 7, 33, 89, 163, 90, 165, 165, 90, 1, 4.06087
120, 1, wb, attraction, a-b-db, 2, 2, 7, 33, 89, 163, 90, 165, 165, 90, 3, 0.760239
120, 1, wb, filler, NA, 999, 999, 7, 34, 106, 145, 63, 147, 123, 125, 2, 4.67131
120, 1, wb, filler, NA, 999, 999, 7, 34, 106, 145, 63, 147, 123, 125, 3, 3.86656
120, 1, wb, filler, NA, 999, 999, 7, 35, 114, 82, 172, 82, 124, 98, 1, 1.50853
120, 1, wb, filler, NA, 999, 999, 7, 35, 114, 82, 172, 82, 124, 98, 2, 2.47883
120, 1, wb, filler, NA, 999, 999, 7, 36, 69, 85, 80, 83, 185, 96, 1, 2.32051
120, 1, wb, filler, NA, 999, 999, 7, 36, 69, 85, 80, 83, 185, 96, 3, 0.410499
120, 1, wb, filler, NA, 999, 999, 7, 37, 101, 63, 111, 60, 89, 182, 1, 4.7167
120, 1, wb, filler, NA, 999, 999, 7, 37, 101, 63, 111, 60, 89, 182, 3, 0.408764
120, 1, wb, filler, NA, 999, 999, 8, 1, 125, 122, 58, 167, 134, 100, 2, 14.4299
120, 1, wb, filler, NA, 999, 999, 8, 1, 125, 122, 58, 167, 134, 100, 3, 7.33539
120, 1, wb, filler, NA, 999, 999, 8, 2, 156, 173, 136, 153, 87, 61, 3, 2.06983
120, 1, wb, filler, NA, 999, 999, 8, 2, 156, 173, 136, 153, 87, 61, 1, 0.953607
120, 1, wb, attraction, a-b-db, 14, 1, 8, 3, 56, 125, 60, 135, 135, 60, 1, 3.41736
120, 1, wb, attraction, a-b-db, 14, 1, 8, 3, 56, 125, 60, 135, 135, 60, 3, 0.438903
120, 1, wb, attraction, a-b-db, 5, 3, 8, 4, 120, 195, 117, 190, 195, 120, 3, 3.46738
120, 1, wb, attraction, a-b-db, 5, 3, 8, 4, 120, 195, 117, 190, 195, 120, 1, 0.398912
120, 1, wb, attraction, a-b-da, 14, 1, 8, 5, 60, 135, 125, 56, 135, 60, 2, 3.59674
120, 1, wb, attraction, a-b-da, 14, 1, 8, 5, 60, 135, 125, 56, 135, 60, 1, 0.290939
120, 1, wb, attraction, a-b-db, 2, 1, 8, 6, 135, 60, 60, 135, 59, 134, 2, 3.35676
120, 1, wb, attraction, a-b-db, 2, 1, 8, 6, 135, 60, 60, 135, 59, 134, 1, 0.340301
120, 1, wb, attraction, a-b-da, 2, 2, 8, 7, 163, 89, 165, 90, 90, 165, 1, 13.9081
120, 1, wb, attraction, a-b-da, 2, 2, 8, 7, 163, 89, 165, 90, 90, 165, 3, 0.67516
120, 1, wb, attraction, a-b-da, 2, 3, 8, 8, 195, 120, 193, 119, 120, 195, 1, 6.77347
120, 1, wb, attraction, a-b-da, 2, 3, 8, 8, 195, 120, 193, 119, 120, 195, 3, 0.547409
120, 1, wb, catch, NA, 999, 999, 8, 9, 149, 166, 108, 147, 116, 79, 3, 1.49908
120, 1, wb, catch, NA, 999, 999, 8, 9, 149, 166, 108, 147, 116, 79, 1, 0.525958
120, 1, wb, attraction, a-b-da, 5, 1, 8, 10, 60, 135, 135, 60, 132, 58, 2, 5.12645
120, 1, wb, attraction, a-b-da, 5, 1, 8, 10, 60, 135, 135, 60, 132, 58, 1, 0.526828
120, 1, wb, attraction, a-b-db, 14, 2, 8, 11, 90, 165, 83, 153, 165, 90, 2, 15.3912
120, 1, wb, attraction, a-b-db, 14, 2, 8, 11, 90, 165, 83, 153, 165, 90, 3, 0.842463
120, 1, wb, attraction, a-b-da, 9, 3, 8, 12, 120, 195, 195, 120, 186, 114, 1, 5.02219
120, 1, wb, attraction, a-b-da, 9, 3, 8, 12, 120, 195, 195, 120, 186, 114, 2, 0.418512
120, 1, wb, filler, NA, 999, 999, 8, 13, 166, 83, 194, 68, 93, 108, 3, 4.48761
120, 1, wb, filler, NA, 999, 999, 8, 13, 166, 83, 194, 68, 93, 108, 2, 4.12231
120, 1, wb, filler, NA, 999, 999, 8, 14, 185, 150, 59, 192, 93, 163, 2, 6.93826
120, 1, wb, filler, NA, 999, 999, 8, 14, 185, 150, 59, 192, 93, 163, 1, 0.385966
120, 1, wb, attraction, a-b-da, 9, 1, 8, 15, 60, 135, 129, 57, 135, 60, 2, 2.88051
120, 1, wb, attraction, a-b-da, 9, 1, 8, 15, 60, 135, 129, 57, 135, 60, 1, 0.723559
120, 1, wb, attraction, a-b-da, 14, 2, 8, 16, 153, 83, 165, 90, 90, 165, 1, 9.81189
120, 1, wb, attraction, a-b-da, 14, 2, 8, 16, 153, 83, 165, 90, 90, 165, 3, 0.343607
120, 1, wb, catch, NA, 999, 999, 8, 17, 170, 145, 82, 113, 129, 126, 2, 2.26345
120, 1, wb, catch, NA, 999, 999, 8, 17, 170, 145, 82, 113, 129, 126, 1, 0.643322
120, 1, wb, attraction, a-b-db, 9, 1, 8, 18, 60, 135, 135, 60, 57, 129, 3, 9.63902
120, 1, wb, attraction, a-b-db, 9, 1, 8, 18, 60, 135, 135, 60, 57, 129, 2, 0.577976
120, 1, wb, attraction, a-b-db, 2, 2, 8, 19, 89, 163, 165, 90, 90, 165, 2, 3.81641
120, 1, wb, attraction, a-b-db, 2, 2, 8, 19, 89, 163, 165, 90, 90, 165, 1, 0.32593
120, 1, wb, attraction, a-b-db, 9, 2, 8, 20, 90, 165, 86, 157, 165, 90, 1, 7.42245
120, 1, wb, attraction, a-b-db, 9, 2, 8, 20, 90, 165, 86, 157, 165, 90, 3, 0.3947
120, 1, wb, filler, NA, 999, 999, 8, 21, 180, 72, 154, 138, 161, 160, 1, 4.15254
120, 1, wb, filler, NA, 999, 999, 8, 21, 180, 72, 154, 138, 161, 160, 3, 1.96861
120, 1, wb, catch, NA, 999, 999, 8, 22, 130, 185, 93, 102, 136, 119, 2, 2.07936
120, 1, wb, catch, NA, 999, 999, 8, 22, 130, 185, 93, 102, 136, 119, 1, 0.282537
120, 1, wb, filler, NA, 999, 999, 8, 23, 59, 89, 161, 125, 180, 118, 1, 1.589
120, 1, wb, filler, NA, 999, 999, 8, 23, 59, 89, 161, 125, 180, 118, 3, 2.27599
120, 1, wb, filler, NA, 999, 999, 8, 24, 136, 56, 125, 103, 138, 154, 1, 4.79787
120, 1, wb, filler, NA, 999, 999, 8, 24, 136, 56, 125, 103, 138, 154, 3, 0.619577
120, 1, wb, attraction, a-b-da, 9, 2, 8, 25, 157, 86, 90, 165, 165, 90, 1, 3.24067
120, 1, wb, attraction, a-b-da, 9, 2, 8, 25, 157, 86, 90, 165, 165, 90, 2, 0.356947
120, 1, wb, attraction, a-b-da, 5, 3, 8, 26, 190, 117, 120, 195, 195, 120, 1, 2.14816
120, 1, wb, attraction, a-b-da, 5, 3, 8, 26, 190, 117, 120, 195, 195, 120, 2, 0.388719
120, 1, wb, filler, NA, 999, 999, 8, 27, 71, 67, 79, 120, 147, 72, 1, 8.74726
120, 1, wb, filler, NA, 999, 999, 8, 27, 71, 67, 79, 120, 147, 72, 2, 3.55377
120, 1, wb, attraction, a-b-da, 2, 1, 8, 28, 60, 135, 135, 60, 134, 59, 1, 9.98465
120, 1, wb, attraction, a-b-da, 2, 1, 8, 28, 60, 135, 135, 60, 134, 59, 2, 1.06153
120, 1, wb, attraction, a-b-db, 9, 3, 8, 29, 114, 186, 195, 120, 120, 195, 1, 9.84049
120, 1, wb, attraction, a-b-db, 9, 3, 8, 29, 114, 186, 195, 120, 120, 195, 2, 0.418747
120, 1, wb, filler, NA, 999, 999, 8, 30, 108, 165, 177, 103, 104, 169, 2, 1.90373
120, 1, wb, filler, NA, 999, 999, 8, 30, 108, 165, 177, 103, 104, 169, 3, 0.610448
120, 1, wb, attraction, a-b-da, 14, 3, 8, 31, 120, 195, 195, 120, 181, 111, 3, 6.1997
120, 1, wb, attraction, a-b-da, 14, 3, 8, 31, 120, 195, 195, 120, 181, 111, 1, 0.325012
120, 1, wb, attraction, a-b-db, 5, 1, 8, 32, 58, 132, 135, 60, 60, 135, 2, 2.26143
120, 1, wb, attraction, a-b-db, 5, 1, 8, 32, 58, 132, 135, 60, 60, 135, 3, 0.305485
120, 1, wb, filler, NA, 999, 999, 8, 33, 159, 118, 118, 142, 62, 171, 3, 5.30736
120, 1, wb, filler, NA, 999, 999, 8, 33, 159, 118, 118, 142, 62, 171, 1, 0.53237
120, 1, wb, attraction, a-b-da, 5, 2, 8, 34, 165, 90, 90, 165, 161, 88, 3, 7.4366
120, 1, wb, attraction, a-b-da, 5, 2, 8, 34, 165, 90, 90, 165, 161, 88, 2, 0.728342
120, 1, wb, attraction, a-b-db, 5, 2, 8, 35, 90, 165, 88, 161, 165, 90, 3, 7.48877
120, 1, wb, attraction, a-b-db, 5, 2, 8, 35, 90, 165, 88, 161, 165, 90, 2, 0.922298
120, 1, wb, attraction, a-b-db, 2, 3, 8, 36, 120, 195, 119, 193, 195, 120, 3, 3.91536
120, 1, wb, attraction, a-b-db, 2, 3, 8, 36, 120, 195, 119, 193, 195, 120, 2, 1.46891
120, 1, wb, attraction, a-b-db, 14, 3, 8, 37, 120, 195, 111, 181, 195, 120, 2, 3.83954
120, 1, wb, attraction, a-b-db, 14, 3, 8, 37, 120, 195, 111, 181, 195, 120, 3, 1.61191
