sub_n, computer_n, bw_cond, effect, set, distance, diag, block_n, trial_n, h1, w1, h2, w2, h3, w3, choice, rt 
291, 1, bw, practice, NA, 999, 999, 0, 1, 159, 178, 61, 132, 165, 77, 1, 2.53786
291, 1, bw, practice, NA, 999, 999, 0, 1, 159, 178, 61, 132, 165, 77, 2, 2.04488
291, 1, bw, practice, NA, 999, 999, 0, 2, 59, 69, 101, 181, 105, 110, 2, 2.51658
291, 1, bw, practice, NA, 999, 999, 0, 2, 59, 69, 101, 181, 105, 110, 1, 0.956279
291, 1, bw, practice, NA, 999, 999, 0, 3, 165, 151, 129, 148, 187, 102, 1, 6.33742
291, 1, bw, practice, NA, 999, 999, 0, 3, 165, 151, 129, 148, 187, 102, 3, 6.36292
291, 1, bw, attraction, a-b-da, 9, 1, 1, 1, 60, 135, 129, 57, 135, 60, 1, 3.03333
291, 1, bw, attraction, a-b-da, 9, 1, 1, 1, 60, 135, 129, 57, 135, 60, 2, 0.838399
291, 1, bw, attraction, a-b-da, 2, 3, 1, 2, 195, 120, 120, 195, 193, 119, 3, 16.4506
291, 1, bw, attraction, a-b-da, 2, 3, 1, 2, 195, 120, 120, 195, 193, 119, 2, 0.626833
291, 1, bw, filler, NA, 999, 999, 1, 3, 194, 139, 111, 163, 135, 85, 1, 1.89522
291, 1, bw, filler, NA, 999, 999, 1, 3, 194, 139, 111, 163, 135, 85, 3, 1.20194
291, 1, bw, attraction, a-b-db, 9, 3, 1, 4, 195, 120, 120, 195, 114, 186, 2, 12.6156
291, 1, bw, attraction, a-b-db, 9, 3, 1, 4, 195, 120, 120, 195, 114, 186, 3, 1.57836
291, 1, bw, attraction, a-b-db, 2, 3, 1, 5, 119, 193, 195, 120, 120, 195, 3, 14.3364
291, 1, bw, attraction, a-b-db, 2, 3, 1, 5, 119, 193, 195, 120, 120, 195, 1, 0.645797
291, 1, bw, catch, NA, 999, 999, 1, 6, 152, 103, 175, 140, 63, 132, 2, 1.66563
291, 1, bw, catch, NA, 999, 999, 1, 6, 152, 103, 175, 140, 63, 132, 3, 0.981759
291, 1, bw, attraction, a-b-da, 2, 1, 1, 7, 60, 135, 135, 60, 134, 59, 1, 1.67607
291, 1, bw, attraction, a-b-da, 2, 1, 1, 7, 60, 135, 135, 60, 134, 59, 2, 1.22352
291, 1, bw, catch, NA, 999, 999, 1, 8, 105, 90, 129, 186, 94, 161, 2, 1.49177
291, 1, bw, catch, NA, 999, 999, 1, 8, 105, 90, 129, 186, 94, 161, 1, 0.558613
291, 1, bw, attraction, a-b-db, 5, 1, 1, 9, 58, 132, 135, 60, 60, 135, 3, 5.98979
291, 1, bw, attraction, a-b-db, 5, 1, 1, 9, 58, 132, 135, 60, 60, 135, 2, 2.05921
291, 1, bw, attraction, a-b-db, 14, 3, 1, 10, 120, 195, 111, 181, 195, 120, 1, 1.78168
291, 1, bw, attraction, a-b-db, 14, 3, 1, 10, 120, 195, 111, 181, 195, 120, 2, 1.00513
291, 1, bw, attraction, a-b-da, 14, 1, 1, 11, 60, 135, 125, 56, 135, 60, 1, 1.85874
291, 1, bw, attraction, a-b-da, 14, 1, 1, 11, 60, 135, 125, 56, 135, 60, 2, 3.04681
291, 1, bw, attraction, a-b-da, 9, 3, 1, 12, 186, 114, 195, 120, 120, 195, 3, 2.83381
291, 1, bw, attraction, a-b-da, 9, 3, 1, 12, 186, 114, 195, 120, 120, 195, 1, 4.83887
291, 1, bw, filler, NA, 999, 999, 1, 13, 138, 115, 72, 175, 176, 183, 3, 1.22595
291, 1, bw, filler, NA, 999, 999, 1, 13, 138, 115, 72, 175, 176, 183, 1, 0.519538
291, 1, bw, attraction, a-b-db, 2, 2, 1, 14, 90, 165, 89, 163, 165, 90, 1, 4.4407
291, 1, bw, attraction, a-b-db, 2, 2, 1, 14, 90, 165, 89, 163, 165, 90, 3, 2.5246
291, 1, bw, attraction, a-b-da, 5, 3, 1, 15, 190, 117, 120, 195, 195, 120, 3, 8.38042
291, 1, bw, attraction, a-b-da, 5, 3, 1, 15, 190, 117, 120, 195, 195, 120, 1, 1.18589
291, 1, bw, attraction, a-b-db, 14, 2, 1, 16, 90, 165, 83, 153, 165, 90, 1, 2.22412
291, 1, bw, attraction, a-b-db, 14, 2, 1, 16, 90, 165, 83, 153, 165, 90, 2, 0.669333
291, 1, bw, attraction, a-b-da, 9, 2, 1, 17, 90, 165, 165, 90, 157, 86, 1, 4.20842
291, 1, bw, attraction, a-b-da, 9, 2, 1, 17, 90, 165, 165, 90, 157, 86, 2, 7.46176
291, 1, bw, filler, NA, 999, 999, 1, 18, 158, 117, 149, 150, 58, 161, 2, 1.0706
291, 1, bw, filler, NA, 999, 999, 1, 18, 158, 117, 149, 150, 58, 161, 3, 0.659023
291, 1, bw, filler, NA, 999, 999, 1, 19, 142, 190, 56, 173, 103, 168, 1, 1.06203
291, 1, bw, filler, NA, 999, 999, 1, 19, 142, 190, 56, 173, 103, 168, 2, 0.434409
291, 1, bw, attraction, a-b-db, 5, 3, 1, 20, 120, 195, 117, 190, 195, 120, 1, 7.98274
291, 1, bw, attraction, a-b-db, 5, 3, 1, 20, 120, 195, 117, 190, 195, 120, 3, 0.956227
291, 1, bw, filler, NA, 999, 999, 1, 21, 165, 185, 152, 173, 146, 140, 1, 2.03595
291, 1, bw, filler, NA, 999, 999, 1, 21, 165, 185, 152, 173, 146, 140, 3, 0.961406
291, 1, bw, filler, NA, 999, 999, 1, 22, 163, 121, 93, 56, 64, 107, 1, 1.34431
291, 1, bw, filler, NA, 999, 999, 1, 22, 163, 121, 93, 56, 64, 107, 2, 0.625127
291, 1, bw, attraction, a-b-db, 14, 1, 1, 23, 56, 125, 60, 135, 135, 60, 2, 1.87754
291, 1, bw, attraction, a-b-db, 14, 1, 1, 23, 56, 125, 60, 135, 135, 60, 3, 8.67299
291, 1, bw, attraction, a-b-db, 9, 1, 1, 24, 135, 60, 57, 129, 60, 135, 3, 11.2735
291, 1, bw, attraction, a-b-db, 9, 1, 1, 24, 135, 60, 57, 129, 60, 135, 1, 0.522584
291, 1, bw, catch, NA, 999, 999, 1, 25, 93, 102, 107, 148, 138, 177, 3, 1.00378
291, 1, bw, catch, NA, 999, 999, 1, 25, 93, 102, 107, 148, 138, 177, 1, 1.81878
291, 1, bw, attraction, a-b-da, 5, 2, 1, 26, 90, 165, 161, 88, 165, 90, 2, 1.6954
291, 1, bw, attraction, a-b-da, 5, 2, 1, 26, 90, 165, 161, 88, 165, 90, 3, 0.698192
291, 1, bw, attraction, a-b-db, 2, 1, 1, 27, 60, 135, 135, 60, 59, 134, 1, 2.82784
291, 1, bw, attraction, a-b-db, 2, 1, 1, 27, 60, 135, 135, 60, 59, 134, 2, 0.400959
291, 1, bw, attraction, a-b-da, 14, 2, 1, 28, 90, 165, 153, 83, 165, 90, 1, 5.01479
291, 1, bw, attraction, a-b-da, 14, 2, 1, 28, 90, 165, 153, 83, 165, 90, 2, 1.17186
291, 1, bw, filler, NA, 999, 999, 1, 29, 109, 120, 155, 191, 164, 115, 2, 1.17072
291, 1, bw, filler, NA, 999, 999, 1, 29, 109, 120, 155, 191, 164, 115, 1, 0.435154
291, 1, bw, attraction, a-b-db, 9, 2, 1, 30, 90, 165, 165, 90, 86, 157, 1, 6.89545
291, 1, bw, attraction, a-b-db, 9, 2, 1, 30, 90, 165, 165, 90, 86, 157, 2, 2.14492
291, 1, bw, attraction, a-b-db, 5, 2, 1, 31, 165, 90, 88, 161, 90, 165, 3, 3.25595
291, 1, bw, attraction, a-b-db, 5, 2, 1, 31, 165, 90, 88, 161, 90, 165, 1, 0.795632
291, 1, bw, filler, NA, 999, 999, 1, 32, 152, 71, 88, 83, 151, 65, 1, 10.4653
291, 1, bw, filler, NA, 999, 999, 1, 32, 152, 71, 88, 83, 151, 65, 2, 0.922725
291, 1, bw, filler, NA, 999, 999, 1, 33, 83, 164, 113, 143, 173, 134, 3, 2.81975
291, 1, bw, filler, NA, 999, 999, 1, 33, 83, 164, 113, 143, 173, 134, 1, 1.42545
291, 1, bw, attraction, a-b-da, 5, 1, 1, 34, 132, 58, 60, 135, 135, 60, 2, 4.46167
291, 1, bw, attraction, a-b-da, 5, 1, 1, 34, 132, 58, 60, 135, 135, 60, 1, 0.608835
291, 1, bw, filler, NA, 999, 999, 1, 35, 174, 70, 71, 66, 91, 58, 1, 0.949893
291, 1, bw, filler, NA, 999, 999, 1, 35, 174, 70, 71, 66, 91, 58, 2, 0.430894
291, 1, bw, attraction, a-b-da, 14, 3, 1, 36, 195, 120, 181, 111, 120, 195, 1, 2.50753
291, 1, bw, attraction, a-b-da, 14, 3, 1, 36, 195, 120, 181, 111, 120, 195, 2, 2.54121
291, 1, bw, attraction, a-b-da, 2, 2, 1, 37, 90, 165, 165, 90, 163, 89, 1, 3.21248
291, 1, bw, attraction, a-b-da, 2, 2, 1, 37, 90, 165, 165, 90, 163, 89, 2, 1.00206
291, 1, bw, attraction, a-b-db, 9, 1, 2, 1, 60, 135, 135, 60, 57, 129, 1, 1.79158
291, 1, bw, attraction, a-b-db, 9, 1, 2, 1, 60, 135, 135, 60, 57, 129, 2, 0.638559
291, 1, bw, attraction, a-b-da, 2, 3, 2, 2, 195, 120, 120, 195, 193, 119, 2, 4.3789
291, 1, bw, attraction, a-b-da, 2, 3, 2, 2, 195, 120, 120, 195, 193, 119, 1, 3.12942
291, 1, bw, catch, NA, 999, 999, 2, 3, 106, 149, 138, 177, 107, 88, 2, 1.76905
291, 1, bw, catch, NA, 999, 999, 2, 3, 106, 149, 138, 177, 107, 88, 3, 0.841136
291, 1, bw, attraction, a-b-db, 2, 2, 2, 4, 89, 163, 165, 90, 90, 165, 1, 4.61275
291, 1, bw, attraction, a-b-db, 2, 2, 2, 4, 89, 163, 165, 90, 90, 165, 2, 0.770041
291, 1, bw, filler, NA, 999, 999, 2, 5, 138, 108, 78, 72, 174, 92, 1, 1.22496
291, 1, bw, filler, NA, 999, 999, 2, 5, 138, 108, 78, 72, 174, 92, 2, 3.32665
291, 1, bw, attraction, a-b-db, 5, 3, 2, 6, 117, 190, 120, 195, 195, 120, 2, 4.65422
291, 1, bw, attraction, a-b-db, 5, 3, 2, 6, 117, 190, 120, 195, 195, 120, 3, 1.64207
291, 1, bw, attraction, a-b-da, 2, 2, 2, 7, 163, 89, 90, 165, 165, 90, 2, 2.34942
291, 1, bw, attraction, a-b-da, 2, 2, 2, 7, 163, 89, 90, 165, 165, 90, 1, 1.518
291, 1, bw, attraction, a-b-db, 5, 2, 2, 8, 165, 90, 90, 165, 88, 161, 2, 5.82282
291, 1, bw, attraction, a-b-db, 5, 2, 2, 8, 165, 90, 90, 165, 88, 161, 1, 0.810969
291, 1, bw, attraction, a-b-db, 9, 3, 2, 9, 195, 120, 120, 195, 114, 186, 1, 2.73596
291, 1, bw, attraction, a-b-db, 9, 3, 2, 9, 195, 120, 120, 195, 114, 186, 2, 0.56108
291, 1, bw, attraction, a-b-db, 14, 1, 2, 10, 60, 135, 135, 60, 56, 125, 1, 2.19235
291, 1, bw, attraction, a-b-db, 14, 1, 2, 10, 60, 135, 135, 60, 56, 125, 2, 0.542887
291, 1, bw, filler, NA, 999, 999, 2, 11, 79, 175, 75, 177, 144, 134, 3, 5.81461
291, 1, bw, filler, NA, 999, 999, 2, 11, 79, 175, 75, 177, 144, 134, 2, 1.13944
291, 1, bw, attraction, a-b-db, 14, 3, 2, 12, 111, 181, 195, 120, 120, 195, 3, 4.36366
291, 1, bw, attraction, a-b-db, 14, 3, 2, 12, 111, 181, 195, 120, 120, 195, 2, 0.426977
291, 1, bw, attraction, a-b-db, 2, 1, 2, 13, 59, 134, 60, 135, 135, 60, 2, 2.77545
291, 1, bw, attraction, a-b-db, 2, 1, 2, 13, 59, 134, 60, 135, 135, 60, 3, 0.470598
291, 1, bw, catch, NA, 999, 999, 2, 14, 126, 129, 86, 109, 191, 124, 3, 2.12978
291, 1, bw, catch, NA, 999, 999, 2, 14, 126, 129, 86, 109, 191, 124, 2, 0.67505
291, 1, bw, attraction, a-b-da, 2, 1, 2, 15, 134, 59, 135, 60, 60, 135, 1, 4.39748
291, 1, bw, attraction, a-b-da, 2, 1, 2, 15, 134, 59, 135, 60, 60, 135, 2, 0.515278
291, 1, bw, attraction, a-b-db, 2, 3, 2, 16, 120, 195, 195, 120, 119, 193, 1, 11.3565
291, 1, bw, attraction, a-b-db, 2, 3, 2, 16, 120, 195, 195, 120, 119, 193, 2, 1.73818
291, 1, bw, attraction, a-b-da, 9, 1, 2, 17, 60, 135, 129, 57, 135, 60, 1, 5.25028
291, 1, bw, attraction, a-b-da, 9, 1, 2, 17, 60, 135, 129, 57, 135, 60, 2, 1.26197
291, 1, bw, filler, NA, 999, 999, 2, 18, 151, 106, 154, 68, 123, 143, 1, 1.4328
291, 1, bw, filler, NA, 999, 999, 2, 18, 151, 106, 154, 68, 123, 143, 2, 1.55832
291, 1, bw, attraction, a-b-db, 5, 1, 2, 19, 60, 135, 135, 60, 58, 132, 1, 2.51711
291, 1, bw, attraction, a-b-db, 5, 1, 2, 19, 60, 135, 135, 60, 58, 132, 2, 0.40697
291, 1, bw, filler, NA, 999, 999, 2, 20, 160, 115, 105, 153, 66, 63, 1, 2.3963
291, 1, bw, filler, NA, 999, 999, 2, 20, 160, 115, 105, 153, 66, 63, 3, 0.490714
291, 1, bw, catch, NA, 999, 999, 2, 21, 121, 134, 175, 140, 132, 63, 2, 1.09255
291, 1, bw, catch, NA, 999, 999, 2, 21, 121, 134, 175, 140, 132, 63, 3, 1.15942
291, 1, bw, filler, NA, 999, 999, 2, 22, 62, 76, 125, 91, 150, 110, 3, 1.78243
291, 1, bw, filler, NA, 999, 999, 2, 22, 62, 76, 125, 91, 150, 110, 1, 0.509682
291, 1, bw, attraction, a-b-da, 14, 3, 2, 23, 195, 120, 120, 195, 181, 111, 1, 2.28692
291, 1, bw, attraction, a-b-da, 14, 3, 2, 23, 195, 120, 120, 195, 181, 111, 3, 1.61816
291, 1, bw, attraction, a-b-da, 14, 1, 2, 24, 125, 56, 135, 60, 60, 135, 2, 10.183
291, 1, bw, attraction, a-b-da, 14, 1, 2, 24, 125, 56, 135, 60, 60, 135, 1, 0.443666
291, 1, bw, filler, NA, 999, 999, 2, 25, 124, 191, 57, 134, 131, 194, 3, 1.45549
291, 1, bw, filler, NA, 999, 999, 2, 25, 124, 191, 57, 134, 131, 194, 2, 0.611749
291, 1, bw, attraction, a-b-db, 9, 2, 2, 26, 86, 157, 90, 165, 165, 90, 2, 4.41692
291, 1, bw, attraction, a-b-db, 9, 2, 2, 26, 86, 157, 90, 165, 165, 90, 1, 2.54208
291, 1, bw, attraction, a-b-da, 14, 2, 2, 27, 165, 90, 90, 165, 153, 83, 2, 2.8772
291, 1, bw, attraction, a-b-da, 14, 2, 2, 27, 165, 90, 90, 165, 153, 83, 3, 0.424284
291, 1, bw, filler, NA, 999, 999, 2, 28, 112, 183, 121, 103, 190, 114, 3, 2.54073
291, 1, bw, filler, NA, 999, 999, 2, 28, 112, 183, 121, 103, 190, 114, 2, 0.733299
291, 1, bw, filler, NA, 999, 999, 2, 29, 78, 70, 134, 119, 76, 65, 2, 1.39761
291, 1, bw, filler, NA, 999, 999, 2, 29, 78, 70, 134, 119, 76, 65, 1, 8.90051
291, 1, bw, filler, NA, 999, 999, 2, 30, 134, 133, 143, 107, 181, 63, 1, 7.49169
291, 1, bw, filler, NA, 999, 999, 2, 30, 134, 133, 143, 107, 181, 63, 3, 0.700679
291, 1, bw, attraction, a-b-da, 9, 3, 2, 31, 120, 195, 186, 114, 195, 120, 2, 1.83841
291, 1, bw, attraction, a-b-da, 9, 3, 2, 31, 120, 195, 186, 114, 195, 120, 1, 0.395111
291, 1, bw, filler, NA, 999, 999, 2, 32, 80, 115, 179, 168, 193, 115, 2, 1.27282
291, 1, bw, filler, NA, 999, 999, 2, 32, 80, 115, 179, 168, 193, 115, 1, 0.524571
291, 1, bw, attraction, a-b-da, 5, 3, 2, 33, 195, 120, 120, 195, 190, 117, 2, 4.60488
291, 1, bw, attraction, a-b-da, 5, 3, 2, 33, 195, 120, 120, 195, 190, 117, 3, 0.354829
291, 1, bw, attraction, a-b-da, 5, 2, 2, 34, 161, 88, 165, 90, 90, 165, 2, 2.25059
291, 1, bw, attraction, a-b-da, 5, 2, 2, 34, 161, 88, 165, 90, 90, 165, 1, 1.07921
291, 1, bw, attraction, a-b-da, 5, 1, 2, 35, 60, 135, 132, 58, 135, 60, 2, 1.40956
291, 1, bw, attraction, a-b-da, 5, 1, 2, 35, 60, 135, 132, 58, 135, 60, 3, 0.9516
291, 1, bw, attraction, a-b-db, 14, 2, 2, 36, 165, 90, 83, 153, 90, 165, 3, 8.07929
291, 1, bw, attraction, a-b-db, 14, 2, 2, 36, 165, 90, 83, 153, 90, 165, 1, 0.64077
291, 1, bw, attraction, a-b-da, 9, 2, 2, 37, 165, 90, 90, 165, 157, 86, 2, 2.42053
291, 1, bw, attraction, a-b-da, 9, 2, 2, 37, 165, 90, 90, 165, 157, 86, 3, 0.514384
291, 1, bw, filler, NA, 999, 999, 3, 1, 163, 139, 122, 157, 116, 194, 1, 4.17155
291, 1, bw, filler, NA, 999, 999, 3, 1, 163, 139, 122, 157, 116, 194, 2, 1.15484
291, 1, bw, attraction, a-b-db, 5, 2, 3, 2, 90, 165, 165, 90, 88, 161, 1, 4.97037
291, 1, bw, attraction, a-b-db, 5, 2, 3, 2, 90, 165, 165, 90, 88, 161, 3, 4.34571
291, 1, bw, filler, NA, 999, 999, 3, 3, 188, 107, 153, 127, 129, 193, 3, 4.63212
291, 1, bw, filler, NA, 999, 999, 3, 3, 188, 107, 153, 127, 129, 193, 2, 3.89269
291, 1, bw, filler, NA, 999, 999, 3, 4, 140, 98, 122, 183, 172, 167, 3, 3.82134
291, 1, bw, filler, NA, 999, 999, 3, 4, 140, 98, 122, 183, 172, 167, 1, 0.562841
291, 1, bw, attraction, a-b-da, 9, 1, 3, 5, 129, 57, 60, 135, 135, 60, 3, 7.43394
291, 1, bw, attraction, a-b-da, 9, 1, 3, 5, 129, 57, 60, 135, 135, 60, 1, 1.98963
291, 1, bw, attraction, a-b-da, 9, 2, 3, 6, 157, 86, 90, 165, 165, 90, 1, 2.71549
291, 1, bw, attraction, a-b-da, 9, 2, 3, 6, 157, 86, 90, 165, 165, 90, 2, 0.669352
291, 1, bw, attraction, a-b-da, 2, 2, 3, 7, 163, 89, 165, 90, 90, 165, 2, 1.2164
291, 1, bw, attraction, a-b-da, 2, 2, 3, 7, 163, 89, 165, 90, 90, 165, 1, 2.35866
291, 1, bw, attraction, a-b-da, 5, 1, 3, 8, 135, 60, 132, 58, 60, 135, 1, 4.68518
291, 1, bw, attraction, a-b-da, 5, 1, 3, 8, 135, 60, 132, 58, 60, 135, 2, 0.319696
291, 1, bw, attraction, a-b-db, 14, 1, 3, 9, 60, 135, 135, 60, 56, 125, 1, 2.28888
291, 1, bw, attraction, a-b-db, 14, 1, 3, 9, 60, 135, 135, 60, 56, 125, 3, 2.04354
291, 1, bw, catch, NA, 999, 999, 3, 10, 147, 108, 179, 136, 80, 115, 2, 1.20693
291, 1, bw, catch, NA, 999, 999, 3, 10, 147, 108, 179, 136, 80, 115, 3, 0.517068
291, 1, bw, attraction, a-b-db, 2, 1, 3, 11, 59, 134, 135, 60, 60, 135, 2, 15.7821
291, 1, bw, attraction, a-b-db, 2, 1, 3, 11, 59, 134, 135, 60, 60, 135, 3, 0.529204
291, 1, bw, attraction, a-b-db, 9, 2, 3, 12, 90, 165, 86, 157, 165, 90, 1, 7.46571
291, 1, bw, attraction, a-b-db, 9, 2, 3, 12, 90, 165, 86, 157, 165, 90, 2, 0.412006
291, 1, bw, filler, NA, 999, 999, 3, 13, 86, 80, 74, 101, 109, 58, 2, 3.76906
291, 1, bw, filler, NA, 999, 999, 3, 13, 86, 80, 74, 101, 109, 58, 3, 4.78459
291, 1, bw, filler, NA, 999, 999, 3, 14, 100, 60, 74, 103, 65, 59, 2, 4.40574
291, 1, bw, filler, NA, 999, 999, 3, 14, 100, 60, 74, 103, 65, 59, 3, 0.731703
291, 1, bw, filler, NA, 999, 999, 3, 15, 60, 188, 56, 98, 95, 138, 3, 1.02798
291, 1, bw, filler, NA, 999, 999, 3, 15, 60, 188, 56, 98, 95, 138, 2, 0.713569
291, 1, bw, catch, NA, 999, 999, 3, 16, 168, 147, 115, 140, 91, 104, 1, 1.17075
291, 1, bw, catch, NA, 999, 999, 3, 16, 168, 147, 115, 140, 91, 104, 3, 0.547052
291, 1, bw, attraction, a-b-da, 14, 3, 3, 17, 181, 111, 195, 120, 120, 195, 2, 1.45868
291, 1, bw, attraction, a-b-da, 14, 3, 3, 17, 181, 111, 195, 120, 120, 195, 1, 0.34293
291, 1, bw, attraction, a-b-da, 5, 3, 3, 18, 190, 117, 120, 195, 195, 120, 2, 22.4467
291, 1, bw, attraction, a-b-da, 5, 3, 3, 18, 190, 117, 120, 195, 195, 120, 1, 0.5331
291, 1, bw, attraction, a-b-db, 5, 3, 3, 19, 195, 120, 117, 190, 120, 195, 2, 4.65351
291, 1, bw, attraction, a-b-db, 5, 3, 3, 19, 195, 120, 117, 190, 120, 195, 3, 1.28135
291, 1, bw, attraction, a-b-db, 9, 3, 3, 20, 114, 186, 195, 120, 120, 195, 1, 0.779523
291, 1, bw, attraction, a-b-db, 9, 3, 3, 20, 114, 186, 195, 120, 120, 195, 2, 0.41131
291, 1, bw, attraction, a-b-da, 5, 2, 3, 21, 161, 88, 165, 90, 90, 165, 3, 2.22439
291, 1, bw, attraction, a-b-da, 5, 2, 3, 21, 161, 88, 165, 90, 90, 165, 1, 2.27772
291, 1, bw, filler, NA, 999, 999, 3, 22, 173, 172, 59, 146, 76, 108, 1, 1.46355
291, 1, bw, filler, NA, 999, 999, 3, 22, 173, 172, 59, 146, 76, 108, 3, 0.835775
291, 1, bw, attraction, a-b-db, 9, 1, 3, 23, 60, 135, 57, 129, 135, 60, 1, 3.52811
291, 1, bw, attraction, a-b-db, 9, 1, 3, 23, 60, 135, 57, 129, 135, 60, 2, 1.24896
291, 1, bw, catch, NA, 999, 999, 3, 24, 189, 126, 110, 85, 126, 129, 1, 2.67648
291, 1, bw, catch, NA, 999, 999, 3, 24, 189, 126, 110, 85, 126, 129, 2, 0.255677
291, 1, bw, attraction, a-b-db, 14, 3, 3, 25, 195, 120, 111, 181, 120, 195, 1, 7.41162
291, 1, bw, attraction, a-b-db, 14, 3, 3, 25, 195, 120, 111, 181, 120, 195, 2, 0.231869
291, 1, bw, attraction, a-b-db, 2, 2, 3, 26, 89, 163, 90, 165, 165, 90, 3, 5.98053
291, 1, bw, attraction, a-b-db, 2, 2, 3, 26, 89, 163, 90, 165, 165, 90, 1, 0.458495
291, 1, bw, attraction, a-b-da, 2, 1, 3, 27, 135, 60, 60, 135, 134, 59, 1, 2.11777
291, 1, bw, attraction, a-b-da, 2, 1, 3, 27, 135, 60, 60, 135, 134, 59, 2, 0.231697
291, 1, bw, attraction, a-b-db, 2, 3, 3, 28, 195, 120, 119, 193, 120, 195, 2, 3.79609
291, 1, bw, attraction, a-b-db, 2, 3, 3, 28, 195, 120, 119, 193, 120, 195, 1, 1.67425
291, 1, bw, filler, NA, 999, 999, 3, 29, 119, 110, 75, 176, 182, 159, 3, 1.28445
291, 1, bw, filler, NA, 999, 999, 3, 29, 119, 110, 75, 176, 182, 159, 1, 0.512055
291, 1, bw, attraction, a-b-da, 9, 3, 3, 30, 186, 114, 120, 195, 195, 120, 2, 1.76108
291, 1, bw, attraction, a-b-da, 9, 3, 3, 30, 186, 114, 120, 195, 195, 120, 1, 3.27323
291, 1, bw, attraction, a-b-db, 5, 1, 3, 31, 60, 135, 135, 60, 58, 132, 1, 4.97136
291, 1, bw, attraction, a-b-db, 5, 1, 3, 31, 60, 135, 135, 60, 58, 132, 2, 0.442518
291, 1, bw, filler, NA, 999, 999, 3, 32, 141, 176, 140, 186, 119, 191, 2, 8.66221
291, 1, bw, filler, NA, 999, 999, 3, 32, 141, 176, 140, 186, 119, 191, 3, 1.59238
291, 1, bw, attraction, a-b-da, 14, 2, 3, 33, 90, 165, 165, 90, 153, 83, 1, 5.08564
291, 1, bw, attraction, a-b-da, 14, 2, 3, 33, 90, 165, 165, 90, 153, 83, 3, 0.320038
291, 1, bw, attraction, a-b-da, 2, 3, 3, 34, 193, 119, 195, 120, 120, 195, 3, 8.58523
291, 1, bw, attraction, a-b-da, 2, 3, 3, 34, 193, 119, 195, 120, 120, 195, 1, 0.526489
291, 1, bw, filler, NA, 999, 999, 3, 35, 167, 99, 138, 66, 126, 82, 1, 1.74288
291, 1, bw, filler, NA, 999, 999, 3, 35, 167, 99, 138, 66, 126, 82, 2, 0.4397
291, 1, bw, attraction, a-b-da, 14, 1, 3, 36, 125, 56, 60, 135, 135, 60, 3, 1.19617
291, 1, bw, attraction, a-b-da, 14, 1, 3, 36, 125, 56, 60, 135, 135, 60, 1, 0.451244
291, 1, bw, attraction, a-b-db, 14, 2, 3, 37, 165, 90, 83, 153, 90, 165, 1, 8.25484
291, 1, bw, attraction, a-b-db, 14, 2, 3, 37, 165, 90, 83, 153, 90, 165, 2, 0.697619
291, 1, bw, attraction, a-b-da, 9, 2, 4, 1, 157, 86, 165, 90, 90, 165, 3, 1.5794
291, 1, bw, attraction, a-b-da, 9, 2, 4, 1, 157, 86, 165, 90, 90, 165, 1, 4.89082
291, 1, bw, attraction, a-b-da, 14, 3, 4, 2, 120, 195, 181, 111, 195, 120, 1, 3.48385
291, 1, bw, attraction, a-b-da, 14, 3, 4, 2, 120, 195, 181, 111, 195, 120, 2, 0.598779
291, 1, bw, catch, NA, 999, 999, 4, 3, 117, 138, 129, 186, 130, 65, 2, 1.17252
291, 1, bw, catch, NA, 999, 999, 4, 3, 117, 138, 129, 186, 130, 65, 3, 0.524157
291, 1, bw, filler, NA, 999, 999, 4, 4, 101, 95, 172, 130, 87, 178, 2, 0.71654
291, 1, bw, filler, NA, 999, 999, 4, 4, 101, 95, 172, 130, 87, 178, 1, 0.607069
291, 1, bw, filler, NA, 999, 999, 4, 5, 106, 94, 161, 155, 90, 174, 2, 1.1481
291, 1, bw, filler, NA, 999, 999, 4, 5, 106, 94, 161, 155, 90, 174, 1, 0.581064
291, 1, bw, attraction, a-b-db, 14, 1, 4, 6, 56, 125, 60, 135, 135, 60, 2, 1.65951
291, 1, bw, attraction, a-b-db, 14, 1, 4, 6, 56, 125, 60, 135, 135, 60, 3, 2.63974
291, 1, bw, filler, NA, 999, 999, 4, 7, 89, 83, 179, 166, 167, 190, 2, 5.4514
291, 1, bw, filler, NA, 999, 999, 4, 7, 89, 83, 179, 166, 167, 190, 1, 0.359002
291, 1, bw, attraction, a-b-db, 9, 1, 4, 8, 57, 129, 60, 135, 135, 60, 2, 5.15819
291, 1, bw, attraction, a-b-db, 9, 1, 4, 8, 57, 129, 60, 135, 135, 60, 3, 0.757187
291, 1, bw, attraction, a-b-db, 14, 2, 4, 9, 90, 165, 83, 153, 165, 90, 1, 3.00419
291, 1, bw, attraction, a-b-db, 14, 2, 4, 9, 90, 165, 83, 153, 165, 90, 3, 0.858589
291, 1, bw, filler, NA, 999, 999, 4, 10, 178, 175, 59, 99, 71, 160, 1, 0.885518
291, 1, bw, filler, NA, 999, 999, 4, 10, 178, 175, 59, 99, 71, 160, 2, 0.58524
291, 1, bw, attraction, a-b-da, 2, 2, 4, 11, 165, 90, 90, 165, 163, 89, 2, 1.1997
291, 1, bw, attraction, a-b-da, 2, 2, 4, 11, 165, 90, 90, 165, 163, 89, 1, 0.502687
291, 1, bw, filler, NA, 999, 999, 4, 12, 73, 158, 115, 140, 96, 86, 2, 1.95242
291, 1, bw, filler, NA, 999, 999, 4, 12, 73, 158, 115, 140, 96, 86, 3, 0.377172
291, 1, bw, attraction, a-b-da, 9, 1, 4, 13, 129, 57, 60, 135, 135, 60, 2, 2.14363
291, 1, bw, attraction, a-b-da, 9, 1, 4, 13, 129, 57, 60, 135, 135, 60, 1, 4.48017
291, 1, bw, filler, NA, 999, 999, 4, 14, 74, 140, 93, 192, 63, 91, 2, 1.37749
291, 1, bw, filler, NA, 999, 999, 4, 14, 74, 140, 93, 192, 63, 91, 3, 0.537016
291, 1, bw, attraction, a-b-da, 5, 2, 4, 15, 161, 88, 165, 90, 90, 165, 1, 3.47346
291, 1, bw, attraction, a-b-da, 5, 2, 4, 15, 161, 88, 165, 90, 90, 165, 3, 0.668378
291, 1, bw, attraction, a-b-db, 5, 1, 4, 16, 135, 60, 60, 135, 58, 132, 2, 1.80746
291, 1, bw, attraction, a-b-db, 5, 1, 4, 16, 135, 60, 60, 135, 58, 132, 3, 1.23756
291, 1, bw, attraction, a-b-da, 14, 1, 4, 17, 125, 56, 60, 135, 135, 60, 2, 1.03372
291, 1, bw, attraction, a-b-da, 14, 1, 4, 17, 125, 56, 60, 135, 135, 60, 1, 0.543509
291, 1, bw, filler, NA, 999, 999, 4, 18, 102, 89, 122, 83, 136, 193, 3, 1.03914
291, 1, bw, filler, NA, 999, 999, 4, 18, 102, 89, 122, 83, 136, 193, 1, 0.548158
291, 1, bw, attraction, a-b-da, 2, 3, 4, 19, 195, 120, 193, 119, 120, 195, 1, 4.80382
291, 1, bw, attraction, a-b-da, 2, 3, 4, 19, 195, 120, 193, 119, 120, 195, 2, 0.393767
291, 1, bw, attraction, a-b-db, 9, 3, 4, 20, 114, 186, 120, 195, 195, 120, 3, 10.3195
291, 1, bw, attraction, a-b-db, 9, 3, 4, 20, 114, 186, 120, 195, 195, 120, 2, 0.302871
291, 1, bw, attraction, a-b-db, 14, 3, 4, 21, 111, 181, 120, 195, 195, 120, 2, 0.61672
291, 1, bw, attraction, a-b-db, 14, 3, 4, 21, 111, 181, 120, 195, 195, 120, 3, 0.919259
291, 1, bw, attraction, a-b-db, 9, 2, 4, 22, 165, 90, 90, 165, 86, 157, 2, 1.38418
291, 1, bw, attraction, a-b-db, 9, 2, 4, 22, 165, 90, 90, 165, 86, 157, 1, 0.567777
291, 1, bw, attraction, a-b-da, 5, 3, 4, 23, 120, 195, 190, 117, 195, 120, 1, 2.0308
291, 1, bw, attraction, a-b-da, 5, 3, 4, 23, 120, 195, 190, 117, 195, 120, 2, 1.25219
291, 1, bw, catch, NA, 999, 999, 4, 24, 113, 142, 121, 194, 95, 100, 2, 0.84774
291, 1, bw, catch, NA, 999, 999, 4, 24, 113, 142, 121, 194, 95, 100, 3, 0.924793
291, 1, bw, attraction, a-b-db, 2, 1, 4, 25, 135, 60, 59, 134, 60, 135, 1, 1.12518
291, 1, bw, attraction, a-b-db, 2, 1, 4, 25, 135, 60, 59, 134, 60, 135, 2, 0.534682
291, 1, bw, attraction, a-b-db, 2, 2, 4, 26, 165, 90, 90, 165, 89, 163, 2, 1.32722
291, 1, bw, attraction, a-b-db, 2, 2, 4, 26, 165, 90, 90, 165, 89, 163, 1, 0.640822
291, 1, bw, filler, NA, 999, 999, 4, 27, 119, 126, 94, 118, 173, 148, 3, 1.13248
291, 1, bw, filler, NA, 999, 999, 4, 27, 119, 126, 94, 118, 173, 148, 2, 0.998037
291, 1, bw, attraction, a-b-db, 2, 3, 4, 28, 119, 193, 195, 120, 120, 195, 1, 3.06767
291, 1, bw, attraction, a-b-db, 2, 3, 4, 28, 119, 193, 195, 120, 120, 195, 2, 0.38331
291, 1, bw, attraction, a-b-da, 5, 1, 4, 29, 135, 60, 132, 58, 60, 135, 3, 1.70999
291, 1, bw, attraction, a-b-da, 5, 1, 4, 29, 135, 60, 132, 58, 60, 135, 2, 0.727933
291, 1, bw, catch, NA, 999, 999, 4, 30, 130, 65, 158, 157, 105, 150, 2, 2.17634
291, 1, bw, catch, NA, 999, 999, 4, 30, 130, 65, 158, 157, 105, 150, 1, 0.447571
291, 1, bw, attraction, a-b-da, 2, 1, 4, 31, 135, 60, 134, 59, 60, 135, 3, 2.61946
291, 1, bw, attraction, a-b-da, 2, 1, 4, 31, 135, 60, 134, 59, 60, 135, 2, 0.521292
291, 1, bw, filler, NA, 999, 999, 4, 32, 70, 125, 56, 87, 133, 127, 3, 1.53837
291, 1, bw, filler, NA, 999, 999, 4, 32, 70, 125, 56, 87, 133, 127, 2, 0.499146
291, 1, bw, attraction, a-b-db, 5, 3, 4, 33, 120, 195, 195, 120, 117, 190, 1, 1.84501
291, 1, bw, attraction, a-b-db, 5, 3, 4, 33, 120, 195, 195, 120, 117, 190, 2, 0.497677
291, 1, bw, attraction, a-b-da, 9, 3, 4, 34, 195, 120, 120, 195, 186, 114, 1, 7.49149
291, 1, bw, attraction, a-b-da, 9, 3, 4, 34, 195, 120, 120, 195, 186, 114, 3, 0.684445
291, 1, bw, attraction, a-b-da, 14, 2, 4, 35, 165, 90, 90, 165, 153, 83, 2, 4.53492
291, 1, bw, attraction, a-b-da, 14, 2, 4, 35, 165, 90, 90, 165, 153, 83, 3, 0.575501
291, 1, bw, attraction, a-b-db, 5, 2, 4, 36, 88, 161, 90, 165, 165, 90, 2, 2.91785
291, 1, bw, attraction, a-b-db, 5, 2, 4, 36, 88, 161, 90, 165, 165, 90, 1, 0.59956
291, 1, bw, filler, NA, 999, 999, 4, 37, 75, 126, 135, 96, 194, 133, 3, 1.43728
291, 1, bw, filler, NA, 999, 999, 4, 37, 75, 126, 135, 96, 194, 133, 1, 1.08297
291, 1, bw, filler, NA, 999, 999, 5, 1, 86, 82, 83, 105, 157, 127, 3, 6.38777
291, 1, bw, filler, NA, 999, 999, 5, 1, 86, 82, 83, 105, 157, 127, 1, 0.51382
291, 1, bw, attraction, a-b-da, 14, 1, 5, 2, 125, 56, 60, 135, 135, 60, 2, 2.21883
291, 1, bw, attraction, a-b-da, 14, 1, 5, 2, 125, 56, 60, 135, 135, 60, 3, 1.2009
291, 1, bw, filler, NA, 999, 999, 5, 3, 150, 168, 60, 144, 109, 193, 1, 0.822342
291, 1, bw, filler, NA, 999, 999, 5, 3, 150, 168, 60, 144, 109, 193, 2, 1.34816
291, 1, bw, filler, NA, 999, 999, 5, 4, 120, 122, 184, 180, 171, 58, 2, 0.907689
291, 1, bw, filler, NA, 999, 999, 5, 4, 120, 122, 184, 180, 171, 58, 3, 1.35798
291, 1, bw, attraction, a-b-db, 9, 2, 5, 5, 90, 165, 165, 90, 86, 157, 1, 1.19674
291, 1, bw, attraction, a-b-db, 9, 2, 5, 5, 90, 165, 165, 90, 86, 157, 2, 7.29173
291, 1, bw, catch, NA, 999, 999, 5, 6, 121, 134, 180, 135, 118, 77, 2, 1.30815
291, 1, bw, catch, NA, 999, 999, 5, 6, 121, 134, 180, 135, 118, 77, 3, 0.47039
291, 1, bw, catch, NA, 999, 999, 5, 7, 71, 124, 185, 130, 101, 154, 2, 0.929537
291, 1, bw, catch, NA, 999, 999, 5, 7, 71, 124, 185, 130, 101, 154, 1, 0.475194
291, 1, bw, attraction, a-b-da, 5, 1, 5, 8, 132, 58, 135, 60, 60, 135, 2, 1.05354
291, 1, bw, attraction, a-b-da, 5, 1, 5, 8, 132, 58, 135, 60, 60, 135, 3, 6.41062
291, 1, bw, attraction, a-b-db, 9, 3, 5, 9, 195, 120, 114, 186, 120, 195, 1, 3.13382
291, 1, bw, attraction, a-b-db, 9, 3, 5, 9, 195, 120, 114, 186, 120, 195, 2, 0.438828
291, 1, bw, attraction, a-b-db, 2, 1, 5, 10, 60, 135, 59, 134, 135, 60, 3, 9.29126
291, 1, bw, attraction, a-b-db, 2, 1, 5, 10, 60, 135, 59, 134, 135, 60, 2, 0.483663
291, 1, bw, attraction, a-b-db, 14, 1, 5, 11, 135, 60, 60, 135, 56, 125, 1, 5.55823
291, 1, bw, attraction, a-b-db, 14, 1, 5, 11, 135, 60, 60, 135, 56, 125, 3, 0.397029
291, 1, bw, filler, NA, 999, 999, 5, 12, 183, 98, 180, 125, 78, 133, 2, 0.858857
291, 1, bw, filler, NA, 999, 999, 5, 12, 183, 98, 180, 125, 78, 133, 3, 0.447201
291, 1, bw, attraction, a-b-da, 2, 1, 5, 13, 135, 60, 60, 135, 134, 59, 1, 6.33908
291, 1, bw, attraction, a-b-da, 2, 1, 5, 13, 135, 60, 60, 135, 134, 59, 3, 0.891006
291, 1, bw, filler, NA, 999, 999, 5, 14, 184, 131, 184, 191, 166, 111, 2, 0.644638
291, 1, bw, filler, NA, 999, 999, 5, 14, 184, 131, 184, 191, 166, 111, 3, 0.561816
291, 1, bw, attraction, a-b-db, 2, 2, 5, 15, 90, 165, 89, 163, 165, 90, 1, 8.3209
291, 1, bw, attraction, a-b-db, 2, 2, 5, 15, 90, 165, 89, 163, 165, 90, 3, 0.48102
291, 1, bw, attraction, a-b-da, 9, 3, 5, 16, 120, 195, 195, 120, 186, 114, 1, 6.53144
291, 1, bw, attraction, a-b-da, 9, 3, 5, 16, 120, 195, 195, 120, 186, 114, 3, 2.75535
291, 1, bw, attraction, a-b-da, 9, 2, 5, 17, 90, 165, 165, 90, 157, 86, 1, 2.81858
291, 1, bw, attraction, a-b-da, 9, 2, 5, 17, 90, 165, 165, 90, 157, 86, 3, 2.5522
291, 1, bw, filler, NA, 999, 999, 5, 18, 126, 187, 131, 194, 164, 148, 2, 10.9433
291, 1, bw, filler, NA, 999, 999, 5, 18, 126, 187, 131, 194, 164, 148, 3, 0.309231
291, 1, bw, attraction, a-b-db, 14, 3, 5, 19, 195, 120, 111, 181, 120, 195, 1, 3.38231
291, 1, bw, attraction, a-b-db, 14, 3, 5, 19, 195, 120, 111, 181, 120, 195, 2, 1.0053
291, 1, bw, attraction, a-b-db, 2, 3, 5, 20, 195, 120, 119, 193, 120, 195, 1, 1.11494
291, 1, bw, attraction, a-b-db, 2, 3, 5, 20, 195, 120, 119, 193, 120, 195, 3, 1.26124
291, 1, bw, attraction, a-b-da, 14, 3, 5, 21, 195, 120, 120, 195, 181, 111, 1, 5.04018
291, 1, bw, attraction, a-b-da, 14, 3, 5, 21, 195, 120, 120, 195, 181, 111, 2, 0.339864
291, 1, bw, attraction, a-b-db, 14, 2, 5, 22, 83, 153, 165, 90, 90, 165, 3, 2.48431
291, 1, bw, attraction, a-b-db, 14, 2, 5, 22, 83, 153, 165, 90, 90, 165, 2, 1.40762
291, 1, bw, filler, NA, 999, 999, 5, 23, 139, 68, 156, 150, 138, 144, 2, 6.49245
291, 1, bw, filler, NA, 999, 999, 5, 23, 139, 68, 156, 150, 138, 144, 1, 0.581619
291, 1, bw, filler, NA, 999, 999, 5, 24, 153, 104, 116, 186, 137, 108, 1, 3.4201
291, 1, bw, filler, NA, 999, 999, 5, 24, 153, 104, 116, 186, 137, 108, 2, 1.08969
291, 1, bw, filler, NA, 999, 999, 5, 25, 97, 167, 184, 157, 156, 164, 2, 3.15587
291, 1, bw, filler, NA, 999, 999, 5, 25, 97, 167, 184, 157, 156, 164, 1, 0.523507
291, 1, bw, attraction, a-b-db, 5, 3, 5, 26, 195, 120, 117, 190, 120, 195, 3, 12.74
291, 1, bw, attraction, a-b-db, 5, 3, 5, 26, 195, 120, 117, 190, 120, 195, 1, 0.554091
291, 1, bw, attraction, a-b-da, 14, 2, 5, 27, 165, 90, 153, 83, 90, 165, 1, 2.42578
291, 1, bw, attraction, a-b-da, 14, 2, 5, 27, 165, 90, 153, 83, 90, 165, 2, 0.487026
291, 1, bw, attraction, a-b-da, 9, 1, 5, 28, 60, 135, 135, 60, 129, 57, 1, 1.99343
291, 1, bw, attraction, a-b-da, 9, 1, 5, 28, 60, 135, 135, 60, 129, 57, 3, 0.800114
291, 1, bw, catch, NA, 999, 999, 5, 29, 147, 108, 134, 61, 134, 181, 3, 1.61376
291, 1, bw, catch, NA, 999, 999, 5, 29, 147, 108, 134, 61, 134, 181, 2, 0.644038
291, 1, bw, attraction, a-b-db, 5, 1, 5, 30, 58, 132, 60, 135, 135, 60, 2, 1.38374
291, 1, bw, attraction, a-b-db, 5, 1, 5, 30, 58, 132, 60, 135, 135, 60, 3, 0.367348
291, 1, bw, filler, NA, 999, 999, 5, 31, 86, 193, 57, 92, 67, 137, 1, 0.878376
291, 1, bw, filler, NA, 999, 999, 5, 31, 86, 193, 57, 92, 67, 137, 2, 0.434083
291, 1, bw, attraction, a-b-da, 2, 3, 5, 32, 195, 120, 193, 119, 120, 195, 2, 4.89459
291, 1, bw, attraction, a-b-da, 2, 3, 5, 32, 195, 120, 193, 119, 120, 195, 1, 3.19235
291, 1, bw, attraction, a-b-da, 2, 2, 5, 33, 163, 89, 90, 165, 165, 90, 1, 3.46128
291, 1, bw, attraction, a-b-da, 2, 2, 5, 33, 163, 89, 90, 165, 165, 90, 2, 0.440834
291, 1, bw, attraction, a-b-db, 5, 2, 5, 34, 88, 161, 90, 165, 165, 90, 2, 2.38863
291, 1, bw, attraction, a-b-db, 5, 2, 5, 34, 88, 161, 90, 165, 165, 90, 3, 0.923292
291, 1, bw, attraction, a-b-da, 5, 2, 5, 35, 161, 88, 165, 90, 90, 165, 2, 7.78822
291, 1, bw, attraction, a-b-da, 5, 2, 5, 35, 161, 88, 165, 90, 90, 165, 3, 0.273787
291, 1, bw, attraction, a-b-db, 9, 1, 5, 36, 135, 60, 57, 129, 60, 135, 1, 6.03624
291, 1, bw, attraction, a-b-db, 9, 1, 5, 36, 135, 60, 57, 129, 60, 135, 2, 0.464308
291, 1, bw, attraction, a-b-da, 5, 3, 5, 37, 195, 120, 120, 195, 190, 117, 1, 15.1475
291, 1, bw, attraction, a-b-da, 5, 3, 5, 37, 195, 120, 120, 195, 190, 117, 2, 0.960076
291, 1, bw, attraction, a-b-db, 9, 1, 6, 1, 135, 60, 60, 135, 57, 129, 1, 5.35903
291, 1, bw, attraction, a-b-db, 9, 1, 6, 1, 135, 60, 60, 135, 57, 129, 2, 0.933949
291, 1, bw, attraction, a-b-db, 5, 2, 6, 2, 165, 90, 90, 165, 88, 161, 2, 4.98227
291, 1, bw, attraction, a-b-db, 5, 2, 6, 2, 165, 90, 90, 165, 88, 161, 1, 0.48475
291, 1, bw, filler, NA, 999, 999, 6, 3, 185, 159, 96, 164, 70, 100, 1, 1.02318
291, 1, bw, filler, NA, 999, 999, 6, 3, 185, 159, 96, 164, 70, 100, 3, 0.860828
291, 1, bw, catch, NA, 999, 999, 6, 4, 112, 83, 108, 147, 132, 183, 3, 1.05577
291, 1, bw, catch, NA, 999, 999, 6, 4, 112, 83, 108, 147, 132, 183, 1, 1.70021
291, 1, bw, attraction, a-b-db, 14, 2, 6, 5, 83, 153, 90, 165, 165, 90, 2, 6.97358
291, 1, bw, attraction, a-b-db, 14, 2, 6, 5, 83, 153, 90, 165, 165, 90, 1, 2.84333
291, 1, bw, attraction, a-b-db, 2, 2, 6, 6, 165, 90, 89, 163, 90, 165, 1, 3.7904
291, 1, bw, attraction, a-b-db, 2, 2, 6, 6, 165, 90, 89, 163, 90, 165, 3, 1.97256
291, 1, bw, filler, NA, 999, 999, 6, 7, 84, 150, 152, 70, 69, 177, 1, 3.27541
291, 1, bw, filler, NA, 999, 999, 6, 7, 84, 150, 152, 70, 69, 177, 2, 0.982293
291, 1, bw, attraction, a-b-db, 2, 3, 6, 8, 195, 120, 120, 195, 119, 193, 1, 2.26044
291, 1, bw, attraction, a-b-db, 2, 3, 6, 8, 195, 120, 120, 195, 119, 193, 3, 3.1284
291, 1, bw, attraction, a-b-da, 9, 3, 6, 9, 195, 120, 120, 195, 186, 114, 1, 8.82409
291, 1, bw, attraction, a-b-da, 9, 3, 6, 9, 195, 120, 120, 195, 186, 114, 2, 0.275236
291, 1, bw, attraction, a-b-da, 2, 1, 6, 10, 134, 59, 60, 135, 135, 60, 2, 14.7497
291, 1, bw, attraction, a-b-da, 2, 1, 6, 10, 134, 59, 60, 135, 135, 60, 1, 0.626388
291, 1, bw, attraction, a-b-da, 14, 2, 6, 11, 153, 83, 165, 90, 90, 165, 3, 1.87892
291, 1, bw, attraction, a-b-da, 14, 2, 6, 11, 153, 83, 165, 90, 90, 165, 1, 0.794247
291, 1, bw, filler, NA, 999, 999, 6, 12, 57, 96, 103, 129, 185, 144, 3, 1.07191
291, 1, bw, filler, NA, 999, 999, 6, 12, 57, 96, 103, 129, 185, 144, 1, 0.531615
291, 1, bw, attraction, a-b-db, 14, 1, 6, 13, 135, 60, 56, 125, 60, 135, 2, 4.09203
291, 1, bw, attraction, a-b-db, 14, 1, 6, 13, 135, 60, 56, 125, 60, 135, 1, 1.56609
291, 1, bw, attraction, a-b-db, 14, 3, 6, 14, 120, 195, 195, 120, 111, 181, 2, 16.1328
291, 1, bw, attraction, a-b-db, 14, 3, 6, 14, 120, 195, 195, 120, 111, 181, 3, 1.83375
291, 1, bw, attraction, a-b-db, 5, 1, 6, 15, 58, 132, 135, 60, 60, 135, 2, 3.43781
291, 1, bw, attraction, a-b-db, 5, 1, 6, 15, 58, 132, 135, 60, 60, 135, 3, 0.490652
291, 1, bw, attraction, a-b-da, 14, 1, 6, 16, 60, 135, 135, 60, 125, 56, 1, 0.836446
291, 1, bw, attraction, a-b-da, 14, 1, 6, 16, 60, 135, 135, 60, 125, 56, 3, 0.530183
291, 1, bw, attraction, a-b-da, 2, 2, 6, 17, 165, 90, 90, 165, 163, 89, 2, 25.4107
291, 1, bw, attraction, a-b-da, 2, 2, 6, 17, 165, 90, 90, 165, 163, 89, 1, 0.633958
291, 1, bw, attraction, a-b-db, 9, 2, 6, 18, 165, 90, 86, 157, 90, 165, 2, 2.01436
291, 1, bw, attraction, a-b-db, 9, 2, 6, 18, 165, 90, 86, 157, 90, 165, 1, 0.300435
291, 1, bw, attraction, a-b-da, 5, 1, 6, 19, 60, 135, 135, 60, 132, 58, 1, 2.09419
291, 1, bw, attraction, a-b-da, 5, 1, 6, 19, 60, 135, 135, 60, 132, 58, 3, 0.352863
291, 1, bw, attraction, a-b-da, 5, 2, 6, 20, 165, 90, 161, 88, 90, 165, 3, 1.38471
291, 1, bw, attraction, a-b-da, 5, 2, 6, 20, 165, 90, 161, 88, 90, 165, 2, 0.656326
291, 1, bw, catch, NA, 999, 999, 6, 21, 129, 126, 131, 184, 79, 116, 2, 1.17201
291, 1, bw, catch, NA, 999, 999, 6, 21, 129, 126, 131, 184, 79, 116, 3, 0.467575
291, 1, bw, filler, NA, 999, 999, 6, 22, 166, 122, 104, 175, 157, 64, 1, 3.07872
291, 1, bw, filler, NA, 999, 999, 6, 22, 166, 122, 104, 175, 157, 64, 3, 0.993803
291, 1, bw, attraction, a-b-da, 9, 1, 6, 23, 129, 57, 135, 60, 60, 135, 3, 2.54337
291, 1, bw, attraction, a-b-da, 9, 1, 6, 23, 129, 57, 135, 60, 60, 135, 1, 1.54402
291, 1, bw, filler, NA, 999, 999, 6, 24, 94, 161, 176, 160, 73, 58, 2, 0.791464
291, 1, bw, filler, NA, 999, 999, 6, 24, 94, 161, 176, 160, 73, 58, 3, 0.782516
291, 1, bw, attraction, a-b-da, 14, 3, 6, 25, 195, 120, 181, 111, 120, 195, 3, 5.12491
291, 1, bw, attraction, a-b-da, 14, 3, 6, 25, 195, 120, 181, 111, 120, 195, 2, 2.13322
291, 1, bw, attraction, a-b-da, 2, 3, 6, 26, 195, 120, 120, 195, 193, 119, 1, 21.9651
291, 1, bw, attraction, a-b-da, 2, 3, 6, 26, 195, 120, 120, 195, 193, 119, 2, 0.246868
291, 1, bw, attraction, a-b-db, 5, 3, 6, 27, 195, 120, 117, 190, 120, 195, 1, 3.5308
291, 1, bw, attraction, a-b-db, 5, 3, 6, 27, 195, 120, 117, 190, 120, 195, 2, 0.38758
291, 1, bw, filler, NA, 999, 999, 6, 28, 91, 78, 100, 114, 150, 92, 3, 6.37807
291, 1, bw, filler, NA, 999, 999, 6, 28, 91, 78, 100, 114, 150, 92, 1, 0.568044
291, 1, bw, filler, NA, 999, 999, 6, 29, 72, 65, 82, 86, 173, 96, 3, 1.17533
291, 1, bw, filler, NA, 999, 999, 6, 29, 72, 65, 82, 86, 173, 96, 1, 0.454741
291, 1, bw, catch, NA, 999, 999, 6, 30, 111, 84, 148, 167, 141, 114, 2, 1.02677
291, 1, bw, catch, NA, 999, 999, 6, 30, 111, 84, 148, 167, 141, 114, 1, 0.416318
291, 1, bw, attraction, a-b-db, 9, 3, 6, 31, 120, 195, 195, 120, 114, 186, 1, 4.83739
291, 1, bw, attraction, a-b-db, 9, 3, 6, 31, 120, 195, 195, 120, 114, 186, 3, 0.745915
291, 1, bw, filler, NA, 999, 999, 6, 32, 79, 58, 81, 85, 79, 170, 3, 1.52151
291, 1, bw, filler, NA, 999, 999, 6, 32, 79, 58, 81, 85, 79, 170, 1, 1.12368
291, 1, bw, filler, NA, 999, 999, 6, 33, 88, 164, 165, 79, 79, 137, 1, 1.90795
291, 1, bw, filler, NA, 999, 999, 6, 33, 88, 164, 165, 79, 79, 137, 3, 0.43012
291, 1, bw, attraction, a-b-db, 2, 1, 6, 34, 60, 135, 135, 60, 59, 134, 2, 3.17856
291, 1, bw, attraction, a-b-db, 2, 1, 6, 34, 60, 135, 135, 60, 59, 134, 3, 0.433441
291, 1, bw, filler, NA, 999, 999, 6, 35, 63, 87, 118, 145, 97, 89, 2, 0.781905
291, 1, bw, filler, NA, 999, 999, 6, 35, 63, 87, 118, 145, 97, 89, 1, 0.901781
291, 1, bw, attraction, a-b-da, 9, 2, 6, 36, 90, 165, 157, 86, 165, 90, 1, 1.66339
291, 1, bw, attraction, a-b-da, 9, 2, 6, 36, 90, 165, 157, 86, 165, 90, 3, 0.723519
291, 1, bw, attraction, a-b-da, 5, 3, 6, 37, 190, 117, 120, 195, 195, 120, 2, 1.93992
291, 1, bw, attraction, a-b-da, 5, 3, 6, 37, 190, 117, 120, 195, 195, 120, 3, 0.57249
291, 1, bw, catch, NA, 999, 999, 7, 1, 136, 179, 129, 126, 91, 104, 1, 0.987674
291, 1, bw, catch, NA, 999, 999, 7, 1, 136, 179, 129, 126, 91, 104, 3, 0.483352
291, 1, bw, attraction, a-b-db, 9, 2, 7, 2, 165, 90, 90, 165, 86, 157, 3, 1.90176
291, 1, bw, attraction, a-b-db, 9, 2, 7, 2, 165, 90, 90, 165, 86, 157, 1, 0.616517
291, 1, bw, filler, NA, 999, 999, 7, 3, 77, 153, 73, 110, 166, 190, 3, 0.621681
291, 1, bw, filler, NA, 999, 999, 7, 3, 77, 153, 73, 110, 166, 190, 2, 0.803381
291, 1, bw, filler, NA, 999, 999, 7, 4, 181, 133, 139, 114, 167, 136, 1, 1.337
291, 1, bw, filler, NA, 999, 999, 7, 4, 181, 133, 139, 114, 167, 136, 2, 0.410533
291, 1, bw, attraction, a-b-da, 5, 3, 7, 5, 195, 120, 120, 195, 190, 117, 2, 14.0398
291, 1, bw, attraction, a-b-da, 5, 3, 7, 5, 195, 120, 120, 195, 190, 117, 1, 1.40976
291, 1, bw, attraction, a-b-db, 9, 3, 7, 6, 195, 120, 114, 186, 120, 195, 2, 20.6461
291, 1, bw, attraction, a-b-db, 9, 3, 7, 6, 195, 120, 114, 186, 120, 195, 1, 0.837008
291, 1, bw, attraction, a-b-da, 2, 1, 7, 7, 135, 60, 134, 59, 60, 135, 3, 2.40148
291, 1, bw, attraction, a-b-da, 2, 1, 7, 7, 135, 60, 134, 59, 60, 135, 2, 0.487895
291, 1, bw, filler, NA, 999, 999, 7, 8, 192, 94, 138, 95, 131, 183, 3, 3.05043
291, 1, bw, filler, NA, 999, 999, 7, 8, 192, 94, 138, 95, 131, 183, 2, 0.950732
291, 1, bw, filler, NA, 999, 999, 7, 9, 149, 122, 120, 171, 157, 188, 3, 1.39035
291, 1, bw, filler, NA, 999, 999, 7, 9, 149, 122, 120, 171, 157, 188, 1, 0.49325
291, 1, bw, catch, NA, 999, 999, 7, 10, 101, 94, 111, 144, 123, 192, 3, 1.42312
291, 1, bw, catch, NA, 999, 999, 7, 10, 101, 94, 111, 144, 123, 192, 1, 0.908624
291, 1, bw, attraction, a-b-db, 9, 1, 7, 11, 135, 60, 60, 135, 57, 129, 1, 10.6057
291, 1, bw, attraction, a-b-db, 9, 1, 7, 11, 135, 60, 60, 135, 57, 129, 2, 0.385584
291, 1, bw, attraction, a-b-da, 2, 2, 7, 12, 165, 90, 90, 165, 163, 89, 2, 2.26406
291, 1, bw, attraction, a-b-da, 2, 2, 7, 12, 165, 90, 90, 165, 163, 89, 3, 1.36401
291, 1, bw, attraction, a-b-da, 9, 2, 7, 13, 157, 86, 90, 165, 165, 90, 3, 1.50683
291, 1, bw, attraction, a-b-da, 9, 2, 7, 13, 157, 86, 90, 165, 165, 90, 2, 0.677009
291, 1, bw, attraction, a-b-da, 9, 1, 7, 14, 60, 135, 135, 60, 129, 57, 1, 3.15136
291, 1, bw, attraction, a-b-da, 9, 1, 7, 14, 60, 135, 135, 60, 129, 57, 2, 0.359667
291, 1, bw, attraction, a-b-db, 2, 2, 7, 15, 90, 165, 89, 163, 165, 90, 3, 6.51886
291, 1, bw, attraction, a-b-db, 2, 2, 7, 15, 90, 165, 89, 163, 165, 90, 2, 0.559433
291, 1, bw, attraction, a-b-da, 14, 1, 7, 16, 60, 135, 135, 60, 125, 56, 2, 8.4947
291, 1, bw, attraction, a-b-da, 14, 1, 7, 16, 60, 135, 135, 60, 125, 56, 1, 0.623228
291, 1, bw, attraction, a-b-da, 5, 2, 7, 17, 165, 90, 161, 88, 90, 165, 2, 15.9317
291, 1, bw, attraction, a-b-da, 5, 2, 7, 17, 165, 90, 161, 88, 90, 165, 3, 0.568787
291, 1, bw, filler, NA, 999, 999, 7, 18, 179, 68, 76, 190, 74, 191, 2, 4.76786
291, 1, bw, filler, NA, 999, 999, 7, 18, 179, 68, 76, 190, 74, 191, 1, 0.886921
291, 1, bw, attraction, a-b-db, 5, 2, 7, 19, 88, 161, 90, 165, 165, 90, 2, 7.31326
291, 1, bw, attraction, a-b-db, 5, 2, 7, 19, 88, 161, 90, 165, 165, 90, 3, 0.737586
291, 1, bw, attraction, a-b-da, 14, 2, 7, 20, 153, 83, 165, 90, 90, 165, 2, 4.31391
291, 1, bw, attraction, a-b-da, 14, 2, 7, 20, 153, 83, 165, 90, 90, 165, 3, 2.01927
291, 1, bw, attraction, a-b-da, 5, 1, 7, 21, 135, 60, 132, 58, 60, 135, 1, 4.32787
291, 1, bw, attraction, a-b-da, 5, 1, 7, 21, 135, 60, 132, 58, 60, 135, 3, 0.320541
291, 1, bw, attraction, a-b-db, 2, 3, 7, 22, 119, 193, 120, 195, 195, 120, 2, 1.39367
291, 1, bw, attraction, a-b-db, 2, 3, 7, 22, 119, 193, 120, 195, 195, 120, 1, 1.22449
291, 1, bw, filler, NA, 999, 999, 7, 23, 105, 128, 135, 91, 171, 125, 3, 2.78879
291, 1, bw, filler, NA, 999, 999, 7, 23, 105, 128, 135, 91, 171, 125, 2, 1.31516
291, 1, bw, filler, NA, 999, 999, 7, 24, 66, 92, 158, 189, 135, 102, 2, 0.803997
291, 1, bw, filler, NA, 999, 999, 7, 24, 66, 92, 158, 189, 135, 102, 1, 0.579126
291, 1, bw, filler, NA, 999, 999, 7, 25, 151, 133, 84, 166, 80, 97, 1, 0.777515
291, 1, bw, filler, NA, 999, 999, 7, 25, 151, 133, 84, 166, 80, 97, 3, 0.673211
291, 1, bw, attraction, a-b-da, 9, 3, 7, 26, 195, 120, 186, 114, 120, 195, 1, 7.69231
291, 1, bw, attraction, a-b-da, 9, 3, 7, 26, 195, 120, 186, 114, 120, 195, 2, 0.269253
291, 1, bw, attraction, a-b-db, 5, 3, 7, 27, 117, 190, 195, 120, 120, 195, 3, 1.56846
291, 1, bw, attraction, a-b-db, 5, 3, 7, 27, 117, 190, 195, 120, 120, 195, 1, 0.688619
291, 1, bw, attraction, a-b-da, 2, 3, 7, 28, 195, 120, 193, 119, 120, 195, 1, 6.32304
291, 1, bw, attraction, a-b-da, 2, 3, 7, 28, 195, 120, 193, 119, 120, 195, 3, 2.57159
291, 1, bw, attraction, a-b-db, 14, 2, 7, 29, 83, 153, 165, 90, 90, 165, 3, 12.4661
291, 1, bw, attraction, a-b-db, 14, 2, 7, 29, 83, 153, 165, 90, 90, 165, 1, 0.354857
291, 1, bw, attraction, a-b-db, 2, 1, 7, 30, 59, 134, 60, 135, 135, 60, 3, 10.4106
291, 1, bw, attraction, a-b-db, 2, 1, 7, 30, 59, 134, 60, 135, 135, 60, 1, 0.886103
291, 1, bw, attraction, a-b-db, 5, 1, 7, 31, 135, 60, 60, 135, 58, 132, 2, 5.36847
291, 1, bw, attraction, a-b-db, 5, 1, 7, 31, 135, 60, 60, 135, 58, 132, 1, 0.687375
291, 1, bw, catch, NA, 999, 999, 7, 32, 65, 130, 181, 134, 111, 144, 2, 1.43399
291, 1, bw, catch, NA, 999, 999, 7, 32, 65, 130, 181, 134, 111, 144, 3, 0.567413
291, 1, bw, attraction, a-b-db, 14, 3, 7, 33, 120, 195, 195, 120, 111, 181, 1, 2.53439
291, 1, bw, attraction, a-b-db, 14, 3, 7, 33, 120, 195, 195, 120, 111, 181, 3, 1.4716
291, 1, bw, filler, NA, 999, 999, 7, 34, 169, 97, 139, 56, 56, 192, 1, 0.714328
291, 1, bw, filler, NA, 999, 999, 7, 34, 169, 97, 139, 56, 56, 192, 2, 0.668866
291, 1, bw, attraction, a-b-da, 14, 3, 7, 35, 181, 111, 195, 120, 120, 195, 2, 6.83189
291, 1, bw, attraction, a-b-da, 14, 3, 7, 35, 181, 111, 195, 120, 120, 195, 1, 1.3478
291, 1, bw, filler, NA, 999, 999, 7, 36, 115, 79, 77, 97, 125, 139, 3, 0.73922
291, 1, bw, filler, NA, 999, 999, 7, 36, 115, 79, 77, 97, 125, 139, 2, 0.596299
291, 1, bw, attraction, a-b-db, 14, 1, 7, 37, 135, 60, 60, 135, 56, 125, 2, 1.49799
291, 1, bw, attraction, a-b-db, 14, 1, 7, 37, 135, 60, 60, 135, 56, 125, 1, 0.292877
291, 1, bw, attraction, a-b-da, 9, 1, 8, 1, 129, 57, 135, 60, 60, 135, 1, 2.98277
291, 1, bw, attraction, a-b-da, 9, 1, 8, 1, 129, 57, 135, 60, 60, 135, 3, 0.373808
291, 1, bw, attraction, a-b-db, 14, 2, 8, 2, 165, 90, 83, 153, 90, 165, 3, 4.21235
291, 1, bw, attraction, a-b-db, 14, 2, 8, 2, 165, 90, 83, 153, 90, 165, 2, 1.33757
291, 1, bw, attraction, a-b-da, 14, 2, 8, 3, 90, 165, 153, 83, 165, 90, 1, 1.52973
291, 1, bw, attraction, a-b-da, 14, 2, 8, 3, 90, 165, 153, 83, 165, 90, 3, 0.52725
291, 1, bw, attraction, a-b-da, 2, 3, 8, 4, 195, 120, 120, 195, 193, 119, 1, 1.9637
291, 1, bw, attraction, a-b-da, 2, 3, 8, 4, 195, 120, 120, 195, 193, 119, 2, 0.683759
291, 1, bw, filler, NA, 999, 999, 8, 5, 132, 109, 142, 112, 87, 159, 2, 6.13421
291, 1, bw, filler, NA, 999, 999, 8, 5, 132, 109, 142, 112, 87, 159, 3, 0.526165
291, 1, bw, attraction, a-b-db, 2, 1, 8, 6, 59, 134, 135, 60, 60, 135, 3, 2.52666
291, 1, bw, attraction, a-b-db, 2, 1, 8, 6, 59, 134, 135, 60, 60, 135, 2, 0.951838
291, 1, bw, attraction, a-b-db, 14, 3, 8, 7, 195, 120, 111, 181, 120, 195, 1, 2.24749
291, 1, bw, attraction, a-b-db, 14, 3, 8, 7, 195, 120, 111, 181, 120, 195, 2, 0.292085
291, 1, bw, attraction, a-b-db, 9, 1, 8, 8, 135, 60, 57, 129, 60, 135, 1, 1.15805
291, 1, bw, attraction, a-b-db, 9, 1, 8, 8, 135, 60, 57, 129, 60, 135, 2, 0.182231
291, 1, bw, attraction, a-b-db, 9, 3, 8, 9, 195, 120, 120, 195, 114, 186, 1, 4.47679
291, 1, bw, attraction, a-b-db, 9, 3, 8, 9, 195, 120, 120, 195, 114, 186, 2, 0.527312
291, 1, bw, filler, NA, 999, 999, 8, 10, 194, 187, 127, 93, 79, 150, 1, 0.783822
291, 1, bw, filler, NA, 999, 999, 8, 10, 194, 187, 127, 93, 79, 150, 2, 0.863497
291, 1, bw, attraction, a-b-da, 14, 1, 8, 11, 60, 135, 135, 60, 125, 56, 1, 4.12255
291, 1, bw, attraction, a-b-da, 14, 1, 8, 11, 60, 135, 135, 60, 125, 56, 3, 1.09928
291, 1, bw, catch, NA, 999, 999, 8, 12, 171, 144, 118, 77, 96, 159, 1, 3.64484
291, 1, bw, catch, NA, 999, 999, 8, 12, 171, 144, 118, 77, 96, 159, 2, 0.416905
291, 1, bw, filler, NA, 999, 999, 8, 13, 65, 85, 179, 129, 87, 107, 2, 1.31009
291, 1, bw, filler, NA, 999, 999, 8, 13, 65, 85, 179, 129, 87, 107, 1, 0.512363
291, 1, bw, attraction, a-b-da, 5, 2, 8, 14, 165, 90, 161, 88, 90, 165, 1, 7.20953
291, 1, bw, attraction, a-b-da, 5, 2, 8, 14, 165, 90, 161, 88, 90, 165, 2, 0.221905
291, 1, bw, filler, NA, 999, 999, 8, 15, 142, 180, 110, 65, 176, 84, 1, 2.88302
291, 1, bw, filler, NA, 999, 999, 8, 15, 142, 180, 110, 65, 176, 84, 2, 0.654143
291, 1, bw, attraction, a-b-db, 2, 3, 8, 16, 195, 120, 120, 195, 119, 193, 1, 4.67405
291, 1, bw, attraction, a-b-db, 2, 3, 8, 16, 195, 120, 120, 195, 119, 193, 2, 0.356367
291, 1, bw, filler, NA, 999, 999, 8, 17, 100, 72, 58, 175, 101, 123, 3, 2.65215
291, 1, bw, filler, NA, 999, 999, 8, 17, 100, 72, 58, 175, 101, 123, 1, 0.704805
291, 1, bw, filler, NA, 999, 999, 8, 18, 129, 127, 132, 135, 65, 111, 1, 4.0904
291, 1, bw, filler, NA, 999, 999, 8, 18, 129, 127, 132, 135, 65, 111, 3, 0.404489
291, 1, bw, attraction, a-b-db, 5, 2, 8, 19, 90, 165, 165, 90, 88, 161, 1, 8.09075
291, 1, bw, attraction, a-b-db, 5, 2, 8, 19, 90, 165, 165, 90, 88, 161, 2, 0.499172
291, 1, bw, filler, NA, 999, 999, 8, 20, 97, 102, 138, 173, 152, 140, 2, 0.772909
291, 1, bw, filler, NA, 999, 999, 8, 20, 97, 102, 138, 173, 152, 140, 1, 0.396607
291, 1, bw, filler, NA, 999, 999, 8, 21, 99, 156, 171, 160, 57, 106, 2, 1.21038
291, 1, bw, filler, NA, 999, 999, 8, 21, 99, 156, 171, 160, 57, 106, 3, 0.288634
291, 1, bw, filler, NA, 999, 999, 8, 22, 111, 156, 67, 98, 161, 66, 1, 1.12315
291, 1, bw, filler, NA, 999, 999, 8, 22, 111, 156, 67, 98, 161, 66, 2, 0.604793
291, 1, bw, attraction, a-b-db, 5, 1, 8, 23, 60, 135, 135, 60, 58, 132, 2, 5.17067
291, 1, bw, attraction, a-b-db, 5, 1, 8, 23, 60, 135, 135, 60, 58, 132, 3, 0.689637
291, 1, bw, attraction, a-b-da, 2, 1, 8, 24, 134, 59, 135, 60, 60, 135, 3, 2.42792
291, 1, bw, attraction, a-b-da, 2, 1, 8, 24, 134, 59, 135, 60, 60, 135, 1, 0.449137
291, 1, bw, attraction, a-b-da, 14, 3, 8, 25, 181, 111, 120, 195, 195, 120, 2, 1.80491
291, 1, bw, attraction, a-b-da, 14, 3, 8, 25, 181, 111, 120, 195, 195, 120, 1, 0.635786
291, 1, bw, catch, NA, 999, 999, 8, 26, 102, 93, 165, 90, 140, 175, 3, 0.784066
291, 1, bw, catch, NA, 999, 999, 8, 26, 102, 93, 165, 90, 140, 175, 1, 0.391785
291, 1, bw, attraction, a-b-da, 9, 3, 8, 27, 120, 195, 195, 120, 186, 114, 1, 2.08562
291, 1, bw, attraction, a-b-da, 9, 3, 8, 27, 120, 195, 195, 120, 186, 114, 3, 0.784967
291, 1, bw, attraction, a-b-db, 2, 2, 8, 28, 90, 165, 165, 90, 89, 163, 1, 4.24741
291, 1, bw, attraction, a-b-db, 2, 2, 8, 28, 90, 165, 165, 90, 89, 163, 2, 0.459307
291, 1, bw, attraction, a-b-da, 2, 2, 8, 29, 90, 165, 165, 90, 163, 89, 2, 3.1424
291, 1, bw, attraction, a-b-da, 2, 2, 8, 29, 90, 165, 165, 90, 163, 89, 1, 0.646864
291, 1, bw, attraction, a-b-da, 5, 1, 8, 30, 60, 135, 135, 60, 132, 58, 1, 4.50674
291, 1, bw, attraction, a-b-da, 5, 1, 8, 30, 60, 135, 135, 60, 132, 58, 2, 0.227691
291, 1, bw, attraction, a-b-db, 5, 3, 8, 31, 195, 120, 117, 190, 120, 195, 2, 2.64032
291, 1, bw, attraction, a-b-db, 5, 3, 8, 31, 195, 120, 117, 190, 120, 195, 1, 0.876783
291, 1, bw, attraction, a-b-db, 9, 2, 8, 32, 90, 165, 86, 157, 165, 90, 2, 0.948195
291, 1, bw, attraction, a-b-db, 9, 2, 8, 32, 90, 165, 86, 157, 165, 90, 3, 0.608145
291, 1, bw, filler, NA, 999, 999, 8, 33, 174, 175, 67, 193, 178, 102, 1, 0.821251
291, 1, bw, filler, NA, 999, 999, 8, 33, 174, 175, 67, 193, 178, 102, 2, 0.70686
291, 1, bw, attraction, a-b-db, 14, 1, 8, 34, 135, 60, 60, 135, 56, 125, 1, 3.37885
291, 1, bw, attraction, a-b-db, 14, 1, 8, 34, 135, 60, 60, 135, 56, 125, 3, 0.290874
291, 1, bw, attraction, a-b-da, 9, 2, 8, 35, 157, 86, 165, 90, 90, 165, 3, 3.02877
291, 1, bw, attraction, a-b-da, 9, 2, 8, 35, 157, 86, 165, 90, 90, 165, 1, 0.705772
291, 1, bw, catch, NA, 999, 999, 8, 36, 94, 161, 191, 124, 83, 112, 2, 1.50745
291, 1, bw, catch, NA, 999, 999, 8, 36, 94, 161, 191, 124, 83, 112, 3, 0.37365
291, 1, bw, attraction, a-b-da, 5, 3, 8, 37, 120, 195, 190, 117, 195, 120, 1, 2.60415
291, 1, bw, attraction, a-b-da, 5, 3, 8, 37, 120, 195, 190, 117, 195, 120, 3, 0.362561
