sub_n, computer_n, bw_cond, effect, set, distance, diag, block_n, trial_n, h1, w1, h2, w2, h3, w3, choice, rt 
254, 1, wb, practice, NA, 999, 999, 0, 1, 83, 123, 80, 165, 176, 61, 1, 7.23229
254, 1, wb, practice, NA, 999, 999, 0, 1, 83, 123, 80, 165, 176, 61, 2, 1.95676
254, 1, wb, practice, NA, 999, 999, 0, 2, 88, 61, 181, 96, 63, 184, 1, 2.74519
254, 1, wb, practice, NA, 999, 999, 0, 2, 88, 61, 181, 96, 63, 184, 2, 1.34356
254, 1, wb, practice, NA, 999, 999, 0, 3, 131, 65, 81, 65, 149, 189, 2, 2.21157
254, 1, wb, practice, NA, 999, 999, 0, 3, 131, 65, 81, 65, 149, 189, 3, 1.13191
254, 1, wb, filler, NA, 999, 999, 1, 1, 116, 160, 147, 191, 172, 86, 3, 1.88729
254, 1, wb, filler, NA, 999, 999, 1, 1, 116, 160, 147, 191, 172, 86, 2, 1.48205
254, 1, wb, attraction, a-b-da, 5, 1, 1, 2, 60, 135, 135, 60, 132, 58, 3, 5.32437
254, 1, wb, attraction, a-b-da, 5, 1, 1, 2, 60, 135, 135, 60, 132, 58, 1, 0.932488
254, 1, wb, catch, NA, 999, 999, 1, 3, 193, 122, 121, 74, 112, 143, 2, 2.62075
254, 1, wb, catch, NA, 999, 999, 1, 3, 193, 122, 121, 74, 112, 143, 1, 1.05054
254, 1, wb, filler, NA, 999, 999, 1, 4, 102, 71, 84, 66, 148, 125, 2, 2.85441
254, 1, wb, filler, NA, 999, 999, 1, 4, 102, 71, 84, 66, 148, 125, 3, 0.858567
254, 1, wb, filler, NA, 999, 999, 1, 5, 130, 155, 117, 89, 167, 129, 2, 3.68575
254, 1, wb, filler, NA, 999, 999, 1, 5, 130, 155, 117, 89, 167, 129, 3, 1.16105
254, 1, wb, attraction, a-b-db, 5, 1, 1, 6, 135, 60, 58, 132, 60, 135, 1, 3.16735
254, 1, wb, attraction, a-b-db, 5, 1, 1, 6, 135, 60, 58, 132, 60, 135, 2, 1.16698
254, 1, wb, attraction, a-b-db, 9, 2, 1, 7, 86, 157, 165, 90, 90, 165, 1, 3.798
254, 1, wb, attraction, a-b-db, 9, 2, 1, 7, 86, 157, 165, 90, 90, 165, 3, 0.916186
254, 1, wb, attraction, a-b-db, 9, 3, 1, 8, 114, 186, 120, 195, 195, 120, 3, 4.98122
254, 1, wb, attraction, a-b-db, 9, 3, 1, 8, 114, 186, 120, 195, 195, 120, 2, 0.891481
254, 1, wb, filler, NA, 999, 999, 1, 9, 171, 78, 117, 88, 169, 71, 3, 3.54916
254, 1, wb, filler, NA, 999, 999, 1, 9, 171, 78, 117, 88, 169, 71, 2, 0.861425
254, 1, wb, filler, NA, 999, 999, 1, 10, 74, 195, 165, 60, 179, 57, 3, 1.7685
254, 1, wb, filler, NA, 999, 999, 1, 10, 74, 195, 165, 60, 179, 57, 1, 0.688488
254, 1, wb, attraction, a-b-da, 14, 1, 1, 11, 125, 56, 135, 60, 60, 135, 1, 1.73089
254, 1, wb, attraction, a-b-da, 14, 1, 1, 11, 125, 56, 135, 60, 60, 135, 2, 0.884236
254, 1, wb, attraction, a-b-db, 9, 1, 1, 12, 57, 129, 60, 135, 135, 60, 1, 1.71062
254, 1, wb, attraction, a-b-db, 9, 1, 1, 12, 57, 129, 60, 135, 135, 60, 2, 0.608714
254, 1, wb, attraction, a-b-db, 14, 3, 1, 13, 195, 120, 120, 195, 111, 181, 3, 2.13381
254, 1, wb, attraction, a-b-db, 14, 3, 1, 13, 195, 120, 120, 195, 111, 181, 2, 0.575174
254, 1, wb, attraction, a-b-db, 14, 1, 1, 14, 60, 135, 56, 125, 135, 60, 2, 2.71759
254, 1, wb, attraction, a-b-db, 14, 1, 1, 14, 60, 135, 56, 125, 135, 60, 3, 2.11139
254, 1, wb, attraction, a-b-da, 2, 2, 1, 15, 165, 90, 90, 165, 163, 89, 3, 2.90393
254, 1, wb, attraction, a-b-da, 2, 2, 1, 15, 165, 90, 90, 165, 163, 89, 2, 1.30644
254, 1, wb, attraction, a-b-db, 2, 2, 1, 16, 89, 163, 165, 90, 90, 165, 3, 2.74784
254, 1, wb, attraction, a-b-db, 2, 2, 1, 16, 89, 163, 165, 90, 90, 165, 2, 1.30843
254, 1, wb, attraction, a-b-db, 5, 2, 1, 17, 165, 90, 90, 165, 88, 161, 1, 1.94914
254, 1, wb, attraction, a-b-db, 5, 2, 1, 17, 165, 90, 90, 165, 88, 161, 2, 0.598032
254, 1, wb, catch, NA, 999, 999, 1, 18, 159, 96, 138, 177, 110, 85, 3, 1.07559
254, 1, wb, catch, NA, 999, 999, 1, 18, 159, 96, 138, 177, 110, 85, 2, 0.823318
254, 1, wb, attraction, a-b-da, 9, 1, 1, 19, 135, 60, 129, 57, 60, 135, 2, 1.71632
254, 1, wb, attraction, a-b-da, 9, 1, 1, 19, 135, 60, 129, 57, 60, 135, 3, 0.7185
254, 1, wb, attraction, a-b-da, 5, 3, 1, 20, 190, 117, 120, 195, 195, 120, 1, 2.87152
254, 1, wb, attraction, a-b-da, 5, 3, 1, 20, 190, 117, 120, 195, 195, 120, 2, 0.579098
254, 1, wb, attraction, a-b-da, 5, 2, 1, 21, 161, 88, 90, 165, 165, 90, 1, 2.90552
254, 1, wb, attraction, a-b-da, 5, 2, 1, 21, 161, 88, 90, 165, 165, 90, 2, 0.819297
254, 1, wb, attraction, a-b-db, 14, 2, 1, 22, 90, 165, 83, 153, 165, 90, 2, 2.85641
254, 1, wb, attraction, a-b-db, 14, 2, 1, 22, 90, 165, 83, 153, 165, 90, 1, 0.972043
254, 1, wb, filler, NA, 999, 999, 1, 23, 116, 81, 186, 77, 116, 171, 1, 1.68313
254, 1, wb, filler, NA, 999, 999, 1, 23, 116, 81, 186, 77, 116, 171, 3, 0.646742
254, 1, wb, attraction, a-b-da, 2, 1, 1, 24, 60, 135, 134, 59, 135, 60, 2, 2.83422
254, 1, wb, attraction, a-b-da, 2, 1, 1, 24, 60, 135, 134, 59, 135, 60, 3, 0.751368
254, 1, wb, catch, NA, 999, 999, 1, 25, 144, 171, 132, 123, 126, 69, 3, 3.56712
254, 1, wb, catch, NA, 999, 999, 1, 25, 144, 171, 132, 123, 126, 69, 1, 0.838558
254, 1, wb, attraction, a-b-da, 14, 2, 1, 26, 90, 165, 153, 83, 165, 90, 2, 2.55489
254, 1, wb, attraction, a-b-da, 14, 2, 1, 26, 90, 165, 153, 83, 165, 90, 1, 0.850807
254, 1, wb, filler, NA, 999, 999, 1, 27, 93, 95, 139, 140, 65, 189, 3, 2.14239
254, 1, wb, filler, NA, 999, 999, 1, 27, 93, 95, 139, 140, 65, 189, 2, 0.511143
254, 1, wb, filler, NA, 999, 999, 1, 28, 137, 170, 137, 191, 80, 71, 3, 1.32025
254, 1, wb, filler, NA, 999, 999, 1, 28, 137, 170, 137, 191, 80, 71, 2, 1.37858
254, 1, wb, attraction, a-b-da, 9, 3, 1, 29, 120, 195, 186, 114, 195, 120, 2, 2.74462
254, 1, wb, attraction, a-b-da, 9, 3, 1, 29, 120, 195, 186, 114, 195, 120, 1, 0.777059
254, 1, wb, attraction, a-b-da, 2, 3, 1, 30, 193, 119, 120, 195, 195, 120, 3, 2.8475
254, 1, wb, attraction, a-b-da, 2, 3, 1, 30, 193, 119, 120, 195, 195, 120, 2, 0.451858
254, 1, wb, attraction, a-b-db, 2, 1, 1, 31, 60, 135, 59, 134, 135, 60, 2, 6.15961
254, 1, wb, attraction, a-b-db, 2, 1, 1, 31, 60, 135, 59, 134, 135, 60, 1, 1.15032
254, 1, wb, attraction, a-b-db, 2, 3, 1, 32, 119, 193, 120, 195, 195, 120, 3, 1.78205
254, 1, wb, attraction, a-b-db, 2, 3, 1, 32, 119, 193, 120, 195, 195, 120, 2, 2.78146
254, 1, wb, filler, NA, 999, 999, 1, 33, 65, 162, 76, 90, 188, 126, 2, 0.907129
254, 1, wb, filler, NA, 999, 999, 1, 33, 65, 162, 76, 90, 188, 126, 3, 0.509443
254, 1, wb, filler, NA, 999, 999, 1, 34, 69, 115, 195, 150, 62, 157, 1, 1.47054
254, 1, wb, filler, NA, 999, 999, 1, 34, 69, 115, 195, 150, 62, 157, 2, 0.738851
254, 1, wb, attraction, a-b-da, 9, 2, 1, 35, 157, 86, 165, 90, 90, 165, 1, 2.88317
254, 1, wb, attraction, a-b-da, 9, 2, 1, 35, 157, 86, 165, 90, 90, 165, 3, 0.95019
254, 1, wb, attraction, a-b-da, 14, 3, 1, 36, 181, 111, 120, 195, 195, 120, 1, 4.42181
254, 1, wb, attraction, a-b-da, 14, 3, 1, 36, 181, 111, 120, 195, 195, 120, 2, 1.11524
254, 1, wb, attraction, a-b-db, 5, 3, 1, 37, 117, 190, 120, 195, 195, 120, 3, 1.4121
254, 1, wb, attraction, a-b-db, 5, 3, 1, 37, 117, 190, 120, 195, 195, 120, 2, 0.514452
254, 1, wb, attraction, a-b-da, 14, 2, 2, 1, 153, 83, 165, 90, 90, 165, 1, 1.06736
254, 1, wb, attraction, a-b-da, 14, 2, 2, 1, 153, 83, 165, 90, 90, 165, 2, 0.519735
254, 1, wb, attraction, a-b-da, 9, 3, 2, 2, 195, 120, 186, 114, 120, 195, 3, 1.36071
254, 1, wb, attraction, a-b-da, 9, 3, 2, 2, 195, 120, 186, 114, 120, 195, 1, 2.72906
254, 1, wb, attraction, a-b-db, 5, 3, 2, 3, 120, 195, 195, 120, 117, 190, 2, 1.68869
254, 1, wb, attraction, a-b-db, 5, 3, 2, 3, 120, 195, 195, 120, 117, 190, 1, 0.635529
254, 1, wb, attraction, a-b-db, 14, 3, 2, 4, 195, 120, 120, 195, 111, 181, 3, 3.96808
254, 1, wb, attraction, a-b-db, 14, 3, 2, 4, 195, 120, 120, 195, 111, 181, 2, 1.31129
254, 1, wb, attraction, a-b-db, 14, 2, 2, 5, 90, 165, 165, 90, 83, 153, 3, 1.16031
254, 1, wb, attraction, a-b-db, 14, 2, 2, 5, 90, 165, 165, 90, 83, 153, 1, 0.504579
254, 1, wb, attraction, a-b-da, 5, 1, 2, 6, 132, 58, 135, 60, 60, 135, 3, 2.53832
254, 1, wb, attraction, a-b-da, 5, 1, 2, 6, 132, 58, 135, 60, 60, 135, 1, 0.947502
254, 1, wb, filler, NA, 999, 999, 2, 7, 174, 169, 106, 189, 175, 138, 2, 1.76325
254, 1, wb, filler, NA, 999, 999, 2, 7, 174, 169, 106, 189, 175, 138, 1, 0.483147
254, 1, wb, catch, NA, 999, 999, 2, 8, 139, 116, 172, 143, 69, 126, 3, 1.26165
254, 1, wb, catch, NA, 999, 999, 2, 8, 139, 116, 172, 143, 69, 126, 2, 0.345866
254, 1, wb, attraction, a-b-db, 9, 2, 2, 9, 86, 157, 165, 90, 90, 165, 1, 2.0738
254, 1, wb, attraction, a-b-db, 9, 2, 2, 9, 86, 157, 165, 90, 90, 165, 3, 1.39713
254, 1, wb, attraction, a-b-db, 9, 3, 2, 10, 120, 195, 114, 186, 195, 120, 3, 2.05851
254, 1, wb, attraction, a-b-db, 9, 3, 2, 10, 120, 195, 114, 186, 195, 120, 2, 0.846524
254, 1, wb, attraction, a-b-da, 2, 2, 2, 11, 163, 89, 165, 90, 90, 165, 1, 1.97022
254, 1, wb, attraction, a-b-da, 2, 2, 2, 11, 163, 89, 165, 90, 90, 165, 2, 0.618238
254, 1, wb, catch, NA, 999, 999, 2, 12, 194, 121, 65, 130, 102, 153, 2, 0.967291
254, 1, wb, catch, NA, 999, 999, 2, 12, 194, 121, 65, 130, 102, 153, 1, 0.583765
254, 1, wb, filler, NA, 999, 999, 2, 13, 150, 84, 120, 59, 167, 126, 2, 0.894175
254, 1, wb, filler, NA, 999, 999, 2, 13, 150, 84, 120, 59, 167, 126, 3, 0.465141
254, 1, wb, attraction, a-b-db, 14, 1, 2, 14, 56, 125, 135, 60, 60, 135, 1, 1.29226
254, 1, wb, attraction, a-b-db, 14, 1, 2, 14, 56, 125, 135, 60, 60, 135, 3, 2.24718
254, 1, wb, attraction, a-b-da, 14, 3, 2, 15, 181, 111, 195, 120, 120, 195, 1, 1.89041
254, 1, wb, attraction, a-b-da, 14, 3, 2, 15, 181, 111, 195, 120, 120, 195, 2, 1.48512
254, 1, wb, filler, NA, 999, 999, 2, 16, 123, 110, 61, 65, 185, 114, 2, 0.951325
254, 1, wb, filler, NA, 999, 999, 2, 16, 123, 110, 61, 65, 185, 114, 3, 0.544406
254, 1, wb, attraction, a-b-da, 9, 2, 2, 17, 165, 90, 90, 165, 157, 86, 1, 2.39996
254, 1, wb, attraction, a-b-da, 9, 2, 2, 17, 165, 90, 90, 165, 157, 86, 2, 0.406554
254, 1, wb, attraction, a-b-db, 2, 1, 2, 18, 135, 60, 59, 134, 60, 135, 1, 1.0677
254, 1, wb, attraction, a-b-db, 2, 1, 2, 18, 135, 60, 59, 134, 60, 135, 3, 0.959993
254, 1, wb, attraction, a-b-da, 14, 1, 2, 19, 125, 56, 60, 135, 135, 60, 1, 1.07096
254, 1, wb, attraction, a-b-da, 14, 1, 2, 19, 125, 56, 60, 135, 135, 60, 2, 0.60329
254, 1, wb, attraction, a-b-da, 2, 3, 2, 20, 120, 195, 195, 120, 193, 119, 3, 1.75312
254, 1, wb, attraction, a-b-da, 2, 3, 2, 20, 120, 195, 195, 120, 193, 119, 1, 1.20982
254, 1, wb, attraction, a-b-db, 2, 3, 2, 21, 119, 193, 195, 120, 120, 195, 2, 2.21471
254, 1, wb, attraction, a-b-db, 2, 3, 2, 21, 119, 193, 195, 120, 120, 195, 3, 2.38072
254, 1, wb, filler, NA, 999, 999, 2, 22, 141, 120, 192, 168, 113, 70, 3, 1.68256
254, 1, wb, filler, NA, 999, 999, 2, 22, 141, 120, 192, 168, 113, 70, 2, 0.357952
254, 1, wb, filler, NA, 999, 999, 2, 23, 68, 93, 118, 112, 178, 100, 1, 1.04511
254, 1, wb, filler, NA, 999, 999, 2, 23, 68, 93, 118, 112, 178, 100, 3, 1.84213
254, 1, wb, filler, NA, 999, 999, 2, 24, 117, 86, 135, 58, 68, 159, 2, 1.16556
254, 1, wb, filler, NA, 999, 999, 2, 24, 117, 86, 135, 58, 68, 159, 1, 0.637728
254, 1, wb, attraction, a-b-da, 2, 1, 2, 25, 60, 135, 134, 59, 135, 60, 3, 3.83419
254, 1, wb, attraction, a-b-da, 2, 1, 2, 25, 60, 135, 134, 59, 135, 60, 2, 2.5749
254, 1, wb, attraction, a-b-db, 9, 1, 2, 26, 135, 60, 60, 135, 57, 129, 3, 0.940772
254, 1, wb, attraction, a-b-db, 9, 1, 2, 26, 135, 60, 60, 135, 57, 129, 2, 0.773726
254, 1, wb, filler, NA, 999, 999, 2, 27, 142, 76, 136, 115, 113, 126, 1, 1.72412
254, 1, wb, filler, NA, 999, 999, 2, 27, 142, 76, 136, 115, 113, 126, 2, 1.00556
254, 1, wb, filler, NA, 999, 999, 2, 28, 87, 155, 145, 130, 126, 133, 1, 1.69923
254, 1, wb, filler, NA, 999, 999, 2, 28, 87, 155, 145, 130, 126, 133, 2, 1.44601
254, 1, wb, attraction, a-b-da, 5, 2, 2, 29, 161, 88, 90, 165, 165, 90, 1, 1.00942
254, 1, wb, attraction, a-b-da, 5, 2, 2, 29, 161, 88, 90, 165, 165, 90, 2, 0.791962
254, 1, wb, attraction, a-b-db, 5, 2, 2, 30, 90, 165, 88, 161, 165, 90, 3, 1.59752
254, 1, wb, attraction, a-b-db, 5, 2, 2, 30, 90, 165, 88, 161, 165, 90, 2, 0.636198
254, 1, wb, catch, NA, 999, 999, 2, 31, 111, 84, 189, 126, 123, 132, 1, 0.776795
254, 1, wb, catch, NA, 999, 999, 2, 31, 111, 84, 189, 126, 123, 132, 2, 0.352544
254, 1, wb, attraction, a-b-da, 9, 1, 2, 32, 60, 135, 135, 60, 129, 57, 1, 1.24827
254, 1, wb, attraction, a-b-da, 9, 1, 2, 32, 60, 135, 135, 60, 129, 57, 3, 0.629206
254, 1, wb, attraction, a-b-da, 5, 3, 2, 33, 120, 195, 190, 117, 195, 120, 1, 2.59357
254, 1, wb, attraction, a-b-da, 5, 3, 2, 33, 120, 195, 190, 117, 195, 120, 3, 1.28818
254, 1, wb, filler, NA, 999, 999, 2, 34, 189, 181, 133, 102, 177, 171, 2, 1.07425
254, 1, wb, filler, NA, 999, 999, 2, 34, 189, 181, 133, 102, 177, 171, 1, 0.517923
254, 1, wb, attraction, a-b-db, 2, 2, 2, 35, 89, 163, 165, 90, 90, 165, 2, 3.63904
254, 1, wb, attraction, a-b-db, 2, 2, 2, 35, 89, 163, 165, 90, 90, 165, 3, 0.499252
254, 1, wb, filler, NA, 999, 999, 2, 36, 97, 155, 188, 131, 111, 154, 1, 3.98095
254, 1, wb, filler, NA, 999, 999, 2, 36, 97, 155, 188, 131, 111, 154, 2, 2.9477
254, 1, wb, attraction, a-b-db, 5, 1, 2, 37, 135, 60, 60, 135, 58, 132, 1, 1.32274
254, 1, wb, attraction, a-b-db, 5, 1, 2, 37, 135, 60, 60, 135, 58, 132, 2, 0.420258
254, 1, wb, attraction, a-b-db, 14, 2, 3, 1, 90, 165, 165, 90, 83, 153, 1, 2.65739
254, 1, wb, attraction, a-b-db, 14, 2, 3, 1, 90, 165, 165, 90, 83, 153, 2, 0.357468
254, 1, wb, filler, NA, 999, 999, 3, 2, 173, 68, 179, 154, 128, 181, 1, 0.756393
254, 1, wb, filler, NA, 999, 999, 3, 2, 173, 68, 179, 154, 128, 181, 2, 0.292921
254, 1, wb, catch, NA, 999, 999, 3, 3, 70, 125, 165, 90, 185, 130, 1, 0.550663
254, 1, wb, catch, NA, 999, 999, 3, 3, 70, 125, 165, 90, 185, 130, 3, 0.367777
254, 1, wb, catch, NA, 999, 999, 3, 4, 93, 102, 135, 180, 156, 99, 1, 0.598924
254, 1, wb, catch, NA, 999, 999, 3, 4, 93, 102, 135, 180, 156, 99, 2, 0.318009
254, 1, wb, attraction, a-b-db, 2, 1, 3, 5, 59, 134, 135, 60, 60, 135, 1, 0.759162
254, 1, wb, attraction, a-b-db, 2, 1, 3, 5, 59, 134, 135, 60, 60, 135, 2, 0.455613
254, 1, wb, attraction, a-b-db, 2, 3, 3, 6, 120, 195, 119, 193, 195, 120, 3, 2.80344
254, 1, wb, attraction, a-b-db, 2, 3, 3, 6, 120, 195, 119, 193, 195, 120, 2, 2.76996
254, 1, wb, attraction, a-b-db, 9, 2, 3, 7, 165, 90, 86, 157, 90, 165, 2, 2.02423
254, 1, wb, attraction, a-b-db, 9, 2, 3, 7, 165, 90, 86, 157, 90, 165, 3, 0.373746
254, 1, wb, filler, NA, 999, 999, 3, 8, 151, 70, 184, 114, 167, 103, 1, 0.964118
254, 1, wb, filler, NA, 999, 999, 3, 8, 151, 70, 184, 114, 167, 103, 2, 0.372469
254, 1, wb, attraction, a-b-da, 14, 1, 3, 9, 60, 135, 125, 56, 135, 60, 2, 1.83565
254, 1, wb, attraction, a-b-da, 14, 1, 3, 9, 60, 135, 125, 56, 135, 60, 1, 0.474569
254, 1, wb, filler, NA, 999, 999, 3, 10, 95, 160, 59, 166, 127, 151, 2, 1.01154
254, 1, wb, filler, NA, 999, 999, 3, 10, 95, 160, 59, 166, 127, 151, 3, 0.377793
254, 1, wb, attraction, a-b-db, 14, 3, 3, 11, 120, 195, 111, 181, 195, 120, 3, 4.35236
254, 1, wb, attraction, a-b-db, 14, 3, 3, 11, 120, 195, 111, 181, 195, 120, 1, 0.528183
254, 1, wb, attraction, a-b-da, 2, 3, 3, 12, 195, 120, 120, 195, 193, 119, 1, 2.76075
254, 1, wb, attraction, a-b-da, 2, 3, 3, 12, 195, 120, 120, 195, 193, 119, 3, 0.792404
254, 1, wb, filler, NA, 999, 999, 3, 13, 59, 78, 169, 159, 174, 64, 1, 0.886194
254, 1, wb, filler, NA, 999, 999, 3, 13, 59, 78, 169, 159, 174, 64, 2, 0.265889
254, 1, wb, attraction, a-b-da, 14, 2, 3, 14, 165, 90, 153, 83, 90, 165, 2, 1.96505
254, 1, wb, attraction, a-b-da, 14, 2, 3, 14, 165, 90, 153, 83, 90, 165, 3, 0.725161
254, 1, wb, filler, NA, 999, 999, 3, 15, 99, 150, 152, 127, 128, 117, 3, 2.77349
254, 1, wb, filler, NA, 999, 999, 3, 15, 99, 150, 152, 127, 128, 117, 2, 0.316514
254, 1, wb, attraction, a-b-da, 9, 1, 3, 16, 60, 135, 135, 60, 129, 57, 3, 1.15781
254, 1, wb, attraction, a-b-da, 9, 1, 3, 16, 60, 135, 135, 60, 129, 57, 1, 1.36605
254, 1, wb, attraction, a-b-db, 9, 1, 3, 17, 57, 129, 60, 135, 135, 60, 3, 1.15692
254, 1, wb, attraction, a-b-db, 9, 1, 3, 17, 57, 129, 60, 135, 135, 60, 2, 0.413187
254, 1, wb, attraction, a-b-da, 9, 2, 3, 18, 165, 90, 90, 165, 157, 86, 3, 1.4582
254, 1, wb, attraction, a-b-da, 9, 2, 3, 18, 165, 90, 90, 165, 157, 86, 1, 0.606445
254, 1, wb, attraction, a-b-db, 14, 1, 3, 19, 60, 135, 135, 60, 56, 125, 2, 1.33218
254, 1, wb, attraction, a-b-db, 14, 1, 3, 19, 60, 135, 135, 60, 56, 125, 1, 0.461809
254, 1, wb, attraction, a-b-db, 5, 1, 3, 20, 60, 135, 58, 132, 135, 60, 3, 1.03282
254, 1, wb, attraction, a-b-db, 5, 1, 3, 20, 60, 135, 58, 132, 135, 60, 2, 0.390512
254, 1, wb, catch, NA, 999, 999, 3, 21, 112, 83, 145, 170, 99, 156, 1, 0.732293
254, 1, wb, catch, NA, 999, 999, 3, 21, 112, 83, 145, 170, 99, 156, 2, 0.270126
254, 1, wb, filler, NA, 999, 999, 3, 22, 82, 126, 123, 80, 72, 123, 3, 2.06533
254, 1, wb, filler, NA, 999, 999, 3, 22, 82, 126, 123, 80, 72, 123, 1, 0.389353
254, 1, wb, attraction, a-b-da, 2, 2, 3, 23, 165, 90, 163, 89, 90, 165, 1, 2.68376
254, 1, wb, attraction, a-b-da, 2, 2, 3, 23, 165, 90, 163, 89, 90, 165, 3, 0.454938
254, 1, wb, filler, NA, 999, 999, 3, 24, 100, 68, 63, 110, 185, 79, 2, 1.21879
254, 1, wb, filler, NA, 999, 999, 3, 24, 100, 68, 63, 110, 185, 79, 3, 0.505061
254, 1, wb, attraction, a-b-db, 9, 3, 3, 25, 120, 195, 195, 120, 114, 186, 2, 1.21877
254, 1, wb, attraction, a-b-db, 9, 3, 3, 25, 120, 195, 195, 120, 114, 186, 1, 0.705097
254, 1, wb, attraction, a-b-da, 14, 3, 3, 26, 181, 111, 195, 120, 120, 195, 3, 1.61888
254, 1, wb, attraction, a-b-da, 14, 3, 3, 26, 181, 111, 195, 120, 120, 195, 2, 0.345002
254, 1, wb, attraction, a-b-db, 5, 2, 3, 27, 88, 161, 90, 165, 165, 90, 3, 0.920808
254, 1, wb, attraction, a-b-db, 5, 2, 3, 27, 88, 161, 90, 165, 165, 90, 2, 0.994384
254, 1, wb, filler, NA, 999, 999, 3, 28, 128, 92, 174, 132, 147, 157, 1, 1.02398
254, 1, wb, filler, NA, 999, 999, 3, 28, 128, 92, 174, 132, 147, 157, 2, 0.853936
254, 1, wb, attraction, a-b-db, 5, 3, 3, 29, 120, 195, 195, 120, 117, 190, 2, 2.0014
254, 1, wb, attraction, a-b-db, 5, 3, 3, 29, 120, 195, 195, 120, 117, 190, 1, 0.776026
254, 1, wb, filler, NA, 999, 999, 3, 30, 148, 97, 75, 95, 179, 188, 2, 0.734372
254, 1, wb, filler, NA, 999, 999, 3, 30, 148, 97, 75, 95, 179, 188, 3, 0.304341
254, 1, wb, attraction, a-b-da, 5, 3, 3, 31, 190, 117, 120, 195, 195, 120, 2, 1.43423
254, 1, wb, attraction, a-b-da, 5, 3, 3, 31, 190, 117, 120, 195, 195, 120, 3, 0.319635
254, 1, wb, filler, NA, 999, 999, 3, 32, 160, 69, 64, 172, 67, 69, 3, 0.84095
254, 1, wb, filler, NA, 999, 999, 3, 32, 160, 69, 64, 172, 67, 69, 1, 1.56582
254, 1, wb, attraction, a-b-da, 5, 2, 3, 33, 165, 90, 90, 165, 161, 88, 2, 5.85257
254, 1, wb, attraction, a-b-da, 5, 2, 3, 33, 165, 90, 90, 165, 161, 88, 1, 0.576029
254, 1, wb, attraction, a-b-da, 5, 1, 3, 34, 132, 58, 60, 135, 135, 60, 1, 1.95837
254, 1, wb, attraction, a-b-da, 5, 1, 3, 34, 132, 58, 60, 135, 135, 60, 2, 0.534569
254, 1, wb, attraction, a-b-da, 2, 1, 3, 35, 134, 59, 60, 135, 135, 60, 1, 0.878966
254, 1, wb, attraction, a-b-da, 2, 1, 3, 35, 134, 59, 60, 135, 135, 60, 2, 0.426716
254, 1, wb, attraction, a-b-da, 9, 3, 3, 36, 120, 195, 186, 114, 195, 120, 2, 2.60711
254, 1, wb, attraction, a-b-da, 9, 3, 3, 36, 120, 195, 186, 114, 195, 120, 1, 0.397051
254, 1, wb, attraction, a-b-db, 2, 2, 3, 37, 89, 163, 90, 165, 165, 90, 3, 2.51471
254, 1, wb, attraction, a-b-db, 2, 2, 3, 37, 89, 163, 90, 165, 165, 90, 2, 0.708585
254, 1, wb, attraction, a-b-da, 5, 2, 4, 1, 165, 90, 161, 88, 90, 165, 1, 1.46966
254, 1, wb, attraction, a-b-da, 5, 2, 4, 1, 165, 90, 161, 88, 90, 165, 3, 0.353863
254, 1, wb, attraction, a-b-da, 9, 2, 4, 2, 165, 90, 157, 86, 90, 165, 2, 1.9137
254, 1, wb, attraction, a-b-da, 9, 2, 4, 2, 165, 90, 157, 86, 90, 165, 3, 0.363681
254, 1, wb, filler, NA, 999, 999, 4, 3, 132, 156, 140, 89, 181, 136, 2, 0.658975
254, 1, wb, filler, NA, 999, 999, 4, 3, 132, 156, 140, 89, 181, 136, 3, 0.783312
254, 1, wb, attraction, a-b-db, 9, 1, 4, 4, 60, 135, 135, 60, 57, 129, 1, 2.76556
254, 1, wb, attraction, a-b-db, 9, 1, 4, 4, 60, 135, 135, 60, 57, 129, 2, 0.381405
254, 1, wb, attraction, a-b-da, 5, 1, 4, 5, 132, 58, 60, 135, 135, 60, 1, 1.93987
254, 1, wb, attraction, a-b-da, 5, 1, 4, 5, 132, 58, 60, 135, 135, 60, 2, 0.324637
254, 1, wb, filler, NA, 999, 999, 4, 6, 176, 185, 113, 134, 183, 89, 3, 1.45316
254, 1, wb, filler, NA, 999, 999, 4, 6, 176, 185, 113, 134, 183, 89, 1, 0.402099
254, 1, wb, filler, NA, 999, 999, 4, 7, 93, 60, 120, 112, 164, 133, 1, 1.25576
254, 1, wb, filler, NA, 999, 999, 4, 7, 93, 60, 120, 112, 164, 133, 3, 0.348166
254, 1, wb, attraction, a-b-db, 9, 2, 4, 8, 90, 165, 165, 90, 86, 157, 3, 2.9799
254, 1, wb, attraction, a-b-db, 9, 2, 4, 8, 90, 165, 165, 90, 86, 157, 2, 0.74691
254, 1, wb, attraction, a-b-db, 14, 1, 4, 9, 60, 135, 135, 60, 56, 125, 1, 0.850567
254, 1, wb, attraction, a-b-db, 14, 1, 4, 9, 60, 135, 135, 60, 56, 125, 2, 0.607665
254, 1, wb, attraction, a-b-db, 5, 1, 4, 10, 135, 60, 58, 132, 60, 135, 1, 1.21288
254, 1, wb, attraction, a-b-db, 5, 1, 4, 10, 135, 60, 58, 132, 60, 135, 2, 0.379009
254, 1, wb, filler, NA, 999, 999, 4, 11, 194, 103, 63, 168, 109, 106, 3, 0.969524
254, 1, wb, filler, NA, 999, 999, 4, 11, 194, 103, 63, 168, 109, 106, 1, 0.513925
254, 1, wb, filler, NA, 999, 999, 4, 12, 186, 108, 171, 139, 56, 78, 3, 0.87505
254, 1, wb, filler, NA, 999, 999, 4, 12, 186, 108, 171, 139, 56, 78, 2, 0.582768
254, 1, wb, attraction, a-b-da, 2, 1, 4, 13, 60, 135, 134, 59, 135, 60, 3, 1.65322
254, 1, wb, attraction, a-b-da, 2, 1, 4, 13, 60, 135, 134, 59, 135, 60, 1, 0.681851
254, 1, wb, filler, NA, 999, 999, 4, 14, 172, 110, 70, 137, 186, 60, 3, 0.980285
254, 1, wb, filler, NA, 999, 999, 4, 14, 172, 110, 70, 137, 186, 60, 1, 1.10791
254, 1, wb, attraction, a-b-db, 14, 3, 4, 15, 195, 120, 111, 181, 120, 195, 3, 1.90897
254, 1, wb, attraction, a-b-db, 14, 3, 4, 15, 195, 120, 111, 181, 120, 195, 1, 0.374914
254, 1, wb, attraction, a-b-da, 9, 1, 4, 16, 135, 60, 60, 135, 129, 57, 1, 1.37336
254, 1, wb, attraction, a-b-da, 9, 1, 4, 16, 135, 60, 60, 135, 129, 57, 2, 0.580909
254, 1, wb, attraction, a-b-da, 14, 2, 4, 17, 165, 90, 153, 83, 90, 165, 2, 0.979346
254, 1, wb, attraction, a-b-da, 14, 2, 4, 17, 165, 90, 153, 83, 90, 165, 1, 0.315012
254, 1, wb, attraction, a-b-da, 5, 3, 4, 18, 190, 117, 120, 195, 195, 120, 1, 1.34022
254, 1, wb, attraction, a-b-da, 5, 3, 4, 18, 190, 117, 120, 195, 195, 120, 2, 1.27708
254, 1, wb, attraction, a-b-db, 14, 2, 4, 19, 83, 153, 90, 165, 165, 90, 1, 2.08728
254, 1, wb, attraction, a-b-db, 14, 2, 4, 19, 83, 153, 90, 165, 165, 90, 3, 0.418742
254, 1, wb, attraction, a-b-db, 2, 2, 4, 20, 89, 163, 165, 90, 90, 165, 1, 2.06373
254, 1, wb, attraction, a-b-db, 2, 2, 4, 20, 89, 163, 165, 90, 90, 165, 2, 1.75573
254, 1, wb, filler, NA, 999, 999, 4, 21, 160, 186, 65, 72, 142, 94, 2, 0.651198
254, 1, wb, filler, NA, 999, 999, 4, 21, 160, 186, 65, 72, 142, 94, 1, 0.344177
254, 1, wb, attraction, a-b-da, 14, 1, 4, 22, 60, 135, 135, 60, 125, 56, 1, 0.792136
254, 1, wb, attraction, a-b-da, 14, 1, 4, 22, 60, 135, 135, 60, 125, 56, 2, 1.56708
254, 1, wb, filler, NA, 999, 999, 4, 23, 132, 174, 148, 129, 71, 115, 3, 0.757912
254, 1, wb, filler, NA, 999, 999, 4, 23, 132, 174, 148, 129, 71, 115, 1, 0.374292
254, 1, wb, filler, NA, 999, 999, 4, 24, 153, 163, 112, 128, 69, 173, 3, 0.740888
254, 1, wb, filler, NA, 999, 999, 4, 24, 153, 163, 112, 128, 69, 173, 1, 0.805858
254, 1, wb, attraction, a-b-da, 2, 3, 4, 25, 120, 195, 195, 120, 193, 119, 1, 9.7076
254, 1, wb, attraction, a-b-da, 2, 3, 4, 25, 120, 195, 195, 120, 193, 119, 2, 0.443158
254, 1, wb, attraction, a-b-db, 9, 3, 4, 26, 195, 120, 120, 195, 114, 186, 3, 1.23096
254, 1, wb, attraction, a-b-db, 9, 3, 4, 26, 195, 120, 120, 195, 114, 186, 2, 0.73268
254, 1, wb, catch, NA, 999, 999, 4, 27, 130, 125, 93, 102, 177, 138, 2, 0.740943
254, 1, wb, catch, NA, 999, 999, 4, 27, 130, 125, 93, 102, 177, 138, 3, 0.414063
254, 1, wb, attraction, a-b-db, 2, 3, 4, 28, 120, 195, 195, 120, 119, 193, 3, 1.93125
254, 1, wb, attraction, a-b-db, 2, 3, 4, 28, 120, 195, 195, 120, 119, 193, 1, 0.748579
254, 1, wb, attraction, a-b-db, 5, 2, 4, 29, 88, 161, 90, 165, 165, 90, 3, 1.63622
254, 1, wb, attraction, a-b-db, 5, 2, 4, 29, 88, 161, 90, 165, 165, 90, 2, 0.305737
254, 1, wb, attraction, a-b-db, 2, 1, 4, 30, 135, 60, 59, 134, 60, 135, 1, 1.44352
254, 1, wb, attraction, a-b-db, 2, 1, 4, 30, 135, 60, 59, 134, 60, 135, 2, 0.648546
254, 1, wb, attraction, a-b-da, 9, 3, 4, 31, 120, 195, 186, 114, 195, 120, 1, 1.70015
254, 1, wb, attraction, a-b-da, 9, 3, 4, 31, 120, 195, 186, 114, 195, 120, 2, 0.382892
254, 1, wb, catch, NA, 999, 999, 4, 32, 131, 124, 134, 61, 157, 158, 2, 0.909407
254, 1, wb, catch, NA, 999, 999, 4, 32, 131, 124, 134, 61, 157, 158, 3, 0.271774
254, 1, wb, attraction, a-b-db, 5, 3, 4, 33, 117, 190, 120, 195, 195, 120, 1, 1.57092
254, 1, wb, attraction, a-b-db, 5, 3, 4, 33, 117, 190, 120, 195, 195, 120, 3, 0.35515
254, 1, wb, attraction, a-b-da, 2, 2, 4, 34, 90, 165, 165, 90, 163, 89, 1, 1.37898
254, 1, wb, attraction, a-b-da, 2, 2, 4, 34, 90, 165, 165, 90, 163, 89, 3, 0.930728
254, 1, wb, filler, NA, 999, 999, 4, 35, 172, 108, 163, 145, 186, 193, 1, 0.882842
254, 1, wb, filler, NA, 999, 999, 4, 35, 172, 108, 163, 145, 186, 193, 3, 0.630565
254, 1, wb, attraction, a-b-da, 14, 3, 4, 36, 181, 111, 120, 195, 195, 120, 3, 2.53088
254, 1, wb, attraction, a-b-da, 14, 3, 4, 36, 181, 111, 120, 195, 195, 120, 2, 0.500107
254, 1, wb, catch, NA, 999, 999, 4, 37, 90, 105, 108, 147, 145, 170, 1, 0.749957
254, 1, wb, catch, NA, 999, 999, 4, 37, 90, 105, 108, 147, 145, 170, 3, 0.750971
254, 1, wb, attraction, a-b-db, 5, 2, 5, 1, 165, 90, 88, 161, 90, 165, 3, 5.55728
254, 1, wb, attraction, a-b-db, 5, 2, 5, 1, 165, 90, 88, 161, 90, 165, 2, 0.596279
254, 1, wb, attraction, a-b-db, 14, 2, 5, 2, 90, 165, 165, 90, 83, 153, 3, 1.01801
254, 1, wb, attraction, a-b-db, 14, 2, 5, 2, 90, 165, 165, 90, 83, 153, 1, 0.840291
254, 1, wb, attraction, a-b-da, 9, 2, 5, 3, 90, 165, 165, 90, 157, 86, 3, 0.908082
254, 1, wb, attraction, a-b-da, 9, 2, 5, 3, 90, 165, 165, 90, 157, 86, 1, 0.550326
254, 1, wb, attraction, a-b-db, 14, 3, 5, 4, 120, 195, 111, 181, 195, 120, 3, 1.32601
254, 1, wb, attraction, a-b-db, 14, 3, 5, 4, 120, 195, 111, 181, 195, 120, 2, 0.36763
254, 1, wb, filler, NA, 999, 999, 5, 5, 78, 76, 147, 173, 85, 127, 1, 1.14281
254, 1, wb, filler, NA, 999, 999, 5, 5, 78, 76, 147, 173, 85, 127, 2, 0.303908
254, 1, wb, attraction, a-b-db, 14, 1, 5, 6, 56, 125, 60, 135, 135, 60, 1, 1.26574
254, 1, wb, attraction, a-b-db, 14, 1, 5, 6, 56, 125, 60, 135, 135, 60, 2, 0.861842
254, 1, wb, attraction, a-b-db, 2, 3, 5, 7, 195, 120, 119, 193, 120, 195, 3, 1.70485
254, 1, wb, attraction, a-b-db, 2, 3, 5, 7, 195, 120, 119, 193, 120, 195, 1, 0.403633
254, 1, wb, catch, NA, 999, 999, 5, 8, 124, 131, 116, 79, 160, 155, 2, 0.761406
254, 1, wb, catch, NA, 999, 999, 5, 8, 124, 131, 116, 79, 160, 155, 3, 0.713828
254, 1, wb, attraction, a-b-db, 2, 1, 5, 9, 59, 134, 135, 60, 60, 135, 2, 3.21094
254, 1, wb, attraction, a-b-db, 2, 1, 5, 9, 59, 134, 135, 60, 60, 135, 1, 0.392782
254, 1, wb, attraction, a-b-da, 2, 3, 5, 10, 120, 195, 195, 120, 193, 119, 2, 2.56639
254, 1, wb, attraction, a-b-da, 2, 3, 5, 10, 120, 195, 195, 120, 193, 119, 1, 0.414187
254, 1, wb, filler, NA, 999, 999, 5, 11, 192, 64, 109, 61, 75, 125, 2, 0.851262
254, 1, wb, filler, NA, 999, 999, 5, 11, 192, 64, 109, 61, 75, 125, 1, 0.576397
254, 1, wb, filler, NA, 999, 999, 5, 12, 172, 92, 107, 155, 68, 65, 3, 0.942839
254, 1, wb, filler, NA, 999, 999, 5, 12, 172, 92, 107, 155, 68, 65, 1, 0.815783
254, 1, wb, attraction, a-b-db, 2, 2, 5, 13, 89, 163, 165, 90, 90, 165, 2, 1.71684
254, 1, wb, attraction, a-b-db, 2, 2, 5, 13, 89, 163, 165, 90, 90, 165, 3, 0.687078
254, 1, wb, attraction, a-b-da, 14, 2, 5, 14, 153, 83, 165, 90, 90, 165, 1, 2.16936
254, 1, wb, attraction, a-b-da, 14, 2, 5, 14, 153, 83, 165, 90, 90, 165, 2, 0.521333
254, 1, wb, catch, NA, 999, 999, 5, 15, 180, 135, 144, 111, 120, 75, 3, 0.60245
254, 1, wb, catch, NA, 999, 999, 5, 15, 180, 135, 144, 111, 120, 75, 1, 0.433642
254, 1, wb, attraction, a-b-db, 9, 3, 5, 16, 120, 195, 195, 120, 114, 186, 2, 1.79005
254, 1, wb, attraction, a-b-db, 9, 3, 5, 16, 120, 195, 195, 120, 114, 186, 1, 0.548703
254, 1, wb, attraction, a-b-da, 5, 3, 5, 17, 120, 195, 190, 117, 195, 120, 3, 2.60445
254, 1, wb, attraction, a-b-da, 5, 3, 5, 17, 120, 195, 190, 117, 195, 120, 1, 0.475039
254, 1, wb, filler, NA, 999, 999, 5, 18, 70, 118, 104, 165, 147, 114, 1, 0.869524
254, 1, wb, filler, NA, 999, 999, 5, 18, 70, 118, 104, 165, 147, 114, 2, 0.345851
254, 1, wb, attraction, a-b-da, 9, 1, 5, 19, 60, 135, 135, 60, 129, 57, 3, 2.94567
254, 1, wb, attraction, a-b-da, 9, 1, 5, 19, 60, 135, 135, 60, 129, 57, 1, 0.618018
254, 1, wb, attraction, a-b-da, 9, 3, 5, 20, 195, 120, 120, 195, 186, 114, 3, 3.27112
254, 1, wb, attraction, a-b-da, 9, 3, 5, 20, 195, 120, 120, 195, 186, 114, 1, 0.874822
254, 1, wb, filler, NA, 999, 999, 5, 21, 110, 173, 81, 102, 156, 151, 2, 0.621079
254, 1, wb, filler, NA, 999, 999, 5, 21, 110, 173, 81, 102, 156, 151, 3, 0.371539
254, 1, wb, attraction, a-b-da, 5, 1, 5, 22, 132, 58, 135, 60, 60, 135, 1, 3.45872
254, 1, wb, attraction, a-b-da, 5, 1, 5, 22, 132, 58, 135, 60, 60, 135, 3, 0.630279
254, 1, wb, attraction, a-b-db, 9, 1, 5, 23, 135, 60, 60, 135, 57, 129, 3, 2.48281
254, 1, wb, attraction, a-b-db, 9, 1, 5, 23, 135, 60, 60, 135, 57, 129, 2, 0.629878
254, 1, wb, attraction, a-b-da, 14, 3, 5, 24, 181, 111, 195, 120, 120, 195, 1, 3.87432
254, 1, wb, attraction, a-b-da, 14, 3, 5, 24, 181, 111, 195, 120, 120, 195, 3, 0.381135
254, 1, wb, attraction, a-b-db, 9, 2, 5, 25, 90, 165, 86, 157, 165, 90, 3, 5.31559
254, 1, wb, attraction, a-b-db, 9, 2, 5, 25, 90, 165, 86, 157, 165, 90, 2, 0.596432
254, 1, wb, attraction, a-b-db, 5, 3, 5, 26, 120, 195, 195, 120, 117, 190, 3, 1.48239
254, 1, wb, attraction, a-b-db, 5, 3, 5, 26, 120, 195, 195, 120, 117, 190, 2, 0.469772
254, 1, wb, attraction, a-b-da, 2, 1, 5, 27, 135, 60, 134, 59, 60, 135, 1, 1.68089
254, 1, wb, attraction, a-b-da, 2, 1, 5, 27, 135, 60, 134, 59, 60, 135, 2, 0.604419
254, 1, wb, attraction, a-b-da, 2, 2, 5, 28, 165, 90, 163, 89, 90, 165, 1, 3.4503
254, 1, wb, attraction, a-b-da, 2, 2, 5, 28, 165, 90, 163, 89, 90, 165, 3, 0.998442
254, 1, wb, filler, NA, 999, 999, 5, 29, 154, 139, 79, 166, 104, 181, 2, 2.25996
254, 1, wb, filler, NA, 999, 999, 5, 29, 154, 139, 79, 166, 104, 181, 1, 0.607943
254, 1, wb, filler, NA, 999, 999, 5, 30, 63, 89, 114, 113, 173, 113, 1, 0.756943
254, 1, wb, filler, NA, 999, 999, 5, 30, 63, 89, 114, 113, 173, 113, 3, 0.653445
254, 1, wb, catch, NA, 999, 999, 5, 31, 104, 151, 140, 175, 74, 121, 3, 0.873147
254, 1, wb, catch, NA, 999, 999, 5, 31, 104, 151, 140, 175, 74, 121, 2, 0.404883
254, 1, wb, filler, NA, 999, 999, 5, 32, 176, 162, 106, 111, 101, 91, 3, 1.16264
254, 1, wb, filler, NA, 999, 999, 5, 32, 176, 162, 106, 111, 101, 91, 1, 0.370901
254, 1, wb, attraction, a-b-da, 5, 2, 5, 33, 161, 88, 90, 165, 165, 90, 1, 1.74627
254, 1, wb, attraction, a-b-da, 5, 2, 5, 33, 161, 88, 90, 165, 165, 90, 2, 0.642825
254, 1, wb, attraction, a-b-db, 5, 1, 5, 34, 58, 132, 60, 135, 135, 60, 1, 1.1266
254, 1, wb, attraction, a-b-db, 5, 1, 5, 34, 58, 132, 60, 135, 135, 60, 3, 0.408258
254, 1, wb, filler, NA, 999, 999, 5, 35, 181, 113, 86, 83, 83, 141, 2, 0.813291
254, 1, wb, filler, NA, 999, 999, 5, 35, 181, 113, 86, 83, 83, 141, 1, 0.563766
254, 1, wb, attraction, a-b-da, 14, 1, 5, 36, 60, 135, 125, 56, 135, 60, 3, 1.667
254, 1, wb, attraction, a-b-da, 14, 1, 5, 36, 60, 135, 125, 56, 135, 60, 1, 1.20693
254, 1, wb, filler, NA, 999, 999, 5, 37, 141, 134, 190, 109, 69, 95, 3, 0.907808
254, 1, wb, filler, NA, 999, 999, 5, 37, 141, 134, 190, 109, 69, 95, 1, 0.390165
254, 1, wb, catch, NA, 999, 999, 6, 1, 112, 143, 151, 164, 70, 125, 3, 0.892036
254, 1, wb, catch, NA, 999, 999, 6, 1, 112, 143, 151, 164, 70, 125, 2, 0.311134
254, 1, wb, filler, NA, 999, 999, 6, 2, 58, 79, 98, 131, 124, 109, 1, 0.69629
254, 1, wb, filler, NA, 999, 999, 6, 2, 58, 79, 98, 131, 124, 109, 2, 1.05141
254, 1, wb, filler, NA, 999, 999, 6, 3, 70, 95, 112, 162, 99, 184, 1, 0.582942
254, 1, wb, filler, NA, 999, 999, 6, 3, 70, 95, 112, 162, 99, 184, 3, 1.09483
254, 1, wb, attraction, a-b-da, 14, 3, 6, 4, 195, 120, 181, 111, 120, 195, 3, 1.68859
254, 1, wb, attraction, a-b-da, 14, 3, 6, 4, 195, 120, 181, 111, 120, 195, 1, 0.795082
254, 1, wb, attraction, a-b-db, 2, 1, 6, 5, 60, 135, 59, 134, 135, 60, 2, 2.60091
254, 1, wb, attraction, a-b-db, 2, 1, 6, 5, 60, 135, 59, 134, 135, 60, 3, 0.607357
254, 1, wb, attraction, a-b-da, 14, 1, 6, 6, 135, 60, 60, 135, 125, 56, 3, 2.82032
254, 1, wb, attraction, a-b-da, 14, 1, 6, 6, 135, 60, 60, 135, 125, 56, 2, 0.898068
254, 1, wb, attraction, a-b-db, 14, 2, 6, 7, 165, 90, 83, 153, 90, 165, 3, 5.67577
254, 1, wb, attraction, a-b-db, 14, 2, 6, 7, 165, 90, 83, 153, 90, 165, 1, 0.678369
254, 1, wb, attraction, a-b-da, 5, 2, 6, 8, 161, 88, 90, 165, 165, 90, 3, 1.83249
254, 1, wb, attraction, a-b-da, 5, 2, 6, 8, 161, 88, 90, 165, 165, 90, 2, 0.5258
254, 1, wb, filler, NA, 999, 999, 6, 9, 63, 106, 76, 57, 125, 97, 2, 3.04616
254, 1, wb, filler, NA, 999, 999, 6, 9, 63, 106, 76, 57, 125, 97, 3, 0.794501
254, 1, wb, attraction, a-b-db, 9, 1, 6, 10, 60, 135, 57, 129, 135, 60, 3, 4.03228
254, 1, wb, attraction, a-b-db, 9, 1, 6, 10, 60, 135, 57, 129, 135, 60, 1, 1.165
254, 1, wb, attraction, a-b-da, 2, 3, 6, 11, 195, 120, 120, 195, 193, 119, 3, 2.38004
254, 1, wb, attraction, a-b-da, 2, 3, 6, 11, 195, 120, 120, 195, 193, 119, 2, 1.33923
254, 1, wb, filler, NA, 999, 999, 6, 12, 131, 118, 179, 141, 156, 151, 1, 0.851334
254, 1, wb, filler, NA, 999, 999, 6, 12, 131, 118, 179, 141, 156, 151, 2, 0.408348
254, 1, wb, attraction, a-b-da, 5, 1, 6, 13, 135, 60, 60, 135, 132, 58, 1, 1.40552
254, 1, wb, attraction, a-b-da, 5, 1, 6, 13, 135, 60, 60, 135, 132, 58, 2, 0.675654
254, 1, wb, attraction, a-b-db, 2, 3, 6, 14, 120, 195, 119, 193, 195, 120, 3, 1.50218
254, 1, wb, attraction, a-b-db, 2, 3, 6, 14, 120, 195, 119, 193, 195, 120, 2, 0.688943
254, 1, wb, attraction, a-b-da, 2, 2, 6, 15, 90, 165, 163, 89, 165, 90, 3, 2.75535
254, 1, wb, attraction, a-b-da, 2, 2, 6, 15, 90, 165, 163, 89, 165, 90, 1, 0.779735
254, 1, wb, attraction, a-b-db, 5, 2, 6, 16, 88, 161, 90, 165, 165, 90, 3, 1.0741
254, 1, wb, attraction, a-b-db, 5, 2, 6, 16, 88, 161, 90, 165, 165, 90, 2, 1.00592
254, 1, wb, attraction, a-b-db, 5, 1, 6, 17, 60, 135, 58, 132, 135, 60, 1, 1.67541
254, 1, wb, attraction, a-b-db, 5, 1, 6, 17, 60, 135, 58, 132, 135, 60, 2, 0.630921
254, 1, wb, catch, NA, 999, 999, 6, 18, 125, 70, 145, 110, 165, 150, 1, 0.555323
254, 1, wb, catch, NA, 999, 999, 6, 18, 125, 70, 145, 110, 165, 150, 3, 0.451809
254, 1, wb, catch, NA, 999, 999, 6, 19, 84, 111, 157, 158, 119, 136, 1, 0.71166
254, 1, wb, catch, NA, 999, 999, 6, 19, 84, 111, 157, 158, 119, 136, 2, 0.377979
254, 1, wb, attraction, a-b-db, 14, 1, 6, 20, 60, 135, 135, 60, 56, 125, 2, 1.73641
254, 1, wb, attraction, a-b-db, 14, 1, 6, 20, 60, 135, 135, 60, 56, 125, 1, 0.609941
254, 1, wb, filler, NA, 999, 999, 6, 21, 170, 129, 188, 183, 109, 66, 3, 0.70287
254, 1, wb, filler, NA, 999, 999, 6, 21, 170, 129, 188, 183, 109, 66, 2, 0.506047
254, 1, wb, attraction, a-b-db, 14, 3, 6, 22, 195, 120, 111, 181, 120, 195, 2, 2.47589
254, 1, wb, attraction, a-b-db, 14, 3, 6, 22, 195, 120, 111, 181, 120, 195, 1, 0.368148
254, 1, wb, attraction, a-b-db, 9, 2, 6, 23, 90, 165, 165, 90, 86, 157, 3, 1.09424
254, 1, wb, attraction, a-b-db, 9, 2, 6, 23, 90, 165, 165, 90, 86, 157, 1, 0.76124
254, 1, wb, attraction, a-b-da, 14, 2, 6, 24, 90, 165, 153, 83, 165, 90, 2, 1.48027
254, 1, wb, attraction, a-b-da, 14, 2, 6, 24, 90, 165, 153, 83, 165, 90, 1, 0.411689
254, 1, wb, attraction, a-b-db, 2, 2, 6, 25, 165, 90, 90, 165, 89, 163, 1, 1.91282
254, 1, wb, attraction, a-b-db, 2, 2, 6, 25, 165, 90, 90, 165, 89, 163, 2, 0.995
254, 1, wb, attraction, a-b-da, 9, 2, 6, 26, 157, 86, 165, 90, 90, 165, 1, 5.67244
254, 1, wb, attraction, a-b-da, 9, 2, 6, 26, 157, 86, 165, 90, 90, 165, 2, 0.635392
254, 1, wb, filler, NA, 999, 999, 6, 27, 121, 119, 120, 65, 129, 186, 2, 0.895827
254, 1, wb, filler, NA, 999, 999, 6, 27, 121, 119, 120, 65, 129, 186, 3, 0.354779
254, 1, wb, attraction, a-b-da, 9, 3, 6, 28, 120, 195, 186, 114, 195, 120, 3, 1.93869
254, 1, wb, attraction, a-b-da, 9, 3, 6, 28, 120, 195, 186, 114, 195, 120, 1, 0.411364
254, 1, wb, filler, NA, 999, 999, 6, 29, 158, 132, 112, 125, 108, 140, 2, 0.896573
254, 1, wb, filler, NA, 999, 999, 6, 29, 158, 132, 112, 125, 108, 140, 1, 0.435953
254, 1, wb, attraction, a-b-db, 9, 3, 6, 30, 120, 195, 195, 120, 114, 186, 1, 1.59998
254, 1, wb, attraction, a-b-db, 9, 3, 6, 30, 120, 195, 195, 120, 114, 186, 2, 0.446851
254, 1, wb, attraction, a-b-db, 5, 3, 6, 31, 195, 120, 120, 195, 117, 190, 3, 2.01873
254, 1, wb, attraction, a-b-db, 5, 3, 6, 31, 195, 120, 120, 195, 117, 190, 2, 0.912627
254, 1, wb, attraction, a-b-da, 9, 1, 6, 32, 135, 60, 129, 57, 60, 135, 2, 2.68157
254, 1, wb, attraction, a-b-da, 9, 1, 6, 32, 135, 60, 129, 57, 60, 135, 1, 0.436713
254, 1, wb, filler, NA, 999, 999, 6, 33, 164, 195, 113, 119, 105, 83, 3, 0.761206
254, 1, wb, filler, NA, 999, 999, 6, 33, 164, 195, 113, 119, 105, 83, 1, 0.353731
254, 1, wb, attraction, a-b-da, 2, 1, 6, 34, 134, 59, 135, 60, 60, 135, 3, 4.06563
254, 1, wb, attraction, a-b-da, 2, 1, 6, 34, 134, 59, 135, 60, 60, 135, 2, 0.820851
254, 1, wb, attraction, a-b-da, 5, 3, 6, 35, 120, 195, 190, 117, 195, 120, 2, 1.46583
254, 1, wb, attraction, a-b-da, 5, 3, 6, 35, 120, 195, 190, 117, 195, 120, 1, 0.365995
254, 1, wb, filler, NA, 999, 999, 6, 36, 110, 185, 176, 171, 110, 131, 3, 0.933262
254, 1, wb, filler, NA, 999, 999, 6, 36, 110, 185, 176, 171, 110, 131, 2, 0.390934
254, 1, wb, filler, NA, 999, 999, 6, 37, 140, 143, 187, 128, 103, 57, 3, 0.604684
254, 1, wb, filler, NA, 999, 999, 6, 37, 140, 143, 187, 128, 103, 57, 2, 0.483129
254, 1, wb, filler, NA, 999, 999, 7, 1, 85, 173, 72, 74, 125, 114, 2, 0.845667
254, 1, wb, filler, NA, 999, 999, 7, 1, 85, 173, 72, 74, 125, 114, 3, 0.402619
254, 1, wb, attraction, a-b-db, 2, 2, 7, 2, 165, 90, 90, 165, 89, 163, 1, 2.68847
254, 1, wb, attraction, a-b-db, 2, 2, 7, 2, 165, 90, 90, 165, 89, 163, 2, 0.458977
254, 1, wb, attraction, a-b-db, 9, 1, 7, 3, 135, 60, 60, 135, 57, 129, 3, 1.46216
254, 1, wb, attraction, a-b-db, 9, 1, 7, 3, 135, 60, 60, 135, 57, 129, 1, 0.338245
254, 1, wb, attraction, a-b-da, 14, 2, 7, 4, 165, 90, 153, 83, 90, 165, 2, 1.53882
254, 1, wb, attraction, a-b-da, 14, 2, 7, 4, 165, 90, 153, 83, 90, 165, 1, 0.427679
254, 1, wb, attraction, a-b-db, 5, 2, 7, 5, 90, 165, 165, 90, 88, 161, 3, 1.12026
254, 1, wb, attraction, a-b-db, 5, 2, 7, 5, 90, 165, 165, 90, 88, 161, 1, 1.36236
254, 1, wb, catch, NA, 999, 999, 7, 6, 73, 122, 115, 140, 120, 195, 1, 0.825141
254, 1, wb, catch, NA, 999, 999, 7, 6, 73, 122, 115, 140, 120, 195, 3, 0.302914
254, 1, wb, filler, NA, 999, 999, 7, 7, 61, 93, 159, 157, 175, 165, 1, 0.528726
254, 1, wb, filler, NA, 999, 999, 7, 7, 61, 93, 159, 157, 175, 165, 2, 0.906581
254, 1, wb, attraction, a-b-da, 9, 1, 7, 8, 129, 57, 60, 135, 135, 60, 3, 1.77229
254, 1, wb, attraction, a-b-da, 9, 1, 7, 8, 129, 57, 60, 135, 135, 60, 2, 0.467848
254, 1, wb, filler, NA, 999, 999, 7, 9, 129, 133, 118, 133, 167, 128, 2, 1.99077
254, 1, wb, filler, NA, 999, 999, 7, 9, 129, 133, 118, 133, 167, 128, 3, 0.677453
254, 1, wb, filler, NA, 999, 999, 7, 10, 126, 159, 125, 153, 79, 177, 3, 4.04793
254, 1, wb, filler, NA, 999, 999, 7, 10, 126, 159, 125, 153, 79, 177, 1, 0.923934
254, 1, wb, attraction, a-b-da, 5, 1, 7, 11, 135, 60, 132, 58, 60, 135, 2, 5.55622
254, 1, wb, attraction, a-b-da, 5, 1, 7, 11, 135, 60, 132, 58, 60, 135, 3, 0.507182
254, 1, wb, catch, NA, 999, 999, 7, 12, 118, 137, 160, 155, 132, 63, 3, 2.73229
254, 1, wb, catch, NA, 999, 999, 7, 12, 118, 137, 160, 155, 132, 63, 2, 0.677372
254, 1, wb, filler, NA, 999, 999, 7, 13, 167, 82, 131, 133, 195, 86, 1, 2.03972
254, 1, wb, filler, NA, 999, 999, 7, 13, 167, 82, 131, 133, 195, 86, 2, 1.74048
254, 1, wb, filler, NA, 999, 999, 7, 14, 153, 130, 138, 119, 77, 128, 3, 0.659868
254, 1, wb, filler, NA, 999, 999, 7, 14, 153, 130, 138, 119, 77, 128, 1, 0.800235
254, 1, wb, attraction, a-b-da, 9, 2, 7, 15, 157, 86, 90, 165, 165, 90, 1, 2.00604
254, 1, wb, attraction, a-b-da, 9, 2, 7, 15, 157, 86, 90, 165, 165, 90, 2, 0.4998
254, 1, wb, filler, NA, 999, 999, 7, 16, 136, 190, 149, 106, 141, 169, 2, 1.15784
254, 1, wb, filler, NA, 999, 999, 7, 16, 136, 190, 149, 106, 141, 169, 1, 0.341918
254, 1, wb, attraction, a-b-db, 2, 3, 7, 17, 119, 193, 120, 195, 195, 120, 3, 1.70177
254, 1, wb, attraction, a-b-db, 2, 3, 7, 17, 119, 193, 120, 195, 195, 120, 2, 0.920609
254, 1, wb, attraction, a-b-db, 14, 3, 7, 18, 195, 120, 111, 181, 120, 195, 2, 2.71371
254, 1, wb, attraction, a-b-db, 14, 3, 7, 18, 195, 120, 111, 181, 120, 195, 1, 0.731485
254, 1, wb, filler, NA, 999, 999, 7, 19, 136, 161, 59, 111, 89, 190, 2, 0.707833
254, 1, wb, filler, NA, 999, 999, 7, 19, 136, 161, 59, 111, 89, 190, 1, 0.726186
254, 1, wb, attraction, a-b-da, 2, 1, 7, 20, 134, 59, 60, 135, 135, 60, 2, 1.12656
254, 1, wb, attraction, a-b-da, 2, 1, 7, 20, 134, 59, 60, 135, 135, 60, 1, 1.01634
254, 1, wb, attraction, a-b-da, 14, 1, 7, 21, 60, 135, 125, 56, 135, 60, 2, 2.40509
254, 1, wb, attraction, a-b-da, 14, 1, 7, 21, 60, 135, 125, 56, 135, 60, 1, 0.539685
254, 1, wb, attraction, a-b-db, 14, 2, 7, 22, 83, 153, 165, 90, 90, 165, 1, 1.43635
254, 1, wb, attraction, a-b-db, 14, 2, 7, 22, 83, 153, 165, 90, 90, 165, 2, 0.425618
254, 1, wb, attraction, a-b-da, 5, 2, 7, 23, 165, 90, 90, 165, 161, 88, 3, 0.830133
254, 1, wb, attraction, a-b-da, 5, 2, 7, 23, 165, 90, 90, 165, 161, 88, 2, 0.867851
254, 1, wb, attraction, a-b-db, 2, 1, 7, 24, 135, 60, 60, 135, 59, 134, 2, 1.12685
254, 1, wb, attraction, a-b-db, 2, 1, 7, 24, 135, 60, 60, 135, 59, 134, 1, 0.328537
254, 1, wb, attraction, a-b-db, 9, 2, 7, 25, 86, 157, 165, 90, 90, 165, 2, 5.83293
254, 1, wb, attraction, a-b-db, 9, 2, 7, 25, 86, 157, 165, 90, 90, 165, 3, 0.805227
254, 1, wb, attraction, a-b-da, 5, 3, 7, 26, 120, 195, 190, 117, 195, 120, 3, 1.00289
254, 1, wb, attraction, a-b-da, 5, 3, 7, 26, 120, 195, 190, 117, 195, 120, 1, 0.449787
254, 1, wb, attraction, a-b-da, 14, 3, 7, 27, 181, 111, 120, 195, 195, 120, 1, 1.30177
254, 1, wb, attraction, a-b-da, 14, 3, 7, 27, 181, 111, 120, 195, 195, 120, 2, 0.544538
254, 1, wb, filler, NA, 999, 999, 7, 28, 59, 185, 96, 164, 176, 149, 1, 0.824293
254, 1, wb, filler, NA, 999, 999, 7, 28, 59, 185, 96, 164, 176, 149, 3, 0.52612
254, 1, wb, filler, NA, 999, 999, 7, 29, 187, 75, 60, 73, 133, 58, 2, 0.854444
254, 1, wb, filler, NA, 999, 999, 7, 29, 187, 75, 60, 73, 133, 58, 1, 0.435503
254, 1, wb, attraction, a-b-da, 2, 3, 7, 30, 195, 120, 120, 195, 193, 119, 3, 1.52795
254, 1, wb, attraction, a-b-da, 2, 3, 7, 30, 195, 120, 120, 195, 193, 119, 1, 0.617477
254, 1, wb, catch, NA, 999, 999, 7, 31, 180, 135, 125, 130, 72, 123, 3, 0.614509
254, 1, wb, catch, NA, 999, 999, 7, 31, 180, 135, 125, 130, 72, 123, 1, 0.557002
254, 1, wb, attraction, a-b-db, 9, 3, 7, 32, 114, 186, 120, 195, 195, 120, 2, 2.85229
254, 1, wb, attraction, a-b-db, 9, 3, 7, 32, 114, 186, 120, 195, 195, 120, 3, 1.15267
254, 1, wb, attraction, a-b-db, 14, 1, 7, 33, 56, 125, 135, 60, 60, 135, 1, 1.44804
254, 1, wb, attraction, a-b-db, 14, 1, 7, 33, 56, 125, 135, 60, 60, 135, 2, 0.340931
254, 1, wb, attraction, a-b-da, 9, 3, 7, 34, 120, 195, 186, 114, 195, 120, 2, 5.10088
254, 1, wb, attraction, a-b-da, 9, 3, 7, 34, 120, 195, 186, 114, 195, 120, 1, 0.566686
254, 1, wb, attraction, a-b-db, 5, 3, 7, 35, 195, 120, 120, 195, 117, 190, 3, 5.62968
254, 1, wb, attraction, a-b-db, 5, 3, 7, 35, 195, 120, 120, 195, 117, 190, 1, 0.593812
254, 1, wb, attraction, a-b-db, 5, 1, 7, 36, 135, 60, 58, 132, 60, 135, 2, 1.10356
254, 1, wb, attraction, a-b-db, 5, 1, 7, 36, 135, 60, 58, 132, 60, 135, 1, 0.362556
254, 1, wb, attraction, a-b-da, 2, 2, 7, 37, 163, 89, 165, 90, 90, 165, 3, 0.729763
254, 1, wb, attraction, a-b-da, 2, 2, 7, 37, 163, 89, 165, 90, 90, 165, 1, 0.435458
254, 1, wb, attraction, a-b-db, 14, 2, 8, 1, 90, 165, 165, 90, 83, 153, 3, 0.640007
254, 1, wb, attraction, a-b-db, 14, 2, 8, 1, 90, 165, 165, 90, 83, 153, 1, 0.548998
254, 1, wb, attraction, a-b-da, 2, 2, 8, 2, 163, 89, 90, 165, 165, 90, 2, 1.6288
254, 1, wb, attraction, a-b-da, 2, 2, 8, 2, 163, 89, 90, 165, 165, 90, 1, 0.394185
254, 1, wb, attraction, a-b-da, 5, 2, 8, 3, 90, 165, 161, 88, 165, 90, 3, 1.54423
254, 1, wb, attraction, a-b-da, 5, 2, 8, 3, 90, 165, 161, 88, 165, 90, 1, 0.345025
254, 1, wb, attraction, a-b-db, 5, 3, 8, 4, 117, 190, 120, 195, 195, 120, 3, 0.784752
254, 1, wb, attraction, a-b-db, 5, 3, 8, 4, 117, 190, 120, 195, 195, 120, 2, 0.448587
254, 1, wb, filler, NA, 999, 999, 8, 5, 74, 71, 129, 95, 63, 103, 1, 1.02031
254, 1, wb, filler, NA, 999, 999, 8, 5, 74, 71, 129, 95, 63, 103, 2, 0.290495
254, 1, wb, filler, NA, 999, 999, 8, 6, 95, 162, 88, 153, 112, 178, 2, 1.82033
254, 1, wb, filler, NA, 999, 999, 8, 6, 95, 162, 88, 153, 112, 178, 3, 0.386566
254, 1, wb, attraction, a-b-db, 5, 1, 8, 7, 135, 60, 60, 135, 58, 132, 2, 1.36893
254, 1, wb, attraction, a-b-db, 5, 1, 8, 7, 135, 60, 60, 135, 58, 132, 1, 0.4332
254, 1, wb, filler, NA, 999, 999, 8, 8, 148, 113, 64, 187, 117, 98, 3, 0.645771
254, 1, wb, filler, NA, 999, 999, 8, 8, 148, 113, 64, 187, 117, 98, 1, 0.450742
254, 1, wb, catch, NA, 999, 999, 8, 9, 96, 99, 152, 163, 97, 158, 1, 0.798559
254, 1, wb, catch, NA, 999, 999, 8, 9, 96, 99, 152, 163, 97, 158, 2, 0.325623
254, 1, wb, filler, NA, 999, 999, 8, 10, 81, 63, 161, 185, 195, 173, 1, 0.734113
254, 1, wb, filler, NA, 999, 999, 8, 10, 81, 63, 161, 185, 195, 173, 2, 0.591869
254, 1, wb, attraction, a-b-db, 14, 1, 8, 11, 135, 60, 60, 135, 56, 125, 3, 2.94168
254, 1, wb, attraction, a-b-db, 14, 1, 8, 11, 135, 60, 60, 135, 56, 125, 2, 0.782058
254, 1, wb, attraction, a-b-db, 9, 1, 8, 12, 57, 129, 135, 60, 60, 135, 1, 1.23647
254, 1, wb, attraction, a-b-db, 9, 1, 8, 12, 57, 129, 135, 60, 60, 135, 2, 0.625916
254, 1, wb, filler, NA, 999, 999, 8, 13, 188, 160, 170, 127, 127, 182, 3, 2.05441
254, 1, wb, filler, NA, 999, 999, 8, 13, 188, 160, 170, 127, 127, 182, 1, 0.362332
254, 1, wb, catch, NA, 999, 999, 8, 14, 163, 92, 117, 78, 178, 137, 2, 0.5935
254, 1, wb, catch, NA, 999, 999, 8, 14, 163, 92, 117, 78, 178, 137, 3, 0.5686
254, 1, wb, attraction, a-b-da, 5, 3, 8, 15, 120, 195, 195, 120, 190, 117, 3, 3.41582
254, 1, wb, attraction, a-b-da, 5, 3, 8, 15, 120, 195, 195, 120, 190, 117, 2, 0.597463
254, 1, wb, catch, NA, 999, 999, 8, 16, 130, 125, 86, 109, 124, 191, 2, 0.891041
254, 1, wb, catch, NA, 999, 999, 8, 16, 130, 125, 86, 109, 124, 191, 3, 0.382088
254, 1, wb, attraction, a-b-db, 9, 2, 8, 17, 86, 157, 90, 165, 165, 90, 1, 1.76458
254, 1, wb, attraction, a-b-db, 9, 2, 8, 17, 86, 157, 90, 165, 165, 90, 2, 0.460806
254, 1, wb, filler, NA, 999, 999, 8, 18, 133, 170, 57, 94, 66, 104, 2, 0.704043
254, 1, wb, filler, NA, 999, 999, 8, 18, 133, 170, 57, 94, 66, 104, 1, 0.250227
254, 1, wb, attraction, a-b-da, 2, 1, 8, 19, 134, 59, 60, 135, 135, 60, 2, 2.97413
254, 1, wb, attraction, a-b-da, 2, 1, 8, 19, 134, 59, 60, 135, 135, 60, 3, 0.669157
254, 1, wb, filler, NA, 999, 999, 8, 20, 174, 69, 138, 134, 100, 141, 3, 2.30419
254, 1, wb, filler, NA, 999, 999, 8, 20, 174, 69, 138, 134, 100, 141, 2, 0.402762
254, 1, wb, attraction, a-b-db, 14, 3, 8, 21, 111, 181, 120, 195, 195, 120, 1, 1.47262
254, 1, wb, attraction, a-b-db, 14, 3, 8, 21, 111, 181, 120, 195, 195, 120, 2, 0.86028
254, 1, wb, attraction, a-b-db, 9, 3, 8, 22, 195, 120, 120, 195, 114, 186, 3, 4.23927
254, 1, wb, attraction, a-b-db, 9, 3, 8, 22, 195, 120, 120, 195, 114, 186, 1, 0.659128
254, 1, wb, attraction, a-b-da, 14, 1, 8, 23, 60, 135, 125, 56, 135, 60, 2, 1.07817
254, 1, wb, attraction, a-b-da, 14, 1, 8, 23, 60, 135, 125, 56, 135, 60, 3, 0.657827
254, 1, wb, attraction, a-b-db, 2, 2, 8, 24, 89, 163, 90, 165, 165, 90, 2, 2.86891
254, 1, wb, attraction, a-b-db, 2, 2, 8, 24, 89, 163, 90, 165, 165, 90, 3, 0.472621
254, 1, wb, attraction, a-b-db, 2, 3, 8, 25, 195, 120, 120, 195, 119, 193, 2, 0.955733
254, 1, wb, attraction, a-b-db, 2, 3, 8, 25, 195, 120, 120, 195, 119, 193, 1, 0.956289
254, 1, wb, attraction, a-b-da, 5, 1, 8, 26, 60, 135, 135, 60, 132, 58, 1, 1.35568
254, 1, wb, attraction, a-b-da, 5, 1, 8, 26, 60, 135, 135, 60, 132, 58, 2, 0.556024
254, 1, wb, attraction, a-b-da, 2, 3, 8, 27, 193, 119, 120, 195, 195, 120, 3, 2.42767
254, 1, wb, attraction, a-b-da, 2, 3, 8, 27, 193, 119, 120, 195, 195, 120, 1, 0.544984
254, 1, wb, attraction, a-b-db, 5, 2, 8, 28, 88, 161, 90, 165, 165, 90, 2, 0.912798
254, 1, wb, attraction, a-b-db, 5, 2, 8, 28, 88, 161, 90, 165, 165, 90, 3, 0.34713
254, 1, wb, attraction, a-b-da, 9, 2, 8, 29, 90, 165, 157, 86, 165, 90, 2, 1.17899
254, 1, wb, attraction, a-b-da, 9, 2, 8, 29, 90, 165, 157, 86, 165, 90, 1, 0.362449
254, 1, wb, attraction, a-b-da, 9, 1, 8, 30, 129, 57, 135, 60, 60, 135, 1, 3.30623
254, 1, wb, attraction, a-b-da, 9, 1, 8, 30, 129, 57, 135, 60, 60, 135, 3, 0.339287
254, 1, wb, attraction, a-b-db, 2, 1, 8, 31, 59, 134, 60, 135, 135, 60, 1, 1.03571
254, 1, wb, attraction, a-b-db, 2, 1, 8, 31, 59, 134, 60, 135, 135, 60, 3, 0.481418
254, 1, wb, attraction, a-b-da, 14, 2, 8, 32, 153, 83, 90, 165, 165, 90, 1, 1.26791
254, 1, wb, attraction, a-b-da, 14, 2, 8, 32, 153, 83, 90, 165, 165, 90, 2, 0.93609
254, 1, wb, filler, NA, 999, 999, 8, 33, 194, 91, 188, 122, 108, 165, 1, 1.64847
254, 1, wb, filler, NA, 999, 999, 8, 33, 194, 91, 188, 122, 108, 165, 2, 0.533354
254, 1, wb, filler, NA, 999, 999, 8, 34, 128, 92, 187, 71, 92, 58, 3, 0.68574
254, 1, wb, filler, NA, 999, 999, 8, 34, 128, 92, 187, 71, 92, 58, 1, 0.825493
254, 1, wb, attraction, a-b-da, 9, 3, 8, 35, 195, 120, 186, 114, 120, 195, 1, 1.82989
254, 1, wb, attraction, a-b-da, 9, 3, 8, 35, 195, 120, 186, 114, 120, 195, 3, 0.355323
254, 1, wb, attraction, a-b-da, 14, 3, 8, 36, 120, 195, 195, 120, 181, 111, 3, 2.32346
254, 1, wb, attraction, a-b-da, 14, 3, 8, 36, 120, 195, 195, 120, 181, 111, 1, 0.452357
254, 1, wb, filler, NA, 999, 999, 8, 37, 61, 89, 116, 142, 82, 108, 1, 0.992036
254, 1, wb, filler, NA, 999, 999, 8, 37, 61, 89, 116, 142, 82, 108, 2, 0.29531
