sub_n, computer_n, bw_cond, effect, set, distance, diag, block_n, trial_n, h1, w1, h2, w2, h3, w3, choice, rt 
212, 1, wb, practice, NA, 999, 999, 0, 1, 61, 180, 71, 105, 172, 154, 2, 10.9438
212, 1, wb, practice, NA, 999, 999, 0, 1, 61, 180, 71, 105, 172, 154, 3, 2.20637
212, 1, wb, practice, NA, 999, 999, 0, 2, 183, 125, 165, 72, 75, 66, 3, 3.41586
212, 1, wb, practice, NA, 999, 999, 0, 2, 183, 125, 165, 72, 75, 66, 1, 1.50839
212, 1, wb, practice, NA, 999, 999, 0, 3, 181, 89, 126, 165, 171, 106, 1, 3.3479
212, 1, wb, practice, NA, 999, 999, 0, 3, 181, 89, 126, 165, 171, 106, 2, 1.05313
212, 1, wb, attraction, a-b-db, 9, 2, 1, 1, 165, 90, 86, 157, 90, 165, 2, 5.66989
212, 1, wb, attraction, a-b-db, 9, 2, 1, 1, 165, 90, 86, 157, 90, 165, 3, 1.2488
212, 1, wb, attraction, a-b-db, 2, 3, 1, 2, 119, 193, 120, 195, 195, 120, 1, 3.4043
212, 1, wb, attraction, a-b-db, 2, 3, 1, 2, 119, 193, 120, 195, 195, 120, 2, 0.698449
212, 1, wb, attraction, a-b-da, 5, 1, 1, 3, 135, 60, 60, 135, 132, 58, 1, 2.21224
212, 1, wb, attraction, a-b-da, 5, 1, 1, 3, 135, 60, 60, 135, 132, 58, 2, 1.21022
212, 1, wb, filler, NA, 999, 999, 1, 4, 121, 92, 167, 80, 108, 133, 1, 5.59117
212, 1, wb, filler, NA, 999, 999, 1, 4, 121, 92, 167, 80, 108, 133, 3, 8.92472
212, 1, wb, filler, NA, 999, 999, 1, 5, 107, 114, 181, 102, 104, 128, 3, 2.65139
212, 1, wb, filler, NA, 999, 999, 1, 5, 107, 114, 181, 102, 104, 128, 2, 0.839604
212, 1, wb, filler, NA, 999, 999, 1, 6, 75, 134, 166, 191, 130, 191, 1, 1.81987
212, 1, wb, filler, NA, 999, 999, 1, 6, 75, 134, 166, 191, 130, 191, 2, 0.793997
212, 1, wb, attraction, a-b-da, 5, 2, 1, 7, 161, 88, 165, 90, 90, 165, 1, 3.45572
212, 1, wb, attraction, a-b-da, 5, 2, 1, 7, 161, 88, 165, 90, 90, 165, 3, 0.795307
212, 1, wb, attraction, a-b-da, 14, 3, 1, 8, 120, 195, 181, 111, 195, 120, 2, 2.15296
212, 1, wb, attraction, a-b-da, 14, 3, 1, 8, 120, 195, 181, 111, 195, 120, 3, 1.32957
212, 1, wb, attraction, a-b-db, 5, 2, 1, 9, 90, 165, 165, 90, 88, 161, 2, 2.00994
212, 1, wb, attraction, a-b-db, 5, 2, 1, 9, 90, 165, 165, 90, 88, 161, 3, 0.807844
212, 1, wb, filler, NA, 999, 999, 1, 10, 139, 99, 191, 69, 66, 153, 3, 2.02085
212, 1, wb, filler, NA, 999, 999, 1, 10, 139, 99, 191, 69, 66, 153, 1, 0.890832
212, 1, wb, attraction, a-b-da, 9, 2, 1, 11, 157, 86, 90, 165, 165, 90, 1, 2.09256
212, 1, wb, attraction, a-b-da, 9, 2, 1, 11, 157, 86, 90, 165, 165, 90, 2, 0.831131
212, 1, wb, attraction, a-b-db, 5, 3, 1, 12, 117, 190, 195, 120, 120, 195, 2, 2.93156
212, 1, wb, attraction, a-b-db, 5, 3, 1, 12, 117, 190, 195, 120, 120, 195, 3, 0.452621
212, 1, wb, attraction, a-b-db, 2, 1, 1, 13, 60, 135, 135, 60, 59, 134, 2, 3.15234
212, 1, wb, attraction, a-b-db, 2, 1, 1, 13, 60, 135, 135, 60, 59, 134, 1, 1.12071
212, 1, wb, attraction, a-b-db, 5, 1, 1, 14, 135, 60, 60, 135, 58, 132, 3, 3.90562
212, 1, wb, attraction, a-b-db, 5, 1, 1, 14, 135, 60, 60, 135, 58, 132, 1, 1.08294
212, 1, wb, attraction, a-b-db, 9, 1, 1, 15, 135, 60, 57, 129, 60, 135, 1, 1.70127
212, 1, wb, attraction, a-b-db, 9, 1, 1, 15, 135, 60, 57, 129, 60, 135, 3, 6.48816
212, 1, wb, attraction, a-b-da, 5, 3, 1, 16, 195, 120, 120, 195, 190, 117, 3, 5.91268
212, 1, wb, attraction, a-b-da, 5, 3, 1, 16, 195, 120, 120, 195, 190, 117, 2, 0.793571
212, 1, wb, attraction, a-b-da, 2, 1, 1, 17, 135, 60, 134, 59, 60, 135, 2, 3.6632
212, 1, wb, attraction, a-b-da, 2, 1, 1, 17, 135, 60, 134, 59, 60, 135, 1, 0.930628
212, 1, wb, filler, NA, 999, 999, 1, 18, 162, 157, 195, 145, 61, 88, 3, 1.01093
212, 1, wb, filler, NA, 999, 999, 1, 18, 162, 157, 195, 145, 61, 88, 1, 4.08929
212, 1, wb, attraction, a-b-da, 9, 3, 1, 19, 120, 195, 195, 120, 186, 114, 3, 2.77868
212, 1, wb, attraction, a-b-da, 9, 3, 1, 19, 120, 195, 195, 120, 186, 114, 2, 0.897711
212, 1, wb, catch, NA, 999, 999, 1, 20, 126, 129, 159, 156, 130, 65, 3, 1.00337
212, 1, wb, catch, NA, 999, 999, 1, 20, 126, 129, 159, 156, 130, 65, 2, 0.426302
212, 1, wb, attraction, a-b-da, 14, 2, 1, 21, 165, 90, 153, 83, 90, 165, 2, 2.2389
212, 1, wb, attraction, a-b-da, 14, 2, 1, 21, 165, 90, 153, 83, 90, 165, 3, 0.771628
212, 1, wb, filler, NA, 999, 999, 1, 22, 166, 184, 120, 121, 106, 59, 3, 0.930462
212, 1, wb, filler, NA, 999, 999, 1, 22, 166, 184, 120, 121, 106, 59, 1, 0.516159
212, 1, wb, attraction, a-b-db, 9, 3, 1, 23, 120, 195, 114, 186, 195, 120, 2, 2.98925
212, 1, wb, attraction, a-b-db, 9, 3, 1, 23, 120, 195, 114, 186, 195, 120, 3, 1.26772
212, 1, wb, attraction, a-b-da, 14, 1, 1, 24, 60, 135, 125, 56, 135, 60, 2, 2.49452
212, 1, wb, attraction, a-b-da, 14, 1, 1, 24, 60, 135, 125, 56, 135, 60, 1, 0.969134
212, 1, wb, filler, NA, 999, 999, 1, 25, 177, 114, 111, 134, 176, 185, 2, 2.38399
212, 1, wb, filler, NA, 999, 999, 1, 25, 177, 114, 111, 134, 176, 185, 3, 0.535267
212, 1, wb, catch, NA, 999, 999, 1, 26, 114, 141, 136, 179, 103, 92, 3, 0.951836
212, 1, wb, catch, NA, 999, 999, 1, 26, 114, 141, 136, 179, 103, 92, 2, 0.488849
212, 1, wb, attraction, a-b-da, 9, 1, 1, 27, 129, 57, 60, 135, 135, 60, 1, 8.5632
212, 1, wb, attraction, a-b-da, 9, 1, 1, 27, 129, 57, 60, 135, 135, 60, 2, 0.3931
212, 1, wb, catch, NA, 999, 999, 1, 28, 156, 99, 77, 118, 160, 155, 2, 1.08693
212, 1, wb, catch, NA, 999, 999, 1, 28, 156, 99, 77, 118, 160, 155, 3, 0.322577
212, 1, wb, attraction, a-b-da, 2, 3, 1, 29, 120, 195, 193, 119, 195, 120, 1, 8.44382
212, 1, wb, attraction, a-b-da, 2, 3, 1, 29, 120, 195, 193, 119, 195, 120, 3, 0.446461
212, 1, wb, attraction, a-b-da, 2, 2, 1, 30, 90, 165, 165, 90, 163, 89, 1, 1.7382
212, 1, wb, attraction, a-b-da, 2, 2, 1, 30, 90, 165, 165, 90, 163, 89, 3, 1.05185
212, 1, wb, attraction, a-b-db, 14, 1, 1, 31, 135, 60, 60, 135, 56, 125, 1, 4.59132
212, 1, wb, attraction, a-b-db, 14, 1, 1, 31, 135, 60, 60, 135, 56, 125, 2, 1.95722
212, 1, wb, filler, NA, 999, 999, 1, 32, 73, 69, 117, 139, 95, 87, 1, 0.699752
212, 1, wb, filler, NA, 999, 999, 1, 32, 73, 69, 117, 139, 95, 87, 2, 0.430917
212, 1, wb, attraction, a-b-db, 14, 2, 1, 33, 90, 165, 83, 153, 165, 90, 2, 2.4995
212, 1, wb, attraction, a-b-db, 14, 2, 1, 33, 90, 165, 83, 153, 165, 90, 1, 2.41402
212, 1, wb, filler, NA, 999, 999, 1, 34, 88, 176, 100, 117, 144, 145, 2, 2.04251
212, 1, wb, filler, NA, 999, 999, 1, 34, 88, 176, 100, 117, 144, 145, 3, 0.591134
212, 1, wb, attraction, a-b-db, 14, 3, 1, 35, 195, 120, 111, 181, 120, 195, 2, 3.80494
212, 1, wb, attraction, a-b-db, 14, 3, 1, 35, 195, 120, 111, 181, 120, 195, 1, 0.898933
212, 1, wb, attraction, a-b-db, 2, 2, 1, 36, 89, 163, 165, 90, 90, 165, 2, 1.52463
212, 1, wb, attraction, a-b-db, 2, 2, 1, 36, 89, 163, 165, 90, 90, 165, 3, 0.990074
212, 1, wb, filler, NA, 999, 999, 1, 37, 106, 127, 94, 129, 126, 68, 3, 0.883799
212, 1, wb, filler, NA, 999, 999, 1, 37, 106, 127, 94, 129, 126, 68, 1, 0.431453
212, 1, wb, filler, NA, 999, 999, 2, 1, 134, 98, 195, 72, 193, 153, 2, 1.93991
212, 1, wb, filler, NA, 999, 999, 2, 1, 134, 98, 195, 72, 193, 153, 3, 0.580669
212, 1, wb, attraction, a-b-db, 9, 2, 2, 2, 86, 157, 165, 90, 90, 165, 1, 1.45109
212, 1, wb, attraction, a-b-db, 9, 2, 2, 2, 86, 157, 165, 90, 90, 165, 2, 0.623999
212, 1, wb, attraction, a-b-da, 14, 2, 2, 3, 165, 90, 90, 165, 153, 83, 3, 1.24431
212, 1, wb, attraction, a-b-da, 14, 2, 2, 3, 165, 90, 90, 165, 153, 83, 2, 0.66525
212, 1, wb, attraction, a-b-db, 9, 1, 2, 4, 135, 60, 57, 129, 60, 135, 2, 6.1484
212, 1, wb, attraction, a-b-db, 9, 1, 2, 4, 135, 60, 57, 129, 60, 135, 1, 0.435813
212, 1, wb, attraction, a-b-db, 2, 2, 2, 5, 90, 165, 165, 90, 89, 163, 3, 0.968085
212, 1, wb, attraction, a-b-db, 2, 2, 2, 5, 90, 165, 165, 90, 89, 163, 2, 0.896532
212, 1, wb, filler, NA, 999, 999, 2, 6, 64, 190, 131, 135, 158, 162, 1, 1.31412
212, 1, wb, filler, NA, 999, 999, 2, 6, 64, 190, 131, 135, 158, 162, 3, 2.38047
212, 1, wb, filler, NA, 999, 999, 2, 7, 170, 139, 61, 154, 99, 142, 2, 1.13021
212, 1, wb, filler, NA, 999, 999, 2, 7, 170, 139, 61, 154, 99, 142, 1, 0.459916
212, 1, wb, filler, NA, 999, 999, 2, 8, 84, 106, 123, 90, 64, 71, 3, 0.75111
212, 1, wb, filler, NA, 999, 999, 2, 8, 84, 106, 123, 90, 64, 71, 2, 1.12006
212, 1, wb, attraction, a-b-da, 2, 1, 2, 9, 135, 60, 134, 59, 60, 135, 2, 1.46493
212, 1, wb, attraction, a-b-da, 2, 1, 2, 9, 135, 60, 134, 59, 60, 135, 3, 0.30117
212, 1, wb, catch, NA, 999, 999, 2, 10, 138, 177, 162, 93, 108, 87, 3, 0.686977
212, 1, wb, catch, NA, 999, 999, 2, 10, 138, 177, 162, 93, 108, 87, 1, 0.346872
212, 1, wb, filler, NA, 999, 999, 2, 11, 107, 93, 68, 90, 161, 73, 2, 0.626615
212, 1, wb, filler, NA, 999, 999, 2, 11, 107, 93, 68, 90, 161, 73, 3, 1.80849
212, 1, wb, filler, NA, 999, 999, 2, 12, 114, 124, 193, 144, 177, 154, 1, 0.949207
212, 1, wb, filler, NA, 999, 999, 2, 12, 114, 124, 193, 144, 177, 154, 2, 1.45404
212, 1, wb, attraction, a-b-da, 9, 1, 2, 13, 135, 60, 60, 135, 129, 57, 3, 1.2496
212, 1, wb, attraction, a-b-da, 9, 1, 2, 13, 135, 60, 60, 135, 129, 57, 2, 2.93453
212, 1, wb, attraction, a-b-da, 9, 3, 2, 14, 195, 120, 120, 195, 186, 114, 3, 1.3582
212, 1, wb, attraction, a-b-da, 9, 3, 2, 14, 195, 120, 120, 195, 186, 114, 1, 0.982347
212, 1, wb, filler, NA, 999, 999, 2, 15, 150, 91, 125, 116, 167, 107, 1, 0.692663
212, 1, wb, filler, NA, 999, 999, 2, 15, 150, 91, 125, 116, 167, 107, 2, 1.10383
212, 1, wb, attraction, a-b-db, 5, 1, 2, 16, 135, 60, 58, 132, 60, 135, 1, 3.15853
212, 1, wb, attraction, a-b-db, 5, 1, 2, 16, 135, 60, 58, 132, 60, 135, 2, 0.809153
212, 1, wb, attraction, a-b-db, 2, 3, 2, 17, 195, 120, 120, 195, 119, 193, 1, 2.63805
212, 1, wb, attraction, a-b-db, 2, 3, 2, 17, 195, 120, 120, 195, 119, 193, 2, 1.79521
212, 1, wb, attraction, a-b-da, 5, 2, 2, 18, 165, 90, 90, 165, 161, 88, 3, 3.42472
212, 1, wb, attraction, a-b-da, 5, 2, 2, 18, 165, 90, 90, 165, 161, 88, 1, 0.789545
212, 1, wb, attraction, a-b-da, 14, 3, 2, 19, 195, 120, 120, 195, 181, 111, 3, 0.883948
212, 1, wb, attraction, a-b-da, 14, 3, 2, 19, 195, 120, 120, 195, 181, 111, 1, 0.607576
212, 1, wb, filler, NA, 999, 999, 2, 20, 146, 104, 137, 58, 111, 158, 2, 1.54074
212, 1, wb, filler, NA, 999, 999, 2, 20, 146, 104, 137, 58, 111, 158, 1, 0.661364
212, 1, wb, attraction, a-b-da, 2, 2, 2, 21, 163, 89, 165, 90, 90, 165, 3, 2.73667
212, 1, wb, attraction, a-b-da, 2, 2, 2, 21, 163, 89, 165, 90, 90, 165, 1, 1.52973
212, 1, wb, attraction, a-b-db, 2, 1, 2, 22, 135, 60, 59, 134, 60, 135, 3, 2.7699
212, 1, wb, attraction, a-b-db, 2, 1, 2, 22, 135, 60, 59, 134, 60, 135, 1, 0.577697
212, 1, wb, attraction, a-b-da, 9, 2, 2, 23, 157, 86, 165, 90, 90, 165, 1, 3.16803
212, 1, wb, attraction, a-b-da, 9, 2, 2, 23, 157, 86, 165, 90, 90, 165, 3, 0.375655
212, 1, wb, attraction, a-b-db, 5, 3, 2, 24, 117, 190, 195, 120, 120, 195, 2, 2.00615
212, 1, wb, attraction, a-b-db, 5, 3, 2, 24, 117, 190, 195, 120, 120, 195, 3, 0.284166
212, 1, wb, attraction, a-b-db, 5, 2, 2, 25, 88, 161, 90, 165, 165, 90, 3, 1.42267
212, 1, wb, attraction, a-b-db, 5, 2, 2, 25, 88, 161, 90, 165, 165, 90, 2, 0.308344
212, 1, wb, attraction, a-b-db, 14, 3, 2, 26, 120, 195, 195, 120, 111, 181, 3, 1.7255
212, 1, wb, attraction, a-b-db, 14, 3, 2, 26, 120, 195, 195, 120, 111, 181, 1, 0.534967
212, 1, wb, attraction, a-b-db, 14, 1, 2, 27, 135, 60, 56, 125, 60, 135, 3, 1.27135
212, 1, wb, attraction, a-b-db, 14, 1, 2, 27, 135, 60, 56, 125, 60, 135, 1, 0.322824
212, 1, wb, attraction, a-b-db, 9, 3, 2, 28, 195, 120, 120, 195, 114, 186, 3, 1.84401
212, 1, wb, attraction, a-b-db, 9, 3, 2, 28, 195, 120, 120, 195, 114, 186, 1, 0.664704
212, 1, wb, attraction, a-b-da, 5, 1, 2, 29, 60, 135, 132, 58, 135, 60, 3, 2.56391
212, 1, wb, attraction, a-b-da, 5, 1, 2, 29, 60, 135, 132, 58, 135, 60, 1, 0.539639
212, 1, wb, catch, NA, 999, 999, 2, 30, 92, 163, 84, 111, 164, 151, 1, 1.48406
212, 1, wb, catch, NA, 999, 999, 2, 30, 92, 163, 84, 111, 164, 151, 2, 3.5116
212, 1, wb, catch, NA, 999, 999, 2, 31, 118, 77, 156, 99, 188, 127, 1, 0.743888
212, 1, wb, catch, NA, 999, 999, 2, 31, 118, 77, 156, 99, 188, 127, 3, 0.664872
212, 1, wb, attraction, a-b-da, 2, 3, 2, 32, 195, 120, 193, 119, 120, 195, 3, 1.53194
212, 1, wb, attraction, a-b-da, 2, 3, 2, 32, 195, 120, 193, 119, 120, 195, 1, 0.333409
212, 1, wb, attraction, a-b-da, 14, 1, 2, 33, 135, 60, 60, 135, 125, 56, 3, 0.670017
212, 1, wb, attraction, a-b-da, 14, 1, 2, 33, 135, 60, 60, 135, 125, 56, 1, 0.522449
212, 1, wb, filler, NA, 999, 999, 2, 34, 163, 136, 89, 77, 160, 195, 2, 0.603574
212, 1, wb, filler, NA, 999, 999, 2, 34, 163, 136, 89, 77, 160, 195, 3, 0.538598
212, 1, wb, attraction, a-b-da, 5, 3, 2, 35, 190, 117, 195, 120, 120, 195, 2, 1.75512
212, 1, wb, attraction, a-b-da, 5, 3, 2, 35, 190, 117, 195, 120, 120, 195, 1, 1.0358
212, 1, wb, attraction, a-b-db, 14, 2, 2, 36, 165, 90, 83, 153, 90, 165, 2, 2.36008
212, 1, wb, attraction, a-b-db, 14, 2, 2, 36, 165, 90, 83, 153, 90, 165, 1, 0.208039
212, 1, wb, filler, NA, 999, 999, 2, 37, 68, 96, 143, 96, 99, 90, 1, 1.06927
212, 1, wb, filler, NA, 999, 999, 2, 37, 68, 96, 143, 96, 99, 90, 2, 1.56957
212, 1, wb, filler, NA, 999, 999, 3, 1, 127, 101, 185, 141, 128, 78, 3, 0.816188
212, 1, wb, filler, NA, 999, 999, 3, 1, 127, 101, 185, 141, 128, 78, 2, 0.46267
212, 1, wb, attraction, a-b-da, 2, 1, 3, 2, 135, 60, 134, 59, 60, 135, 3, 3.00998
212, 1, wb, attraction, a-b-da, 2, 1, 3, 2, 135, 60, 134, 59, 60, 135, 2, 0.823518
212, 1, wb, attraction, a-b-db, 2, 1, 3, 3, 60, 135, 59, 134, 135, 60, 1, 1.25986
212, 1, wb, attraction, a-b-db, 2, 1, 3, 3, 60, 135, 59, 134, 135, 60, 2, 0.464116
212, 1, wb, attraction, a-b-da, 9, 2, 3, 4, 157, 86, 165, 90, 90, 165, 1, 1.49922
212, 1, wb, attraction, a-b-da, 9, 2, 3, 4, 157, 86, 165, 90, 90, 165, 3, 0.262086
212, 1, wb, attraction, a-b-db, 9, 2, 3, 5, 86, 157, 90, 165, 165, 90, 1, 1.30523
212, 1, wb, attraction, a-b-db, 9, 2, 3, 5, 86, 157, 90, 165, 165, 90, 2, 0.267516
212, 1, wb, catch, NA, 999, 999, 3, 6, 100, 95, 91, 164, 137, 178, 1, 0.686718
212, 1, wb, catch, NA, 999, 999, 3, 6, 100, 95, 91, 164, 137, 178, 3, 0.458446
212, 1, wb, filler, NA, 999, 999, 3, 7, 57, 161, 187, 128, 106, 149, 1, 1.14156
212, 1, wb, filler, NA, 999, 999, 3, 7, 57, 161, 187, 128, 106, 149, 2, 0.790466
212, 1, wb, attraction, a-b-da, 9, 1, 3, 8, 129, 57, 60, 135, 135, 60, 1, 1.06553
212, 1, wb, attraction, a-b-da, 9, 1, 3, 8, 129, 57, 60, 135, 135, 60, 2, 0.920487
212, 1, wb, filler, NA, 999, 999, 3, 9, 132, 119, 92, 83, 84, 190, 2, 1.06551
212, 1, wb, filler, NA, 999, 999, 3, 9, 132, 119, 92, 83, 84, 190, 1, 0.453719
212, 1, wb, attraction, a-b-db, 5, 1, 3, 10, 135, 60, 60, 135, 58, 132, 2, 1.17763
212, 1, wb, attraction, a-b-db, 5, 1, 3, 10, 135, 60, 60, 135, 58, 132, 3, 0.337202
212, 1, wb, attraction, a-b-db, 14, 3, 3, 11, 111, 181, 195, 120, 120, 195, 1, 1.83369
212, 1, wb, attraction, a-b-db, 14, 3, 3, 11, 111, 181, 195, 120, 120, 195, 3, 0.767118
212, 1, wb, catch, NA, 999, 999, 3, 12, 111, 84, 141, 114, 189, 126, 1, 1.13416
212, 1, wb, catch, NA, 999, 999, 3, 12, 111, 84, 141, 114, 189, 126, 3, 0.687806
212, 1, wb, attraction, a-b-da, 5, 2, 3, 13, 90, 165, 161, 88, 165, 90, 2, 4.08221
212, 1, wb, attraction, a-b-da, 5, 2, 3, 13, 90, 165, 161, 88, 165, 90, 1, 0.284835
212, 1, wb, attraction, a-b-db, 9, 3, 3, 14, 195, 120, 114, 186, 120, 195, 2, 3.29538
212, 1, wb, attraction, a-b-db, 9, 3, 3, 14, 195, 120, 114, 186, 120, 195, 1, 0.809633
212, 1, wb, filler, NA, 999, 999, 3, 15, 118, 161, 91, 66, 139, 80, 2, 0.966705
212, 1, wb, filler, NA, 999, 999, 3, 15, 118, 161, 91, 66, 139, 80, 1, 0.575039
212, 1, wb, attraction, a-b-db, 2, 3, 3, 16, 120, 195, 119, 193, 195, 120, 3, 2.17357
212, 1, wb, attraction, a-b-db, 2, 3, 3, 16, 120, 195, 119, 193, 195, 120, 2, 0.724775
212, 1, wb, attraction, a-b-db, 5, 2, 3, 17, 90, 165, 88, 161, 165, 90, 3, 1.07712
212, 1, wb, attraction, a-b-db, 5, 2, 3, 17, 90, 165, 88, 161, 165, 90, 2, 0.344709
212, 1, wb, attraction, a-b-db, 2, 2, 3, 18, 165, 90, 90, 165, 89, 163, 3, 1.80057
212, 1, wb, attraction, a-b-db, 2, 2, 3, 18, 165, 90, 90, 165, 89, 163, 1, 0.271345
212, 1, wb, filler, NA, 999, 999, 3, 19, 128, 68, 135, 154, 132, 144, 1, 0.650402
212, 1, wb, filler, NA, 999, 999, 3, 19, 128, 68, 135, 154, 132, 144, 2, 0.631646
212, 1, wb, filler, NA, 999, 999, 3, 20, 65, 70, 95, 120, 60, 129, 1, 1.0362
212, 1, wb, filler, NA, 999, 999, 3, 20, 65, 70, 95, 120, 60, 129, 2, 0.617691
212, 1, wb, attraction, a-b-da, 2, 2, 3, 21, 90, 165, 165, 90, 163, 89, 3, 5.28677
212, 1, wb, attraction, a-b-da, 2, 2, 3, 21, 90, 165, 165, 90, 163, 89, 1, 0.321078
212, 1, wb, filler, NA, 999, 999, 3, 22, 193, 96, 191, 183, 168, 83, 3, 0.986268
212, 1, wb, filler, NA, 999, 999, 3, 22, 193, 96, 191, 183, 168, 83, 2, 0.305958
212, 1, wb, attraction, a-b-db, 14, 2, 3, 23, 90, 165, 83, 153, 165, 90, 1, 1.51581
212, 1, wb, attraction, a-b-db, 14, 2, 3, 23, 90, 165, 83, 153, 165, 90, 3, 0.326018
212, 1, wb, attraction, a-b-da, 2, 3, 3, 24, 193, 119, 120, 195, 195, 120, 2, 2.0864
212, 1, wb, attraction, a-b-da, 2, 3, 3, 24, 193, 119, 120, 195, 195, 120, 3, 0.809793
212, 1, wb, filler, NA, 999, 999, 3, 25, 125, 193, 125, 145, 184, 86, 3, 1.16682
212, 1, wb, filler, NA, 999, 999, 3, 25, 125, 193, 125, 145, 184, 86, 1, 0.527083
212, 1, wb, attraction, a-b-da, 14, 1, 3, 26, 125, 56, 135, 60, 60, 135, 3, 1.35151
212, 1, wb, attraction, a-b-da, 14, 1, 3, 26, 125, 56, 135, 60, 60, 135, 2, 0.280418
212, 1, wb, attraction, a-b-da, 5, 3, 3, 27, 195, 120, 120, 195, 190, 117, 3, 1.09085
212, 1, wb, attraction, a-b-da, 5, 3, 3, 27, 195, 120, 120, 195, 190, 117, 1, 0.359544
212, 1, wb, attraction, a-b-db, 14, 1, 3, 28, 56, 125, 60, 135, 135, 60, 3, 0.805395
212, 1, wb, attraction, a-b-db, 14, 1, 3, 28, 56, 125, 60, 135, 135, 60, 2, 0.379452
212, 1, wb, attraction, a-b-db, 9, 1, 3, 29, 135, 60, 60, 135, 57, 129, 2, 1.00988
212, 1, wb, attraction, a-b-db, 9, 1, 3, 29, 135, 60, 60, 135, 57, 129, 3, 0.296234
212, 1, wb, filler, NA, 999, 999, 3, 30, 67, 165, 174, 178, 68, 101, 3, 0.882167
212, 1, wb, filler, NA, 999, 999, 3, 30, 67, 165, 174, 178, 68, 101, 2, 0.293804
212, 1, wb, attraction, a-b-da, 9, 3, 3, 31, 120, 195, 195, 120, 186, 114, 3, 2.70379
212, 1, wb, attraction, a-b-da, 9, 3, 3, 31, 120, 195, 195, 120, 186, 114, 1, 0.258034
212, 1, wb, attraction, a-b-db, 5, 3, 3, 32, 120, 195, 117, 190, 195, 120, 2, 4.28527
212, 1, wb, attraction, a-b-db, 5, 3, 3, 32, 120, 195, 117, 190, 195, 120, 1, 0.311895
212, 1, wb, attraction, a-b-da, 14, 2, 3, 33, 153, 83, 90, 165, 165, 90, 3, 1.1612
212, 1, wb, attraction, a-b-da, 14, 2, 3, 33, 153, 83, 90, 165, 165, 90, 2, 0.23348
212, 1, wb, catch, NA, 999, 999, 3, 34, 148, 167, 131, 64, 149, 106, 2, 1.0059
212, 1, wb, catch, NA, 999, 999, 3, 34, 148, 167, 131, 64, 149, 106, 1, 0.260359
212, 1, wb, attraction, a-b-da, 5, 1, 3, 35, 135, 60, 132, 58, 60, 135, 3, 0.839451
212, 1, wb, attraction, a-b-da, 5, 1, 3, 35, 135, 60, 132, 58, 60, 135, 1, 0.500462
212, 1, wb, filler, NA, 999, 999, 3, 36, 170, 90, 111, 186, 129, 67, 3, 0.862285
212, 1, wb, filler, NA, 999, 999, 3, 36, 170, 90, 111, 186, 129, 67, 2, 0.610582
212, 1, wb, attraction, a-b-da, 14, 3, 3, 37, 120, 195, 181, 111, 195, 120, 2, 1.47973
212, 1, wb, attraction, a-b-da, 14, 3, 3, 37, 120, 195, 181, 111, 195, 120, 3, 0.243223
212, 1, wb, attraction, a-b-da, 9, 3, 4, 1, 120, 195, 195, 120, 186, 114, 1, 1.0871
212, 1, wb, attraction, a-b-da, 9, 3, 4, 1, 120, 195, 195, 120, 186, 114, 3, 0.482759
212, 1, wb, attraction, a-b-db, 5, 3, 4, 2, 195, 120, 117, 190, 120, 195, 3, 1.04515
212, 1, wb, attraction, a-b-db, 5, 3, 4, 2, 195, 120, 117, 190, 120, 195, 1, 0.39417
212, 1, wb, attraction, a-b-db, 5, 1, 4, 3, 60, 135, 58, 132, 135, 60, 2, 0.648161
212, 1, wb, attraction, a-b-db, 5, 1, 4, 3, 60, 135, 58, 132, 135, 60, 3, 0.277084
212, 1, wb, filler, NA, 999, 999, 4, 4, 110, 192, 110, 59, 173, 98, 2, 0.767581
212, 1, wb, filler, NA, 999, 999, 4, 4, 110, 192, 110, 59, 173, 98, 1, 0.336008
212, 1, wb, catch, NA, 999, 999, 4, 5, 164, 91, 169, 146, 62, 133, 3, 0.704459
212, 1, wb, catch, NA, 999, 999, 4, 5, 164, 91, 169, 146, 62, 133, 2, 0.267024
212, 1, wb, catch, NA, 999, 999, 4, 6, 152, 103, 106, 89, 172, 143, 2, 0.750048
212, 1, wb, catch, NA, 999, 999, 4, 6, 152, 103, 106, 89, 172, 143, 3, 0.295182
212, 1, wb, attraction, a-b-da, 2, 2, 4, 7, 90, 165, 163, 89, 165, 90, 2, 1.29699
212, 1, wb, attraction, a-b-da, 2, 2, 4, 7, 90, 165, 163, 89, 165, 90, 3, 0.260013
212, 1, wb, attraction, a-b-db, 9, 3, 4, 8, 114, 186, 195, 120, 120, 195, 1, 1.1111
212, 1, wb, attraction, a-b-db, 9, 3, 4, 8, 114, 186, 195, 120, 120, 195, 2, 0.249498
212, 1, wb, attraction, a-b-da, 9, 1, 4, 9, 60, 135, 129, 57, 135, 60, 2, 1.23751
212, 1, wb, attraction, a-b-da, 9, 1, 4, 9, 60, 135, 129, 57, 135, 60, 3, 0.250903
212, 1, wb, filler, NA, 999, 999, 4, 10, 67, 90, 70, 112, 87, 180, 1, 1.21469
212, 1, wb, filler, NA, 999, 999, 4, 10, 67, 90, 70, 112, 87, 180, 3, 0.316979
212, 1, wb, attraction, a-b-db, 14, 2, 4, 11, 165, 90, 90, 165, 83, 153, 3, 1.68617
212, 1, wb, attraction, a-b-db, 14, 2, 4, 11, 165, 90, 90, 165, 83, 153, 2, 0.721639
212, 1, wb, attraction, a-b-da, 9, 2, 4, 12, 165, 90, 90, 165, 157, 86, 3, 3.49889
212, 1, wb, attraction, a-b-da, 9, 2, 4, 12, 165, 90, 90, 165, 157, 86, 1, 0.492887
212, 1, wb, attraction, a-b-db, 9, 1, 4, 13, 135, 60, 57, 129, 60, 135, 2, 1.10279
212, 1, wb, attraction, a-b-db, 9, 1, 4, 13, 135, 60, 57, 129, 60, 135, 3, 0.225657
212, 1, wb, filler, NA, 999, 999, 4, 14, 159, 73, 147, 63, 128, 144, 2, 0.910257
212, 1, wb, filler, NA, 999, 999, 4, 14, 159, 73, 147, 63, 128, 144, 3, 0.416553
212, 1, wb, attraction, a-b-da, 14, 1, 4, 15, 135, 60, 125, 56, 60, 135, 1, 1.64572
212, 1, wb, attraction, a-b-da, 14, 1, 4, 15, 135, 60, 125, 56, 60, 135, 2, 0.657446
212, 1, wb, attraction, a-b-da, 5, 2, 4, 16, 90, 165, 165, 90, 161, 88, 3, 0.949627
212, 1, wb, attraction, a-b-da, 5, 2, 4, 16, 90, 165, 165, 90, 161, 88, 1, 0.320156
212, 1, wb, catch, NA, 999, 999, 4, 17, 156, 99, 112, 83, 150, 165, 2, 1.62372
212, 1, wb, catch, NA, 999, 999, 4, 17, 156, 99, 112, 83, 150, 165, 3, 0.269367
212, 1, wb, filler, NA, 999, 999, 4, 18, 105, 130, 172, 134, 121, 153, 1, 1.40835
212, 1, wb, filler, NA, 999, 999, 4, 18, 105, 130, 172, 134, 121, 153, 2, 2.37469
212, 1, wb, attraction, a-b-db, 14, 3, 4, 19, 111, 181, 195, 120, 120, 195, 1, 1.96442
212, 1, wb, attraction, a-b-db, 14, 3, 4, 19, 111, 181, 195, 120, 120, 195, 2, 0.244448
212, 1, wb, filler, NA, 999, 999, 4, 20, 76, 139, 77, 162, 128, 139, 1, 1.50952
212, 1, wb, filler, NA, 999, 999, 4, 20, 76, 139, 77, 162, 128, 139, 3, 0.514568
212, 1, wb, filler, NA, 999, 999, 4, 21, 115, 175, 158, 97, 120, 118, 3, 0.627732
212, 1, wb, filler, NA, 999, 999, 4, 21, 115, 175, 158, 97, 120, 118, 1, 0.241516
212, 1, wb, attraction, a-b-db, 9, 2, 4, 22, 86, 157, 165, 90, 90, 165, 1, 1.16527
212, 1, wb, attraction, a-b-db, 9, 2, 4, 22, 86, 157, 165, 90, 90, 165, 3, 0.229542
212, 1, wb, filler, NA, 999, 999, 4, 23, 136, 125, 175, 58, 99, 101, 3, 1.28216
212, 1, wb, filler, NA, 999, 999, 4, 23, 136, 125, 175, 58, 99, 101, 1, 0.50966
212, 1, wb, attraction, a-b-db, 14, 1, 4, 24, 56, 125, 135, 60, 60, 135, 1, 2.4228
212, 1, wb, attraction, a-b-db, 14, 1, 4, 24, 56, 125, 135, 60, 60, 135, 3, 0.403999
212, 1, wb, filler, NA, 999, 999, 4, 25, 155, 73, 93, 191, 109, 186, 1, 0.897804
212, 1, wb, filler, NA, 999, 999, 4, 25, 155, 73, 93, 191, 109, 186, 3, 0.284863
212, 1, wb, attraction, a-b-da, 14, 3, 4, 26, 181, 111, 120, 195, 195, 120, 3, 1.15938
212, 1, wb, attraction, a-b-da, 14, 3, 4, 26, 181, 111, 120, 195, 195, 120, 2, 0.327564
212, 1, wb, attraction, a-b-db, 2, 2, 4, 27, 165, 90, 90, 165, 89, 163, 3, 1.45619
212, 1, wb, attraction, a-b-db, 2, 2, 4, 27, 165, 90, 90, 165, 89, 163, 1, 0.484365
212, 1, wb, filler, NA, 999, 999, 4, 28, 115, 108, 193, 96, 65, 150, 3, 2.32694
212, 1, wb, filler, NA, 999, 999, 4, 28, 115, 108, 193, 96, 65, 150, 2, 0.94401
212, 1, wb, attraction, a-b-da, 2, 1, 4, 29, 135, 60, 60, 135, 134, 59, 2, 0.911743
212, 1, wb, attraction, a-b-da, 2, 1, 4, 29, 135, 60, 60, 135, 134, 59, 3, 0.665972
212, 1, wb, attraction, a-b-db, 2, 1, 4, 30, 135, 60, 60, 135, 59, 134, 3, 0.805075
212, 1, wb, attraction, a-b-db, 2, 1, 4, 30, 135, 60, 60, 135, 59, 134, 2, 0.771458
212, 1, wb, attraction, a-b-da, 2, 3, 4, 31, 193, 119, 120, 195, 195, 120, 3, 1.20254
212, 1, wb, attraction, a-b-da, 2, 3, 4, 31, 193, 119, 120, 195, 195, 120, 1, 0.673499
212, 1, wb, attraction, a-b-db, 2, 3, 4, 32, 120, 195, 119, 193, 195, 120, 3, 1.25986
212, 1, wb, attraction, a-b-db, 2, 3, 4, 32, 120, 195, 119, 193, 195, 120, 1, 0.896242
212, 1, wb, filler, NA, 999, 999, 4, 33, 163, 168, 97, 143, 80, 186, 2, 0.937768
212, 1, wb, filler, NA, 999, 999, 4, 33, 163, 168, 97, 143, 80, 186, 1, 0.275404
212, 1, wb, attraction, a-b-da, 14, 2, 4, 34, 90, 165, 165, 90, 153, 83, 1, 1.52798
212, 1, wb, attraction, a-b-da, 14, 2, 4, 34, 90, 165, 165, 90, 153, 83, 3, 0.607506
212, 1, wb, attraction, a-b-da, 5, 3, 4, 35, 195, 120, 120, 195, 190, 117, 2, 1.30051
212, 1, wb, attraction, a-b-da, 5, 3, 4, 35, 195, 120, 120, 195, 190, 117, 3, 0.599371
212, 1, wb, attraction, a-b-da, 5, 1, 4, 36, 135, 60, 60, 135, 132, 58, 1, 2.42924
212, 1, wb, attraction, a-b-da, 5, 1, 4, 36, 135, 60, 60, 135, 132, 58, 2, 0.242373
212, 1, wb, attraction, a-b-db, 5, 2, 4, 37, 90, 165, 88, 161, 165, 90, 3, 1.11035
212, 1, wb, attraction, a-b-db, 5, 2, 4, 37, 90, 165, 88, 161, 165, 90, 1, 1.00053
212, 1, wb, attraction, a-b-da, 2, 2, 5, 1, 165, 90, 90, 165, 163, 89, 3, 1.32475
212, 1, wb, attraction, a-b-da, 2, 2, 5, 1, 165, 90, 90, 165, 163, 89, 2, 0.822421
212, 1, wb, attraction, a-b-db, 2, 2, 5, 2, 89, 163, 165, 90, 90, 165, 2, 1.22734
212, 1, wb, attraction, a-b-db, 2, 2, 5, 2, 89, 163, 165, 90, 90, 165, 3, 0.184958
212, 1, wb, attraction, a-b-da, 5, 2, 5, 3, 90, 165, 165, 90, 161, 88, 2, 0.991535
212, 1, wb, attraction, a-b-da, 5, 2, 5, 3, 90, 165, 165, 90, 161, 88, 3, 0.854622
212, 1, wb, attraction, a-b-da, 14, 1, 5, 4, 125, 56, 60, 135, 135, 60, 1, 1.14656
212, 1, wb, attraction, a-b-da, 14, 1, 5, 4, 125, 56, 60, 135, 135, 60, 3, 0.563109
212, 1, wb, filler, NA, 999, 999, 5, 5, 146, 60, 122, 129, 151, 134, 1, 1.1142
212, 1, wb, filler, NA, 999, 999, 5, 5, 146, 60, 122, 129, 151, 134, 3, 0.484571
212, 1, wb, attraction, a-b-da, 14, 2, 5, 6, 90, 165, 153, 83, 165, 90, 2, 1.14297
212, 1, wb, attraction, a-b-da, 14, 2, 5, 6, 90, 165, 153, 83, 165, 90, 1, 0.311934
212, 1, wb, attraction, a-b-da, 9, 2, 5, 7, 90, 165, 165, 90, 157, 86, 3, 1.21725
212, 1, wb, attraction, a-b-da, 9, 2, 5, 7, 90, 165, 165, 90, 157, 86, 1, 0.535322
212, 1, wb, catch, NA, 999, 999, 5, 8, 143, 172, 94, 101, 137, 118, 2, 0.655847
212, 1, wb, catch, NA, 999, 999, 5, 8, 143, 172, 94, 101, 137, 118, 1, 0.188178
212, 1, wb, filler, NA, 999, 999, 5, 9, 62, 79, 115, 187, 156, 169, 1, 0.690761
212, 1, wb, filler, NA, 999, 999, 5, 9, 62, 79, 115, 187, 156, 169, 3, 0.245848
212, 1, wb, attraction, a-b-da, 2, 3, 5, 10, 195, 120, 193, 119, 120, 195, 2, 1.08181
212, 1, wb, attraction, a-b-da, 2, 3, 5, 10, 195, 120, 193, 119, 120, 195, 3, 0.373437
212, 1, wb, attraction, a-b-da, 14, 3, 5, 11, 181, 111, 195, 120, 120, 195, 1, 1.18784
212, 1, wb, attraction, a-b-da, 14, 3, 5, 11, 181, 111, 195, 120, 120, 195, 3, 0.235402
212, 1, wb, attraction, a-b-db, 2, 3, 5, 12, 120, 195, 195, 120, 119, 193, 3, 1.11205
212, 1, wb, attraction, a-b-db, 2, 3, 5, 12, 120, 195, 195, 120, 119, 193, 1, 0.234271
212, 1, wb, attraction, a-b-db, 5, 3, 5, 13, 120, 195, 195, 120, 117, 190, 2, 0.518748
212, 1, wb, attraction, a-b-db, 5, 3, 5, 13, 120, 195, 195, 120, 117, 190, 3, 0.481319
212, 1, wb, filler, NA, 999, 999, 5, 14, 102, 122, 167, 65, 126, 170, 2, 1.29178
212, 1, wb, filler, NA, 999, 999, 5, 14, 102, 122, 167, 65, 126, 170, 3, 0.58264
212, 1, wb, filler, NA, 999, 999, 5, 15, 191, 162, 174, 94, 171, 95, 3, 1.2851
212, 1, wb, filler, NA, 999, 999, 5, 15, 191, 162, 174, 94, 171, 95, 1, 0.505111
212, 1, wb, filler, NA, 999, 999, 5, 16, 136, 174, 195, 133, 184, 57, 3, 1.09053
212, 1, wb, filler, NA, 999, 999, 5, 16, 136, 174, 195, 133, 184, 57, 2, 0.669565
212, 1, wb, attraction, a-b-db, 14, 1, 5, 17, 135, 60, 56, 125, 60, 135, 2, 2.32854
212, 1, wb, attraction, a-b-db, 14, 1, 5, 17, 135, 60, 56, 125, 60, 135, 1, 0.289693
212, 1, wb, filler, NA, 999, 999, 5, 18, 121, 153, 113, 102, 190, 108, 2, 2.11625
212, 1, wb, filler, NA, 999, 999, 5, 18, 121, 153, 113, 102, 190, 108, 3, 0.310333
212, 1, wb, attraction, a-b-da, 9, 1, 5, 19, 129, 57, 135, 60, 60, 135, 2, 1.63952
212, 1, wb, attraction, a-b-da, 9, 1, 5, 19, 129, 57, 135, 60, 60, 135, 1, 0.956149
212, 1, wb, attraction, a-b-db, 5, 2, 5, 20, 165, 90, 90, 165, 88, 161, 2, 1.41992
212, 1, wb, attraction, a-b-db, 5, 2, 5, 20, 165, 90, 90, 165, 88, 161, 1, 1.7621
212, 1, wb, attraction, a-b-db, 9, 3, 5, 21, 114, 186, 120, 195, 195, 120, 1, 2.13674
212, 1, wb, attraction, a-b-db, 9, 3, 5, 21, 114, 186, 120, 195, 195, 120, 3, 0.626069
212, 1, wb, attraction, a-b-db, 9, 2, 5, 22, 86, 157, 90, 165, 165, 90, 3, 1.61446
212, 1, wb, attraction, a-b-db, 9, 2, 5, 22, 86, 157, 90, 165, 165, 90, 2, 0.692679
212, 1, wb, attraction, a-b-db, 5, 1, 5, 23, 58, 132, 135, 60, 60, 135, 1, 2.09435
212, 1, wb, attraction, a-b-db, 5, 1, 5, 23, 58, 132, 135, 60, 60, 135, 3, 1.88109
212, 1, wb, catch, NA, 999, 999, 5, 24, 157, 158, 155, 100, 131, 64, 3, 0.803219
212, 1, wb, catch, NA, 999, 999, 5, 24, 157, 158, 155, 100, 131, 64, 1, 0.234084
212, 1, wb, catch, NA, 999, 999, 5, 25, 90, 105, 121, 194, 132, 123, 1, 0.942627
212, 1, wb, catch, NA, 999, 999, 5, 25, 90, 105, 121, 194, 132, 123, 2, 0.711596
212, 1, wb, filler, NA, 999, 999, 5, 26, 70, 165, 95, 78, 120, 124, 2, 0.704687
212, 1, wb, filler, NA, 999, 999, 5, 26, 70, 165, 95, 78, 120, 124, 3, 0.307085
212, 1, wb, attraction, a-b-da, 9, 3, 5, 27, 186, 114, 195, 120, 120, 195, 3, 3.0523
212, 1, wb, attraction, a-b-da, 9, 3, 5, 27, 186, 114, 195, 120, 120, 195, 2, 0.896596
212, 1, wb, attraction, a-b-db, 14, 3, 5, 28, 195, 120, 120, 195, 111, 181, 3, 0.938314
212, 1, wb, attraction, a-b-db, 14, 3, 5, 28, 195, 120, 120, 195, 111, 181, 2, 3.25203
212, 1, wb, filler, NA, 999, 999, 5, 29, 166, 108, 98, 74, 129, 173, 2, 1.10284
212, 1, wb, filler, NA, 999, 999, 5, 29, 166, 108, 98, 74, 129, 173, 3, 2.402
212, 1, wb, attraction, a-b-da, 5, 3, 5, 30, 190, 117, 120, 195, 195, 120, 1, 2.63907
212, 1, wb, attraction, a-b-da, 5, 3, 5, 30, 190, 117, 120, 195, 195, 120, 3, 0.5395
212, 1, wb, attraction, a-b-da, 2, 1, 5, 31, 60, 135, 134, 59, 135, 60, 3, 1.90801
212, 1, wb, attraction, a-b-da, 2, 1, 5, 31, 60, 135, 134, 59, 135, 60, 1, 0.358139
212, 1, wb, attraction, a-b-db, 2, 1, 5, 32, 59, 134, 60, 135, 135, 60, 2, 2.19716
212, 1, wb, attraction, a-b-db, 2, 1, 5, 32, 59, 134, 60, 135, 135, 60, 3, 0.5478
212, 1, wb, attraction, a-b-da, 5, 1, 5, 33, 135, 60, 60, 135, 132, 58, 2, 0.739554
212, 1, wb, attraction, a-b-da, 5, 1, 5, 33, 135, 60, 60, 135, 132, 58, 3, 0.612797
212, 1, wb, attraction, a-b-db, 9, 1, 5, 34, 135, 60, 60, 135, 57, 129, 1, 2.07375
212, 1, wb, attraction, a-b-db, 9, 1, 5, 34, 135, 60, 60, 135, 57, 129, 2, 0.99714
212, 1, wb, attraction, a-b-db, 14, 2, 5, 35, 90, 165, 83, 153, 165, 90, 2, 1.2027
212, 1, wb, attraction, a-b-db, 14, 2, 5, 35, 90, 165, 83, 153, 165, 90, 3, 0.361639
212, 1, wb, filler, NA, 999, 999, 5, 36, 74, 95, 187, 58, 157, 77, 1, 0.68084
212, 1, wb, filler, NA, 999, 999, 5, 36, 74, 95, 187, 58, 157, 77, 3, 0.508545
212, 1, wb, filler, NA, 999, 999, 5, 37, 166, 155, 69, 138, 109, 124, 2, 0.701594
212, 1, wb, filler, NA, 999, 999, 5, 37, 166, 155, 69, 138, 109, 124, 1, 0.248713
212, 1, wb, attraction, a-b-db, 2, 2, 6, 1, 90, 165, 89, 163, 165, 90, 2, 1.42059
212, 1, wb, attraction, a-b-db, 2, 2, 6, 1, 90, 165, 89, 163, 165, 90, 3, 0.61084
212, 1, wb, attraction, a-b-db, 14, 3, 6, 2, 120, 195, 195, 120, 111, 181, 3, 1.66389
212, 1, wb, attraction, a-b-db, 14, 3, 6, 2, 120, 195, 195, 120, 111, 181, 2, 0.740026
212, 1, wb, filler, NA, 999, 999, 6, 3, 64, 190, 149, 150, 128, 58, 3, 0.884363
212, 1, wb, filler, NA, 999, 999, 6, 3, 64, 190, 149, 150, 128, 58, 2, 0.432052
212, 1, wb, filler, NA, 999, 999, 6, 4, 133, 102, 144, 102, 187, 67, 3, 1.37257
212, 1, wb, filler, NA, 999, 999, 6, 4, 133, 102, 144, 102, 187, 67, 1, 0.532129
212, 1, wb, attraction, a-b-da, 9, 3, 6, 5, 120, 195, 195, 120, 186, 114, 2, 0.876531
212, 1, wb, attraction, a-b-da, 9, 3, 6, 5, 120, 195, 195, 120, 186, 114, 1, 0.73634
212, 1, wb, filler, NA, 999, 999, 6, 6, 182, 116, 166, 159, 90, 159, 3, 1.0408
212, 1, wb, filler, NA, 999, 999, 6, 6, 182, 116, 166, 159, 90, 159, 2, 0.613637
212, 1, wb, filler, NA, 999, 999, 6, 7, 183, 135, 100, 172, 175, 70, 3, 0.89072
212, 1, wb, filler, NA, 999, 999, 6, 7, 183, 135, 100, 172, 175, 70, 1, 0.357868
212, 1, wb, attraction, a-b-da, 2, 1, 6, 8, 60, 135, 134, 59, 135, 60, 3, 1.40484
212, 1, wb, attraction, a-b-da, 2, 1, 6, 8, 60, 135, 134, 59, 135, 60, 1, 0.539738
212, 1, wb, attraction, a-b-db, 5, 3, 6, 9, 195, 120, 120, 195, 117, 190, 1, 0.980106
212, 1, wb, attraction, a-b-db, 5, 3, 6, 9, 195, 120, 120, 195, 117, 190, 2, 0.403871
212, 1, wb, filler, NA, 999, 999, 6, 10, 151, 131, 107, 125, 108, 56, 3, 0.657687
212, 1, wb, filler, NA, 999, 999, 6, 10, 151, 131, 107, 125, 108, 56, 1, 0.334104
212, 1, wb, attraction, a-b-da, 5, 1, 6, 11, 60, 135, 135, 60, 132, 58, 2, 0.910753
212, 1, wb, attraction, a-b-da, 5, 1, 6, 11, 60, 135, 135, 60, 132, 58, 3, 0.29705
212, 1, wb, attraction, a-b-da, 14, 2, 6, 12, 165, 90, 153, 83, 90, 165, 2, 1.5068
212, 1, wb, attraction, a-b-da, 14, 2, 6, 12, 165, 90, 153, 83, 90, 165, 3, 0.308976
212, 1, wb, attraction, a-b-db, 14, 1, 6, 13, 60, 135, 135, 60, 56, 125, 3, 0.854209
212, 1, wb, attraction, a-b-db, 14, 1, 6, 13, 60, 135, 135, 60, 56, 125, 2, 0.546562
212, 1, wb, filler, NA, 999, 999, 6, 14, 117, 78, 136, 63, 161, 141, 2, 2.00227
212, 1, wb, filler, NA, 999, 999, 6, 14, 117, 78, 136, 63, 161, 141, 3, 0.289006
212, 1, wb, catch, NA, 999, 999, 6, 15, 182, 133, 144, 111, 71, 124, 3, 1.64354
212, 1, wb, catch, NA, 999, 999, 6, 15, 182, 133, 144, 111, 71, 124, 1, 0.386219
212, 1, wb, catch, NA, 999, 999, 6, 16, 144, 171, 92, 163, 65, 130, 3, 0.582754
212, 1, wb, catch, NA, 999, 999, 6, 16, 144, 171, 92, 163, 65, 130, 1, 0.438559
212, 1, wb, filler, NA, 999, 999, 6, 17, 134, 118, 68, 114, 162, 175, 2, 0.786964
212, 1, wb, filler, NA, 999, 999, 6, 17, 134, 118, 68, 114, 162, 175, 3, 0.274758
212, 1, wb, filler, NA, 999, 999, 6, 18, 59, 170, 136, 133, 148, 114, 1, 0.965196
212, 1, wb, filler, NA, 999, 999, 6, 18, 59, 170, 136, 133, 148, 114, 2, 0.661581
212, 1, wb, attraction, a-b-da, 14, 3, 6, 19, 120, 195, 195, 120, 181, 111, 3, 2.17675
212, 1, wb, attraction, a-b-da, 14, 3, 6, 19, 120, 195, 195, 120, 181, 111, 1, 0.215973
212, 1, wb, attraction, a-b-db, 9, 3, 6, 20, 195, 120, 114, 186, 120, 195, 2, 2.08515
212, 1, wb, attraction, a-b-db, 9, 3, 6, 20, 195, 120, 114, 186, 120, 195, 3, 0.304471
212, 1, wb, attraction, a-b-db, 9, 2, 6, 21, 90, 165, 165, 90, 86, 157, 3, 0.962463
212, 1, wb, attraction, a-b-db, 9, 2, 6, 21, 90, 165, 165, 90, 86, 157, 1, 0.2587
212, 1, wb, attraction, a-b-da, 2, 3, 6, 22, 195, 120, 120, 195, 193, 119, 3, 1.59796
212, 1, wb, attraction, a-b-da, 2, 3, 6, 22, 195, 120, 120, 195, 193, 119, 2, 0.47687
212, 1, wb, filler, NA, 999, 999, 6, 23, 127, 74, 176, 165, 75, 97, 3, 0.631137
212, 1, wb, filler, NA, 999, 999, 6, 23, 127, 74, 176, 165, 75, 97, 2, 0.244991
212, 1, wb, attraction, a-b-da, 5, 3, 6, 24, 190, 117, 120, 195, 195, 120, 2, 2.04083
212, 1, wb, attraction, a-b-da, 5, 3, 6, 24, 190, 117, 120, 195, 195, 120, 1, 0.221462
212, 1, wb, attraction, a-b-da, 2, 2, 6, 25, 165, 90, 90, 165, 163, 89, 2, 0.666692
212, 1, wb, attraction, a-b-da, 2, 2, 6, 25, 165, 90, 90, 165, 163, 89, 3, 0.239063
212, 1, wb, attraction, a-b-da, 9, 1, 6, 26, 135, 60, 60, 135, 129, 57, 2, 0.731682
212, 1, wb, attraction, a-b-da, 9, 1, 6, 26, 135, 60, 60, 135, 129, 57, 3, 0.237535
212, 1, wb, attraction, a-b-db, 2, 3, 6, 27, 119, 193, 120, 195, 195, 120, 1, 0.721987
212, 1, wb, attraction, a-b-db, 2, 3, 6, 27, 119, 193, 120, 195, 195, 120, 2, 0.211783
212, 1, wb, attraction, a-b-db, 14, 2, 6, 28, 83, 153, 165, 90, 90, 165, 1, 1.36098
212, 1, wb, attraction, a-b-db, 14, 2, 6, 28, 83, 153, 165, 90, 90, 165, 3, 0.345131
212, 1, wb, attraction, a-b-db, 2, 1, 6, 29, 135, 60, 60, 135, 59, 134, 3, 1.81689
212, 1, wb, attraction, a-b-db, 2, 1, 6, 29, 135, 60, 60, 135, 59, 134, 1, 0.710948
212, 1, wb, attraction, a-b-db, 5, 2, 6, 30, 90, 165, 165, 90, 88, 161, 1, 1.97608
212, 1, wb, attraction, a-b-db, 5, 2, 6, 30, 90, 165, 165, 90, 88, 161, 3, 0.207508
212, 1, wb, attraction, a-b-da, 5, 2, 6, 31, 165, 90, 161, 88, 90, 165, 2, 0.620599
212, 1, wb, attraction, a-b-da, 5, 2, 6, 31, 165, 90, 161, 88, 90, 165, 1, 0.251114
212, 1, wb, attraction, a-b-db, 9, 1, 6, 32, 135, 60, 57, 129, 60, 135, 2, 0.606891
212, 1, wb, attraction, a-b-db, 9, 1, 6, 32, 135, 60, 57, 129, 60, 135, 1, 0.293366
212, 1, wb, filler, NA, 999, 999, 6, 33, 157, 58, 152, 71, 179, 129, 1, 0.799233
212, 1, wb, filler, NA, 999, 999, 6, 33, 157, 58, 152, 71, 179, 129, 3, 0.558306
212, 1, wb, attraction, a-b-da, 14, 1, 6, 34, 125, 56, 135, 60, 60, 135, 1, 2.02135
212, 1, wb, attraction, a-b-da, 14, 1, 6, 34, 125, 56, 135, 60, 60, 135, 3, 0.570835
212, 1, wb, catch, NA, 999, 999, 6, 35, 136, 119, 194, 121, 114, 81, 3, 1.21787
212, 1, wb, catch, NA, 999, 999, 6, 35, 136, 119, 194, 121, 114, 81, 2, 0.312053
212, 1, wb, attraction, a-b-da, 9, 2, 6, 36, 90, 165, 157, 86, 165, 90, 1, 0.985305
212, 1, wb, attraction, a-b-da, 9, 2, 6, 36, 90, 165, 157, 86, 165, 90, 3, 0.464948
212, 1, wb, attraction, a-b-db, 5, 1, 6, 37, 60, 135, 135, 60, 58, 132, 2, 0.708164
212, 1, wb, attraction, a-b-db, 5, 1, 6, 37, 60, 135, 135, 60, 58, 132, 1, 0.518473
212, 1, wb, filler, NA, 999, 999, 7, 1, 163, 129, 193, 144, 156, 146, 1, 3.9756
212, 1, wb, filler, NA, 999, 999, 7, 1, 163, 129, 193, 144, 156, 146, 2, 0.35023
212, 1, wb, attraction, a-b-da, 5, 3, 7, 2, 190, 117, 120, 195, 195, 120, 1, 1.41406
212, 1, wb, attraction, a-b-da, 5, 3, 7, 2, 190, 117, 120, 195, 195, 120, 3, 0.892396
212, 1, wb, filler, NA, 999, 999, 7, 3, 173, 73, 162, 163, 135, 107, 1, 0.501977
212, 1, wb, filler, NA, 999, 999, 7, 3, 173, 73, 162, 163, 135, 107, 2, 0.449126
212, 1, wb, catch, NA, 999, 999, 7, 4, 161, 94, 134, 61, 187, 128, 2, 0.893
212, 1, wb, catch, NA, 999, 999, 7, 4, 161, 94, 134, 61, 187, 128, 3, 0.232046
212, 1, wb, filler, NA, 999, 999, 7, 5, 137, 86, 58, 78, 120, 112, 2, 0.540465
212, 1, wb, filler, NA, 999, 999, 7, 5, 137, 86, 58, 78, 120, 112, 1, 0.245704
212, 1, wb, attraction, a-b-db, 9, 3, 7, 6, 195, 120, 114, 186, 120, 195, 3, 2.0255
212, 1, wb, attraction, a-b-db, 9, 3, 7, 6, 195, 120, 114, 186, 120, 195, 1, 0.262834
212, 1, wb, filler, NA, 999, 999, 7, 7, 104, 67, 94, 115, 93, 70, 3, 4.61006
212, 1, wb, filler, NA, 999, 999, 7, 7, 104, 67, 94, 115, 93, 70, 2, 0.415302
212, 1, wb, attraction, a-b-db, 2, 2, 7, 8, 90, 165, 89, 163, 165, 90, 3, 1.21236
212, 1, wb, attraction, a-b-db, 2, 2, 7, 8, 90, 165, 89, 163, 165, 90, 2, 1.10671
212, 1, wb, attraction, a-b-db, 5, 2, 7, 9, 90, 165, 165, 90, 88, 161, 1, 1.26833
212, 1, wb, attraction, a-b-db, 5, 2, 7, 9, 90, 165, 165, 90, 88, 161, 3, 0.32049
212, 1, wb, attraction, a-b-da, 9, 1, 7, 10, 60, 135, 129, 57, 135, 60, 3, 1.4017
212, 1, wb, attraction, a-b-da, 9, 1, 7, 10, 60, 135, 129, 57, 135, 60, 2, 0.240577
212, 1, wb, attraction, a-b-db, 9, 1, 7, 11, 135, 60, 57, 129, 60, 135, 2, 1.55649
212, 1, wb, attraction, a-b-db, 9, 1, 7, 11, 135, 60, 57, 129, 60, 135, 1, 0.23662
212, 1, wb, attraction, a-b-da, 5, 1, 7, 12, 132, 58, 60, 135, 135, 60, 1, 2.02507
212, 1, wb, attraction, a-b-da, 5, 1, 7, 12, 132, 58, 60, 135, 135, 60, 2, 0.382429
212, 1, wb, catch, NA, 999, 999, 7, 13, 86, 109, 147, 168, 148, 107, 1, 0.772941
212, 1, wb, catch, NA, 999, 999, 7, 13, 86, 109, 147, 168, 148, 107, 2, 0.308637
212, 1, wb, catch, NA, 999, 999, 7, 14, 138, 117, 127, 188, 113, 82, 3, 0.837871
212, 1, wb, catch, NA, 999, 999, 7, 14, 138, 117, 127, 188, 113, 82, 2, 0.362818
212, 1, wb, attraction, a-b-db, 2, 3, 7, 15, 195, 120, 120, 195, 119, 193, 1, 2.76205
212, 1, wb, attraction, a-b-db, 2, 3, 7, 15, 195, 120, 120, 195, 119, 193, 2, 0.273814
212, 1, wb, filler, NA, 999, 999, 7, 16, 190, 189, 181, 77, 70, 92, 3, 0.620307
212, 1, wb, filler, NA, 999, 999, 7, 16, 190, 189, 181, 77, 70, 92, 1, 0.282765
212, 1, wb, filler, NA, 999, 999, 7, 17, 132, 114, 111, 193, 77, 64, 3, 0.541298
212, 1, wb, filler, NA, 999, 999, 7, 17, 132, 114, 111, 193, 77, 64, 2, 1.0945
212, 1, wb, attraction, a-b-db, 2, 1, 7, 18, 135, 60, 60, 135, 59, 134, 1, 0.935997
212, 1, wb, attraction, a-b-db, 2, 1, 7, 18, 135, 60, 60, 135, 59, 134, 3, 0.481772
212, 1, wb, attraction, a-b-da, 2, 3, 7, 19, 120, 195, 193, 119, 195, 120, 1, 1.12431
212, 1, wb, attraction, a-b-da, 2, 3, 7, 19, 120, 195, 193, 119, 195, 120, 2, 0.421847
212, 1, wb, filler, NA, 999, 999, 7, 20, 131, 113, 66, 183, 139, 94, 3, 3.61098
212, 1, wb, filler, NA, 999, 999, 7, 20, 131, 113, 66, 183, 139, 94, 1, 0.344665
212, 1, wb, attraction, a-b-db, 14, 3, 7, 21, 195, 120, 120, 195, 111, 181, 1, 3.13627
212, 1, wb, attraction, a-b-db, 14, 3, 7, 21, 195, 120, 120, 195, 111, 181, 2, 0.393269
212, 1, wb, attraction, a-b-db, 5, 1, 7, 22, 60, 135, 58, 132, 135, 60, 1, 1.11913
212, 1, wb, attraction, a-b-db, 5, 1, 7, 22, 60, 135, 58, 132, 135, 60, 3, 0.55338
212, 1, wb, attraction, a-b-da, 2, 2, 7, 23, 90, 165, 165, 90, 163, 89, 1, 1.0172
212, 1, wb, attraction, a-b-da, 2, 2, 7, 23, 90, 165, 165, 90, 163, 89, 3, 0.255558
212, 1, wb, attraction, a-b-da, 9, 2, 7, 24, 157, 86, 165, 90, 90, 165, 1, 0.739323
212, 1, wb, attraction, a-b-da, 9, 2, 7, 24, 157, 86, 165, 90, 90, 165, 3, 0.508436
212, 1, wb, attraction, a-b-db, 14, 2, 7, 25, 90, 165, 83, 153, 165, 90, 1, 0.725498
212, 1, wb, attraction, a-b-db, 14, 2, 7, 25, 90, 165, 83, 153, 165, 90, 3, 0.39146
212, 1, wb, filler, NA, 999, 999, 7, 26, 102, 73, 58, 167, 175, 119, 1, 0.585653
212, 1, wb, filler, NA, 999, 999, 7, 26, 102, 73, 58, 167, 175, 119, 3, 0.196993
212, 1, wb, attraction, a-b-da, 9, 3, 7, 27, 186, 114, 195, 120, 120, 195, 1, 2.15486
212, 1, wb, attraction, a-b-da, 9, 3, 7, 27, 186, 114, 195, 120, 120, 195, 3, 0.25146
212, 1, wb, attraction, a-b-da, 14, 2, 7, 28, 90, 165, 165, 90, 153, 83, 3, 0.775299
212, 1, wb, attraction, a-b-da, 14, 2, 7, 28, 90, 165, 165, 90, 153, 83, 1, 0.199047
212, 1, wb, attraction, a-b-db, 9, 2, 7, 29, 86, 157, 90, 165, 165, 90, 3, 0.668983
212, 1, wb, attraction, a-b-db, 9, 2, 7, 29, 86, 157, 90, 165, 165, 90, 1, 0.225247
212, 1, wb, attraction, a-b-db, 14, 1, 7, 30, 60, 135, 135, 60, 56, 125, 3, 0.638037
212, 1, wb, attraction, a-b-db, 14, 1, 7, 30, 60, 135, 135, 60, 56, 125, 1, 0.25972
212, 1, wb, attraction, a-b-da, 14, 3, 7, 31, 120, 195, 181, 111, 195, 120, 2, 0.974816
212, 1, wb, attraction, a-b-da, 14, 3, 7, 31, 120, 195, 181, 111, 195, 120, 3, 0.574525
212, 1, wb, attraction, a-b-da, 14, 1, 7, 32, 135, 60, 125, 56, 60, 135, 2, 1.32495
212, 1, wb, attraction, a-b-da, 14, 1, 7, 32, 135, 60, 125, 56, 60, 135, 3, 0.270487
212, 1, wb, filler, NA, 999, 999, 7, 33, 142, 121, 61, 166, 156, 137, 2, 1.38565
212, 1, wb, filler, NA, 999, 999, 7, 33, 142, 121, 61, 166, 156, 137, 3, 1.17732
212, 1, wb, attraction, a-b-db, 5, 3, 7, 34, 120, 195, 117, 190, 195, 120, 3, 2.06353
212, 1, wb, attraction, a-b-db, 5, 3, 7, 34, 120, 195, 117, 190, 195, 120, 1, 0.387417
212, 1, wb, filler, NA, 999, 999, 7, 35, 123, 97, 187, 96, 143, 100, 1, 2.60191
212, 1, wb, filler, NA, 999, 999, 7, 35, 123, 97, 187, 96, 143, 100, 2, 0.488411
212, 1, wb, attraction, a-b-da, 2, 1, 7, 36, 134, 59, 60, 135, 135, 60, 2, 1.26697
212, 1, wb, attraction, a-b-da, 2, 1, 7, 36, 134, 59, 60, 135, 135, 60, 1, 1.95119
212, 1, wb, attraction, a-b-da, 5, 2, 7, 37, 165, 90, 90, 165, 161, 88, 2, 1.52661
212, 1, wb, attraction, a-b-da, 5, 2, 7, 37, 165, 90, 90, 165, 161, 88, 3, 0.607974
212, 1, wb, attraction, a-b-db, 14, 2, 8, 1, 90, 165, 165, 90, 83, 153, 3, 0.660978
212, 1, wb, attraction, a-b-db, 14, 2, 8, 1, 90, 165, 165, 90, 83, 153, 2, 0.457534
212, 1, wb, filler, NA, 999, 999, 8, 2, 123, 163, 105, 132, 80, 145, 3, 0.644573
212, 1, wb, filler, NA, 999, 999, 8, 2, 123, 163, 105, 132, 80, 145, 1, 0.310313
212, 1, wb, filler, NA, 999, 999, 8, 3, 126, 178, 168, 189, 142, 166, 1, 0.666955
212, 1, wb, filler, NA, 999, 999, 8, 3, 126, 178, 168, 189, 142, 166, 2, 0.495535
212, 1, wb, catch, NA, 999, 999, 8, 4, 148, 167, 134, 121, 61, 134, 3, 0.657093
212, 1, wb, catch, NA, 999, 999, 8, 4, 148, 167, 134, 121, 61, 134, 1, 0.229601
212, 1, wb, attraction, a-b-db, 5, 1, 8, 5, 60, 135, 135, 60, 58, 132, 3, 0.746174
212, 1, wb, attraction, a-b-db, 5, 1, 8, 5, 60, 135, 135, 60, 58, 132, 2, 0.243194
212, 1, wb, filler, NA, 999, 999, 8, 6, 69, 68, 120, 62, 75, 177, 1, 0.671025
212, 1, wb, filler, NA, 999, 999, 8, 6, 69, 68, 120, 62, 75, 177, 3, 0.411538
212, 1, wb, attraction, a-b-da, 14, 3, 8, 7, 120, 195, 195, 120, 181, 111, 3, 1.09658
212, 1, wb, attraction, a-b-da, 14, 3, 8, 7, 120, 195, 195, 120, 181, 111, 1, 0.171514
212, 1, wb, attraction, a-b-da, 9, 2, 8, 8, 157, 86, 165, 90, 90, 165, 3, 0.714897
212, 1, wb, attraction, a-b-da, 9, 2, 8, 8, 157, 86, 165, 90, 90, 165, 1, 0.189174
212, 1, wb, filler, NA, 999, 999, 8, 9, 166, 152, 160, 187, 96, 105, 3, 1.30787
212, 1, wb, filler, NA, 999, 999, 8, 9, 166, 152, 160, 187, 96, 105, 2, 0.757976
212, 1, wb, attraction, a-b-db, 9, 2, 8, 10, 90, 165, 165, 90, 86, 157, 3, 1.23708
212, 1, wb, attraction, a-b-db, 9, 2, 8, 10, 90, 165, 165, 90, 86, 157, 2, 0.426713
212, 1, wb, catch, NA, 999, 999, 8, 11, 94, 101, 136, 179, 144, 111, 1, 0.727057
212, 1, wb, catch, NA, 999, 999, 8, 11, 94, 101, 136, 179, 144, 111, 2, 0.296894
212, 1, wb, attraction, a-b-db, 14, 1, 8, 12, 56, 125, 60, 135, 135, 60, 2, 1.19467
212, 1, wb, attraction, a-b-db, 14, 1, 8, 12, 56, 125, 60, 135, 135, 60, 3, 0.313612
212, 1, wb, attraction, a-b-da, 14, 2, 8, 13, 90, 165, 153, 83, 165, 90, 2, 2.91491
212, 1, wb, attraction, a-b-da, 14, 2, 8, 13, 90, 165, 153, 83, 165, 90, 1, 0.468551
212, 1, wb, attraction, a-b-da, 2, 1, 8, 14, 135, 60, 134, 59, 60, 135, 3, 1.70365
212, 1, wb, attraction, a-b-da, 2, 1, 8, 14, 135, 60, 134, 59, 60, 135, 1, 0.730414
212, 1, wb, attraction, a-b-da, 9, 3, 8, 15, 186, 114, 195, 120, 120, 195, 2, 1.67484
212, 1, wb, attraction, a-b-da, 9, 3, 8, 15, 186, 114, 195, 120, 120, 195, 3, 0.294292
212, 1, wb, filler, NA, 999, 999, 8, 16, 78, 183, 114, 99, 175, 185, 2, 0.936088
212, 1, wb, filler, NA, 999, 999, 8, 16, 78, 183, 114, 99, 175, 185, 3, 0.225913
212, 1, wb, attraction, a-b-db, 2, 2, 8, 17, 89, 163, 90, 165, 165, 90, 2, 2.79032
212, 1, wb, attraction, a-b-db, 2, 2, 8, 17, 89, 163, 90, 165, 165, 90, 1, 1.00481
212, 1, wb, attraction, a-b-da, 2, 3, 8, 18, 195, 120, 120, 195, 193, 119, 1, 2.33035
212, 1, wb, attraction, a-b-da, 2, 3, 8, 18, 195, 120, 120, 195, 193, 119, 2, 0.299645
212, 1, wb, attraction, a-b-da, 5, 3, 8, 19, 120, 195, 195, 120, 190, 117, 3, 2.08542
212, 1, wb, attraction, a-b-da, 5, 3, 8, 19, 120, 195, 195, 120, 190, 117, 2, 0.280736
212, 1, wb, attraction, a-b-da, 5, 1, 8, 20, 135, 60, 60, 135, 132, 58, 2, 2.73933
212, 1, wb, attraction, a-b-da, 5, 1, 8, 20, 135, 60, 60, 135, 132, 58, 3, 1.09174
212, 1, wb, filler, NA, 999, 999, 8, 21, 105, 57, 166, 62, 186, 87, 1, 1.07597
212, 1, wb, filler, NA, 999, 999, 8, 21, 105, 57, 166, 62, 186, 87, 3, 0.641038
212, 1, wb, filler, NA, 999, 999, 8, 22, 82, 156, 194, 104, 63, 149, 3, 4.39679
212, 1, wb, filler, NA, 999, 999, 8, 22, 82, 156, 194, 104, 63, 149, 2, 0.4268
212, 1, wb, attraction, a-b-db, 9, 3, 8, 23, 114, 186, 195, 120, 120, 195, 1, 3.8151
212, 1, wb, attraction, a-b-db, 9, 3, 8, 23, 114, 186, 195, 120, 120, 195, 3, 0.332595
212, 1, wb, attraction, a-b-da, 14, 1, 8, 24, 60, 135, 135, 60, 125, 56, 3, 0.9971
212, 1, wb, attraction, a-b-da, 14, 1, 8, 24, 60, 135, 135, 60, 125, 56, 1, 0.71617
212, 1, wb, attraction, a-b-db, 9, 1, 8, 25, 135, 60, 57, 129, 60, 135, 2, 1.94115
212, 1, wb, attraction, a-b-db, 9, 1, 8, 25, 135, 60, 57, 129, 60, 135, 3, 0.253889
212, 1, wb, attraction, a-b-da, 5, 2, 8, 26, 161, 88, 90, 165, 165, 90, 3, 2.81774
212, 1, wb, attraction, a-b-da, 5, 2, 8, 26, 161, 88, 90, 165, 165, 90, 2, 0.311471
212, 1, wb, filler, NA, 999, 999, 8, 27, 183, 140, 98, 117, 100, 90, 3, 1.13662
212, 1, wb, filler, NA, 999, 999, 8, 27, 183, 140, 98, 117, 100, 90, 1, 0.242198
212, 1, wb, attraction, a-b-db, 2, 1, 8, 28, 135, 60, 59, 134, 60, 135, 2, 1.63018
212, 1, wb, attraction, a-b-db, 2, 1, 8, 28, 135, 60, 59, 134, 60, 135, 3, 0.731638
212, 1, wb, catch, NA, 999, 999, 8, 29, 61, 134, 91, 164, 123, 192, 1, 1.68388
212, 1, wb, catch, NA, 999, 999, 8, 29, 61, 134, 91, 164, 123, 192, 3, 0.247495
212, 1, wb, attraction, a-b-da, 9, 1, 8, 30, 129, 57, 60, 135, 135, 60, 2, 2.26728
212, 1, wb, attraction, a-b-da, 9, 1, 8, 30, 129, 57, 60, 135, 135, 60, 3, 0.343327
212, 1, wb, filler, NA, 999, 999, 8, 31, 75, 110, 182, 109, 139, 107, 1, 0.887074
212, 1, wb, filler, NA, 999, 999, 8, 31, 75, 110, 182, 109, 139, 107, 2, 1.27468
212, 1, wb, attraction, a-b-db, 14, 3, 8, 32, 120, 195, 195, 120, 111, 181, 3, 1.13314
212, 1, wb, attraction, a-b-db, 14, 3, 8, 32, 120, 195, 195, 120, 111, 181, 1, 0.478609
212, 1, wb, attraction, a-b-db, 5, 3, 8, 33, 195, 120, 117, 190, 120, 195, 1, 1.55308
212, 1, wb, attraction, a-b-db, 5, 3, 8, 33, 195, 120, 117, 190, 120, 195, 3, 0.37793
212, 1, wb, filler, NA, 999, 999, 8, 34, 120, 87, 191, 57, 123, 183, 2, 9.09648
212, 1, wb, filler, NA, 999, 999, 8, 34, 120, 87, 191, 57, 123, 183, 3, 0.520785
212, 1, wb, attraction, a-b-db, 5, 2, 8, 35, 90, 165, 165, 90, 88, 161, 3, 2.09796
212, 1, wb, attraction, a-b-db, 5, 2, 8, 35, 90, 165, 165, 90, 88, 161, 1, 0.348552
212, 1, wb, attraction, a-b-da, 2, 2, 8, 36, 165, 90, 163, 89, 90, 165, 1, 2.7404
212, 1, wb, attraction, a-b-da, 2, 2, 8, 36, 165, 90, 163, 89, 90, 165, 3, 0.220835
212, 1, wb, attraction, a-b-db, 2, 3, 8, 37, 119, 193, 195, 120, 120, 195, 2, 1.6742
212, 1, wb, attraction, a-b-db, 2, 3, 8, 37, 119, 193, 195, 120, 120, 195, 3, 0.509574
