sub_n, computer_n, bw_cond, effect, set, distance, diag, block_n, trial_n, h1, w1, h2, w2, h3, w3, choice, rt 
235, 1, bw, practice, NA, 999, 999, 0, 1, 105, 63, 184, 189, 155, 92, 2, 2.50963
235, 1, bw, practice, NA, 999, 999, 0, 1, 105, 63, 184, 189, 155, 92, 1, 6.45036
235, 1, bw, practice, NA, 999, 999, 0, 2, 78, 114, 149, 75, 126, 164, 3, 1.94993
235, 1, bw, practice, NA, 999, 999, 0, 2, 78, 114, 149, 75, 126, 164, 1, 2.09463
235, 1, bw, practice, NA, 999, 999, 0, 3, 86, 160, 119, 167, 183, 112, 2, 8.14965
235, 1, bw, practice, NA, 999, 999, 0, 3, 86, 160, 119, 167, 183, 112, 1, 1.68575
235, 1, bw, attraction, a-b-da, 9, 3, 1, 1, 120, 195, 186, 114, 195, 120, 1, 1.83742
235, 1, bw, attraction, a-b-da, 9, 3, 1, 1, 120, 195, 186, 114, 195, 120, 2, 1.11481
235, 1, bw, attraction, a-b-db, 2, 2, 1, 2, 89, 163, 90, 165, 165, 90, 3, 4.25978
235, 1, bw, attraction, a-b-db, 2, 2, 1, 2, 89, 163, 90, 165, 165, 90, 1, 1.22307
235, 1, bw, attraction, a-b-da, 5, 1, 1, 3, 135, 60, 132, 58, 60, 135, 3, 2.68398
235, 1, bw, attraction, a-b-da, 5, 1, 1, 3, 135, 60, 132, 58, 60, 135, 2, 1.0391
235, 1, bw, attraction, a-b-da, 5, 2, 1, 4, 161, 88, 165, 90, 90, 165, 1, 1.47532
235, 1, bw, attraction, a-b-da, 5, 2, 1, 4, 161, 88, 165, 90, 90, 165, 3, 0.462892
235, 1, bw, attraction, a-b-da, 2, 3, 1, 5, 120, 195, 195, 120, 193, 119, 1, 1.53822
235, 1, bw, attraction, a-b-da, 2, 3, 1, 5, 120, 195, 195, 120, 193, 119, 2, 0.530945
235, 1, bw, filler, NA, 999, 999, 1, 6, 56, 149, 124, 75, 142, 192, 3, 0.675287
235, 1, bw, filler, NA, 999, 999, 1, 6, 56, 149, 124, 75, 142, 192, 1, 0.535101
235, 1, bw, attraction, a-b-db, 14, 3, 1, 7, 120, 195, 195, 120, 111, 181, 1, 1.32767
235, 1, bw, attraction, a-b-db, 14, 3, 1, 7, 120, 195, 195, 120, 111, 181, 3, 1.09712
235, 1, bw, catch, NA, 999, 999, 1, 8, 130, 65, 153, 102, 161, 154, 3, 0.786637
235, 1, bw, catch, NA, 999, 999, 1, 8, 130, 65, 153, 102, 161, 154, 1, 0.34633
235, 1, bw, attraction, a-b-db, 9, 3, 1, 9, 195, 120, 120, 195, 114, 186, 1, 0.674206
235, 1, bw, attraction, a-b-db, 9, 3, 1, 9, 195, 120, 120, 195, 114, 186, 3, 0.646035
235, 1, bw, attraction, a-b-da, 2, 1, 1, 10, 60, 135, 134, 59, 135, 60, 1, 1.12976
235, 1, bw, attraction, a-b-da, 2, 1, 1, 10, 60, 135, 134, 59, 135, 60, 2, 1.36339
235, 1, bw, attraction, a-b-da, 14, 1, 1, 11, 135, 60, 125, 56, 60, 135, 3, 1.05026
235, 1, bw, attraction, a-b-da, 14, 1, 1, 11, 135, 60, 125, 56, 60, 135, 1, 0.911174
235, 1, bw, attraction, a-b-db, 14, 2, 1, 12, 165, 90, 90, 165, 83, 153, 2, 1.28017
235, 1, bw, attraction, a-b-db, 14, 2, 1, 12, 165, 90, 90, 165, 83, 153, 3, 0.563782
235, 1, bw, attraction, a-b-db, 9, 2, 1, 13, 90, 165, 165, 90, 86, 157, 1, 0.7549
235, 1, bw, attraction, a-b-db, 9, 2, 1, 13, 90, 165, 165, 90, 86, 157, 3, 0.653092
235, 1, bw, catch, NA, 999, 999, 1, 14, 134, 181, 95, 160, 135, 60, 1, 0.974965
235, 1, bw, catch, NA, 999, 999, 1, 14, 134, 181, 95, 160, 135, 60, 3, 0.630965
235, 1, bw, filler, NA, 999, 999, 1, 15, 58, 155, 130, 137, 161, 65, 2, 0.771099
235, 1, bw, filler, NA, 999, 999, 1, 15, 58, 155, 130, 137, 161, 65, 1, 0.610891
235, 1, bw, attraction, a-b-db, 5, 2, 1, 16, 88, 161, 165, 90, 90, 165, 1, 0.847849
235, 1, bw, attraction, a-b-db, 5, 2, 1, 16, 88, 161, 165, 90, 90, 165, 2, 0.812913
235, 1, bw, filler, NA, 999, 999, 1, 17, 162, 170, 91, 93, 169, 68, 1, 0.817996
235, 1, bw, filler, NA, 999, 999, 1, 17, 162, 170, 91, 93, 169, 68, 2, 0.496284
235, 1, bw, filler, NA, 999, 999, 1, 18, 89, 137, 143, 174, 162, 56, 2, 1.33805
235, 1, bw, filler, NA, 999, 999, 1, 18, 89, 137, 143, 174, 162, 56, 3, 1.37967
235, 1, bw, attraction, a-b-db, 2, 3, 1, 19, 119, 193, 195, 120, 120, 195, 1, 0.985925
235, 1, bw, attraction, a-b-db, 2, 3, 1, 19, 119, 193, 195, 120, 120, 195, 2, 0.401607
235, 1, bw, filler, NA, 999, 999, 1, 20, 151, 163, 119, 57, 165, 192, 3, 0.831311
235, 1, bw, filler, NA, 999, 999, 1, 20, 151, 163, 119, 57, 165, 192, 2, 0.733047
235, 1, bw, filler, NA, 999, 999, 1, 21, 80, 110, 110, 109, 69, 119, 2, 0.989407
235, 1, bw, filler, NA, 999, 999, 1, 21, 80, 110, 110, 109, 69, 119, 3, 0.644445
235, 1, bw, filler, NA, 999, 999, 1, 22, 189, 120, 82, 90, 172, 70, 1, 0.600058
235, 1, bw, filler, NA, 999, 999, 1, 22, 189, 120, 82, 90, 172, 70, 2, 0.511224
235, 1, bw, attraction, a-b-db, 14, 1, 1, 23, 60, 135, 56, 125, 135, 60, 1, 1.04043
235, 1, bw, attraction, a-b-db, 14, 1, 1, 23, 60, 135, 56, 125, 135, 60, 3, 0.373394
235, 1, bw, attraction, a-b-da, 2, 2, 1, 24, 165, 90, 90, 165, 163, 89, 2, 0.811862
235, 1, bw, attraction, a-b-da, 2, 2, 1, 24, 165, 90, 90, 165, 163, 89, 3, 0.474192
235, 1, bw, filler, NA, 999, 999, 1, 25, 61, 179, 90, 193, 89, 132, 2, 0.60473
235, 1, bw, filler, NA, 999, 999, 1, 25, 61, 179, 90, 193, 89, 132, 3, 0.395969
235, 1, bw, attraction, a-b-db, 2, 1, 1, 26, 59, 134, 60, 135, 135, 60, 1, 2.16159
235, 1, bw, attraction, a-b-db, 2, 1, 1, 26, 59, 134, 60, 135, 135, 60, 3, 0.601686
235, 1, bw, attraction, a-b-db, 9, 1, 1, 27, 60, 135, 57, 129, 135, 60, 1, 0.911255
235, 1, bw, attraction, a-b-db, 9, 1, 1, 27, 60, 135, 57, 129, 135, 60, 2, 0.401733
235, 1, bw, attraction, a-b-da, 9, 2, 1, 28, 157, 86, 165, 90, 90, 165, 3, 0.839492
235, 1, bw, attraction, a-b-da, 9, 2, 1, 28, 157, 86, 165, 90, 90, 165, 1, 0.324533
235, 1, bw, attraction, a-b-da, 5, 3, 1, 29, 195, 120, 120, 195, 190, 117, 1, 0.89301
235, 1, bw, attraction, a-b-da, 5, 3, 1, 29, 195, 120, 120, 195, 190, 117, 2, 0.384059
235, 1, bw, attraction, a-b-da, 14, 3, 1, 30, 120, 195, 181, 111, 195, 120, 1, 0.638521
235, 1, bw, attraction, a-b-da, 14, 3, 1, 30, 120, 195, 181, 111, 195, 120, 2, 0.363681
235, 1, bw, attraction, a-b-db, 5, 3, 1, 31, 120, 195, 195, 120, 117, 190, 1, 0.722789
235, 1, bw, attraction, a-b-db, 5, 3, 1, 31, 120, 195, 195, 120, 117, 190, 2, 0.31653
235, 1, bw, attraction, a-b-da, 14, 2, 1, 32, 90, 165, 165, 90, 153, 83, 1, 1.23775
235, 1, bw, attraction, a-b-da, 14, 2, 1, 32, 90, 165, 165, 90, 153, 83, 3, 0.707386
235, 1, bw, catch, NA, 999, 999, 1, 33, 124, 191, 108, 147, 91, 104, 1, 0.932501
235, 1, bw, catch, NA, 999, 999, 1, 33, 124, 191, 108, 147, 91, 104, 3, 0.358034
235, 1, bw, attraction, a-b-da, 9, 1, 1, 34, 129, 57, 135, 60, 60, 135, 2, 0.8134
235, 1, bw, attraction, a-b-da, 9, 1, 1, 34, 129, 57, 135, 60, 60, 135, 1, 0.731695
235, 1, bw, filler, NA, 999, 999, 1, 35, 119, 59, 142, 87, 115, 93, 3, 1.11602
235, 1, bw, filler, NA, 999, 999, 1, 35, 119, 59, 142, 87, 115, 93, 1, 0.510329
235, 1, bw, attraction, a-b-db, 5, 1, 1, 36, 58, 132, 60, 135, 135, 60, 1, 0.711554
235, 1, bw, attraction, a-b-db, 5, 1, 1, 36, 58, 132, 60, 135, 135, 60, 3, 0.801866
235, 1, bw, filler, NA, 999, 999, 1, 37, 122, 156, 82, 166, 64, 66, 1, 0.978074
235, 1, bw, filler, NA, 999, 999, 1, 37, 122, 156, 82, 166, 64, 66, 3, 0.623259
235, 1, bw, attraction, a-b-da, 9, 1, 2, 1, 135, 60, 60, 135, 129, 57, 1, 1.61161
235, 1, bw, attraction, a-b-da, 9, 1, 2, 1, 135, 60, 60, 135, 129, 57, 2, 0.28972
235, 1, bw, attraction, a-b-db, 9, 1, 2, 2, 135, 60, 57, 129, 60, 135, 1, 0.82019
235, 1, bw, attraction, a-b-db, 9, 1, 2, 2, 135, 60, 57, 129, 60, 135, 3, 0.450666
235, 1, bw, attraction, a-b-db, 9, 3, 2, 3, 114, 186, 120, 195, 195, 120, 2, 0.8944
235, 1, bw, attraction, a-b-db, 9, 3, 2, 3, 114, 186, 120, 195, 195, 120, 1, 0.45752
235, 1, bw, attraction, a-b-db, 5, 3, 2, 4, 117, 190, 120, 195, 195, 120, 1, 0.780794
235, 1, bw, attraction, a-b-db, 5, 3, 2, 4, 117, 190, 120, 195, 195, 120, 2, 0.300293
235, 1, bw, catch, NA, 999, 999, 2, 5, 178, 137, 81, 114, 160, 95, 1, 0.502191
235, 1, bw, catch, NA, 999, 999, 2, 5, 178, 137, 81, 114, 160, 95, 2, 0.449294
235, 1, bw, filler, NA, 999, 999, 2, 6, 158, 86, 67, 87, 80, 178, 3, 0.621108
235, 1, bw, filler, NA, 999, 999, 2, 6, 158, 86, 67, 87, 80, 178, 2, 0.378888
235, 1, bw, attraction, a-b-da, 9, 2, 2, 7, 90, 165, 157, 86, 165, 90, 1, 0.489422
235, 1, bw, attraction, a-b-da, 9, 2, 2, 7, 90, 165, 157, 86, 165, 90, 3, 0.428682
235, 1, bw, filler, NA, 999, 999, 2, 8, 64, 108, 87, 75, 144, 131, 3, 0.704973
235, 1, bw, filler, NA, 999, 999, 2, 8, 64, 108, 87, 75, 144, 131, 2, 0.39544
235, 1, bw, attraction, a-b-da, 2, 2, 2, 9, 165, 90, 90, 165, 163, 89, 2, 0.721264
235, 1, bw, attraction, a-b-da, 2, 2, 2, 9, 165, 90, 90, 165, 163, 89, 3, 0.330976
235, 1, bw, attraction, a-b-da, 2, 1, 2, 10, 60, 135, 134, 59, 135, 60, 1, 0.515489
235, 1, bw, attraction, a-b-da, 2, 1, 2, 10, 60, 135, 134, 59, 135, 60, 2, 0.534072
235, 1, bw, attraction, a-b-db, 5, 1, 2, 11, 60, 135, 58, 132, 135, 60, 1, 0.878384
235, 1, bw, attraction, a-b-db, 5, 1, 2, 11, 60, 135, 58, 132, 135, 60, 2, 0.538108
235, 1, bw, attraction, a-b-db, 9, 2, 2, 12, 86, 157, 165, 90, 90, 165, 3, 0.394588
235, 1, bw, attraction, a-b-db, 9, 2, 2, 12, 86, 157, 165, 90, 90, 165, 2, 0.609792
235, 1, bw, attraction, a-b-da, 14, 2, 2, 13, 90, 165, 165, 90, 153, 83, 1, 0.598831
235, 1, bw, attraction, a-b-da, 14, 2, 2, 13, 90, 165, 165, 90, 153, 83, 3, 0.565948
235, 1, bw, attraction, a-b-db, 14, 3, 2, 14, 120, 195, 195, 120, 111, 181, 1, 0.925055
235, 1, bw, attraction, a-b-db, 14, 3, 2, 14, 120, 195, 195, 120, 111, 181, 3, 0.34296
235, 1, bw, attraction, a-b-da, 5, 2, 2, 15, 161, 88, 90, 165, 165, 90, 2, 0.486566
235, 1, bw, attraction, a-b-da, 5, 2, 2, 15, 161, 88, 90, 165, 165, 90, 3, 0.714334
235, 1, bw, filler, NA, 999, 999, 2, 16, 66, 191, 90, 89, 150, 98, 1, 0.451522
235, 1, bw, filler, NA, 999, 999, 2, 16, 66, 191, 90, 89, 150, 98, 3, 1.35275
235, 1, bw, filler, NA, 999, 999, 2, 17, 160, 88, 164, 178, 185, 74, 2, 0.480153
235, 1, bw, filler, NA, 999, 999, 2, 17, 160, 88, 164, 178, 185, 74, 1, 1.98804
235, 1, bw, filler, NA, 999, 999, 2, 18, 129, 181, 108, 58, 124, 111, 1, 1.17796
235, 1, bw, filler, NA, 999, 999, 2, 18, 129, 181, 108, 58, 124, 111, 2, 0.337649
235, 1, bw, catch, NA, 999, 999, 2, 19, 132, 63, 139, 116, 144, 171, 3, 0.594016
235, 1, bw, catch, NA, 999, 999, 2, 19, 132, 63, 139, 116, 144, 171, 1, 0.41721
235, 1, bw, filler, NA, 999, 999, 2, 20, 133, 129, 85, 138, 125, 163, 1, 0.550373
235, 1, bw, filler, NA, 999, 999, 2, 20, 133, 129, 85, 138, 125, 163, 2, 0.383413
235, 1, bw, attraction, a-b-da, 14, 1, 2, 21, 125, 56, 135, 60, 60, 135, 3, 1.08593
235, 1, bw, attraction, a-b-da, 14, 1, 2, 21, 125, 56, 135, 60, 60, 135, 2, 0.817522
235, 1, bw, attraction, a-b-db, 2, 3, 2, 22, 120, 195, 119, 193, 195, 120, 1, 0.75862
235, 1, bw, attraction, a-b-db, 2, 3, 2, 22, 120, 195, 119, 193, 195, 120, 3, 0.287098
235, 1, bw, attraction, a-b-da, 14, 3, 2, 23, 120, 195, 195, 120, 181, 111, 2, 0.513546
235, 1, bw, attraction, a-b-da, 14, 3, 2, 23, 120, 195, 195, 120, 181, 111, 3, 0.348026
235, 1, bw, attraction, a-b-da, 2, 3, 2, 24, 195, 120, 120, 195, 193, 119, 2, 0.779855
235, 1, bw, attraction, a-b-da, 2, 3, 2, 24, 195, 120, 120, 195, 193, 119, 1, 0.539598
235, 1, bw, filler, NA, 999, 999, 2, 25, 186, 118, 193, 115, 61, 191, 1, 0.948039
235, 1, bw, filler, NA, 999, 999, 2, 25, 186, 118, 193, 115, 61, 191, 3, 0.517075
235, 1, bw, attraction, a-b-da, 9, 3, 2, 26, 120, 195, 195, 120, 186, 114, 2, 1.2944
235, 1, bw, attraction, a-b-da, 9, 3, 2, 26, 120, 195, 195, 120, 186, 114, 3, 0.521065
235, 1, bw, attraction, a-b-db, 14, 1, 2, 27, 60, 135, 56, 125, 135, 60, 1, 0.954191
235, 1, bw, attraction, a-b-db, 14, 1, 2, 27, 60, 135, 56, 125, 135, 60, 3, 0.899163
235, 1, bw, filler, NA, 999, 999, 2, 28, 174, 101, 104, 144, 144, 138, 3, 0.996832
235, 1, bw, filler, NA, 999, 999, 2, 28, 174, 101, 104, 144, 144, 138, 2, 0.307865
235, 1, bw, attraction, a-b-da, 5, 3, 2, 29, 195, 120, 120, 195, 190, 117, 1, 0.501049
235, 1, bw, attraction, a-b-da, 5, 3, 2, 29, 195, 120, 120, 195, 190, 117, 3, 0.34413
235, 1, bw, attraction, a-b-da, 5, 1, 2, 30, 60, 135, 132, 58, 135, 60, 3, 0.671935
235, 1, bw, attraction, a-b-da, 5, 1, 2, 30, 60, 135, 132, 58, 135, 60, 2, 0.491822
235, 1, bw, attraction, a-b-db, 2, 2, 2, 31, 165, 90, 90, 165, 89, 163, 1, 0.453549
235, 1, bw, attraction, a-b-db, 2, 2, 2, 31, 165, 90, 90, 165, 89, 163, 2, 0.322731
235, 1, bw, filler, NA, 999, 999, 2, 32, 179, 90, 95, 140, 167, 127, 3, 0.739838
235, 1, bw, filler, NA, 999, 999, 2, 32, 179, 90, 95, 140, 167, 127, 2, 0.325
235, 1, bw, attraction, a-b-db, 2, 1, 2, 33, 59, 134, 135, 60, 60, 135, 3, 0.917506
235, 1, bw, attraction, a-b-db, 2, 1, 2, 33, 59, 134, 135, 60, 60, 135, 2, 0.303832
235, 1, bw, filler, NA, 999, 999, 2, 34, 177, 91, 128, 101, 173, 165, 3, 0.441645
235, 1, bw, filler, NA, 999, 999, 2, 34, 177, 91, 128, 101, 173, 165, 2, 0.310796
235, 1, bw, catch, NA, 999, 999, 2, 35, 184, 131, 162, 93, 98, 97, 1, 0.583939
235, 1, bw, catch, NA, 999, 999, 2, 35, 184, 131, 162, 93, 98, 97, 3, 0.263882
235, 1, bw, attraction, a-b-db, 14, 2, 2, 36, 83, 153, 165, 90, 90, 165, 2, 0.674912
235, 1, bw, attraction, a-b-db, 14, 2, 2, 36, 83, 153, 165, 90, 90, 165, 1, 0.41475
235, 1, bw, attraction, a-b-db, 5, 2, 2, 37, 165, 90, 90, 165, 88, 161, 1, 0.747934
235, 1, bw, attraction, a-b-db, 5, 2, 2, 37, 165, 90, 90, 165, 88, 161, 2, 0.253052
235, 1, bw, attraction, a-b-db, 14, 2, 3, 1, 90, 165, 83, 153, 165, 90, 3, 0.40092
235, 1, bw, attraction, a-b-db, 14, 2, 3, 1, 90, 165, 83, 153, 165, 90, 2, 0.32013
235, 1, bw, attraction, a-b-da, 14, 1, 3, 2, 60, 135, 125, 56, 135, 60, 3, 0.66521
235, 1, bw, attraction, a-b-da, 14, 1, 3, 2, 60, 135, 125, 56, 135, 60, 2, 0.333744
235, 1, bw, attraction, a-b-db, 9, 2, 3, 3, 165, 90, 86, 157, 90, 165, 2, 0.790045
235, 1, bw, attraction, a-b-db, 9, 2, 3, 3, 165, 90, 86, 157, 90, 165, 1, 0.317202
235, 1, bw, filler, NA, 999, 999, 3, 4, 111, 105, 106, 60, 98, 90, 1, 0.830312
235, 1, bw, filler, NA, 999, 999, 3, 4, 111, 105, 106, 60, 98, 90, 2, 0.492235
235, 1, bw, filler, NA, 999, 999, 3, 5, 150, 149, 189, 154, 168, 105, 2, 0.597879
235, 1, bw, filler, NA, 999, 999, 3, 5, 150, 149, 189, 154, 168, 105, 3, 0.284954
235, 1, bw, catch, NA, 999, 999, 3, 6, 160, 155, 119, 76, 116, 139, 1, 0.447488
235, 1, bw, catch, NA, 999, 999, 3, 6, 160, 155, 119, 76, 116, 139, 2, 0.292642
235, 1, bw, attraction, a-b-db, 9, 1, 3, 7, 60, 135, 57, 129, 135, 60, 1, 1.03862
235, 1, bw, attraction, a-b-db, 9, 1, 3, 7, 60, 135, 57, 129, 135, 60, 3, 0.323576
235, 1, bw, attraction, a-b-da, 5, 3, 3, 8, 195, 120, 120, 195, 190, 117, 2, 0.468034
235, 1, bw, attraction, a-b-da, 5, 3, 3, 8, 195, 120, 120, 195, 190, 117, 3, 0.560506
235, 1, bw, catch, NA, 999, 999, 3, 9, 147, 168, 127, 68, 102, 153, 1, 1.3596
235, 1, bw, catch, NA, 999, 999, 3, 9, 147, 168, 127, 68, 102, 153, 3, 0.53584
235, 1, bw, attraction, a-b-db, 5, 3, 3, 10, 195, 120, 117, 190, 120, 195, 2, 0.768153
235, 1, bw, attraction, a-b-db, 5, 3, 3, 10, 195, 120, 117, 190, 120, 195, 3, 0.288645
235, 1, bw, attraction, a-b-da, 2, 1, 3, 11, 134, 59, 60, 135, 135, 60, 1, 0.835096
235, 1, bw, attraction, a-b-da, 2, 1, 3, 11, 134, 59, 60, 135, 135, 60, 2, 0.584933
235, 1, bw, attraction, a-b-da, 5, 1, 3, 12, 135, 60, 132, 58, 60, 135, 2, 0.559315
235, 1, bw, attraction, a-b-da, 5, 1, 3, 12, 135, 60, 132, 58, 60, 135, 3, 0.287803
235, 1, bw, attraction, a-b-db, 5, 1, 3, 13, 60, 135, 58, 132, 135, 60, 3, 0.794221
235, 1, bw, attraction, a-b-db, 5, 1, 3, 13, 60, 135, 58, 132, 135, 60, 2, 0.553324
235, 1, bw, attraction, a-b-da, 9, 2, 3, 14, 165, 90, 157, 86, 90, 165, 3, 0.37707
235, 1, bw, attraction, a-b-da, 9, 2, 3, 14, 165, 90, 157, 86, 90, 165, 2, 0.53696
235, 1, bw, filler, NA, 999, 999, 3, 15, 136, 146, 102, 64, 139, 161, 3, 0.265468
235, 1, bw, filler, NA, 999, 999, 3, 15, 136, 146, 102, 64, 139, 161, 2, 0.533937
235, 1, bw, filler, NA, 999, 999, 3, 16, 177, 165, 194, 124, 100, 92, 2, 0.59047
235, 1, bw, filler, NA, 999, 999, 3, 16, 177, 165, 194, 124, 100, 92, 3, 0.325634
235, 1, bw, attraction, a-b-da, 2, 2, 3, 17, 163, 89, 165, 90, 90, 165, 3, 1.12598
235, 1, bw, attraction, a-b-da, 2, 2, 3, 17, 163, 89, 165, 90, 90, 165, 1, 0.623758
235, 1, bw, attraction, a-b-da, 14, 2, 3, 18, 153, 83, 90, 165, 165, 90, 3, 0.684076
235, 1, bw, attraction, a-b-da, 14, 2, 3, 18, 153, 83, 90, 165, 165, 90, 2, 0.383779
235, 1, bw, attraction, a-b-da, 14, 3, 3, 19, 181, 111, 120, 195, 195, 120, 2, 0.63831
235, 1, bw, attraction, a-b-da, 14, 3, 3, 19, 181, 111, 120, 195, 195, 120, 3, 0.347434
235, 1, bw, attraction, a-b-db, 9, 3, 3, 20, 120, 195, 195, 120, 114, 186, 3, 0.587399
235, 1, bw, attraction, a-b-db, 9, 3, 3, 20, 120, 195, 195, 120, 114, 186, 2, 0.266342
235, 1, bw, filler, NA, 999, 999, 3, 21, 102, 74, 72, 182, 83, 56, 2, 1.64558
235, 1, bw, filler, NA, 999, 999, 3, 21, 102, 74, 72, 182, 83, 56, 3, 0.658363
235, 1, bw, filler, NA, 999, 999, 3, 22, 108, 115, 78, 191, 140, 88, 2, 0.501416
235, 1, bw, filler, NA, 999, 999, 3, 22, 108, 115, 78, 191, 140, 88, 3, 0.424539
235, 1, bw, attraction, a-b-db, 14, 1, 3, 23, 56, 125, 135, 60, 60, 135, 3, 1.13304
235, 1, bw, attraction, a-b-db, 14, 1, 3, 23, 56, 125, 135, 60, 60, 135, 2, 0.310695
235, 1, bw, attraction, a-b-db, 5, 2, 3, 24, 165, 90, 90, 165, 88, 161, 2, 0.447937
235, 1, bw, attraction, a-b-db, 5, 2, 3, 24, 165, 90, 90, 165, 88, 161, 3, 0.34096
235, 1, bw, attraction, a-b-db, 2, 1, 3, 25, 60, 135, 135, 60, 59, 134, 2, 0.540815
235, 1, bw, attraction, a-b-db, 2, 1, 3, 25, 60, 135, 135, 60, 59, 134, 3, 0.605953
235, 1, bw, filler, NA, 999, 999, 3, 26, 68, 158, 137, 96, 66, 143, 2, 0.275753
235, 1, bw, filler, NA, 999, 999, 3, 26, 68, 158, 137, 96, 66, 143, 3, 0.567794
235, 1, bw, attraction, a-b-db, 2, 3, 3, 27, 119, 193, 120, 195, 195, 120, 3, 0.670742
235, 1, bw, attraction, a-b-db, 2, 3, 3, 27, 119, 193, 120, 195, 195, 120, 2, 0.259258
235, 1, bw, filler, NA, 999, 999, 3, 28, 98, 74, 83, 113, 190, 85, 3, 0.486333
235, 1, bw, filler, NA, 999, 999, 3, 28, 98, 74, 83, 113, 190, 85, 2, 0.386187
235, 1, bw, filler, NA, 999, 999, 3, 29, 122, 112, 172, 81, 131, 81, 2, 1.2247
235, 1, bw, filler, NA, 999, 999, 3, 29, 122, 112, 172, 81, 131, 81, 3, 0.406304
235, 1, bw, attraction, a-b-da, 2, 3, 3, 30, 195, 120, 120, 195, 193, 119, 2, 0.612099
235, 1, bw, attraction, a-b-da, 2, 3, 3, 30, 195, 120, 120, 195, 193, 119, 3, 0.322512
235, 1, bw, attraction, a-b-db, 14, 3, 3, 31, 111, 181, 120, 195, 195, 120, 2, 0.323676
235, 1, bw, attraction, a-b-db, 14, 3, 3, 31, 111, 181, 120, 195, 195, 120, 3, 0.405789
235, 1, bw, attraction, a-b-da, 9, 1, 3, 32, 60, 135, 135, 60, 129, 57, 2, 0.523423
235, 1, bw, attraction, a-b-da, 9, 1, 3, 32, 60, 135, 135, 60, 129, 57, 3, 0.373276
235, 1, bw, attraction, a-b-db, 2, 2, 3, 33, 165, 90, 90, 165, 89, 163, 2, 0.235727
235, 1, bw, attraction, a-b-db, 2, 2, 3, 33, 165, 90, 90, 165, 89, 163, 3, 0.449508
235, 1, bw, filler, NA, 999, 999, 3, 34, 148, 66, 76, 60, 61, 154, 3, 1.00539
235, 1, bw, filler, NA, 999, 999, 3, 34, 148, 66, 76, 60, 61, 154, 2, 0.379726
235, 1, bw, catch, NA, 999, 999, 3, 35, 191, 124, 163, 92, 83, 112, 1, 1.40219
235, 1, bw, catch, NA, 999, 999, 3, 35, 191, 124, 163, 92, 83, 112, 3, 0.545087
235, 1, bw, attraction, a-b-da, 5, 2, 3, 36, 90, 165, 165, 90, 161, 88, 2, 0.360839
235, 1, bw, attraction, a-b-da, 5, 2, 3, 36, 90, 165, 165, 90, 161, 88, 3, 0.377362
235, 1, bw, attraction, a-b-da, 9, 3, 3, 37, 120, 195, 195, 120, 186, 114, 2, 0.439885
235, 1, bw, attraction, a-b-da, 9, 3, 3, 37, 120, 195, 195, 120, 186, 114, 3, 0.549015
235, 1, bw, attraction, a-b-db, 5, 3, 4, 1, 195, 120, 117, 190, 120, 195, 2, 0.300845
235, 1, bw, attraction, a-b-db, 5, 3, 4, 1, 195, 120, 117, 190, 120, 195, 3, 0.296019
235, 1, bw, filler, NA, 999, 999, 4, 2, 154, 144, 134, 63, 129, 83, 2, 0.345803
235, 1, bw, filler, NA, 999, 999, 4, 2, 154, 144, 134, 63, 129, 83, 3, 0.3152
235, 1, bw, attraction, a-b-da, 2, 3, 4, 3, 120, 195, 195, 120, 193, 119, 2, 0.596218
235, 1, bw, attraction, a-b-da, 2, 3, 4, 3, 120, 195, 195, 120, 193, 119, 3, 0.315321
235, 1, bw, attraction, a-b-da, 2, 1, 4, 4, 134, 59, 60, 135, 135, 60, 2, 1.38853
235, 1, bw, attraction, a-b-da, 2, 1, 4, 4, 134, 59, 60, 135, 135, 60, 3, 0.356986
235, 1, bw, attraction, a-b-da, 9, 3, 4, 5, 195, 120, 120, 195, 186, 114, 2, 0.498542
235, 1, bw, attraction, a-b-da, 9, 3, 4, 5, 195, 120, 120, 195, 186, 114, 3, 0.317749
235, 1, bw, catch, NA, 999, 999, 4, 6, 127, 128, 122, 193, 124, 71, 2, 0.478907
235, 1, bw, catch, NA, 999, 999, 4, 6, 127, 128, 122, 193, 124, 71, 3, 0.514722
235, 1, bw, attraction, a-b-da, 9, 2, 4, 7, 157, 86, 90, 165, 165, 90, 2, 0.371788
235, 1, bw, attraction, a-b-da, 9, 2, 4, 7, 157, 86, 90, 165, 165, 90, 3, 0.379743
235, 1, bw, catch, NA, 999, 999, 4, 8, 164, 151, 134, 61, 122, 133, 3, 0.522123
235, 1, bw, catch, NA, 999, 999, 4, 8, 164, 151, 134, 61, 122, 133, 2, 0.387977
235, 1, bw, attraction, a-b-db, 5, 2, 4, 9, 90, 165, 165, 90, 88, 161, 2, 0.882499
235, 1, bw, attraction, a-b-db, 5, 2, 4, 9, 90, 165, 165, 90, 88, 161, 3, 0.318347
235, 1, bw, attraction, a-b-da, 14, 1, 4, 10, 125, 56, 135, 60, 60, 135, 1, 0.559434
235, 1, bw, attraction, a-b-da, 14, 1, 4, 10, 125, 56, 135, 60, 60, 135, 2, 0.648085
235, 1, bw, catch, NA, 999, 999, 4, 11, 128, 67, 106, 149, 148, 167, 3, 0.995602
235, 1, bw, catch, NA, 999, 999, 4, 11, 128, 67, 106, 149, 148, 167, 1, 0.514497
235, 1, bw, filler, NA, 999, 999, 4, 12, 167, 57, 124, 57, 58, 56, 1, 1.40357
235, 1, bw, filler, NA, 999, 999, 4, 12, 167, 57, 124, 57, 58, 56, 3, 0.690479
235, 1, bw, attraction, a-b-db, 9, 2, 4, 13, 90, 165, 86, 157, 165, 90, 3, 1.0363
235, 1, bw, attraction, a-b-db, 9, 2, 4, 13, 90, 165, 86, 157, 165, 90, 2, 0.665925
235, 1, bw, filler, NA, 999, 999, 4, 14, 75, 77, 80, 111, 175, 95, 3, 0.501104
235, 1, bw, filler, NA, 999, 999, 4, 14, 75, 77, 80, 111, 175, 95, 1, 0.688078
235, 1, bw, filler, NA, 999, 999, 4, 15, 142, 140, 157, 134, 123, 182, 3, 0.306577
235, 1, bw, filler, NA, 999, 999, 4, 15, 142, 140, 157, 134, 123, 182, 2, 0.621097
235, 1, bw, attraction, a-b-da, 14, 2, 4, 16, 90, 165, 153, 83, 165, 90, 1, 1.08211
235, 1, bw, attraction, a-b-da, 14, 2, 4, 16, 90, 165, 153, 83, 165, 90, 3, 0.549917
235, 1, bw, attraction, a-b-da, 2, 2, 4, 17, 90, 165, 163, 89, 165, 90, 2, 0.461556
235, 1, bw, attraction, a-b-da, 2, 2, 4, 17, 90, 165, 163, 89, 165, 90, 3, 1.16209
235, 1, bw, filler, NA, 999, 999, 4, 18, 184, 157, 151, 82, 127, 110, 1, 1.08904
235, 1, bw, filler, NA, 999, 999, 4, 18, 184, 157, 151, 82, 127, 110, 2, 0.867925
235, 1, bw, filler, NA, 999, 999, 4, 19, 153, 133, 177, 167, 80, 71, 2, 1.15091
235, 1, bw, filler, NA, 999, 999, 4, 19, 153, 133, 177, 167, 80, 71, 3, 0.599866
235, 1, bw, attraction, a-b-db, 9, 3, 4, 20, 195, 120, 114, 186, 120, 195, 3, 0.749641
235, 1, bw, attraction, a-b-db, 9, 3, 4, 20, 195, 120, 114, 186, 120, 195, 2, 0.654781
235, 1, bw, attraction, a-b-db, 14, 2, 4, 21, 83, 153, 90, 165, 165, 90, 3, 0.610523
235, 1, bw, attraction, a-b-db, 14, 2, 4, 21, 83, 153, 90, 165, 165, 90, 2, 0.456906
235, 1, bw, attraction, a-b-da, 5, 1, 4, 22, 135, 60, 60, 135, 132, 58, 2, 0.548023
235, 1, bw, attraction, a-b-da, 5, 1, 4, 22, 135, 60, 60, 135, 132, 58, 3, 0.485178
235, 1, bw, filler, NA, 999, 999, 4, 23, 156, 105, 137, 136, 154, 71, 2, 0.351526
235, 1, bw, filler, NA, 999, 999, 4, 23, 156, 105, 137, 136, 154, 71, 3, 0.60573
235, 1, bw, attraction, a-b-db, 9, 1, 4, 24, 60, 135, 57, 129, 135, 60, 2, 0.582556
235, 1, bw, attraction, a-b-db, 9, 1, 4, 24, 60, 135, 57, 129, 135, 60, 3, 0.438428
235, 1, bw, attraction, a-b-da, 14, 3, 4, 25, 120, 195, 195, 120, 181, 111, 2, 0.498851
235, 1, bw, attraction, a-b-da, 14, 3, 4, 25, 120, 195, 195, 120, 181, 111, 3, 0.36598
235, 1, bw, attraction, a-b-da, 5, 3, 4, 26, 190, 117, 120, 195, 195, 120, 2, 0.461126
235, 1, bw, attraction, a-b-da, 5, 3, 4, 26, 190, 117, 120, 195, 195, 120, 3, 0.385611
235, 1, bw, attraction, a-b-db, 14, 1, 4, 27, 56, 125, 135, 60, 60, 135, 3, 0.776135
235, 1, bw, attraction, a-b-db, 14, 1, 4, 27, 56, 125, 135, 60, 60, 135, 2, 0.439823
235, 1, bw, filler, NA, 999, 999, 4, 28, 110, 187, 168, 57, 129, 125, 3, 0.411737
235, 1, bw, filler, NA, 999, 999, 4, 28, 110, 187, 168, 57, 129, 125, 2, 0.666189
235, 1, bw, attraction, a-b-db, 5, 1, 4, 29, 135, 60, 58, 132, 60, 135, 2, 0.941153
235, 1, bw, attraction, a-b-db, 5, 1, 4, 29, 135, 60, 58, 132, 60, 135, 3, 0.49433
235, 1, bw, attraction, a-b-da, 9, 1, 4, 30, 135, 60, 129, 57, 60, 135, 1, 0.800031
235, 1, bw, attraction, a-b-da, 9, 1, 4, 30, 135, 60, 129, 57, 60, 135, 3, 0.495183
235, 1, bw, attraction, a-b-db, 14, 3, 4, 31, 120, 195, 111, 181, 195, 120, 3, 0.464878
235, 1, bw, attraction, a-b-db, 14, 3, 4, 31, 120, 195, 111, 181, 195, 120, 2, 0.421458
235, 1, bw, filler, NA, 999, 999, 4, 32, 94, 122, 86, 163, 165, 132, 3, 0.514452
235, 1, bw, filler, NA, 999, 999, 4, 32, 94, 122, 86, 163, 165, 132, 1, 0.468917
235, 1, bw, attraction, a-b-da, 5, 2, 4, 33, 165, 90, 90, 165, 161, 88, 2, 0.704106
235, 1, bw, attraction, a-b-da, 5, 2, 4, 33, 165, 90, 90, 165, 161, 88, 3, 0.667384
235, 1, bw, attraction, a-b-db, 2, 3, 4, 34, 195, 120, 120, 195, 119, 193, 1, 0.974313
235, 1, bw, attraction, a-b-db, 2, 3, 4, 34, 195, 120, 120, 195, 119, 193, 2, 0.686116
235, 1, bw, attraction, a-b-db, 2, 1, 4, 35, 59, 134, 135, 60, 60, 135, 3, 0.368296
235, 1, bw, attraction, a-b-db, 2, 1, 4, 35, 59, 134, 135, 60, 60, 135, 2, 0.504866
235, 1, bw, attraction, a-b-db, 2, 2, 4, 36, 165, 90, 90, 165, 89, 163, 3, 0.410682
235, 1, bw, attraction, a-b-db, 2, 2, 4, 36, 165, 90, 90, 165, 89, 163, 2, 0.329228
235, 1, bw, filler, NA, 999, 999, 4, 37, 167, 118, 192, 89, 65, 80, 1, 0.945647
235, 1, bw, filler, NA, 999, 999, 4, 37, 167, 118, 192, 89, 65, 80, 3, 0.466621
235, 1, bw, attraction, a-b-db, 14, 2, 5, 1, 83, 153, 165, 90, 90, 165, 3, 5.88452
235, 1, bw, attraction, a-b-db, 14, 2, 5, 1, 83, 153, 165, 90, 90, 165, 2, 0.710694
235, 1, bw, filler, NA, 999, 999, 5, 2, 58, 66, 132, 121, 151, 175, 3, 0.831649
235, 1, bw, filler, NA, 999, 999, 5, 2, 58, 66, 132, 121, 151, 175, 1, 0.397344
235, 1, bw, filler, NA, 999, 999, 5, 3, 166, 163, 182, 159, 142, 109, 1, 0.747087
235, 1, bw, filler, NA, 999, 999, 5, 3, 166, 163, 182, 159, 142, 109, 3, 0.308226
235, 1, bw, attraction, a-b-db, 5, 3, 5, 4, 117, 190, 195, 120, 120, 195, 1, 0.389366
235, 1, bw, attraction, a-b-db, 5, 3, 5, 4, 117, 190, 195, 120, 120, 195, 2, 0.516565
235, 1, bw, attraction, a-b-db, 2, 2, 5, 5, 89, 163, 90, 165, 165, 90, 3, 0.397664
235, 1, bw, attraction, a-b-db, 2, 2, 5, 5, 89, 163, 90, 165, 165, 90, 2, 0.340786
235, 1, bw, attraction, a-b-db, 5, 2, 5, 6, 90, 165, 165, 90, 88, 161, 2, 0.460741
235, 1, bw, attraction, a-b-db, 5, 2, 5, 6, 90, 165, 165, 90, 88, 161, 3, 0.329269
235, 1, bw, filler, NA, 999, 999, 5, 7, 105, 119, 74, 64, 142, 61, 1, 1.09779
235, 1, bw, filler, NA, 999, 999, 5, 7, 105, 119, 74, 64, 142, 61, 2, 0.400382
235, 1, bw, attraction, a-b-db, 14, 1, 5, 8, 135, 60, 60, 135, 56, 125, 1, 0.730558
235, 1, bw, attraction, a-b-db, 14, 1, 5, 8, 135, 60, 60, 135, 56, 125, 3, 0.588345
235, 1, bw, attraction, a-b-da, 2, 1, 5, 9, 60, 135, 135, 60, 134, 59, 3, 0.94671
235, 1, bw, attraction, a-b-da, 2, 1, 5, 9, 60, 135, 135, 60, 134, 59, 2, 0.501872
235, 1, bw, attraction, a-b-da, 2, 2, 5, 10, 165, 90, 90, 165, 163, 89, 2, 0.757427
235, 1, bw, attraction, a-b-da, 2, 2, 5, 10, 165, 90, 90, 165, 163, 89, 3, 0.725882
235, 1, bw, attraction, a-b-da, 5, 3, 5, 11, 190, 117, 120, 195, 195, 120, 3, 0.502342
235, 1, bw, attraction, a-b-da, 5, 3, 5, 11, 190, 117, 120, 195, 195, 120, 2, 0.297418
235, 1, bw, attraction, a-b-da, 9, 1, 5, 12, 129, 57, 135, 60, 60, 135, 3, 0.491225
235, 1, bw, attraction, a-b-da, 9, 1, 5, 12, 129, 57, 135, 60, 60, 135, 2, 0.334365
235, 1, bw, filler, NA, 999, 999, 5, 13, 98, 105, 92, 94, 189, 136, 3, 0.550822
235, 1, bw, filler, NA, 999, 999, 5, 13, 98, 105, 92, 94, 189, 136, 2, 0.359974
235, 1, bw, catch, NA, 999, 999, 5, 14, 91, 164, 188, 127, 81, 114, 3, 0.295177
235, 1, bw, catch, NA, 999, 999, 5, 14, 91, 164, 188, 127, 81, 114, 2, 0.298401
235, 1, bw, attraction, a-b-db, 9, 3, 5, 15, 120, 195, 114, 186, 195, 120, 3, 0.532309
235, 1, bw, attraction, a-b-db, 9, 3, 5, 15, 120, 195, 114, 186, 195, 120, 2, 0.35003
235, 1, bw, filler, NA, 999, 999, 5, 16, 120, 127, 135, 166, 72, 144, 2, 0.669865
235, 1, bw, filler, NA, 999, 999, 5, 16, 120, 127, 135, 166, 72, 144, 3, 0.354356
235, 1, bw, filler, NA, 999, 999, 5, 17, 143, 72, 112, 67, 146, 137, 3, 0.834226
235, 1, bw, filler, NA, 999, 999, 5, 17, 143, 72, 112, 67, 146, 137, 2, 0.423902
235, 1, bw, attraction, a-b-da, 14, 3, 5, 18, 181, 111, 120, 195, 195, 120, 2, 0.604359
235, 1, bw, attraction, a-b-da, 14, 3, 5, 18, 181, 111, 120, 195, 195, 120, 3, 0.298784
235, 1, bw, filler, NA, 999, 999, 5, 19, 183, 193, 123, 150, 125, 176, 2, 0.628649
235, 1, bw, filler, NA, 999, 999, 5, 19, 183, 193, 123, 150, 125, 176, 3, 0.330517
235, 1, bw, catch, NA, 999, 999, 5, 20, 150, 105, 134, 61, 147, 168, 2, 0.634948
235, 1, bw, catch, NA, 999, 999, 5, 20, 150, 105, 134, 61, 147, 168, 3, 0.288837
235, 1, bw, attraction, a-b-da, 9, 3, 5, 21, 195, 120, 120, 195, 186, 114, 2, 0.459245
235, 1, bw, attraction, a-b-da, 9, 3, 5, 21, 195, 120, 120, 195, 186, 114, 3, 0.327767
235, 1, bw, filler, NA, 999, 999, 5, 22, 63, 137, 113, 172, 70, 129, 2, 0.280227
235, 1, bw, filler, NA, 999, 999, 5, 22, 63, 137, 113, 172, 70, 129, 3, 0.380104
235, 1, bw, filler, NA, 999, 999, 5, 23, 65, 112, 157, 138, 182, 64, 2, 0.554735
235, 1, bw, filler, NA, 999, 999, 5, 23, 65, 112, 157, 138, 182, 64, 1, 0.493341
235, 1, bw, attraction, a-b-da, 5, 1, 5, 24, 60, 135, 132, 58, 135, 60, 1, 0.940851
235, 1, bw, attraction, a-b-da, 5, 1, 5, 24, 60, 135, 132, 58, 135, 60, 2, 0.398032
235, 1, bw, attraction, a-b-db, 5, 1, 5, 25, 60, 135, 135, 60, 58, 132, 2, 0.483711
235, 1, bw, attraction, a-b-db, 5, 1, 5, 25, 60, 135, 135, 60, 58, 132, 1, 0.367527
235, 1, bw, attraction, a-b-da, 14, 1, 5, 26, 60, 135, 125, 56, 135, 60, 2, 0.582647
235, 1, bw, attraction, a-b-da, 14, 1, 5, 26, 60, 135, 125, 56, 135, 60, 1, 0.470431
235, 1, bw, attraction, a-b-da, 9, 2, 5, 27, 90, 165, 157, 86, 165, 90, 2, 0.34558
235, 1, bw, attraction, a-b-da, 9, 2, 5, 27, 90, 165, 157, 86, 165, 90, 1, 0.386751
235, 1, bw, attraction, a-b-db, 14, 3, 5, 28, 195, 120, 111, 181, 120, 195, 1, 0.705225
235, 1, bw, attraction, a-b-db, 14, 3, 5, 28, 195, 120, 111, 181, 120, 195, 2, 0.387662
235, 1, bw, attraction, a-b-db, 9, 2, 5, 29, 90, 165, 86, 157, 165, 90, 3, 0.594139
235, 1, bw, attraction, a-b-db, 9, 2, 5, 29, 90, 165, 86, 157, 165, 90, 2, 0.313295
235, 1, bw, catch, NA, 999, 999, 5, 30, 156, 159, 150, 105, 94, 101, 1, 0.626396
235, 1, bw, catch, NA, 999, 999, 5, 30, 156, 159, 150, 105, 94, 101, 2, 0.448354
235, 1, bw, attraction, a-b-da, 2, 3, 5, 31, 193, 119, 195, 120, 120, 195, 3, 0.364246
235, 1, bw, attraction, a-b-da, 2, 3, 5, 31, 193, 119, 195, 120, 120, 195, 2, 0.372507
235, 1, bw, attraction, a-b-db, 2, 1, 5, 32, 135, 60, 60, 135, 59, 134, 3, 0.58775
235, 1, bw, attraction, a-b-db, 2, 1, 5, 32, 135, 60, 60, 135, 59, 134, 2, 0.915633
235, 1, bw, attraction, a-b-da, 5, 2, 5, 33, 90, 165, 161, 88, 165, 90, 1, 0.428442
235, 1, bw, attraction, a-b-da, 5, 2, 5, 33, 90, 165, 161, 88, 165, 90, 2, 0.41033
235, 1, bw, attraction, a-b-db, 9, 1, 5, 34, 135, 60, 57, 129, 60, 135, 3, 0.479644
235, 1, bw, attraction, a-b-db, 9, 1, 5, 34, 135, 60, 57, 129, 60, 135, 2, 0.443454
235, 1, bw, attraction, a-b-da, 14, 2, 5, 35, 153, 83, 90, 165, 165, 90, 3, 0.695145
235, 1, bw, attraction, a-b-da, 14, 2, 5, 35, 153, 83, 90, 165, 165, 90, 2, 0.330362
235, 1, bw, filler, NA, 999, 999, 5, 36, 178, 116, 58, 126, 79, 110, 1, 0.530644
235, 1, bw, filler, NA, 999, 999, 5, 36, 178, 116, 58, 126, 79, 110, 3, 0.708577
235, 1, bw, attraction, a-b-db, 2, 3, 5, 37, 195, 120, 119, 193, 120, 195, 2, 1.23123
235, 1, bw, attraction, a-b-db, 2, 3, 5, 37, 195, 120, 119, 193, 120, 195, 1, 0.403202
235, 1, bw, attraction, a-b-db, 5, 3, 6, 1, 120, 195, 195, 120, 117, 190, 2, 0.488917
235, 1, bw, attraction, a-b-db, 5, 3, 6, 1, 120, 195, 195, 120, 117, 190, 3, 0.28417
235, 1, bw, attraction, a-b-da, 5, 2, 6, 2, 165, 90, 161, 88, 90, 165, 1, 0.686648
235, 1, bw, attraction, a-b-da, 5, 2, 6, 2, 165, 90, 161, 88, 90, 165, 2, 0.298456
235, 1, bw, attraction, a-b-da, 14, 2, 6, 3, 165, 90, 90, 165, 153, 83, 3, 0.268259
235, 1, bw, attraction, a-b-da, 14, 2, 6, 3, 165, 90, 90, 165, 153, 83, 2, 0.416865
235, 1, bw, attraction, a-b-da, 9, 1, 6, 4, 135, 60, 60, 135, 129, 57, 3, 0.245943
235, 1, bw, attraction, a-b-da, 9, 1, 6, 4, 135, 60, 60, 135, 129, 57, 2, 0.675194
235, 1, bw, attraction, a-b-db, 9, 1, 6, 5, 57, 129, 135, 60, 60, 135, 3, 0.573703
235, 1, bw, attraction, a-b-db, 9, 1, 6, 5, 57, 129, 135, 60, 60, 135, 2, 0.325409
235, 1, bw, attraction, a-b-db, 9, 3, 6, 6, 114, 186, 195, 120, 120, 195, 3, 0.3499
235, 1, bw, attraction, a-b-db, 9, 3, 6, 6, 114, 186, 195, 120, 120, 195, 2, 0.34309
235, 1, bw, attraction, a-b-db, 5, 1, 6, 7, 58, 132, 135, 60, 60, 135, 1, 0.430885
235, 1, bw, attraction, a-b-db, 5, 1, 6, 7, 58, 132, 135, 60, 60, 135, 2, 0.284829
235, 1, bw, attraction, a-b-da, 2, 2, 6, 8, 90, 165, 165, 90, 163, 89, 3, 0.207315
235, 1, bw, attraction, a-b-da, 2, 2, 6, 8, 90, 165, 165, 90, 163, 89, 2, 0.301901
235, 1, bw, attraction, a-b-da, 5, 1, 6, 9, 132, 58, 60, 135, 135, 60, 3, 0.287787
235, 1, bw, attraction, a-b-da, 5, 1, 6, 9, 132, 58, 60, 135, 135, 60, 2, 0.371539
235, 1, bw, filler, NA, 999, 999, 6, 10, 161, 121, 109, 98, 180, 179, 1, 0.370824
235, 1, bw, filler, NA, 999, 999, 6, 10, 161, 121, 109, 98, 180, 179, 3, 0.55536
235, 1, bw, filler, NA, 999, 999, 6, 11, 164, 130, 56, 140, 121, 126, 3, 0.459149
235, 1, bw, filler, NA, 999, 999, 6, 11, 164, 130, 56, 140, 121, 126, 2, 0.335625
235, 1, bw, attraction, a-b-da, 5, 3, 6, 12, 190, 117, 195, 120, 120, 195, 3, 0.248055
235, 1, bw, attraction, a-b-da, 5, 3, 6, 12, 190, 117, 195, 120, 120, 195, 2, 0.53337
235, 1, bw, attraction, a-b-db, 5, 2, 6, 13, 165, 90, 90, 165, 88, 161, 3, 0.397762
235, 1, bw, attraction, a-b-db, 5, 2, 6, 13, 165, 90, 90, 165, 88, 161, 2, 0.324933
235, 1, bw, filler, NA, 999, 999, 6, 14, 91, 150, 143, 77, 95, 139, 3, 0.229505
235, 1, bw, filler, NA, 999, 999, 6, 14, 91, 150, 143, 77, 95, 139, 2, 0.411374
235, 1, bw, attraction, a-b-db, 14, 3, 6, 15, 195, 120, 111, 181, 120, 195, 3, 0.480456
235, 1, bw, attraction, a-b-db, 14, 3, 6, 15, 195, 120, 111, 181, 120, 195, 2, 0.316391
235, 1, bw, catch, NA, 999, 999, 6, 16, 172, 143, 102, 93, 148, 107, 3, 0.197477
235, 1, bw, catch, NA, 999, 999, 6, 16, 172, 143, 102, 93, 148, 107, 2, 0.34078
235, 1, bw, attraction, a-b-db, 9, 2, 6, 17, 165, 90, 90, 165, 86, 157, 3, 0.452545
235, 1, bw, attraction, a-b-db, 9, 2, 6, 17, 165, 90, 90, 165, 86, 157, 2, 0.3377
235, 1, bw, filler, NA, 999, 999, 6, 18, 134, 176, 64, 153, 69, 122, 3, 0.418225
235, 1, bw, filler, NA, 999, 999, 6, 18, 134, 176, 64, 153, 69, 122, 2, 0.320779
235, 1, bw, attraction, a-b-da, 2, 3, 6, 19, 120, 195, 193, 119, 195, 120, 3, 0.353978
235, 1, bw, attraction, a-b-da, 2, 3, 6, 19, 120, 195, 193, 119, 195, 120, 2, 0.355201
235, 1, bw, attraction, a-b-db, 2, 2, 6, 20, 90, 165, 165, 90, 89, 163, 1, 0.443037
235, 1, bw, attraction, a-b-db, 2, 2, 6, 20, 90, 165, 165, 90, 89, 163, 2, 0.407395
235, 1, bw, attraction, a-b-da, 2, 1, 6, 21, 60, 135, 134, 59, 135, 60, 1, 1.18917
235, 1, bw, attraction, a-b-da, 2, 1, 6, 21, 60, 135, 134, 59, 135, 60, 2, 0.580218
235, 1, bw, filler, NA, 999, 999, 6, 22, 193, 164, 153, 81, 89, 178, 1, 0.7226
235, 1, bw, filler, NA, 999, 999, 6, 22, 193, 164, 153, 81, 89, 178, 2, 0.340541
235, 1, bw, filler, NA, 999, 999, 6, 23, 85, 150, 175, 134, 68, 174, 2, 1.11614
235, 1, bw, filler, NA, 999, 999, 6, 23, 85, 150, 175, 134, 68, 174, 3, 0.758518
235, 1, bw, filler, NA, 999, 999, 6, 24, 119, 78, 84, 142, 108, 171, 3, 0.63747
235, 1, bw, filler, NA, 999, 999, 6, 24, 119, 78, 84, 142, 108, 171, 2, 0.499359
235, 1, bw, filler, NA, 999, 999, 6, 25, 145, 163, 58, 97, 80, 100, 1, 0.43713
235, 1, bw, filler, NA, 999, 999, 6, 25, 145, 163, 58, 97, 80, 100, 2, 0.379016
235, 1, bw, attraction, a-b-da, 14, 3, 6, 26, 181, 111, 195, 120, 120, 195, 3, 0.249419
235, 1, bw, attraction, a-b-da, 14, 3, 6, 26, 181, 111, 195, 120, 120, 195, 2, 0.350619
235, 1, bw, filler, NA, 999, 999, 6, 27, 58, 118, 75, 92, 163, 187, 3, 0.222464
235, 1, bw, filler, NA, 999, 999, 6, 27, 58, 118, 75, 92, 163, 187, 2, 0.372308
235, 1, bw, attraction, a-b-da, 9, 3, 6, 28, 195, 120, 120, 195, 186, 114, 2, 0.723476
235, 1, bw, attraction, a-b-da, 9, 3, 6, 28, 195, 120, 120, 195, 186, 114, 3, 0.269243
235, 1, bw, catch, NA, 999, 999, 6, 29, 121, 194, 98, 97, 147, 108, 1, 0.744468
235, 1, bw, catch, NA, 999, 999, 6, 29, 121, 194, 98, 97, 147, 108, 2, 0.345625
235, 1, bw, filler, NA, 999, 999, 6, 30, 195, 56, 158, 107, 134, 58, 2, 0.561433
235, 1, bw, filler, NA, 999, 999, 6, 30, 195, 56, 158, 107, 134, 58, 3, 0.353997
235, 1, bw, attraction, a-b-db, 14, 1, 6, 31, 135, 60, 60, 135, 56, 125, 2, 0.466178
235, 1, bw, attraction, a-b-db, 14, 1, 6, 31, 135, 60, 60, 135, 56, 125, 3, 0.334114
235, 1, bw, catch, NA, 999, 999, 6, 32, 101, 154, 70, 125, 157, 158, 2, 0.358648
235, 1, bw, catch, NA, 999, 999, 6, 32, 101, 154, 70, 125, 157, 158, 3, 0.231398
235, 1, bw, attraction, a-b-db, 2, 1, 6, 33, 60, 135, 59, 134, 135, 60, 2, 0.379757
235, 1, bw, attraction, a-b-db, 2, 1, 6, 33, 60, 135, 59, 134, 135, 60, 3, 0.635649
235, 1, bw, attraction, a-b-db, 2, 3, 6, 34, 119, 193, 195, 120, 120, 195, 2, 0.352078
235, 1, bw, attraction, a-b-db, 2, 3, 6, 34, 119, 193, 195, 120, 120, 195, 3, 0.265345
235, 1, bw, attraction, a-b-da, 9, 2, 6, 35, 165, 90, 157, 86, 90, 165, 2, 0.316427
235, 1, bw, attraction, a-b-da, 9, 2, 6, 35, 165, 90, 157, 86, 90, 165, 3, 0.454961
235, 1, bw, attraction, a-b-db, 14, 2, 6, 36, 165, 90, 90, 165, 83, 153, 2, 0.490737
235, 1, bw, attraction, a-b-db, 14, 2, 6, 36, 165, 90, 90, 165, 83, 153, 3, 0.317944
235, 1, bw, attraction, a-b-da, 14, 1, 6, 37, 135, 60, 125, 56, 60, 135, 1, 0.511097
235, 1, bw, attraction, a-b-da, 14, 1, 6, 37, 135, 60, 125, 56, 60, 135, 2, 0.409571
235, 1, bw, attraction, a-b-db, 9, 2, 7, 1, 90, 165, 86, 157, 165, 90, 3, 1.1347
235, 1, bw, attraction, a-b-db, 9, 2, 7, 1, 90, 165, 86, 157, 165, 90, 2, 0.384348
235, 1, bw, attraction, a-b-da, 9, 3, 7, 2, 120, 195, 195, 120, 186, 114, 1, 1.29491
235, 1, bw, attraction, a-b-da, 9, 3, 7, 2, 120, 195, 195, 120, 186, 114, 2, 0.314505
235, 1, bw, attraction, a-b-da, 2, 3, 7, 3, 193, 119, 120, 195, 195, 120, 2, 0.474868
235, 1, bw, attraction, a-b-da, 2, 3, 7, 3, 193, 119, 120, 195, 195, 120, 3, 0.550814
235, 1, bw, attraction, a-b-da, 2, 2, 7, 4, 163, 89, 90, 165, 165, 90, 2, 0.51053
235, 1, bw, attraction, a-b-da, 2, 2, 7, 4, 163, 89, 90, 165, 165, 90, 3, 0.336935
235, 1, bw, attraction, a-b-da, 14, 3, 7, 5, 181, 111, 120, 195, 195, 120, 2, 0.481482
235, 1, bw, attraction, a-b-da, 14, 3, 7, 5, 181, 111, 120, 195, 195, 120, 3, 0.333288
235, 1, bw, attraction, a-b-da, 5, 3, 7, 6, 120, 195, 190, 117, 195, 120, 2, 0.413796
235, 1, bw, attraction, a-b-da, 5, 3, 7, 6, 120, 195, 190, 117, 195, 120, 3, 0.396302
235, 1, bw, attraction, a-b-db, 14, 2, 7, 7, 165, 90, 90, 165, 83, 153, 2, 0.370116
235, 1, bw, attraction, a-b-db, 14, 2, 7, 7, 165, 90, 90, 165, 83, 153, 3, 0.362662
235, 1, bw, attraction, a-b-da, 9, 1, 7, 8, 60, 135, 135, 60, 129, 57, 2, 0.465831
235, 1, bw, attraction, a-b-da, 9, 1, 7, 8, 60, 135, 135, 60, 129, 57, 3, 0.3583
235, 1, bw, attraction, a-b-da, 5, 1, 7, 9, 132, 58, 135, 60, 60, 135, 2, 0.397418
235, 1, bw, attraction, a-b-da, 5, 1, 7, 9, 132, 58, 135, 60, 60, 135, 3, 0.340773
235, 1, bw, attraction, a-b-da, 9, 2, 7, 10, 157, 86, 165, 90, 90, 165, 2, 0.340479
235, 1, bw, attraction, a-b-da, 9, 2, 7, 10, 157, 86, 165, 90, 90, 165, 3, 0.317733
235, 1, bw, attraction, a-b-db, 14, 1, 7, 11, 56, 125, 60, 135, 135, 60, 2, 0.414762
235, 1, bw, attraction, a-b-db, 14, 1, 7, 11, 56, 125, 60, 135, 135, 60, 3, 0.53329
235, 1, bw, attraction, a-b-db, 14, 3, 7, 12, 111, 181, 120, 195, 195, 120, 2, 0.469757
235, 1, bw, attraction, a-b-db, 14, 3, 7, 12, 111, 181, 120, 195, 195, 120, 1, 0.346349
235, 1, bw, filler, NA, 999, 999, 7, 13, 75, 88, 75, 180, 139, 192, 2, 0.298071
235, 1, bw, filler, NA, 999, 999, 7, 13, 75, 88, 75, 180, 139, 192, 1, 0.405288
235, 1, bw, attraction, a-b-da, 5, 2, 7, 14, 161, 88, 165, 90, 90, 165, 2, 0.475155
235, 1, bw, attraction, a-b-da, 5, 2, 7, 14, 161, 88, 165, 90, 90, 165, 1, 0.518945
235, 1, bw, filler, NA, 999, 999, 7, 15, 147, 180, 76, 97, 172, 75, 1, 0.552047
235, 1, bw, filler, NA, 999, 999, 7, 15, 147, 180, 76, 97, 172, 75, 2, 0.43324
235, 1, bw, filler, NA, 999, 999, 7, 16, 118, 87, 165, 103, 95, 144, 2, 0.493722
235, 1, bw, filler, NA, 999, 999, 7, 16, 118, 87, 165, 103, 95, 144, 3, 0.320853
235, 1, bw, catch, NA, 999, 999, 7, 17, 113, 142, 161, 154, 95, 100, 2, 0.289988
235, 1, bw, catch, NA, 999, 999, 7, 17, 113, 142, 161, 154, 95, 100, 3, 0.397267
235, 1, bw, attraction, a-b-db, 9, 3, 7, 18, 120, 195, 114, 186, 195, 120, 2, 0.211015
235, 1, bw, attraction, a-b-db, 9, 3, 7, 18, 120, 195, 114, 186, 195, 120, 1, 0.36159
235, 1, bw, catch, NA, 999, 999, 7, 19, 153, 162, 69, 126, 156, 99, 1, 0.696913
235, 1, bw, catch, NA, 999, 999, 7, 19, 153, 162, 69, 126, 156, 99, 2, 0.355928
235, 1, bw, attraction, a-b-db, 2, 2, 7, 20, 90, 165, 89, 163, 165, 90, 3, 0.235731
235, 1, bw, attraction, a-b-db, 2, 2, 7, 20, 90, 165, 89, 163, 165, 90, 2, 0.409603
235, 1, bw, attraction, a-b-da, 14, 1, 7, 21, 135, 60, 125, 56, 60, 135, 3, 0.502827
235, 1, bw, attraction, a-b-da, 14, 1, 7, 21, 135, 60, 125, 56, 60, 135, 2, 0.329835
235, 1, bw, filler, NA, 999, 999, 7, 22, 159, 86, 96, 117, 74, 188, 2, 0.450387
235, 1, bw, filler, NA, 999, 999, 7, 22, 159, 86, 96, 117, 74, 188, 1, 0.352005
235, 1, bw, attraction, a-b-db, 5, 2, 7, 23, 88, 161, 90, 165, 165, 90, 2, 0.231366
235, 1, bw, attraction, a-b-db, 5, 2, 7, 23, 88, 161, 90, 165, 165, 90, 3, 0.669325
235, 1, bw, filler, NA, 999, 999, 7, 24, 178, 186, 81, 74, 92, 106, 1, 0.640356
235, 1, bw, filler, NA, 999, 999, 7, 24, 178, 186, 81, 74, 92, 106, 2, 0.454161
235, 1, bw, attraction, a-b-da, 2, 1, 7, 25, 135, 60, 134, 59, 60, 135, 3, 0.665223
235, 1, bw, attraction, a-b-da, 2, 1, 7, 25, 135, 60, 134, 59, 60, 135, 2, 0.437775
235, 1, bw, attraction, a-b-db, 2, 1, 7, 26, 135, 60, 60, 135, 59, 134, 3, 0.434209
235, 1, bw, attraction, a-b-db, 2, 1, 7, 26, 135, 60, 60, 135, 59, 134, 2, 0.462752
235, 1, bw, filler, NA, 999, 999, 7, 27, 73, 78, 66, 112, 125, 124, 3, 0.19516
235, 1, bw, filler, NA, 999, 999, 7, 27, 73, 78, 66, 112, 125, 124, 2, 0.962393
235, 1, bw, catch, NA, 999, 999, 7, 28, 168, 147, 137, 118, 110, 85, 3, 0.396163
235, 1, bw, catch, NA, 999, 999, 7, 28, 168, 147, 137, 118, 110, 85, 2, 0.32859
235, 1, bw, filler, NA, 999, 999, 7, 29, 117, 160, 88, 108, 165, 138, 3, 0.3611
235, 1, bw, filler, NA, 999, 999, 7, 29, 117, 160, 88, 108, 165, 138, 2, 0.377673
235, 1, bw, attraction, a-b-db, 5, 1, 7, 30, 135, 60, 60, 135, 58, 132, 2, 0.4801
235, 1, bw, attraction, a-b-db, 5, 1, 7, 30, 135, 60, 60, 135, 58, 132, 3, 0.491892
235, 1, bw, attraction, a-b-db, 2, 3, 7, 31, 119, 193, 120, 195, 195, 120, 2, 0.365719
235, 1, bw, attraction, a-b-db, 2, 3, 7, 31, 119, 193, 120, 195, 195, 120, 1, 0.454173
235, 1, bw, filler, NA, 999, 999, 7, 32, 75, 161, 187, 169, 176, 187, 2, 1.15405
235, 1, bw, filler, NA, 999, 999, 7, 32, 75, 161, 187, 169, 176, 187, 1, 0.362946
235, 1, bw, attraction, a-b-db, 5, 3, 7, 33, 195, 120, 117, 190, 120, 195, 2, 0.226204
235, 1, bw, attraction, a-b-db, 5, 3, 7, 33, 195, 120, 117, 190, 120, 195, 1, 0.424114
235, 1, bw, attraction, a-b-da, 14, 2, 7, 34, 165, 90, 153, 83, 90, 165, 2, 0.732545
235, 1, bw, attraction, a-b-da, 14, 2, 7, 34, 165, 90, 153, 83, 90, 165, 1, 0.402208
235, 1, bw, filler, NA, 999, 999, 7, 35, 94, 73, 70, 134, 65, 140, 2, 0.836206
235, 1, bw, filler, NA, 999, 999, 7, 35, 94, 73, 70, 134, 65, 140, 1, 0.641715
235, 1, bw, filler, NA, 999, 999, 7, 36, 138, 170, 140, 195, 115, 60, 2, 0.517482
235, 1, bw, filler, NA, 999, 999, 7, 36, 138, 170, 140, 195, 115, 60, 3, 0.736023
235, 1, bw, attraction, a-b-db, 9, 1, 7, 37, 57, 129, 60, 135, 135, 60, 2, 0.440367
235, 1, bw, attraction, a-b-db, 9, 1, 7, 37, 57, 129, 60, 135, 135, 60, 3, 0.461565
235, 1, bw, filler, NA, 999, 999, 8, 1, 61, 185, 186, 70, 132, 170, 2, 0.352764
235, 1, bw, filler, NA, 999, 999, 8, 1, 61, 185, 186, 70, 132, 170, 3, 0.289874
235, 1, bw, attraction, a-b-db, 9, 2, 8, 2, 165, 90, 86, 157, 90, 165, 2, 0.267728
235, 1, bw, attraction, a-b-db, 9, 2, 8, 2, 165, 90, 86, 157, 90, 165, 3, 0.376298
235, 1, bw, attraction, a-b-da, 2, 3, 8, 3, 195, 120, 193, 119, 120, 195, 2, 0.430758
235, 1, bw, attraction, a-b-da, 2, 3, 8, 3, 195, 120, 193, 119, 120, 195, 3, 0.316627
235, 1, bw, attraction, a-b-da, 9, 1, 8, 4, 60, 135, 135, 60, 129, 57, 2, 0.477771
235, 1, bw, attraction, a-b-da, 9, 1, 8, 4, 60, 135, 135, 60, 129, 57, 3, 0.369587
235, 1, bw, filler, NA, 999, 999, 8, 5, 164, 153, 157, 84, 195, 193, 2, 0.480753
235, 1, bw, filler, NA, 999, 999, 8, 5, 164, 153, 157, 84, 195, 193, 3, 0.340571
235, 1, bw, attraction, a-b-da, 5, 2, 8, 6, 161, 88, 165, 90, 90, 165, 2, 0.436416
235, 1, bw, attraction, a-b-da, 5, 2, 8, 6, 161, 88, 165, 90, 90, 165, 3, 0.418273
235, 1, bw, catch, NA, 999, 999, 8, 7, 93, 102, 140, 115, 125, 190, 2, 0.42343
235, 1, bw, catch, NA, 999, 999, 8, 7, 93, 102, 140, 115, 125, 190, 3, 0.341335
235, 1, bw, filler, NA, 999, 999, 8, 8, 154, 86, 65, 189, 174, 119, 2, 0.341056
235, 1, bw, filler, NA, 999, 999, 8, 8, 154, 86, 65, 189, 174, 119, 3, 0.398357
235, 1, bw, attraction, a-b-db, 2, 2, 8, 9, 165, 90, 89, 163, 90, 165, 2, 0.236167
235, 1, bw, attraction, a-b-db, 2, 2, 8, 9, 165, 90, 89, 163, 90, 165, 3, 0.393986
235, 1, bw, attraction, a-b-db, 14, 3, 8, 10, 111, 181, 120, 195, 195, 120, 2, 0.359872
235, 1, bw, attraction, a-b-db, 14, 3, 8, 10, 111, 181, 120, 195, 195, 120, 3, 0.424386
235, 1, bw, attraction, a-b-da, 2, 2, 8, 11, 163, 89, 165, 90, 90, 165, 2, 0.34376
235, 1, bw, attraction, a-b-da, 2, 2, 8, 11, 163, 89, 165, 90, 90, 165, 3, 0.36601
235, 1, bw, attraction, a-b-db, 5, 3, 8, 12, 120, 195, 117, 190, 195, 120, 3, 1.34931
235, 1, bw, attraction, a-b-db, 5, 3, 8, 12, 120, 195, 117, 190, 195, 120, 2, 0.398039
235, 1, bw, filler, NA, 999, 999, 8, 13, 98, 102, 57, 66, 59, 56, 1, 0.683891
235, 1, bw, filler, NA, 999, 999, 8, 13, 98, 102, 57, 66, 59, 56, 2, 0.511746
235, 1, bw, attraction, a-b-da, 5, 1, 8, 14, 60, 135, 135, 60, 132, 58, 3, 0.352885
235, 1, bw, attraction, a-b-da, 5, 1, 8, 14, 60, 135, 135, 60, 132, 58, 2, 0.657986
235, 1, bw, filler, NA, 999, 999, 8, 15, 137, 82, 131, 144, 78, 112, 2, 3.5011
235, 1, bw, filler, NA, 999, 999, 8, 15, 137, 82, 131, 144, 78, 112, 3, 0.471253
235, 1, bw, attraction, a-b-db, 14, 2, 8, 16, 90, 165, 165, 90, 83, 153, 2, 0.410409
235, 1, bw, attraction, a-b-db, 14, 2, 8, 16, 90, 165, 165, 90, 83, 153, 3, 0.376978
235, 1, bw, catch, NA, 999, 999, 8, 17, 118, 137, 103, 92, 134, 181, 2, 0.463482
235, 1, bw, catch, NA, 999, 999, 8, 17, 118, 137, 103, 92, 134, 181, 3, 0.251822
235, 1, bw, attraction, a-b-db, 9, 1, 8, 18, 57, 129, 135, 60, 60, 135, 2, 0.47965
235, 1, bw, attraction, a-b-db, 9, 1, 8, 18, 57, 129, 135, 60, 60, 135, 3, 0.363594
235, 1, bw, filler, NA, 999, 999, 8, 19, 194, 103, 72, 88, 128, 133, 2, 0.370821
235, 1, bw, filler, NA, 999, 999, 8, 19, 194, 103, 72, 88, 128, 133, 1, 0.298592
235, 1, bw, catch, NA, 999, 999, 8, 20, 98, 157, 104, 91, 175, 140, 2, 0.444528
235, 1, bw, catch, NA, 999, 999, 8, 20, 98, 157, 104, 91, 175, 140, 1, 0.313526
235, 1, bw, attraction, a-b-db, 14, 1, 8, 21, 60, 135, 56, 125, 135, 60, 2, 0.490722
235, 1, bw, attraction, a-b-db, 14, 1, 8, 21, 60, 135, 56, 125, 135, 60, 1, 0.386445
235, 1, bw, attraction, a-b-da, 14, 3, 8, 22, 195, 120, 181, 111, 120, 195, 2, 0.564305
235, 1, bw, attraction, a-b-da, 14, 3, 8, 22, 195, 120, 181, 111, 120, 195, 1, 0.348798
235, 1, bw, attraction, a-b-da, 14, 1, 8, 23, 135, 60, 60, 135, 125, 56, 2, 0.212633
235, 1, bw, attraction, a-b-da, 14, 1, 8, 23, 135, 60, 60, 135, 125, 56, 1, 0.379274
235, 1, bw, filler, NA, 999, 999, 8, 24, 111, 187, 168, 126, 158, 170, 2, 0.505798
235, 1, bw, filler, NA, 999, 999, 8, 24, 111, 187, 168, 126, 158, 170, 1, 0.29217
235, 1, bw, attraction, a-b-da, 9, 3, 8, 25, 120, 195, 195, 120, 186, 114, 2, 0.43016
235, 1, bw, attraction, a-b-da, 9, 3, 8, 25, 120, 195, 195, 120, 186, 114, 1, 0.32388
235, 1, bw, attraction, a-b-db, 9, 3, 8, 26, 114, 186, 195, 120, 120, 195, 2, 0.540395
235, 1, bw, attraction, a-b-db, 9, 3, 8, 26, 114, 186, 195, 120, 120, 195, 1, 0.261538
235, 1, bw, attraction, a-b-da, 2, 1, 8, 27, 60, 135, 135, 60, 134, 59, 2, 0.480747
235, 1, bw, attraction, a-b-da, 2, 1, 8, 27, 60, 135, 135, 60, 134, 59, 1, 0.628629
235, 1, bw, attraction, a-b-da, 9, 2, 8, 28, 157, 86, 165, 90, 90, 165, 2, 0.385192
235, 1, bw, attraction, a-b-da, 9, 2, 8, 28, 157, 86, 165, 90, 90, 165, 3, 0.352993
235, 1, bw, filler, NA, 999, 999, 8, 29, 75, 190, 103, 164, 133, 143, 2, 0.248698
235, 1, bw, filler, NA, 999, 999, 8, 29, 75, 190, 103, 164, 133, 143, 3, 0.357917
235, 1, bw, attraction, a-b-da, 14, 2, 8, 30, 153, 83, 90, 165, 165, 90, 2, 0.324989
235, 1, bw, attraction, a-b-da, 14, 2, 8, 30, 153, 83, 90, 165, 165, 90, 3, 0.446985
235, 1, bw, attraction, a-b-db, 5, 1, 8, 31, 135, 60, 58, 132, 60, 135, 2, 0.258771
235, 1, bw, attraction, a-b-db, 5, 1, 8, 31, 135, 60, 58, 132, 60, 135, 3, 0.343401
235, 1, bw, filler, NA, 999, 999, 8, 32, 57, 123, 184, 174, 132, 160, 2, 0.247118
235, 1, bw, filler, NA, 999, 999, 8, 32, 57, 123, 184, 174, 132, 160, 1, 0.316439
235, 1, bw, attraction, a-b-db, 2, 3, 8, 33, 119, 193, 120, 195, 195, 120, 2, 0.413694
235, 1, bw, attraction, a-b-db, 2, 3, 8, 33, 119, 193, 120, 195, 195, 120, 1, 0.332201
235, 1, bw, attraction, a-b-db, 5, 2, 8, 34, 88, 161, 165, 90, 90, 165, 2, 0.228594
235, 1, bw, attraction, a-b-db, 5, 2, 8, 34, 88, 161, 165, 90, 90, 165, 3, 0.586494
235, 1, bw, attraction, a-b-da, 5, 3, 8, 35, 195, 120, 120, 195, 190, 117, 2, 0.384913
235, 1, bw, attraction, a-b-da, 5, 3, 8, 35, 195, 120, 120, 195, 190, 117, 3, 0.368716
235, 1, bw, attraction, a-b-db, 2, 1, 8, 36, 135, 60, 60, 135, 59, 134, 2, 0.223894
235, 1, bw, attraction, a-b-db, 2, 1, 8, 36, 135, 60, 60, 135, 59, 134, 3, 0.43303
235, 1, bw, filler, NA, 999, 999, 8, 37, 188, 193, 150, 179, 179, 150, 2, 0.293619
235, 1, bw, filler, NA, 999, 999, 8, 37, 188, 193, 150, 179, 179, 150, 3, 0.645577
