sub_n, computer_n, bw_cond, effect, set, distance, diag, block_n, trial_n, h1, w1, h2, w2, h3, w3, choice, rt 
204, 1, wb, practice, NA, 999, 999, 0, 1, 142, 158, 152, 133, 193, 127, 2, 7.39913
204, 1, wb, practice, NA, 999, 999, 0, 1, 142, 158, 152, 133, 193, 127, 3, 5.88099
204, 1, wb, practice, NA, 999, 999, 0, 2, 142, 184, 192, 102, 61, 68, 3, 2.2071
204, 1, wb, practice, NA, 999, 999, 0, 2, 142, 184, 192, 102, 61, 68, 1, 1.8798
204, 1, wb, practice, NA, 999, 999, 0, 3, 74, 195, 150, 106, 173, 115, 1, 5.57237
204, 1, wb, practice, NA, 999, 999, 0, 3, 74, 195, 150, 106, 173, 115, 3, 2.01111
204, 1, wb, filler, NA, 999, 999, 1, 1, 105, 97, 58, 109, 135, 163, 2, 2.66202
204, 1, wb, filler, NA, 999, 999, 1, 1, 105, 97, 58, 109, 135, 163, 3, 1.68181
204, 1, wb, catch, NA, 999, 999, 1, 2, 99, 96, 133, 182, 118, 137, 1, 1.77183
204, 1, wb, catch, NA, 999, 999, 1, 2, 99, 96, 133, 182, 118, 137, 2, 1.31547
204, 1, wb, filler, NA, 999, 999, 1, 3, 135, 79, 148, 84, 184, 128, 1, 2.53222
204, 1, wb, filler, NA, 999, 999, 1, 3, 135, 79, 148, 84, 184, 128, 3, 1.01357
204, 1, wb, filler, NA, 999, 999, 1, 4, 59, 89, 66, 189, 165, 161, 1, 1.90638
204, 1, wb, filler, NA, 999, 999, 1, 4, 59, 89, 66, 189, 165, 161, 3, 1.00448
204, 1, wb, attraction, a-b-da, 9, 1, 1, 5, 129, 57, 60, 135, 135, 60, 3, 3.93006
204, 1, wb, attraction, a-b-da, 9, 1, 1, 5, 129, 57, 60, 135, 135, 60, 2, 1.89087
204, 1, wb, attraction, a-b-da, 5, 2, 1, 6, 90, 165, 165, 90, 161, 88, 3, 3.5401
204, 1, wb, attraction, a-b-da, 5, 2, 1, 6, 90, 165, 165, 90, 161, 88, 1, 2.19639
204, 1, wb, attraction, a-b-da, 14, 1, 1, 7, 125, 56, 135, 60, 60, 135, 1, 3.64157
204, 1, wb, attraction, a-b-da, 14, 1, 1, 7, 125, 56, 135, 60, 60, 135, 3, 2.13378
204, 1, wb, filler, NA, 999, 999, 1, 8, 58, 180, 194, 66, 159, 152, 1, 3.59771
204, 1, wb, filler, NA, 999, 999, 1, 8, 58, 180, 194, 66, 159, 152, 3, 1.21998
204, 1, wb, attraction, a-b-db, 2, 1, 1, 9, 135, 60, 59, 134, 60, 135, 3, 7.97678
204, 1, wb, attraction, a-b-db, 2, 1, 1, 9, 135, 60, 59, 134, 60, 135, 2, 4.23027
204, 1, wb, attraction, a-b-db, 5, 2, 1, 10, 165, 90, 88, 161, 90, 165, 1, 3.96973
204, 1, wb, attraction, a-b-db, 5, 2, 1, 10, 165, 90, 88, 161, 90, 165, 2, 1.00891
204, 1, wb, attraction, a-b-db, 14, 2, 1, 11, 165, 90, 90, 165, 83, 153, 3, 1.74185
204, 1, wb, attraction, a-b-db, 14, 2, 1, 11, 165, 90, 90, 165, 83, 153, 2, 1.07075
204, 1, wb, attraction, a-b-da, 2, 1, 1, 12, 60, 135, 135, 60, 134, 59, 3, 4.06553
204, 1, wb, attraction, a-b-da, 2, 1, 1, 12, 60, 135, 135, 60, 134, 59, 1, 0.916924
204, 1, wb, attraction, a-b-da, 2, 2, 1, 13, 165, 90, 90, 165, 163, 89, 3, 2.59011
204, 1, wb, attraction, a-b-da, 2, 2, 1, 13, 165, 90, 90, 165, 163, 89, 2, 0.916504
204, 1, wb, attraction, a-b-db, 2, 2, 1, 14, 89, 163, 90, 165, 165, 90, 3, 4.51744
204, 1, wb, attraction, a-b-db, 2, 2, 1, 14, 89, 163, 90, 165, 165, 90, 2, 1.88673
204, 1, wb, catch, NA, 999, 999, 1, 15, 120, 195, 101, 154, 119, 76, 3, 1.46466
204, 1, wb, catch, NA, 999, 999, 1, 15, 120, 195, 101, 154, 119, 76, 1, 0.684853
204, 1, wb, attraction, a-b-db, 9, 1, 1, 16, 135, 60, 60, 135, 57, 129, 1, 4.48728
204, 1, wb, attraction, a-b-db, 9, 1, 1, 16, 135, 60, 60, 135, 57, 129, 2, 0.889814
204, 1, wb, attraction, a-b-db, 14, 3, 1, 17, 111, 181, 120, 195, 195, 120, 1, 4.82817
204, 1, wb, attraction, a-b-db, 14, 3, 1, 17, 111, 181, 120, 195, 195, 120, 2, 0.768542
204, 1, wb, catch, NA, 999, 999, 1, 18, 122, 73, 141, 174, 157, 98, 1, 1.47972
204, 1, wb, catch, NA, 999, 999, 1, 18, 122, 73, 141, 174, 157, 98, 2, 1.05117
204, 1, wb, filler, NA, 999, 999, 1, 19, 95, 145, 109, 150, 90, 92, 3, 3.56675
204, 1, wb, filler, NA, 999, 999, 1, 19, 95, 145, 109, 150, 90, 92, 2, 0.838363
204, 1, wb, attraction, a-b-db, 5, 1, 1, 20, 60, 135, 58, 132, 135, 60, 2, 3.26663
204, 1, wb, attraction, a-b-db, 5, 1, 1, 20, 60, 135, 58, 132, 135, 60, 3, 1.47031
204, 1, wb, filler, NA, 999, 999, 1, 21, 76, 160, 58, 188, 73, 117, 3, 2.26514
204, 1, wb, filler, NA, 999, 999, 1, 21, 76, 160, 58, 188, 73, 117, 1, 1.05307
204, 1, wb, attraction, a-b-da, 9, 2, 1, 22, 90, 165, 165, 90, 157, 86, 3, 2.36856
204, 1, wb, attraction, a-b-da, 9, 2, 1, 22, 90, 165, 165, 90, 157, 86, 1, 0.808658
204, 1, wb, attraction, a-b-da, 2, 3, 1, 23, 193, 119, 120, 195, 195, 120, 3, 2.7257
204, 1, wb, attraction, a-b-da, 2, 3, 1, 23, 193, 119, 120, 195, 195, 120, 2, 1.17463
204, 1, wb, attraction, a-b-db, 9, 3, 1, 24, 195, 120, 120, 195, 114, 186, 3, 1.78895
204, 1, wb, attraction, a-b-db, 9, 3, 1, 24, 195, 120, 120, 195, 114, 186, 2, 1.17178
204, 1, wb, attraction, a-b-db, 9, 2, 1, 25, 86, 157, 165, 90, 90, 165, 1, 3.66663
204, 1, wb, attraction, a-b-db, 9, 2, 1, 25, 86, 157, 165, 90, 90, 165, 2, 1.15017
204, 1, wb, attraction, a-b-da, 14, 2, 1, 26, 153, 83, 165, 90, 90, 165, 1, 7.30975
204, 1, wb, attraction, a-b-da, 14, 2, 1, 26, 153, 83, 165, 90, 90, 165, 3, 1.52607
204, 1, wb, attraction, a-b-db, 2, 3, 1, 27, 195, 120, 120, 195, 119, 193, 3, 1.9502
204, 1, wb, attraction, a-b-db, 2, 3, 1, 27, 195, 120, 120, 195, 119, 193, 2, 0.502841
204, 1, wb, filler, NA, 999, 999, 1, 28, 79, 168, 104, 118, 102, 185, 2, 3.28881
204, 1, wb, filler, NA, 999, 999, 1, 28, 79, 168, 104, 118, 102, 185, 3, 0.842882
204, 1, wb, attraction, a-b-da, 5, 1, 1, 29, 132, 58, 60, 135, 135, 60, 1, 2.07865
204, 1, wb, attraction, a-b-da, 5, 1, 1, 29, 132, 58, 60, 135, 135, 60, 2, 0.75395
204, 1, wb, attraction, a-b-da, 5, 3, 1, 30, 195, 120, 190, 117, 120, 195, 1, 2.6016
204, 1, wb, attraction, a-b-da, 5, 3, 1, 30, 195, 120, 190, 117, 120, 195, 3, 0.86413
204, 1, wb, filler, NA, 999, 999, 1, 31, 93, 105, 124, 194, 172, 175, 1, 1.40309
204, 1, wb, filler, NA, 999, 999, 1, 31, 93, 105, 124, 194, 172, 175, 3, 0.898082
204, 1, wb, attraction, a-b-da, 9, 3, 1, 32, 120, 195, 195, 120, 186, 114, 3, 3.87571
204, 1, wb, attraction, a-b-da, 9, 3, 1, 32, 120, 195, 195, 120, 186, 114, 1, 0.590456
204, 1, wb, attraction, a-b-da, 14, 3, 1, 33, 181, 111, 120, 195, 195, 120, 1, 1.80423
204, 1, wb, attraction, a-b-da, 14, 3, 1, 33, 181, 111, 120, 195, 195, 120, 2, 0.594953
204, 1, wb, attraction, a-b-db, 14, 1, 1, 34, 135, 60, 60, 135, 56, 125, 3, 2.24072
204, 1, wb, attraction, a-b-db, 14, 1, 1, 34, 135, 60, 60, 135, 56, 125, 2, 1.01334
204, 1, wb, attraction, a-b-db, 5, 3, 1, 35, 195, 120, 120, 195, 117, 190, 3, 2.88227
204, 1, wb, attraction, a-b-db, 5, 3, 1, 35, 195, 120, 120, 195, 117, 190, 2, 0.973234
204, 1, wb, filler, NA, 999, 999, 1, 36, 194, 111, 190, 105, 178, 183, 2, 3.58017
204, 1, wb, filler, NA, 999, 999, 1, 36, 194, 111, 190, 105, 178, 183, 3, 1.37931
204, 1, wb, filler, NA, 999, 999, 1, 37, 128, 118, 63, 65, 92, 75, 2, 1.28922
204, 1, wb, filler, NA, 999, 999, 1, 37, 128, 118, 63, 65, 92, 75, 1, 0.572242
204, 1, wb, filler, NA, 999, 999, 2, 1, 157, 80, 158, 125, 88, 154, 1, 3.18734
204, 1, wb, filler, NA, 999, 999, 2, 1, 157, 80, 158, 125, 88, 154, 2, 0.570248
204, 1, wb, attraction, a-b-db, 14, 3, 2, 2, 120, 195, 111, 181, 195, 120, 2, 7.45745
204, 1, wb, attraction, a-b-db, 14, 3, 2, 2, 120, 195, 111, 181, 195, 120, 1, 2.73975
204, 1, wb, filler, NA, 999, 999, 2, 3, 97, 139, 154, 149, 79, 159, 3, 1.92339
204, 1, wb, filler, NA, 999, 999, 2, 3, 97, 139, 154, 149, 79, 159, 2, 0.540766
204, 1, wb, attraction, a-b-da, 5, 1, 2, 4, 132, 58, 60, 135, 135, 60, 1, 7.73253
204, 1, wb, attraction, a-b-da, 5, 1, 2, 4, 132, 58, 60, 135, 135, 60, 2, 0.836272
204, 1, wb, attraction, a-b-da, 2, 1, 2, 5, 60, 135, 134, 59, 135, 60, 3, 3.31253
204, 1, wb, attraction, a-b-da, 2, 1, 2, 5, 60, 135, 134, 59, 135, 60, 1, 0.658088
204, 1, wb, attraction, a-b-da, 2, 2, 2, 6, 90, 165, 165, 90, 163, 89, 3, 1.73315
204, 1, wb, attraction, a-b-da, 2, 2, 2, 6, 90, 165, 165, 90, 163, 89, 1, 0.590593
204, 1, wb, attraction, a-b-da, 14, 1, 2, 7, 135, 60, 60, 135, 125, 56, 3, 1.56456
204, 1, wb, attraction, a-b-da, 14, 1, 2, 7, 135, 60, 60, 135, 125, 56, 1, 0.628513
204, 1, wb, attraction, a-b-da, 2, 3, 2, 8, 193, 119, 120, 195, 195, 120, 3, 1.95294
204, 1, wb, attraction, a-b-da, 2, 3, 2, 8, 193, 119, 120, 195, 195, 120, 2, 0.72155
204, 1, wb, attraction, a-b-da, 9, 2, 2, 9, 157, 86, 165, 90, 90, 165, 2, 3.62667
204, 1, wb, attraction, a-b-da, 9, 2, 2, 9, 157, 86, 165, 90, 90, 165, 3, 0.58349
204, 1, wb, filler, NA, 999, 999, 2, 10, 72, 170, 111, 153, 101, 178, 1, 1.87787
204, 1, wb, filler, NA, 999, 999, 2, 10, 72, 170, 111, 153, 101, 178, 2, 0.801349
204, 1, wb, filler, NA, 999, 999, 2, 11, 157, 65, 93, 127, 152, 105, 1, 2.07092
204, 1, wb, filler, NA, 999, 999, 2, 11, 157, 65, 93, 127, 152, 105, 3, 0.730977
204, 1, wb, attraction, a-b-db, 2, 2, 2, 12, 89, 163, 90, 165, 165, 90, 3, 3.17943
204, 1, wb, attraction, a-b-db, 2, 2, 2, 12, 89, 163, 90, 165, 165, 90, 1, 0.738337
204, 1, wb, catch, NA, 999, 999, 2, 13, 67, 128, 127, 188, 112, 143, 1, 1.41881
204, 1, wb, catch, NA, 999, 999, 2, 13, 67, 128, 127, 188, 112, 143, 2, 0.953061
204, 1, wb, attraction, a-b-da, 5, 2, 2, 14, 165, 90, 90, 165, 161, 88, 3, 1.88059
204, 1, wb, attraction, a-b-da, 5, 2, 2, 14, 165, 90, 90, 165, 161, 88, 2, 1.01989
204, 1, wb, filler, NA, 999, 999, 2, 15, 84, 138, 80, 155, 68, 142, 3, 1.53692
204, 1, wb, filler, NA, 999, 999, 2, 15, 84, 138, 80, 155, 68, 142, 1, 0.642407
204, 1, wb, attraction, a-b-da, 5, 3, 2, 16, 120, 195, 190, 117, 195, 120, 3, 3.43009
204, 1, wb, attraction, a-b-da, 5, 3, 2, 16, 120, 195, 190, 117, 195, 120, 1, 0.555158
204, 1, wb, filler, NA, 999, 999, 2, 17, 130, 173, 108, 72, 135, 167, 2, 1.29084
204, 1, wb, filler, NA, 999, 999, 2, 17, 130, 173, 108, 72, 135, 167, 1, 1.70176
204, 1, wb, catch, NA, 999, 999, 2, 18, 179, 136, 102, 93, 158, 97, 2, 1.05522
204, 1, wb, catch, NA, 999, 999, 2, 18, 179, 136, 102, 93, 158, 97, 1, 0.707521
204, 1, wb, filler, NA, 999, 999, 2, 19, 165, 119, 62, 133, 114, 125, 2, 0.956547
204, 1, wb, filler, NA, 999, 999, 2, 19, 165, 119, 62, 133, 114, 125, 1, 0.428923
204, 1, wb, filler, NA, 999, 999, 2, 20, 108, 99, 195, 149, 108, 178, 1, 0.729491
204, 1, wb, filler, NA, 999, 999, 2, 20, 108, 99, 195, 149, 108, 178, 2, 0.371068
204, 1, wb, filler, NA, 999, 999, 2, 21, 170, 151, 190, 72, 170, 70, 2, 1.45825
204, 1, wb, filler, NA, 999, 999, 2, 21, 170, 151, 190, 72, 170, 70, 3, 1.03838
204, 1, wb, catch, NA, 999, 999, 2, 22, 152, 163, 128, 127, 107, 88, 3, 2.50667
204, 1, wb, catch, NA, 999, 999, 2, 22, 152, 163, 128, 127, 107, 88, 1, 0.380559
204, 1, wb, attraction, a-b-da, 14, 2, 2, 23, 90, 165, 153, 83, 165, 90, 2, 1.77919
204, 1, wb, attraction, a-b-da, 14, 2, 2, 23, 90, 165, 153, 83, 165, 90, 1, 0.610461
204, 1, wb, attraction, a-b-db, 2, 1, 2, 24, 135, 60, 59, 134, 60, 135, 2, 1.29547
204, 1, wb, attraction, a-b-db, 2, 1, 2, 24, 135, 60, 59, 134, 60, 135, 1, 0.442383
204, 1, wb, attraction, a-b-da, 9, 1, 2, 25, 60, 135, 135, 60, 129, 57, 2, 1.77431
204, 1, wb, attraction, a-b-da, 9, 1, 2, 25, 60, 135, 135, 60, 129, 57, 1, 0.477717
204, 1, wb, attraction, a-b-db, 9, 3, 2, 26, 120, 195, 114, 186, 195, 120, 3, 4.28824
204, 1, wb, attraction, a-b-db, 9, 3, 2, 26, 120, 195, 114, 186, 195, 120, 1, 0.77878
204, 1, wb, attraction, a-b-db, 14, 1, 2, 27, 56, 125, 60, 135, 135, 60, 1, 2.47312
204, 1, wb, attraction, a-b-db, 14, 1, 2, 27, 56, 125, 60, 135, 135, 60, 3, 0.692324
204, 1, wb, attraction, a-b-da, 14, 3, 2, 28, 120, 195, 181, 111, 195, 120, 2, 2.35003
204, 1, wb, attraction, a-b-da, 14, 3, 2, 28, 120, 195, 181, 111, 195, 120, 1, 0.622591
204, 1, wb, attraction, a-b-db, 5, 2, 2, 29, 90, 165, 165, 90, 88, 161, 2, 2.66773
204, 1, wb, attraction, a-b-db, 5, 2, 2, 29, 90, 165, 165, 90, 88, 161, 1, 0.68744
204, 1, wb, attraction, a-b-db, 5, 1, 2, 30, 135, 60, 60, 135, 58, 132, 1, 2.07389
204, 1, wb, attraction, a-b-db, 5, 1, 2, 30, 135, 60, 60, 135, 58, 132, 2, 0.581319
204, 1, wb, attraction, a-b-db, 14, 2, 2, 31, 165, 90, 83, 153, 90, 165, 1, 2.77969
204, 1, wb, attraction, a-b-db, 14, 2, 2, 31, 165, 90, 83, 153, 90, 165, 3, 1.1228
204, 1, wb, attraction, a-b-db, 9, 1, 2, 32, 57, 129, 60, 135, 135, 60, 3, 1.40373
204, 1, wb, attraction, a-b-db, 9, 1, 2, 32, 57, 129, 60, 135, 135, 60, 2, 0.586603
204, 1, wb, attraction, a-b-da, 9, 3, 2, 33, 195, 120, 120, 195, 186, 114, 3, 1.36092
204, 1, wb, attraction, a-b-da, 9, 3, 2, 33, 195, 120, 120, 195, 186, 114, 2, 1.39313
204, 1, wb, attraction, a-b-db, 2, 3, 2, 34, 195, 120, 119, 193, 120, 195, 3, 2.22275
204, 1, wb, attraction, a-b-db, 2, 3, 2, 34, 195, 120, 119, 193, 120, 195, 1, 0.667934
204, 1, wb, filler, NA, 999, 999, 2, 35, 66, 69, 161, 70, 153, 187, 1, 0.902997
204, 1, wb, filler, NA, 999, 999, 2, 35, 66, 69, 161, 70, 153, 187, 3, 0.602186
204, 1, wb, attraction, a-b-db, 9, 2, 2, 36, 90, 165, 86, 157, 165, 90, 3, 1.57585
204, 1, wb, attraction, a-b-db, 9, 2, 2, 36, 90, 165, 86, 157, 165, 90, 2, 0.495265
204, 1, wb, attraction, a-b-db, 5, 3, 2, 37, 117, 190, 120, 195, 195, 120, 3, 1.01715
204, 1, wb, attraction, a-b-db, 5, 3, 2, 37, 117, 190, 120, 195, 195, 120, 2, 0.639503
204, 1, wb, filler, NA, 999, 999, 3, 1, 105, 140, 70, 194, 179, 171, 1, 0.931797
204, 1, wb, filler, NA, 999, 999, 3, 1, 105, 140, 70, 194, 179, 171, 3, 0.67744
204, 1, wb, attraction, a-b-da, 5, 2, 3, 2, 161, 88, 90, 165, 165, 90, 3, 0.92792
204, 1, wb, attraction, a-b-da, 5, 2, 3, 2, 161, 88, 90, 165, 165, 90, 2, 0.553599
204, 1, wb, filler, NA, 999, 999, 3, 3, 63, 72, 189, 146, 185, 96, 1, 0.769367
204, 1, wb, filler, NA, 999, 999, 3, 3, 63, 72, 189, 146, 185, 96, 2, 0.505909
204, 1, wb, attraction, a-b-db, 2, 2, 3, 4, 90, 165, 165, 90, 89, 163, 3, 2.20364
204, 1, wb, attraction, a-b-db, 2, 2, 3, 4, 90, 165, 165, 90, 89, 163, 2, 1.57811
204, 1, wb, attraction, a-b-da, 14, 2, 3, 5, 165, 90, 90, 165, 153, 83, 3, 2.01622
204, 1, wb, attraction, a-b-da, 14, 2, 3, 5, 165, 90, 90, 165, 153, 83, 2, 8.3903
204, 1, wb, attraction, a-b-da, 14, 1, 3, 6, 135, 60, 125, 56, 60, 135, 2, 2.22638
204, 1, wb, attraction, a-b-da, 14, 1, 3, 6, 135, 60, 125, 56, 60, 135, 3, 0.807518
204, 1, wb, filler, NA, 999, 999, 3, 7, 87, 70, 121, 120, 150, 72, 1, 1.01265
204, 1, wb, filler, NA, 999, 999, 3, 7, 87, 70, 121, 120, 150, 72, 2, 0.682861
204, 1, wb, filler, NA, 999, 999, 3, 8, 170, 127, 110, 109, 56, 67, 3, 0.685327
204, 1, wb, filler, NA, 999, 999, 3, 8, 170, 127, 110, 109, 56, 67, 1, 0.601112
204, 1, wb, attraction, a-b-da, 14, 3, 3, 9, 120, 195, 195, 120, 181, 111, 3, 2.40687
204, 1, wb, attraction, a-b-da, 14, 3, 3, 9, 120, 195, 195, 120, 181, 111, 1, 0.516667
204, 1, wb, attraction, a-b-db, 5, 2, 3, 10, 90, 165, 88, 161, 165, 90, 3, 1.90175
204, 1, wb, attraction, a-b-db, 5, 2, 3, 10, 90, 165, 88, 161, 165, 90, 1, 0.688524
204, 1, wb, catch, NA, 999, 999, 3, 11, 105, 90, 165, 150, 145, 110, 1, 0.810905
204, 1, wb, catch, NA, 999, 999, 3, 11, 105, 90, 165, 150, 145, 110, 2, 0.585399
204, 1, wb, attraction, a-b-db, 14, 1, 3, 12, 56, 125, 60, 135, 135, 60, 3, 2.25573
204, 1, wb, attraction, a-b-db, 14, 1, 3, 12, 56, 125, 60, 135, 135, 60, 2, 1.30773
204, 1, wb, attraction, a-b-db, 2, 1, 3, 13, 135, 60, 59, 134, 60, 135, 2, 3.31642
204, 1, wb, attraction, a-b-db, 2, 1, 3, 13, 135, 60, 59, 134, 60, 135, 1, 0.57407
204, 1, wb, attraction, a-b-da, 2, 3, 3, 14, 195, 120, 193, 119, 120, 195, 2, 1.54059
204, 1, wb, attraction, a-b-da, 2, 3, 3, 14, 195, 120, 193, 119, 120, 195, 3, 0.525383
204, 1, wb, attraction, a-b-da, 2, 1, 3, 15, 135, 60, 60, 135, 134, 59, 1, 1.14181
204, 1, wb, attraction, a-b-da, 2, 1, 3, 15, 135, 60, 60, 135, 134, 59, 2, 1.21476
204, 1, wb, attraction, a-b-da, 5, 3, 3, 16, 190, 117, 195, 120, 120, 195, 2, 2.33968
204, 1, wb, attraction, a-b-da, 5, 3, 3, 16, 190, 117, 195, 120, 120, 195, 3, 0.420324
204, 1, wb, filler, NA, 999, 999, 3, 17, 137, 137, 82, 89, 105, 119, 2, 0.689393
204, 1, wb, filler, NA, 999, 999, 3, 17, 137, 137, 82, 89, 105, 119, 1, 0.388559
204, 1, wb, attraction, a-b-db, 2, 3, 3, 18, 120, 195, 195, 120, 119, 193, 2, 2.51495
204, 1, wb, attraction, a-b-db, 2, 3, 3, 18, 120, 195, 195, 120, 119, 193, 1, 0.436864
204, 1, wb, attraction, a-b-da, 9, 2, 3, 19, 165, 90, 90, 165, 157, 86, 3, 3.88135
204, 1, wb, attraction, a-b-da, 9, 2, 3, 19, 165, 90, 90, 165, 157, 86, 1, 1.74011
204, 1, wb, attraction, a-b-da, 9, 1, 3, 20, 129, 57, 60, 135, 135, 60, 1, 7.50822
204, 1, wb, attraction, a-b-da, 9, 1, 3, 20, 129, 57, 60, 135, 135, 60, 2, 1.60449
204, 1, wb, attraction, a-b-db, 14, 3, 3, 21, 120, 195, 111, 181, 195, 120, 3, 3.01798
204, 1, wb, attraction, a-b-db, 14, 3, 3, 21, 120, 195, 111, 181, 195, 120, 1, 0.983505
204, 1, wb, catch, NA, 999, 999, 3, 22, 163, 92, 182, 133, 116, 79, 3, 1.96592
204, 1, wb, catch, NA, 999, 999, 3, 22, 163, 92, 182, 133, 116, 79, 2, 0.421922
204, 1, wb, filler, NA, 999, 999, 3, 23, 99, 189, 171, 131, 106, 89, 3, 1.56305
204, 1, wb, filler, NA, 999, 999, 3, 23, 99, 189, 171, 131, 106, 89, 2, 0.635166
204, 1, wb, filler, NA, 999, 999, 3, 24, 150, 183, 107, 84, 145, 150, 2, 1.23957
204, 1, wb, filler, NA, 999, 999, 3, 24, 150, 183, 107, 84, 145, 150, 1, 0.916455
204, 1, wb, attraction, a-b-da, 2, 2, 3, 25, 163, 89, 165, 90, 90, 165, 2, 2.78157
204, 1, wb, attraction, a-b-da, 2, 2, 3, 25, 163, 89, 165, 90, 90, 165, 3, 0.564565
204, 1, wb, attraction, a-b-db, 9, 2, 3, 26, 165, 90, 86, 157, 90, 165, 2, 1.0678
204, 1, wb, attraction, a-b-db, 9, 2, 3, 26, 165, 90, 86, 157, 90, 165, 1, 0.527998
204, 1, wb, filler, NA, 999, 999, 3, 27, 107, 83, 134, 136, 75, 163, 1, 0.640498
204, 1, wb, filler, NA, 999, 999, 3, 27, 107, 83, 134, 136, 75, 163, 2, 0.477536
204, 1, wb, attraction, a-b-db, 5, 1, 3, 28, 60, 135, 58, 132, 135, 60, 1, 0.815981
204, 1, wb, attraction, a-b-db, 5, 1, 3, 28, 60, 135, 58, 132, 135, 60, 3, 0.758368
204, 1, wb, catch, NA, 999, 999, 3, 29, 87, 108, 110, 145, 179, 136, 1, 0.765339
204, 1, wb, catch, NA, 999, 999, 3, 29, 87, 108, 110, 145, 179, 136, 3, 0.637827
204, 1, wb, attraction, a-b-da, 9, 3, 3, 30, 195, 120, 120, 195, 186, 114, 3, 1.49825
204, 1, wb, attraction, a-b-da, 9, 3, 3, 30, 195, 120, 120, 195, 186, 114, 2, 0.693019
204, 1, wb, attraction, a-b-db, 9, 1, 3, 31, 57, 129, 135, 60, 60, 135, 3, 2.10271
204, 1, wb, attraction, a-b-db, 9, 1, 3, 31, 57, 129, 135, 60, 60, 135, 2, 0.601396
204, 1, wb, attraction, a-b-db, 5, 3, 3, 32, 117, 190, 120, 195, 195, 120, 3, 1.29513
204, 1, wb, attraction, a-b-db, 5, 3, 3, 32, 117, 190, 120, 195, 195, 120, 2, 0.490084
204, 1, wb, attraction, a-b-db, 9, 3, 3, 33, 120, 195, 195, 120, 114, 186, 2, 0.947928
204, 1, wb, attraction, a-b-db, 9, 3, 3, 33, 120, 195, 195, 120, 114, 186, 1, 0.524882
204, 1, wb, filler, NA, 999, 999, 3, 34, 127, 70, 94, 76, 181, 136, 2, 1.06129
204, 1, wb, filler, NA, 999, 999, 3, 34, 127, 70, 94, 76, 181, 136, 3, 0.41797
204, 1, wb, filler, NA, 999, 999, 3, 35, 136, 140, 153, 100, 166, 165, 2, 1.75074
204, 1, wb, filler, NA, 999, 999, 3, 35, 136, 140, 153, 100, 166, 165, 3, 0.41558
204, 1, wb, attraction, a-b-db, 14, 2, 3, 36, 165, 90, 90, 165, 83, 153, 3, 1.08467
204, 1, wb, attraction, a-b-db, 14, 2, 3, 36, 165, 90, 90, 165, 83, 153, 1, 0.584349
204, 1, wb, attraction, a-b-da, 5, 1, 3, 37, 60, 135, 135, 60, 132, 58, 2, 1.05481
204, 1, wb, attraction, a-b-da, 5, 1, 3, 37, 60, 135, 135, 60, 132, 58, 3, 0.395009
204, 1, wb, attraction, a-b-da, 14, 3, 4, 1, 181, 111, 195, 120, 120, 195, 1, 1.18489
204, 1, wb, attraction, a-b-da, 14, 3, 4, 1, 181, 111, 195, 120, 120, 195, 3, 0.432478
204, 1, wb, attraction, a-b-da, 5, 3, 4, 2, 195, 120, 190, 117, 120, 195, 2, 1.9731
204, 1, wb, attraction, a-b-da, 5, 3, 4, 2, 195, 120, 190, 117, 120, 195, 3, 0.396335
204, 1, wb, filler, NA, 999, 999, 4, 3, 177, 194, 79, 155, 122, 109, 2, 1.27424
204, 1, wb, filler, NA, 999, 999, 4, 3, 177, 194, 79, 155, 122, 109, 1, 0.429784
204, 1, wb, attraction, a-b-da, 5, 1, 4, 4, 60, 135, 135, 60, 132, 58, 2, 1.9382
204, 1, wb, attraction, a-b-da, 5, 1, 4, 4, 60, 135, 135, 60, 132, 58, 3, 0.450885
204, 1, wb, filler, NA, 999, 999, 4, 5, 118, 177, 56, 87, 160, 78, 2, 0.846661
204, 1, wb, filler, NA, 999, 999, 4, 5, 118, 177, 56, 87, 160, 78, 1, 0.435681
204, 1, wb, attraction, a-b-db, 9, 2, 4, 6, 165, 90, 86, 157, 90, 165, 2, 1.28836
204, 1, wb, attraction, a-b-db, 9, 2, 4, 6, 165, 90, 86, 157, 90, 165, 1, 0.491119
204, 1, wb, filler, NA, 999, 999, 4, 7, 180, 168, 182, 104, 88, 188, 3, 0.941036
204, 1, wb, filler, NA, 999, 999, 4, 7, 180, 168, 182, 104, 88, 188, 1, 0.381892
204, 1, wb, attraction, a-b-db, 5, 3, 4, 8, 120, 195, 117, 190, 195, 120, 2, 0.9564
204, 1, wb, attraction, a-b-db, 5, 3, 4, 8, 120, 195, 117, 190, 195, 120, 3, 0.452856
204, 1, wb, filler, NA, 999, 999, 4, 9, 104, 192, 174, 177, 81, 89, 3, 0.584712
204, 1, wb, filler, NA, 999, 999, 4, 9, 104, 192, 174, 177, 81, 89, 2, 0.336431
204, 1, wb, attraction, a-b-db, 14, 3, 4, 10, 120, 195, 111, 181, 195, 120, 3, 0.816851
204, 1, wb, attraction, a-b-db, 14, 3, 4, 10, 120, 195, 111, 181, 195, 120, 2, 0.375167
204, 1, wb, attraction, a-b-db, 2, 3, 4, 11, 120, 195, 195, 120, 119, 193, 3, 1.29368
204, 1, wb, attraction, a-b-db, 2, 3, 4, 11, 120, 195, 195, 120, 119, 193, 1, 0.944734
204, 1, wb, attraction, a-b-da, 9, 1, 4, 12, 60, 135, 129, 57, 135, 60, 2, 1.24032
204, 1, wb, attraction, a-b-da, 9, 1, 4, 12, 60, 135, 129, 57, 135, 60, 3, 0.389173
204, 1, wb, attraction, a-b-da, 9, 3, 4, 13, 120, 195, 195, 120, 186, 114, 2, 1.56374
204, 1, wb, attraction, a-b-da, 9, 3, 4, 13, 120, 195, 195, 120, 186, 114, 1, 0.363837
204, 1, wb, attraction, a-b-db, 5, 1, 4, 14, 60, 135, 58, 132, 135, 60, 2, 1.13091
204, 1, wb, attraction, a-b-db, 5, 1, 4, 14, 60, 135, 58, 132, 135, 60, 1, 0.940589
204, 1, wb, attraction, a-b-da, 14, 2, 4, 15, 153, 83, 165, 90, 90, 165, 2, 1.34029
204, 1, wb, attraction, a-b-da, 14, 2, 4, 15, 153, 83, 165, 90, 90, 165, 3, 0.301191
204, 1, wb, filler, NA, 999, 999, 4, 16, 94, 187, 170, 128, 127, 182, 1, 0.76694
204, 1, wb, filler, NA, 999, 999, 4, 16, 94, 187, 170, 128, 127, 182, 3, 0.351485
204, 1, wb, filler, NA, 999, 999, 4, 17, 60, 184, 128, 69, 171, 167, 2, 0.86323
204, 1, wb, filler, NA, 999, 999, 4, 17, 60, 184, 128, 69, 171, 167, 3, 0.307757
204, 1, wb, attraction, a-b-da, 2, 3, 4, 18, 193, 119, 120, 195, 195, 120, 3, 1.38877
204, 1, wb, attraction, a-b-da, 2, 3, 4, 18, 193, 119, 120, 195, 195, 120, 2, 0.515609
204, 1, wb, attraction, a-b-db, 14, 2, 4, 19, 90, 165, 83, 153, 165, 90, 3, 1.2688
204, 1, wb, attraction, a-b-db, 14, 2, 4, 19, 90, 165, 83, 153, 165, 90, 2, 0.353006
204, 1, wb, attraction, a-b-db, 2, 2, 4, 20, 90, 165, 89, 163, 165, 90, 3, 3.49684
204, 1, wb, attraction, a-b-db, 2, 2, 4, 20, 90, 165, 89, 163, 165, 90, 2, 0.402934
204, 1, wb, attraction, a-b-db, 2, 1, 4, 21, 59, 134, 60, 135, 135, 60, 3, 1.42493
204, 1, wb, attraction, a-b-db, 2, 1, 4, 21, 59, 134, 60, 135, 135, 60, 2, 0.79853
204, 1, wb, attraction, a-b-db, 9, 1, 4, 22, 60, 135, 135, 60, 57, 129, 1, 1.12405
204, 1, wb, attraction, a-b-db, 9, 1, 4, 22, 60, 135, 135, 60, 57, 129, 2, 0.373678
204, 1, wb, filler, NA, 999, 999, 4, 23, 76, 86, 144, 190, 86, 75, 1, 1.30018
204, 1, wb, filler, NA, 999, 999, 4, 23, 76, 86, 144, 190, 86, 75, 2, 0.382983
204, 1, wb, attraction, a-b-da, 2, 2, 4, 24, 90, 165, 163, 89, 165, 90, 2, 0.877697
204, 1, wb, attraction, a-b-da, 2, 2, 4, 24, 90, 165, 163, 89, 165, 90, 3, 0.329428
204, 1, wb, attraction, a-b-da, 5, 2, 4, 25, 161, 88, 90, 165, 165, 90, 3, 0.75386
204, 1, wb, attraction, a-b-da, 5, 2, 4, 25, 161, 88, 90, 165, 165, 90, 2, 0.330339
204, 1, wb, filler, NA, 999, 999, 4, 26, 130, 158, 62, 155, 151, 83, 2, 1.73867
204, 1, wb, filler, NA, 999, 999, 4, 26, 130, 158, 62, 155, 151, 83, 1, 0.611481
204, 1, wb, filler, NA, 999, 999, 4, 27, 189, 75, 102, 56, 128, 152, 2, 1.00052
204, 1, wb, filler, NA, 999, 999, 4, 27, 189, 75, 102, 56, 128, 152, 3, 0.303514
204, 1, wb, attraction, a-b-da, 14, 1, 4, 28, 60, 135, 125, 56, 135, 60, 2, 1.39339
204, 1, wb, attraction, a-b-da, 14, 1, 4, 28, 60, 135, 125, 56, 135, 60, 1, 0.824227
204, 1, wb, attraction, a-b-db, 9, 3, 4, 29, 195, 120, 114, 186, 120, 195, 3, 4.2286
204, 1, wb, attraction, a-b-db, 9, 3, 4, 29, 195, 120, 114, 186, 120, 195, 1, 0.377234
204, 1, wb, catch, NA, 999, 999, 4, 30, 115, 80, 123, 192, 149, 106, 1, 0.903768
204, 1, wb, catch, NA, 999, 999, 4, 30, 115, 80, 123, 192, 149, 106, 2, 0.346674
204, 1, wb, attraction, a-b-da, 2, 1, 4, 31, 135, 60, 134, 59, 60, 135, 3, 0.802552
204, 1, wb, attraction, a-b-da, 2, 1, 4, 31, 135, 60, 134, 59, 60, 135, 1, 0.441742
204, 1, wb, attraction, a-b-da, 9, 2, 4, 32, 165, 90, 90, 165, 157, 86, 2, 1.3575
204, 1, wb, attraction, a-b-da, 9, 2, 4, 32, 165, 90, 90, 165, 157, 86, 1, 0.35765
204, 1, wb, filler, NA, 999, 999, 4, 33, 175, 180, 178, 65, 148, 71, 3, 0.780938
204, 1, wb, filler, NA, 999, 999, 4, 33, 175, 180, 178, 65, 148, 71, 1, 0.404583
204, 1, wb, catch, NA, 999, 999, 4, 34, 61, 134, 94, 161, 181, 134, 1, 0.802354
204, 1, wb, catch, NA, 999, 999, 4, 34, 61, 134, 94, 161, 181, 134, 3, 0.465587
204, 1, wb, attraction, a-b-db, 5, 2, 4, 35, 90, 165, 165, 90, 88, 161, 2, 3.54076
204, 1, wb, attraction, a-b-db, 5, 2, 4, 35, 90, 165, 165, 90, 88, 161, 1, 0.41273
204, 1, wb, attraction, a-b-db, 14, 1, 4, 36, 56, 125, 135, 60, 60, 135, 2, 0.665874
204, 1, wb, attraction, a-b-db, 14, 1, 4, 36, 56, 125, 135, 60, 60, 135, 3, 0.478332
204, 1, wb, catch, NA, 999, 999, 4, 37, 115, 80, 93, 162, 132, 183, 1, 0.568743
204, 1, wb, catch, NA, 999, 999, 4, 37, 115, 80, 93, 162, 132, 183, 3, 0.345362
204, 1, wb, attraction, a-b-db, 9, 2, 5, 1, 165, 90, 86, 157, 90, 165, 2, 5.1839
204, 1, wb, attraction, a-b-db, 9, 2, 5, 1, 165, 90, 86, 157, 90, 165, 1, 0.886075
204, 1, wb, attraction, a-b-da, 2, 2, 5, 2, 90, 165, 163, 89, 165, 90, 3, 1.96846
204, 1, wb, attraction, a-b-da, 2, 2, 5, 2, 90, 165, 163, 89, 165, 90, 1, 0.664353
204, 1, wb, attraction, a-b-db, 9, 1, 5, 3, 57, 129, 135, 60, 60, 135, 1, 1.19546
204, 1, wb, attraction, a-b-db, 9, 1, 5, 3, 57, 129, 135, 60, 60, 135, 3, 1.09845
204, 1, wb, filler, NA, 999, 999, 5, 4, 65, 66, 143, 140, 91, 172, 1, 0.564002
204, 1, wb, filler, NA, 999, 999, 5, 4, 65, 66, 143, 140, 91, 172, 2, 0.7086
204, 1, wb, attraction, a-b-da, 14, 2, 5, 5, 90, 165, 165, 90, 153, 83, 2, 1.26159
204, 1, wb, attraction, a-b-da, 14, 2, 5, 5, 90, 165, 165, 90, 153, 83, 1, 1.1217
204, 1, wb, attraction, a-b-db, 2, 1, 5, 6, 60, 135, 135, 60, 59, 134, 3, 1.26672
204, 1, wb, attraction, a-b-db, 2, 1, 5, 6, 60, 135, 135, 60, 59, 134, 1, 0.871057
204, 1, wb, catch, NA, 999, 999, 5, 7, 99, 96, 123, 192, 154, 101, 1, 0.698087
204, 1, wb, catch, NA, 999, 999, 5, 7, 99, 96, 123, 192, 154, 101, 2, 0.421097
204, 1, wb, attraction, a-b-da, 9, 3, 5, 8, 120, 195, 186, 114, 195, 120, 2, 1.24217
204, 1, wb, attraction, a-b-da, 9, 3, 5, 8, 120, 195, 186, 114, 195, 120, 1, 0.967174
204, 1, wb, filler, NA, 999, 999, 5, 9, 89, 177, 180, 121, 175, 103, 1, 0.846069
204, 1, wb, filler, NA, 999, 999, 5, 9, 89, 177, 180, 121, 175, 103, 2, 0.443097
204, 1, wb, filler, NA, 999, 999, 5, 10, 73, 121, 111, 182, 129, 73, 1, 1.46288
204, 1, wb, filler, NA, 999, 999, 5, 10, 73, 121, 111, 182, 129, 73, 2, 1.60334
204, 1, wb, attraction, a-b-db, 5, 2, 5, 11, 165, 90, 88, 161, 90, 165, 1, 2.46467
204, 1, wb, attraction, a-b-db, 5, 2, 5, 11, 165, 90, 88, 161, 90, 165, 2, 0.708394
204, 1, wb, attraction, a-b-da, 2, 3, 5, 12, 193, 119, 120, 195, 195, 120, 3, 2.0774
204, 1, wb, attraction, a-b-da, 2, 3, 5, 12, 193, 119, 120, 195, 195, 120, 2, 1.16083
204, 1, wb, attraction, a-b-db, 5, 1, 5, 13, 58, 132, 135, 60, 60, 135, 1, 1.71976
204, 1, wb, attraction, a-b-db, 5, 1, 5, 13, 58, 132, 135, 60, 60, 135, 2, 0.753949
204, 1, wb, attraction, a-b-da, 14, 3, 5, 14, 120, 195, 195, 120, 181, 111, 3, 1.45749
204, 1, wb, attraction, a-b-da, 14, 3, 5, 14, 120, 195, 195, 120, 181, 111, 1, 0.613641
204, 1, wb, attraction, a-b-db, 2, 3, 5, 15, 195, 120, 119, 193, 120, 195, 1, 1.93882
204, 1, wb, attraction, a-b-db, 2, 3, 5, 15, 195, 120, 119, 193, 120, 195, 3, 1.10759
204, 1, wb, attraction, a-b-db, 14, 2, 5, 16, 165, 90, 90, 165, 83, 153, 3, 3.04444
204, 1, wb, attraction, a-b-db, 14, 2, 5, 16, 165, 90, 90, 165, 83, 153, 2, 0.968803
204, 1, wb, filler, NA, 999, 999, 5, 17, 66, 57, 192, 110, 120, 112, 1, 0.639724
204, 1, wb, filler, NA, 999, 999, 5, 17, 66, 57, 192, 110, 120, 112, 2, 0.820938
204, 1, wb, attraction, a-b-db, 5, 3, 5, 18, 195, 120, 120, 195, 117, 190, 1, 2.14581
204, 1, wb, attraction, a-b-db, 5, 3, 5, 18, 195, 120, 120, 195, 117, 190, 2, 0.842502
204, 1, wb, attraction, a-b-da, 9, 1, 5, 19, 60, 135, 129, 57, 135, 60, 2, 1.10231
204, 1, wb, attraction, a-b-da, 9, 1, 5, 19, 60, 135, 129, 57, 135, 60, 1, 1.96922
204, 1, wb, attraction, a-b-da, 9, 2, 5, 20, 157, 86, 90, 165, 165, 90, 1, 1.82378
204, 1, wb, attraction, a-b-da, 9, 2, 5, 20, 157, 86, 90, 165, 165, 90, 2, 0.677291
204, 1, wb, attraction, a-b-da, 2, 1, 5, 21, 134, 59, 135, 60, 60, 135, 3, 3.53556
204, 1, wb, attraction, a-b-da, 2, 1, 5, 21, 134, 59, 135, 60, 60, 135, 1, 1.05656
204, 1, wb, attraction, a-b-db, 2, 2, 5, 22, 89, 163, 165, 90, 90, 165, 2, 1.83624
204, 1, wb, attraction, a-b-db, 2, 2, 5, 22, 89, 163, 165, 90, 90, 165, 3, 0.721564
204, 1, wb, filler, NA, 999, 999, 5, 23, 73, 77, 126, 180, 177, 60, 1, 0.778464
204, 1, wb, filler, NA, 999, 999, 5, 23, 73, 77, 126, 180, 177, 60, 2, 0.690446
204, 1, wb, filler, NA, 999, 999, 5, 24, 105, 132, 89, 88, 108, 167, 2, 1.46808
204, 1, wb, filler, NA, 999, 999, 5, 24, 105, 132, 89, 88, 108, 167, 3, 0.800167
204, 1, wb, filler, NA, 999, 999, 5, 25, 72, 156, 118, 171, 138, 124, 1, 1.11782
204, 1, wb, filler, NA, 999, 999, 5, 25, 72, 156, 118, 171, 138, 124, 2, 1.04013
204, 1, wb, attraction, a-b-db, 9, 3, 5, 26, 114, 186, 120, 195, 195, 120, 1, 2.21176
204, 1, wb, attraction, a-b-db, 9, 3, 5, 26, 114, 186, 120, 195, 195, 120, 3, 0.585646
204, 1, wb, filler, NA, 999, 999, 5, 27, 164, 88, 182, 84, 124, 94, 3, 1.69605
204, 1, wb, filler, NA, 999, 999, 5, 27, 164, 88, 182, 84, 124, 94, 2, 0.826952
204, 1, wb, filler, NA, 999, 999, 5, 28, 177, 173, 191, 160, 64, 162, 3, 0.7193
204, 1, wb, filler, NA, 999, 999, 5, 28, 177, 173, 191, 160, 64, 162, 1, 0.689696
204, 1, wb, catch, NA, 999, 999, 5, 29, 103, 92, 97, 158, 121, 194, 1, 0.89204
204, 1, wb, catch, NA, 999, 999, 5, 29, 103, 92, 97, 158, 121, 194, 3, 0.519118
204, 1, wb, attraction, a-b-da, 5, 3, 5, 30, 120, 195, 195, 120, 190, 117, 2, 1.65633
204, 1, wb, attraction, a-b-da, 5, 3, 5, 30, 120, 195, 195, 120, 190, 117, 1, 0.556326
204, 1, wb, attraction, a-b-da, 5, 1, 5, 31, 132, 58, 135, 60, 60, 135, 2, 2.26019
204, 1, wb, attraction, a-b-da, 5, 1, 5, 31, 132, 58, 135, 60, 60, 135, 3, 0.832032
204, 1, wb, catch, NA, 999, 999, 5, 32, 126, 189, 137, 118, 66, 129, 3, 1.03643
204, 1, wb, catch, NA, 999, 999, 5, 32, 126, 189, 137, 118, 66, 129, 1, 0.578027
204, 1, wb, attraction, a-b-db, 14, 3, 5, 33, 111, 181, 195, 120, 120, 195, 1, 1.09645
204, 1, wb, attraction, a-b-db, 14, 3, 5, 33, 111, 181, 195, 120, 120, 195, 3, 0.859521
204, 1, wb, filler, NA, 999, 999, 5, 34, 105, 169, 103, 120, 151, 80, 2, 2.96647
204, 1, wb, filler, NA, 999, 999, 5, 34, 105, 169, 103, 120, 151, 80, 1, 0.398083
204, 1, wb, attraction, a-b-da, 14, 1, 5, 35, 125, 56, 60, 135, 135, 60, 1, 1.22003
204, 1, wb, attraction, a-b-da, 14, 1, 5, 35, 125, 56, 60, 135, 135, 60, 2, 1.07418
204, 1, wb, attraction, a-b-da, 5, 2, 5, 36, 161, 88, 90, 165, 165, 90, 1, 1.42866
204, 1, wb, attraction, a-b-da, 5, 2, 5, 36, 161, 88, 90, 165, 165, 90, 2, 0.586056
204, 1, wb, attraction, a-b-db, 14, 1, 5, 37, 135, 60, 60, 135, 56, 125, 3, 1.43251
204, 1, wb, attraction, a-b-db, 14, 1, 5, 37, 135, 60, 60, 135, 56, 125, 1, 0.886112
204, 1, wb, attraction, a-b-db, 14, 3, 6, 1, 195, 120, 120, 195, 111, 181, 1, 1.87238
204, 1, wb, attraction, a-b-db, 14, 3, 6, 1, 195, 120, 120, 195, 111, 181, 2, 0.555708
204, 1, wb, attraction, a-b-db, 9, 2, 6, 2, 165, 90, 86, 157, 90, 165, 1, 1.64348
204, 1, wb, attraction, a-b-db, 9, 2, 6, 2, 165, 90, 86, 157, 90, 165, 2, 0.93626
204, 1, wb, attraction, a-b-da, 9, 2, 6, 3, 165, 90, 90, 165, 157, 86, 1, 1.03257
204, 1, wb, attraction, a-b-da, 9, 2, 6, 3, 165, 90, 90, 165, 157, 86, 2, 0.59827
204, 1, wb, catch, NA, 999, 999, 6, 4, 93, 102, 143, 172, 117, 138, 1, 1.0041
204, 1, wb, catch, NA, 999, 999, 6, 4, 93, 102, 143, 172, 117, 138, 2, 0.538507
204, 1, wb, attraction, a-b-db, 5, 3, 6, 5, 195, 120, 117, 190, 120, 195, 3, 1.47482
204, 1, wb, attraction, a-b-db, 5, 3, 6, 5, 195, 120, 117, 190, 120, 195, 1, 0.470214
204, 1, wb, attraction, a-b-da, 5, 2, 6, 6, 90, 165, 161, 88, 165, 90, 2, 1.06536
204, 1, wb, attraction, a-b-da, 5, 2, 6, 6, 90, 165, 161, 88, 165, 90, 1, 0.797703
204, 1, wb, attraction, a-b-db, 2, 3, 6, 7, 120, 195, 119, 193, 195, 120, 3, 1.55532
204, 1, wb, attraction, a-b-db, 2, 3, 6, 7, 120, 195, 119, 193, 195, 120, 2, 0.883543
204, 1, wb, attraction, a-b-da, 5, 3, 6, 8, 190, 117, 120, 195, 195, 120, 3, 2.72594
204, 1, wb, attraction, a-b-da, 5, 3, 6, 8, 190, 117, 120, 195, 195, 120, 2, 0.503
204, 1, wb, attraction, a-b-da, 14, 2, 6, 9, 165, 90, 153, 83, 90, 165, 3, 0.712787
204, 1, wb, attraction, a-b-da, 14, 2, 6, 9, 165, 90, 153, 83, 90, 165, 1, 0.539208
204, 1, wb, filler, NA, 999, 999, 6, 10, 136, 186, 83, 123, 86, 118, 3, 0.627615
204, 1, wb, filler, NA, 999, 999, 6, 10, 136, 186, 83, 123, 86, 118, 1, 0.945426
204, 1, wb, catch, NA, 999, 999, 6, 11, 159, 96, 133, 182, 66, 129, 3, 0.697117
204, 1, wb, catch, NA, 999, 999, 6, 11, 159, 96, 133, 182, 66, 129, 2, 0.572212
204, 1, wb, attraction, a-b-da, 5, 1, 6, 12, 60, 135, 135, 60, 132, 58, 2, 1.00325
204, 1, wb, attraction, a-b-da, 5, 1, 6, 12, 60, 135, 135, 60, 132, 58, 3, 0.626246
204, 1, wb, filler, NA, 999, 999, 6, 13, 179, 118, 58, 77, 170, 116, 2, 0.670715
204, 1, wb, filler, NA, 999, 999, 6, 13, 179, 118, 58, 77, 170, 116, 1, 0.36321
204, 1, wb, attraction, a-b-db, 2, 2, 6, 14, 165, 90, 89, 163, 90, 165, 1, 2.04218
204, 1, wb, attraction, a-b-db, 2, 2, 6, 14, 165, 90, 89, 163, 90, 165, 2, 0.390937
204, 1, wb, attraction, a-b-da, 2, 3, 6, 15, 195, 120, 193, 119, 120, 195, 3, 1.39676
204, 1, wb, attraction, a-b-da, 2, 3, 6, 15, 195, 120, 193, 119, 120, 195, 2, 0.427687
204, 1, wb, filler, NA, 999, 999, 6, 16, 143, 112, 105, 67, 135, 178, 2, 0.904026
204, 1, wb, filler, NA, 999, 999, 6, 16, 143, 112, 105, 67, 135, 178, 3, 0.531091
204, 1, wb, attraction, a-b-db, 5, 1, 6, 17, 60, 135, 135, 60, 58, 132, 3, 0.827601
204, 1, wb, attraction, a-b-db, 5, 1, 6, 17, 60, 135, 135, 60, 58, 132, 1, 0.473342
204, 1, wb, attraction, a-b-da, 9, 3, 6, 18, 186, 114, 195, 120, 120, 195, 1, 1.5717
204, 1, wb, attraction, a-b-da, 9, 3, 6, 18, 186, 114, 195, 120, 120, 195, 3, 0.427265
204, 1, wb, attraction, a-b-da, 2, 2, 6, 19, 163, 89, 90, 165, 165, 90, 3, 1.3197
204, 1, wb, attraction, a-b-da, 2, 2, 6, 19, 163, 89, 90, 165, 165, 90, 2, 0.673918
204, 1, wb, attraction, a-b-da, 9, 1, 6, 20, 135, 60, 129, 57, 60, 135, 3, 0.644226
204, 1, wb, attraction, a-b-da, 9, 1, 6, 20, 135, 60, 129, 57, 60, 135, 1, 0.617526
204, 1, wb, attraction, a-b-da, 14, 1, 6, 21, 60, 135, 125, 56, 135, 60, 1, 1.30255
204, 1, wb, attraction, a-b-da, 14, 1, 6, 21, 60, 135, 125, 56, 135, 60, 3, 0.857384
204, 1, wb, attraction, a-b-da, 14, 3, 6, 22, 120, 195, 181, 111, 195, 120, 3, 1.74834
204, 1, wb, attraction, a-b-da, 14, 3, 6, 22, 120, 195, 181, 111, 195, 120, 1, 0.437169
204, 1, wb, attraction, a-b-db, 14, 2, 6, 23, 90, 165, 165, 90, 83, 153, 3, 1.65767
204, 1, wb, attraction, a-b-db, 14, 2, 6, 23, 90, 165, 165, 90, 83, 153, 1, 6.44583
204, 1, wb, attraction, a-b-db, 9, 3, 6, 24, 195, 120, 120, 195, 114, 186, 1, 3.10379
204, 1, wb, attraction, a-b-db, 9, 3, 6, 24, 195, 120, 120, 195, 114, 186, 2, 1.04998
204, 1, wb, attraction, a-b-da, 2, 1, 6, 25, 135, 60, 134, 59, 60, 135, 3, 2.98967
204, 1, wb, attraction, a-b-da, 2, 1, 6, 25, 135, 60, 134, 59, 60, 135, 1, 0.908227
204, 1, wb, filler, NA, 999, 999, 6, 26, 182, 181, 146, 120, 146, 131, 2, 6.09291
204, 1, wb, filler, NA, 999, 999, 6, 26, 182, 181, 146, 120, 146, 131, 1, 1.95044
204, 1, wb, attraction, a-b-db, 2, 1, 6, 27, 60, 135, 59, 134, 135, 60, 1, 3.83769
204, 1, wb, attraction, a-b-db, 2, 1, 6, 27, 60, 135, 59, 134, 135, 60, 3, 0.874506
204, 1, wb, attraction, a-b-db, 9, 1, 6, 28, 135, 60, 57, 129, 60, 135, 2, 2.2128
204, 1, wb, attraction, a-b-db, 9, 1, 6, 28, 135, 60, 57, 129, 60, 135, 1, 1.55482
204, 1, wb, filler, NA, 999, 999, 6, 29, 65, 82, 79, 167, 180, 125, 1, 0.722167
204, 1, wb, filler, NA, 999, 999, 6, 29, 65, 82, 79, 167, 180, 125, 3, 0.56397
204, 1, wb, filler, NA, 999, 999, 6, 30, 157, 98, 99, 101, 174, 152, 2, 2.26705
204, 1, wb, filler, NA, 999, 999, 6, 30, 157, 98, 99, 101, 174, 152, 3, 0.775092
204, 1, wb, catch, NA, 999, 999, 6, 31, 91, 164, 115, 80, 177, 138, 2, 0.997322
204, 1, wb, catch, NA, 999, 999, 6, 31, 91, 164, 115, 80, 177, 138, 3, 0.612349
204, 1, wb, filler, NA, 999, 999, 6, 32, 99, 185, 139, 99, 81, 65, 3, 1.02544
204, 1, wb, filler, NA, 999, 999, 6, 32, 99, 185, 139, 99, 81, 65, 1, 1.02309
204, 1, wb, attraction, a-b-db, 5, 2, 6, 33, 165, 90, 90, 165, 88, 161, 3, 1.44409
204, 1, wb, attraction, a-b-db, 5, 2, 6, 33, 165, 90, 90, 165, 88, 161, 1, 0.992873
204, 1, wb, filler, NA, 999, 999, 6, 34, 104, 108, 155, 72, 98, 173, 2, 1.83868
204, 1, wb, filler, NA, 999, 999, 6, 34, 104, 108, 155, 72, 98, 173, 3, 0.523206
204, 1, wb, attraction, a-b-db, 14, 1, 6, 35, 56, 125, 135, 60, 60, 135, 1, 3.64367
204, 1, wb, attraction, a-b-db, 14, 1, 6, 35, 56, 125, 135, 60, 60, 135, 3, 0.528033
204, 1, wb, filler, NA, 999, 999, 6, 36, 195, 135, 186, 145, 104, 97, 3, 0.680285
204, 1, wb, filler, NA, 999, 999, 6, 36, 195, 135, 186, 145, 104, 97, 1, 1.09222
204, 1, wb, filler, NA, 999, 999, 6, 37, 108, 151, 140, 165, 195, 168, 1, 1.5816
204, 1, wb, filler, NA, 999, 999, 6, 37, 108, 151, 140, 165, 195, 168, 3, 0.645145
204, 1, wb, filler, NA, 999, 999, 7, 1, 140, 65, 141, 74, 110, 160, 1, 2.257
204, 1, wb, filler, NA, 999, 999, 7, 1, 140, 65, 141, 74, 110, 160, 3, 0.500847
204, 1, wb, filler, NA, 999, 999, 7, 2, 164, 187, 63, 76, 98, 135, 2, 0.678524
204, 1, wb, filler, NA, 999, 999, 7, 2, 164, 187, 63, 76, 98, 135, 1, 0.362329
204, 1, wb, attraction, a-b-db, 5, 1, 7, 3, 58, 132, 60, 135, 135, 60, 3, 2.33746
204, 1, wb, attraction, a-b-db, 5, 1, 7, 3, 58, 132, 60, 135, 135, 60, 2, 0.954776
204, 1, wb, attraction, a-b-db, 5, 2, 7, 4, 165, 90, 88, 161, 90, 165, 1, 1.61041
204, 1, wb, attraction, a-b-db, 5, 2, 7, 4, 165, 90, 88, 161, 90, 165, 3, 0.648947
204, 1, wb, attraction, a-b-db, 2, 1, 7, 5, 60, 135, 135, 60, 59, 134, 3, 1.34828
204, 1, wb, attraction, a-b-db, 2, 1, 7, 5, 60, 135, 135, 60, 59, 134, 2, 0.44529
204, 1, wb, catch, NA, 999, 999, 7, 6, 84, 111, 129, 126, 180, 135, 1, 0.616969
204, 1, wb, catch, NA, 999, 999, 7, 6, 84, 111, 129, 126, 180, 135, 3, 0.783515
204, 1, wb, attraction, a-b-da, 9, 3, 7, 7, 120, 195, 186, 114, 195, 120, 3, 2.27787
204, 1, wb, attraction, a-b-da, 9, 3, 7, 7, 120, 195, 186, 114, 195, 120, 1, 0.745216
204, 1, wb, attraction, a-b-db, 9, 3, 7, 8, 120, 195, 114, 186, 195, 120, 3, 1.33677
204, 1, wb, attraction, a-b-db, 9, 3, 7, 8, 120, 195, 114, 186, 195, 120, 1, 1.36234
204, 1, wb, attraction, a-b-db, 14, 1, 7, 9, 135, 60, 56, 125, 60, 135, 2, 2.69727
204, 1, wb, attraction, a-b-db, 14, 1, 7, 9, 135, 60, 56, 125, 60, 135, 1, 0.963742
204, 1, wb, attraction, a-b-da, 2, 3, 7, 10, 195, 120, 120, 195, 193, 119, 1, 2.98667
204, 1, wb, attraction, a-b-da, 2, 3, 7, 10, 195, 120, 120, 195, 193, 119, 2, 0.697641
204, 1, wb, filler, NA, 999, 999, 7, 11, 192, 126, 133, 181, 134, 176, 1, 1.32341
204, 1, wb, filler, NA, 999, 999, 7, 11, 192, 126, 133, 181, 134, 176, 2, 0.645104
204, 1, wb, attraction, a-b-db, 14, 2, 7, 12, 165, 90, 90, 165, 83, 153, 1, 1.43275
204, 1, wb, attraction, a-b-db, 14, 2, 7, 12, 165, 90, 90, 165, 83, 153, 2, 0.75015
204, 1, wb, attraction, a-b-db, 9, 2, 7, 13, 90, 165, 86, 157, 165, 90, 3, 1.31789
204, 1, wb, attraction, a-b-db, 9, 2, 7, 13, 90, 165, 86, 157, 165, 90, 2, 0.616435
204, 1, wb, attraction, a-b-da, 14, 1, 7, 14, 60, 135, 135, 60, 125, 56, 2, 0.853217
204, 1, wb, attraction, a-b-da, 14, 1, 7, 14, 60, 135, 135, 60, 125, 56, 1, 0.554191
204, 1, wb, attraction, a-b-db, 5, 3, 7, 15, 117, 190, 195, 120, 120, 195, 3, 0.746132
204, 1, wb, attraction, a-b-db, 5, 3, 7, 15, 117, 190, 195, 120, 120, 195, 2, 0.651158
204, 1, wb, attraction, a-b-da, 14, 3, 7, 16, 195, 120, 120, 195, 181, 111, 3, 0.854862
204, 1, wb, attraction, a-b-da, 14, 3, 7, 16, 195, 120, 120, 195, 181, 111, 2, 0.652016
204, 1, wb, attraction, a-b-da, 2, 2, 7, 17, 165, 90, 163, 89, 90, 165, 1, 1.37571
204, 1, wb, attraction, a-b-da, 2, 2, 7, 17, 165, 90, 163, 89, 90, 165, 2, 0.487287
204, 1, wb, filler, NA, 999, 999, 7, 18, 182, 155, 145, 128, 120, 109, 3, 0.665542
204, 1, wb, filler, NA, 999, 999, 7, 18, 182, 155, 145, 128, 120, 109, 1, 0.598102
204, 1, wb, filler, NA, 999, 999, 7, 19, 86, 176, 146, 75, 171, 101, 2, 1.05979
204, 1, wb, filler, NA, 999, 999, 7, 19, 86, 176, 146, 75, 171, 101, 3, 0.472125
204, 1, wb, attraction, a-b-db, 2, 3, 7, 20, 120, 195, 119, 193, 195, 120, 3, 0.891251
204, 1, wb, attraction, a-b-db, 2, 3, 7, 20, 120, 195, 119, 193, 195, 120, 2, 0.566365
204, 1, wb, attraction, a-b-da, 14, 2, 7, 21, 153, 83, 165, 90, 90, 165, 1, 0.861498
204, 1, wb, attraction, a-b-da, 14, 2, 7, 21, 153, 83, 165, 90, 90, 165, 3, 0.473728
204, 1, wb, filler, NA, 999, 999, 7, 22, 144, 176, 82, 124, 149, 195, 2, 0.80433
204, 1, wb, filler, NA, 999, 999, 7, 22, 144, 176, 82, 124, 149, 195, 3, 0.475318
204, 1, wb, filler, NA, 999, 999, 7, 23, 88, 74, 115, 86, 166, 193, 1, 0.669709
204, 1, wb, filler, NA, 999, 999, 7, 23, 88, 74, 115, 86, 166, 193, 3, 0.650247
204, 1, wb, attraction, a-b-da, 5, 3, 7, 24, 120, 195, 195, 120, 190, 117, 3, 0.885875
204, 1, wb, attraction, a-b-da, 5, 3, 7, 24, 120, 195, 195, 120, 190, 117, 1, 0.865713
204, 1, wb, attraction, a-b-da, 9, 1, 7, 25, 135, 60, 129, 57, 60, 135, 3, 0.604575
204, 1, wb, attraction, a-b-da, 9, 1, 7, 25, 135, 60, 129, 57, 60, 135, 1, 0.507085
204, 1, wb, filler, NA, 999, 999, 7, 26, 177, 126, 124, 66, 149, 136, 2, 0.724142
204, 1, wb, filler, NA, 999, 999, 7, 26, 177, 126, 124, 66, 149, 136, 1, 0.389934
204, 1, wb, attraction, a-b-db, 14, 3, 7, 27, 111, 181, 120, 195, 195, 120, 1, 0.668308
204, 1, wb, attraction, a-b-db, 14, 3, 7, 27, 111, 181, 120, 195, 195, 120, 3, 0.496844
204, 1, wb, attraction, a-b-da, 5, 1, 7, 28, 60, 135, 135, 60, 132, 58, 3, 1.22661
204, 1, wb, attraction, a-b-da, 5, 1, 7, 28, 60, 135, 135, 60, 132, 58, 1, 0.336213
204, 1, wb, catch, NA, 999, 999, 7, 29, 131, 64, 151, 164, 104, 151, 1, 0.640702
204, 1, wb, catch, NA, 999, 999, 7, 29, 131, 64, 151, 164, 104, 151, 2, 0.373851
204, 1, wb, catch, NA, 999, 999, 7, 30, 90, 165, 163, 152, 127, 68, 3, 0.716395
204, 1, wb, catch, NA, 999, 999, 7, 30, 90, 165, 163, 152, 127, 68, 2, 0.326767
204, 1, wb, attraction, a-b-da, 5, 2, 7, 31, 161, 88, 90, 165, 165, 90, 1, 0.879284
204, 1, wb, attraction, a-b-da, 5, 2, 7, 31, 161, 88, 90, 165, 165, 90, 2, 0.362957
204, 1, wb, attraction, a-b-da, 2, 1, 7, 32, 134, 59, 135, 60, 60, 135, 3, 0.714112
204, 1, wb, attraction, a-b-da, 2, 1, 7, 32, 134, 59, 135, 60, 60, 135, 1, 0.380635
204, 1, wb, attraction, a-b-da, 9, 2, 7, 33, 90, 165, 157, 86, 165, 90, 2, 0.586987
204, 1, wb, attraction, a-b-da, 9, 2, 7, 33, 90, 165, 157, 86, 165, 90, 3, 0.322772
204, 1, wb, attraction, a-b-db, 9, 1, 7, 34, 135, 60, 57, 129, 60, 135, 2, 0.499904
204, 1, wb, attraction, a-b-db, 9, 1, 7, 34, 135, 60, 57, 129, 60, 135, 1, 0.303118
204, 1, wb, attraction, a-b-db, 2, 2, 7, 35, 90, 165, 165, 90, 89, 163, 2, 0.488957
204, 1, wb, attraction, a-b-db, 2, 2, 7, 35, 90, 165, 165, 90, 89, 163, 1, 0.332099
204, 1, wb, filler, NA, 999, 999, 7, 36, 148, 62, 184, 84, 177, 133, 1, 1.01269
204, 1, wb, filler, NA, 999, 999, 7, 36, 148, 62, 184, 84, 177, 133, 3, 0.314947
204, 1, wb, filler, NA, 999, 999, 7, 37, 177, 71, 149, 56, 141, 74, 3, 0.80425
204, 1, wb, filler, NA, 999, 999, 7, 37, 177, 71, 149, 56, 141, 74, 1, 0.523121
204, 1, wb, attraction, a-b-db, 5, 3, 8, 1, 120, 195, 117, 190, 195, 120, 3, 0.740329
204, 1, wb, attraction, a-b-db, 5, 3, 8, 1, 120, 195, 117, 190, 195, 120, 1, 0.38128
204, 1, wb, filler, NA, 999, 999, 8, 2, 161, 126, 69, 89, 81, 157, 2, 0.707841
204, 1, wb, filler, NA, 999, 999, 8, 2, 161, 126, 69, 89, 81, 157, 1, 0.302275
204, 1, wb, attraction, a-b-db, 14, 3, 8, 3, 120, 195, 111, 181, 195, 120, 3, 0.816268
204, 1, wb, attraction, a-b-db, 14, 3, 8, 3, 120, 195, 111, 181, 195, 120, 2, 0.326528
204, 1, wb, attraction, a-b-da, 14, 3, 8, 4, 195, 120, 120, 195, 181, 111, 3, 1.35102
204, 1, wb, attraction, a-b-da, 14, 3, 8, 4, 195, 120, 120, 195, 181, 111, 1, 0.58387
204, 1, wb, attraction, a-b-da, 14, 2, 8, 5, 90, 165, 153, 83, 165, 90, 2, 0.918283
204, 1, wb, attraction, a-b-da, 14, 2, 8, 5, 90, 165, 153, 83, 165, 90, 1, 0.35274
204, 1, wb, catch, NA, 999, 999, 8, 6, 143, 172, 134, 61, 90, 165, 2, 0.70448
204, 1, wb, catch, NA, 999, 999, 8, 6, 143, 172, 134, 61, 90, 165, 1, 0.331524
204, 1, wb, attraction, a-b-da, 5, 1, 8, 7, 135, 60, 132, 58, 60, 135, 3, 0.660086
204, 1, wb, attraction, a-b-da, 5, 1, 8, 7, 135, 60, 132, 58, 60, 135, 1, 0.616444
204, 1, wb, attraction, a-b-db, 14, 2, 8, 8, 90, 165, 165, 90, 83, 153, 2, 0.509593
204, 1, wb, attraction, a-b-db, 14, 2, 8, 8, 90, 165, 165, 90, 83, 153, 1, 0.25609
204, 1, wb, attraction, a-b-da, 2, 2, 8, 9, 163, 89, 90, 165, 165, 90, 1, 1.34808
204, 1, wb, attraction, a-b-da, 2, 2, 8, 9, 163, 89, 90, 165, 165, 90, 2, 0.628996
204, 1, wb, filler, NA, 999, 999, 8, 10, 167, 105, 105, 118, 59, 160, 3, 1.03328
204, 1, wb, filler, NA, 999, 999, 8, 10, 167, 105, 105, 118, 59, 160, 1, 0.454925
204, 1, wb, catch, NA, 999, 999, 8, 11, 189, 126, 118, 77, 103, 152, 2, 1.13074
204, 1, wb, catch, NA, 999, 999, 8, 11, 189, 126, 118, 77, 103, 152, 1, 0.276354
204, 1, wb, attraction, a-b-db, 2, 1, 8, 12, 60, 135, 59, 134, 135, 60, 3, 0.630949
204, 1, wb, attraction, a-b-db, 2, 1, 8, 12, 60, 135, 59, 134, 135, 60, 2, 0.348633
204, 1, wb, attraction, a-b-da, 9, 1, 8, 13, 129, 57, 60, 135, 135, 60, 3, 0.564438
204, 1, wb, attraction, a-b-da, 9, 1, 8, 13, 129, 57, 60, 135, 135, 60, 2, 0.333085
204, 1, wb, attraction, a-b-db, 14, 1, 8, 14, 60, 135, 56, 125, 135, 60, 3, 0.477375
204, 1, wb, attraction, a-b-db, 14, 1, 8, 14, 60, 135, 56, 125, 135, 60, 2, 0.345201
204, 1, wb, attraction, a-b-db, 2, 3, 8, 15, 120, 195, 195, 120, 119, 193, 3, 0.609057
204, 1, wb, attraction, a-b-db, 2, 3, 8, 15, 120, 195, 195, 120, 119, 193, 2, 0.583482
204, 1, wb, attraction, a-b-db, 2, 2, 8, 16, 89, 163, 90, 165, 165, 90, 1, 0.606068
204, 1, wb, attraction, a-b-db, 2, 2, 8, 16, 89, 163, 90, 165, 165, 90, 2, 0.564462
204, 1, wb, attraction, a-b-da, 2, 3, 8, 17, 195, 120, 193, 119, 120, 195, 1, 0.411494
204, 1, wb, attraction, a-b-da, 2, 3, 8, 17, 195, 120, 193, 119, 120, 195, 2, 0.330017
204, 1, wb, attraction, a-b-da, 5, 3, 8, 18, 190, 117, 195, 120, 120, 195, 1, 0.370509
204, 1, wb, attraction, a-b-da, 5, 3, 8, 18, 190, 117, 195, 120, 120, 195, 2, 0.330431
204, 1, wb, attraction, a-b-da, 2, 1, 8, 19, 135, 60, 134, 59, 60, 135, 3, 0.634814
204, 1, wb, attraction, a-b-da, 2, 1, 8, 19, 135, 60, 134, 59, 60, 135, 2, 0.304673
204, 1, wb, attraction, a-b-da, 5, 2, 8, 20, 90, 165, 161, 88, 165, 90, 3, 0.554535
204, 1, wb, attraction, a-b-da, 5, 2, 8, 20, 90, 165, 161, 88, 165, 90, 2, 0.315588
204, 1, wb, filler, NA, 999, 999, 8, 21, 62, 79, 166, 182, 73, 142, 1, 0.684781
204, 1, wb, filler, NA, 999, 999, 8, 21, 62, 79, 166, 182, 73, 142, 2, 0.328609
204, 1, wb, filler, NA, 999, 999, 8, 22, 168, 58, 106, 160, 174, 106, 1, 0.745144
204, 1, wb, filler, NA, 999, 999, 8, 22, 168, 58, 106, 160, 174, 106, 3, 0.770141
204, 1, wb, attraction, a-b-da, 9, 2, 8, 23, 90, 165, 165, 90, 157, 86, 3, 0.772782
204, 1, wb, attraction, a-b-da, 9, 2, 8, 23, 90, 165, 165, 90, 157, 86, 1, 0.480955
204, 1, wb, filler, NA, 999, 999, 8, 24, 84, 68, 154, 125, 111, 82, 1, 0.57936
204, 1, wb, filler, NA, 999, 999, 8, 24, 84, 68, 154, 125, 111, 82, 2, 0.339252
204, 1, wb, attraction, a-b-da, 9, 3, 8, 25, 120, 195, 195, 120, 186, 114, 3, 0.459698
204, 1, wb, attraction, a-b-da, 9, 3, 8, 25, 120, 195, 195, 120, 186, 114, 1, 0.448224
204, 1, wb, filler, NA, 999, 999, 8, 26, 176, 170, 174, 162, 100, 68, 3, 1.09213
204, 1, wb, filler, NA, 999, 999, 8, 26, 176, 170, 174, 162, 100, 68, 1, 0.415019
204, 1, wb, attraction, a-b-db, 9, 1, 8, 27, 60, 135, 57, 129, 135, 60, 3, 0.788119
204, 1, wb, attraction, a-b-db, 9, 1, 8, 27, 60, 135, 57, 129, 135, 60, 1, 0.419261
204, 1, wb, attraction, a-b-da, 14, 1, 8, 28, 60, 135, 135, 60, 125, 56, 3, 0.464316
204, 1, wb, attraction, a-b-da, 14, 1, 8, 28, 60, 135, 135, 60, 125, 56, 2, 0.420797
204, 1, wb, filler, NA, 999, 999, 8, 29, 93, 64, 118, 152, 168, 184, 1, 0.72995
204, 1, wb, filler, NA, 999, 999, 8, 29, 93, 64, 118, 152, 168, 184, 3, 0.411684
204, 1, wb, filler, NA, 999, 999, 8, 30, 68, 82, 132, 89, 135, 140, 1, 0.60081
204, 1, wb, filler, NA, 999, 999, 8, 30, 68, 82, 132, 89, 135, 140, 3, 0.367959
204, 1, wb, attraction, a-b-db, 5, 2, 8, 31, 90, 165, 88, 161, 165, 90, 3, 0.735096
204, 1, wb, attraction, a-b-db, 5, 2, 8, 31, 90, 165, 88, 161, 165, 90, 2, 0.368865
204, 1, wb, attraction, a-b-db, 9, 3, 8, 32, 195, 120, 114, 186, 120, 195, 1, 0.951991
204, 1, wb, attraction, a-b-db, 9, 3, 8, 32, 195, 120, 114, 186, 120, 195, 2, 0.46506
204, 1, wb, catch, NA, 999, 999, 8, 33, 142, 113, 179, 136, 86, 109, 3, 1.14017
204, 1, wb, catch, NA, 999, 999, 8, 33, 142, 113, 179, 136, 86, 109, 2, 0.341156
204, 1, wb, attraction, a-b-db, 9, 2, 8, 34, 90, 165, 86, 157, 165, 90, 3, 0.788959
204, 1, wb, attraction, a-b-db, 9, 2, 8, 34, 90, 165, 86, 157, 165, 90, 1, 0.412117
204, 1, wb, filler, NA, 999, 999, 8, 35, 120, 114, 85, 86, 190, 187, 2, 0.681102
204, 1, wb, filler, NA, 999, 999, 8, 35, 120, 114, 85, 86, 190, 187, 3, 0.292851
204, 1, wb, attraction, a-b-db, 5, 1, 8, 36, 60, 135, 58, 132, 135, 60, 3, 0.734801
204, 1, wb, attraction, a-b-db, 5, 1, 8, 36, 60, 135, 58, 132, 135, 60, 2, 0.480524
204, 1, wb, filler, NA, 999, 999, 8, 37, 181, 189, 147, 123, 90, 195, 2, 1.47488
204, 1, wb, filler, NA, 999, 999, 8, 37, 181, 189, 147, 123, 90, 195, 1, 0.278406
