sub_n, computer_n, bw_cond, effect, set, distance, diag, block_n, trial_n, h1, w1, h2, w2, h3, w3, choice, rt 
266, 1, wb, practice, NA, 999, 999, 0, 1, 195, 164, 154, 109, 129, 105, 3, 3.82407
266, 1, wb, practice, NA, 999, 999, 0, 1, 195, 164, 154, 109, 129, 105, 1, 9.56688
266, 1, wb, practice, NA, 999, 999, 0, 2, 150, 187, 188, 156, 86, 185, 3, 3.35078
266, 1, wb, practice, NA, 999, 999, 0, 2, 150, 187, 188, 156, 86, 185, 2, 3.11127
266, 1, wb, practice, NA, 999, 999, 0, 3, 74, 155, 108, 186, 67, 135, 3, 2.40594
266, 1, wb, practice, NA, 999, 999, 0, 3, 74, 155, 108, 186, 67, 135, 2, 1.36306
266, 1, wb, attraction, a-b-db, 5, 1, 1, 1, 60, 135, 135, 60, 58, 132, 2, 4.07953
266, 1, wb, attraction, a-b-db, 5, 1, 1, 1, 60, 135, 135, 60, 58, 132, 3, 1.35419
266, 1, wb, attraction, a-b-da, 5, 3, 1, 2, 190, 117, 195, 120, 120, 195, 2, 3.60171
266, 1, wb, attraction, a-b-da, 5, 3, 1, 2, 190, 117, 195, 120, 120, 195, 3, 0.615947
266, 1, wb, attraction, a-b-da, 2, 3, 1, 3, 120, 195, 193, 119, 195, 120, 1, 4.49289
266, 1, wb, attraction, a-b-da, 2, 3, 1, 3, 120, 195, 193, 119, 195, 120, 3, 1.73488
266, 1, wb, attraction, a-b-da, 14, 2, 1, 4, 153, 83, 165, 90, 90, 165, 1, 1.71883
266, 1, wb, attraction, a-b-da, 14, 2, 1, 4, 153, 83, 165, 90, 90, 165, 3, 0.984912
266, 1, wb, attraction, a-b-da, 14, 3, 1, 5, 120, 195, 195, 120, 181, 111, 3, 1.51935
266, 1, wb, attraction, a-b-da, 14, 3, 1, 5, 120, 195, 195, 120, 181, 111, 1, 0.673489
266, 1, wb, catch, NA, 999, 999, 1, 6, 111, 144, 139, 176, 82, 113, 3, 0.892061
266, 1, wb, catch, NA, 999, 999, 1, 6, 111, 144, 139, 176, 82, 113, 2, 1.07903
266, 1, wb, filler, NA, 999, 999, 1, 7, 68, 126, 165, 152, 98, 192, 1, 1.19318
266, 1, wb, filler, NA, 999, 999, 1, 7, 68, 126, 165, 152, 98, 192, 2, 1.24818
266, 1, wb, attraction, a-b-db, 5, 3, 1, 8, 120, 195, 117, 190, 195, 120, 2, 3.11568
266, 1, wb, attraction, a-b-db, 5, 3, 1, 8, 120, 195, 117, 190, 195, 120, 3, 1.22939
266, 1, wb, attraction, a-b-db, 9, 1, 1, 9, 57, 129, 135, 60, 60, 135, 3, 2.32163
266, 1, wb, attraction, a-b-db, 9, 1, 1, 9, 57, 129, 135, 60, 60, 135, 2, 1.19484
266, 1, wb, attraction, a-b-db, 14, 1, 1, 10, 135, 60, 60, 135, 56, 125, 1, 1.51236
266, 1, wb, attraction, a-b-db, 14, 1, 1, 10, 135, 60, 60, 135, 56, 125, 2, 1.7945
266, 1, wb, filler, NA, 999, 999, 1, 11, 154, 125, 77, 65, 148, 180, 2, 1.30379
266, 1, wb, filler, NA, 999, 999, 1, 11, 154, 125, 77, 65, 148, 180, 3, 1.21877
266, 1, wb, filler, NA, 999, 999, 1, 12, 136, 66, 136, 99, 59, 81, 3, 1.51175
266, 1, wb, filler, NA, 999, 999, 1, 12, 136, 66, 136, 99, 59, 81, 2, 1.13783
266, 1, wb, attraction, a-b-da, 9, 2, 1, 13, 90, 165, 157, 86, 165, 90, 2, 3.24205
266, 1, wb, attraction, a-b-da, 9, 2, 1, 13, 90, 165, 157, 86, 165, 90, 3, 1.73433
266, 1, wb, attraction, a-b-db, 14, 2, 1, 14, 83, 153, 165, 90, 90, 165, 1, 2.59844
266, 1, wb, attraction, a-b-db, 14, 2, 1, 14, 83, 153, 165, 90, 90, 165, 3, 1.14098
266, 1, wb, attraction, a-b-da, 2, 2, 1, 15, 165, 90, 163, 89, 90, 165, 1, 2.62843
266, 1, wb, attraction, a-b-da, 2, 2, 1, 15, 165, 90, 163, 89, 90, 165, 3, 1.10573
266, 1, wb, filler, NA, 999, 999, 1, 16, 56, 124, 146, 175, 164, 156, 1, 1.07538
266, 1, wb, filler, NA, 999, 999, 1, 16, 56, 124, 146, 175, 164, 156, 2, 1.23892
266, 1, wb, attraction, a-b-da, 9, 1, 1, 17, 60, 135, 135, 60, 129, 57, 3, 1.21113
266, 1, wb, attraction, a-b-da, 9, 1, 1, 17, 60, 135, 135, 60, 129, 57, 1, 1.00143
266, 1, wb, attraction, a-b-db, 14, 3, 1, 18, 195, 120, 120, 195, 111, 181, 3, 1.759
266, 1, wb, attraction, a-b-db, 14, 3, 1, 18, 195, 120, 120, 195, 111, 181, 1, 1.11111
266, 1, wb, attraction, a-b-db, 5, 2, 1, 19, 165, 90, 90, 165, 88, 161, 1, 2.45604
266, 1, wb, attraction, a-b-db, 5, 2, 1, 19, 165, 90, 90, 165, 88, 161, 3, 0.827898
266, 1, wb, attraction, a-b-da, 9, 3, 1, 20, 120, 195, 195, 120, 186, 114, 2, 2.03221
266, 1, wb, attraction, a-b-da, 9, 3, 1, 20, 120, 195, 195, 120, 186, 114, 1, 1.05358
266, 1, wb, attraction, a-b-da, 5, 1, 1, 21, 135, 60, 60, 135, 132, 58, 1, 2.45727
266, 1, wb, attraction, a-b-da, 5, 1, 1, 21, 135, 60, 60, 135, 132, 58, 2, 0.901138
266, 1, wb, attraction, a-b-db, 9, 2, 1, 22, 165, 90, 90, 165, 86, 157, 3, 3.47884
266, 1, wb, attraction, a-b-db, 9, 2, 1, 22, 165, 90, 90, 165, 86, 157, 2, 0.913766
266, 1, wb, attraction, a-b-da, 2, 1, 1, 23, 134, 59, 135, 60, 60, 135, 1, 1.86662
266, 1, wb, attraction, a-b-da, 2, 1, 1, 23, 134, 59, 135, 60, 60, 135, 3, 0.782784
266, 1, wb, attraction, a-b-db, 9, 3, 1, 24, 195, 120, 120, 195, 114, 186, 2, 3.12507
266, 1, wb, attraction, a-b-db, 9, 3, 1, 24, 195, 120, 120, 195, 114, 186, 3, 0.670058
266, 1, wb, attraction, a-b-da, 14, 1, 1, 25, 60, 135, 135, 60, 125, 56, 2, 1.70518
266, 1, wb, attraction, a-b-da, 14, 1, 1, 25, 60, 135, 135, 60, 125, 56, 1, 1.25119
266, 1, wb, attraction, a-b-db, 2, 3, 1, 26, 119, 193, 195, 120, 120, 195, 1, 1.16672
266, 1, wb, attraction, a-b-db, 2, 3, 1, 26, 119, 193, 195, 120, 120, 195, 3, 0.647018
266, 1, wb, filler, NA, 999, 999, 1, 27, 105, 102, 69, 188, 186, 101, 1, 0.88272
266, 1, wb, filler, NA, 999, 999, 1, 27, 105, 102, 69, 188, 186, 101, 3, 0.590425
266, 1, wb, catch, NA, 999, 999, 1, 28, 130, 125, 159, 156, 64, 131, 3, 1.46822
266, 1, wb, catch, NA, 999, 999, 1, 28, 130, 125, 159, 156, 64, 131, 2, 1.20051
266, 1, wb, catch, NA, 999, 999, 1, 29, 138, 177, 88, 107, 128, 127, 2, 0.829969
266, 1, wb, catch, NA, 999, 999, 1, 29, 138, 177, 88, 107, 128, 127, 1, 0.73969
266, 1, wb, filler, NA, 999, 999, 1, 30, 120, 63, 70, 56, 94, 168, 2, 0.948153
266, 1, wb, filler, NA, 999, 999, 1, 30, 120, 63, 70, 56, 94, 168, 3, 0.60509
266, 1, wb, attraction, a-b-db, 2, 1, 1, 31, 135, 60, 59, 134, 60, 135, 3, 1.49085
266, 1, wb, attraction, a-b-db, 2, 1, 1, 31, 135, 60, 59, 134, 60, 135, 2, 1.15766
266, 1, wb, attraction, a-b-da, 5, 2, 1, 32, 165, 90, 90, 165, 161, 88, 3, 1.51656
266, 1, wb, attraction, a-b-da, 5, 2, 1, 32, 165, 90, 90, 165, 161, 88, 2, 1.03872
266, 1, wb, filler, NA, 999, 999, 1, 33, 156, 86, 100, 65, 189, 69, 2, 1.08305
266, 1, wb, filler, NA, 999, 999, 1, 33, 156, 86, 100, 65, 189, 69, 1, 1.44667
266, 1, wb, filler, NA, 999, 999, 1, 34, 163, 118, 107, 68, 141, 100, 2, 0.818116
266, 1, wb, filler, NA, 999, 999, 1, 34, 163, 118, 107, 68, 141, 100, 1, 0.728806
266, 1, wb, filler, NA, 999, 999, 1, 35, 93, 67, 175, 68, 152, 140, 1, 1.01687
266, 1, wb, filler, NA, 999, 999, 1, 35, 93, 67, 175, 68, 152, 140, 3, 0.895319
266, 1, wb, attraction, a-b-db, 2, 2, 1, 36, 165, 90, 89, 163, 90, 165, 3, 2.39291
266, 1, wb, attraction, a-b-db, 2, 2, 1, 36, 165, 90, 89, 163, 90, 165, 1, 0.495469
266, 1, wb, filler, NA, 999, 999, 1, 37, 144, 190, 101, 64, 147, 175, 2, 1.10528
266, 1, wb, filler, NA, 999, 999, 1, 37, 144, 190, 101, 64, 147, 175, 1, 1.31568
266, 1, wb, attraction, a-b-db, 5, 2, 2, 1, 90, 165, 88, 161, 165, 90, 1, 2.50836
266, 1, wb, attraction, a-b-db, 5, 2, 2, 1, 90, 165, 88, 161, 165, 90, 3, 1.59832
266, 1, wb, attraction, a-b-da, 14, 1, 2, 2, 60, 135, 135, 60, 125, 56, 2, 1.82762
266, 1, wb, attraction, a-b-da, 14, 1, 2, 2, 60, 135, 135, 60, 125, 56, 1, 1.32115
266, 1, wb, attraction, a-b-db, 5, 1, 2, 3, 58, 132, 60, 135, 135, 60, 1, 1.13807
266, 1, wb, attraction, a-b-db, 5, 1, 2, 3, 58, 132, 60, 135, 135, 60, 2, 1.45893
266, 1, wb, filler, NA, 999, 999, 2, 4, 110, 58, 150, 63, 56, 56, 3, 1.18974
266, 1, wb, filler, NA, 999, 999, 2, 4, 110, 58, 150, 63, 56, 56, 2, 2.4607
266, 1, wb, filler, NA, 999, 999, 2, 5, 87, 87, 140, 155, 146, 88, 1, 0.6233
266, 1, wb, filler, NA, 999, 999, 2, 5, 87, 87, 140, 155, 146, 88, 2, 1.34912
266, 1, wb, catch, NA, 999, 999, 2, 6, 144, 171, 110, 85, 150, 105, 2, 1.02857
266, 1, wb, catch, NA, 999, 999, 2, 6, 144, 171, 110, 85, 150, 105, 1, 0.410084
266, 1, wb, attraction, a-b-db, 14, 2, 2, 7, 83, 153, 90, 165, 165, 90, 1, 1.10327
266, 1, wb, attraction, a-b-db, 14, 2, 2, 7, 83, 153, 90, 165, 165, 90, 3, 0.714292
266, 1, wb, catch, NA, 999, 999, 2, 8, 76, 119, 172, 143, 123, 132, 1, 0.923368
266, 1, wb, catch, NA, 999, 999, 2, 8, 76, 119, 172, 143, 123, 132, 2, 0.933023
266, 1, wb, attraction, a-b-da, 5, 1, 2, 9, 60, 135, 132, 58, 135, 60, 3, 1.54128
266, 1, wb, attraction, a-b-da, 5, 1, 2, 9, 60, 135, 132, 58, 135, 60, 1, 0.926038
266, 1, wb, catch, NA, 999, 999, 2, 10, 90, 165, 100, 95, 169, 146, 2, 0.782334
266, 1, wb, catch, NA, 999, 999, 2, 10, 90, 165, 100, 95, 169, 146, 3, 0.366165
266, 1, wb, attraction, a-b-db, 2, 3, 2, 11, 195, 120, 120, 195, 119, 193, 3, 2.44526
266, 1, wb, attraction, a-b-db, 2, 3, 2, 11, 195, 120, 120, 195, 119, 193, 1, 0.833975
266, 1, wb, attraction, a-b-da, 5, 3, 2, 12, 195, 120, 190, 117, 120, 195, 1, 2.29421
266, 1, wb, attraction, a-b-da, 5, 3, 2, 12, 195, 120, 190, 117, 120, 195, 2, 1.22487
266, 1, wb, filler, NA, 999, 999, 2, 13, 82, 172, 153, 135, 109, 173, 1, 0.901057
266, 1, wb, filler, NA, 999, 999, 2, 13, 82, 172, 153, 135, 109, 173, 2, 1.40002
266, 1, wb, attraction, a-b-da, 2, 2, 2, 14, 90, 165, 165, 90, 163, 89, 3, 0.861621
266, 1, wb, attraction, a-b-da, 2, 2, 2, 14, 90, 165, 165, 90, 163, 89, 1, 0.929928
266, 1, wb, attraction, a-b-db, 9, 3, 2, 15, 195, 120, 120, 195, 114, 186, 2, 2.17039
266, 1, wb, attraction, a-b-db, 9, 3, 2, 15, 195, 120, 120, 195, 114, 186, 1, 0.578149
266, 1, wb, filler, NA, 999, 999, 2, 16, 79, 93, 189, 144, 98, 186, 1, 1.08864
266, 1, wb, filler, NA, 999, 999, 2, 16, 79, 93, 189, 144, 98, 186, 2, 0.67574
266, 1, wb, attraction, a-b-da, 9, 3, 2, 17, 186, 114, 120, 195, 195, 120, 1, 1.38205
266, 1, wb, attraction, a-b-da, 9, 3, 2, 17, 186, 114, 120, 195, 195, 120, 2, 1.07747
266, 1, wb, attraction, a-b-da, 5, 2, 2, 18, 90, 165, 161, 88, 165, 90, 2, 3.85583
266, 1, wb, attraction, a-b-da, 5, 2, 2, 18, 90, 165, 161, 88, 165, 90, 3, 1.34723
266, 1, wb, filler, NA, 999, 999, 2, 19, 156, 185, 56, 140, 109, 60, 3, 1.01889
266, 1, wb, filler, NA, 999, 999, 2, 19, 156, 185, 56, 140, 109, 60, 1, 0.705141
266, 1, wb, attraction, a-b-db, 14, 1, 2, 20, 56, 125, 60, 135, 135, 60, 1, 0.882839
266, 1, wb, attraction, a-b-db, 14, 1, 2, 20, 56, 125, 60, 135, 135, 60, 2, 1.77454
266, 1, wb, attraction, a-b-db, 9, 2, 2, 21, 165, 90, 86, 157, 90, 165, 1, 2.61266
266, 1, wb, attraction, a-b-db, 9, 2, 2, 21, 165, 90, 86, 157, 90, 165, 3, 0.682382
266, 1, wb, attraction, a-b-db, 2, 1, 2, 22, 60, 135, 59, 134, 135, 60, 1, 0.892739
266, 1, wb, attraction, a-b-db, 2, 1, 2, 22, 60, 135, 59, 134, 135, 60, 2, 1.63976
266, 1, wb, filler, NA, 999, 999, 2, 23, 153, 122, 60, 128, 94, 191, 2, 1.96387
266, 1, wb, filler, NA, 999, 999, 2, 23, 153, 122, 60, 128, 94, 191, 3, 0.532072
266, 1, wb, attraction, a-b-da, 14, 2, 2, 24, 165, 90, 90, 165, 153, 83, 3, 3.58041
266, 1, wb, attraction, a-b-da, 14, 2, 2, 24, 165, 90, 90, 165, 153, 83, 2, 0.579276
266, 1, wb, attraction, a-b-da, 9, 1, 2, 25, 129, 57, 135, 60, 60, 135, 1, 2.04968
266, 1, wb, attraction, a-b-da, 9, 1, 2, 25, 129, 57, 135, 60, 60, 135, 2, 1.07041
266, 1, wb, attraction, a-b-da, 9, 2, 2, 26, 157, 86, 165, 90, 90, 165, 1, 1.48128
266, 1, wb, attraction, a-b-da, 9, 2, 2, 26, 157, 86, 165, 90, 90, 165, 3, 1.42087
266, 1, wb, attraction, a-b-da, 2, 3, 2, 27, 195, 120, 120, 195, 193, 119, 3, 2.38563
266, 1, wb, attraction, a-b-da, 2, 3, 2, 27, 195, 120, 120, 195, 193, 119, 1, 0.824834
266, 1, wb, attraction, a-b-da, 14, 3, 2, 28, 195, 120, 120, 195, 181, 111, 3, 0.917274
266, 1, wb, attraction, a-b-da, 14, 3, 2, 28, 195, 120, 120, 195, 181, 111, 1, 0.623602
266, 1, wb, attraction, a-b-da, 2, 1, 2, 29, 60, 135, 134, 59, 135, 60, 1, 1.85197
266, 1, wb, attraction, a-b-da, 2, 1, 2, 29, 60, 135, 134, 59, 135, 60, 3, 0.720702
266, 1, wb, filler, NA, 999, 999, 2, 30, 58, 177, 70, 63, 68, 143, 2, 0.745745
266, 1, wb, filler, NA, 999, 999, 2, 30, 58, 177, 70, 63, 68, 143, 1, 0.962913
266, 1, wb, attraction, a-b-db, 2, 2, 2, 31, 90, 165, 165, 90, 89, 163, 3, 1.91375
266, 1, wb, attraction, a-b-db, 2, 2, 2, 31, 90, 165, 165, 90, 89, 163, 2, 0.963874
266, 1, wb, attraction, a-b-db, 14, 3, 2, 32, 120, 195, 111, 181, 195, 120, 3, 2.37084
266, 1, wb, attraction, a-b-db, 14, 3, 2, 32, 120, 195, 111, 181, 195, 120, 1, 0.658674
266, 1, wb, filler, NA, 999, 999, 2, 33, 194, 167, 147, 178, 134, 172, 3, 2.02175
266, 1, wb, filler, NA, 999, 999, 2, 33, 194, 167, 147, 178, 134, 172, 1, 0.595121
266, 1, wb, attraction, a-b-db, 5, 3, 2, 34, 117, 190, 120, 195, 195, 120, 1, 4.04081
266, 1, wb, attraction, a-b-db, 5, 3, 2, 34, 117, 190, 120, 195, 195, 120, 3, 0.548992
266, 1, wb, attraction, a-b-db, 9, 1, 2, 35, 60, 135, 57, 129, 135, 60, 2, 1.76464
266, 1, wb, attraction, a-b-db, 9, 1, 2, 35, 60, 135, 57, 129, 135, 60, 3, 0.660798
266, 1, wb, filler, NA, 999, 999, 2, 36, 134, 107, 80, 89, 84, 122, 2, 0.935772
266, 1, wb, filler, NA, 999, 999, 2, 36, 134, 107, 80, 89, 84, 122, 1, 1.73752
266, 1, wb, filler, NA, 999, 999, 2, 37, 67, 183, 179, 78, 121, 108, 3, 2.94565
266, 1, wb, filler, NA, 999, 999, 2, 37, 67, 183, 179, 78, 121, 108, 2, 0.601917
266, 1, wb, filler, NA, 999, 999, 3, 1, 160, 192, 121, 130, 125, 161, 2, 1.31181
266, 1, wb, filler, NA, 999, 999, 3, 1, 160, 192, 121, 130, 125, 161, 1, 1.498
266, 1, wb, attraction, a-b-da, 5, 3, 3, 2, 190, 117, 195, 120, 120, 195, 2, 2.70745
266, 1, wb, attraction, a-b-da, 5, 3, 3, 2, 190, 117, 195, 120, 120, 195, 3, 1.37326
266, 1, wb, catch, NA, 999, 999, 3, 3, 78, 117, 169, 146, 133, 122, 1, 0.94002
266, 1, wb, catch, NA, 999, 999, 3, 3, 78, 117, 169, 146, 133, 122, 2, 0.581023
266, 1, wb, filler, NA, 999, 999, 3, 4, 116, 159, 146, 70, 137, 191, 2, 1.12353
266, 1, wb, filler, NA, 999, 999, 3, 4, 116, 159, 146, 70, 137, 191, 3, 0.549189
266, 1, wb, filler, NA, 999, 999, 3, 5, 140, 168, 187, 58, 188, 195, 2, 0.77334
266, 1, wb, filler, NA, 999, 999, 3, 5, 140, 168, 187, 58, 188, 195, 3, 0.50057
266, 1, wb, catch, NA, 999, 999, 3, 6, 132, 123, 139, 176, 65, 130, 3, 0.902435
266, 1, wb, catch, NA, 999, 999, 3, 6, 132, 123, 139, 176, 65, 130, 2, 0.417441
266, 1, wb, attraction, a-b-da, 5, 1, 3, 7, 60, 135, 132, 58, 135, 60, 1, 1.29463
266, 1, wb, attraction, a-b-da, 5, 1, 3, 7, 60, 135, 132, 58, 135, 60, 3, 0.865605
266, 1, wb, filler, NA, 999, 999, 3, 8, 80, 147, 136, 185, 186, 64, 3, 0.868383
266, 1, wb, filler, NA, 999, 999, 3, 8, 80, 147, 136, 185, 186, 64, 2, 0.680873
266, 1, wb, attraction, a-b-da, 14, 2, 3, 9, 165, 90, 153, 83, 90, 165, 1, 0.69119
266, 1, wb, attraction, a-b-da, 14, 2, 3, 9, 165, 90, 153, 83, 90, 165, 3, 0.926493
266, 1, wb, attraction, a-b-db, 14, 2, 3, 10, 165, 90, 83, 153, 90, 165, 3, 1.85468
266, 1, wb, attraction, a-b-db, 14, 2, 3, 10, 165, 90, 83, 153, 90, 165, 2, 0.739501
266, 1, wb, filler, NA, 999, 999, 3, 11, 151, 178, 101, 63, 91, 134, 2, 0.923807
266, 1, wb, filler, NA, 999, 999, 3, 11, 151, 178, 101, 63, 91, 134, 1, 0.461501
266, 1, wb, attraction, a-b-db, 14, 3, 3, 12, 120, 195, 195, 120, 111, 181, 1, 1.28058
266, 1, wb, attraction, a-b-db, 14, 3, 3, 12, 120, 195, 195, 120, 111, 181, 2, 1.24414
266, 1, wb, attraction, a-b-db, 5, 1, 3, 13, 58, 132, 60, 135, 135, 60, 1, 2.46373
266, 1, wb, attraction, a-b-db, 5, 1, 3, 13, 58, 132, 60, 135, 135, 60, 3, 0.971562
266, 1, wb, catch, NA, 999, 999, 3, 14, 128, 187, 114, 141, 117, 78, 3, 1.25848
266, 1, wb, catch, NA, 999, 999, 3, 14, 128, 187, 114, 141, 117, 78, 1, 1.1668
266, 1, wb, filler, NA, 999, 999, 3, 15, 58, 108, 118, 184, 85, 92, 1, 0.901679
266, 1, wb, filler, NA, 999, 999, 3, 15, 58, 108, 118, 184, 85, 92, 2, 0.608676
266, 1, wb, filler, NA, 999, 999, 3, 16, 158, 165, 63, 73, 75, 59, 2, 1.29378
266, 1, wb, filler, NA, 999, 999, 3, 16, 158, 165, 63, 73, 75, 59, 1, 0.69678
266, 1, wb, attraction, a-b-da, 2, 2, 3, 17, 163, 89, 90, 165, 165, 90, 1, 0.722403
266, 1, wb, attraction, a-b-da, 2, 2, 3, 17, 163, 89, 90, 165, 165, 90, 3, 0.316178
266, 1, wb, attraction, a-b-da, 14, 1, 3, 18, 135, 60, 125, 56, 60, 135, 3, 0.661342
266, 1, wb, attraction, a-b-da, 14, 1, 3, 18, 135, 60, 125, 56, 60, 135, 1, 0.537888
266, 1, wb, filler, NA, 999, 999, 3, 19, 58, 193, 170, 169, 155, 184, 1, 1.75413
266, 1, wb, filler, NA, 999, 999, 3, 19, 58, 193, 170, 169, 155, 184, 2, 0.387121
266, 1, wb, attraction, a-b-da, 2, 1, 3, 20, 60, 135, 135, 60, 134, 59, 1, 0.689472
266, 1, wb, attraction, a-b-da, 2, 1, 3, 20, 60, 135, 135, 60, 134, 59, 2, 0.348551
266, 1, wb, attraction, a-b-da, 9, 2, 3, 21, 165, 90, 157, 86, 90, 165, 1, 0.66036
266, 1, wb, attraction, a-b-da, 9, 2, 3, 21, 165, 90, 157, 86, 90, 165, 2, 0.432815
266, 1, wb, attraction, a-b-db, 9, 3, 3, 22, 195, 120, 120, 195, 114, 186, 1, 0.445302
266, 1, wb, attraction, a-b-db, 9, 3, 3, 22, 195, 120, 120, 195, 114, 186, 3, 0.786459
266, 1, wb, attraction, a-b-db, 9, 1, 3, 23, 60, 135, 57, 129, 135, 60, 1, 0.728842
266, 1, wb, attraction, a-b-db, 9, 1, 3, 23, 60, 135, 57, 129, 135, 60, 3, 0.426609
266, 1, wb, attraction, a-b-da, 9, 1, 3, 24, 135, 60, 129, 57, 60, 135, 3, 2.02309
266, 1, wb, attraction, a-b-da, 9, 1, 3, 24, 135, 60, 129, 57, 60, 135, 1, 0.788471
266, 1, wb, attraction, a-b-da, 2, 3, 3, 25, 195, 120, 193, 119, 120, 195, 3, 1.4347
266, 1, wb, attraction, a-b-da, 2, 3, 3, 25, 195, 120, 193, 119, 120, 195, 1, 0.56034
266, 1, wb, attraction, a-b-db, 2, 2, 3, 26, 90, 165, 89, 163, 165, 90, 3, 0.711375
266, 1, wb, attraction, a-b-db, 2, 2, 3, 26, 90, 165, 89, 163, 165, 90, 1, 0.393784
266, 1, wb, attraction, a-b-da, 14, 3, 3, 27, 195, 120, 181, 111, 120, 195, 3, 0.631732
266, 1, wb, attraction, a-b-da, 14, 3, 3, 27, 195, 120, 181, 111, 120, 195, 1, 0.413385
266, 1, wb, attraction, a-b-db, 5, 3, 3, 28, 120, 195, 117, 190, 195, 120, 3, 0.474617
266, 1, wb, attraction, a-b-db, 5, 3, 3, 28, 120, 195, 117, 190, 195, 120, 1, 0.334392
266, 1, wb, attraction, a-b-da, 5, 2, 3, 29, 90, 165, 165, 90, 161, 88, 3, 0.606977
266, 1, wb, attraction, a-b-da, 5, 2, 3, 29, 90, 165, 165, 90, 161, 88, 2, 0.349425
266, 1, wb, filler, NA, 999, 999, 3, 30, 89, 99, 62, 158, 178, 153, 1, 0.757226
266, 1, wb, filler, NA, 999, 999, 3, 30, 89, 99, 62, 158, 178, 153, 3, 0.277681
266, 1, wb, attraction, a-b-db, 9, 2, 3, 31, 86, 157, 90, 165, 165, 90, 3, 1.00003
266, 1, wb, attraction, a-b-db, 9, 2, 3, 31, 86, 157, 90, 165, 165, 90, 2, 0.447033
266, 1, wb, filler, NA, 999, 999, 3, 32, 160, 97, 67, 71, 134, 148, 2, 1.00295
266, 1, wb, filler, NA, 999, 999, 3, 32, 160, 97, 67, 71, 134, 148, 3, 1.18589
266, 1, wb, attraction, a-b-db, 5, 2, 3, 33, 90, 165, 88, 161, 165, 90, 1, 0.776023
266, 1, wb, attraction, a-b-db, 5, 2, 3, 33, 90, 165, 88, 161, 165, 90, 3, 0.679876
266, 1, wb, attraction, a-b-da, 9, 3, 3, 34, 120, 195, 186, 114, 195, 120, 1, 0.618299
266, 1, wb, attraction, a-b-da, 9, 3, 3, 34, 120, 195, 186, 114, 195, 120, 3, 1.15274
266, 1, wb, attraction, a-b-db, 14, 1, 3, 35, 56, 125, 60, 135, 135, 60, 1, 0.536278
266, 1, wb, attraction, a-b-db, 14, 1, 3, 35, 56, 125, 60, 135, 135, 60, 3, 0.84207
266, 1, wb, attraction, a-b-db, 2, 3, 3, 36, 120, 195, 119, 193, 195, 120, 1, 0.461867
266, 1, wb, attraction, a-b-db, 2, 3, 3, 36, 120, 195, 119, 193, 195, 120, 3, 1.04234
266, 1, wb, attraction, a-b-db, 2, 1, 3, 37, 59, 134, 60, 135, 135, 60, 1, 0.741826
266, 1, wb, attraction, a-b-db, 2, 1, 3, 37, 59, 134, 60, 135, 135, 60, 2, 1.47099
266, 1, wb, attraction, a-b-da, 5, 2, 4, 1, 90, 165, 161, 88, 165, 90, 1, 0.681664
266, 1, wb, attraction, a-b-da, 5, 2, 4, 1, 90, 165, 161, 88, 165, 90, 3, 1.34165
266, 1, wb, attraction, a-b-da, 5, 1, 4, 2, 132, 58, 60, 135, 135, 60, 2, 0.805007
266, 1, wb, attraction, a-b-da, 5, 1, 4, 2, 132, 58, 60, 135, 135, 60, 3, 1.37946
266, 1, wb, attraction, a-b-db, 9, 2, 4, 3, 86, 157, 90, 165, 165, 90, 3, 2.92959
266, 1, wb, attraction, a-b-db, 9, 2, 4, 3, 86, 157, 90, 165, 165, 90, 1, 0.642676
266, 1, wb, filler, NA, 999, 999, 4, 4, 153, 88, 116, 126, 110, 167, 1, 1.91034
266, 1, wb, filler, NA, 999, 999, 4, 4, 153, 88, 116, 126, 110, 167, 3, 0.896479
266, 1, wb, attraction, a-b-db, 9, 3, 4, 5, 120, 195, 114, 186, 195, 120, 1, 2.65808
266, 1, wb, attraction, a-b-db, 9, 3, 4, 5, 120, 195, 114, 186, 195, 120, 3, 0.565859
266, 1, wb, filler, NA, 999, 999, 4, 6, 134, 150, 177, 128, 151, 74, 3, 1.15695
266, 1, wb, filler, NA, 999, 999, 4, 6, 134, 150, 177, 128, 151, 74, 2, 0.541212
266, 1, wb, attraction, a-b-da, 9, 3, 4, 7, 186, 114, 195, 120, 120, 195, 1, 1.12511
266, 1, wb, attraction, a-b-da, 9, 3, 4, 7, 186, 114, 195, 120, 120, 195, 3, 3.06264
266, 1, wb, filler, NA, 999, 999, 4, 8, 138, 94, 88, 122, 164, 86, 2, 0.985052
266, 1, wb, filler, NA, 999, 999, 4, 8, 138, 94, 88, 122, 164, 86, 3, 1.03271
266, 1, wb, attraction, a-b-da, 14, 1, 4, 9, 125, 56, 135, 60, 60, 135, 2, 0.821004
266, 1, wb, attraction, a-b-da, 14, 1, 4, 9, 125, 56, 135, 60, 60, 135, 1, 0.386686
266, 1, wb, attraction, a-b-db, 14, 2, 4, 10, 83, 153, 90, 165, 165, 90, 2, 0.297223
266, 1, wb, attraction, a-b-db, 14, 2, 4, 10, 83, 153, 90, 165, 165, 90, 1, 0.348323
266, 1, wb, attraction, a-b-db, 2, 3, 4, 11, 195, 120, 120, 195, 119, 193, 2, 0.708197
266, 1, wb, attraction, a-b-db, 2, 3, 4, 11, 195, 120, 120, 195, 119, 193, 3, 0.966709
266, 1, wb, filler, NA, 999, 999, 4, 12, 114, 56, 113, 163, 175, 167, 1, 0.629564
266, 1, wb, filler, NA, 999, 999, 4, 12, 114, 56, 113, 163, 175, 167, 3, 0.659286
266, 1, wb, filler, NA, 999, 999, 4, 13, 151, 88, 143, 101, 185, 117, 1, 0.558328
266, 1, wb, filler, NA, 999, 999, 4, 13, 151, 88, 143, 101, 185, 117, 3, 0.638809
266, 1, wb, catch, NA, 999, 999, 4, 14, 138, 117, 180, 135, 76, 119, 3, 1.09936
266, 1, wb, catch, NA, 999, 999, 4, 14, 138, 117, 180, 135, 76, 119, 2, 0.470201
266, 1, wb, attraction, a-b-db, 14, 1, 4, 15, 135, 60, 56, 125, 60, 135, 2, 1.2894
266, 1, wb, attraction, a-b-db, 14, 1, 4, 15, 135, 60, 56, 125, 60, 135, 3, 1.1403
266, 1, wb, filler, NA, 999, 999, 4, 16, 109, 71, 69, 127, 123, 194, 1, 0.787838
266, 1, wb, filler, NA, 999, 999, 4, 16, 109, 71, 69, 127, 123, 194, 3, 0.642912
266, 1, wb, filler, NA, 999, 999, 4, 17, 67, 126, 89, 113, 153, 77, 2, 1.48661
266, 1, wb, filler, NA, 999, 999, 4, 17, 67, 126, 89, 113, 153, 77, 3, 0.834264
266, 1, wb, attraction, a-b-db, 5, 3, 4, 18, 195, 120, 120, 195, 117, 190, 1, 0.694598
266, 1, wb, attraction, a-b-db, 5, 3, 4, 18, 195, 120, 120, 195, 117, 190, 2, 2.08963
266, 1, wb, catch, NA, 999, 999, 4, 19, 110, 85, 156, 99, 168, 147, 1, 0.515586
266, 1, wb, catch, NA, 999, 999, 4, 19, 110, 85, 156, 99, 168, 147, 3, 0.438115
266, 1, wb, filler, NA, 999, 999, 4, 20, 193, 73, 156, 81, 195, 131, 2, 1.45048
266, 1, wb, filler, NA, 999, 999, 4, 20, 193, 73, 156, 81, 195, 131, 3, 0.783411
266, 1, wb, attraction, a-b-da, 2, 1, 4, 21, 60, 135, 134, 59, 135, 60, 3, 1.80571
266, 1, wb, attraction, a-b-da, 2, 1, 4, 21, 60, 135, 134, 59, 135, 60, 2, 0.651821
266, 1, wb, attraction, a-b-db, 5, 2, 4, 22, 88, 161, 90, 165, 165, 90, 1, 3.31967
266, 1, wb, attraction, a-b-db, 5, 2, 4, 22, 88, 161, 90, 165, 165, 90, 3, 0.825443
266, 1, wb, attraction, a-b-da, 14, 3, 4, 23, 181, 111, 120, 195, 195, 120, 1, 0.925591
266, 1, wb, attraction, a-b-da, 14, 3, 4, 23, 181, 111, 120, 195, 195, 120, 3, 0.49528
266, 1, wb, catch, NA, 999, 999, 4, 24, 109, 146, 72, 123, 150, 165, 2, 1.06498
266, 1, wb, catch, NA, 999, 999, 4, 24, 109, 146, 72, 123, 150, 165, 3, 0.397281
266, 1, wb, attraction, a-b-da, 14, 2, 4, 25, 153, 83, 90, 165, 165, 90, 1, 0.803063
266, 1, wb, attraction, a-b-da, 14, 2, 4, 25, 153, 83, 90, 165, 165, 90, 3, 0.498169
266, 1, wb, attraction, a-b-da, 2, 2, 4, 26, 165, 90, 90, 165, 163, 89, 1, 2.76395
266, 1, wb, attraction, a-b-da, 2, 2, 4, 26, 165, 90, 90, 165, 163, 89, 2, 0.323705
266, 1, wb, attraction, a-b-db, 14, 3, 4, 27, 111, 181, 195, 120, 120, 195, 1, 1.32504
266, 1, wb, attraction, a-b-db, 14, 3, 4, 27, 111, 181, 195, 120, 120, 195, 3, 0.29385
266, 1, wb, attraction, a-b-db, 9, 1, 4, 28, 57, 129, 60, 135, 135, 60, 3, 2.10363
266, 1, wb, attraction, a-b-db, 9, 1, 4, 28, 57, 129, 60, 135, 135, 60, 1, 0.898346
266, 1, wb, attraction, a-b-db, 5, 1, 4, 29, 135, 60, 58, 132, 60, 135, 1, 1.93988
266, 1, wb, attraction, a-b-db, 5, 1, 4, 29, 135, 60, 58, 132, 60, 135, 3, 0.476722
266, 1, wb, attraction, a-b-da, 5, 3, 4, 30, 190, 117, 120, 195, 195, 120, 1, 0.839089
266, 1, wb, attraction, a-b-da, 5, 3, 4, 30, 190, 117, 120, 195, 195, 120, 3, 0.660277
266, 1, wb, attraction, a-b-db, 2, 1, 4, 31, 59, 134, 60, 135, 135, 60, 3, 1.31922
266, 1, wb, attraction, a-b-db, 2, 1, 4, 31, 59, 134, 60, 135, 135, 60, 1, 0.617606
266, 1, wb, attraction, a-b-da, 9, 1, 4, 32, 60, 135, 135, 60, 129, 57, 3, 0.518608
266, 1, wb, attraction, a-b-da, 9, 1, 4, 32, 60, 135, 135, 60, 129, 57, 2, 1.32104
266, 1, wb, filler, NA, 999, 999, 4, 33, 131, 193, 92, 84, 89, 179, 2, 1.22578
266, 1, wb, filler, NA, 999, 999, 4, 33, 131, 193, 92, 84, 89, 179, 1, 0.367423
266, 1, wb, attraction, a-b-da, 2, 3, 4, 34, 195, 120, 120, 195, 193, 119, 2, 1.59874
266, 1, wb, attraction, a-b-da, 2, 3, 4, 34, 195, 120, 120, 195, 193, 119, 1, 1.1815
266, 1, wb, filler, NA, 999, 999, 4, 35, 184, 134, 115, 190, 69, 100, 3, 1.08365
266, 1, wb, filler, NA, 999, 999, 4, 35, 184, 134, 115, 190, 69, 100, 1, 0.623335
266, 1, wb, attraction, a-b-da, 9, 2, 4, 36, 165, 90, 90, 165, 157, 86, 1, 0.787777
266, 1, wb, attraction, a-b-da, 9, 2, 4, 36, 165, 90, 90, 165, 157, 86, 2, 1.16274
266, 1, wb, attraction, a-b-db, 2, 2, 4, 37, 165, 90, 89, 163, 90, 165, 3, 1.1937
266, 1, wb, attraction, a-b-db, 2, 2, 4, 37, 165, 90, 89, 163, 90, 165, 2, 0.648611
266, 1, wb, catch, NA, 999, 999, 5, 1, 69, 126, 104, 151, 136, 179, 1, 1.75493
266, 1, wb, catch, NA, 999, 999, 5, 1, 69, 126, 104, 151, 136, 179, 3, 0.451105
266, 1, wb, filler, NA, 999, 999, 5, 2, 123, 62, 114, 75, 56, 160, 1, 2.17484
266, 1, wb, filler, NA, 999, 999, 5, 2, 123, 62, 114, 75, 56, 160, 2, 1.01419
266, 1, wb, attraction, a-b-da, 9, 2, 5, 3, 165, 90, 90, 165, 157, 86, 3, 1.38717
266, 1, wb, attraction, a-b-da, 9, 2, 5, 3, 165, 90, 90, 165, 157, 86, 1, 0.682628
266, 1, wb, attraction, a-b-db, 9, 2, 5, 4, 90, 165, 86, 157, 165, 90, 1, 1.26906
266, 1, wb, attraction, a-b-db, 9, 2, 5, 4, 90, 165, 86, 157, 165, 90, 3, 0.561332
266, 1, wb, attraction, a-b-db, 9, 3, 5, 5, 114, 186, 120, 195, 195, 120, 1, 1.13657
266, 1, wb, attraction, a-b-db, 9, 3, 5, 5, 114, 186, 120, 195, 195, 120, 2, 0.762067
266, 1, wb, attraction, a-b-db, 2, 1, 5, 6, 59, 134, 135, 60, 60, 135, 1, 1.47308
266, 1, wb, attraction, a-b-db, 2, 1, 5, 6, 59, 134, 135, 60, 60, 135, 2, 0.772544
266, 1, wb, catch, NA, 999, 999, 5, 7, 183, 132, 121, 74, 154, 101, 2, 1.79563
266, 1, wb, catch, NA, 999, 999, 5, 7, 183, 132, 121, 74, 154, 101, 1, 0.858397
266, 1, wb, filler, NA, 999, 999, 5, 8, 76, 139, 76, 93, 185, 163, 2, 0.501449
266, 1, wb, filler, NA, 999, 999, 5, 8, 76, 139, 76, 93, 185, 163, 3, 0.536445
266, 1, wb, filler, NA, 999, 999, 5, 9, 193, 120, 85, 126, 146, 168, 2, 0.640971
266, 1, wb, filler, NA, 999, 999, 5, 9, 193, 120, 85, 126, 146, 168, 3, 1.03806
266, 1, wb, attraction, a-b-da, 5, 3, 5, 10, 120, 195, 195, 120, 190, 117, 2, 1.33831
266, 1, wb, attraction, a-b-da, 5, 3, 5, 10, 120, 195, 195, 120, 190, 117, 3, 0.563161
266, 1, wb, attraction, a-b-da, 14, 1, 5, 11, 125, 56, 60, 135, 135, 60, 1, 1.09026
266, 1, wb, attraction, a-b-da, 14, 1, 5, 11, 125, 56, 60, 135, 135, 60, 3, 0.941249
266, 1, wb, attraction, a-b-da, 2, 2, 5, 12, 90, 165, 165, 90, 163, 89, 3, 1.34099
266, 1, wb, attraction, a-b-da, 2, 2, 5, 12, 90, 165, 165, 90, 163, 89, 1, 0.629859
266, 1, wb, attraction, a-b-da, 9, 1, 5, 13, 135, 60, 129, 57, 60, 135, 2, 0.778235
266, 1, wb, attraction, a-b-da, 9, 1, 5, 13, 135, 60, 129, 57, 60, 135, 3, 0.673917
266, 1, wb, filler, NA, 999, 999, 5, 14, 154, 194, 123, 142, 164, 57, 3, 0.796399
266, 1, wb, filler, NA, 999, 999, 5, 14, 154, 194, 123, 142, 164, 57, 1, 0.395518
266, 1, wb, attraction, a-b-db, 2, 2, 5, 15, 165, 90, 90, 165, 89, 163, 1, 0.753211
266, 1, wb, attraction, a-b-db, 2, 2, 5, 15, 165, 90, 90, 165, 89, 163, 3, 0.40237
266, 1, wb, attraction, a-b-db, 5, 2, 5, 16, 88, 161, 90, 165, 165, 90, 3, 0.840068
266, 1, wb, attraction, a-b-db, 5, 2, 5, 16, 88, 161, 90, 165, 165, 90, 1, 0.397112
266, 1, wb, filler, NA, 999, 999, 5, 17, 133, 158, 193, 186, 180, 126, 1, 1.13894
266, 1, wb, filler, NA, 999, 999, 5, 17, 133, 158, 193, 186, 180, 126, 2, 0.347901
266, 1, wb, attraction, a-b-da, 2, 1, 5, 18, 60, 135, 134, 59, 135, 60, 1, 0.651815
266, 1, wb, attraction, a-b-da, 2, 1, 5, 18, 60, 135, 134, 59, 135, 60, 2, 0.384846
266, 1, wb, filler, NA, 999, 999, 5, 19, 177, 135, 76, 128, 117, 177, 2, 1.65534
266, 1, wb, filler, NA, 999, 999, 5, 19, 177, 135, 76, 128, 117, 177, 1, 0.347614
266, 1, wb, filler, NA, 999, 999, 5, 20, 85, 171, 114, 152, 180, 68, 3, 1.22729
266, 1, wb, filler, NA, 999, 999, 5, 20, 85, 171, 114, 152, 180, 68, 2, 0.456863
266, 1, wb, catch, NA, 999, 999, 5, 21, 112, 143, 70, 125, 139, 176, 2, 1.05202
266, 1, wb, catch, NA, 999, 999, 5, 21, 112, 143, 70, 125, 139, 176, 3, 0.353042
266, 1, wb, attraction, a-b-da, 14, 3, 5, 22, 181, 111, 120, 195, 195, 120, 1, 0.696846
266, 1, wb, attraction, a-b-da, 14, 3, 5, 22, 181, 111, 120, 195, 195, 120, 2, 0.467985
266, 1, wb, filler, NA, 999, 999, 5, 23, 149, 185, 143, 103, 86, 124, 3, 0.767086
266, 1, wb, filler, NA, 999, 999, 5, 23, 149, 185, 143, 103, 86, 124, 1, 0.847435
266, 1, wb, attraction, a-b-db, 5, 1, 5, 24, 58, 132, 135, 60, 60, 135, 1, 0.883024
266, 1, wb, attraction, a-b-db, 5, 1, 5, 24, 58, 132, 135, 60, 60, 135, 3, 0.558884
266, 1, wb, attraction, a-b-da, 5, 2, 5, 25, 161, 88, 165, 90, 90, 165, 1, 1.03785
266, 1, wb, attraction, a-b-da, 5, 2, 5, 25, 161, 88, 165, 90, 90, 165, 3, 0.42697
266, 1, wb, attraction, a-b-db, 14, 2, 5, 26, 90, 165, 83, 153, 165, 90, 3, 1.15144
266, 1, wb, attraction, a-b-db, 14, 2, 5, 26, 90, 165, 83, 153, 165, 90, 1, 0.432316
266, 1, wb, attraction, a-b-db, 9, 1, 5, 27, 135, 60, 57, 129, 60, 135, 1, 1.74884
266, 1, wb, attraction, a-b-db, 9, 1, 5, 27, 135, 60, 57, 129, 60, 135, 3, 0.349678
266, 1, wb, attraction, a-b-da, 5, 1, 5, 28, 60, 135, 135, 60, 132, 58, 1, 0.517931
266, 1, wb, attraction, a-b-da, 5, 1, 5, 28, 60, 135, 135, 60, 132, 58, 2, 0.975911
266, 1, wb, attraction, a-b-da, 9, 3, 5, 29, 195, 120, 120, 195, 186, 114, 1, 0.510174
266, 1, wb, attraction, a-b-da, 9, 3, 5, 29, 195, 120, 120, 195, 186, 114, 2, 1.23268
266, 1, wb, attraction, a-b-db, 2, 3, 5, 30, 119, 193, 195, 120, 120, 195, 3, 0.892884
266, 1, wb, attraction, a-b-db, 2, 3, 5, 30, 119, 193, 195, 120, 120, 195, 1, 0.56787
266, 1, wb, filler, NA, 999, 999, 5, 31, 99, 65, 169, 125, 122, 82, 1, 0.742937
266, 1, wb, filler, NA, 999, 999, 5, 31, 99, 65, 169, 125, 122, 82, 2, 0.424033
266, 1, wb, attraction, a-b-db, 5, 3, 5, 32, 120, 195, 117, 190, 195, 120, 1, 0.580654
266, 1, wb, attraction, a-b-db, 5, 3, 5, 32, 120, 195, 117, 190, 195, 120, 3, 1.27632
266, 1, wb, attraction, a-b-da, 2, 3, 5, 33, 193, 119, 195, 120, 120, 195, 3, 1.35863
266, 1, wb, attraction, a-b-da, 2, 3, 5, 33, 193, 119, 195, 120, 120, 195, 1, 0.558845
266, 1, wb, attraction, a-b-da, 14, 2, 5, 34, 165, 90, 153, 83, 90, 165, 1, 0.813867
266, 1, wb, attraction, a-b-da, 14, 2, 5, 34, 165, 90, 153, 83, 90, 165, 2, 0.468294
266, 1, wb, filler, NA, 999, 999, 5, 35, 174, 62, 119, 181, 114, 195, 1, 0.791401
266, 1, wb, filler, NA, 999, 999, 5, 35, 174, 62, 119, 181, 114, 195, 2, 0.958544
266, 1, wb, attraction, a-b-db, 14, 3, 5, 36, 195, 120, 120, 195, 111, 181, 1, 2.6535
266, 1, wb, attraction, a-b-db, 14, 3, 5, 36, 195, 120, 120, 195, 111, 181, 3, 0.905907
266, 1, wb, attraction, a-b-db, 14, 1, 5, 37, 60, 135, 56, 125, 135, 60, 1, 0.603535
266, 1, wb, attraction, a-b-db, 14, 1, 5, 37, 60, 135, 56, 125, 135, 60, 2, 0.634619
266, 1, wb, attraction, a-b-da, 9, 3, 6, 1, 186, 114, 120, 195, 195, 120, 1, 0.535196
266, 1, wb, attraction, a-b-da, 9, 3, 6, 1, 186, 114, 120, 195, 195, 120, 3, 0.43296
266, 1, wb, attraction, a-b-da, 5, 2, 6, 2, 161, 88, 165, 90, 90, 165, 3, 1.28542
266, 1, wb, attraction, a-b-da, 5, 2, 6, 2, 161, 88, 165, 90, 90, 165, 1, 0.552966
266, 1, wb, attraction, a-b-da, 9, 1, 6, 3, 135, 60, 60, 135, 129, 57, 2, 0.600697
266, 1, wb, attraction, a-b-da, 9, 1, 6, 3, 135, 60, 60, 135, 129, 57, 3, 0.463793
266, 1, wb, attraction, a-b-da, 14, 1, 6, 4, 125, 56, 60, 135, 135, 60, 1, 0.490947
266, 1, wb, attraction, a-b-da, 14, 1, 6, 4, 125, 56, 60, 135, 135, 60, 2, 0.446105
266, 1, wb, filler, NA, 999, 999, 6, 5, 131, 130, 164, 105, 136, 146, 1, 0.697887
266, 1, wb, filler, NA, 999, 999, 6, 5, 131, 130, 164, 105, 136, 146, 2, 2.33303
266, 1, wb, attraction, a-b-da, 2, 2, 6, 6, 90, 165, 165, 90, 163, 89, 3, 1.02089
266, 1, wb, attraction, a-b-da, 2, 2, 6, 6, 90, 165, 165, 90, 163, 89, 1, 0.651379
266, 1, wb, attraction, a-b-da, 14, 3, 6, 7, 195, 120, 181, 111, 120, 195, 2, 1.24704
266, 1, wb, attraction, a-b-da, 14, 3, 6, 7, 195, 120, 181, 111, 120, 195, 3, 0.899847
266, 1, wb, catch, NA, 999, 999, 6, 8, 150, 165, 117, 78, 147, 108, 2, 2.18156
266, 1, wb, catch, NA, 999, 999, 6, 8, 150, 165, 117, 78, 147, 108, 1, 0.364999
266, 1, wb, attraction, a-b-da, 5, 1, 6, 9, 135, 60, 60, 135, 132, 58, 1, 1.65198
266, 1, wb, attraction, a-b-da, 5, 1, 6, 9, 135, 60, 60, 135, 132, 58, 2, 0.430445
266, 1, wb, attraction, a-b-db, 9, 1, 6, 10, 135, 60, 57, 129, 60, 135, 1, 0.685255
266, 1, wb, attraction, a-b-db, 9, 1, 6, 10, 135, 60, 57, 129, 60, 135, 3, 0.377109
266, 1, wb, filler, NA, 999, 999, 6, 11, 105, 93, 126, 182, 194, 153, 1, 0.479492
266, 1, wb, filler, NA, 999, 999, 6, 11, 105, 93, 126, 182, 194, 153, 3, 1.09133
266, 1, wb, attraction, a-b-da, 2, 3, 6, 12, 193, 119, 195, 120, 120, 195, 1, 0.852916
266, 1, wb, attraction, a-b-da, 2, 3, 6, 12, 193, 119, 195, 120, 120, 195, 3, 0.626119
266, 1, wb, attraction, a-b-db, 9, 2, 6, 13, 165, 90, 90, 165, 86, 157, 3, 1.67851
266, 1, wb, attraction, a-b-db, 9, 2, 6, 13, 165, 90, 90, 165, 86, 157, 1, 0.753818
266, 1, wb, attraction, a-b-db, 9, 3, 6, 14, 195, 120, 114, 186, 120, 195, 2, 0.65749
266, 1, wb, attraction, a-b-db, 9, 3, 6, 14, 195, 120, 114, 186, 120, 195, 1, 0.510035
266, 1, wb, filler, NA, 999, 999, 6, 15, 64, 104, 70, 187, 83, 174, 1, 0.861009
266, 1, wb, filler, NA, 999, 999, 6, 15, 64, 104, 70, 187, 83, 174, 3, 0.747419
266, 1, wb, filler, NA, 999, 999, 6, 16, 77, 168, 139, 166, 125, 165, 1, 0.579061
266, 1, wb, filler, NA, 999, 999, 6, 16, 77, 168, 139, 166, 125, 165, 2, 0.882924
266, 1, wb, catch, NA, 999, 999, 6, 17, 162, 93, 98, 97, 185, 130, 2, 0.90924
266, 1, wb, catch, NA, 999, 999, 6, 17, 162, 93, 98, 97, 185, 130, 3, 0.359713
266, 1, wb, filler, NA, 999, 999, 6, 18, 113, 168, 118, 96, 62, 176, 3, 1.39081
266, 1, wb, filler, NA, 999, 999, 6, 18, 113, 168, 118, 96, 62, 176, 1, 0.605734
266, 1, wb, attraction, a-b-db, 2, 1, 6, 19, 135, 60, 60, 135, 59, 134, 3, 1.17955
266, 1, wb, attraction, a-b-db, 2, 1, 6, 19, 135, 60, 60, 135, 59, 134, 1, 0.882949
266, 1, wb, filler, NA, 999, 999, 6, 20, 99, 170, 61, 164, 105, 133, 3, 1.66138
266, 1, wb, filler, NA, 999, 999, 6, 20, 99, 170, 61, 164, 105, 133, 1, 0.609512
266, 1, wb, catch, NA, 999, 999, 6, 21, 133, 182, 136, 119, 104, 91, 3, 0.550484
266, 1, wb, catch, NA, 999, 999, 6, 21, 133, 182, 136, 119, 104, 91, 1, 0.695793
266, 1, wb, attraction, a-b-db, 5, 1, 6, 22, 135, 60, 58, 132, 60, 135, 1, 0.777542
266, 1, wb, attraction, a-b-db, 5, 1, 6, 22, 135, 60, 58, 132, 60, 135, 3, 0.609156
266, 1, wb, attraction, a-b-db, 5, 2, 6, 23, 90, 165, 88, 161, 165, 90, 3, 0.926249
266, 1, wb, attraction, a-b-db, 5, 2, 6, 23, 90, 165, 88, 161, 165, 90, 1, 0.567864
266, 1, wb, attraction, a-b-db, 14, 3, 6, 24, 111, 181, 120, 195, 195, 120, 3, 0.590999
266, 1, wb, attraction, a-b-db, 14, 3, 6, 24, 111, 181, 120, 195, 195, 120, 1, 0.358072
266, 1, wb, attraction, a-b-da, 9, 2, 6, 25, 165, 90, 157, 86, 90, 165, 2, 1.12533
266, 1, wb, attraction, a-b-da, 9, 2, 6, 25, 165, 90, 157, 86, 90, 165, 3, 0.49491
266, 1, wb, attraction, a-b-da, 2, 1, 6, 26, 135, 60, 134, 59, 60, 135, 3, 0.616628
266, 1, wb, attraction, a-b-da, 2, 1, 6, 26, 135, 60, 134, 59, 60, 135, 1, 1.0951
266, 1, wb, filler, NA, 999, 999, 6, 27, 195, 68, 75, 114, 143, 151, 2, 0.51281
266, 1, wb, filler, NA, 999, 999, 6, 27, 195, 68, 75, 114, 143, 151, 3, 0.491203
266, 1, wb, attraction, a-b-db, 2, 3, 6, 28, 195, 120, 120, 195, 119, 193, 1, 0.893044
266, 1, wb, attraction, a-b-db, 2, 3, 6, 28, 195, 120, 120, 195, 119, 193, 3, 0.432063
266, 1, wb, filler, NA, 999, 999, 6, 29, 89, 190, 125, 149, 65, 62, 3, 1.01247
266, 1, wb, filler, NA, 999, 999, 6, 29, 89, 190, 125, 149, 65, 62, 2, 1.13884
266, 1, wb, attraction, a-b-db, 14, 1, 6, 30, 135, 60, 56, 125, 60, 135, 2, 1.22711
266, 1, wb, attraction, a-b-db, 14, 1, 6, 30, 135, 60, 56, 125, 60, 135, 3, 0.592684
266, 1, wb, attraction, a-b-da, 14, 2, 6, 31, 165, 90, 153, 83, 90, 165, 2, 0.574394
266, 1, wb, attraction, a-b-da, 14, 2, 6, 31, 165, 90, 153, 83, 90, 165, 3, 0.614234
266, 1, wb, filler, NA, 999, 999, 6, 32, 85, 195, 94, 102, 101, 107, 2, 0.779374
266, 1, wb, filler, NA, 999, 999, 6, 32, 85, 195, 94, 102, 101, 107, 1, 0.499102
266, 1, wb, attraction, a-b-db, 14, 2, 6, 33, 83, 153, 90, 165, 165, 90, 3, 0.908757
266, 1, wb, attraction, a-b-db, 14, 2, 6, 33, 83, 153, 90, 165, 165, 90, 2, 0.559242
266, 1, wb, attraction, a-b-da, 5, 3, 6, 34, 190, 117, 195, 120, 120, 195, 1, 1.7324
266, 1, wb, attraction, a-b-da, 5, 3, 6, 34, 190, 117, 195, 120, 120, 195, 3, 0.431751
266, 1, wb, filler, NA, 999, 999, 6, 35, 178, 61, 101, 80, 142, 87, 2, 1.1162
266, 1, wb, filler, NA, 999, 999, 6, 35, 178, 61, 101, 80, 142, 87, 1, 1.28644
266, 1, wb, attraction, a-b-db, 5, 3, 6, 36, 117, 190, 195, 120, 120, 195, 2, 0.536773
266, 1, wb, attraction, a-b-db, 5, 3, 6, 36, 117, 190, 195, 120, 120, 195, 3, 0.306442
266, 1, wb, attraction, a-b-db, 2, 2, 6, 37, 90, 165, 89, 163, 165, 90, 1, 0.644252
266, 1, wb, attraction, a-b-db, 2, 2, 6, 37, 90, 165, 89, 163, 165, 90, 3, 0.665396
266, 1, wb, attraction, a-b-db, 9, 3, 7, 1, 120, 195, 195, 120, 114, 186, 1, 0.564542
266, 1, wb, attraction, a-b-db, 9, 3, 7, 1, 120, 195, 195, 120, 114, 186, 3, 0.565008
266, 1, wb, attraction, a-b-da, 14, 1, 7, 2, 135, 60, 125, 56, 60, 135, 1, 0.428118
266, 1, wb, attraction, a-b-da, 14, 1, 7, 2, 135, 60, 125, 56, 60, 135, 3, 0.642048
266, 1, wb, filler, NA, 999, 999, 7, 3, 113, 161, 181, 95, 189, 91, 1, 0.333791
266, 1, wb, filler, NA, 999, 999, 7, 3, 113, 161, 181, 95, 189, 91, 3, 0.703532
266, 1, wb, filler, NA, 999, 999, 7, 4, 73, 112, 191, 78, 186, 186, 1, 0.825192
266, 1, wb, filler, NA, 999, 999, 7, 4, 73, 112, 191, 78, 186, 186, 3, 0.47106
266, 1, wb, filler, NA, 999, 999, 7, 5, 171, 151, 148, 72, 96, 107, 3, 0.538075
266, 1, wb, filler, NA, 999, 999, 7, 5, 171, 151, 148, 72, 96, 107, 1, 0.347292
266, 1, wb, attraction, a-b-db, 9, 1, 7, 6, 135, 60, 60, 135, 57, 129, 3, 1.16306
266, 1, wb, attraction, a-b-db, 9, 1, 7, 6, 135, 60, 60, 135, 57, 129, 1, 1.45137
266, 1, wb, attraction, a-b-db, 14, 1, 7, 7, 135, 60, 56, 125, 60, 135, 3, 1.17483
266, 1, wb, attraction, a-b-db, 14, 1, 7, 7, 135, 60, 56, 125, 60, 135, 1, 0.558395
266, 1, wb, attraction, a-b-da, 5, 2, 7, 8, 90, 165, 165, 90, 161, 88, 2, 0.677431
266, 1, wb, attraction, a-b-da, 5, 2, 7, 8, 90, 165, 165, 90, 161, 88, 1, 0.689273
266, 1, wb, attraction, a-b-da, 2, 3, 7, 9, 193, 119, 195, 120, 120, 195, 2, 1.23576
266, 1, wb, attraction, a-b-da, 2, 3, 7, 9, 193, 119, 195, 120, 120, 195, 3, 0.727653
266, 1, wb, attraction, a-b-da, 9, 3, 7, 10, 186, 114, 195, 120, 120, 195, 1, 0.433553
266, 1, wb, attraction, a-b-da, 9, 3, 7, 10, 186, 114, 195, 120, 120, 195, 2, 0.583421
266, 1, wb, attraction, a-b-da, 9, 2, 7, 11, 90, 165, 157, 86, 165, 90, 1, 0.485984
266, 1, wb, attraction, a-b-da, 9, 2, 7, 11, 90, 165, 157, 86, 165, 90, 3, 0.4019
266, 1, wb, attraction, a-b-db, 2, 2, 7, 12, 165, 90, 90, 165, 89, 163, 2, 0.639538
266, 1, wb, attraction, a-b-db, 2, 2, 7, 12, 165, 90, 90, 165, 89, 163, 1, 0.428698
266, 1, wb, filler, NA, 999, 999, 7, 13, 140, 127, 157, 121, 118, 85, 3, 0.68907
266, 1, wb, filler, NA, 999, 999, 7, 13, 140, 127, 157, 121, 118, 85, 2, 0.412456
266, 1, wb, attraction, a-b-db, 5, 2, 7, 14, 165, 90, 90, 165, 88, 161, 3, 0.817549
266, 1, wb, attraction, a-b-db, 5, 2, 7, 14, 165, 90, 90, 165, 88, 161, 2, 1.12774
266, 1, wb, attraction, a-b-db, 14, 2, 7, 15, 165, 90, 90, 165, 83, 153, 3, 0.952016
266, 1, wb, attraction, a-b-db, 14, 2, 7, 15, 165, 90, 90, 165, 83, 153, 2, 0.737072
266, 1, wb, attraction, a-b-db, 14, 3, 7, 16, 195, 120, 120, 195, 111, 181, 3, 0.385425
266, 1, wb, attraction, a-b-db, 14, 3, 7, 16, 195, 120, 120, 195, 111, 181, 1, 0.825271
266, 1, wb, attraction, a-b-da, 14, 3, 7, 17, 120, 195, 195, 120, 181, 111, 3, 0.477671
266, 1, wb, attraction, a-b-da, 14, 3, 7, 17, 120, 195, 195, 120, 181, 111, 2, 0.505408
266, 1, wb, filler, NA, 999, 999, 7, 18, 98, 88, 159, 172, 104, 156, 1, 0.811171
266, 1, wb, filler, NA, 999, 999, 7, 18, 98, 88, 159, 172, 104, 156, 2, 0.377565
266, 1, wb, catch, NA, 999, 999, 7, 19, 122, 73, 129, 186, 137, 118, 1, 0.464105
266, 1, wb, catch, NA, 999, 999, 7, 19, 122, 73, 129, 186, 137, 118, 2, 1.17259
266, 1, wb, attraction, a-b-db, 5, 3, 7, 20, 195, 120, 117, 190, 120, 195, 1, 0.843438
266, 1, wb, attraction, a-b-db, 5, 3, 7, 20, 195, 120, 117, 190, 120, 195, 2, 0.352465
266, 1, wb, attraction, a-b-da, 5, 1, 7, 21, 60, 135, 132, 58, 135, 60, 1, 0.968443
266, 1, wb, attraction, a-b-da, 5, 1, 7, 21, 60, 135, 132, 58, 135, 60, 3, 1.17685
266, 1, wb, filler, NA, 999, 999, 7, 22, 58, 151, 122, 188, 93, 109, 1, 1.59094
266, 1, wb, filler, NA, 999, 999, 7, 22, 58, 151, 122, 188, 93, 109, 2, 0.357752
266, 1, wb, attraction, a-b-db, 2, 3, 7, 23, 119, 193, 195, 120, 120, 195, 1, 0.612962
266, 1, wb, attraction, a-b-db, 2, 3, 7, 23, 119, 193, 195, 120, 120, 195, 3, 0.37148
266, 1, wb, filler, NA, 999, 999, 7, 24, 151, 96, 83, 195, 146, 118, 1, 0.410602
266, 1, wb, filler, NA, 999, 999, 7, 24, 151, 96, 83, 195, 146, 118, 2, 0.313061
266, 1, wb, filler, NA, 999, 999, 7, 25, 79, 101, 167, 100, 187, 143, 1, 0.458155
266, 1, wb, filler, NA, 999, 999, 7, 25, 79, 101, 167, 100, 187, 143, 3, 0.606645
266, 1, wb, catch, NA, 999, 999, 7, 26, 190, 125, 135, 120, 66, 129, 3, 0.691792
266, 1, wb, catch, NA, 999, 999, 7, 26, 190, 125, 135, 120, 66, 129, 1, 0.630887
266, 1, wb, catch, NA, 999, 999, 7, 27, 130, 185, 118, 137, 131, 64, 3, 0.499313
266, 1, wb, catch, NA, 999, 999, 7, 27, 130, 185, 118, 137, 131, 64, 1, 0.750401
266, 1, wb, attraction, a-b-da, 2, 2, 7, 28, 165, 90, 90, 165, 163, 89, 3, 0.470109
266, 1, wb, attraction, a-b-da, 2, 2, 7, 28, 165, 90, 90, 165, 163, 89, 1, 0.634602
266, 1, wb, attraction, a-b-da, 14, 2, 7, 29, 153, 83, 90, 165, 165, 90, 3, 0.439045
266, 1, wb, attraction, a-b-da, 14, 2, 7, 29, 153, 83, 90, 165, 165, 90, 1, 0.612159
266, 1, wb, attraction, a-b-db, 2, 1, 7, 30, 59, 134, 135, 60, 60, 135, 3, 0.545445
266, 1, wb, attraction, a-b-db, 2, 1, 7, 30, 59, 134, 135, 60, 60, 135, 2, 0.649204
266, 1, wb, attraction, a-b-da, 5, 3, 7, 31, 120, 195, 195, 120, 190, 117, 3, 0.358163
266, 1, wb, attraction, a-b-da, 5, 3, 7, 31, 120, 195, 195, 120, 190, 117, 1, 0.534832
266, 1, wb, filler, NA, 999, 999, 7, 32, 138, 105, 191, 87, 61, 63, 3, 0.495265
266, 1, wb, filler, NA, 999, 999, 7, 32, 138, 105, 191, 87, 61, 63, 1, 0.426312
266, 1, wb, filler, NA, 999, 999, 7, 33, 93, 93, 152, 191, 70, 110, 1, 1.19875
266, 1, wb, filler, NA, 999, 999, 7, 33, 93, 93, 152, 191, 70, 110, 2, 0.405678
266, 1, wb, attraction, a-b-da, 2, 1, 7, 34, 60, 135, 134, 59, 135, 60, 1, 0.955472
266, 1, wb, attraction, a-b-da, 2, 1, 7, 34, 60, 135, 134, 59, 135, 60, 2, 0.611842
266, 1, wb, attraction, a-b-da, 9, 1, 7, 35, 135, 60, 60, 135, 129, 57, 3, 1.74501
266, 1, wb, attraction, a-b-da, 9, 1, 7, 35, 135, 60, 60, 135, 129, 57, 1, 0.633686
266, 1, wb, attraction, a-b-db, 9, 2, 7, 36, 165, 90, 86, 157, 90, 165, 3, 0.526132
266, 1, wb, attraction, a-b-db, 9, 2, 7, 36, 165, 90, 86, 157, 90, 165, 1, 0.63199
266, 1, wb, attraction, a-b-db, 5, 1, 7, 37, 58, 132, 60, 135, 135, 60, 3, 0.676385
266, 1, wb, attraction, a-b-db, 5, 1, 7, 37, 58, 132, 60, 135, 135, 60, 2, 0.672185
266, 1, wb, attraction, a-b-da, 2, 1, 8, 1, 135, 60, 134, 59, 60, 135, 1, 0.707086
266, 1, wb, attraction, a-b-da, 2, 1, 8, 1, 135, 60, 134, 59, 60, 135, 3, 0.35758
266, 1, wb, filler, NA, 999, 999, 8, 2, 96, 163, 109, 147, 117, 173, 1, 0.356712
266, 1, wb, filler, NA, 999, 999, 8, 2, 96, 163, 109, 147, 117, 173, 2, 0.405202
266, 1, wb, filler, NA, 999, 999, 8, 3, 132, 191, 193, 188, 118, 174, 1, 0.611078
266, 1, wb, filler, NA, 999, 999, 8, 3, 132, 191, 193, 188, 118, 174, 2, 0.497519
266, 1, wb, attraction, a-b-db, 14, 1, 8, 4, 56, 125, 60, 135, 135, 60, 1, 0.595397
266, 1, wb, attraction, a-b-db, 14, 1, 8, 4, 56, 125, 60, 135, 135, 60, 3, 0.690438
266, 1, wb, filler, NA, 999, 999, 8, 5, 170, 75, 104, 60, 189, 108, 2, 1.18819
266, 1, wb, filler, NA, 999, 999, 8, 5, 170, 75, 104, 60, 189, 108, 3, 0.363898
266, 1, wb, attraction, a-b-da, 14, 3, 8, 6, 195, 120, 120, 195, 181, 111, 3, 0.986937
266, 1, wb, attraction, a-b-da, 14, 3, 8, 6, 195, 120, 120, 195, 181, 111, 1, 0.890622
266, 1, wb, attraction, a-b-da, 9, 1, 8, 7, 60, 135, 135, 60, 129, 57, 2, 0.980261
266, 1, wb, attraction, a-b-da, 9, 1, 8, 7, 60, 135, 135, 60, 129, 57, 3, 0.667915
266, 1, wb, attraction, a-b-da, 9, 3, 8, 8, 195, 120, 120, 195, 186, 114, 3, 0.926995
266, 1, wb, attraction, a-b-da, 9, 3, 8, 8, 195, 120, 120, 195, 186, 114, 1, 0.432618
266, 1, wb, filler, NA, 999, 999, 8, 9, 81, 170, 75, 178, 125, 83, 3, 0.677293
266, 1, wb, filler, NA, 999, 999, 8, 9, 81, 170, 75, 178, 125, 83, 1, 0.42501
266, 1, wb, catch, NA, 999, 999, 8, 10, 140, 115, 85, 110, 182, 133, 2, 0.99741
266, 1, wb, catch, NA, 999, 999, 8, 10, 140, 115, 85, 110, 182, 133, 3, 0.372469
266, 1, wb, attraction, a-b-db, 14, 2, 8, 11, 83, 153, 165, 90, 90, 165, 1, 1.06754
266, 1, wb, attraction, a-b-db, 14, 2, 8, 11, 83, 153, 165, 90, 90, 165, 3, 0.391801
266, 1, wb, attraction, a-b-db, 2, 2, 8, 12, 89, 163, 90, 165, 165, 90, 3, 1.10966
266, 1, wb, attraction, a-b-db, 2, 2, 8, 12, 89, 163, 90, 165, 165, 90, 1, 0.431938
266, 1, wb, filler, NA, 999, 999, 8, 13, 172, 115, 180, 163, 101, 62, 3, 0.452434
266, 1, wb, filler, NA, 999, 999, 8, 13, 172, 115, 180, 163, 101, 62, 2, 0.39377
266, 1, wb, attraction, a-b-db, 9, 3, 8, 14, 195, 120, 114, 186, 120, 195, 2, 1.11955
266, 1, wb, attraction, a-b-db, 9, 3, 8, 14, 195, 120, 114, 186, 120, 195, 3, 0.353747
266, 1, wb, attraction, a-b-da, 5, 2, 8, 15, 90, 165, 161, 88, 165, 90, 3, 0.546204
266, 1, wb, attraction, a-b-da, 5, 2, 8, 15, 90, 165, 161, 88, 165, 90, 1, 0.506698
266, 1, wb, filler, NA, 999, 999, 8, 16, 57, 153, 75, 111, 86, 69, 3, 0.675787
266, 1, wb, filler, NA, 999, 999, 8, 16, 57, 153, 75, 111, 86, 69, 1, 0.343471
266, 1, wb, attraction, a-b-db, 9, 2, 8, 17, 165, 90, 86, 157, 90, 165, 2, 0.951385
266, 1, wb, attraction, a-b-db, 9, 2, 8, 17, 165, 90, 86, 157, 90, 165, 1, 0.752354
266, 1, wb, attraction, a-b-db, 5, 1, 8, 18, 60, 135, 58, 132, 135, 60, 2, 0.576015
266, 1, wb, attraction, a-b-db, 5, 1, 8, 18, 60, 135, 58, 132, 135, 60, 1, 1.16791
266, 1, wb, catch, NA, 999, 999, 8, 19, 160, 95, 134, 61, 179, 136, 2, 0.74279
266, 1, wb, catch, NA, 999, 999, 8, 19, 160, 95, 134, 61, 179, 136, 3, 0.407862
266, 1, wb, attraction, a-b-db, 5, 3, 8, 20, 195, 120, 120, 195, 117, 190, 1, 0.925065
266, 1, wb, attraction, a-b-db, 5, 3, 8, 20, 195, 120, 120, 195, 117, 190, 2, 0.702732
266, 1, wb, attraction, a-b-da, 5, 3, 8, 21, 120, 195, 190, 117, 195, 120, 2, 0.608447
266, 1, wb, attraction, a-b-da, 5, 3, 8, 21, 120, 195, 190, 117, 195, 120, 3, 0.287001
266, 1, wb, catch, NA, 999, 999, 8, 22, 167, 148, 97, 158, 100, 95, 3, 0.82542
266, 1, wb, catch, NA, 999, 999, 8, 22, 167, 148, 97, 158, 100, 95, 1, 0.423087
266, 1, wb, filler, NA, 999, 999, 8, 23, 143, 104, 144, 194, 117, 150, 3, 0.963634
266, 1, wb, filler, NA, 999, 999, 8, 23, 143, 104, 144, 194, 117, 150, 2, 0.715952
266, 1, wb, attraction, a-b-db, 9, 1, 8, 24, 57, 129, 60, 135, 135, 60, 1, 1.05318
266, 1, wb, attraction, a-b-db, 9, 1, 8, 24, 57, 129, 60, 135, 135, 60, 3, 1.37798
266, 1, wb, filler, NA, 999, 999, 8, 25, 105, 109, 68, 117, 132, 160, 2, 0.840212
266, 1, wb, filler, NA, 999, 999, 8, 25, 105, 109, 68, 117, 132, 160, 3, 0.453206
266, 1, wb, filler, NA, 999, 999, 8, 26, 59, 185, 138, 169, 86, 153, 3, 1.98501
266, 1, wb, filler, NA, 999, 999, 8, 26, 59, 185, 138, 169, 86, 153, 2, 0.536344
266, 1, wb, attraction, a-b-da, 9, 2, 8, 27, 90, 165, 165, 90, 157, 86, 3, 0.792782
266, 1, wb, attraction, a-b-da, 9, 2, 8, 27, 90, 165, 165, 90, 157, 86, 1, 0.551776
266, 1, wb, attraction, a-b-da, 5, 1, 8, 28, 60, 135, 132, 58, 135, 60, 2, 1.03444
266, 1, wb, attraction, a-b-da, 5, 1, 8, 28, 60, 135, 132, 58, 135, 60, 3, 0.548735
266, 1, wb, attraction, a-b-db, 5, 2, 8, 29, 90, 165, 88, 161, 165, 90, 2, 0.79638
266, 1, wb, attraction, a-b-db, 5, 2, 8, 29, 90, 165, 88, 161, 165, 90, 3, 0.763448
266, 1, wb, attraction, a-b-da, 14, 2, 8, 30, 153, 83, 165, 90, 90, 165, 2, 0.506487
266, 1, wb, attraction, a-b-da, 14, 2, 8, 30, 153, 83, 165, 90, 90, 165, 3, 0.572877
266, 1, wb, attraction, a-b-db, 14, 3, 8, 31, 111, 181, 195, 120, 120, 195, 2, 0.379983
266, 1, wb, attraction, a-b-db, 14, 3, 8, 31, 111, 181, 195, 120, 120, 195, 3, 0.315916
266, 1, wb, attraction, a-b-da, 2, 3, 8, 32, 193, 119, 120, 195, 195, 120, 2, 0.485165
266, 1, wb, attraction, a-b-da, 2, 3, 8, 32, 193, 119, 120, 195, 195, 120, 3, 0.817029
266, 1, wb, filler, NA, 999, 999, 8, 33, 151, 64, 195, 76, 59, 181, 3, 2.49387
266, 1, wb, filler, NA, 999, 999, 8, 33, 151, 64, 195, 76, 59, 181, 2, 0.560413
266, 1, wb, attraction, a-b-db, 2, 1, 8, 34, 60, 135, 135, 60, 59, 134, 3, 0.799542
266, 1, wb, attraction, a-b-db, 2, 1, 8, 34, 60, 135, 135, 60, 59, 134, 2, 0.670593
266, 1, wb, attraction, a-b-db, 2, 3, 8, 35, 119, 193, 120, 195, 195, 120, 3, 0.633615
266, 1, wb, attraction, a-b-db, 2, 3, 8, 35, 119, 193, 120, 195, 195, 120, 2, 0.615361
266, 1, wb, attraction, a-b-da, 2, 2, 8, 36, 163, 89, 90, 165, 165, 90, 1, 0.700626
266, 1, wb, attraction, a-b-da, 2, 2, 8, 36, 163, 89, 90, 165, 165, 90, 3, 0.463616
266, 1, wb, attraction, a-b-da, 14, 1, 8, 37, 135, 60, 60, 135, 125, 56, 1, 0.570807
266, 1, wb, attraction, a-b-da, 14, 1, 8, 37, 135, 60, 60, 135, 125, 56, 3, 0.506614
