sub_n, computer_n, bw_cond, effect, set, distance, diag, block_n, trial_n, h1, w1, h2, w2, h3, w3, choice, rt 
224, 1, wb, practice, NA, 999, 999, 0, 1, 97, 166, 147, 121, 59, 167, 3, 6.59862
224, 1, wb, practice, NA, 999, 999, 0, 1, 97, 166, 147, 121, 59, 167, 1, 4.72597
224, 1, wb, practice, NA, 999, 999, 0, 2, 86, 103, 119, 79, 121, 182, 2, 5.63345
224, 1, wb, practice, NA, 999, 999, 0, 2, 86, 103, 119, 79, 121, 182, 3, 1.51774
224, 1, wb, practice, NA, 999, 999, 0, 3, 153, 71, 145, 187, 85, 140, 1, 10.9065
224, 1, wb, practice, NA, 999, 999, 0, 3, 153, 71, 145, 187, 85, 140, 2, 2.37112
224, 1, wb, attraction, a-b-db, 9, 1, 1, 1, 57, 129, 135, 60, 60, 135, 2, 19.6121
224, 1, wb, attraction, a-b-db, 9, 1, 1, 1, 57, 129, 135, 60, 60, 135, 3, 1.43667
224, 1, wb, catch, NA, 999, 999, 1, 2, 106, 89, 163, 92, 177, 138, 2, 4.92872
224, 1, wb, catch, NA, 999, 999, 1, 2, 106, 89, 163, 92, 177, 138, 3, 0.697198
224, 1, wb, filler, NA, 999, 999, 1, 3, 104, 156, 175, 119, 146, 123, 1, 4.35487
224, 1, wb, filler, NA, 999, 999, 1, 3, 104, 156, 175, 119, 146, 123, 2, 0.970965
224, 1, wb, filler, NA, 999, 999, 1, 4, 138, 180, 57, 163, 62, 108, 3, 1.84179
224, 1, wb, filler, NA, 999, 999, 1, 4, 138, 180, 57, 163, 62, 108, 2, 1.87859
224, 1, wb, filler, NA, 999, 999, 1, 5, 123, 121, 66, 141, 195, 114, 2, 1.673
224, 1, wb, filler, NA, 999, 999, 1, 5, 123, 121, 66, 141, 195, 114, 3, 0.940102
224, 1, wb, attraction, a-b-db, 5, 3, 1, 6, 117, 190, 120, 195, 195, 120, 3, 3.74038
224, 1, wb, attraction, a-b-db, 5, 3, 1, 6, 117, 190, 120, 195, 195, 120, 2, 2.64465
224, 1, wb, attraction, a-b-db, 2, 2, 1, 7, 90, 165, 89, 163, 165, 90, 2, 4.1996
224, 1, wb, attraction, a-b-db, 2, 2, 1, 7, 90, 165, 89, 163, 165, 90, 1, 1.3256
224, 1, wb, attraction, a-b-da, 9, 1, 1, 8, 60, 135, 129, 57, 135, 60, 2, 3.2458
224, 1, wb, attraction, a-b-da, 9, 1, 1, 8, 60, 135, 129, 57, 135, 60, 1, 0.530181
224, 1, wb, attraction, a-b-db, 14, 2, 1, 9, 83, 153, 165, 90, 90, 165, 2, 5.29846
224, 1, wb, attraction, a-b-db, 14, 2, 1, 9, 83, 153, 165, 90, 90, 165, 3, 0.572218
224, 1, wb, filler, NA, 999, 999, 1, 10, 186, 189, 105, 174, 140, 70, 3, 1.65122
224, 1, wb, filler, NA, 999, 999, 1, 10, 186, 189, 105, 174, 140, 70, 2, 0.73609
224, 1, wb, attraction, a-b-da, 14, 1, 1, 11, 125, 56, 60, 135, 135, 60, 1, 6.13654
224, 1, wb, attraction, a-b-da, 14, 1, 1, 11, 125, 56, 60, 135, 135, 60, 2, 0.408431
224, 1, wb, filler, NA, 999, 999, 1, 12, 163, 59, 180, 93, 97, 158, 1, 2.56558
224, 1, wb, filler, NA, 999, 999, 1, 12, 163, 59, 180, 93, 97, 158, 2, 1.63752
224, 1, wb, attraction, a-b-da, 5, 1, 1, 13, 132, 58, 60, 135, 135, 60, 1, 1.83359
224, 1, wb, attraction, a-b-da, 5, 1, 1, 13, 132, 58, 60, 135, 135, 60, 2, 0.846974
224, 1, wb, attraction, a-b-db, 9, 3, 1, 14, 114, 186, 120, 195, 195, 120, 1, 2.19469
224, 1, wb, attraction, a-b-db, 9, 3, 1, 14, 114, 186, 120, 195, 195, 120, 3, 0.873314
224, 1, wb, attraction, a-b-db, 5, 2, 1, 15, 88, 161, 165, 90, 90, 165, 2, 0.836257
224, 1, wb, attraction, a-b-db, 5, 2, 1, 15, 88, 161, 165, 90, 90, 165, 3, 0.417978
224, 1, wb, attraction, a-b-da, 5, 3, 1, 16, 190, 117, 195, 120, 120, 195, 1, 4.19924
224, 1, wb, attraction, a-b-da, 5, 3, 1, 16, 190, 117, 195, 120, 120, 195, 3, 0.477142
224, 1, wb, attraction, a-b-db, 2, 1, 1, 17, 60, 135, 59, 134, 135, 60, 2, 3.9516
224, 1, wb, attraction, a-b-db, 2, 1, 1, 17, 60, 135, 59, 134, 135, 60, 1, 0.751595
224, 1, wb, attraction, a-b-da, 2, 3, 1, 18, 120, 195, 193, 119, 195, 120, 2, 1.66338
224, 1, wb, attraction, a-b-da, 2, 3, 1, 18, 120, 195, 193, 119, 195, 120, 1, 0.41955
224, 1, wb, filler, NA, 999, 999, 1, 19, 128, 74, 144, 182, 109, 102, 2, 0.448604
224, 1, wb, filler, NA, 999, 999, 1, 19, 128, 74, 144, 182, 109, 102, 1, 1.34188
224, 1, wb, catch, NA, 999, 999, 1, 20, 129, 186, 137, 118, 63, 132, 3, 1.29335
224, 1, wb, catch, NA, 999, 999, 1, 20, 129, 186, 137, 118, 63, 132, 1, 1.10429
224, 1, wb, attraction, a-b-da, 9, 2, 1, 21, 157, 86, 165, 90, 90, 165, 1, 1.18589
224, 1, wb, attraction, a-b-da, 9, 2, 1, 21, 157, 86, 165, 90, 90, 165, 3, 0.689422
224, 1, wb, attraction, a-b-da, 14, 2, 1, 22, 153, 83, 165, 90, 90, 165, 1, 1.41975
224, 1, wb, attraction, a-b-da, 14, 2, 1, 22, 153, 83, 165, 90, 90, 165, 3, 0.945959
224, 1, wb, attraction, a-b-db, 9, 2, 1, 23, 165, 90, 86, 157, 90, 165, 2, 2.14576
224, 1, wb, attraction, a-b-db, 9, 2, 1, 23, 165, 90, 86, 157, 90, 165, 1, 0.506445
224, 1, wb, attraction, a-b-db, 14, 1, 1, 24, 135, 60, 60, 135, 56, 125, 3, 1.2041
224, 1, wb, attraction, a-b-db, 14, 1, 1, 24, 135, 60, 60, 135, 56, 125, 1, 0.659086
224, 1, wb, attraction, a-b-da, 2, 2, 1, 25, 165, 90, 90, 165, 163, 89, 3, 1.04614
224, 1, wb, attraction, a-b-da, 2, 2, 1, 25, 165, 90, 90, 165, 163, 89, 2, 0.795104
224, 1, wb, attraction, a-b-da, 14, 3, 1, 26, 181, 111, 195, 120, 120, 195, 1, 2.49677
224, 1, wb, attraction, a-b-da, 14, 3, 1, 26, 181, 111, 195, 120, 120, 195, 3, 0.467315
224, 1, wb, catch, NA, 999, 999, 1, 27, 102, 93, 150, 165, 147, 108, 1, 0.822488
224, 1, wb, catch, NA, 999, 999, 1, 27, 102, 93, 150, 165, 147, 108, 2, 1.77219
224, 1, wb, filler, NA, 999, 999, 1, 28, 93, 135, 58, 101, 92, 115, 2, 2.04299
224, 1, wb, filler, NA, 999, 999, 1, 28, 93, 135, 58, 101, 92, 115, 1, 0.471487
224, 1, wb, attraction, a-b-da, 5, 2, 1, 29, 161, 88, 90, 165, 165, 90, 1, 2.85061
224, 1, wb, attraction, a-b-da, 5, 2, 1, 29, 161, 88, 90, 165, 165, 90, 2, 0.367026
224, 1, wb, filler, NA, 999, 999, 1, 30, 162, 73, 115, 191, 136, 99, 3, 1.87034
224, 1, wb, filler, NA, 999, 999, 1, 30, 162, 73, 115, 191, 136, 99, 1, 0.506479
224, 1, wb, attraction, a-b-db, 5, 1, 1, 31, 135, 60, 60, 135, 58, 132, 1, 1.18009
224, 1, wb, attraction, a-b-db, 5, 1, 1, 31, 135, 60, 60, 135, 58, 132, 2, 0.64375
224, 1, wb, attraction, a-b-da, 9, 3, 1, 32, 195, 120, 186, 114, 120, 195, 1, 2.1675
224, 1, wb, attraction, a-b-da, 9, 3, 1, 32, 195, 120, 186, 114, 120, 195, 3, 0.719347
224, 1, wb, attraction, a-b-da, 2, 1, 1, 33, 60, 135, 134, 59, 135, 60, 3, 2.48855
224, 1, wb, attraction, a-b-da, 2, 1, 1, 33, 60, 135, 134, 59, 135, 60, 1, 0.674999
224, 1, wb, filler, NA, 999, 999, 1, 34, 102, 79, 116, 68, 168, 86, 1, 2.55744
224, 1, wb, filler, NA, 999, 999, 1, 34, 102, 79, 116, 68, 168, 86, 3, 0.445337
224, 1, wb, attraction, a-b-db, 14, 3, 1, 35, 120, 195, 195, 120, 111, 181, 2, 1.60099
224, 1, wb, attraction, a-b-db, 14, 3, 1, 35, 120, 195, 195, 120, 111, 181, 1, 0.423819
224, 1, wb, attraction, a-b-db, 2, 3, 1, 36, 120, 195, 195, 120, 119, 193, 3, 1.1963
224, 1, wb, attraction, a-b-db, 2, 3, 1, 36, 120, 195, 195, 120, 119, 193, 1, 0.347209
224, 1, wb, filler, NA, 999, 999, 1, 37, 83, 178, 123, 157, 124, 148, 1, 0.810957
224, 1, wb, filler, NA, 999, 999, 1, 37, 83, 178, 123, 157, 124, 148, 2, 0.305528
224, 1, wb, attraction, a-b-db, 9, 3, 2, 1, 195, 120, 114, 186, 120, 195, 3, 0.819331
224, 1, wb, attraction, a-b-db, 9, 3, 2, 1, 195, 120, 114, 186, 120, 195, 1, 0.753667
224, 1, wb, filler, NA, 999, 999, 2, 2, 169, 179, 113, 82, 120, 175, 2, 1.11333
224, 1, wb, filler, NA, 999, 999, 2, 2, 169, 179, 113, 82, 120, 175, 3, 0.355681
224, 1, wb, filler, NA, 999, 999, 2, 3, 109, 100, 64, 97, 172, 172, 2, 0.907499
224, 1, wb, filler, NA, 999, 999, 2, 3, 109, 100, 64, 97, 172, 172, 3, 0.581833
224, 1, wb, attraction, a-b-da, 14, 1, 2, 4, 135, 60, 125, 56, 60, 135, 2, 5.00442
224, 1, wb, attraction, a-b-da, 14, 1, 2, 4, 135, 60, 125, 56, 60, 135, 1, 1.09812
224, 1, wb, attraction, a-b-db, 5, 2, 2, 5, 90, 165, 165, 90, 88, 161, 2, 1.37966
224, 1, wb, attraction, a-b-db, 5, 2, 2, 5, 90, 165, 165, 90, 88, 161, 3, 0.419156
224, 1, wb, attraction, a-b-db, 5, 3, 2, 6, 120, 195, 195, 120, 117, 190, 2, 2.09652
224, 1, wb, attraction, a-b-db, 5, 3, 2, 6, 120, 195, 195, 120, 117, 190, 3, 0.426981
224, 1, wb, filler, NA, 999, 999, 2, 7, 190, 88, 90, 74, 148, 96, 2, 1.18346
224, 1, wb, filler, NA, 999, 999, 2, 7, 190, 88, 90, 74, 148, 96, 1, 1.18307
224, 1, wb, attraction, a-b-da, 14, 2, 2, 8, 153, 83, 90, 165, 165, 90, 1, 2.03726
224, 1, wb, attraction, a-b-da, 14, 2, 2, 8, 153, 83, 90, 165, 165, 90, 2, 0.554658
224, 1, wb, attraction, a-b-db, 5, 1, 2, 9, 60, 135, 58, 132, 135, 60, 2, 2.09034
224, 1, wb, attraction, a-b-db, 5, 1, 2, 9, 60, 135, 58, 132, 135, 60, 1, 0.428989
224, 1, wb, attraction, a-b-db, 9, 1, 2, 10, 135, 60, 60, 135, 57, 129, 2, 3.41749
224, 1, wb, attraction, a-b-db, 9, 1, 2, 10, 135, 60, 60, 135, 57, 129, 1, 0.157376
224, 1, wb, attraction, a-b-db, 9, 2, 2, 11, 90, 165, 86, 157, 165, 90, 2, 1.07844
224, 1, wb, attraction, a-b-db, 9, 2, 2, 11, 90, 165, 86, 157, 165, 90, 3, 1.52201
224, 1, wb, attraction, a-b-da, 5, 1, 2, 12, 135, 60, 132, 58, 60, 135, 3, 1.15483
224, 1, wb, attraction, a-b-da, 5, 1, 2, 12, 135, 60, 132, 58, 60, 135, 2, 0.74719
224, 1, wb, filler, NA, 999, 999, 2, 13, 75, 97, 68, 182, 108, 183, 1, 0.874691
224, 1, wb, filler, NA, 999, 999, 2, 13, 75, 97, 68, 182, 108, 183, 2, 0.630429
224, 1, wb, filler, NA, 999, 999, 2, 14, 92, 194, 191, 183, 183, 85, 3, 1.52291
224, 1, wb, filler, NA, 999, 999, 2, 14, 92, 194, 191, 183, 183, 85, 1, 0.77235
224, 1, wb, attraction, a-b-db, 2, 3, 2, 15, 120, 195, 119, 193, 195, 120, 1, 2.12339
224, 1, wb, attraction, a-b-db, 2, 3, 2, 15, 120, 195, 119, 193, 195, 120, 2, 1.57276
224, 1, wb, catch, NA, 999, 999, 2, 16, 132, 63, 124, 131, 139, 176, 1, 1.90744
224, 1, wb, catch, NA, 999, 999, 2, 16, 132, 63, 124, 131, 139, 176, 3, 0.965538
224, 1, wb, attraction, a-b-db, 14, 1, 2, 17, 60, 135, 135, 60, 56, 125, 2, 2.96462
224, 1, wb, attraction, a-b-db, 14, 1, 2, 17, 60, 135, 135, 60, 56, 125, 3, 0.340213
224, 1, wb, attraction, a-b-db, 14, 2, 2, 18, 165, 90, 83, 153, 90, 165, 2, 1.03604
224, 1, wb, attraction, a-b-db, 14, 2, 2, 18, 165, 90, 83, 153, 90, 165, 1, 0.473778
224, 1, wb, attraction, a-b-da, 9, 3, 2, 19, 186, 114, 120, 195, 195, 120, 1, 1.0441
224, 1, wb, attraction, a-b-da, 9, 3, 2, 19, 186, 114, 120, 195, 195, 120, 2, 0.345197
224, 1, wb, attraction, a-b-db, 2, 1, 2, 20, 59, 134, 135, 60, 60, 135, 1, 0.681055
224, 1, wb, attraction, a-b-db, 2, 1, 2, 20, 59, 134, 135, 60, 60, 135, 2, 0.5408
224, 1, wb, filler, NA, 999, 999, 2, 21, 63, 127, 125, 92, 167, 143, 1, 0.540458
224, 1, wb, filler, NA, 999, 999, 2, 21, 63, 127, 125, 92, 167, 143, 3, 0.541679
224, 1, wb, attraction, a-b-da, 2, 1, 2, 22, 134, 59, 135, 60, 60, 135, 1, 1.1254
224, 1, wb, attraction, a-b-da, 2, 1, 2, 22, 134, 59, 135, 60, 60, 135, 3, 0.519107
224, 1, wb, attraction, a-b-db, 14, 3, 2, 23, 195, 120, 120, 195, 111, 181, 1, 0.840118
224, 1, wb, attraction, a-b-db, 14, 3, 2, 23, 195, 120, 120, 195, 111, 181, 3, 1.00511
224, 1, wb, attraction, a-b-da, 9, 2, 2, 24, 165, 90, 90, 165, 157, 86, 1, 1.05883
224, 1, wb, attraction, a-b-da, 9, 2, 2, 24, 165, 90, 90, 165, 157, 86, 2, 0.391172
224, 1, wb, catch, NA, 999, 999, 2, 25, 168, 147, 131, 124, 100, 95, 3, 1.01292
224, 1, wb, catch, NA, 999, 999, 2, 25, 168, 147, 131, 124, 100, 95, 2, 0.387225
224, 1, wb, filler, NA, 999, 999, 2, 26, 91, 124, 115, 126, 170, 181, 1, 0.889717
224, 1, wb, filler, NA, 999, 999, 2, 26, 91, 124, 115, 126, 170, 181, 3, 0.756747
224, 1, wb, attraction, a-b-da, 14, 3, 2, 27, 181, 111, 195, 120, 120, 195, 1, 1.13973
224, 1, wb, attraction, a-b-da, 14, 3, 2, 27, 181, 111, 195, 120, 120, 195, 3, 0.388731
224, 1, wb, attraction, a-b-da, 2, 3, 2, 28, 120, 195, 195, 120, 193, 119, 3, 1.25924
224, 1, wb, attraction, a-b-da, 2, 3, 2, 28, 120, 195, 195, 120, 193, 119, 2, 0.383602
224, 1, wb, attraction, a-b-da, 2, 2, 2, 29, 163, 89, 90, 165, 165, 90, 1, 1.07798
224, 1, wb, attraction, a-b-da, 2, 2, 2, 29, 163, 89, 90, 165, 165, 90, 3, 0.673699
224, 1, wb, attraction, a-b-da, 5, 2, 2, 30, 161, 88, 90, 165, 165, 90, 1, 1.01201
224, 1, wb, attraction, a-b-da, 5, 2, 2, 30, 161, 88, 90, 165, 165, 90, 3, 0.458341
224, 1, wb, catch, NA, 999, 999, 2, 31, 158, 157, 121, 134, 60, 135, 3, 1.07747
224, 1, wb, catch, NA, 999, 999, 2, 31, 158, 157, 121, 134, 60, 135, 1, 0.441166
224, 1, wb, filler, NA, 999, 999, 2, 32, 153, 91, 118, 185, 164, 164, 1, 1.46262
224, 1, wb, filler, NA, 999, 999, 2, 32, 153, 91, 118, 185, 164, 164, 2, 0.76906
224, 1, wb, attraction, a-b-da, 5, 3, 2, 33, 120, 195, 190, 117, 195, 120, 2, 2.48809
224, 1, wb, attraction, a-b-da, 5, 3, 2, 33, 120, 195, 190, 117, 195, 120, 1, 0.37936
224, 1, wb, attraction, a-b-da, 9, 1, 2, 34, 60, 135, 135, 60, 129, 57, 3, 1.85778
224, 1, wb, attraction, a-b-da, 9, 1, 2, 34, 60, 135, 135, 60, 129, 57, 1, 0.773885
224, 1, wb, filler, NA, 999, 999, 2, 35, 113, 150, 142, 108, 69, 134, 3, 1.66031
224, 1, wb, filler, NA, 999, 999, 2, 35, 113, 150, 142, 108, 69, 134, 1, 0.440435
224, 1, wb, attraction, a-b-db, 2, 2, 2, 36, 89, 163, 165, 90, 90, 165, 3, 1.26825
224, 1, wb, attraction, a-b-db, 2, 2, 2, 36, 89, 163, 165, 90, 90, 165, 2, 0.520516
224, 1, wb, filler, NA, 999, 999, 2, 37, 84, 89, 133, 168, 145, 82, 1, 0.665456
224, 1, wb, filler, NA, 999, 999, 2, 37, 84, 89, 133, 168, 145, 82, 2, 0.453995
224, 1, wb, attraction, a-b-db, 9, 1, 3, 1, 57, 129, 60, 135, 135, 60, 3, 1.51389
224, 1, wb, attraction, a-b-db, 9, 1, 3, 1, 57, 129, 60, 135, 135, 60, 2, 0.547961
224, 1, wb, filler, NA, 999, 999, 3, 2, 120, 165, 135, 63, 153, 121, 2, 0.79567
224, 1, wb, filler, NA, 999, 999, 3, 2, 120, 165, 135, 63, 153, 121, 3, 0.642901
224, 1, wb, attraction, a-b-db, 14, 1, 3, 3, 135, 60, 56, 125, 60, 135, 1, 0.90254
224, 1, wb, attraction, a-b-db, 14, 1, 3, 3, 135, 60, 56, 125, 60, 135, 2, 0.417486
224, 1, wb, filler, NA, 999, 999, 3, 4, 57, 168, 71, 162, 60, 90, 1, 1.01464
224, 1, wb, filler, NA, 999, 999, 3, 4, 57, 168, 71, 162, 60, 90, 2, 0.83698
224, 1, wb, attraction, a-b-db, 9, 2, 3, 5, 90, 165, 165, 90, 86, 157, 1, 0.873291
224, 1, wb, attraction, a-b-db, 9, 2, 3, 5, 90, 165, 165, 90, 86, 157, 2, 0.540988
224, 1, wb, attraction, a-b-db, 5, 1, 3, 6, 58, 132, 60, 135, 135, 60, 1, 0.764773
224, 1, wb, attraction, a-b-db, 5, 1, 3, 6, 58, 132, 60, 135, 135, 60, 3, 0.477217
224, 1, wb, filler, NA, 999, 999, 3, 7, 163, 190, 109, 108, 177, 81, 2, 1.51969
224, 1, wb, filler, NA, 999, 999, 3, 7, 163, 190, 109, 108, 177, 81, 1, 0.561793
224, 1, wb, attraction, a-b-db, 2, 3, 3, 8, 119, 193, 195, 120, 120, 195, 1, 1.36898
224, 1, wb, attraction, a-b-db, 2, 3, 3, 8, 119, 193, 195, 120, 120, 195, 2, 0.385078
224, 1, wb, attraction, a-b-da, 14, 2, 3, 9, 90, 165, 153, 83, 165, 90, 3, 1.68762
224, 1, wb, attraction, a-b-da, 14, 2, 3, 9, 90, 165, 153, 83, 165, 90, 2, 0.867069
224, 1, wb, catch, NA, 999, 999, 3, 10, 154, 161, 62, 133, 147, 108, 2, 0.878114
224, 1, wb, catch, NA, 999, 999, 3, 10, 154, 161, 62, 133, 147, 108, 1, 0.345812
224, 1, wb, attraction, a-b-db, 2, 2, 3, 11, 90, 165, 165, 90, 89, 163, 1, 1.33768
224, 1, wb, attraction, a-b-db, 2, 2, 3, 11, 90, 165, 165, 90, 89, 163, 2, 0.95458
224, 1, wb, attraction, a-b-da, 2, 1, 3, 12, 134, 59, 135, 60, 60, 135, 1, 2.31421
224, 1, wb, attraction, a-b-da, 2, 1, 3, 12, 134, 59, 135, 60, 60, 135, 3, 0.611999
224, 1, wb, attraction, a-b-db, 14, 3, 3, 13, 111, 181, 120, 195, 195, 120, 1, 2.24914
224, 1, wb, attraction, a-b-db, 14, 3, 3, 13, 111, 181, 120, 195, 195, 120, 2, 1.41389
224, 1, wb, filler, NA, 999, 999, 3, 14, 96, 157, 170, 152, 103, 146, 1, 1.1626
224, 1, wb, filler, NA, 999, 999, 3, 14, 96, 157, 170, 152, 103, 146, 2, 1.04288
224, 1, wb, attraction, a-b-da, 2, 3, 3, 15, 120, 195, 195, 120, 193, 119, 2, 3.2225
224, 1, wb, attraction, a-b-da, 2, 3, 3, 15, 120, 195, 195, 120, 193, 119, 1, 0.867434
224, 1, wb, filler, NA, 999, 999, 3, 16, 71, 171, 174, 88, 94, 194, 1, 2.06249
224, 1, wb, filler, NA, 999, 999, 3, 16, 71, 171, 174, 88, 94, 194, 3, 0.938383
224, 1, wb, filler, NA, 999, 999, 3, 17, 172, 172, 144, 94, 87, 113, 3, 1.77072
224, 1, wb, filler, NA, 999, 999, 3, 17, 172, 172, 144, 94, 87, 113, 1, 0.706969
224, 1, wb, attraction, a-b-da, 9, 3, 3, 18, 195, 120, 186, 114, 120, 195, 3, 4.87585
224, 1, wb, attraction, a-b-da, 9, 3, 3, 18, 195, 120, 186, 114, 120, 195, 2, 0.654319
224, 1, wb, filler, NA, 999, 999, 3, 19, 87, 122, 108, 153, 60, 188, 2, 0.714059
224, 1, wb, filler, NA, 999, 999, 3, 19, 87, 122, 108, 153, 60, 188, 3, 0.532463
224, 1, wb, attraction, a-b-da, 2, 2, 3, 20, 165, 90, 90, 165, 163, 89, 2, 0.964934
224, 1, wb, attraction, a-b-da, 2, 2, 3, 20, 165, 90, 90, 165, 163, 89, 1, 0.445308
224, 1, wb, attraction, a-b-db, 2, 1, 3, 21, 59, 134, 60, 135, 135, 60, 2, 0.713049
224, 1, wb, attraction, a-b-db, 2, 1, 3, 21, 59, 134, 60, 135, 135, 60, 3, 0.547516
224, 1, wb, attraction, a-b-da, 14, 1, 3, 22, 125, 56, 135, 60, 60, 135, 1, 0.595249
224, 1, wb, attraction, a-b-da, 14, 1, 3, 22, 125, 56, 135, 60, 60, 135, 2, 0.466354
224, 1, wb, catch, NA, 999, 999, 3, 23, 156, 159, 150, 105, 79, 116, 1, 0.517524
224, 1, wb, catch, NA, 999, 999, 3, 23, 156, 159, 150, 105, 79, 116, 3, 1.14408
224, 1, wb, attraction, a-b-db, 9, 3, 3, 24, 120, 195, 114, 186, 195, 120, 2, 0.551573
224, 1, wb, attraction, a-b-db, 9, 3, 3, 24, 120, 195, 114, 186, 195, 120, 3, 0.464733
224, 1, wb, attraction, a-b-da, 14, 3, 3, 25, 181, 111, 120, 195, 195, 120, 1, 1.32382
224, 1, wb, attraction, a-b-da, 14, 3, 3, 25, 181, 111, 120, 195, 195, 120, 2, 0.437449
224, 1, wb, attraction, a-b-da, 5, 3, 3, 26, 190, 117, 195, 120, 120, 195, 1, 0.689856
224, 1, wb, attraction, a-b-da, 5, 3, 3, 26, 190, 117, 195, 120, 120, 195, 2, 0.420914
224, 1, wb, attraction, a-b-da, 5, 2, 3, 27, 165, 90, 90, 165, 161, 88, 1, 0.546096
224, 1, wb, attraction, a-b-da, 5, 2, 3, 27, 165, 90, 90, 165, 161, 88, 2, 0.371373
224, 1, wb, attraction, a-b-da, 9, 2, 3, 28, 165, 90, 90, 165, 157, 86, 3, 2.3384
224, 1, wb, attraction, a-b-da, 9, 2, 3, 28, 165, 90, 90, 165, 157, 86, 1, 0.499647
224, 1, wb, attraction, a-b-da, 5, 1, 3, 29, 60, 135, 135, 60, 132, 58, 3, 1.30139
224, 1, wb, attraction, a-b-da, 5, 1, 3, 29, 60, 135, 135, 60, 132, 58, 2, 0.592293
224, 1, wb, attraction, a-b-db, 5, 2, 3, 30, 90, 165, 165, 90, 88, 161, 2, 3.66209
224, 1, wb, attraction, a-b-db, 5, 2, 3, 30, 90, 165, 165, 90, 88, 161, 1, 0.353529
224, 1, wb, filler, NA, 999, 999, 3, 31, 106, 151, 59, 101, 117, 126, 2, 1.20147
224, 1, wb, filler, NA, 999, 999, 3, 31, 106, 151, 59, 101, 117, 126, 1, 1.20829
224, 1, wb, attraction, a-b-db, 5, 3, 3, 32, 117, 190, 120, 195, 195, 120, 2, 4.25331
224, 1, wb, attraction, a-b-db, 5, 3, 3, 32, 117, 190, 120, 195, 195, 120, 3, 0.761247
224, 1, wb, attraction, a-b-da, 9, 1, 3, 33, 60, 135, 135, 60, 129, 57, 3, 3.87226
224, 1, wb, attraction, a-b-da, 9, 1, 3, 33, 60, 135, 135, 60, 129, 57, 2, 0.467002
224, 1, wb, catch, NA, 999, 999, 3, 34, 127, 188, 90, 105, 151, 104, 1, 2.79818
224, 1, wb, catch, NA, 999, 999, 3, 34, 127, 188, 90, 105, 151, 104, 2, 0.660703
224, 1, wb, filler, NA, 999, 999, 3, 35, 98, 67, 130, 124, 143, 173, 1, 1.44779
224, 1, wb, filler, NA, 999, 999, 3, 35, 98, 67, 130, 124, 143, 173, 3, 0.43659
224, 1, wb, filler, NA, 999, 999, 3, 36, 130, 165, 171, 112, 66, 155, 3, 1.36096
224, 1, wb, filler, NA, 999, 999, 3, 36, 130, 165, 171, 112, 66, 155, 2, 0.537337
224, 1, wb, attraction, a-b-db, 14, 2, 3, 37, 83, 153, 165, 90, 90, 165, 1, 1.17769
224, 1, wb, attraction, a-b-db, 14, 2, 3, 37, 83, 153, 165, 90, 90, 165, 2, 0.521256
224, 1, wb, attraction, a-b-da, 9, 2, 4, 1, 90, 165, 157, 86, 165, 90, 2, 1.87434
224, 1, wb, attraction, a-b-da, 9, 2, 4, 1, 90, 165, 157, 86, 165, 90, 1, 0.581789
224, 1, wb, attraction, a-b-db, 9, 2, 4, 2, 165, 90, 90, 165, 86, 157, 1, 1.33219
224, 1, wb, attraction, a-b-db, 9, 2, 4, 2, 165, 90, 90, 165, 86, 157, 2, 0.813735
224, 1, wb, attraction, a-b-db, 2, 2, 4, 3, 89, 163, 90, 165, 165, 90, 3, 1.29875
224, 1, wb, attraction, a-b-db, 2, 2, 4, 3, 89, 163, 90, 165, 165, 90, 2, 0.501642
224, 1, wb, filler, NA, 999, 999, 4, 4, 179, 161, 194, 137, 57, 149, 3, 1.01543
224, 1, wb, filler, NA, 999, 999, 4, 4, 179, 161, 194, 137, 57, 149, 2, 0.389808
224, 1, wb, attraction, a-b-da, 14, 3, 4, 5, 195, 120, 120, 195, 181, 111, 3, 0.819558
224, 1, wb, attraction, a-b-da, 14, 3, 4, 5, 195, 120, 120, 195, 181, 111, 2, 0.402099
224, 1, wb, filler, NA, 999, 999, 4, 6, 171, 109, 83, 81, 147, 187, 1, 0.775766
224, 1, wb, filler, NA, 999, 999, 4, 6, 171, 109, 83, 81, 147, 187, 2, 0.647549
224, 1, wb, filler, NA, 999, 999, 4, 7, 158, 141, 98, 186, 142, 161, 2, 1.06731
224, 1, wb, filler, NA, 999, 999, 4, 7, 158, 141, 98, 186, 142, 161, 1, 0.463551
224, 1, wb, filler, NA, 999, 999, 4, 8, 191, 74, 71, 90, 98, 87, 3, 1.00262
224, 1, wb, filler, NA, 999, 999, 4, 8, 191, 74, 71, 90, 98, 87, 2, 0.369637
224, 1, wb, catch, NA, 999, 999, 4, 9, 139, 176, 115, 140, 134, 61, 3, 1.72882
224, 1, wb, catch, NA, 999, 999, 4, 9, 139, 176, 115, 140, 134, 61, 1, 0.482306
224, 1, wb, attraction, a-b-da, 5, 1, 4, 10, 135, 60, 132, 58, 60, 135, 1, 1.42072
224, 1, wb, attraction, a-b-da, 5, 1, 4, 10, 135, 60, 132, 58, 60, 135, 3, 0.474946
224, 1, wb, filler, NA, 999, 999, 4, 11, 99, 143, 125, 174, 108, 107, 3, 1.76533
224, 1, wb, filler, NA, 999, 999, 4, 11, 99, 143, 125, 174, 108, 107, 1, 0.733423
224, 1, wb, attraction, a-b-da, 9, 1, 4, 12, 60, 135, 129, 57, 135, 60, 3, 1.56584
224, 1, wb, attraction, a-b-da, 9, 1, 4, 12, 60, 135, 129, 57, 135, 60, 1, 1.1341
224, 1, wb, attraction, a-b-db, 9, 3, 4, 13, 120, 195, 114, 186, 195, 120, 2, 1.29425
224, 1, wb, attraction, a-b-db, 9, 3, 4, 13, 120, 195, 114, 186, 195, 120, 3, 0.313119
224, 1, wb, filler, NA, 999, 999, 4, 14, 103, 90, 89, 187, 170, 155, 1, 0.834357
224, 1, wb, filler, NA, 999, 999, 4, 14, 103, 90, 89, 187, 170, 155, 3, 0.808001
224, 1, wb, attraction, a-b-db, 5, 2, 4, 15, 90, 165, 88, 161, 165, 90, 3, 1.82098
224, 1, wb, attraction, a-b-db, 5, 2, 4, 15, 90, 165, 88, 161, 165, 90, 1, 0.443195
224, 1, wb, attraction, a-b-db, 2, 3, 4, 16, 195, 120, 120, 195, 119, 193, 1, 1.13495
224, 1, wb, attraction, a-b-db, 2, 3, 4, 16, 195, 120, 120, 195, 119, 193, 2, 0.488548
224, 1, wb, attraction, a-b-db, 5, 3, 4, 17, 120, 195, 117, 190, 195, 120, 3, 1.05901
224, 1, wb, attraction, a-b-db, 5, 3, 4, 17, 120, 195, 117, 190, 195, 120, 1, 0.42337
224, 1, wb, attraction, a-b-da, 2, 2, 4, 18, 90, 165, 163, 89, 165, 90, 3, 1.0198
224, 1, wb, attraction, a-b-da, 2, 2, 4, 18, 90, 165, 163, 89, 165, 90, 1, 0.370132
224, 1, wb, catch, NA, 999, 999, 4, 19, 160, 95, 173, 142, 119, 76, 3, 0.93738
224, 1, wb, catch, NA, 999, 999, 4, 19, 160, 95, 173, 142, 119, 76, 2, 1.14693
224, 1, wb, catch, NA, 999, 999, 4, 20, 130, 65, 148, 107, 189, 126, 1, 0.930543
224, 1, wb, catch, NA, 999, 999, 4, 20, 130, 65, 148, 107, 189, 126, 3, 0.964281
224, 1, wb, filler, NA, 999, 999, 4, 21, 64, 80, 112, 159, 146, 71, 1, 0.843191
224, 1, wb, filler, NA, 999, 999, 4, 21, 64, 80, 112, 159, 146, 71, 2, 0.600225
224, 1, wb, attraction, a-b-db, 9, 1, 4, 22, 135, 60, 57, 129, 60, 135, 1, 2.40606
224, 1, wb, attraction, a-b-db, 9, 1, 4, 22, 135, 60, 57, 129, 60, 135, 3, 0.691955
224, 1, wb, attraction, a-b-db, 5, 1, 4, 23, 60, 135, 135, 60, 58, 132, 2, 2.14158
224, 1, wb, attraction, a-b-db, 5, 1, 4, 23, 60, 135, 135, 60, 58, 132, 1, 0.718276
224, 1, wb, attraction, a-b-da, 5, 2, 4, 24, 165, 90, 161, 88, 90, 165, 2, 1.66323
224, 1, wb, attraction, a-b-da, 5, 2, 4, 24, 165, 90, 161, 88, 90, 165, 3, 0.643567
224, 1, wb, attraction, a-b-da, 2, 1, 4, 25, 60, 135, 135, 60, 134, 59, 2, 1.39127
224, 1, wb, attraction, a-b-da, 2, 1, 4, 25, 60, 135, 135, 60, 134, 59, 1, 0.574005
224, 1, wb, attraction, a-b-da, 5, 3, 4, 26, 195, 120, 120, 195, 190, 117, 1, 3.75647
224, 1, wb, attraction, a-b-da, 5, 3, 4, 26, 195, 120, 120, 195, 190, 117, 2, 0.547878
224, 1, wb, attraction, a-b-db, 2, 1, 4, 27, 59, 134, 135, 60, 60, 135, 2, 4.08373
224, 1, wb, attraction, a-b-db, 2, 1, 4, 27, 59, 134, 135, 60, 60, 135, 3, 1.17448
224, 1, wb, filler, NA, 999, 999, 4, 28, 164, 114, 56, 170, 102, 174, 2, 1.20464
224, 1, wb, filler, NA, 999, 999, 4, 28, 164, 114, 56, 170, 102, 174, 1, 0.755708
224, 1, wb, attraction, a-b-da, 14, 1, 4, 29, 60, 135, 125, 56, 135, 60, 2, 2.25941
224, 1, wb, attraction, a-b-da, 14, 1, 4, 29, 60, 135, 125, 56, 135, 60, 1, 0.503269
224, 1, wb, attraction, a-b-db, 14, 1, 4, 30, 135, 60, 60, 135, 56, 125, 3, 4.92095
224, 1, wb, attraction, a-b-db, 14, 1, 4, 30, 135, 60, 60, 135, 56, 125, 1, 0.97815
224, 1, wb, attraction, a-b-da, 2, 3, 4, 31, 193, 119, 195, 120, 120, 195, 1, 6.59246
224, 1, wb, attraction, a-b-da, 2, 3, 4, 31, 193, 119, 195, 120, 120, 195, 3, 0.821751
224, 1, wb, attraction, a-b-da, 9, 3, 4, 32, 195, 120, 120, 195, 186, 114, 1, 1.8987
224, 1, wb, attraction, a-b-da, 9, 3, 4, 32, 195, 120, 120, 195, 186, 114, 2, 0.429417
224, 1, wb, attraction, a-b-db, 14, 2, 4, 33, 90, 165, 83, 153, 165, 90, 2, 1.88997
224, 1, wb, attraction, a-b-db, 14, 2, 4, 33, 90, 165, 83, 153, 165, 90, 1, 0.452559
224, 1, wb, attraction, a-b-da, 14, 2, 4, 34, 165, 90, 153, 83, 90, 165, 2, 1.31239
224, 1, wb, attraction, a-b-da, 14, 2, 4, 34, 165, 90, 153, 83, 90, 165, 3, 0.354651
224, 1, wb, filler, NA, 999, 999, 4, 35, 71, 181, 59, 78, 63, 156, 2, 2.3065
224, 1, wb, filler, NA, 999, 999, 4, 35, 71, 181, 59, 78, 63, 156, 1, 0.788345
224, 1, wb, attraction, a-b-db, 14, 3, 4, 36, 195, 120, 111, 181, 120, 195, 2, 1.46669
224, 1, wb, attraction, a-b-db, 14, 3, 4, 36, 195, 120, 111, 181, 120, 195, 1, 1.15091
224, 1, wb, filler, NA, 999, 999, 4, 37, 131, 193, 186, 157, 148, 56, 3, 0.95049
224, 1, wb, filler, NA, 999, 999, 4, 37, 131, 193, 186, 157, 148, 56, 1, 0.919507
224, 1, wb, filler, NA, 999, 999, 5, 1, 89, 174, 91, 145, 122, 82, 3, 2.83105
224, 1, wb, filler, NA, 999, 999, 5, 1, 89, 174, 91, 145, 122, 82, 1, 0.548143
224, 1, wb, attraction, a-b-da, 2, 1, 5, 2, 135, 60, 60, 135, 134, 59, 3, 2.72392
224, 1, wb, attraction, a-b-da, 2, 1, 5, 2, 135, 60, 60, 135, 134, 59, 2, 0.957038
224, 1, wb, filler, NA, 999, 999, 5, 3, 98, 179, 69, 86, 116, 152, 2, 1.38819
224, 1, wb, filler, NA, 999, 999, 5, 3, 98, 179, 69, 86, 116, 152, 3, 0.506979
224, 1, wb, attraction, a-b-da, 2, 3, 5, 4, 195, 120, 120, 195, 193, 119, 1, 6.31609
224, 1, wb, attraction, a-b-da, 2, 3, 5, 4, 195, 120, 120, 195, 193, 119, 2, 0.4048
224, 1, wb, filler, NA, 999, 999, 5, 5, 118, 97, 126, 146, 90, 66, 3, 0.978523
224, 1, wb, filler, NA, 999, 999, 5, 5, 118, 97, 126, 146, 90, 66, 1, 0.394278
224, 1, wb, attraction, a-b-db, 2, 2, 5, 6, 165, 90, 90, 165, 89, 163, 3, 1.15999
224, 1, wb, attraction, a-b-db, 2, 2, 5, 6, 165, 90, 90, 165, 89, 163, 1, 0.536345
224, 1, wb, attraction, a-b-db, 5, 1, 5, 7, 60, 135, 58, 132, 135, 60, 1, 1.00078
224, 1, wb, attraction, a-b-db, 5, 1, 5, 7, 60, 135, 58, 132, 135, 60, 2, 0.2877
224, 1, wb, catch, NA, 999, 999, 5, 8, 195, 120, 130, 65, 92, 163, 2, 1.04223
224, 1, wb, catch, NA, 999, 999, 5, 8, 195, 120, 130, 65, 92, 163, 3, 0.471354
224, 1, wb, attraction, a-b-db, 14, 2, 5, 9, 90, 165, 83, 153, 165, 90, 1, 0.850352
224, 1, wb, attraction, a-b-db, 14, 2, 5, 9, 90, 165, 83, 153, 165, 90, 2, 0.279457
224, 1, wb, attraction, a-b-db, 9, 1, 5, 10, 57, 129, 60, 135, 135, 60, 1, 0.929927
224, 1, wb, attraction, a-b-db, 9, 1, 5, 10, 57, 129, 60, 135, 135, 60, 2, 0.347581
224, 1, wb, attraction, a-b-da, 5, 1, 5, 11, 60, 135, 135, 60, 132, 58, 1, 0.995428
224, 1, wb, attraction, a-b-da, 5, 1, 5, 11, 60, 135, 135, 60, 132, 58, 2, 0.378391
224, 1, wb, attraction, a-b-db, 5, 2, 5, 12, 165, 90, 90, 165, 88, 161, 1, 1.60893
224, 1, wb, attraction, a-b-db, 5, 2, 5, 12, 165, 90, 90, 165, 88, 161, 2, 0.454976
224, 1, wb, attraction, a-b-db, 2, 3, 5, 13, 119, 193, 195, 120, 120, 195, 1, 3.37101
224, 1, wb, attraction, a-b-db, 2, 3, 5, 13, 119, 193, 195, 120, 120, 195, 2, 0.354484
224, 1, wb, filler, NA, 999, 999, 5, 14, 91, 147, 176, 140, 162, 106, 1, 0.706278
224, 1, wb, filler, NA, 999, 999, 5, 14, 91, 147, 176, 140, 162, 106, 2, 0.348817
224, 1, wb, attraction, a-b-db, 14, 1, 5, 15, 135, 60, 60, 135, 56, 125, 1, 0.700513
224, 1, wb, attraction, a-b-db, 14, 1, 5, 15, 135, 60, 60, 135, 56, 125, 2, 0.375759
224, 1, wb, catch, NA, 999, 999, 5, 16, 193, 122, 119, 76, 90, 165, 1, 0.438002
224, 1, wb, catch, NA, 999, 999, 5, 16, 193, 122, 119, 76, 90, 165, 3, 0.36407
224, 1, wb, attraction, a-b-da, 2, 2, 5, 17, 90, 165, 165, 90, 163, 89, 2, 0.563102
224, 1, wb, attraction, a-b-da, 2, 2, 5, 17, 90, 165, 165, 90, 163, 89, 3, 0.323602
224, 1, wb, filler, NA, 999, 999, 5, 18, 123, 184, 149, 61, 81, 104, 2, 0.564092
224, 1, wb, filler, NA, 999, 999, 5, 18, 123, 184, 149, 61, 81, 104, 1, 0.708491
224, 1, wb, attraction, a-b-db, 14, 3, 5, 19, 111, 181, 120, 195, 195, 120, 1, 0.8135
224, 1, wb, attraction, a-b-db, 14, 3, 5, 19, 111, 181, 120, 195, 195, 120, 2, 1.05193
224, 1, wb, filler, NA, 999, 999, 5, 20, 71, 64, 147, 147, 91, 86, 1, 0.815579
224, 1, wb, filler, NA, 999, 999, 5, 20, 71, 64, 147, 147, 91, 86, 2, 0.541992
224, 1, wb, attraction, a-b-da, 9, 3, 5, 21, 120, 195, 186, 114, 195, 120, 1, 0.581709
224, 1, wb, attraction, a-b-da, 9, 3, 5, 21, 120, 195, 186, 114, 195, 120, 2, 0.89353
224, 1, wb, attraction, a-b-db, 9, 2, 5, 22, 86, 157, 90, 165, 165, 90, 1, 1.07117
224, 1, wb, attraction, a-b-db, 9, 2, 5, 22, 86, 157, 90, 165, 165, 90, 2, 1.48287
224, 1, wb, attraction, a-b-da, 9, 2, 5, 23, 165, 90, 157, 86, 90, 165, 1, 1.5971
224, 1, wb, attraction, a-b-da, 9, 2, 5, 23, 165, 90, 157, 86, 90, 165, 2, 0.387817
224, 1, wb, attraction, a-b-db, 9, 3, 5, 24, 195, 120, 120, 195, 114, 186, 1, 1.23421
224, 1, wb, attraction, a-b-db, 9, 3, 5, 24, 195, 120, 120, 195, 114, 186, 3, 0.439842
224, 1, wb, catch, NA, 999, 999, 5, 25, 164, 151, 95, 160, 118, 77, 3, 0.796388
224, 1, wb, catch, NA, 999, 999, 5, 25, 164, 151, 95, 160, 118, 77, 2, 0.395484
224, 1, wb, filler, NA, 999, 999, 5, 26, 193, 104, 99, 143, 163, 112, 2, 1.16929
224, 1, wb, filler, NA, 999, 999, 5, 26, 193, 104, 99, 143, 163, 112, 1, 0.489445
224, 1, wb, attraction, a-b-db, 5, 3, 5, 27, 117, 190, 195, 120, 120, 195, 3, 2.54801
224, 1, wb, attraction, a-b-db, 5, 3, 5, 27, 117, 190, 195, 120, 120, 195, 1, 0.524524
224, 1, wb, attraction, a-b-da, 14, 1, 5, 28, 135, 60, 125, 56, 60, 135, 1, 0.79692
224, 1, wb, attraction, a-b-da, 14, 1, 5, 28, 135, 60, 125, 56, 60, 135, 2, 0.590445
224, 1, wb, filler, NA, 999, 999, 5, 29, 68, 166, 99, 123, 66, 72, 3, 0.833743
224, 1, wb, filler, NA, 999, 999, 5, 29, 68, 166, 99, 123, 66, 72, 2, 0.951473
224, 1, wb, attraction, a-b-db, 2, 1, 5, 30, 60, 135, 135, 60, 59, 134, 2, 0.959098
224, 1, wb, attraction, a-b-db, 2, 1, 5, 30, 60, 135, 135, 60, 59, 134, 3, 0.46335
224, 1, wb, filler, NA, 999, 999, 5, 31, 136, 101, 164, 105, 147, 141, 1, 0.874547
224, 1, wb, filler, NA, 999, 999, 5, 31, 136, 101, 164, 105, 147, 141, 3, 0.686365
224, 1, wb, filler, NA, 999, 999, 5, 32, 139, 77, 130, 161, 187, 128, 1, 0.840695
224, 1, wb, filler, NA, 999, 999, 5, 32, 139, 77, 130, 161, 187, 128, 3, 0.773736
224, 1, wb, attraction, a-b-da, 9, 1, 5, 33, 60, 135, 135, 60, 129, 57, 1, 1.13202
224, 1, wb, attraction, a-b-da, 9, 1, 5, 33, 60, 135, 135, 60, 129, 57, 2, 0.38968
224, 1, wb, attraction, a-b-da, 14, 2, 5, 34, 153, 83, 165, 90, 90, 165, 2, 0.78812
224, 1, wb, attraction, a-b-da, 14, 2, 5, 34, 153, 83, 165, 90, 90, 165, 1, 0.547206
224, 1, wb, attraction, a-b-da, 5, 3, 5, 35, 120, 195, 195, 120, 190, 117, 3, 0.650965
224, 1, wb, attraction, a-b-da, 5, 3, 5, 35, 120, 195, 195, 120, 190, 117, 2, 0.424077
224, 1, wb, attraction, a-b-da, 14, 3, 5, 36, 181, 111, 195, 120, 120, 195, 3, 0.540477
224, 1, wb, attraction, a-b-da, 14, 3, 5, 36, 181, 111, 195, 120, 120, 195, 2, 0.493891
224, 1, wb, attraction, a-b-da, 5, 2, 5, 37, 165, 90, 90, 165, 161, 88, 1, 0.623442
224, 1, wb, attraction, a-b-da, 5, 2, 5, 37, 165, 90, 90, 165, 161, 88, 2, 0.885275
224, 1, wb, attraction, a-b-da, 5, 1, 6, 1, 135, 60, 60, 135, 132, 58, 2, 1.07958
224, 1, wb, attraction, a-b-da, 5, 1, 6, 1, 135, 60, 60, 135, 132, 58, 1, 0.739318
224, 1, wb, filler, NA, 999, 999, 6, 2, 68, 86, 171, 62, 149, 118, 1, 0.843604
224, 1, wb, filler, NA, 999, 999, 6, 2, 68, 86, 171, 62, 149, 118, 3, 0.656665
224, 1, wb, catch, NA, 999, 999, 6, 3, 146, 109, 122, 193, 75, 120, 3, 0.9724
224, 1, wb, catch, NA, 999, 999, 6, 3, 146, 109, 122, 193, 75, 120, 2, 0.468024
224, 1, wb, catch, NA, 999, 999, 6, 4, 158, 157, 103, 92, 101, 154, 2, 0.759246
224, 1, wb, catch, NA, 999, 999, 6, 4, 158, 157, 103, 92, 101, 154, 1, 1.07963
224, 1, wb, attraction, a-b-db, 2, 2, 6, 5, 89, 163, 165, 90, 90, 165, 2, 2.11393
224, 1, wb, attraction, a-b-db, 2, 2, 6, 5, 89, 163, 165, 90, 90, 165, 3, 0.859884
224, 1, wb, attraction, a-b-da, 2, 3, 6, 6, 120, 195, 195, 120, 193, 119, 2, 1.87096
224, 1, wb, attraction, a-b-da, 2, 3, 6, 6, 120, 195, 195, 120, 193, 119, 1, 0.914838
224, 1, wb, attraction, a-b-da, 5, 2, 6, 7, 90, 165, 161, 88, 165, 90, 2, 2.2119
224, 1, wb, attraction, a-b-da, 5, 2, 6, 7, 90, 165, 161, 88, 165, 90, 1, 0.449766
224, 1, wb, attraction, a-b-da, 9, 1, 6, 8, 129, 57, 135, 60, 60, 135, 1, 0.933639
224, 1, wb, attraction, a-b-da, 9, 1, 6, 8, 129, 57, 135, 60, 60, 135, 2, 0.391483
224, 1, wb, attraction, a-b-da, 2, 1, 6, 9, 134, 59, 60, 135, 135, 60, 1, 0.685156
224, 1, wb, attraction, a-b-da, 2, 1, 6, 9, 134, 59, 60, 135, 135, 60, 2, 0.417087
224, 1, wb, attraction, a-b-db, 14, 2, 6, 10, 83, 153, 90, 165, 165, 90, 3, 2.88606
224, 1, wb, attraction, a-b-db, 14, 2, 6, 10, 83, 153, 90, 165, 165, 90, 1, 0.913149
224, 1, wb, filler, NA, 999, 999, 6, 11, 82, 85, 84, 57, 176, 187, 2, 1.17017
224, 1, wb, filler, NA, 999, 999, 6, 11, 82, 85, 84, 57, 176, 187, 3, 0.330346
224, 1, wb, attraction, a-b-db, 5, 1, 6, 12, 58, 132, 135, 60, 60, 135, 2, 1.05087
224, 1, wb, attraction, a-b-db, 5, 1, 6, 12, 58, 132, 135, 60, 60, 135, 1, 0.63186
224, 1, wb, attraction, a-b-db, 2, 1, 6, 13, 59, 134, 135, 60, 60, 135, 2, 0.644418
224, 1, wb, attraction, a-b-db, 2, 1, 6, 13, 59, 134, 135, 60, 60, 135, 3, 0.337406
224, 1, wb, filler, NA, 999, 999, 6, 14, 91, 116, 138, 65, 132, 110, 2, 0.569875
224, 1, wb, filler, NA, 999, 999, 6, 14, 91, 116, 138, 65, 132, 110, 1, 0.33842
224, 1, wb, attraction, a-b-da, 14, 3, 6, 15, 195, 120, 181, 111, 120, 195, 2, 0.41891
224, 1, wb, attraction, a-b-da, 14, 3, 6, 15, 195, 120, 181, 111, 120, 195, 3, 0.273358
224, 1, wb, filler, NA, 999, 999, 6, 16, 79, 116, 129, 122, 94, 93, 1, 0.507839
224, 1, wb, filler, NA, 999, 999, 6, 16, 79, 116, 129, 122, 94, 93, 2, 0.302386
224, 1, wb, filler, NA, 999, 999, 6, 17, 117, 174, 56, 157, 188, 110, 2, 1.16029
224, 1, wb, filler, NA, 999, 999, 6, 17, 117, 174, 56, 157, 188, 110, 3, 0.440443
224, 1, wb, attraction, a-b-da, 14, 2, 6, 18, 153, 83, 165, 90, 90, 165, 1, 0.724222
224, 1, wb, attraction, a-b-da, 14, 2, 6, 18, 153, 83, 165, 90, 90, 165, 2, 0.381991
224, 1, wb, attraction, a-b-da, 5, 3, 6, 19, 195, 120, 120, 195, 190, 117, 3, 0.90848
224, 1, wb, attraction, a-b-da, 5, 3, 6, 19, 195, 120, 120, 195, 190, 117, 2, 0.350786
224, 1, wb, filler, NA, 999, 999, 6, 20, 159, 152, 195, 79, 180, 94, 2, 0.886655
224, 1, wb, filler, NA, 999, 999, 6, 20, 159, 152, 195, 79, 180, 94, 1, 0.354368
224, 1, wb, attraction, a-b-db, 14, 1, 6, 21, 56, 125, 60, 135, 135, 60, 1, 0.73835
224, 1, wb, attraction, a-b-db, 14, 1, 6, 21, 56, 125, 60, 135, 135, 60, 2, 0.499328
224, 1, wb, attraction, a-b-db, 9, 1, 6, 22, 60, 135, 57, 129, 135, 60, 2, 2.10906
224, 1, wb, attraction, a-b-db, 9, 1, 6, 22, 60, 135, 57, 129, 135, 60, 3, 0.44703
224, 1, wb, attraction, a-b-db, 9, 3, 6, 23, 120, 195, 114, 186, 195, 120, 2, 0.698855
224, 1, wb, attraction, a-b-db, 9, 3, 6, 23, 120, 195, 114, 186, 195, 120, 1, 0.485925
224, 1, wb, attraction, a-b-da, 9, 2, 6, 24, 165, 90, 157, 86, 90, 165, 1, 0.600336
224, 1, wb, attraction, a-b-da, 9, 2, 6, 24, 165, 90, 157, 86, 90, 165, 2, 0.399557
224, 1, wb, filler, NA, 999, 999, 6, 25, 126, 179, 82, 104, 62, 114, 3, 0.573395
224, 1, wb, filler, NA, 999, 999, 6, 25, 126, 179, 82, 104, 62, 114, 2, 0.389132
224, 1, wb, attraction, a-b-da, 14, 1, 6, 26, 60, 135, 135, 60, 125, 56, 2, 1.18775
224, 1, wb, attraction, a-b-da, 14, 1, 6, 26, 60, 135, 135, 60, 125, 56, 3, 0.427249
224, 1, wb, attraction, a-b-da, 9, 3, 6, 27, 120, 195, 195, 120, 186, 114, 2, 0.463822
224, 1, wb, attraction, a-b-da, 9, 3, 6, 27, 120, 195, 195, 120, 186, 114, 3, 0.380272
224, 1, wb, filler, NA, 999, 999, 6, 28, 95, 80, 116, 132, 73, 164, 2, 0.522653
224, 1, wb, filler, NA, 999, 999, 6, 28, 95, 80, 116, 132, 73, 164, 1, 0.524541
224, 1, wb, filler, NA, 999, 999, 6, 29, 173, 185, 123, 111, 149, 129, 2, 0.821002
224, 1, wb, filler, NA, 999, 999, 6, 29, 173, 185, 123, 111, 149, 129, 1, 0.473187
224, 1, wb, catch, NA, 999, 999, 6, 30, 113, 82, 151, 104, 136, 179, 2, 0.997271
224, 1, wb, catch, NA, 999, 999, 6, 30, 113, 82, 151, 104, 136, 179, 3, 0.348183
224, 1, wb, filler, NA, 999, 999, 6, 31, 162, 98, 62, 137, 99, 80, 2, 0.475918
224, 1, wb, filler, NA, 999, 999, 6, 31, 162, 98, 62, 137, 99, 80, 1, 0.399735
224, 1, wb, attraction, a-b-db, 9, 2, 6, 32, 165, 90, 90, 165, 86, 157, 2, 0.909594
224, 1, wb, attraction, a-b-db, 9, 2, 6, 32, 165, 90, 90, 165, 86, 157, 1, 0.840059
224, 1, wb, attraction, a-b-db, 14, 3, 6, 33, 111, 181, 195, 120, 120, 195, 1, 1.88357
224, 1, wb, attraction, a-b-db, 14, 3, 6, 33, 111, 181, 195, 120, 120, 195, 2, 0.502998
224, 1, wb, attraction, a-b-db, 2, 3, 6, 34, 195, 120, 119, 193, 120, 195, 3, 0.448875
224, 1, wb, attraction, a-b-db, 2, 3, 6, 34, 195, 120, 119, 193, 120, 195, 2, 0.502076
224, 1, wb, attraction, a-b-db, 5, 2, 6, 35, 90, 165, 88, 161, 165, 90, 2, 0.551668
224, 1, wb, attraction, a-b-db, 5, 2, 6, 35, 90, 165, 88, 161, 165, 90, 3, 0.432901
224, 1, wb, attraction, a-b-db, 5, 3, 6, 36, 117, 190, 195, 120, 120, 195, 2, 3.16542
224, 1, wb, attraction, a-b-db, 5, 3, 6, 36, 117, 190, 195, 120, 120, 195, 3, 0.381022
224, 1, wb, attraction, a-b-da, 2, 2, 6, 37, 90, 165, 163, 89, 165, 90, 1, 0.803492
224, 1, wb, attraction, a-b-da, 2, 2, 6, 37, 90, 165, 163, 89, 165, 90, 2, 0.474536
224, 1, wb, filler, NA, 999, 999, 7, 1, 160, 181, 149, 76, 184, 149, 2, 1.28502
224, 1, wb, filler, NA, 999, 999, 7, 1, 160, 181, 149, 76, 184, 149, 1, 0.336542
224, 1, wb, attraction, a-b-da, 14, 3, 7, 2, 181, 111, 120, 195, 195, 120, 1, 1.6972
224, 1, wb, attraction, a-b-da, 14, 3, 7, 2, 181, 111, 120, 195, 195, 120, 3, 0.771883
224, 1, wb, attraction, a-b-db, 14, 2, 7, 3, 165, 90, 90, 165, 83, 153, 3, 1.69899
224, 1, wb, attraction, a-b-db, 14, 2, 7, 3, 165, 90, 90, 165, 83, 153, 2, 0.405705
224, 1, wb, attraction, a-b-db, 9, 1, 7, 4, 60, 135, 135, 60, 57, 129, 2, 0.707487
224, 1, wb, attraction, a-b-db, 9, 1, 7, 4, 60, 135, 135, 60, 57, 129, 1, 0.461878
224, 1, wb, filler, NA, 999, 999, 7, 5, 115, 94, 155, 61, 166, 116, 1, 0.465055
224, 1, wb, filler, NA, 999, 999, 7, 5, 115, 94, 155, 61, 166, 116, 3, 0.525525
224, 1, wb, filler, NA, 999, 999, 7, 6, 85, 81, 63, 118, 79, 79, 2, 0.550032
224, 1, wb, filler, NA, 999, 999, 7, 6, 85, 81, 63, 118, 79, 79, 3, 0.951191
224, 1, wb, attraction, a-b-da, 5, 2, 7, 7, 90, 165, 165, 90, 161, 88, 2, 0.638859
224, 1, wb, attraction, a-b-da, 5, 2, 7, 7, 90, 165, 165, 90, 161, 88, 1, 0.435884
224, 1, wb, attraction, a-b-db, 14, 3, 7, 8, 111, 181, 195, 120, 120, 195, 2, 0.464365
224, 1, wb, attraction, a-b-db, 14, 3, 7, 8, 111, 181, 195, 120, 120, 195, 1, 0.349031
224, 1, wb, attraction, a-b-db, 5, 1, 7, 9, 58, 132, 135, 60, 60, 135, 3, 0.452612
224, 1, wb, attraction, a-b-db, 5, 1, 7, 9, 58, 132, 135, 60, 60, 135, 2, 0.313811
224, 1, wb, attraction, a-b-db, 5, 3, 7, 10, 120, 195, 195, 120, 117, 190, 3, 0.363062
224, 1, wb, attraction, a-b-db, 5, 3, 7, 10, 120, 195, 195, 120, 117, 190, 2, 0.307556
224, 1, wb, filler, NA, 999, 999, 7, 11, 173, 75, 169, 71, 121, 176, 1, 0.43671
224, 1, wb, filler, NA, 999, 999, 7, 11, 173, 75, 169, 71, 121, 176, 2, 0.298536
224, 1, wb, filler, NA, 999, 999, 7, 12, 156, 169, 81, 167, 146, 149, 1, 0.396451
224, 1, wb, filler, NA, 999, 999, 7, 12, 156, 169, 81, 167, 146, 149, 3, 0.307569
224, 1, wb, catch, NA, 999, 999, 7, 13, 180, 135, 143, 112, 83, 112, 2, 0.460794
224, 1, wb, catch, NA, 999, 999, 7, 13, 180, 135, 143, 112, 83, 112, 1, 0.305197
224, 1, wb, filler, NA, 999, 999, 7, 14, 188, 116, 91, 123, 140, 191, 2, 0.451077
224, 1, wb, filler, NA, 999, 999, 7, 14, 188, 116, 91, 123, 140, 191, 3, 0.264226
224, 1, wb, attraction, a-b-db, 5, 2, 7, 15, 165, 90, 88, 161, 90, 165, 1, 0.267446
224, 1, wb, attraction, a-b-db, 5, 2, 7, 15, 165, 90, 88, 161, 90, 165, 3, 0.488232
224, 1, wb, filler, NA, 999, 999, 7, 16, 170, 95, 133, 102, 155, 128, 2, 0.410452
224, 1, wb, filler, NA, 999, 999, 7, 16, 170, 95, 133, 102, 155, 128, 3, 0.776985
224, 1, wb, attraction, a-b-db, 9, 3, 7, 17, 120, 195, 114, 186, 195, 120, 2, 0.695462
224, 1, wb, attraction, a-b-db, 9, 3, 7, 17, 120, 195, 114, 186, 195, 120, 1, 0.410635
224, 1, wb, filler, NA, 999, 999, 7, 18, 190, 162, 92, 155, 156, 110, 2, 1.02367
224, 1, wb, filler, NA, 999, 999, 7, 18, 190, 162, 92, 155, 156, 110, 3, 0.405377
224, 1, wb, attraction, a-b-db, 9, 2, 7, 19, 90, 165, 86, 157, 165, 90, 1, 0.786979
224, 1, wb, attraction, a-b-db, 9, 2, 7, 19, 90, 165, 86, 157, 165, 90, 2, 0.482772
224, 1, wb, attraction, a-b-da, 9, 3, 7, 20, 195, 120, 186, 114, 120, 195, 1, 0.685234
224, 1, wb, attraction, a-b-da, 9, 3, 7, 20, 195, 120, 186, 114, 120, 195, 3, 0.457151
224, 1, wb, catch, NA, 999, 999, 7, 21, 175, 140, 60, 135, 154, 101, 3, 0.980166
224, 1, wb, catch, NA, 999, 999, 7, 21, 175, 140, 60, 135, 154, 101, 1, 0.475894
224, 1, wb, attraction, a-b-da, 5, 1, 7, 22, 60, 135, 135, 60, 132, 58, 2, 0.790283
224, 1, wb, attraction, a-b-da, 5, 1, 7, 22, 60, 135, 135, 60, 132, 58, 3, 0.381439
224, 1, wb, attraction, a-b-da, 9, 1, 7, 23, 135, 60, 129, 57, 60, 135, 2, 0.691861
224, 1, wb, attraction, a-b-da, 9, 1, 7, 23, 135, 60, 129, 57, 60, 135, 1, 0.334968
224, 1, wb, filler, NA, 999, 999, 7, 24, 172, 96, 108, 98, 75, 128, 2, 1.1514
224, 1, wb, filler, NA, 999, 999, 7, 24, 172, 96, 108, 98, 75, 128, 1, 0.304349
224, 1, wb, attraction, a-b-db, 14, 1, 7, 25, 56, 125, 135, 60, 60, 135, 2, 0.746251
224, 1, wb, attraction, a-b-db, 14, 1, 7, 25, 56, 125, 135, 60, 60, 135, 3, 0.339262
224, 1, wb, attraction, a-b-da, 14, 1, 7, 26, 60, 135, 135, 60, 125, 56, 3, 0.651819
224, 1, wb, attraction, a-b-da, 14, 1, 7, 26, 60, 135, 135, 60, 125, 56, 2, 0.360909
224, 1, wb, attraction, a-b-db, 2, 2, 7, 27, 90, 165, 89, 163, 165, 90, 1, 0.519947
224, 1, wb, attraction, a-b-db, 2, 2, 7, 27, 90, 165, 89, 163, 165, 90, 2, 0.3467
224, 1, wb, attraction, a-b-da, 2, 2, 7, 28, 163, 89, 90, 165, 165, 90, 1, 1.84245
224, 1, wb, attraction, a-b-da, 2, 2, 7, 28, 163, 89, 90, 165, 165, 90, 2, 0.479241
224, 1, wb, attraction, a-b-db, 2, 3, 7, 29, 195, 120, 120, 195, 119, 193, 1, 0.705571
224, 1, wb, attraction, a-b-db, 2, 3, 7, 29, 195, 120, 120, 195, 119, 193, 2, 0.404072
224, 1, wb, attraction, a-b-da, 14, 2, 7, 30, 153, 83, 165, 90, 90, 165, 1, 0.745705
224, 1, wb, attraction, a-b-da, 14, 2, 7, 30, 153, 83, 165, 90, 90, 165, 2, 0.466886
224, 1, wb, attraction, a-b-da, 2, 1, 7, 31, 135, 60, 134, 59, 60, 135, 3, 0.398019
224, 1, wb, attraction, a-b-da, 2, 1, 7, 31, 135, 60, 134, 59, 60, 135, 1, 1.06922
224, 1, wb, attraction, a-b-da, 2, 3, 7, 32, 120, 195, 195, 120, 193, 119, 2, 1.20812
224, 1, wb, attraction, a-b-da, 2, 3, 7, 32, 120, 195, 195, 120, 193, 119, 1, 0.358386
224, 1, wb, attraction, a-b-da, 9, 2, 7, 33, 165, 90, 90, 165, 157, 86, 2, 0.605479
224, 1, wb, attraction, a-b-da, 9, 2, 7, 33, 165, 90, 90, 165, 157, 86, 3, 0.323924
224, 1, wb, filler, NA, 999, 999, 7, 34, 64, 179, 78, 83, 178, 138, 1, 0.444431
224, 1, wb, filler, NA, 999, 999, 7, 34, 64, 179, 78, 83, 178, 138, 2, 0.785668
224, 1, wb, attraction, a-b-da, 5, 3, 7, 35, 195, 120, 120, 195, 190, 117, 1, 2.48799
224, 1, wb, attraction, a-b-da, 5, 3, 7, 35, 195, 120, 120, 195, 190, 117, 2, 0.531225
224, 1, wb, attraction, a-b-db, 2, 1, 7, 36, 59, 134, 60, 135, 135, 60, 2, 1.05965
224, 1, wb, attraction, a-b-db, 2, 1, 7, 36, 59, 134, 60, 135, 135, 60, 3, 0.447924
224, 1, wb, catch, NA, 999, 999, 7, 37, 104, 91, 180, 135, 144, 111, 1, 0.995731
224, 1, wb, catch, NA, 999, 999, 7, 37, 104, 91, 180, 135, 144, 111, 2, 0.354746
224, 1, wb, attraction, a-b-da, 9, 1, 8, 1, 135, 60, 129, 57, 60, 135, 2, 2.53064
224, 1, wb, attraction, a-b-da, 9, 1, 8, 1, 135, 60, 129, 57, 60, 135, 3, 0.387763
224, 1, wb, filler, NA, 999, 999, 8, 2, 71, 136, 145, 107, 178, 182, 1, 0.938231
224, 1, wb, filler, NA, 999, 999, 8, 2, 71, 136, 145, 107, 178, 182, 3, 0.395375
224, 1, wb, catch, NA, 999, 999, 8, 3, 136, 119, 108, 87, 134, 181, 2, 1.08119
224, 1, wb, catch, NA, 999, 999, 8, 3, 136, 119, 108, 87, 134, 181, 3, 1.85284
224, 1, wb, attraction, a-b-db, 5, 3, 8, 4, 117, 190, 120, 195, 195, 120, 2, 2.5601
224, 1, wb, attraction, a-b-db, 5, 3, 8, 4, 117, 190, 120, 195, 195, 120, 1, 0.607953
224, 1, wb, attraction, a-b-da, 5, 3, 8, 5, 120, 195, 195, 120, 190, 117, 2, 1.861
224, 1, wb, attraction, a-b-da, 5, 3, 8, 5, 120, 195, 195, 120, 190, 117, 3, 0.521279
224, 1, wb, attraction, a-b-db, 5, 1, 8, 6, 58, 132, 60, 135, 135, 60, 3, 1.58614
224, 1, wb, attraction, a-b-db, 5, 1, 8, 6, 58, 132, 60, 135, 135, 60, 2, 0.553658
224, 1, wb, attraction, a-b-da, 14, 1, 8, 7, 60, 135, 135, 60, 125, 56, 3, 1.17743
224, 1, wb, attraction, a-b-da, 14, 1, 8, 7, 60, 135, 135, 60, 125, 56, 1, 0.513044
224, 1, wb, attraction, a-b-da, 9, 3, 8, 8, 120, 195, 186, 114, 195, 120, 3, 2.00214
224, 1, wb, attraction, a-b-da, 9, 3, 8, 8, 120, 195, 186, 114, 195, 120, 2, 0.664767
224, 1, wb, attraction, a-b-db, 5, 2, 8, 9, 90, 165, 88, 161, 165, 90, 1, 1.164
224, 1, wb, attraction, a-b-db, 5, 2, 8, 9, 90, 165, 88, 161, 165, 90, 3, 0.836337
224, 1, wb, attraction, a-b-db, 14, 3, 8, 10, 111, 181, 195, 120, 120, 195, 1, 0.504501
224, 1, wb, attraction, a-b-db, 14, 3, 8, 10, 111, 181, 195, 120, 120, 195, 3, 1.53911
224, 1, wb, filler, NA, 999, 999, 8, 11, 142, 142, 101, 184, 89, 168, 3, 2.09109
224, 1, wb, filler, NA, 999, 999, 8, 11, 142, 142, 101, 184, 89, 168, 1, 0.557733
224, 1, wb, attraction, a-b-da, 5, 2, 8, 12, 165, 90, 90, 165, 161, 88, 3, 1.27687
224, 1, wb, attraction, a-b-da, 5, 2, 8, 12, 165, 90, 90, 165, 161, 88, 2, 2.19251
224, 1, wb, attraction, a-b-da, 14, 2, 8, 13, 165, 90, 90, 165, 153, 83, 3, 2.0538
224, 1, wb, attraction, a-b-da, 14, 2, 8, 13, 165, 90, 90, 165, 153, 83, 1, 1.03439
224, 1, wb, attraction, a-b-db, 2, 3, 8, 14, 120, 195, 119, 193, 195, 120, 2, 5.67884
224, 1, wb, attraction, a-b-db, 2, 3, 8, 14, 120, 195, 119, 193, 195, 120, 3, 1.05687
224, 1, wb, filler, NA, 999, 999, 8, 15, 121, 94, 106, 118, 121, 56, 3, 2.46791
224, 1, wb, filler, NA, 999, 999, 8, 15, 121, 94, 106, 118, 121, 56, 1, 1.07977
224, 1, wb, attraction, a-b-da, 2, 1, 8, 16, 134, 59, 135, 60, 60, 135, 1, 1.51401
224, 1, wb, attraction, a-b-da, 2, 1, 8, 16, 134, 59, 135, 60, 60, 135, 3, 0.540244
224, 1, wb, attraction, a-b-da, 14, 3, 8, 17, 181, 111, 120, 195, 195, 120, 1, 2.2603
224, 1, wb, attraction, a-b-da, 14, 3, 8, 17, 181, 111, 120, 195, 195, 120, 3, 0.951806
224, 1, wb, filler, NA, 999, 999, 8, 18, 68, 195, 189, 112, 80, 125, 3, 2.08743
224, 1, wb, filler, NA, 999, 999, 8, 18, 68, 195, 189, 112, 80, 125, 2, 0.626803
224, 1, wb, attraction, a-b-db, 14, 1, 8, 19, 135, 60, 56, 125, 60, 135, 2, 2.26331
224, 1, wb, attraction, a-b-db, 14, 1, 8, 19, 135, 60, 56, 125, 60, 135, 3, 0.651217
224, 1, wb, attraction, a-b-db, 14, 2, 8, 20, 83, 153, 165, 90, 90, 165, 1, 5.54288
224, 1, wb, attraction, a-b-db, 14, 2, 8, 20, 83, 153, 165, 90, 90, 165, 2, 0.750533
224, 1, wb, attraction, a-b-db, 9, 1, 8, 21, 60, 135, 135, 60, 57, 129, 3, 1.85428
224, 1, wb, attraction, a-b-db, 9, 1, 8, 21, 60, 135, 135, 60, 57, 129, 1, 0.475078
224, 1, wb, attraction, a-b-db, 9, 2, 8, 22, 90, 165, 86, 157, 165, 90, 2, 2.8214
224, 1, wb, attraction, a-b-db, 9, 2, 8, 22, 90, 165, 86, 157, 165, 90, 3, 0.41118
224, 1, wb, filler, NA, 999, 999, 8, 23, 150, 181, 86, 105, 126, 60, 3, 1.72029
224, 1, wb, filler, NA, 999, 999, 8, 23, 150, 181, 86, 105, 126, 60, 1, 0.522353
224, 1, wb, attraction, a-b-da, 9, 2, 8, 24, 90, 165, 165, 90, 157, 86, 2, 2.35541
224, 1, wb, attraction, a-b-da, 9, 2, 8, 24, 90, 165, 165, 90, 157, 86, 1, 0.51544
224, 1, wb, filler, NA, 999, 999, 8, 25, 80, 138, 108, 133, 175, 157, 1, 1.34047
224, 1, wb, filler, NA, 999, 999, 8, 25, 80, 138, 108, 133, 175, 157, 3, 1.10937
224, 1, wb, catch, NA, 999, 999, 8, 26, 112, 83, 92, 163, 193, 122, 1, 1.15827
224, 1, wb, catch, NA, 999, 999, 8, 26, 112, 83, 92, 163, 193, 122, 3, 0.598545
224, 1, wb, catch, NA, 999, 999, 8, 27, 129, 186, 116, 79, 116, 139, 2, 1.22839
224, 1, wb, catch, NA, 999, 999, 8, 27, 129, 186, 116, 79, 116, 139, 1, 0.442055
224, 1, wb, attraction, a-b-db, 2, 1, 8, 28, 59, 134, 135, 60, 60, 135, 2, 1.97376
224, 1, wb, attraction, a-b-db, 2, 1, 8, 28, 59, 134, 135, 60, 60, 135, 3, 0.429227
224, 1, wb, attraction, a-b-db, 9, 3, 8, 29, 120, 195, 195, 120, 114, 186, 1, 1.74555
224, 1, wb, attraction, a-b-db, 9, 3, 8, 29, 120, 195, 195, 120, 114, 186, 2, 1.18633
224, 1, wb, attraction, a-b-da, 5, 1, 8, 30, 60, 135, 132, 58, 135, 60, 2, 1.96853
224, 1, wb, attraction, a-b-da, 5, 1, 8, 30, 60, 135, 132, 58, 135, 60, 1, 0.496601
224, 1, wb, attraction, a-b-da, 2, 3, 8, 31, 193, 119, 120, 195, 195, 120, 3, 2.7784
224, 1, wb, attraction, a-b-da, 2, 3, 8, 31, 193, 119, 120, 195, 195, 120, 2, 1.20949
224, 1, wb, attraction, a-b-da, 2, 2, 8, 32, 163, 89, 165, 90, 90, 165, 1, 1.35841
224, 1, wb, attraction, a-b-da, 2, 2, 8, 32, 163, 89, 165, 90, 90, 165, 2, 0.718657
224, 1, wb, filler, NA, 999, 999, 8, 33, 83, 182, 111, 192, 72, 164, 1, 0.831583
224, 1, wb, filler, NA, 999, 999, 8, 33, 83, 182, 111, 192, 72, 164, 2, 1.5094
224, 1, wb, attraction, a-b-db, 2, 2, 8, 34, 90, 165, 165, 90, 89, 163, 1, 2.31025
224, 1, wb, attraction, a-b-db, 2, 2, 8, 34, 90, 165, 165, 90, 89, 163, 3, 0.62411
224, 1, wb, filler, NA, 999, 999, 8, 35, 116, 115, 127, 151, 185, 73, 3, 1.87656
224, 1, wb, filler, NA, 999, 999, 8, 35, 116, 115, 127, 151, 185, 73, 1, 0.567848
224, 1, wb, filler, NA, 999, 999, 8, 36, 175, 125, 146, 74, 151, 75, 1, 0.782946
224, 1, wb, filler, NA, 999, 999, 8, 36, 175, 125, 146, 74, 151, 75, 3, 2.39879
224, 1, wb, filler, NA, 999, 999, 8, 37, 134, 151, 118, 176, 59, 102, 2, 2.06791
224, 1, wb, filler, NA, 999, 999, 8, 37, 134, 151, 118, 176, 59, 102, 3, 1.03994
