sub_n, computer_n, bw_cond, effect, set, distance, diag, block_n, trial_n, h1, w1, h2, w2, h3, w3, choice, rt 
200, 1, wb, practice, NA, 999, 999, 0, 1, 110, 194, 107, 132, 87, 180, 2, 2.71265
200, 1, wb, practice, NA, 999, 999, 0, 1, 110, 194, 107, 132, 87, 180, 1, 3.34551
200, 1, wb, practice, NA, 999, 999, 0, 2, 121, 78, 113, 98, 127, 178, 1, 1.99838
200, 1, wb, practice, NA, 999, 999, 0, 2, 121, 78, 113, 98, 127, 178, 3, 1.26259
200, 1, wb, practice, NA, 999, 999, 0, 3, 147, 183, 72, 112, 65, 91, 3, 1.77245
200, 1, wb, practice, NA, 999, 999, 0, 3, 147, 183, 72, 112, 65, 91, 1, 1.48441
200, 1, wb, attraction, a-b-da, 9, 3, 1, 1, 195, 120, 120, 195, 186, 114, 3, 3.77878
200, 1, wb, attraction, a-b-da, 9, 3, 1, 1, 195, 120, 120, 195, 186, 114, 2, 3.12953
200, 1, wb, attraction, a-b-db, 9, 1, 1, 2, 60, 135, 57, 129, 135, 60, 2, 3.8252
200, 1, wb, attraction, a-b-db, 9, 1, 1, 2, 60, 135, 57, 129, 135, 60, 1, 1.39787
200, 1, wb, attraction, a-b-db, 14, 1, 1, 3, 135, 60, 56, 125, 60, 135, 2, 3.13945
200, 1, wb, attraction, a-b-db, 14, 1, 1, 3, 135, 60, 56, 125, 60, 135, 1, 1.3158
200, 1, wb, catch, NA, 999, 999, 1, 4, 169, 146, 161, 94, 126, 69, 3, 1.80453
200, 1, wb, catch, NA, 999, 999, 1, 4, 169, 146, 161, 94, 126, 69, 1, 0.674735
200, 1, wb, attraction, a-b-da, 9, 1, 1, 5, 60, 135, 129, 57, 135, 60, 1, 3.67709
200, 1, wb, attraction, a-b-da, 9, 1, 1, 5, 60, 135, 129, 57, 135, 60, 3, 0.871824
200, 1, wb, attraction, a-b-db, 14, 3, 1, 6, 120, 195, 111, 181, 195, 120, 2, 1.21881
200, 1, wb, attraction, a-b-db, 14, 3, 1, 6, 120, 195, 111, 181, 195, 120, 3, 4.60916
200, 1, wb, attraction, a-b-da, 14, 1, 1, 7, 60, 135, 125, 56, 135, 60, 2, 4.90906
200, 1, wb, attraction, a-b-da, 14, 1, 1, 7, 60, 135, 125, 56, 135, 60, 3, 4.72614
200, 1, wb, attraction, a-b-db, 9, 3, 1, 8, 195, 120, 114, 186, 120, 195, 2, 3.10134
200, 1, wb, attraction, a-b-db, 9, 3, 1, 8, 195, 120, 114, 186, 120, 195, 3, 0.719668
200, 1, wb, attraction, a-b-da, 14, 2, 1, 9, 165, 90, 90, 165, 153, 83, 3, 3.28061
200, 1, wb, attraction, a-b-da, 14, 2, 1, 9, 165, 90, 90, 165, 153, 83, 2, 0.867459
200, 1, wb, attraction, a-b-db, 2, 1, 1, 10, 135, 60, 60, 135, 59, 134, 1, 6.89457
200, 1, wb, attraction, a-b-db, 2, 1, 1, 10, 135, 60, 60, 135, 59, 134, 3, 0.799644
200, 1, wb, filler, NA, 999, 999, 1, 11, 175, 146, 58, 84, 178, 94, 2, 1.43729
200, 1, wb, filler, NA, 999, 999, 1, 11, 175, 146, 58, 84, 178, 94, 1, 0.730848
200, 1, wb, attraction, a-b-da, 2, 1, 1, 12, 60, 135, 134, 59, 135, 60, 1, 2.98738
200, 1, wb, attraction, a-b-da, 2, 1, 1, 12, 60, 135, 134, 59, 135, 60, 3, 0.642505
200, 1, wb, filler, NA, 999, 999, 1, 13, 116, 127, 76, 100, 118, 103, 2, 1.16613
200, 1, wb, filler, NA, 999, 999, 1, 13, 116, 127, 76, 100, 118, 103, 1, 0.41436
200, 1, wb, filler, NA, 999, 999, 1, 14, 76, 130, 124, 183, 103, 108, 1, 3.3235
200, 1, wb, filler, NA, 999, 999, 1, 14, 76, 130, 124, 183, 103, 108, 2, 1.00448
200, 1, wb, attraction, a-b-da, 14, 3, 1, 15, 120, 195, 181, 111, 195, 120, 2, 3.62617
200, 1, wb, attraction, a-b-da, 14, 3, 1, 15, 120, 195, 181, 111, 195, 120, 3, 2.83888
200, 1, wb, filler, NA, 999, 999, 1, 16, 154, 124, 135, 78, 63, 96, 3, 1.39458
200, 1, wb, filler, NA, 999, 999, 1, 16, 154, 124, 135, 78, 63, 96, 1, 0.889655
200, 1, wb, attraction, a-b-db, 14, 2, 1, 17, 83, 153, 90, 165, 165, 90, 1, 1.01986
200, 1, wb, attraction, a-b-db, 14, 2, 1, 17, 83, 153, 90, 165, 165, 90, 3, 2.09806
200, 1, wb, filler, NA, 999, 999, 1, 18, 126, 156, 75, 187, 159, 188, 2, 1.67541
200, 1, wb, filler, NA, 999, 999, 1, 18, 126, 156, 75, 187, 159, 188, 3, 0.750798
200, 1, wb, attraction, a-b-db, 2, 2, 1, 19, 89, 163, 165, 90, 90, 165, 1, 3.32656
200, 1, wb, attraction, a-b-db, 2, 2, 1, 19, 89, 163, 165, 90, 90, 165, 2, 1.83943
200, 1, wb, attraction, a-b-db, 2, 3, 1, 20, 119, 193, 195, 120, 120, 195, 3, 1.26766
200, 1, wb, attraction, a-b-db, 2, 3, 1, 20, 119, 193, 195, 120, 120, 195, 1, 1.21582
200, 1, wb, filler, NA, 999, 999, 1, 21, 191, 89, 193, 56, 154, 143, 2, 4.07678
200, 1, wb, filler, NA, 999, 999, 1, 21, 191, 89, 193, 56, 154, 143, 3, 0.807398
200, 1, wb, attraction, a-b-da, 2, 2, 1, 22, 165, 90, 163, 89, 90, 165, 2, 3.60439
200, 1, wb, attraction, a-b-da, 2, 2, 1, 22, 165, 90, 163, 89, 90, 165, 3, 1.01864
200, 1, wb, catch, NA, 999, 999, 1, 23, 149, 106, 132, 63, 192, 123, 2, 1.25551
200, 1, wb, catch, NA, 999, 999, 1, 23, 149, 106, 132, 63, 192, 123, 3, 0.691722
200, 1, wb, filler, NA, 999, 999, 1, 24, 145, 79, 164, 171, 179, 108, 1, 0.941566
200, 1, wb, filler, NA, 999, 999, 1, 24, 145, 79, 164, 171, 179, 108, 2, 0.470476
200, 1, wb, attraction, a-b-da, 5, 3, 1, 25, 195, 120, 190, 117, 120, 195, 1, 2.12165
200, 1, wb, attraction, a-b-da, 5, 3, 1, 25, 195, 120, 190, 117, 120, 195, 3, 0.491604
200, 1, wb, filler, NA, 999, 999, 1, 26, 160, 158, 175, 87, 128, 177, 2, 3.16532
200, 1, wb, filler, NA, 999, 999, 1, 26, 160, 158, 175, 87, 128, 177, 1, 0.32519
200, 1, wb, filler, NA, 999, 999, 1, 27, 56, 83, 78, 61, 112, 138, 2, 2.36564
200, 1, wb, filler, NA, 999, 999, 1, 27, 56, 83, 78, 61, 112, 138, 3, 0.549549
200, 1, wb, attraction, a-b-da, 5, 1, 1, 28, 135, 60, 60, 135, 132, 58, 2, 2.95718
200, 1, wb, attraction, a-b-da, 5, 1, 1, 28, 135, 60, 60, 135, 132, 58, 1, 0.709024
200, 1, wb, filler, NA, 999, 999, 1, 29, 59, 74, 101, 169, 141, 159, 1, 1.00601
200, 1, wb, filler, NA, 999, 999, 1, 29, 59, 74, 101, 169, 141, 159, 3, 1.13229
200, 1, wb, catch, NA, 999, 999, 1, 30, 137, 178, 94, 161, 122, 73, 3, 0.916512
200, 1, wb, catch, NA, 999, 999, 1, 30, 137, 178, 94, 161, 122, 73, 1, 0.439097
200, 1, wb, attraction, a-b-da, 9, 2, 1, 31, 157, 86, 165, 90, 90, 165, 3, 3.25142
200, 1, wb, attraction, a-b-da, 9, 2, 1, 31, 157, 86, 165, 90, 90, 165, 2, 2.13574
200, 1, wb, attraction, a-b-db, 5, 2, 1, 32, 90, 165, 88, 161, 165, 90, 3, 1.53564
200, 1, wb, attraction, a-b-db, 5, 2, 1, 32, 90, 165, 88, 161, 165, 90, 1, 0.553131
200, 1, wb, attraction, a-b-db, 5, 1, 1, 33, 58, 132, 135, 60, 60, 135, 3, 1.46491
200, 1, wb, attraction, a-b-db, 5, 1, 1, 33, 58, 132, 135, 60, 60, 135, 1, 0.596997
200, 1, wb, attraction, a-b-db, 9, 2, 1, 34, 90, 165, 86, 157, 165, 90, 2, 1.82674
200, 1, wb, attraction, a-b-db, 9, 2, 1, 34, 90, 165, 86, 157, 165, 90, 3, 2.69633
200, 1, wb, attraction, a-b-db, 5, 3, 1, 35, 120, 195, 195, 120, 117, 190, 1, 1.63336
200, 1, wb, attraction, a-b-db, 5, 3, 1, 35, 120, 195, 195, 120, 117, 190, 3, 1.51087
200, 1, wb, attraction, a-b-da, 2, 3, 1, 36, 193, 119, 195, 120, 120, 195, 2, 2.31157
200, 1, wb, attraction, a-b-da, 2, 3, 1, 36, 193, 119, 195, 120, 120, 195, 3, 0.537628
200, 1, wb, attraction, a-b-da, 5, 2, 1, 37, 165, 90, 90, 165, 161, 88, 3, 3.16999
200, 1, wb, attraction, a-b-da, 5, 2, 1, 37, 165, 90, 90, 165, 161, 88, 1, 0.801618
200, 1, wb, filler, NA, 999, 999, 2, 1, 72, 103, 92, 102, 150, 173, 1, 0.967404
200, 1, wb, filler, NA, 999, 999, 2, 1, 72, 103, 92, 102, 150, 173, 3, 0.575618
200, 1, wb, filler, NA, 999, 999, 2, 2, 75, 188, 98, 78, 187, 90, 2, 0.942134
200, 1, wb, filler, NA, 999, 999, 2, 2, 75, 188, 98, 78, 187, 90, 3, 0.527026
200, 1, wb, attraction, a-b-da, 9, 1, 2, 3, 135, 60, 60, 135, 129, 57, 3, 1.69551
200, 1, wb, attraction, a-b-da, 9, 1, 2, 3, 135, 60, 60, 135, 129, 57, 1, 0.842233
200, 1, wb, attraction, a-b-db, 5, 2, 2, 4, 90, 165, 165, 90, 88, 161, 2, 4.57393
200, 1, wb, attraction, a-b-db, 5, 2, 2, 4, 90, 165, 165, 90, 88, 161, 1, 0.716648
200, 1, wb, attraction, a-b-da, 14, 1, 2, 5, 60, 135, 135, 60, 125, 56, 3, 2.34162
200, 1, wb, attraction, a-b-da, 14, 1, 2, 5, 60, 135, 135, 60, 125, 56, 2, 0.950107
200, 1, wb, attraction, a-b-da, 14, 3, 2, 6, 181, 111, 120, 195, 195, 120, 1, 3.07784
200, 1, wb, attraction, a-b-da, 14, 3, 2, 6, 181, 111, 120, 195, 195, 120, 3, 0.720789
200, 1, wb, attraction, a-b-da, 9, 2, 2, 7, 90, 165, 157, 86, 165, 90, 1, 5.46581
200, 1, wb, attraction, a-b-da, 9, 2, 2, 7, 90, 165, 157, 86, 165, 90, 3, 1.45275
200, 1, wb, attraction, a-b-db, 14, 3, 2, 8, 111, 181, 120, 195, 195, 120, 1, 0.944242
200, 1, wb, attraction, a-b-db, 14, 3, 2, 8, 111, 181, 120, 195, 195, 120, 2, 1.81729
200, 1, wb, attraction, a-b-db, 9, 3, 2, 9, 120, 195, 195, 120, 114, 186, 3, 2.29394
200, 1, wb, attraction, a-b-db, 9, 3, 2, 9, 120, 195, 195, 120, 114, 186, 1, 1.15265
200, 1, wb, filler, NA, 999, 999, 2, 10, 122, 135, 168, 125, 177, 179, 1, 1.09617
200, 1, wb, filler, NA, 999, 999, 2, 10, 122, 135, 168, 125, 177, 179, 3, 1.05913
200, 1, wb, attraction, a-b-da, 5, 1, 2, 11, 132, 58, 60, 135, 135, 60, 1, 2.26201
200, 1, wb, attraction, a-b-da, 5, 1, 2, 11, 132, 58, 60, 135, 135, 60, 2, 2.082
200, 1, wb, attraction, a-b-da, 2, 1, 2, 12, 135, 60, 60, 135, 134, 59, 3, 1.62799
200, 1, wb, attraction, a-b-da, 2, 1, 2, 12, 135, 60, 60, 135, 134, 59, 1, 2.3295
200, 1, wb, attraction, a-b-db, 9, 2, 2, 13, 165, 90, 86, 157, 90, 165, 1, 4.82528
200, 1, wb, attraction, a-b-db, 9, 2, 2, 13, 165, 90, 86, 157, 90, 165, 3, 0.757715
200, 1, wb, attraction, a-b-da, 2, 2, 2, 14, 163, 89, 165, 90, 90, 165, 1, 1.95698
200, 1, wb, attraction, a-b-da, 2, 2, 2, 14, 163, 89, 165, 90, 90, 165, 3, 0.96486
200, 1, wb, attraction, a-b-da, 2, 3, 2, 15, 195, 120, 120, 195, 193, 119, 2, 4.81978
200, 1, wb, attraction, a-b-da, 2, 3, 2, 15, 195, 120, 120, 195, 193, 119, 1, 1.88892
200, 1, wb, filler, NA, 999, 999, 2, 16, 87, 161, 110, 64, 63, 119, 2, 2.87492
200, 1, wb, filler, NA, 999, 999, 2, 16, 87, 161, 110, 64, 63, 119, 1, 3.25426
200, 1, wb, attraction, a-b-db, 2, 1, 2, 17, 135, 60, 59, 134, 60, 135, 2, 1.89701
200, 1, wb, attraction, a-b-db, 2, 1, 2, 17, 135, 60, 59, 134, 60, 135, 1, 3.36375
200, 1, wb, attraction, a-b-da, 9, 3, 2, 18, 120, 195, 195, 120, 186, 114, 1, 3.82598
200, 1, wb, attraction, a-b-da, 9, 3, 2, 18, 120, 195, 195, 120, 186, 114, 2, 2.90273
200, 1, wb, attraction, a-b-da, 14, 2, 2, 19, 90, 165, 165, 90, 153, 83, 1, 1.00775
200, 1, wb, attraction, a-b-da, 14, 2, 2, 19, 90, 165, 165, 90, 153, 83, 2, 1.66198
200, 1, wb, attraction, a-b-db, 2, 3, 2, 20, 120, 195, 195, 120, 119, 193, 3, 2.91294
200, 1, wb, attraction, a-b-db, 2, 3, 2, 20, 120, 195, 195, 120, 119, 193, 1, 1.11466
200, 1, wb, attraction, a-b-db, 9, 1, 2, 21, 57, 129, 60, 135, 135, 60, 1, 1.16348
200, 1, wb, attraction, a-b-db, 9, 1, 2, 21, 57, 129, 60, 135, 135, 60, 3, 1.00369
200, 1, wb, filler, NA, 999, 999, 2, 22, 110, 186, 169, 132, 187, 126, 2, 2.68948
200, 1, wb, filler, NA, 999, 999, 2, 22, 110, 186, 169, 132, 187, 126, 1, 1.57193
200, 1, wb, attraction, a-b-db, 5, 1, 2, 23, 60, 135, 58, 132, 135, 60, 2, 2.5867
200, 1, wb, attraction, a-b-db, 5, 1, 2, 23, 60, 135, 58, 132, 135, 60, 1, 1.45794
200, 1, wb, attraction, a-b-db, 2, 2, 2, 24, 89, 163, 165, 90, 90, 165, 3, 1.37261
200, 1, wb, attraction, a-b-db, 2, 2, 2, 24, 89, 163, 165, 90, 90, 165, 1, 0.780195
200, 1, wb, catch, NA, 999, 999, 2, 25, 83, 112, 176, 139, 159, 96, 1, 1.05855
200, 1, wb, catch, NA, 999, 999, 2, 25, 83, 112, 176, 139, 159, 96, 2, 0.48681
200, 1, wb, catch, NA, 999, 999, 2, 26, 173, 142, 111, 144, 135, 60, 3, 0.961303
200, 1, wb, catch, NA, 999, 999, 2, 26, 173, 142, 111, 144, 135, 60, 1, 0.689631
200, 1, wb, attraction, a-b-da, 5, 3, 2, 27, 190, 117, 195, 120, 120, 195, 3, 3.36399
200, 1, wb, attraction, a-b-da, 5, 3, 2, 27, 190, 117, 195, 120, 120, 195, 2, 0.763637
200, 1, wb, attraction, a-b-da, 5, 2, 2, 28, 161, 88, 90, 165, 165, 90, 3, 1.33856
200, 1, wb, attraction, a-b-da, 5, 2, 2, 28, 161, 88, 90, 165, 165, 90, 1, 2.38754
200, 1, wb, filler, NA, 999, 999, 2, 29, 95, 80, 151, 126, 101, 82, 1, 1.23342
200, 1, wb, filler, NA, 999, 999, 2, 29, 95, 80, 151, 126, 101, 82, 2, 0.406966
200, 1, wb, attraction, a-b-db, 14, 1, 2, 30, 60, 135, 135, 60, 56, 125, 3, 1.62814
200, 1, wb, attraction, a-b-db, 14, 1, 2, 30, 60, 135, 135, 60, 56, 125, 1, 0.849539
200, 1, wb, filler, NA, 999, 999, 2, 31, 173, 100, 154, 90, 85, 92, 3, 0.637312
200, 1, wb, filler, NA, 999, 999, 2, 31, 173, 100, 154, 90, 85, 92, 1, 0.386921
200, 1, wb, attraction, a-b-db, 5, 3, 2, 32, 120, 195, 195, 120, 117, 190, 3, 2.11355
200, 1, wb, attraction, a-b-db, 5, 3, 2, 32, 120, 195, 195, 120, 117, 190, 1, 0.427543
200, 1, wb, filler, NA, 999, 999, 2, 33, 176, 150, 107, 95, 115, 91, 2, 0.927891
200, 1, wb, filler, NA, 999, 999, 2, 33, 176, 150, 107, 95, 115, 91, 1, 0.425751
200, 1, wb, filler, NA, 999, 999, 2, 34, 129, 111, 79, 88, 195, 176, 2, 0.934086
200, 1, wb, filler, NA, 999, 999, 2, 34, 129, 111, 79, 88, 195, 176, 3, 0.527923
200, 1, wb, catch, NA, 999, 999, 2, 35, 150, 165, 65, 130, 119, 136, 2, 1.23224
200, 1, wb, catch, NA, 999, 999, 2, 35, 150, 165, 65, 130, 119, 136, 1, 0.525886
200, 1, wb, filler, NA, 999, 999, 2, 36, 70, 80, 93, 66, 60, 145, 1, 1.67039
200, 1, wb, filler, NA, 999, 999, 2, 36, 70, 80, 93, 66, 60, 145, 3, 1.00235
200, 1, wb, attraction, a-b-db, 14, 2, 2, 37, 83, 153, 165, 90, 90, 165, 1, 1.47202
200, 1, wb, attraction, a-b-db, 14, 2, 2, 37, 83, 153, 165, 90, 90, 165, 3, 0.595587
200, 1, wb, filler, NA, 999, 999, 3, 1, 192, 144, 138, 98, 95, 70, 3, 1.48146
200, 1, wb, filler, NA, 999, 999, 3, 1, 192, 144, 138, 98, 95, 70, 1, 0.69288
200, 1, wb, catch, NA, 999, 999, 3, 2, 116, 79, 104, 151, 160, 155, 1, 0.862536
200, 1, wb, catch, NA, 999, 999, 3, 2, 116, 79, 104, 151, 160, 155, 3, 0.786911
200, 1, wb, filler, NA, 999, 999, 3, 3, 146, 149, 79, 82, 102, 164, 2, 0.969177
200, 1, wb, filler, NA, 999, 999, 3, 3, 146, 149, 79, 82, 102, 164, 1, 0.545698
200, 1, wb, attraction, a-b-db, 14, 2, 3, 4, 90, 165, 83, 153, 165, 90, 2, 2.99351
200, 1, wb, attraction, a-b-db, 14, 2, 3, 4, 90, 165, 83, 153, 165, 90, 3, 0.503822
200, 1, wb, filler, NA, 999, 999, 3, 5, 95, 144, 180, 131, 79, 57, 3, 0.993627
200, 1, wb, filler, NA, 999, 999, 3, 5, 95, 144, 180, 131, 79, 57, 2, 0.536679
200, 1, wb, attraction, a-b-db, 9, 2, 3, 6, 90, 165, 86, 157, 165, 90, 2, 3.24107
200, 1, wb, attraction, a-b-db, 9, 2, 3, 6, 90, 165, 86, 157, 165, 90, 1, 0.925223
200, 1, wb, attraction, a-b-da, 14, 2, 3, 7, 165, 90, 153, 83, 90, 165, 2, 3.18959
200, 1, wb, attraction, a-b-da, 14, 2, 3, 7, 165, 90, 153, 83, 90, 165, 1, 1.61991
200, 1, wb, filler, NA, 999, 999, 3, 8, 57, 182, 71, 117, 153, 146, 2, 0.656641
200, 1, wb, filler, NA, 999, 999, 3, 8, 57, 182, 71, 117, 153, 146, 3, 0.517051
200, 1, wb, attraction, a-b-da, 5, 1, 3, 9, 135, 60, 60, 135, 132, 58, 2, 3.8942
200, 1, wb, attraction, a-b-da, 5, 1, 3, 9, 135, 60, 60, 135, 132, 58, 1, 1.13637
200, 1, wb, attraction, a-b-da, 5, 3, 3, 10, 120, 195, 195, 120, 190, 117, 3, 3.81666
200, 1, wb, attraction, a-b-da, 5, 3, 3, 10, 120, 195, 195, 120, 190, 117, 2, 2.006
200, 1, wb, filler, NA, 999, 999, 3, 11, 178, 174, 118, 149, 97, 107, 3, 0.763391
200, 1, wb, filler, NA, 999, 999, 3, 11, 178, 174, 118, 149, 97, 107, 1, 0.795718
200, 1, wb, catch, NA, 999, 999, 3, 12, 132, 63, 128, 187, 112, 143, 1, 0.993468
200, 1, wb, catch, NA, 999, 999, 3, 12, 132, 63, 128, 187, 112, 143, 2, 0.904475
200, 1, wb, attraction, a-b-db, 14, 1, 3, 13, 135, 60, 56, 125, 60, 135, 2, 2.46605
200, 1, wb, attraction, a-b-db, 14, 1, 3, 13, 135, 60, 56, 125, 60, 135, 1, 0.845922
200, 1, wb, attraction, a-b-db, 5, 1, 3, 14, 60, 135, 58, 132, 135, 60, 2, 3.56161
200, 1, wb, attraction, a-b-db, 5, 1, 3, 14, 60, 135, 58, 132, 135, 60, 3, 2.30524
200, 1, wb, attraction, a-b-db, 5, 3, 3, 15, 195, 120, 117, 190, 120, 195, 2, 1.41835
200, 1, wb, attraction, a-b-db, 5, 3, 3, 15, 195, 120, 117, 190, 120, 195, 1, 4.3287
200, 1, wb, attraction, a-b-da, 2, 2, 3, 16, 163, 89, 165, 90, 90, 165, 3, 2.4638
200, 1, wb, attraction, a-b-da, 2, 2, 3, 16, 163, 89, 165, 90, 90, 165, 2, 1.85972
200, 1, wb, attraction, a-b-db, 2, 1, 3, 17, 59, 134, 60, 135, 135, 60, 1, 1.5344
200, 1, wb, attraction, a-b-db, 2, 1, 3, 17, 59, 134, 60, 135, 135, 60, 3, 2.70399
200, 1, wb, attraction, a-b-db, 9, 3, 3, 18, 195, 120, 114, 186, 120, 195, 2, 3.58501
200, 1, wb, attraction, a-b-db, 9, 3, 3, 18, 195, 120, 114, 186, 120, 195, 1, 1.10381
200, 1, wb, attraction, a-b-db, 2, 2, 3, 19, 89, 163, 165, 90, 90, 165, 1, 1.08934
200, 1, wb, attraction, a-b-db, 2, 2, 3, 19, 89, 163, 165, 90, 90, 165, 2, 2.11636
200, 1, wb, filler, NA, 999, 999, 3, 20, 58, 112, 152, 162, 189, 104, 1, 0.852944
200, 1, wb, filler, NA, 999, 999, 3, 20, 58, 112, 152, 162, 189, 104, 2, 2.13806
200, 1, wb, attraction, a-b-db, 14, 3, 3, 21, 111, 181, 120, 195, 195, 120, 1, 2.72209
200, 1, wb, attraction, a-b-db, 14, 3, 3, 21, 111, 181, 120, 195, 195, 120, 3, 1.0992
200, 1, wb, attraction, a-b-da, 14, 3, 3, 22, 120, 195, 195, 120, 181, 111, 3, 1.13275
200, 1, wb, attraction, a-b-da, 14, 3, 3, 22, 120, 195, 195, 120, 181, 111, 1, 3.32642
200, 1, wb, attraction, a-b-db, 5, 2, 3, 23, 90, 165, 88, 161, 165, 90, 2, 1.54988
200, 1, wb, attraction, a-b-db, 5, 2, 3, 23, 90, 165, 88, 161, 165, 90, 1, 1.35871
200, 1, wb, attraction, a-b-da, 9, 2, 3, 24, 157, 86, 165, 90, 90, 165, 1, 3.6216
200, 1, wb, attraction, a-b-da, 9, 2, 3, 24, 157, 86, 165, 90, 90, 165, 3, 2.50709
200, 1, wb, filler, NA, 999, 999, 3, 25, 161, 148, 179, 101, 171, 169, 1, 2.06819
200, 1, wb, filler, NA, 999, 999, 3, 25, 161, 148, 179, 101, 171, 169, 3, 0.588757
200, 1, wb, attraction, a-b-da, 14, 1, 3, 26, 60, 135, 125, 56, 135, 60, 2, 4.7987
200, 1, wb, attraction, a-b-da, 14, 1, 3, 26, 60, 135, 125, 56, 135, 60, 3, 2.04451
200, 1, wb, filler, NA, 999, 999, 3, 27, 138, 96, 108, 190, 174, 78, 1, 2.66374
200, 1, wb, filler, NA, 999, 999, 3, 27, 138, 96, 108, 190, 174, 78, 2, 0.41971
200, 1, wb, attraction, a-b-da, 2, 3, 3, 28, 120, 195, 193, 119, 195, 120, 2, 3.84872
200, 1, wb, attraction, a-b-da, 2, 3, 3, 28, 120, 195, 193, 119, 195, 120, 1, 0.420832
200, 1, wb, attraction, a-b-da, 5, 2, 3, 29, 161, 88, 165, 90, 90, 165, 3, 3.69813
200, 1, wb, attraction, a-b-da, 5, 2, 3, 29, 161, 88, 165, 90, 90, 165, 2, 0.572114
200, 1, wb, attraction, a-b-db, 9, 1, 3, 30, 57, 129, 135, 60, 60, 135, 1, 3.3712
200, 1, wb, attraction, a-b-db, 9, 1, 3, 30, 57, 129, 135, 60, 60, 135, 3, 2.28214
200, 1, wb, filler, NA, 999, 999, 3, 31, 68, 85, 180, 171, 63, 90, 3, 1.48409
200, 1, wb, filler, NA, 999, 999, 3, 31, 68, 85, 180, 171, 63, 90, 2, 0.751582
200, 1, wb, catch, NA, 999, 999, 3, 32, 179, 136, 100, 95, 110, 145, 2, 1.15935
200, 1, wb, catch, NA, 999, 999, 3, 32, 179, 136, 100, 95, 110, 145, 1, 0.487611
200, 1, wb, attraction, a-b-da, 2, 1, 3, 33, 134, 59, 60, 135, 135, 60, 1, 1.66595
200, 1, wb, attraction, a-b-da, 2, 1, 3, 33, 134, 59, 60, 135, 135, 60, 3, 0.846046
200, 1, wb, attraction, a-b-da, 9, 3, 3, 34, 186, 114, 195, 120, 120, 195, 1, 3.80169
200, 1, wb, attraction, a-b-da, 9, 3, 3, 34, 186, 114, 195, 120, 120, 195, 3, 0.559872
200, 1, wb, attraction, a-b-db, 2, 3, 3, 35, 119, 193, 195, 120, 120, 195, 2, 3.37501
200, 1, wb, attraction, a-b-db, 2, 3, 3, 35, 119, 193, 195, 120, 120, 195, 3, 0.502003
200, 1, wb, attraction, a-b-da, 9, 1, 3, 36, 60, 135, 129, 57, 135, 60, 2, 2.98374
200, 1, wb, attraction, a-b-da, 9, 1, 3, 36, 60, 135, 129, 57, 135, 60, 1, 1.03076
200, 1, wb, filler, NA, 999, 999, 3, 37, 138, 115, 126, 63, 126, 124, 2, 0.778967
200, 1, wb, filler, NA, 999, 999, 3, 37, 138, 115, 126, 63, 126, 124, 1, 1.12277
200, 1, wb, filler, NA, 999, 999, 4, 1, 175, 104, 71, 173, 159, 100, 2, 3.06771
200, 1, wb, filler, NA, 999, 999, 4, 1, 175, 104, 71, 173, 159, 100, 1, 0.695274
200, 1, wb, attraction, a-b-db, 2, 2, 4, 2, 165, 90, 90, 165, 89, 163, 1, 2.68914
200, 1, wb, attraction, a-b-db, 2, 2, 4, 2, 165, 90, 90, 165, 89, 163, 2, 0.507662
200, 1, wb, attraction, a-b-da, 2, 3, 4, 3, 193, 119, 120, 195, 195, 120, 1, 2.06869
200, 1, wb, attraction, a-b-da, 2, 3, 4, 3, 193, 119, 120, 195, 195, 120, 2, 1.58473
200, 1, wb, attraction, a-b-da, 9, 3, 4, 4, 195, 120, 120, 195, 186, 114, 3, 1.47882
200, 1, wb, attraction, a-b-da, 9, 3, 4, 4, 195, 120, 120, 195, 186, 114, 2, 1.03441
200, 1, wb, catch, NA, 999, 999, 4, 5, 132, 183, 93, 162, 100, 95, 3, 1.38254
200, 1, wb, catch, NA, 999, 999, 4, 5, 132, 183, 93, 162, 100, 95, 1, 0.414247
200, 1, wb, attraction, a-b-db, 2, 3, 4, 6, 120, 195, 195, 120, 119, 193, 1, 3.05139
200, 1, wb, attraction, a-b-db, 2, 3, 4, 6, 120, 195, 195, 120, 119, 193, 2, 1.55969
200, 1, wb, attraction, a-b-db, 14, 1, 4, 7, 135, 60, 56, 125, 60, 135, 2, 1.59037
200, 1, wb, attraction, a-b-db, 14, 1, 4, 7, 135, 60, 56, 125, 60, 135, 3, 2.38129
200, 1, wb, filler, NA, 999, 999, 4, 8, 172, 191, 159, 183, 173, 112, 3, 1.03509
200, 1, wb, filler, NA, 999, 999, 4, 8, 172, 191, 159, 183, 173, 112, 1, 0.744687
200, 1, wb, attraction, a-b-da, 14, 1, 4, 9, 125, 56, 60, 135, 135, 60, 1, 2.16045
200, 1, wb, attraction, a-b-da, 14, 1, 4, 9, 125, 56, 60, 135, 135, 60, 2, 0.848368
200, 1, wb, filler, NA, 999, 999, 4, 10, 184, 66, 78, 96, 96, 155, 2, 0.972188
200, 1, wb, filler, NA, 999, 999, 4, 10, 184, 66, 78, 96, 96, 155, 3, 0.731719
200, 1, wb, attraction, a-b-db, 5, 1, 4, 11, 135, 60, 60, 135, 58, 132, 1, 2.09211
200, 1, wb, attraction, a-b-db, 5, 1, 4, 11, 135, 60, 60, 135, 58, 132, 2, 0.494814
200, 1, wb, attraction, a-b-da, 5, 1, 4, 12, 132, 58, 135, 60, 60, 135, 3, 1.91258
200, 1, wb, attraction, a-b-da, 5, 1, 4, 12, 132, 58, 135, 60, 60, 135, 1, 0.223871
200, 1, wb, filler, NA, 999, 999, 4, 13, 103, 159, 183, 99, 58, 81, 3, 1.92723
200, 1, wb, filler, NA, 999, 999, 4, 13, 103, 159, 183, 99, 58, 81, 1, 0.456567
200, 1, wb, filler, NA, 999, 999, 4, 14, 147, 103, 59, 73, 71, 94, 2, 1.2916
200, 1, wb, filler, NA, 999, 999, 4, 14, 147, 103, 59, 73, 71, 94, 1, 0.750607
200, 1, wb, attraction, a-b-da, 14, 2, 4, 15, 165, 90, 90, 165, 153, 83, 3, 1.94215
200, 1, wb, attraction, a-b-da, 14, 2, 4, 15, 165, 90, 90, 165, 153, 83, 2, 0.422966
200, 1, wb, filler, NA, 999, 999, 4, 16, 102, 161, 147, 97, 107, 74, 3, 1.11605
200, 1, wb, filler, NA, 999, 999, 4, 16, 102, 161, 147, 97, 107, 74, 1, 1.11844
200, 1, wb, filler, NA, 999, 999, 4, 17, 143, 170, 116, 130, 96, 72, 3, 1.45529
200, 1, wb, filler, NA, 999, 999, 4, 17, 143, 170, 116, 130, 96, 72, 1, 0.603479
200, 1, wb, filler, NA, 999, 999, 4, 18, 140, 96, 145, 178, 173, 65, 3, 3.14526
200, 1, wb, filler, NA, 999, 999, 4, 18, 140, 96, 145, 178, 173, 65, 2, 0.953564
200, 1, wb, attraction, a-b-da, 2, 2, 4, 19, 163, 89, 165, 90, 90, 165, 3, 2.05736
200, 1, wb, attraction, a-b-da, 2, 2, 4, 19, 163, 89, 165, 90, 90, 165, 1, 0.613136
200, 1, wb, attraction, a-b-da, 14, 3, 4, 20, 195, 120, 181, 111, 120, 195, 2, 2.99422
200, 1, wb, attraction, a-b-da, 14, 3, 4, 20, 195, 120, 181, 111, 120, 195, 1, 0.888758
200, 1, wb, filler, NA, 999, 999, 4, 21, 177, 84, 195, 73, 171, 106, 1, 3.50709
200, 1, wb, filler, NA, 999, 999, 4, 21, 177, 84, 195, 73, 171, 106, 3, 0.644499
200, 1, wb, attraction, a-b-db, 2, 1, 4, 22, 59, 134, 60, 135, 135, 60, 3, 1.64021
200, 1, wb, attraction, a-b-db, 2, 1, 4, 22, 59, 134, 60, 135, 135, 60, 1, 1.7171
200, 1, wb, attraction, a-b-da, 9, 1, 4, 23, 135, 60, 129, 57, 60, 135, 2, 1.17385
200, 1, wb, attraction, a-b-da, 9, 1, 4, 23, 135, 60, 129, 57, 60, 135, 3, 0.493535
200, 1, wb, attraction, a-b-da, 9, 2, 4, 24, 157, 86, 90, 165, 165, 90, 1, 2.00724
200, 1, wb, attraction, a-b-da, 9, 2, 4, 24, 157, 86, 90, 165, 165, 90, 3, 2.5892
200, 1, wb, filler, NA, 999, 999, 4, 25, 186, 152, 138, 171, 69, 112, 3, 0.754995
200, 1, wb, filler, NA, 999, 999, 4, 25, 186, 152, 138, 171, 69, 112, 1, 0.947433
200, 1, wb, attraction, a-b-db, 5, 2, 4, 26, 165, 90, 88, 161, 90, 165, 2, 1.65111
200, 1, wb, attraction, a-b-db, 5, 2, 4, 26, 165, 90, 88, 161, 90, 165, 1, 1.01594
200, 1, wb, attraction, a-b-da, 5, 3, 4, 27, 190, 117, 195, 120, 120, 195, 1, 5.14095
200, 1, wb, attraction, a-b-da, 5, 3, 4, 27, 190, 117, 195, 120, 120, 195, 3, 0.620627
200, 1, wb, attraction, a-b-db, 14, 2, 4, 28, 165, 90, 90, 165, 83, 153, 3, 1.58556
200, 1, wb, attraction, a-b-db, 14, 2, 4, 28, 165, 90, 90, 165, 83, 153, 2, 2.873
200, 1, wb, catch, NA, 999, 999, 4, 29, 82, 113, 157, 98, 175, 140, 1, 0.787442
200, 1, wb, catch, NA, 999, 999, 4, 29, 82, 113, 157, 98, 175, 140, 3, 0.747108
200, 1, wb, attraction, a-b-db, 9, 3, 4, 30, 195, 120, 114, 186, 120, 195, 2, 1.45901
200, 1, wb, attraction, a-b-db, 9, 3, 4, 30, 195, 120, 114, 186, 120, 195, 3, 0.487183
200, 1, wb, attraction, a-b-da, 5, 2, 4, 31, 90, 165, 161, 88, 165, 90, 3, 1.48952
200, 1, wb, attraction, a-b-da, 5, 2, 4, 31, 90, 165, 161, 88, 165, 90, 1, 1.06035
200, 1, wb, catch, NA, 999, 999, 4, 32, 186, 129, 112, 83, 92, 163, 2, 0.919258
200, 1, wb, catch, NA, 999, 999, 4, 32, 186, 129, 112, 83, 92, 163, 1, 0.801612
200, 1, wb, attraction, a-b-db, 9, 2, 4, 33, 90, 165, 86, 157, 165, 90, 2, 1.37543
200, 1, wb, attraction, a-b-db, 9, 2, 4, 33, 90, 165, 86, 157, 165, 90, 1, 3.79091
200, 1, wb, attraction, a-b-db, 14, 3, 4, 34, 111, 181, 120, 195, 195, 120, 1, 1.39568
200, 1, wb, attraction, a-b-db, 14, 3, 4, 34, 111, 181, 120, 195, 195, 120, 2, 0.914549
200, 1, wb, attraction, a-b-db, 5, 3, 4, 35, 120, 195, 195, 120, 117, 190, 3, 3.03552
200, 1, wb, attraction, a-b-db, 5, 3, 4, 35, 120, 195, 195, 120, 117, 190, 1, 0.632532
200, 1, wb, attraction, a-b-da, 2, 1, 4, 36, 134, 59, 60, 135, 135, 60, 3, 1.53296
200, 1, wb, attraction, a-b-da, 2, 1, 4, 36, 134, 59, 60, 135, 135, 60, 1, 1.01442
200, 1, wb, attraction, a-b-db, 9, 1, 4, 37, 60, 135, 57, 129, 135, 60, 2, 1.30746
200, 1, wb, attraction, a-b-db, 9, 1, 4, 37, 60, 135, 57, 129, 135, 60, 1, 0.533627
200, 1, wb, filler, NA, 999, 999, 5, 1, 128, 120, 142, 178, 119, 194, 1, 2.55668
200, 1, wb, filler, NA, 999, 999, 5, 1, 128, 120, 142, 178, 119, 194, 3, 0.996591
200, 1, wb, attraction, a-b-da, 14, 2, 5, 2, 90, 165, 165, 90, 153, 83, 3, 3.80209
200, 1, wb, attraction, a-b-da, 14, 2, 5, 2, 90, 165, 165, 90, 153, 83, 1, 0.664352
200, 1, wb, attraction, a-b-da, 5, 2, 5, 3, 165, 90, 161, 88, 90, 165, 2, 1.8114
200, 1, wb, attraction, a-b-da, 5, 2, 5, 3, 165, 90, 161, 88, 90, 165, 3, 1.00959
200, 1, wb, catch, NA, 999, 999, 5, 4, 101, 94, 98, 157, 153, 162, 1, 0.886394
200, 1, wb, catch, NA, 999, 999, 5, 4, 101, 94, 98, 157, 153, 162, 3, 1.27412
200, 1, wb, attraction, a-b-da, 9, 3, 5, 5, 186, 114, 195, 120, 120, 195, 1, 1.70823
200, 1, wb, attraction, a-b-da, 9, 3, 5, 5, 186, 114, 195, 120, 120, 195, 3, 1.31056
200, 1, wb, attraction, a-b-db, 9, 3, 5, 6, 195, 120, 114, 186, 120, 195, 1, 1.25524
200, 1, wb, attraction, a-b-db, 9, 3, 5, 6, 195, 120, 114, 186, 120, 195, 3, 0.515489
200, 1, wb, filler, NA, 999, 999, 5, 7, 61, 142, 168, 181, 83, 78, 3, 0.820694
200, 1, wb, filler, NA, 999, 999, 5, 7, 61, 142, 168, 181, 83, 78, 2, 0.587065
200, 1, wb, attraction, a-b-da, 9, 2, 5, 8, 165, 90, 157, 86, 90, 165, 2, 3.2414
200, 1, wb, attraction, a-b-da, 9, 2, 5, 8, 165, 90, 157, 86, 90, 165, 3, 0.885815
200, 1, wb, attraction, a-b-da, 2, 3, 5, 9, 120, 195, 193, 119, 195, 120, 3, 1.39205
200, 1, wb, attraction, a-b-da, 2, 3, 5, 9, 120, 195, 193, 119, 195, 120, 1, 0.639025
200, 1, wb, attraction, a-b-db, 2, 1, 5, 10, 135, 60, 59, 134, 60, 135, 1, 1.60325
200, 1, wb, attraction, a-b-db, 2, 1, 5, 10, 135, 60, 59, 134, 60, 135, 3, 0.522196
200, 1, wb, filler, NA, 999, 999, 5, 11, 95, 69, 162, 113, 173, 70, 1, 0.699274
200, 1, wb, filler, NA, 999, 999, 5, 11, 95, 69, 162, 113, 173, 70, 2, 0.510306
200, 1, wb, catch, NA, 999, 999, 5, 12, 166, 149, 127, 68, 108, 147, 2, 1.34343
200, 1, wb, catch, NA, 999, 999, 5, 12, 166, 149, 127, 68, 108, 147, 1, 0.74436
200, 1, wb, attraction, a-b-da, 14, 3, 5, 13, 120, 195, 181, 111, 195, 120, 1, 2.17607
200, 1, wb, attraction, a-b-da, 14, 3, 5, 13, 120, 195, 181, 111, 195, 120, 3, 0.823374
200, 1, wb, attraction, a-b-da, 5, 1, 5, 14, 60, 135, 135, 60, 132, 58, 2, 1.78782
200, 1, wb, attraction, a-b-da, 5, 1, 5, 14, 60, 135, 135, 60, 132, 58, 1, 1.84319
200, 1, wb, catch, NA, 999, 999, 5, 15, 112, 143, 147, 168, 130, 65, 3, 1.50241
200, 1, wb, catch, NA, 999, 999, 5, 15, 112, 143, 147, 168, 130, 65, 2, 0.577281
200, 1, wb, filler, NA, 999, 999, 5, 16, 113, 115, 173, 65, 90, 137, 3, 5.87174
200, 1, wb, filler, NA, 999, 999, 5, 16, 113, 115, 173, 65, 90, 137, 1, 1.3867
200, 1, wb, attraction, a-b-da, 9, 1, 5, 17, 129, 57, 135, 60, 60, 135, 2, 1.33666
200, 1, wb, attraction, a-b-da, 9, 1, 5, 17, 129, 57, 135, 60, 60, 135, 1, 0.554241
200, 1, wb, attraction, a-b-da, 14, 1, 5, 18, 60, 135, 125, 56, 135, 60, 2, 1.54604
200, 1, wb, attraction, a-b-da, 14, 1, 5, 18, 60, 135, 125, 56, 135, 60, 1, 0.410989
200, 1, wb, attraction, a-b-db, 5, 1, 5, 19, 58, 132, 60, 135, 135, 60, 1, 1.13595
200, 1, wb, attraction, a-b-db, 5, 1, 5, 19, 58, 132, 60, 135, 135, 60, 3, 1.08966
200, 1, wb, attraction, a-b-db, 14, 2, 5, 20, 83, 153, 165, 90, 90, 165, 1, 2.71602
200, 1, wb, attraction, a-b-db, 14, 2, 5, 20, 83, 153, 165, 90, 90, 165, 3, 0.989806
200, 1, wb, filler, NA, 999, 999, 5, 21, 96, 104, 108, 172, 173, 57, 1, 2.59618
200, 1, wb, filler, NA, 999, 999, 5, 21, 96, 104, 108, 172, 173, 57, 2, 0.81064
200, 1, wb, attraction, a-b-db, 9, 1, 5, 22, 135, 60, 57, 129, 60, 135, 2, 1.57559
200, 1, wb, attraction, a-b-db, 9, 1, 5, 22, 135, 60, 57, 129, 60, 135, 3, 1.23903
200, 1, wb, attraction, a-b-db, 9, 2, 5, 23, 90, 165, 165, 90, 86, 157, 3, 5.80331
200, 1, wb, attraction, a-b-db, 9, 2, 5, 23, 90, 165, 165, 90, 86, 157, 1, 0.696906
200, 1, wb, attraction, a-b-da, 2, 1, 5, 24, 134, 59, 135, 60, 60, 135, 3, 2.97844
200, 1, wb, attraction, a-b-da, 2, 1, 5, 24, 134, 59, 135, 60, 60, 135, 1, 0.729529
200, 1, wb, attraction, a-b-da, 5, 3, 5, 25, 195, 120, 120, 195, 190, 117, 2, 3.92186
200, 1, wb, attraction, a-b-da, 5, 3, 5, 25, 195, 120, 120, 195, 190, 117, 1, 0.570633
200, 1, wb, attraction, a-b-db, 2, 3, 5, 26, 195, 120, 120, 195, 119, 193, 2, 1.32966
200, 1, wb, attraction, a-b-db, 2, 3, 5, 26, 195, 120, 120, 195, 119, 193, 3, 0.675255
200, 1, wb, filler, NA, 999, 999, 5, 27, 102, 143, 121, 87, 156, 133, 2, 0.877746
200, 1, wb, filler, NA, 999, 999, 5, 27, 102, 143, 121, 87, 156, 133, 3, 0.649433
200, 1, wb, attraction, a-b-db, 5, 3, 5, 28, 117, 190, 120, 195, 195, 120, 1, 4.77307
200, 1, wb, attraction, a-b-db, 5, 3, 5, 28, 117, 190, 120, 195, 195, 120, 2, 0.467603
200, 1, wb, attraction, a-b-db, 2, 2, 5, 29, 90, 165, 89, 163, 165, 90, 3, 1.63071
200, 1, wb, attraction, a-b-db, 2, 2, 5, 29, 90, 165, 89, 163, 165, 90, 1, 0.684306
200, 1, wb, attraction, a-b-db, 14, 1, 5, 30, 60, 135, 135, 60, 56, 125, 3, 2.68658
200, 1, wb, attraction, a-b-db, 14, 1, 5, 30, 60, 135, 135, 60, 56, 125, 1, 1.81778
200, 1, wb, attraction, a-b-db, 5, 2, 5, 31, 90, 165, 165, 90, 88, 161, 3, 2.91852
200, 1, wb, attraction, a-b-db, 5, 2, 5, 31, 90, 165, 165, 90, 88, 161, 1, 0.624144
200, 1, wb, attraction, a-b-db, 14, 3, 5, 32, 120, 195, 111, 181, 195, 120, 2, 2.3648
200, 1, wb, attraction, a-b-db, 14, 3, 5, 32, 120, 195, 111, 181, 195, 120, 1, 2.1325
200, 1, wb, filler, NA, 999, 999, 5, 33, 171, 105, 76, 179, 172, 168, 2, 1.28442
200, 1, wb, filler, NA, 999, 999, 5, 33, 171, 105, 76, 179, 172, 168, 3, 0.688169
200, 1, wb, filler, NA, 999, 999, 5, 34, 120, 99, 96, 121, 66, 108, 3, 0.874341
200, 1, wb, filler, NA, 999, 999, 5, 34, 120, 99, 96, 121, 66, 108, 2, 1.01405
200, 1, wb, filler, NA, 999, 999, 5, 35, 59, 106, 122, 126, 122, 163, 1, 1.17912
200, 1, wb, filler, NA, 999, 999, 5, 35, 59, 106, 122, 126, 122, 163, 3, 0.562829
200, 1, wb, attraction, a-b-da, 2, 2, 5, 36, 163, 89, 165, 90, 90, 165, 1, 4.24181
200, 1, wb, attraction, a-b-da, 2, 2, 5, 36, 163, 89, 165, 90, 90, 165, 3, 0.717867
200, 1, wb, filler, NA, 999, 999, 5, 37, 186, 111, 171, 159, 180, 114, 1, 2.44671
200, 1, wb, filler, NA, 999, 999, 5, 37, 186, 111, 171, 159, 180, 114, 2, 0.515464
200, 1, wb, filler, NA, 999, 999, 6, 1, 169, 61, 67, 158, 161, 123, 2, 1.59643
200, 1, wb, filler, NA, 999, 999, 6, 1, 169, 61, 67, 158, 161, 123, 3, 0.379217
200, 1, wb, attraction, a-b-db, 14, 2, 6, 2, 165, 90, 83, 153, 90, 165, 2, 2.72171
200, 1, wb, attraction, a-b-db, 14, 2, 6, 2, 165, 90, 83, 153, 90, 165, 3, 0.49884
200, 1, wb, attraction, a-b-db, 9, 3, 6, 3, 114, 186, 195, 120, 120, 195, 1, 4.86064
200, 1, wb, attraction, a-b-db, 9, 3, 6, 3, 114, 186, 195, 120, 120, 195, 2, 0.367744
200, 1, wb, filler, NA, 999, 999, 6, 4, 180, 124, 104, 75, 72, 195, 2, 0.73492
200, 1, wb, filler, NA, 999, 999, 6, 4, 180, 124, 104, 75, 72, 195, 1, 0.640616
200, 1, wb, attraction, a-b-db, 2, 3, 6, 5, 195, 120, 120, 195, 119, 193, 1, 1.58843
200, 1, wb, attraction, a-b-db, 2, 3, 6, 5, 195, 120, 120, 195, 119, 193, 3, 0.603253
200, 1, wb, attraction, a-b-db, 14, 3, 6, 6, 120, 195, 111, 181, 195, 120, 2, 1.47293
200, 1, wb, attraction, a-b-db, 14, 3, 6, 6, 120, 195, 111, 181, 195, 120, 1, 1.14859
200, 1, wb, attraction, a-b-db, 5, 1, 6, 7, 58, 132, 60, 135, 135, 60, 2, 2.164
200, 1, wb, attraction, a-b-db, 5, 1, 6, 7, 58, 132, 60, 135, 135, 60, 3, 0.908006
200, 1, wb, catch, NA, 999, 999, 6, 8, 78, 117, 99, 156, 126, 189, 1, 0.644955
200, 1, wb, catch, NA, 999, 999, 6, 8, 78, 117, 99, 156, 126, 189, 3, 0.466189
200, 1, wb, attraction, a-b-db, 5, 2, 6, 9, 90, 165, 165, 90, 88, 161, 3, 3.7093
200, 1, wb, attraction, a-b-db, 5, 2, 6, 9, 90, 165, 165, 90, 88, 161, 1, 0.654746
200, 1, wb, attraction, a-b-da, 14, 1, 6, 10, 60, 135, 125, 56, 135, 60, 2, 1.8104
200, 1, wb, attraction, a-b-da, 14, 1, 6, 10, 60, 135, 125, 56, 135, 60, 3, 0.480553
200, 1, wb, filler, NA, 999, 999, 6, 11, 188, 87, 93, 177, 98, 62, 3, 0.731027
200, 1, wb, filler, NA, 999, 999, 6, 11, 188, 87, 93, 177, 98, 62, 1, 1.3567
200, 1, wb, attraction, a-b-da, 5, 1, 6, 12, 135, 60, 60, 135, 132, 58, 2, 0.980242
200, 1, wb, attraction, a-b-da, 5, 1, 6, 12, 135, 60, 60, 135, 132, 58, 1, 0.515889
200, 1, wb, attraction, a-b-db, 2, 2, 6, 13, 89, 163, 165, 90, 90, 165, 1, 2.73313
200, 1, wb, attraction, a-b-db, 2, 2, 6, 13, 89, 163, 165, 90, 90, 165, 3, 1.96614
200, 1, wb, attraction, a-b-da, 14, 2, 6, 14, 153, 83, 90, 165, 165, 90, 1, 1.50896
200, 1, wb, attraction, a-b-da, 14, 2, 6, 14, 153, 83, 90, 165, 165, 90, 3, 0.806975
200, 1, wb, attraction, a-b-da, 2, 2, 6, 15, 163, 89, 90, 165, 165, 90, 3, 1.42813
200, 1, wb, attraction, a-b-da, 2, 2, 6, 15, 163, 89, 90, 165, 165, 90, 1, 0.825651
200, 1, wb, attraction, a-b-db, 9, 1, 6, 16, 60, 135, 135, 60, 57, 129, 3, 3.72587
200, 1, wb, attraction, a-b-db, 9, 1, 6, 16, 60, 135, 135, 60, 57, 129, 2, 1.65471
200, 1, wb, attraction, a-b-da, 2, 3, 6, 17, 120, 195, 195, 120, 193, 119, 2, 1.82613
200, 1, wb, attraction, a-b-da, 2, 3, 6, 17, 120, 195, 195, 120, 193, 119, 1, 0.70352
200, 1, wb, filler, NA, 999, 999, 6, 18, 187, 86, 135, 71, 109, 122, 2, 2.8332
200, 1, wb, filler, NA, 999, 999, 6, 18, 187, 86, 135, 71, 109, 122, 3, 0.502589
200, 1, wb, catch, NA, 999, 999, 6, 19, 133, 62, 108, 147, 122, 193, 1, 0.65614
200, 1, wb, catch, NA, 999, 999, 6, 19, 133, 62, 108, 147, 122, 193, 3, 0.692706
200, 1, wb, attraction, a-b-da, 5, 2, 6, 20, 90, 165, 161, 88, 165, 90, 3, 3.30236
200, 1, wb, attraction, a-b-da, 5, 2, 6, 20, 90, 165, 161, 88, 165, 90, 1, 0.632495
200, 1, wb, attraction, a-b-db, 2, 1, 6, 21, 59, 134, 135, 60, 60, 135, 1, 1.54913
200, 1, wb, attraction, a-b-db, 2, 1, 6, 21, 59, 134, 135, 60, 60, 135, 2, 2.68591
200, 1, wb, filler, NA, 999, 999, 6, 22, 122, 132, 130, 83, 111, 81, 3, 0.935662
200, 1, wb, filler, NA, 999, 999, 6, 22, 122, 132, 130, 83, 111, 81, 1, 0.577255
200, 1, wb, filler, NA, 999, 999, 6, 23, 94, 61, 87, 97, 73, 176, 1, 0.911592
200, 1, wb, filler, NA, 999, 999, 6, 23, 94, 61, 87, 97, 73, 176, 3, 0.562111
200, 1, wb, catch, NA, 999, 999, 6, 24, 66, 129, 156, 99, 140, 175, 1, 0.913166
200, 1, wb, catch, NA, 999, 999, 6, 24, 66, 129, 156, 99, 140, 175, 3, 0.635459
200, 1, wb, attraction, a-b-da, 14, 3, 6, 25, 120, 195, 181, 111, 195, 120, 2, 1.87994
200, 1, wb, attraction, a-b-da, 14, 3, 6, 25, 120, 195, 181, 111, 195, 120, 1, 1.02728
200, 1, wb, attraction, a-b-da, 9, 3, 6, 26, 195, 120, 120, 195, 186, 114, 3, 1.71968
200, 1, wb, attraction, a-b-da, 9, 3, 6, 26, 195, 120, 120, 195, 186, 114, 2, 0.577614
200, 1, wb, attraction, a-b-da, 2, 1, 6, 27, 135, 60, 60, 135, 134, 59, 3, 3.71205
200, 1, wb, attraction, a-b-da, 2, 1, 6, 27, 135, 60, 60, 135, 134, 59, 2, 0.769636
200, 1, wb, filler, NA, 999, 999, 6, 28, 85, 86, 100, 116, 143, 100, 1, 0.928581
200, 1, wb, filler, NA, 999, 999, 6, 28, 85, 86, 100, 116, 143, 100, 3, 0.818287
200, 1, wb, attraction, a-b-da, 9, 1, 6, 29, 60, 135, 129, 57, 135, 60, 2, 3.75132
200, 1, wb, attraction, a-b-da, 9, 1, 6, 29, 60, 135, 129, 57, 135, 60, 1, 0.487492
200, 1, wb, filler, NA, 999, 999, 6, 30, 190, 115, 136, 98, 61, 176, 3, 2.57003
200, 1, wb, filler, NA, 999, 999, 6, 30, 190, 115, 136, 98, 61, 176, 1, 0.777861
200, 1, wb, filler, NA, 999, 999, 6, 31, 76, 105, 65, 56, 153, 115, 2, 0.888034
200, 1, wb, filler, NA, 999, 999, 6, 31, 76, 105, 65, 56, 153, 115, 3, 0.355183
200, 1, wb, attraction, a-b-da, 5, 3, 6, 32, 195, 120, 190, 117, 120, 195, 1, 3.30687
200, 1, wb, attraction, a-b-da, 5, 3, 6, 32, 195, 120, 190, 117, 120, 195, 3, 0.708693
200, 1, wb, attraction, a-b-db, 14, 1, 6, 33, 135, 60, 56, 125, 60, 135, 2, 1.39758
200, 1, wb, attraction, a-b-db, 14, 1, 6, 33, 135, 60, 56, 125, 60, 135, 1, 0.660531
200, 1, wb, attraction, a-b-da, 9, 2, 6, 34, 165, 90, 90, 165, 157, 86, 3, 1.43957
200, 1, wb, attraction, a-b-da, 9, 2, 6, 34, 165, 90, 90, 165, 157, 86, 1, 0.63642
200, 1, wb, attraction, a-b-db, 5, 3, 6, 35, 195, 120, 117, 190, 120, 195, 2, 2.92075
200, 1, wb, attraction, a-b-db, 5, 3, 6, 35, 195, 120, 117, 190, 120, 195, 3, 1.1865
200, 1, wb, filler, NA, 999, 999, 6, 36, 141, 195, 90, 67, 70, 79, 3, 1.25676
200, 1, wb, filler, NA, 999, 999, 6, 36, 141, 195, 90, 67, 70, 79, 1, 0.597062
200, 1, wb, attraction, a-b-db, 9, 2, 6, 37, 86, 157, 165, 90, 90, 165, 1, 0.986673
200, 1, wb, attraction, a-b-db, 9, 2, 6, 37, 86, 157, 165, 90, 90, 165, 3, 0.762466
200, 1, wb, attraction, a-b-da, 9, 1, 7, 1, 60, 135, 129, 57, 135, 60, 2, 3.71346
200, 1, wb, attraction, a-b-da, 9, 1, 7, 1, 60, 135, 129, 57, 135, 60, 3, 0.715001
200, 1, wb, attraction, a-b-da, 9, 2, 7, 2, 165, 90, 90, 165, 157, 86, 1, 1.68399
200, 1, wb, attraction, a-b-da, 9, 2, 7, 2, 165, 90, 90, 165, 157, 86, 2, 1.39145
200, 1, wb, catch, NA, 999, 999, 7, 3, 102, 93, 129, 186, 164, 91, 1, 0.941137
200, 1, wb, catch, NA, 999, 999, 7, 3, 102, 93, 129, 186, 164, 91, 2, 0.653978
200, 1, wb, attraction, a-b-da, 2, 2, 7, 4, 163, 89, 90, 165, 165, 90, 2, 3.18573
200, 1, wb, attraction, a-b-da, 2, 2, 7, 4, 163, 89, 90, 165, 165, 90, 3, 1.14481
200, 1, wb, filler, NA, 999, 999, 7, 5, 155, 148, 68, 129, 78, 69, 3, 0.976264
200, 1, wb, filler, NA, 999, 999, 7, 5, 155, 148, 68, 129, 78, 69, 1, 0.784013
200, 1, wb, filler, NA, 999, 999, 7, 6, 136, 86, 184, 133, 64, 166, 1, 1.11034
200, 1, wb, filler, NA, 999, 999, 7, 6, 136, 86, 184, 133, 64, 166, 2, 0.792543
200, 1, wb, filler, NA, 999, 999, 7, 7, 140, 63, 132, 170, 96, 121, 1, 1.34228
200, 1, wb, filler, NA, 999, 999, 7, 7, 140, 63, 132, 170, 96, 121, 2, 0.383178
200, 1, wb, filler, NA, 999, 999, 7, 8, 119, 182, 98, 66, 71, 139, 2, 1.18158
200, 1, wb, filler, NA, 999, 999, 7, 8, 119, 182, 98, 66, 71, 139, 1, 0.413289
200, 1, wb, attraction, a-b-db, 14, 1, 7, 9, 135, 60, 56, 125, 60, 135, 2, 2.89035
200, 1, wb, attraction, a-b-db, 14, 1, 7, 9, 135, 60, 56, 125, 60, 135, 3, 1.18894
200, 1, wb, attraction, a-b-db, 2, 2, 7, 10, 165, 90, 89, 163, 90, 165, 2, 1.64301
200, 1, wb, attraction, a-b-db, 2, 2, 7, 10, 165, 90, 89, 163, 90, 165, 3, 0.447767
200, 1, wb, filler, NA, 999, 999, 7, 11, 113, 104, 96, 174, 101, 141, 1, 0.555747
200, 1, wb, filler, NA, 999, 999, 7, 11, 113, 104, 96, 174, 101, 141, 2, 1.02006
200, 1, wb, attraction, a-b-da, 5, 1, 7, 12, 60, 135, 132, 58, 135, 60, 2, 1.21715
200, 1, wb, attraction, a-b-da, 5, 1, 7, 12, 60, 135, 132, 58, 135, 60, 1, 2.4634
200, 1, wb, attraction, a-b-da, 14, 1, 7, 13, 60, 135, 135, 60, 125, 56, 3, 2.33779
200, 1, wb, attraction, a-b-da, 14, 1, 7, 13, 60, 135, 135, 60, 125, 56, 1, 0.747191
200, 1, wb, attraction, a-b-db, 14, 2, 7, 14, 165, 90, 83, 153, 90, 165, 2, 0.706753
200, 1, wb, attraction, a-b-db, 14, 2, 7, 14, 165, 90, 83, 153, 90, 165, 3, 0.757245
200, 1, wb, attraction, a-b-db, 5, 2, 7, 15, 90, 165, 88, 161, 165, 90, 2, 2.26817
200, 1, wb, attraction, a-b-db, 5, 2, 7, 15, 90, 165, 88, 161, 165, 90, 1, 0.744145
200, 1, wb, filler, NA, 999, 999, 7, 16, 175, 89, 180, 140, 162, 99, 3, 1.77581
200, 1, wb, filler, NA, 999, 999, 7, 16, 175, 89, 180, 140, 162, 99, 2, 1.4234
200, 1, wb, attraction, a-b-da, 14, 2, 7, 17, 165, 90, 90, 165, 153, 83, 3, 1.94819
200, 1, wb, attraction, a-b-da, 14, 2, 7, 17, 165, 90, 90, 165, 153, 83, 1, 0.692819
200, 1, wb, attraction, a-b-da, 2, 1, 7, 18, 60, 135, 135, 60, 134, 59, 1, 0.846487
200, 1, wb, attraction, a-b-da, 2, 1, 7, 18, 60, 135, 135, 60, 134, 59, 2, 1.89182
200, 1, wb, attraction, a-b-db, 9, 1, 7, 19, 60, 135, 57, 129, 135, 60, 2, 1.27697
200, 1, wb, attraction, a-b-db, 9, 1, 7, 19, 60, 135, 57, 129, 135, 60, 1, 0.904556
200, 1, wb, filler, NA, 999, 999, 7, 20, 60, 61, 112, 190, 195, 108, 1, 1.41825
200, 1, wb, filler, NA, 999, 999, 7, 20, 60, 61, 112, 190, 195, 108, 2, 3.20845
200, 1, wb, catch, NA, 999, 999, 7, 21, 136, 119, 97, 98, 127, 188, 2, 0.932679
200, 1, wb, catch, NA, 999, 999, 7, 21, 136, 119, 97, 98, 127, 188, 3, 0.51837
200, 1, wb, attraction, a-b-db, 5, 3, 7, 22, 117, 190, 195, 120, 120, 195, 3, 4.31145
200, 1, wb, attraction, a-b-db, 5, 3, 7, 22, 117, 190, 195, 120, 120, 195, 1, 0.912748
200, 1, wb, filler, NA, 999, 999, 7, 23, 108, 65, 148, 168, 96, 160, 1, 1.40176
200, 1, wb, filler, NA, 999, 999, 7, 23, 108, 65, 148, 168, 96, 160, 2, 0.488653
200, 1, wb, attraction, a-b-db, 5, 1, 7, 24, 60, 135, 58, 132, 135, 60, 2, 1.46707
200, 1, wb, attraction, a-b-db, 5, 1, 7, 24, 60, 135, 58, 132, 135, 60, 1, 1.4553
200, 1, wb, filler, NA, 999, 999, 7, 25, 194, 66, 175, 157, 191, 170, 1, 1.32267
200, 1, wb, filler, NA, 999, 999, 7, 25, 194, 66, 175, 157, 191, 170, 3, 1.85223
200, 1, wb, attraction, a-b-da, 2, 3, 7, 26, 120, 195, 193, 119, 195, 120, 2, 3.23959
200, 1, wb, attraction, a-b-da, 2, 3, 7, 26, 120, 195, 193, 119, 195, 120, 1, 0.459948
200, 1, wb, attraction, a-b-db, 9, 2, 7, 27, 90, 165, 165, 90, 86, 157, 2, 1.63902
200, 1, wb, attraction, a-b-db, 9, 2, 7, 27, 90, 165, 165, 90, 86, 157, 1, 0.531808
200, 1, wb, attraction, a-b-db, 9, 3, 7, 28, 120, 195, 114, 186, 195, 120, 2, 1.30834
200, 1, wb, attraction, a-b-db, 9, 3, 7, 28, 120, 195, 114, 186, 195, 120, 1, 0.718564
200, 1, wb, attraction, a-b-da, 9, 3, 7, 29, 120, 195, 186, 114, 195, 120, 2, 0.71177
200, 1, wb, attraction, a-b-da, 9, 3, 7, 29, 120, 195, 186, 114, 195, 120, 1, 1.106
200, 1, wb, attraction, a-b-da, 14, 3, 7, 30, 195, 120, 120, 195, 181, 111, 3, 1.98761
200, 1, wb, attraction, a-b-da, 14, 3, 7, 30, 195, 120, 120, 195, 181, 111, 1, 0.730977
200, 1, wb, attraction, a-b-db, 14, 3, 7, 31, 111, 181, 195, 120, 120, 195, 1, 1.26744
200, 1, wb, attraction, a-b-db, 14, 3, 7, 31, 111, 181, 195, 120, 120, 195, 3, 0.495597
200, 1, wb, filler, NA, 999, 999, 7, 32, 189, 95, 166, 128, 132, 122, 3, 2.62543
200, 1, wb, filler, NA, 999, 999, 7, 32, 189, 95, 166, 128, 132, 122, 2, 0.862513
200, 1, wb, attraction, a-b-db, 2, 1, 7, 33, 60, 135, 59, 134, 135, 60, 2, 1.82559
200, 1, wb, attraction, a-b-db, 2, 1, 7, 33, 60, 135, 59, 134, 135, 60, 3, 1.84692
200, 1, wb, catch, NA, 999, 999, 7, 34, 145, 110, 128, 67, 141, 174, 2, 0.722299
200, 1, wb, catch, NA, 999, 999, 7, 34, 145, 110, 128, 67, 141, 174, 3, 0.492077
200, 1, wb, attraction, a-b-da, 5, 3, 7, 35, 190, 117, 120, 195, 195, 120, 1, 1.49388
200, 1, wb, attraction, a-b-da, 5, 3, 7, 35, 190, 117, 120, 195, 195, 120, 2, 1.92879
200, 1, wb, attraction, a-b-da, 5, 2, 7, 36, 165, 90, 161, 88, 90, 165, 2, 2.97672
200, 1, wb, attraction, a-b-da, 5, 2, 7, 36, 165, 90, 161, 88, 90, 165, 1, 1.31179
200, 1, wb, attraction, a-b-db, 2, 3, 7, 37, 195, 120, 120, 195, 119, 193, 2, 1.98458
200, 1, wb, attraction, a-b-db, 2, 3, 7, 37, 195, 120, 120, 195, 119, 193, 3, 1.57598
200, 1, wb, attraction, a-b-da, 5, 1, 8, 1, 60, 135, 135, 60, 132, 58, 3, 1.65413
200, 1, wb, attraction, a-b-da, 5, 1, 8, 1, 60, 135, 135, 60, 132, 58, 1, 1.00301
200, 1, wb, attraction, a-b-db, 2, 1, 8, 2, 135, 60, 60, 135, 59, 134, 2, 1.24059
200, 1, wb, attraction, a-b-db, 2, 1, 8, 2, 135, 60, 60, 135, 59, 134, 1, 1.1014
200, 1, wb, attraction, a-b-db, 5, 3, 8, 3, 117, 190, 195, 120, 120, 195, 2, 0.983029
200, 1, wb, attraction, a-b-db, 5, 3, 8, 3, 117, 190, 195, 120, 120, 195, 1, 1.19063
200, 1, wb, attraction, a-b-da, 2, 2, 8, 4, 163, 89, 90, 165, 165, 90, 2, 2.07622
200, 1, wb, attraction, a-b-da, 2, 2, 8, 4, 163, 89, 90, 165, 165, 90, 3, 1.26352
200, 1, wb, catch, NA, 999, 999, 8, 5, 188, 127, 97, 158, 124, 71, 3, 1.5304
200, 1, wb, catch, NA, 999, 999, 8, 5, 188, 127, 97, 158, 124, 71, 1, 0.459865
200, 1, wb, filler, NA, 999, 999, 8, 6, 192, 181, 92, 144, 155, 137, 2, 0.839155
200, 1, wb, filler, NA, 999, 999, 8, 6, 192, 181, 92, 144, 155, 137, 1, 0.916125
200, 1, wb, attraction, a-b-db, 9, 3, 8, 7, 120, 195, 114, 186, 195, 120, 2, 2.73313
200, 1, wb, attraction, a-b-db, 9, 3, 8, 7, 120, 195, 114, 186, 195, 120, 1, 0.902187
200, 1, wb, filler, NA, 999, 999, 8, 8, 114, 94, 78, 110, 142, 85, 2, 1.46398
200, 1, wb, filler, NA, 999, 999, 8, 8, 114, 94, 78, 110, 142, 85, 1, 0.620052
200, 1, wb, attraction, a-b-db, 2, 3, 8, 9, 119, 193, 120, 195, 195, 120, 2, 2.27311
200, 1, wb, attraction, a-b-db, 2, 3, 8, 9, 119, 193, 120, 195, 195, 120, 1, 0.948316
200, 1, wb, attraction, a-b-db, 9, 1, 8, 10, 135, 60, 60, 135, 57, 129, 2, 0.820002
200, 1, wb, attraction, a-b-db, 9, 1, 8, 10, 135, 60, 60, 135, 57, 129, 1, 1.77043
200, 1, wb, attraction, a-b-db, 5, 2, 8, 11, 88, 161, 165, 90, 90, 165, 2, 1.72106
200, 1, wb, attraction, a-b-db, 5, 2, 8, 11, 88, 161, 165, 90, 90, 165, 1, 0.72322
200, 1, wb, filler, NA, 999, 999, 8, 12, 175, 116, 154, 156, 124, 173, 1, 2.06818
200, 1, wb, filler, NA, 999, 999, 8, 12, 175, 116, 154, 156, 124, 173, 2, 0.808408
200, 1, wb, filler, NA, 999, 999, 8, 13, 69, 168, 57, 81, 98, 178, 2, 0.877344
200, 1, wb, filler, NA, 999, 999, 8, 13, 69, 168, 57, 81, 98, 178, 3, 0.218491
200, 1, wb, attraction, a-b-da, 2, 3, 8, 14, 193, 119, 120, 195, 195, 120, 2, 3.32629
200, 1, wb, attraction, a-b-da, 2, 3, 8, 14, 193, 119, 120, 195, 195, 120, 1, 1.0232
200, 1, wb, attraction, a-b-db, 14, 1, 8, 15, 135, 60, 56, 125, 60, 135, 2, 1.60404
200, 1, wb, attraction, a-b-db, 14, 1, 8, 15, 135, 60, 56, 125, 60, 135, 1, 0.41087
200, 1, wb, attraction, a-b-da, 2, 1, 8, 16, 135, 60, 60, 135, 134, 59, 1, 1.52804
200, 1, wb, attraction, a-b-da, 2, 1, 8, 16, 135, 60, 60, 135, 134, 59, 3, 1.37756
200, 1, wb, attraction, a-b-db, 2, 2, 8, 17, 165, 90, 90, 165, 89, 163, 1, 1.46367
200, 1, wb, attraction, a-b-db, 2, 2, 8, 17, 165, 90, 90, 165, 89, 163, 3, 0.883925
200, 1, wb, attraction, a-b-da, 9, 1, 8, 18, 60, 135, 135, 60, 129, 57, 3, 1.63822
200, 1, wb, attraction, a-b-da, 9, 1, 8, 18, 60, 135, 135, 60, 129, 57, 1, 1.08306
200, 1, wb, attraction, a-b-db, 14, 3, 8, 19, 120, 195, 195, 120, 111, 181, 1, 2.02124
200, 1, wb, attraction, a-b-db, 14, 3, 8, 19, 120, 195, 195, 120, 111, 181, 2, 4.02745
200, 1, wb, attraction, a-b-db, 5, 1, 8, 20, 58, 132, 135, 60, 60, 135, 1, 1.47077
200, 1, wb, attraction, a-b-db, 5, 1, 8, 20, 58, 132, 135, 60, 60, 135, 2, 2.45099
200, 1, wb, attraction, a-b-da, 14, 2, 8, 21, 90, 165, 153, 83, 165, 90, 1, 2.08609
200, 1, wb, attraction, a-b-da, 14, 2, 8, 21, 90, 165, 153, 83, 165, 90, 3, 1.48136
200, 1, wb, filler, NA, 999, 999, 8, 22, 84, 113, 137, 195, 92, 121, 1, 1.8516
200, 1, wb, filler, NA, 999, 999, 8, 22, 84, 113, 137, 195, 92, 121, 2, 0.440549
200, 1, wb, filler, NA, 999, 999, 8, 23, 170, 89, 64, 82, 175, 96, 2, 2.43605
200, 1, wb, filler, NA, 999, 999, 8, 23, 170, 89, 64, 82, 175, 96, 3, 0.761266
200, 1, wb, attraction, a-b-da, 9, 3, 8, 24, 186, 114, 120, 195, 195, 120, 1, 2.70425
200, 1, wb, attraction, a-b-da, 9, 3, 8, 24, 186, 114, 120, 195, 195, 120, 3, 0.746794
200, 1, wb, attraction, a-b-da, 14, 1, 8, 25, 125, 56, 135, 60, 60, 135, 1, 1.24246
200, 1, wb, attraction, a-b-da, 14, 1, 8, 25, 125, 56, 135, 60, 60, 135, 2, 1.04741
200, 1, wb, filler, NA, 999, 999, 8, 26, 154, 56, 144, 108, 124, 181, 1, 1.37097
200, 1, wb, filler, NA, 999, 999, 8, 26, 154, 56, 144, 108, 124, 181, 3, 0.563227
200, 1, wb, catch, NA, 999, 999, 8, 27, 65, 130, 142, 173, 103, 152, 1, 0.546296
200, 1, wb, catch, NA, 999, 999, 8, 27, 65, 130, 142, 173, 103, 152, 2, 0.499404
200, 1, wb, attraction, a-b-db, 9, 2, 8, 28, 90, 165, 86, 157, 165, 90, 2, 1.58126
200, 1, wb, attraction, a-b-db, 9, 2, 8, 28, 90, 165, 86, 157, 165, 90, 1, 0.548749
200, 1, wb, attraction, a-b-db, 14, 2, 8, 29, 90, 165, 165, 90, 83, 153, 3, 1.10881
200, 1, wb, attraction, a-b-db, 14, 2, 8, 29, 90, 165, 165, 90, 83, 153, 1, 0.630783
200, 1, wb, filler, NA, 999, 999, 8, 30, 104, 82, 124, 188, 63, 142, 1, 1.48325
200, 1, wb, filler, NA, 999, 999, 8, 30, 104, 82, 124, 188, 63, 142, 2, 0.734838
200, 1, wb, attraction, a-b-da, 9, 2, 8, 31, 90, 165, 165, 90, 157, 86, 1, 0.9511
200, 1, wb, attraction, a-b-da, 9, 2, 8, 31, 90, 165, 165, 90, 157, 86, 2, 1.02418
200, 1, wb, attraction, a-b-da, 14, 3, 8, 32, 195, 120, 120, 195, 181, 111, 3, 1.17239
200, 1, wb, attraction, a-b-da, 14, 3, 8, 32, 195, 120, 120, 195, 181, 111, 1, 0.63599
200, 1, wb, attraction, a-b-da, 5, 3, 8, 33, 195, 120, 190, 117, 120, 195, 3, 1.20032
200, 1, wb, attraction, a-b-da, 5, 3, 8, 33, 195, 120, 190, 117, 120, 195, 1, 0.791322
200, 1, wb, attraction, a-b-da, 5, 2, 8, 34, 165, 90, 161, 88, 90, 165, 3, 1.28507
200, 1, wb, attraction, a-b-da, 5, 2, 8, 34, 165, 90, 161, 88, 90, 165, 1, 1.60862
200, 1, wb, filler, NA, 999, 999, 8, 35, 152, 65, 146, 77, 84, 152, 1, 0.981363
200, 1, wb, filler, NA, 999, 999, 8, 35, 152, 65, 146, 77, 84, 152, 3, 2.94116
200, 1, wb, filler, NA, 999, 999, 8, 36, 174, 99, 102, 155, 67, 73, 3, 0.932015
200, 1, wb, filler, NA, 999, 999, 8, 36, 174, 99, 102, 155, 67, 73, 1, 0.533741
200, 1, wb, catch, NA, 999, 999, 8, 37, 127, 128, 191, 124, 103, 92, 3, 0.678092
200, 1, wb, catch, NA, 999, 999, 8, 37, 127, 128, 191, 124, 103, 92, 2, 1.12987
