sub_n, computer_n, bw_cond, effect, set, distance, diag, block_n, trial_n, h1, w1, h2, w2, h3, w3, choice, rt 
248, 1, wb, practice, NA, 999, 999, 0, 1, 86, 180, 60, 146, 98, 82, 2, 7.07858
248, 1, wb, practice, NA, 999, 999, 0, 1, 86, 180, 60, 146, 98, 82, 3, 7.52714
248, 1, wb, practice, NA, 999, 999, 0, 2, 146, 66, 62, 145, 75, 130, 1, 4.077
248, 1, wb, practice, NA, 999, 999, 0, 2, 146, 66, 62, 145, 75, 130, 3, 2.89489
248, 1, wb, practice, NA, 999, 999, 0, 3, 64, 194, 130, 105, 97, 154, 1, 2.66081
248, 1, wb, practice, NA, 999, 999, 0, 3, 64, 194, 130, 105, 97, 154, 3, 2.93787
248, 1, wb, filler, NA, 999, 999, 1, 1, 102, 58, 184, 158, 57, 111, 3, 3.35637
248, 1, wb, filler, NA, 999, 999, 1, 1, 102, 58, 184, 158, 57, 111, 2, 1.35548
248, 1, wb, attraction, a-b-db, 2, 3, 1, 2, 120, 195, 119, 193, 195, 120, 3, 1.73911
248, 1, wb, attraction, a-b-db, 2, 3, 1, 2, 120, 195, 119, 193, 195, 120, 1, 0.707746
248, 1, wb, attraction, a-b-db, 14, 2, 1, 3, 165, 90, 83, 153, 90, 165, 2, 1.88479
248, 1, wb, attraction, a-b-db, 14, 2, 1, 3, 165, 90, 83, 153, 90, 165, 3, 1.9922
248, 1, wb, attraction, a-b-da, 14, 2, 1, 4, 153, 83, 165, 90, 90, 165, 1, 0.965552
248, 1, wb, attraction, a-b-da, 14, 2, 1, 4, 153, 83, 165, 90, 90, 165, 3, 0.368835
248, 1, wb, attraction, a-b-da, 14, 1, 1, 5, 135, 60, 125, 56, 60, 135, 1, 1.90103
248, 1, wb, attraction, a-b-da, 14, 1, 1, 5, 135, 60, 125, 56, 60, 135, 3, 0.767718
248, 1, wb, filler, NA, 999, 999, 1, 6, 104, 95, 69, 150, 167, 106, 1, 2.14275
248, 1, wb, filler, NA, 999, 999, 1, 6, 104, 95, 69, 150, 167, 106, 3, 0.799423
248, 1, wb, attraction, a-b-da, 5, 3, 1, 7, 195, 120, 190, 117, 120, 195, 3, 3.1251
248, 1, wb, attraction, a-b-da, 5, 3, 1, 7, 195, 120, 190, 117, 120, 195, 1, 0.622132
248, 1, wb, catch, NA, 999, 999, 1, 8, 65, 130, 142, 173, 143, 112, 1, 1.22719
248, 1, wb, catch, NA, 999, 999, 1, 8, 65, 130, 142, 173, 143, 112, 2, 0.544762
248, 1, wb, attraction, a-b-da, 2, 2, 1, 9, 163, 89, 165, 90, 90, 165, 3, 2.96849
248, 1, wb, attraction, a-b-da, 2, 2, 1, 9, 163, 89, 165, 90, 90, 165, 1, 1.59214
248, 1, wb, attraction, a-b-db, 5, 1, 1, 10, 58, 132, 60, 135, 135, 60, 2, 1.90167
248, 1, wb, attraction, a-b-db, 5, 1, 1, 10, 58, 132, 60, 135, 135, 60, 1, 0.456321
248, 1, wb, filler, NA, 999, 999, 1, 11, 67, 175, 130, 121, 155, 133, 1, 1.36429
248, 1, wb, filler, NA, 999, 999, 1, 11, 67, 175, 130, 121, 155, 133, 3, 0.628412
248, 1, wb, attraction, a-b-da, 5, 2, 1, 12, 161, 88, 90, 165, 165, 90, 1, 1.5369
248, 1, wb, attraction, a-b-da, 5, 2, 1, 12, 161, 88, 90, 165, 165, 90, 2, 0.306214
248, 1, wb, filler, NA, 999, 999, 1, 13, 81, 93, 161, 130, 188, 83, 1, 0.588296
248, 1, wb, filler, NA, 999, 999, 1, 13, 81, 93, 161, 130, 188, 83, 2, 0.731205
248, 1, wb, filler, NA, 999, 999, 1, 14, 105, 57, 100, 150, 115, 133, 1, 0.707641
248, 1, wb, filler, NA, 999, 999, 1, 14, 105, 57, 100, 150, 115, 133, 3, 0.998038
248, 1, wb, attraction, a-b-db, 9, 1, 1, 15, 135, 60, 57, 129, 60, 135, 1, 0.843696
248, 1, wb, attraction, a-b-db, 9, 1, 1, 15, 135, 60, 57, 129, 60, 135, 3, 1.7847
248, 1, wb, attraction, a-b-db, 2, 2, 1, 16, 165, 90, 89, 163, 90, 165, 3, 0.846769
248, 1, wb, attraction, a-b-db, 2, 2, 1, 16, 165, 90, 89, 163, 90, 165, 1, 0.939897
248, 1, wb, filler, NA, 999, 999, 1, 17, 185, 118, 174, 78, 70, 152, 3, 1.47612
248, 1, wb, filler, NA, 999, 999, 1, 17, 185, 118, 174, 78, 70, 152, 1, 0.551622
248, 1, wb, catch, NA, 999, 999, 1, 18, 136, 179, 132, 123, 122, 73, 3, 0.935453
248, 1, wb, catch, NA, 999, 999, 1, 18, 136, 179, 132, 123, 122, 73, 1, 0.593205
248, 1, wb, attraction, a-b-da, 2, 3, 1, 19, 195, 120, 193, 119, 120, 195, 3, 1.02281
248, 1, wb, attraction, a-b-da, 2, 3, 1, 19, 195, 120, 193, 119, 120, 195, 1, 0.652503
248, 1, wb, catch, NA, 999, 999, 1, 20, 156, 99, 170, 145, 112, 83, 3, 0.968276
248, 1, wb, catch, NA, 999, 999, 1, 20, 156, 99, 170, 145, 112, 83, 2, 0.448658
248, 1, wb, attraction, a-b-db, 9, 2, 1, 21, 165, 90, 86, 157, 90, 165, 2, 3.04441
248, 1, wb, attraction, a-b-db, 9, 2, 1, 21, 165, 90, 86, 157, 90, 165, 3, 1.20075
248, 1, wb, attraction, a-b-db, 5, 3, 1, 22, 117, 190, 120, 195, 195, 120, 1, 3.81438
248, 1, wb, attraction, a-b-db, 5, 3, 1, 22, 117, 190, 120, 195, 195, 120, 2, 1.31582
248, 1, wb, filler, NA, 999, 999, 1, 23, 111, 115, 80, 183, 81, 132, 3, 3.27679
248, 1, wb, filler, NA, 999, 999, 1, 23, 111, 115, 80, 183, 81, 132, 2, 0.543603
248, 1, wb, attraction, a-b-db, 5, 2, 1, 24, 90, 165, 165, 90, 88, 161, 3, 1.56731
248, 1, wb, attraction, a-b-db, 5, 2, 1, 24, 90, 165, 165, 90, 88, 161, 1, 0.271464
248, 1, wb, filler, NA, 999, 999, 1, 25, 152, 163, 100, 106, 166, 113, 2, 0.78668
248, 1, wb, filler, NA, 999, 999, 1, 25, 152, 163, 100, 106, 166, 113, 1, 0.578409
248, 1, wb, attraction, a-b-db, 9, 3, 1, 26, 120, 195, 114, 186, 195, 120, 2, 1.23291
248, 1, wb, attraction, a-b-db, 9, 3, 1, 26, 120, 195, 114, 186, 195, 120, 3, 0.606391
248, 1, wb, filler, NA, 999, 999, 1, 27, 146, 58, 125, 178, 140, 191, 2, 0.564206
248, 1, wb, filler, NA, 999, 999, 1, 27, 146, 58, 125, 178, 140, 191, 1, 0.212878
248, 1, wb, attraction, a-b-da, 9, 3, 1, 28, 120, 195, 186, 114, 195, 120, 2, 1.56987
248, 1, wb, attraction, a-b-da, 9, 3, 1, 28, 120, 195, 186, 114, 195, 120, 3, 0.337992
248, 1, wb, attraction, a-b-db, 14, 1, 1, 29, 60, 135, 56, 125, 135, 60, 3, 1.21868
248, 1, wb, attraction, a-b-db, 14, 1, 1, 29, 60, 135, 56, 125, 135, 60, 1, 0.464746
248, 1, wb, attraction, a-b-da, 2, 1, 1, 30, 60, 135, 134, 59, 135, 60, 1, 1.74783
248, 1, wb, attraction, a-b-da, 2, 1, 1, 30, 60, 135, 134, 59, 135, 60, 2, 0.396771
248, 1, wb, attraction, a-b-da, 5, 1, 1, 31, 135, 60, 132, 58, 60, 135, 1, 1.79446
248, 1, wb, attraction, a-b-da, 5, 1, 1, 31, 135, 60, 132, 58, 60, 135, 3, 0.561162
248, 1, wb, attraction, a-b-db, 2, 1, 1, 32, 59, 134, 60, 135, 135, 60, 3, 1.93625
248, 1, wb, attraction, a-b-db, 2, 1, 1, 32, 59, 134, 60, 135, 135, 60, 2, 0.457774
248, 1, wb, attraction, a-b-da, 9, 1, 1, 33, 60, 135, 129, 57, 135, 60, 1, 1.0848
248, 1, wb, attraction, a-b-da, 9, 1, 1, 33, 60, 135, 129, 57, 135, 60, 2, 0.641389
248, 1, wb, filler, NA, 999, 999, 1, 34, 128, 56, 119, 160, 148, 66, 1, 0.868252
248, 1, wb, filler, NA, 999, 999, 1, 34, 128, 56, 119, 160, 148, 66, 2, 0.352591
248, 1, wb, attraction, a-b-db, 14, 3, 1, 35, 120, 195, 195, 120, 111, 181, 3, 1.40062
248, 1, wb, attraction, a-b-db, 14, 3, 1, 35, 120, 195, 195, 120, 111, 181, 2, 0.303371
248, 1, wb, attraction, a-b-da, 14, 3, 1, 36, 120, 195, 195, 120, 181, 111, 1, 2.44113
248, 1, wb, attraction, a-b-da, 14, 3, 1, 36, 120, 195, 195, 120, 181, 111, 2, 0.501614
248, 1, wb, attraction, a-b-da, 9, 2, 1, 37, 165, 90, 157, 86, 90, 165, 2, 0.927427
248, 1, wb, attraction, a-b-da, 9, 2, 1, 37, 165, 90, 157, 86, 90, 165, 3, 0.929154
248, 1, wb, attraction, a-b-db, 5, 1, 2, 1, 58, 132, 135, 60, 60, 135, 2, 2.60149
248, 1, wb, attraction, a-b-db, 5, 1, 2, 1, 58, 132, 135, 60, 60, 135, 3, 0.264004
248, 1, wb, attraction, a-b-da, 5, 2, 2, 2, 165, 90, 161, 88, 90, 165, 2, 1.01116
248, 1, wb, attraction, a-b-da, 5, 2, 2, 2, 165, 90, 161, 88, 90, 165, 1, 1.37749
248, 1, wb, filler, NA, 999, 999, 2, 3, 109, 161, 193, 96, 75, 99, 3, 3.27175
248, 1, wb, filler, NA, 999, 999, 2, 3, 109, 161, 193, 96, 75, 99, 1, 1.34669
248, 1, wb, attraction, a-b-da, 9, 3, 2, 4, 186, 114, 120, 195, 195, 120, 1, 2.22611
248, 1, wb, attraction, a-b-da, 9, 3, 2, 4, 186, 114, 120, 195, 195, 120, 3, 0.983533
248, 1, wb, filler, NA, 999, 999, 2, 5, 185, 67, 169, 149, 98, 162, 3, 3.24577
248, 1, wb, filler, NA, 999, 999, 2, 5, 185, 67, 169, 149, 98, 162, 2, 0.434009
248, 1, wb, catch, NA, 999, 999, 2, 6, 133, 62, 95, 160, 129, 186, 1, 0.926447
248, 1, wb, catch, NA, 999, 999, 2, 6, 133, 62, 95, 160, 129, 186, 2, 0.624152
248, 1, wb, filler, NA, 999, 999, 2, 7, 85, 71, 99, 102, 60, 160, 1, 1.72464
248, 1, wb, filler, NA, 999, 999, 2, 7, 85, 71, 99, 102, 60, 160, 2, 1.52595
248, 1, wb, attraction, a-b-db, 2, 2, 2, 8, 165, 90, 89, 163, 90, 165, 1, 2.40604
248, 1, wb, attraction, a-b-db, 2, 2, 2, 8, 165, 90, 89, 163, 90, 165, 3, 0.428065
248, 1, wb, attraction, a-b-db, 14, 2, 2, 9, 90, 165, 165, 90, 83, 153, 2, 0.648547
248, 1, wb, attraction, a-b-db, 14, 2, 2, 9, 90, 165, 165, 90, 83, 153, 1, 0.917487
248, 1, wb, attraction, a-b-da, 2, 1, 2, 10, 134, 59, 135, 60, 60, 135, 1, 1.83852
248, 1, wb, attraction, a-b-da, 2, 1, 2, 10, 134, 59, 135, 60, 60, 135, 3, 0.171236
248, 1, wb, attraction, a-b-db, 2, 1, 2, 11, 135, 60, 60, 135, 59, 134, 2, 2.77053
248, 1, wb, attraction, a-b-db, 2, 1, 2, 11, 135, 60, 60, 135, 59, 134, 1, 2.7543
248, 1, wb, attraction, a-b-db, 5, 3, 2, 12, 120, 195, 117, 190, 195, 120, 3, 3.98548
248, 1, wb, attraction, a-b-db, 5, 3, 2, 12, 120, 195, 117, 190, 195, 120, 1, 0.504127
248, 1, wb, attraction, a-b-db, 14, 3, 2, 13, 111, 181, 120, 195, 195, 120, 3, 0.826023
248, 1, wb, attraction, a-b-db, 14, 3, 2, 13, 111, 181, 120, 195, 195, 120, 1, 0.223515
248, 1, wb, attraction, a-b-da, 9, 2, 2, 14, 157, 86, 165, 90, 90, 165, 1, 1.02017
248, 1, wb, attraction, a-b-da, 9, 2, 2, 14, 157, 86, 165, 90, 90, 165, 3, 0.586439
248, 1, wb, catch, NA, 999, 999, 2, 15, 97, 98, 157, 158, 161, 94, 1, 1.05687
248, 1, wb, catch, NA, 999, 999, 2, 15, 97, 98, 157, 158, 161, 94, 2, 0.605172
248, 1, wb, attraction, a-b-da, 2, 2, 2, 16, 163, 89, 165, 90, 90, 165, 1, 0.650935
248, 1, wb, attraction, a-b-da, 2, 2, 2, 16, 163, 89, 165, 90, 90, 165, 2, 0.752122
248, 1, wb, attraction, a-b-da, 5, 1, 2, 17, 60, 135, 132, 58, 135, 60, 2, 0.783791
248, 1, wb, attraction, a-b-da, 5, 1, 2, 17, 60, 135, 132, 58, 135, 60, 3, 0.527657
248, 1, wb, filler, NA, 999, 999, 2, 18, 137, 100, 103, 117, 95, 134, 3, 0.751966
248, 1, wb, filler, NA, 999, 999, 2, 18, 137, 100, 103, 117, 95, 134, 1, 0.529132
248, 1, wb, attraction, a-b-da, 2, 3, 2, 19, 195, 120, 193, 119, 120, 195, 3, 1.02538
248, 1, wb, attraction, a-b-da, 2, 3, 2, 19, 195, 120, 193, 119, 120, 195, 1, 0.527066
248, 1, wb, attraction, a-b-da, 9, 1, 2, 20, 135, 60, 129, 57, 60, 135, 3, 0.823546
248, 1, wb, attraction, a-b-da, 9, 1, 2, 20, 135, 60, 129, 57, 60, 135, 2, 1.90933
248, 1, wb, attraction, a-b-db, 9, 1, 2, 21, 60, 135, 135, 60, 57, 129, 2, 0.581963
248, 1, wb, attraction, a-b-db, 9, 1, 2, 21, 60, 135, 135, 60, 57, 129, 3, 1.84571
248, 1, wb, attraction, a-b-db, 2, 3, 2, 22, 120, 195, 119, 193, 195, 120, 1, 1.59327
248, 1, wb, attraction, a-b-db, 2, 3, 2, 22, 120, 195, 119, 193, 195, 120, 3, 0.263905
248, 1, wb, attraction, a-b-da, 14, 3, 2, 23, 195, 120, 181, 111, 120, 195, 3, 1.53116
248, 1, wb, attraction, a-b-da, 14, 3, 2, 23, 195, 120, 181, 111, 120, 195, 1, 0.284521
248, 1, wb, filler, NA, 999, 999, 2, 24, 144, 166, 171, 71, 145, 81, 2, 1.49524
248, 1, wb, filler, NA, 999, 999, 2, 24, 144, 166, 171, 71, 145, 81, 1, 0.433957
248, 1, wb, filler, NA, 999, 999, 2, 25, 123, 130, 69, 84, 101, 122, 2, 0.646406
248, 1, wb, filler, NA, 999, 999, 2, 25, 123, 130, 69, 84, 101, 122, 1, 0.579562
248, 1, wb, attraction, a-b-db, 9, 2, 2, 26, 86, 157, 165, 90, 90, 165, 1, 1.234
248, 1, wb, attraction, a-b-db, 9, 2, 2, 26, 86, 157, 165, 90, 90, 165, 2, 0.463554
248, 1, wb, attraction, a-b-db, 5, 2, 2, 27, 90, 165, 88, 161, 165, 90, 2, 1.37077
248, 1, wb, attraction, a-b-db, 5, 2, 2, 27, 90, 165, 88, 161, 165, 90, 3, 0.354925
248, 1, wb, filler, NA, 999, 999, 2, 28, 124, 90, 60, 155, 161, 107, 2, 3.10669
248, 1, wb, filler, NA, 999, 999, 2, 28, 124, 90, 60, 155, 161, 107, 3, 0.508435
248, 1, wb, filler, NA, 999, 999, 2, 29, 129, 105, 102, 171, 177, 194, 1, 0.797497
248, 1, wb, filler, NA, 999, 999, 2, 29, 129, 105, 102, 171, 177, 194, 3, 0.324599
248, 1, wb, filler, NA, 999, 999, 2, 30, 104, 124, 125, 140, 95, 76, 3, 1.08514
248, 1, wb, filler, NA, 999, 999, 2, 30, 104, 124, 125, 140, 95, 76, 2, 0.336783
248, 1, wb, attraction, a-b-da, 5, 3, 2, 31, 120, 195, 190, 117, 195, 120, 2, 3.04115
248, 1, wb, attraction, a-b-da, 5, 3, 2, 31, 120, 195, 190, 117, 195, 120, 1, 0.597492
248, 1, wb, catch, NA, 999, 999, 2, 32, 112, 143, 188, 127, 122, 73, 3, 3.41134
248, 1, wb, catch, NA, 999, 999, 2, 32, 112, 143, 188, 127, 122, 73, 2, 0.368846
248, 1, wb, attraction, a-b-da, 14, 2, 2, 33, 153, 83, 165, 90, 90, 165, 3, 1.32001
248, 1, wb, attraction, a-b-da, 14, 2, 2, 33, 153, 83, 165, 90, 90, 165, 2, 1.62627
248, 1, wb, filler, NA, 999, 999, 2, 34, 162, 69, 132, 112, 96, 90, 3, 2.03832
248, 1, wb, filler, NA, 999, 999, 2, 34, 162, 69, 132, 112, 96, 90, 2, 0.555711
248, 1, wb, attraction, a-b-db, 9, 3, 2, 35, 195, 120, 114, 186, 120, 195, 2, 5.21961
248, 1, wb, attraction, a-b-db, 9, 3, 2, 35, 195, 120, 114, 186, 120, 195, 1, 0.520609
248, 1, wb, attraction, a-b-da, 14, 1, 2, 36, 60, 135, 125, 56, 135, 60, 2, 1.10563
248, 1, wb, attraction, a-b-da, 14, 1, 2, 36, 60, 135, 125, 56, 135, 60, 3, 3.27594
248, 1, wb, attraction, a-b-db, 14, 1, 2, 37, 56, 125, 60, 135, 135, 60, 1, 1.14156
248, 1, wb, attraction, a-b-db, 14, 1, 2, 37, 56, 125, 60, 135, 135, 60, 3, 0.310519
248, 1, wb, attraction, a-b-da, 2, 1, 3, 1, 60, 135, 135, 60, 134, 59, 1, 1.05577
248, 1, wb, attraction, a-b-da, 2, 1, 3, 1, 60, 135, 135, 60, 134, 59, 2, 0.940076
248, 1, wb, filler, NA, 999, 999, 3, 2, 151, 182, 59, 85, 175, 172, 2, 1.16373
248, 1, wb, filler, NA, 999, 999, 3, 2, 151, 182, 59, 85, 175, 172, 1, 0.227884
248, 1, wb, attraction, a-b-da, 9, 2, 3, 3, 157, 86, 90, 165, 165, 90, 2, 1.60033
248, 1, wb, attraction, a-b-da, 9, 2, 3, 3, 157, 86, 90, 165, 165, 90, 3, 2.67117
248, 1, wb, attraction, a-b-da, 14, 1, 3, 4, 125, 56, 60, 135, 135, 60, 2, 0.969671
248, 1, wb, attraction, a-b-da, 14, 1, 3, 4, 125, 56, 60, 135, 135, 60, 3, 2.70606
248, 1, wb, attraction, a-b-da, 5, 3, 3, 5, 190, 117, 195, 120, 120, 195, 3, 1.20313
248, 1, wb, attraction, a-b-da, 5, 3, 3, 5, 190, 117, 195, 120, 120, 195, 2, 2.08998
248, 1, wb, filler, NA, 999, 999, 3, 6, 153, 101, 113, 124, 168, 98, 1, 2.17193
248, 1, wb, filler, NA, 999, 999, 3, 6, 153, 101, 113, 124, 168, 98, 3, 5.50727
248, 1, wb, attraction, a-b-db, 5, 2, 3, 7, 165, 90, 88, 161, 90, 165, 1, 1.04352
248, 1, wb, attraction, a-b-db, 5, 2, 3, 7, 165, 90, 88, 161, 90, 165, 3, 1.84842
248, 1, wb, attraction, a-b-db, 5, 3, 3, 8, 120, 195, 195, 120, 117, 190, 2, 0.667809
248, 1, wb, attraction, a-b-db, 5, 3, 3, 8, 120, 195, 195, 120, 117, 190, 3, 0.93923
248, 1, wb, attraction, a-b-db, 14, 2, 3, 9, 83, 153, 165, 90, 90, 165, 3, 0.608556
248, 1, wb, attraction, a-b-db, 14, 2, 3, 9, 83, 153, 165, 90, 90, 165, 1, 0.398997
248, 1, wb, attraction, a-b-da, 14, 3, 3, 10, 195, 120, 181, 111, 120, 195, 3, 0.428765
248, 1, wb, attraction, a-b-da, 14, 3, 3, 10, 195, 120, 181, 111, 120, 195, 2, 0.458722
248, 1, wb, attraction, a-b-db, 5, 1, 3, 11, 135, 60, 60, 135, 58, 132, 2, 1.09061
248, 1, wb, attraction, a-b-db, 5, 1, 3, 11, 135, 60, 60, 135, 58, 132, 1, 0.82471
248, 1, wb, attraction, a-b-da, 5, 1, 3, 12, 135, 60, 60, 135, 132, 58, 2, 0.349186
248, 1, wb, attraction, a-b-da, 5, 1, 3, 12, 135, 60, 60, 135, 132, 58, 1, 1.86234
248, 1, wb, attraction, a-b-db, 2, 1, 3, 13, 60, 135, 59, 134, 135, 60, 1, 3.729
248, 1, wb, attraction, a-b-db, 2, 1, 3, 13, 60, 135, 59, 134, 135, 60, 2, 0.553787
248, 1, wb, filler, NA, 999, 999, 3, 14, 192, 193, 73, 156, 148, 138, 2, 0.913609
248, 1, wb, filler, NA, 999, 999, 3, 14, 192, 193, 73, 156, 148, 138, 1, 0.380006
248, 1, wb, attraction, a-b-da, 9, 3, 3, 15, 120, 195, 195, 120, 186, 114, 3, 6.33043
248, 1, wb, attraction, a-b-da, 9, 3, 3, 15, 120, 195, 195, 120, 186, 114, 1, 0.490513
248, 1, wb, filler, NA, 999, 999, 3, 16, 111, 191, 77, 59, 112, 59, 2, 0.62822
248, 1, wb, filler, NA, 999, 999, 3, 16, 111, 191, 77, 59, 112, 59, 1, 0.610007
248, 1, wb, catch, NA, 999, 999, 3, 17, 145, 110, 90, 105, 168, 147, 2, 2.71911
248, 1, wb, catch, NA, 999, 999, 3, 17, 145, 110, 90, 105, 168, 147, 3, 0.344962
248, 1, wb, filler, NA, 999, 999, 3, 18, 64, 103, 150, 158, 188, 62, 2, 0.552682
248, 1, wb, filler, NA, 999, 999, 3, 18, 64, 103, 150, 158, 188, 62, 1, 3.54592
248, 1, wb, attraction, a-b-db, 14, 1, 3, 19, 60, 135, 135, 60, 56, 125, 2, 2.45674
248, 1, wb, attraction, a-b-db, 14, 1, 3, 19, 60, 135, 135, 60, 56, 125, 1, 0.580571
248, 1, wb, filler, NA, 999, 999, 3, 20, 139, 110, 125, 144, 142, 183, 1, 3.22696
248, 1, wb, filler, NA, 999, 999, 3, 20, 139, 110, 125, 144, 142, 183, 3, 0.39189
248, 1, wb, catch, NA, 999, 999, 3, 21, 125, 70, 125, 130, 168, 147, 1, 1.97369
248, 1, wb, catch, NA, 999, 999, 3, 21, 125, 70, 125, 130, 168, 147, 3, 1.45306
248, 1, wb, attraction, a-b-db, 14, 3, 3, 22, 195, 120, 111, 181, 120, 195, 2, 1.97663
248, 1, wb, attraction, a-b-db, 14, 3, 3, 22, 195, 120, 111, 181, 120, 195, 3, 3.33597
248, 1, wb, attraction, a-b-db, 2, 2, 3, 23, 89, 163, 90, 165, 165, 90, 1, 1.57551
248, 1, wb, attraction, a-b-db, 2, 2, 3, 23, 89, 163, 90, 165, 165, 90, 2, 2.38302
248, 1, wb, attraction, a-b-da, 5, 2, 3, 24, 161, 88, 90, 165, 165, 90, 1, 3.7489
248, 1, wb, attraction, a-b-da, 5, 2, 3, 24, 161, 88, 90, 165, 165, 90, 2, 1.06094
248, 1, wb, attraction, a-b-da, 2, 2, 3, 25, 165, 90, 163, 89, 90, 165, 2, 3.31187
248, 1, wb, attraction, a-b-da, 2, 2, 3, 25, 165, 90, 163, 89, 90, 165, 1, 1.56954
248, 1, wb, catch, NA, 999, 999, 3, 26, 113, 142, 129, 66, 127, 188, 2, 1.04837
248, 1, wb, catch, NA, 999, 999, 3, 26, 113, 142, 129, 66, 127, 188, 3, 0.42136
248, 1, wb, filler, NA, 999, 999, 3, 27, 112, 179, 142, 76, 123, 186, 2, 0.826507
248, 1, wb, filler, NA, 999, 999, 3, 27, 112, 179, 142, 76, 123, 186, 3, 1.60808
248, 1, wb, attraction, a-b-da, 14, 2, 3, 28, 90, 165, 153, 83, 165, 90, 2, 2.74091
248, 1, wb, attraction, a-b-da, 14, 2, 3, 28, 90, 165, 153, 83, 165, 90, 1, 1.50953
248, 1, wb, filler, NA, 999, 999, 3, 29, 128, 106, 65, 174, 94, 118, 3, 6.99029
248, 1, wb, filler, NA, 999, 999, 3, 29, 128, 106, 65, 174, 94, 118, 1, 1.02726
248, 1, wb, attraction, a-b-db, 9, 1, 3, 30, 60, 135, 135, 60, 57, 129, 1, 7.59952
248, 1, wb, attraction, a-b-db, 9, 1, 3, 30, 60, 135, 135, 60, 57, 129, 2, 0.372629
248, 1, wb, attraction, a-b-db, 9, 2, 3, 31, 86, 157, 165, 90, 90, 165, 1, 1.66773
248, 1, wb, attraction, a-b-db, 9, 2, 3, 31, 86, 157, 165, 90, 90, 165, 3, 0.41577
248, 1, wb, attraction, a-b-db, 2, 3, 3, 32, 195, 120, 120, 195, 119, 193, 1, 2.48488
248, 1, wb, attraction, a-b-db, 2, 3, 3, 32, 195, 120, 120, 195, 119, 193, 2, 1.63232
248, 1, wb, filler, NA, 999, 999, 3, 33, 164, 153, 59, 140, 68, 88, 3, 2.12424
248, 1, wb, filler, NA, 999, 999, 3, 33, 164, 153, 59, 140, 68, 88, 1, 0.293561
248, 1, wb, attraction, a-b-da, 2, 3, 3, 34, 193, 119, 195, 120, 120, 195, 1, 1.20735
248, 1, wb, attraction, a-b-da, 2, 3, 3, 34, 193, 119, 195, 120, 120, 195, 3, 0.549758
248, 1, wb, attraction, a-b-db, 9, 3, 3, 35, 195, 120, 120, 195, 114, 186, 1, 2.13355
248, 1, wb, attraction, a-b-db, 9, 3, 3, 35, 195, 120, 120, 195, 114, 186, 2, 2.39874
248, 1, wb, filler, NA, 999, 999, 3, 36, 179, 162, 61, 170, 97, 128, 2, 1.57194
248, 1, wb, filler, NA, 999, 999, 3, 36, 179, 162, 61, 170, 97, 128, 1, 0.26741
248, 1, wb, attraction, a-b-da, 9, 1, 3, 37, 135, 60, 129, 57, 60, 135, 2, 2.3746
248, 1, wb, attraction, a-b-da, 9, 1, 3, 37, 135, 60, 129, 57, 60, 135, 3, 3.12584
248, 1, wb, filler, NA, 999, 999, 4, 1, 162, 186, 146, 171, 170, 147, 2, 4.34152
248, 1, wb, filler, NA, 999, 999, 4, 1, 162, 186, 146, 171, 170, 147, 1, 0.973483
248, 1, wb, catch, NA, 999, 999, 4, 2, 151, 164, 113, 142, 119, 76, 3, 0.811723
248, 1, wb, catch, NA, 999, 999, 4, 2, 151, 164, 113, 142, 119, 76, 1, 0.778239
248, 1, wb, attraction, a-b-db, 14, 3, 4, 3, 120, 195, 195, 120, 111, 181, 3, 7.10444
248, 1, wb, attraction, a-b-db, 14, 3, 4, 3, 120, 195, 195, 120, 111, 181, 1, 1.15354
248, 1, wb, filler, NA, 999, 999, 4, 4, 132, 92, 186, 64, 56, 76, 3, 3.24117
248, 1, wb, filler, NA, 999, 999, 4, 4, 132, 92, 186, 64, 56, 76, 2, 1.75753
248, 1, wb, attraction, a-b-db, 9, 3, 4, 5, 120, 195, 195, 120, 114, 186, 3, 4.35613
248, 1, wb, attraction, a-b-db, 9, 3, 4, 5, 120, 195, 195, 120, 114, 186, 1, 1.01943
248, 1, wb, attraction, a-b-da, 2, 3, 4, 6, 193, 119, 195, 120, 120, 195, 2, 1.44038
248, 1, wb, attraction, a-b-da, 2, 3, 4, 6, 193, 119, 195, 120, 120, 195, 1, 2.26928
248, 1, wb, catch, NA, 999, 999, 4, 7, 190, 125, 120, 135, 72, 123, 3, 1.07998
248, 1, wb, catch, NA, 999, 999, 4, 7, 190, 125, 120, 135, 72, 123, 1, 0.395597
248, 1, wb, attraction, a-b-da, 5, 1, 4, 8, 60, 135, 132, 58, 135, 60, 2, 1.60935
248, 1, wb, attraction, a-b-da, 5, 1, 4, 8, 60, 135, 132, 58, 135, 60, 3, 0.191376
248, 1, wb, attraction, a-b-db, 14, 1, 4, 9, 135, 60, 56, 125, 60, 135, 2, 1.32548
248, 1, wb, attraction, a-b-db, 14, 1, 4, 9, 135, 60, 56, 125, 60, 135, 1, 0.502813
248, 1, wb, attraction, a-b-db, 5, 3, 4, 10, 120, 195, 117, 190, 195, 120, 3, 0.60866
248, 1, wb, attraction, a-b-db, 5, 3, 4, 10, 120, 195, 117, 190, 195, 120, 1, 0.463114
248, 1, wb, attraction, a-b-db, 5, 2, 4, 11, 90, 165, 88, 161, 165, 90, 1, 7.15418
248, 1, wb, attraction, a-b-db, 5, 2, 4, 11, 90, 165, 88, 161, 165, 90, 3, 0.905294
248, 1, wb, attraction, a-b-da, 14, 3, 4, 12, 181, 111, 195, 120, 120, 195, 2, 0.810916
248, 1, wb, attraction, a-b-da, 14, 3, 4, 12, 181, 111, 195, 120, 120, 195, 1, 0.841339
248, 1, wb, attraction, a-b-db, 2, 2, 4, 13, 165, 90, 90, 165, 89, 163, 1, 2.42101
248, 1, wb, attraction, a-b-db, 2, 2, 4, 13, 165, 90, 90, 165, 89, 163, 3, 0.739007
248, 1, wb, attraction, a-b-da, 9, 3, 4, 14, 195, 120, 186, 114, 120, 195, 1, 3.01122
248, 1, wb, attraction, a-b-da, 9, 3, 4, 14, 195, 120, 186, 114, 120, 195, 2, 0.560944
248, 1, wb, filler, NA, 999, 999, 4, 15, 194, 121, 95, 92, 67, 84, 3, 1.28805
248, 1, wb, filler, NA, 999, 999, 4, 15, 194, 121, 95, 92, 67, 84, 1, 0.931713
248, 1, wb, filler, NA, 999, 999, 4, 16, 134, 60, 168, 148, 144, 134, 1, 1.33193
248, 1, wb, filler, NA, 999, 999, 4, 16, 134, 60, 168, 148, 144, 134, 2, 0.373566
248, 1, wb, attraction, a-b-db, 2, 3, 4, 17, 120, 195, 195, 120, 119, 193, 3, 5.40412
248, 1, wb, attraction, a-b-db, 2, 3, 4, 17, 120, 195, 195, 120, 119, 193, 1, 1.29768
248, 1, wb, attraction, a-b-da, 2, 2, 4, 18, 90, 165, 163, 89, 165, 90, 3, 3.99534
248, 1, wb, attraction, a-b-da, 2, 2, 4, 18, 90, 165, 163, 89, 165, 90, 1, 1.44125
248, 1, wb, catch, NA, 999, 999, 4, 19, 165, 90, 133, 62, 178, 137, 2, 1.26075
248, 1, wb, catch, NA, 999, 999, 4, 19, 165, 90, 133, 62, 178, 137, 3, 0.344963
248, 1, wb, attraction, a-b-db, 9, 2, 4, 20, 86, 157, 90, 165, 165, 90, 3, 1.84081
248, 1, wb, attraction, a-b-db, 9, 2, 4, 20, 86, 157, 90, 165, 165, 90, 1, 1.30166
248, 1, wb, attraction, a-b-db, 2, 1, 4, 21, 59, 134, 135, 60, 60, 135, 2, 2.75118
248, 1, wb, attraction, a-b-db, 2, 1, 4, 21, 59, 134, 135, 60, 60, 135, 1, 0.663547
248, 1, wb, attraction, a-b-db, 5, 1, 4, 22, 135, 60, 58, 132, 60, 135, 2, 4.58649
248, 1, wb, attraction, a-b-db, 5, 1, 4, 22, 135, 60, 58, 132, 60, 135, 3, 1.65717
248, 1, wb, filler, NA, 999, 999, 4, 23, 75, 147, 126, 116, 70, 116, 3, 1.29983
248, 1, wb, filler, NA, 999, 999, 4, 23, 75, 147, 126, 116, 70, 116, 1, 1.48684
248, 1, wb, attraction, a-b-da, 5, 3, 4, 24, 120, 195, 190, 117, 195, 120, 2, 2.68092
248, 1, wb, attraction, a-b-da, 5, 3, 4, 24, 120, 195, 190, 117, 195, 120, 3, 0.372132
248, 1, wb, attraction, a-b-db, 14, 2, 4, 25, 165, 90, 90, 165, 83, 153, 2, 1.69913
248, 1, wb, attraction, a-b-db, 14, 2, 4, 25, 165, 90, 90, 165, 83, 153, 3, 0.749991
248, 1, wb, attraction, a-b-da, 14, 2, 4, 26, 165, 90, 153, 83, 90, 165, 3, 4.72575
248, 1, wb, attraction, a-b-da, 14, 2, 4, 26, 165, 90, 153, 83, 90, 165, 1, 1.00613
248, 1, wb, attraction, a-b-da, 14, 1, 4, 27, 125, 56, 60, 135, 135, 60, 1, 2.65171
248, 1, wb, attraction, a-b-da, 14, 1, 4, 27, 125, 56, 60, 135, 135, 60, 3, 0.89629
248, 1, wb, filler, NA, 999, 999, 4, 28, 103, 87, 65, 195, 188, 154, 1, 0.713939
248, 1, wb, filler, NA, 999, 999, 4, 28, 103, 87, 65, 195, 188, 154, 3, 0.356313
248, 1, wb, attraction, a-b-da, 2, 1, 4, 29, 134, 59, 135, 60, 60, 135, 3, 2.65233
248, 1, wb, attraction, a-b-da, 2, 1, 4, 29, 134, 59, 135, 60, 60, 135, 1, 0.504677
248, 1, wb, attraction, a-b-da, 9, 1, 4, 30, 129, 57, 60, 135, 135, 60, 3, 1.28251
248, 1, wb, attraction, a-b-da, 9, 1, 4, 30, 129, 57, 60, 135, 135, 60, 2, 2.34298
248, 1, wb, attraction, a-b-da, 5, 2, 4, 31, 165, 90, 90, 165, 161, 88, 2, 1.18123
248, 1, wb, attraction, a-b-da, 5, 2, 4, 31, 165, 90, 90, 165, 161, 88, 1, 2.60497
248, 1, wb, filler, NA, 999, 999, 4, 32, 190, 117, 67, 79, 174, 129, 2, 1.50596
248, 1, wb, filler, NA, 999, 999, 4, 32, 190, 117, 67, 79, 174, 129, 1, 0.276204
248, 1, wb, filler, NA, 999, 999, 4, 33, 181, 77, 163, 179, 192, 89, 1, 1.37478
248, 1, wb, filler, NA, 999, 999, 4, 33, 181, 77, 163, 179, 192, 89, 2, 0.526255
248, 1, wb, filler, NA, 999, 999, 4, 34, 189, 135, 183, 159, 88, 179, 3, 1.21468
248, 1, wb, filler, NA, 999, 999, 4, 34, 189, 135, 183, 159, 88, 179, 2, 2.89306
248, 1, wb, filler, NA, 999, 999, 4, 35, 63, 57, 100, 99, 164, 163, 1, 0.885945
248, 1, wb, filler, NA, 999, 999, 4, 35, 63, 57, 100, 99, 164, 163, 3, 0.457602
248, 1, wb, attraction, a-b-da, 9, 2, 4, 36, 165, 90, 157, 86, 90, 165, 2, 3.95677
248, 1, wb, attraction, a-b-da, 9, 2, 4, 36, 165, 90, 157, 86, 90, 165, 1, 0.292178
248, 1, wb, attraction, a-b-db, 9, 1, 4, 37, 135, 60, 57, 129, 60, 135, 2, 4.62209
248, 1, wb, attraction, a-b-db, 9, 1, 4, 37, 135, 60, 57, 129, 60, 135, 1, 1.81129
248, 1, wb, attraction, a-b-db, 9, 3, 5, 1, 120, 195, 195, 120, 114, 186, 3, 9.52657
248, 1, wb, attraction, a-b-db, 9, 3, 5, 1, 120, 195, 195, 120, 114, 186, 1, 1.69373
248, 1, wb, catch, NA, 999, 999, 5, 2, 185, 130, 150, 105, 72, 123, 3, 1.35897
248, 1, wb, catch, NA, 999, 999, 5, 2, 185, 130, 150, 105, 72, 123, 1, 0.719195
248, 1, wb, attraction, a-b-da, 9, 2, 5, 3, 157, 86, 90, 165, 165, 90, 1, 1.84028
248, 1, wb, attraction, a-b-da, 9, 2, 5, 3, 157, 86, 90, 165, 165, 90, 3, 1.04491
248, 1, wb, filler, NA, 999, 999, 5, 4, 82, 75, 163, 63, 144, 60, 1, 1.5445
248, 1, wb, filler, NA, 999, 999, 5, 4, 82, 75, 163, 63, 144, 60, 2, 0.633331
248, 1, wb, catch, NA, 999, 999, 5, 5, 165, 90, 63, 132, 165, 150, 2, 0.893827
248, 1, wb, catch, NA, 999, 999, 5, 5, 165, 90, 63, 132, 165, 150, 3, 0.320858
248, 1, wb, filler, NA, 999, 999, 5, 6, 178, 168, 56, 145, 186, 103, 2, 0.61813
248, 1, wb, filler, NA, 999, 999, 5, 6, 178, 168, 56, 145, 186, 103, 1, 0.352419
248, 1, wb, filler, NA, 999, 999, 5, 7, 136, 99, 102, 185, 62, 93, 3, 0.816244
248, 1, wb, filler, NA, 999, 999, 5, 7, 136, 99, 102, 185, 62, 93, 2, 0.430675
248, 1, wb, attraction, a-b-da, 5, 1, 5, 8, 60, 135, 132, 58, 135, 60, 2, 2.25111
248, 1, wb, attraction, a-b-da, 5, 1, 5, 8, 60, 135, 132, 58, 135, 60, 1, 1.03181
248, 1, wb, attraction, a-b-db, 5, 3, 5, 9, 120, 195, 117, 190, 195, 120, 3, 4.73203
248, 1, wb, attraction, a-b-db, 5, 3, 5, 9, 120, 195, 117, 190, 195, 120, 1, 1.30857
248, 1, wb, attraction, a-b-db, 2, 1, 5, 10, 60, 135, 59, 134, 135, 60, 1, 6.82141
248, 1, wb, attraction, a-b-db, 2, 1, 5, 10, 60, 135, 59, 134, 135, 60, 3, 0.841945
248, 1, wb, filler, NA, 999, 999, 5, 11, 134, 69, 123, 134, 114, 122, 1, 0.97357
248, 1, wb, filler, NA, 999, 999, 5, 11, 134, 69, 123, 134, 114, 122, 2, 0.357211
248, 1, wb, attraction, a-b-da, 14, 2, 5, 12, 153, 83, 165, 90, 90, 165, 2, 0.8365
248, 1, wb, attraction, a-b-da, 14, 2, 5, 12, 153, 83, 165, 90, 90, 165, 1, 0.810294
248, 1, wb, attraction, a-b-db, 5, 1, 5, 13, 135, 60, 58, 132, 60, 135, 2, 6.58325
248, 1, wb, attraction, a-b-db, 5, 1, 5, 13, 135, 60, 58, 132, 60, 135, 3, 0.845074
248, 1, wb, attraction, a-b-da, 9, 3, 5, 14, 195, 120, 186, 114, 120, 195, 2, 2.76087
248, 1, wb, attraction, a-b-da, 9, 3, 5, 14, 195, 120, 186, 114, 120, 195, 3, 0.632471
248, 1, wb, attraction, a-b-db, 14, 3, 5, 15, 111, 181, 120, 195, 195, 120, 1, 0.75709
248, 1, wb, attraction, a-b-db, 14, 3, 5, 15, 111, 181, 120, 195, 195, 120, 2, 1.8711
248, 1, wb, attraction, a-b-da, 14, 1, 5, 16, 60, 135, 125, 56, 135, 60, 2, 4.48012
248, 1, wb, attraction, a-b-da, 14, 1, 5, 16, 60, 135, 125, 56, 135, 60, 3, 1.60262
248, 1, wb, attraction, a-b-da, 5, 3, 5, 17, 195, 120, 120, 195, 190, 117, 3, 8.89605
248, 1, wb, attraction, a-b-da, 5, 3, 5, 17, 195, 120, 120, 195, 190, 117, 2, 0.616648
248, 1, wb, attraction, a-b-db, 14, 2, 5, 18, 83, 153, 165, 90, 90, 165, 2, 2.62971
248, 1, wb, attraction, a-b-db, 14, 2, 5, 18, 83, 153, 165, 90, 90, 165, 1, 0.498696
248, 1, wb, attraction, a-b-da, 5, 2, 5, 19, 90, 165, 165, 90, 161, 88, 1, 0.924675
248, 1, wb, attraction, a-b-da, 5, 2, 5, 19, 90, 165, 165, 90, 161, 88, 2, 0.222337
248, 1, wb, attraction, a-b-da, 9, 1, 5, 20, 129, 57, 60, 135, 135, 60, 2, 1.29142
248, 1, wb, attraction, a-b-da, 9, 1, 5, 20, 129, 57, 60, 135, 135, 60, 3, 0.182338
248, 1, wb, filler, NA, 999, 999, 5, 21, 87, 187, 122, 103, 123, 67, 3, 1.36509
248, 1, wb, filler, NA, 999, 999, 5, 21, 87, 187, 122, 103, 123, 67, 1, 0.221235
248, 1, wb, attraction, a-b-da, 2, 2, 5, 22, 165, 90, 90, 165, 163, 89, 1, 1.41832
248, 1, wb, attraction, a-b-da, 2, 2, 5, 22, 165, 90, 90, 165, 163, 89, 2, 0.176557
248, 1, wb, filler, NA, 999, 999, 5, 23, 83, 77, 169, 94, 159, 162, 1, 1.21526
248, 1, wb, filler, NA, 999, 999, 5, 23, 83, 77, 169, 94, 159, 162, 3, 0.189411
248, 1, wb, attraction, a-b-db, 9, 2, 5, 24, 86, 157, 165, 90, 90, 165, 3, 1.15595
248, 1, wb, attraction, a-b-db, 9, 2, 5, 24, 86, 157, 165, 90, 90, 165, 2, 2.38021
248, 1, wb, attraction, a-b-da, 2, 1, 5, 25, 134, 59, 135, 60, 60, 135, 2, 2.32211
248, 1, wb, attraction, a-b-da, 2, 1, 5, 25, 134, 59, 135, 60, 60, 135, 3, 0.51532
248, 1, wb, catch, NA, 999, 999, 5, 26, 149, 166, 71, 124, 147, 108, 2, 1.86849
248, 1, wb, catch, NA, 999, 999, 5, 26, 149, 166, 71, 124, 147, 108, 1, 0.288461
248, 1, wb, attraction, a-b-db, 5, 2, 5, 27, 165, 90, 88, 161, 90, 165, 3, 5.55503
248, 1, wb, attraction, a-b-db, 5, 2, 5, 27, 165, 90, 88, 161, 90, 165, 2, 0.794554
248, 1, wb, filler, NA, 999, 999, 5, 28, 141, 81, 95, 138, 91, 64, 3, 0.936352
248, 1, wb, filler, NA, 999, 999, 5, 28, 141, 81, 95, 138, 91, 64, 2, 0.937936
248, 1, wb, attraction, a-b-da, 14, 3, 5, 29, 195, 120, 181, 111, 120, 195, 2, 1.87424
248, 1, wb, attraction, a-b-da, 14, 3, 5, 29, 195, 120, 181, 111, 120, 195, 1, 0.917732
248, 1, wb, attraction, a-b-da, 2, 3, 5, 30, 193, 119, 195, 120, 120, 195, 1, 4.48662
248, 1, wb, attraction, a-b-da, 2, 3, 5, 30, 193, 119, 195, 120, 120, 195, 3, 0.457171
248, 1, wb, filler, NA, 999, 999, 5, 31, 151, 126, 81, 158, 79, 107, 3, 0.972323
248, 1, wb, filler, NA, 999, 999, 5, 31, 151, 126, 81, 158, 79, 107, 1, 0.291981
248, 1, wb, attraction, a-b-db, 9, 1, 5, 32, 57, 129, 135, 60, 60, 135, 2, 0.917795
248, 1, wb, attraction, a-b-db, 9, 1, 5, 32, 57, 129, 135, 60, 60, 135, 3, 0.488159
248, 1, wb, attraction, a-b-db, 2, 2, 5, 33, 165, 90, 90, 165, 89, 163, 1, 1.72273
248, 1, wb, attraction, a-b-db, 2, 2, 5, 33, 165, 90, 90, 165, 89, 163, 2, 1.01212
248, 1, wb, filler, NA, 999, 999, 5, 34, 89, 139, 77, 107, 59, 98, 3, 0.833101
248, 1, wb, filler, NA, 999, 999, 5, 34, 89, 139, 77, 107, 59, 98, 1, 0.494732
248, 1, wb, filler, NA, 999, 999, 5, 35, 66, 150, 188, 127, 90, 162, 1, 0.840496
248, 1, wb, filler, NA, 999, 999, 5, 35, 66, 150, 188, 127, 90, 162, 3, 0.917648
248, 1, wb, attraction, a-b-db, 14, 1, 5, 36, 60, 135, 135, 60, 56, 125, 2, 0.734684
248, 1, wb, attraction, a-b-db, 14, 1, 5, 36, 60, 135, 135, 60, 56, 125, 1, 0.784328
248, 1, wb, attraction, a-b-db, 2, 3, 5, 37, 119, 193, 195, 120, 120, 195, 1, 2.10265
248, 1, wb, attraction, a-b-db, 2, 3, 5, 37, 119, 193, 195, 120, 120, 195, 3, 0.225343
248, 1, wb, catch, NA, 999, 999, 6, 1, 114, 81, 120, 195, 108, 147, 1, 0.957926
248, 1, wb, catch, NA, 999, 999, 6, 1, 114, 81, 120, 195, 108, 147, 2, 0.71823
248, 1, wb, attraction, a-b-da, 5, 2, 6, 2, 161, 88, 165, 90, 90, 165, 3, 0.631301
248, 1, wb, attraction, a-b-da, 5, 2, 6, 2, 161, 88, 165, 90, 90, 165, 2, 0.541051
248, 1, wb, filler, NA, 999, 999, 6, 3, 195, 140, 120, 63, 187, 161, 2, 0.732763
248, 1, wb, filler, NA, 999, 999, 6, 3, 195, 140, 120, 63, 187, 161, 3, 0.534696
248, 1, wb, attraction, a-b-db, 9, 2, 6, 4, 90, 165, 165, 90, 86, 157, 2, 0.766944
248, 1, wb, attraction, a-b-db, 9, 2, 6, 4, 90, 165, 165, 90, 86, 157, 3, 1.01545
248, 1, wb, attraction, a-b-db, 14, 2, 6, 5, 90, 165, 165, 90, 83, 153, 3, 1.12439
248, 1, wb, attraction, a-b-db, 14, 2, 6, 5, 90, 165, 165, 90, 83, 153, 2, 0.653971
248, 1, wb, attraction, a-b-da, 5, 1, 6, 6, 60, 135, 132, 58, 135, 60, 2, 0.66565
248, 1, wb, attraction, a-b-da, 5, 1, 6, 6, 60, 135, 132, 58, 135, 60, 1, 0.798136
248, 1, wb, attraction, a-b-db, 2, 3, 6, 7, 120, 195, 119, 193, 195, 120, 1, 0.635799
248, 1, wb, attraction, a-b-db, 2, 3, 6, 7, 120, 195, 119, 193, 195, 120, 2, 0.681554
248, 1, wb, attraction, a-b-db, 14, 1, 6, 8, 135, 60, 56, 125, 60, 135, 3, 0.835974
248, 1, wb, attraction, a-b-db, 14, 1, 6, 8, 135, 60, 56, 125, 60, 135, 2, 0.697757
248, 1, wb, attraction, a-b-da, 14, 3, 6, 9, 195, 120, 181, 111, 120, 195, 2, 0.72351
248, 1, wb, attraction, a-b-da, 14, 3, 6, 9, 195, 120, 181, 111, 120, 195, 3, 0.237256
248, 1, wb, catch, NA, 999, 999, 6, 10, 97, 98, 150, 165, 122, 133, 1, 1.06568
248, 1, wb, catch, NA, 999, 999, 6, 10, 97, 98, 150, 165, 122, 133, 2, 0.230013
248, 1, wb, attraction, a-b-da, 14, 1, 6, 11, 135, 60, 60, 135, 125, 56, 2, 0.754575
248, 1, wb, attraction, a-b-da, 14, 1, 6, 11, 135, 60, 60, 135, 125, 56, 1, 0.210944
248, 1, wb, attraction, a-b-da, 9, 2, 6, 12, 157, 86, 90, 165, 165, 90, 1, 1.77637
248, 1, wb, attraction, a-b-da, 9, 2, 6, 12, 157, 86, 90, 165, 165, 90, 2, 0.879684
248, 1, wb, filler, NA, 999, 999, 6, 13, 89, 139, 111, 134, 151, 135, 2, 0.881896
248, 1, wb, filler, NA, 999, 999, 6, 13, 89, 139, 111, 134, 151, 135, 3, 0.189584
248, 1, wb, catch, NA, 999, 999, 6, 14, 126, 189, 113, 142, 69, 126, 3, 1.85218
248, 1, wb, catch, NA, 999, 999, 6, 14, 126, 189, 113, 142, 69, 126, 1, 0.649027
248, 1, wb, attraction, a-b-da, 2, 1, 6, 15, 134, 59, 135, 60, 60, 135, 1, 4.30884
248, 1, wb, attraction, a-b-da, 2, 1, 6, 15, 134, 59, 135, 60, 60, 135, 3, 0.926019
248, 1, wb, attraction, a-b-da, 9, 3, 6, 16, 186, 114, 195, 120, 120, 195, 1, 1.25419
248, 1, wb, attraction, a-b-da, 9, 3, 6, 16, 186, 114, 195, 120, 120, 195, 3, 0.283275
248, 1, wb, attraction, a-b-db, 9, 1, 6, 17, 57, 129, 135, 60, 60, 135, 2, 1.18179
248, 1, wb, attraction, a-b-db, 9, 1, 6, 17, 57, 129, 135, 60, 60, 135, 3, 0.309819
248, 1, wb, filler, NA, 999, 999, 6, 18, 86, 112, 178, 155, 82, 83, 3, 1.47049
248, 1, wb, filler, NA, 999, 999, 6, 18, 86, 112, 178, 155, 82, 83, 2, 0.266737
248, 1, wb, filler, NA, 999, 999, 6, 19, 88, 165, 113, 127, 156, 144, 2, 0.981894
248, 1, wb, filler, NA, 999, 999, 6, 19, 88, 165, 113, 127, 156, 144, 3, 0.253533
248, 1, wb, attraction, a-b-db, 2, 2, 6, 20, 165, 90, 89, 163, 90, 165, 3, 1.32941
248, 1, wb, attraction, a-b-db, 2, 2, 6, 20, 165, 90, 89, 163, 90, 165, 1, 0.308917
248, 1, wb, filler, NA, 999, 999, 6, 21, 179, 148, 183, 134, 108, 151, 3, 0.836219
248, 1, wb, filler, NA, 999, 999, 6, 21, 179, 148, 183, 134, 108, 151, 1, 0.441886
248, 1, wb, filler, NA, 999, 999, 6, 22, 172, 150, 135, 177, 184, 177, 1, 1.51536
248, 1, wb, filler, NA, 999, 999, 6, 22, 172, 150, 135, 177, 184, 177, 3, 0.711877
248, 1, wb, filler, NA, 999, 999, 6, 23, 194, 59, 166, 147, 147, 58, 3, 0.880837
248, 1, wb, filler, NA, 999, 999, 6, 23, 194, 59, 166, 147, 147, 58, 2, 0.348696
248, 1, wb, attraction, a-b-db, 5, 2, 6, 24, 165, 90, 90, 165, 88, 161, 3, 1.14035
248, 1, wb, attraction, a-b-db, 5, 2, 6, 24, 165, 90, 90, 165, 88, 161, 1, 0.733434
248, 1, wb, attraction, a-b-db, 5, 1, 6, 25, 60, 135, 135, 60, 58, 132, 1, 1.23771
248, 1, wb, attraction, a-b-db, 5, 1, 6, 25, 60, 135, 135, 60, 58, 132, 3, 2.09076
248, 1, wb, attraction, a-b-db, 2, 1, 6, 26, 135, 60, 60, 135, 59, 134, 2, 1.35591
248, 1, wb, attraction, a-b-db, 2, 1, 6, 26, 135, 60, 60, 135, 59, 134, 3, 0.4522
248, 1, wb, filler, NA, 999, 999, 6, 27, 156, 169, 157, 180, 62, 75, 3, 1.96007
248, 1, wb, filler, NA, 999, 999, 6, 27, 156, 169, 157, 180, 62, 75, 2, 0.279956
248, 1, wb, attraction, a-b-da, 2, 2, 6, 28, 165, 90, 163, 89, 90, 165, 3, 2.93847
248, 1, wb, attraction, a-b-da, 2, 2, 6, 28, 165, 90, 163, 89, 90, 165, 1, 0.314816
248, 1, wb, filler, NA, 999, 999, 6, 29, 190, 145, 110, 80, 63, 63, 3, 1.32422
248, 1, wb, filler, NA, 999, 999, 6, 29, 190, 145, 110, 80, 63, 63, 1, 0.341602
248, 1, wb, attraction, a-b-db, 14, 3, 6, 30, 195, 120, 120, 195, 111, 181, 1, 0.63736
248, 1, wb, attraction, a-b-db, 14, 3, 6, 30, 195, 120, 120, 195, 111, 181, 2, 0.331229
248, 1, wb, attraction, a-b-db, 5, 3, 6, 31, 120, 195, 195, 120, 117, 190, 2, 0.643833
248, 1, wb, attraction, a-b-db, 5, 3, 6, 31, 120, 195, 195, 120, 117, 190, 1, 2.06495
248, 1, wb, attraction, a-b-db, 9, 3, 6, 32, 120, 195, 195, 120, 114, 186, 2, 1.95552
248, 1, wb, attraction, a-b-db, 9, 3, 6, 32, 120, 195, 195, 120, 114, 186, 1, 0.371458
248, 1, wb, attraction, a-b-da, 14, 2, 6, 33, 90, 165, 153, 83, 165, 90, 1, 1.30665
248, 1, wb, attraction, a-b-da, 14, 2, 6, 33, 90, 165, 153, 83, 165, 90, 3, 0.284924
248, 1, wb, attraction, a-b-da, 9, 1, 6, 34, 135, 60, 129, 57, 60, 135, 3, 1.19137
248, 1, wb, attraction, a-b-da, 9, 1, 6, 34, 135, 60, 129, 57, 60, 135, 2, 0.310325
248, 1, wb, filler, NA, 999, 999, 6, 35, 72, 175, 110, 184, 167, 94, 2, 1.11948
248, 1, wb, filler, NA, 999, 999, 6, 35, 72, 175, 110, 184, 167, 94, 1, 0.23374
248, 1, wb, attraction, a-b-da, 5, 3, 6, 36, 190, 117, 195, 120, 120, 195, 3, 1.88649
248, 1, wb, attraction, a-b-da, 5, 3, 6, 36, 190, 117, 195, 120, 120, 195, 1, 0.673673
248, 1, wb, attraction, a-b-da, 2, 3, 6, 37, 193, 119, 120, 195, 195, 120, 1, 2.74801
248, 1, wb, attraction, a-b-da, 2, 3, 6, 37, 193, 119, 120, 195, 195, 120, 2, 0.28465
248, 1, wb, attraction, a-b-da, 9, 3, 7, 1, 186, 114, 120, 195, 195, 120, 1, 3.86319
248, 1, wb, attraction, a-b-da, 9, 3, 7, 1, 186, 114, 120, 195, 195, 120, 3, 1.2585
248, 1, wb, attraction, a-b-db, 14, 3, 7, 2, 120, 195, 195, 120, 111, 181, 1, 2.19747
248, 1, wb, attraction, a-b-db, 14, 3, 7, 2, 120, 195, 195, 120, 111, 181, 2, 2.55598
248, 1, wb, filler, NA, 999, 999, 7, 3, 181, 92, 100, 69, 148, 165, 2, 0.819254
248, 1, wb, filler, NA, 999, 999, 7, 3, 181, 92, 100, 69, 148, 165, 3, 0.697518
248, 1, wb, catch, NA, 999, 999, 7, 4, 104, 91, 131, 184, 106, 149, 1, 1.2272
248, 1, wb, catch, NA, 999, 999, 7, 4, 104, 91, 131, 184, 106, 149, 2, 0.328829
248, 1, wb, attraction, a-b-da, 14, 2, 7, 5, 153, 83, 90, 165, 165, 90, 2, 1.0733
248, 1, wb, attraction, a-b-da, 14, 2, 7, 5, 153, 83, 90, 165, 165, 90, 3, 0.332976
248, 1, wb, attraction, a-b-db, 9, 3, 7, 6, 114, 186, 195, 120, 120, 195, 1, 1.76554
248, 1, wb, attraction, a-b-db, 9, 3, 7, 6, 114, 186, 195, 120, 120, 195, 3, 0.205622
248, 1, wb, attraction, a-b-da, 14, 3, 7, 7, 120, 195, 195, 120, 181, 111, 1, 0.931509
248, 1, wb, attraction, a-b-da, 14, 3, 7, 7, 120, 195, 195, 120, 181, 111, 3, 1.16526
248, 1, wb, attraction, a-b-db, 2, 3, 7, 8, 120, 195, 195, 120, 119, 193, 2, 1.90018
248, 1, wb, attraction, a-b-db, 2, 3, 7, 8, 120, 195, 195, 120, 119, 193, 3, 1.16685
248, 1, wb, filler, NA, 999, 999, 7, 9, 173, 179, 138, 98, 127, 101, 3, 1.1417
248, 1, wb, filler, NA, 999, 999, 7, 9, 173, 179, 138, 98, 127, 101, 1, 0.502704
248, 1, wb, attraction, a-b-db, 5, 1, 7, 10, 60, 135, 58, 132, 135, 60, 3, 2.16053
248, 1, wb, attraction, a-b-db, 5, 1, 7, 10, 60, 135, 58, 132, 135, 60, 1, 0.664438
248, 1, wb, filler, NA, 999, 999, 7, 11, 176, 64, 116, 109, 82, 65, 3, 1.53153
248, 1, wb, filler, NA, 999, 999, 7, 11, 176, 64, 116, 109, 82, 65, 2, 0.628949
248, 1, wb, filler, NA, 999, 999, 7, 12, 116, 142, 135, 169, 181, 110, 1, 0.993288
248, 1, wb, filler, NA, 999, 999, 7, 12, 116, 142, 135, 169, 181, 110, 3, 3.8325
248, 1, wb, attraction, a-b-da, 5, 2, 7, 13, 161, 88, 165, 90, 90, 165, 3, 1.63579
248, 1, wb, attraction, a-b-da, 5, 2, 7, 13, 161, 88, 165, 90, 90, 165, 2, 0.897317
248, 1, wb, filler, NA, 999, 999, 7, 14, 105, 178, 124, 173, 128, 96, 3, 1.59501
248, 1, wb, filler, NA, 999, 999, 7, 14, 105, 178, 124, 173, 128, 96, 2, 0.56344
248, 1, wb, attraction, a-b-da, 2, 1, 7, 15, 134, 59, 135, 60, 60, 135, 1, 1.28879
248, 1, wb, attraction, a-b-da, 2, 1, 7, 15, 134, 59, 135, 60, 60, 135, 2, 0.52373
248, 1, wb, attraction, a-b-db, 5, 3, 7, 16, 120, 195, 195, 120, 117, 190, 1, 0.964152
248, 1, wb, attraction, a-b-db, 5, 3, 7, 16, 120, 195, 195, 120, 117, 190, 3, 0.460535
248, 1, wb, attraction, a-b-da, 14, 1, 7, 17, 125, 56, 135, 60, 60, 135, 3, 0.927687
248, 1, wb, attraction, a-b-da, 14, 1, 7, 17, 125, 56, 135, 60, 60, 135, 2, 0.713379
248, 1, wb, filler, NA, 999, 999, 7, 18, 169, 192, 75, 102, 61, 124, 2, 1.58645
248, 1, wb, filler, NA, 999, 999, 7, 18, 169, 192, 75, 102, 61, 124, 1, 0.417759
248, 1, wb, filler, NA, 999, 999, 7, 19, 143, 84, 187, 160, 177, 171, 1, 1.74289
248, 1, wb, filler, NA, 999, 999, 7, 19, 143, 84, 187, 160, 177, 171, 3, 1.48777
248, 1, wb, attraction, a-b-db, 14, 1, 7, 20, 56, 125, 135, 60, 60, 135, 1, 0.689898
248, 1, wb, attraction, a-b-db, 14, 1, 7, 20, 56, 125, 135, 60, 60, 135, 3, 0.788943
248, 1, wb, catch, NA, 999, 999, 7, 21, 118, 77, 124, 131, 166, 149, 1, 1.25934
248, 1, wb, catch, NA, 999, 999, 7, 21, 118, 77, 124, 131, 166, 149, 3, 0.455727
248, 1, wb, attraction, a-b-db, 9, 1, 7, 22, 57, 129, 135, 60, 60, 135, 3, 1.44344
248, 1, wb, attraction, a-b-db, 9, 1, 7, 22, 57, 129, 135, 60, 60, 135, 2, 0.480214
248, 1, wb, attraction, a-b-db, 9, 2, 7, 23, 86, 157, 90, 165, 165, 90, 2, 3.69869
248, 1, wb, attraction, a-b-db, 9, 2, 7, 23, 86, 157, 90, 165, 165, 90, 3, 0.444919
248, 1, wb, filler, NA, 999, 999, 7, 24, 142, 149, 79, 182, 164, 162, 2, 1.35261
248, 1, wb, filler, NA, 999, 999, 7, 24, 142, 149, 79, 182, 164, 162, 3, 0.321653
248, 1, wb, attraction, a-b-da, 9, 2, 7, 25, 90, 165, 157, 86, 165, 90, 2, 4.47468
248, 1, wb, attraction, a-b-da, 9, 2, 7, 25, 90, 165, 157, 86, 165, 90, 3, 0.477319
248, 1, wb, attraction, a-b-da, 5, 3, 7, 26, 195, 120, 120, 195, 190, 117, 2, 0.719715
248, 1, wb, attraction, a-b-da, 5, 3, 7, 26, 195, 120, 120, 195, 190, 117, 3, 1.5702
248, 1, wb, filler, NA, 999, 999, 7, 27, 120, 179, 118, 139, 188, 125, 2, 2.45693
248, 1, wb, filler, NA, 999, 999, 7, 27, 120, 179, 118, 139, 188, 125, 3, 0.924924
248, 1, wb, attraction, a-b-db, 2, 1, 7, 28, 60, 135, 135, 60, 59, 134, 2, 2.34123
248, 1, wb, attraction, a-b-db, 2, 1, 7, 28, 60, 135, 135, 60, 59, 134, 1, 2.08574
248, 1, wb, attraction, a-b-db, 5, 2, 7, 29, 165, 90, 88, 161, 90, 165, 1, 0.975616
248, 1, wb, attraction, a-b-db, 5, 2, 7, 29, 165, 90, 88, 161, 90, 165, 2, 1.82351
248, 1, wb, catch, NA, 999, 999, 7, 30, 185, 130, 127, 68, 165, 90, 2, 2.14801
248, 1, wb, catch, NA, 999, 999, 7, 30, 185, 130, 127, 68, 165, 90, 1, 0.916739
248, 1, wb, attraction, a-b-da, 2, 2, 7, 31, 165, 90, 90, 165, 163, 89, 1, 1.99763
248, 1, wb, attraction, a-b-da, 2, 2, 7, 31, 165, 90, 90, 165, 163, 89, 2, 0.284373
248, 1, wb, attraction, a-b-da, 9, 1, 7, 32, 129, 57, 135, 60, 60, 135, 3, 0.614828
248, 1, wb, attraction, a-b-da, 9, 1, 7, 32, 129, 57, 135, 60, 60, 135, 2, 1.32544
248, 1, wb, attraction, a-b-da, 2, 3, 7, 33, 120, 195, 193, 119, 195, 120, 3, 1.89342
248, 1, wb, attraction, a-b-da, 2, 3, 7, 33, 120, 195, 193, 119, 195, 120, 2, 0.640247
248, 1, wb, attraction, a-b-db, 2, 2, 7, 34, 165, 90, 90, 165, 89, 163, 1, 2.3079
248, 1, wb, attraction, a-b-db, 2, 2, 7, 34, 165, 90, 90, 165, 89, 163, 3, 0.837999
248, 1, wb, filler, NA, 999, 999, 7, 35, 64, 57, 159, 158, 106, 79, 1, 0.906168
248, 1, wb, filler, NA, 999, 999, 7, 35, 64, 57, 159, 158, 106, 79, 2, 0.284568
248, 1, wb, attraction, a-b-db, 14, 2, 7, 36, 165, 90, 90, 165, 83, 153, 3, 2.70305
248, 1, wb, attraction, a-b-db, 14, 2, 7, 36, 165, 90, 90, 165, 83, 153, 2, 0.417578
248, 1, wb, attraction, a-b-da, 5, 1, 7, 37, 60, 135, 132, 58, 135, 60, 1, 0.742796
248, 1, wb, attraction, a-b-da, 5, 1, 7, 37, 60, 135, 132, 58, 135, 60, 3, 0.847904
248, 1, wb, filler, NA, 999, 999, 8, 1, 102, 128, 190, 59, 181, 136, 2, 1.37957
248, 1, wb, filler, NA, 999, 999, 8, 1, 102, 128, 190, 59, 181, 136, 3, 0.395066
248, 1, wb, attraction, a-b-db, 14, 2, 8, 2, 165, 90, 90, 165, 83, 153, 3, 1.08881
248, 1, wb, attraction, a-b-db, 14, 2, 8, 2, 165, 90, 90, 165, 83, 153, 2, 0.867889
248, 1, wb, filler, NA, 999, 999, 8, 3, 182, 92, 105, 85, 164, 114, 2, 1.07882
248, 1, wb, filler, NA, 999, 999, 8, 3, 182, 92, 105, 85, 164, 114, 3, 1.28248
248, 1, wb, attraction, a-b-da, 2, 3, 8, 4, 193, 119, 195, 120, 120, 195, 2, 0.772615
248, 1, wb, attraction, a-b-da, 2, 3, 8, 4, 193, 119, 195, 120, 120, 195, 3, 1.10842
248, 1, wb, attraction, a-b-da, 14, 3, 8, 5, 120, 195, 195, 120, 181, 111, 1, 0.685194
248, 1, wb, attraction, a-b-da, 14, 3, 8, 5, 120, 195, 195, 120, 181, 111, 2, 0.289081
248, 1, wb, attraction, a-b-db, 2, 3, 8, 6, 119, 193, 195, 120, 120, 195, 1, 0.699584
248, 1, wb, attraction, a-b-db, 2, 3, 8, 6, 119, 193, 195, 120, 120, 195, 3, 0.6787
248, 1, wb, attraction, a-b-da, 5, 3, 8, 7, 190, 117, 195, 120, 120, 195, 3, 0.849055
248, 1, wb, attraction, a-b-da, 5, 3, 8, 7, 190, 117, 195, 120, 120, 195, 1, 0.65422
248, 1, wb, attraction, a-b-da, 2, 2, 8, 8, 90, 165, 165, 90, 163, 89, 2, 0.60991
248, 1, wb, attraction, a-b-da, 2, 2, 8, 8, 90, 165, 165, 90, 163, 89, 1, 1.00029
248, 1, wb, attraction, a-b-da, 9, 3, 8, 9, 186, 114, 195, 120, 120, 195, 1, 1.58995
248, 1, wb, attraction, a-b-da, 9, 3, 8, 9, 186, 114, 195, 120, 120, 195, 3, 0.548708
248, 1, wb, catch, NA, 999, 999, 8, 10, 146, 169, 109, 146, 99, 96, 3, 1.06053
248, 1, wb, catch, NA, 999, 999, 8, 10, 146, 169, 109, 146, 99, 96, 1, 0.400805
248, 1, wb, attraction, a-b-db, 14, 3, 8, 11, 111, 181, 120, 195, 195, 120, 1, 0.998587
248, 1, wb, attraction, a-b-db, 14, 3, 8, 11, 111, 181, 120, 195, 195, 120, 2, 0.96559
248, 1, wb, attraction, a-b-db, 14, 1, 8, 12, 60, 135, 56, 125, 135, 60, 3, 1.61271
248, 1, wb, attraction, a-b-db, 14, 1, 8, 12, 60, 135, 56, 125, 135, 60, 1, 0.54671
248, 1, wb, attraction, a-b-da, 2, 1, 8, 13, 135, 60, 60, 135, 134, 59, 2, 0.722535
248, 1, wb, attraction, a-b-da, 2, 1, 8, 13, 135, 60, 60, 135, 134, 59, 3, 0.468306
248, 1, wb, attraction, a-b-da, 14, 2, 8, 14, 165, 90, 90, 165, 153, 83, 3, 1.31137
248, 1, wb, attraction, a-b-da, 14, 2, 8, 14, 165, 90, 90, 165, 153, 83, 2, 0.297563
248, 1, wb, attraction, a-b-da, 14, 1, 8, 15, 125, 56, 60, 135, 135, 60, 1, 1.76338
248, 1, wb, attraction, a-b-da, 14, 1, 8, 15, 125, 56, 60, 135, 135, 60, 3, 1.88367
248, 1, wb, filler, NA, 999, 999, 8, 16, 89, 69, 186, 58, 149, 159, 1, 1.00563
248, 1, wb, filler, NA, 999, 999, 8, 16, 89, 69, 186, 58, 149, 159, 3, 0.195855
248, 1, wb, filler, NA, 999, 999, 8, 17, 173, 88, 92, 176, 61, 167, 3, 2.5057
248, 1, wb, filler, NA, 999, 999, 8, 17, 173, 88, 92, 176, 61, 167, 2, 0.595545
248, 1, wb, attraction, a-b-da, 9, 1, 8, 18, 129, 57, 60, 135, 135, 60, 1, 2.40951
248, 1, wb, attraction, a-b-da, 9, 1, 8, 18, 129, 57, 60, 135, 135, 60, 2, 2.36726
248, 1, wb, filler, NA, 999, 999, 8, 19, 186, 150, 77, 82, 80, 75, 3, 2.53391
248, 1, wb, filler, NA, 999, 999, 8, 19, 186, 150, 77, 82, 80, 75, 1, 0.39895
248, 1, wb, attraction, a-b-da, 5, 1, 8, 20, 132, 58, 60, 135, 135, 60, 1, 2.8607
248, 1, wb, attraction, a-b-da, 5, 1, 8, 20, 132, 58, 60, 135, 135, 60, 3, 1.90453
248, 1, wb, attraction, a-b-db, 9, 1, 8, 21, 135, 60, 57, 129, 60, 135, 3, 1.56982
248, 1, wb, attraction, a-b-db, 9, 1, 8, 21, 135, 60, 57, 129, 60, 135, 2, 0.498064
248, 1, wb, attraction, a-b-da, 9, 2, 8, 22, 157, 86, 165, 90, 90, 165, 1, 1.01977
248, 1, wb, attraction, a-b-da, 9, 2, 8, 22, 157, 86, 165, 90, 90, 165, 2, 0.442138
248, 1, wb, attraction, a-b-da, 5, 2, 8, 23, 165, 90, 90, 165, 161, 88, 2, 0.557933
248, 1, wb, attraction, a-b-da, 5, 2, 8, 23, 165, 90, 90, 165, 161, 88, 1, 0.270507
248, 1, wb, attraction, a-b-db, 5, 3, 8, 24, 117, 190, 120, 195, 195, 120, 2, 0.425594
248, 1, wb, attraction, a-b-db, 5, 3, 8, 24, 117, 190, 120, 195, 195, 120, 3, 1.39139
248, 1, wb, attraction, a-b-db, 9, 2, 8, 25, 90, 165, 86, 157, 165, 90, 2, 1.98892
248, 1, wb, attraction, a-b-db, 9, 2, 8, 25, 90, 165, 86, 157, 165, 90, 1, 1.01964
248, 1, wb, attraction, a-b-db, 2, 2, 8, 26, 165, 90, 90, 165, 89, 163, 3, 4.40065
248, 1, wb, attraction, a-b-db, 2, 2, 8, 26, 165, 90, 90, 165, 89, 163, 1, 0.646593
248, 1, wb, attraction, a-b-db, 5, 2, 8, 27, 165, 90, 90, 165, 88, 161, 2, 0.970153
248, 1, wb, attraction, a-b-db, 5, 2, 8, 27, 165, 90, 90, 165, 88, 161, 1, 0.938689
248, 1, wb, attraction, a-b-db, 9, 3, 8, 28, 114, 186, 120, 195, 195, 120, 1, 0.754808
248, 1, wb, attraction, a-b-db, 9, 3, 8, 28, 114, 186, 120, 195, 195, 120, 3, 0.595497
248, 1, wb, catch, NA, 999, 999, 8, 29, 98, 157, 76, 119, 180, 135, 2, 0.721145
248, 1, wb, catch, NA, 999, 999, 8, 29, 98, 157, 76, 119, 180, 135, 3, 0.395565
248, 1, wb, attraction, a-b-db, 2, 1, 8, 30, 135, 60, 60, 135, 59, 134, 3, 0.993298
248, 1, wb, attraction, a-b-db, 2, 1, 8, 30, 135, 60, 60, 135, 59, 134, 2, 0.36037
248, 1, wb, filler, NA, 999, 999, 8, 31, 154, 171, 195, 78, 105, 102, 3, 0.759419
248, 1, wb, filler, NA, 999, 999, 8, 31, 154, 171, 195, 78, 105, 102, 1, 0.415918
248, 1, wb, filler, NA, 999, 999, 8, 32, 178, 119, 82, 161, 59, 118, 3, 0.548969
248, 1, wb, filler, NA, 999, 999, 8, 32, 178, 119, 82, 161, 59, 118, 1, 0.478234
248, 1, wb, filler, NA, 999, 999, 8, 33, 140, 113, 181, 155, 186, 168, 1, 0.712559
248, 1, wb, filler, NA, 999, 999, 8, 33, 140, 113, 181, 155, 186, 168, 3, 0.483078
248, 1, wb, filler, NA, 999, 999, 8, 34, 167, 182, 161, 149, 157, 120, 3, 0.845471
248, 1, wb, filler, NA, 999, 999, 8, 34, 167, 182, 161, 149, 157, 120, 1, 0.458633
248, 1, wb, filler, NA, 999, 999, 8, 35, 122, 138, 105, 123, 56, 136, 3, 0.901572
248, 1, wb, filler, NA, 999, 999, 8, 35, 122, 138, 105, 123, 56, 136, 1, 0.616664
248, 1, wb, catch, NA, 999, 999, 8, 36, 189, 126, 105, 150, 93, 102, 3, 0.949702
248, 1, wb, catch, NA, 999, 999, 8, 36, 189, 126, 105, 150, 93, 102, 1, 0.478769
248, 1, wb, attraction, a-b-db, 5, 1, 8, 37, 135, 60, 60, 135, 58, 132, 2, 5.8972
248, 1, wb, attraction, a-b-db, 5, 1, 8, 37, 135, 60, 60, 135, 58, 132, 1, 0.658845
