sub_n, computer_n, bw_cond, effect, set, distance, diag, block_n, trial_n, h1, w1, h2, w2, h3, w3, choice, rt 
278, 1, wb, practice, NA, 999, 999, 0, 1, 174, 192, 175, 169, 60, 59, 3, 1.93472
278, 1, wb, practice, NA, 999, 999, 0, 1, 174, 192, 175, 169, 60, 59, 1, 2.76111
278, 1, wb, practice, NA, 999, 999, 0, 2, 140, 99, 181, 56, 144, 122, 2, 9.74093
278, 1, wb, practice, NA, 999, 999, 0, 2, 140, 99, 181, 56, 144, 122, 3, 3.68625
278, 1, wb, practice, NA, 999, 999, 0, 3, 157, 170, 112, 170, 141, 73, 3, 3.74663
278, 1, wb, practice, NA, 999, 999, 0, 3, 157, 170, 112, 170, 141, 73, 1, 8.58762
278, 1, wb, attraction, a-b-da, 5, 2, 1, 1, 165, 90, 161, 88, 90, 165, 2, 3.48167
278, 1, wb, attraction, a-b-da, 5, 2, 1, 1, 165, 90, 161, 88, 90, 165, 3, 1.01263
278, 1, wb, attraction, a-b-db, 9, 3, 1, 2, 114, 186, 120, 195, 195, 120, 2, 3.69755
278, 1, wb, attraction, a-b-db, 9, 3, 1, 2, 114, 186, 120, 195, 195, 120, 3, 1.35557
278, 1, wb, attraction, a-b-da, 14, 2, 1, 3, 165, 90, 153, 83, 90, 165, 2, 6.17911
278, 1, wb, attraction, a-b-da, 14, 2, 1, 3, 165, 90, 153, 83, 90, 165, 3, 1.53724
278, 1, wb, attraction, a-b-db, 5, 1, 1, 4, 60, 135, 58, 132, 135, 60, 2, 4.81733
278, 1, wb, attraction, a-b-db, 5, 1, 1, 4, 60, 135, 58, 132, 135, 60, 1, 2.07835
278, 1, wb, catch, NA, 999, 999, 1, 5, 123, 132, 146, 169, 79, 116, 3, 1.92032
278, 1, wb, catch, NA, 999, 999, 1, 5, 123, 132, 146, 169, 79, 116, 2, 0.970354
278, 1, wb, attraction, a-b-db, 9, 1, 1, 6, 135, 60, 57, 129, 60, 135, 2, 2.88144
278, 1, wb, attraction, a-b-db, 9, 1, 1, 6, 135, 60, 57, 129, 60, 135, 3, 2.55643
278, 1, wb, attraction, a-b-da, 2, 1, 1, 7, 135, 60, 60, 135, 134, 59, 2, 5.00352
278, 1, wb, attraction, a-b-da, 2, 1, 1, 7, 135, 60, 60, 135, 134, 59, 1, 1.68932
278, 1, wb, attraction, a-b-da, 9, 3, 1, 8, 120, 195, 186, 114, 195, 120, 2, 4.22736
278, 1, wb, attraction, a-b-da, 9, 3, 1, 8, 120, 195, 186, 114, 195, 120, 3, 3.36819
278, 1, wb, attraction, a-b-db, 14, 1, 1, 9, 60, 135, 56, 125, 135, 60, 2, 2.55024
278, 1, wb, attraction, a-b-db, 14, 1, 1, 9, 60, 135, 56, 125, 135, 60, 3, 1.64686
278, 1, wb, attraction, a-b-da, 2, 3, 1, 10, 120, 195, 193, 119, 195, 120, 2, 5.93826
278, 1, wb, attraction, a-b-da, 2, 3, 1, 10, 120, 195, 193, 119, 195, 120, 1, 0.442694
278, 1, wb, filler, NA, 999, 999, 1, 11, 152, 69, 185, 192, 177, 72, 1, 1.50202
278, 1, wb, filler, NA, 999, 999, 1, 11, 152, 69, 185, 192, 177, 72, 2, 0.281082
278, 1, wb, attraction, a-b-db, 2, 2, 1, 12, 165, 90, 89, 163, 90, 165, 2, 1.84342
278, 1, wb, attraction, a-b-db, 2, 2, 1, 12, 165, 90, 89, 163, 90, 165, 3, 2.2083
278, 1, wb, catch, NA, 999, 999, 1, 13, 116, 79, 162, 93, 190, 125, 1, 1.0928
278, 1, wb, catch, NA, 999, 999, 1, 13, 116, 79, 162, 93, 190, 125, 3, 0.79177
278, 1, wb, attraction, a-b-db, 14, 2, 1, 14, 165, 90, 90, 165, 83, 153, 3, 1.3095
278, 1, wb, attraction, a-b-db, 14, 2, 1, 14, 165, 90, 90, 165, 83, 153, 1, 1.74375
278, 1, wb, catch, NA, 999, 999, 1, 15, 91, 104, 124, 131, 189, 126, 1, 1.11901
278, 1, wb, catch, NA, 999, 999, 1, 15, 91, 104, 124, 131, 189, 126, 3, 0.385336
278, 1, wb, attraction, a-b-db, 9, 2, 1, 16, 86, 157, 90, 165, 165, 90, 1, 4.10384
278, 1, wb, attraction, a-b-db, 9, 2, 1, 16, 86, 157, 90, 165, 165, 90, 2, 0.681829
278, 1, wb, attraction, a-b-da, 9, 1, 1, 17, 129, 57, 135, 60, 60, 135, 1, 4.06835
278, 1, wb, attraction, a-b-da, 9, 1, 1, 17, 129, 57, 135, 60, 60, 135, 3, 0.399598
278, 1, wb, filler, NA, 999, 999, 1, 18, 87, 109, 157, 136, 88, 186, 1, 0.81338
278, 1, wb, filler, NA, 999, 999, 1, 18, 87, 109, 157, 136, 88, 186, 2, 0.70789
278, 1, wb, attraction, a-b-da, 14, 1, 1, 19, 125, 56, 60, 135, 135, 60, 1, 3.25286
278, 1, wb, attraction, a-b-da, 14, 1, 1, 19, 125, 56, 60, 135, 135, 60, 3, 0.489234
278, 1, wb, filler, NA, 999, 999, 1, 20, 167, 154, 67, 103, 178, 178, 2, 1.18767
278, 1, wb, filler, NA, 999, 999, 1, 20, 167, 154, 67, 103, 178, 178, 3, 0.619271
278, 1, wb, filler, NA, 999, 999, 1, 21, 192, 111, 93, 98, 138, 82, 2, 2.77641
278, 1, wb, filler, NA, 999, 999, 1, 21, 192, 111, 93, 98, 138, 82, 1, 0.999364
278, 1, wb, attraction, a-b-db, 5, 2, 1, 22, 165, 90, 90, 165, 88, 161, 2, 4.60506
278, 1, wb, attraction, a-b-db, 5, 2, 1, 22, 165, 90, 90, 165, 88, 161, 1, 1.11506
278, 1, wb, attraction, a-b-da, 9, 2, 1, 23, 165, 90, 157, 86, 90, 165, 2, 1.9479
278, 1, wb, attraction, a-b-da, 9, 2, 1, 23, 165, 90, 157, 86, 90, 165, 3, 0.348572
278, 1, wb, filler, NA, 999, 999, 1, 24, 165, 128, 187, 192, 89, 74, 3, 0.98042
278, 1, wb, filler, NA, 999, 999, 1, 24, 165, 128, 187, 192, 89, 74, 2, 0.452101
278, 1, wb, attraction, a-b-db, 5, 3, 1, 25, 195, 120, 120, 195, 117, 190, 2, 5.17596
278, 1, wb, attraction, a-b-db, 5, 3, 1, 25, 195, 120, 120, 195, 117, 190, 1, 0.358181
278, 1, wb, attraction, a-b-db, 2, 3, 1, 26, 195, 120, 120, 195, 119, 193, 1, 2.49352
278, 1, wb, attraction, a-b-db, 2, 3, 1, 26, 195, 120, 120, 195, 119, 193, 2, 0.703914
278, 1, wb, filler, NA, 999, 999, 1, 27, 175, 135, 124, 184, 120, 182, 2, 2.10575
278, 1, wb, filler, NA, 999, 999, 1, 27, 175, 135, 124, 184, 120, 182, 1, 0.419626
278, 1, wb, attraction, a-b-db, 14, 3, 1, 28, 120, 195, 195, 120, 111, 181, 3, 1.90475
278, 1, wb, attraction, a-b-db, 14, 3, 1, 28, 120, 195, 195, 120, 111, 181, 1, 0.571477
278, 1, wb, filler, NA, 999, 999, 1, 29, 96, 72, 159, 130, 123, 114, 1, 0.882626
278, 1, wb, filler, NA, 999, 999, 1, 29, 96, 72, 159, 130, 123, 114, 2, 0.462414
278, 1, wb, attraction, a-b-da, 5, 1, 1, 30, 135, 60, 132, 58, 60, 135, 2, 1.81744
278, 1, wb, attraction, a-b-da, 5, 1, 1, 30, 135, 60, 132, 58, 60, 135, 1, 0.535391
278, 1, wb, attraction, a-b-da, 14, 3, 1, 31, 181, 111, 195, 120, 120, 195, 2, 2.05604
278, 1, wb, attraction, a-b-da, 14, 3, 1, 31, 181, 111, 195, 120, 120, 195, 3, 0.291908
278, 1, wb, filler, NA, 999, 999, 1, 32, 158, 57, 190, 156, 127, 102, 1, 1.25378
278, 1, wb, filler, NA, 999, 999, 1, 32, 158, 57, 190, 156, 127, 102, 2, 0.274734
278, 1, wb, attraction, a-b-da, 5, 3, 1, 33, 195, 120, 120, 195, 190, 117, 2, 2.0531
278, 1, wb, attraction, a-b-da, 5, 3, 1, 33, 195, 120, 120, 195, 190, 117, 3, 1.49793
278, 1, wb, filler, NA, 999, 999, 1, 34, 127, 166, 62, 134, 169, 117, 2, 1.00334
278, 1, wb, filler, NA, 999, 999, 1, 34, 127, 166, 62, 134, 169, 117, 3, 0.314298
278, 1, wb, attraction, a-b-db, 2, 1, 1, 35, 135, 60, 59, 134, 60, 135, 1, 1.05144
278, 1, wb, attraction, a-b-db, 2, 1, 1, 35, 135, 60, 59, 134, 60, 135, 3, 0.608527
278, 1, wb, filler, NA, 999, 999, 1, 36, 194, 64, 155, 56, 119, 60, 3, 1.75762
278, 1, wb, filler, NA, 999, 999, 1, 36, 194, 64, 155, 56, 119, 60, 1, 0.605966
278, 1, wb, attraction, a-b-da, 2, 2, 1, 37, 165, 90, 163, 89, 90, 165, 2, 2.30743
278, 1, wb, attraction, a-b-da, 2, 2, 1, 37, 165, 90, 163, 89, 90, 165, 3, 0.309373
278, 1, wb, attraction, a-b-da, 2, 2, 2, 1, 165, 90, 90, 165, 163, 89, 2, 1.22253
278, 1, wb, attraction, a-b-da, 2, 2, 2, 1, 165, 90, 90, 165, 163, 89, 3, 1.62825
278, 1, wb, attraction, a-b-db, 9, 2, 2, 2, 165, 90, 86, 157, 90, 165, 2, 0.992257
278, 1, wb, attraction, a-b-db, 9, 2, 2, 2, 165, 90, 86, 157, 90, 165, 1, 0.687185
278, 1, wb, attraction, a-b-da, 5, 3, 2, 3, 195, 120, 190, 117, 120, 195, 2, 1.64166
278, 1, wb, attraction, a-b-da, 5, 3, 2, 3, 195, 120, 190, 117, 120, 195, 1, 0.430449
278, 1, wb, attraction, a-b-db, 2, 3, 2, 4, 195, 120, 119, 193, 120, 195, 2, 1.21079
278, 1, wb, attraction, a-b-db, 2, 3, 2, 4, 195, 120, 119, 193, 120, 195, 3, 0.569059
278, 1, wb, attraction, a-b-da, 14, 2, 2, 5, 90, 165, 165, 90, 153, 83, 3, 1.24834
278, 1, wb, attraction, a-b-da, 14, 2, 2, 5, 90, 165, 165, 90, 153, 83, 2, 1.29322
278, 1, wb, attraction, a-b-db, 5, 3, 2, 6, 120, 195, 195, 120, 117, 190, 3, 16.5266
278, 1, wb, attraction, a-b-db, 5, 3, 2, 6, 120, 195, 195, 120, 117, 190, 1, 1.41146
278, 1, wb, attraction, a-b-da, 14, 1, 2, 7, 60, 135, 125, 56, 135, 60, 2, 2.09632
278, 1, wb, attraction, a-b-da, 14, 1, 2, 7, 60, 135, 125, 56, 135, 60, 1, 0.962931
278, 1, wb, filler, NA, 999, 999, 2, 8, 104, 132, 186, 82, 114, 117, 1, 1.41802
278, 1, wb, filler, NA, 999, 999, 2, 8, 104, 132, 186, 82, 114, 117, 2, 1.62415
278, 1, wb, attraction, a-b-db, 2, 1, 2, 9, 59, 134, 135, 60, 60, 135, 1, 0.884299
278, 1, wb, attraction, a-b-db, 2, 1, 2, 9, 59, 134, 135, 60, 60, 135, 3, 0.415895
278, 1, wb, filler, NA, 999, 999, 2, 10, 76, 166, 92, 93, 145, 154, 2, 0.981108
278, 1, wb, filler, NA, 999, 999, 2, 10, 76, 166, 92, 93, 145, 154, 3, 0.332851
278, 1, wb, attraction, a-b-db, 2, 2, 2, 11, 165, 90, 89, 163, 90, 165, 1, 2.47724
278, 1, wb, attraction, a-b-db, 2, 2, 2, 11, 165, 90, 89, 163, 90, 165, 2, 0.680379
278, 1, wb, filler, NA, 999, 999, 2, 12, 194, 121, 127, 101, 77, 173, 2, 0.962881
278, 1, wb, filler, NA, 999, 999, 2, 12, 194, 121, 127, 101, 77, 173, 1, 0.755101
278, 1, wb, attraction, a-b-da, 9, 2, 2, 13, 90, 165, 165, 90, 157, 86, 3, 1.32309
278, 1, wb, attraction, a-b-da, 9, 2, 2, 13, 90, 165, 165, 90, 157, 86, 1, 4.11652
278, 1, wb, attraction, a-b-db, 14, 3, 2, 14, 111, 181, 195, 120, 120, 195, 1, 0.980505
278, 1, wb, attraction, a-b-db, 14, 3, 2, 14, 111, 181, 195, 120, 120, 195, 3, 0.276185
278, 1, wb, filler, NA, 999, 999, 2, 15, 100, 185, 97, 84, 146, 114, 2, 1.04658
278, 1, wb, filler, NA, 999, 999, 2, 15, 100, 185, 97, 84, 146, 114, 1, 0.251576
278, 1, wb, attraction, a-b-da, 9, 3, 2, 16, 186, 114, 195, 120, 120, 195, 3, 2.91145
278, 1, wb, attraction, a-b-da, 9, 3, 2, 16, 186, 114, 195, 120, 120, 195, 1, 1.6252
278, 1, wb, attraction, a-b-db, 9, 1, 2, 17, 57, 129, 60, 135, 135, 60, 3, 0.965324
278, 1, wb, attraction, a-b-db, 9, 1, 2, 17, 57, 129, 60, 135, 135, 60, 2, 1.26967
278, 1, wb, attraction, a-b-da, 9, 1, 2, 18, 135, 60, 60, 135, 129, 57, 3, 3.3845
278, 1, wb, attraction, a-b-da, 9, 1, 2, 18, 135, 60, 60, 135, 129, 57, 1, 1.2315
278, 1, wb, filler, NA, 999, 999, 2, 19, 189, 118, 165, 190, 170, 186, 1, 2.34773
278, 1, wb, filler, NA, 999, 999, 2, 19, 189, 118, 165, 190, 170, 186, 2, 1.11633
278, 1, wb, attraction, a-b-da, 2, 3, 2, 20, 120, 195, 195, 120, 193, 119, 3, 3.78129
278, 1, wb, attraction, a-b-da, 2, 3, 2, 20, 120, 195, 195, 120, 193, 119, 2, 0.603891
278, 1, wb, filler, NA, 999, 999, 2, 21, 114, 73, 136, 150, 176, 174, 1, 0.593657
278, 1, wb, filler, NA, 999, 999, 2, 21, 114, 73, 136, 150, 176, 174, 3, 0.272736
278, 1, wb, catch, NA, 999, 999, 2, 22, 143, 112, 150, 165, 76, 119, 3, 1.21202
278, 1, wb, catch, NA, 999, 999, 2, 22, 143, 112, 150, 165, 76, 119, 2, 0.266233
278, 1, wb, attraction, a-b-da, 5, 1, 2, 23, 132, 58, 60, 135, 135, 60, 2, 6.65341
278, 1, wb, attraction, a-b-da, 5, 1, 2, 23, 132, 58, 60, 135, 135, 60, 3, 0.792694
278, 1, wb, catch, NA, 999, 999, 2, 24, 88, 107, 125, 190, 160, 95, 1, 1.33448
278, 1, wb, catch, NA, 999, 999, 2, 24, 88, 107, 125, 190, 160, 95, 2, 0.679899
278, 1, wb, attraction, a-b-da, 2, 1, 2, 25, 60, 135, 134, 59, 135, 60, 1, 7.66629
278, 1, wb, attraction, a-b-da, 2, 1, 2, 25, 60, 135, 134, 59, 135, 60, 3, 0.532582
278, 1, wb, attraction, a-b-db, 9, 3, 2, 26, 195, 120, 120, 195, 114, 186, 3, 2.93304
278, 1, wb, attraction, a-b-db, 9, 3, 2, 26, 195, 120, 120, 195, 114, 186, 1, 0.422179
278, 1, wb, catch, NA, 999, 999, 2, 27, 83, 112, 156, 99, 129, 186, 1, 0.827286
278, 1, wb, catch, NA, 999, 999, 2, 27, 83, 112, 156, 99, 129, 186, 3, 0.624897
278, 1, wb, attraction, a-b-db, 14, 1, 2, 28, 60, 135, 56, 125, 135, 60, 2, 1.12531
278, 1, wb, attraction, a-b-db, 14, 1, 2, 28, 60, 135, 56, 125, 135, 60, 3, 1.56712
278, 1, wb, filler, NA, 999, 999, 2, 29, 80, 117, 176, 162, 122, 118, 1, 0.965692
278, 1, wb, filler, NA, 999, 999, 2, 29, 80, 117, 176, 162, 122, 118, 2, 0.294084
278, 1, wb, attraction, a-b-db, 14, 2, 2, 30, 165, 90, 90, 165, 83, 153, 3, 2.53597
278, 1, wb, attraction, a-b-db, 14, 2, 2, 30, 165, 90, 90, 165, 83, 153, 1, 2.71317
278, 1, wb, filler, NA, 999, 999, 2, 31, 60, 183, 154, 174, 160, 182, 1, 3.83358
278, 1, wb, filler, NA, 999, 999, 2, 31, 60, 183, 154, 174, 160, 182, 3, 0.446396
278, 1, wb, filler, NA, 999, 999, 2, 32, 188, 79, 146, 177, 149, 161, 1, 1.33012
278, 1, wb, filler, NA, 999, 999, 2, 32, 188, 79, 146, 177, 149, 161, 2, 3.53978
278, 1, wb, filler, NA, 999, 999, 2, 33, 57, 60, 123, 175, 143, 114, 1, 0.827252
278, 1, wb, filler, NA, 999, 999, 2, 33, 57, 60, 123, 175, 143, 114, 2, 0.680922
278, 1, wb, attraction, a-b-da, 5, 2, 2, 34, 90, 165, 161, 88, 165, 90, 2, 1.23536
278, 1, wb, attraction, a-b-da, 5, 2, 2, 34, 90, 165, 161, 88, 165, 90, 3, 1.16087
278, 1, wb, attraction, a-b-da, 14, 3, 2, 35, 120, 195, 181, 111, 195, 120, 2, 1.59979
278, 1, wb, attraction, a-b-da, 14, 3, 2, 35, 120, 195, 181, 111, 195, 120, 1, 4.4307
278, 1, wb, attraction, a-b-db, 5, 2, 2, 36, 165, 90, 88, 161, 90, 165, 2, 1.7779
278, 1, wb, attraction, a-b-db, 5, 2, 2, 36, 165, 90, 88, 161, 90, 165, 1, 0.713354
278, 1, wb, attraction, a-b-db, 5, 1, 2, 37, 60, 135, 58, 132, 135, 60, 2, 4.18635
278, 1, wb, attraction, a-b-db, 5, 1, 2, 37, 60, 135, 58, 132, 135, 60, 3, 1.08112
278, 1, wb, attraction, a-b-db, 5, 2, 3, 1, 90, 165, 165, 90, 88, 161, 2, 0.739203
278, 1, wb, attraction, a-b-db, 5, 2, 3, 1, 90, 165, 165, 90, 88, 161, 1, 1.78839
278, 1, wb, filler, NA, 999, 999, 3, 2, 138, 77, 158, 61, 188, 121, 2, 0.882337
278, 1, wb, filler, NA, 999, 999, 3, 2, 138, 77, 158, 61, 188, 121, 3, 0.414063
278, 1, wb, attraction, a-b-da, 2, 1, 3, 3, 134, 59, 135, 60, 60, 135, 3, 2.17941
278, 1, wb, attraction, a-b-da, 2, 1, 3, 3, 134, 59, 135, 60, 60, 135, 1, 0.434625
278, 1, wb, attraction, a-b-db, 2, 3, 3, 4, 195, 120, 119, 193, 120, 195, 3, 2.84691
278, 1, wb, attraction, a-b-db, 2, 3, 3, 4, 195, 120, 119, 193, 120, 195, 1, 0.403315
278, 1, wb, attraction, a-b-db, 14, 2, 3, 5, 165, 90, 83, 153, 90, 165, 2, 7.36915
278, 1, wb, attraction, a-b-db, 14, 2, 3, 5, 165, 90, 83, 153, 90, 165, 1, 0.447485
278, 1, wb, attraction, a-b-db, 2, 1, 3, 6, 60, 135, 59, 134, 135, 60, 3, 1.65139
278, 1, wb, attraction, a-b-db, 2, 1, 3, 6, 60, 135, 59, 134, 135, 60, 1, 0.592155
278, 1, wb, attraction, a-b-da, 14, 2, 3, 7, 153, 83, 165, 90, 90, 165, 2, 2.46182
278, 1, wb, attraction, a-b-da, 14, 2, 3, 7, 153, 83, 165, 90, 90, 165, 1, 0.337828
278, 1, wb, attraction, a-b-da, 2, 3, 3, 8, 120, 195, 193, 119, 195, 120, 2, 0.770271
278, 1, wb, attraction, a-b-da, 2, 3, 3, 8, 120, 195, 193, 119, 195, 120, 1, 0.298665
278, 1, wb, filler, NA, 999, 999, 3, 9, 59, 92, 173, 147, 94, 112, 1, 0.700462
278, 1, wb, filler, NA, 999, 999, 3, 9, 59, 92, 173, 147, 94, 112, 2, 0.239564
278, 1, wb, attraction, a-b-db, 2, 2, 3, 10, 90, 165, 165, 90, 89, 163, 1, 3.08415
278, 1, wb, attraction, a-b-db, 2, 2, 3, 10, 90, 165, 165, 90, 89, 163, 2, 0.775314
278, 1, wb, attraction, a-b-da, 9, 1, 3, 11, 129, 57, 135, 60, 60, 135, 3, 3.18168
278, 1, wb, attraction, a-b-da, 9, 1, 3, 11, 129, 57, 135, 60, 60, 135, 1, 4.20451
278, 1, wb, attraction, a-b-da, 5, 2, 3, 12, 165, 90, 161, 88, 90, 165, 2, 0.857136
278, 1, wb, attraction, a-b-da, 5, 2, 3, 12, 165, 90, 161, 88, 90, 165, 1, 0.461552
278, 1, wb, attraction, a-b-da, 9, 2, 3, 13, 157, 86, 90, 165, 165, 90, 2, 1.36065
278, 1, wb, attraction, a-b-da, 9, 2, 3, 13, 157, 86, 90, 165, 165, 90, 3, 0.336996
278, 1, wb, attraction, a-b-da, 9, 3, 3, 14, 120, 195, 186, 114, 195, 120, 2, 3.60935
278, 1, wb, attraction, a-b-da, 9, 3, 3, 14, 120, 195, 186, 114, 195, 120, 3, 0.270843
278, 1, wb, attraction, a-b-da, 14, 1, 3, 15, 135, 60, 60, 135, 125, 56, 3, 1.46606
278, 1, wb, attraction, a-b-da, 14, 1, 3, 15, 135, 60, 60, 135, 125, 56, 1, 0.270269
278, 1, wb, filler, NA, 999, 999, 3, 16, 159, 77, 165, 154, 148, 103, 1, 2.69748
278, 1, wb, filler, NA, 999, 999, 3, 16, 159, 77, 165, 154, 148, 103, 2, 1.05197
278, 1, wb, filler, NA, 999, 999, 3, 17, 97, 178, 64, 158, 154, 167, 2, 1.31151
278, 1, wb, filler, NA, 999, 999, 3, 17, 97, 178, 64, 158, 154, 167, 3, 0.601711
278, 1, wb, attraction, a-b-db, 5, 3, 3, 18, 120, 195, 195, 120, 117, 190, 3, 7.51153
278, 1, wb, attraction, a-b-db, 5, 3, 3, 18, 120, 195, 195, 120, 117, 190, 1, 1.73596
278, 1, wb, attraction, a-b-db, 9, 2, 3, 19, 90, 165, 165, 90, 86, 157, 3, 1.68788
278, 1, wb, attraction, a-b-db, 9, 2, 3, 19, 90, 165, 165, 90, 86, 157, 1, 0.771282
278, 1, wb, filler, NA, 999, 999, 3, 20, 179, 152, 113, 75, 132, 182, 2, 0.914367
278, 1, wb, filler, NA, 999, 999, 3, 20, 179, 152, 113, 75, 132, 182, 1, 0.516803
278, 1, wb, filler, NA, 999, 999, 3, 21, 183, 119, 166, 194, 57, 84, 3, 1.2778
278, 1, wb, filler, NA, 999, 999, 3, 21, 183, 119, 166, 194, 57, 84, 2, 0.321501
278, 1, wb, catch, NA, 999, 999, 3, 22, 133, 182, 60, 135, 123, 132, 2, 2.01059
278, 1, wb, catch, NA, 999, 999, 3, 22, 133, 182, 60, 135, 123, 132, 1, 0.456604
278, 1, wb, attraction, a-b-da, 2, 2, 3, 23, 165, 90, 163, 89, 90, 165, 3, 5.42771
278, 1, wb, attraction, a-b-da, 2, 2, 3, 23, 165, 90, 163, 89, 90, 165, 1, 0.408007
278, 1, wb, catch, NA, 999, 999, 3, 24, 95, 100, 145, 170, 151, 104, 1, 0.79723
278, 1, wb, catch, NA, 999, 999, 3, 24, 95, 100, 145, 170, 151, 104, 2, 0.300175
278, 1, wb, attraction, a-b-da, 5, 1, 3, 25, 60, 135, 135, 60, 132, 58, 3, 2.00597
278, 1, wb, attraction, a-b-da, 5, 1, 3, 25, 60, 135, 135, 60, 132, 58, 1, 0.572033
278, 1, wb, attraction, a-b-da, 5, 3, 3, 26, 195, 120, 190, 117, 120, 195, 2, 4.2112
278, 1, wb, attraction, a-b-da, 5, 3, 3, 26, 195, 120, 190, 117, 120, 195, 3, 1.16047
278, 1, wb, filler, NA, 999, 999, 3, 27, 56, 115, 66, 59, 193, 66, 2, 0.959442
278, 1, wb, filler, NA, 999, 999, 3, 27, 56, 115, 66, 59, 193, 66, 3, 0.487714
278, 1, wb, attraction, a-b-da, 14, 3, 3, 28, 181, 111, 120, 195, 195, 120, 1, 1.79416
278, 1, wb, attraction, a-b-da, 14, 3, 3, 28, 181, 111, 120, 195, 195, 120, 2, 1.64093
278, 1, wb, filler, NA, 999, 999, 3, 29, 75, 61, 68, 185, 165, 142, 1, 1.59647
278, 1, wb, filler, NA, 999, 999, 3, 29, 75, 61, 68, 185, 165, 142, 3, 0.547142
278, 1, wb, attraction, a-b-db, 14, 1, 3, 30, 60, 135, 56, 125, 135, 60, 2, 1.60294
278, 1, wb, attraction, a-b-db, 14, 1, 3, 30, 60, 135, 56, 125, 135, 60, 3, 0.345753
278, 1, wb, attraction, a-b-db, 5, 1, 3, 31, 58, 132, 60, 135, 135, 60, 2, 1.59346
278, 1, wb, attraction, a-b-db, 5, 1, 3, 31, 58, 132, 60, 135, 135, 60, 3, 0.443986
278, 1, wb, attraction, a-b-db, 9, 3, 3, 32, 195, 120, 114, 186, 120, 195, 2, 5.86011
278, 1, wb, attraction, a-b-db, 9, 3, 3, 32, 195, 120, 114, 186, 120, 195, 1, 0.223023
278, 1, wb, filler, NA, 999, 999, 3, 33, 169, 105, 158, 84, 168, 107, 2, 3.1082
278, 1, wb, filler, NA, 999, 999, 3, 33, 169, 105, 158, 84, 168, 107, 3, 0.221976
278, 1, wb, attraction, a-b-db, 14, 3, 3, 34, 111, 181, 120, 195, 195, 120, 3, 8.5232
278, 1, wb, attraction, a-b-db, 14, 3, 3, 34, 111, 181, 120, 195, 195, 120, 2, 2.52248
278, 1, wb, filler, NA, 999, 999, 3, 35, 185, 116, 165, 139, 113, 188, 2, 17.3309
278, 1, wb, filler, NA, 999, 999, 3, 35, 185, 116, 165, 139, 113, 188, 1, 0.967391
278, 1, wb, catch, NA, 999, 999, 3, 36, 127, 188, 114, 141, 71, 124, 3, 0.726412
278, 1, wb, catch, NA, 999, 999, 3, 36, 127, 188, 114, 141, 71, 124, 1, 0.240158
278, 1, wb, attraction, a-b-db, 9, 1, 3, 37, 60, 135, 135, 60, 57, 129, 3, 1.51597
278, 1, wb, attraction, a-b-db, 9, 1, 3, 37, 60, 135, 135, 60, 57, 129, 1, 0.350245
278, 1, wb, attraction, a-b-da, 2, 3, 4, 1, 120, 195, 193, 119, 195, 120, 2, 2.80603
278, 1, wb, attraction, a-b-da, 2, 3, 4, 1, 120, 195, 193, 119, 195, 120, 1, 0.411758
278, 1, wb, filler, NA, 999, 999, 4, 2, 80, 92, 174, 86, 175, 72, 1, 1.17684
278, 1, wb, filler, NA, 999, 999, 4, 2, 80, 92, 174, 86, 175, 72, 3, 1.20848
278, 1, wb, filler, NA, 999, 999, 4, 3, 170, 159, 134, 103, 150, 185, 2, 0.957514
278, 1, wb, filler, NA, 999, 999, 4, 3, 170, 159, 134, 103, 150, 185, 1, 14.0377
278, 1, wb, attraction, a-b-da, 5, 1, 4, 4, 60, 135, 135, 60, 132, 58, 1, 4.89403
278, 1, wb, attraction, a-b-da, 5, 1, 4, 4, 60, 135, 135, 60, 132, 58, 2, 1.22385
278, 1, wb, catch, NA, 999, 999, 4, 5, 153, 102, 126, 189, 133, 62, 3, 1.32388
278, 1, wb, catch, NA, 999, 999, 4, 5, 153, 102, 126, 189, 133, 62, 2, 0.261521
278, 1, wb, attraction, a-b-db, 9, 3, 4, 6, 120, 195, 114, 186, 195, 120, 2, 2.24073
278, 1, wb, attraction, a-b-db, 9, 3, 4, 6, 120, 195, 114, 186, 195, 120, 1, 0.493278
278, 1, wb, attraction, a-b-da, 5, 2, 4, 7, 161, 88, 90, 165, 165, 90, 2, 2.52715
278, 1, wb, attraction, a-b-da, 5, 2, 4, 7, 161, 88, 90, 165, 165, 90, 1, 2.24836
278, 1, wb, filler, NA, 999, 999, 4, 8, 57, 178, 188, 83, 139, 61, 3, 0.907602
278, 1, wb, filler, NA, 999, 999, 4, 8, 57, 178, 188, 83, 139, 61, 2, 0.373978
278, 1, wb, attraction, a-b-db, 5, 2, 4, 9, 88, 161, 90, 165, 165, 90, 2, 4.55653
278, 1, wb, attraction, a-b-db, 5, 2, 4, 9, 88, 161, 90, 165, 165, 90, 3, 0.467539
278, 1, wb, attraction, a-b-db, 5, 1, 4, 10, 58, 132, 60, 135, 135, 60, 1, 10.8227
278, 1, wb, attraction, a-b-db, 5, 1, 4, 10, 58, 132, 60, 135, 135, 60, 3, 0.417959
278, 1, wb, filler, NA, 999, 999, 4, 11, 73, 124, 85, 183, 141, 114, 1, 1.51128
278, 1, wb, filler, NA, 999, 999, 4, 11, 73, 124, 85, 183, 141, 114, 3, 0.289266
278, 1, wb, attraction, a-b-db, 14, 1, 4, 12, 135, 60, 60, 135, 56, 125, 3, 4.99583
278, 1, wb, attraction, a-b-db, 14, 1, 4, 12, 135, 60, 60, 135, 56, 125, 1, 0.505604
278, 1, wb, attraction, a-b-da, 14, 1, 4, 13, 60, 135, 135, 60, 125, 56, 3, 3.80336
278, 1, wb, attraction, a-b-da, 14, 1, 4, 13, 60, 135, 135, 60, 125, 56, 1, 0.241557
278, 1, wb, attraction, a-b-db, 9, 2, 4, 14, 165, 90, 90, 165, 86, 157, 3, 10.1493
278, 1, wb, attraction, a-b-db, 9, 2, 4, 14, 165, 90, 90, 165, 86, 157, 1, 0.715441
278, 1, wb, attraction, a-b-da, 9, 2, 4, 15, 157, 86, 165, 90, 90, 165, 2, 3.2125
278, 1, wb, attraction, a-b-da, 9, 2, 4, 15, 157, 86, 165, 90, 90, 165, 3, 1.77822
278, 1, wb, attraction, a-b-db, 2, 2, 4, 16, 89, 163, 90, 165, 165, 90, 2, 2.83231
278, 1, wb, attraction, a-b-db, 2, 2, 4, 16, 89, 163, 90, 165, 165, 90, 3, 0.773276
278, 1, wb, attraction, a-b-da, 2, 1, 4, 17, 135, 60, 134, 59, 60, 135, 2, 1.13174
278, 1, wb, attraction, a-b-da, 2, 1, 4, 17, 135, 60, 134, 59, 60, 135, 3, 0.717251
278, 1, wb, attraction, a-b-da, 14, 3, 4, 18, 195, 120, 120, 195, 181, 111, 2, 2.12646
278, 1, wb, attraction, a-b-da, 14, 3, 4, 18, 195, 120, 120, 195, 181, 111, 1, 0.29564
278, 1, wb, attraction, a-b-db, 2, 3, 4, 19, 119, 193, 120, 195, 195, 120, 2, 0.713588
278, 1, wb, attraction, a-b-db, 2, 3, 4, 19, 119, 193, 120, 195, 195, 120, 3, 0.899936
278, 1, wb, catch, NA, 999, 999, 4, 20, 131, 64, 99, 156, 183, 132, 1, 0.909491
278, 1, wb, catch, NA, 999, 999, 4, 20, 131, 64, 99, 156, 183, 132, 3, 0.431927
278, 1, wb, filler, NA, 999, 999, 4, 21, 92, 73, 129, 195, 194, 153, 1, 0.460377
278, 1, wb, filler, NA, 999, 999, 4, 21, 92, 73, 129, 195, 194, 153, 3, 0.552942
278, 1, wb, attraction, a-b-da, 5, 3, 4, 22, 120, 195, 195, 120, 190, 117, 2, 0.616638
278, 1, wb, attraction, a-b-da, 5, 3, 4, 22, 120, 195, 195, 120, 190, 117, 3, 1.95911
278, 1, wb, attraction, a-b-db, 14, 3, 4, 23, 111, 181, 120, 195, 195, 120, 2, 2.74185
278, 1, wb, attraction, a-b-db, 14, 3, 4, 23, 111, 181, 120, 195, 195, 120, 3, 1.16617
278, 1, wb, attraction, a-b-db, 14, 2, 4, 24, 90, 165, 165, 90, 83, 153, 1, 2.46113
278, 1, wb, attraction, a-b-db, 14, 2, 4, 24, 90, 165, 165, 90, 83, 153, 3, 1.69703
278, 1, wb, filler, NA, 999, 999, 4, 25, 168, 101, 75, 175, 121, 122, 2, 1.1865
278, 1, wb, filler, NA, 999, 999, 4, 25, 168, 101, 75, 175, 121, 122, 1, 1.12209
278, 1, wb, attraction, a-b-da, 14, 2, 4, 26, 90, 165, 153, 83, 165, 90, 2, 1.53904
278, 1, wb, attraction, a-b-da, 14, 2, 4, 26, 90, 165, 153, 83, 165, 90, 1, 0.811693
278, 1, wb, attraction, a-b-da, 9, 1, 4, 27, 135, 60, 129, 57, 60, 135, 2, 0.704687
278, 1, wb, attraction, a-b-da, 9, 1, 4, 27, 135, 60, 129, 57, 60, 135, 1, 0.747955
278, 1, wb, filler, NA, 999, 999, 4, 28, 77, 118, 131, 141, 86, 73, 3, 0.827534
278, 1, wb, filler, NA, 999, 999, 4, 28, 77, 118, 131, 141, 86, 73, 2, 0.417349
278, 1, wb, attraction, a-b-db, 9, 1, 4, 29, 60, 135, 57, 129, 135, 60, 2, 2.1825
278, 1, wb, attraction, a-b-db, 9, 1, 4, 29, 60, 135, 57, 129, 135, 60, 3, 0.533965
278, 1, wb, filler, NA, 999, 999, 4, 30, 151, 80, 76, 181, 159, 76, 2, 3.52617
278, 1, wb, filler, NA, 999, 999, 4, 30, 151, 80, 76, 181, 159, 76, 3, 0.407094
278, 1, wb, attraction, a-b-da, 9, 3, 4, 31, 120, 195, 186, 114, 195, 120, 2, 2.74828
278, 1, wb, attraction, a-b-da, 9, 3, 4, 31, 120, 195, 186, 114, 195, 120, 1, 2.66865
278, 1, wb, attraction, a-b-da, 2, 2, 4, 32, 163, 89, 165, 90, 90, 165, 2, 4.19915
278, 1, wb, attraction, a-b-da, 2, 2, 4, 32, 163, 89, 165, 90, 90, 165, 3, 0.46913
278, 1, wb, filler, NA, 999, 999, 4, 33, 90, 126, 183, 76, 105, 104, 1, 0.960337
278, 1, wb, filler, NA, 999, 999, 4, 33, 90, 126, 183, 76, 105, 104, 2, 2.0886
278, 1, wb, attraction, a-b-db, 2, 1, 4, 34, 59, 134, 60, 135, 135, 60, 3, 1.52249
278, 1, wb, attraction, a-b-db, 2, 1, 4, 34, 59, 134, 60, 135, 135, 60, 2, 1.1806
278, 1, wb, catch, NA, 999, 999, 4, 35, 121, 74, 103, 152, 188, 127, 1, 1.03435
278, 1, wb, catch, NA, 999, 999, 4, 35, 121, 74, 103, 152, 188, 127, 3, 0.303886
278, 1, wb, attraction, a-b-db, 5, 3, 4, 36, 117, 190, 195, 120, 120, 195, 2, 1.23366
278, 1, wb, attraction, a-b-db, 5, 3, 4, 36, 117, 190, 195, 120, 120, 195, 3, 0.719322
278, 1, wb, filler, NA, 999, 999, 4, 37, 69, 59, 180, 189, 118, 163, 1, 0.656356
278, 1, wb, filler, NA, 999, 999, 4, 37, 69, 59, 180, 189, 118, 163, 2, 0.548748
278, 1, wb, attraction, a-b-da, 5, 1, 5, 1, 60, 135, 135, 60, 132, 58, 2, 2.06722
278, 1, wb, attraction, a-b-da, 5, 1, 5, 1, 60, 135, 135, 60, 132, 58, 1, 0.319213
278, 1, wb, filler, NA, 999, 999, 5, 2, 106, 150, 178, 82, 89, 188, 2, 1.35228
278, 1, wb, filler, NA, 999, 999, 5, 2, 106, 150, 178, 82, 89, 188, 1, 1.07323
278, 1, wb, attraction, a-b-db, 5, 2, 5, 3, 88, 161, 165, 90, 90, 165, 2, 1.00419
278, 1, wb, attraction, a-b-db, 5, 2, 5, 3, 88, 161, 165, 90, 90, 165, 1, 0.235233
278, 1, wb, catch, NA, 999, 999, 5, 4, 106, 149, 178, 137, 102, 93, 3, 0.759796
278, 1, wb, catch, NA, 999, 999, 5, 4, 106, 149, 178, 137, 102, 93, 2, 0.184069
278, 1, wb, attraction, a-b-db, 9, 2, 5, 5, 86, 157, 165, 90, 90, 165, 1, 0.846647
278, 1, wb, attraction, a-b-db, 9, 2, 5, 5, 86, 157, 165, 90, 90, 165, 3, 0.20376
278, 1, wb, attraction, a-b-db, 2, 1, 5, 6, 60, 135, 59, 134, 135, 60, 2, 0.785641
278, 1, wb, attraction, a-b-db, 2, 1, 5, 6, 60, 135, 59, 134, 135, 60, 3, 2.34541
278, 1, wb, catch, NA, 999, 999, 5, 7, 135, 120, 66, 129, 134, 181, 2, 0.632453
278, 1, wb, catch, NA, 999, 999, 5, 7, 135, 120, 66, 129, 134, 181, 3, 0.326294
278, 1, wb, filler, NA, 999, 999, 5, 8, 90, 108, 111, 69, 116, 123, 2, 0.966922
278, 1, wb, filler, NA, 999, 999, 5, 8, 90, 108, 111, 69, 116, 123, 3, 0.583294
278, 1, wb, filler, NA, 999, 999, 5, 9, 192, 101, 181, 102, 113, 76, 3, 0.813621
278, 1, wb, filler, NA, 999, 999, 5, 9, 192, 101, 181, 102, 113, 76, 1, 0.283973
278, 1, wb, attraction, a-b-db, 2, 3, 5, 10, 120, 195, 195, 120, 119, 193, 1, 2.31851
278, 1, wb, attraction, a-b-db, 2, 3, 5, 10, 120, 195, 195, 120, 119, 193, 3, 1.00049
278, 1, wb, attraction, a-b-da, 5, 3, 5, 11, 190, 117, 120, 195, 195, 120, 2, 0.950021
278, 1, wb, attraction, a-b-da, 5, 3, 5, 11, 190, 117, 120, 195, 195, 120, 3, 0.759122
278, 1, wb, attraction, a-b-da, 14, 2, 5, 12, 153, 83, 165, 90, 90, 165, 3, 3.60618
278, 1, wb, attraction, a-b-da, 14, 2, 5, 12, 153, 83, 165, 90, 90, 165, 2, 0.843598
278, 1, wb, attraction, a-b-da, 5, 2, 5, 13, 165, 90, 90, 165, 161, 88, 1, 1.40719
278, 1, wb, attraction, a-b-da, 5, 2, 5, 13, 165, 90, 90, 165, 161, 88, 3, 1.44542
278, 1, wb, attraction, a-b-db, 14, 2, 5, 14, 83, 153, 165, 90, 90, 165, 1, 1.25688
278, 1, wb, attraction, a-b-db, 14, 2, 5, 14, 83, 153, 165, 90, 90, 165, 3, 0.469241
278, 1, wb, attraction, a-b-da, 2, 2, 5, 15, 90, 165, 163, 89, 165, 90, 1, 0.864451
278, 1, wb, attraction, a-b-da, 2, 2, 5, 15, 90, 165, 163, 89, 165, 90, 3, 0.996694
278, 1, wb, filler, NA, 999, 999, 5, 16, 90, 114, 105, 115, 137, 192, 1, 0.458287
278, 1, wb, filler, NA, 999, 999, 5, 16, 90, 114, 105, 115, 137, 192, 3, 0.246798
278, 1, wb, filler, NA, 999, 999, 5, 17, 191, 189, 70, 56, 90, 92, 2, 0.834728
278, 1, wb, filler, NA, 999, 999, 5, 17, 191, 189, 70, 56, 90, 92, 1, 0.184579
278, 1, wb, filler, NA, 999, 999, 5, 18, 66, 67, 81, 170, 153, 140, 1, 0.64702
278, 1, wb, filler, NA, 999, 999, 5, 18, 66, 67, 81, 170, 153, 140, 3, 0.196026
278, 1, wb, attraction, a-b-db, 9, 3, 5, 19, 114, 186, 195, 120, 120, 195, 1, 2.00196
278, 1, wb, attraction, a-b-db, 9, 3, 5, 19, 114, 186, 195, 120, 120, 195, 3, 0.832643
278, 1, wb, filler, NA, 999, 999, 5, 20, 159, 119, 185, 73, 68, 186, 2, 0.749132
278, 1, wb, filler, NA, 999, 999, 5, 20, 159, 119, 185, 73, 68, 186, 1, 0.198006
278, 1, wb, attraction, a-b-da, 2, 3, 5, 21, 120, 195, 193, 119, 195, 120, 3, 3.06787
278, 1, wb, attraction, a-b-da, 2, 3, 5, 21, 120, 195, 193, 119, 195, 120, 1, 0.183664
278, 1, wb, attraction, a-b-da, 14, 1, 5, 22, 125, 56, 60, 135, 135, 60, 1, 1.52615
278, 1, wb, attraction, a-b-da, 14, 1, 5, 22, 125, 56, 60, 135, 135, 60, 3, 0.591721
278, 1, wb, attraction, a-b-db, 2, 2, 5, 23, 90, 165, 165, 90, 89, 163, 2, 2.63737
278, 1, wb, attraction, a-b-db, 2, 2, 5, 23, 90, 165, 165, 90, 89, 163, 3, 0.210611
278, 1, wb, filler, NA, 999, 999, 5, 24, 187, 124, 62, 148, 145, 82, 2, 0.967799
278, 1, wb, filler, NA, 999, 999, 5, 24, 187, 124, 62, 148, 145, 82, 1, 0.184026
278, 1, wb, attraction, a-b-da, 9, 1, 5, 25, 60, 135, 135, 60, 129, 57, 2, 0.774665
278, 1, wb, attraction, a-b-da, 9, 1, 5, 25, 60, 135, 135, 60, 129, 57, 1, 0.65435
278, 1, wb, attraction, a-b-da, 9, 3, 5, 26, 195, 120, 186, 114, 120, 195, 1, 2.08231
278, 1, wb, attraction, a-b-da, 9, 3, 5, 26, 195, 120, 186, 114, 120, 195, 3, 0.173448
278, 1, wb, attraction, a-b-db, 14, 1, 5, 27, 135, 60, 60, 135, 56, 125, 1, 1.50799
278, 1, wb, attraction, a-b-db, 14, 1, 5, 27, 135, 60, 60, 135, 56, 125, 3, 0.18225
278, 1, wb, attraction, a-b-db, 5, 1, 5, 28, 60, 135, 58, 132, 135, 60, 3, 1.14872
278, 1, wb, attraction, a-b-db, 5, 1, 5, 28, 60, 135, 58, 132, 135, 60, 1, 2.05368
278, 1, wb, filler, NA, 999, 999, 5, 29, 93, 132, 183, 152, 113, 68, 3, 0.784998
278, 1, wb, filler, NA, 999, 999, 5, 29, 93, 132, 183, 152, 113, 68, 2, 0.240717
278, 1, wb, attraction, a-b-da, 14, 3, 5, 30, 181, 111, 195, 120, 120, 195, 1, 2.73269
278, 1, wb, attraction, a-b-da, 14, 3, 5, 30, 181, 111, 195, 120, 120, 195, 3, 0.173668
278, 1, wb, catch, NA, 999, 999, 5, 31, 117, 138, 74, 121, 125, 190, 2, 0.708364
278, 1, wb, catch, NA, 999, 999, 5, 31, 117, 138, 74, 121, 125, 190, 3, 0.174698
278, 1, wb, filler, NA, 999, 999, 5, 32, 85, 186, 133, 183, 125, 176, 1, 0.637229
278, 1, wb, filler, NA, 999, 999, 5, 32, 85, 186, 133, 183, 125, 176, 3, 0.219038
278, 1, wb, attraction, a-b-db, 9, 1, 5, 33, 60, 135, 135, 60, 57, 129, 3, 1.69623
278, 1, wb, attraction, a-b-db, 9, 1, 5, 33, 60, 135, 135, 60, 57, 129, 2, 1.35501
278, 1, wb, attraction, a-b-da, 9, 2, 5, 34, 165, 90, 157, 86, 90, 165, 2, 2.83442
278, 1, wb, attraction, a-b-da, 9, 2, 5, 34, 165, 90, 157, 86, 90, 165, 3, 0.87959
278, 1, wb, attraction, a-b-db, 14, 3, 5, 35, 120, 195, 195, 120, 111, 181, 3, 1.42597
278, 1, wb, attraction, a-b-db, 14, 3, 5, 35, 120, 195, 195, 120, 111, 181, 1, 0.527452
278, 1, wb, attraction, a-b-db, 5, 3, 5, 36, 120, 195, 195, 120, 117, 190, 1, 1.72
278, 1, wb, attraction, a-b-db, 5, 3, 5, 36, 120, 195, 195, 120, 117, 190, 3, 1.55424
278, 1, wb, attraction, a-b-da, 2, 1, 5, 37, 134, 59, 60, 135, 135, 60, 2, 2.14552
278, 1, wb, attraction, a-b-da, 2, 1, 5, 37, 134, 59, 60, 135, 135, 60, 3, 0.498137
278, 1, wb, filler, NA, 999, 999, 6, 1, 101, 94, 176, 130, 93, 101, 1, 1.11596
278, 1, wb, filler, NA, 999, 999, 6, 1, 101, 94, 176, 130, 93, 101, 2, 0.254187
278, 1, wb, attraction, a-b-db, 9, 3, 6, 2, 120, 195, 114, 186, 195, 120, 2, 2.32206
278, 1, wb, attraction, a-b-db, 9, 3, 6, 2, 120, 195, 114, 186, 195, 120, 3, 4.17131
278, 1, wb, filler, NA, 999, 999, 6, 3, 171, 112, 176, 63, 65, 113, 3, 0.833242
278, 1, wb, filler, NA, 999, 999, 6, 3, 171, 112, 176, 63, 65, 113, 1, 0.423052
278, 1, wb, attraction, a-b-db, 14, 2, 6, 4, 165, 90, 90, 165, 83, 153, 2, 1.38006
278, 1, wb, attraction, a-b-db, 14, 2, 6, 4, 165, 90, 90, 165, 83, 153, 1, 0.299684
278, 1, wb, attraction, a-b-da, 14, 3, 6, 5, 195, 120, 181, 111, 120, 195, 2, 1.74154
278, 1, wb, attraction, a-b-da, 14, 3, 6, 5, 195, 120, 181, 111, 120, 195, 1, 0.294226
278, 1, wb, attraction, a-b-db, 2, 2, 6, 6, 89, 163, 90, 165, 165, 90, 1, 1.60004
278, 1, wb, attraction, a-b-db, 2, 2, 6, 6, 89, 163, 90, 165, 165, 90, 3, 0.318868
278, 1, wb, filler, NA, 999, 999, 6, 7, 116, 170, 114, 62, 153, 166, 2, 1.09606
278, 1, wb, filler, NA, 999, 999, 6, 7, 116, 170, 114, 62, 153, 166, 3, 0.29111
278, 1, wb, attraction, a-b-db, 9, 2, 6, 8, 165, 90, 86, 157, 90, 165, 2, 1.8769
278, 1, wb, attraction, a-b-db, 9, 2, 6, 8, 165, 90, 86, 157, 90, 165, 3, 2.8004
278, 1, wb, attraction, a-b-da, 9, 3, 6, 9, 195, 120, 120, 195, 186, 114, 3, 2.77337
278, 1, wb, attraction, a-b-da, 9, 3, 6, 9, 195, 120, 120, 195, 186, 114, 2, 1.64439
278, 1, wb, attraction, a-b-da, 5, 2, 6, 10, 90, 165, 161, 88, 165, 90, 3, 1.22396
278, 1, wb, attraction, a-b-da, 5, 2, 6, 10, 90, 165, 161, 88, 165, 90, 1, 2.18954
278, 1, wb, attraction, a-b-db, 14, 1, 6, 11, 60, 135, 56, 125, 135, 60, 2, 0.739441
278, 1, wb, attraction, a-b-db, 14, 1, 6, 11, 60, 135, 56, 125, 135, 60, 1, 0.340472
278, 1, wb, filler, NA, 999, 999, 6, 12, 126, 98, 101, 66, 69, 159, 2, 0.724299
278, 1, wb, filler, NA, 999, 999, 6, 12, 126, 98, 101, 66, 69, 159, 1, 0.158076
278, 1, wb, attraction, a-b-db, 9, 1, 6, 13, 57, 129, 135, 60, 60, 135, 1, 2.06924
278, 1, wb, attraction, a-b-db, 9, 1, 6, 13, 57, 129, 135, 60, 60, 135, 3, 0.313337
278, 1, wb, attraction, a-b-da, 9, 2, 6, 14, 165, 90, 90, 165, 157, 86, 2, 2.43442
278, 1, wb, attraction, a-b-da, 9, 2, 6, 14, 165, 90, 90, 165, 157, 86, 1, 0.67966
278, 1, wb, catch, NA, 999, 999, 6, 15, 175, 140, 111, 144, 112, 83, 3, 0.562052
278, 1, wb, catch, NA, 999, 999, 6, 15, 175, 140, 111, 144, 112, 83, 1, 0.642507
278, 1, wb, attraction, a-b-da, 5, 3, 6, 16, 120, 195, 195, 120, 190, 117, 2, 1.34232
278, 1, wb, attraction, a-b-da, 5, 3, 6, 16, 120, 195, 195, 120, 190, 117, 1, 0.17516
278, 1, wb, filler, NA, 999, 999, 6, 17, 94, 58, 62, 160, 126, 175, 1, 0.76568
278, 1, wb, filler, NA, 999, 999, 6, 17, 94, 58, 62, 160, 126, 175, 3, 0.238073
278, 1, wb, attraction, a-b-da, 2, 3, 6, 18, 120, 195, 193, 119, 195, 120, 3, 2.09057
278, 1, wb, attraction, a-b-da, 2, 3, 6, 18, 120, 195, 193, 119, 195, 120, 1, 0.213379
278, 1, wb, filler, NA, 999, 999, 6, 19, 85, 98, 98, 163, 128, 150, 1, 0.458423
278, 1, wb, filler, NA, 999, 999, 6, 19, 85, 98, 98, 163, 128, 150, 3, 0.278944
278, 1, wb, catch, NA, 999, 999, 6, 20, 138, 117, 125, 190, 94, 101, 3, 0.601525
278, 1, wb, catch, NA, 999, 999, 6, 20, 138, 117, 125, 190, 94, 101, 1, 0.656581
278, 1, wb, attraction, a-b-da, 9, 1, 6, 21, 135, 60, 129, 57, 60, 135, 2, 2.41969
278, 1, wb, attraction, a-b-da, 9, 1, 6, 21, 135, 60, 129, 57, 60, 135, 3, 0.241557
278, 1, wb, attraction, a-b-db, 2, 1, 6, 22, 135, 60, 59, 134, 60, 135, 1, 3.81336
278, 1, wb, attraction, a-b-db, 2, 1, 6, 22, 135, 60, 59, 134, 60, 135, 3, 1.32299
278, 1, wb, attraction, a-b-db, 5, 1, 6, 23, 58, 132, 60, 135, 135, 60, 3, 1.04377
278, 1, wb, attraction, a-b-db, 5, 1, 6, 23, 58, 132, 60, 135, 135, 60, 1, 0.592668
278, 1, wb, attraction, a-b-da, 2, 1, 6, 24, 135, 60, 60, 135, 134, 59, 2, 0.934566
278, 1, wb, attraction, a-b-da, 2, 1, 6, 24, 135, 60, 60, 135, 134, 59, 3, 0.912135
278, 1, wb, attraction, a-b-db, 5, 2, 6, 25, 90, 165, 165, 90, 88, 161, 2, 7.9372
278, 1, wb, attraction, a-b-db, 5, 2, 6, 25, 90, 165, 165, 90, 88, 161, 3, 1.91276
278, 1, wb, attraction, a-b-da, 5, 1, 6, 26, 60, 135, 132, 58, 135, 60, 2, 1.36136
278, 1, wb, attraction, a-b-da, 5, 1, 6, 26, 60, 135, 132, 58, 135, 60, 3, 0.625555
278, 1, wb, attraction, a-b-da, 14, 1, 6, 27, 125, 56, 60, 135, 135, 60, 1, 1.50203
278, 1, wb, attraction, a-b-da, 14, 1, 6, 27, 125, 56, 60, 135, 135, 60, 2, 0.36079
278, 1, wb, attraction, a-b-da, 2, 2, 6, 28, 163, 89, 90, 165, 165, 90, 1, 2.36005
278, 1, wb, attraction, a-b-da, 2, 2, 6, 28, 163, 89, 90, 165, 165, 90, 3, 1.33594
278, 1, wb, filler, NA, 999, 999, 6, 29, 176, 180, 147, 88, 111, 139, 2, 0.968069
278, 1, wb, filler, NA, 999, 999, 6, 29, 176, 180, 147, 88, 111, 139, 1, 0.216338
278, 1, wb, catch, NA, 999, 999, 6, 30, 105, 150, 156, 159, 78, 117, 3, 1.44557
278, 1, wb, catch, NA, 999, 999, 6, 30, 105, 150, 156, 159, 78, 117, 2, 0.386384
278, 1, wb, filler, NA, 999, 999, 6, 31, 85, 68, 93, 182, 56, 77, 3, 1.01695
278, 1, wb, filler, NA, 999, 999, 6, 31, 85, 68, 93, 182, 56, 77, 2, 0.415244
278, 1, wb, filler, NA, 999, 999, 6, 32, 97, 162, 193, 127, 107, 146, 1, 7.46841
278, 1, wb, filler, NA, 999, 999, 6, 32, 97, 162, 193, 127, 107, 146, 2, 0.558898
278, 1, wb, attraction, a-b-db, 5, 3, 6, 33, 195, 120, 117, 190, 120, 195, 2, 4.9019
278, 1, wb, attraction, a-b-db, 5, 3, 6, 33, 195, 120, 117, 190, 120, 195, 3, 7.43177
278, 1, wb, attraction, a-b-db, 2, 3, 6, 34, 120, 195, 119, 193, 195, 120, 1, 12.25
278, 1, wb, attraction, a-b-db, 2, 3, 6, 34, 120, 195, 119, 193, 195, 120, 3, 0.323361
278, 1, wb, filler, NA, 999, 999, 6, 35, 141, 145, 121, 105, 182, 100, 2, 0.619872
278, 1, wb, filler, NA, 999, 999, 6, 35, 141, 145, 121, 105, 182, 100, 1, 0.322383
278, 1, wb, attraction, a-b-da, 14, 2, 6, 36, 165, 90, 153, 83, 90, 165, 2, 2.28368
278, 1, wb, attraction, a-b-da, 14, 2, 6, 36, 165, 90, 153, 83, 90, 165, 3, 0.278778
278, 1, wb, attraction, a-b-db, 14, 3, 6, 37, 111, 181, 120, 195, 195, 120, 1, 2.55337
278, 1, wb, attraction, a-b-db, 14, 3, 6, 37, 111, 181, 120, 195, 195, 120, 3, 0.897733
278, 1, wb, attraction, a-b-db, 14, 1, 7, 1, 56, 125, 135, 60, 60, 135, 2, 2.93148
278, 1, wb, attraction, a-b-db, 14, 1, 7, 1, 56, 125, 135, 60, 60, 135, 3, 0.716664
278, 1, wb, attraction, a-b-db, 2, 3, 7, 2, 119, 193, 120, 195, 195, 120, 2, 1.13355
278, 1, wb, attraction, a-b-db, 2, 3, 7, 2, 119, 193, 120, 195, 195, 120, 3, 0.359147
278, 1, wb, attraction, a-b-db, 9, 2, 7, 3, 165, 90, 86, 157, 90, 165, 1, 2.79837
278, 1, wb, attraction, a-b-db, 9, 2, 7, 3, 165, 90, 86, 157, 90, 165, 3, 0.588796
278, 1, wb, filler, NA, 999, 999, 7, 4, 78, 74, 110, 191, 99, 93, 1, 0.587118
278, 1, wb, filler, NA, 999, 999, 7, 4, 78, 74, 110, 191, 99, 93, 2, 0.403037
278, 1, wb, attraction, a-b-da, 5, 2, 7, 5, 165, 90, 90, 165, 161, 88, 3, 2.61694
278, 1, wb, attraction, a-b-da, 5, 2, 7, 5, 165, 90, 90, 165, 161, 88, 1, 1.31863
278, 1, wb, attraction, a-b-db, 14, 2, 7, 6, 90, 165, 165, 90, 83, 153, 2, 4.83146
278, 1, wb, attraction, a-b-db, 14, 2, 7, 6, 90, 165, 165, 90, 83, 153, 1, 0.331934
278, 1, wb, attraction, a-b-da, 14, 1, 7, 7, 125, 56, 135, 60, 60, 135, 1, 3.39646
278, 1, wb, attraction, a-b-da, 14, 1, 7, 7, 125, 56, 135, 60, 60, 135, 3, 0.306786
278, 1, wb, attraction, a-b-da, 2, 3, 7, 8, 120, 195, 193, 119, 195, 120, 2, 2.40382
278, 1, wb, attraction, a-b-da, 2, 3, 7, 8, 120, 195, 193, 119, 195, 120, 3, 0.762423
278, 1, wb, filler, NA, 999, 999, 7, 9, 103, 77, 147, 165, 92, 69, 3, 0.929568
278, 1, wb, filler, NA, 999, 999, 7, 9, 103, 77, 147, 165, 92, 69, 2, 0.307258
278, 1, wb, attraction, a-b-db, 2, 1, 7, 10, 135, 60, 60, 135, 59, 134, 2, 1.05235
278, 1, wb, attraction, a-b-db, 2, 1, 7, 10, 135, 60, 60, 135, 59, 134, 1, 0.833313
278, 1, wb, attraction, a-b-da, 5, 3, 7, 11, 190, 117, 120, 195, 195, 120, 2, 0.54173
278, 1, wb, attraction, a-b-da, 5, 3, 7, 11, 190, 117, 120, 195, 195, 120, 3, 0.382733
278, 1, wb, attraction, a-b-da, 9, 3, 7, 12, 120, 195, 195, 120, 186, 114, 3, 1.4934
278, 1, wb, attraction, a-b-da, 9, 3, 7, 12, 120, 195, 195, 120, 186, 114, 1, 0.328082
278, 1, wb, attraction, a-b-da, 2, 2, 7, 13, 90, 165, 165, 90, 163, 89, 3, 1.20876
278, 1, wb, attraction, a-b-da, 2, 2, 7, 13, 90, 165, 165, 90, 163, 89, 2, 0.886822
278, 1, wb, attraction, a-b-db, 9, 1, 7, 14, 57, 129, 60, 135, 135, 60, 1, 0.753368
278, 1, wb, attraction, a-b-db, 9, 1, 7, 14, 57, 129, 60, 135, 135, 60, 3, 0.570386
278, 1, wb, attraction, a-b-db, 14, 3, 7, 15, 195, 120, 111, 181, 120, 195, 2, 0.657405
278, 1, wb, attraction, a-b-db, 14, 3, 7, 15, 195, 120, 111, 181, 120, 195, 1, 0.517738
278, 1, wb, filler, NA, 999, 999, 7, 16, 87, 122, 195, 127, 181, 99, 1, 0.678861
278, 1, wb, filler, NA, 999, 999, 7, 16, 87, 122, 195, 127, 181, 99, 2, 0.482645
278, 1, wb, catch, NA, 999, 999, 7, 17, 107, 148, 135, 60, 145, 170, 2, 0.789074
278, 1, wb, catch, NA, 999, 999, 7, 17, 107, 148, 135, 60, 145, 170, 3, 0.196215
278, 1, wb, attraction, a-b-da, 9, 2, 7, 18, 157, 86, 165, 90, 90, 165, 2, 3.00211
278, 1, wb, attraction, a-b-da, 9, 2, 7, 18, 157, 86, 165, 90, 90, 165, 3, 0.656496
278, 1, wb, attraction, a-b-db, 5, 1, 7, 19, 60, 135, 58, 132, 135, 60, 1, 0.900323
278, 1, wb, attraction, a-b-db, 5, 1, 7, 19, 60, 135, 58, 132, 135, 60, 3, 0.223218
278, 1, wb, attraction, a-b-da, 14, 3, 7, 20, 120, 195, 181, 111, 195, 120, 2, 0.595777
278, 1, wb, attraction, a-b-da, 14, 3, 7, 20, 120, 195, 181, 111, 195, 120, 3, 0.699005
278, 1, wb, attraction, a-b-da, 2, 1, 7, 21, 135, 60, 134, 59, 60, 135, 2, 2.02862
278, 1, wb, attraction, a-b-da, 2, 1, 7, 21, 135, 60, 134, 59, 60, 135, 1, 1.23401
278, 1, wb, attraction, a-b-db, 5, 3, 7, 22, 195, 120, 117, 190, 120, 195, 2, 1.3022
278, 1, wb, attraction, a-b-db, 5, 3, 7, 22, 195, 120, 117, 190, 120, 195, 3, 1.28921
278, 1, wb, attraction, a-b-da, 9, 1, 7, 23, 129, 57, 135, 60, 60, 135, 1, 0.875385
278, 1, wb, attraction, a-b-da, 9, 1, 7, 23, 129, 57, 135, 60, 60, 135, 2, 0.382951
278, 1, wb, attraction, a-b-da, 5, 1, 7, 24, 135, 60, 60, 135, 132, 58, 2, 0.589394
278, 1, wb, attraction, a-b-da, 5, 1, 7, 24, 135, 60, 60, 135, 132, 58, 3, 0.412573
278, 1, wb, filler, NA, 999, 999, 7, 25, 78, 85, 63, 119, 131, 89, 1, 0.553854
278, 1, wb, filler, NA, 999, 999, 7, 25, 78, 85, 63, 119, 131, 89, 3, 0.330842
278, 1, wb, catch, NA, 999, 999, 7, 26, 121, 134, 139, 176, 86, 109, 3, 1.16347
278, 1, wb, catch, NA, 999, 999, 7, 26, 121, 134, 139, 176, 86, 109, 2, 0.32366
278, 1, wb, attraction, a-b-db, 5, 2, 7, 27, 88, 161, 90, 165, 165, 90, 2, 0.756135
278, 1, wb, attraction, a-b-db, 5, 2, 7, 27, 88, 161, 90, 165, 165, 90, 3, 0.484574
278, 1, wb, filler, NA, 999, 999, 7, 28, 92, 92, 66, 96, 136, 127, 2, 0.471093
278, 1, wb, filler, NA, 999, 999, 7, 28, 92, 92, 66, 96, 136, 127, 3, 0.299558
278, 1, wb, filler, NA, 999, 999, 7, 29, 156, 99, 116, 148, 111, 114, 3, 1.22142
278, 1, wb, filler, NA, 999, 999, 7, 29, 156, 99, 116, 148, 111, 114, 2, 1.01967
278, 1, wb, filler, NA, 999, 999, 7, 30, 163, 57, 195, 175, 62, 183, 3, 1.80862
278, 1, wb, filler, NA, 999, 999, 7, 30, 163, 57, 195, 175, 62, 183, 2, 0.335046
278, 1, wb, attraction, a-b-db, 2, 2, 7, 31, 165, 90, 90, 165, 89, 163, 2, 0.80735
278, 1, wb, attraction, a-b-db, 2, 2, 7, 31, 165, 90, 90, 165, 89, 163, 3, 3.42959
278, 1, wb, attraction, a-b-da, 14, 2, 7, 32, 153, 83, 165, 90, 90, 165, 1, 1.24916
278, 1, wb, attraction, a-b-da, 14, 2, 7, 32, 153, 83, 165, 90, 90, 165, 3, 0.246015
278, 1, wb, attraction, a-b-db, 9, 3, 7, 33, 114, 186, 195, 120, 120, 195, 2, 0.945994
278, 1, wb, attraction, a-b-db, 9, 3, 7, 33, 114, 186, 195, 120, 120, 195, 3, 0.186858
278, 1, wb, catch, NA, 999, 999, 7, 34, 78, 117, 147, 108, 172, 143, 1, 0.625375
278, 1, wb, catch, NA, 999, 999, 7, 34, 78, 117, 147, 108, 172, 143, 3, 0.255279
278, 1, wb, filler, NA, 999, 999, 7, 35, 157, 127, 180, 188, 131, 99, 3, 0.971144
278, 1, wb, filler, NA, 999, 999, 7, 35, 157, 127, 180, 188, 131, 99, 2, 0.299352
278, 1, wb, filler, NA, 999, 999, 7, 36, 143, 92, 86, 60, 86, 106, 2, 0.637161
278, 1, wb, filler, NA, 999, 999, 7, 36, 143, 92, 86, 60, 86, 106, 1, 0.266975
278, 1, wb, filler, NA, 999, 999, 7, 37, 75, 132, 168, 84, 159, 64, 1, 2.5662
278, 1, wb, filler, NA, 999, 999, 7, 37, 75, 132, 168, 84, 159, 64, 2, 0.56606
278, 1, wb, filler, NA, 999, 999, 8, 1, 142, 77, 120, 85, 192, 156, 2, 1.30929
278, 1, wb, filler, NA, 999, 999, 8, 1, 142, 77, 120, 85, 192, 156, 3, 0.247415
278, 1, wb, attraction, a-b-db, 5, 1, 8, 2, 60, 135, 58, 132, 135, 60, 2, 1.51534
278, 1, wb, attraction, a-b-db, 5, 1, 8, 2, 60, 135, 58, 132, 135, 60, 3, 0.429548
278, 1, wb, filler, NA, 999, 999, 8, 3, 194, 138, 128, 143, 165, 170, 2, 0.521849
278, 1, wb, filler, NA, 999, 999, 8, 3, 194, 138, 128, 143, 165, 170, 3, 0.52377
278, 1, wb, attraction, a-b-db, 2, 2, 8, 4, 90, 165, 165, 90, 89, 163, 3, 2.60418
278, 1, wb, attraction, a-b-db, 2, 2, 8, 4, 90, 165, 165, 90, 89, 163, 1, 0.730587
278, 1, wb, attraction, a-b-db, 9, 2, 8, 5, 90, 165, 86, 157, 165, 90, 3, 1.70697
278, 1, wb, attraction, a-b-db, 9, 2, 8, 5, 90, 165, 86, 157, 165, 90, 1, 0.717287
278, 1, wb, filler, NA, 999, 999, 8, 6, 147, 160, 59, 96, 167, 158, 2, 0.702119
278, 1, wb, filler, NA, 999, 999, 8, 6, 147, 160, 59, 96, 167, 158, 3, 0.489269
278, 1, wb, attraction, a-b-db, 2, 3, 8, 7, 195, 120, 120, 195, 119, 193, 1, 3.17166
278, 1, wb, attraction, a-b-db, 2, 3, 8, 7, 195, 120, 120, 195, 119, 193, 3, 0.71554
278, 1, wb, attraction, a-b-da, 5, 2, 8, 8, 161, 88, 90, 165, 165, 90, 2, 3.48436
278, 1, wb, attraction, a-b-da, 5, 2, 8, 8, 161, 88, 90, 165, 165, 90, 3, 0.847291
278, 1, wb, attraction, a-b-da, 2, 3, 8, 9, 120, 195, 193, 119, 195, 120, 2, 1.77092
278, 1, wb, attraction, a-b-da, 2, 3, 8, 9, 120, 195, 193, 119, 195, 120, 3, 0.299059
278, 1, wb, attraction, a-b-da, 2, 2, 8, 10, 90, 165, 165, 90, 163, 89, 1, 1.02097
278, 1, wb, attraction, a-b-da, 2, 2, 8, 10, 90, 165, 165, 90, 163, 89, 3, 1.17931
278, 1, wb, attraction, a-b-db, 9, 3, 8, 11, 114, 186, 120, 195, 195, 120, 1, 2.82537
278, 1, wb, attraction, a-b-db, 9, 3, 8, 11, 114, 186, 120, 195, 195, 120, 3, 0.270652
278, 1, wb, filler, NA, 999, 999, 8, 12, 90, 146, 100, 76, 77, 106, 3, 0.873997
278, 1, wb, filler, NA, 999, 999, 8, 12, 90, 146, 100, 76, 77, 106, 1, 0.685449
278, 1, wb, attraction, a-b-db, 5, 2, 8, 13, 88, 161, 165, 90, 90, 165, 3, 3.30399
278, 1, wb, attraction, a-b-db, 5, 2, 8, 13, 88, 161, 165, 90, 90, 165, 2, 0.170071
278, 1, wb, attraction, a-b-db, 14, 1, 8, 14, 60, 135, 56, 125, 135, 60, 2, 2.20137
278, 1, wb, attraction, a-b-db, 14, 1, 8, 14, 60, 135, 56, 125, 135, 60, 3, 0.224053
278, 1, wb, filler, NA, 999, 999, 8, 15, 76, 60, 96, 184, 122, 116, 1, 0.604433
278, 1, wb, filler, NA, 999, 999, 8, 15, 76, 60, 96, 184, 122, 116, 3, 0.267578
278, 1, wb, filler, NA, 999, 999, 8, 16, 135, 117, 143, 89, 153, 108, 2, 1.07089
278, 1, wb, filler, NA, 999, 999, 8, 16, 135, 117, 143, 89, 153, 108, 3, 0.259177
278, 1, wb, attraction, a-b-db, 2, 1, 8, 17, 59, 134, 135, 60, 60, 135, 1, 3.71824
278, 1, wb, attraction, a-b-db, 2, 1, 8, 17, 59, 134, 135, 60, 60, 135, 3, 0.255844
278, 1, wb, filler, NA, 999, 999, 8, 18, 127, 76, 56, 62, 192, 90, 2, 0.667836
278, 1, wb, filler, NA, 999, 999, 8, 18, 127, 76, 56, 62, 192, 90, 3, 0.5602
278, 1, wb, attraction, a-b-db, 14, 3, 8, 19, 120, 195, 111, 181, 195, 120, 2, 2.13514
278, 1, wb, attraction, a-b-db, 14, 3, 8, 19, 120, 195, 111, 181, 195, 120, 1, 0.712526
278, 1, wb, catch, NA, 999, 999, 8, 20, 127, 68, 144, 111, 147, 168, 1, 0.71349
278, 1, wb, catch, NA, 999, 999, 8, 20, 127, 68, 144, 111, 147, 168, 3, 0.364132
278, 1, wb, attraction, a-b-db, 14, 2, 8, 21, 90, 165, 165, 90, 83, 153, 3, 4.19515
278, 1, wb, attraction, a-b-db, 14, 2, 8, 21, 90, 165, 165, 90, 83, 153, 1, 0.585248
278, 1, wb, attraction, a-b-db, 5, 3, 8, 22, 120, 195, 117, 190, 195, 120, 2, 5.69552
278, 1, wb, attraction, a-b-db, 5, 3, 8, 22, 120, 195, 117, 190, 195, 120, 3, 0.553069
278, 1, wb, attraction, a-b-da, 5, 1, 8, 23, 132, 58, 135, 60, 60, 135, 1, 1.7368
278, 1, wb, attraction, a-b-da, 5, 1, 8, 23, 132, 58, 135, 60, 60, 135, 3, 0.458306
278, 1, wb, catch, NA, 999, 999, 8, 24, 67, 128, 143, 112, 166, 149, 1, 0.533362
278, 1, wb, catch, NA, 999, 999, 8, 24, 67, 128, 143, 112, 166, 149, 3, 0.367237
278, 1, wb, attraction, a-b-da, 14, 2, 8, 25, 165, 90, 90, 165, 153, 83, 3, 0.846351
278, 1, wb, attraction, a-b-da, 14, 2, 8, 25, 165, 90, 90, 165, 153, 83, 1, 0.435415
278, 1, wb, filler, NA, 999, 999, 8, 26, 188, 141, 166, 179, 132, 95, 3, 0.519929
278, 1, wb, filler, NA, 999, 999, 8, 26, 188, 141, 166, 179, 132, 95, 1, 0.402373
278, 1, wb, attraction, a-b-db, 9, 1, 8, 27, 135, 60, 57, 129, 60, 135, 2, 0.680195
278, 1, wb, attraction, a-b-db, 9, 1, 8, 27, 135, 60, 57, 129, 60, 135, 3, 0.468058
278, 1, wb, attraction, a-b-da, 2, 1, 8, 28, 60, 135, 134, 59, 135, 60, 2, 0.543204
278, 1, wb, attraction, a-b-da, 2, 1, 8, 28, 60, 135, 134, 59, 135, 60, 1, 0.736229
278, 1, wb, attraction, a-b-da, 9, 1, 8, 29, 135, 60, 60, 135, 129, 57, 3, 2.20056
278, 1, wb, attraction, a-b-da, 9, 1, 8, 29, 135, 60, 60, 135, 129, 57, 1, 0.743307
278, 1, wb, attraction, a-b-da, 9, 3, 8, 30, 186, 114, 120, 195, 195, 120, 2, 1.26292
278, 1, wb, attraction, a-b-da, 9, 3, 8, 30, 186, 114, 120, 195, 195, 120, 3, 0.227166
278, 1, wb, attraction, a-b-da, 5, 3, 8, 31, 195, 120, 190, 117, 120, 195, 2, 5.67985
278, 1, wb, attraction, a-b-da, 5, 3, 8, 31, 195, 120, 190, 117, 120, 195, 1, 0.529984
278, 1, wb, filler, NA, 999, 999, 8, 32, 117, 190, 73, 60, 132, 63, 2, 0.770362
278, 1, wb, filler, NA, 999, 999, 8, 32, 117, 190, 73, 60, 132, 63, 1, 0.210686
278, 1, wb, attraction, a-b-da, 14, 3, 8, 33, 195, 120, 181, 111, 120, 195, 2, 4.14393
278, 1, wb, attraction, a-b-da, 14, 3, 8, 33, 195, 120, 181, 111, 120, 195, 3, 2.19999
278, 1, wb, attraction, a-b-da, 9, 2, 8, 34, 157, 86, 165, 90, 90, 165, 2, 10.5492
278, 1, wb, attraction, a-b-da, 9, 2, 8, 34, 157, 86, 165, 90, 90, 165, 3, 0.955257
278, 1, wb, filler, NA, 999, 999, 8, 35, 174, 90, 93, 106, 151, 69, 2, 1.25091
278, 1, wb, filler, NA, 999, 999, 8, 35, 174, 90, 93, 106, 151, 69, 1, 0.287773
278, 1, wb, catch, NA, 999, 999, 8, 36, 121, 134, 163, 152, 94, 101, 3, 0.706279
278, 1, wb, catch, NA, 999, 999, 8, 36, 121, 134, 163, 152, 94, 101, 2, 0.268677
278, 1, wb, attraction, a-b-da, 14, 1, 8, 37, 135, 60, 60, 135, 125, 56, 3, 1.33586
278, 1, wb, attraction, a-b-da, 14, 1, 8, 37, 135, 60, 60, 135, 125, 56, 1, 0.717257
