sub_n, computer_n, bw_cond, effect, set, distance, diag, block_n, trial_n, h1, w1, h2, w2, h3, w3, choice, rt 
257, 1, bw, practice, NA, 999, 999, 0, 1, 130, 108, 117, 176, 153, 155, 3, 3.57602
257, 1, bw, practice, NA, 999, 999, 0, 1, 130, 108, 117, 176, 153, 155, 1, 2.77422
257, 1, bw, practice, NA, 999, 999, 0, 2, 144, 155, 91, 87, 84, 98, 1, 2.80054
257, 1, bw, practice, NA, 999, 999, 0, 2, 144, 155, 91, 87, 84, 98, 2, 2.82479
257, 1, bw, practice, NA, 999, 999, 0, 3, 62, 122, 93, 195, 184, 192, 3, 1.4953
257, 1, bw, practice, NA, 999, 999, 0, 3, 62, 122, 93, 195, 184, 192, 1, 1.17197
257, 1, bw, attraction, a-b-da, 9, 1, 1, 1, 60, 135, 129, 57, 135, 60, 1, 6.75352
257, 1, bw, attraction, a-b-da, 9, 1, 1, 1, 60, 135, 129, 57, 135, 60, 2, 1.8887
257, 1, bw, attraction, a-b-da, 2, 2, 1, 2, 90, 165, 163, 89, 165, 90, 3, 15.2587
257, 1, bw, attraction, a-b-da, 2, 2, 1, 2, 90, 165, 163, 89, 165, 90, 1, 1.13062
257, 1, bw, attraction, a-b-da, 5, 1, 1, 3, 60, 135, 135, 60, 132, 58, 3, 2.44285
257, 1, bw, attraction, a-b-da, 5, 1, 1, 3, 60, 135, 135, 60, 132, 58, 1, 9.43134
257, 1, bw, attraction, a-b-db, 14, 2, 1, 4, 90, 165, 165, 90, 83, 153, 2, 8.76104
257, 1, bw, attraction, a-b-db, 14, 2, 1, 4, 90, 165, 165, 90, 83, 153, 3, 1.01483
257, 1, bw, filler, NA, 999, 999, 1, 5, 70, 89, 109, 192, 58, 135, 2, 1.75584
257, 1, bw, filler, NA, 999, 999, 1, 5, 70, 89, 109, 192, 58, 135, 1, 0.915904
257, 1, bw, attraction, a-b-da, 9, 3, 1, 6, 120, 195, 186, 114, 195, 120, 3, 4.64486
257, 1, bw, attraction, a-b-da, 9, 3, 1, 6, 120, 195, 186, 114, 195, 120, 1, 1.44082
257, 1, bw, filler, NA, 999, 999, 1, 7, 177, 194, 140, 159, 96, 131, 1, 1.71618
257, 1, bw, filler, NA, 999, 999, 1, 7, 177, 194, 140, 159, 96, 131, 3, 0.806336
257, 1, bw, attraction, a-b-db, 5, 3, 1, 8, 120, 195, 195, 120, 117, 190, 2, 20.6522
257, 1, bw, attraction, a-b-db, 5, 3, 1, 8, 120, 195, 195, 120, 117, 190, 1, 2.86696
257, 1, bw, attraction, a-b-db, 5, 2, 1, 9, 165, 90, 90, 165, 88, 161, 1, 7.45329
257, 1, bw, attraction, a-b-db, 5, 2, 1, 9, 165, 90, 90, 165, 88, 161, 3, 0.832307
257, 1, bw, attraction, a-b-db, 14, 1, 1, 10, 60, 135, 56, 125, 135, 60, 3, 1.96457
257, 1, bw, attraction, a-b-db, 14, 1, 1, 10, 60, 135, 56, 125, 135, 60, 2, 1.58876
257, 1, bw, filler, NA, 999, 999, 1, 11, 99, 122, 140, 69, 58, 89, 1, 3.13873
257, 1, bw, filler, NA, 999, 999, 1, 11, 99, 122, 140, 69, 58, 89, 3, 0.60308
257, 1, bw, filler, NA, 999, 999, 1, 12, 127, 79, 57, 157, 90, 122, 3, 8.07305
257, 1, bw, filler, NA, 999, 999, 1, 12, 127, 79, 57, 157, 90, 122, 2, 1.57829
257, 1, bw, attraction, a-b-db, 2, 2, 1, 13, 90, 165, 165, 90, 89, 163, 2, 4.13632
257, 1, bw, attraction, a-b-db, 2, 2, 1, 13, 90, 165, 165, 90, 89, 163, 3, 0.537136
257, 1, bw, attraction, a-b-db, 9, 3, 1, 14, 195, 120, 114, 186, 120, 195, 3, 9.91376
257, 1, bw, attraction, a-b-db, 9, 3, 1, 14, 195, 120, 114, 186, 120, 195, 2, 0.432994
257, 1, bw, attraction, a-b-da, 2, 3, 1, 15, 193, 119, 120, 195, 195, 120, 3, 4.26155
257, 1, bw, attraction, a-b-da, 2, 3, 1, 15, 193, 119, 120, 195, 195, 120, 1, 1.02491
257, 1, bw, filler, NA, 999, 999, 1, 16, 63, 122, 190, 186, 74, 67, 2, 8.45308
257, 1, bw, filler, NA, 999, 999, 1, 16, 63, 122, 190, 186, 74, 67, 3, 0.751793
257, 1, bw, catch, NA, 999, 999, 1, 17, 74, 121, 146, 169, 161, 94, 2, 1.48755
257, 1, bw, catch, NA, 999, 999, 1, 17, 74, 121, 146, 169, 161, 94, 1, 0.979032
257, 1, bw, attraction, a-b-da, 14, 3, 1, 18, 181, 111, 120, 195, 195, 120, 2, 5.23344
257, 1, bw, attraction, a-b-da, 14, 3, 1, 18, 181, 111, 120, 195, 195, 120, 1, 0.64576
257, 1, bw, attraction, a-b-db, 2, 3, 1, 19, 119, 193, 195, 120, 120, 195, 3, 7.16144
257, 1, bw, attraction, a-b-db, 2, 3, 1, 19, 119, 193, 195, 120, 120, 195, 2, 0.999959
257, 1, bw, catch, NA, 999, 999, 1, 20, 165, 150, 98, 97, 126, 129, 1, 0.717565
257, 1, bw, catch, NA, 999, 999, 1, 20, 165, 150, 98, 97, 126, 129, 2, 0.719877
257, 1, bw, attraction, a-b-da, 5, 2, 1, 21, 161, 88, 165, 90, 90, 165, 3, 3.15309
257, 1, bw, attraction, a-b-da, 5, 2, 1, 21, 161, 88, 165, 90, 90, 165, 2, 0.705191
257, 1, bw, filler, NA, 999, 999, 1, 22, 150, 132, 164, 66, 151, 104, 1, 1.76292
257, 1, bw, filler, NA, 999, 999, 1, 22, 150, 132, 164, 66, 151, 104, 2, 0.859085
257, 1, bw, attraction, a-b-da, 14, 2, 1, 23, 90, 165, 165, 90, 153, 83, 1, 1.64608
257, 1, bw, attraction, a-b-da, 14, 2, 1, 23, 90, 165, 165, 90, 153, 83, 3, 0.658839
257, 1, bw, attraction, a-b-db, 5, 1, 1, 24, 135, 60, 60, 135, 58, 132, 2, 3.14205
257, 1, bw, attraction, a-b-db, 5, 1, 1, 24, 135, 60, 60, 135, 58, 132, 3, 2.59822
257, 1, bw, attraction, a-b-db, 9, 1, 1, 25, 57, 129, 135, 60, 60, 135, 2, 2.92341
257, 1, bw, attraction, a-b-db, 9, 1, 1, 25, 57, 129, 135, 60, 60, 135, 1, 0.444412
257, 1, bw, attraction, a-b-db, 14, 3, 1, 26, 195, 120, 120, 195, 111, 181, 2, 6.37625
257, 1, bw, attraction, a-b-db, 14, 3, 1, 26, 195, 120, 120, 195, 111, 181, 3, 0.342154
257, 1, bw, filler, NA, 999, 999, 1, 27, 195, 179, 68, 66, 181, 138, 1, 1.48602
257, 1, bw, filler, NA, 999, 999, 1, 27, 195, 179, 68, 66, 181, 138, 2, 0.4257
257, 1, bw, attraction, a-b-da, 5, 3, 1, 28, 195, 120, 190, 117, 120, 195, 1, 8.19806
257, 1, bw, attraction, a-b-da, 5, 3, 1, 28, 195, 120, 190, 117, 120, 195, 3, 0.4267
257, 1, bw, catch, NA, 999, 999, 1, 29, 132, 63, 146, 109, 194, 121, 3, 1.31939
257, 1, bw, catch, NA, 999, 999, 1, 29, 132, 63, 146, 109, 194, 121, 1, 0.497531
257, 1, bw, filler, NA, 999, 999, 1, 30, 156, 140, 148, 183, 63, 159, 2, 1.19522
257, 1, bw, filler, NA, 999, 999, 1, 30, 156, 140, 148, 183, 63, 159, 3, 0.626187
257, 1, bw, attraction, a-b-db, 2, 1, 1, 31, 59, 134, 135, 60, 60, 135, 3, 2.43857
257, 1, bw, attraction, a-b-db, 2, 1, 1, 31, 59, 134, 135, 60, 60, 135, 1, 1.06727
257, 1, bw, attraction, a-b-da, 2, 1, 1, 32, 60, 135, 135, 60, 134, 59, 2, 1.97415
257, 1, bw, attraction, a-b-da, 2, 1, 1, 32, 60, 135, 135, 60, 134, 59, 1, 0.917547
257, 1, bw, attraction, a-b-db, 9, 2, 1, 33, 165, 90, 86, 157, 90, 165, 1, 1.56637
257, 1, bw, attraction, a-b-db, 9, 2, 1, 33, 165, 90, 86, 157, 90, 165, 3, 1.69462
257, 1, bw, attraction, a-b-da, 9, 2, 1, 34, 157, 86, 90, 165, 165, 90, 3, 1.35205
257, 1, bw, attraction, a-b-da, 9, 2, 1, 34, 157, 86, 90, 165, 165, 90, 2, 1.31287
257, 1, bw, filler, NA, 999, 999, 1, 35, 176, 81, 128, 159, 118, 105, 2, 1.27372
257, 1, bw, filler, NA, 999, 999, 1, 35, 176, 81, 128, 159, 118, 105, 3, 3.69346
257, 1, bw, attraction, a-b-da, 14, 1, 1, 36, 135, 60, 125, 56, 60, 135, 3, 1.67814
257, 1, bw, attraction, a-b-da, 14, 1, 1, 36, 135, 60, 125, 56, 60, 135, 2, 1.27367
257, 1, bw, filler, NA, 999, 999, 1, 37, 169, 157, 100, 63, 148, 81, 1, 0.843876
257, 1, bw, filler, NA, 999, 999, 1, 37, 169, 157, 100, 63, 148, 81, 2, 0.560769
257, 1, bw, filler, NA, 999, 999, 2, 1, 89, 136, 61, 175, 79, 160, 3, 5.05585
257, 1, bw, filler, NA, 999, 999, 2, 1, 89, 136, 61, 175, 79, 160, 2, 0.475522
257, 1, bw, attraction, a-b-db, 5, 1, 2, 2, 58, 132, 60, 135, 135, 60, 3, 1.84615
257, 1, bw, attraction, a-b-db, 5, 1, 2, 2, 58, 132, 60, 135, 135, 60, 1, 0.794769
257, 1, bw, attraction, a-b-db, 14, 3, 2, 3, 111, 181, 195, 120, 120, 195, 3, 3.82452
257, 1, bw, attraction, a-b-db, 14, 3, 2, 3, 111, 181, 195, 120, 120, 195, 1, 0.42127
257, 1, bw, attraction, a-b-db, 9, 2, 2, 4, 90, 165, 165, 90, 86, 157, 3, 2.01855
257, 1, bw, attraction, a-b-db, 9, 2, 2, 4, 90, 165, 165, 90, 86, 157, 1, 1.56037
257, 1, bw, attraction, a-b-da, 9, 2, 2, 5, 165, 90, 157, 86, 90, 165, 3, 1.28721
257, 1, bw, attraction, a-b-da, 9, 2, 2, 5, 165, 90, 157, 86, 90, 165, 2, 0.691029
257, 1, bw, attraction, a-b-db, 9, 1, 2, 6, 57, 129, 60, 135, 135, 60, 2, 5.06846
257, 1, bw, attraction, a-b-db, 9, 1, 2, 6, 57, 129, 60, 135, 135, 60, 3, 0.479505
257, 1, bw, catch, NA, 999, 999, 2, 7, 151, 104, 161, 154, 99, 96, 2, 0.857991
257, 1, bw, catch, NA, 999, 999, 2, 7, 151, 104, 161, 154, 99, 96, 3, 0.510349
257, 1, bw, attraction, a-b-db, 9, 3, 2, 8, 195, 120, 120, 195, 114, 186, 2, 11.5837
257, 1, bw, attraction, a-b-db, 9, 3, 2, 8, 195, 120, 120, 195, 114, 186, 1, 2.61983
257, 1, bw, attraction, a-b-da, 5, 3, 2, 9, 120, 195, 195, 120, 190, 117, 2, 2.33632
257, 1, bw, attraction, a-b-da, 5, 3, 2, 9, 120, 195, 195, 120, 190, 117, 3, 0.745577
257, 1, bw, attraction, a-b-da, 5, 1, 2, 10, 135, 60, 132, 58, 60, 135, 2, 2.67342
257, 1, bw, attraction, a-b-da, 5, 1, 2, 10, 135, 60, 132, 58, 60, 135, 3, 0.316347
257, 1, bw, attraction, a-b-db, 2, 3, 2, 11, 120, 195, 119, 193, 195, 120, 2, 1.42155
257, 1, bw, attraction, a-b-db, 2, 3, 2, 11, 120, 195, 119, 193, 195, 120, 3, 0.371797
257, 1, bw, catch, NA, 999, 999, 2, 12, 90, 105, 133, 182, 153, 102, 2, 1.37899
257, 1, bw, catch, NA, 999, 999, 2, 12, 90, 105, 133, 182, 153, 102, 1, 0.338404
257, 1, bw, attraction, a-b-db, 2, 2, 2, 13, 90, 165, 89, 163, 165, 90, 1, 4.39512
257, 1, bw, attraction, a-b-db, 2, 2, 2, 13, 90, 165, 89, 163, 165, 90, 3, 0.544965
257, 1, bw, attraction, a-b-db, 5, 2, 2, 14, 165, 90, 90, 165, 88, 161, 2, 1.87265
257, 1, bw, attraction, a-b-db, 5, 2, 2, 14, 165, 90, 90, 165, 88, 161, 1, 0.500071
257, 1, bw, attraction, a-b-db, 2, 1, 2, 15, 59, 134, 60, 135, 135, 60, 3, 1.52614
257, 1, bw, attraction, a-b-db, 2, 1, 2, 15, 59, 134, 60, 135, 135, 60, 2, 0.423409
257, 1, bw, filler, NA, 999, 999, 2, 16, 94, 96, 173, 93, 143, 69, 2, 1.22794
257, 1, bw, filler, NA, 999, 999, 2, 16, 94, 96, 173, 93, 143, 69, 1, 0.353505
257, 1, bw, filler, NA, 999, 999, 2, 17, 73, 79, 67, 157, 143, 139, 3, 0.681329
257, 1, bw, filler, NA, 999, 999, 2, 17, 73, 79, 67, 157, 143, 139, 1, 0.588996
257, 1, bw, filler, NA, 999, 999, 2, 18, 169, 68, 82, 88, 57, 81, 1, 1.17947
257, 1, bw, filler, NA, 999, 999, 2, 18, 169, 68, 82, 88, 57, 81, 3, 0.507056
257, 1, bw, filler, NA, 999, 999, 2, 19, 66, 141, 91, 80, 132, 142, 3, 1.09223
257, 1, bw, filler, NA, 999, 999, 2, 19, 66, 141, 91, 80, 132, 142, 2, 1.05531
257, 1, bw, attraction, a-b-da, 2, 2, 2, 20, 165, 90, 90, 165, 163, 89, 1, 1.61078
257, 1, bw, attraction, a-b-da, 2, 2, 2, 20, 165, 90, 90, 165, 163, 89, 3, 0.648989
257, 1, bw, catch, NA, 999, 999, 2, 21, 116, 79, 159, 96, 123, 192, 3, 0.948698
257, 1, bw, catch, NA, 999, 999, 2, 21, 116, 79, 159, 96, 123, 192, 1, 0.837584
257, 1, bw, attraction, a-b-da, 14, 3, 2, 22, 120, 195, 181, 111, 195, 120, 1, 1.92203
257, 1, bw, attraction, a-b-da, 14, 3, 2, 22, 120, 195, 181, 111, 195, 120, 2, 2.77932
257, 1, bw, attraction, a-b-da, 2, 3, 2, 23, 120, 195, 193, 119, 195, 120, 2, 10.1291
257, 1, bw, attraction, a-b-da, 2, 3, 2, 23, 120, 195, 193, 119, 195, 120, 1, 6.92801
257, 1, bw, filler, NA, 999, 999, 2, 24, 183, 75, 151, 98, 77, 71, 2, 3.75845
257, 1, bw, filler, NA, 999, 999, 2, 24, 183, 75, 151, 98, 77, 71, 3, 0.685775
257, 1, bw, filler, NA, 999, 999, 2, 25, 159, 172, 57, 69, 122, 184, 1, 2.98416
257, 1, bw, filler, NA, 999, 999, 2, 25, 159, 172, 57, 69, 122, 184, 2, 0.455366
257, 1, bw, attraction, a-b-da, 9, 3, 2, 26, 186, 114, 195, 120, 120, 195, 2, 3.01904
257, 1, bw, attraction, a-b-da, 9, 3, 2, 26, 186, 114, 195, 120, 120, 195, 1, 3.5048
257, 1, bw, attraction, a-b-da, 14, 1, 2, 27, 60, 135, 125, 56, 135, 60, 3, 2.16158
257, 1, bw, attraction, a-b-da, 14, 1, 2, 27, 60, 135, 125, 56, 135, 60, 1, 0.753485
257, 1, bw, attraction, a-b-da, 5, 2, 2, 28, 161, 88, 90, 165, 165, 90, 1, 3.76123
257, 1, bw, attraction, a-b-da, 5, 2, 2, 28, 161, 88, 90, 165, 165, 90, 3, 0.505119
257, 1, bw, attraction, a-b-db, 14, 2, 2, 29, 90, 165, 83, 153, 165, 90, 3, 0.978621
257, 1, bw, attraction, a-b-db, 14, 2, 2, 29, 90, 165, 83, 153, 165, 90, 1, 0.64213
257, 1, bw, attraction, a-b-db, 14, 1, 2, 30, 60, 135, 135, 60, 56, 125, 2, 1.64596
257, 1, bw, attraction, a-b-db, 14, 1, 2, 30, 60, 135, 135, 60, 56, 125, 3, 0.466836
257, 1, bw, attraction, a-b-da, 2, 1, 2, 31, 60, 135, 134, 59, 135, 60, 1, 0.789798
257, 1, bw, attraction, a-b-da, 2, 1, 2, 31, 60, 135, 134, 59, 135, 60, 3, 0.861033
257, 1, bw, attraction, a-b-da, 14, 2, 2, 32, 90, 165, 153, 83, 165, 90, 1, 0.783971
257, 1, bw, attraction, a-b-da, 14, 2, 2, 32, 90, 165, 153, 83, 165, 90, 3, 0.687658
257, 1, bw, filler, NA, 999, 999, 2, 33, 79, 157, 74, 122, 85, 175, 3, 0.818045
257, 1, bw, filler, NA, 999, 999, 2, 33, 79, 157, 74, 122, 85, 175, 1, 0.448322
257, 1, bw, filler, NA, 999, 999, 2, 34, 150, 119, 173, 120, 101, 90, 2, 1.30825
257, 1, bw, filler, NA, 999, 999, 2, 34, 150, 119, 173, 120, 101, 90, 3, 0.774466
257, 1, bw, filler, NA, 999, 999, 2, 35, 114, 116, 101, 62, 128, 85, 1, 0.852801
257, 1, bw, filler, NA, 999, 999, 2, 35, 114, 116, 101, 62, 128, 85, 2, 0.665783
257, 1, bw, attraction, a-b-db, 5, 3, 2, 36, 195, 120, 117, 190, 120, 195, 2, 1.26096
257, 1, bw, attraction, a-b-db, 5, 3, 2, 36, 195, 120, 117, 190, 120, 195, 3, 0.657173
257, 1, bw, attraction, a-b-da, 9, 1, 2, 37, 60, 135, 135, 60, 129, 57, 1, 1.04421
257, 1, bw, attraction, a-b-da, 9, 1, 2, 37, 60, 135, 135, 60, 129, 57, 3, 0.849235
257, 1, bw, attraction, a-b-da, 14, 1, 3, 1, 125, 56, 60, 135, 135, 60, 3, 1.91699
257, 1, bw, attraction, a-b-da, 14, 1, 3, 1, 125, 56, 60, 135, 135, 60, 1, 0.606943
257, 1, bw, attraction, a-b-da, 5, 2, 3, 2, 90, 165, 161, 88, 165, 90, 3, 2.20408
257, 1, bw, attraction, a-b-da, 5, 2, 3, 2, 90, 165, 161, 88, 165, 90, 1, 0.458753
257, 1, bw, attraction, a-b-da, 14, 2, 3, 3, 90, 165, 165, 90, 153, 83, 1, 1.64591
257, 1, bw, attraction, a-b-da, 14, 2, 3, 3, 90, 165, 165, 90, 153, 83, 3, 0.658628
257, 1, bw, attraction, a-b-da, 5, 1, 3, 4, 60, 135, 135, 60, 132, 58, 2, 1.61374
257, 1, bw, attraction, a-b-da, 5, 1, 3, 4, 60, 135, 135, 60, 132, 58, 1, 0.435791
257, 1, bw, attraction, a-b-db, 9, 3, 3, 5, 120, 195, 114, 186, 195, 120, 2, 5.01623
257, 1, bw, attraction, a-b-db, 9, 3, 3, 5, 120, 195, 114, 186, 195, 120, 3, 0.749387
257, 1, bw, catch, NA, 999, 999, 3, 6, 151, 104, 79, 116, 156, 159, 3, 0.90096
257, 1, bw, catch, NA, 999, 999, 3, 6, 151, 104, 79, 116, 156, 159, 2, 0.480086
257, 1, bw, attraction, a-b-da, 14, 3, 3, 7, 120, 195, 195, 120, 181, 111, 1, 3.14644
257, 1, bw, attraction, a-b-da, 14, 3, 3, 7, 120, 195, 195, 120, 181, 111, 3, 0.658824
257, 1, bw, attraction, a-b-db, 2, 2, 3, 8, 165, 90, 89, 163, 90, 165, 3, 2.08589
257, 1, bw, attraction, a-b-db, 2, 2, 3, 8, 165, 90, 89, 163, 90, 165, 1, 0.609179
257, 1, bw, filler, NA, 999, 999, 3, 9, 128, 65, 180, 128, 168, 153, 3, 4.62229
257, 1, bw, filler, NA, 999, 999, 3, 9, 128, 65, 180, 128, 168, 153, 1, 0.81075
257, 1, bw, filler, NA, 999, 999, 3, 10, 80, 147, 139, 164, 127, 118, 2, 0.935878
257, 1, bw, filler, NA, 999, 999, 3, 10, 80, 147, 139, 164, 127, 118, 1, 0.697571
257, 1, bw, attraction, a-b-da, 5, 3, 3, 11, 120, 195, 190, 117, 195, 120, 1, 0.955316
257, 1, bw, attraction, a-b-da, 5, 3, 3, 11, 120, 195, 190, 117, 195, 120, 2, 0.339487
257, 1, bw, attraction, a-b-db, 5, 1, 3, 12, 135, 60, 60, 135, 58, 132, 2, 1.46816
257, 1, bw, attraction, a-b-db, 5, 1, 3, 12, 135, 60, 60, 135, 58, 132, 1, 0.432187
257, 1, bw, attraction, a-b-db, 2, 1, 3, 13, 60, 135, 135, 60, 59, 134, 3, 1.41278
257, 1, bw, attraction, a-b-db, 2, 1, 3, 13, 60, 135, 135, 60, 59, 134, 2, 0.898935
257, 1, bw, filler, NA, 999, 999, 3, 14, 185, 144, 86, 181, 68, 118, 1, 0.652622
257, 1, bw, filler, NA, 999, 999, 3, 14, 185, 144, 86, 181, 68, 118, 3, 0.537732
257, 1, bw, filler, NA, 999, 999, 3, 15, 78, 106, 128, 63, 190, 138, 3, 0.730121
257, 1, bw, filler, NA, 999, 999, 3, 15, 78, 106, 128, 63, 190, 138, 2, 1.42796
257, 1, bw, filler, NA, 999, 999, 3, 16, 61, 88, 184, 114, 159, 125, 2, 1.09612
257, 1, bw, filler, NA, 999, 999, 3, 16, 61, 88, 184, 114, 159, 125, 1, 1.01912
257, 1, bw, attraction, a-b-db, 9, 2, 3, 17, 90, 165, 86, 157, 165, 90, 3, 6.02401
257, 1, bw, attraction, a-b-db, 9, 2, 3, 17, 90, 165, 86, 157, 165, 90, 1, 0.89208
257, 1, bw, attraction, a-b-db, 9, 1, 3, 18, 57, 129, 60, 135, 135, 60, 2, 1.78183
257, 1, bw, attraction, a-b-db, 9, 1, 3, 18, 57, 129, 60, 135, 135, 60, 3, 0.573199
257, 1, bw, attraction, a-b-da, 2, 1, 3, 19, 135, 60, 60, 135, 134, 59, 1, 3.68437
257, 1, bw, attraction, a-b-da, 2, 1, 3, 19, 135, 60, 60, 135, 134, 59, 2, 0.559083
257, 1, bw, catch, NA, 999, 999, 3, 20, 97, 158, 130, 185, 104, 91, 2, 1.27021
257, 1, bw, catch, NA, 999, 999, 3, 20, 97, 158, 130, 185, 104, 91, 3, 0.402361
257, 1, bw, catch, NA, 999, 999, 3, 21, 175, 140, 137, 118, 116, 79, 1, 1.1603
257, 1, bw, catch, NA, 999, 999, 3, 21, 175, 140, 137, 118, 116, 79, 3, 0.808428
257, 1, bw, attraction, a-b-db, 14, 3, 3, 22, 195, 120, 120, 195, 111, 181, 2, 2.44554
257, 1, bw, attraction, a-b-db, 14, 3, 3, 22, 195, 120, 120, 195, 111, 181, 1, 2.45007
257, 1, bw, filler, NA, 999, 999, 3, 23, 129, 185, 71, 83, 157, 128, 1, 1.41319
257, 1, bw, filler, NA, 999, 999, 3, 23, 129, 185, 71, 83, 157, 128, 2, 0.571548
257, 1, bw, filler, NA, 999, 999, 3, 24, 97, 144, 173, 155, 194, 67, 2, 1.04254
257, 1, bw, filler, NA, 999, 999, 3, 24, 97, 144, 173, 155, 194, 67, 3, 21.8155
257, 1, bw, attraction, a-b-da, 9, 3, 3, 25, 186, 114, 195, 120, 120, 195, 3, 1.43003
257, 1, bw, attraction, a-b-da, 9, 3, 3, 25, 186, 114, 195, 120, 120, 195, 1, 0.43552
257, 1, bw, attraction, a-b-da, 2, 2, 3, 26, 165, 90, 90, 165, 163, 89, 2, 1.41604
257, 1, bw, attraction, a-b-da, 2, 2, 3, 26, 165, 90, 90, 165, 163, 89, 3, 0.430293
257, 1, bw, attraction, a-b-da, 2, 3, 3, 27, 120, 195, 193, 119, 195, 120, 1, 1.01061
257, 1, bw, attraction, a-b-da, 2, 3, 3, 27, 120, 195, 193, 119, 195, 120, 3, 0.737116
257, 1, bw, filler, NA, 999, 999, 3, 28, 187, 157, 164, 75, 56, 151, 1, 0.577415
257, 1, bw, filler, NA, 999, 999, 3, 28, 187, 157, 164, 75, 56, 151, 3, 0.657292
257, 1, bw, filler, NA, 999, 999, 3, 29, 170, 131, 106, 178, 93, 161, 2, 1.38025
257, 1, bw, filler, NA, 999, 999, 3, 29, 170, 131, 106, 178, 93, 161, 3, 0.411687
257, 1, bw, attraction, a-b-db, 14, 1, 3, 30, 135, 60, 60, 135, 56, 125, 1, 2.45696
257, 1, bw, attraction, a-b-db, 14, 1, 3, 30, 135, 60, 60, 135, 56, 125, 3, 0.612797
257, 1, bw, attraction, a-b-da, 9, 2, 3, 31, 90, 165, 165, 90, 157, 86, 1, 3.74583
257, 1, bw, attraction, a-b-da, 9, 2, 3, 31, 90, 165, 165, 90, 157, 86, 3, 0.706009
257, 1, bw, attraction, a-b-db, 5, 2, 3, 32, 165, 90, 90, 165, 88, 161, 2, 2.13965
257, 1, bw, attraction, a-b-db, 5, 2, 3, 32, 165, 90, 90, 165, 88, 161, 1, 0.556799
257, 1, bw, attraction, a-b-db, 14, 2, 3, 33, 83, 153, 90, 165, 165, 90, 2, 0.859426
257, 1, bw, attraction, a-b-db, 14, 2, 3, 33, 83, 153, 90, 165, 165, 90, 3, 0.64784
257, 1, bw, attraction, a-b-db, 5, 3, 3, 34, 117, 190, 195, 120, 120, 195, 3, 1.29962
257, 1, bw, attraction, a-b-db, 5, 3, 3, 34, 117, 190, 195, 120, 120, 195, 1, 0.902527
257, 1, bw, filler, NA, 999, 999, 3, 35, 192, 119, 72, 154, 101, 166, 1, 1.16016
257, 1, bw, filler, NA, 999, 999, 3, 35, 192, 119, 72, 154, 101, 166, 2, 0.952475
257, 1, bw, attraction, a-b-db, 2, 3, 3, 36, 120, 195, 195, 120, 119, 193, 2, 1.76008
257, 1, bw, attraction, a-b-db, 2, 3, 3, 36, 120, 195, 195, 120, 119, 193, 3, 0.528309
257, 1, bw, attraction, a-b-da, 9, 1, 3, 37, 60, 135, 135, 60, 129, 57, 1, 1.42455
257, 1, bw, attraction, a-b-da, 9, 1, 3, 37, 60, 135, 135, 60, 129, 57, 3, 0.590122
257, 1, bw, attraction, a-b-da, 2, 3, 4, 1, 195, 120, 120, 195, 193, 119, 2, 0.787792
257, 1, bw, attraction, a-b-da, 2, 3, 4, 1, 195, 120, 120, 195, 193, 119, 3, 0.435674
257, 1, bw, attraction, a-b-da, 2, 2, 4, 2, 163, 89, 90, 165, 165, 90, 2, 2.11212
257, 1, bw, attraction, a-b-da, 2, 2, 4, 2, 163, 89, 90, 165, 165, 90, 1, 0.458102
257, 1, bw, filler, NA, 999, 999, 4, 3, 147, 177, 190, 73, 76, 67, 1, 1.06115
257, 1, bw, filler, NA, 999, 999, 4, 3, 147, 177, 190, 73, 76, 67, 3, 0.537512
257, 1, bw, attraction, a-b-da, 5, 3, 4, 4, 190, 117, 195, 120, 120, 195, 2, 7.86591
257, 1, bw, attraction, a-b-da, 5, 3, 4, 4, 190, 117, 195, 120, 120, 195, 3, 0.684123
257, 1, bw, attraction, a-b-da, 14, 1, 4, 5, 135, 60, 125, 56, 60, 135, 3, 1.91054
257, 1, bw, attraction, a-b-da, 14, 1, 4, 5, 135, 60, 125, 56, 60, 135, 2, 0.464541
257, 1, bw, attraction, a-b-db, 5, 1, 4, 6, 135, 60, 58, 132, 60, 135, 1, 1.67571
257, 1, bw, attraction, a-b-db, 5, 1, 4, 6, 135, 60, 58, 132, 60, 135, 3, 0.623091
257, 1, bw, attraction, a-b-db, 5, 2, 4, 7, 90, 165, 165, 90, 88, 161, 2, 1.47615
257, 1, bw, attraction, a-b-db, 5, 2, 4, 7, 90, 165, 165, 90, 88, 161, 3, 0.759801
257, 1, bw, filler, NA, 999, 999, 4, 8, 179, 83, 135, 94, 182, 170, 3, 0.86273
257, 1, bw, filler, NA, 999, 999, 4, 8, 179, 83, 135, 94, 182, 170, 2, 0.515067
257, 1, bw, filler, NA, 999, 999, 4, 9, 145, 193, 158, 121, 136, 95, 1, 0.844372
257, 1, bw, filler, NA, 999, 999, 4, 9, 145, 193, 158, 121, 136, 95, 3, 0.809231
257, 1, bw, attraction, a-b-da, 5, 1, 4, 10, 132, 58, 135, 60, 60, 135, 2, 1.48628
257, 1, bw, attraction, a-b-da, 5, 1, 4, 10, 132, 58, 135, 60, 60, 135, 1, 0.345778
257, 1, bw, attraction, a-b-da, 14, 3, 4, 11, 195, 120, 181, 111, 120, 195, 3, 0.561597
257, 1, bw, attraction, a-b-da, 14, 3, 4, 11, 195, 120, 181, 111, 120, 195, 1, 0.530126
257, 1, bw, attraction, a-b-db, 9, 2, 4, 12, 165, 90, 90, 165, 86, 157, 2, 0.522601
257, 1, bw, attraction, a-b-db, 9, 2, 4, 12, 165, 90, 90, 165, 86, 157, 3, 1.1324
257, 1, bw, attraction, a-b-da, 9, 2, 4, 13, 90, 165, 157, 86, 165, 90, 1, 0.620762
257, 1, bw, attraction, a-b-da, 9, 2, 4, 13, 90, 165, 157, 86, 165, 90, 3, 0.635079
257, 1, bw, attraction, a-b-db, 14, 3, 4, 14, 195, 120, 111, 181, 120, 195, 3, 1.29546
257, 1, bw, attraction, a-b-db, 14, 3, 4, 14, 195, 120, 111, 181, 120, 195, 1, 0.546317
257, 1, bw, filler, NA, 999, 999, 4, 15, 180, 91, 82, 179, 66, 87, 1, 1.39423
257, 1, bw, filler, NA, 999, 999, 4, 15, 180, 91, 82, 179, 66, 87, 3, 0.561126
257, 1, bw, filler, NA, 999, 999, 4, 16, 151, 68, 194, 115, 131, 193, 3, 1.44016
257, 1, bw, filler, NA, 999, 999, 4, 16, 151, 68, 194, 115, 131, 193, 1, 0.548984
257, 1, bw, attraction, a-b-da, 9, 3, 4, 17, 120, 195, 186, 114, 195, 120, 1, 1.65285
257, 1, bw, attraction, a-b-da, 9, 3, 4, 17, 120, 195, 186, 114, 195, 120, 3, 0.825535
257, 1, bw, attraction, a-b-db, 5, 3, 4, 18, 117, 190, 195, 120, 120, 195, 3, 0.86987
257, 1, bw, attraction, a-b-db, 5, 3, 4, 18, 117, 190, 195, 120, 120, 195, 1, 0.602276
257, 1, bw, attraction, a-b-da, 2, 1, 4, 19, 60, 135, 134, 59, 135, 60, 2, 0.831929
257, 1, bw, attraction, a-b-da, 2, 1, 4, 19, 60, 135, 134, 59, 135, 60, 1, 0.613719
257, 1, bw, attraction, a-b-da, 14, 2, 4, 20, 153, 83, 90, 165, 165, 90, 2, 1.33878
257, 1, bw, attraction, a-b-da, 14, 2, 4, 20, 153, 83, 90, 165, 165, 90, 3, 0.611622
257, 1, bw, filler, NA, 999, 999, 4, 21, 125, 183, 175, 180, 72, 135, 2, 0.976729
257, 1, bw, filler, NA, 999, 999, 4, 21, 125, 183, 175, 180, 72, 135, 3, 0.46442
257, 1, bw, attraction, a-b-db, 2, 1, 4, 22, 59, 134, 60, 135, 135, 60, 3, 0.923614
257, 1, bw, attraction, a-b-db, 2, 1, 4, 22, 59, 134, 60, 135, 135, 60, 1, 0.893206
257, 1, bw, attraction, a-b-db, 2, 2, 4, 23, 90, 165, 89, 163, 165, 90, 2, 0.790935
257, 1, bw, attraction, a-b-db, 2, 2, 4, 23, 90, 165, 89, 163, 165, 90, 3, 0.245864
257, 1, bw, filler, NA, 999, 999, 4, 24, 158, 118, 157, 165, 131, 87, 2, 1.16977
257, 1, bw, filler, NA, 999, 999, 4, 24, 158, 118, 157, 165, 131, 87, 3, 0.722137
257, 1, bw, filler, NA, 999, 999, 4, 25, 127, 110, 86, 62, 168, 140, 3, 0.651126
257, 1, bw, filler, NA, 999, 999, 4, 25, 127, 110, 86, 62, 168, 140, 2, 0.840225
257, 1, bw, filler, NA, 999, 999, 4, 26, 194, 59, 99, 104, 84, 96, 2, 1.37195
257, 1, bw, filler, NA, 999, 999, 4, 26, 194, 59, 99, 104, 84, 96, 3, 1.18764
257, 1, bw, attraction, a-b-db, 14, 2, 4, 27, 165, 90, 90, 165, 83, 153, 2, 3.51365
257, 1, bw, attraction, a-b-db, 14, 2, 4, 27, 165, 90, 90, 165, 83, 153, 1, 0.467293
257, 1, bw, attraction, a-b-db, 14, 1, 4, 28, 56, 125, 60, 135, 135, 60, 2, 0.926611
257, 1, bw, attraction, a-b-db, 14, 1, 4, 28, 56, 125, 60, 135, 135, 60, 3, 0.416135
257, 1, bw, catch, NA, 999, 999, 4, 29, 99, 156, 150, 165, 80, 115, 2, 0.861159
257, 1, bw, catch, NA, 999, 999, 4, 29, 99, 156, 150, 165, 80, 115, 3, 0.441603
257, 1, bw, catch, NA, 999, 999, 4, 30, 135, 120, 124, 191, 126, 69, 2, 0.869475
257, 1, bw, catch, NA, 999, 999, 4, 30, 135, 120, 124, 191, 126, 69, 3, 0.729778
257, 1, bw, catch, NA, 999, 999, 4, 31, 131, 184, 113, 82, 92, 163, 1, 0.97814
257, 1, bw, catch, NA, 999, 999, 4, 31, 131, 184, 113, 82, 92, 163, 2, 0.393711
257, 1, bw, attraction, a-b-da, 5, 2, 4, 32, 161, 88, 165, 90, 90, 165, 2, 1.40761
257, 1, bw, attraction, a-b-da, 5, 2, 4, 32, 161, 88, 165, 90, 90, 165, 3, 0.509861
257, 1, bw, attraction, a-b-db, 9, 3, 4, 33, 114, 186, 195, 120, 120, 195, 2, 4.43899
257, 1, bw, attraction, a-b-db, 9, 3, 4, 33, 114, 186, 195, 120, 120, 195, 1, 0.34761
257, 1, bw, attraction, a-b-db, 9, 1, 4, 34, 135, 60, 60, 135, 57, 129, 2, 1.41135
257, 1, bw, attraction, a-b-db, 9, 1, 4, 34, 135, 60, 60, 135, 57, 129, 1, 0.609536
257, 1, bw, attraction, a-b-da, 9, 1, 4, 35, 60, 135, 129, 57, 135, 60, 3, 3.34279
257, 1, bw, attraction, a-b-da, 9, 1, 4, 35, 60, 135, 129, 57, 135, 60, 1, 0.454913
257, 1, bw, filler, NA, 999, 999, 4, 36, 195, 97, 149, 116, 140, 191, 3, 0.682801
257, 1, bw, filler, NA, 999, 999, 4, 36, 195, 97, 149, 116, 140, 191, 1, 0.454466
257, 1, bw, attraction, a-b-db, 2, 3, 4, 37, 119, 193, 120, 195, 195, 120, 2, 2.8663
257, 1, bw, attraction, a-b-db, 2, 3, 4, 37, 119, 193, 120, 195, 195, 120, 3, 1.19005
257, 1, bw, attraction, a-b-db, 5, 1, 5, 1, 58, 132, 135, 60, 60, 135, 3, 2.98614
257, 1, bw, attraction, a-b-db, 5, 1, 5, 1, 58, 132, 135, 60, 60, 135, 1, 0.961392
257, 1, bw, attraction, a-b-da, 9, 1, 5, 2, 129, 57, 135, 60, 60, 135, 2, 0.94417
257, 1, bw, attraction, a-b-da, 9, 1, 5, 2, 129, 57, 135, 60, 60, 135, 1, 0.833318
257, 1, bw, attraction, a-b-da, 2, 1, 5, 3, 60, 135, 134, 59, 135, 60, 2, 0.7256
257, 1, bw, attraction, a-b-da, 2, 1, 5, 3, 60, 135, 134, 59, 135, 60, 3, 1.01534
257, 1, bw, filler, NA, 999, 999, 5, 4, 185, 89, 183, 93, 58, 82, 2, 0.876385
257, 1, bw, filler, NA, 999, 999, 5, 4, 185, 89, 183, 93, 58, 82, 3, 0.720052
257, 1, bw, filler, NA, 999, 999, 5, 5, 176, 124, 114, 131, 147, 99, 1, 1.24108
257, 1, bw, filler, NA, 999, 999, 5, 5, 176, 124, 114, 131, 147, 99, 3, 0.742149
257, 1, bw, attraction, a-b-db, 9, 3, 5, 6, 114, 186, 195, 120, 120, 195, 2, 1.50966
257, 1, bw, attraction, a-b-db, 9, 3, 5, 6, 114, 186, 195, 120, 120, 195, 1, 0.279862
257, 1, bw, catch, NA, 999, 999, 5, 7, 186, 129, 117, 78, 128, 127, 1, 0.738277
257, 1, bw, catch, NA, 999, 999, 5, 7, 186, 129, 117, 78, 128, 127, 2, 0.267313
257, 1, bw, attraction, a-b-db, 14, 3, 5, 8, 111, 181, 120, 195, 195, 120, 2, 0.862509
257, 1, bw, attraction, a-b-db, 14, 3, 5, 8, 111, 181, 120, 195, 195, 120, 1, 1.1709
257, 1, bw, filler, NA, 999, 999, 5, 9, 153, 73, 137, 130, 171, 185, 3, 0.665874
257, 1, bw, filler, NA, 999, 999, 5, 9, 153, 73, 137, 130, 171, 185, 1, 1.04624
257, 1, bw, attraction, a-b-db, 14, 2, 5, 10, 83, 153, 90, 165, 165, 90, 2, 1.46591
257, 1, bw, attraction, a-b-db, 14, 2, 5, 10, 83, 153, 90, 165, 165, 90, 1, 0.446126
257, 1, bw, attraction, a-b-da, 9, 2, 5, 11, 90, 165, 165, 90, 157, 86, 1, 5.92204
257, 1, bw, attraction, a-b-da, 9, 2, 5, 11, 90, 165, 165, 90, 157, 86, 3, 0.554112
257, 1, bw, attraction, a-b-da, 14, 2, 5, 12, 165, 90, 90, 165, 153, 83, 1, 0.985848
257, 1, bw, attraction, a-b-da, 14, 2, 5, 12, 165, 90, 90, 165, 153, 83, 3, 0.657495
257, 1, bw, filler, NA, 999, 999, 5, 13, 162, 162, 121, 95, 88, 71, 1, 1.55645
257, 1, bw, filler, NA, 999, 999, 5, 13, 162, 162, 121, 95, 88, 71, 3, 0.452674
257, 1, bw, filler, NA, 999, 999, 5, 14, 104, 118, 170, 167, 183, 64, 2, 1.74465
257, 1, bw, filler, NA, 999, 999, 5, 14, 104, 118, 170, 167, 183, 64, 3, 1.20925
257, 1, bw, attraction, a-b-db, 9, 1, 5, 15, 135, 60, 60, 135, 57, 129, 3, 1.9026
257, 1, bw, attraction, a-b-db, 9, 1, 5, 15, 135, 60, 60, 135, 57, 129, 1, 0.63287
257, 1, bw, filler, NA, 999, 999, 5, 16, 107, 70, 152, 99, 180, 100, 3, 2.15739
257, 1, bw, filler, NA, 999, 999, 5, 16, 107, 70, 152, 99, 180, 100, 1, 1.22922
257, 1, bw, attraction, a-b-db, 2, 1, 5, 17, 60, 135, 135, 60, 59, 134, 3, 2.17748
257, 1, bw, attraction, a-b-db, 2, 1, 5, 17, 60, 135, 135, 60, 59, 134, 2, 2.13678
257, 1, bw, attraction, a-b-da, 5, 3, 5, 18, 190, 117, 120, 195, 195, 120, 2, 1.76071
257, 1, bw, attraction, a-b-da, 5, 3, 5, 18, 190, 117, 120, 195, 195, 120, 1, 4.97694
257, 1, bw, attraction, a-b-db, 14, 1, 5, 19, 135, 60, 56, 125, 60, 135, 2, 1.72591
257, 1, bw, attraction, a-b-db, 14, 1, 5, 19, 135, 60, 56, 125, 60, 135, 1, 0.407326
257, 1, bw, attraction, a-b-da, 2, 2, 5, 20, 90, 165, 163, 89, 165, 90, 1, 1.10053
257, 1, bw, attraction, a-b-da, 2, 2, 5, 20, 90, 165, 163, 89, 165, 90, 3, 0.343451
257, 1, bw, attraction, a-b-da, 2, 3, 5, 21, 195, 120, 193, 119, 120, 195, 1, 0.75913
257, 1, bw, attraction, a-b-da, 2, 3, 5, 21, 195, 120, 193, 119, 120, 195, 3, 0.66369
257, 1, bw, catch, NA, 999, 999, 5, 22, 132, 63, 125, 190, 114, 141, 2, 0.762698
257, 1, bw, catch, NA, 999, 999, 5, 22, 132, 63, 125, 190, 114, 141, 1, 0.459119
257, 1, bw, attraction, a-b-da, 5, 1, 5, 23, 135, 60, 60, 135, 132, 58, 1, 1.20615
257, 1, bw, attraction, a-b-da, 5, 1, 5, 23, 135, 60, 60, 135, 132, 58, 2, 0.284434
257, 1, bw, attraction, a-b-da, 9, 3, 5, 24, 195, 120, 186, 114, 120, 195, 1, 1.75099
257, 1, bw, attraction, a-b-da, 9, 3, 5, 24, 195, 120, 186, 114, 120, 195, 3, 0.343678
257, 1, bw, attraction, a-b-db, 5, 3, 5, 25, 117, 190, 195, 120, 120, 195, 3, 0.711623
257, 1, bw, attraction, a-b-db, 5, 3, 5, 25, 117, 190, 195, 120, 120, 195, 1, 1.09005
257, 1, bw, attraction, a-b-da, 14, 3, 5, 26, 120, 195, 181, 111, 195, 120, 1, 1.69159
257, 1, bw, attraction, a-b-da, 14, 3, 5, 26, 120, 195, 181, 111, 195, 120, 3, 0.422374
257, 1, bw, filler, NA, 999, 999, 5, 27, 134, 61, 147, 76, 99, 93, 2, 0.683506
257, 1, bw, filler, NA, 999, 999, 5, 27, 134, 61, 147, 76, 99, 93, 1, 0.431318
257, 1, bw, attraction, a-b-db, 2, 2, 5, 28, 165, 90, 89, 163, 90, 165, 2, 0.707838
257, 1, bw, attraction, a-b-db, 2, 2, 5, 28, 165, 90, 89, 163, 90, 165, 1, 0.502192
257, 1, bw, filler, NA, 999, 999, 5, 29, 95, 101, 90, 63, 70, 130, 1, 1.91995
257, 1, bw, filler, NA, 999, 999, 5, 29, 95, 101, 90, 63, 70, 130, 2, 0.314034
257, 1, bw, attraction, a-b-da, 14, 1, 5, 30, 60, 135, 125, 56, 135, 60, 2, 1.0272
257, 1, bw, attraction, a-b-da, 14, 1, 5, 30, 60, 135, 125, 56, 135, 60, 1, 0.696973
257, 1, bw, filler, NA, 999, 999, 5, 31, 100, 172, 92, 63, 74, 107, 1, 0.786525
257, 1, bw, filler, NA, 999, 999, 5, 31, 100, 172, 92, 63, 74, 107, 2, 0.394257
257, 1, bw, catch, NA, 999, 999, 5, 32, 149, 106, 129, 66, 149, 166, 3, 1.00003
257, 1, bw, catch, NA, 999, 999, 5, 32, 149, 106, 129, 66, 149, 166, 2, 0.455256
257, 1, bw, attraction, a-b-da, 5, 2, 5, 33, 165, 90, 161, 88, 90, 165, 3, 1.60289
257, 1, bw, attraction, a-b-da, 5, 2, 5, 33, 165, 90, 161, 88, 90, 165, 1, 0.625751
257, 1, bw, attraction, a-b-db, 5, 2, 5, 34, 165, 90, 90, 165, 88, 161, 1, 2.14209
257, 1, bw, attraction, a-b-db, 5, 2, 5, 34, 165, 90, 90, 165, 88, 161, 2, 0.350849
257, 1, bw, filler, NA, 999, 999, 5, 35, 69, 88, 104, 101, 175, 90, 3, 1.6786
257, 1, bw, filler, NA, 999, 999, 5, 35, 69, 88, 104, 101, 175, 90, 1, 0.458052
257, 1, bw, attraction, a-b-db, 2, 3, 5, 36, 119, 193, 195, 120, 120, 195, 1, 1.00531
257, 1, bw, attraction, a-b-db, 2, 3, 5, 36, 119, 193, 195, 120, 120, 195, 2, 1.39546
257, 1, bw, attraction, a-b-db, 9, 2, 5, 37, 86, 157, 90, 165, 165, 90, 3, 2.921
257, 1, bw, attraction, a-b-db, 9, 2, 5, 37, 86, 157, 90, 165, 165, 90, 1, 0.650737
257, 1, bw, catch, NA, 999, 999, 6, 1, 60, 135, 148, 107, 155, 160, 3, 0.710494
257, 1, bw, catch, NA, 999, 999, 6, 1, 60, 135, 148, 107, 155, 160, 1, 0.513065
257, 1, bw, filler, NA, 999, 999, 6, 2, 83, 90, 182, 184, 80, 165, 2, 0.745937
257, 1, bw, filler, NA, 999, 999, 6, 2, 83, 90, 182, 184, 80, 165, 1, 0.467026
257, 1, bw, attraction, a-b-da, 14, 1, 6, 3, 135, 60, 125, 56, 60, 135, 3, 1.45418
257, 1, bw, attraction, a-b-da, 14, 1, 6, 3, 135, 60, 125, 56, 60, 135, 2, 0.419049
257, 1, bw, catch, NA, 999, 999, 6, 4, 135, 180, 130, 65, 93, 162, 1, 0.9762
257, 1, bw, catch, NA, 999, 999, 6, 4, 135, 180, 130, 65, 93, 162, 2, 0.759852
257, 1, bw, attraction, a-b-da, 5, 1, 6, 5, 60, 135, 132, 58, 135, 60, 2, 2.20708
257, 1, bw, attraction, a-b-da, 5, 1, 6, 5, 60, 135, 132, 58, 135, 60, 1, 0.308851
257, 1, bw, attraction, a-b-db, 9, 1, 6, 6, 135, 60, 60, 135, 57, 129, 2, 1.02202
257, 1, bw, attraction, a-b-db, 9, 1, 6, 6, 135, 60, 60, 135, 57, 129, 1, 0.315639
257, 1, bw, attraction, a-b-db, 14, 2, 6, 7, 90, 165, 165, 90, 83, 153, 2, 3.10089
257, 1, bw, attraction, a-b-db, 14, 2, 6, 7, 90, 165, 165, 90, 83, 153, 3, 0.25515
257, 1, bw, filler, NA, 999, 999, 6, 8, 150, 118, 115, 132, 156, 167, 3, 0.667178
257, 1, bw, filler, NA, 999, 999, 6, 8, 150, 118, 115, 132, 156, 167, 1, 1.49553
257, 1, bw, attraction, a-b-db, 9, 3, 6, 9, 120, 195, 195, 120, 114, 186, 1, 5.289
257, 1, bw, attraction, a-b-db, 9, 3, 6, 9, 120, 195, 195, 120, 114, 186, 3, 0.570783
257, 1, bw, filler, NA, 999, 999, 6, 10, 89, 69, 175, 173, 93, 68, 2, 0.649668
257, 1, bw, filler, NA, 999, 999, 6, 10, 89, 69, 175, 173, 93, 68, 1, 1.01476
257, 1, bw, attraction, a-b-db, 2, 3, 6, 11, 120, 195, 195, 120, 119, 193, 3, 1.79592
257, 1, bw, attraction, a-b-db, 2, 3, 6, 11, 120, 195, 195, 120, 119, 193, 2, 0.810542
257, 1, bw, attraction, a-b-da, 9, 3, 6, 12, 186, 114, 120, 195, 195, 120, 2, 2.98351
257, 1, bw, attraction, a-b-da, 9, 3, 6, 12, 186, 114, 120, 195, 195, 120, 1, 0.846527
257, 1, bw, attraction, a-b-da, 2, 2, 6, 13, 163, 89, 165, 90, 90, 165, 3, 2.84221
257, 1, bw, attraction, a-b-da, 2, 2, 6, 13, 163, 89, 165, 90, 90, 165, 1, 1.01461
257, 1, bw, attraction, a-b-da, 14, 2, 6, 14, 90, 165, 153, 83, 165, 90, 3, 2.53167
257, 1, bw, attraction, a-b-da, 14, 2, 6, 14, 90, 165, 153, 83, 165, 90, 2, 0.348759
257, 1, bw, filler, NA, 999, 999, 6, 15, 76, 142, 103, 117, 194, 169, 3, 0.636696
257, 1, bw, filler, NA, 999, 999, 6, 15, 76, 142, 103, 117, 194, 169, 1, 0.514432
257, 1, bw, attraction, a-b-db, 14, 1, 6, 16, 56, 125, 60, 135, 135, 60, 3, 1.17968
257, 1, bw, attraction, a-b-db, 14, 1, 6, 16, 56, 125, 60, 135, 135, 60, 1, 0.731173
257, 1, bw, filler, NA, 999, 999, 6, 17, 139, 59, 57, 161, 67, 153, 2, 2.50753
257, 1, bw, filler, NA, 999, 999, 6, 17, 139, 59, 57, 161, 67, 153, 1, 0.501548
257, 1, bw, attraction, a-b-db, 5, 1, 6, 18, 58, 132, 135, 60, 60, 135, 3, 0.823191
257, 1, bw, attraction, a-b-db, 5, 1, 6, 18, 58, 132, 135, 60, 60, 135, 2, 0.588863
257, 1, bw, attraction, a-b-db, 2, 1, 6, 19, 60, 135, 135, 60, 59, 134, 2, 1.09947
257, 1, bw, attraction, a-b-db, 2, 1, 6, 19, 60, 135, 135, 60, 59, 134, 1, 0.998239
257, 1, bw, attraction, a-b-da, 9, 1, 6, 20, 129, 57, 60, 135, 135, 60, 3, 0.812025
257, 1, bw, attraction, a-b-da, 9, 1, 6, 20, 129, 57, 60, 135, 135, 60, 1, 1.24231
257, 1, bw, filler, NA, 999, 999, 6, 21, 173, 127, 95, 110, 168, 122, 3, 0.917862
257, 1, bw, filler, NA, 999, 999, 6, 21, 173, 127, 95, 110, 168, 122, 2, 0.416282
257, 1, bw, attraction, a-b-db, 14, 3, 6, 22, 111, 181, 120, 195, 195, 120, 2, 1.12541
257, 1, bw, attraction, a-b-db, 14, 3, 6, 22, 111, 181, 120, 195, 195, 120, 3, 0.454931
257, 1, bw, attraction, a-b-da, 5, 3, 6, 23, 120, 195, 190, 117, 195, 120, 3, 1.2109
257, 1, bw, attraction, a-b-da, 5, 3, 6, 23, 120, 195, 190, 117, 195, 120, 2, 0.665062
257, 1, bw, attraction, a-b-da, 14, 3, 6, 24, 195, 120, 120, 195, 181, 111, 2, 1.54015
257, 1, bw, attraction, a-b-da, 14, 3, 6, 24, 195, 120, 120, 195, 181, 111, 1, 0.308878
257, 1, bw, attraction, a-b-da, 5, 2, 6, 25, 165, 90, 161, 88, 90, 165, 3, 1.53401
257, 1, bw, attraction, a-b-da, 5, 2, 6, 25, 165, 90, 161, 88, 90, 165, 2, 0.90362
257, 1, bw, attraction, a-b-db, 2, 2, 6, 26, 90, 165, 165, 90, 89, 163, 3, 0.921483
257, 1, bw, attraction, a-b-db, 2, 2, 6, 26, 90, 165, 165, 90, 89, 163, 2, 0.85903
257, 1, bw, filler, NA, 999, 999, 6, 27, 156, 155, 179, 88, 96, 87, 1, 0.749845
257, 1, bw, filler, NA, 999, 999, 6, 27, 156, 155, 179, 88, 96, 87, 3, 0.702993
257, 1, bw, attraction, a-b-db, 9, 2, 6, 28, 90, 165, 86, 157, 165, 90, 3, 1.16869
257, 1, bw, attraction, a-b-db, 9, 2, 6, 28, 90, 165, 86, 157, 165, 90, 1, 0.529066
257, 1, bw, attraction, a-b-db, 5, 3, 6, 29, 117, 190, 195, 120, 120, 195, 1, 0.865474
257, 1, bw, attraction, a-b-db, 5, 3, 6, 29, 117, 190, 195, 120, 120, 195, 3, 0.989838
257, 1, bw, filler, NA, 999, 999, 6, 30, 73, 159, 119, 63, 154, 139, 3, 0.500179
257, 1, bw, filler, NA, 999, 999, 6, 30, 73, 159, 119, 63, 154, 139, 2, 0.551213
257, 1, bw, catch, NA, 999, 999, 6, 31, 180, 135, 82, 113, 116, 139, 1, 0.847096
257, 1, bw, catch, NA, 999, 999, 6, 31, 180, 135, 82, 113, 116, 139, 2, 0.388055
257, 1, bw, attraction, a-b-da, 2, 3, 6, 32, 120, 195, 195, 120, 193, 119, 2, 0.810485
257, 1, bw, attraction, a-b-da, 2, 3, 6, 32, 120, 195, 195, 120, 193, 119, 3, 0.681085
257, 1, bw, attraction, a-b-da, 2, 1, 6, 33, 134, 59, 60, 135, 135, 60, 2, 0.907484
257, 1, bw, attraction, a-b-da, 2, 1, 6, 33, 134, 59, 60, 135, 135, 60, 1, 1.1097
257, 1, bw, filler, NA, 999, 999, 6, 34, 62, 116, 117, 57, 115, 170, 3, 0.438621
257, 1, bw, filler, NA, 999, 999, 6, 34, 62, 116, 117, 57, 115, 170, 2, 0.443885
257, 1, bw, attraction, a-b-db, 5, 2, 6, 35, 88, 161, 165, 90, 90, 165, 1, 0.895642
257, 1, bw, attraction, a-b-db, 5, 2, 6, 35, 88, 161, 165, 90, 90, 165, 2, 0.402573
257, 1, bw, attraction, a-b-da, 9, 2, 6, 36, 157, 86, 90, 165, 165, 90, 2, 0.704476
257, 1, bw, attraction, a-b-da, 9, 2, 6, 36, 157, 86, 90, 165, 165, 90, 3, 0.723642
257, 1, bw, filler, NA, 999, 999, 6, 37, 57, 68, 184, 60, 186, 80, 3, 0.812094
257, 1, bw, filler, NA, 999, 999, 6, 37, 57, 68, 184, 60, 186, 80, 1, 0.938296
257, 1, bw, filler, NA, 999, 999, 7, 1, 71, 163, 131, 66, 89, 125, 3, 1.14653
257, 1, bw, filler, NA, 999, 999, 7, 1, 71, 163, 131, 66, 89, 125, 2, 0.403557
257, 1, bw, filler, NA, 999, 999, 7, 2, 180, 71, 190, 181, 56, 145, 2, 0.54533
257, 1, bw, filler, NA, 999, 999, 7, 2, 180, 71, 190, 181, 56, 145, 3, 0.802583
257, 1, bw, attraction, a-b-db, 5, 1, 7, 3, 58, 132, 60, 135, 135, 60, 3, 1.17624
257, 1, bw, attraction, a-b-db, 5, 1, 7, 3, 58, 132, 60, 135, 135, 60, 2, 0.943788
257, 1, bw, catch, NA, 999, 999, 7, 4, 91, 104, 151, 164, 121, 134, 2, 0.495389
257, 1, bw, catch, NA, 999, 999, 7, 4, 91, 104, 151, 164, 121, 134, 1, 0.426569
257, 1, bw, attraction, a-b-db, 14, 1, 7, 5, 56, 125, 135, 60, 60, 135, 3, 0.663026
257, 1, bw, attraction, a-b-db, 14, 1, 7, 5, 56, 125, 135, 60, 60, 135, 1, 1.49946
257, 1, bw, attraction, a-b-db, 9, 2, 7, 6, 86, 157, 165, 90, 90, 165, 3, 1.06898
257, 1, bw, attraction, a-b-db, 9, 2, 7, 6, 86, 157, 165, 90, 90, 165, 2, 0.873321
257, 1, bw, catch, NA, 999, 999, 7, 7, 154, 101, 130, 65, 179, 136, 3, 0.660366
257, 1, bw, catch, NA, 999, 999, 7, 7, 154, 101, 130, 65, 179, 136, 2, 0.640779
257, 1, bw, attraction, a-b-db, 2, 3, 7, 8, 195, 120, 119, 193, 120, 195, 2, 1.02044
257, 1, bw, attraction, a-b-db, 2, 3, 7, 8, 195, 120, 119, 193, 120, 195, 1, 0.410782
257, 1, bw, attraction, a-b-db, 14, 2, 7, 9, 165, 90, 83, 153, 90, 165, 3, 1.48797
257, 1, bw, attraction, a-b-db, 14, 2, 7, 9, 165, 90, 83, 153, 90, 165, 2, 0.562912
257, 1, bw, attraction, a-b-da, 9, 1, 7, 10, 135, 60, 60, 135, 129, 57, 3, 2.33784
257, 1, bw, attraction, a-b-da, 9, 1, 7, 10, 135, 60, 60, 135, 129, 57, 2, 0.363091
257, 1, bw, filler, NA, 999, 999, 7, 11, 135, 179, 121, 144, 67, 91, 1, 0.866411
257, 1, bw, filler, NA, 999, 999, 7, 11, 135, 179, 121, 144, 67, 91, 3, 0.518922
257, 1, bw, filler, NA, 999, 999, 7, 12, 159, 127, 124, 108, 138, 99, 1, 0.887709
257, 1, bw, filler, NA, 999, 999, 7, 12, 159, 127, 124, 108, 138, 99, 2, 0.923508
257, 1, bw, filler, NA, 999, 999, 7, 13, 110, 100, 131, 114, 118, 194, 3, 0.643724
257, 1, bw, filler, NA, 999, 999, 7, 13, 110, 100, 131, 114, 118, 194, 1, 0.481023
257, 1, bw, filler, NA, 999, 999, 7, 14, 106, 64, 136, 193, 63, 84, 2, 0.635383
257, 1, bw, filler, NA, 999, 999, 7, 14, 106, 64, 136, 193, 63, 84, 3, 0.977195
257, 1, bw, filler, NA, 999, 999, 7, 15, 120, 112, 79, 155, 82, 183, 1, 2.95145
257, 1, bw, filler, NA, 999, 999, 7, 15, 120, 112, 79, 155, 82, 183, 2, 0.671953
257, 1, bw, attraction, a-b-db, 9, 3, 7, 16, 195, 120, 114, 186, 120, 195, 3, 0.939029
257, 1, bw, attraction, a-b-db, 9, 3, 7, 16, 195, 120, 114, 186, 120, 195, 2, 2.20387
257, 1, bw, attraction, a-b-db, 5, 2, 7, 17, 88, 161, 90, 165, 165, 90, 3, 2.1691
257, 1, bw, attraction, a-b-db, 5, 2, 7, 17, 88, 161, 90, 165, 165, 90, 1, 0.769069
257, 1, bw, attraction, a-b-db, 2, 1, 7, 18, 135, 60, 60, 135, 59, 134, 3, 1.86412
257, 1, bw, attraction, a-b-db, 2, 1, 7, 18, 135, 60, 60, 135, 59, 134, 1, 0.780215
257, 1, bw, attraction, a-b-da, 5, 3, 7, 19, 190, 117, 120, 195, 195, 120, 2, 1.88259
257, 1, bw, attraction, a-b-da, 5, 3, 7, 19, 190, 117, 120, 195, 195, 120, 3, 0.637896
257, 1, bw, catch, NA, 999, 999, 7, 20, 114, 141, 76, 119, 165, 150, 1, 0.674315
257, 1, bw, catch, NA, 999, 999, 7, 20, 114, 141, 76, 119, 165, 150, 2, 0.454059
257, 1, bw, attraction, a-b-db, 5, 3, 7, 21, 195, 120, 117, 190, 120, 195, 2, 1.04188
257, 1, bw, attraction, a-b-db, 5, 3, 7, 21, 195, 120, 117, 190, 120, 195, 3, 1.32698
257, 1, bw, attraction, a-b-da, 9, 3, 7, 22, 195, 120, 120, 195, 186, 114, 2, 4.23917
257, 1, bw, attraction, a-b-da, 9, 3, 7, 22, 195, 120, 120, 195, 186, 114, 1, 0.595039
257, 1, bw, attraction, a-b-da, 2, 1, 7, 23, 60, 135, 135, 60, 134, 59, 2, 2.36881
257, 1, bw, attraction, a-b-da, 2, 1, 7, 23, 60, 135, 135, 60, 134, 59, 1, 0.552741
257, 1, bw, attraction, a-b-da, 2, 3, 7, 24, 195, 120, 120, 195, 193, 119, 3, 0.848436
257, 1, bw, attraction, a-b-da, 2, 3, 7, 24, 195, 120, 120, 195, 193, 119, 2, 0.541512
257, 1, bw, attraction, a-b-da, 2, 2, 7, 25, 163, 89, 165, 90, 90, 165, 3, 1.76548
257, 1, bw, attraction, a-b-da, 2, 2, 7, 25, 163, 89, 165, 90, 90, 165, 1, 0.613374
257, 1, bw, attraction, a-b-db, 14, 3, 7, 26, 120, 195, 111, 181, 195, 120, 1, 1.0345
257, 1, bw, attraction, a-b-db, 14, 3, 7, 26, 120, 195, 111, 181, 195, 120, 3, 0.608213
257, 1, bw, attraction, a-b-da, 5, 1, 7, 27, 60, 135, 132, 58, 135, 60, 3, 0.741247
257, 1, bw, attraction, a-b-da, 5, 1, 7, 27, 60, 135, 132, 58, 135, 60, 2, 0.486336
257, 1, bw, filler, NA, 999, 999, 7, 28, 157, 129, 69, 108, 102, 92, 1, 0.912688
257, 1, bw, filler, NA, 999, 999, 7, 28, 157, 129, 69, 108, 102, 92, 2, 0.427136
257, 1, bw, attraction, a-b-db, 2, 2, 7, 29, 165, 90, 90, 165, 89, 163, 3, 1.23156
257, 1, bw, attraction, a-b-db, 2, 2, 7, 29, 165, 90, 90, 165, 89, 163, 1, 0.661253
257, 1, bw, attraction, a-b-da, 5, 2, 7, 30, 161, 88, 165, 90, 90, 165, 3, 0.632253
257, 1, bw, attraction, a-b-da, 5, 2, 7, 30, 161, 88, 165, 90, 90, 165, 1, 0.397982
257, 1, bw, attraction, a-b-da, 14, 2, 7, 31, 165, 90, 153, 83, 90, 165, 1, 0.859825
257, 1, bw, attraction, a-b-da, 14, 2, 7, 31, 165, 90, 153, 83, 90, 165, 2, 0.312263
257, 1, bw, attraction, a-b-db, 9, 1, 7, 32, 57, 129, 60, 135, 135, 60, 3, 1.13738
257, 1, bw, attraction, a-b-db, 9, 1, 7, 32, 57, 129, 60, 135, 135, 60, 2, 0.474283
257, 1, bw, filler, NA, 999, 999, 7, 33, 125, 60, 103, 71, 92, 78, 1, 1.1487
257, 1, bw, filler, NA, 999, 999, 7, 33, 125, 60, 103, 71, 92, 78, 3, 0.813709
257, 1, bw, attraction, a-b-da, 14, 1, 7, 34, 125, 56, 135, 60, 60, 135, 2, 1.41878
257, 1, bw, attraction, a-b-da, 14, 1, 7, 34, 125, 56, 135, 60, 60, 135, 1, 0.520974
257, 1, bw, filler, NA, 999, 999, 7, 35, 72, 152, 115, 167, 61, 65, 2, 0.602212
257, 1, bw, filler, NA, 999, 999, 7, 35, 72, 152, 115, 167, 61, 65, 3, 0.64114
257, 1, bw, attraction, a-b-da, 14, 3, 7, 36, 195, 120, 181, 111, 120, 195, 3, 0.804848
257, 1, bw, attraction, a-b-da, 14, 3, 7, 36, 195, 120, 181, 111, 120, 195, 2, 0.61133
257, 1, bw, attraction, a-b-da, 9, 2, 7, 37, 165, 90, 157, 86, 90, 165, 3, 0.744449
257, 1, bw, attraction, a-b-da, 9, 2, 7, 37, 165, 90, 157, 86, 90, 165, 2, 0.56945
257, 1, bw, attraction, a-b-da, 5, 1, 8, 1, 135, 60, 60, 135, 132, 58, 3, 1.35257
257, 1, bw, attraction, a-b-da, 5, 1, 8, 1, 135, 60, 60, 135, 132, 58, 2, 0.361423
257, 1, bw, attraction, a-b-da, 14, 2, 8, 2, 90, 165, 153, 83, 165, 90, 3, 0.696625
257, 1, bw, attraction, a-b-da, 14, 2, 8, 2, 90, 165, 153, 83, 165, 90, 2, 0.435795
257, 1, bw, filler, NA, 999, 999, 8, 3, 138, 98, 147, 82, 89, 183, 3, 1.09631
257, 1, bw, filler, NA, 999, 999, 8, 3, 138, 98, 147, 82, 89, 183, 2, 0.403124
257, 1, bw, catch, NA, 999, 999, 8, 4, 65, 130, 182, 133, 154, 101, 2, 0.576948
257, 1, bw, catch, NA, 999, 999, 8, 4, 65, 130, 182, 133, 154, 101, 1, 0.680723
257, 1, bw, attraction, a-b-db, 9, 3, 8, 5, 195, 120, 120, 195, 114, 186, 2, 1.2113
257, 1, bw, attraction, a-b-db, 9, 3, 8, 5, 195, 120, 120, 195, 114, 186, 3, 0.537511
257, 1, bw, attraction, a-b-db, 9, 1, 8, 6, 57, 129, 60, 135, 135, 60, 3, 0.937883
257, 1, bw, attraction, a-b-db, 9, 1, 8, 6, 57, 129, 60, 135, 135, 60, 2, 0.387586
257, 1, bw, attraction, a-b-db, 9, 2, 8, 7, 165, 90, 86, 157, 90, 165, 1, 0.650114
257, 1, bw, attraction, a-b-db, 9, 2, 8, 7, 165, 90, 86, 157, 90, 165, 3, 0.479176
257, 1, bw, catch, NA, 999, 999, 8, 8, 60, 135, 151, 104, 171, 144, 3, 0.673567
257, 1, bw, catch, NA, 999, 999, 8, 8, 60, 135, 151, 104, 171, 144, 1, 0.421368
257, 1, bw, attraction, a-b-da, 14, 3, 8, 9, 120, 195, 181, 111, 195, 120, 1, 0.746552
257, 1, bw, attraction, a-b-da, 14, 3, 8, 9, 120, 195, 181, 111, 195, 120, 3, 0.451515
257, 1, bw, attraction, a-b-da, 2, 1, 8, 10, 135, 60, 60, 135, 134, 59, 3, 1.69541
257, 1, bw, attraction, a-b-da, 2, 1, 8, 10, 135, 60, 60, 135, 134, 59, 2, 0.402077
257, 1, bw, attraction, a-b-da, 9, 1, 8, 11, 60, 135, 135, 60, 129, 57, 1, 0.75187
257, 1, bw, attraction, a-b-da, 9, 1, 8, 11, 60, 135, 135, 60, 129, 57, 3, 0.673032
257, 1, bw, catch, NA, 999, 999, 8, 12, 155, 100, 92, 103, 124, 191, 3, 1.12415
257, 1, bw, catch, NA, 999, 999, 8, 12, 155, 100, 92, 103, 124, 191, 2, 0.34179
257, 1, bw, filler, NA, 999, 999, 8, 13, 186, 178, 74, 184, 165, 87, 1, 0.517537
257, 1, bw, filler, NA, 999, 999, 8, 13, 186, 178, 74, 184, 165, 87, 2, 0.576046
257, 1, bw, filler, NA, 999, 999, 8, 14, 80, 68, 191, 84, 130, 57, 2, 0.8705
257, 1, bw, filler, NA, 999, 999, 8, 14, 80, 68, 191, 84, 130, 57, 1, 0.378945
257, 1, bw, filler, NA, 999, 999, 8, 15, 139, 135, 153, 115, 130, 67, 1, 1.05722
257, 1, bw, filler, NA, 999, 999, 8, 15, 139, 135, 153, 115, 130, 67, 3, 0.509609
257, 1, bw, attraction, a-b-db, 14, 1, 8, 16, 56, 125, 135, 60, 60, 135, 3, 1.7429
257, 1, bw, attraction, a-b-db, 14, 1, 8, 16, 56, 125, 135, 60, 60, 135, 1, 0.399428
257, 1, bw, attraction, a-b-db, 14, 2, 8, 17, 83, 153, 165, 90, 90, 165, 3, 0.909298
257, 1, bw, attraction, a-b-db, 14, 2, 8, 17, 83, 153, 165, 90, 90, 165, 1, 0.407654
257, 1, bw, filler, NA, 999, 999, 8, 18, 175, 105, 74, 122, 184, 165, 3, 0.93294
257, 1, bw, filler, NA, 999, 999, 8, 18, 175, 105, 74, 122, 184, 165, 2, 0.374561
257, 1, bw, filler, NA, 999, 999, 8, 19, 116, 189, 130, 102, 99, 136, 1, 0.804926
257, 1, bw, filler, NA, 999, 999, 8, 19, 116, 189, 130, 102, 99, 136, 3, 0.635347
257, 1, bw, attraction, a-b-db, 2, 1, 8, 20, 60, 135, 59, 134, 135, 60, 2, 1.11195
257, 1, bw, attraction, a-b-db, 2, 1, 8, 20, 60, 135, 59, 134, 135, 60, 3, 0.618075
257, 1, bw, attraction, a-b-db, 5, 1, 8, 21, 135, 60, 58, 132, 60, 135, 1, 2.35114
257, 1, bw, attraction, a-b-db, 5, 1, 8, 21, 135, 60, 58, 132, 60, 135, 2, 1.27187
257, 1, bw, attraction, a-b-da, 9, 2, 8, 22, 90, 165, 165, 90, 157, 86, 2, 2.04262
257, 1, bw, attraction, a-b-da, 9, 2, 8, 22, 90, 165, 165, 90, 157, 86, 3, 0.375298
257, 1, bw, filler, NA, 999, 999, 8, 23, 125, 165, 74, 183, 89, 93, 1, 0.75771
257, 1, bw, filler, NA, 999, 999, 8, 23, 125, 165, 74, 183, 89, 93, 3, 1.28637
257, 1, bw, attraction, a-b-da, 2, 2, 8, 24, 165, 90, 90, 165, 163, 89, 2, 3.70444
257, 1, bw, attraction, a-b-da, 2, 2, 8, 24, 165, 90, 90, 165, 163, 89, 3, 0.954517
257, 1, bw, attraction, a-b-db, 14, 3, 8, 25, 120, 195, 195, 120, 111, 181, 3, 1.70624
257, 1, bw, attraction, a-b-db, 14, 3, 8, 25, 120, 195, 195, 120, 111, 181, 2, 0.964341
257, 1, bw, attraction, a-b-db, 5, 2, 8, 26, 88, 161, 90, 165, 165, 90, 2, 1.57135
257, 1, bw, attraction, a-b-db, 5, 2, 8, 26, 88, 161, 90, 165, 165, 90, 3, 1.1468
257, 1, bw, attraction, a-b-da, 5, 3, 8, 27, 120, 195, 195, 120, 190, 117, 1, 2.9784
257, 1, bw, attraction, a-b-da, 5, 3, 8, 27, 120, 195, 195, 120, 190, 117, 3, 0.457403
257, 1, bw, filler, NA, 999, 999, 8, 28, 103, 161, 115, 164, 188, 89, 3, 1.48446
257, 1, bw, filler, NA, 999, 999, 8, 28, 103, 161, 115, 164, 188, 89, 1, 1.12804
257, 1, bw, attraction, a-b-db, 2, 2, 8, 29, 90, 165, 165, 90, 89, 163, 3, 1.00824
257, 1, bw, attraction, a-b-db, 2, 2, 8, 29, 90, 165, 165, 90, 89, 163, 2, 0.430713
257, 1, bw, attraction, a-b-da, 5, 2, 8, 30, 165, 90, 161, 88, 90, 165, 2, 1.61112
257, 1, bw, attraction, a-b-da, 5, 2, 8, 30, 165, 90, 161, 88, 90, 165, 3, 0.385134
257, 1, bw, attraction, a-b-da, 2, 3, 8, 31, 195, 120, 120, 195, 193, 119, 2, 1.77565
257, 1, bw, attraction, a-b-da, 2, 3, 8, 31, 195, 120, 120, 195, 193, 119, 3, 0.551115
257, 1, bw, attraction, a-b-db, 2, 3, 8, 32, 119, 193, 195, 120, 120, 195, 3, 0.806908
257, 1, bw, attraction, a-b-db, 2, 3, 8, 32, 119, 193, 195, 120, 120, 195, 1, 0.533206
257, 1, bw, filler, NA, 999, 999, 8, 33, 119, 138, 88, 118, 102, 86, 1, 1.09364
257, 1, bw, filler, NA, 999, 999, 8, 33, 119, 138, 88, 118, 102, 86, 3, 0.480604
257, 1, bw, attraction, a-b-db, 5, 3, 8, 34, 117, 190, 195, 120, 120, 195, 3, 2.0192
257, 1, bw, attraction, a-b-db, 5, 3, 8, 34, 117, 190, 195, 120, 120, 195, 1, 0.361057
257, 1, bw, attraction, a-b-da, 9, 3, 8, 35, 195, 120, 120, 195, 186, 114, 1, 0.880217
257, 1, bw, attraction, a-b-da, 9, 3, 8, 35, 195, 120, 120, 195, 186, 114, 2, 0.275908
257, 1, bw, attraction, a-b-da, 14, 1, 8, 36, 125, 56, 135, 60, 60, 135, 2, 0.862592
257, 1, bw, attraction, a-b-da, 14, 1, 8, 36, 125, 56, 135, 60, 60, 135, 1, 0.274876
257, 1, bw, filler, NA, 999, 999, 8, 37, 135, 150, 159, 116, 180, 183, 3, 0.517436
257, 1, bw, filler, NA, 999, 999, 8, 37, 135, 150, 159, 116, 180, 183, 1, 0.599951
