sub_n, computer_n, bw_cond, effect, set, distance, diag, block_n, trial_n, h1, w1, h2, w2, h3, w3, choice, rt 
263, 1, bw, practice, NA, 999, 999, 0, 1, 59, 153, 87, 73, 57, 77, 1, 5.03479
263, 1, bw, practice, NA, 999, 999, 0, 1, 59, 153, 87, 73, 57, 77, 3, 3.77458
263, 1, bw, practice, NA, 999, 999, 0, 2, 93, 174, 76, 176, 82, 78, 1, 8.0634
263, 1, bw, practice, NA, 999, 999, 0, 2, 93, 174, 76, 176, 82, 78, 3, 2.14022
263, 1, bw, practice, NA, 999, 999, 0, 3, 113, 111, 183, 72, 167, 135, 3, 4.99947
263, 1, bw, practice, NA, 999, 999, 0, 3, 113, 111, 183, 72, 167, 135, 1, 2.35807
263, 1, bw, attraction, a-b-da, 14, 2, 1, 1, 153, 83, 90, 165, 165, 90, 2, 9.9681
263, 1, bw, attraction, a-b-da, 14, 2, 1, 1, 153, 83, 90, 165, 165, 90, 1, 1.41364
263, 1, bw, attraction, a-b-da, 5, 1, 1, 2, 135, 60, 60, 135, 132, 58, 2, 4.27454
263, 1, bw, attraction, a-b-da, 5, 1, 1, 2, 135, 60, 60, 135, 132, 58, 3, 2.4371
263, 1, bw, filler, NA, 999, 999, 1, 3, 94, 147, 115, 184, 110, 185, 2, 4.16906
263, 1, bw, filler, NA, 999, 999, 1, 3, 94, 147, 115, 184, 110, 185, 1, 1.37627
263, 1, bw, filler, NA, 999, 999, 1, 4, 171, 76, 191, 180, 128, 70, 2, 1.81454
263, 1, bw, filler, NA, 999, 999, 1, 4, 171, 76, 191, 180, 128, 70, 3, 1.80458
263, 1, bw, attraction, a-b-db, 9, 1, 1, 5, 57, 129, 60, 135, 135, 60, 2, 3.41793
263, 1, bw, attraction, a-b-db, 9, 1, 1, 5, 57, 129, 60, 135, 135, 60, 1, 0.911575
263, 1, bw, catch, NA, 999, 999, 1, 6, 95, 160, 98, 97, 153, 162, 3, 8.0805
263, 1, bw, catch, NA, 999, 999, 1, 6, 95, 160, 98, 97, 153, 162, 2, 1.54602
263, 1, bw, attraction, a-b-da, 2, 3, 1, 7, 120, 195, 195, 120, 193, 119, 1, 6.27335
263, 1, bw, attraction, a-b-da, 2, 3, 1, 7, 120, 195, 195, 120, 193, 119, 3, 1.18754
263, 1, bw, attraction, a-b-db, 14, 3, 1, 8, 111, 181, 120, 195, 195, 120, 2, 2.21785
263, 1, bw, attraction, a-b-db, 14, 3, 1, 8, 111, 181, 120, 195, 195, 120, 1, 4.82351
263, 1, bw, filler, NA, 999, 999, 1, 9, 192, 96, 169, 187, 75, 157, 2, 1.92335
263, 1, bw, filler, NA, 999, 999, 1, 9, 192, 96, 169, 187, 75, 157, 3, 1.23671
263, 1, bw, attraction, a-b-da, 14, 3, 1, 10, 120, 195, 195, 120, 181, 111, 2, 4.03295
263, 1, bw, attraction, a-b-da, 14, 3, 1, 10, 120, 195, 195, 120, 181, 111, 3, 2.08568
263, 1, bw, attraction, a-b-db, 9, 2, 1, 11, 90, 165, 86, 157, 165, 90, 3, 4.52776
263, 1, bw, attraction, a-b-db, 9, 2, 1, 11, 90, 165, 86, 157, 165, 90, 1, 1.48027
263, 1, bw, attraction, a-b-db, 5, 3, 1, 12, 120, 195, 195, 120, 117, 190, 2, 2.15432
263, 1, bw, attraction, a-b-db, 5, 3, 1, 12, 120, 195, 195, 120, 117, 190, 1, 1.25023
263, 1, bw, filler, NA, 999, 999, 1, 13, 123, 100, 182, 65, 63, 104, 2, 3.38986
263, 1, bw, filler, NA, 999, 999, 1, 13, 123, 100, 182, 65, 63, 104, 3, 1.11623
263, 1, bw, filler, NA, 999, 999, 1, 14, 152, 157, 105, 129, 125, 190, 3, 2.74902
263, 1, bw, filler, NA, 999, 999, 1, 14, 152, 157, 105, 129, 125, 190, 2, 1.31745
263, 1, bw, attraction, a-b-db, 14, 1, 1, 15, 135, 60, 60, 135, 56, 125, 2, 5.36648
263, 1, bw, attraction, a-b-db, 14, 1, 1, 15, 135, 60, 60, 135, 56, 125, 1, 2.78927
263, 1, bw, attraction, a-b-da, 9, 1, 1, 16, 60, 135, 135, 60, 129, 57, 3, 6.77906
263, 1, bw, attraction, a-b-da, 9, 1, 1, 16, 60, 135, 135, 60, 129, 57, 2, 2.025
263, 1, bw, filler, NA, 999, 999, 1, 17, 84, 173, 143, 89, 169, 74, 1, 2.15693
263, 1, bw, filler, NA, 999, 999, 1, 17, 84, 173, 143, 89, 169, 74, 3, 1.15684
263, 1, bw, attraction, a-b-da, 14, 1, 1, 18, 125, 56, 135, 60, 60, 135, 3, 2.63569
263, 1, bw, attraction, a-b-da, 14, 1, 1, 18, 125, 56, 135, 60, 60, 135, 1, 0.888874
263, 1, bw, catch, NA, 999, 999, 1, 19, 150, 105, 178, 137, 79, 116, 2, 2.58753
263, 1, bw, catch, NA, 999, 999, 1, 19, 150, 105, 178, 137, 79, 116, 3, 1.2424
263, 1, bw, attraction, a-b-db, 9, 3, 1, 20, 114, 186, 195, 120, 120, 195, 3, 4.93399
263, 1, bw, attraction, a-b-db, 9, 3, 1, 20, 114, 186, 195, 120, 120, 195, 1, 0.894317
263, 1, bw, filler, NA, 999, 999, 1, 21, 160, 85, 125, 152, 94, 90, 2, 2.15207
263, 1, bw, filler, NA, 999, 999, 1, 21, 160, 85, 125, 152, 94, 90, 3, 1.61671
263, 1, bw, catch, NA, 999, 999, 1, 22, 108, 87, 98, 157, 193, 122, 3, 1.3334
263, 1, bw, catch, NA, 999, 999, 1, 22, 108, 87, 98, 157, 193, 122, 1, 1.10301
263, 1, bw, filler, NA, 999, 999, 1, 23, 91, 73, 172, 164, 129, 162, 2, 1.41687
263, 1, bw, filler, NA, 999, 999, 1, 23, 91, 73, 172, 164, 129, 162, 1, 0.598708
263, 1, bw, attraction, a-b-da, 9, 3, 1, 24, 186, 114, 195, 120, 120, 195, 3, 3.17268
263, 1, bw, attraction, a-b-da, 9, 3, 1, 24, 186, 114, 195, 120, 120, 195, 1, 1.47561
263, 1, bw, attraction, a-b-da, 9, 2, 1, 25, 165, 90, 90, 165, 157, 86, 2, 2.69368
263, 1, bw, attraction, a-b-da, 9, 2, 1, 25, 165, 90, 90, 165, 157, 86, 3, 1.24022
263, 1, bw, attraction, a-b-da, 2, 1, 1, 26, 60, 135, 135, 60, 134, 59, 2, 9.91577
263, 1, bw, attraction, a-b-da, 2, 1, 1, 26, 60, 135, 135, 60, 134, 59, 3, 3.76323
263, 1, bw, attraction, a-b-da, 5, 3, 1, 27, 195, 120, 120, 195, 190, 117, 2, 2.35335
263, 1, bw, attraction, a-b-da, 5, 3, 1, 27, 195, 120, 120, 195, 190, 117, 1, 0.777865
263, 1, bw, attraction, a-b-da, 5, 2, 1, 28, 161, 88, 90, 165, 165, 90, 2, 2.47228
263, 1, bw, attraction, a-b-da, 5, 2, 1, 28, 161, 88, 90, 165, 165, 90, 1, 2.01157
263, 1, bw, attraction, a-b-db, 2, 3, 1, 29, 120, 195, 119, 193, 195, 120, 1, 2.76816
263, 1, bw, attraction, a-b-db, 2, 3, 1, 29, 120, 195, 119, 193, 195, 120, 3, 1.32793
263, 1, bw, attraction, a-b-db, 2, 1, 1, 30, 59, 134, 135, 60, 60, 135, 1, 10.2001
263, 1, bw, attraction, a-b-db, 2, 1, 1, 30, 59, 134, 135, 60, 60, 135, 3, 1.82023
263, 1, bw, filler, NA, 999, 999, 1, 31, 116, 176, 158, 132, 167, 92, 1, 9.18486
263, 1, bw, filler, NA, 999, 999, 1, 31, 116, 176, 158, 132, 167, 92, 3, 1.07816
263, 1, bw, filler, NA, 999, 999, 1, 32, 107, 72, 113, 115, 80, 172, 3, 1.52836
263, 1, bw, filler, NA, 999, 999, 1, 32, 107, 72, 113, 115, 80, 172, 1, 0.857712
263, 1, bw, attraction, a-b-db, 5, 1, 1, 33, 135, 60, 60, 135, 58, 132, 2, 3.66086
263, 1, bw, attraction, a-b-db, 5, 1, 1, 33, 135, 60, 60, 135, 58, 132, 1, 2.04829
263, 1, bw, attraction, a-b-da, 2, 2, 1, 34, 165, 90, 90, 165, 163, 89, 1, 3.97966
263, 1, bw, attraction, a-b-da, 2, 2, 1, 34, 165, 90, 90, 165, 163, 89, 3, 1.21835
263, 1, bw, attraction, a-b-db, 14, 2, 1, 35, 83, 153, 90, 165, 165, 90, 2, 2.81524
263, 1, bw, attraction, a-b-db, 14, 2, 1, 35, 83, 153, 90, 165, 165, 90, 1, 3.12502
263, 1, bw, attraction, a-b-db, 5, 2, 1, 36, 90, 165, 165, 90, 88, 161, 1, 3.53252
263, 1, bw, attraction, a-b-db, 5, 2, 1, 36, 90, 165, 165, 90, 88, 161, 2, 1.93353
263, 1, bw, attraction, a-b-db, 2, 2, 1, 37, 165, 90, 90, 165, 89, 163, 2, 5.1255
263, 1, bw, attraction, a-b-db, 2, 2, 1, 37, 165, 90, 90, 165, 89, 163, 1, 1.18996
263, 1, bw, attraction, a-b-da, 5, 3, 2, 1, 190, 117, 195, 120, 120, 195, 2, 4.18815
263, 1, bw, attraction, a-b-da, 5, 3, 2, 1, 190, 117, 195, 120, 120, 195, 1, 1.24285
263, 1, bw, attraction, a-b-db, 9, 2, 2, 2, 86, 157, 165, 90, 90, 165, 3, 1.65435
263, 1, bw, attraction, a-b-db, 9, 2, 2, 2, 86, 157, 165, 90, 90, 165, 1, 0.994428
263, 1, bw, filler, NA, 999, 999, 2, 3, 187, 149, 145, 58, 119, 163, 1, 1.82411
263, 1, bw, filler, NA, 999, 999, 2, 3, 187, 149, 145, 58, 119, 163, 2, 1.59745
263, 1, bw, catch, NA, 999, 999, 2, 4, 152, 163, 108, 87, 144, 111, 1, 1.60286
263, 1, bw, catch, NA, 999, 999, 2, 4, 152, 163, 108, 87, 144, 111, 2, 0.881764
263, 1, bw, filler, NA, 999, 999, 2, 5, 94, 179, 144, 95, 177, 93, 3, 5.90815
263, 1, bw, filler, NA, 999, 999, 2, 5, 94, 179, 144, 95, 177, 93, 2, 1.42094
263, 1, bw, attraction, a-b-db, 2, 3, 2, 6, 120, 195, 195, 120, 119, 193, 3, 6.05765
263, 1, bw, attraction, a-b-db, 2, 3, 2, 6, 120, 195, 195, 120, 119, 193, 1, 2.14054
263, 1, bw, attraction, a-b-da, 2, 3, 2, 7, 120, 195, 195, 120, 193, 119, 1, 3.72371
263, 1, bw, attraction, a-b-da, 2, 3, 2, 7, 120, 195, 195, 120, 193, 119, 2, 1.81245
263, 1, bw, attraction, a-b-db, 9, 3, 2, 8, 120, 195, 114, 186, 195, 120, 2, 5.12117
263, 1, bw, attraction, a-b-db, 9, 3, 2, 8, 120, 195, 114, 186, 195, 120, 1, 0.954186
263, 1, bw, filler, NA, 999, 999, 2, 9, 175, 77, 83, 157, 170, 158, 3, 1.92185
263, 1, bw, filler, NA, 999, 999, 2, 9, 175, 77, 83, 157, 170, 158, 1, 2.26724
263, 1, bw, attraction, a-b-da, 9, 1, 2, 10, 60, 135, 129, 57, 135, 60, 2, 5.06974
263, 1, bw, attraction, a-b-da, 9, 1, 2, 10, 60, 135, 129, 57, 135, 60, 3, 0.848819
263, 1, bw, attraction, a-b-db, 5, 1, 2, 11, 135, 60, 60, 135, 58, 132, 2, 3.42859
263, 1, bw, attraction, a-b-db, 5, 1, 2, 11, 135, 60, 60, 135, 58, 132, 1, 0.905471
263, 1, bw, attraction, a-b-da, 5, 1, 2, 12, 60, 135, 132, 58, 135, 60, 3, 4.54709
263, 1, bw, attraction, a-b-da, 5, 1, 2, 12, 60, 135, 132, 58, 135, 60, 1, 1.03499
263, 1, bw, filler, NA, 999, 999, 2, 13, 92, 67, 161, 188, 182, 170, 2, 2.03928
263, 1, bw, filler, NA, 999, 999, 2, 13, 92, 67, 161, 188, 182, 170, 1, 1.10793
263, 1, bw, attraction, a-b-db, 9, 1, 2, 14, 135, 60, 57, 129, 60, 135, 1, 19.4369
263, 1, bw, attraction, a-b-db, 9, 1, 2, 14, 135, 60, 57, 129, 60, 135, 2, 2.0529
263, 1, bw, filler, NA, 999, 999, 2, 15, 106, 147, 148, 155, 162, 179, 3, 0.960064
263, 1, bw, filler, NA, 999, 999, 2, 15, 106, 147, 148, 155, 162, 179, 1, 3.07245
263, 1, bw, attraction, a-b-da, 14, 3, 2, 16, 195, 120, 120, 195, 181, 111, 2, 3.21074
263, 1, bw, attraction, a-b-da, 14, 3, 2, 16, 195, 120, 120, 195, 181, 111, 3, 1.56036
263, 1, bw, attraction, a-b-da, 2, 2, 2, 17, 165, 90, 163, 89, 90, 165, 2, 6.40716
263, 1, bw, attraction, a-b-da, 2, 2, 2, 17, 165, 90, 163, 89, 90, 165, 3, 1.53982
263, 1, bw, filler, NA, 999, 999, 2, 18, 192, 125, 85, 117, 146, 95, 1, 1.64382
263, 1, bw, filler, NA, 999, 999, 2, 18, 192, 125, 85, 117, 146, 95, 2, 0.896702
263, 1, bw, attraction, a-b-da, 14, 1, 2, 19, 60, 135, 135, 60, 125, 56, 3, 2.22648
263, 1, bw, attraction, a-b-da, 14, 1, 2, 19, 60, 135, 135, 60, 125, 56, 1, 6.27958
263, 1, bw, catch, NA, 999, 999, 2, 20, 156, 99, 90, 105, 187, 128, 3, 2.14434
263, 1, bw, catch, NA, 999, 999, 2, 20, 156, 99, 90, 105, 187, 128, 2, 0.640968
263, 1, bw, filler, NA, 999, 999, 2, 21, 71, 88, 73, 111, 166, 76, 3, 1.37273
263, 1, bw, filler, NA, 999, 999, 2, 21, 71, 88, 73, 111, 166, 76, 1, 1.38826
263, 1, bw, filler, NA, 999, 999, 2, 22, 182, 165, 194, 181, 175, 72, 2, 1.2743
263, 1, bw, filler, NA, 999, 999, 2, 22, 182, 165, 194, 181, 175, 72, 3, 0.87796
263, 1, bw, attraction, a-b-db, 14, 3, 2, 23, 195, 120, 120, 195, 111, 181, 2, 3.5363
263, 1, bw, attraction, a-b-db, 14, 3, 2, 23, 195, 120, 120, 195, 111, 181, 1, 1.0252
263, 1, bw, attraction, a-b-da, 5, 2, 2, 24, 90, 165, 165, 90, 161, 88, 2, 4.90952
263, 1, bw, attraction, a-b-da, 5, 2, 2, 24, 90, 165, 165, 90, 161, 88, 3, 0.718689
263, 1, bw, attraction, a-b-db, 5, 3, 2, 25, 120, 195, 195, 120, 117, 190, 1, 4.20765
263, 1, bw, attraction, a-b-db, 5, 3, 2, 25, 120, 195, 195, 120, 117, 190, 2, 2.77296
263, 1, bw, filler, NA, 999, 999, 2, 26, 88, 64, 76, 169, 70, 159, 2, 2.61942
263, 1, bw, filler, NA, 999, 999, 2, 26, 88, 64, 76, 169, 70, 159, 1, 1.0972
263, 1, bw, catch, NA, 999, 999, 2, 27, 134, 61, 167, 148, 108, 147, 2, 1.36285
263, 1, bw, catch, NA, 999, 999, 2, 27, 134, 61, 167, 148, 108, 147, 1, 0.57105
263, 1, bw, attraction, a-b-db, 2, 2, 2, 28, 90, 165, 89, 163, 165, 90, 1, 3.33
263, 1, bw, attraction, a-b-db, 2, 2, 2, 28, 90, 165, 89, 163, 165, 90, 3, 0.482937
263, 1, bw, attraction, a-b-da, 9, 3, 2, 29, 186, 114, 120, 195, 195, 120, 2, 4.19744
263, 1, bw, attraction, a-b-da, 9, 3, 2, 29, 186, 114, 120, 195, 195, 120, 1, 0.531551
263, 1, bw, attraction, a-b-db, 14, 2, 2, 30, 83, 153, 90, 165, 165, 90, 2, 3.56393
263, 1, bw, attraction, a-b-db, 14, 2, 2, 30, 83, 153, 90, 165, 165, 90, 1, 0.651409
263, 1, bw, attraction, a-b-da, 2, 1, 2, 31, 134, 59, 135, 60, 60, 135, 2, 4.07925
263, 1, bw, attraction, a-b-da, 2, 1, 2, 31, 134, 59, 135, 60, 60, 135, 3, 1.17782
263, 1, bw, attraction, a-b-db, 14, 1, 2, 32, 56, 125, 135, 60, 60, 135, 3, 4.46406
263, 1, bw, attraction, a-b-db, 14, 1, 2, 32, 56, 125, 135, 60, 60, 135, 1, 0.691406
263, 1, bw, attraction, a-b-da, 14, 2, 2, 33, 90, 165, 165, 90, 153, 83, 2, 3.28516
263, 1, bw, attraction, a-b-da, 14, 2, 2, 33, 90, 165, 165, 90, 153, 83, 3, 0.936143
263, 1, bw, filler, NA, 999, 999, 2, 34, 82, 119, 126, 128, 140, 63, 2, 2.0005
263, 1, bw, filler, NA, 999, 999, 2, 34, 82, 119, 126, 128, 140, 63, 3, 1.08711
263, 1, bw, attraction, a-b-db, 2, 1, 2, 35, 60, 135, 135, 60, 59, 134, 1, 6.96139
263, 1, bw, attraction, a-b-db, 2, 1, 2, 35, 60, 135, 135, 60, 59, 134, 3, 0.631803
263, 1, bw, attraction, a-b-db, 5, 2, 2, 36, 90, 165, 165, 90, 88, 161, 2, 3.68421
263, 1, bw, attraction, a-b-db, 5, 2, 2, 36, 90, 165, 165, 90, 88, 161, 3, 1.43907
263, 1, bw, attraction, a-b-da, 9, 2, 2, 37, 157, 86, 90, 165, 165, 90, 2, 4.52311
263, 1, bw, attraction, a-b-da, 9, 2, 2, 37, 157, 86, 90, 165, 165, 90, 1, 0.779846
263, 1, bw, catch, NA, 999, 999, 3, 1, 100, 155, 107, 88, 188, 127, 3, 3.82606
263, 1, bw, catch, NA, 999, 999, 3, 1, 100, 155, 107, 88, 188, 127, 2, 2.19084
263, 1, bw, filler, NA, 999, 999, 3, 2, 172, 87, 150, 153, 93, 135, 1, 5.35607
263, 1, bw, filler, NA, 999, 999, 3, 2, 172, 87, 150, 153, 93, 135, 3, 1.20383
263, 1, bw, attraction, a-b-da, 5, 2, 3, 3, 161, 88, 90, 165, 165, 90, 3, 2.20126
263, 1, bw, attraction, a-b-da, 5, 2, 3, 3, 161, 88, 90, 165, 165, 90, 1, 1.19193
263, 1, bw, filler, NA, 999, 999, 3, 4, 134, 89, 84, 64, 99, 190, 3, 1.4296
263, 1, bw, filler, NA, 999, 999, 3, 4, 134, 89, 84, 64, 99, 190, 2, 0.66707
263, 1, bw, filler, NA, 999, 999, 3, 5, 177, 71, 163, 128, 162, 78, 2, 1.58209
263, 1, bw, filler, NA, 999, 999, 3, 5, 177, 71, 163, 128, 162, 78, 3, 1.0536
263, 1, bw, attraction, a-b-db, 14, 2, 3, 6, 83, 153, 90, 165, 165, 90, 2, 6.29731
263, 1, bw, attraction, a-b-db, 14, 2, 3, 6, 83, 153, 90, 165, 165, 90, 3, 0.722563
263, 1, bw, filler, NA, 999, 999, 3, 7, 93, 161, 106, 123, 128, 88, 1, 3.14765
263, 1, bw, filler, NA, 999, 999, 3, 7, 93, 161, 106, 123, 128, 88, 3, 0.81991
263, 1, bw, attraction, a-b-db, 2, 3, 3, 8, 195, 120, 120, 195, 119, 193, 2, 15.521
263, 1, bw, attraction, a-b-db, 2, 3, 3, 8, 195, 120, 120, 195, 119, 193, 1, 0.83094
263, 1, bw, filler, NA, 999, 999, 3, 9, 72, 92, 64, 191, 65, 126, 2, 1.95506
263, 1, bw, filler, NA, 999, 999, 3, 9, 72, 92, 64, 191, 65, 126, 1, 1.81914
263, 1, bw, attraction, a-b-da, 2, 2, 3, 10, 163, 89, 165, 90, 90, 165, 3, 5.87979
263, 1, bw, attraction, a-b-da, 2, 2, 3, 10, 163, 89, 165, 90, 90, 165, 1, 1.63395
263, 1, bw, attraction, a-b-db, 9, 1, 3, 11, 57, 129, 135, 60, 60, 135, 3, 8.59803
263, 1, bw, attraction, a-b-db, 9, 1, 3, 11, 57, 129, 135, 60, 60, 135, 2, 1.36273
263, 1, bw, attraction, a-b-db, 9, 2, 3, 12, 86, 157, 90, 165, 165, 90, 3, 8.08965
263, 1, bw, attraction, a-b-db, 9, 2, 3, 12, 86, 157, 90, 165, 165, 90, 1, 1.2109
263, 1, bw, catch, NA, 999, 999, 3, 13, 143, 172, 77, 118, 123, 132, 1, 2.48789
263, 1, bw, catch, NA, 999, 999, 3, 13, 143, 172, 77, 118, 123, 132, 2, 0.643009
263, 1, bw, attraction, a-b-da, 14, 3, 3, 14, 181, 111, 195, 120, 120, 195, 2, 2.69483
263, 1, bw, attraction, a-b-da, 14, 3, 3, 14, 181, 111, 195, 120, 120, 195, 1, 0.489306
263, 1, bw, attraction, a-b-da, 9, 1, 3, 15, 60, 135, 129, 57, 135, 60, 3, 7.43577
263, 1, bw, attraction, a-b-da, 9, 1, 3, 15, 60, 135, 129, 57, 135, 60, 1, 0.767453
263, 1, bw, catch, NA, 999, 999, 3, 16, 65, 130, 148, 167, 123, 132, 2, 2.95847
263, 1, bw, catch, NA, 999, 999, 3, 16, 65, 130, 148, 167, 123, 132, 1, 0.846204
263, 1, bw, attraction, a-b-db, 14, 3, 3, 17, 111, 181, 120, 195, 195, 120, 2, 7.53775
263, 1, bw, attraction, a-b-db, 14, 3, 3, 17, 111, 181, 120, 195, 195, 120, 1, 1.59343
263, 1, bw, attraction, a-b-da, 14, 1, 3, 18, 125, 56, 60, 135, 135, 60, 2, 2.90281
263, 1, bw, attraction, a-b-da, 14, 1, 3, 18, 125, 56, 60, 135, 135, 60, 1, 0.785354
263, 1, bw, filler, NA, 999, 999, 3, 19, 167, 160, 63, 180, 167, 79, 1, 5.35959
263, 1, bw, filler, NA, 999, 999, 3, 19, 167, 160, 63, 180, 167, 79, 3, 2.39864
263, 1, bw, attraction, a-b-da, 2, 3, 3, 20, 120, 195, 193, 119, 195, 120, 2, 6.53983
263, 1, bw, attraction, a-b-da, 2, 3, 3, 20, 120, 195, 193, 119, 195, 120, 3, 1.31514
263, 1, bw, filler, NA, 999, 999, 3, 21, 115, 194, 126, 186, 145, 133, 2, 17.364
263, 1, bw, filler, NA, 999, 999, 3, 21, 115, 194, 126, 186, 145, 133, 3, 1.5272
263, 1, bw, attraction, a-b-da, 9, 3, 3, 22, 120, 195, 195, 120, 186, 114, 2, 2.35926
263, 1, bw, attraction, a-b-da, 9, 3, 3, 22, 120, 195, 195, 120, 186, 114, 3, 1.28727
263, 1, bw, attraction, a-b-da, 9, 2, 3, 23, 157, 86, 165, 90, 90, 165, 2, 10.4254
263, 1, bw, attraction, a-b-da, 9, 2, 3, 23, 157, 86, 165, 90, 90, 165, 1, 1.01202
263, 1, bw, attraction, a-b-db, 2, 1, 3, 24, 59, 134, 135, 60, 60, 135, 3, 11.3769
263, 1, bw, attraction, a-b-db, 2, 1, 3, 24, 59, 134, 135, 60, 60, 135, 1, 1.09346
263, 1, bw, attraction, a-b-db, 5, 3, 3, 25, 117, 190, 195, 120, 120, 195, 2, 8.44706
263, 1, bw, attraction, a-b-db, 5, 3, 3, 25, 117, 190, 195, 120, 120, 195, 3, 1.38581
263, 1, bw, attraction, a-b-db, 5, 1, 3, 26, 60, 135, 58, 132, 135, 60, 2, 12.2639
263, 1, bw, attraction, a-b-db, 5, 1, 3, 26, 60, 135, 58, 132, 135, 60, 3, 1.09677
263, 1, bw, filler, NA, 999, 999, 3, 27, 137, 83, 89, 148, 95, 85, 2, 1.33029
263, 1, bw, filler, NA, 999, 999, 3, 27, 137, 83, 89, 148, 95, 85, 3, 1.68394
263, 1, bw, attraction, a-b-da, 14, 2, 3, 28, 165, 90, 90, 165, 153, 83, 2, 3.71794
263, 1, bw, attraction, a-b-da, 14, 2, 3, 28, 165, 90, 90, 165, 153, 83, 3, 0.871463
263, 1, bw, attraction, a-b-da, 5, 1, 3, 29, 135, 60, 60, 135, 132, 58, 2, 3.79445
263, 1, bw, attraction, a-b-da, 5, 1, 3, 29, 135, 60, 60, 135, 132, 58, 3, 1.24056
263, 1, bw, filler, NA, 999, 999, 3, 30, 188, 179, 129, 76, 156, 56, 1, 5.49202
263, 1, bw, filler, NA, 999, 999, 3, 30, 188, 179, 129, 76, 156, 56, 3, 2.34176
263, 1, bw, attraction, a-b-db, 14, 1, 3, 31, 56, 125, 60, 135, 135, 60, 3, 2.69307
263, 1, bw, attraction, a-b-db, 14, 1, 3, 31, 56, 125, 60, 135, 135, 60, 1, 1.15946
263, 1, bw, attraction, a-b-da, 5, 3, 3, 32, 190, 117, 195, 120, 120, 195, 2, 2.44618
263, 1, bw, attraction, a-b-da, 5, 3, 3, 32, 190, 117, 195, 120, 120, 195, 1, 1.77879
263, 1, bw, attraction, a-b-db, 9, 3, 3, 33, 195, 120, 114, 186, 120, 195, 2, 3.12893
263, 1, bw, attraction, a-b-db, 9, 3, 3, 33, 195, 120, 114, 186, 120, 195, 3, 1.2419
263, 1, bw, filler, NA, 999, 999, 3, 34, 121, 144, 60, 86, 71, 144, 1, 1.98153
263, 1, bw, filler, NA, 999, 999, 3, 34, 121, 144, 60, 86, 71, 144, 2, 2.08486
263, 1, bw, attraction, a-b-db, 2, 2, 3, 35, 90, 165, 89, 163, 165, 90, 2, 4.11871
263, 1, bw, attraction, a-b-db, 2, 2, 3, 35, 90, 165, 89, 163, 165, 90, 3, 0.720145
263, 1, bw, attraction, a-b-da, 2, 1, 3, 36, 134, 59, 135, 60, 60, 135, 2, 1.84909
263, 1, bw, attraction, a-b-da, 2, 1, 3, 36, 134, 59, 135, 60, 60, 135, 1, 0.74986
263, 1, bw, attraction, a-b-db, 5, 2, 3, 37, 90, 165, 165, 90, 88, 161, 2, 32.9895
263, 1, bw, attraction, a-b-db, 5, 2, 3, 37, 90, 165, 165, 90, 88, 161, 3, 0.563197
263, 1, bw, filler, NA, 999, 999, 4, 1, 107, 178, 191, 101, 96, 173, 2, 4.16238
263, 1, bw, filler, NA, 999, 999, 4, 1, 107, 178, 191, 101, 96, 173, 3, 1.05774
263, 1, bw, attraction, a-b-db, 5, 2, 4, 2, 90, 165, 165, 90, 88, 161, 2, 3.08465
263, 1, bw, attraction, a-b-db, 5, 2, 4, 2, 90, 165, 165, 90, 88, 161, 3, 0.479574
263, 1, bw, catch, NA, 999, 999, 4, 3, 125, 70, 194, 121, 152, 103, 2, 0.970038
263, 1, bw, catch, NA, 999, 999, 4, 3, 125, 70, 194, 121, 152, 103, 1, 0.586342
263, 1, bw, attraction, a-b-db, 9, 3, 4, 4, 114, 186, 195, 120, 120, 195, 2, 3.22488
263, 1, bw, attraction, a-b-db, 9, 3, 4, 4, 114, 186, 195, 120, 120, 195, 1, 0.781935
263, 1, bw, catch, NA, 999, 999, 4, 5, 164, 151, 70, 125, 126, 129, 1, 1.90817
263, 1, bw, catch, NA, 999, 999, 4, 5, 164, 151, 70, 125, 126, 129, 2, 1.81436
263, 1, bw, attraction, a-b-db, 2, 2, 4, 6, 165, 90, 90, 165, 89, 163, 2, 9.41885
263, 1, bw, attraction, a-b-db, 2, 2, 4, 6, 165, 90, 90, 165, 89, 163, 1, 3.43063
263, 1, bw, attraction, a-b-da, 14, 1, 4, 7, 60, 135, 125, 56, 135, 60, 1, 17.9781
263, 1, bw, attraction, a-b-da, 14, 1, 4, 7, 60, 135, 125, 56, 135, 60, 2, 0.63651
263, 1, bw, filler, NA, 999, 999, 4, 8, 160, 182, 118, 141, 195, 120, 1, 2.36105
263, 1, bw, filler, NA, 999, 999, 4, 8, 160, 182, 118, 141, 195, 120, 2, 0.944888
263, 1, bw, attraction, a-b-db, 9, 1, 4, 9, 60, 135, 57, 129, 135, 60, 1, 4.69649
263, 1, bw, attraction, a-b-db, 9, 1, 4, 9, 60, 135, 57, 129, 135, 60, 3, 0.914344
263, 1, bw, attraction, a-b-da, 5, 2, 4, 10, 90, 165, 165, 90, 161, 88, 2, 5.68348
263, 1, bw, attraction, a-b-da, 5, 2, 4, 10, 90, 165, 165, 90, 161, 88, 3, 0.757519
263, 1, bw, attraction, a-b-da, 2, 2, 4, 11, 90, 165, 163, 89, 165, 90, 2, 2.40475
263, 1, bw, attraction, a-b-da, 2, 2, 4, 11, 90, 165, 163, 89, 165, 90, 3, 0.818384
263, 1, bw, attraction, a-b-da, 2, 1, 4, 12, 135, 60, 134, 59, 60, 135, 3, 1.31144
263, 1, bw, attraction, a-b-da, 2, 1, 4, 12, 135, 60, 134, 59, 60, 135, 2, 0.617603
263, 1, bw, attraction, a-b-da, 9, 2, 4, 13, 165, 90, 157, 86, 90, 165, 2, 1.05479
263, 1, bw, attraction, a-b-da, 9, 2, 4, 13, 165, 90, 157, 86, 90, 165, 3, 0.563637
263, 1, bw, filler, NA, 999, 999, 4, 14, 125, 107, 142, 115, 108, 138, 2, 0.89077
263, 1, bw, filler, NA, 999, 999, 4, 14, 125, 107, 142, 115, 108, 138, 1, 0.541788
263, 1, bw, filler, NA, 999, 999, 4, 15, 100, 79, 148, 58, 127, 100, 2, 2.46175
263, 1, bw, filler, NA, 999, 999, 4, 15, 100, 79, 148, 58, 127, 100, 1, 0.513474
263, 1, bw, attraction, a-b-da, 14, 3, 4, 16, 181, 111, 195, 120, 120, 195, 2, 2.15461
263, 1, bw, attraction, a-b-da, 14, 3, 4, 16, 181, 111, 195, 120, 120, 195, 1, 0.443145
263, 1, bw, attraction, a-b-db, 2, 3, 4, 17, 119, 193, 195, 120, 120, 195, 2, 2.22317
263, 1, bw, attraction, a-b-db, 2, 3, 4, 17, 119, 193, 195, 120, 120, 195, 1, 0.940428
263, 1, bw, attraction, a-b-da, 5, 3, 4, 18, 195, 120, 190, 117, 120, 195, 3, 2.77998
263, 1, bw, attraction, a-b-da, 5, 3, 4, 18, 195, 120, 190, 117, 120, 195, 1, 0.619089
263, 1, bw, filler, NA, 999, 999, 4, 19, 103, 90, 125, 89, 81, 118, 2, 2.68012
263, 1, bw, filler, NA, 999, 999, 4, 19, 103, 90, 125, 89, 81, 118, 1, 0.675263
263, 1, bw, catch, NA, 999, 999, 4, 20, 115, 80, 150, 105, 120, 195, 3, 2.2137
263, 1, bw, catch, NA, 999, 999, 4, 20, 115, 80, 150, 105, 120, 195, 1, 0.555645
263, 1, bw, attraction, a-b-db, 14, 2, 4, 21, 165, 90, 83, 153, 90, 165, 3, 4.78739
263, 1, bw, attraction, a-b-db, 14, 2, 4, 21, 165, 90, 83, 153, 90, 165, 2, 0.47383
263, 1, bw, filler, NA, 999, 999, 4, 22, 89, 118, 82, 85, 67, 94, 1, 1.74836
263, 1, bw, filler, NA, 999, 999, 4, 22, 89, 118, 82, 85, 67, 94, 3, 0.581087
263, 1, bw, filler, NA, 999, 999, 4, 23, 100, 68, 123, 67, 181, 66, 3, 1.6516
263, 1, bw, filler, NA, 999, 999, 4, 23, 100, 68, 123, 67, 181, 66, 1, 1.16831
263, 1, bw, filler, NA, 999, 999, 4, 24, 139, 124, 71, 109, 190, 176, 3, 2.58326
263, 1, bw, filler, NA, 999, 999, 4, 24, 139, 124, 71, 109, 190, 176, 2, 1.04639
263, 1, bw, filler, NA, 999, 999, 4, 25, 77, 134, 129, 153, 71, 73, 2, 2.28194
263, 1, bw, filler, NA, 999, 999, 4, 25, 77, 134, 129, 153, 71, 73, 3, 0.829272
263, 1, bw, attraction, a-b-db, 2, 1, 4, 26, 135, 60, 59, 134, 60, 135, 2, 6.22567
263, 1, bw, attraction, a-b-db, 2, 1, 4, 26, 135, 60, 59, 134, 60, 135, 1, 0.765844
263, 1, bw, filler, NA, 999, 999, 4, 27, 129, 155, 168, 109, 119, 122, 2, 4.55667
263, 1, bw, filler, NA, 999, 999, 4, 27, 129, 155, 168, 109, 119, 122, 3, 0.82803
263, 1, bw, attraction, a-b-da, 2, 3, 4, 28, 193, 119, 120, 195, 195, 120, 2, 5.69652
263, 1, bw, attraction, a-b-da, 2, 3, 4, 28, 193, 119, 120, 195, 195, 120, 1, 2.70575
263, 1, bw, attraction, a-b-da, 5, 1, 4, 29, 135, 60, 60, 135, 132, 58, 2, 2.89085
263, 1, bw, attraction, a-b-da, 5, 1, 4, 29, 135, 60, 60, 135, 132, 58, 3, 0.781321
263, 1, bw, attraction, a-b-db, 5, 1, 4, 30, 60, 135, 135, 60, 58, 132, 1, 2.07568
263, 1, bw, attraction, a-b-db, 5, 1, 4, 30, 60, 135, 135, 60, 58, 132, 2, 0.623019
263, 1, bw, attraction, a-b-db, 14, 1, 4, 31, 60, 135, 56, 125, 135, 60, 2, 11.892
263, 1, bw, attraction, a-b-db, 14, 1, 4, 31, 60, 135, 56, 125, 135, 60, 1, 0.859672
263, 1, bw, attraction, a-b-da, 14, 2, 4, 32, 153, 83, 90, 165, 165, 90, 2, 1.97466
263, 1, bw, attraction, a-b-da, 14, 2, 4, 32, 153, 83, 90, 165, 165, 90, 1, 0.477945
263, 1, bw, attraction, a-b-db, 5, 3, 4, 33, 120, 195, 195, 120, 117, 190, 2, 3.82458
263, 1, bw, attraction, a-b-db, 5, 3, 4, 33, 120, 195, 195, 120, 117, 190, 3, 0.573203
263, 1, bw, attraction, a-b-da, 9, 3, 4, 34, 120, 195, 186, 114, 195, 120, 2, 5.67631
263, 1, bw, attraction, a-b-da, 9, 3, 4, 34, 120, 195, 186, 114, 195, 120, 1, 0.902517
263, 1, bw, attraction, a-b-da, 9, 1, 4, 35, 129, 57, 60, 135, 135, 60, 2, 4.53633
263, 1, bw, attraction, a-b-da, 9, 1, 4, 35, 129, 57, 60, 135, 135, 60, 1, 1.1447
263, 1, bw, attraction, a-b-db, 14, 3, 4, 36, 111, 181, 195, 120, 120, 195, 2, 5.20033
263, 1, bw, attraction, a-b-db, 14, 3, 4, 36, 111, 181, 195, 120, 120, 195, 1, 0.814059
263, 1, bw, attraction, a-b-db, 9, 2, 4, 37, 165, 90, 90, 165, 86, 157, 2, 5.46709
263, 1, bw, attraction, a-b-db, 9, 2, 4, 37, 165, 90, 90, 165, 86, 157, 1, 1.71796
263, 1, bw, attraction, a-b-da, 14, 1, 5, 1, 60, 135, 135, 60, 125, 56, 2, 32.2452
263, 1, bw, attraction, a-b-da, 14, 1, 5, 1, 60, 135, 135, 60, 125, 56, 1, 1.67321
263, 1, bw, attraction, a-b-db, 5, 3, 5, 2, 117, 190, 195, 120, 120, 195, 2, 2.47609
263, 1, bw, attraction, a-b-db, 5, 3, 5, 2, 117, 190, 195, 120, 120, 195, 1, 1.57521
263, 1, bw, filler, NA, 999, 999, 5, 3, 129, 138, 188, 148, 96, 58, 2, 1.19727
263, 1, bw, filler, NA, 999, 999, 5, 3, 129, 138, 188, 148, 96, 58, 3, 0.516284
263, 1, bw, filler, NA, 999, 999, 5, 4, 173, 67, 112, 190, 69, 130, 2, 2.25326
263, 1, bw, filler, NA, 999, 999, 5, 4, 173, 67, 112, 190, 69, 130, 3, 1.29796
263, 1, bw, filler, NA, 999, 999, 5, 5, 167, 195, 76, 127, 87, 112, 1, 1.06759
263, 1, bw, filler, NA, 999, 999, 5, 5, 167, 195, 76, 127, 87, 112, 3, 1.47188
263, 1, bw, attraction, a-b-db, 9, 2, 5, 6, 86, 157, 90, 165, 165, 90, 2, 3.63452
263, 1, bw, attraction, a-b-db, 9, 2, 5, 6, 86, 157, 90, 165, 165, 90, 1, 0.751517
263, 1, bw, attraction, a-b-db, 2, 1, 5, 7, 60, 135, 135, 60, 59, 134, 3, 3.22311
263, 1, bw, attraction, a-b-db, 2, 1, 5, 7, 60, 135, 135, 60, 59, 134, 2, 0.94822
263, 1, bw, catch, NA, 999, 999, 5, 8, 71, 124, 179, 136, 163, 92, 2, 1.43586
263, 1, bw, catch, NA, 999, 999, 5, 8, 71, 124, 179, 136, 163, 92, 1, 0.817424
263, 1, bw, attraction, a-b-da, 9, 3, 5, 9, 195, 120, 186, 114, 120, 195, 3, 3.3823
263, 1, bw, attraction, a-b-da, 9, 3, 5, 9, 195, 120, 186, 114, 120, 195, 2, 1.32518
263, 1, bw, attraction, a-b-db, 9, 1, 5, 10, 57, 129, 135, 60, 60, 135, 2, 3.87742
263, 1, bw, attraction, a-b-db, 9, 1, 5, 10, 57, 129, 135, 60, 60, 135, 1, 0.672169
263, 1, bw, attraction, a-b-db, 9, 3, 5, 11, 114, 186, 120, 195, 195, 120, 2, 2.07515
263, 1, bw, attraction, a-b-db, 9, 3, 5, 11, 114, 186, 120, 195, 195, 120, 1, 3.11056
263, 1, bw, attraction, a-b-da, 2, 1, 5, 12, 134, 59, 60, 135, 135, 60, 2, 11.6069
263, 1, bw, attraction, a-b-da, 2, 1, 5, 12, 134, 59, 60, 135, 135, 60, 3, 3.65056
263, 1, bw, attraction, a-b-da, 14, 2, 5, 13, 153, 83, 165, 90, 90, 165, 3, 3.12538
263, 1, bw, attraction, a-b-da, 14, 2, 5, 13, 153, 83, 165, 90, 90, 165, 1, 0.718271
263, 1, bw, attraction, a-b-db, 2, 3, 5, 14, 119, 193, 195, 120, 120, 195, 2, 5.68737
263, 1, bw, attraction, a-b-db, 2, 3, 5, 14, 119, 193, 195, 120, 120, 195, 3, 2.84958
263, 1, bw, filler, NA, 999, 999, 5, 15, 72, 158, 85, 61, 132, 58, 1, 19.6926
263, 1, bw, filler, NA, 999, 999, 5, 15, 72, 158, 85, 61, 132, 58, 2, 0.946419
263, 1, bw, filler, NA, 999, 999, 5, 16, 79, 63, 81, 77, 167, 88, 3, 1.09008
263, 1, bw, filler, NA, 999, 999, 5, 16, 79, 63, 81, 77, 167, 88, 1, 0.893158
263, 1, bw, attraction, a-b-da, 5, 1, 5, 17, 132, 58, 135, 60, 60, 135, 2, 1.78277
263, 1, bw, attraction, a-b-da, 5, 1, 5, 17, 132, 58, 135, 60, 60, 135, 1, 1.06212
263, 1, bw, attraction, a-b-da, 5, 2, 5, 18, 165, 90, 90, 165, 161, 88, 2, 1.72113
263, 1, bw, attraction, a-b-da, 5, 2, 5, 18, 165, 90, 90, 165, 161, 88, 3, 0.7952
263, 1, bw, catch, NA, 999, 999, 5, 19, 161, 94, 146, 169, 66, 129, 2, 0.960848
263, 1, bw, catch, NA, 999, 999, 5, 19, 161, 94, 146, 169, 66, 129, 3, 0.849409
263, 1, bw, attraction, a-b-da, 14, 3, 5, 20, 181, 111, 195, 120, 120, 195, 2, 1.293
263, 1, bw, attraction, a-b-da, 14, 3, 5, 20, 181, 111, 195, 120, 120, 195, 1, 1.24784
263, 1, bw, attraction, a-b-db, 14, 1, 5, 21, 60, 135, 135, 60, 56, 125, 2, 1.33945
263, 1, bw, attraction, a-b-db, 14, 1, 5, 21, 60, 135, 135, 60, 56, 125, 3, 4.31635
263, 1, bw, attraction, a-b-db, 14, 2, 5, 22, 90, 165, 83, 153, 165, 90, 3, 8.64411
263, 1, bw, attraction, a-b-db, 14, 2, 5, 22, 90, 165, 83, 153, 165, 90, 1, 1.11872
263, 1, bw, attraction, a-b-db, 5, 2, 5, 23, 88, 161, 165, 90, 90, 165, 2, 7.0957
263, 1, bw, attraction, a-b-db, 5, 2, 5, 23, 88, 161, 165, 90, 90, 165, 1, 1.66474
263, 1, bw, filler, NA, 999, 999, 5, 24, 150, 177, 193, 124, 113, 120, 2, 5.49162
263, 1, bw, filler, NA, 999, 999, 5, 24, 150, 177, 193, 124, 113, 120, 3, 1.14918
263, 1, bw, filler, NA, 999, 999, 5, 25, 69, 165, 115, 131, 156, 79, 2, 5.66074
263, 1, bw, filler, NA, 999, 999, 5, 25, 69, 165, 115, 131, 156, 79, 3, 1.31152
263, 1, bw, attraction, a-b-da, 2, 2, 5, 26, 90, 165, 165, 90, 163, 89, 2, 4.67254
263, 1, bw, attraction, a-b-da, 2, 2, 5, 26, 90, 165, 165, 90, 163, 89, 3, 1.2192
263, 1, bw, filler, NA, 999, 999, 5, 27, 192, 143, 160, 59, 58, 127, 1, 1.09595
263, 1, bw, filler, NA, 999, 999, 5, 27, 192, 143, 160, 59, 58, 127, 3, 2.01891
263, 1, bw, attraction, a-b-da, 9, 1, 5, 28, 60, 135, 129, 57, 135, 60, 2, 3.47943
263, 1, bw, attraction, a-b-da, 9, 1, 5, 28, 60, 135, 129, 57, 135, 60, 3, 0.858416
263, 1, bw, attraction, a-b-db, 14, 3, 5, 29, 120, 195, 111, 181, 195, 120, 3, 1.89345
263, 1, bw, attraction, a-b-db, 14, 3, 5, 29, 120, 195, 111, 181, 195, 120, 2, 0.600072
263, 1, bw, attraction, a-b-da, 5, 3, 5, 30, 190, 117, 195, 120, 120, 195, 2, 1.26186
263, 1, bw, attraction, a-b-da, 5, 3, 5, 30, 190, 117, 195, 120, 120, 195, 3, 0.818139
263, 1, bw, catch, NA, 999, 999, 5, 31, 100, 155, 192, 123, 109, 86, 2, 0.887092
263, 1, bw, catch, NA, 999, 999, 5, 31, 100, 155, 192, 123, 109, 86, 3, 0.650824
263, 1, bw, attraction, a-b-db, 2, 2, 5, 32, 89, 163, 165, 90, 90, 165, 3, 3.62271
263, 1, bw, attraction, a-b-db, 2, 2, 5, 32, 89, 163, 165, 90, 90, 165, 1, 0.483431
263, 1, bw, attraction, a-b-da, 9, 2, 5, 33, 157, 86, 165, 90, 90, 165, 2, 1.14988
263, 1, bw, attraction, a-b-da, 9, 2, 5, 33, 157, 86, 165, 90, 90, 165, 1, 1.03875
263, 1, bw, attraction, a-b-db, 5, 1, 5, 34, 58, 132, 135, 60, 60, 135, 2, 6.07498
263, 1, bw, attraction, a-b-db, 5, 1, 5, 34, 58, 132, 135, 60, 60, 135, 1, 0.749061
263, 1, bw, attraction, a-b-da, 2, 3, 5, 35, 193, 119, 195, 120, 120, 195, 2, 1.78085
263, 1, bw, attraction, a-b-da, 2, 3, 5, 35, 193, 119, 195, 120, 120, 195, 1, 0.428311
263, 1, bw, filler, NA, 999, 999, 5, 36, 175, 166, 182, 166, 146, 71, 2, 0.920754
263, 1, bw, filler, NA, 999, 999, 5, 36, 175, 166, 182, 166, 146, 71, 3, 0.739208
263, 1, bw, filler, NA, 999, 999, 5, 37, 84, 185, 129, 120, 149, 134, 1, 3.64343
263, 1, bw, filler, NA, 999, 999, 5, 37, 84, 185, 129, 120, 149, 134, 2, 1.09565
263, 1, bw, filler, NA, 999, 999, 6, 1, 144, 157, 191, 82, 69, 88, 2, 9.96929
263, 1, bw, filler, NA, 999, 999, 6, 1, 144, 157, 191, 82, 69, 88, 3, 0.582903
263, 1, bw, attraction, a-b-db, 2, 3, 6, 2, 119, 193, 120, 195, 195, 120, 2, 9.63718
263, 1, bw, attraction, a-b-db, 2, 3, 6, 2, 119, 193, 120, 195, 195, 120, 3, 1.12012
263, 1, bw, attraction, a-b-da, 14, 2, 6, 3, 90, 165, 165, 90, 153, 83, 2, 2.51316
263, 1, bw, attraction, a-b-da, 14, 2, 6, 3, 90, 165, 165, 90, 153, 83, 3, 0.891041
263, 1, bw, attraction, a-b-db, 14, 3, 6, 4, 111, 181, 195, 120, 120, 195, 2, 4.0846
263, 1, bw, attraction, a-b-db, 14, 3, 6, 4, 111, 181, 195, 120, 120, 195, 1, 0.471286
263, 1, bw, filler, NA, 999, 999, 6, 5, 134, 131, 174, 87, 141, 102, 2, 2.90644
263, 1, bw, filler, NA, 999, 999, 6, 5, 134, 131, 174, 87, 141, 102, 3, 0.452179
263, 1, bw, attraction, a-b-da, 9, 2, 6, 6, 90, 165, 157, 86, 165, 90, 1, 25.1199
263, 1, bw, attraction, a-b-da, 9, 2, 6, 6, 90, 165, 157, 86, 165, 90, 2, 0.754817
263, 1, bw, attraction, a-b-db, 14, 1, 6, 7, 135, 60, 56, 125, 60, 135, 3, 4.9066
263, 1, bw, attraction, a-b-db, 14, 1, 6, 7, 135, 60, 56, 125, 60, 135, 1, 1.42749
263, 1, bw, attraction, a-b-db, 5, 1, 6, 8, 135, 60, 60, 135, 58, 132, 2, 5.43169
263, 1, bw, attraction, a-b-db, 5, 1, 6, 8, 135, 60, 60, 135, 58, 132, 3, 1.21212
263, 1, bw, attraction, a-b-db, 14, 2, 6, 9, 83, 153, 90, 165, 165, 90, 2, 2.44093
263, 1, bw, attraction, a-b-db, 14, 2, 6, 9, 83, 153, 90, 165, 165, 90, 1, 1.08548
263, 1, bw, attraction, a-b-db, 9, 1, 6, 10, 57, 129, 135, 60, 60, 135, 1, 10.3918
263, 1, bw, attraction, a-b-db, 9, 1, 6, 10, 57, 129, 135, 60, 60, 135, 2, 0.979831
263, 1, bw, filler, NA, 999, 999, 6, 11, 157, 104, 62, 65, 185, 122, 3, 1.23409
263, 1, bw, filler, NA, 999, 999, 6, 11, 157, 104, 62, 65, 185, 122, 2, 0.775599
263, 1, bw, attraction, a-b-da, 2, 3, 6, 12, 120, 195, 195, 120, 193, 119, 2, 1.7421
263, 1, bw, attraction, a-b-da, 2, 3, 6, 12, 120, 195, 195, 120, 193, 119, 1, 0.862849
263, 1, bw, attraction, a-b-da, 14, 1, 6, 13, 125, 56, 60, 135, 135, 60, 2, 1.91374
263, 1, bw, attraction, a-b-da, 14, 1, 6, 13, 125, 56, 60, 135, 135, 60, 1, 2.08382
263, 1, bw, filler, NA, 999, 999, 6, 14, 180, 84, 91, 154, 146, 102, 2, 1.42189
263, 1, bw, filler, NA, 999, 999, 6, 14, 180, 84, 91, 154, 146, 102, 3, 0.907355
263, 1, bw, attraction, a-b-db, 5, 2, 6, 15, 88, 161, 165, 90, 90, 165, 2, 2.81235
263, 1, bw, attraction, a-b-db, 5, 2, 6, 15, 88, 161, 165, 90, 90, 165, 3, 1.62617
263, 1, bw, attraction, a-b-db, 2, 2, 6, 16, 90, 165, 89, 163, 165, 90, 2, 0.982054
263, 1, bw, attraction, a-b-db, 2, 2, 6, 16, 90, 165, 89, 163, 165, 90, 3, 1.09392
263, 1, bw, filler, NA, 999, 999, 6, 17, 131, 156, 132, 192, 187, 92, 2, 0.935449
263, 1, bw, filler, NA, 999, 999, 6, 17, 131, 156, 132, 192, 187, 92, 1, 1.36919
263, 1, bw, attraction, a-b-db, 9, 3, 6, 18, 114, 186, 120, 195, 195, 120, 2, 0.840008
263, 1, bw, attraction, a-b-db, 9, 3, 6, 18, 114, 186, 120, 195, 195, 120, 3, 0.941068
263, 1, bw, filler, NA, 999, 999, 6, 19, 73, 62, 143, 164, 58, 68, 2, 0.892677
263, 1, bw, filler, NA, 999, 999, 6, 19, 73, 62, 143, 164, 58, 68, 3, 0.879705
263, 1, bw, catch, NA, 999, 999, 6, 20, 133, 182, 96, 159, 63, 132, 1, 1.41007
263, 1, bw, catch, NA, 999, 999, 6, 20, 133, 182, 96, 159, 63, 132, 3, 0.696343
263, 1, bw, filler, NA, 999, 999, 6, 21, 124, 146, 115, 78, 56, 73, 1, 1.33784
263, 1, bw, filler, NA, 999, 999, 6, 21, 124, 146, 115, 78, 56, 73, 3, 0.643496
263, 1, bw, attraction, a-b-da, 5, 1, 6, 22, 135, 60, 60, 135, 132, 58, 2, 3.67919
263, 1, bw, attraction, a-b-da, 5, 1, 6, 22, 135, 60, 60, 135, 132, 58, 3, 1.28999
263, 1, bw, catch, NA, 999, 999, 6, 23, 164, 151, 121, 74, 97, 158, 1, 1.61238
263, 1, bw, catch, NA, 999, 999, 6, 23, 164, 151, 121, 74, 97, 158, 2, 1.04245
263, 1, bw, attraction, a-b-da, 2, 2, 6, 24, 90, 165, 163, 89, 165, 90, 2, 3.13406
263, 1, bw, attraction, a-b-da, 2, 2, 6, 24, 90, 165, 163, 89, 165, 90, 3, 0.807014
263, 1, bw, filler, NA, 999, 999, 6, 25, 160, 114, 63, 108, 148, 157, 3, 1.45206
263, 1, bw, filler, NA, 999, 999, 6, 25, 160, 114, 63, 108, 148, 157, 2, 0.856859
263, 1, bw, attraction, a-b-da, 5, 2, 6, 26, 165, 90, 90, 165, 161, 88, 2, 1.50798
263, 1, bw, attraction, a-b-da, 5, 2, 6, 26, 165, 90, 90, 165, 161, 88, 3, 1.03007
263, 1, bw, filler, NA, 999, 999, 6, 27, 174, 113, 98, 176, 177, 162, 3, 1.13036
263, 1, bw, filler, NA, 999, 999, 6, 27, 174, 113, 98, 176, 177, 162, 1, 1.19587
263, 1, bw, attraction, a-b-da, 9, 3, 6, 28, 186, 114, 120, 195, 195, 120, 2, 1.28155
263, 1, bw, attraction, a-b-da, 9, 3, 6, 28, 186, 114, 120, 195, 195, 120, 1, 0.589065
263, 1, bw, filler, NA, 999, 999, 6, 29, 121, 81, 171, 141, 84, 188, 2, 0.955683
263, 1, bw, filler, NA, 999, 999, 6, 29, 121, 81, 171, 141, 84, 188, 1, 0.683932
263, 1, bw, attraction, a-b-db, 2, 1, 6, 30, 59, 134, 60, 135, 135, 60, 2, 3.70232
263, 1, bw, attraction, a-b-db, 2, 1, 6, 30, 59, 134, 60, 135, 135, 60, 1, 0.656374
263, 1, bw, attraction, a-b-da, 14, 3, 6, 31, 181, 111, 120, 195, 195, 120, 2, 3.22015
263, 1, bw, attraction, a-b-da, 14, 3, 6, 31, 181, 111, 120, 195, 195, 120, 1, 0.865768
263, 1, bw, catch, NA, 999, 999, 6, 32, 110, 85, 147, 108, 120, 195, 3, 9.15697
263, 1, bw, catch, NA, 999, 999, 6, 32, 110, 85, 147, 108, 120, 195, 1, 0.570515
263, 1, bw, attraction, a-b-da, 9, 1, 6, 33, 129, 57, 60, 135, 135, 60, 2, 5.36965
263, 1, bw, attraction, a-b-da, 9, 1, 6, 33, 129, 57, 60, 135, 135, 60, 1, 1.04868
263, 1, bw, attraction, a-b-db, 5, 3, 6, 34, 120, 195, 195, 120, 117, 190, 1, 4.62028
263, 1, bw, attraction, a-b-db, 5, 3, 6, 34, 120, 195, 195, 120, 117, 190, 3, 0.609465
263, 1, bw, attraction, a-b-db, 9, 2, 6, 35, 86, 157, 165, 90, 90, 165, 2, 6.68654
263, 1, bw, attraction, a-b-db, 9, 2, 6, 35, 86, 157, 165, 90, 90, 165, 1, 0.808395
263, 1, bw, attraction, a-b-da, 5, 3, 6, 36, 195, 120, 190, 117, 120, 195, 2, 16.5895
263, 1, bw, attraction, a-b-da, 5, 3, 6, 36, 195, 120, 190, 117, 120, 195, 1, 1.30416
263, 1, bw, attraction, a-b-da, 2, 1, 6, 37, 135, 60, 60, 135, 134, 59, 2, 2.9458
263, 1, bw, attraction, a-b-da, 2, 1, 6, 37, 135, 60, 60, 135, 134, 59, 1, 0.890086
263, 1, bw, filler, NA, 999, 999, 7, 1, 68, 102, 151, 109, 185, 126, 3, 1.21975
263, 1, bw, filler, NA, 999, 999, 7, 1, 68, 102, 151, 109, 185, 126, 1, 0.930377
263, 1, bw, filler, NA, 999, 999, 7, 2, 189, 119, 142, 141, 182, 93, 2, 4.78647
263, 1, bw, filler, NA, 999, 999, 7, 2, 189, 119, 142, 141, 182, 93, 3, 1.369
263, 1, bw, filler, NA, 999, 999, 7, 3, 123, 118, 111, 102, 195, 172, 3, 1.09574
263, 1, bw, filler, NA, 999, 999, 7, 3, 123, 118, 111, 102, 195, 172, 2, 2.9467
263, 1, bw, attraction, a-b-da, 9, 1, 7, 4, 60, 135, 129, 57, 135, 60, 3, 2.05793
263, 1, bw, attraction, a-b-da, 9, 1, 7, 4, 60, 135, 129, 57, 135, 60, 1, 0.557718
263, 1, bw, attraction, a-b-da, 5, 3, 7, 5, 190, 117, 195, 120, 120, 195, 2, 2.26077
263, 1, bw, attraction, a-b-da, 5, 3, 7, 5, 190, 117, 195, 120, 120, 195, 1, 0.720648
263, 1, bw, attraction, a-b-da, 5, 1, 7, 6, 135, 60, 132, 58, 60, 135, 1, 9.24972
263, 1, bw, attraction, a-b-da, 5, 1, 7, 6, 135, 60, 132, 58, 60, 135, 2, 0.860224
263, 1, bw, filler, NA, 999, 999, 7, 7, 187, 131, 134, 131, 163, 99, 1, 9.54328
263, 1, bw, filler, NA, 999, 999, 7, 7, 187, 131, 134, 131, 163, 99, 3, 0.837447
263, 1, bw, catch, NA, 999, 999, 7, 8, 133, 62, 128, 187, 92, 163, 2, 1.67383
263, 1, bw, catch, NA, 999, 999, 7, 8, 133, 62, 128, 187, 92, 163, 1, 0.701298
263, 1, bw, attraction, a-b-da, 14, 2, 7, 9, 90, 165, 165, 90, 153, 83, 2, 2.33512
263, 1, bw, attraction, a-b-da, 14, 2, 7, 9, 90, 165, 165, 90, 153, 83, 3, 1.10425
263, 1, bw, attraction, a-b-da, 2, 3, 7, 10, 195, 120, 193, 119, 120, 195, 3, 4.48179
263, 1, bw, attraction, a-b-da, 2, 3, 7, 10, 195, 120, 193, 119, 120, 195, 2, 0.532534
263, 1, bw, filler, NA, 999, 999, 7, 11, 188, 156, 106, 139, 83, 148, 1, 3.35694
263, 1, bw, filler, NA, 999, 999, 7, 11, 188, 156, 106, 139, 83, 148, 3, 0.652469
263, 1, bw, attraction, a-b-db, 5, 3, 7, 12, 195, 120, 117, 190, 120, 195, 2, 1.91233
263, 1, bw, attraction, a-b-db, 5, 3, 7, 12, 195, 120, 117, 190, 120, 195, 1, 0.682227
263, 1, bw, attraction, a-b-db, 9, 1, 7, 13, 57, 129, 60, 135, 135, 60, 3, 1.42866
263, 1, bw, attraction, a-b-db, 9, 1, 7, 13, 57, 129, 60, 135, 135, 60, 1, 0.682237
263, 1, bw, attraction, a-b-db, 5, 1, 7, 14, 135, 60, 58, 132, 60, 135, 2, 0.940549
263, 1, bw, attraction, a-b-db, 5, 1, 7, 14, 135, 60, 58, 132, 60, 135, 1, 1.37367
263, 1, bw, attraction, a-b-db, 5, 2, 7, 15, 165, 90, 88, 161, 90, 165, 2, 1.23583
263, 1, bw, attraction, a-b-db, 5, 2, 7, 15, 165, 90, 88, 161, 90, 165, 1, 0.665297
263, 1, bw, attraction, a-b-da, 14, 1, 7, 16, 60, 135, 125, 56, 135, 60, 3, 1.13249
263, 1, bw, attraction, a-b-da, 14, 1, 7, 16, 60, 135, 125, 56, 135, 60, 2, 0.52606
263, 1, bw, attraction, a-b-db, 9, 3, 7, 17, 114, 186, 195, 120, 120, 195, 2, 0.878505
263, 1, bw, attraction, a-b-db, 9, 3, 7, 17, 114, 186, 195, 120, 120, 195, 1, 0.730332
263, 1, bw, attraction, a-b-db, 2, 3, 7, 18, 119, 193, 120, 195, 195, 120, 2, 1.57856
263, 1, bw, attraction, a-b-db, 2, 3, 7, 18, 119, 193, 120, 195, 195, 120, 3, 1.706
263, 1, bw, attraction, a-b-da, 5, 2, 7, 19, 161, 88, 165, 90, 90, 165, 2, 1.83554
263, 1, bw, attraction, a-b-da, 5, 2, 7, 19, 161, 88, 165, 90, 90, 165, 3, 0.7048
263, 1, bw, filler, NA, 999, 999, 7, 20, 76, 72, 77, 112, 120, 74, 3, 4.1786
263, 1, bw, filler, NA, 999, 999, 7, 20, 76, 72, 77, 112, 120, 74, 1, 0.705323
263, 1, bw, attraction, a-b-db, 14, 1, 7, 21, 135, 60, 60, 135, 56, 125, 2, 0.827024
263, 1, bw, attraction, a-b-db, 14, 1, 7, 21, 135, 60, 60, 135, 56, 125, 3, 0.424707
263, 1, bw, attraction, a-b-da, 9, 3, 7, 22, 186, 114, 120, 195, 195, 120, 2, 0.789164
263, 1, bw, attraction, a-b-da, 9, 3, 7, 22, 186, 114, 120, 195, 195, 120, 3, 0.47646
263, 1, bw, attraction, a-b-da, 14, 3, 7, 23, 195, 120, 181, 111, 120, 195, 2, 0.670692
263, 1, bw, attraction, a-b-da, 14, 3, 7, 23, 195, 120, 181, 111, 120, 195, 1, 0.619121
263, 1, bw, attraction, a-b-db, 2, 2, 7, 24, 89, 163, 90, 165, 165, 90, 2, 0.640148
263, 1, bw, attraction, a-b-db, 2, 2, 7, 24, 89, 163, 90, 165, 165, 90, 3, 0.541445
263, 1, bw, attraction, a-b-da, 9, 2, 7, 25, 90, 165, 165, 90, 157, 86, 2, 1.32505
263, 1, bw, attraction, a-b-da, 9, 2, 7, 25, 90, 165, 165, 90, 157, 86, 3, 0.750602
263, 1, bw, filler, NA, 999, 999, 7, 26, 74, 90, 86, 80, 189, 144, 3, 0.934394
263, 1, bw, filler, NA, 999, 999, 7, 26, 74, 90, 86, 80, 189, 144, 1, 0.808048
263, 1, bw, filler, NA, 999, 999, 7, 27, 146, 173, 189, 155, 174, 119, 2, 0.981021
263, 1, bw, filler, NA, 999, 999, 7, 27, 146, 173, 189, 155, 174, 119, 3, 0.612817
263, 1, bw, attraction, a-b-da, 2, 2, 7, 28, 90, 165, 165, 90, 163, 89, 2, 1.54588
263, 1, bw, attraction, a-b-da, 2, 2, 7, 28, 90, 165, 165, 90, 163, 89, 1, 0.610618
263, 1, bw, filler, NA, 999, 999, 7, 29, 169, 176, 73, 189, 79, 162, 2, 0.703679
263, 1, bw, filler, NA, 999, 999, 7, 29, 169, 176, 73, 189, 79, 162, 3, 2.76288
263, 1, bw, attraction, a-b-db, 2, 1, 7, 30, 60, 135, 135, 60, 59, 134, 2, 2.66514
263, 1, bw, attraction, a-b-db, 2, 1, 7, 30, 60, 135, 135, 60, 59, 134, 3, 0.84513
263, 1, bw, attraction, a-b-da, 2, 1, 7, 31, 60, 135, 134, 59, 135, 60, 2, 2.44864
263, 1, bw, attraction, a-b-da, 2, 1, 7, 31, 60, 135, 134, 59, 135, 60, 3, 0.845312
263, 1, bw, attraction, a-b-db, 14, 2, 7, 32, 83, 153, 165, 90, 90, 165, 2, 0.993056
263, 1, bw, attraction, a-b-db, 14, 2, 7, 32, 83, 153, 165, 90, 90, 165, 3, 1.13594
263, 1, bw, filler, NA, 999, 999, 7, 33, 193, 83, 173, 173, 98, 150, 2, 1.12014
263, 1, bw, filler, NA, 999, 999, 7, 33, 193, 83, 173, 173, 98, 150, 3, 1.12255
263, 1, bw, catch, NA, 999, 999, 7, 34, 100, 95, 157, 158, 115, 140, 2, 1.4434
263, 1, bw, catch, NA, 999, 999, 7, 34, 100, 95, 157, 158, 115, 140, 1, 0.760226
263, 1, bw, attraction, a-b-db, 14, 3, 7, 35, 111, 181, 195, 120, 120, 195, 3, 2.6553
263, 1, bw, attraction, a-b-db, 14, 3, 7, 35, 111, 181, 195, 120, 120, 195, 1, 0.563012
263, 1, bw, attraction, a-b-db, 9, 2, 7, 36, 165, 90, 86, 157, 90, 165, 1, 1.71414
263, 1, bw, attraction, a-b-db, 9, 2, 7, 36, 165, 90, 86, 157, 90, 165, 2, 1.50034
263, 1, bw, catch, NA, 999, 999, 7, 37, 129, 186, 74, 121, 108, 147, 1, 1.26167
263, 1, bw, catch, NA, 999, 999, 7, 37, 129, 186, 74, 121, 108, 147, 2, 0.617957
263, 1, bw, filler, NA, 999, 999, 8, 1, 122, 65, 64, 88, 124, 57, 1, 1.62322
263, 1, bw, filler, NA, 999, 999, 8, 1, 122, 65, 64, 88, 124, 57, 2, 0.468538
263, 1, bw, attraction, a-b-db, 9, 3, 8, 2, 195, 120, 114, 186, 120, 195, 1, 3.07159
263, 1, bw, attraction, a-b-db, 9, 3, 8, 2, 195, 120, 114, 186, 120, 195, 2, 0.859376
263, 1, bw, filler, NA, 999, 999, 8, 3, 133, 139, 152, 97, 144, 132, 1, 7.27842
263, 1, bw, filler, NA, 999, 999, 8, 3, 133, 139, 152, 97, 144, 132, 2, 0.799979
263, 1, bw, filler, NA, 999, 999, 8, 4, 149, 94, 170, 178, 144, 131, 2, 1.18972
263, 1, bw, filler, NA, 999, 999, 8, 4, 149, 94, 170, 178, 144, 131, 1, 0.556744
263, 1, bw, filler, NA, 999, 999, 8, 5, 186, 74, 133, 178, 168, 98, 2, 4.45981
263, 1, bw, filler, NA, 999, 999, 8, 5, 186, 74, 133, 178, 168, 98, 1, 0.711074
263, 1, bw, filler, NA, 999, 999, 8, 6, 180, 63, 67, 145, 93, 86, 1, 3.43214
263, 1, bw, filler, NA, 999, 999, 8, 6, 180, 63, 67, 145, 93, 86, 3, 1.437
263, 1, bw, attraction, a-b-da, 5, 1, 8, 7, 135, 60, 60, 135, 132, 58, 2, 1.9051
263, 1, bw, attraction, a-b-da, 5, 1, 8, 7, 135, 60, 60, 135, 132, 58, 3, 0.491156
263, 1, bw, attraction, a-b-db, 5, 2, 8, 8, 165, 90, 88, 161, 90, 165, 2, 4.63696
263, 1, bw, attraction, a-b-db, 5, 2, 8, 8, 165, 90, 88, 161, 90, 165, 3, 0.48143
263, 1, bw, attraction, a-b-da, 9, 3, 8, 9, 195, 120, 120, 195, 186, 114, 2, 2.64401
263, 1, bw, attraction, a-b-da, 9, 3, 8, 9, 195, 120, 120, 195, 186, 114, 3, 0.768494
263, 1, bw, catch, NA, 999, 999, 8, 10, 90, 165, 75, 120, 189, 126, 3, 1.91946
263, 1, bw, catch, NA, 999, 999, 8, 10, 90, 165, 75, 120, 189, 126, 2, 0.689684
263, 1, bw, attraction, a-b-da, 9, 2, 8, 11, 165, 90, 157, 86, 90, 165, 2, 3.54798
263, 1, bw, attraction, a-b-da, 9, 2, 8, 11, 165, 90, 157, 86, 90, 165, 1, 0.620096
263, 1, bw, filler, NA, 999, 999, 8, 12, 124, 99, 135, 57, 141, 163, 3, 1.75325
263, 1, bw, filler, NA, 999, 999, 8, 12, 124, 99, 135, 57, 141, 163, 2, 1.13798
263, 1, bw, catch, NA, 999, 999, 8, 13, 183, 132, 118, 77, 145, 110, 1, 1.61008
263, 1, bw, catch, NA, 999, 999, 8, 13, 183, 132, 118, 77, 145, 110, 2, 0.688428
263, 1, bw, attraction, a-b-da, 5, 3, 8, 14, 190, 117, 120, 195, 195, 120, 2, 2.0987
263, 1, bw, attraction, a-b-da, 5, 3, 8, 14, 190, 117, 120, 195, 195, 120, 1, 0.573461
263, 1, bw, attraction, a-b-da, 14, 1, 8, 15, 135, 60, 125, 56, 60, 135, 1, 2.37177
263, 1, bw, attraction, a-b-da, 14, 1, 8, 15, 135, 60, 125, 56, 60, 135, 2, 0.54776
263, 1, bw, filler, NA, 999, 999, 8, 16, 132, 164, 63, 66, 60, 81, 1, 1.24354
263, 1, bw, filler, NA, 999, 999, 8, 16, 132, 164, 63, 66, 60, 81, 2, 0.952509
263, 1, bw, attraction, a-b-da, 2, 1, 8, 17, 135, 60, 134, 59, 60, 135, 2, 2.72802
263, 1, bw, attraction, a-b-da, 2, 1, 8, 17, 135, 60, 134, 59, 60, 135, 1, 0.633069
263, 1, bw, catch, NA, 999, 999, 8, 18, 124, 131, 130, 185, 116, 79, 2, 1.37376
263, 1, bw, catch, NA, 999, 999, 8, 18, 124, 131, 130, 185, 116, 79, 3, 0.773226
263, 1, bw, attraction, a-b-da, 14, 2, 8, 19, 153, 83, 90, 165, 165, 90, 3, 3.54017
263, 1, bw, attraction, a-b-da, 14, 2, 8, 19, 153, 83, 90, 165, 165, 90, 2, 0.780289
263, 1, bw, attraction, a-b-db, 9, 1, 8, 20, 135, 60, 57, 129, 60, 135, 3, 6.29073
263, 1, bw, attraction, a-b-db, 9, 1, 8, 20, 135, 60, 57, 129, 60, 135, 1, 1.02005
263, 1, bw, attraction, a-b-db, 5, 3, 8, 21, 195, 120, 117, 190, 120, 195, 2, 2.60109
263, 1, bw, attraction, a-b-db, 5, 3, 8, 21, 195, 120, 117, 190, 120, 195, 1, 0.655454
263, 1, bw, attraction, a-b-da, 5, 2, 8, 22, 161, 88, 90, 165, 165, 90, 2, 4.35515
263, 1, bw, attraction, a-b-da, 5, 2, 8, 22, 161, 88, 90, 165, 165, 90, 1, 1.53122
263, 1, bw, filler, NA, 999, 999, 8, 23, 67, 149, 142, 194, 60, 74, 2, 1.36339
263, 1, bw, filler, NA, 999, 999, 8, 23, 67, 149, 142, 194, 60, 74, 3, 0.651659
263, 1, bw, attraction, a-b-db, 5, 1, 8, 24, 58, 132, 60, 135, 135, 60, 3, 4.45537
263, 1, bw, attraction, a-b-db, 5, 1, 8, 24, 58, 132, 60, 135, 135, 60, 1, 2.57047
263, 1, bw, attraction, a-b-db, 14, 3, 8, 25, 120, 195, 111, 181, 195, 120, 1, 2.65692
263, 1, bw, attraction, a-b-db, 14, 3, 8, 25, 120, 195, 111, 181, 195, 120, 3, 0.732942
263, 1, bw, attraction, a-b-da, 9, 1, 8, 26, 135, 60, 60, 135, 129, 57, 1, 1.93324
263, 1, bw, attraction, a-b-da, 9, 1, 8, 26, 135, 60, 60, 135, 129, 57, 3, 0.5586
263, 1, bw, attraction, a-b-db, 2, 3, 8, 27, 120, 195, 195, 120, 119, 193, 1, 5.40555
263, 1, bw, attraction, a-b-db, 2, 3, 8, 27, 120, 195, 195, 120, 119, 193, 2, 0.370501
263, 1, bw, attraction, a-b-db, 14, 2, 8, 28, 83, 153, 90, 165, 165, 90, 2, 9.20979
263, 1, bw, attraction, a-b-db, 14, 2, 8, 28, 83, 153, 90, 165, 165, 90, 1, 0.74149
263, 1, bw, attraction, a-b-db, 2, 1, 8, 29, 135, 60, 60, 135, 59, 134, 2, 4.66116
263, 1, bw, attraction, a-b-db, 2, 1, 8, 29, 135, 60, 60, 135, 59, 134, 3, 1.32034
263, 1, bw, attraction, a-b-db, 2, 2, 8, 30, 90, 165, 89, 163, 165, 90, 2, 4.41721
263, 1, bw, attraction, a-b-db, 2, 2, 8, 30, 90, 165, 89, 163, 165, 90, 1, 2.15864
263, 1, bw, attraction, a-b-da, 2, 2, 8, 31, 90, 165, 163, 89, 165, 90, 2, 2.62918
263, 1, bw, attraction, a-b-da, 2, 2, 8, 31, 90, 165, 163, 89, 165, 90, 3, 0.666214
263, 1, bw, attraction, a-b-db, 14, 1, 8, 32, 60, 135, 56, 125, 135, 60, 2, 2.75731
263, 1, bw, attraction, a-b-db, 14, 1, 8, 32, 60, 135, 56, 125, 135, 60, 1, 1.29313
263, 1, bw, filler, NA, 999, 999, 8, 33, 153, 83, 111, 190, 108, 99, 2, 2.30275
263, 1, bw, filler, NA, 999, 999, 8, 33, 153, 83, 111, 190, 108, 99, 1, 1.05727
263, 1, bw, attraction, a-b-db, 9, 2, 8, 34, 90, 165, 165, 90, 86, 157, 2, 5.45231
263, 1, bw, attraction, a-b-db, 9, 2, 8, 34, 90, 165, 165, 90, 86, 157, 3, 0.519786
263, 1, bw, attraction, a-b-da, 2, 3, 8, 35, 195, 120, 193, 119, 120, 195, 3, 7.05697
263, 1, bw, attraction, a-b-da, 2, 3, 8, 35, 195, 120, 193, 119, 120, 195, 1, 0.683318
263, 1, bw, filler, NA, 999, 999, 8, 36, 95, 67, 152, 124, 132, 150, 2, 5.49378
263, 1, bw, filler, NA, 999, 999, 8, 36, 95, 67, 152, 124, 132, 150, 1, 0.775426
263, 1, bw, attraction, a-b-da, 14, 3, 8, 37, 181, 111, 120, 195, 195, 120, 2, 8.48567
263, 1, bw, attraction, a-b-da, 14, 3, 8, 37, 181, 111, 120, 195, 195, 120, 1, 0.494971
