sub_n, computer_n, bw_cond, effect, set, distance, diag, block_n, trial_n, h1, w1, h2, w2, h3, w3, choice, rt 
244, 1, wb, practice, NA, 999, 999, 0, 1, 81, 104, 75, 128, 191, 134, 1, 4.21099
244, 1, wb, practice, NA, 999, 999, 0, 1, 81, 104, 75, 128, 191, 134, 3, 1.79124
244, 1, wb, practice, NA, 999, 999, 0, 2, 85, 89, 67, 96, 191, 77, 2, 2.156
244, 1, wb, practice, NA, 999, 999, 0, 2, 85, 89, 67, 96, 191, 77, 3, 2.11438
244, 1, wb, practice, NA, 999, 999, 0, 3, 181, 79, 130, 158, 146, 57, 3, 2.32012
244, 1, wb, practice, NA, 999, 999, 0, 3, 181, 79, 130, 158, 146, 57, 2, 1.57982
244, 1, wb, attraction, a-b-db, 14, 2, 1, 1, 165, 90, 90, 165, 83, 153, 3, 2.17934
244, 1, wb, attraction, a-b-db, 14, 2, 1, 1, 165, 90, 90, 165, 83, 153, 1, 1.93062
244, 1, wb, attraction, a-b-db, 2, 2, 1, 2, 165, 90, 89, 163, 90, 165, 3, 2.30662
244, 1, wb, attraction, a-b-db, 2, 2, 1, 2, 165, 90, 89, 163, 90, 165, 2, 1.74838
244, 1, wb, attraction, a-b-db, 9, 2, 1, 3, 90, 165, 165, 90, 86, 157, 3, 1.90779
244, 1, wb, attraction, a-b-db, 9, 2, 1, 3, 90, 165, 165, 90, 86, 157, 1, 1.12579
244, 1, wb, attraction, a-b-da, 5, 1, 1, 4, 135, 60, 132, 58, 60, 135, 1, 1.7901
244, 1, wb, attraction, a-b-da, 5, 1, 1, 4, 135, 60, 132, 58, 60, 135, 3, 1.1809
244, 1, wb, attraction, a-b-da, 14, 2, 1, 5, 153, 83, 165, 90, 90, 165, 1, 1.61912
244, 1, wb, attraction, a-b-da, 14, 2, 1, 5, 153, 83, 165, 90, 90, 165, 3, 1.04923
244, 1, wb, filler, NA, 999, 999, 1, 6, 138, 132, 156, 149, 87, 79, 3, 1.26088
244, 1, wb, filler, NA, 999, 999, 1, 6, 138, 132, 156, 149, 87, 79, 2, 0.913123
244, 1, wb, attraction, a-b-db, 9, 1, 1, 7, 60, 135, 135, 60, 57, 129, 3, 2.3462
244, 1, wb, attraction, a-b-db, 9, 1, 1, 7, 60, 135, 135, 60, 57, 129, 1, 1.55468
244, 1, wb, filler, NA, 999, 999, 1, 8, 177, 143, 120, 150, 98, 144, 3, 1.45017
244, 1, wb, filler, NA, 999, 999, 1, 8, 177, 143, 120, 150, 98, 144, 1, 0.839004
244, 1, wb, attraction, a-b-da, 5, 2, 1, 9, 165, 90, 161, 88, 90, 165, 1, 1.85132
244, 1, wb, attraction, a-b-da, 5, 2, 1, 9, 165, 90, 161, 88, 90, 165, 3, 0.896014
244, 1, wb, attraction, a-b-db, 9, 3, 1, 10, 195, 120, 120, 195, 114, 186, 3, 1.69769
244, 1, wb, attraction, a-b-db, 9, 3, 1, 10, 195, 120, 120, 195, 114, 186, 1, 1.07662
244, 1, wb, attraction, a-b-da, 9, 2, 1, 11, 165, 90, 157, 86, 90, 165, 2, 1.91886
244, 1, wb, attraction, a-b-da, 9, 2, 1, 11, 165, 90, 157, 86, 90, 165, 3, 1.01677
244, 1, wb, attraction, a-b-db, 5, 1, 1, 12, 60, 135, 135, 60, 58, 132, 2, 2.22185
244, 1, wb, attraction, a-b-db, 5, 1, 1, 12, 60, 135, 135, 60, 58, 132, 1, 1.01119
244, 1, wb, attraction, a-b-da, 2, 1, 1, 13, 60, 135, 135, 60, 134, 59, 1, 1.20803
244, 1, wb, attraction, a-b-da, 2, 1, 1, 13, 60, 135, 135, 60, 134, 59, 2, 2.48637
244, 1, wb, attraction, a-b-da, 2, 2, 1, 14, 165, 90, 163, 89, 90, 165, 2, 2.05613
244, 1, wb, attraction, a-b-da, 2, 2, 1, 14, 165, 90, 163, 89, 90, 165, 3, 0.820148
244, 1, wb, attraction, a-b-db, 2, 3, 1, 15, 119, 193, 120, 195, 195, 120, 3, 2.02511
244, 1, wb, attraction, a-b-db, 2, 3, 1, 15, 119, 193, 120, 195, 195, 120, 1, 1.11846
244, 1, wb, attraction, a-b-da, 9, 3, 1, 16, 186, 114, 120, 195, 195, 120, 1, 1.72741
244, 1, wb, attraction, a-b-da, 9, 3, 1, 16, 186, 114, 120, 195, 195, 120, 2, 0.896923
244, 1, wb, attraction, a-b-db, 5, 2, 1, 17, 88, 161, 165, 90, 90, 165, 1, 2.24257
244, 1, wb, attraction, a-b-db, 5, 2, 1, 17, 88, 161, 165, 90, 90, 165, 3, 1.22306
244, 1, wb, attraction, a-b-da, 14, 3, 1, 18, 195, 120, 120, 195, 181, 111, 3, 1.87592
244, 1, wb, attraction, a-b-da, 14, 3, 1, 18, 195, 120, 120, 195, 181, 111, 2, 2.50337
244, 1, wb, catch, NA, 999, 999, 1, 19, 186, 129, 134, 61, 132, 123, 2, 1.57641
244, 1, wb, catch, NA, 999, 999, 1, 19, 186, 129, 134, 61, 132, 123, 1, 0.824145
244, 1, wb, attraction, a-b-da, 5, 3, 1, 20, 195, 120, 120, 195, 190, 117, 3, 2.71631
244, 1, wb, attraction, a-b-da, 5, 3, 1, 20, 195, 120, 120, 195, 190, 117, 2, 1.3182
244, 1, wb, attraction, a-b-db, 14, 1, 1, 21, 135, 60, 60, 135, 56, 125, 3, 2.51095
244, 1, wb, attraction, a-b-db, 14, 1, 1, 21, 135, 60, 60, 135, 56, 125, 2, 0.864887
244, 1, wb, filler, NA, 999, 999, 1, 22, 120, 107, 93, 105, 165, 108, 2, 1.35588
244, 1, wb, filler, NA, 999, 999, 1, 22, 120, 107, 93, 105, 165, 108, 3, 0.844087
244, 1, wb, filler, NA, 999, 999, 1, 23, 70, 165, 164, 173, 151, 131, 1, 1.27972
244, 1, wb, filler, NA, 999, 999, 1, 23, 70, 165, 164, 173, 151, 131, 2, 1.19538
244, 1, wb, attraction, a-b-da, 9, 1, 1, 24, 135, 60, 60, 135, 129, 57, 3, 1.72892
244, 1, wb, attraction, a-b-da, 9, 1, 1, 24, 135, 60, 60, 135, 129, 57, 1, 1.01027
244, 1, wb, attraction, a-b-da, 14, 1, 1, 25, 60, 135, 125, 56, 135, 60, 2, 1.15922
244, 1, wb, attraction, a-b-da, 14, 1, 1, 25, 60, 135, 125, 56, 135, 60, 1, 0.799713
244, 1, wb, filler, NA, 999, 999, 1, 26, 134, 169, 134, 183, 80, 82, 3, 1.0292
244, 1, wb, filler, NA, 999, 999, 1, 26, 134, 169, 134, 183, 80, 82, 2, 0.883009
244, 1, wb, filler, NA, 999, 999, 1, 27, 155, 119, 117, 165, 107, 164, 1, 0.997249
244, 1, wb, filler, NA, 999, 999, 1, 27, 155, 119, 117, 165, 107, 164, 2, 0.572358
244, 1, wb, catch, NA, 999, 999, 1, 28, 113, 142, 192, 123, 80, 115, 3, 0.731455
244, 1, wb, catch, NA, 999, 999, 1, 28, 113, 142, 192, 123, 80, 115, 2, 0.621032
244, 1, wb, attraction, a-b-da, 2, 3, 1, 29, 120, 195, 193, 119, 195, 120, 1, 1.4021
244, 1, wb, attraction, a-b-da, 2, 3, 1, 29, 120, 195, 193, 119, 195, 120, 3, 1.26511
244, 1, wb, filler, NA, 999, 999, 1, 30, 63, 152, 137, 158, 72, 122, 1, 1.07599
244, 1, wb, filler, NA, 999, 999, 1, 30, 63, 152, 137, 158, 72, 122, 2, 0.6796
244, 1, wb, filler, NA, 999, 999, 1, 31, 121, 170, 98, 143, 159, 63, 3, 2.60992
244, 1, wb, filler, NA, 999, 999, 1, 31, 121, 170, 98, 143, 159, 63, 1, 0.951982
244, 1, wb, catch, NA, 999, 999, 1, 32, 138, 117, 187, 128, 93, 102, 3, 1.03941
244, 1, wb, catch, NA, 999, 999, 1, 32, 138, 117, 187, 128, 93, 102, 2, 0.876448
244, 1, wb, attraction, a-b-db, 14, 3, 1, 33, 111, 181, 120, 195, 195, 120, 1, 1.11869
244, 1, wb, attraction, a-b-db, 14, 3, 1, 33, 111, 181, 120, 195, 195, 120, 3, 0.976966
244, 1, wb, attraction, a-b-db, 5, 3, 1, 34, 120, 195, 195, 120, 117, 190, 2, 2.75121
244, 1, wb, attraction, a-b-db, 5, 3, 1, 34, 120, 195, 195, 120, 117, 190, 1, 0.887754
244, 1, wb, filler, NA, 999, 999, 1, 35, 77, 143, 158, 121, 138, 148, 1, 1.09025
244, 1, wb, filler, NA, 999, 999, 1, 35, 77, 143, 158, 121, 138, 148, 3, 0.637119
244, 1, wb, attraction, a-b-db, 2, 1, 1, 36, 60, 135, 59, 134, 135, 60, 2, 2.96158
244, 1, wb, attraction, a-b-db, 2, 1, 1, 36, 60, 135, 59, 134, 135, 60, 3, 0.545278
244, 1, wb, filler, NA, 999, 999, 1, 37, 120, 190, 126, 129, 134, 84, 3, 3.39303
244, 1, wb, filler, NA, 999, 999, 1, 37, 120, 190, 126, 129, 134, 84, 1, 0.615244
244, 1, wb, attraction, a-b-db, 9, 2, 2, 1, 86, 157, 90, 165, 165, 90, 3, 2.79625
244, 1, wb, attraction, a-b-db, 9, 2, 2, 1, 86, 157, 90, 165, 165, 90, 2, 1.0747
244, 1, wb, attraction, a-b-db, 2, 3, 2, 2, 195, 120, 119, 193, 120, 195, 1, 5.00521
244, 1, wb, attraction, a-b-db, 2, 3, 2, 2, 195, 120, 119, 193, 120, 195, 2, 0.818781
244, 1, wb, attraction, a-b-da, 2, 3, 2, 3, 195, 120, 120, 195, 193, 119, 1, 1.65578
244, 1, wb, attraction, a-b-da, 2, 3, 2, 3, 195, 120, 120, 195, 193, 119, 3, 1.27593
244, 1, wb, filler, NA, 999, 999, 2, 4, 130, 119, 189, 172, 178, 124, 1, 0.806009
244, 1, wb, filler, NA, 999, 999, 2, 4, 130, 119, 189, 172, 178, 124, 2, 0.564559
244, 1, wb, catch, NA, 999, 999, 2, 5, 161, 154, 157, 98, 109, 86, 3, 0.827659
244, 1, wb, catch, NA, 999, 999, 2, 5, 161, 154, 157, 98, 109, 86, 1, 0.449417
244, 1, wb, attraction, a-b-db, 14, 1, 2, 6, 56, 125, 60, 135, 135, 60, 1, 2.16498
244, 1, wb, attraction, a-b-db, 14, 1, 2, 6, 56, 125, 60, 135, 135, 60, 2, 0.701135
244, 1, wb, filler, NA, 999, 999, 2, 7, 98, 179, 93, 173, 115, 63, 3, 1.25472
244, 1, wb, filler, NA, 999, 999, 2, 7, 98, 179, 93, 173, 115, 63, 1, 1.34772
244, 1, wb, attraction, a-b-db, 14, 3, 2, 8, 120, 195, 111, 181, 195, 120, 2, 1.31528
244, 1, wb, attraction, a-b-db, 14, 3, 2, 8, 120, 195, 111, 181, 195, 120, 1, 0.589376
244, 1, wb, attraction, a-b-da, 2, 2, 2, 9, 165, 90, 90, 165, 163, 89, 2, 1.12453
244, 1, wb, attraction, a-b-da, 2, 2, 2, 9, 165, 90, 90, 165, 163, 89, 3, 0.853477
244, 1, wb, attraction, a-b-da, 14, 1, 2, 10, 60, 135, 135, 60, 125, 56, 1, 1.18523
244, 1, wb, attraction, a-b-da, 14, 1, 2, 10, 60, 135, 135, 60, 125, 56, 2, 0.616803
244, 1, wb, attraction, a-b-db, 14, 2, 2, 11, 165, 90, 90, 165, 83, 153, 3, 1.26188
244, 1, wb, attraction, a-b-db, 14, 2, 2, 11, 165, 90, 90, 165, 83, 153, 2, 0.738169
244, 1, wb, filler, NA, 999, 999, 2, 12, 110, 179, 184, 131, 138, 157, 1, 1.26651
244, 1, wb, filler, NA, 999, 999, 2, 12, 110, 179, 184, 131, 138, 157, 3, 0.64667
244, 1, wb, filler, NA, 999, 999, 2, 13, 64, 78, 121, 60, 119, 88, 1, 0.78651
244, 1, wb, filler, NA, 999, 999, 2, 13, 64, 78, 121, 60, 119, 88, 3, 0.674231
244, 1, wb, filler, NA, 999, 999, 2, 14, 171, 172, 116, 152, 166, 88, 3, 0.892586
244, 1, wb, filler, NA, 999, 999, 2, 14, 171, 172, 116, 152, 166, 88, 1, 0.735528
244, 1, wb, attraction, a-b-db, 5, 1, 2, 15, 60, 135, 135, 60, 58, 132, 1, 1.04801
244, 1, wb, attraction, a-b-db, 5, 1, 2, 15, 60, 135, 135, 60, 58, 132, 3, 2.13312
244, 1, wb, attraction, a-b-db, 5, 2, 2, 16, 88, 161, 165, 90, 90, 165, 2, 2.01285
244, 1, wb, attraction, a-b-db, 5, 2, 2, 16, 88, 161, 165, 90, 90, 165, 3, 0.59503
244, 1, wb, catch, NA, 999, 999, 2, 17, 122, 193, 162, 93, 101, 94, 3, 1.28062
244, 1, wb, catch, NA, 999, 999, 2, 17, 122, 193, 162, 93, 101, 94, 1, 0.452273
244, 1, wb, attraction, a-b-da, 9, 1, 2, 18, 60, 135, 129, 57, 135, 60, 1, 1.14414
244, 1, wb, attraction, a-b-da, 9, 1, 2, 18, 60, 135, 129, 57, 135, 60, 3, 0.697041
244, 1, wb, filler, NA, 999, 999, 2, 19, 78, 117, 194, 157, 148, 189, 1, 0.962658
244, 1, wb, filler, NA, 999, 999, 2, 19, 78, 117, 194, 157, 148, 189, 3, 0.403209
244, 1, wb, attraction, a-b-db, 2, 2, 2, 20, 90, 165, 165, 90, 89, 163, 1, 1.04903
244, 1, wb, attraction, a-b-db, 2, 2, 2, 20, 90, 165, 165, 90, 89, 163, 2, 0.413914
244, 1, wb, attraction, a-b-da, 14, 2, 2, 21, 90, 165, 165, 90, 153, 83, 3, 1.49907
244, 1, wb, attraction, a-b-da, 14, 2, 2, 21, 90, 165, 165, 90, 153, 83, 1, 0.453851
244, 1, wb, filler, NA, 999, 999, 2, 22, 104, 80, 83, 194, 157, 119, 1, 1.18552
244, 1, wb, filler, NA, 999, 999, 2, 22, 104, 80, 83, 194, 157, 119, 3, 1.06543
244, 1, wb, attraction, a-b-da, 2, 1, 2, 23, 60, 135, 134, 59, 135, 60, 2, 2.03614
244, 1, wb, attraction, a-b-da, 2, 1, 2, 23, 60, 135, 134, 59, 135, 60, 1, 0.593542
244, 1, wb, attraction, a-b-da, 14, 3, 2, 24, 181, 111, 195, 120, 120, 195, 1, 2.98326
244, 1, wb, attraction, a-b-da, 14, 3, 2, 24, 181, 111, 195, 120, 120, 195, 3, 0.614458
244, 1, wb, attraction, a-b-db, 9, 3, 2, 25, 120, 195, 195, 120, 114, 186, 3, 2.33142
244, 1, wb, attraction, a-b-db, 9, 3, 2, 25, 120, 195, 195, 120, 114, 186, 2, 1.0446
244, 1, wb, attraction, a-b-db, 2, 1, 2, 26, 60, 135, 135, 60, 59, 134, 1, 5.06441
244, 1, wb, attraction, a-b-db, 2, 1, 2, 26, 60, 135, 135, 60, 59, 134, 2, 0.755353
244, 1, wb, attraction, a-b-da, 9, 3, 2, 27, 186, 114, 120, 195, 195, 120, 1, 8.25914
244, 1, wb, attraction, a-b-da, 9, 3, 2, 27, 186, 114, 120, 195, 195, 120, 2, 0.509093
244, 1, wb, attraction, a-b-db, 9, 1, 2, 28, 60, 135, 135, 60, 57, 129, 3, 1.95818
244, 1, wb, attraction, a-b-db, 9, 1, 2, 28, 60, 135, 135, 60, 57, 129, 2, 0.550172
244, 1, wb, attraction, a-b-da, 5, 1, 2, 29, 135, 60, 132, 58, 60, 135, 1, 1.67805
244, 1, wb, attraction, a-b-da, 5, 1, 2, 29, 135, 60, 132, 58, 60, 135, 3, 1.48957
244, 1, wb, filler, NA, 999, 999, 2, 30, 105, 79, 134, 91, 180, 68, 1, 2.43555
244, 1, wb, filler, NA, 999, 999, 2, 30, 105, 79, 134, 91, 180, 68, 2, 2.92094
244, 1, wb, filler, NA, 999, 999, 2, 31, 106, 82, 189, 163, 71, 118, 1, 1.27333
244, 1, wb, filler, NA, 999, 999, 2, 31, 106, 82, 189, 163, 71, 118, 2, 0.716758
244, 1, wb, attraction, a-b-db, 5, 3, 2, 32, 195, 120, 117, 190, 120, 195, 1, 3.10983
244, 1, wb, attraction, a-b-db, 5, 3, 2, 32, 195, 120, 117, 190, 120, 195, 2, 0.607477
244, 1, wb, attraction, a-b-da, 5, 2, 2, 33, 165, 90, 90, 165, 161, 88, 1, 1.62848
244, 1, wb, attraction, a-b-da, 5, 2, 2, 33, 165, 90, 90, 165, 161, 88, 2, 0.80998
244, 1, wb, attraction, a-b-da, 5, 3, 2, 34, 120, 195, 195, 120, 190, 117, 3, 3.29498
244, 1, wb, attraction, a-b-da, 5, 3, 2, 34, 120, 195, 195, 120, 190, 117, 1, 1.20137
244, 1, wb, catch, NA, 999, 999, 2, 35, 116, 79, 128, 127, 155, 160, 1, 1.50293
244, 1, wb, catch, NA, 999, 999, 2, 35, 116, 79, 128, 127, 155, 160, 3, 0.673716
244, 1, wb, attraction, a-b-da, 9, 2, 2, 36, 90, 165, 157, 86, 165, 90, 3, 2.12422
244, 1, wb, attraction, a-b-da, 9, 2, 2, 36, 90, 165, 157, 86, 165, 90, 1, 0.725531
244, 1, wb, filler, NA, 999, 999, 2, 37, 131, 70, 137, 163, 151, 178, 1, 1.38179
244, 1, wb, filler, NA, 999, 999, 2, 37, 131, 70, 137, 163, 151, 178, 3, 1.4695
244, 1, wb, catch, NA, 999, 999, 3, 1, 127, 68, 90, 165, 149, 166, 1, 0.944138
244, 1, wb, catch, NA, 999, 999, 3, 1, 127, 68, 90, 165, 149, 166, 3, 0.929112
244, 1, wb, filler, NA, 999, 999, 3, 2, 184, 79, 120, 96, 151, 86, 3, 3.29749
244, 1, wb, filler, NA, 999, 999, 3, 2, 184, 79, 120, 96, 151, 86, 2, 1.26779
244, 1, wb, attraction, a-b-db, 2, 3, 3, 3, 119, 193, 120, 195, 195, 120, 3, 1.72661
244, 1, wb, attraction, a-b-db, 2, 3, 3, 3, 119, 193, 120, 195, 195, 120, 1, 0.880088
244, 1, wb, filler, NA, 999, 999, 3, 4, 162, 106, 166, 61, 180, 133, 2, 0.938597
244, 1, wb, filler, NA, 999, 999, 3, 4, 162, 106, 166, 61, 180, 133, 3, 0.739409
244, 1, wb, attraction, a-b-db, 5, 3, 3, 5, 195, 120, 117, 190, 120, 195, 1, 3.13981
244, 1, wb, attraction, a-b-db, 5, 3, 3, 5, 195, 120, 117, 190, 120, 195, 3, 0.43618
244, 1, wb, attraction, a-b-da, 14, 2, 3, 6, 165, 90, 90, 165, 153, 83, 3, 1.1686
244, 1, wb, attraction, a-b-da, 14, 2, 3, 6, 165, 90, 90, 165, 153, 83, 1, 0.672787
244, 1, wb, attraction, a-b-db, 9, 1, 3, 7, 60, 135, 57, 129, 135, 60, 2, 2.17995
244, 1, wb, attraction, a-b-db, 9, 1, 3, 7, 60, 135, 57, 129, 135, 60, 3, 0.707187
244, 1, wb, filler, NA, 999, 999, 3, 8, 181, 109, 140, 165, 93, 146, 3, 1.02023
244, 1, wb, filler, NA, 999, 999, 3, 8, 181, 109, 140, 165, 93, 146, 2, 1.17076
244, 1, wb, attraction, a-b-da, 5, 3, 3, 9, 190, 117, 120, 195, 195, 120, 2, 4.28948
244, 1, wb, attraction, a-b-da, 5, 3, 3, 9, 190, 117, 120, 195, 195, 120, 1, 0.803434
244, 1, wb, attraction, a-b-da, 9, 3, 3, 10, 120, 195, 195, 120, 186, 114, 3, 1.32112
244, 1, wb, attraction, a-b-da, 9, 3, 3, 10, 120, 195, 195, 120, 186, 114, 2, 1.0107
244, 1, wb, filler, NA, 999, 999, 3, 11, 71, 165, 105, 87, 167, 165, 2, 1.05569
244, 1, wb, filler, NA, 999, 999, 3, 11, 71, 165, 105, 87, 167, 165, 3, 0.500011
244, 1, wb, attraction, a-b-da, 2, 1, 3, 12, 60, 135, 135, 60, 134, 59, 3, 1.34978
244, 1, wb, attraction, a-b-da, 2, 1, 3, 12, 60, 135, 135, 60, 134, 59, 2, 0.646676
244, 1, wb, attraction, a-b-da, 5, 2, 3, 13, 90, 165, 161, 88, 165, 90, 3, 3.33045
244, 1, wb, attraction, a-b-da, 5, 2, 3, 13, 90, 165, 161, 88, 165, 90, 2, 0.747365
244, 1, wb, filler, NA, 999, 999, 3, 14, 132, 165, 98, 67, 63, 94, 3, 0.979033
244, 1, wb, filler, NA, 999, 999, 3, 14, 132, 165, 98, 67, 63, 94, 1, 1.19472
244, 1, wb, filler, NA, 999, 999, 3, 15, 182, 70, 143, 96, 159, 100, 1, 1.25624
244, 1, wb, filler, NA, 999, 999, 3, 15, 182, 70, 143, 96, 159, 100, 2, 0.76459
244, 1, wb, attraction, a-b-db, 2, 2, 3, 16, 165, 90, 89, 163, 90, 165, 1, 1.85947
244, 1, wb, attraction, a-b-db, 2, 2, 3, 16, 165, 90, 89, 163, 90, 165, 3, 2.96771
244, 1, wb, filler, NA, 999, 999, 3, 17, 161, 122, 132, 159, 130, 121, 3, 1.33393
244, 1, wb, filler, NA, 999, 999, 3, 17, 161, 122, 132, 159, 130, 121, 1, 0.959525
244, 1, wb, attraction, a-b-db, 14, 3, 3, 18, 195, 120, 120, 195, 111, 181, 3, 2.19863
244, 1, wb, attraction, a-b-db, 14, 3, 3, 18, 195, 120, 120, 195, 111, 181, 2, 0.749079
244, 1, wb, filler, NA, 999, 999, 3, 19, 62, 105, 85, 126, 133, 145, 1, 0.852874
244, 1, wb, filler, NA, 999, 999, 3, 19, 62, 105, 85, 126, 133, 145, 3, 0.761976
244, 1, wb, attraction, a-b-da, 5, 1, 3, 20, 60, 135, 132, 58, 135, 60, 3, 0.977034
244, 1, wb, attraction, a-b-da, 5, 1, 3, 20, 60, 135, 132, 58, 135, 60, 1, 0.656585
244, 1, wb, attraction, a-b-db, 14, 1, 3, 21, 60, 135, 135, 60, 56, 125, 3, 1.38834
244, 1, wb, attraction, a-b-db, 14, 1, 3, 21, 60, 135, 135, 60, 56, 125, 1, 0.499149
244, 1, wb, attraction, a-b-db, 5, 2, 3, 22, 165, 90, 88, 161, 90, 165, 3, 1.32499
244, 1, wb, attraction, a-b-db, 5, 2, 3, 22, 165, 90, 88, 161, 90, 165, 2, 0.942501
244, 1, wb, catch, NA, 999, 999, 3, 23, 192, 123, 76, 119, 159, 96, 2, 0.830149
244, 1, wb, catch, NA, 999, 999, 3, 23, 192, 123, 76, 119, 159, 96, 1, 0.523869
244, 1, wb, attraction, a-b-db, 9, 3, 3, 24, 120, 195, 114, 186, 195, 120, 2, 1.59638
244, 1, wb, attraction, a-b-db, 9, 3, 3, 24, 120, 195, 114, 186, 195, 120, 3, 0.563147
244, 1, wb, filler, NA, 999, 999, 3, 25, 190, 76, 170, 162, 194, 184, 1, 1.10625
244, 1, wb, filler, NA, 999, 999, 3, 25, 190, 76, 170, 162, 194, 184, 3, 0.428541
244, 1, wb, filler, NA, 999, 999, 3, 26, 181, 147, 183, 112, 110, 180, 3, 0.888954
244, 1, wb, filler, NA, 999, 999, 3, 26, 181, 147, 183, 112, 110, 180, 1, 0.460068
244, 1, wb, attraction, a-b-da, 9, 1, 3, 27, 135, 60, 129, 57, 60, 135, 2, 1.26311
244, 1, wb, attraction, a-b-da, 9, 1, 3, 27, 135, 60, 129, 57, 60, 135, 1, 0.747437
244, 1, wb, attraction, a-b-db, 2, 1, 3, 28, 135, 60, 60, 135, 59, 134, 3, 1.03511
244, 1, wb, attraction, a-b-db, 2, 1, 3, 28, 135, 60, 60, 135, 59, 134, 2, 0.848781
244, 1, wb, attraction, a-b-db, 9, 2, 3, 29, 86, 157, 90, 165, 165, 90, 1, 3.90836
244, 1, wb, attraction, a-b-db, 9, 2, 3, 29, 86, 157, 90, 165, 165, 90, 3, 0.597949
244, 1, wb, attraction, a-b-da, 2, 2, 3, 30, 163, 89, 165, 90, 90, 165, 2, 1.52363
244, 1, wb, attraction, a-b-da, 2, 2, 3, 30, 163, 89, 165, 90, 90, 165, 3, 0.8852
244, 1, wb, attraction, a-b-db, 5, 1, 3, 31, 135, 60, 60, 135, 58, 132, 3, 1.56759
244, 1, wb, attraction, a-b-db, 5, 1, 3, 31, 135, 60, 60, 135, 58, 132, 2, 1.33566
244, 1, wb, attraction, a-b-db, 14, 2, 3, 32, 165, 90, 90, 165, 83, 153, 3, 1.19178
244, 1, wb, attraction, a-b-db, 14, 2, 3, 32, 165, 90, 90, 165, 83, 153, 1, 1.02268
244, 1, wb, attraction, a-b-da, 14, 3, 3, 33, 120, 195, 181, 111, 195, 120, 2, 1.36389
244, 1, wb, attraction, a-b-da, 14, 3, 3, 33, 120, 195, 181, 111, 195, 120, 3, 0.651924
244, 1, wb, attraction, a-b-da, 9, 2, 3, 34, 90, 165, 165, 90, 157, 86, 3, 1.71176
244, 1, wb, attraction, a-b-da, 9, 2, 3, 34, 90, 165, 165, 90, 157, 86, 1, 0.473683
244, 1, wb, attraction, a-b-da, 14, 1, 3, 35, 135, 60, 60, 135, 125, 56, 3, 1.9881
244, 1, wb, attraction, a-b-da, 14, 1, 3, 35, 135, 60, 60, 135, 125, 56, 1, 0.651525
244, 1, wb, catch, NA, 999, 999, 3, 36, 167, 148, 151, 104, 64, 131, 3, 0.903213
244, 1, wb, catch, NA, 999, 999, 3, 36, 167, 148, 151, 104, 64, 131, 1, 0.514271
244, 1, wb, attraction, a-b-da, 2, 3, 3, 37, 193, 119, 195, 120, 120, 195, 1, 2.01143
244, 1, wb, attraction, a-b-da, 2, 3, 3, 37, 193, 119, 195, 120, 120, 195, 3, 1.80936
244, 1, wb, attraction, a-b-db, 14, 3, 4, 1, 120, 195, 111, 181, 195, 120, 2, 2.25413
244, 1, wb, attraction, a-b-db, 14, 3, 4, 1, 120, 195, 111, 181, 195, 120, 1, 1.22692
244, 1, wb, attraction, a-b-da, 9, 3, 4, 2, 195, 120, 120, 195, 186, 114, 3, 6.51098
244, 1, wb, attraction, a-b-da, 9, 3, 4, 2, 195, 120, 120, 195, 186, 114, 2, 0.567553
244, 1, wb, filler, NA, 999, 999, 4, 3, 143, 126, 103, 108, 100, 146, 2, 1.06267
244, 1, wb, filler, NA, 999, 999, 4, 3, 143, 126, 103, 108, 100, 146, 1, 0.714994
244, 1, wb, filler, NA, 999, 999, 4, 4, 121, 83, 139, 192, 190, 135, 1, 1.01194
244, 1, wb, filler, NA, 999, 999, 4, 4, 121, 83, 139, 192, 190, 135, 2, 1.63451
244, 1, wb, attraction, a-b-da, 14, 3, 4, 5, 120, 195, 195, 120, 181, 111, 3, 0.806469
244, 1, wb, attraction, a-b-da, 14, 3, 4, 5, 120, 195, 195, 120, 181, 111, 2, 0.700916
244, 1, wb, attraction, a-b-db, 2, 1, 4, 6, 59, 134, 60, 135, 135, 60, 3, 1.09456
244, 1, wb, attraction, a-b-db, 2, 1, 4, 6, 59, 134, 60, 135, 135, 60, 2, 0.513616
244, 1, wb, filler, NA, 999, 999, 4, 7, 191, 159, 136, 123, 80, 194, 3, 0.818772
244, 1, wb, filler, NA, 999, 999, 4, 7, 191, 159, 136, 123, 80, 194, 1, 0.489052
244, 1, wb, attraction, a-b-da, 5, 1, 4, 8, 60, 135, 135, 60, 132, 58, 3, 0.707562
244, 1, wb, attraction, a-b-da, 5, 1, 4, 8, 60, 135, 135, 60, 132, 58, 1, 0.421932
244, 1, wb, catch, NA, 999, 999, 4, 9, 79, 116, 109, 146, 175, 140, 1, 0.899078
244, 1, wb, catch, NA, 999, 999, 4, 9, 79, 116, 109, 146, 175, 140, 3, 0.894043
244, 1, wb, catch, NA, 999, 999, 4, 10, 153, 102, 173, 142, 84, 111, 3, 0.911864
244, 1, wb, catch, NA, 999, 999, 4, 10, 153, 102, 173, 142, 84, 111, 2, 1.18608
244, 1, wb, attraction, a-b-db, 9, 3, 4, 11, 195, 120, 114, 186, 120, 195, 1, 1.32826
244, 1, wb, attraction, a-b-db, 9, 3, 4, 11, 195, 120, 114, 186, 120, 195, 3, 0.425817
244, 1, wb, attraction, a-b-db, 2, 2, 4, 12, 89, 163, 90, 165, 165, 90, 3, 0.694303
244, 1, wb, attraction, a-b-db, 2, 2, 4, 12, 89, 163, 90, 165, 165, 90, 2, 0.545393
244, 1, wb, attraction, a-b-db, 9, 1, 4, 13, 135, 60, 60, 135, 57, 129, 1, 1.61721
244, 1, wb, attraction, a-b-db, 9, 1, 4, 13, 135, 60, 60, 135, 57, 129, 3, 0.511329
244, 1, wb, attraction, a-b-da, 5, 2, 4, 14, 161, 88, 90, 165, 165, 90, 1, 0.960455
244, 1, wb, attraction, a-b-da, 5, 2, 4, 14, 161, 88, 90, 165, 165, 90, 2, 1.62494
244, 1, wb, attraction, a-b-db, 5, 3, 4, 15, 120, 195, 195, 120, 117, 190, 1, 1.14088
244, 1, wb, attraction, a-b-db, 5, 3, 4, 15, 120, 195, 195, 120, 117, 190, 3, 0.893813
244, 1, wb, attraction, a-b-da, 9, 1, 4, 16, 129, 57, 60, 135, 135, 60, 1, 0.991442
244, 1, wb, attraction, a-b-da, 9, 1, 4, 16, 129, 57, 60, 135, 135, 60, 2, 0.486608
244, 1, wb, filler, NA, 999, 999, 4, 17, 151, 87, 189, 97, 64, 98, 3, 0.673061
244, 1, wb, filler, NA, 999, 999, 4, 17, 151, 87, 189, 97, 64, 98, 2, 0.428699
244, 1, wb, attraction, a-b-da, 2, 1, 4, 18, 135, 60, 134, 59, 60, 135, 1, 0.673165
244, 1, wb, attraction, a-b-da, 2, 1, 4, 18, 135, 60, 134, 59, 60, 135, 3, 0.500913
244, 1, wb, filler, NA, 999, 999, 4, 19, 148, 56, 88, 74, 60, 169, 2, 1.10276
244, 1, wb, filler, NA, 999, 999, 4, 19, 148, 56, 88, 74, 60, 169, 3, 1.30569
244, 1, wb, filler, NA, 999, 999, 4, 20, 122, 124, 171, 68, 175, 56, 3, 1.25926
244, 1, wb, filler, NA, 999, 999, 4, 20, 122, 124, 171, 68, 175, 56, 1, 0.519497
244, 1, wb, attraction, a-b-da, 14, 2, 4, 21, 165, 90, 90, 165, 153, 83, 3, 2.01667
244, 1, wb, attraction, a-b-da, 14, 2, 4, 21, 165, 90, 90, 165, 153, 83, 2, 0.934699
244, 1, wb, filler, NA, 999, 999, 4, 22, 82, 184, 142, 135, 137, 162, 1, 1.32706
244, 1, wb, filler, NA, 999, 999, 4, 22, 82, 184, 142, 135, 137, 162, 3, 0.872478
244, 1, wb, attraction, a-b-db, 14, 1, 4, 23, 56, 125, 60, 135, 135, 60, 3, 1.40362
244, 1, wb, attraction, a-b-db, 14, 1, 4, 23, 56, 125, 60, 135, 135, 60, 2, 1.47441
244, 1, wb, attraction, a-b-da, 2, 2, 4, 24, 90, 165, 163, 89, 165, 90, 1, 1.22855
244, 1, wb, attraction, a-b-da, 2, 2, 4, 24, 90, 165, 163, 89, 165, 90, 2, 1.4981
244, 1, wb, attraction, a-b-db, 5, 1, 4, 25, 58, 132, 135, 60, 60, 135, 3, 1.65162
244, 1, wb, attraction, a-b-db, 5, 1, 4, 25, 58, 132, 135, 60, 60, 135, 2, 1.06438
244, 1, wb, filler, NA, 999, 999, 4, 26, 151, 192, 142, 167, 99, 125, 3, 0.907244
244, 1, wb, filler, NA, 999, 999, 4, 26, 151, 192, 142, 167, 99, 125, 1, 0.501716
244, 1, wb, attraction, a-b-db, 5, 2, 4, 27, 165, 90, 88, 161, 90, 165, 1, 1.07958
244, 1, wb, attraction, a-b-db, 5, 2, 4, 27, 165, 90, 88, 161, 90, 165, 3, 1.17908
244, 1, wb, attraction, a-b-db, 2, 3, 4, 28, 120, 195, 195, 120, 119, 193, 2, 2.52928
244, 1, wb, attraction, a-b-db, 2, 3, 4, 28, 120, 195, 195, 120, 119, 193, 3, 1.02655
244, 1, wb, attraction, a-b-db, 9, 2, 4, 29, 90, 165, 86, 157, 165, 90, 1, 1.12672
244, 1, wb, attraction, a-b-db, 9, 2, 4, 29, 90, 165, 86, 157, 165, 90, 2, 1.42442
244, 1, wb, catch, NA, 999, 999, 4, 30, 169, 146, 158, 97, 118, 77, 3, 0.908549
244, 1, wb, catch, NA, 999, 999, 4, 30, 169, 146, 158, 97, 118, 77, 1, 0.567047
244, 1, wb, filler, NA, 999, 999, 4, 31, 118, 122, 182, 143, 79, 98, 3, 0.71014
244, 1, wb, filler, NA, 999, 999, 4, 31, 118, 122, 182, 143, 79, 98, 2, 0.400422
244, 1, wb, attraction, a-b-da, 5, 3, 4, 32, 120, 195, 195, 120, 190, 117, 1, 2.09428
244, 1, wb, attraction, a-b-da, 5, 3, 4, 32, 120, 195, 195, 120, 190, 117, 3, 1.14503
244, 1, wb, attraction, a-b-da, 2, 3, 4, 33, 120, 195, 193, 119, 195, 120, 2, 1.30453
244, 1, wb, attraction, a-b-da, 2, 3, 4, 33, 120, 195, 193, 119, 195, 120, 1, 0.778759
244, 1, wb, filler, NA, 999, 999, 4, 34, 120, 113, 72, 122, 151, 84, 2, 0.649125
244, 1, wb, filler, NA, 999, 999, 4, 34, 120, 113, 72, 122, 151, 84, 1, 2.06241
244, 1, wb, attraction, a-b-da, 9, 2, 4, 35, 157, 86, 165, 90, 90, 165, 1, 1.64882
244, 1, wb, attraction, a-b-da, 9, 2, 4, 35, 157, 86, 165, 90, 90, 165, 3, 0.573614
244, 1, wb, attraction, a-b-da, 14, 1, 4, 36, 125, 56, 60, 135, 135, 60, 1, 1.63611
244, 1, wb, attraction, a-b-da, 14, 1, 4, 36, 125, 56, 60, 135, 135, 60, 3, 1.11359
244, 1, wb, attraction, a-b-db, 14, 2, 4, 37, 83, 153, 165, 90, 90, 165, 1, 2.40244
244, 1, wb, attraction, a-b-db, 14, 2, 4, 37, 83, 153, 165, 90, 90, 165, 3, 0.433001
244, 1, wb, filler, NA, 999, 999, 5, 1, 187, 147, 155, 137, 67, 179, 3, 2.73207
244, 1, wb, filler, NA, 999, 999, 5, 1, 187, 147, 155, 137, 67, 179, 1, 0.749221
244, 1, wb, attraction, a-b-db, 9, 2, 5, 2, 86, 157, 90, 165, 165, 90, 1, 0.852934
244, 1, wb, attraction, a-b-db, 9, 2, 5, 2, 86, 157, 90, 165, 165, 90, 2, 0.762082
244, 1, wb, attraction, a-b-db, 5, 2, 5, 3, 88, 161, 90, 165, 165, 90, 3, 1.94493
244, 1, wb, attraction, a-b-db, 5, 2, 5, 3, 88, 161, 90, 165, 165, 90, 2, 0.513659
244, 1, wb, catch, NA, 999, 999, 5, 4, 157, 98, 159, 156, 64, 131, 3, 1.51491
244, 1, wb, catch, NA, 999, 999, 5, 4, 157, 98, 159, 156, 64, 131, 2, 0.549114
244, 1, wb, attraction, a-b-db, 9, 1, 5, 5, 135, 60, 60, 135, 57, 129, 1, 2.10889
244, 1, wb, attraction, a-b-db, 9, 1, 5, 5, 135, 60, 60, 135, 57, 129, 2, 0.662869
244, 1, wb, filler, NA, 999, 999, 5, 6, 75, 70, 179, 125, 195, 132, 1, 0.802032
244, 1, wb, filler, NA, 999, 999, 5, 6, 75, 70, 179, 125, 195, 132, 3, 0.888878
244, 1, wb, attraction, a-b-da, 9, 1, 5, 7, 60, 135, 135, 60, 129, 57, 3, 0.811355
244, 1, wb, attraction, a-b-da, 9, 1, 5, 7, 60, 135, 135, 60, 129, 57, 2, 0.497593
244, 1, wb, attraction, a-b-db, 14, 3, 5, 8, 195, 120, 120, 195, 111, 181, 3, 1.2834
244, 1, wb, attraction, a-b-db, 14, 3, 5, 8, 195, 120, 120, 195, 111, 181, 2, 0.639006
244, 1, wb, filler, NA, 999, 999, 5, 9, 168, 77, 125, 177, 164, 61, 3, 0.835284
244, 1, wb, filler, NA, 999, 999, 5, 9, 168, 77, 125, 177, 164, 61, 2, 0.49722
244, 1, wb, attraction, a-b-db, 14, 2, 5, 10, 90, 165, 165, 90, 83, 153, 1, 0.826777
244, 1, wb, attraction, a-b-db, 14, 2, 5, 10, 90, 165, 165, 90, 83, 153, 3, 0.400628
244, 1, wb, attraction, a-b-da, 2, 3, 5, 11, 120, 195, 193, 119, 195, 120, 2, 1.61444
244, 1, wb, attraction, a-b-da, 2, 3, 5, 11, 120, 195, 193, 119, 195, 120, 3, 0.71644
244, 1, wb, attraction, a-b-da, 5, 2, 5, 12, 165, 90, 90, 165, 161, 88, 3, 1.75765
244, 1, wb, attraction, a-b-da, 5, 2, 5, 12, 165, 90, 90, 165, 161, 88, 2, 0.565635
244, 1, wb, attraction, a-b-da, 5, 1, 5, 13, 135, 60, 132, 58, 60, 135, 1, 1.38879
244, 1, wb, attraction, a-b-da, 5, 1, 5, 13, 135, 60, 132, 58, 60, 135, 3, 0.563599
244, 1, wb, catch, NA, 999, 999, 5, 14, 128, 67, 157, 98, 158, 157, 1, 0.826762
244, 1, wb, catch, NA, 999, 999, 5, 14, 128, 67, 157, 98, 158, 157, 3, 0.440509
244, 1, wb, filler, NA, 999, 999, 5, 15, 125, 101, 194, 165, 117, 103, 3, 2.05243
244, 1, wb, filler, NA, 999, 999, 5, 15, 125, 101, 194, 165, 117, 103, 2, 0.336895
244, 1, wb, attraction, a-b-db, 2, 2, 5, 16, 89, 163, 90, 165, 165, 90, 3, 2.20938
244, 1, wb, attraction, a-b-db, 2, 2, 5, 16, 89, 163, 90, 165, 165, 90, 2, 0.455338
244, 1, wb, attraction, a-b-db, 14, 1, 5, 17, 60, 135, 56, 125, 135, 60, 1, 1.22718
244, 1, wb, attraction, a-b-db, 14, 1, 5, 17, 60, 135, 56, 125, 135, 60, 2, 1.21681
244, 1, wb, attraction, a-b-db, 2, 1, 5, 18, 59, 134, 135, 60, 60, 135, 2, 1.96557
244, 1, wb, attraction, a-b-db, 2, 1, 5, 18, 59, 134, 135, 60, 60, 135, 3, 0.421732
244, 1, wb, attraction, a-b-db, 9, 3, 5, 19, 114, 186, 195, 120, 120, 195, 1, 1.41877
244, 1, wb, attraction, a-b-db, 9, 3, 5, 19, 114, 186, 195, 120, 120, 195, 3, 0.88902
244, 1, wb, attraction, a-b-da, 14, 3, 5, 20, 120, 195, 181, 111, 195, 120, 2, 2.28333
244, 1, wb, attraction, a-b-da, 14, 3, 5, 20, 120, 195, 181, 111, 195, 120, 1, 0.846645
244, 1, wb, filler, NA, 999, 999, 5, 21, 74, 113, 95, 114, 140, 111, 1, 0.898287
244, 1, wb, filler, NA, 999, 999, 5, 21, 74, 113, 95, 114, 140, 111, 3, 0.54929
244, 1, wb, attraction, a-b-da, 14, 1, 5, 22, 135, 60, 125, 56, 60, 135, 2, 1.64501
244, 1, wb, attraction, a-b-da, 14, 1, 5, 22, 135, 60, 125, 56, 60, 135, 3, 0.641886
244, 1, wb, attraction, a-b-da, 2, 1, 5, 23, 60, 135, 134, 59, 135, 60, 2, 1.70958
244, 1, wb, attraction, a-b-da, 2, 1, 5, 23, 60, 135, 134, 59, 135, 60, 3, 0.615826
244, 1, wb, attraction, a-b-da, 2, 2, 5, 24, 90, 165, 165, 90, 163, 89, 3, 1.4769
244, 1, wb, attraction, a-b-da, 2, 2, 5, 24, 90, 165, 165, 90, 163, 89, 1, 0.440256
244, 1, wb, attraction, a-b-da, 14, 2, 5, 25, 165, 90, 90, 165, 153, 83, 3, 1.1322
244, 1, wb, attraction, a-b-da, 14, 2, 5, 25, 165, 90, 90, 165, 153, 83, 2, 0.557812
244, 1, wb, filler, NA, 999, 999, 5, 26, 118, 163, 194, 89, 73, 109, 3, 0.844825
244, 1, wb, filler, NA, 999, 999, 5, 26, 118, 163, 194, 89, 73, 109, 1, 0.393923
244, 1, wb, filler, NA, 999, 999, 5, 27, 178, 180, 69, 143, 69, 174, 2, 0.847608
244, 1, wb, filler, NA, 999, 999, 5, 27, 178, 180, 69, 143, 69, 174, 1, 0.420687
244, 1, wb, attraction, a-b-da, 9, 3, 5, 28, 120, 195, 186, 114, 195, 120, 2, 1.6579
244, 1, wb, attraction, a-b-da, 9, 3, 5, 28, 120, 195, 186, 114, 195, 120, 1, 0.501993
244, 1, wb, attraction, a-b-db, 5, 1, 5, 29, 135, 60, 58, 132, 60, 135, 1, 2.024
244, 1, wb, attraction, a-b-db, 5, 1, 5, 29, 135, 60, 58, 132, 60, 135, 2, 0.949263
244, 1, wb, attraction, a-b-db, 2, 3, 5, 30, 195, 120, 119, 193, 120, 195, 1, 2.69278
244, 1, wb, attraction, a-b-db, 2, 3, 5, 30, 195, 120, 119, 193, 120, 195, 2, 0.879361
244, 1, wb, filler, NA, 999, 999, 5, 31, 159, 71, 136, 165, 121, 112, 1, 0.849549
244, 1, wb, filler, NA, 999, 999, 5, 31, 159, 71, 136, 165, 121, 112, 2, 2.37457
244, 1, wb, filler, NA, 999, 999, 5, 32, 120, 111, 100, 109, 135, 102, 2, 1.34042
244, 1, wb, filler, NA, 999, 999, 5, 32, 120, 111, 100, 109, 135, 102, 3, 0.613428
244, 1, wb, filler, NA, 999, 999, 5, 33, 162, 167, 158, 104, 108, 176, 2, 1.46657
244, 1, wb, filler, NA, 999, 999, 5, 33, 162, 167, 158, 104, 108, 176, 1, 0.470625
244, 1, wb, attraction, a-b-db, 5, 3, 5, 34, 117, 190, 120, 195, 195, 120, 2, 3.69788
244, 1, wb, attraction, a-b-db, 5, 3, 5, 34, 117, 190, 120, 195, 195, 120, 3, 0.563996
244, 1, wb, attraction, a-b-da, 5, 3, 5, 35, 195, 120, 190, 117, 120, 195, 2, 1.12364
244, 1, wb, attraction, a-b-da, 5, 3, 5, 35, 195, 120, 190, 117, 120, 195, 3, 0.644634
244, 1, wb, attraction, a-b-da, 9, 2, 5, 36, 165, 90, 90, 165, 157, 86, 3, 3.4324
244, 1, wb, attraction, a-b-da, 9, 2, 5, 36, 165, 90, 90, 165, 157, 86, 2, 0.445415
244, 1, wb, catch, NA, 999, 999, 5, 37, 136, 119, 97, 98, 152, 163, 2, 0.865077
244, 1, wb, catch, NA, 999, 999, 5, 37, 136, 119, 97, 98, 152, 163, 3, 1.09355
244, 1, wb, filler, NA, 999, 999, 6, 1, 75, 125, 56, 93, 119, 102, 2, 0.799092
244, 1, wb, filler, NA, 999, 999, 6, 1, 75, 125, 56, 93, 119, 102, 3, 0.694125
244, 1, wb, attraction, a-b-db, 2, 2, 6, 2, 89, 163, 90, 165, 165, 90, 2, 2.0079
244, 1, wb, attraction, a-b-db, 2, 2, 6, 2, 89, 163, 90, 165, 165, 90, 1, 0.693775
244, 1, wb, filler, NA, 999, 999, 6, 3, 104, 180, 70, 143, 193, 56, 2, 2.07963
244, 1, wb, filler, NA, 999, 999, 6, 3, 104, 180, 70, 143, 193, 56, 1, 1.04279
244, 1, wb, attraction, a-b-db, 9, 1, 6, 4, 135, 60, 60, 135, 57, 129, 3, 2.67855
244, 1, wb, attraction, a-b-db, 9, 1, 6, 4, 135, 60, 60, 135, 57, 129, 1, 0.617776
244, 1, wb, filler, NA, 999, 999, 6, 5, 132, 119, 170, 162, 72, 104, 3, 0.878695
244, 1, wb, filler, NA, 999, 999, 6, 5, 132, 119, 170, 162, 72, 104, 2, 0.54657
244, 1, wb, attraction, a-b-db, 5, 2, 6, 6, 88, 161, 165, 90, 90, 165, 1, 4.3221
244, 1, wb, attraction, a-b-db, 5, 2, 6, 6, 88, 161, 165, 90, 90, 165, 2, 1.15554
244, 1, wb, catch, NA, 999, 999, 6, 7, 140, 115, 72, 123, 134, 181, 2, 0.827027
244, 1, wb, catch, NA, 999, 999, 6, 7, 140, 115, 72, 123, 134, 181, 3, 0.520748
244, 1, wb, filler, NA, 999, 999, 6, 8, 147, 114, 95, 166, 89, 75, 3, 0.641986
244, 1, wb, filler, NA, 999, 999, 6, 8, 147, 114, 95, 166, 89, 75, 1, 0.575076
244, 1, wb, attraction, a-b-da, 9, 3, 6, 9, 195, 120, 120, 195, 186, 114, 2, 1.37343
244, 1, wb, attraction, a-b-da, 9, 3, 6, 9, 195, 120, 120, 195, 186, 114, 1, 0.66092
244, 1, wb, filler, NA, 999, 999, 6, 10, 69, 174, 101, 75, 137, 118, 2, 0.688029
244, 1, wb, filler, NA, 999, 999, 6, 10, 69, 174, 101, 75, 137, 118, 3, 1.18798
244, 1, wb, attraction, a-b-da, 5, 3, 6, 11, 195, 120, 190, 117, 120, 195, 2, 1.09812
244, 1, wb, attraction, a-b-da, 5, 3, 6, 11, 195, 120, 190, 117, 120, 195, 3, 0.636946
244, 1, wb, filler, NA, 999, 999, 6, 12, 150, 65, 185, 137, 184, 75, 1, 0.777322
244, 1, wb, filler, NA, 999, 999, 6, 12, 150, 65, 185, 137, 184, 75, 2, 0.457163
244, 1, wb, filler, NA, 999, 999, 6, 13, 85, 64, 68, 152, 116, 87, 1, 1.20434
244, 1, wb, filler, NA, 999, 999, 6, 13, 85, 64, 68, 152, 116, 87, 3, 0.659115
244, 1, wb, filler, NA, 999, 999, 6, 14, 182, 167, 166, 56, 189, 131, 2, 0.934211
244, 1, wb, filler, NA, 999, 999, 6, 14, 182, 167, 166, 56, 189, 131, 1, 0.639963
244, 1, wb, filler, NA, 999, 999, 6, 15, 90, 69, 67, 160, 145, 171, 1, 0.971645
244, 1, wb, filler, NA, 999, 999, 6, 15, 90, 69, 67, 160, 145, 171, 3, 0.403283
244, 1, wb, attraction, a-b-db, 9, 3, 6, 16, 114, 186, 195, 120, 120, 195, 1, 1.9131
244, 1, wb, attraction, a-b-db, 9, 3, 6, 16, 114, 186, 195, 120, 120, 195, 3, 0.683271
244, 1, wb, attraction, a-b-db, 14, 1, 6, 17, 56, 125, 135, 60, 60, 135, 1, 1.30978
244, 1, wb, attraction, a-b-db, 14, 1, 6, 17, 56, 125, 135, 60, 60, 135, 2, 0.655786
244, 1, wb, attraction, a-b-da, 9, 1, 6, 18, 60, 135, 135, 60, 129, 57, 3, 1.84353
244, 1, wb, attraction, a-b-da, 9, 1, 6, 18, 60, 135, 135, 60, 129, 57, 2, 0.624377
244, 1, wb, catch, NA, 999, 999, 6, 19, 103, 92, 155, 100, 153, 162, 1, 0.876725
244, 1, wb, catch, NA, 999, 999, 6, 19, 103, 92, 155, 100, 153, 162, 3, 0.568484
244, 1, wb, attraction, a-b-db, 5, 3, 6, 20, 195, 120, 120, 195, 117, 190, 3, 1.4796
244, 1, wb, attraction, a-b-db, 5, 3, 6, 20, 195, 120, 120, 195, 117, 190, 2, 1.01893
244, 1, wb, attraction, a-b-da, 2, 2, 6, 21, 90, 165, 163, 89, 165, 90, 2, 2.77611
244, 1, wb, attraction, a-b-da, 2, 2, 6, 21, 90, 165, 163, 89, 165, 90, 1, 0.503026
244, 1, wb, attraction, a-b-db, 2, 1, 6, 22, 60, 135, 135, 60, 59, 134, 2, 2.36111
244, 1, wb, attraction, a-b-db, 2, 1, 6, 22, 60, 135, 135, 60, 59, 134, 1, 1.00082
244, 1, wb, attraction, a-b-da, 14, 1, 6, 23, 125, 56, 60, 135, 135, 60, 2, 1.31852
244, 1, wb, attraction, a-b-da, 14, 1, 6, 23, 125, 56, 60, 135, 135, 60, 3, 0.94468
244, 1, wb, filler, NA, 999, 999, 6, 24, 169, 75, 167, 116, 116, 178, 1, 1.36028
244, 1, wb, filler, NA, 999, 999, 6, 24, 169, 75, 167, 116, 116, 178, 2, 0.976504
244, 1, wb, attraction, a-b-db, 2, 3, 6, 25, 195, 120, 120, 195, 119, 193, 1, 3.95889
244, 1, wb, attraction, a-b-db, 2, 3, 6, 25, 195, 120, 120, 195, 119, 193, 2, 1.1342
244, 1, wb, attraction, a-b-da, 9, 2, 6, 26, 90, 165, 165, 90, 157, 86, 2, 2.10245
244, 1, wb, attraction, a-b-da, 9, 2, 6, 26, 90, 165, 165, 90, 157, 86, 1, 1.03316
244, 1, wb, attraction, a-b-db, 5, 1, 6, 27, 135, 60, 58, 132, 60, 135, 2, 0.877458
244, 1, wb, attraction, a-b-db, 5, 1, 6, 27, 135, 60, 58, 132, 60, 135, 1, 0.657018
244, 1, wb, attraction, a-b-da, 5, 1, 6, 28, 60, 135, 132, 58, 135, 60, 2, 0.884112
244, 1, wb, attraction, a-b-da, 5, 1, 6, 28, 60, 135, 132, 58, 135, 60, 3, 0.607861
244, 1, wb, attraction, a-b-da, 5, 2, 6, 29, 90, 165, 161, 88, 165, 90, 2, 0.988874
244, 1, wb, attraction, a-b-da, 5, 2, 6, 29, 90, 165, 161, 88, 165, 90, 3, 0.644013
244, 1, wb, catch, NA, 999, 999, 6, 30, 176, 139, 101, 154, 109, 86, 3, 0.895844
244, 1, wb, catch, NA, 999, 999, 6, 30, 176, 139, 101, 154, 109, 86, 1, 0.538733
244, 1, wb, attraction, a-b-da, 14, 2, 6, 31, 165, 90, 153, 83, 90, 165, 2, 0.835205
244, 1, wb, attraction, a-b-da, 14, 2, 6, 31, 165, 90, 153, 83, 90, 165, 3, 1.38488
244, 1, wb, attraction, a-b-da, 14, 3, 6, 32, 181, 111, 120, 195, 195, 120, 1, 2.63914
244, 1, wb, attraction, a-b-da, 14, 3, 6, 32, 181, 111, 120, 195, 195, 120, 3, 0.73957
244, 1, wb, attraction, a-b-da, 2, 3, 6, 33, 193, 119, 195, 120, 120, 195, 2, 1.57182
244, 1, wb, attraction, a-b-da, 2, 3, 6, 33, 193, 119, 195, 120, 120, 195, 1, 0.811498
244, 1, wb, attraction, a-b-da, 2, 1, 6, 34, 135, 60, 60, 135, 134, 59, 3, 2.04841
244, 1, wb, attraction, a-b-da, 2, 1, 6, 34, 135, 60, 60, 135, 134, 59, 2, 0.812994
244, 1, wb, attraction, a-b-db, 9, 2, 6, 35, 90, 165, 86, 157, 165, 90, 1, 1.14609
244, 1, wb, attraction, a-b-db, 9, 2, 6, 35, 90, 165, 86, 157, 165, 90, 2, 0.474985
244, 1, wb, attraction, a-b-db, 14, 3, 6, 36, 120, 195, 111, 181, 195, 120, 3, 2.10955
244, 1, wb, attraction, a-b-db, 14, 3, 6, 36, 120, 195, 111, 181, 195, 120, 1, 1.06348
244, 1, wb, attraction, a-b-db, 14, 2, 6, 37, 83, 153, 165, 90, 90, 165, 1, 0.930314
244, 1, wb, attraction, a-b-db, 14, 2, 6, 37, 83, 153, 165, 90, 90, 165, 2, 0.436182
244, 1, wb, filler, NA, 999, 999, 7, 1, 162, 81, 157, 193, 123, 166, 1, 0.856584
244, 1, wb, filler, NA, 999, 999, 7, 1, 162, 81, 157, 193, 123, 166, 2, 0.588918
244, 1, wb, catch, NA, 999, 999, 7, 2, 150, 165, 80, 115, 148, 107, 2, 0.739364
244, 1, wb, catch, NA, 999, 999, 7, 2, 150, 165, 80, 115, 148, 107, 1, 0.444545
244, 1, wb, attraction, a-b-db, 14, 2, 7, 3, 165, 90, 83, 153, 90, 165, 2, 1.12837
244, 1, wb, attraction, a-b-db, 14, 2, 7, 3, 165, 90, 83, 153, 90, 165, 1, 0.473818
244, 1, wb, attraction, a-b-da, 9, 3, 7, 4, 120, 195, 195, 120, 186, 114, 3, 1.19628
244, 1, wb, attraction, a-b-da, 9, 3, 7, 4, 120, 195, 195, 120, 186, 114, 2, 0.563415
244, 1, wb, attraction, a-b-db, 2, 2, 7, 5, 165, 90, 90, 165, 89, 163, 2, 1.09043
244, 1, wb, attraction, a-b-db, 2, 2, 7, 5, 165, 90, 90, 165, 89, 163, 1, 0.661264
244, 1, wb, attraction, a-b-da, 2, 3, 7, 6, 193, 119, 120, 195, 195, 120, 2, 1.43232
244, 1, wb, attraction, a-b-da, 2, 3, 7, 6, 193, 119, 120, 195, 195, 120, 1, 0.573855
244, 1, wb, filler, NA, 999, 999, 7, 7, 97, 60, 125, 58, 105, 66, 1, 1.22837
244, 1, wb, filler, NA, 999, 999, 7, 7, 97, 60, 125, 58, 105, 66, 3, 0.577986
244, 1, wb, attraction, a-b-da, 14, 2, 7, 8, 165, 90, 90, 165, 153, 83, 3, 1.83243
244, 1, wb, attraction, a-b-da, 14, 2, 7, 8, 165, 90, 90, 165, 153, 83, 1, 0.565789
244, 1, wb, attraction, a-b-db, 9, 1, 7, 9, 135, 60, 60, 135, 57, 129, 2, 0.701128
244, 1, wb, attraction, a-b-db, 9, 1, 7, 9, 135, 60, 60, 135, 57, 129, 1, 0.687974
244, 1, wb, attraction, a-b-db, 2, 1, 7, 10, 60, 135, 135, 60, 59, 134, 2, 1.10632
244, 1, wb, attraction, a-b-db, 2, 1, 7, 10, 60, 135, 135, 60, 59, 134, 1, 1.34076
244, 1, wb, filler, NA, 999, 999, 7, 11, 170, 156, 177, 138, 58, 85, 3, 1.45205
244, 1, wb, filler, NA, 999, 999, 7, 11, 170, 156, 177, 138, 58, 85, 1, 0.816988
244, 1, wb, filler, NA, 999, 999, 7, 12, 74, 89, 125, 99, 89, 186, 1, 1.43012
244, 1, wb, filler, NA, 999, 999, 7, 12, 74, 89, 125, 99, 89, 186, 3, 2.16358
244, 1, wb, filler, NA, 999, 999, 7, 13, 166, 160, 61, 57, 114, 97, 2, 0.866118
244, 1, wb, filler, NA, 999, 999, 7, 13, 166, 160, 61, 57, 114, 97, 1, 0.566667
244, 1, wb, attraction, a-b-da, 5, 3, 7, 14, 195, 120, 190, 117, 120, 195, 3, 1.20553
244, 1, wb, attraction, a-b-da, 5, 3, 7, 14, 195, 120, 190, 117, 120, 195, 2, 0.555962
244, 1, wb, filler, NA, 999, 999, 7, 15, 146, 79, 114, 126, 190, 161, 1, 0.747744
244, 1, wb, filler, NA, 999, 999, 7, 15, 146, 79, 114, 126, 190, 161, 3, 0.612731
244, 1, wb, filler, NA, 999, 999, 7, 16, 185, 140, 108, 86, 97, 75, 3, 1.16182
244, 1, wb, filler, NA, 999, 999, 7, 16, 185, 140, 108, 86, 97, 75, 1, 0.474081
244, 1, wb, attraction, a-b-da, 14, 3, 7, 17, 120, 195, 195, 120, 181, 111, 3, 2.19645
244, 1, wb, attraction, a-b-da, 14, 3, 7, 17, 120, 195, 195, 120, 181, 111, 1, 1.15519
244, 1, wb, attraction, a-b-db, 5, 1, 7, 18, 60, 135, 135, 60, 58, 132, 1, 1.19477
244, 1, wb, attraction, a-b-db, 5, 1, 7, 18, 60, 135, 135, 60, 58, 132, 3, 0.681817
244, 1, wb, attraction, a-b-da, 9, 1, 7, 19, 135, 60, 129, 57, 60, 135, 3, 1.18809
244, 1, wb, attraction, a-b-da, 9, 1, 7, 19, 135, 60, 129, 57, 60, 135, 1, 1.08432
244, 1, wb, attraction, a-b-da, 9, 2, 7, 20, 90, 165, 157, 86, 165, 90, 1, 1.04594
244, 1, wb, attraction, a-b-da, 9, 2, 7, 20, 90, 165, 157, 86, 165, 90, 3, 0.594923
244, 1, wb, attraction, a-b-da, 5, 1, 7, 21, 60, 135, 135, 60, 132, 58, 1, 1.2087
244, 1, wb, attraction, a-b-da, 5, 1, 7, 21, 60, 135, 135, 60, 132, 58, 2, 1.09503
244, 1, wb, attraction, a-b-da, 5, 2, 7, 22, 165, 90, 161, 88, 90, 165, 2, 2.20062
244, 1, wb, attraction, a-b-da, 5, 2, 7, 22, 165, 90, 161, 88, 90, 165, 3, 0.735156
244, 1, wb, filler, NA, 999, 999, 7, 23, 117, 81, 127, 88, 189, 170, 1, 0.887504
244, 1, wb, filler, NA, 999, 999, 7, 23, 117, 81, 127, 88, 189, 170, 3, 0.674487
244, 1, wb, filler, NA, 999, 999, 7, 24, 179, 153, 87, 71, 177, 67, 2, 1.02903
244, 1, wb, filler, NA, 999, 999, 7, 24, 179, 153, 87, 71, 177, 67, 1, 0.490629
244, 1, wb, attraction, a-b-db, 9, 3, 7, 25, 114, 186, 120, 195, 195, 120, 3, 2.10846
244, 1, wb, attraction, a-b-db, 9, 3, 7, 25, 114, 186, 120, 195, 195, 120, 2, 0.774367
244, 1, wb, attraction, a-b-db, 2, 3, 7, 26, 195, 120, 119, 193, 120, 195, 1, 1.71679
244, 1, wb, attraction, a-b-db, 2, 3, 7, 26, 195, 120, 119, 193, 120, 195, 3, 0.982939
244, 1, wb, attraction, a-b-db, 5, 3, 7, 27, 117, 190, 120, 195, 195, 120, 3, 1.74911
244, 1, wb, attraction, a-b-db, 5, 3, 7, 27, 117, 190, 120, 195, 195, 120, 1, 0.725936
244, 1, wb, attraction, a-b-da, 2, 2, 7, 28, 165, 90, 90, 165, 163, 89, 3, 2.15027
244, 1, wb, attraction, a-b-da, 2, 2, 7, 28, 165, 90, 90, 165, 163, 89, 1, 1.31094
244, 1, wb, attraction, a-b-da, 2, 1, 7, 29, 134, 59, 135, 60, 60, 135, 3, 2.70382
244, 1, wb, attraction, a-b-da, 2, 1, 7, 29, 134, 59, 135, 60, 60, 135, 2, 0.458259
244, 1, wb, catch, NA, 999, 999, 7, 30, 98, 97, 138, 117, 176, 139, 1, 0.837369
244, 1, wb, catch, NA, 999, 999, 7, 30, 98, 97, 138, 117, 176, 139, 3, 0.41854
244, 1, wb, catch, NA, 999, 999, 7, 31, 146, 169, 99, 156, 69, 126, 3, 1.18357
244, 1, wb, catch, NA, 999, 999, 7, 31, 146, 169, 99, 156, 69, 126, 1, 0.439228
244, 1, wb, attraction, a-b-db, 14, 3, 7, 32, 195, 120, 111, 181, 120, 195, 2, 4.06766
244, 1, wb, attraction, a-b-db, 14, 3, 7, 32, 195, 120, 111, 181, 120, 195, 1, 0.79899
244, 1, wb, filler, NA, 999, 999, 7, 33, 61, 146, 151, 136, 154, 135, 1, 0.764682
244, 1, wb, filler, NA, 999, 999, 7, 33, 61, 146, 151, 136, 154, 135, 3, 0.413061
244, 1, wb, attraction, a-b-db, 9, 2, 7, 34, 86, 157, 165, 90, 90, 165, 2, 1.69818
244, 1, wb, attraction, a-b-db, 9, 2, 7, 34, 86, 157, 165, 90, 90, 165, 3, 0.573111
244, 1, wb, attraction, a-b-da, 14, 1, 7, 35, 135, 60, 60, 135, 125, 56, 3, 1.38018
244, 1, wb, attraction, a-b-da, 14, 1, 7, 35, 135, 60, 60, 135, 125, 56, 1, 1.02762
244, 1, wb, attraction, a-b-db, 5, 2, 7, 36, 165, 90, 88, 161, 90, 165, 3, 2.54401
244, 1, wb, attraction, a-b-db, 5, 2, 7, 36, 165, 90, 88, 161, 90, 165, 1, 0.704407
244, 1, wb, attraction, a-b-db, 14, 1, 7, 37, 56, 125, 60, 135, 135, 60, 1, 0.842335
244, 1, wb, attraction, a-b-db, 14, 1, 7, 37, 56, 125, 60, 135, 135, 60, 2, 0.687243
244, 1, wb, attraction, a-b-db, 14, 2, 8, 1, 165, 90, 90, 165, 83, 153, 3, 1.44962
244, 1, wb, attraction, a-b-db, 14, 2, 8, 1, 165, 90, 90, 165, 83, 153, 2, 0.654525
244, 1, wb, filler, NA, 999, 999, 8, 2, 86, 75, 143, 82, 109, 72, 1, 1.03419
244, 1, wb, filler, NA, 999, 999, 8, 2, 86, 75, 143, 82, 109, 72, 2, 0.439762
244, 1, wb, catch, NA, 999, 999, 8, 3, 192, 123, 132, 123, 69, 126, 3, 0.756333
244, 1, wb, catch, NA, 999, 999, 8, 3, 192, 123, 132, 123, 69, 126, 1, 0.684679
244, 1, wb, catch, NA, 999, 999, 8, 4, 118, 77, 129, 126, 155, 160, 1, 1.07925
244, 1, wb, catch, NA, 999, 999, 8, 4, 118, 77, 129, 126, 155, 160, 3, 0.402766
244, 1, wb, attraction, a-b-da, 5, 1, 8, 5, 132, 58, 60, 135, 135, 60, 1, 1.12052
244, 1, wb, attraction, a-b-da, 5, 1, 8, 5, 132, 58, 60, 135, 135, 60, 2, 0.746957
244, 1, wb, attraction, a-b-db, 5, 2, 8, 6, 165, 90, 88, 161, 90, 165, 1, 0.978541
244, 1, wb, attraction, a-b-db, 5, 2, 8, 6, 165, 90, 88, 161, 90, 165, 2, 0.786322
244, 1, wb, attraction, a-b-da, 9, 1, 8, 7, 135, 60, 129, 57, 60, 135, 2, 1.62454
244, 1, wb, attraction, a-b-da, 9, 1, 8, 7, 135, 60, 129, 57, 60, 135, 3, 1.20617
244, 1, wb, attraction, a-b-da, 5, 3, 8, 8, 120, 195, 190, 117, 195, 120, 2, 1.87564
244, 1, wb, attraction, a-b-da, 5, 3, 8, 8, 120, 195, 190, 117, 195, 120, 1, 0.623012
244, 1, wb, attraction, a-b-da, 9, 3, 8, 9, 195, 120, 186, 114, 120, 195, 2, 1.22008
244, 1, wb, attraction, a-b-da, 9, 3, 8, 9, 195, 120, 186, 114, 120, 195, 3, 0.594454
244, 1, wb, filler, NA, 999, 999, 8, 10, 117, 115, 94, 144, 130, 135, 1, 0.888116
244, 1, wb, filler, NA, 999, 999, 8, 10, 117, 115, 94, 144, 130, 135, 3, 0.651931
244, 1, wb, filler, NA, 999, 999, 8, 11, 160, 98, 132, 138, 144, 180, 1, 1.0717
244, 1, wb, filler, NA, 999, 999, 8, 11, 160, 98, 132, 138, 144, 180, 3, 0.603314
244, 1, wb, filler, NA, 999, 999, 8, 12, 194, 106, 116, 86, 65, 193, 2, 1.28091
244, 1, wb, filler, NA, 999, 999, 8, 12, 194, 106, 116, 86, 65, 193, 1, 0.772545
244, 1, wb, attraction, a-b-db, 14, 3, 8, 13, 120, 195, 111, 181, 195, 120, 2, 1.49151
244, 1, wb, attraction, a-b-db, 14, 3, 8, 13, 120, 195, 111, 181, 195, 120, 3, 0.582498
244, 1, wb, attraction, a-b-db, 2, 3, 8, 14, 119, 193, 195, 120, 120, 195, 1, 1.28479
244, 1, wb, attraction, a-b-db, 2, 3, 8, 14, 119, 193, 195, 120, 120, 195, 2, 0.872539
244, 1, wb, attraction, a-b-db, 2, 1, 8, 15, 60, 135, 135, 60, 59, 134, 3, 1.13937
244, 1, wb, attraction, a-b-db, 2, 1, 8, 15, 60, 135, 135, 60, 59, 134, 1, 1.11639
244, 1, wb, attraction, a-b-db, 9, 3, 8, 16, 114, 186, 120, 195, 195, 120, 1, 2.31724
244, 1, wb, attraction, a-b-db, 9, 3, 8, 16, 114, 186, 120, 195, 195, 120, 3, 1.11125
244, 1, wb, attraction, a-b-da, 5, 2, 8, 17, 165, 90, 90, 165, 161, 88, 2, 3.38421
244, 1, wb, attraction, a-b-da, 5, 2, 8, 17, 165, 90, 90, 165, 161, 88, 1, 0.750988
244, 1, wb, attraction, a-b-da, 2, 3, 8, 18, 193, 119, 120, 195, 195, 120, 3, 3.30283
244, 1, wb, attraction, a-b-da, 2, 3, 8, 18, 193, 119, 120, 195, 195, 120, 2, 0.721027
244, 1, wb, filler, NA, 999, 999, 8, 19, 85, 95, 184, 85, 156, 82, 1, 0.842076
244, 1, wb, filler, NA, 999, 999, 8, 19, 85, 95, 184, 85, 156, 82, 2, 0.679096
244, 1, wb, attraction, a-b-da, 14, 2, 8, 20, 153, 83, 90, 165, 165, 90, 1, 1.31357
244, 1, wb, attraction, a-b-da, 14, 2, 8, 20, 153, 83, 90, 165, 165, 90, 3, 1.31571
244, 1, wb, attraction, a-b-db, 2, 2, 8, 21, 90, 165, 165, 90, 89, 163, 1, 2.05261
244, 1, wb, attraction, a-b-db, 2, 2, 8, 21, 90, 165, 165, 90, 89, 163, 2, 1.04121
244, 1, wb, attraction, a-b-da, 2, 2, 8, 22, 90, 165, 165, 90, 163, 89, 2, 2.01294
244, 1, wb, attraction, a-b-da, 2, 2, 8, 22, 90, 165, 165, 90, 163, 89, 1, 0.875002
244, 1, wb, attraction, a-b-da, 14, 1, 8, 23, 135, 60, 125, 56, 60, 135, 2, 1.47781
244, 1, wb, attraction, a-b-da, 14, 1, 8, 23, 135, 60, 125, 56, 60, 135, 3, 1.25678
244, 1, wb, filler, NA, 999, 999, 8, 24, 192, 92, 111, 161, 170, 162, 1, 1.60357
244, 1, wb, filler, NA, 999, 999, 8, 24, 192, 92, 111, 161, 170, 162, 3, 0.810381
244, 1, wb, attraction, a-b-da, 14, 3, 8, 25, 195, 120, 120, 195, 181, 111, 3, 1.72753
244, 1, wb, attraction, a-b-da, 14, 3, 8, 25, 195, 120, 120, 195, 181, 111, 1, 0.792912
244, 1, wb, attraction, a-b-db, 5, 1, 8, 26, 58, 132, 135, 60, 60, 135, 1, 1.96666
244, 1, wb, attraction, a-b-db, 5, 1, 8, 26, 58, 132, 135, 60, 60, 135, 3, 0.702552
244, 1, wb, attraction, a-b-db, 5, 3, 8, 27, 120, 195, 195, 120, 117, 190, 2, 4.4404
244, 1, wb, attraction, a-b-db, 5, 3, 8, 27, 120, 195, 195, 120, 117, 190, 3, 0.748464
244, 1, wb, attraction, a-b-da, 2, 1, 8, 28, 134, 59, 135, 60, 60, 135, 1, 3.49995
244, 1, wb, attraction, a-b-da, 2, 1, 8, 28, 134, 59, 135, 60, 60, 135, 3, 0.654268
244, 1, wb, filler, NA, 999, 999, 8, 29, 111, 67, 118, 88, 87, 188, 1, 1.20188
244, 1, wb, filler, NA, 999, 999, 8, 29, 111, 67, 118, 88, 87, 188, 3, 0.672803
244, 1, wb, filler, NA, 999, 999, 8, 30, 80, 67, 170, 60, 163, 91, 1, 1.57987
244, 1, wb, filler, NA, 999, 999, 8, 30, 80, 67, 170, 60, 163, 91, 3, 0.619362
244, 1, wb, filler, NA, 999, 999, 8, 31, 100, 102, 185, 106, 130, 113, 1, 0.920501
244, 1, wb, filler, NA, 999, 999, 8, 31, 100, 102, 185, 106, 130, 113, 2, 0.802886
244, 1, wb, attraction, a-b-db, 14, 1, 8, 32, 60, 135, 135, 60, 56, 125, 3, 1.33654
244, 1, wb, attraction, a-b-db, 14, 1, 8, 32, 60, 135, 135, 60, 56, 125, 1, 0.586156
244, 1, wb, attraction, a-b-da, 9, 2, 8, 33, 90, 165, 157, 86, 165, 90, 2, 1.69647
244, 1, wb, attraction, a-b-da, 9, 2, 8, 33, 90, 165, 157, 86, 165, 90, 3, 0.771992
244, 1, wb, filler, NA, 999, 999, 8, 34, 141, 80, 69, 119, 185, 114, 2, 0.826405
244, 1, wb, filler, NA, 999, 999, 8, 34, 141, 80, 69, 119, 185, 114, 3, 0.503994
244, 1, wb, catch, NA, 999, 999, 8, 35, 71, 124, 122, 193, 127, 128, 1, 0.841798
244, 1, wb, catch, NA, 999, 999, 8, 35, 71, 124, 122, 193, 127, 128, 2, 0.558791
244, 1, wb, attraction, a-b-db, 9, 1, 8, 36, 135, 60, 60, 135, 57, 129, 3, 2.17404
244, 1, wb, attraction, a-b-db, 9, 1, 8, 36, 135, 60, 60, 135, 57, 129, 2, 0.837317
244, 1, wb, attraction, a-b-db, 9, 2, 8, 37, 86, 157, 165, 90, 90, 165, 2, 1.10563
244, 1, wb, attraction, a-b-db, 9, 2, 8, 37, 86, 157, 165, 90, 90, 165, 3, 1.09197
