sub_n, computer_n, bw_cond, effect, set, distance, diag, block_n, trial_n, h1, w1, h2, w2, h3, w3, choice, rt 
298, 1, wb, practice, NA, 999, 999, 0, 1, 194, 62, 144, 130, 147, 108, 1, 5.94597
298, 1, wb, practice, NA, 999, 999, 0, 1, 194, 62, 144, 130, 147, 108, 2, 2.54503
298, 1, wb, practice, NA, 999, 999, 0, 2, 135, 173, 129, 155, 191, 67, 3, 2.61291
298, 1, wb, practice, NA, 999, 999, 0, 2, 135, 173, 129, 155, 191, 67, 1, 3.79571
298, 1, wb, practice, NA, 999, 999, 0, 3, 133, 162, 151, 154, 75, 66, 3, 2.08418
298, 1, wb, practice, NA, 999, 999, 0, 3, 133, 162, 151, 154, 75, 66, 2, 2.21755
298, 1, wb, catch, NA, 999, 999, 1, 1, 125, 130, 194, 121, 96, 99, 3, 1.31427
298, 1, wb, catch, NA, 999, 999, 1, 1, 125, 130, 194, 121, 96, 99, 2, 0.996552
298, 1, wb, filler, NA, 999, 999, 1, 2, 100, 69, 93, 138, 183, 91, 1, 2.75413
298, 1, wb, filler, NA, 999, 999, 1, 2, 100, 69, 93, 138, 183, 91, 3, 1.21857
298, 1, wb, attraction, a-b-da, 2, 3, 1, 3, 195, 120, 120, 195, 193, 119, 1, 4.69539
298, 1, wb, attraction, a-b-da, 2, 3, 1, 3, 195, 120, 120, 195, 193, 119, 2, 1.24129
298, 1, wb, attraction, a-b-db, 14, 1, 1, 4, 56, 125, 60, 135, 135, 60, 1, 5.8289
298, 1, wb, attraction, a-b-db, 14, 1, 1, 4, 56, 125, 60, 135, 135, 60, 2, 3.51301
298, 1, wb, attraction, a-b-db, 5, 2, 1, 5, 88, 161, 165, 90, 90, 165, 3, 1.90535
298, 1, wb, attraction, a-b-db, 5, 2, 1, 5, 88, 161, 165, 90, 90, 165, 2, 0.739176
298, 1, wb, attraction, a-b-db, 14, 2, 1, 6, 83, 153, 165, 90, 90, 165, 1, 2.2517
298, 1, wb, attraction, a-b-db, 14, 2, 1, 6, 83, 153, 165, 90, 90, 165, 3, 0.992228
298, 1, wb, attraction, a-b-da, 5, 2, 1, 7, 90, 165, 161, 88, 165, 90, 1, 1.55779
298, 1, wb, attraction, a-b-da, 5, 2, 1, 7, 90, 165, 161, 88, 165, 90, 2, 1.21394
298, 1, wb, attraction, a-b-da, 9, 2, 1, 8, 165, 90, 157, 86, 90, 165, 2, 3.89892
298, 1, wb, attraction, a-b-da, 9, 2, 1, 8, 165, 90, 157, 86, 90, 165, 3, 0.796939
298, 1, wb, attraction, a-b-da, 9, 1, 1, 9, 60, 135, 135, 60, 129, 57, 3, 3.19465
298, 1, wb, attraction, a-b-da, 9, 1, 1, 9, 60, 135, 135, 60, 129, 57, 1, 2.96899
298, 1, wb, attraction, a-b-db, 9, 1, 1, 10, 135, 60, 60, 135, 57, 129, 1, 2.86327
298, 1, wb, attraction, a-b-db, 9, 1, 1, 10, 135, 60, 60, 135, 57, 129, 2, 0.770993
298, 1, wb, filler, NA, 999, 999, 1, 11, 186, 170, 131, 131, 79, 172, 3, 1.57011
298, 1, wb, filler, NA, 999, 999, 1, 11, 186, 170, 131, 131, 79, 172, 1, 0.914354
298, 1, wb, filler, NA, 999, 999, 1, 12, 81, 164, 146, 66, 119, 170, 2, 0.923186
298, 1, wb, filler, NA, 999, 999, 1, 12, 81, 164, 146, 66, 119, 170, 3, 0.373092
298, 1, wb, attraction, a-b-da, 5, 3, 1, 13, 120, 195, 190, 117, 195, 120, 1, 2.66006
298, 1, wb, attraction, a-b-da, 5, 3, 1, 13, 120, 195, 190, 117, 195, 120, 2, 0.551852
298, 1, wb, catch, NA, 999, 999, 1, 14, 163, 92, 124, 71, 191, 124, 2, 0.991684
298, 1, wb, catch, NA, 999, 999, 1, 14, 163, 92, 124, 71, 191, 124, 3, 0.382749
298, 1, wb, attraction, a-b-db, 5, 3, 1, 15, 117, 190, 195, 120, 120, 195, 2, 3.17312
298, 1, wb, attraction, a-b-db, 5, 3, 1, 15, 117, 190, 195, 120, 120, 195, 3, 0.580139
298, 1, wb, filler, NA, 999, 999, 1, 16, 148, 59, 138, 61, 75, 135, 2, 2.66663
298, 1, wb, filler, NA, 999, 999, 1, 16, 148, 59, 138, 61, 75, 135, 3, 0.67046
298, 1, wb, attraction, a-b-db, 2, 1, 1, 17, 59, 134, 60, 135, 135, 60, 3, 1.63346
298, 1, wb, attraction, a-b-db, 2, 1, 1, 17, 59, 134, 60, 135, 135, 60, 2, 0.671036
298, 1, wb, filler, NA, 999, 999, 1, 18, 76, 121, 144, 160, 71, 72, 3, 1.11399
298, 1, wb, filler, NA, 999, 999, 1, 18, 76, 121, 144, 160, 71, 72, 2, 0.54825
298, 1, wb, attraction, a-b-db, 2, 3, 1, 19, 120, 195, 119, 193, 195, 120, 3, 1.79596
298, 1, wb, attraction, a-b-db, 2, 3, 1, 19, 120, 195, 119, 193, 195, 120, 2, 0.298709
298, 1, wb, filler, NA, 999, 999, 1, 20, 135, 118, 58, 104, 177, 56, 2, 1.31659
298, 1, wb, filler, NA, 999, 999, 1, 20, 135, 118, 58, 104, 177, 56, 1, 0.670749
298, 1, wb, attraction, a-b-da, 5, 1, 1, 21, 132, 58, 135, 60, 60, 135, 3, 1.13786
298, 1, wb, attraction, a-b-da, 5, 1, 1, 21, 132, 58, 135, 60, 60, 135, 2, 0.915564
298, 1, wb, filler, NA, 999, 999, 1, 22, 73, 69, 70, 114, 89, 147, 1, 1.25242
298, 1, wb, filler, NA, 999, 999, 1, 22, 73, 69, 70, 114, 89, 147, 3, 0.449366
298, 1, wb, attraction, a-b-db, 14, 3, 1, 23, 111, 181, 195, 120, 120, 195, 1, 1.1173
298, 1, wb, attraction, a-b-db, 14, 3, 1, 23, 111, 181, 195, 120, 120, 195, 2, 0.391541
298, 1, wb, attraction, a-b-da, 2, 2, 1, 24, 90, 165, 163, 89, 165, 90, 1, 2.24535
298, 1, wb, attraction, a-b-da, 2, 2, 1, 24, 90, 165, 163, 89, 165, 90, 2, 0.521982
298, 1, wb, filler, NA, 999, 999, 1, 25, 146, 87, 178, 87, 191, 160, 1, 0.795052
298, 1, wb, filler, NA, 999, 999, 1, 25, 146, 87, 178, 87, 191, 160, 3, 0.32206
298, 1, wb, attraction, a-b-db, 9, 3, 1, 26, 195, 120, 114, 186, 120, 195, 3, 1.0912
298, 1, wb, attraction, a-b-db, 9, 3, 1, 26, 195, 120, 114, 186, 120, 195, 1, 0.518219
298, 1, wb, attraction, a-b-da, 2, 1, 1, 27, 135, 60, 60, 135, 134, 59, 3, 1.00737
298, 1, wb, attraction, a-b-da, 2, 1, 1, 27, 135, 60, 60, 135, 134, 59, 2, 0.389716
298, 1, wb, attraction, a-b-da, 14, 1, 1, 28, 135, 60, 125, 56, 60, 135, 1, 0.788267
298, 1, wb, attraction, a-b-da, 14, 1, 1, 28, 135, 60, 125, 56, 60, 135, 2, 0.803406
298, 1, wb, attraction, a-b-da, 14, 2, 1, 29, 153, 83, 165, 90, 90, 165, 1, 1.11291
298, 1, wb, attraction, a-b-da, 14, 2, 1, 29, 153, 83, 165, 90, 90, 165, 3, 0.427231
298, 1, wb, attraction, a-b-db, 9, 2, 1, 30, 165, 90, 86, 157, 90, 165, 1, 2.33571
298, 1, wb, attraction, a-b-db, 9, 2, 1, 30, 165, 90, 86, 157, 90, 165, 2, 0.320873
298, 1, wb, filler, NA, 999, 999, 1, 31, 190, 189, 118, 101, 105, 127, 2, 1.19407
298, 1, wb, filler, NA, 999, 999, 1, 31, 190, 189, 118, 101, 105, 127, 1, 0.409015
298, 1, wb, catch, NA, 999, 999, 1, 32, 120, 195, 105, 150, 134, 61, 3, 0.95022
298, 1, wb, catch, NA, 999, 999, 1, 32, 120, 195, 105, 150, 134, 61, 1, 0.367144
298, 1, wb, attraction, a-b-da, 9, 3, 1, 33, 120, 195, 186, 114, 195, 120, 3, 0.966352
298, 1, wb, attraction, a-b-da, 9, 3, 1, 33, 120, 195, 186, 114, 195, 120, 2, 0.390787
298, 1, wb, attraction, a-b-da, 14, 3, 1, 34, 181, 111, 120, 195, 195, 120, 1, 0.860522
298, 1, wb, attraction, a-b-da, 14, 3, 1, 34, 181, 111, 120, 195, 195, 120, 2, 0.60884
298, 1, wb, attraction, a-b-db, 2, 2, 1, 35, 165, 90, 90, 165, 89, 163, 3, 1.96596
298, 1, wb, attraction, a-b-db, 2, 2, 1, 35, 165, 90, 90, 165, 89, 163, 2, 0.358021
298, 1, wb, attraction, a-b-db, 5, 1, 1, 36, 58, 132, 135, 60, 60, 135, 2, 1.58119
298, 1, wb, attraction, a-b-db, 5, 1, 1, 36, 58, 132, 135, 60, 60, 135, 3, 0.460703
298, 1, wb, filler, NA, 999, 999, 1, 37, 136, 129, 178, 137, 56, 186, 3, 0.791793
298, 1, wb, filler, NA, 999, 999, 1, 37, 136, 129, 178, 137, 56, 186, 2, 0.878835
298, 1, wb, attraction, a-b-db, 9, 1, 2, 1, 60, 135, 57, 129, 135, 60, 3, 2.08912
298, 1, wb, attraction, a-b-db, 9, 1, 2, 1, 60, 135, 57, 129, 135, 60, 2, 0.411822
298, 1, wb, attraction, a-b-db, 14, 3, 2, 2, 195, 120, 120, 195, 111, 181, 3, 1.76904
298, 1, wb, attraction, a-b-db, 14, 3, 2, 2, 195, 120, 120, 195, 111, 181, 1, 1.60901
298, 1, wb, filler, NA, 999, 999, 2, 3, 164, 123, 133, 103, 65, 178, 3, 1.15788
298, 1, wb, filler, NA, 999, 999, 2, 3, 164, 123, 133, 103, 65, 178, 1, 0.35005
298, 1, wb, catch, NA, 999, 999, 2, 4, 180, 135, 76, 119, 132, 123, 2, 5.44596
298, 1, wb, catch, NA, 999, 999, 2, 4, 180, 135, 76, 119, 132, 123, 1, 0.321575
298, 1, wb, attraction, a-b-da, 9, 1, 2, 5, 129, 57, 135, 60, 60, 135, 1, 1.51479
298, 1, wb, attraction, a-b-da, 9, 1, 2, 5, 129, 57, 135, 60, 60, 135, 3, 0.476827
298, 1, wb, attraction, a-b-db, 5, 1, 2, 6, 58, 132, 135, 60, 60, 135, 1, 0.75936
298, 1, wb, attraction, a-b-db, 5, 1, 2, 6, 58, 132, 135, 60, 60, 135, 2, 0.367701
298, 1, wb, filler, NA, 999, 999, 2, 7, 176, 171, 62, 104, 174, 131, 3, 0.694885
298, 1, wb, filler, NA, 999, 999, 2, 7, 176, 171, 62, 104, 174, 131, 2, 2.39401
298, 1, wb, filler, NA, 999, 999, 2, 8, 185, 162, 99, 188, 138, 123, 3, 1.23937
298, 1, wb, filler, NA, 999, 999, 2, 8, 185, 162, 99, 188, 138, 123, 1, 0.380109
298, 1, wb, attraction, a-b-da, 14, 1, 2, 9, 135, 60, 60, 135, 125, 56, 3, 1.00253
298, 1, wb, attraction, a-b-da, 14, 1, 2, 9, 135, 60, 60, 135, 125, 56, 2, 0.345584
298, 1, wb, attraction, a-b-db, 2, 1, 2, 10, 60, 135, 59, 134, 135, 60, 1, 0.689371
298, 1, wb, attraction, a-b-db, 2, 1, 2, 10, 60, 135, 59, 134, 135, 60, 3, 0.596539
298, 1, wb, attraction, a-b-db, 5, 3, 2, 11, 195, 120, 120, 195, 117, 190, 1, 6.56232
298, 1, wb, attraction, a-b-db, 5, 3, 2, 11, 195, 120, 120, 195, 117, 190, 2, 0.336899
298, 1, wb, attraction, a-b-db, 9, 3, 2, 12, 120, 195, 195, 120, 114, 186, 2, 1.18531
298, 1, wb, attraction, a-b-db, 9, 3, 2, 12, 120, 195, 195, 120, 114, 186, 1, 0.264915
298, 1, wb, catch, NA, 999, 999, 2, 13, 105, 90, 149, 106, 149, 166, 1, 0.956144
298, 1, wb, catch, NA, 999, 999, 2, 13, 105, 90, 149, 106, 149, 166, 3, 0.332443
298, 1, wb, attraction, a-b-da, 9, 3, 2, 14, 120, 195, 195, 120, 186, 114, 3, 0.701096
298, 1, wb, attraction, a-b-da, 9, 3, 2, 14, 120, 195, 195, 120, 186, 114, 2, 0.248132
298, 1, wb, attraction, a-b-da, 5, 3, 2, 15, 195, 120, 190, 117, 120, 195, 3, 0.748036
298, 1, wb, attraction, a-b-da, 5, 3, 2, 15, 195, 120, 190, 117, 120, 195, 1, 0.261048
298, 1, wb, catch, NA, 999, 999, 2, 16, 114, 141, 157, 158, 99, 96, 3, 0.592155
298, 1, wb, catch, NA, 999, 999, 2, 16, 114, 141, 157, 158, 99, 96, 2, 0.223329
298, 1, wb, attraction, a-b-db, 14, 1, 2, 17, 60, 135, 135, 60, 56, 125, 1, 0.715863
298, 1, wb, attraction, a-b-db, 14, 1, 2, 17, 60, 135, 135, 60, 56, 125, 2, 0.254302
298, 1, wb, filler, NA, 999, 999, 2, 18, 151, 177, 135, 117, 192, 94, 3, 2.07416
298, 1, wb, filler, NA, 999, 999, 2, 18, 151, 177, 135, 117, 192, 94, 1, 0.269461
298, 1, wb, attraction, a-b-da, 2, 3, 2, 19, 120, 195, 193, 119, 195, 120, 3, 0.704657
298, 1, wb, attraction, a-b-da, 2, 3, 2, 19, 120, 195, 193, 119, 195, 120, 2, 0.242997
298, 1, wb, attraction, a-b-da, 5, 2, 2, 20, 165, 90, 90, 165, 161, 88, 3, 0.878936
298, 1, wb, attraction, a-b-da, 5, 2, 2, 20, 165, 90, 90, 165, 161, 88, 2, 0.594719
298, 1, wb, attraction, a-b-da, 9, 2, 2, 21, 157, 86, 90, 165, 165, 90, 1, 2.46431
298, 1, wb, attraction, a-b-da, 9, 2, 2, 21, 157, 86, 90, 165, 165, 90, 2, 0.316252
298, 1, wb, attraction, a-b-db, 2, 2, 2, 22, 90, 165, 89, 163, 165, 90, 2, 0.909479
298, 1, wb, attraction, a-b-db, 2, 2, 2, 22, 90, 165, 89, 163, 165, 90, 3, 0.263817
298, 1, wb, filler, NA, 999, 999, 2, 23, 86, 149, 189, 122, 137, 170, 1, 0.635074
298, 1, wb, filler, NA, 999, 999, 2, 23, 86, 149, 189, 122, 137, 170, 3, 0.560776
298, 1, wb, filler, NA, 999, 999, 2, 24, 96, 173, 89, 127, 181, 57, 3, 0.839833
298, 1, wb, filler, NA, 999, 999, 2, 24, 96, 173, 89, 127, 181, 57, 1, 0.324832
298, 1, wb, attraction, a-b-db, 5, 2, 2, 25, 88, 161, 90, 165, 165, 90, 3, 0.709542
298, 1, wb, attraction, a-b-db, 5, 2, 2, 25, 88, 161, 90, 165, 165, 90, 1, 0.399793
298, 1, wb, attraction, a-b-da, 14, 3, 2, 26, 181, 111, 120, 195, 195, 120, 1, 0.90958
298, 1, wb, attraction, a-b-da, 14, 3, 2, 26, 181, 111, 120, 195, 195, 120, 3, 0.264166
298, 1, wb, attraction, a-b-da, 14, 2, 2, 27, 165, 90, 153, 83, 90, 165, 3, 0.923219
298, 1, wb, attraction, a-b-da, 14, 2, 2, 27, 165, 90, 153, 83, 90, 165, 2, 0.2689
298, 1, wb, filler, NA, 999, 999, 2, 28, 176, 193, 86, 103, 166, 161, 2, 0.792023
298, 1, wb, filler, NA, 999, 999, 2, 28, 176, 193, 86, 103, 166, 161, 1, 0.351067
298, 1, wb, filler, NA, 999, 999, 2, 29, 75, 72, 176, 120, 161, 67, 1, 1.23093
298, 1, wb, filler, NA, 999, 999, 2, 29, 75, 72, 176, 120, 161, 67, 2, 0.268548
298, 1, wb, attraction, a-b-db, 2, 3, 2, 30, 120, 195, 195, 120, 119, 193, 3, 0.727746
298, 1, wb, attraction, a-b-db, 2, 3, 2, 30, 120, 195, 195, 120, 119, 193, 2, 0.281468
298, 1, wb, attraction, a-b-db, 9, 2, 2, 31, 165, 90, 86, 157, 90, 165, 2, 0.891969
298, 1, wb, attraction, a-b-db, 9, 2, 2, 31, 165, 90, 86, 157, 90, 165, 1, 0.359032
298, 1, wb, attraction, a-b-db, 14, 2, 2, 32, 165, 90, 90, 165, 83, 153, 2, 0.886197
298, 1, wb, attraction, a-b-db, 14, 2, 2, 32, 165, 90, 90, 165, 83, 153, 1, 0.305919
298, 1, wb, attraction, a-b-da, 2, 2, 2, 33, 165, 90, 90, 165, 163, 89, 1, 0.603829
298, 1, wb, attraction, a-b-da, 2, 2, 2, 33, 165, 90, 90, 165, 163, 89, 2, 0.554814
298, 1, wb, filler, NA, 999, 999, 2, 34, 169, 56, 136, 70, 130, 154, 1, 0.690583
298, 1, wb, filler, NA, 999, 999, 2, 34, 169, 56, 136, 70, 130, 154, 3, 0.285686
298, 1, wb, attraction, a-b-da, 5, 1, 2, 35, 135, 60, 60, 135, 132, 58, 1, 0.848377
298, 1, wb, attraction, a-b-da, 5, 1, 2, 35, 135, 60, 60, 135, 132, 58, 2, 0.573329
298, 1, wb, filler, NA, 999, 999, 2, 36, 133, 100, 152, 105, 97, 188, 1, 0.803699
298, 1, wb, filler, NA, 999, 999, 2, 36, 133, 100, 152, 105, 97, 188, 2, 0.250702
298, 1, wb, attraction, a-b-da, 2, 1, 2, 37, 134, 59, 60, 135, 135, 60, 1, 0.574618
298, 1, wb, attraction, a-b-da, 2, 1, 2, 37, 134, 59, 60, 135, 135, 60, 2, 0.354023
298, 1, wb, filler, NA, 999, 999, 3, 1, 170, 104, 135, 143, 85, 187, 1, 0.782259
298, 1, wb, filler, NA, 999, 999, 3, 1, 170, 104, 135, 143, 85, 187, 2, 0.533999
298, 1, wb, attraction, a-b-db, 9, 1, 3, 2, 57, 129, 60, 135, 135, 60, 3, 0.990495
298, 1, wb, attraction, a-b-db, 9, 1, 3, 2, 57, 129, 60, 135, 135, 60, 2, 0.525497
298, 1, wb, filler, NA, 999, 999, 3, 3, 184, 183, 175, 185, 168, 163, 3, 0.805846
298, 1, wb, filler, NA, 999, 999, 3, 3, 184, 183, 175, 185, 168, 163, 2, 0.284263
298, 1, wb, attraction, a-b-da, 5, 2, 3, 4, 165, 90, 161, 88, 90, 165, 1, 0.86279
298, 1, wb, attraction, a-b-da, 5, 2, 3, 4, 165, 90, 161, 88, 90, 165, 2, 0.275187
298, 1, wb, filler, NA, 999, 999, 3, 5, 182, 194, 194, 70, 56, 128, 3, 0.701698
298, 1, wb, filler, NA, 999, 999, 3, 5, 182, 194, 194, 70, 56, 128, 1, 0.232747
298, 1, wb, filler, NA, 999, 999, 3, 6, 75, 104, 101, 186, 151, 63, 1, 1.34133
298, 1, wb, filler, NA, 999, 999, 3, 6, 75, 104, 101, 186, 151, 63, 2, 0.334145
298, 1, wb, attraction, a-b-db, 5, 1, 3, 7, 58, 132, 135, 60, 60, 135, 3, 0.62269
298, 1, wb, attraction, a-b-db, 5, 1, 3, 7, 58, 132, 135, 60, 60, 135, 2, 0.308447
298, 1, wb, attraction, a-b-da, 14, 2, 3, 8, 90, 165, 165, 90, 153, 83, 3, 0.565578
298, 1, wb, attraction, a-b-da, 14, 2, 3, 8, 90, 165, 165, 90, 153, 83, 2, 0.334079
298, 1, wb, attraction, a-b-da, 5, 3, 3, 9, 195, 120, 190, 117, 120, 195, 1, 0.894551
298, 1, wb, attraction, a-b-da, 5, 3, 3, 9, 195, 120, 190, 117, 120, 195, 2, 0.265588
298, 1, wb, filler, NA, 999, 999, 3, 10, 114, 104, 136, 66, 60, 97, 3, 0.588747
298, 1, wb, filler, NA, 999, 999, 3, 10, 114, 104, 136, 66, 60, 97, 1, 0.523929
298, 1, wb, attraction, a-b-db, 5, 3, 3, 11, 195, 120, 120, 195, 117, 190, 1, 0.844359
298, 1, wb, attraction, a-b-db, 5, 3, 3, 11, 195, 120, 120, 195, 117, 190, 2, 0.297381
298, 1, wb, attraction, a-b-da, 2, 1, 3, 12, 60, 135, 135, 60, 134, 59, 3, 0.723253
298, 1, wb, attraction, a-b-da, 2, 1, 3, 12, 60, 135, 135, 60, 134, 59, 1, 0.45305
298, 1, wb, attraction, a-b-db, 2, 3, 3, 13, 120, 195, 119, 193, 195, 120, 1, 0.720827
298, 1, wb, attraction, a-b-db, 2, 3, 3, 13, 120, 195, 119, 193, 195, 120, 3, 0.987244
298, 1, wb, attraction, a-b-da, 2, 3, 3, 14, 193, 119, 195, 120, 120, 195, 1, 0.54556
298, 1, wb, attraction, a-b-da, 2, 3, 3, 14, 193, 119, 195, 120, 120, 195, 2, 0.530628
298, 1, wb, filler, NA, 999, 999, 3, 15, 156, 61, 181, 179, 158, 160, 1, 0.739034
298, 1, wb, filler, NA, 999, 999, 3, 15, 156, 61, 181, 179, 158, 160, 2, 0.332199
298, 1, wb, catch, NA, 999, 999, 3, 16, 115, 80, 121, 134, 128, 187, 1, 0.500768
298, 1, wb, catch, NA, 999, 999, 3, 16, 115, 80, 121, 134, 128, 187, 3, 0.5999
298, 1, wb, attraction, a-b-da, 9, 2, 3, 17, 157, 86, 90, 165, 165, 90, 1, 0.725547
298, 1, wb, attraction, a-b-da, 9, 2, 3, 17, 157, 86, 90, 165, 165, 90, 2, 0.45542
298, 1, wb, filler, NA, 999, 999, 3, 18, 142, 152, 62, 123, 63, 95, 3, 1.12311
298, 1, wb, filler, NA, 999, 999, 3, 18, 142, 152, 62, 123, 63, 95, 1, 0.388869
298, 1, wb, attraction, a-b-db, 14, 1, 3, 19, 60, 135, 56, 125, 135, 60, 2, 1.01927
298, 1, wb, attraction, a-b-db, 14, 1, 3, 19, 60, 135, 56, 125, 135, 60, 3, 0.441546
298, 1, wb, attraction, a-b-db, 14, 3, 3, 20, 120, 195, 111, 181, 195, 120, 1, 0.589346
298, 1, wb, attraction, a-b-db, 14, 3, 3, 20, 120, 195, 111, 181, 195, 120, 3, 0.540448
298, 1, wb, attraction, a-b-da, 14, 1, 3, 21, 125, 56, 135, 60, 60, 135, 1, 0.556255
298, 1, wb, attraction, a-b-da, 14, 1, 3, 21, 125, 56, 135, 60, 60, 135, 2, 0.476736
298, 1, wb, filler, NA, 999, 999, 3, 22, 168, 185, 183, 172, 189, 139, 3, 0.727265
298, 1, wb, filler, NA, 999, 999, 3, 22, 168, 185, 183, 172, 189, 139, 1, 0.296935
298, 1, wb, attraction, a-b-db, 5, 2, 3, 23, 90, 165, 165, 90, 88, 161, 2, 0.634773
298, 1, wb, attraction, a-b-db, 5, 2, 3, 23, 90, 165, 165, 90, 88, 161, 3, 0.320568
298, 1, wb, attraction, a-b-db, 2, 1, 3, 24, 59, 134, 60, 135, 135, 60, 1, 0.673793
298, 1, wb, attraction, a-b-db, 2, 1, 3, 24, 59, 134, 60, 135, 135, 60, 3, 0.757497
298, 1, wb, attraction, a-b-da, 9, 3, 3, 25, 195, 120, 120, 195, 186, 114, 1, 0.628608
298, 1, wb, attraction, a-b-da, 9, 3, 3, 25, 195, 120, 120, 195, 186, 114, 2, 0.546404
298, 1, wb, attraction, a-b-db, 2, 2, 3, 26, 89, 163, 165, 90, 90, 165, 1, 0.450094
298, 1, wb, attraction, a-b-db, 2, 2, 3, 26, 89, 163, 165, 90, 90, 165, 2, 0.471401
298, 1, wb, attraction, a-b-da, 9, 1, 3, 27, 135, 60, 60, 135, 129, 57, 1, 0.530358
298, 1, wb, attraction, a-b-da, 9, 1, 3, 27, 135, 60, 60, 135, 129, 57, 2, 0.492254
298, 1, wb, attraction, a-b-da, 2, 2, 3, 28, 163, 89, 165, 90, 90, 165, 1, 1.038
298, 1, wb, attraction, a-b-da, 2, 2, 3, 28, 163, 89, 165, 90, 90, 165, 2, 0.387646
298, 1, wb, attraction, a-b-da, 5, 1, 3, 29, 60, 135, 135, 60, 132, 58, 3, 1.15415
298, 1, wb, attraction, a-b-da, 5, 1, 3, 29, 60, 135, 135, 60, 132, 58, 1, 0.555168
298, 1, wb, filler, NA, 999, 999, 3, 30, 75, 193, 92, 82, 132, 181, 2, 0.698873
298, 1, wb, filler, NA, 999, 999, 3, 30, 75, 193, 92, 82, 132, 181, 3, 0.638007
298, 1, wb, attraction, a-b-da, 14, 3, 3, 31, 120, 195, 181, 111, 195, 120, 1, 0.514291
298, 1, wb, attraction, a-b-da, 14, 3, 3, 31, 120, 195, 181, 111, 195, 120, 2, 0.60482
298, 1, wb, attraction, a-b-db, 14, 2, 3, 32, 165, 90, 90, 165, 83, 153, 1, 0.522526
298, 1, wb, attraction, a-b-db, 14, 2, 3, 32, 165, 90, 90, 165, 83, 153, 2, 0.388344
298, 1, wb, catch, NA, 999, 999, 3, 33, 136, 119, 168, 147, 107, 88, 1, 0.378967
298, 1, wb, catch, NA, 999, 999, 3, 33, 136, 119, 168, 147, 107, 88, 3, 1.0427
298, 1, wb, filler, NA, 999, 999, 3, 34, 111, 190, 134, 140, 120, 113, 1, 1.07839
298, 1, wb, filler, NA, 999, 999, 3, 34, 111, 190, 134, 140, 120, 113, 2, 0.321995
298, 1, wb, attraction, a-b-db, 9, 3, 3, 35, 120, 195, 195, 120, 114, 186, 3, 0.75511
298, 1, wb, attraction, a-b-db, 9, 3, 3, 35, 120, 195, 195, 120, 114, 186, 2, 0.363489
298, 1, wb, attraction, a-b-db, 9, 2, 3, 36, 90, 165, 86, 157, 165, 90, 1, 0.850878
298, 1, wb, attraction, a-b-db, 9, 2, 3, 36, 90, 165, 86, 157, 165, 90, 3, 0.719856
298, 1, wb, catch, NA, 999, 999, 3, 37, 60, 135, 98, 157, 142, 173, 1, 0.632892
298, 1, wb, catch, NA, 999, 999, 3, 37, 60, 135, 98, 157, 142, 173, 3, 0.29453
298, 1, wb, attraction, a-b-db, 2, 2, 4, 1, 90, 165, 165, 90, 89, 163, 1, 0.528417
298, 1, wb, attraction, a-b-db, 2, 2, 4, 1, 90, 165, 165, 90, 89, 163, 2, 0.474276
298, 1, wb, attraction, a-b-db, 14, 1, 4, 2, 60, 135, 56, 125, 135, 60, 3, 0.812748
298, 1, wb, attraction, a-b-db, 14, 1, 4, 2, 60, 135, 56, 125, 135, 60, 2, 0.339097
298, 1, wb, attraction, a-b-da, 9, 2, 4, 3, 157, 86, 165, 90, 90, 165, 1, 0.579597
298, 1, wb, attraction, a-b-da, 9, 2, 4, 3, 157, 86, 165, 90, 90, 165, 2, 0.275361
298, 1, wb, catch, NA, 999, 999, 4, 4, 91, 104, 117, 138, 193, 122, 1, 1.31791
298, 1, wb, catch, NA, 999, 999, 4, 4, 91, 104, 117, 138, 193, 122, 3, 0.592233
298, 1, wb, catch, NA, 999, 999, 4, 5, 123, 192, 135, 60, 108, 147, 2, 0.965968
298, 1, wb, catch, NA, 999, 999, 4, 5, 123, 192, 135, 60, 108, 147, 1, 0.694136
298, 1, wb, filler, NA, 999, 999, 4, 6, 157, 167, 183, 144, 85, 76, 3, 0.975877
298, 1, wb, filler, NA, 999, 999, 4, 6, 157, 167, 183, 144, 85, 76, 2, 0.695632
298, 1, wb, filler, NA, 999, 999, 4, 7, 157, 102, 164, 190, 70, 123, 3, 0.801294
298, 1, wb, filler, NA, 999, 999, 4, 7, 157, 102, 164, 190, 70, 123, 2, 0.384369
298, 1, wb, attraction, a-b-db, 5, 2, 4, 8, 90, 165, 165, 90, 88, 161, 3, 0.734877
298, 1, wb, attraction, a-b-db, 5, 2, 4, 8, 90, 165, 165, 90, 88, 161, 2, 0.424596
298, 1, wb, filler, NA, 999, 999, 4, 9, 165, 93, 113, 166, 166, 192, 3, 0.429048
298, 1, wb, filler, NA, 999, 999, 4, 9, 165, 93, 113, 166, 166, 192, 2, 0.882975
298, 1, wb, filler, NA, 999, 999, 4, 10, 166, 119, 125, 109, 147, 66, 3, 0.89327
298, 1, wb, filler, NA, 999, 999, 4, 10, 166, 119, 125, 109, 147, 66, 1, 0.304254
298, 1, wb, attraction, a-b-da, 14, 3, 4, 11, 195, 120, 120, 195, 181, 111, 1, 0.786246
298, 1, wb, attraction, a-b-da, 14, 3, 4, 11, 195, 120, 120, 195, 181, 111, 2, 0.569893
298, 1, wb, attraction, a-b-da, 5, 2, 4, 12, 165, 90, 90, 165, 161, 88, 2, 4.2091
298, 1, wb, attraction, a-b-da, 5, 2, 4, 12, 165, 90, 90, 165, 161, 88, 3, 0.390343
298, 1, wb, attraction, a-b-da, 9, 1, 4, 13, 60, 135, 135, 60, 129, 57, 2, 1.12407
298, 1, wb, attraction, a-b-da, 9, 1, 4, 13, 60, 135, 135, 60, 129, 57, 3, 0.557901
298, 1, wb, filler, NA, 999, 999, 4, 14, 73, 138, 101, 125, 151, 95, 1, 1.30887
298, 1, wb, filler, NA, 999, 999, 4, 14, 73, 138, 101, 125, 151, 95, 2, 0.663057
298, 1, wb, attraction, a-b-da, 2, 3, 4, 15, 195, 120, 193, 119, 120, 195, 1, 0.490215
298, 1, wb, attraction, a-b-da, 2, 3, 4, 15, 195, 120, 193, 119, 120, 195, 2, 0.325317
298, 1, wb, attraction, a-b-db, 2, 1, 4, 16, 59, 134, 135, 60, 60, 135, 1, 0.69372
298, 1, wb, attraction, a-b-db, 2, 1, 4, 16, 59, 134, 135, 60, 60, 135, 2, 0.280989
298, 1, wb, attraction, a-b-db, 9, 1, 4, 17, 60, 135, 57, 129, 135, 60, 3, 0.779423
298, 1, wb, attraction, a-b-db, 9, 1, 4, 17, 60, 135, 57, 129, 135, 60, 2, 0.347096
298, 1, wb, attraction, a-b-da, 14, 2, 4, 18, 153, 83, 90, 165, 165, 90, 3, 0.570978
298, 1, wb, attraction, a-b-da, 14, 2, 4, 18, 153, 83, 90, 165, 165, 90, 2, 0.499395
298, 1, wb, attraction, a-b-db, 2, 3, 4, 19, 195, 120, 120, 195, 119, 193, 1, 0.501135
298, 1, wb, attraction, a-b-db, 2, 3, 4, 19, 195, 120, 120, 195, 119, 193, 2, 0.344501
298, 1, wb, attraction, a-b-da, 2, 1, 4, 20, 60, 135, 134, 59, 135, 60, 2, 0.792146
298, 1, wb, attraction, a-b-da, 2, 1, 4, 20, 60, 135, 134, 59, 135, 60, 3, 0.335242
298, 1, wb, filler, NA, 999, 999, 4, 21, 140, 74, 183, 85, 164, 139, 1, 0.567867
298, 1, wb, filler, NA, 999, 999, 4, 21, 140, 74, 183, 85, 164, 139, 2, 0.336246
298, 1, wb, attraction, a-b-da, 9, 3, 4, 22, 120, 195, 186, 114, 195, 120, 1, 0.496726
298, 1, wb, attraction, a-b-da, 9, 3, 4, 22, 120, 195, 186, 114, 195, 120, 2, 0.331863
298, 1, wb, attraction, a-b-db, 9, 2, 4, 23, 165, 90, 90, 165, 86, 157, 3, 0.468406
298, 1, wb, attraction, a-b-db, 9, 2, 4, 23, 165, 90, 90, 165, 86, 157, 2, 0.344939
298, 1, wb, catch, NA, 999, 999, 4, 24, 70, 125, 174, 141, 90, 165, 1, 0.87273
298, 1, wb, catch, NA, 999, 999, 4, 24, 70, 125, 174, 141, 90, 165, 2, 0.284508
298, 1, wb, attraction, a-b-da, 5, 1, 4, 25, 135, 60, 60, 135, 132, 58, 1, 0.462878
298, 1, wb, attraction, a-b-da, 5, 1, 4, 25, 135, 60, 60, 135, 132, 58, 2, 0.403387
298, 1, wb, attraction, a-b-da, 5, 3, 4, 26, 120, 195, 195, 120, 190, 117, 1, 0.625222
298, 1, wb, attraction, a-b-da, 5, 3, 4, 26, 120, 195, 195, 120, 190, 117, 2, 0.631
298, 1, wb, filler, NA, 999, 999, 4, 27, 154, 58, 179, 153, 106, 132, 1, 0.747371
298, 1, wb, filler, NA, 999, 999, 4, 27, 154, 58, 179, 153, 106, 132, 2, 0.316553
298, 1, wb, attraction, a-b-db, 14, 3, 4, 28, 120, 195, 111, 181, 195, 120, 1, 0.493691
298, 1, wb, attraction, a-b-db, 14, 3, 4, 28, 120, 195, 111, 181, 195, 120, 2, 0.656795
298, 1, wb, attraction, a-b-da, 2, 2, 4, 29, 90, 165, 165, 90, 163, 89, 1, 0.187805
298, 1, wb, attraction, a-b-da, 2, 2, 4, 29, 90, 165, 165, 90, 163, 89, 2, 0.339783
298, 1, wb, attraction, a-b-db, 5, 1, 4, 30, 58, 132, 135, 60, 60, 135, 1, 0.39634
298, 1, wb, attraction, a-b-db, 5, 1, 4, 30, 58, 132, 135, 60, 60, 135, 2, 0.571508
298, 1, wb, attraction, a-b-db, 14, 2, 4, 31, 90, 165, 83, 153, 165, 90, 1, 0.442618
298, 1, wb, attraction, a-b-db, 14, 2, 4, 31, 90, 165, 83, 153, 165, 90, 2, 0.343869
298, 1, wb, attraction, a-b-da, 14, 1, 4, 32, 125, 56, 60, 135, 135, 60, 1, 0.645028
298, 1, wb, attraction, a-b-da, 14, 1, 4, 32, 125, 56, 60, 135, 135, 60, 2, 0.452749
298, 1, wb, attraction, a-b-db, 5, 3, 4, 33, 117, 190, 120, 195, 195, 120, 1, 0.416497
298, 1, wb, attraction, a-b-db, 5, 3, 4, 33, 117, 190, 120, 195, 195, 120, 2, 0.25502
298, 1, wb, filler, NA, 999, 999, 4, 34, 94, 107, 64, 78, 68, 186, 2, 0.914925
298, 1, wb, filler, NA, 999, 999, 4, 34, 94, 107, 64, 78, 68, 186, 1, 0.565223
298, 1, wb, filler, NA, 999, 999, 4, 35, 138, 184, 69, 82, 77, 66, 3, 0.612339
298, 1, wb, filler, NA, 999, 999, 4, 35, 138, 184, 69, 82, 77, 66, 1, 0.450789
298, 1, wb, attraction, a-b-db, 9, 3, 4, 36, 114, 186, 195, 120, 120, 195, 2, 0.510689
298, 1, wb, attraction, a-b-db, 9, 3, 4, 36, 114, 186, 195, 120, 120, 195, 3, 0.441073
298, 1, wb, filler, NA, 999, 999, 4, 37, 121, 190, 95, 155, 94, 110, 3, 0.780904
298, 1, wb, filler, NA, 999, 999, 4, 37, 121, 190, 95, 155, 94, 110, 1, 0.260595
298, 1, wb, filler, NA, 999, 999, 5, 1, 172, 158, 62, 189, 103, 194, 2, 3.11039
298, 1, wb, filler, NA, 999, 999, 5, 1, 172, 158, 62, 189, 103, 194, 1, 0.584102
298, 1, wb, attraction, a-b-db, 14, 2, 5, 2, 165, 90, 83, 153, 90, 165, 1, 1.85447
298, 1, wb, attraction, a-b-db, 14, 2, 5, 2, 165, 90, 83, 153, 90, 165, 2, 0.307238
298, 1, wb, attraction, a-b-db, 14, 1, 5, 3, 135, 60, 60, 135, 56, 125, 1, 0.628417
298, 1, wb, attraction, a-b-db, 14, 1, 5, 3, 135, 60, 60, 135, 56, 125, 2, 0.538183
298, 1, wb, filler, NA, 999, 999, 5, 4, 94, 166, 119, 191, 93, 97, 3, 0.978603
298, 1, wb, filler, NA, 999, 999, 5, 4, 94, 166, 119, 191, 93, 97, 2, 0.234287
298, 1, wb, filler, NA, 999, 999, 5, 5, 180, 172, 133, 131, 149, 116, 3, 0.422837
298, 1, wb, filler, NA, 999, 999, 5, 5, 180, 172, 133, 131, 149, 116, 2, 0.324645
298, 1, wb, attraction, a-b-db, 2, 1, 5, 6, 60, 135, 59, 134, 135, 60, 1, 0.725172
298, 1, wb, attraction, a-b-db, 2, 1, 5, 6, 60, 135, 59, 134, 135, 60, 2, 0.606978
298, 1, wb, attraction, a-b-da, 5, 2, 5, 7, 165, 90, 161, 88, 90, 165, 1, 0.468047
298, 1, wb, attraction, a-b-da, 5, 2, 5, 7, 165, 90, 161, 88, 90, 165, 2, 0.296453
298, 1, wb, attraction, a-b-db, 9, 2, 5, 8, 86, 157, 165, 90, 90, 165, 1, 0.746394
298, 1, wb, attraction, a-b-db, 9, 2, 5, 8, 86, 157, 165, 90, 90, 165, 2, 0.299453
298, 1, wb, attraction, a-b-db, 5, 3, 5, 9, 117, 190, 195, 120, 120, 195, 1, 0.445267
298, 1, wb, attraction, a-b-db, 5, 3, 5, 9, 117, 190, 195, 120, 120, 195, 2, 0.282436
298, 1, wb, filler, NA, 999, 999, 5, 10, 174, 158, 148, 112, 76, 185, 3, 0.860967
298, 1, wb, filler, NA, 999, 999, 5, 10, 174, 158, 148, 112, 76, 185, 1, 0.305467
298, 1, wb, attraction, a-b-da, 14, 1, 5, 11, 125, 56, 135, 60, 60, 135, 2, 0.795189
298, 1, wb, attraction, a-b-da, 14, 1, 5, 11, 125, 56, 135, 60, 60, 135, 3, 0.642191
298, 1, wb, catch, NA, 999, 999, 5, 12, 116, 139, 174, 141, 130, 65, 3, 1.02995
298, 1, wb, catch, NA, 999, 999, 5, 12, 116, 139, 174, 141, 130, 65, 2, 0.467695
298, 1, wb, filler, NA, 999, 999, 5, 13, 57, 75, 160, 118, 137, 73, 1, 0.734679
298, 1, wb, filler, NA, 999, 999, 5, 13, 57, 75, 160, 118, 137, 73, 2, 0.304487
298, 1, wb, filler, NA, 999, 999, 5, 14, 97, 165, 62, 184, 59, 159, 3, 0.754334
298, 1, wb, filler, NA, 999, 999, 5, 14, 97, 165, 62, 184, 59, 159, 1, 0.315377
298, 1, wb, attraction, a-b-db, 9, 1, 5, 15, 135, 60, 60, 135, 57, 129, 3, 0.732641
298, 1, wb, attraction, a-b-db, 9, 1, 5, 15, 135, 60, 60, 135, 57, 129, 1, 0.414379
298, 1, wb, attraction, a-b-db, 9, 3, 5, 16, 120, 195, 195, 120, 114, 186, 3, 0.883462
298, 1, wb, attraction, a-b-db, 9, 3, 5, 16, 120, 195, 195, 120, 114, 186, 2, 0.311167
298, 1, wb, attraction, a-b-da, 9, 2, 5, 17, 157, 86, 165, 90, 90, 165, 3, 0.680355
298, 1, wb, attraction, a-b-da, 9, 2, 5, 17, 157, 86, 165, 90, 90, 165, 2, 0.572096
298, 1, wb, filler, NA, 999, 999, 5, 18, 87, 96, 56, 166, 99, 173, 1, 0.651196
298, 1, wb, filler, NA, 999, 999, 5, 18, 87, 96, 56, 166, 99, 173, 3, 0.392335
298, 1, wb, attraction, a-b-da, 5, 3, 5, 19, 120, 195, 190, 117, 195, 120, 3, 1.04621
298, 1, wb, attraction, a-b-da, 5, 3, 5, 19, 120, 195, 190, 117, 195, 120, 2, 0.315172
298, 1, wb, attraction, a-b-db, 2, 3, 5, 20, 195, 120, 119, 193, 120, 195, 1, 0.556322
298, 1, wb, attraction, a-b-db, 2, 3, 5, 20, 195, 120, 119, 193, 120, 195, 2, 0.372748
298, 1, wb, attraction, a-b-da, 9, 3, 5, 21, 195, 120, 120, 195, 186, 114, 3, 1.33994
298, 1, wb, attraction, a-b-da, 9, 3, 5, 21, 195, 120, 120, 195, 186, 114, 2, 0.588992
298, 1, wb, catch, NA, 999, 999, 5, 22, 83, 112, 179, 136, 134, 121, 1, 0.675291
298, 1, wb, catch, NA, 999, 999, 5, 22, 83, 112, 179, 136, 134, 121, 2, 0.335026
298, 1, wb, catch, NA, 999, 999, 5, 23, 63, 132, 169, 146, 154, 101, 1, 0.479485
298, 1, wb, catch, NA, 999, 999, 5, 23, 63, 132, 169, 146, 154, 101, 2, 0.27538
298, 1, wb, attraction, a-b-da, 5, 1, 5, 24, 135, 60, 132, 58, 60, 135, 1, 0.589839
298, 1, wb, attraction, a-b-da, 5, 1, 5, 24, 135, 60, 132, 58, 60, 135, 2, 0.340992
298, 1, wb, attraction, a-b-db, 5, 1, 5, 25, 58, 132, 135, 60, 60, 135, 1, 0.540906
298, 1, wb, attraction, a-b-db, 5, 1, 5, 25, 58, 132, 135, 60, 60, 135, 2, 0.39002
298, 1, wb, attraction, a-b-da, 2, 2, 5, 26, 90, 165, 165, 90, 163, 89, 1, 1.0118
298, 1, wb, attraction, a-b-da, 2, 2, 5, 26, 90, 165, 165, 90, 163, 89, 2, 0.282092
298, 1, wb, attraction, a-b-db, 5, 2, 5, 27, 88, 161, 90, 165, 165, 90, 1, 0.812688
298, 1, wb, attraction, a-b-db, 5, 2, 5, 27, 88, 161, 90, 165, 165, 90, 2, 1.051
298, 1, wb, attraction, a-b-da, 14, 3, 5, 28, 120, 195, 195, 120, 181, 111, 3, 0.550601
298, 1, wb, attraction, a-b-da, 14, 3, 5, 28, 120, 195, 195, 120, 181, 111, 2, 0.615764
298, 1, wb, filler, NA, 999, 999, 5, 29, 116, 97, 95, 185, 154, 192, 1, 0.580804
298, 1, wb, filler, NA, 999, 999, 5, 29, 116, 97, 95, 185, 154, 192, 3, 0.692754
298, 1, wb, attraction, a-b-da, 14, 2, 5, 30, 90, 165, 165, 90, 153, 83, 3, 0.718395
298, 1, wb, attraction, a-b-da, 14, 2, 5, 30, 90, 165, 165, 90, 153, 83, 1, 0.256768
298, 1, wb, attraction, a-b-da, 9, 1, 5, 31, 135, 60, 129, 57, 60, 135, 3, 0.651972
298, 1, wb, attraction, a-b-da, 9, 1, 5, 31, 135, 60, 129, 57, 60, 135, 2, 0.361099
298, 1, wb, attraction, a-b-db, 2, 2, 5, 32, 90, 165, 89, 163, 165, 90, 3, 0.848275
298, 1, wb, attraction, a-b-db, 2, 2, 5, 32, 90, 165, 89, 163, 165, 90, 2, 0.413393
298, 1, wb, attraction, a-b-db, 14, 3, 5, 33, 120, 195, 111, 181, 195, 120, 3, 0.674349
298, 1, wb, attraction, a-b-db, 14, 3, 5, 33, 120, 195, 111, 181, 195, 120, 2, 0.358105
298, 1, wb, filler, NA, 999, 999, 5, 34, 61, 102, 179, 160, 99, 103, 1, 1.22606
298, 1, wb, filler, NA, 999, 999, 5, 34, 61, 102, 179, 160, 99, 103, 2, 0.674863
298, 1, wb, attraction, a-b-da, 2, 1, 5, 35, 60, 135, 134, 59, 135, 60, 1, 1.20525
298, 1, wb, attraction, a-b-da, 2, 1, 5, 35, 60, 135, 134, 59, 135, 60, 2, 0.547637
298, 1, wb, filler, NA, 999, 999, 5, 36, 135, 174, 128, 78, 66, 174, 2, 0.96344
298, 1, wb, filler, NA, 999, 999, 5, 36, 135, 174, 128, 78, 66, 174, 1, 0.339671
298, 1, wb, attraction, a-b-da, 2, 3, 5, 37, 193, 119, 120, 195, 195, 120, 3, 0.620295
298, 1, wb, attraction, a-b-da, 2, 3, 5, 37, 193, 119, 120, 195, 195, 120, 2, 0.338648
298, 1, wb, attraction, a-b-da, 14, 2, 6, 1, 153, 83, 165, 90, 90, 165, 2, 0.707143
298, 1, wb, attraction, a-b-da, 14, 2, 6, 1, 153, 83, 165, 90, 90, 165, 3, 0.389572
298, 1, wb, attraction, a-b-da, 5, 1, 6, 2, 135, 60, 132, 58, 60, 135, 2, 1.348
298, 1, wb, attraction, a-b-da, 5, 1, 6, 2, 135, 60, 132, 58, 60, 135, 3, 0.636904
298, 1, wb, attraction, a-b-db, 5, 2, 6, 3, 90, 165, 165, 90, 88, 161, 2, 0.809365
298, 1, wb, attraction, a-b-db, 5, 2, 6, 3, 90, 165, 165, 90, 88, 161, 3, 0.383794
298, 1, wb, attraction, a-b-db, 9, 1, 6, 4, 57, 129, 60, 135, 135, 60, 2, 0.862271
298, 1, wb, attraction, a-b-db, 9, 1, 6, 4, 57, 129, 60, 135, 135, 60, 3, 0.674622
298, 1, wb, attraction, a-b-da, 5, 3, 6, 5, 190, 117, 195, 120, 120, 195, 2, 1.17304
298, 1, wb, attraction, a-b-da, 5, 3, 6, 5, 190, 117, 195, 120, 120, 195, 3, 0.340527
298, 1, wb, filler, NA, 999, 999, 6, 6, 146, 133, 176, 109, 100, 109, 3, 1.42045
298, 1, wb, filler, NA, 999, 999, 6, 6, 146, 133, 176, 109, 100, 109, 1, 0.394642
298, 1, wb, attraction, a-b-db, 9, 3, 6, 7, 195, 120, 120, 195, 114, 186, 1, 1.36044
298, 1, wb, attraction, a-b-db, 9, 3, 6, 7, 195, 120, 120, 195, 114, 186, 3, 0.352646
298, 1, wb, attraction, a-b-db, 2, 2, 6, 8, 165, 90, 89, 163, 90, 165, 1, 0.616564
298, 1, wb, attraction, a-b-db, 2, 2, 6, 8, 165, 90, 89, 163, 90, 165, 3, 0.406901
298, 1, wb, filler, NA, 999, 999, 6, 9, 137, 181, 111, 76, 64, 114, 3, 1.18803
298, 1, wb, filler, NA, 999, 999, 6, 9, 137, 181, 111, 76, 64, 114, 1, 0.259085
298, 1, wb, attraction, a-b-db, 5, 1, 6, 10, 60, 135, 135, 60, 58, 132, 2, 1.28614
298, 1, wb, attraction, a-b-db, 5, 1, 6, 10, 60, 135, 135, 60, 58, 132, 3, 0.465735
298, 1, wb, filler, NA, 999, 999, 6, 11, 174, 125, 179, 154, 154, 141, 2, 0.572804
298, 1, wb, filler, NA, 999, 999, 6, 11, 174, 125, 179, 154, 154, 141, 1, 0.844611
298, 1, wb, filler, NA, 999, 999, 6, 12, 104, 145, 78, 154, 148, 107, 2, 0.880527
298, 1, wb, filler, NA, 999, 999, 6, 12, 104, 145, 78, 154, 148, 107, 3, 0.316013
298, 1, wb, attraction, a-b-db, 14, 3, 6, 13, 111, 181, 120, 195, 195, 120, 2, 0.813266
298, 1, wb, attraction, a-b-db, 14, 3, 6, 13, 111, 181, 120, 195, 195, 120, 3, 0.347632
298, 1, wb, filler, NA, 999, 999, 6, 14, 93, 159, 172, 163, 113, 95, 3, 1.20349
298, 1, wb, filler, NA, 999, 999, 6, 14, 93, 159, 172, 163, 113, 95, 2, 0.346388
298, 1, wb, attraction, a-b-db, 9, 2, 6, 15, 90, 165, 86, 157, 165, 90, 2, 2.09823
298, 1, wb, attraction, a-b-db, 9, 2, 6, 15, 90, 165, 86, 157, 165, 90, 3, 0.332939
298, 1, wb, attraction, a-b-db, 14, 2, 6, 16, 83, 153, 90, 165, 165, 90, 2, 0.525379
298, 1, wb, attraction, a-b-db, 14, 2, 6, 16, 83, 153, 90, 165, 165, 90, 3, 0.487312
298, 1, wb, catch, NA, 999, 999, 6, 17, 134, 181, 133, 122, 122, 73, 3, 1.54566
298, 1, wb, catch, NA, 999, 999, 6, 17, 134, 181, 133, 122, 122, 73, 1, 0.450454
298, 1, wb, attraction, a-b-da, 14, 1, 6, 18, 60, 135, 125, 56, 135, 60, 2, 0.870259
298, 1, wb, attraction, a-b-da, 14, 1, 6, 18, 60, 135, 125, 56, 135, 60, 3, 0.338657
298, 1, wb, filler, NA, 999, 999, 6, 19, 119, 174, 188, 169, 56, 75, 3, 0.883123
298, 1, wb, filler, NA, 999, 999, 6, 19, 119, 174, 188, 169, 56, 75, 2, 0.270864
298, 1, wb, filler, NA, 999, 999, 6, 20, 136, 175, 110, 151, 108, 151, 3, 0.922004
298, 1, wb, filler, NA, 999, 999, 6, 20, 136, 175, 110, 151, 108, 151, 2, 0.243815
298, 1, wb, attraction, a-b-db, 5, 3, 6, 21, 120, 195, 195, 120, 117, 190, 3, 0.879663
298, 1, wb, attraction, a-b-db, 5, 3, 6, 21, 120, 195, 195, 120, 117, 190, 2, 0.347395
298, 1, wb, filler, NA, 999, 999, 6, 22, 171, 64, 186, 190, 94, 180, 1, 0.811076
298, 1, wb, filler, NA, 999, 999, 6, 22, 171, 64, 186, 190, 94, 180, 2, 0.305486
298, 1, wb, attraction, a-b-da, 2, 1, 6, 23, 60, 135, 135, 60, 134, 59, 3, 1.29147
298, 1, wb, attraction, a-b-da, 2, 1, 6, 23, 60, 135, 135, 60, 134, 59, 2, 0.502282
298, 1, wb, filler, NA, 999, 999, 6, 24, 92, 172, 134, 117, 187, 179, 2, 0.472037
298, 1, wb, filler, NA, 999, 999, 6, 24, 92, 172, 134, 117, 187, 179, 3, 0.339879
298, 1, wb, attraction, a-b-da, 14, 3, 6, 25, 195, 120, 120, 195, 181, 111, 2, 0.563668
298, 1, wb, attraction, a-b-da, 14, 3, 6, 25, 195, 120, 120, 195, 181, 111, 3, 0.46828
298, 1, wb, attraction, a-b-da, 5, 2, 6, 26, 161, 88, 165, 90, 90, 165, 2, 0.615272
298, 1, wb, attraction, a-b-da, 5, 2, 6, 26, 161, 88, 165, 90, 90, 165, 1, 0.301739
298, 1, wb, attraction, a-b-da, 9, 3, 6, 27, 195, 120, 186, 114, 120, 195, 3, 0.671586
298, 1, wb, attraction, a-b-da, 9, 3, 6, 27, 195, 120, 186, 114, 120, 195, 2, 0.35531
298, 1, wb, attraction, a-b-da, 2, 3, 6, 28, 120, 195, 195, 120, 193, 119, 3, 0.515232
298, 1, wb, attraction, a-b-da, 2, 3, 6, 28, 120, 195, 195, 120, 193, 119, 2, 0.349709
298, 1, wb, attraction, a-b-db, 14, 1, 6, 29, 60, 135, 135, 60, 56, 125, 3, 0.509444
298, 1, wb, attraction, a-b-db, 14, 1, 6, 29, 60, 135, 135, 60, 56, 125, 2, 0.327947
298, 1, wb, attraction, a-b-db, 2, 1, 6, 30, 59, 134, 135, 60, 60, 135, 1, 0.424454
298, 1, wb, attraction, a-b-db, 2, 1, 6, 30, 59, 134, 135, 60, 60, 135, 2, 0.766247
298, 1, wb, filler, NA, 999, 999, 6, 31, 127, 97, 88, 114, 159, 73, 1, 0.461306
298, 1, wb, filler, NA, 999, 999, 6, 31, 127, 97, 88, 114, 159, 73, 2, 0.465803
298, 1, wb, attraction, a-b-db, 2, 3, 6, 32, 195, 120, 120, 195, 119, 193, 1, 0.612891
298, 1, wb, attraction, a-b-db, 2, 3, 6, 32, 195, 120, 120, 195, 119, 193, 2, 0.307484
298, 1, wb, attraction, a-b-da, 2, 2, 6, 33, 163, 89, 90, 165, 165, 90, 1, 0.684547
298, 1, wb, attraction, a-b-da, 2, 2, 6, 33, 163, 89, 90, 165, 165, 90, 2, 0.328456
298, 1, wb, attraction, a-b-da, 9, 1, 6, 34, 60, 135, 135, 60, 129, 57, 1, 0.504822
298, 1, wb, attraction, a-b-da, 9, 1, 6, 34, 60, 135, 135, 60, 129, 57, 2, 0.379413
298, 1, wb, attraction, a-b-da, 9, 2, 6, 35, 165, 90, 157, 86, 90, 165, 3, 0.873814
298, 1, wb, attraction, a-b-da, 9, 2, 6, 35, 165, 90, 157, 86, 90, 165, 2, 0.30956
298, 1, wb, catch, NA, 999, 999, 6, 36, 123, 72, 166, 149, 151, 104, 1, 0.814702
298, 1, wb, catch, NA, 999, 999, 6, 36, 123, 72, 166, 149, 151, 104, 2, 0.333078
298, 1, wb, catch, NA, 999, 999, 6, 37, 115, 80, 121, 134, 141, 174, 1, 0.573578
298, 1, wb, catch, NA, 999, 999, 6, 37, 115, 80, 121, 134, 141, 174, 3, 0.725338
298, 1, wb, attraction, a-b-db, 14, 2, 7, 1, 165, 90, 83, 153, 90, 165, 1, 0.669809
298, 1, wb, attraction, a-b-db, 14, 2, 7, 1, 165, 90, 83, 153, 90, 165, 2, 0.362297
298, 1, wb, attraction, a-b-db, 2, 2, 7, 2, 90, 165, 165, 90, 89, 163, 1, 0.641332
298, 1, wb, attraction, a-b-db, 2, 2, 7, 2, 90, 165, 165, 90, 89, 163, 2, 0.294489
298, 1, wb, filler, NA, 999, 999, 7, 3, 157, 78, 186, 104, 153, 76, 1, 0.512372
298, 1, wb, filler, NA, 999, 999, 7, 3, 157, 78, 186, 104, 153, 76, 2, 0.506863
298, 1, wb, filler, NA, 999, 999, 7, 4, 65, 66, 154, 186, 102, 132, 1, 0.54798
298, 1, wb, filler, NA, 999, 999, 7, 4, 65, 66, 154, 186, 102, 132, 2, 0.34104
298, 1, wb, attraction, a-b-db, 5, 2, 7, 5, 90, 165, 165, 90, 88, 161, 1, 0.620964
298, 1, wb, attraction, a-b-db, 5, 2, 7, 5, 90, 165, 165, 90, 88, 161, 2, 0.411324
298, 1, wb, catch, NA, 999, 999, 7, 6, 145, 170, 162, 93, 93, 102, 3, 0.888492
298, 1, wb, catch, NA, 999, 999, 7, 6, 145, 170, 162, 93, 93, 102, 1, 0.315474
298, 1, wb, filler, NA, 999, 999, 7, 7, 76, 91, 112, 87, 125, 101, 1, 0.732701
298, 1, wb, filler, NA, 999, 999, 7, 7, 76, 91, 112, 87, 125, 101, 3, 0.358367
298, 1, wb, attraction, a-b-da, 2, 2, 7, 8, 90, 165, 165, 90, 163, 89, 1, 0.437546
298, 1, wb, attraction, a-b-da, 2, 2, 7, 8, 90, 165, 165, 90, 163, 89, 3, 0.347426
298, 1, wb, filler, NA, 999, 999, 7, 9, 63, 102, 132, 185, 118, 171, 1, 0.587296
298, 1, wb, filler, NA, 999, 999, 7, 9, 63, 102, 132, 185, 118, 171, 2, 0.267004
298, 1, wb, attraction, a-b-db, 5, 3, 7, 10, 120, 195, 195, 120, 117, 190, 1, 0.678161
298, 1, wb, attraction, a-b-db, 5, 3, 7, 10, 120, 195, 195, 120, 117, 190, 2, 0.618046
298, 1, wb, catch, NA, 999, 999, 7, 11, 149, 166, 62, 133, 123, 132, 2, 0.535081
298, 1, wb, catch, NA, 999, 999, 7, 11, 149, 166, 62, 133, 123, 132, 1, 0.304873
298, 1, wb, filler, NA, 999, 999, 7, 12, 64, 124, 176, 108, 139, 159, 1, 0.818738
298, 1, wb, filler, NA, 999, 999, 7, 12, 64, 124, 176, 108, 139, 159, 3, 0.313097
298, 1, wb, attraction, a-b-da, 9, 1, 7, 13, 129, 57, 135, 60, 60, 135, 1, 0.722254
298, 1, wb, attraction, a-b-da, 9, 1, 7, 13, 129, 57, 135, 60, 60, 135, 2, 0.316024
298, 1, wb, attraction, a-b-da, 14, 3, 7, 14, 120, 195, 195, 120, 181, 111, 1, 0.565208
298, 1, wb, attraction, a-b-da, 14, 3, 7, 14, 120, 195, 195, 120, 181, 111, 2, 0.317695
298, 1, wb, attraction, a-b-da, 5, 3, 7, 15, 120, 195, 195, 120, 190, 117, 1, 0.502896
298, 1, wb, attraction, a-b-da, 5, 3, 7, 15, 120, 195, 195, 120, 190, 117, 3, 0.394048
298, 1, wb, attraction, a-b-db, 14, 1, 7, 16, 135, 60, 56, 125, 60, 135, 2, 0.751806
298, 1, wb, attraction, a-b-db, 14, 1, 7, 16, 135, 60, 56, 125, 60, 135, 1, 0.265005
298, 1, wb, attraction, a-b-da, 9, 2, 7, 17, 165, 90, 90, 165, 157, 86, 1, 0.492152
298, 1, wb, attraction, a-b-da, 9, 2, 7, 17, 165, 90, 90, 165, 157, 86, 2, 0.25532
298, 1, wb, attraction, a-b-da, 14, 2, 7, 18, 90, 165, 165, 90, 153, 83, 1, 0.403256
298, 1, wb, attraction, a-b-da, 14, 2, 7, 18, 90, 165, 165, 90, 153, 83, 2, 0.290265
298, 1, wb, filler, NA, 999, 999, 7, 19, 92, 160, 65, 116, 129, 177, 1, 0.420161
298, 1, wb, filler, NA, 999, 999, 7, 19, 92, 160, 65, 116, 129, 177, 2, 0.306637
298, 1, wb, attraction, a-b-da, 5, 2, 7, 20, 161, 88, 90, 165, 165, 90, 3, 0.883817
298, 1, wb, attraction, a-b-da, 5, 2, 7, 20, 161, 88, 90, 165, 165, 90, 2, 0.735531
298, 1, wb, filler, NA, 999, 999, 7, 21, 186, 149, 72, 149, 182, 105, 2, 0.615883
298, 1, wb, filler, NA, 999, 999, 7, 21, 186, 149, 72, 149, 182, 105, 1, 0.334453
298, 1, wb, attraction, a-b-db, 9, 3, 7, 22, 114, 186, 120, 195, 195, 120, 3, 1.7669
298, 1, wb, attraction, a-b-db, 9, 3, 7, 22, 114, 186, 120, 195, 195, 120, 2, 0.558998
298, 1, wb, attraction, a-b-da, 5, 1, 7, 23, 60, 135, 132, 58, 135, 60, 1, 1.11812
298, 1, wb, attraction, a-b-da, 5, 1, 7, 23, 60, 135, 132, 58, 135, 60, 2, 0.328334
298, 1, wb, attraction, a-b-db, 2, 3, 7, 24, 195, 120, 120, 195, 119, 193, 1, 0.69682
298, 1, wb, attraction, a-b-db, 2, 3, 7, 24, 195, 120, 120, 195, 119, 193, 2, 0.611976
298, 1, wb, filler, NA, 999, 999, 7, 25, 109, 125, 71, 170, 143, 135, 1, 0.67299
298, 1, wb, filler, NA, 999, 999, 7, 25, 109, 125, 71, 170, 143, 135, 3, 0.524721
298, 1, wb, catch, NA, 999, 999, 7, 26, 68, 127, 153, 102, 176, 139, 1, 0.589151
298, 1, wb, catch, NA, 999, 999, 7, 26, 68, 127, 153, 102, 176, 139, 3, 0.380358
298, 1, wb, attraction, a-b-da, 14, 1, 7, 27, 125, 56, 60, 135, 135, 60, 1, 0.474806
298, 1, wb, attraction, a-b-da, 14, 1, 7, 27, 125, 56, 60, 135, 135, 60, 2, 0.542666
298, 1, wb, filler, NA, 999, 999, 7, 28, 112, 179, 93, 180, 103, 66, 3, 0.870399
298, 1, wb, filler, NA, 999, 999, 7, 28, 112, 179, 93, 180, 103, 66, 1, 0.594754
298, 1, wb, attraction, a-b-db, 5, 1, 7, 29, 58, 132, 135, 60, 60, 135, 3, 0.560514
298, 1, wb, attraction, a-b-db, 5, 1, 7, 29, 58, 132, 135, 60, 60, 135, 2, 0.377064
298, 1, wb, attraction, a-b-db, 9, 1, 7, 30, 57, 129, 135, 60, 60, 135, 1, 0.663563
298, 1, wb, attraction, a-b-db, 9, 1, 7, 30, 57, 129, 135, 60, 60, 135, 2, 0.348008
298, 1, wb, attraction, a-b-db, 14, 3, 7, 31, 195, 120, 120, 195, 111, 181, 1, 1.35579
298, 1, wb, attraction, a-b-db, 14, 3, 7, 31, 195, 120, 120, 195, 111, 181, 2, 0.29995
298, 1, wb, attraction, a-b-da, 2, 1, 7, 32, 134, 59, 60, 135, 135, 60, 1, 0.837783
298, 1, wb, attraction, a-b-da, 2, 1, 7, 32, 134, 59, 60, 135, 135, 60, 2, 0.36294
298, 1, wb, attraction, a-b-db, 9, 2, 7, 33, 90, 165, 86, 157, 165, 90, 1, 1.10617
298, 1, wb, attraction, a-b-db, 9, 2, 7, 33, 90, 165, 86, 157, 165, 90, 2, 0.676317
298, 1, wb, attraction, a-b-da, 9, 3, 7, 34, 195, 120, 120, 195, 186, 114, 2, 0.950785
298, 1, wb, attraction, a-b-da, 9, 3, 7, 34, 195, 120, 120, 195, 186, 114, 1, 0.24786
298, 1, wb, filler, NA, 999, 999, 7, 35, 79, 168, 166, 149, 63, 58, 3, 0.987655
298, 1, wb, filler, NA, 999, 999, 7, 35, 79, 168, 166, 149, 63, 58, 2, 0.330694
298, 1, wb, attraction, a-b-db, 2, 1, 7, 36, 59, 134, 60, 135, 135, 60, 1, 0.731077
298, 1, wb, attraction, a-b-db, 2, 1, 7, 36, 59, 134, 60, 135, 135, 60, 3, 0.588895
298, 1, wb, attraction, a-b-da, 2, 3, 7, 37, 193, 119, 120, 195, 195, 120, 1, 0.499214
298, 1, wb, attraction, a-b-da, 2, 3, 7, 37, 193, 119, 120, 195, 195, 120, 2, 0.294461
298, 1, wb, catch, NA, 999, 999, 8, 1, 113, 82, 137, 178, 139, 116, 1, 0.816315
298, 1, wb, catch, NA, 999, 999, 8, 1, 113, 82, 137, 178, 139, 116, 2, 0.310655
298, 1, wb, filler, NA, 999, 999, 8, 2, 61, 67, 129, 174, 171, 81, 1, 0.591883
298, 1, wb, filler, NA, 999, 999, 8, 2, 61, 67, 129, 174, 171, 81, 2, 0.526876
298, 1, wb, filler, NA, 999, 999, 8, 3, 190, 156, 58, 90, 65, 123, 2, 0.95139
298, 1, wb, filler, NA, 999, 999, 8, 3, 190, 156, 58, 90, 65, 123, 1, 0.344425
298, 1, wb, attraction, a-b-db, 14, 1, 8, 4, 56, 125, 135, 60, 60, 135, 3, 0.768281
298, 1, wb, attraction, a-b-db, 14, 1, 8, 4, 56, 125, 135, 60, 60, 135, 2, 0.41665
298, 1, wb, attraction, a-b-da, 9, 3, 8, 5, 195, 120, 120, 195, 186, 114, 1, 0.613859
298, 1, wb, attraction, a-b-da, 9, 3, 8, 5, 195, 120, 120, 195, 186, 114, 2, 0.348241
298, 1, wb, filler, NA, 999, 999, 8, 6, 86, 76, 111, 94, 185, 134, 1, 0.644011
298, 1, wb, filler, NA, 999, 999, 8, 6, 86, 76, 111, 94, 185, 134, 3, 0.329229
298, 1, wb, filler, NA, 999, 999, 8, 7, 61, 155, 169, 76, 150, 63, 1, 0.777713
298, 1, wb, filler, NA, 999, 999, 8, 7, 61, 155, 169, 76, 150, 63, 2, 0.921411
298, 1, wb, attraction, a-b-db, 2, 3, 8, 8, 119, 193, 195, 120, 120, 195, 2, 0.930372
298, 1, wb, attraction, a-b-db, 2, 3, 8, 8, 119, 193, 195, 120, 120, 195, 3, 0.412031
298, 1, wb, filler, NA, 999, 999, 8, 9, 85, 113, 175, 121, 121, 167, 1, 1.03323
298, 1, wb, filler, NA, 999, 999, 8, 9, 85, 113, 175, 121, 121, 167, 3, 0.310956
298, 1, wb, attraction, a-b-db, 14, 2, 8, 10, 90, 165, 165, 90, 83, 153, 3, 0.760047
298, 1, wb, attraction, a-b-db, 14, 2, 8, 10, 90, 165, 165, 90, 83, 153, 1, 0.53646
298, 1, wb, attraction, a-b-db, 5, 3, 8, 11, 117, 190, 120, 195, 195, 120, 1, 1.08893
298, 1, wb, attraction, a-b-db, 5, 3, 8, 11, 117, 190, 120, 195, 195, 120, 3, 0.619818
298, 1, wb, attraction, a-b-da, 2, 3, 8, 12, 120, 195, 195, 120, 193, 119, 3, 1.04092
298, 1, wb, attraction, a-b-da, 2, 3, 8, 12, 120, 195, 195, 120, 193, 119, 1, 0.333924
298, 1, wb, attraction, a-b-da, 2, 2, 8, 13, 90, 165, 165, 90, 163, 89, 1, 0.662373
298, 1, wb, attraction, a-b-da, 2, 2, 8, 13, 90, 165, 165, 90, 163, 89, 3, 0.498871
298, 1, wb, filler, NA, 999, 999, 8, 14, 89, 93, 93, 116, 152, 62, 1, 0.508594
298, 1, wb, filler, NA, 999, 999, 8, 14, 89, 93, 93, 116, 152, 62, 2, 0.527064
298, 1, wb, attraction, a-b-da, 14, 1, 8, 15, 125, 56, 135, 60, 60, 135, 1, 0.487559
298, 1, wb, attraction, a-b-da, 14, 1, 8, 15, 125, 56, 135, 60, 60, 135, 2, 0.691444
298, 1, wb, filler, NA, 999, 999, 8, 16, 161, 122, 168, 146, 143, 126, 1, 0.381171
298, 1, wb, filler, NA, 999, 999, 8, 16, 161, 122, 168, 146, 143, 126, 2, 0.644983
298, 1, wb, attraction, a-b-da, 14, 2, 8, 17, 165, 90, 90, 165, 153, 83, 1, 0.792696
298, 1, wb, attraction, a-b-da, 14, 2, 8, 17, 165, 90, 90, 165, 153, 83, 2, 0.535777
298, 1, wb, catch, NA, 999, 999, 8, 18, 82, 113, 120, 135, 134, 181, 1, 0.752205
298, 1, wb, catch, NA, 999, 999, 8, 18, 82, 113, 120, 135, 134, 181, 3, 0.42528
298, 1, wb, attraction, a-b-da, 9, 1, 8, 19, 129, 57, 135, 60, 60, 135, 3, 1.0298
298, 1, wb, attraction, a-b-da, 9, 1, 8, 19, 129, 57, 135, 60, 60, 135, 1, 0.619532
298, 1, wb, attraction, a-b-db, 9, 1, 8, 20, 60, 135, 135, 60, 57, 129, 2, 0.800476
298, 1, wb, attraction, a-b-db, 9, 1, 8, 20, 60, 135, 135, 60, 57, 129, 3, 0.447528
298, 1, wb, attraction, a-b-db, 9, 3, 8, 21, 195, 120, 120, 195, 114, 186, 1, 0.299272
298, 1, wb, attraction, a-b-db, 9, 3, 8, 21, 195, 120, 120, 195, 114, 186, 2, 0.366677
298, 1, wb, attraction, a-b-db, 14, 3, 8, 22, 120, 195, 195, 120, 111, 181, 1, 0.429657
298, 1, wb, attraction, a-b-db, 14, 3, 8, 22, 120, 195, 195, 120, 111, 181, 2, 0.379524
298, 1, wb, attraction, a-b-db, 2, 1, 8, 23, 135, 60, 60, 135, 59, 134, 1, 0.618143
298, 1, wb, attraction, a-b-db, 2, 1, 8, 23, 135, 60, 60, 135, 59, 134, 2, 0.376605
298, 1, wb, attraction, a-b-da, 5, 1, 8, 24, 135, 60, 132, 58, 60, 135, 1, 0.295057
298, 1, wb, attraction, a-b-da, 5, 1, 8, 24, 135, 60, 132, 58, 60, 135, 2, 0.562291
298, 1, wb, filler, NA, 999, 999, 8, 25, 66, 109, 56, 144, 82, 60, 1, 0.481287
298, 1, wb, filler, NA, 999, 999, 8, 25, 66, 109, 56, 144, 82, 60, 3, 0.581228
298, 1, wb, attraction, a-b-da, 5, 3, 8, 26, 120, 195, 190, 117, 195, 120, 2, 0.483595
298, 1, wb, attraction, a-b-da, 5, 3, 8, 26, 120, 195, 190, 117, 195, 120, 3, 0.391474
298, 1, wb, attraction, a-b-da, 2, 1, 8, 27, 60, 135, 135, 60, 134, 59, 3, 0.925156
298, 1, wb, attraction, a-b-da, 2, 1, 8, 27, 60, 135, 135, 60, 134, 59, 2, 0.286843
298, 1, wb, attraction, a-b-db, 9, 2, 8, 28, 165, 90, 90, 165, 86, 157, 3, 0.665374
298, 1, wb, attraction, a-b-db, 9, 2, 8, 28, 165, 90, 90, 165, 86, 157, 2, 0.485838
298, 1, wb, attraction, a-b-db, 5, 2, 8, 29, 165, 90, 90, 165, 88, 161, 2, 0.424394
298, 1, wb, attraction, a-b-db, 5, 2, 8, 29, 165, 90, 90, 165, 88, 161, 1, 0.470107
298, 1, wb, filler, NA, 999, 999, 8, 30, 67, 72, 162, 121, 82, 195, 1, 0.681368
298, 1, wb, filler, NA, 999, 999, 8, 30, 67, 72, 162, 121, 82, 195, 2, 0.38909
298, 1, wb, attraction, a-b-da, 9, 2, 8, 31, 90, 165, 157, 86, 165, 90, 1, 0.747564
298, 1, wb, attraction, a-b-da, 9, 2, 8, 31, 90, 165, 157, 86, 165, 90, 2, 0.308577
298, 1, wb, attraction, a-b-db, 5, 1, 8, 32, 60, 135, 135, 60, 58, 132, 1, 0.349737
298, 1, wb, attraction, a-b-db, 5, 1, 8, 32, 60, 135, 135, 60, 58, 132, 2, 0.31101
298, 1, wb, attraction, a-b-db, 2, 2, 8, 33, 165, 90, 90, 165, 89, 163, 1, 0.472238
298, 1, wb, attraction, a-b-db, 2, 2, 8, 33, 165, 90, 90, 165, 89, 163, 2, 0.332119
298, 1, wb, attraction, a-b-da, 14, 3, 8, 34, 181, 111, 195, 120, 120, 195, 1, 0.444507
298, 1, wb, attraction, a-b-da, 14, 3, 8, 34, 181, 111, 195, 120, 120, 195, 2, 0.361584
298, 1, wb, catch, NA, 999, 999, 8, 35, 145, 110, 149, 166, 127, 68, 1, 0.472854
298, 1, wb, catch, NA, 999, 999, 8, 35, 145, 110, 149, 166, 127, 68, 2, 0.33262
298, 1, wb, filler, NA, 999, 999, 8, 36, 104, 141, 183, 124, 124, 107, 3, 0.997136
298, 1, wb, filler, NA, 999, 999, 8, 36, 104, 141, 183, 124, 124, 107, 2, 0.356118
298, 1, wb, attraction, a-b-da, 5, 2, 8, 37, 165, 90, 90, 165, 161, 88, 3, 0.427896
298, 1, wb, attraction, a-b-da, 5, 2, 8, 37, 165, 90, 90, 165, 161, 88, 2, 0.761756
