sub_n, computer_n, bw_cond, effect, set, distance, diag, block_n, trial_n, h1, w1, h2, w2, h3, w3, choice, rt 
294, 1, wb, practice, NA, 999, 999, 0, 1, 132, 120, 56, 65, 98, 162, 2, 2.67302
294, 1, wb, practice, NA, 999, 999, 0, 1, 132, 120, 56, 65, 98, 162, 1, 5.45872
294, 1, wb, practice, NA, 999, 999, 0, 2, 145, 172, 76, 110, 130, 88, 2, 2.86748
294, 1, wb, practice, NA, 999, 999, 0, 2, 145, 172, 76, 110, 130, 88, 1, 1.87776
294, 1, wb, practice, NA, 999, 999, 0, 3, 65, 126, 185, 188, 114, 73, 3, 7.101
294, 1, wb, practice, NA, 999, 999, 0, 3, 65, 126, 185, 188, 114, 73, 2, 1.20539
294, 1, wb, catch, NA, 999, 999, 1, 1, 136, 179, 149, 106, 126, 69, 3, 2.15138
294, 1, wb, catch, NA, 999, 999, 1, 1, 136, 179, 149, 106, 126, 69, 1, 1.61601
294, 1, wb, attraction, a-b-db, 9, 2, 1, 2, 86, 157, 165, 90, 90, 165, 1, 4.14078
294, 1, wb, attraction, a-b-db, 9, 2, 1, 2, 86, 157, 165, 90, 90, 165, 2, 3.89283
294, 1, wb, attraction, a-b-db, 14, 3, 1, 3, 111, 181, 120, 195, 195, 120, 1, 4.79748
294, 1, wb, attraction, a-b-db, 14, 3, 1, 3, 111, 181, 120, 195, 195, 120, 3, 4.30735
294, 1, wb, filler, NA, 999, 999, 1, 4, 118, 115, 59, 182, 61, 135, 3, 1.73188
294, 1, wb, filler, NA, 999, 999, 1, 4, 118, 115, 59, 182, 61, 135, 1, 3.42943
294, 1, wb, filler, NA, 999, 999, 1, 5, 70, 190, 133, 125, 160, 121, 1, 3.31285
294, 1, wb, filler, NA, 999, 999, 1, 5, 70, 190, 133, 125, 160, 121, 3, 1.90652
294, 1, wb, catch, NA, 999, 999, 1, 6, 89, 106, 181, 134, 118, 137, 1, 1.1638
294, 1, wb, catch, NA, 999, 999, 1, 6, 89, 106, 181, 134, 118, 137, 2, 0.764123
294, 1, wb, attraction, a-b-da, 5, 3, 1, 7, 195, 120, 190, 117, 120, 195, 3, 4.48308
294, 1, wb, attraction, a-b-da, 5, 3, 1, 7, 195, 120, 190, 117, 120, 195, 1, 2.24569
294, 1, wb, attraction, a-b-db, 5, 1, 1, 8, 58, 132, 60, 135, 135, 60, 3, 4.02501
294, 1, wb, attraction, a-b-db, 5, 1, 1, 8, 58, 132, 60, 135, 135, 60, 1, 1.35768
294, 1, wb, attraction, a-b-db, 9, 3, 1, 9, 114, 186, 195, 120, 120, 195, 1, 5.39669
294, 1, wb, attraction, a-b-db, 9, 3, 1, 9, 114, 186, 195, 120, 120, 195, 3, 1.49016
294, 1, wb, attraction, a-b-db, 9, 1, 1, 10, 135, 60, 60, 135, 57, 129, 3, 3.05227
294, 1, wb, attraction, a-b-db, 9, 1, 1, 10, 135, 60, 60, 135, 57, 129, 2, 3.23269
294, 1, wb, filler, NA, 999, 999, 1, 11, 136, 107, 152, 169, 64, 179, 3, 1.61231
294, 1, wb, filler, NA, 999, 999, 1, 11, 136, 107, 152, 169, 64, 179, 2, 0.514466
294, 1, wb, attraction, a-b-db, 2, 3, 1, 12, 120, 195, 195, 120, 119, 193, 2, 3.99561
294, 1, wb, attraction, a-b-db, 2, 3, 1, 12, 120, 195, 195, 120, 119, 193, 3, 0.705528
294, 1, wb, attraction, a-b-db, 2, 1, 1, 13, 60, 135, 59, 134, 135, 60, 2, 3.37123
294, 1, wb, attraction, a-b-db, 2, 1, 1, 13, 60, 135, 59, 134, 135, 60, 3, 1.64297
294, 1, wb, filler, NA, 999, 999, 1, 14, 90, 75, 75, 94, 115, 144, 1, 2.91031
294, 1, wb, filler, NA, 999, 999, 1, 14, 90, 75, 75, 94, 115, 144, 3, 0.63199
294, 1, wb, filler, NA, 999, 999, 1, 15, 113, 113, 89, 102, 135, 154, 2, 2.14037
294, 1, wb, filler, NA, 999, 999, 1, 15, 113, 113, 89, 102, 135, 154, 3, 0.429044
294, 1, wb, attraction, a-b-da, 2, 1, 1, 16, 135, 60, 60, 135, 134, 59, 2, 3.38545
294, 1, wb, attraction, a-b-da, 2, 1, 1, 16, 135, 60, 60, 135, 134, 59, 3, 2.72848
294, 1, wb, filler, NA, 999, 999, 1, 17, 78, 62, 80, 131, 177, 108, 1, 1.78418
294, 1, wb, filler, NA, 999, 999, 1, 17, 78, 62, 80, 131, 177, 108, 3, 0.551609
294, 1, wb, attraction, a-b-db, 14, 1, 1, 18, 60, 135, 56, 125, 135, 60, 2, 1.75141
294, 1, wb, attraction, a-b-db, 14, 1, 1, 18, 60, 135, 56, 125, 135, 60, 3, 1.00816
294, 1, wb, filler, NA, 999, 999, 1, 19, 87, 147, 192, 179, 186, 68, 3, 2.64518
294, 1, wb, filler, NA, 999, 999, 1, 19, 87, 147, 192, 179, 186, 68, 2, 1.42558
294, 1, wb, attraction, a-b-da, 14, 2, 1, 20, 165, 90, 153, 83, 90, 165, 2, 2.9897
294, 1, wb, attraction, a-b-da, 14, 2, 1, 20, 165, 90, 153, 83, 90, 165, 3, 0.489553
294, 1, wb, attraction, a-b-da, 5, 2, 1, 21, 165, 90, 90, 165, 161, 88, 2, 2.53394
294, 1, wb, attraction, a-b-da, 5, 2, 1, 21, 165, 90, 90, 165, 161, 88, 3, 0.519055
294, 1, wb, attraction, a-b-da, 9, 2, 1, 22, 157, 86, 90, 165, 165, 90, 2, 1.60826
294, 1, wb, attraction, a-b-da, 9, 2, 1, 22, 157, 86, 90, 165, 165, 90, 3, 0.574473
294, 1, wb, attraction, a-b-db, 14, 2, 1, 23, 83, 153, 165, 90, 90, 165, 2, 3.69273
294, 1, wb, attraction, a-b-db, 14, 2, 1, 23, 83, 153, 165, 90, 90, 165, 3, 0.430843
294, 1, wb, attraction, a-b-da, 2, 3, 1, 24, 195, 120, 120, 195, 193, 119, 3, 2.00331
294, 1, wb, attraction, a-b-da, 2, 3, 1, 24, 195, 120, 120, 195, 193, 119, 2, 1.32209
294, 1, wb, filler, NA, 999, 999, 1, 25, 186, 78, 189, 159, 171, 117, 1, 2.58698
294, 1, wb, filler, NA, 999, 999, 1, 25, 186, 78, 189, 159, 171, 117, 2, 0.522069
294, 1, wb, attraction, a-b-da, 2, 2, 1, 26, 165, 90, 163, 89, 90, 165, 3, 2.29918
294, 1, wb, attraction, a-b-da, 2, 2, 1, 26, 165, 90, 163, 89, 90, 165, 2, 0.885764
294, 1, wb, catch, NA, 999, 999, 1, 27, 156, 99, 89, 106, 147, 168, 2, 1.1841
294, 1, wb, catch, NA, 999, 999, 1, 27, 156, 99, 89, 106, 147, 168, 3, 0.951752
294, 1, wb, attraction, a-b-da, 9, 3, 1, 28, 120, 195, 195, 120, 186, 114, 3, 4.27942
294, 1, wb, attraction, a-b-da, 9, 3, 1, 28, 120, 195, 195, 120, 186, 114, 1, 0.649961
294, 1, wb, filler, NA, 999, 999, 1, 29, 143, 119, 95, 132, 87, 86, 3, 0.853738
294, 1, wb, filler, NA, 999, 999, 1, 29, 143, 119, 95, 132, 87, 86, 1, 1.02683
294, 1, wb, attraction, a-b-da, 14, 3, 1, 30, 195, 120, 120, 195, 181, 111, 2, 2.62322
294, 1, wb, attraction, a-b-da, 14, 3, 1, 30, 195, 120, 120, 195, 181, 111, 1, 1.49239
294, 1, wb, attraction, a-b-db, 5, 3, 1, 31, 195, 120, 120, 195, 117, 190, 1, 2.37384
294, 1, wb, attraction, a-b-db, 5, 3, 1, 31, 195, 120, 120, 195, 117, 190, 2, 0.468934
294, 1, wb, attraction, a-b-da, 5, 1, 1, 32, 135, 60, 132, 58, 60, 135, 3, 1.35214
294, 1, wb, attraction, a-b-da, 5, 1, 1, 32, 135, 60, 132, 58, 60, 135, 2, 1.10499
294, 1, wb, attraction, a-b-db, 2, 2, 1, 33, 165, 90, 89, 163, 90, 165, 1, 3.00255
294, 1, wb, attraction, a-b-db, 2, 2, 1, 33, 165, 90, 89, 163, 90, 165, 3, 0.848959
294, 1, wb, filler, NA, 999, 999, 1, 34, 142, 87, 136, 174, 169, 171, 1, 1.20457
294, 1, wb, filler, NA, 999, 999, 1, 34, 142, 87, 136, 174, 169, 171, 3, 0.554821
294, 1, wb, attraction, a-b-da, 14, 1, 1, 35, 125, 56, 135, 60, 60, 135, 3, 1.98661
294, 1, wb, attraction, a-b-da, 14, 1, 1, 35, 125, 56, 135, 60, 60, 135, 2, 1.00194
294, 1, wb, attraction, a-b-db, 5, 2, 1, 36, 88, 161, 165, 90, 90, 165, 2, 6.55955
294, 1, wb, attraction, a-b-db, 5, 2, 1, 36, 88, 161, 165, 90, 90, 165, 3, 0.654231
294, 1, wb, attraction, a-b-da, 9, 1, 1, 37, 129, 57, 135, 60, 60, 135, 2, 3.06595
294, 1, wb, attraction, a-b-da, 9, 1, 1, 37, 129, 57, 135, 60, 60, 135, 3, 0.549621
294, 1, wb, attraction, a-b-db, 9, 1, 2, 1, 60, 135, 57, 129, 135, 60, 2, 2.22139
294, 1, wb, attraction, a-b-db, 9, 1, 2, 1, 60, 135, 57, 129, 135, 60, 3, 1.32348
294, 1, wb, attraction, a-b-da, 5, 2, 2, 2, 165, 90, 90, 165, 161, 88, 2, 2.32351
294, 1, wb, attraction, a-b-da, 5, 2, 2, 2, 165, 90, 90, 165, 161, 88, 1, 0.948842
294, 1, wb, attraction, a-b-da, 2, 1, 2, 3, 60, 135, 134, 59, 135, 60, 3, 4.57244
294, 1, wb, attraction, a-b-da, 2, 1, 2, 3, 60, 135, 134, 59, 135, 60, 1, 1.4597
294, 1, wb, filler, NA, 999, 999, 2, 4, 95, 72, 65, 187, 155, 188, 1, 1.50248
294, 1, wb, filler, NA, 999, 999, 2, 4, 95, 72, 65, 187, 155, 188, 3, 0.593349
294, 1, wb, filler, NA, 999, 999, 2, 5, 186, 189, 157, 176, 118, 89, 3, 1.35101
294, 1, wb, filler, NA, 999, 999, 2, 5, 186, 189, 157, 176, 118, 89, 1, 1.2159
294, 1, wb, filler, NA, 999, 999, 2, 6, 181, 81, 141, 168, 192, 74, 1, 1.65287
294, 1, wb, filler, NA, 999, 999, 2, 6, 181, 81, 141, 168, 192, 74, 2, 0.713628
294, 1, wb, attraction, a-b-db, 14, 2, 2, 7, 83, 153, 90, 165, 165, 90, 1, 3.01059
294, 1, wb, attraction, a-b-db, 14, 2, 2, 7, 83, 153, 90, 165, 165, 90, 3, 0.800429
294, 1, wb, attraction, a-b-db, 2, 1, 2, 8, 59, 134, 60, 135, 135, 60, 3, 1.68606
294, 1, wb, attraction, a-b-db, 2, 1, 2, 8, 59, 134, 60, 135, 135, 60, 2, 0.345462
294, 1, wb, filler, NA, 999, 999, 2, 9, 157, 128, 147, 152, 94, 164, 3, 4.27337
294, 1, wb, filler, NA, 999, 999, 2, 9, 157, 128, 147, 152, 94, 164, 2, 0.292044
294, 1, wb, attraction, a-b-da, 9, 3, 2, 10, 195, 120, 186, 114, 120, 195, 3, 0.973807
294, 1, wb, attraction, a-b-da, 9, 3, 2, 10, 195, 120, 186, 114, 120, 195, 2, 0.365582
294, 1, wb, attraction, a-b-db, 2, 2, 2, 11, 165, 90, 89, 163, 90, 165, 1, 0.8286
294, 1, wb, attraction, a-b-db, 2, 2, 2, 11, 165, 90, 89, 163, 90, 165, 3, 0.522359
294, 1, wb, filler, NA, 999, 999, 2, 12, 180, 185, 165, 124, 167, 71, 3, 0.803425
294, 1, wb, filler, NA, 999, 999, 2, 12, 180, 185, 165, 124, 167, 71, 1, 0.39461
294, 1, wb, attraction, a-b-db, 14, 3, 2, 13, 195, 120, 120, 195, 111, 181, 1, 1.31243
294, 1, wb, attraction, a-b-db, 14, 3, 2, 13, 195, 120, 120, 195, 111, 181, 2, 0.66664
294, 1, wb, filler, NA, 999, 999, 2, 14, 138, 124, 194, 142, 56, 186, 3, 0.87761
294, 1, wb, filler, NA, 999, 999, 2, 14, 138, 124, 194, 142, 56, 186, 2, 0.409311
294, 1, wb, filler, NA, 999, 999, 2, 15, 144, 74, 115, 62, 152, 136, 1, 1.46251
294, 1, wb, filler, NA, 999, 999, 2, 15, 144, 74, 115, 62, 152, 136, 3, 0.330666
294, 1, wb, attraction, a-b-da, 14, 1, 2, 16, 125, 56, 135, 60, 60, 135, 3, 0.883251
294, 1, wb, attraction, a-b-da, 14, 1, 2, 16, 125, 56, 135, 60, 60, 135, 2, 0.382876
294, 1, wb, filler, NA, 999, 999, 2, 17, 183, 80, 58, 128, 85, 142, 3, 1.52537
294, 1, wb, filler, NA, 999, 999, 2, 17, 183, 80, 58, 128, 85, 142, 1, 0.438784
294, 1, wb, attraction, a-b-db, 2, 3, 2, 18, 119, 193, 120, 195, 195, 120, 3, 0.659362
294, 1, wb, attraction, a-b-db, 2, 3, 2, 18, 119, 193, 120, 195, 195, 120, 1, 1.03978
294, 1, wb, attraction, a-b-db, 14, 1, 2, 19, 135, 60, 60, 135, 56, 125, 3, 1.23604
294, 1, wb, attraction, a-b-db, 14, 1, 2, 19, 135, 60, 60, 135, 56, 125, 1, 3.76158
294, 1, wb, catch, NA, 999, 999, 2, 20, 114, 141, 99, 96, 146, 169, 2, 1.47968
294, 1, wb, catch, NA, 999, 999, 2, 20, 114, 141, 99, 96, 146, 169, 3, 0.291266
294, 1, wb, attraction, a-b-da, 9, 2, 2, 21, 157, 86, 90, 165, 165, 90, 3, 1.43713
294, 1, wb, attraction, a-b-da, 9, 2, 2, 21, 157, 86, 90, 165, 165, 90, 2, 0.410619
294, 1, wb, attraction, a-b-da, 5, 3, 2, 22, 190, 117, 195, 120, 120, 195, 3, 3.27186
294, 1, wb, attraction, a-b-da, 5, 3, 2, 22, 190, 117, 195, 120, 120, 195, 1, 0.48272
294, 1, wb, attraction, a-b-db, 9, 2, 2, 23, 90, 165, 165, 90, 86, 157, 3, 1.58121
294, 1, wb, attraction, a-b-db, 9, 2, 2, 23, 90, 165, 165, 90, 86, 157, 2, 2.27671
294, 1, wb, attraction, a-b-da, 14, 2, 2, 24, 153, 83, 165, 90, 90, 165, 3, 3.83858
294, 1, wb, attraction, a-b-da, 14, 2, 2, 24, 153, 83, 165, 90, 90, 165, 2, 0.562758
294, 1, wb, attraction, a-b-da, 2, 2, 2, 25, 163, 89, 165, 90, 90, 165, 3, 1.00983
294, 1, wb, attraction, a-b-da, 2, 2, 2, 25, 163, 89, 165, 90, 90, 165, 2, 0.280062
294, 1, wb, attraction, a-b-da, 5, 1, 2, 26, 60, 135, 135, 60, 132, 58, 3, 3.29863
294, 1, wb, attraction, a-b-da, 5, 1, 2, 26, 60, 135, 135, 60, 132, 58, 1, 0.452869
294, 1, wb, filler, NA, 999, 999, 2, 27, 161, 73, 119, 149, 162, 122, 2, 1.16069
294, 1, wb, filler, NA, 999, 999, 2, 27, 161, 73, 119, 149, 162, 122, 3, 1.20895
294, 1, wb, attraction, a-b-da, 2, 3, 2, 28, 195, 120, 193, 119, 120, 195, 3, 8.44585
294, 1, wb, attraction, a-b-da, 2, 3, 2, 28, 195, 120, 193, 119, 120, 195, 1, 1.24854
294, 1, wb, attraction, a-b-da, 14, 3, 2, 29, 120, 195, 195, 120, 181, 111, 3, 2.364
294, 1, wb, attraction, a-b-da, 14, 3, 2, 29, 120, 195, 195, 120, 181, 111, 1, 0.731997
294, 1, wb, attraction, a-b-db, 5, 3, 2, 30, 195, 120, 120, 195, 117, 190, 1, 1.9324
294, 1, wb, attraction, a-b-db, 5, 3, 2, 30, 195, 120, 120, 195, 117, 190, 2, 0.365674
294, 1, wb, catch, NA, 999, 999, 2, 31, 154, 161, 111, 84, 162, 93, 2, 1.98088
294, 1, wb, catch, NA, 999, 999, 2, 31, 154, 161, 111, 84, 162, 93, 1, 0.364217
294, 1, wb, catch, NA, 999, 999, 2, 32, 114, 81, 149, 106, 194, 121, 1, 0.851485
294, 1, wb, catch, NA, 999, 999, 2, 32, 114, 81, 149, 106, 194, 121, 3, 0.344457
294, 1, wb, attraction, a-b-db, 9, 3, 2, 33, 195, 120, 114, 186, 120, 195, 3, 2.4803
294, 1, wb, attraction, a-b-db, 9, 3, 2, 33, 195, 120, 114, 186, 120, 195, 1, 0.44354
294, 1, wb, attraction, a-b-db, 5, 2, 2, 34, 88, 161, 90, 165, 165, 90, 2, 1.40728
294, 1, wb, attraction, a-b-db, 5, 2, 2, 34, 88, 161, 90, 165, 165, 90, 3, 0.637561
294, 1, wb, filler, NA, 999, 999, 2, 35, 123, 170, 78, 122, 143, 180, 2, 0.553886
294, 1, wb, filler, NA, 999, 999, 2, 35, 123, 170, 78, 122, 143, 180, 3, 0.395111
294, 1, wb, attraction, a-b-db, 5, 1, 2, 36, 135, 60, 58, 132, 60, 135, 1, 0.992833
294, 1, wb, attraction, a-b-db, 5, 1, 2, 36, 135, 60, 58, 132, 60, 135, 3, 0.631838
294, 1, wb, attraction, a-b-da, 9, 1, 2, 37, 135, 60, 129, 57, 60, 135, 3, 0.676306
294, 1, wb, attraction, a-b-da, 9, 1, 2, 37, 135, 60, 129, 57, 60, 135, 2, 0.320081
294, 1, wb, filler, NA, 999, 999, 3, 1, 125, 120, 126, 80, 152, 155, 2, 0.753164
294, 1, wb, filler, NA, 999, 999, 3, 1, 125, 120, 126, 80, 152, 155, 3, 0.306384
294, 1, wb, catch, NA, 999, 999, 3, 2, 111, 84, 129, 126, 124, 191, 1, 0.668212
294, 1, wb, catch, NA, 999, 999, 3, 2, 111, 84, 129, 126, 124, 191, 2, 0.296591
294, 1, wb, attraction, a-b-da, 14, 2, 3, 3, 153, 83, 165, 90, 90, 165, 1, 0.658358
294, 1, wb, attraction, a-b-da, 14, 2, 3, 3, 153, 83, 165, 90, 90, 165, 3, 0.686809
294, 1, wb, attraction, a-b-da, 9, 2, 3, 4, 165, 90, 157, 86, 90, 165, 3, 2.2493
294, 1, wb, attraction, a-b-da, 9, 2, 3, 4, 165, 90, 157, 86, 90, 165, 1, 0.637888
294, 1, wb, attraction, a-b-da, 2, 3, 3, 5, 193, 119, 120, 195, 195, 120, 2, 2.65822
294, 1, wb, attraction, a-b-da, 2, 3, 3, 5, 193, 119, 120, 195, 195, 120, 3, 2.51009
294, 1, wb, attraction, a-b-da, 5, 2, 3, 6, 90, 165, 165, 90, 161, 88, 3, 1.0865
294, 1, wb, attraction, a-b-da, 5, 2, 3, 6, 90, 165, 165, 90, 161, 88, 1, 0.602122
294, 1, wb, filler, NA, 999, 999, 3, 7, 88, 87, 189, 104, 60, 103, 3, 1.35209
294, 1, wb, filler, NA, 999, 999, 3, 7, 88, 87, 189, 104, 60, 103, 2, 0.680986
294, 1, wb, attraction, a-b-da, 9, 1, 3, 8, 135, 60, 60, 135, 129, 57, 2, 1.3473
294, 1, wb, attraction, a-b-da, 9, 1, 3, 8, 135, 60, 60, 135, 129, 57, 1, 1.49219
294, 1, wb, attraction, a-b-da, 9, 3, 3, 9, 120, 195, 186, 114, 195, 120, 3, 1.65359
294, 1, wb, attraction, a-b-da, 9, 3, 3, 9, 120, 195, 186, 114, 195, 120, 2, 1.21043
294, 1, wb, catch, NA, 999, 999, 3, 10, 102, 153, 191, 124, 87, 108, 3, 0.647291
294, 1, wb, catch, NA, 999, 999, 3, 10, 102, 153, 191, 124, 87, 108, 2, 0.404367
294, 1, wb, filler, NA, 999, 999, 3, 11, 75, 62, 177, 170, 81, 59, 3, 0.77021
294, 1, wb, filler, NA, 999, 999, 3, 11, 75, 62, 177, 170, 81, 59, 2, 0.32251
294, 1, wb, filler, NA, 999, 999, 3, 12, 61, 173, 184, 71, 164, 162, 2, 0.995709
294, 1, wb, filler, NA, 999, 999, 3, 12, 61, 173, 184, 71, 164, 162, 3, 0.234716
294, 1, wb, filler, NA, 999, 999, 3, 13, 78, 159, 91, 94, 147, 65, 3, 1.23931
294, 1, wb, filler, NA, 999, 999, 3, 13, 78, 159, 91, 94, 147, 65, 1, 0.332247
294, 1, wb, filler, NA, 999, 999, 3, 14, 179, 115, 85, 167, 181, 164, 2, 0.540706
294, 1, wb, filler, NA, 999, 999, 3, 14, 179, 115, 85, 167, 181, 164, 3, 0.309791
294, 1, wb, attraction, a-b-db, 2, 2, 3, 15, 90, 165, 89, 163, 165, 90, 3, 0.967135
294, 1, wb, attraction, a-b-db, 2, 2, 3, 15, 90, 165, 89, 163, 165, 90, 2, 0.511444
294, 1, wb, attraction, a-b-da, 2, 1, 3, 16, 134, 59, 60, 135, 135, 60, 2, 1.44844
294, 1, wb, attraction, a-b-da, 2, 1, 3, 16, 134, 59, 60, 135, 135, 60, 3, 0.533411
294, 1, wb, catch, NA, 999, 999, 3, 17, 141, 174, 130, 125, 102, 93, 3, 0.773767
294, 1, wb, catch, NA, 999, 999, 3, 17, 141, 174, 130, 125, 102, 93, 1, 0.389503
294, 1, wb, attraction, a-b-db, 9, 1, 3, 18, 57, 129, 135, 60, 60, 135, 3, 3.20404
294, 1, wb, attraction, a-b-db, 9, 1, 3, 18, 57, 129, 135, 60, 60, 135, 2, 0.378246
294, 1, wb, attraction, a-b-db, 14, 1, 3, 19, 60, 135, 135, 60, 56, 125, 3, 0.904809
294, 1, wb, attraction, a-b-db, 14, 1, 3, 19, 60, 135, 135, 60, 56, 125, 2, 0.387181
294, 1, wb, attraction, a-b-da, 2, 2, 3, 20, 165, 90, 163, 89, 90, 165, 2, 0.833595
294, 1, wb, attraction, a-b-da, 2, 2, 3, 20, 165, 90, 163, 89, 90, 165, 3, 0.583298
294, 1, wb, filler, NA, 999, 999, 3, 21, 141, 127, 149, 61, 173, 87, 2, 1.18179
294, 1, wb, filler, NA, 999, 999, 3, 21, 141, 127, 149, 61, 173, 87, 3, 0.285341
294, 1, wb, attraction, a-b-db, 5, 3, 3, 22, 117, 190, 120, 195, 195, 120, 3, 0.695929
294, 1, wb, attraction, a-b-db, 5, 3, 3, 22, 117, 190, 120, 195, 195, 120, 2, 0.354977
294, 1, wb, attraction, a-b-db, 9, 3, 3, 23, 195, 120, 114, 186, 120, 195, 1, 2.05088
294, 1, wb, attraction, a-b-db, 9, 3, 3, 23, 195, 120, 114, 186, 120, 195, 3, 0.415546
294, 1, wb, filler, NA, 999, 999, 3, 24, 172, 140, 140, 181, 104, 161, 3, 0.740605
294, 1, wb, filler, NA, 999, 999, 3, 24, 172, 140, 140, 181, 104, 161, 2, 0.861787
294, 1, wb, attraction, a-b-db, 2, 1, 3, 25, 60, 135, 59, 134, 135, 60, 2, 1.06465
294, 1, wb, attraction, a-b-db, 2, 1, 3, 25, 60, 135, 59, 134, 135, 60, 3, 0.277136
294, 1, wb, attraction, a-b-db, 14, 2, 3, 26, 165, 90, 90, 165, 83, 153, 3, 2.23147
294, 1, wb, attraction, a-b-db, 14, 2, 3, 26, 165, 90, 90, 165, 83, 153, 1, 0.508766
294, 1, wb, attraction, a-b-da, 5, 3, 3, 27, 190, 117, 195, 120, 120, 195, 3, 1.22206
294, 1, wb, attraction, a-b-da, 5, 3, 3, 27, 190, 117, 195, 120, 120, 195, 2, 0.539452
294, 1, wb, attraction, a-b-db, 14, 3, 3, 28, 111, 181, 195, 120, 120, 195, 1, 7.72389
294, 1, wb, attraction, a-b-db, 14, 3, 3, 28, 111, 181, 195, 120, 120, 195, 2, 1.31562
294, 1, wb, attraction, a-b-da, 14, 1, 3, 29, 125, 56, 135, 60, 60, 135, 3, 1.8283
294, 1, wb, attraction, a-b-da, 14, 1, 3, 29, 125, 56, 135, 60, 60, 135, 2, 0.641755
294, 1, wb, filler, NA, 999, 999, 3, 30, 72, 140, 157, 115, 57, 129, 3, 0.901607
294, 1, wb, filler, NA, 999, 999, 3, 30, 72, 140, 157, 115, 57, 129, 2, 0.352481
294, 1, wb, filler, NA, 999, 999, 3, 31, 145, 151, 98, 159, 65, 129, 3, 0.688343
294, 1, wb, filler, NA, 999, 999, 3, 31, 145, 151, 98, 159, 65, 129, 1, 0.33942
294, 1, wb, attraction, a-b-da, 14, 3, 3, 32, 195, 120, 181, 111, 120, 195, 2, 0.763907
294, 1, wb, attraction, a-b-da, 14, 3, 3, 32, 195, 120, 181, 111, 120, 195, 3, 0.540319
294, 1, wb, attraction, a-b-db, 9, 2, 3, 33, 165, 90, 90, 165, 86, 157, 2, 1.42809
294, 1, wb, attraction, a-b-db, 9, 2, 3, 33, 165, 90, 90, 165, 86, 157, 1, 0.69764
294, 1, wb, attraction, a-b-da, 5, 1, 3, 34, 60, 135, 135, 60, 132, 58, 2, 0.883395
294, 1, wb, attraction, a-b-da, 5, 1, 3, 34, 60, 135, 135, 60, 132, 58, 3, 0.591061
294, 1, wb, attraction, a-b-db, 5, 2, 3, 35, 90, 165, 88, 161, 165, 90, 3, 0.92487
294, 1, wb, attraction, a-b-db, 5, 2, 3, 35, 90, 165, 88, 161, 165, 90, 1, 0.550504
294, 1, wb, attraction, a-b-db, 5, 1, 3, 36, 58, 132, 60, 135, 135, 60, 3, 1.63823
294, 1, wb, attraction, a-b-db, 5, 1, 3, 36, 58, 132, 60, 135, 135, 60, 2, 0.56375
294, 1, wb, attraction, a-b-db, 2, 3, 3, 37, 119, 193, 120, 195, 195, 120, 2, 1.04282
294, 1, wb, attraction, a-b-db, 2, 3, 3, 37, 119, 193, 120, 195, 195, 120, 3, 0.25592
294, 1, wb, filler, NA, 999, 999, 4, 1, 169, 187, 96, 193, 146, 156, 2, 0.819732
294, 1, wb, filler, NA, 999, 999, 4, 1, 169, 187, 96, 193, 146, 156, 1, 0.338037
294, 1, wb, attraction, a-b-da, 9, 2, 4, 2, 90, 165, 157, 86, 165, 90, 1, 4.06667
294, 1, wb, attraction, a-b-da, 9, 2, 4, 2, 90, 165, 157, 86, 165, 90, 3, 1.18998
294, 1, wb, attraction, a-b-da, 14, 3, 4, 3, 120, 195, 181, 111, 195, 120, 2, 3.36424
294, 1, wb, attraction, a-b-da, 14, 3, 4, 3, 120, 195, 181, 111, 195, 120, 1, 0.523862
294, 1, wb, attraction, a-b-da, 14, 1, 4, 4, 60, 135, 135, 60, 125, 56, 3, 1.5962
294, 1, wb, attraction, a-b-da, 14, 1, 4, 4, 60, 135, 135, 60, 125, 56, 2, 0.522966
294, 1, wb, attraction, a-b-da, 2, 1, 4, 5, 134, 59, 60, 135, 135, 60, 2, 1.97211
294, 1, wb, attraction, a-b-da, 2, 1, 4, 5, 134, 59, 60, 135, 135, 60, 1, 0.563608
294, 1, wb, attraction, a-b-db, 2, 2, 4, 6, 165, 90, 90, 165, 89, 163, 2, 3.64256
294, 1, wb, attraction, a-b-db, 2, 2, 4, 6, 165, 90, 90, 165, 89, 163, 1, 0.950776
294, 1, wb, attraction, a-b-db, 9, 1, 4, 7, 60, 135, 57, 129, 135, 60, 2, 0.790509
294, 1, wb, attraction, a-b-db, 9, 1, 4, 7, 60, 135, 57, 129, 135, 60, 3, 0.365521
294, 1, wb, attraction, a-b-da, 5, 2, 4, 8, 90, 165, 165, 90, 161, 88, 3, 2.76468
294, 1, wb, attraction, a-b-da, 5, 2, 4, 8, 90, 165, 165, 90, 161, 88, 1, 0.34837
294, 1, wb, attraction, a-b-da, 5, 3, 4, 9, 190, 117, 195, 120, 120, 195, 1, 1.28427
294, 1, wb, attraction, a-b-da, 5, 3, 4, 9, 190, 117, 195, 120, 120, 195, 3, 0.279912
294, 1, wb, attraction, a-b-da, 2, 2, 4, 10, 163, 89, 90, 165, 165, 90, 1, 0.754353
294, 1, wb, attraction, a-b-da, 2, 2, 4, 10, 163, 89, 90, 165, 165, 90, 2, 1.0115
294, 1, wb, catch, NA, 999, 999, 4, 11, 161, 94, 91, 104, 142, 173, 2, 0.88036
294, 1, wb, catch, NA, 999, 999, 4, 11, 161, 94, 91, 104, 142, 173, 3, 0.580158
294, 1, wb, filler, NA, 999, 999, 4, 12, 125, 100, 136, 126, 185, 128, 1, 0.674492
294, 1, wb, filler, NA, 999, 999, 4, 12, 125, 100, 136, 126, 185, 128, 2, 0.350269
294, 1, wb, attraction, a-b-db, 14, 3, 4, 13, 120, 195, 195, 120, 111, 181, 2, 4.11015
294, 1, wb, attraction, a-b-db, 14, 3, 4, 13, 120, 195, 195, 120, 111, 181, 1, 1.0795
294, 1, wb, attraction, a-b-db, 9, 3, 4, 14, 195, 120, 114, 186, 120, 195, 2, 1.29783
294, 1, wb, attraction, a-b-db, 9, 3, 4, 14, 195, 120, 114, 186, 120, 195, 1, 0.564594
294, 1, wb, catch, NA, 999, 999, 4, 15, 96, 159, 141, 174, 76, 119, 3, 1.66768
294, 1, wb, catch, NA, 999, 999, 4, 15, 96, 159, 141, 174, 76, 119, 2, 0.375904
294, 1, wb, filler, NA, 999, 999, 4, 16, 81, 73, 97, 189, 162, 149, 1, 0.542317
294, 1, wb, filler, NA, 999, 999, 4, 16, 81, 73, 97, 189, 162, 149, 3, 2.59964
294, 1, wb, attraction, a-b-db, 14, 1, 4, 17, 60, 135, 56, 125, 135, 60, 2, 1.64465
294, 1, wb, attraction, a-b-db, 14, 1, 4, 17, 60, 135, 56, 125, 135, 60, 3, 0.377334
294, 1, wb, filler, NA, 999, 999, 4, 18, 80, 92, 113, 76, 148, 63, 1, 1.23198
294, 1, wb, filler, NA, 999, 999, 4, 18, 80, 92, 113, 76, 148, 63, 3, 0.805417
294, 1, wb, filler, NA, 999, 999, 4, 19, 139, 123, 149, 139, 180, 131, 1, 2.27533
294, 1, wb, filler, NA, 999, 999, 4, 19, 139, 123, 149, 139, 180, 131, 3, 0.462433
294, 1, wb, attraction, a-b-db, 5, 1, 4, 20, 60, 135, 58, 132, 135, 60, 2, 1.84154
294, 1, wb, attraction, a-b-db, 5, 1, 4, 20, 60, 135, 58, 132, 135, 60, 3, 3.2383
294, 1, wb, filler, NA, 999, 999, 4, 21, 64, 80, 169, 127, 139, 163, 1, 0.833922
294, 1, wb, filler, NA, 999, 999, 4, 21, 64, 80, 169, 127, 139, 163, 3, 1.71164
294, 1, wb, filler, NA, 999, 999, 4, 22, 131, 62, 68, 64, 104, 84, 2, 0.888436
294, 1, wb, filler, NA, 999, 999, 4, 22, 131, 62, 68, 64, 104, 84, 1, 1.02745
294, 1, wb, attraction, a-b-da, 9, 1, 4, 23, 129, 57, 60, 135, 135, 60, 2, 12.3836
294, 1, wb, attraction, a-b-da, 9, 1, 4, 23, 129, 57, 60, 135, 135, 60, 3, 0.683729
294, 1, wb, filler, NA, 999, 999, 4, 24, 120, 87, 144, 193, 165, 131, 1, 0.766046
294, 1, wb, filler, NA, 999, 999, 4, 24, 120, 87, 144, 193, 165, 131, 2, 0.526593
294, 1, wb, attraction, a-b-da, 14, 2, 4, 25, 90, 165, 153, 83, 165, 90, 2, 1.39108
294, 1, wb, attraction, a-b-da, 14, 2, 4, 25, 90, 165, 153, 83, 165, 90, 3, 1.03786
294, 1, wb, attraction, a-b-db, 5, 3, 4, 26, 120, 195, 195, 120, 117, 190, 3, 1.88221
294, 1, wb, attraction, a-b-db, 5, 3, 4, 26, 120, 195, 195, 120, 117, 190, 1, 0.565667
294, 1, wb, catch, NA, 999, 999, 4, 27, 126, 129, 88, 107, 155, 160, 2, 0.948575
294, 1, wb, catch, NA, 999, 999, 4, 27, 126, 129, 88, 107, 155, 160, 3, 0.365583
294, 1, wb, attraction, a-b-db, 5, 2, 4, 28, 90, 165, 165, 90, 88, 161, 1, 1.43681
294, 1, wb, attraction, a-b-db, 5, 2, 4, 28, 90, 165, 165, 90, 88, 161, 2, 0.386296
294, 1, wb, attraction, a-b-db, 9, 2, 4, 29, 90, 165, 86, 157, 165, 90, 2, 0.904841
294, 1, wb, attraction, a-b-db, 9, 2, 4, 29, 90, 165, 86, 157, 165, 90, 3, 0.67514
294, 1, wb, filler, NA, 999, 999, 4, 30, 160, 76, 151, 153, 127, 159, 1, 0.573496
294, 1, wb, filler, NA, 999, 999, 4, 30, 160, 76, 151, 153, 127, 159, 2, 0.301284
294, 1, wb, attraction, a-b-db, 14, 2, 4, 31, 90, 165, 83, 153, 165, 90, 2, 3.62312
294, 1, wb, attraction, a-b-db, 14, 2, 4, 31, 90, 165, 83, 153, 165, 90, 3, 0.603986
294, 1, wb, attraction, a-b-db, 2, 1, 4, 32, 135, 60, 59, 134, 60, 135, 2, 2.53781
294, 1, wb, attraction, a-b-db, 2, 1, 4, 32, 135, 60, 59, 134, 60, 135, 1, 0.555061
294, 1, wb, attraction, a-b-da, 5, 1, 4, 33, 132, 58, 135, 60, 60, 135, 3, 0.722758
294, 1, wb, attraction, a-b-da, 5, 1, 4, 33, 132, 58, 135, 60, 60, 135, 2, 0.324411
294, 1, wb, attraction, a-b-da, 2, 3, 4, 34, 120, 195, 193, 119, 195, 120, 3, 2.86918
294, 1, wb, attraction, a-b-da, 2, 3, 4, 34, 120, 195, 193, 119, 195, 120, 1, 1.34477
294, 1, wb, filler, NA, 999, 999, 4, 35, 188, 195, 83, 91, 73, 153, 2, 1.06427
294, 1, wb, filler, NA, 999, 999, 4, 35, 188, 195, 83, 91, 73, 153, 1, 0.332636
294, 1, wb, attraction, a-b-db, 2, 3, 4, 36, 119, 193, 195, 120, 120, 195, 1, 1.62106
294, 1, wb, attraction, a-b-db, 2, 3, 4, 36, 119, 193, 195, 120, 120, 195, 2, 0.339241
294, 1, wb, attraction, a-b-da, 9, 3, 4, 37, 120, 195, 195, 120, 186, 114, 3, 2.21188
294, 1, wb, attraction, a-b-da, 9, 3, 4, 37, 120, 195, 195, 120, 186, 114, 1, 0.473635
294, 1, wb, attraction, a-b-da, 5, 1, 5, 1, 60, 135, 132, 58, 135, 60, 2, 4.04272
294, 1, wb, attraction, a-b-da, 5, 1, 5, 1, 60, 135, 132, 58, 135, 60, 1, 0.782896
294, 1, wb, catch, NA, 999, 999, 5, 2, 177, 138, 91, 104, 113, 142, 2, 0.781173
294, 1, wb, catch, NA, 999, 999, 5, 2, 177, 138, 91, 104, 113, 142, 1, 0.276885
294, 1, wb, attraction, a-b-db, 2, 2, 5, 3, 89, 163, 165, 90, 90, 165, 3, 1.36749
294, 1, wb, attraction, a-b-db, 2, 2, 5, 3, 89, 163, 165, 90, 90, 165, 2, 2.39158
294, 1, wb, filler, NA, 999, 999, 5, 4, 56, 144, 79, 192, 109, 112, 1, 1.34085
294, 1, wb, filler, NA, 999, 999, 5, 4, 56, 144, 79, 192, 109, 112, 3, 9.00568
294, 1, wb, attraction, a-b-da, 5, 3, 5, 5, 195, 120, 190, 117, 120, 195, 3, 5.20895
294, 1, wb, attraction, a-b-da, 5, 3, 5, 5, 195, 120, 190, 117, 120, 195, 1, 1.26984
294, 1, wb, filler, NA, 999, 999, 5, 6, 57, 81, 90, 110, 134, 124, 1, 0.792735
294, 1, wb, filler, NA, 999, 999, 5, 6, 57, 81, 90, 110, 134, 124, 3, 0.359772
294, 1, wb, attraction, a-b-db, 14, 2, 5, 7, 83, 153, 90, 165, 165, 90, 2, 1.7829
294, 1, wb, attraction, a-b-db, 14, 2, 5, 7, 83, 153, 90, 165, 165, 90, 3, 0.335287
294, 1, wb, attraction, a-b-da, 14, 1, 5, 8, 125, 56, 60, 135, 135, 60, 2, 1.31089
294, 1, wb, attraction, a-b-da, 14, 1, 5, 8, 125, 56, 60, 135, 135, 60, 3, 0.489093
294, 1, wb, filler, NA, 999, 999, 5, 9, 116, 125, 83, 89, 194, 106, 2, 0.731502
294, 1, wb, filler, NA, 999, 999, 5, 9, 116, 125, 83, 89, 194, 106, 3, 0.397327
294, 1, wb, attraction, a-b-db, 5, 3, 5, 10, 117, 190, 195, 120, 120, 195, 2, 2.05913
294, 1, wb, attraction, a-b-db, 5, 3, 5, 10, 117, 190, 195, 120, 120, 195, 3, 0.839066
294, 1, wb, attraction, a-b-da, 14, 2, 5, 11, 90, 165, 165, 90, 153, 83, 3, 0.803462
294, 1, wb, attraction, a-b-da, 14, 2, 5, 11, 90, 165, 165, 90, 153, 83, 1, 0.754492
294, 1, wb, attraction, a-b-db, 9, 1, 5, 12, 135, 60, 60, 135, 57, 129, 3, 1.03421
294, 1, wb, attraction, a-b-db, 9, 1, 5, 12, 135, 60, 60, 135, 57, 129, 1, 0.543864
294, 1, wb, attraction, a-b-db, 9, 3, 5, 13, 120, 195, 195, 120, 114, 186, 3, 3.44769
294, 1, wb, attraction, a-b-db, 9, 3, 5, 13, 120, 195, 195, 120, 114, 186, 1, 0.771908
294, 1, wb, filler, NA, 999, 999, 5, 14, 166, 187, 71, 153, 131, 127, 2, 1.46696
294, 1, wb, filler, NA, 999, 999, 5, 14, 166, 187, 71, 153, 131, 127, 3, 0.271114
294, 1, wb, filler, NA, 999, 999, 5, 15, 116, 69, 156, 121, 147, 149, 1, 2.50622
294, 1, wb, filler, NA, 999, 999, 5, 15, 116, 69, 156, 121, 147, 149, 3, 0.404194
294, 1, wb, attraction, a-b-db, 5, 2, 5, 16, 88, 161, 90, 165, 165, 90, 2, 2.13797
294, 1, wb, attraction, a-b-db, 5, 2, 5, 16, 88, 161, 90, 165, 165, 90, 3, 0.579225
294, 1, wb, attraction, a-b-da, 2, 3, 5, 17, 195, 120, 120, 195, 193, 119, 2, 4.46567
294, 1, wb, attraction, a-b-da, 2, 3, 5, 17, 195, 120, 120, 195, 193, 119, 1, 0.741002
294, 1, wb, attraction, a-b-da, 5, 2, 5, 18, 161, 88, 165, 90, 90, 165, 1, 4.53261
294, 1, wb, attraction, a-b-da, 5, 2, 5, 18, 161, 88, 165, 90, 90, 165, 3, 3.84516
294, 1, wb, catch, NA, 999, 999, 5, 19, 125, 70, 149, 106, 158, 157, 1, 1.17587
294, 1, wb, catch, NA, 999, 999, 5, 19, 125, 70, 149, 106, 158, 157, 3, 0.351513
294, 1, wb, filler, NA, 999, 999, 5, 20, 185, 123, 132, 130, 62, 185, 3, 0.767417
294, 1, wb, filler, NA, 999, 999, 5, 20, 185, 123, 132, 130, 62, 185, 1, 1.15989
294, 1, wb, attraction, a-b-db, 5, 1, 5, 21, 135, 60, 58, 132, 60, 135, 3, 1.87071
294, 1, wb, attraction, a-b-db, 5, 1, 5, 21, 135, 60, 58, 132, 60, 135, 1, 1.35478
294, 1, wb, filler, NA, 999, 999, 5, 22, 150, 163, 147, 163, 98, 168, 3, 1.20228
294, 1, wb, filler, NA, 999, 999, 5, 22, 150, 163, 147, 163, 98, 168, 1, 0.481247
294, 1, wb, attraction, a-b-db, 9, 2, 5, 23, 165, 90, 86, 157, 90, 165, 2, 2.94774
294, 1, wb, attraction, a-b-db, 9, 2, 5, 23, 165, 90, 86, 157, 90, 165, 1, 0.492045
294, 1, wb, attraction, a-b-da, 9, 2, 5, 24, 165, 90, 157, 86, 90, 165, 3, 0.717873
294, 1, wb, attraction, a-b-da, 9, 2, 5, 24, 165, 90, 157, 86, 90, 165, 1, 0.512238
294, 1, wb, attraction, a-b-da, 2, 2, 5, 25, 165, 90, 90, 165, 163, 89, 2, 4.25742
294, 1, wb, attraction, a-b-da, 2, 2, 5, 25, 165, 90, 90, 165, 163, 89, 3, 0.33277
294, 1, wb, attraction, a-b-db, 14, 1, 5, 26, 135, 60, 56, 125, 60, 135, 1, 1.8131
294, 1, wb, attraction, a-b-db, 14, 1, 5, 26, 135, 60, 56, 125, 60, 135, 3, 0.643235
294, 1, wb, filler, NA, 999, 999, 5, 27, 63, 158, 140, 161, 179, 153, 1, 0.71907
294, 1, wb, filler, NA, 999, 999, 5, 27, 63, 158, 140, 161, 179, 153, 3, 0.497467
294, 1, wb, attraction, a-b-da, 9, 1, 5, 28, 129, 57, 60, 135, 135, 60, 2, 1.37924
294, 1, wb, attraction, a-b-da, 9, 1, 5, 28, 129, 57, 60, 135, 135, 60, 3, 1.97091
294, 1, wb, attraction, a-b-db, 2, 1, 5, 29, 60, 135, 135, 60, 59, 134, 2, 0.913446
294, 1, wb, attraction, a-b-db, 2, 1, 5, 29, 60, 135, 135, 60, 59, 134, 1, 0.635743
294, 1, wb, attraction, a-b-da, 14, 3, 5, 30, 120, 195, 181, 111, 195, 120, 2, 1.70411
294, 1, wb, attraction, a-b-da, 14, 3, 5, 30, 120, 195, 181, 111, 195, 120, 3, 1.93896
294, 1, wb, attraction, a-b-da, 2, 1, 5, 31, 135, 60, 60, 135, 134, 59, 2, 1.09893
294, 1, wb, attraction, a-b-da, 2, 1, 5, 31, 135, 60, 60, 135, 134, 59, 1, 1.07794
294, 1, wb, attraction, a-b-da, 9, 3, 5, 32, 195, 120, 120, 195, 186, 114, 3, 2.15216
294, 1, wb, attraction, a-b-da, 9, 3, 5, 32, 195, 120, 120, 195, 186, 114, 1, 0.872853
294, 1, wb, attraction, a-b-db, 2, 3, 5, 33, 120, 195, 195, 120, 119, 193, 3, 2.15582
294, 1, wb, attraction, a-b-db, 2, 3, 5, 33, 120, 195, 195, 120, 119, 193, 1, 1.05185
294, 1, wb, filler, NA, 999, 999, 5, 34, 147, 59, 113, 184, 186, 111, 1, 1.09533
294, 1, wb, filler, NA, 999, 999, 5, 34, 147, 59, 113, 184, 186, 111, 2, 0.426281
294, 1, wb, filler, NA, 999, 999, 5, 35, 60, 161, 85, 118, 187, 67, 2, 0.934798
294, 1, wb, filler, NA, 999, 999, 5, 35, 60, 161, 85, 118, 187, 67, 3, 0.864539
294, 1, wb, attraction, a-b-db, 14, 3, 5, 36, 111, 181, 120, 195, 195, 120, 2, 1.99553
294, 1, wb, attraction, a-b-db, 14, 3, 5, 36, 111, 181, 120, 195, 195, 120, 3, 0.362208
294, 1, wb, catch, NA, 999, 999, 5, 37, 128, 187, 134, 121, 130, 65, 3, 1.00141
294, 1, wb, catch, NA, 999, 999, 5, 37, 128, 187, 134, 121, 130, 65, 1, 0.304289
294, 1, wb, attraction, a-b-db, 2, 2, 6, 1, 90, 165, 89, 163, 165, 90, 1, 1.06623
294, 1, wb, attraction, a-b-db, 2, 2, 6, 1, 90, 165, 89, 163, 165, 90, 2, 0.96647
294, 1, wb, filler, NA, 999, 999, 6, 2, 173, 62, 142, 124, 77, 186, 1, 0.789432
294, 1, wb, filler, NA, 999, 999, 6, 2, 173, 62, 142, 124, 77, 186, 2, 0.444676
294, 1, wb, attraction, a-b-da, 14, 1, 6, 3, 60, 135, 125, 56, 135, 60, 2, 0.728483
294, 1, wb, attraction, a-b-da, 14, 1, 6, 3, 60, 135, 125, 56, 135, 60, 3, 0.602111
294, 1, wb, attraction, a-b-da, 9, 3, 6, 4, 120, 195, 195, 120, 186, 114, 3, 3.86378
294, 1, wb, attraction, a-b-da, 9, 3, 6, 4, 120, 195, 195, 120, 186, 114, 1, 0.499314
294, 1, wb, filler, NA, 999, 999, 6, 5, 62, 74, 70, 111, 76, 94, 1, 0.829165
294, 1, wb, filler, NA, 999, 999, 6, 5, 62, 74, 70, 111, 76, 94, 2, 0.634771
294, 1, wb, attraction, a-b-da, 2, 3, 6, 6, 195, 120, 120, 195, 193, 119, 2, 1.50326
294, 1, wb, attraction, a-b-da, 2, 3, 6, 6, 195, 120, 120, 195, 193, 119, 3, 2.56207
294, 1, wb, attraction, a-b-da, 2, 2, 6, 7, 90, 165, 165, 90, 163, 89, 1, 2.02455
294, 1, wb, attraction, a-b-da, 2, 2, 6, 7, 90, 165, 165, 90, 163, 89, 2, 1.17388
294, 1, wb, attraction, a-b-da, 2, 1, 6, 8, 135, 60, 60, 135, 134, 59, 2, 3.60408
294, 1, wb, attraction, a-b-da, 2, 1, 6, 8, 135, 60, 60, 135, 134, 59, 1, 0.826286
294, 1, wb, attraction, a-b-da, 5, 1, 6, 9, 60, 135, 132, 58, 135, 60, 1, 4.24661
294, 1, wb, attraction, a-b-da, 5, 1, 6, 9, 60, 135, 132, 58, 135, 60, 3, 0.930617
294, 1, wb, filler, NA, 999, 999, 6, 10, 59, 101, 183, 56, 104, 179, 1, 0.658921
294, 1, wb, filler, NA, 999, 999, 6, 10, 59, 101, 183, 56, 104, 179, 3, 0.743357
294, 1, wb, catch, NA, 999, 999, 6, 11, 133, 122, 83, 112, 122, 193, 2, 0.902973
294, 1, wb, catch, NA, 999, 999, 6, 11, 133, 122, 83, 112, 122, 193, 3, 0.602116
294, 1, wb, attraction, a-b-db, 5, 2, 6, 12, 90, 165, 88, 161, 165, 90, 2, 6.50391
294, 1, wb, attraction, a-b-db, 5, 2, 6, 12, 90, 165, 88, 161, 165, 90, 3, 0.337069
294, 1, wb, catch, NA, 999, 999, 6, 13, 148, 167, 108, 87, 130, 125, 2, 0.641637
294, 1, wb, catch, NA, 999, 999, 6, 13, 148, 167, 108, 87, 130, 125, 1, 0.542716
294, 1, wb, attraction, a-b-db, 9, 2, 6, 14, 165, 90, 90, 165, 86, 157, 1, 0.918548
294, 1, wb, attraction, a-b-db, 9, 2, 6, 14, 165, 90, 90, 165, 86, 157, 2, 0.432829
294, 1, wb, filler, NA, 999, 999, 6, 15, 121, 124, 195, 56, 90, 66, 3, 1.11736
294, 1, wb, filler, NA, 999, 999, 6, 15, 121, 124, 195, 56, 90, 66, 1, 0.527654
294, 1, wb, attraction, a-b-da, 9, 1, 6, 16, 135, 60, 129, 57, 60, 135, 3, 2.35205
294, 1, wb, attraction, a-b-da, 9, 1, 6, 16, 135, 60, 129, 57, 60, 135, 1, 1.04065
294, 1, wb, attraction, a-b-db, 9, 1, 6, 17, 57, 129, 60, 135, 135, 60, 2, 2.13238
294, 1, wb, attraction, a-b-db, 9, 1, 6, 17, 57, 129, 60, 135, 135, 60, 3, 0.733584
294, 1, wb, attraction, a-b-da, 5, 3, 6, 18, 120, 195, 195, 120, 190, 117, 1, 2.36587
294, 1, wb, attraction, a-b-da, 5, 3, 6, 18, 120, 195, 195, 120, 190, 117, 3, 2.97377
294, 1, wb, attraction, a-b-db, 2, 3, 6, 19, 120, 195, 195, 120, 119, 193, 2, 1.27613
294, 1, wb, attraction, a-b-db, 2, 3, 6, 19, 120, 195, 195, 120, 119, 193, 1, 1.39171
294, 1, wb, filler, NA, 999, 999, 6, 20, 194, 131, 129, 149, 175, 195, 2, 2.30934
294, 1, wb, filler, NA, 999, 999, 6, 20, 194, 131, 129, 149, 175, 195, 3, 0.263156
294, 1, wb, catch, NA, 999, 999, 6, 21, 139, 176, 145, 110, 128, 67, 3, 0.890411
294, 1, wb, catch, NA, 999, 999, 6, 21, 139, 176, 145, 110, 128, 67, 1, 0.493535
294, 1, wb, filler, NA, 999, 999, 6, 22, 104, 107, 109, 154, 145, 115, 1, 1.02312
294, 1, wb, filler, NA, 999, 999, 6, 22, 104, 107, 109, 154, 145, 115, 2, 1.53281
294, 1, wb, filler, NA, 999, 999, 6, 23, 180, 81, 185, 183, 67, 109, 3, 1.87696
294, 1, wb, filler, NA, 999, 999, 6, 23, 180, 81, 185, 183, 67, 109, 2, 0.344424
294, 1, wb, filler, NA, 999, 999, 6, 24, 147, 129, 121, 164, 181, 59, 1, 1.59216
294, 1, wb, filler, NA, 999, 999, 6, 24, 147, 129, 121, 164, 181, 59, 2, 0.598908
294, 1, wb, attraction, a-b-db, 9, 3, 6, 25, 195, 120, 114, 186, 120, 195, 2, 2.35669
294, 1, wb, attraction, a-b-db, 9, 3, 6, 25, 195, 120, 114, 186, 120, 195, 1, 0.948611
294, 1, wb, attraction, a-b-db, 5, 1, 6, 26, 58, 132, 60, 135, 135, 60, 2, 1.96446
294, 1, wb, attraction, a-b-db, 5, 1, 6, 26, 58, 132, 60, 135, 135, 60, 3, 1.18033
294, 1, wb, attraction, a-b-db, 14, 1, 6, 27, 56, 125, 60, 135, 135, 60, 3, 1.26659
294, 1, wb, attraction, a-b-db, 14, 1, 6, 27, 56, 125, 60, 135, 135, 60, 2, 0.486827
294, 1, wb, filler, NA, 999, 999, 6, 28, 156, 71, 88, 113, 59, 109, 3, 1.24924
294, 1, wb, filler, NA, 999, 999, 6, 28, 156, 71, 88, 113, 59, 109, 2, 0.3663
294, 1, wb, filler, NA, 999, 999, 6, 29, 110, 78, 137, 95, 194, 64, 1, 0.813435
294, 1, wb, filler, NA, 999, 999, 6, 29, 110, 78, 137, 95, 194, 64, 2, 0.331719
294, 1, wb, attraction, a-b-da, 9, 2, 6, 30, 157, 86, 165, 90, 90, 165, 3, 2.1242
294, 1, wb, attraction, a-b-da, 9, 2, 6, 30, 157, 86, 165, 90, 90, 165, 2, 0.597463
294, 1, wb, attraction, a-b-da, 5, 2, 6, 31, 90, 165, 165, 90, 161, 88, 2, 2.03527
294, 1, wb, attraction, a-b-da, 5, 2, 6, 31, 90, 165, 165, 90, 161, 88, 1, 0.664628
294, 1, wb, attraction, a-b-db, 2, 1, 6, 32, 60, 135, 135, 60, 59, 134, 2, 0.827843
294, 1, wb, attraction, a-b-db, 2, 1, 6, 32, 60, 135, 135, 60, 59, 134, 3, 0.569409
294, 1, wb, attraction, a-b-da, 14, 2, 6, 33, 153, 83, 90, 165, 165, 90, 1, 0.904438
294, 1, wb, attraction, a-b-da, 14, 2, 6, 33, 153, 83, 90, 165, 165, 90, 2, 0.371505
294, 1, wb, attraction, a-b-db, 14, 2, 6, 34, 83, 153, 90, 165, 165, 90, 2, 3.37868
294, 1, wb, attraction, a-b-db, 14, 2, 6, 34, 83, 153, 90, 165, 165, 90, 3, 2.58561
294, 1, wb, attraction, a-b-db, 5, 3, 6, 35, 195, 120, 117, 190, 120, 195, 1, 5.91944
294, 1, wb, attraction, a-b-db, 5, 3, 6, 35, 195, 120, 117, 190, 120, 195, 3, 0.360197
294, 1, wb, attraction, a-b-da, 14, 3, 6, 36, 181, 111, 195, 120, 120, 195, 1, 1.87137
294, 1, wb, attraction, a-b-da, 14, 3, 6, 36, 181, 111, 195, 120, 120, 195, 3, 0.506775
294, 1, wb, attraction, a-b-db, 14, 3, 6, 37, 120, 195, 195, 120, 111, 181, 3, 2.07585
294, 1, wb, attraction, a-b-db, 14, 3, 6, 37, 120, 195, 195, 120, 111, 181, 2, 1.93516
294, 1, wb, attraction, a-b-db, 14, 2, 7, 1, 83, 153, 165, 90, 90, 165, 1, 1.16711
294, 1, wb, attraction, a-b-db, 14, 2, 7, 1, 83, 153, 165, 90, 90, 165, 3, 1.93549
294, 1, wb, filler, NA, 999, 999, 7, 2, 173, 115, 178, 163, 59, 172, 3, 1.75149
294, 1, wb, filler, NA, 999, 999, 7, 2, 173, 115, 178, 163, 59, 172, 2, 0.424242
294, 1, wb, catch, NA, 999, 999, 7, 3, 175, 140, 99, 156, 114, 81, 3, 1.31672
294, 1, wb, catch, NA, 999, 999, 7, 3, 175, 140, 99, 156, 114, 81, 1, 0.398941
294, 1, wb, catch, NA, 999, 999, 7, 4, 147, 108, 97, 98, 191, 124, 2, 0.724739
294, 1, wb, catch, NA, 999, 999, 7, 4, 147, 108, 97, 98, 191, 124, 3, 0.582541
294, 1, wb, attraction, a-b-da, 5, 3, 7, 5, 190, 117, 195, 120, 120, 195, 2, 4.18895
294, 1, wb, attraction, a-b-da, 5, 3, 7, 5, 190, 117, 195, 120, 120, 195, 3, 0.242863
294, 1, wb, attraction, a-b-db, 5, 1, 7, 6, 58, 132, 60, 135, 135, 60, 1, 1.43876
294, 1, wb, attraction, a-b-db, 5, 1, 7, 6, 58, 132, 60, 135, 135, 60, 3, 3.03572
294, 1, wb, attraction, a-b-db, 14, 1, 7, 7, 56, 125, 135, 60, 60, 135, 2, 1.04731
294, 1, wb, attraction, a-b-db, 14, 1, 7, 7, 56, 125, 135, 60, 60, 135, 3, 0.47631
294, 1, wb, filler, NA, 999, 999, 7, 8, 95, 98, 147, 165, 92, 121, 1, 0.702694
294, 1, wb, filler, NA, 999, 999, 7, 8, 95, 98, 147, 165, 92, 121, 2, 0.32184
294, 1, wb, attraction, a-b-db, 9, 2, 7, 9, 86, 157, 165, 90, 90, 165, 2, 5.69097
294, 1, wb, attraction, a-b-db, 9, 2, 7, 9, 86, 157, 165, 90, 90, 165, 3, 0.292519
294, 1, wb, attraction, a-b-db, 2, 1, 7, 10, 59, 134, 135, 60, 60, 135, 2, 2.55041
294, 1, wb, attraction, a-b-db, 2, 1, 7, 10, 59, 134, 135, 60, 60, 135, 3, 0.886944
294, 1, wb, filler, NA, 999, 999, 7, 11, 99, 108, 128, 182, 164, 149, 1, 0.801246
294, 1, wb, filler, NA, 999, 999, 7, 11, 99, 108, 128, 182, 164, 149, 3, 0.344337
294, 1, wb, attraction, a-b-da, 9, 2, 7, 12, 157, 86, 165, 90, 90, 165, 3, 2.1122
294, 1, wb, attraction, a-b-da, 9, 2, 7, 12, 157, 86, 165, 90, 90, 165, 1, 0.370183
294, 1, wb, filler, NA, 999, 999, 7, 13, 74, 154, 66, 100, 104, 161, 2, 0.673231
294, 1, wb, filler, NA, 999, 999, 7, 13, 74, 154, 66, 100, 104, 161, 3, 0.541094
294, 1, wb, attraction, a-b-db, 2, 2, 7, 14, 89, 163, 165, 90, 90, 165, 3, 2.39676
294, 1, wb, attraction, a-b-db, 2, 2, 7, 14, 89, 163, 165, 90, 90, 165, 2, 0.283328
294, 1, wb, attraction, a-b-db, 9, 3, 7, 15, 120, 195, 195, 120, 114, 186, 3, 1.63791
294, 1, wb, attraction, a-b-db, 9, 3, 7, 15, 120, 195, 195, 120, 114, 186, 2, 2.33934
294, 1, wb, filler, NA, 999, 999, 7, 16, 82, 166, 119, 99, 195, 57, 3, 2.1553
294, 1, wb, filler, NA, 999, 999, 7, 16, 82, 166, 119, 99, 195, 57, 1, 2.30737
294, 1, wb, filler, NA, 999, 999, 7, 17, 178, 135, 111, 72, 152, 59, 2, 2.02787
294, 1, wb, filler, NA, 999, 999, 7, 17, 178, 135, 111, 72, 152, 59, 1, 0.289048
294, 1, wb, attraction, a-b-da, 2, 2, 7, 18, 163, 89, 165, 90, 90, 165, 1, 1.8436
294, 1, wb, attraction, a-b-da, 2, 2, 7, 18, 163, 89, 165, 90, 90, 165, 2, 0.504323
294, 1, wb, attraction, a-b-db, 5, 3, 7, 19, 120, 195, 117, 190, 195, 120, 3, 2.75412
294, 1, wb, attraction, a-b-db, 5, 3, 7, 19, 120, 195, 117, 190, 195, 120, 2, 0.431251
294, 1, wb, attraction, a-b-da, 14, 2, 7, 20, 165, 90, 90, 165, 153, 83, 1, 1.55104
294, 1, wb, attraction, a-b-da, 14, 2, 7, 20, 165, 90, 90, 165, 153, 83, 2, 0.29584
294, 1, wb, attraction, a-b-da, 2, 3, 7, 21, 120, 195, 193, 119, 195, 120, 1, 6.11372
294, 1, wb, attraction, a-b-da, 2, 3, 7, 21, 120, 195, 193, 119, 195, 120, 2, 1.28249
294, 1, wb, catch, NA, 999, 999, 7, 22, 162, 93, 122, 73, 135, 180, 2, 0.900583
294, 1, wb, catch, NA, 999, 999, 7, 22, 162, 93, 122, 73, 135, 180, 3, 0.295697
294, 1, wb, attraction, a-b-da, 5, 1, 7, 23, 132, 58, 135, 60, 60, 135, 3, 2.64153
294, 1, wb, attraction, a-b-da, 5, 1, 7, 23, 132, 58, 135, 60, 60, 135, 1, 0.605993
294, 1, wb, filler, NA, 999, 999, 7, 24, 193, 165, 158, 182, 170, 103, 3, 1.94775
294, 1, wb, filler, NA, 999, 999, 7, 24, 193, 165, 158, 182, 170, 103, 1, 2.05249
294, 1, wb, attraction, a-b-da, 5, 2, 7, 25, 165, 90, 90, 165, 161, 88, 2, 1.52766
294, 1, wb, attraction, a-b-da, 5, 2, 7, 25, 165, 90, 90, 165, 161, 88, 1, 1.02528
294, 1, wb, attraction, a-b-db, 14, 3, 7, 26, 195, 120, 120, 195, 111, 181, 3, 1.26953
294, 1, wb, attraction, a-b-db, 14, 3, 7, 26, 195, 120, 120, 195, 111, 181, 1, 0.633777
294, 1, wb, attraction, a-b-db, 9, 1, 7, 27, 135, 60, 57, 129, 60, 135, 2, 0.662122
294, 1, wb, attraction, a-b-db, 9, 1, 7, 27, 135, 60, 57, 129, 60, 135, 3, 0.786624
294, 1, wb, attraction, a-b-db, 5, 2, 7, 28, 88, 161, 165, 90, 90, 165, 3, 2.66492
294, 1, wb, attraction, a-b-db, 5, 2, 7, 28, 88, 161, 165, 90, 90, 165, 2, 0.252773
294, 1, wb, attraction, a-b-da, 9, 3, 7, 29, 186, 114, 195, 120, 120, 195, 3, 1.61658
294, 1, wb, attraction, a-b-da, 9, 3, 7, 29, 186, 114, 195, 120, 120, 195, 2, 0.358735
294, 1, wb, attraction, a-b-da, 14, 1, 7, 30, 135, 60, 60, 135, 125, 56, 3, 0.974038
294, 1, wb, attraction, a-b-da, 14, 1, 7, 30, 135, 60, 60, 135, 125, 56, 2, 0.533698
294, 1, wb, filler, NA, 999, 999, 7, 31, 153, 135, 76, 56, 124, 78, 2, 0.646003
294, 1, wb, filler, NA, 999, 999, 7, 31, 153, 135, 76, 56, 124, 78, 1, 0.331079
294, 1, wb, filler, NA, 999, 999, 7, 32, 150, 60, 73, 93, 98, 195, 1, 1.13168
294, 1, wb, filler, NA, 999, 999, 7, 32, 150, 60, 73, 93, 98, 195, 3, 0.301296
294, 1, wb, filler, NA, 999, 999, 7, 33, 148, 145, 114, 173, 190, 120, 2, 1.17514
294, 1, wb, filler, NA, 999, 999, 7, 33, 148, 145, 114, 173, 190, 120, 3, 0.310866
294, 1, wb, attraction, a-b-da, 14, 3, 7, 34, 120, 195, 181, 111, 195, 120, 3, 3.72783
294, 1, wb, attraction, a-b-da, 14, 3, 7, 34, 120, 195, 181, 111, 195, 120, 2, 0.280821
294, 1, wb, attraction, a-b-da, 2, 1, 7, 35, 134, 59, 60, 135, 135, 60, 2, 1.18717
294, 1, wb, attraction, a-b-da, 2, 1, 7, 35, 134, 59, 60, 135, 135, 60, 3, 0.330835
294, 1, wb, attraction, a-b-db, 2, 3, 7, 36, 195, 120, 119, 193, 120, 195, 1, 2.03533
294, 1, wb, attraction, a-b-db, 2, 3, 7, 36, 195, 120, 119, 193, 120, 195, 2, 0.216684
294, 1, wb, attraction, a-b-da, 9, 1, 7, 37, 129, 57, 135, 60, 60, 135, 1, 1.41393
294, 1, wb, attraction, a-b-da, 9, 1, 7, 37, 129, 57, 135, 60, 60, 135, 3, 0.260178
294, 1, wb, filler, NA, 999, 999, 8, 1, 127, 104, 78, 101, 188, 70, 2, 0.927226
294, 1, wb, filler, NA, 999, 999, 8, 1, 127, 104, 78, 101, 188, 70, 1, 0.224926
294, 1, wb, attraction, a-b-da, 9, 3, 8, 2, 186, 114, 195, 120, 120, 195, 3, 2.87752
294, 1, wb, attraction, a-b-da, 9, 3, 8, 2, 186, 114, 195, 120, 120, 195, 1, 0.560562
294, 1, wb, attraction, a-b-da, 14, 3, 8, 3, 181, 111, 195, 120, 120, 195, 1, 0.815593
294, 1, wb, attraction, a-b-da, 14, 3, 8, 3, 181, 111, 195, 120, 120, 195, 2, 0.254149
294, 1, wb, attraction, a-b-da, 14, 1, 8, 4, 125, 56, 135, 60, 60, 135, 3, 0.993879
294, 1, wb, attraction, a-b-da, 14, 1, 8, 4, 125, 56, 135, 60, 60, 135, 2, 0.825012
294, 1, wb, filler, NA, 999, 999, 8, 5, 78, 163, 133, 161, 128, 77, 1, 0.861233
294, 1, wb, filler, NA, 999, 999, 8, 5, 78, 163, 133, 161, 128, 77, 2, 1.0016
294, 1, wb, attraction, a-b-db, 2, 1, 8, 6, 59, 134, 135, 60, 60, 135, 3, 1.16732
294, 1, wb, attraction, a-b-db, 2, 1, 8, 6, 59, 134, 135, 60, 60, 135, 2, 0.535603
294, 1, wb, attraction, a-b-db, 5, 1, 8, 7, 60, 135, 58, 132, 135, 60, 2, 1.17597
294, 1, wb, attraction, a-b-db, 5, 1, 8, 7, 60, 135, 58, 132, 135, 60, 3, 0.199581
294, 1, wb, attraction, a-b-db, 14, 1, 8, 8, 60, 135, 135, 60, 56, 125, 1, 0.861378
294, 1, wb, attraction, a-b-db, 14, 1, 8, 8, 60, 135, 135, 60, 56, 125, 2, 0.177846
294, 1, wb, attraction, a-b-da, 2, 1, 8, 9, 134, 59, 60, 135, 135, 60, 1, 1.1043
294, 1, wb, attraction, a-b-da, 2, 1, 8, 9, 134, 59, 60, 135, 135, 60, 2, 0.891305
294, 1, wb, filler, NA, 999, 999, 8, 10, 190, 150, 144, 171, 78, 154, 3, 0.732973
294, 1, wb, filler, NA, 999, 999, 8, 10, 190, 150, 144, 171, 78, 154, 1, 0.278792
294, 1, wb, filler, NA, 999, 999, 8, 11, 91, 195, 72, 148, 127, 123, 2, 0.753258
294, 1, wb, filler, NA, 999, 999, 8, 11, 91, 195, 72, 148, 127, 123, 3, 0.178307
294, 1, wb, filler, NA, 999, 999, 8, 12, 88, 157, 176, 133, 126, 73, 3, 1.62499
294, 1, wb, filler, NA, 999, 999, 8, 12, 88, 157, 176, 133, 126, 73, 2, 0.286339
294, 1, wb, attraction, a-b-db, 5, 2, 8, 13, 90, 165, 165, 90, 88, 161, 3, 1.84885
294, 1, wb, attraction, a-b-db, 5, 2, 8, 13, 90, 165, 165, 90, 88, 161, 2, 0.189736
294, 1, wb, attraction, a-b-da, 9, 2, 8, 14, 90, 165, 157, 86, 165, 90, 2, 1.23629
294, 1, wb, attraction, a-b-da, 9, 2, 8, 14, 90, 165, 157, 86, 165, 90, 3, 1.00503
294, 1, wb, attraction, a-b-da, 5, 2, 8, 15, 165, 90, 90, 165, 161, 88, 3, 1.18343
294, 1, wb, attraction, a-b-da, 5, 2, 8, 15, 165, 90, 90, 165, 161, 88, 2, 0.694998
294, 1, wb, filler, NA, 999, 999, 8, 16, 60, 143, 80, 105, 111, 139, 1, 0.896669
294, 1, wb, filler, NA, 999, 999, 8, 16, 60, 143, 80, 105, 111, 139, 3, 1.67573
294, 1, wb, attraction, a-b-db, 9, 2, 8, 17, 90, 165, 165, 90, 86, 157, 2, 1.33384
294, 1, wb, attraction, a-b-db, 9, 2, 8, 17, 90, 165, 165, 90, 86, 157, 1, 0.463498
294, 1, wb, attraction, a-b-db, 2, 3, 8, 18, 120, 195, 119, 193, 195, 120, 2, 3.21054
294, 1, wb, attraction, a-b-db, 2, 3, 8, 18, 120, 195, 119, 193, 195, 120, 3, 0.248158
294, 1, wb, attraction, a-b-db, 9, 1, 8, 19, 135, 60, 60, 135, 57, 129, 2, 1.44404
294, 1, wb, attraction, a-b-db, 9, 1, 8, 19, 135, 60, 60, 135, 57, 129, 1, 0.624792
294, 1, wb, attraction, a-b-da, 5, 3, 8, 20, 120, 195, 190, 117, 195, 120, 2, 9.43736
294, 1, wb, attraction, a-b-da, 5, 3, 8, 20, 120, 195, 190, 117, 195, 120, 3, 0.544315
294, 1, wb, filler, NA, 999, 999, 8, 21, 176, 120, 121, 179, 146, 191, 1, 0.80005
294, 1, wb, filler, NA, 999, 999, 8, 21, 176, 120, 121, 179, 146, 191, 3, 0.343166
294, 1, wb, attraction, a-b-db, 9, 3, 8, 22, 120, 195, 195, 120, 114, 186, 2, 1.03095
294, 1, wb, attraction, a-b-db, 9, 3, 8, 22, 120, 195, 195, 120, 114, 186, 1, 0.668654
294, 1, wb, catch, NA, 999, 999, 8, 23, 106, 89, 136, 119, 168, 147, 1, 0.583645
294, 1, wb, catch, NA, 999, 999, 8, 23, 106, 89, 136, 119, 168, 147, 3, 0.559428
294, 1, wb, attraction, a-b-db, 2, 2, 8, 24, 89, 163, 165, 90, 90, 165, 3, 1.01461
294, 1, wb, attraction, a-b-db, 2, 2, 8, 24, 89, 163, 165, 90, 90, 165, 1, 0.356883
294, 1, wb, attraction, a-b-da, 5, 1, 8, 25, 135, 60, 132, 58, 60, 135, 2, 0.796021
294, 1, wb, attraction, a-b-da, 5, 1, 8, 25, 135, 60, 132, 58, 60, 135, 3, 0.267091
294, 1, wb, attraction, a-b-da, 14, 2, 8, 26, 153, 83, 90, 165, 165, 90, 1, 0.518291
294, 1, wb, attraction, a-b-da, 14, 2, 8, 26, 153, 83, 90, 165, 165, 90, 2, 0.312798
294, 1, wb, attraction, a-b-db, 14, 3, 8, 27, 111, 181, 120, 195, 195, 120, 1, 0.705938
294, 1, wb, attraction, a-b-db, 14, 3, 8, 27, 111, 181, 120, 195, 195, 120, 3, 0.308381
294, 1, wb, attraction, a-b-da, 2, 3, 8, 28, 120, 195, 193, 119, 195, 120, 3, 0.901498
294, 1, wb, attraction, a-b-da, 2, 3, 8, 28, 120, 195, 193, 119, 195, 120, 2, 0.264616
294, 1, wb, catch, NA, 999, 999, 8, 29, 108, 87, 124, 191, 94, 161, 1, 0.555761
294, 1, wb, catch, NA, 999, 999, 8, 29, 108, 87, 124, 191, 94, 161, 2, 0.372237
294, 1, wb, filler, NA, 999, 999, 8, 30, 61, 113, 191, 115, 59, 161, 1, 0.555391
294, 1, wb, filler, NA, 999, 999, 8, 30, 61, 113, 191, 115, 59, 161, 2, 0.235821
294, 1, wb, attraction, a-b-da, 9, 1, 8, 31, 60, 135, 135, 60, 129, 57, 1, 0.800319
294, 1, wb, attraction, a-b-da, 9, 1, 8, 31, 60, 135, 135, 60, 129, 57, 2, 0.543515
294, 1, wb, filler, NA, 999, 999, 8, 32, 169, 195, 168, 96, 75, 105, 3, 0.767268
294, 1, wb, filler, NA, 999, 999, 8, 32, 169, 195, 168, 96, 75, 105, 1, 0.239614
294, 1, wb, filler, NA, 999, 999, 8, 33, 163, 87, 93, 82, 136, 126, 2, 1.3482
294, 1, wb, filler, NA, 999, 999, 8, 33, 163, 87, 93, 82, 136, 126, 3, 0.285083
294, 1, wb, attraction, a-b-db, 5, 3, 8, 34, 195, 120, 120, 195, 117, 190, 1, 0.86355
294, 1, wb, attraction, a-b-db, 5, 3, 8, 34, 195, 120, 120, 195, 117, 190, 3, 0.30791
294, 1, wb, catch, NA, 999, 999, 8, 35, 65, 130, 98, 157, 136, 179, 1, 0.565148
294, 1, wb, catch, NA, 999, 999, 8, 35, 65, 130, 98, 157, 136, 179, 3, 0.57369
294, 1, wb, attraction, a-b-da, 2, 2, 8, 36, 165, 90, 163, 89, 90, 165, 3, 1.18022
294, 1, wb, attraction, a-b-da, 2, 2, 8, 36, 165, 90, 163, 89, 90, 165, 1, 0.571648
294, 1, wb, attraction, a-b-db, 14, 2, 8, 37, 165, 90, 90, 165, 83, 153, 3, 0.898845
294, 1, wb, attraction, a-b-db, 14, 2, 8, 37, 165, 90, 90, 165, 83, 153, 1, 0.837753
