sub_n, computer_n, bw_cond, effect, set, distance, diag, block_n, trial_n, h1, w1, h2, w2, h3, w3, choice, rt 
217, 1, bw, practice, NA, 999, 999, 0, 1, 181, 85, 146, 81, 65, 135, 1, 3.44903
217, 1, bw, practice, NA, 999, 999, 0, 1, 181, 85, 146, 81, 65, 135, 3, 1.85556
217, 1, bw, practice, NA, 999, 999, 0, 2, 187, 83, 59, 120, 72, 193, 1, 3.71596
217, 1, bw, practice, NA, 999, 999, 0, 2, 187, 83, 59, 120, 72, 193, 2, 3.13388
217, 1, bw, practice, NA, 999, 999, 0, 3, 117, 62, 111, 68, 132, 70, 3, 2.48421
217, 1, bw, practice, NA, 999, 999, 0, 3, 117, 62, 111, 68, 132, 70, 1, 3.18953
217, 1, bw, attraction, a-b-da, 2, 1, 1, 1, 60, 135, 134, 59, 135, 60, 1, 2.37672
217, 1, bw, attraction, a-b-da, 2, 1, 1, 1, 60, 135, 134, 59, 135, 60, 2, 0.7521
217, 1, bw, attraction, a-b-da, 2, 3, 1, 2, 195, 120, 193, 119, 120, 195, 1, 1.93564
217, 1, bw, attraction, a-b-da, 2, 3, 1, 2, 195, 120, 193, 119, 120, 195, 2, 1.25707
217, 1, bw, attraction, a-b-db, 2, 3, 1, 3, 119, 193, 120, 195, 195, 120, 2, 2.11592
217, 1, bw, attraction, a-b-db, 2, 3, 1, 3, 119, 193, 120, 195, 195, 120, 1, 0.549943
217, 1, bw, catch, NA, 999, 999, 1, 4, 115, 140, 81, 114, 191, 124, 3, 1.72564
217, 1, bw, catch, NA, 999, 999, 1, 4, 115, 140, 81, 114, 191, 124, 2, 0.879195
217, 1, bw, attraction, a-b-db, 5, 3, 1, 5, 120, 195, 117, 190, 195, 120, 1, 1.67335
217, 1, bw, attraction, a-b-db, 5, 3, 1, 5, 120, 195, 117, 190, 195, 120, 2, 0.89301
217, 1, bw, attraction, a-b-da, 14, 1, 1, 6, 135, 60, 60, 135, 125, 56, 1, 1.94252
217, 1, bw, attraction, a-b-da, 14, 1, 1, 6, 135, 60, 60, 135, 125, 56, 3, 0.607299
217, 1, bw, attraction, a-b-da, 2, 2, 1, 7, 163, 89, 90, 165, 165, 90, 1, 3.02032
217, 1, bw, attraction, a-b-da, 2, 2, 1, 7, 163, 89, 90, 165, 165, 90, 3, 1.73808
217, 1, bw, attraction, a-b-db, 2, 1, 1, 8, 135, 60, 60, 135, 59, 134, 1, 2.05011
217, 1, bw, attraction, a-b-db, 2, 1, 1, 8, 135, 60, 60, 135, 59, 134, 2, 0.406736
217, 1, bw, attraction, a-b-db, 14, 2, 1, 9, 90, 165, 165, 90, 83, 153, 1, 1.68382
217, 1, bw, attraction, a-b-db, 14, 2, 1, 9, 90, 165, 165, 90, 83, 153, 2, 0.53537
217, 1, bw, filler, NA, 999, 999, 1, 10, 114, 99, 164, 167, 146, 175, 2, 1.1758
217, 1, bw, filler, NA, 999, 999, 1, 10, 114, 99, 164, 167, 146, 175, 1, 0.631369
217, 1, bw, filler, NA, 999, 999, 1, 11, 66, 142, 128, 173, 170, 61, 2, 1.90004
217, 1, bw, filler, NA, 999, 999, 1, 11, 66, 142, 128, 173, 170, 61, 1, 0.766528
217, 1, bw, attraction, a-b-db, 9, 1, 1, 12, 135, 60, 60, 135, 57, 129, 1, 10.2857
217, 1, bw, attraction, a-b-db, 9, 1, 1, 12, 135, 60, 60, 135, 57, 129, 2, 0.902343
217, 1, bw, attraction, a-b-da, 5, 3, 1, 13, 190, 117, 195, 120, 120, 195, 1, 5.79996
217, 1, bw, attraction, a-b-da, 5, 3, 1, 13, 190, 117, 195, 120, 120, 195, 2, 0.669519
217, 1, bw, attraction, a-b-da, 9, 3, 1, 14, 120, 195, 195, 120, 186, 114, 1, 1.00848
217, 1, bw, attraction, a-b-da, 9, 3, 1, 14, 120, 195, 195, 120, 186, 114, 3, 0.478885
217, 1, bw, attraction, a-b-db, 5, 1, 1, 15, 135, 60, 60, 135, 58, 132, 1, 0.873288
217, 1, bw, attraction, a-b-db, 5, 1, 1, 15, 135, 60, 60, 135, 58, 132, 3, 0.773135
217, 1, bw, filler, NA, 999, 999, 1, 16, 76, 162, 132, 147, 146, 168, 3, 1.18816
217, 1, bw, filler, NA, 999, 999, 1, 16, 76, 162, 132, 147, 146, 168, 1, 1.13098
217, 1, bw, catch, NA, 999, 999, 1, 17, 154, 161, 113, 142, 108, 87, 1, 0.635213
217, 1, bw, catch, NA, 999, 999, 1, 17, 154, 161, 113, 142, 108, 87, 3, 0.441138
217, 1, bw, attraction, a-b-db, 2, 2, 1, 18, 89, 163, 90, 165, 165, 90, 3, 2.35679
217, 1, bw, attraction, a-b-db, 2, 2, 1, 18, 89, 163, 90, 165, 165, 90, 2, 1.09264
217, 1, bw, attraction, a-b-da, 5, 2, 1, 19, 90, 165, 165, 90, 161, 88, 1, 1.33435
217, 1, bw, attraction, a-b-da, 5, 2, 1, 19, 90, 165, 165, 90, 161, 88, 3, 0.807927
217, 1, bw, attraction, a-b-da, 14, 3, 1, 20, 120, 195, 195, 120, 181, 111, 1, 0.540869
217, 1, bw, attraction, a-b-da, 14, 3, 1, 20, 120, 195, 195, 120, 181, 111, 3, 1.43805
217, 1, bw, filler, NA, 999, 999, 1, 21, 81, 140, 112, 190, 144, 195, 3, 1.14631
217, 1, bw, filler, NA, 999, 999, 1, 21, 81, 140, 112, 190, 144, 195, 1, 0.683226
217, 1, bw, attraction, a-b-da, 9, 2, 1, 22, 157, 86, 165, 90, 90, 165, 1, 0.653532
217, 1, bw, attraction, a-b-da, 9, 2, 1, 22, 157, 86, 165, 90, 90, 165, 3, 0.786653
217, 1, bw, filler, NA, 999, 999, 1, 23, 154, 79, 113, 161, 154, 188, 3, 0.681014
217, 1, bw, filler, NA, 999, 999, 1, 23, 154, 79, 113, 161, 154, 188, 1, 0.516784
217, 1, bw, attraction, a-b-db, 9, 3, 1, 24, 120, 195, 195, 120, 114, 186, 1, 0.677872
217, 1, bw, attraction, a-b-db, 9, 3, 1, 24, 120, 195, 195, 120, 114, 186, 3, 0.449661
217, 1, bw, attraction, a-b-da, 14, 2, 1, 25, 165, 90, 90, 165, 153, 83, 1, 0.565378
217, 1, bw, attraction, a-b-da, 14, 2, 1, 25, 165, 90, 90, 165, 153, 83, 3, 0.798005
217, 1, bw, filler, NA, 999, 999, 1, 26, 164, 137, 82, 186, 182, 79, 1, 0.427565
217, 1, bw, filler, NA, 999, 999, 1, 26, 164, 137, 82, 186, 182, 79, 3, 0.681509
217, 1, bw, attraction, a-b-db, 5, 2, 1, 27, 165, 90, 90, 165, 88, 161, 1, 0.475832
217, 1, bw, attraction, a-b-db, 5, 2, 1, 27, 165, 90, 90, 165, 88, 161, 3, 0.607797
217, 1, bw, attraction, a-b-db, 9, 2, 1, 28, 86, 157, 165, 90, 90, 165, 3, 1.4369
217, 1, bw, attraction, a-b-db, 9, 2, 1, 28, 86, 157, 165, 90, 90, 165, 2, 0.482271
217, 1, bw, attraction, a-b-da, 5, 1, 1, 29, 60, 135, 135, 60, 132, 58, 1, 2.1007
217, 1, bw, attraction, a-b-da, 5, 1, 1, 29, 60, 135, 135, 60, 132, 58, 3, 0.359436
217, 1, bw, attraction, a-b-da, 9, 1, 1, 30, 60, 135, 129, 57, 135, 60, 1, 0.758511
217, 1, bw, attraction, a-b-da, 9, 1, 1, 30, 60, 135, 129, 57, 135, 60, 2, 0.414956
217, 1, bw, filler, NA, 999, 999, 1, 31, 133, 81, 76, 156, 124, 120, 1, 0.516026
217, 1, bw, filler, NA, 999, 999, 1, 31, 133, 81, 76, 156, 124, 120, 2, 0.710519
217, 1, bw, attraction, a-b-db, 14, 3, 1, 32, 111, 181, 195, 120, 120, 195, 2, 0.815652
217, 1, bw, attraction, a-b-db, 14, 3, 1, 32, 111, 181, 195, 120, 120, 195, 1, 1.13411
217, 1, bw, catch, NA, 999, 999, 1, 33, 89, 106, 131, 184, 122, 133, 2, 0.606258
217, 1, bw, catch, NA, 999, 999, 1, 33, 89, 106, 131, 184, 122, 133, 1, 0.716726
217, 1, bw, filler, NA, 999, 999, 1, 34, 165, 58, 122, 140, 149, 192, 3, 1.21379
217, 1, bw, filler, NA, 999, 999, 1, 34, 165, 58, 122, 140, 149, 192, 1, 0.819949
217, 1, bw, attraction, a-b-db, 14, 1, 1, 35, 60, 135, 135, 60, 56, 125, 1, 3.23306
217, 1, bw, attraction, a-b-db, 14, 1, 1, 35, 60, 135, 135, 60, 56, 125, 3, 0.614088
217, 1, bw, filler, NA, 999, 999, 1, 36, 71, 91, 115, 128, 184, 88, 3, 2.21919
217, 1, bw, filler, NA, 999, 999, 1, 36, 71, 91, 115, 128, 184, 88, 1, 0.425144
217, 1, bw, filler, NA, 999, 999, 1, 37, 70, 161, 159, 150, 120, 59, 2, 0.813414
217, 1, bw, filler, NA, 999, 999, 1, 37, 70, 161, 159, 150, 120, 59, 3, 2.28385
217, 1, bw, filler, NA, 999, 999, 2, 1, 139, 189, 101, 186, 164, 136, 1, 1.89371
217, 1, bw, filler, NA, 999, 999, 2, 1, 139, 189, 101, 186, 164, 136, 2, 0.368506
217, 1, bw, attraction, a-b-da, 9, 3, 2, 2, 195, 120, 120, 195, 186, 114, 2, 2.54371
217, 1, bw, attraction, a-b-da, 9, 3, 2, 2, 195, 120, 120, 195, 186, 114, 1, 0.704151
217, 1, bw, catch, NA, 999, 999, 2, 3, 129, 126, 112, 83, 192, 123, 3, 1.98604
217, 1, bw, catch, NA, 999, 999, 2, 3, 129, 126, 112, 83, 192, 123, 2, 0.817316
217, 1, bw, attraction, a-b-db, 9, 1, 2, 4, 57, 129, 135, 60, 60, 135, 3, 1.99819
217, 1, bw, attraction, a-b-db, 9, 1, 2, 4, 57, 129, 135, 60, 60, 135, 2, 0.37298
217, 1, bw, catch, NA, 999, 999, 2, 5, 61, 134, 147, 108, 126, 189, 3, 1.26011
217, 1, bw, catch, NA, 999, 999, 2, 5, 61, 134, 147, 108, 126, 189, 1, 1.15232
217, 1, bw, attraction, a-b-da, 2, 1, 2, 6, 134, 59, 60, 135, 135, 60, 1, 1.21599
217, 1, bw, attraction, a-b-da, 2, 1, 2, 6, 134, 59, 60, 135, 135, 60, 2, 0.358242
217, 1, bw, attraction, a-b-da, 5, 2, 2, 7, 90, 165, 161, 88, 165, 90, 1, 0.909355
217, 1, bw, attraction, a-b-da, 5, 2, 2, 7, 90, 165, 161, 88, 165, 90, 2, 0.327753
217, 1, bw, attraction, a-b-db, 2, 2, 2, 8, 89, 163, 165, 90, 90, 165, 1, 0.520223
217, 1, bw, attraction, a-b-db, 2, 2, 2, 8, 89, 163, 165, 90, 90, 165, 2, 0.658659
217, 1, bw, attraction, a-b-da, 9, 2, 2, 9, 157, 86, 165, 90, 90, 165, 1, 0.597774
217, 1, bw, attraction, a-b-da, 9, 2, 2, 9, 157, 86, 165, 90, 90, 165, 2, 0.380912
217, 1, bw, filler, NA, 999, 999, 2, 10, 59, 119, 81, 186, 80, 194, 2, 0.78738
217, 1, bw, filler, NA, 999, 999, 2, 10, 59, 119, 81, 186, 80, 194, 1, 0.371098
217, 1, bw, attraction, a-b-db, 2, 1, 2, 11, 59, 134, 135, 60, 60, 135, 2, 1.67431
217, 1, bw, attraction, a-b-db, 2, 1, 2, 11, 59, 134, 135, 60, 60, 135, 1, 0.349699
217, 1, bw, attraction, a-b-db, 14, 3, 2, 12, 195, 120, 111, 181, 120, 195, 1, 0.811957
217, 1, bw, attraction, a-b-db, 14, 3, 2, 12, 195, 120, 111, 181, 120, 195, 2, 0.611881
217, 1, bw, filler, NA, 999, 999, 2, 13, 131, 141, 181, 76, 68, 78, 1, 1.801
217, 1, bw, filler, NA, 999, 999, 2, 13, 131, 141, 181, 76, 68, 78, 3, 0.687751
217, 1, bw, filler, NA, 999, 999, 2, 14, 173, 133, 123, 70, 157, 73, 1, 0.53022
217, 1, bw, filler, NA, 999, 999, 2, 14, 173, 133, 123, 70, 157, 73, 2, 0.436025
217, 1, bw, attraction, a-b-da, 5, 3, 2, 15, 120, 195, 195, 120, 190, 117, 1, 1.07255
217, 1, bw, attraction, a-b-da, 5, 3, 2, 15, 120, 195, 195, 120, 190, 117, 2, 0.284059
217, 1, bw, attraction, a-b-da, 2, 3, 2, 16, 120, 195, 193, 119, 195, 120, 1, 0.534508
217, 1, bw, attraction, a-b-da, 2, 3, 2, 16, 120, 195, 193, 119, 195, 120, 2, 0.328437
217, 1, bw, attraction, a-b-da, 9, 1, 2, 17, 135, 60, 60, 135, 129, 57, 1, 0.448836
217, 1, bw, attraction, a-b-da, 9, 1, 2, 17, 135, 60, 60, 135, 129, 57, 2, 0.326054
217, 1, bw, filler, NA, 999, 999, 2, 18, 186, 154, 124, 117, 108, 61, 1, 0.270562
217, 1, bw, filler, NA, 999, 999, 2, 18, 186, 154, 124, 117, 108, 61, 3, 1.03511
217, 1, bw, attraction, a-b-db, 9, 2, 2, 19, 86, 157, 90, 165, 165, 90, 3, 0.935478
217, 1, bw, attraction, a-b-db, 9, 2, 2, 19, 86, 157, 90, 165, 165, 90, 1, 0.697061
217, 1, bw, attraction, a-b-db, 14, 1, 2, 20, 60, 135, 56, 125, 135, 60, 3, 0.906828
217, 1, bw, attraction, a-b-db, 14, 1, 2, 20, 60, 135, 56, 125, 135, 60, 2, 0.606007
217, 1, bw, attraction, a-b-db, 5, 3, 2, 21, 120, 195, 117, 190, 195, 120, 3, 0.778904
217, 1, bw, attraction, a-b-db, 5, 3, 2, 21, 120, 195, 117, 190, 195, 120, 1, 0.538671
217, 1, bw, attraction, a-b-db, 2, 3, 2, 22, 195, 120, 119, 193, 120, 195, 1, 2.73111
217, 1, bw, attraction, a-b-db, 2, 3, 2, 22, 195, 120, 119, 193, 120, 195, 3, 0.540206
217, 1, bw, attraction, a-b-db, 14, 2, 2, 23, 165, 90, 83, 153, 90, 165, 1, 0.875978
217, 1, bw, attraction, a-b-db, 14, 2, 2, 23, 165, 90, 83, 153, 90, 165, 2, 0.871722
217, 1, bw, attraction, a-b-da, 14, 2, 2, 24, 165, 90, 90, 165, 153, 83, 1, 1.4026
217, 1, bw, attraction, a-b-da, 14, 2, 2, 24, 165, 90, 90, 165, 153, 83, 3, 0.569551
217, 1, bw, filler, NA, 999, 999, 2, 25, 75, 109, 168, 174, 159, 76, 2, 1.03267
217, 1, bw, filler, NA, 999, 999, 2, 25, 75, 109, 168, 174, 159, 76, 1, 0.438331
217, 1, bw, attraction, a-b-db, 9, 3, 2, 26, 195, 120, 114, 186, 120, 195, 1, 0.866868
217, 1, bw, attraction, a-b-db, 9, 3, 2, 26, 195, 120, 114, 186, 120, 195, 2, 0.391148
217, 1, bw, filler, NA, 999, 999, 2, 27, 145, 88, 151, 112, 174, 164, 3, 1.09308
217, 1, bw, filler, NA, 999, 999, 2, 27, 145, 88, 151, 112, 174, 164, 1, 0.727869
217, 1, bw, attraction, a-b-db, 5, 2, 2, 28, 88, 161, 90, 165, 165, 90, 3, 1.17628
217, 1, bw, attraction, a-b-db, 5, 2, 2, 28, 88, 161, 90, 165, 165, 90, 2, 0.615957
217, 1, bw, attraction, a-b-da, 5, 1, 2, 29, 135, 60, 60, 135, 132, 58, 1, 0.757022
217, 1, bw, attraction, a-b-da, 5, 1, 2, 29, 135, 60, 60, 135, 132, 58, 2, 0.749377
217, 1, bw, attraction, a-b-da, 14, 1, 2, 30, 125, 56, 135, 60, 60, 135, 1, 1.06922
217, 1, bw, attraction, a-b-da, 14, 1, 2, 30, 125, 56, 135, 60, 60, 135, 2, 0.465419
217, 1, bw, filler, NA, 999, 999, 2, 31, 97, 61, 109, 101, 170, 139, 3, 1.05253
217, 1, bw, filler, NA, 999, 999, 2, 31, 97, 61, 109, 101, 170, 139, 1, 0.577499
217, 1, bw, attraction, a-b-da, 2, 2, 2, 32, 165, 90, 163, 89, 90, 165, 1, 0.935984
217, 1, bw, attraction, a-b-da, 2, 2, 2, 32, 165, 90, 163, 89, 90, 165, 2, 0.793737
217, 1, bw, attraction, a-b-db, 5, 1, 2, 33, 135, 60, 58, 132, 60, 135, 1, 0.49532
217, 1, bw, attraction, a-b-db, 5, 1, 2, 33, 135, 60, 58, 132, 60, 135, 2, 1.25041
217, 1, bw, catch, NA, 999, 999, 2, 34, 135, 180, 125, 70, 106, 149, 1, 0.486132
217, 1, bw, catch, NA, 999, 999, 2, 34, 135, 180, 125, 70, 106, 149, 2, 0.889987
217, 1, bw, filler, NA, 999, 999, 2, 35, 99, 96, 76, 78, 164, 133, 3, 0.619633
217, 1, bw, filler, NA, 999, 999, 2, 35, 99, 96, 76, 78, 164, 133, 2, 0.522039
217, 1, bw, attraction, a-b-da, 14, 3, 2, 36, 120, 195, 181, 111, 195, 120, 3, 0.995191
217, 1, bw, attraction, a-b-da, 14, 3, 2, 36, 120, 195, 181, 111, 195, 120, 2, 0.522037
217, 1, bw, filler, NA, 999, 999, 2, 37, 106, 83, 59, 171, 59, 104, 1, 2.10739
217, 1, bw, filler, NA, 999, 999, 2, 37, 106, 83, 59, 171, 59, 104, 3, 0.781234
217, 1, bw, filler, NA, 999, 999, 3, 1, 70, 144, 166, 85, 71, 109, 2, 1.91562
217, 1, bw, filler, NA, 999, 999, 3, 1, 70, 144, 166, 85, 71, 109, 3, 0.493613
217, 1, bw, attraction, a-b-da, 14, 1, 3, 2, 135, 60, 60, 135, 125, 56, 1, 1.06341
217, 1, bw, attraction, a-b-da, 14, 1, 3, 2, 135, 60, 60, 135, 125, 56, 2, 0.547725
217, 1, bw, attraction, a-b-da, 5, 1, 3, 3, 60, 135, 135, 60, 132, 58, 1, 2.28336
217, 1, bw, attraction, a-b-da, 5, 1, 3, 3, 60, 135, 135, 60, 132, 58, 2, 1.07881
217, 1, bw, attraction, a-b-db, 14, 1, 3, 4, 60, 135, 135, 60, 56, 125, 1, 0.857158
217, 1, bw, attraction, a-b-db, 14, 1, 3, 4, 60, 135, 135, 60, 56, 125, 2, 1.01351
217, 1, bw, attraction, a-b-da, 9, 3, 3, 5, 195, 120, 120, 195, 186, 114, 1, 0.522345
217, 1, bw, attraction, a-b-da, 9, 3, 3, 5, 195, 120, 120, 195, 186, 114, 3, 0.660195
217, 1, bw, catch, NA, 999, 999, 3, 6, 80, 115, 156, 99, 140, 175, 3, 1.15918
217, 1, bw, catch, NA, 999, 999, 3, 6, 80, 115, 156, 99, 140, 175, 1, 0.383478
217, 1, bw, attraction, a-b-db, 2, 3, 3, 7, 120, 195, 119, 193, 195, 120, 3, 1.31005
217, 1, bw, attraction, a-b-db, 2, 3, 3, 7, 120, 195, 119, 193, 195, 120, 2, 0.800207
217, 1, bw, filler, NA, 999, 999, 3, 8, 164, 164, 183, 157, 176, 105, 1, 1.01389
217, 1, bw, filler, NA, 999, 999, 3, 8, 164, 164, 183, 157, 176, 105, 3, 0.708225
217, 1, bw, attraction, a-b-db, 5, 1, 3, 9, 135, 60, 60, 135, 58, 132, 1, 0.997258
217, 1, bw, attraction, a-b-db, 5, 1, 3, 9, 135, 60, 60, 135, 58, 132, 3, 0.820301
217, 1, bw, attraction, a-b-da, 14, 3, 3, 10, 195, 120, 120, 195, 181, 111, 1, 0.617239
217, 1, bw, attraction, a-b-da, 14, 3, 3, 10, 195, 120, 120, 195, 181, 111, 2, 0.58365
217, 1, bw, filler, NA, 999, 999, 3, 11, 165, 171, 142, 184, 143, 131, 1, 0.750151
217, 1, bw, filler, NA, 999, 999, 3, 11, 165, 171, 142, 184, 143, 131, 3, 0.487162
217, 1, bw, filler, NA, 999, 999, 3, 12, 194, 88, 178, 192, 172, 178, 2, 1.65766
217, 1, bw, filler, NA, 999, 999, 3, 12, 194, 88, 178, 192, 172, 178, 1, 0.557717
217, 1, bw, attraction, a-b-db, 14, 2, 3, 13, 165, 90, 90, 165, 83, 153, 1, 2.21282
217, 1, bw, attraction, a-b-db, 14, 2, 3, 13, 165, 90, 90, 165, 83, 153, 3, 1.1868
217, 1, bw, attraction, a-b-db, 9, 2, 3, 14, 86, 157, 165, 90, 90, 165, 1, 1.45705
217, 1, bw, attraction, a-b-db, 9, 2, 3, 14, 86, 157, 165, 90, 90, 165, 2, 0.381254
217, 1, bw, attraction, a-b-da, 2, 1, 3, 15, 135, 60, 134, 59, 60, 135, 1, 0.651807
217, 1, bw, attraction, a-b-da, 2, 1, 3, 15, 135, 60, 134, 59, 60, 135, 3, 0.824875
217, 1, bw, attraction, a-b-db, 14, 3, 3, 16, 195, 120, 111, 181, 120, 195, 1, 0.621277
217, 1, bw, attraction, a-b-db, 14, 3, 3, 16, 195, 120, 111, 181, 120, 195, 2, 0.523025
217, 1, bw, attraction, a-b-da, 2, 2, 3, 17, 163, 89, 165, 90, 90, 165, 1, 0.604154
217, 1, bw, attraction, a-b-da, 2, 2, 3, 17, 163, 89, 165, 90, 90, 165, 3, 0.47528
217, 1, bw, attraction, a-b-da, 5, 3, 3, 18, 190, 117, 195, 120, 120, 195, 1, 0.549648
217, 1, bw, attraction, a-b-da, 5, 3, 3, 18, 190, 117, 195, 120, 120, 195, 3, 0.598992
217, 1, bw, filler, NA, 999, 999, 3, 19, 181, 137, 89, 120, 126, 56, 1, 2.83672
217, 1, bw, filler, NA, 999, 999, 3, 19, 181, 137, 89, 120, 126, 56, 3, 0.513612
217, 1, bw, attraction, a-b-da, 14, 2, 3, 20, 90, 165, 165, 90, 153, 83, 1, 1.03472
217, 1, bw, attraction, a-b-da, 14, 2, 3, 20, 90, 165, 165, 90, 153, 83, 3, 0.440362
217, 1, bw, attraction, a-b-da, 2, 3, 3, 21, 195, 120, 193, 119, 120, 195, 1, 0.836236
217, 1, bw, attraction, a-b-da, 2, 3, 3, 21, 195, 120, 193, 119, 120, 195, 3, 0.753986
217, 1, bw, filler, NA, 999, 999, 3, 22, 59, 138, 157, 171, 86, 116, 1, 0.53764
217, 1, bw, filler, NA, 999, 999, 3, 22, 59, 138, 157, 171, 86, 116, 2, 1.99482
217, 1, bw, catch, NA, 999, 999, 3, 23, 194, 121, 122, 73, 140, 115, 1, 4.87221
217, 1, bw, catch, NA, 999, 999, 3, 23, 194, 121, 122, 73, 140, 115, 2, 0.979469
217, 1, bw, attraction, a-b-db, 2, 2, 3, 24, 89, 163, 90, 165, 165, 90, 3, 0.929507
217, 1, bw, attraction, a-b-db, 2, 2, 3, 24, 89, 163, 90, 165, 165, 90, 1, 0.363303
217, 1, bw, attraction, a-b-db, 2, 1, 3, 25, 135, 60, 60, 135, 59, 134, 1, 0.850411
217, 1, bw, attraction, a-b-db, 2, 1, 3, 25, 135, 60, 60, 135, 59, 134, 3, 0.463349
217, 1, bw, attraction, a-b-db, 5, 2, 3, 26, 165, 90, 90, 165, 88, 161, 1, 0.458647
217, 1, bw, attraction, a-b-db, 5, 2, 3, 26, 165, 90, 90, 165, 88, 161, 2, 0.359064
217, 1, bw, attraction, a-b-db, 9, 1, 3, 27, 135, 60, 57, 129, 60, 135, 1, 0.502157
217, 1, bw, attraction, a-b-db, 9, 1, 3, 27, 135, 60, 57, 129, 60, 135, 2, 0.840115
217, 1, bw, filler, NA, 999, 999, 3, 28, 71, 141, 74, 167, 190, 97, 3, 0.997084
217, 1, bw, filler, NA, 999, 999, 3, 28, 71, 141, 74, 167, 190, 97, 1, 0.54803
217, 1, bw, attraction, a-b-da, 9, 1, 3, 29, 129, 57, 60, 135, 135, 60, 2, 1.02773
217, 1, bw, attraction, a-b-da, 9, 1, 3, 29, 129, 57, 60, 135, 135, 60, 1, 0.753396
217, 1, bw, attraction, a-b-db, 9, 3, 3, 30, 120, 195, 195, 120, 114, 186, 1, 0.66513
217, 1, bw, attraction, a-b-db, 9, 3, 3, 30, 120, 195, 195, 120, 114, 186, 3, 0.549606
217, 1, bw, catch, NA, 999, 999, 3, 31, 121, 194, 126, 69, 161, 94, 3, 1.10134
217, 1, bw, catch, NA, 999, 999, 3, 31, 121, 194, 126, 69, 161, 94, 2, 1.3844
217, 1, bw, attraction, a-b-da, 9, 2, 3, 32, 165, 90, 157, 86, 90, 165, 1, 3.14262
217, 1, bw, attraction, a-b-da, 9, 2, 3, 32, 165, 90, 157, 86, 90, 165, 2, 0.446831
217, 1, bw, filler, NA, 999, 999, 3, 33, 99, 99, 83, 62, 79, 70, 1, 1.14657
217, 1, bw, filler, NA, 999, 999, 3, 33, 99, 99, 83, 62, 79, 70, 3, 0.643663
217, 1, bw, attraction, a-b-db, 5, 3, 3, 34, 120, 195, 117, 190, 195, 120, 3, 1.00723
217, 1, bw, attraction, a-b-db, 5, 3, 3, 34, 120, 195, 117, 190, 195, 120, 1, 0.86172
217, 1, bw, filler, NA, 999, 999, 3, 35, 118, 67, 131, 159, 163, 147, 3, 0.792599
217, 1, bw, filler, NA, 999, 999, 3, 35, 118, 67, 131, 159, 163, 147, 1, 1.24765
217, 1, bw, attraction, a-b-da, 5, 2, 3, 36, 165, 90, 161, 88, 90, 165, 1, 1.31534
217, 1, bw, attraction, a-b-da, 5, 2, 3, 36, 165, 90, 161, 88, 90, 165, 2, 0.357515
217, 1, bw, filler, NA, 999, 999, 3, 37, 195, 103, 115, 84, 91, 79, 1, 0.620584
217, 1, bw, filler, NA, 999, 999, 3, 37, 195, 103, 115, 84, 91, 79, 3, 0.395162
217, 1, bw, filler, NA, 999, 999, 4, 1, 61, 84, 173, 180, 159, 174, 2, 1.2089
217, 1, bw, filler, NA, 999, 999, 4, 1, 61, 84, 173, 180, 159, 174, 1, 0.431163
217, 1, bw, attraction, a-b-db, 9, 2, 4, 2, 86, 157, 90, 165, 165, 90, 1, 0.931566
217, 1, bw, attraction, a-b-db, 9, 2, 4, 2, 86, 157, 90, 165, 165, 90, 3, 0.365303
217, 1, bw, filler, NA, 999, 999, 4, 3, 69, 131, 122, 91, 152, 144, 3, 0.6445
217, 1, bw, filler, NA, 999, 999, 4, 3, 69, 131, 122, 91, 152, 144, 2, 0.465704
217, 1, bw, filler, NA, 999, 999, 4, 4, 156, 186, 65, 88, 137, 164, 1, 0.548734
217, 1, bw, filler, NA, 999, 999, 4, 4, 156, 186, 65, 88, 137, 164, 2, 0.589939
217, 1, bw, attraction, a-b-da, 14, 3, 4, 5, 120, 195, 181, 111, 195, 120, 2, 0.884302
217, 1, bw, attraction, a-b-da, 14, 3, 4, 5, 120, 195, 181, 111, 195, 120, 1, 0.368085
217, 1, bw, filler, NA, 999, 999, 4, 6, 105, 75, 96, 168, 163, 187, 3, 0.591096
217, 1, bw, filler, NA, 999, 999, 4, 6, 105, 75, 96, 168, 163, 187, 1, 0.79018
217, 1, bw, attraction, a-b-da, 5, 2, 4, 7, 161, 88, 165, 90, 90, 165, 1, 1.09192
217, 1, bw, attraction, a-b-da, 5, 2, 4, 7, 161, 88, 165, 90, 90, 165, 3, 0.374901
217, 1, bw, attraction, a-b-da, 9, 2, 4, 8, 157, 86, 90, 165, 165, 90, 1, 7.60536
217, 1, bw, attraction, a-b-da, 9, 2, 4, 8, 157, 86, 90, 165, 165, 90, 2, 0.682344
217, 1, bw, attraction, a-b-db, 14, 1, 4, 9, 135, 60, 56, 125, 60, 135, 1, 0.748739
217, 1, bw, attraction, a-b-db, 14, 1, 4, 9, 135, 60, 56, 125, 60, 135, 2, 0.317752
217, 1, bw, catch, NA, 999, 999, 4, 10, 162, 93, 115, 80, 180, 135, 3, 0.766927
217, 1, bw, catch, NA, 999, 999, 4, 10, 162, 93, 115, 80, 180, 135, 2, 0.375321
217, 1, bw, attraction, a-b-da, 9, 1, 4, 11, 129, 57, 60, 135, 135, 60, 2, 2.02982
217, 1, bw, attraction, a-b-da, 9, 1, 4, 11, 129, 57, 60, 135, 135, 60, 3, 0.307307
217, 1, bw, attraction, a-b-da, 2, 1, 4, 12, 134, 59, 60, 135, 135, 60, 1, 0.628431
217, 1, bw, attraction, a-b-da, 2, 1, 4, 12, 134, 59, 60, 135, 135, 60, 2, 0.338245
217, 1, bw, attraction, a-b-da, 5, 1, 4, 13, 135, 60, 132, 58, 60, 135, 1, 18.6027
217, 1, bw, attraction, a-b-da, 5, 1, 4, 13, 135, 60, 132, 58, 60, 135, 2, 0.30015
217, 1, bw, attraction, a-b-da, 9, 3, 4, 14, 120, 195, 195, 120, 186, 114, 1, 1.14995
217, 1, bw, attraction, a-b-da, 9, 3, 4, 14, 120, 195, 195, 120, 186, 114, 3, 0.415004
217, 1, bw, attraction, a-b-da, 14, 2, 4, 15, 90, 165, 153, 83, 165, 90, 1, 1.172
217, 1, bw, attraction, a-b-da, 14, 2, 4, 15, 90, 165, 153, 83, 165, 90, 2, 0.331668
217, 1, bw, attraction, a-b-da, 14, 1, 4, 16, 60, 135, 135, 60, 125, 56, 1, 0.484271
217, 1, bw, attraction, a-b-da, 14, 1, 4, 16, 60, 135, 135, 60, 125, 56, 2, 0.279985
217, 1, bw, attraction, a-b-db, 2, 1, 4, 17, 60, 135, 59, 134, 135, 60, 1, 1.08253
217, 1, bw, attraction, a-b-db, 2, 1, 4, 17, 60, 135, 59, 134, 135, 60, 2, 0.302306
217, 1, bw, filler, NA, 999, 999, 4, 18, 155, 179, 85, 108, 175, 130, 1, 0.632003
217, 1, bw, filler, NA, 999, 999, 4, 18, 155, 179, 85, 108, 175, 130, 2, 0.38983
217, 1, bw, attraction, a-b-db, 14, 3, 4, 19, 120, 195, 111, 181, 195, 120, 3, 2.67565
217, 1, bw, attraction, a-b-db, 14, 3, 4, 19, 120, 195, 111, 181, 195, 120, 2, 0.814857
217, 1, bw, filler, NA, 999, 999, 4, 20, 72, 97, 88, 141, 88, 141, 2, 1.08384
217, 1, bw, filler, NA, 999, 999, 4, 20, 72, 97, 88, 141, 88, 141, 1, 0.567449
217, 1, bw, attraction, a-b-db, 5, 3, 4, 21, 117, 190, 195, 120, 120, 195, 1, 0.622514
217, 1, bw, attraction, a-b-db, 5, 3, 4, 21, 117, 190, 195, 120, 120, 195, 2, 0.316312
217, 1, bw, catch, NA, 999, 999, 4, 22, 159, 96, 115, 80, 156, 159, 3, 0.773477
217, 1, bw, catch, NA, 999, 999, 4, 22, 159, 96, 115, 80, 156, 159, 2, 0.621123
217, 1, bw, attraction, a-b-db, 9, 3, 4, 23, 120, 195, 114, 186, 195, 120, 3, 1.1623
217, 1, bw, attraction, a-b-db, 9, 3, 4, 23, 120, 195, 114, 186, 195, 120, 2, 0.354666
217, 1, bw, filler, NA, 999, 999, 4, 24, 99, 99, 148, 171, 76, 136, 2, 0.714401
217, 1, bw, filler, NA, 999, 999, 4, 24, 99, 99, 148, 171, 76, 136, 1, 0.3648
217, 1, bw, attraction, a-b-db, 5, 2, 4, 25, 90, 165, 165, 90, 88, 161, 2, 0.84397
217, 1, bw, attraction, a-b-db, 5, 2, 4, 25, 90, 165, 165, 90, 88, 161, 3, 0.769042
217, 1, bw, attraction, a-b-db, 2, 3, 4, 26, 120, 195, 119, 193, 195, 120, 3, 0.824072
217, 1, bw, attraction, a-b-db, 2, 3, 4, 26, 120, 195, 119, 193, 195, 120, 2, 0.325731
217, 1, bw, attraction, a-b-db, 2, 2, 4, 27, 90, 165, 165, 90, 89, 163, 2, 1.47041
217, 1, bw, attraction, a-b-db, 2, 2, 4, 27, 90, 165, 165, 90, 89, 163, 1, 0.394502
217, 1, bw, filler, NA, 999, 999, 4, 28, 163, 187, 178, 190, 146, 157, 2, 2.10424
217, 1, bw, filler, NA, 999, 999, 4, 28, 163, 187, 178, 190, 146, 157, 3, 0.682958
217, 1, bw, attraction, a-b-da, 5, 3, 4, 29, 190, 117, 120, 195, 195, 120, 1, 0.797267
217, 1, bw, attraction, a-b-da, 5, 3, 4, 29, 190, 117, 120, 195, 195, 120, 2, 0.284311
217, 1, bw, filler, NA, 999, 999, 4, 30, 193, 133, 110, 165, 151, 56, 1, 1.15881
217, 1, bw, filler, NA, 999, 999, 4, 30, 193, 133, 110, 165, 151, 56, 3, 0.687122
217, 1, bw, filler, NA, 999, 999, 4, 31, 100, 59, 122, 82, 72, 135, 2, 11.8895
217, 1, bw, filler, NA, 999, 999, 4, 31, 100, 59, 122, 82, 72, 135, 1, 0.945785
217, 1, bw, attraction, a-b-db, 5, 1, 4, 32, 60, 135, 135, 60, 58, 132, 1, 1.66557
217, 1, bw, attraction, a-b-db, 5, 1, 4, 32, 60, 135, 135, 60, 58, 132, 2, 0.621716
217, 1, bw, catch, NA, 999, 999, 4, 33, 187, 128, 61, 134, 139, 116, 1, 0.890689
217, 1, bw, catch, NA, 999, 999, 4, 33, 187, 128, 61, 134, 139, 116, 2, 0.613726
217, 1, bw, attraction, a-b-db, 9, 1, 4, 34, 135, 60, 57, 129, 60, 135, 1, 1.3628
217, 1, bw, attraction, a-b-db, 9, 1, 4, 34, 135, 60, 57, 129, 60, 135, 2, 0.354975
217, 1, bw, attraction, a-b-da, 2, 3, 4, 35, 120, 195, 195, 120, 193, 119, 2, 0.6828
217, 1, bw, attraction, a-b-da, 2, 3, 4, 35, 120, 195, 195, 120, 193, 119, 1, 0.502572
217, 1, bw, attraction, a-b-db, 14, 2, 4, 36, 90, 165, 165, 90, 83, 153, 2, 0.608378
217, 1, bw, attraction, a-b-db, 14, 2, 4, 36, 90, 165, 165, 90, 83, 153, 1, 0.598838
217, 1, bw, attraction, a-b-da, 2, 2, 4, 37, 165, 90, 90, 165, 163, 89, 1, 1.11654
217, 1, bw, attraction, a-b-da, 2, 2, 4, 37, 165, 90, 90, 165, 163, 89, 2, 0.326894
217, 1, bw, attraction, a-b-db, 14, 2, 5, 1, 165, 90, 83, 153, 90, 165, 1, 3.03002
217, 1, bw, attraction, a-b-db, 14, 2, 5, 1, 165, 90, 83, 153, 90, 165, 2, 0.363095
217, 1, bw, attraction, a-b-db, 5, 1, 5, 2, 135, 60, 60, 135, 58, 132, 1, 2.43413
217, 1, bw, attraction, a-b-db, 5, 1, 5, 2, 135, 60, 60, 135, 58, 132, 3, 0.543381
217, 1, bw, attraction, a-b-da, 14, 1, 5, 3, 60, 135, 125, 56, 135, 60, 1, 0.719266
217, 1, bw, attraction, a-b-da, 14, 1, 5, 3, 60, 135, 125, 56, 135, 60, 2, 0.417529
217, 1, bw, filler, NA, 999, 999, 5, 4, 134, 168, 176, 192, 149, 186, 2, 0.910787
217, 1, bw, filler, NA, 999, 999, 5, 4, 134, 168, 176, 192, 149, 186, 1, 0.369247
217, 1, bw, attraction, a-b-db, 14, 1, 5, 5, 60, 135, 135, 60, 56, 125, 1, 0.96031
217, 1, bw, attraction, a-b-db, 14, 1, 5, 5, 60, 135, 135, 60, 56, 125, 2, 0.568564
217, 1, bw, filler, NA, 999, 999, 5, 6, 148, 193, 101, 121, 60, 80, 1, 0.543692
217, 1, bw, filler, NA, 999, 999, 5, 6, 148, 193, 101, 121, 60, 80, 3, 0.600887
217, 1, bw, attraction, a-b-da, 2, 1, 5, 7, 134, 59, 60, 135, 135, 60, 2, 2.52671
217, 1, bw, attraction, a-b-da, 2, 1, 5, 7, 134, 59, 60, 135, 135, 60, 1, 0.343795
217, 1, bw, attraction, a-b-da, 5, 3, 5, 8, 120, 195, 190, 117, 195, 120, 3, 2.93572
217, 1, bw, attraction, a-b-da, 5, 3, 5, 8, 120, 195, 190, 117, 195, 120, 1, 0.568647
217, 1, bw, attraction, a-b-da, 5, 1, 5, 9, 132, 58, 60, 135, 135, 60, 1, 2.35169
217, 1, bw, attraction, a-b-da, 5, 1, 5, 9, 132, 58, 60, 135, 135, 60, 2, 0.352338
217, 1, bw, filler, NA, 999, 999, 5, 10, 159, 106, 82, 93, 111, 174, 1, 0.896094
217, 1, bw, filler, NA, 999, 999, 5, 10, 159, 106, 82, 93, 111, 174, 2, 0.715121
217, 1, bw, attraction, a-b-db, 2, 2, 5, 11, 165, 90, 89, 163, 90, 165, 1, 1.12428
217, 1, bw, attraction, a-b-db, 2, 2, 5, 11, 165, 90, 89, 163, 90, 165, 3, 0.503514
217, 1, bw, attraction, a-b-da, 14, 3, 5, 12, 181, 111, 195, 120, 120, 195, 1, 0.791782
217, 1, bw, attraction, a-b-da, 14, 3, 5, 12, 181, 111, 195, 120, 120, 195, 3, 0.718765
217, 1, bw, attraction, a-b-da, 2, 2, 5, 13, 163, 89, 165, 90, 90, 165, 1, 0.687747
217, 1, bw, attraction, a-b-da, 2, 2, 5, 13, 163, 89, 165, 90, 90, 165, 2, 0.850789
217, 1, bw, catch, NA, 999, 999, 5, 14, 93, 162, 186, 129, 71, 124, 2, 1.19055
217, 1, bw, catch, NA, 999, 999, 5, 14, 93, 162, 186, 129, 71, 124, 3, 0.565482
217, 1, bw, filler, NA, 999, 999, 5, 15, 115, 119, 149, 179, 192, 100, 2, 0.653337
217, 1, bw, filler, NA, 999, 999, 5, 15, 115, 119, 149, 179, 192, 100, 1, 0.625738
217, 1, bw, filler, NA, 999, 999, 5, 16, 96, 170, 124, 77, 174, 177, 3, 0.726253
217, 1, bw, filler, NA, 999, 999, 5, 16, 96, 170, 124, 77, 174, 177, 2, 0.415987
217, 1, bw, attraction, a-b-db, 9, 2, 5, 17, 90, 165, 86, 157, 165, 90, 3, 2.00491
217, 1, bw, attraction, a-b-db, 9, 2, 5, 17, 90, 165, 86, 157, 165, 90, 2, 0.458935
217, 1, bw, attraction, a-b-db, 5, 3, 5, 18, 195, 120, 120, 195, 117, 190, 1, 0.686059
217, 1, bw, attraction, a-b-db, 5, 3, 5, 18, 195, 120, 120, 195, 117, 190, 3, 0.481838
217, 1, bw, attraction, a-b-da, 5, 2, 5, 19, 161, 88, 165, 90, 90, 165, 1, 0.772368
217, 1, bw, attraction, a-b-da, 5, 2, 5, 19, 161, 88, 165, 90, 90, 165, 3, 0.876156
217, 1, bw, attraction, a-b-da, 2, 3, 5, 20, 195, 120, 193, 119, 120, 195, 1, 0.478336
217, 1, bw, attraction, a-b-da, 2, 3, 5, 20, 195, 120, 193, 119, 120, 195, 3, 0.538239
217, 1, bw, catch, NA, 999, 999, 5, 21, 139, 116, 131, 184, 122, 73, 2, 1.04276
217, 1, bw, catch, NA, 999, 999, 5, 21, 139, 116, 131, 184, 122, 73, 3, 0.663772
217, 1, bw, catch, NA, 999, 999, 5, 22, 71, 124, 180, 135, 152, 103, 2, 1.03473
217, 1, bw, catch, NA, 999, 999, 5, 22, 71, 124, 180, 135, 152, 103, 1, 0.496387
217, 1, bw, attraction, a-b-da, 9, 1, 5, 23, 129, 57, 135, 60, 60, 135, 1, 2.02609
217, 1, bw, attraction, a-b-da, 9, 1, 5, 23, 129, 57, 135, 60, 60, 135, 3, 0.34341
217, 1, bw, attraction, a-b-da, 9, 3, 5, 24, 195, 120, 186, 114, 120, 195, 1, 0.57527
217, 1, bw, attraction, a-b-da, 9, 3, 5, 24, 195, 120, 186, 114, 120, 195, 2, 0.743113
217, 1, bw, filler, NA, 999, 999, 5, 25, 186, 162, 61, 150, 143, 148, 1, 0.566712
217, 1, bw, filler, NA, 999, 999, 5, 25, 186, 162, 61, 150, 143, 148, 2, 0.479291
217, 1, bw, attraction, a-b-db, 2, 3, 5, 26, 120, 195, 119, 193, 195, 120, 3, 1.44179
217, 1, bw, attraction, a-b-db, 2, 3, 5, 26, 120, 195, 119, 193, 195, 120, 1, 0.494618
217, 1, bw, attraction, a-b-db, 9, 3, 5, 27, 114, 186, 195, 120, 120, 195, 2, 2.24033
217, 1, bw, attraction, a-b-db, 9, 3, 5, 27, 114, 186, 195, 120, 120, 195, 1, 0.644933
217, 1, bw, attraction, a-b-da, 9, 2, 5, 28, 90, 165, 157, 86, 165, 90, 3, 2.31278
217, 1, bw, attraction, a-b-da, 9, 2, 5, 28, 90, 165, 157, 86, 165, 90, 2, 0.906625
217, 1, bw, filler, NA, 999, 999, 5, 29, 74, 70, 121, 156, 141, 82, 2, 0.875721
217, 1, bw, filler, NA, 999, 999, 5, 29, 74, 70, 121, 156, 141, 82, 1, 0.487327
217, 1, bw, attraction, a-b-db, 14, 3, 5, 30, 195, 120, 120, 195, 111, 181, 1, 1.07374
217, 1, bw, attraction, a-b-db, 14, 3, 5, 30, 195, 120, 120, 195, 111, 181, 3, 0.509353
217, 1, bw, attraction, a-b-db, 5, 2, 5, 31, 165, 90, 88, 161, 90, 165, 1, 1.0145
217, 1, bw, attraction, a-b-db, 5, 2, 5, 31, 165, 90, 88, 161, 90, 165, 2, 0.772897
217, 1, bw, filler, NA, 999, 999, 5, 32, 77, 133, 147, 163, 117, 160, 2, 0.819961
217, 1, bw, filler, NA, 999, 999, 5, 32, 77, 133, 147, 163, 117, 160, 1, 0.346313
217, 1, bw, attraction, a-b-db, 9, 1, 5, 33, 57, 129, 135, 60, 60, 135, 2, 1.23406
217, 1, bw, attraction, a-b-db, 9, 1, 5, 33, 57, 129, 135, 60, 60, 135, 1, 0.671664
217, 1, bw, filler, NA, 999, 999, 5, 34, 114, 132, 63, 105, 68, 191, 1, 0.73866
217, 1, bw, filler, NA, 999, 999, 5, 34, 114, 132, 63, 105, 68, 191, 2, 0.683842
217, 1, bw, filler, NA, 999, 999, 5, 35, 106, 88, 120, 185, 149, 176, 2, 0.846201
217, 1, bw, filler, NA, 999, 999, 5, 35, 106, 88, 120, 185, 149, 176, 1, 1.29924
217, 1, bw, attraction, a-b-da, 14, 2, 5, 36, 90, 165, 153, 83, 165, 90, 2, 0.900771
217, 1, bw, attraction, a-b-da, 14, 2, 5, 36, 90, 165, 153, 83, 165, 90, 1, 0.359869
217, 1, bw, attraction, a-b-db, 2, 1, 5, 37, 135, 60, 60, 135, 59, 134, 1, 0.750996
217, 1, bw, attraction, a-b-db, 2, 1, 5, 37, 135, 60, 60, 135, 59, 134, 2, 0.632073
217, 1, bw, attraction, a-b-da, 2, 1, 6, 1, 135, 60, 60, 135, 134, 59, 1, 0.908391
217, 1, bw, attraction, a-b-da, 2, 1, 6, 1, 135, 60, 60, 135, 134, 59, 2, 0.758759
217, 1, bw, attraction, a-b-da, 14, 1, 6, 2, 135, 60, 125, 56, 60, 135, 1, 0.390045
217, 1, bw, attraction, a-b-da, 14, 1, 6, 2, 135, 60, 125, 56, 60, 135, 3, 0.613002
217, 1, bw, attraction, a-b-da, 14, 3, 6, 3, 181, 111, 120, 195, 195, 120, 1, 0.482231
217, 1, bw, attraction, a-b-da, 14, 3, 6, 3, 181, 111, 120, 195, 195, 120, 2, 0.445918
217, 1, bw, filler, NA, 999, 999, 6, 4, 155, 187, 174, 144, 94, 86, 1, 0.857826
217, 1, bw, filler, NA, 999, 999, 6, 4, 155, 187, 174, 144, 94, 86, 3, 0.71814
217, 1, bw, filler, NA, 999, 999, 6, 5, 145, 192, 77, 61, 118, 79, 1, 0.519227
217, 1, bw, filler, NA, 999, 999, 6, 5, 145, 192, 77, 61, 118, 79, 2, 0.449624
217, 1, bw, attraction, a-b-da, 14, 2, 6, 6, 153, 83, 90, 165, 165, 90, 3, 1.11743
217, 1, bw, attraction, a-b-da, 14, 2, 6, 6, 153, 83, 90, 165, 165, 90, 1, 0.591694
217, 1, bw, attraction, a-b-db, 14, 1, 6, 7, 60, 135, 56, 125, 135, 60, 3, 1.05347
217, 1, bw, attraction, a-b-db, 14, 1, 6, 7, 60, 135, 56, 125, 135, 60, 1, 0.922445
217, 1, bw, filler, NA, 999, 999, 6, 8, 102, 164, 83, 158, 61, 194, 1, 1.44346
217, 1, bw, filler, NA, 999, 999, 6, 8, 102, 164, 83, 158, 61, 194, 3, 0.408319
217, 1, bw, attraction, a-b-db, 2, 1, 6, 9, 59, 134, 135, 60, 60, 135, 2, 1.00554
217, 1, bw, attraction, a-b-db, 2, 1, 6, 9, 59, 134, 135, 60, 60, 135, 3, 2.0598
217, 1, bw, attraction, a-b-da, 9, 3, 6, 10, 186, 114, 120, 195, 195, 120, 1, 0.870421
217, 1, bw, attraction, a-b-da, 9, 3, 6, 10, 186, 114, 120, 195, 195, 120, 3, 0.538826
217, 1, bw, attraction, a-b-db, 9, 1, 6, 11, 60, 135, 57, 129, 135, 60, 3, 1.09123
217, 1, bw, attraction, a-b-db, 9, 1, 6, 11, 60, 135, 57, 129, 135, 60, 2, 0.630222
217, 1, bw, attraction, a-b-db, 14, 3, 6, 12, 195, 120, 120, 195, 111, 181, 1, 0.626663
217, 1, bw, attraction, a-b-db, 14, 3, 6, 12, 195, 120, 120, 195, 111, 181, 3, 0.47239
217, 1, bw, attraction, a-b-db, 9, 2, 6, 13, 86, 157, 90, 165, 165, 90, 3, 0.987564
217, 1, bw, attraction, a-b-db, 9, 2, 6, 13, 86, 157, 90, 165, 165, 90, 1, 0.571416
217, 1, bw, attraction, a-b-da, 2, 2, 6, 14, 165, 90, 90, 165, 163, 89, 1, 3.49028
217, 1, bw, attraction, a-b-da, 2, 2, 6, 14, 165, 90, 90, 165, 163, 89, 2, 0.404502
217, 1, bw, catch, NA, 999, 999, 6, 15, 137, 178, 94, 101, 156, 99, 1, 1.04248
217, 1, bw, catch, NA, 999, 999, 6, 15, 137, 178, 94, 101, 156, 99, 2, 0.439223
217, 1, bw, filler, NA, 999, 999, 6, 16, 160, 174, 114, 107, 82, 79, 1, 0.587753
217, 1, bw, filler, NA, 999, 999, 6, 16, 160, 174, 114, 107, 82, 79, 3, 0.651607
217, 1, bw, attraction, a-b-da, 5, 2, 6, 17, 165, 90, 90, 165, 161, 88, 3, 2.04729
217, 1, bw, attraction, a-b-da, 5, 2, 6, 17, 165, 90, 90, 165, 161, 88, 2, 0.868049
217, 1, bw, attraction, a-b-db, 2, 3, 6, 18, 120, 195, 119, 193, 195, 120, 3, 0.782967
217, 1, bw, attraction, a-b-db, 2, 3, 6, 18, 120, 195, 119, 193, 195, 120, 1, 0.422657
217, 1, bw, attraction, a-b-db, 9, 3, 6, 19, 195, 120, 120, 195, 114, 186, 1, 0.659952
217, 1, bw, attraction, a-b-db, 9, 3, 6, 19, 195, 120, 120, 195, 114, 186, 2, 1.17633
217, 1, bw, catch, NA, 999, 999, 6, 20, 129, 66, 186, 129, 132, 123, 2, 0.814519
217, 1, bw, catch, NA, 999, 999, 6, 20, 129, 66, 186, 129, 132, 123, 1, 0.900848
217, 1, bw, filler, NA, 999, 999, 6, 21, 154, 146, 100, 89, 143, 125, 1, 0.686633
217, 1, bw, filler, NA, 999, 999, 6, 21, 154, 146, 100, 89, 143, 125, 2, 0.394293
217, 1, bw, attraction, a-b-da, 2, 3, 6, 22, 195, 120, 120, 195, 193, 119, 2, 1.01621
217, 1, bw, attraction, a-b-da, 2, 3, 6, 22, 195, 120, 120, 195, 193, 119, 1, 0.530872
217, 1, bw, attraction, a-b-da, 5, 3, 6, 23, 190, 117, 195, 120, 120, 195, 2, 0.990944
217, 1, bw, attraction, a-b-da, 5, 3, 6, 23, 190, 117, 195, 120, 120, 195, 3, 1.50194
217, 1, bw, filler, NA, 999, 999, 6, 24, 187, 151, 94, 188, 190, 174, 3, 1.04153
217, 1, bw, filler, NA, 999, 999, 6, 24, 187, 151, 94, 188, 190, 174, 2, 0.500363
217, 1, bw, filler, NA, 999, 999, 6, 25, 107, 194, 71, 148, 148, 168, 3, 0.798126
217, 1, bw, filler, NA, 999, 999, 6, 25, 107, 194, 71, 148, 148, 168, 2, 0.421177
217, 1, bw, attraction, a-b-db, 14, 2, 6, 26, 83, 153, 165, 90, 90, 165, 3, 1.51431
217, 1, bw, attraction, a-b-db, 14, 2, 6, 26, 83, 153, 165, 90, 90, 165, 2, 0.812442
217, 1, bw, attraction, a-b-da, 9, 2, 6, 27, 90, 165, 165, 90, 157, 86, 1, 2.01747
217, 1, bw, attraction, a-b-da, 9, 2, 6, 27, 90, 165, 165, 90, 157, 86, 2, 0.495517
217, 1, bw, attraction, a-b-db, 5, 1, 6, 28, 135, 60, 60, 135, 58, 132, 1, 0.929297
217, 1, bw, attraction, a-b-db, 5, 1, 6, 28, 135, 60, 60, 135, 58, 132, 3, 0.426951
217, 1, bw, filler, NA, 999, 999, 6, 29, 69, 59, 127, 124, 128, 161, 3, 1.16749
217, 1, bw, filler, NA, 999, 999, 6, 29, 69, 59, 127, 124, 128, 161, 1, 0.727687
217, 1, bw, attraction, a-b-da, 9, 1, 6, 30, 135, 60, 60, 135, 129, 57, 1, 0.904245
217, 1, bw, attraction, a-b-da, 9, 1, 6, 30, 135, 60, 60, 135, 129, 57, 2, 0.483147
217, 1, bw, attraction, a-b-da, 5, 1, 6, 31, 60, 135, 135, 60, 132, 58, 1, 1.49363
217, 1, bw, attraction, a-b-da, 5, 1, 6, 31, 60, 135, 135, 60, 132, 58, 2, 0.768564
217, 1, bw, catch, NA, 999, 999, 6, 32, 106, 89, 91, 164, 152, 163, 3, 0.743523
217, 1, bw, catch, NA, 999, 999, 6, 32, 106, 89, 91, 164, 152, 163, 1, 0.728666
217, 1, bw, attraction, a-b-db, 5, 3, 6, 33, 117, 190, 120, 195, 195, 120, 3, 1.98507
217, 1, bw, attraction, a-b-db, 5, 3, 6, 33, 117, 190, 120, 195, 195, 120, 1, 0.488332
217, 1, bw, filler, NA, 999, 999, 6, 34, 173, 73, 129, 76, 106, 67, 1, 0.778755
217, 1, bw, filler, NA, 999, 999, 6, 34, 173, 73, 129, 76, 106, 67, 3, 1.05051
217, 1, bw, attraction, a-b-db, 5, 2, 6, 35, 88, 161, 165, 90, 90, 165, 2, 1.34207
217, 1, bw, attraction, a-b-db, 5, 2, 6, 35, 88, 161, 165, 90, 90, 165, 1, 0.40702
217, 1, bw, filler, NA, 999, 999, 6, 36, 93, 158, 86, 67, 193, 71, 3, 0.828154
217, 1, bw, filler, NA, 999, 999, 6, 36, 93, 158, 86, 67, 193, 71, 2, 0.841898
217, 1, bw, attraction, a-b-db, 2, 2, 6, 37, 89, 163, 90, 165, 165, 90, 3, 0.661555
217, 1, bw, attraction, a-b-db, 2, 2, 6, 37, 89, 163, 90, 165, 165, 90, 1, 0.633934
217, 1, bw, attraction, a-b-db, 14, 3, 7, 1, 195, 120, 111, 181, 120, 195, 1, 0.758338
217, 1, bw, attraction, a-b-db, 14, 3, 7, 1, 195, 120, 111, 181, 120, 195, 3, 0.974904
217, 1, bw, attraction, a-b-db, 2, 2, 7, 2, 165, 90, 90, 165, 89, 163, 1, 0.493074
217, 1, bw, attraction, a-b-db, 2, 2, 7, 2, 165, 90, 90, 165, 89, 163, 2, 0.728207
217, 1, bw, filler, NA, 999, 999, 7, 3, 192, 171, 71, 161, 70, 67, 1, 0.393019
217, 1, bw, filler, NA, 999, 999, 7, 3, 192, 171, 71, 161, 70, 67, 3, 0.791783
217, 1, bw, attraction, a-b-db, 5, 2, 7, 4, 88, 161, 90, 165, 165, 90, 3, 0.741636
217, 1, bw, attraction, a-b-db, 5, 2, 7, 4, 88, 161, 90, 165, 165, 90, 1, 0.910625
217, 1, bw, filler, NA, 999, 999, 7, 5, 86, 131, 129, 148, 132, 72, 2, 1.28754
217, 1, bw, filler, NA, 999, 999, 7, 5, 86, 131, 129, 148, 132, 72, 1, 0.827077
217, 1, bw, attraction, a-b-da, 5, 3, 7, 6, 190, 117, 120, 195, 195, 120, 1, 2.91859
217, 1, bw, attraction, a-b-da, 5, 3, 7, 6, 190, 117, 120, 195, 195, 120, 2, 0.441154
217, 1, bw, attraction, a-b-da, 9, 2, 7, 7, 157, 86, 165, 90, 90, 165, 2, 2.38907
217, 1, bw, attraction, a-b-da, 9, 2, 7, 7, 157, 86, 165, 90, 90, 165, 1, 1.13958
217, 1, bw, attraction, a-b-da, 14, 2, 7, 8, 90, 165, 165, 90, 153, 83, 1, 1.61178
217, 1, bw, attraction, a-b-da, 14, 2, 7, 8, 90, 165, 165, 90, 153, 83, 3, 0.46589
217, 1, bw, attraction, a-b-da, 9, 1, 7, 9, 129, 57, 60, 135, 135, 60, 1, 0.80498
217, 1, bw, attraction, a-b-da, 9, 1, 7, 9, 129, 57, 60, 135, 135, 60, 2, 0.28342
217, 1, bw, attraction, a-b-db, 9, 3, 7, 10, 120, 195, 195, 120, 114, 186, 2, 0.902006
217, 1, bw, attraction, a-b-db, 9, 3, 7, 10, 120, 195, 195, 120, 114, 186, 1, 0.337054
217, 1, bw, catch, NA, 999, 999, 7, 11, 111, 84, 114, 141, 150, 165, 3, 1.40148
217, 1, bw, catch, NA, 999, 999, 7, 11, 111, 84, 114, 141, 150, 165, 1, 0.472449
217, 1, bw, attraction, a-b-da, 2, 1, 7, 12, 134, 59, 60, 135, 135, 60, 2, 9.96354
217, 1, bw, attraction, a-b-da, 2, 1, 7, 12, 134, 59, 60, 135, 135, 60, 3, 0.569188
217, 1, bw, attraction, a-b-db, 14, 1, 7, 13, 56, 125, 60, 135, 135, 60, 3, 2.14424
217, 1, bw, attraction, a-b-db, 14, 1, 7, 13, 56, 125, 60, 135, 135, 60, 1, 0.400857
217, 1, bw, attraction, a-b-da, 14, 3, 7, 14, 181, 111, 120, 195, 195, 120, 2, 2.21466
217, 1, bw, attraction, a-b-da, 14, 3, 7, 14, 181, 111, 120, 195, 195, 120, 1, 0.772552
217, 1, bw, attraction, a-b-da, 9, 3, 7, 15, 186, 114, 195, 120, 120, 195, 2, 0.811641
217, 1, bw, attraction, a-b-da, 9, 3, 7, 15, 186, 114, 195, 120, 120, 195, 1, 0.866117
217, 1, bw, filler, NA, 999, 999, 7, 16, 113, 87, 176, 149, 57, 160, 2, 0.492966
217, 1, bw, filler, NA, 999, 999, 7, 16, 113, 87, 176, 149, 57, 160, 1, 0.93613
217, 1, bw, catch, NA, 999, 999, 7, 17, 115, 140, 80, 115, 175, 140, 3, 0.624401
217, 1, bw, catch, NA, 999, 999, 7, 17, 115, 140, 80, 115, 175, 140, 2, 0.550282
217, 1, bw, catch, NA, 999, 999, 7, 18, 69, 126, 126, 189, 114, 141, 2, 0.62201
217, 1, bw, catch, NA, 999, 999, 7, 18, 69, 126, 126, 189, 114, 141, 1, 0.755697
217, 1, bw, attraction, a-b-db, 2, 1, 7, 19, 135, 60, 59, 134, 60, 135, 1, 1.31556
217, 1, bw, attraction, a-b-db, 2, 1, 7, 19, 135, 60, 59, 134, 60, 135, 2, 0.397671
217, 1, bw, attraction, a-b-da, 2, 3, 7, 20, 120, 195, 193, 119, 195, 120, 2, 0.77952
217, 1, bw, attraction, a-b-da, 2, 3, 7, 20, 120, 195, 193, 119, 195, 120, 1, 0.411252
217, 1, bw, attraction, a-b-db, 14, 2, 7, 21, 90, 165, 83, 153, 165, 90, 3, 1.63241
217, 1, bw, attraction, a-b-db, 14, 2, 7, 21, 90, 165, 83, 153, 165, 90, 2, 0.773927
217, 1, bw, attraction, a-b-db, 9, 1, 7, 22, 57, 129, 60, 135, 135, 60, 3, 1.16424
217, 1, bw, attraction, a-b-db, 9, 1, 7, 22, 57, 129, 60, 135, 135, 60, 1, 1.00453
217, 1, bw, attraction, a-b-da, 2, 2, 7, 23, 165, 90, 163, 89, 90, 165, 1, 0.706278
217, 1, bw, attraction, a-b-da, 2, 2, 7, 23, 165, 90, 163, 89, 90, 165, 2, 0.724556
217, 1, bw, attraction, a-b-db, 9, 2, 7, 24, 86, 157, 90, 165, 165, 90, 3, 0.717133
217, 1, bw, attraction, a-b-db, 9, 2, 7, 24, 86, 157, 90, 165, 165, 90, 1, 1.07137
217, 1, bw, attraction, a-b-da, 14, 1, 7, 25, 135, 60, 60, 135, 125, 56, 1, 2.59425
217, 1, bw, attraction, a-b-da, 14, 1, 7, 25, 135, 60, 60, 135, 125, 56, 2, 0.704756
217, 1, bw, filler, NA, 999, 999, 7, 26, 129, 111, 140, 172, 189, 113, 2, 0.706516
217, 1, bw, filler, NA, 999, 999, 7, 26, 129, 111, 140, 172, 189, 113, 1, 0.837025
217, 1, bw, attraction, a-b-da, 5, 1, 7, 27, 60, 135, 132, 58, 135, 60, 2, 1.92135
217, 1, bw, attraction, a-b-da, 5, 1, 7, 27, 60, 135, 132, 58, 135, 60, 3, 0.435341
217, 1, bw, filler, NA, 999, 999, 7, 28, 106, 86, 144, 117, 193, 140, 3, 1.3358
217, 1, bw, filler, NA, 999, 999, 7, 28, 106, 86, 144, 117, 193, 140, 1, 1.24131
217, 1, bw, filler, NA, 999, 999, 7, 29, 61, 103, 117, 142, 169, 124, 3, 0.677003
217, 1, bw, filler, NA, 999, 999, 7, 29, 61, 103, 117, 142, 169, 124, 1, 0.568761
217, 1, bw, filler, NA, 999, 999, 7, 30, 115, 61, 86, 58, 57, 128, 1, 0.90369
217, 1, bw, filler, NA, 999, 999, 7, 30, 115, 61, 86, 58, 57, 128, 2, 0.634816
217, 1, bw, attraction, a-b-db, 5, 1, 7, 31, 135, 60, 58, 132, 60, 135, 1, 0.735315
217, 1, bw, attraction, a-b-db, 5, 1, 7, 31, 135, 60, 58, 132, 60, 135, 3, 0.664979
217, 1, bw, filler, NA, 999, 999, 7, 32, 172, 85, 108, 136, 194, 184, 3, 0.964072
217, 1, bw, filler, NA, 999, 999, 7, 32, 172, 85, 108, 136, 194, 184, 2, 1.15635
217, 1, bw, filler, NA, 999, 999, 7, 33, 137, 92, 125, 87, 177, 115, 3, 0.731873
217, 1, bw, filler, NA, 999, 999, 7, 33, 137, 92, 125, 87, 177, 115, 1, 0.469608
217, 1, bw, filler, NA, 999, 999, 7, 34, 125, 174, 180, 188, 186, 125, 2, 0.960917
217, 1, bw, filler, NA, 999, 999, 7, 34, 125, 174, 180, 188, 186, 125, 3, 1.18511
217, 1, bw, attraction, a-b-da, 5, 2, 7, 35, 165, 90, 161, 88, 90, 165, 1, 0.607451
217, 1, bw, attraction, a-b-da, 5, 2, 7, 35, 165, 90, 161, 88, 90, 165, 3, 0.613897
217, 1, bw, attraction, a-b-db, 2, 3, 7, 36, 120, 195, 119, 193, 195, 120, 3, 1.09932
217, 1, bw, attraction, a-b-db, 2, 3, 7, 36, 120, 195, 119, 193, 195, 120, 1, 0.574035
217, 1, bw, attraction, a-b-db, 5, 3, 7, 37, 195, 120, 117, 190, 120, 195, 1, 0.764296
217, 1, bw, attraction, a-b-db, 5, 3, 7, 37, 195, 120, 117, 190, 120, 195, 2, 0.38084
217, 1, bw, attraction, a-b-da, 5, 1, 8, 1, 60, 135, 132, 58, 135, 60, 3, 0.859233
217, 1, bw, attraction, a-b-da, 5, 1, 8, 1, 60, 135, 132, 58, 135, 60, 2, 0.559593
217, 1, bw, attraction, a-b-db, 9, 2, 8, 2, 90, 165, 165, 90, 86, 157, 2, 1.28668
217, 1, bw, attraction, a-b-db, 9, 2, 8, 2, 90, 165, 165, 90, 86, 157, 1, 0.306252
217, 1, bw, attraction, a-b-db, 5, 2, 8, 3, 90, 165, 165, 90, 88, 161, 1, 1.14009
217, 1, bw, attraction, a-b-db, 5, 2, 8, 3, 90, 165, 165, 90, 88, 161, 2, 0.525058
217, 1, bw, attraction, a-b-da, 9, 1, 8, 4, 60, 135, 129, 57, 135, 60, 3, 0.733492
217, 1, bw, attraction, a-b-da, 9, 1, 8, 4, 60, 135, 129, 57, 135, 60, 2, 0.519382
217, 1, bw, filler, NA, 999, 999, 8, 5, 66, 176, 145, 66, 151, 131, 3, 0.600305
217, 1, bw, filler, NA, 999, 999, 8, 5, 66, 176, 145, 66, 151, 131, 2, 1.42342
217, 1, bw, filler, NA, 999, 999, 8, 6, 175, 186, 152, 189, 132, 68, 1, 0.9316
217, 1, bw, filler, NA, 999, 999, 8, 6, 175, 186, 152, 189, 132, 68, 3, 0.541378
217, 1, bw, attraction, a-b-db, 2, 1, 8, 7, 135, 60, 60, 135, 59, 134, 1, 0.845085
217, 1, bw, attraction, a-b-db, 2, 1, 8, 7, 135, 60, 60, 135, 59, 134, 2, 0.778049
217, 1, bw, attraction, a-b-da, 2, 3, 8, 8, 195, 120, 120, 195, 193, 119, 2, 4.16059
217, 1, bw, attraction, a-b-da, 2, 3, 8, 8, 195, 120, 120, 195, 193, 119, 3, 0.375782
217, 1, bw, attraction, a-b-da, 2, 2, 8, 9, 163, 89, 90, 165, 165, 90, 3, 1.35025
217, 1, bw, attraction, a-b-da, 2, 2, 8, 9, 163, 89, 90, 165, 165, 90, 2, 0.415227
217, 1, bw, filler, NA, 999, 999, 8, 10, 150, 60, 146, 79, 131, 166, 3, 1.3484
217, 1, bw, filler, NA, 999, 999, 8, 10, 150, 60, 146, 79, 131, 166, 1, 0.677232
217, 1, bw, filler, NA, 999, 999, 8, 11, 168, 150, 155, 182, 76, 59, 2, 1.39158
217, 1, bw, filler, NA, 999, 999, 8, 11, 168, 150, 155, 182, 76, 59, 3, 0.926574
217, 1, bw, filler, NA, 999, 999, 8, 12, 128, 57, 86, 86, 169, 179, 3, 0.790739
217, 1, bw, filler, NA, 999, 999, 8, 12, 128, 57, 86, 86, 169, 179, 2, 0.669831
217, 1, bw, attraction, a-b-db, 9, 3, 8, 13, 195, 120, 114, 186, 120, 195, 1, 2.64894
217, 1, bw, attraction, a-b-db, 9, 3, 8, 13, 195, 120, 114, 186, 120, 195, 2, 0.437373
217, 1, bw, attraction, a-b-db, 14, 3, 8, 14, 111, 181, 120, 195, 195, 120, 2, 2.2579
217, 1, bw, attraction, a-b-db, 14, 3, 8, 14, 111, 181, 120, 195, 195, 120, 3, 1.87788
217, 1, bw, filler, NA, 999, 999, 8, 15, 179, 173, 85, 169, 154, 69, 1, 0.663918
217, 1, bw, filler, NA, 999, 999, 8, 15, 179, 173, 85, 169, 154, 69, 3, 0.732281
217, 1, bw, attraction, a-b-da, 9, 2, 8, 16, 157, 86, 165, 90, 90, 165, 3, 1.48469
217, 1, bw, attraction, a-b-da, 9, 2, 8, 16, 157, 86, 165, 90, 90, 165, 1, 0.968129
217, 1, bw, attraction, a-b-da, 14, 1, 8, 17, 135, 60, 125, 56, 60, 135, 1, 0.719235
217, 1, bw, attraction, a-b-da, 14, 1, 8, 17, 135, 60, 125, 56, 60, 135, 3, 0.417526
217, 1, bw, attraction, a-b-db, 9, 1, 8, 18, 57, 129, 60, 135, 135, 60, 3, 0.830661
217, 1, bw, attraction, a-b-db, 9, 1, 8, 18, 57, 129, 60, 135, 135, 60, 2, 0.580348
217, 1, bw, attraction, a-b-db, 14, 1, 8, 19, 56, 125, 135, 60, 60, 135, 3, 0.818858
217, 1, bw, attraction, a-b-db, 14, 1, 8, 19, 56, 125, 135, 60, 60, 135, 2, 0.521197
217, 1, bw, filler, NA, 999, 999, 8, 20, 56, 79, 92, 179, 163, 136, 3, 0.754319
217, 1, bw, filler, NA, 999, 999, 8, 20, 56, 79, 92, 179, 163, 136, 1, 0.587455
217, 1, bw, attraction, a-b-da, 5, 3, 8, 21, 190, 117, 120, 195, 195, 120, 3, 2.03399
217, 1, bw, attraction, a-b-da, 5, 3, 8, 21, 190, 117, 120, 195, 195, 120, 1, 0.951187
217, 1, bw, filler, NA, 999, 999, 8, 22, 168, 87, 169, 147, 168, 57, 2, 0.686747
217, 1, bw, filler, NA, 999, 999, 8, 22, 168, 87, 169, 147, 168, 57, 3, 0.49875
217, 1, bw, attraction, a-b-db, 2, 2, 8, 23, 90, 165, 165, 90, 89, 163, 2, 1.5724
217, 1, bw, attraction, a-b-db, 2, 2, 8, 23, 90, 165, 165, 90, 89, 163, 1, 0.667869
217, 1, bw, catch, NA, 999, 999, 8, 24, 112, 83, 172, 143, 149, 106, 2, 1.75191
217, 1, bw, catch, NA, 999, 999, 8, 24, 112, 83, 172, 143, 149, 106, 1, 1.10377
217, 1, bw, filler, NA, 999, 999, 8, 25, 191, 160, 189, 70, 104, 114, 1, 1.06531
217, 1, bw, filler, NA, 999, 999, 8, 25, 191, 160, 189, 70, 104, 114, 3, 0.413721
217, 1, bw, attraction, a-b-db, 5, 1, 8, 26, 58, 132, 60, 135, 135, 60, 3, 3.79466
217, 1, bw, attraction, a-b-db, 5, 1, 8, 26, 58, 132, 60, 135, 135, 60, 1, 0.632828
217, 1, bw, attraction, a-b-db, 2, 3, 8, 27, 120, 195, 195, 120, 119, 193, 1, 1.01367
217, 1, bw, attraction, a-b-db, 2, 3, 8, 27, 120, 195, 195, 120, 119, 193, 2, 0.619629
217, 1, bw, attraction, a-b-da, 9, 3, 8, 28, 120, 195, 195, 120, 186, 114, 3, 1.04066
217, 1, bw, attraction, a-b-da, 9, 3, 8, 28, 120, 195, 195, 120, 186, 114, 2, 1.02174
217, 1, bw, catch, NA, 999, 999, 8, 29, 114, 81, 138, 117, 177, 138, 3, 0.866588
217, 1, bw, catch, NA, 999, 999, 8, 29, 114, 81, 138, 117, 177, 138, 1, 0.590998
217, 1, bw, attraction, a-b-db, 14, 2, 8, 30, 165, 90, 83, 153, 90, 165, 1, 0.708735
217, 1, bw, attraction, a-b-db, 14, 2, 8, 30, 165, 90, 83, 153, 90, 165, 2, 1.23906
217, 1, bw, attraction, a-b-da, 5, 2, 8, 31, 165, 90, 90, 165, 161, 88, 3, 0.771419
217, 1, bw, attraction, a-b-da, 5, 2, 8, 31, 165, 90, 90, 165, 161, 88, 2, 1.24386
217, 1, bw, attraction, a-b-db, 5, 3, 8, 32, 120, 195, 195, 120, 117, 190, 1, 1.96725
217, 1, bw, attraction, a-b-db, 5, 3, 8, 32, 120, 195, 195, 120, 117, 190, 2, 0.591301
217, 1, bw, attraction, a-b-da, 14, 2, 8, 33, 165, 90, 153, 83, 90, 165, 1, 1.72501
217, 1, bw, attraction, a-b-da, 14, 2, 8, 33, 165, 90, 153, 83, 90, 165, 3, 0.534608
217, 1, bw, catch, NA, 999, 999, 8, 34, 176, 139, 98, 157, 72, 123, 1, 0.55903
217, 1, bw, catch, NA, 999, 999, 8, 34, 176, 139, 98, 157, 72, 123, 3, 0.519513
217, 1, bw, attraction, a-b-da, 2, 1, 8, 35, 134, 59, 135, 60, 60, 135, 2, 1.68062
217, 1, bw, attraction, a-b-da, 2, 1, 8, 35, 134, 59, 135, 60, 60, 135, 1, 0.724136
217, 1, bw, filler, NA, 999, 999, 8, 36, 141, 82, 60, 68, 160, 162, 3, 0.588425
217, 1, bw, filler, NA, 999, 999, 8, 36, 141, 82, 60, 68, 160, 162, 2, 0.57143
217, 1, bw, attraction, a-b-da, 14, 3, 8, 37, 181, 111, 120, 195, 195, 120, 2, 1.25854
217, 1, bw, attraction, a-b-da, 14, 3, 8, 37, 181, 111, 120, 195, 195, 120, 1, 0.726835
