sub_n, computer_n, bw_cond, effect, set, distance, diag, block_n, trial_n, h1, w1, h2, w2, h3, w3, choice, rt 
220, 1, wb, practice, NA, 999, 999, 0, 1, 69, 145, 87, 69, 177, 152, 2, 4.07393
220, 1, wb, practice, NA, 999, 999, 0, 1, 69, 145, 87, 69, 177, 152, 3, 2.03031
220, 1, wb, practice, NA, 999, 999, 0, 2, 167, 66, 172, 177, 172, 85, 1, 3.29667
220, 1, wb, practice, NA, 999, 999, 0, 2, 167, 66, 172, 177, 172, 85, 2, 1.95358
220, 1, wb, practice, NA, 999, 999, 0, 3, 143, 167, 170, 118, 191, 158, 2, 4.16528
220, 1, wb, practice, NA, 999, 999, 0, 3, 143, 167, 170, 118, 191, 158, 3, 2.21949
220, 1, wb, attraction, a-b-db, 14, 2, 1, 1, 165, 90, 90, 165, 83, 153, 3, 2.76358
220, 1, wb, attraction, a-b-db, 14, 2, 1, 1, 165, 90, 90, 165, 83, 153, 2, 1.65124
220, 1, wb, attraction, a-b-da, 14, 2, 1, 2, 165, 90, 90, 165, 153, 83, 3, 1.00662
220, 1, wb, attraction, a-b-da, 14, 2, 1, 2, 165, 90, 90, 165, 153, 83, 2, 0.84612
220, 1, wb, filler, NA, 999, 999, 1, 3, 181, 174, 166, 73, 190, 194, 2, 1.02459
220, 1, wb, filler, NA, 999, 999, 1, 3, 181, 174, 166, 73, 190, 194, 3, 0.774329
220, 1, wb, attraction, a-b-da, 14, 1, 1, 4, 135, 60, 125, 56, 60, 135, 3, 1.32459
220, 1, wb, attraction, a-b-da, 14, 1, 1, 4, 135, 60, 125, 56, 60, 135, 1, 2.10226
220, 1, wb, attraction, a-b-db, 9, 2, 1, 5, 90, 165, 165, 90, 86, 157, 3, 1.91165
220, 1, wb, attraction, a-b-db, 9, 2, 1, 5, 90, 165, 165, 90, 86, 157, 2, 0.785613
220, 1, wb, attraction, a-b-db, 2, 2, 1, 6, 90, 165, 89, 163, 165, 90, 3, 1.14391
220, 1, wb, attraction, a-b-db, 2, 2, 1, 6, 90, 165, 89, 163, 165, 90, 1, 0.496863
220, 1, wb, attraction, a-b-db, 2, 3, 1, 7, 195, 120, 119, 193, 120, 195, 3, 1.38668
220, 1, wb, attraction, a-b-db, 2, 3, 1, 7, 195, 120, 119, 193, 120, 195, 2, 0.602221
220, 1, wb, attraction, a-b-db, 14, 3, 1, 8, 195, 120, 111, 181, 120, 195, 1, 0.999929
220, 1, wb, attraction, a-b-db, 14, 3, 1, 8, 195, 120, 111, 181, 120, 195, 2, 0.67896
220, 1, wb, attraction, a-b-da, 5, 1, 1, 9, 60, 135, 132, 58, 135, 60, 3, 0.985434
220, 1, wb, attraction, a-b-da, 5, 1, 1, 9, 60, 135, 132, 58, 135, 60, 2, 0.809009
220, 1, wb, attraction, a-b-da, 9, 3, 1, 10, 186, 114, 195, 120, 120, 195, 1, 0.907555
220, 1, wb, attraction, a-b-da, 9, 3, 1, 10, 186, 114, 195, 120, 120, 195, 3, 0.872551
220, 1, wb, attraction, a-b-db, 2, 1, 1, 11, 60, 135, 59, 134, 135, 60, 1, 1.10737
220, 1, wb, attraction, a-b-db, 2, 1, 1, 11, 60, 135, 59, 134, 135, 60, 3, 1.42995
220, 1, wb, filler, NA, 999, 999, 1, 12, 133, 102, 70, 131, 173, 88, 3, 6.35397
220, 1, wb, filler, NA, 999, 999, 1, 12, 133, 102, 70, 131, 173, 88, 1, 0.689178
220, 1, wb, attraction, a-b-da, 2, 2, 1, 13, 90, 165, 163, 89, 165, 90, 3, 1.13972
220, 1, wb, attraction, a-b-da, 2, 2, 1, 13, 90, 165, 163, 89, 165, 90, 1, 0.324498
220, 1, wb, filler, NA, 999, 999, 1, 14, 168, 70, 69, 166, 194, 157, 1, 1.99695
220, 1, wb, filler, NA, 999, 999, 1, 14, 168, 70, 69, 166, 194, 157, 3, 0.795713
220, 1, wb, filler, NA, 999, 999, 1, 15, 83, 118, 146, 132, 166, 115, 1, 1.29744
220, 1, wb, filler, NA, 999, 999, 1, 15, 83, 118, 146, 132, 166, 115, 2, 0.500376
220, 1, wb, attraction, a-b-da, 14, 3, 1, 16, 195, 120, 181, 111, 120, 195, 3, 0.886175
220, 1, wb, attraction, a-b-da, 14, 3, 1, 16, 195, 120, 181, 111, 120, 195, 2, 0.505804
220, 1, wb, catch, NA, 999, 999, 1, 17, 104, 151, 79, 116, 160, 155, 1, 0.731559
220, 1, wb, catch, NA, 999, 999, 1, 17, 104, 151, 79, 116, 160, 155, 3, 1.84536
220, 1, wb, attraction, a-b-da, 5, 3, 1, 18, 195, 120, 190, 117, 120, 195, 1, 0.968674
220, 1, wb, attraction, a-b-da, 5, 3, 1, 18, 195, 120, 190, 117, 120, 195, 2, 0.521038
220, 1, wb, attraction, a-b-da, 9, 2, 1, 19, 157, 86, 90, 165, 165, 90, 1, 1.26612
220, 1, wb, attraction, a-b-da, 9, 2, 1, 19, 157, 86, 90, 165, 165, 90, 2, 0.446354
220, 1, wb, filler, NA, 999, 999, 1, 20, 76, 172, 193, 120, 146, 131, 1, 0.73016
220, 1, wb, filler, NA, 999, 999, 1, 20, 76, 172, 193, 120, 146, 131, 3, 0.45198
220, 1, wb, attraction, a-b-db, 9, 1, 1, 21, 57, 129, 60, 135, 135, 60, 2, 1.03168
220, 1, wb, attraction, a-b-db, 9, 1, 1, 21, 57, 129, 60, 135, 135, 60, 1, 0.605296
220, 1, wb, attraction, a-b-db, 5, 2, 1, 22, 88, 161, 90, 165, 165, 90, 3, 0.667206
220, 1, wb, attraction, a-b-db, 5, 2, 1, 22, 88, 161, 90, 165, 165, 90, 2, 0.319659
220, 1, wb, attraction, a-b-db, 5, 1, 1, 23, 60, 135, 135, 60, 58, 132, 1, 0.560736
220, 1, wb, attraction, a-b-db, 5, 1, 1, 23, 60, 135, 135, 60, 58, 132, 2, 0.737237
220, 1, wb, attraction, a-b-da, 9, 1, 1, 24, 60, 135, 135, 60, 129, 57, 3, 1.51357
220, 1, wb, attraction, a-b-da, 9, 1, 1, 24, 60, 135, 135, 60, 129, 57, 1, 0.451751
220, 1, wb, filler, NA, 999, 999, 1, 25, 185, 120, 154, 99, 141, 193, 2, 1.08753
220, 1, wb, filler, NA, 999, 999, 1, 25, 185, 120, 154, 99, 141, 193, 3, 0.579289
220, 1, wb, filler, NA, 999, 999, 1, 26, 89, 110, 68, 102, 189, 102, 2, 0.625736
220, 1, wb, filler, NA, 999, 999, 1, 26, 89, 110, 68, 102, 189, 102, 3, 0.871428
220, 1, wb, filler, NA, 999, 999, 1, 27, 180, 192, 80, 110, 169, 135, 2, 0.906381
220, 1, wb, filler, NA, 999, 999, 1, 27, 180, 192, 80, 110, 169, 135, 1, 0.356676
220, 1, wb, attraction, a-b-db, 5, 3, 1, 28, 120, 195, 117, 190, 195, 120, 1, 1.35585
220, 1, wb, attraction, a-b-db, 5, 3, 1, 28, 120, 195, 117, 190, 195, 120, 2, 0.348148
220, 1, wb, attraction, a-b-da, 2, 1, 1, 29, 134, 59, 135, 60, 60, 135, 1, 0.739939
220, 1, wb, attraction, a-b-da, 2, 1, 1, 29, 134, 59, 135, 60, 60, 135, 2, 0.341
220, 1, wb, attraction, a-b-da, 2, 3, 1, 30, 120, 195, 193, 119, 195, 120, 3, 0.516877
220, 1, wb, attraction, a-b-da, 2, 3, 1, 30, 120, 195, 193, 119, 195, 120, 1, 0.567304
220, 1, wb, catch, NA, 999, 999, 1, 31, 104, 151, 184, 131, 116, 79, 3, 1.00649
220, 1, wb, catch, NA, 999, 999, 1, 31, 104, 151, 184, 131, 116, 79, 2, 0.364805
220, 1, wb, attraction, a-b-db, 14, 1, 1, 32, 135, 60, 56, 125, 60, 135, 2, 0.923906
220, 1, wb, attraction, a-b-db, 14, 1, 1, 32, 135, 60, 56, 125, 60, 135, 3, 0.549672
220, 1, wb, attraction, a-b-db, 9, 3, 1, 33, 120, 195, 114, 186, 195, 120, 3, 1.43745
220, 1, wb, attraction, a-b-db, 9, 3, 1, 33, 120, 195, 114, 186, 195, 120, 1, 0.298306
220, 1, wb, attraction, a-b-da, 5, 2, 1, 34, 161, 88, 90, 165, 165, 90, 1, 0.628062
220, 1, wb, attraction, a-b-da, 5, 2, 1, 34, 161, 88, 90, 165, 165, 90, 2, 0.289842
220, 1, wb, filler, NA, 999, 999, 1, 35, 163, 186, 157, 183, 110, 130, 3, 0.891761
220, 1, wb, filler, NA, 999, 999, 1, 35, 163, 186, 157, 183, 110, 130, 1, 0.694734
220, 1, wb, filler, NA, 999, 999, 1, 36, 100, 170, 101, 79, 153, 133, 2, 0.712451
220, 1, wb, filler, NA, 999, 999, 1, 36, 100, 170, 101, 79, 153, 133, 3, 0.506863
220, 1, wb, catch, NA, 999, 999, 1, 37, 148, 167, 145, 110, 120, 75, 3, 0.827896
220, 1, wb, catch, NA, 999, 999, 1, 37, 148, 167, 145, 110, 120, 75, 1, 0.265782
220, 1, wb, attraction, a-b-da, 5, 3, 2, 1, 120, 195, 190, 117, 195, 120, 1, 1.43687
220, 1, wb, attraction, a-b-da, 5, 3, 2, 1, 120, 195, 190, 117, 195, 120, 2, 0.382311
220, 1, wb, attraction, a-b-da, 2, 2, 2, 2, 163, 89, 90, 165, 165, 90, 3, 0.488895
220, 1, wb, attraction, a-b-da, 2, 2, 2, 2, 163, 89, 90, 165, 165, 90, 1, 0.588102
220, 1, wb, filler, NA, 999, 999, 2, 3, 93, 127, 188, 69, 174, 107, 2, 0.522504
220, 1, wb, filler, NA, 999, 999, 2, 3, 93, 127, 188, 69, 174, 107, 3, 1.29233
220, 1, wb, filler, NA, 999, 999, 2, 4, 167, 82, 86, 156, 72, 60, 3, 0.933767
220, 1, wb, filler, NA, 999, 999, 2, 4, 167, 82, 86, 156, 72, 60, 1, 0.31151
220, 1, wb, attraction, a-b-db, 5, 1, 2, 5, 58, 132, 60, 135, 135, 60, 1, 0.72069
220, 1, wb, attraction, a-b-db, 5, 1, 2, 5, 58, 132, 60, 135, 135, 60, 3, 0.63522
220, 1, wb, attraction, a-b-db, 14, 1, 2, 6, 135, 60, 60, 135, 56, 125, 3, 0.743615
220, 1, wb, attraction, a-b-db, 14, 1, 2, 6, 135, 60, 60, 135, 56, 125, 1, 0.560688
220, 1, wb, attraction, a-b-db, 2, 1, 2, 7, 135, 60, 60, 135, 59, 134, 2, 0.495611
220, 1, wb, attraction, a-b-db, 2, 1, 2, 7, 135, 60, 60, 135, 59, 134, 1, 0.330772
220, 1, wb, filler, NA, 999, 999, 2, 8, 93, 84, 163, 143, 190, 182, 1, 0.955369
220, 1, wb, filler, NA, 999, 999, 2, 8, 93, 84, 163, 143, 190, 182, 3, 0.275652
220, 1, wb, filler, NA, 999, 999, 2, 9, 90, 95, 93, 78, 180, 193, 2, 0.75815
220, 1, wb, filler, NA, 999, 999, 2, 9, 90, 95, 93, 78, 180, 193, 3, 0.558713
220, 1, wb, attraction, a-b-da, 9, 3, 2, 10, 195, 120, 186, 114, 120, 195, 3, 0.725681
220, 1, wb, attraction, a-b-da, 9, 3, 2, 10, 195, 120, 186, 114, 120, 195, 1, 0.279359
220, 1, wb, filler, NA, 999, 999, 2, 11, 56, 165, 104, 99, 157, 158, 1, 2.47406
220, 1, wb, filler, NA, 999, 999, 2, 11, 56, 165, 104, 99, 157, 158, 3, 0.189093
220, 1, wb, filler, NA, 999, 999, 2, 12, 195, 159, 162, 145, 187, 181, 2, 1.16381
220, 1, wb, filler, NA, 999, 999, 2, 12, 195, 159, 162, 145, 187, 181, 1, 0.643923
220, 1, wb, attraction, a-b-da, 5, 2, 2, 13, 161, 88, 90, 165, 165, 90, 1, 0.863839
220, 1, wb, attraction, a-b-da, 5, 2, 2, 13, 161, 88, 90, 165, 165, 90, 2, 0.316164
220, 1, wb, attraction, a-b-da, 5, 1, 2, 14, 132, 58, 135, 60, 60, 135, 1, 0.58934
220, 1, wb, attraction, a-b-da, 5, 1, 2, 14, 132, 58, 135, 60, 60, 135, 2, 0.37242
220, 1, wb, catch, NA, 999, 999, 2, 15, 184, 131, 123, 72, 100, 155, 1, 0.659507
220, 1, wb, catch, NA, 999, 999, 2, 15, 184, 131, 123, 72, 100, 155, 2, 0.360063
220, 1, wb, attraction, a-b-db, 5, 2, 2, 16, 90, 165, 165, 90, 88, 161, 3, 0.791117
220, 1, wb, attraction, a-b-db, 5, 2, 2, 16, 90, 165, 165, 90, 88, 161, 2, 0.302262
220, 1, wb, catch, NA, 999, 999, 2, 17, 145, 110, 60, 135, 153, 162, 2, 1.72817
220, 1, wb, catch, NA, 999, 999, 2, 17, 145, 110, 60, 135, 153, 162, 3, 0.273511
220, 1, wb, attraction, a-b-db, 5, 3, 2, 18, 117, 190, 120, 195, 195, 120, 1, 0.78001
220, 1, wb, attraction, a-b-db, 5, 3, 2, 18, 117, 190, 120, 195, 195, 120, 2, 0.331705
220, 1, wb, attraction, a-b-db, 14, 3, 2, 19, 120, 195, 111, 181, 195, 120, 1, 0.708224
220, 1, wb, attraction, a-b-db, 14, 3, 2, 19, 120, 195, 111, 181, 195, 120, 2, 0.278638
220, 1, wb, attraction, a-b-da, 2, 1, 2, 20, 134, 59, 135, 60, 60, 135, 1, 0.673132
220, 1, wb, attraction, a-b-da, 2, 1, 2, 20, 134, 59, 135, 60, 60, 135, 3, 0.317029
220, 1, wb, attraction, a-b-da, 9, 1, 2, 21, 129, 57, 135, 60, 60, 135, 1, 0.807315
220, 1, wb, attraction, a-b-da, 9, 1, 2, 21, 129, 57, 135, 60, 60, 135, 3, 0.284543
220, 1, wb, attraction, a-b-da, 14, 2, 2, 22, 90, 165, 165, 90, 153, 83, 3, 1.27907
220, 1, wb, attraction, a-b-da, 14, 2, 2, 22, 90, 165, 165, 90, 153, 83, 1, 0.298682
220, 1, wb, filler, NA, 999, 999, 2, 23, 79, 170, 119, 70, 122, 194, 2, 1.29247
220, 1, wb, filler, NA, 999, 999, 2, 23, 79, 170, 119, 70, 122, 194, 3, 0.247322
220, 1, wb, attraction, a-b-da, 14, 1, 2, 24, 135, 60, 60, 135, 125, 56, 3, 0.859186
220, 1, wb, attraction, a-b-da, 14, 1, 2, 24, 135, 60, 60, 135, 125, 56, 1, 0.879616
220, 1, wb, catch, NA, 999, 999, 2, 25, 99, 156, 179, 136, 101, 94, 3, 1.60997
220, 1, wb, catch, NA, 999, 999, 2, 25, 99, 156, 179, 136, 101, 94, 2, 0.304122
220, 1, wb, attraction, a-b-db, 9, 2, 2, 26, 86, 157, 165, 90, 90, 165, 1, 0.505879
220, 1, wb, attraction, a-b-db, 9, 2, 2, 26, 86, 157, 165, 90, 90, 165, 2, 0.348432
220, 1, wb, attraction, a-b-da, 14, 3, 2, 27, 120, 195, 181, 111, 195, 120, 1, 0.532219
220, 1, wb, attraction, a-b-da, 14, 3, 2, 27, 120, 195, 181, 111, 195, 120, 2, 0.326045
220, 1, wb, attraction, a-b-da, 9, 2, 2, 28, 157, 86, 165, 90, 90, 165, 1, 0.494647
220, 1, wb, attraction, a-b-da, 9, 2, 2, 28, 157, 86, 165, 90, 90, 165, 2, 0.337633
220, 1, wb, attraction, a-b-db, 2, 3, 2, 29, 119, 193, 195, 120, 120, 195, 1, 0.41026
220, 1, wb, attraction, a-b-db, 2, 3, 2, 29, 119, 193, 195, 120, 120, 195, 2, 0.312719
220, 1, wb, attraction, a-b-da, 2, 3, 2, 30, 193, 119, 120, 195, 195, 120, 1, 0.62588
220, 1, wb, attraction, a-b-da, 2, 3, 2, 30, 193, 119, 120, 195, 195, 120, 2, 0.303793
220, 1, wb, filler, NA, 999, 999, 2, 31, 104, 182, 72, 141, 97, 124, 1, 0.465456
220, 1, wb, filler, NA, 999, 999, 2, 31, 104, 182, 72, 141, 97, 124, 2, 0.294145
220, 1, wb, filler, NA, 999, 999, 2, 32, 60, 106, 69, 162, 92, 153, 1, 0.647833
220, 1, wb, filler, NA, 999, 999, 2, 32, 60, 106, 69, 162, 92, 153, 3, 0.720426
220, 1, wb, filler, NA, 999, 999, 2, 33, 181, 91, 71, 174, 169, 138, 1, 0.58204
220, 1, wb, filler, NA, 999, 999, 2, 33, 181, 91, 71, 174, 169, 138, 2, 0.37389
220, 1, wb, attraction, a-b-db, 9, 3, 2, 34, 120, 195, 195, 120, 114, 186, 1, 0.548386
220, 1, wb, attraction, a-b-db, 9, 3, 2, 34, 120, 195, 195, 120, 114, 186, 3, 0.437467
220, 1, wb, attraction, a-b-db, 14, 2, 2, 35, 90, 165, 165, 90, 83, 153, 1, 1.13791
220, 1, wb, attraction, a-b-db, 14, 2, 2, 35, 90, 165, 165, 90, 83, 153, 2, 0.426925
220, 1, wb, attraction, a-b-db, 9, 1, 2, 36, 135, 60, 60, 135, 57, 129, 3, 1.51931
220, 1, wb, attraction, a-b-db, 9, 1, 2, 36, 135, 60, 60, 135, 57, 129, 2, 0.297573
220, 1, wb, attraction, a-b-db, 2, 2, 2, 37, 90, 165, 89, 163, 165, 90, 2, 2.08335
220, 1, wb, attraction, a-b-db, 2, 2, 2, 37, 90, 165, 89, 163, 165, 90, 3, 0.318692
220, 1, wb, attraction, a-b-da, 2, 3, 3, 1, 195, 120, 193, 119, 120, 195, 2, 1.06388
220, 1, wb, attraction, a-b-da, 2, 3, 3, 1, 195, 120, 193, 119, 120, 195, 1, 0.484161
220, 1, wb, attraction, a-b-da, 9, 2, 3, 2, 165, 90, 157, 86, 90, 165, 2, 0.598649
220, 1, wb, attraction, a-b-da, 9, 2, 3, 2, 165, 90, 157, 86, 90, 165, 1, 0.613815
220, 1, wb, attraction, a-b-db, 9, 2, 3, 3, 90, 165, 165, 90, 86, 157, 2, 0.554768
220, 1, wb, attraction, a-b-db, 9, 2, 3, 3, 90, 165, 165, 90, 86, 157, 1, 0.411198
220, 1, wb, attraction, a-b-da, 14, 3, 3, 4, 120, 195, 195, 120, 181, 111, 3, 1.5925
220, 1, wb, attraction, a-b-da, 14, 3, 3, 4, 120, 195, 195, 120, 181, 111, 1, 0.327312
220, 1, wb, attraction, a-b-db, 5, 3, 3, 5, 117, 190, 120, 195, 195, 120, 2, 2.37578
220, 1, wb, attraction, a-b-db, 5, 3, 3, 5, 117, 190, 120, 195, 195, 120, 3, 0.68691
220, 1, wb, attraction, a-b-da, 2, 2, 3, 6, 163, 89, 90, 165, 165, 90, 3, 1.12145
220, 1, wb, attraction, a-b-da, 2, 2, 3, 6, 163, 89, 90, 165, 165, 90, 1, 0.643597
220, 1, wb, attraction, a-b-da, 2, 1, 3, 7, 134, 59, 135, 60, 60, 135, 1, 0.919319
220, 1, wb, attraction, a-b-da, 2, 1, 3, 7, 134, 59, 135, 60, 60, 135, 2, 0.657716
220, 1, wb, attraction, a-b-da, 5, 2, 3, 8, 90, 165, 165, 90, 161, 88, 3, 0.636824
220, 1, wb, attraction, a-b-da, 5, 2, 3, 8, 90, 165, 165, 90, 161, 88, 1, 0.322589
220, 1, wb, catch, NA, 999, 999, 3, 9, 171, 144, 70, 125, 93, 162, 2, 0.987857
220, 1, wb, catch, NA, 999, 999, 3, 9, 171, 144, 70, 125, 93, 162, 1, 0.32344
220, 1, wb, filler, NA, 999, 999, 3, 10, 172, 91, 134, 129, 162, 67, 3, 0.667906
220, 1, wb, filler, NA, 999, 999, 3, 10, 172, 91, 134, 129, 162, 67, 2, 0.320285
220, 1, wb, attraction, a-b-db, 2, 2, 3, 11, 165, 90, 90, 165, 89, 163, 1, 0.71349
220, 1, wb, attraction, a-b-db, 2, 2, 3, 11, 165, 90, 90, 165, 89, 163, 2, 0.395931
220, 1, wb, filler, NA, 999, 999, 3, 12, 113, 110, 181, 72, 183, 91, 2, 0.977821
220, 1, wb, filler, NA, 999, 999, 3, 12, 113, 110, 181, 72, 183, 91, 1, 0.321485
220, 1, wb, catch, NA, 999, 999, 3, 13, 91, 104, 164, 91, 183, 132, 1, 1.13874
220, 1, wb, catch, NA, 999, 999, 3, 13, 91, 104, 164, 91, 183, 132, 3, 0.299553
220, 1, wb, attraction, a-b-db, 5, 2, 3, 14, 90, 165, 88, 161, 165, 90, 2, 0.629395
220, 1, wb, attraction, a-b-db, 5, 2, 3, 14, 90, 165, 88, 161, 165, 90, 1, 0.331156
220, 1, wb, filler, NA, 999, 999, 3, 15, 88, 122, 130, 92, 119, 161, 3, 1.09169
220, 1, wb, filler, NA, 999, 999, 3, 15, 88, 122, 130, 92, 119, 161, 1, 0.718669
220, 1, wb, attraction, a-b-db, 9, 3, 3, 16, 114, 186, 195, 120, 120, 195, 2, 0.575691
220, 1, wb, attraction, a-b-db, 9, 3, 3, 16, 114, 186, 195, 120, 120, 195, 1, 0.383484
220, 1, wb, attraction, a-b-db, 14, 1, 3, 17, 56, 125, 60, 135, 135, 60, 3, 0.613999
220, 1, wb, attraction, a-b-db, 14, 1, 3, 17, 56, 125, 60, 135, 135, 60, 2, 0.724584
220, 1, wb, filler, NA, 999, 999, 3, 18, 192, 90, 157, 128, 72, 175, 1, 0.428822
220, 1, wb, filler, NA, 999, 999, 3, 18, 192, 90, 157, 128, 72, 175, 2, 0.282619
220, 1, wb, catch, NA, 999, 999, 3, 19, 63, 132, 104, 151, 150, 165, 1, 2.06917
220, 1, wb, catch, NA, 999, 999, 3, 19, 63, 132, 104, 151, 150, 165, 3, 0.329161
220, 1, wb, attraction, a-b-db, 14, 3, 3, 20, 120, 195, 111, 181, 195, 120, 1, 0.929774
220, 1, wb, attraction, a-b-db, 14, 3, 3, 20, 120, 195, 111, 181, 195, 120, 3, 0.299325
220, 1, wb, filler, NA, 999, 999, 3, 21, 73, 157, 61, 63, 64, 115, 2, 0.861175
220, 1, wb, filler, NA, 999, 999, 3, 21, 73, 157, 61, 63, 64, 115, 1, 0.313705
220, 1, wb, attraction, a-b-db, 9, 1, 3, 22, 60, 135, 135, 60, 57, 129, 2, 0.426796
220, 1, wb, attraction, a-b-db, 9, 1, 3, 22, 60, 135, 135, 60, 57, 129, 1, 0.504625
220, 1, wb, filler, NA, 999, 999, 3, 23, 95, 133, 63, 176, 139, 108, 3, 0.442425
220, 1, wb, filler, NA, 999, 999, 3, 23, 95, 133, 63, 176, 139, 108, 2, 0.327654
220, 1, wb, attraction, a-b-da, 9, 1, 3, 24, 129, 57, 60, 135, 135, 60, 1, 0.616033
220, 1, wb, attraction, a-b-da, 9, 1, 3, 24, 129, 57, 60, 135, 135, 60, 2, 0.44653
220, 1, wb, filler, NA, 999, 999, 3, 25, 114, 171, 64, 70, 68, 140, 2, 0.986286
220, 1, wb, filler, NA, 999, 999, 3, 25, 114, 171, 64, 70, 68, 140, 1, 0.313999
220, 1, wb, attraction, a-b-db, 2, 3, 3, 26, 195, 120, 120, 195, 119, 193, 1, 0.61117
220, 1, wb, attraction, a-b-db, 2, 3, 3, 26, 195, 120, 120, 195, 119, 193, 2, 0.305681
220, 1, wb, attraction, a-b-da, 5, 1, 3, 27, 135, 60, 132, 58, 60, 135, 1, 0.707491
220, 1, wb, attraction, a-b-da, 5, 1, 3, 27, 135, 60, 132, 58, 60, 135, 2, 0.669971
220, 1, wb, attraction, a-b-da, 14, 2, 3, 28, 153, 83, 165, 90, 90, 165, 1, 0.768938
220, 1, wb, attraction, a-b-da, 14, 2, 3, 28, 153, 83, 165, 90, 90, 165, 3, 0.353334
220, 1, wb, attraction, a-b-db, 5, 1, 3, 29, 60, 135, 58, 132, 135, 60, 1, 2.7131
220, 1, wb, attraction, a-b-db, 5, 1, 3, 29, 60, 135, 58, 132, 135, 60, 2, 0.347011
220, 1, wb, filler, NA, 999, 999, 3, 30, 122, 135, 107, 124, 120, 144, 1, 0.474692
220, 1, wb, filler, NA, 999, 999, 3, 30, 122, 135, 107, 124, 120, 144, 2, 0.278564
220, 1, wb, attraction, a-b-db, 14, 2, 3, 31, 165, 90, 90, 165, 83, 153, 1, 0.889178
220, 1, wb, attraction, a-b-db, 14, 2, 3, 31, 165, 90, 90, 165, 83, 153, 2, 0.700097
220, 1, wb, attraction, a-b-db, 2, 1, 3, 32, 60, 135, 135, 60, 59, 134, 1, 0.533965
220, 1, wb, attraction, a-b-db, 2, 1, 3, 32, 60, 135, 135, 60, 59, 134, 2, 0.335716
220, 1, wb, attraction, a-b-da, 14, 1, 3, 33, 125, 56, 135, 60, 60, 135, 1, 0.480161
220, 1, wb, attraction, a-b-da, 14, 1, 3, 33, 125, 56, 135, 60, 60, 135, 3, 0.3413
220, 1, wb, attraction, a-b-da, 5, 3, 3, 34, 195, 120, 190, 117, 120, 195, 3, 0.699832
220, 1, wb, attraction, a-b-da, 5, 3, 3, 34, 195, 120, 190, 117, 120, 195, 1, 0.702933
220, 1, wb, attraction, a-b-da, 9, 3, 3, 35, 186, 114, 195, 120, 120, 195, 2, 0.440604
220, 1, wb, attraction, a-b-da, 9, 3, 3, 35, 186, 114, 195, 120, 120, 195, 3, 0.357856
220, 1, wb, filler, NA, 999, 999, 3, 36, 158, 59, 119, 187, 80, 63, 3, 0.772999
220, 1, wb, filler, NA, 999, 999, 3, 36, 158, 59, 119, 187, 80, 63, 2, 0.260831
220, 1, wb, filler, NA, 999, 999, 3, 37, 62, 82, 147, 104, 89, 87, 1, 0.791855
220, 1, wb, filler, NA, 999, 999, 3, 37, 62, 82, 147, 104, 89, 87, 2, 0.278922
220, 1, wb, attraction, a-b-db, 5, 3, 4, 1, 117, 190, 195, 120, 120, 195, 1, 0.569477
220, 1, wb, attraction, a-b-db, 5, 3, 4, 1, 117, 190, 195, 120, 120, 195, 2, 0.297959
220, 1, wb, attraction, a-b-da, 14, 3, 4, 2, 195, 120, 120, 195, 181, 111, 3, 0.411799
220, 1, wb, attraction, a-b-da, 14, 3, 4, 2, 195, 120, 120, 195, 181, 111, 2, 0.386369
220, 1, wb, attraction, a-b-db, 5, 2, 4, 3, 90, 165, 165, 90, 88, 161, 3, 0.456799
220, 1, wb, attraction, a-b-db, 5, 2, 4, 3, 90, 165, 165, 90, 88, 161, 2, 0.749336
220, 1, wb, attraction, a-b-da, 5, 2, 4, 4, 90, 165, 165, 90, 161, 88, 3, 0.43696
220, 1, wb, attraction, a-b-da, 5, 2, 4, 4, 90, 165, 165, 90, 161, 88, 2, 0.402892
220, 1, wb, attraction, a-b-da, 9, 3, 4, 5, 120, 195, 195, 120, 186, 114, 1, 0.512621
220, 1, wb, attraction, a-b-da, 9, 3, 4, 5, 120, 195, 195, 120, 186, 114, 2, 0.347166
220, 1, wb, attraction, a-b-db, 9, 3, 4, 6, 120, 195, 195, 120, 114, 186, 1, 0.442927
220, 1, wb, attraction, a-b-db, 9, 3, 4, 6, 120, 195, 195, 120, 114, 186, 2, 0.328112
220, 1, wb, filler, NA, 999, 999, 4, 7, 90, 96, 163, 94, 56, 108, 1, 0.48857
220, 1, wb, filler, NA, 999, 999, 4, 7, 90, 96, 163, 94, 56, 108, 2, 0.363729
220, 1, wb, attraction, a-b-da, 2, 3, 4, 8, 193, 119, 195, 120, 120, 195, 1, 0.38713
220, 1, wb, attraction, a-b-da, 2, 3, 4, 8, 193, 119, 195, 120, 120, 195, 2, 0.386854
220, 1, wb, attraction, a-b-da, 9, 2, 4, 9, 165, 90, 157, 86, 90, 165, 3, 0.425257
220, 1, wb, attraction, a-b-da, 9, 2, 4, 9, 165, 90, 157, 86, 90, 165, 2, 0.767051
220, 1, wb, attraction, a-b-db, 5, 1, 4, 10, 60, 135, 135, 60, 58, 132, 3, 0.678124
220, 1, wb, attraction, a-b-db, 5, 1, 4, 10, 60, 135, 135, 60, 58, 132, 2, 0.409896
220, 1, wb, attraction, a-b-db, 9, 2, 4, 11, 86, 157, 165, 90, 90, 165, 1, 1.43102
220, 1, wb, attraction, a-b-db, 9, 2, 4, 11, 86, 157, 165, 90, 90, 165, 2, 0.452598
220, 1, wb, filler, NA, 999, 999, 4, 12, 177, 164, 100, 149, 61, 85, 1, 0.256385
220, 1, wb, filler, NA, 999, 999, 4, 12, 177, 164, 100, 149, 61, 85, 2, 0.357002
220, 1, wb, attraction, a-b-da, 2, 2, 4, 13, 163, 89, 165, 90, 90, 165, 1, 0.719925
220, 1, wb, attraction, a-b-da, 2, 2, 4, 13, 163, 89, 165, 90, 90, 165, 2, 0.621847
220, 1, wb, filler, NA, 999, 999, 4, 14, 169, 128, 80, 191, 147, 121, 2, 0.762946
220, 1, wb, filler, NA, 999, 999, 4, 14, 169, 128, 80, 191, 147, 121, 1, 0.43538
220, 1, wb, catch, NA, 999, 999, 4, 15, 154, 101, 184, 131, 72, 123, 3, 0.679881
220, 1, wb, catch, NA, 999, 999, 4, 15, 154, 101, 184, 131, 72, 123, 2, 0.291671
220, 1, wb, attraction, a-b-db, 9, 1, 4, 16, 60, 135, 135, 60, 57, 129, 3, 1.50942
220, 1, wb, attraction, a-b-db, 9, 1, 4, 16, 60, 135, 135, 60, 57, 129, 2, 0.695541
220, 1, wb, filler, NA, 999, 999, 4, 17, 146, 71, 181, 114, 110, 156, 1, 0.665317
220, 1, wb, filler, NA, 999, 999, 4, 17, 146, 71, 181, 114, 110, 156, 2, 0.317772
220, 1, wb, attraction, a-b-db, 14, 2, 4, 18, 83, 153, 165, 90, 90, 165, 1, 0.842762
220, 1, wb, attraction, a-b-db, 14, 2, 4, 18, 83, 153, 165, 90, 90, 165, 2, 1.18013
220, 1, wb, attraction, a-b-da, 5, 3, 4, 19, 190, 117, 120, 195, 195, 120, 1, 1.2182
220, 1, wb, attraction, a-b-da, 5, 3, 4, 19, 190, 117, 120, 195, 195, 120, 2, 0.4439
220, 1, wb, filler, NA, 999, 999, 4, 20, 96, 110, 161, 179, 114, 71, 3, 1.27637
220, 1, wb, filler, NA, 999, 999, 4, 20, 96, 110, 161, 179, 114, 71, 2, 0.559892
220, 1, wb, catch, NA, 999, 999, 4, 21, 129, 186, 124, 71, 140, 115, 2, 0.823066
220, 1, wb, catch, NA, 999, 999, 4, 21, 129, 186, 124, 71, 140, 115, 1, 0.57257
220, 1, wb, attraction, a-b-da, 2, 1, 4, 22, 60, 135, 135, 60, 134, 59, 2, 0.395724
220, 1, wb, attraction, a-b-da, 2, 1, 4, 22, 60, 135, 135, 60, 134, 59, 1, 0.562901
220, 1, wb, attraction, a-b-db, 2, 3, 4, 23, 119, 193, 195, 120, 120, 195, 2, 0.418063
220, 1, wb, attraction, a-b-db, 2, 3, 4, 23, 119, 193, 195, 120, 120, 195, 1, 0.424575
220, 1, wb, attraction, a-b-db, 2, 1, 4, 24, 60, 135, 135, 60, 59, 134, 2, 1.853
220, 1, wb, attraction, a-b-db, 2, 1, 4, 24, 60, 135, 135, 60, 59, 134, 1, 0.401781
220, 1, wb, attraction, a-b-da, 5, 1, 4, 25, 60, 135, 135, 60, 132, 58, 3, 1.57552
220, 1, wb, attraction, a-b-da, 5, 1, 4, 25, 60, 135, 135, 60, 132, 58, 2, 0.575025
220, 1, wb, attraction, a-b-da, 14, 1, 4, 26, 60, 135, 125, 56, 135, 60, 3, 0.445582
220, 1, wb, attraction, a-b-da, 14, 1, 4, 26, 60, 135, 125, 56, 135, 60, 2, 0.610621
220, 1, wb, catch, NA, 999, 999, 4, 27, 92, 163, 89, 106, 154, 161, 2, 0.911782
220, 1, wb, catch, NA, 999, 999, 4, 27, 92, 163, 89, 106, 154, 161, 3, 0.378139
220, 1, wb, filler, NA, 999, 999, 4, 28, 156, 182, 135, 86, 142, 84, 2, 0.872572
220, 1, wb, filler, NA, 999, 999, 4, 28, 156, 182, 135, 86, 142, 84, 1, 0.348282
220, 1, wb, attraction, a-b-da, 14, 2, 4, 29, 153, 83, 90, 165, 165, 90, 2, 0.476131
220, 1, wb, attraction, a-b-da, 14, 2, 4, 29, 153, 83, 90, 165, 165, 90, 1, 0.336051
220, 1, wb, filler, NA, 999, 999, 4, 30, 149, 109, 132, 158, 108, 99, 3, 0.776421
220, 1, wb, filler, NA, 999, 999, 4, 30, 149, 109, 132, 158, 108, 99, 2, 0.304239
220, 1, wb, attraction, a-b-da, 9, 1, 4, 31, 129, 57, 60, 135, 135, 60, 3, 0.602147
220, 1, wb, attraction, a-b-da, 9, 1, 4, 31, 129, 57, 60, 135, 135, 60, 2, 0.457121
220, 1, wb, attraction, a-b-db, 2, 2, 4, 32, 89, 163, 165, 90, 90, 165, 1, 0.46038
220, 1, wb, attraction, a-b-db, 2, 2, 4, 32, 89, 163, 165, 90, 90, 165, 2, 0.640748
220, 1, wb, filler, NA, 999, 999, 4, 33, 177, 140, 73, 67, 153, 173, 2, 0.708522
220, 1, wb, filler, NA, 999, 999, 4, 33, 177, 140, 73, 67, 153, 173, 3, 0.34294
220, 1, wb, attraction, a-b-db, 14, 1, 4, 34, 56, 125, 135, 60, 60, 135, 1, 0.718893
220, 1, wb, attraction, a-b-db, 14, 1, 4, 34, 56, 125, 135, 60, 60, 135, 2, 0.369235
220, 1, wb, filler, NA, 999, 999, 4, 35, 130, 102, 186, 126, 79, 116, 3, 0.704319
220, 1, wb, filler, NA, 999, 999, 4, 35, 130, 102, 186, 126, 79, 116, 2, 0.531373
220, 1, wb, attraction, a-b-db, 14, 3, 4, 36, 111, 181, 195, 120, 120, 195, 3, 0.467919
220, 1, wb, attraction, a-b-db, 14, 3, 4, 36, 111, 181, 195, 120, 120, 195, 2, 0.472344
220, 1, wb, filler, NA, 999, 999, 4, 37, 190, 195, 176, 59, 135, 175, 2, 0.899531
220, 1, wb, filler, NA, 999, 999, 4, 37, 190, 195, 176, 59, 135, 175, 1, 0.350542
220, 1, wb, filler, NA, 999, 999, 5, 1, 117, 108, 84, 128, 65, 188, 2, 2.4931
220, 1, wb, filler, NA, 999, 999, 5, 1, 117, 108, 84, 128, 65, 188, 3, 0.695575
220, 1, wb, attraction, a-b-da, 14, 2, 5, 2, 153, 83, 90, 165, 165, 90, 2, 1.09715
220, 1, wb, attraction, a-b-da, 14, 2, 5, 2, 153, 83, 90, 165, 165, 90, 3, 0.33229
220, 1, wb, attraction, a-b-da, 5, 1, 5, 3, 132, 58, 135, 60, 60, 135, 1, 1.29261
220, 1, wb, attraction, a-b-da, 5, 1, 5, 3, 132, 58, 135, 60, 60, 135, 2, 0.33565
220, 1, wb, attraction, a-b-da, 14, 1, 5, 4, 60, 135, 125, 56, 135, 60, 1, 0.536008
220, 1, wb, attraction, a-b-da, 14, 1, 5, 4, 60, 135, 125, 56, 135, 60, 2, 0.370028
220, 1, wb, filler, NA, 999, 999, 5, 5, 161, 69, 190, 161, 172, 80, 3, 1.06529
220, 1, wb, filler, NA, 999, 999, 5, 5, 161, 69, 190, 161, 172, 80, 2, 0.309352
220, 1, wb, filler, NA, 999, 999, 5, 6, 126, 76, 132, 93, 138, 95, 1, 1.07849
220, 1, wb, filler, NA, 999, 999, 5, 6, 126, 76, 132, 93, 138, 95, 2, 0.7222
220, 1, wb, attraction, a-b-db, 5, 1, 5, 7, 60, 135, 58, 132, 135, 60, 2, 0.587187
220, 1, wb, attraction, a-b-db, 5, 1, 5, 7, 60, 135, 58, 132, 135, 60, 3, 0.315134
220, 1, wb, catch, NA, 999, 999, 5, 8, 148, 167, 64, 131, 139, 116, 2, 0.504792
220, 1, wb, catch, NA, 999, 999, 5, 8, 148, 167, 64, 131, 139, 116, 3, 0.27872
220, 1, wb, catch, NA, 999, 999, 5, 9, 64, 131, 141, 174, 122, 133, 1, 0.769268
220, 1, wb, catch, NA, 999, 999, 5, 9, 64, 131, 141, 174, 122, 133, 2, 0.281569
220, 1, wb, attraction, a-b-db, 2, 3, 5, 10, 120, 195, 195, 120, 119, 193, 1, 0.436225
220, 1, wb, attraction, a-b-db, 2, 3, 5, 10, 120, 195, 195, 120, 119, 193, 2, 0.361962
220, 1, wb, attraction, a-b-da, 9, 1, 5, 11, 129, 57, 60, 135, 135, 60, 1, 0.44114
220, 1, wb, attraction, a-b-da, 9, 1, 5, 11, 129, 57, 60, 135, 135, 60, 2, 1.35033
220, 1, wb, filler, NA, 999, 999, 5, 12, 72, 100, 62, 150, 181, 83, 1, 1.25375
220, 1, wb, filler, NA, 999, 999, 5, 12, 72, 100, 62, 150, 181, 83, 3, 0.450722
220, 1, wb, attraction, a-b-db, 14, 2, 5, 13, 165, 90, 90, 165, 83, 153, 2, 0.7026
220, 1, wb, attraction, a-b-db, 14, 2, 5, 13, 165, 90, 90, 165, 83, 153, 3, 0.401612
220, 1, wb, attraction, a-b-da, 5, 3, 5, 14, 195, 120, 190, 117, 120, 195, 2, 1.01543
220, 1, wb, attraction, a-b-da, 5, 3, 5, 14, 195, 120, 190, 117, 120, 195, 1, 0.445784
220, 1, wb, attraction, a-b-da, 5, 2, 5, 15, 161, 88, 90, 165, 165, 90, 3, 0.873522
220, 1, wb, attraction, a-b-da, 5, 2, 5, 15, 161, 88, 90, 165, 165, 90, 2, 0.333393
220, 1, wb, filler, NA, 999, 999, 5, 16, 191, 156, 123, 160, 68, 137, 3, 1.02177
220, 1, wb, filler, NA, 999, 999, 5, 16, 191, 156, 123, 160, 68, 137, 1, 0.627417
220, 1, wb, attraction, a-b-db, 5, 2, 5, 17, 90, 165, 165, 90, 88, 161, 3, 0.508823
220, 1, wb, attraction, a-b-db, 5, 2, 5, 17, 90, 165, 165, 90, 88, 161, 2, 0.266483
220, 1, wb, attraction, a-b-db, 5, 3, 5, 18, 120, 195, 117, 190, 195, 120, 2, 0.541443
220, 1, wb, attraction, a-b-db, 5, 3, 5, 18, 120, 195, 117, 190, 195, 120, 3, 0.390582
220, 1, wb, filler, NA, 999, 999, 5, 19, 94, 146, 156, 135, 114, 147, 2, 0.484436
220, 1, wb, filler, NA, 999, 999, 5, 19, 94, 146, 156, 135, 114, 147, 3, 0.344372
220, 1, wb, filler, NA, 999, 999, 5, 20, 194, 64, 94, 138, 160, 143, 1, 0.648166
220, 1, wb, filler, NA, 999, 999, 5, 20, 194, 64, 94, 138, 160, 143, 2, 0.333183
220, 1, wb, attraction, a-b-db, 14, 1, 5, 21, 135, 60, 60, 135, 56, 125, 1, 0.43764
220, 1, wb, attraction, a-b-db, 14, 1, 5, 21, 135, 60, 60, 135, 56, 125, 2, 0.411618
220, 1, wb, filler, NA, 999, 999, 5, 22, 184, 116, 188, 134, 130, 139, 1, 0.336615
220, 1, wb, filler, NA, 999, 999, 5, 22, 184, 116, 188, 134, 130, 139, 2, 0.386747
220, 1, wb, attraction, a-b-db, 14, 3, 5, 23, 111, 181, 120, 195, 195, 120, 3, 0.425132
220, 1, wb, attraction, a-b-db, 14, 3, 5, 23, 111, 181, 120, 195, 195, 120, 2, 0.398956
220, 1, wb, attraction, a-b-db, 9, 3, 5, 24, 120, 195, 114, 186, 195, 120, 3, 0.537688
220, 1, wb, attraction, a-b-db, 9, 3, 5, 24, 120, 195, 114, 186, 195, 120, 2, 0.805875
220, 1, wb, attraction, a-b-da, 9, 2, 5, 25, 165, 90, 157, 86, 90, 165, 1, 0.355478
220, 1, wb, attraction, a-b-da, 9, 2, 5, 25, 165, 90, 157, 86, 90, 165, 2, 0.524035
220, 1, wb, attraction, a-b-da, 9, 3, 5, 26, 120, 195, 195, 120, 186, 114, 3, 0.404496
220, 1, wb, attraction, a-b-da, 9, 3, 5, 26, 120, 195, 195, 120, 186, 114, 2, 0.483751
220, 1, wb, attraction, a-b-db, 2, 1, 5, 27, 135, 60, 59, 134, 60, 135, 1, 0.278087
220, 1, wb, attraction, a-b-db, 2, 1, 5, 27, 135, 60, 59, 134, 60, 135, 2, 0.506016
220, 1, wb, attraction, a-b-da, 2, 3, 5, 28, 193, 119, 195, 120, 120, 195, 1, 0.371799
220, 1, wb, attraction, a-b-da, 2, 3, 5, 28, 193, 119, 195, 120, 120, 195, 2, 0.85162
220, 1, wb, attraction, a-b-db, 2, 2, 5, 29, 165, 90, 90, 165, 89, 163, 1, 0.343316
220, 1, wb, attraction, a-b-db, 2, 2, 5, 29, 165, 90, 90, 165, 89, 163, 2, 0.408557
220, 1, wb, filler, NA, 999, 999, 5, 30, 107, 107, 105, 145, 56, 57, 3, 0.437715
220, 1, wb, filler, NA, 999, 999, 5, 30, 107, 107, 105, 145, 56, 57, 2, 0.387532
220, 1, wb, attraction, a-b-db, 9, 1, 5, 31, 57, 129, 60, 135, 135, 60, 3, 0.68202
220, 1, wb, attraction, a-b-db, 9, 1, 5, 31, 57, 129, 60, 135, 135, 60, 2, 0.797815
220, 1, wb, attraction, a-b-da, 14, 3, 5, 32, 195, 120, 181, 111, 120, 195, 1, 0.427448
220, 1, wb, attraction, a-b-da, 14, 3, 5, 32, 195, 120, 181, 111, 120, 195, 2, 0.537324
220, 1, wb, filler, NA, 999, 999, 5, 33, 186, 69, 158, 176, 75, 96, 3, 1.12173
220, 1, wb, filler, NA, 999, 999, 5, 33, 186, 69, 158, 176, 75, 96, 2, 0.331566
220, 1, wb, attraction, a-b-da, 2, 1, 5, 34, 135, 60, 60, 135, 134, 59, 1, 0.604023
220, 1, wb, attraction, a-b-da, 2, 1, 5, 34, 135, 60, 60, 135, 134, 59, 2, 0.386941
220, 1, wb, attraction, a-b-da, 2, 2, 5, 35, 165, 90, 90, 165, 163, 89, 1, 0.377492
220, 1, wb, attraction, a-b-da, 2, 2, 5, 35, 165, 90, 90, 165, 163, 89, 2, 0.62536
220, 1, wb, catch, NA, 999, 999, 5, 36, 132, 123, 137, 178, 86, 109, 3, 0.893739
220, 1, wb, catch, NA, 999, 999, 5, 36, 132, 123, 137, 178, 86, 109, 2, 0.600808
220, 1, wb, attraction, a-b-db, 9, 2, 5, 37, 86, 157, 165, 90, 90, 165, 1, 1.47857
220, 1, wb, attraction, a-b-db, 9, 2, 5, 37, 86, 157, 165, 90, 90, 165, 2, 0.610029
220, 1, wb, attraction, a-b-da, 9, 3, 6, 1, 120, 195, 195, 120, 186, 114, 1, 0.351095
220, 1, wb, attraction, a-b-da, 9, 3, 6, 1, 120, 195, 195, 120, 186, 114, 2, 0.344401
220, 1, wb, attraction, a-b-da, 14, 3, 6, 2, 195, 120, 120, 195, 181, 111, 1, 0.464258
220, 1, wb, attraction, a-b-da, 14, 3, 6, 2, 195, 120, 120, 195, 181, 111, 2, 0.756698
220, 1, wb, attraction, a-b-db, 5, 2, 6, 3, 88, 161, 90, 165, 165, 90, 1, 0.731734
220, 1, wb, attraction, a-b-db, 5, 2, 6, 3, 88, 161, 90, 165, 165, 90, 2, 0.349401
220, 1, wb, attraction, a-b-db, 5, 3, 6, 4, 117, 190, 195, 120, 120, 195, 1, 0.269295
220, 1, wb, attraction, a-b-db, 5, 3, 6, 4, 117, 190, 195, 120, 120, 195, 2, 0.401843
220, 1, wb, attraction, a-b-da, 14, 1, 6, 5, 135, 60, 60, 135, 125, 56, 1, 0.255633
220, 1, wb, attraction, a-b-da, 14, 1, 6, 5, 135, 60, 60, 135, 125, 56, 2, 0.396163
220, 1, wb, attraction, a-b-da, 5, 3, 6, 6, 195, 120, 190, 117, 120, 195, 1, 0.826162
220, 1, wb, attraction, a-b-da, 5, 3, 6, 6, 195, 120, 190, 117, 120, 195, 2, 0.743778
220, 1, wb, attraction, a-b-da, 2, 2, 6, 7, 165, 90, 163, 89, 90, 165, 1, 0.223405
220, 1, wb, attraction, a-b-da, 2, 2, 6, 7, 165, 90, 163, 89, 90, 165, 2, 0.797327
220, 1, wb, catch, NA, 999, 999, 6, 8, 120, 135, 119, 76, 139, 176, 2, 1.02698
220, 1, wb, catch, NA, 999, 999, 6, 8, 120, 135, 119, 76, 139, 176, 3, 0.472679
220, 1, wb, attraction, a-b-db, 2, 1, 6, 9, 60, 135, 59, 134, 135, 60, 2, 0.443784
220, 1, wb, attraction, a-b-db, 2, 1, 6, 9, 60, 135, 59, 134, 135, 60, 3, 0.537101
220, 1, wb, filler, NA, 999, 999, 6, 10, 156, 70, 93, 121, 133, 86, 2, 0.305412
220, 1, wb, filler, NA, 999, 999, 6, 10, 156, 70, 93, 121, 133, 86, 3, 0.459939
220, 1, wb, attraction, a-b-da, 14, 2, 6, 11, 153, 83, 90, 165, 165, 90, 2, 0.271144
220, 1, wb, attraction, a-b-da, 14, 2, 6, 11, 153, 83, 90, 165, 165, 90, 1, 0.499014
220, 1, wb, attraction, a-b-db, 9, 2, 6, 12, 86, 157, 90, 165, 165, 90, 2, 0.644726
220, 1, wb, attraction, a-b-db, 9, 2, 6, 12, 86, 157, 90, 165, 165, 90, 3, 0.513999
220, 1, wb, filler, NA, 999, 999, 6, 13, 182, 154, 157, 124, 144, 134, 2, 0.434995
220, 1, wb, filler, NA, 999, 999, 6, 13, 182, 154, 157, 124, 144, 134, 1, 0.480971
220, 1, wb, filler, NA, 999, 999, 6, 14, 90, 183, 61, 130, 90, 67, 3, 1.52326
220, 1, wb, filler, NA, 999, 999, 6, 14, 90, 183, 61, 130, 90, 67, 1, 0.356798
220, 1, wb, attraction, a-b-db, 14, 2, 6, 15, 165, 90, 90, 165, 83, 153, 3, 0.587925
220, 1, wb, attraction, a-b-db, 14, 2, 6, 15, 165, 90, 90, 165, 83, 153, 2, 0.459157
220, 1, wb, filler, NA, 999, 999, 6, 16, 134, 107, 152, 132, 124, 161, 3, 0.470185
220, 1, wb, filler, NA, 999, 999, 6, 16, 134, 107, 152, 132, 124, 161, 2, 0.490678
220, 1, wb, attraction, a-b-db, 9, 1, 6, 17, 135, 60, 57, 129, 60, 135, 1, 0.708433
220, 1, wb, attraction, a-b-db, 9, 1, 6, 17, 135, 60, 57, 129, 60, 135, 2, 0.518857
220, 1, wb, attraction, a-b-da, 2, 3, 6, 18, 193, 119, 195, 120, 120, 195, 3, 0.384001
220, 1, wb, attraction, a-b-da, 2, 3, 6, 18, 193, 119, 195, 120, 120, 195, 1, 0.479907
220, 1, wb, attraction, a-b-da, 9, 2, 6, 19, 165, 90, 157, 86, 90, 165, 3, 0.506287
220, 1, wb, attraction, a-b-da, 9, 2, 6, 19, 165, 90, 157, 86, 90, 165, 1, 0.932872
220, 1, wb, attraction, a-b-db, 2, 2, 6, 20, 90, 165, 165, 90, 89, 163, 3, 0.565189
220, 1, wb, attraction, a-b-db, 2, 2, 6, 20, 90, 165, 165, 90, 89, 163, 2, 0.445587
220, 1, wb, filler, NA, 999, 999, 6, 21, 186, 119, 191, 85, 82, 101, 3, 0.441423
220, 1, wb, filler, NA, 999, 999, 6, 21, 186, 119, 191, 85, 82, 101, 1, 0.494691
220, 1, wb, filler, NA, 999, 999, 6, 22, 171, 71, 182, 164, 97, 115, 3, 0.280397
220, 1, wb, filler, NA, 999, 999, 6, 22, 171, 71, 182, 164, 97, 115, 2, 0.572369
220, 1, wb, attraction, a-b-db, 5, 1, 6, 23, 135, 60, 60, 135, 58, 132, 2, 0.563372
220, 1, wb, attraction, a-b-db, 5, 1, 6, 23, 135, 60, 60, 135, 58, 132, 1, 0.35577
220, 1, wb, attraction, a-b-db, 14, 3, 6, 24, 120, 195, 195, 120, 111, 181, 2, 0.483588
220, 1, wb, attraction, a-b-db, 14, 3, 6, 24, 120, 195, 195, 120, 111, 181, 3, 0.407426
220, 1, wb, attraction, a-b-da, 2, 1, 6, 25, 60, 135, 135, 60, 134, 59, 1, 0.900545
220, 1, wb, attraction, a-b-da, 2, 1, 6, 25, 60, 135, 135, 60, 134, 59, 2, 0.703614
220, 1, wb, filler, NA, 999, 999, 6, 26, 169, 112, 184, 87, 140, 192, 1, 0.465367
220, 1, wb, filler, NA, 999, 999, 6, 26, 169, 112, 184, 87, 140, 192, 2, 0.317802
220, 1, wb, attraction, a-b-da, 9, 1, 6, 27, 135, 60, 60, 135, 129, 57, 3, 0.782944
220, 1, wb, attraction, a-b-da, 9, 1, 6, 27, 135, 60, 60, 135, 129, 57, 2, 0.750738
220, 1, wb, catch, NA, 999, 999, 6, 28, 141, 174, 93, 162, 101, 94, 3, 0.542417
220, 1, wb, catch, NA, 999, 999, 6, 28, 141, 174, 93, 162, 101, 94, 1, 0.455527
220, 1, wb, attraction, a-b-da, 5, 1, 6, 29, 60, 135, 132, 58, 135, 60, 3, 0.539356
220, 1, wb, attraction, a-b-da, 5, 1, 6, 29, 60, 135, 132, 58, 135, 60, 1, 0.356452
220, 1, wb, filler, NA, 999, 999, 6, 30, 144, 192, 79, 83, 181, 107, 2, 0.636376
220, 1, wb, filler, NA, 999, 999, 6, 30, 144, 192, 79, 83, 181, 107, 1, 0.322113
220, 1, wb, attraction, a-b-db, 14, 1, 6, 31, 60, 135, 56, 125, 135, 60, 2, 0.45137
220, 1, wb, attraction, a-b-db, 14, 1, 6, 31, 60, 135, 56, 125, 135, 60, 1, 0.344414
220, 1, wb, filler, NA, 999, 999, 6, 32, 174, 126, 88, 188, 136, 60, 3, 0.792328
220, 1, wb, filler, NA, 999, 999, 6, 32, 174, 126, 88, 188, 136, 60, 1, 0.359404
220, 1, wb, attraction, a-b-db, 9, 3, 6, 33, 114, 186, 120, 195, 195, 120, 3, 0.566466
220, 1, wb, attraction, a-b-db, 9, 3, 6, 33, 114, 186, 120, 195, 195, 120, 2, 0.335026
220, 1, wb, attraction, a-b-db, 2, 3, 6, 34, 120, 195, 195, 120, 119, 193, 3, 0.367458
220, 1, wb, attraction, a-b-db, 2, 3, 6, 34, 120, 195, 195, 120, 119, 193, 2, 0.679995
220, 1, wb, attraction, a-b-da, 5, 2, 6, 35, 90, 165, 161, 88, 165, 90, 3, 0.330481
220, 1, wb, attraction, a-b-da, 5, 2, 6, 35, 90, 165, 161, 88, 165, 90, 2, 0.46035
220, 1, wb, filler, NA, 999, 999, 6, 36, 117, 155, 126, 85, 83, 145, 3, 0.407475
220, 1, wb, filler, NA, 999, 999, 6, 36, 117, 155, 126, 85, 83, 145, 2, 0.365977
220, 1, wb, catch, NA, 999, 999, 6, 37, 137, 118, 188, 127, 134, 61, 3, 0.301068
220, 1, wb, catch, NA, 999, 999, 6, 37, 137, 118, 188, 127, 134, 61, 2, 0.552316
220, 1, wb, attraction, a-b-da, 5, 3, 7, 1, 195, 120, 190, 117, 120, 195, 3, 0.328013
220, 1, wb, attraction, a-b-da, 5, 3, 7, 1, 195, 120, 190, 117, 120, 195, 1, 0.497925
220, 1, wb, filler, NA, 999, 999, 7, 2, 149, 97, 114, 114, 106, 187, 2, 0.571888
220, 1, wb, filler, NA, 999, 999, 7, 2, 149, 97, 114, 114, 106, 187, 3, 0.427629
220, 1, wb, attraction, a-b-da, 9, 2, 7, 3, 165, 90, 157, 86, 90, 165, 2, 0.359978
220, 1, wb, attraction, a-b-da, 9, 2, 7, 3, 165, 90, 157, 86, 90, 165, 3, 0.440572
220, 1, wb, attraction, a-b-db, 5, 3, 7, 4, 195, 120, 120, 195, 117, 190, 2, 0.436457
220, 1, wb, attraction, a-b-db, 5, 3, 7, 4, 195, 120, 120, 195, 117, 190, 1, 0.378074
220, 1, wb, attraction, a-b-da, 5, 1, 7, 5, 60, 135, 135, 60, 132, 58, 2, 0.528704
220, 1, wb, attraction, a-b-da, 5, 1, 7, 5, 60, 135, 135, 60, 132, 58, 3, 0.39455
220, 1, wb, attraction, a-b-da, 2, 1, 7, 6, 60, 135, 135, 60, 134, 59, 2, 0.560265
220, 1, wb, attraction, a-b-da, 2, 1, 7, 6, 60, 135, 135, 60, 134, 59, 3, 0.472703
220, 1, wb, filler, NA, 999, 999, 7, 7, 148, 129, 145, 170, 190, 176, 2, 0.27593
220, 1, wb, filler, NA, 999, 999, 7, 7, 148, 129, 145, 170, 190, 176, 3, 0.46513
220, 1, wb, catch, NA, 999, 999, 7, 8, 88, 107, 127, 188, 116, 139, 2, 0.498843
220, 1, wb, catch, NA, 999, 999, 7, 8, 88, 107, 127, 188, 116, 139, 1, 1.22206
220, 1, wb, attraction, a-b-db, 9, 1, 7, 9, 60, 135, 57, 129, 135, 60, 1, 0.866908
220, 1, wb, attraction, a-b-db, 9, 1, 7, 9, 60, 135, 57, 129, 135, 60, 2, 0.527277
220, 1, wb, filler, NA, 999, 999, 7, 10, 182, 182, 163, 187, 120, 189, 1, 0.519665
220, 1, wb, filler, NA, 999, 999, 7, 10, 182, 182, 163, 187, 120, 189, 3, 1.13851
220, 1, wb, attraction, a-b-da, 9, 3, 7, 11, 186, 114, 120, 195, 195, 120, 2, 0.63455
220, 1, wb, attraction, a-b-da, 9, 3, 7, 11, 186, 114, 120, 195, 195, 120, 3, 0.728234
220, 1, wb, attraction, a-b-db, 5, 1, 7, 12, 135, 60, 60, 135, 58, 132, 1, 0.912665
220, 1, wb, attraction, a-b-db, 5, 1, 7, 12, 135, 60, 60, 135, 58, 132, 3, 0.523067
220, 1, wb, attraction, a-b-da, 14, 2, 7, 13, 90, 165, 165, 90, 153, 83, 1, 0.284237
220, 1, wb, attraction, a-b-da, 14, 2, 7, 13, 90, 165, 165, 90, 153, 83, 3, 0.416118
220, 1, wb, attraction, a-b-da, 5, 2, 7, 14, 90, 165, 161, 88, 165, 90, 1, 0.24517
220, 1, wb, attraction, a-b-da, 5, 2, 7, 14, 90, 165, 161, 88, 165, 90, 3, 0.604818
220, 1, wb, attraction, a-b-db, 2, 3, 7, 15, 120, 195, 195, 120, 119, 193, 1, 0.306624
220, 1, wb, attraction, a-b-db, 2, 3, 7, 15, 120, 195, 195, 120, 119, 193, 3, 0.402776
220, 1, wb, attraction, a-b-db, 2, 1, 7, 16, 60, 135, 135, 60, 59, 134, 1, 0.224558
220, 1, wb, attraction, a-b-db, 2, 1, 7, 16, 60, 135, 135, 60, 59, 134, 3, 0.406496
220, 1, wb, catch, NA, 999, 999, 7, 17, 114, 141, 160, 155, 76, 119, 3, 1.14831
220, 1, wb, catch, NA, 999, 999, 7, 17, 114, 141, 160, 155, 76, 119, 2, 0.301143
220, 1, wb, attraction, a-b-da, 9, 1, 7, 18, 135, 60, 60, 135, 129, 57, 3, 0.359006
220, 1, wb, attraction, a-b-da, 9, 1, 7, 18, 135, 60, 60, 135, 129, 57, 2, 0.40749
220, 1, wb, attraction, a-b-db, 14, 1, 7, 19, 56, 125, 135, 60, 60, 135, 3, 0.244597
220, 1, wb, attraction, a-b-db, 14, 1, 7, 19, 56, 125, 135, 60, 60, 135, 2, 0.425934
220, 1, wb, attraction, a-b-db, 5, 2, 7, 20, 88, 161, 165, 90, 90, 165, 3, 0.470404
220, 1, wb, attraction, a-b-db, 5, 2, 7, 20, 88, 161, 165, 90, 90, 165, 1, 0.378966
220, 1, wb, attraction, a-b-da, 2, 2, 7, 21, 163, 89, 165, 90, 90, 165, 3, 0.577304
220, 1, wb, attraction, a-b-da, 2, 2, 7, 21, 163, 89, 165, 90, 90, 165, 2, 0.53719
220, 1, wb, filler, NA, 999, 999, 7, 22, 61, 148, 72, 60, 123, 173, 3, 0.305633
220, 1, wb, filler, NA, 999, 999, 7, 22, 61, 148, 72, 60, 123, 173, 1, 0.636252
220, 1, wb, filler, NA, 999, 999, 7, 23, 71, 195, 112, 100, 126, 115, 2, 0.616518
220, 1, wb, filler, NA, 999, 999, 7, 23, 71, 195, 112, 100, 126, 115, 3, 0.359091
220, 1, wb, attraction, a-b-db, 9, 3, 7, 24, 195, 120, 120, 195, 114, 186, 2, 0.502208
220, 1, wb, attraction, a-b-db, 9, 3, 7, 24, 195, 120, 120, 195, 114, 186, 3, 0.393308
220, 1, wb, filler, NA, 999, 999, 7, 25, 62, 159, 150, 143, 168, 138, 1, 0.511057
220, 1, wb, filler, NA, 999, 999, 7, 25, 62, 159, 150, 143, 168, 138, 2, 0.329523
220, 1, wb, attraction, a-b-db, 2, 2, 7, 26, 90, 165, 89, 163, 165, 90, 3, 1.73812
220, 1, wb, attraction, a-b-db, 2, 2, 7, 26, 90, 165, 89, 163, 165, 90, 1, 0.467663
220, 1, wb, filler, NA, 999, 999, 7, 27, 83, 89, 185, 120, 88, 101, 1, 1.09462
220, 1, wb, filler, NA, 999, 999, 7, 27, 83, 89, 185, 120, 88, 101, 2, 0.385595
220, 1, wb, attraction, a-b-da, 2, 3, 7, 28, 193, 119, 120, 195, 195, 120, 1, 0.43227
220, 1, wb, attraction, a-b-da, 2, 3, 7, 28, 193, 119, 120, 195, 195, 120, 2, 0.566005
220, 1, wb, attraction, a-b-da, 14, 3, 7, 29, 181, 111, 120, 195, 195, 120, 1, 0.557194
220, 1, wb, attraction, a-b-da, 14, 3, 7, 29, 181, 111, 120, 195, 195, 120, 2, 1.0855
220, 1, wb, attraction, a-b-db, 14, 3, 7, 30, 195, 120, 120, 195, 111, 181, 1, 0.423774
220, 1, wb, attraction, a-b-db, 14, 3, 7, 30, 195, 120, 120, 195, 111, 181, 2, 0.373595
220, 1, wb, filler, NA, 999, 999, 7, 31, 103, 178, 72, 175, 129, 71, 3, 0.796113
220, 1, wb, filler, NA, 999, 999, 7, 31, 103, 178, 72, 175, 129, 71, 1, 0.3472
220, 1, wb, attraction, a-b-db, 14, 2, 7, 32, 83, 153, 165, 90, 90, 165, 3, 0.475117
220, 1, wb, attraction, a-b-db, 14, 2, 7, 32, 83, 153, 165, 90, 90, 165, 2, 0.382814
220, 1, wb, filler, NA, 999, 999, 7, 33, 165, 89, 116, 194, 64, 162, 3, 0.765318
220, 1, wb, filler, NA, 999, 999, 7, 33, 165, 89, 116, 194, 64, 162, 2, 0.365655
220, 1, wb, attraction, a-b-da, 14, 1, 7, 34, 135, 60, 125, 56, 60, 135, 3, 0.532941
220, 1, wb, attraction, a-b-da, 14, 1, 7, 34, 135, 60, 125, 56, 60, 135, 1, 0.488954
220, 1, wb, attraction, a-b-db, 9, 2, 7, 35, 86, 157, 165, 90, 90, 165, 3, 0.457176
220, 1, wb, attraction, a-b-db, 9, 2, 7, 35, 86, 157, 165, 90, 90, 165, 2, 0.349804
220, 1, wb, filler, NA, 999, 999, 7, 36, 67, 109, 67, 116, 172, 156, 1, 0.693549
220, 1, wb, filler, NA, 999, 999, 7, 36, 67, 109, 67, 116, 172, 156, 3, 0.320541
220, 1, wb, catch, NA, 999, 999, 7, 37, 117, 138, 188, 127, 91, 104, 3, 0.729835
220, 1, wb, catch, NA, 999, 999, 7, 37, 117, 138, 188, 127, 91, 104, 1, 0.755635
220, 1, wb, attraction, a-b-db, 2, 3, 8, 1, 195, 120, 119, 193, 120, 195, 3, 0.667116
220, 1, wb, attraction, a-b-db, 2, 3, 8, 1, 195, 120, 119, 193, 120, 195, 1, 0.583617
220, 1, wb, attraction, a-b-da, 14, 1, 8, 2, 135, 60, 60, 135, 125, 56, 3, 1.63011
220, 1, wb, attraction, a-b-da, 14, 1, 8, 2, 135, 60, 60, 135, 125, 56, 1, 0.46762
220, 1, wb, filler, NA, 999, 999, 8, 3, 62, 193, 176, 80, 162, 78, 3, 0.534696
220, 1, wb, filler, NA, 999, 999, 8, 3, 62, 193, 176, 80, 162, 78, 1, 1.40045
220, 1, wb, attraction, a-b-db, 9, 3, 8, 4, 120, 195, 195, 120, 114, 186, 3, 0.342056
220, 1, wb, attraction, a-b-db, 9, 3, 8, 4, 120, 195, 195, 120, 114, 186, 1, 0.39121
220, 1, wb, attraction, a-b-da, 9, 1, 8, 5, 129, 57, 60, 135, 135, 60, 3, 0.373079
220, 1, wb, attraction, a-b-da, 9, 1, 8, 5, 129, 57, 60, 135, 135, 60, 1, 0.484908
220, 1, wb, attraction, a-b-da, 5, 2, 8, 6, 165, 90, 90, 165, 161, 88, 3, 0.263365
220, 1, wb, attraction, a-b-da, 5, 2, 8, 6, 165, 90, 90, 165, 161, 88, 1, 0.491932
220, 1, wb, attraction, a-b-db, 5, 1, 8, 7, 135, 60, 60, 135, 58, 132, 3, 0.405577
220, 1, wb, attraction, a-b-db, 5, 1, 8, 7, 135, 60, 60, 135, 58, 132, 1, 1.34821
220, 1, wb, attraction, a-b-db, 14, 2, 8, 8, 165, 90, 83, 153, 90, 165, 3, 0.403659
220, 1, wb, attraction, a-b-db, 14, 2, 8, 8, 165, 90, 83, 153, 90, 165, 1, 0.410835
220, 1, wb, attraction, a-b-da, 5, 1, 8, 9, 135, 60, 60, 135, 132, 58, 3, 0.384081
220, 1, wb, attraction, a-b-da, 5, 1, 8, 9, 135, 60, 60, 135, 132, 58, 1, 0.575797
220, 1, wb, catch, NA, 999, 999, 8, 10, 113, 82, 134, 121, 190, 125, 1, 1.38224
220, 1, wb, catch, NA, 999, 999, 8, 10, 113, 82, 134, 121, 190, 125, 3, 0.413856
220, 1, wb, filler, NA, 999, 999, 8, 11, 60, 187, 109, 129, 165, 154, 1, 1.31497
220, 1, wb, filler, NA, 999, 999, 8, 11, 60, 187, 109, 129, 165, 154, 3, 0.461285
220, 1, wb, filler, NA, 999, 999, 8, 12, 57, 133, 59, 124, 171, 102, 2, 0.720304
220, 1, wb, filler, NA, 999, 999, 8, 12, 57, 133, 59, 124, 171, 102, 3, 0.418693
220, 1, wb, attraction, a-b-da, 14, 2, 8, 13, 90, 165, 153, 83, 165, 90, 2, 0.607843
220, 1, wb, attraction, a-b-da, 14, 2, 8, 13, 90, 165, 153, 83, 165, 90, 1, 0.494335
220, 1, wb, catch, NA, 999, 999, 8, 14, 77, 118, 128, 187, 139, 116, 1, 1.04019
220, 1, wb, catch, NA, 999, 999, 8, 14, 77, 118, 128, 187, 139, 116, 2, 0.357169
220, 1, wb, attraction, a-b-db, 14, 3, 8, 15, 120, 195, 195, 120, 111, 181, 2, 0.708216
220, 1, wb, attraction, a-b-db, 14, 3, 8, 15, 120, 195, 195, 120, 111, 181, 1, 0.3186
220, 1, wb, filler, NA, 999, 999, 8, 16, 136, 120, 97, 113, 162, 194, 2, 0.479866
220, 1, wb, filler, NA, 999, 999, 8, 16, 136, 120, 97, 113, 162, 194, 3, 0.395646
220, 1, wb, attraction, a-b-db, 5, 3, 8, 17, 195, 120, 117, 190, 120, 195, 1, 0.753593
220, 1, wb, attraction, a-b-db, 5, 3, 8, 17, 195, 120, 117, 190, 120, 195, 2, 0.410661
220, 1, wb, filler, NA, 999, 999, 8, 18, 100, 169, 74, 111, 170, 157, 2, 0.647713
220, 1, wb, filler, NA, 999, 999, 8, 18, 100, 169, 74, 111, 170, 157, 3, 0.652796
220, 1, wb, filler, NA, 999, 999, 8, 19, 86, 83, 94, 77, 170, 156, 2, 0.712601
220, 1, wb, filler, NA, 999, 999, 8, 19, 86, 83, 94, 77, 170, 156, 3, 0.387044
220, 1, wb, attraction, a-b-da, 9, 2, 8, 20, 165, 90, 157, 86, 90, 165, 2, 0.481523
220, 1, wb, attraction, a-b-da, 9, 2, 8, 20, 165, 90, 157, 86, 90, 165, 3, 0.405468
220, 1, wb, filler, NA, 999, 999, 8, 21, 186, 144, 140, 170, 69, 109, 3, 0.755087
220, 1, wb, filler, NA, 999, 999, 8, 21, 186, 144, 140, 170, 69, 109, 2, 0.347469
220, 1, wb, attraction, a-b-db, 2, 2, 8, 22, 165, 90, 89, 163, 90, 165, 1, 0.939455
220, 1, wb, attraction, a-b-db, 2, 2, 8, 22, 165, 90, 89, 163, 90, 165, 2, 0.3803
220, 1, wb, filler, NA, 999, 999, 8, 23, 56, 166, 141, 171, 79, 129, 1, 0.658833
220, 1, wb, filler, NA, 999, 999, 8, 23, 56, 166, 141, 171, 79, 129, 2, 0.391336
220, 1, wb, attraction, a-b-db, 9, 1, 8, 24, 135, 60, 57, 129, 60, 135, 3, 0.541036
220, 1, wb, attraction, a-b-db, 9, 1, 8, 24, 135, 60, 57, 129, 60, 135, 2, 0.534271
220, 1, wb, attraction, a-b-da, 2, 3, 8, 25, 120, 195, 195, 120, 193, 119, 3, 0.462821
220, 1, wb, attraction, a-b-da, 2, 3, 8, 25, 120, 195, 195, 120, 193, 119, 2, 0.427156
220, 1, wb, attraction, a-b-da, 9, 3, 8, 26, 195, 120, 120, 195, 186, 114, 3, 0.431639
220, 1, wb, attraction, a-b-da, 9, 3, 8, 26, 195, 120, 120, 195, 186, 114, 2, 0.43754
220, 1, wb, attraction, a-b-db, 2, 1, 8, 27, 59, 134, 135, 60, 60, 135, 1, 0.722082
220, 1, wb, attraction, a-b-db, 2, 1, 8, 27, 59, 134, 135, 60, 60, 135, 2, 0.355671
220, 1, wb, attraction, a-b-da, 14, 3, 8, 28, 195, 120, 120, 195, 181, 111, 3, 1.16352
220, 1, wb, attraction, a-b-da, 14, 3, 8, 28, 195, 120, 120, 195, 181, 111, 2, 0.635733
220, 1, wb, attraction, a-b-db, 14, 1, 8, 29, 56, 125, 60, 135, 135, 60, 1, 0.696148
220, 1, wb, attraction, a-b-db, 14, 1, 8, 29, 56, 125, 60, 135, 135, 60, 3, 0.547298
220, 1, wb, attraction, a-b-db, 5, 2, 8, 30, 165, 90, 88, 161, 90, 165, 2, 0.675071
220, 1, wb, attraction, a-b-db, 5, 2, 8, 30, 165, 90, 88, 161, 90, 165, 1, 0.366808
220, 1, wb, attraction, a-b-da, 2, 1, 8, 31, 134, 59, 60, 135, 135, 60, 2, 1.23798
220, 1, wb, attraction, a-b-da, 2, 1, 8, 31, 134, 59, 60, 135, 135, 60, 3, 0.354889
220, 1, wb, attraction, a-b-da, 2, 2, 8, 32, 90, 165, 163, 89, 165, 90, 2, 0.698686
220, 1, wb, attraction, a-b-da, 2, 2, 8, 32, 90, 165, 163, 89, 165, 90, 1, 0.453782
220, 1, wb, filler, NA, 999, 999, 8, 33, 67, 190, 129, 106, 182, 77, 2, 0.545665
220, 1, wb, filler, NA, 999, 999, 8, 33, 67, 190, 129, 106, 182, 77, 3, 0.394828
220, 1, wb, filler, NA, 999, 999, 8, 34, 118, 143, 100, 140, 190, 103, 2, 0.512539
220, 1, wb, filler, NA, 999, 999, 8, 34, 118, 143, 100, 140, 190, 103, 1, 0.387067
220, 1, wb, attraction, a-b-db, 9, 2, 8, 35, 90, 165, 86, 157, 165, 90, 2, 0.441551
220, 1, wb, attraction, a-b-db, 9, 2, 8, 35, 90, 165, 86, 157, 165, 90, 3, 0.494718
220, 1, wb, attraction, a-b-da, 5, 3, 8, 36, 190, 117, 195, 120, 120, 195, 2, 0.4485
220, 1, wb, attraction, a-b-da, 5, 3, 8, 36, 190, 117, 195, 120, 120, 195, 3, 0.373668
220, 1, wb, catch, NA, 999, 999, 8, 37, 101, 94, 93, 162, 146, 169, 2, 0.412132
220, 1, wb, catch, NA, 999, 999, 8, 37, 101, 94, 93, 162, 146, 169, 1, 0.866769
