sub_n, computer_n, bw_cond, effect, set, distance, diag, block_n, trial_n, h1, w1, h2, w2, h3, w3, choice, rt 
232, 1, wb, practice, NA, 999, 999, 0, 1, 79, 137, 112, 123, 158, 158, 1, 5.41772
232, 1, wb, practice, NA, 999, 999, 0, 1, 79, 137, 112, 123, 158, 158, 3, 3.30166
232, 1, wb, practice, NA, 999, 999, 0, 2, 178, 80, 136, 115, 130, 177, 1, 9.5166
232, 1, wb, practice, NA, 999, 999, 0, 2, 178, 80, 136, 115, 130, 177, 3, 1.70058
232, 1, wb, practice, NA, 999, 999, 0, 3, 187, 132, 167, 105, 136, 103, 3, 3.23135
232, 1, wb, practice, NA, 999, 999, 0, 3, 187, 132, 167, 105, 136, 103, 1, 1.72464
232, 1, wb, attraction, a-b-db, 5, 3, 1, 1, 195, 120, 120, 195, 117, 190, 3, 17.215
232, 1, wb, attraction, a-b-db, 5, 3, 1, 1, 195, 120, 120, 195, 117, 190, 2, 3.26433
232, 1, wb, attraction, a-b-da, 2, 3, 1, 2, 193, 119, 120, 195, 195, 120, 1, 6.21053
232, 1, wb, attraction, a-b-da, 2, 3, 1, 2, 193, 119, 120, 195, 195, 120, 2, 0.895291
232, 1, wb, attraction, a-b-da, 5, 2, 1, 3, 90, 165, 165, 90, 161, 88, 3, 7.85699
232, 1, wb, attraction, a-b-da, 5, 2, 1, 3, 90, 165, 165, 90, 161, 88, 2, 4.61108
232, 1, wb, attraction, a-b-db, 5, 1, 1, 4, 60, 135, 135, 60, 58, 132, 3, 3.91913
232, 1, wb, attraction, a-b-db, 5, 1, 1, 4, 60, 135, 135, 60, 58, 132, 2, 11.4083
232, 1, wb, catch, NA, 999, 999, 1, 5, 152, 103, 63, 132, 179, 136, 2, 1.83469
232, 1, wb, catch, NA, 999, 999, 1, 5, 152, 103, 63, 132, 179, 136, 3, 1.24822
232, 1, wb, attraction, a-b-db, 14, 1, 1, 6, 56, 125, 135, 60, 60, 135, 1, 2.53175
232, 1, wb, attraction, a-b-db, 14, 1, 1, 6, 56, 125, 135, 60, 60, 135, 3, 3.81288
232, 1, wb, catch, NA, 999, 999, 1, 7, 114, 81, 146, 109, 133, 182, 1, 1.86495
232, 1, wb, catch, NA, 999, 999, 1, 7, 114, 81, 146, 109, 133, 182, 3, 1.56499
232, 1, wb, attraction, a-b-db, 14, 3, 1, 8, 111, 181, 120, 195, 195, 120, 1, 1.8678
232, 1, wb, attraction, a-b-db, 14, 3, 1, 8, 111, 181, 120, 195, 195, 120, 2, 8.67192
232, 1, wb, attraction, a-b-db, 9, 1, 1, 9, 57, 129, 135, 60, 60, 135, 1, 2.19247
232, 1, wb, attraction, a-b-db, 9, 1, 1, 9, 57, 129, 135, 60, 60, 135, 2, 0.871098
232, 1, wb, filler, NA, 999, 999, 1, 10, 189, 88, 160, 56, 93, 93, 3, 5.50612
232, 1, wb, filler, NA, 999, 999, 1, 10, 189, 88, 160, 56, 93, 93, 1, 1.04372
232, 1, wb, attraction, a-b-da, 14, 1, 1, 11, 135, 60, 60, 135, 125, 56, 3, 3.80732
232, 1, wb, attraction, a-b-da, 14, 1, 1, 11, 135, 60, 60, 135, 125, 56, 2, 1.38866
232, 1, wb, filler, NA, 999, 999, 1, 12, 131, 152, 148, 135, 142, 60, 3, 1.62684
232, 1, wb, filler, NA, 999, 999, 1, 12, 131, 152, 148, 135, 142, 60, 1, 7.85639
232, 1, wb, filler, NA, 999, 999, 1, 13, 181, 89, 169, 139, 181, 65, 3, 1.97781
232, 1, wb, filler, NA, 999, 999, 1, 13, 181, 89, 169, 139, 181, 65, 2, 0.625186
232, 1, wb, attraction, a-b-da, 14, 2, 1, 14, 165, 90, 153, 83, 90, 165, 2, 2.14959
232, 1, wb, attraction, a-b-da, 14, 2, 1, 14, 165, 90, 153, 83, 90, 165, 3, 3.5823
232, 1, wb, filler, NA, 999, 999, 1, 15, 167, 82, 96, 121, 89, 190, 2, 2.04383
232, 1, wb, filler, NA, 999, 999, 1, 15, 167, 82, 96, 121, 89, 190, 3, 1.56854
232, 1, wb, attraction, a-b-db, 2, 1, 1, 16, 59, 134, 135, 60, 60, 135, 1, 3.79118
232, 1, wb, attraction, a-b-db, 2, 1, 1, 16, 59, 134, 135, 60, 60, 135, 2, 2.06144
232, 1, wb, attraction, a-b-da, 2, 2, 1, 17, 165, 90, 163, 89, 90, 165, 1, 8.05588
232, 1, wb, attraction, a-b-da, 2, 2, 1, 17, 165, 90, 163, 89, 90, 165, 3, 1.98682
232, 1, wb, filler, NA, 999, 999, 1, 18, 134, 156, 58, 125, 104, 56, 3, 1.94462
232, 1, wb, filler, NA, 999, 999, 1, 18, 134, 156, 58, 125, 104, 56, 1, 0.929359
232, 1, wb, attraction, a-b-da, 9, 2, 1, 19, 90, 165, 165, 90, 157, 86, 3, 5.06568
232, 1, wb, attraction, a-b-da, 9, 2, 1, 19, 90, 165, 165, 90, 157, 86, 1, 1.78879
232, 1, wb, attraction, a-b-da, 5, 3, 1, 20, 195, 120, 120, 195, 190, 117, 3, 3.88302
232, 1, wb, attraction, a-b-da, 5, 3, 1, 20, 195, 120, 120, 195, 190, 117, 2, 1.22174
232, 1, wb, attraction, a-b-db, 14, 2, 1, 21, 83, 153, 165, 90, 90, 165, 1, 1.53067
232, 1, wb, attraction, a-b-db, 14, 2, 1, 21, 83, 153, 165, 90, 90, 165, 3, 2.78814
232, 1, wb, attraction, a-b-da, 14, 3, 1, 22, 181, 111, 195, 120, 120, 195, 1, 2.40163
232, 1, wb, attraction, a-b-da, 14, 3, 1, 22, 181, 111, 195, 120, 120, 195, 3, 2.08026
232, 1, wb, attraction, a-b-db, 2, 3, 1, 23, 195, 120, 120, 195, 119, 193, 3, 2.62625
232, 1, wb, attraction, a-b-db, 2, 3, 1, 23, 195, 120, 120, 195, 119, 193, 2, 10.5917
232, 1, wb, attraction, a-b-da, 9, 1, 1, 24, 60, 135, 135, 60, 129, 57, 3, 2.25861
232, 1, wb, attraction, a-b-da, 9, 1, 1, 24, 60, 135, 135, 60, 129, 57, 2, 2.01458
232, 1, wb, attraction, a-b-db, 9, 3, 1, 25, 120, 195, 195, 120, 114, 186, 3, 1.66725
232, 1, wb, attraction, a-b-db, 9, 3, 1, 25, 120, 195, 195, 120, 114, 186, 2, 5.55951
232, 1, wb, filler, NA, 999, 999, 1, 26, 95, 171, 184, 82, 150, 102, 2, 17.181
232, 1, wb, filler, NA, 999, 999, 1, 26, 95, 171, 184, 82, 150, 102, 1, 0.559419
232, 1, wb, attraction, a-b-da, 5, 1, 1, 27, 60, 135, 132, 58, 135, 60, 2, 7.87874
232, 1, wb, attraction, a-b-da, 5, 1, 1, 27, 60, 135, 132, 58, 135, 60, 1, 0.984153
232, 1, wb, filler, NA, 999, 999, 1, 28, 166, 123, 62, 129, 57, 110, 3, 1.47046
232, 1, wb, filler, NA, 999, 999, 1, 28, 166, 123, 62, 129, 57, 110, 1, 0.794727
232, 1, wb, attraction, a-b-db, 9, 2, 1, 29, 86, 157, 90, 165, 165, 90, 1, 3.28838
232, 1, wb, attraction, a-b-db, 9, 2, 1, 29, 86, 157, 90, 165, 165, 90, 2, 11.2992
232, 1, wb, filler, NA, 999, 999, 1, 30, 163, 168, 69, 96, 67, 191, 2, 1.05772
232, 1, wb, filler, NA, 999, 999, 1, 30, 163, 168, 69, 96, 67, 191, 1, 0.725934
232, 1, wb, filler, NA, 999, 999, 1, 31, 103, 149, 114, 122, 82, 85, 3, 0.950426
232, 1, wb, filler, NA, 999, 999, 1, 31, 103, 149, 114, 122, 82, 85, 2, 25.4713
232, 1, wb, catch, NA, 999, 999, 1, 32, 65, 130, 111, 144, 173, 142, 1, 1.10661
232, 1, wb, catch, NA, 999, 999, 1, 32, 65, 130, 111, 144, 173, 142, 3, 0.829008
232, 1, wb, attraction, a-b-da, 2, 1, 1, 33, 135, 60, 134, 59, 60, 135, 3, 5.64936
232, 1, wb, attraction, a-b-da, 2, 1, 1, 33, 135, 60, 134, 59, 60, 135, 2, 2.92493
232, 1, wb, attraction, a-b-da, 9, 3, 1, 34, 186, 114, 195, 120, 120, 195, 1, 2.75654
232, 1, wb, attraction, a-b-da, 9, 3, 1, 34, 186, 114, 195, 120, 120, 195, 3, 1.60435
232, 1, wb, filler, NA, 999, 999, 1, 35, 184, 152, 127, 66, 58, 152, 2, 1.41783
232, 1, wb, filler, NA, 999, 999, 1, 35, 184, 152, 127, 66, 58, 152, 1, 0.824017
232, 1, wb, attraction, a-b-db, 2, 2, 1, 36, 90, 165, 89, 163, 165, 90, 2, 4.25226
232, 1, wb, attraction, a-b-db, 2, 2, 1, 36, 90, 165, 89, 163, 165, 90, 3, 3.05632
232, 1, wb, attraction, a-b-db, 5, 2, 1, 37, 165, 90, 88, 161, 90, 165, 1, 9.64324
232, 1, wb, attraction, a-b-db, 5, 2, 1, 37, 165, 90, 88, 161, 90, 165, 3, 1.06957
232, 1, wb, attraction, a-b-db, 14, 3, 2, 1, 111, 181, 120, 195, 195, 120, 1, 2.12866
232, 1, wb, attraction, a-b-db, 14, 3, 2, 1, 111, 181, 120, 195, 195, 120, 2, 2.90596
232, 1, wb, catch, NA, 999, 999, 2, 2, 92, 103, 137, 178, 133, 122, 1, 1.33881
232, 1, wb, catch, NA, 999, 999, 2, 2, 92, 103, 137, 178, 133, 122, 2, 0.835744
232, 1, wb, attraction, a-b-da, 5, 1, 2, 3, 132, 58, 60, 135, 135, 60, 2, 6.14402
232, 1, wb, attraction, a-b-da, 5, 1, 2, 3, 132, 58, 60, 135, 135, 60, 3, 0.991521
232, 1, wb, attraction, a-b-da, 2, 1, 2, 4, 135, 60, 60, 135, 134, 59, 3, 6.97354
232, 1, wb, attraction, a-b-da, 2, 1, 2, 4, 135, 60, 60, 135, 134, 59, 2, 0.962916
232, 1, wb, attraction, a-b-da, 2, 3, 2, 5, 193, 119, 195, 120, 120, 195, 1, 3.87387
232, 1, wb, attraction, a-b-da, 2, 3, 2, 5, 193, 119, 195, 120, 120, 195, 3, 2.87668
232, 1, wb, attraction, a-b-db, 5, 3, 2, 6, 117, 190, 195, 120, 120, 195, 1, 5.58237
232, 1, wb, attraction, a-b-db, 5, 3, 2, 6, 117, 190, 195, 120, 120, 195, 3, 3.22062
232, 1, wb, attraction, a-b-db, 2, 3, 2, 7, 195, 120, 120, 195, 119, 193, 3, 3.32089
232, 1, wb, attraction, a-b-db, 2, 3, 2, 7, 195, 120, 120, 195, 119, 193, 2, 4.15444
232, 1, wb, attraction, a-b-da, 9, 3, 2, 8, 120, 195, 186, 114, 195, 120, 3, 5.24915
232, 1, wb, attraction, a-b-da, 9, 3, 2, 8, 120, 195, 186, 114, 195, 120, 1, 0.692846
232, 1, wb, attraction, a-b-da, 2, 2, 2, 9, 163, 89, 90, 165, 165, 90, 2, 13.1986
232, 1, wb, attraction, a-b-da, 2, 2, 2, 9, 163, 89, 90, 165, 165, 90, 3, 1.07366
232, 1, wb, attraction, a-b-db, 5, 2, 2, 10, 165, 90, 90, 165, 88, 161, 1, 14.1321
232, 1, wb, attraction, a-b-db, 5, 2, 2, 10, 165, 90, 90, 165, 88, 161, 2, 0.697558
232, 1, wb, filler, NA, 999, 999, 2, 11, 188, 105, 179, 166, 100, 130, 3, 1.14722
232, 1, wb, filler, NA, 999, 999, 2, 11, 188, 105, 179, 166, 100, 130, 2, 1.06022
232, 1, wb, attraction, a-b-da, 5, 2, 2, 12, 165, 90, 161, 88, 90, 165, 3, 4.51913
232, 1, wb, attraction, a-b-da, 5, 2, 2, 12, 165, 90, 161, 88, 90, 165, 2, 4.64834
232, 1, wb, catch, NA, 999, 999, 2, 13, 153, 162, 70, 125, 140, 115, 2, 1.21099
232, 1, wb, catch, NA, 999, 999, 2, 13, 153, 162, 70, 125, 140, 115, 1, 0.697248
232, 1, wb, filler, NA, 999, 999, 2, 14, 98, 59, 62, 59, 142, 144, 2, 2.16296
232, 1, wb, filler, NA, 999, 999, 2, 14, 98, 59, 62, 59, 142, 144, 3, 0.858917
232, 1, wb, attraction, a-b-db, 14, 1, 2, 15, 135, 60, 60, 135, 56, 125, 3, 1.86189
232, 1, wb, attraction, a-b-db, 14, 1, 2, 15, 135, 60, 60, 135, 56, 125, 1, 10.6179
232, 1, wb, attraction, a-b-db, 2, 2, 2, 16, 90, 165, 165, 90, 89, 163, 1, 2.91574
232, 1, wb, attraction, a-b-db, 2, 2, 2, 16, 90, 165, 165, 90, 89, 163, 2, 3.78158
232, 1, wb, attraction, a-b-da, 9, 1, 2, 17, 60, 135, 135, 60, 129, 57, 3, 2.92294
232, 1, wb, attraction, a-b-da, 9, 1, 2, 17, 60, 135, 135, 60, 129, 57, 2, 2.29221
232, 1, wb, attraction, a-b-da, 5, 3, 2, 18, 190, 117, 195, 120, 120, 195, 1, 4.76523
232, 1, wb, attraction, a-b-da, 5, 3, 2, 18, 190, 117, 195, 120, 120, 195, 2, 1.24454
232, 1, wb, filler, NA, 999, 999, 2, 19, 88, 123, 79, 107, 113, 57, 3, 2.39207
232, 1, wb, filler, NA, 999, 999, 2, 19, 88, 123, 79, 107, 113, 57, 1, 0.758586
232, 1, wb, filler, NA, 999, 999, 2, 20, 82, 169, 157, 113, 159, 56, 3, 2.90167
232, 1, wb, filler, NA, 999, 999, 2, 20, 82, 169, 157, 113, 159, 56, 2, 0.631971
232, 1, wb, catch, NA, 999, 999, 2, 21, 126, 69, 163, 152, 131, 124, 1, 1.0524
232, 1, wb, catch, NA, 999, 999, 2, 21, 126, 69, 163, 152, 131, 124, 2, 0.681356
232, 1, wb, filler, NA, 999, 999, 2, 22, 57, 190, 114, 101, 132, 152, 1, 10.5318
232, 1, wb, filler, NA, 999, 999, 2, 22, 57, 190, 114, 101, 132, 152, 3, 0.546554
232, 1, wb, filler, NA, 999, 999, 2, 23, 76, 174, 170, 132, 159, 134, 1, 2.11423
232, 1, wb, filler, NA, 999, 999, 2, 23, 76, 174, 170, 132, 159, 134, 2, 0.732247
232, 1, wb, filler, NA, 999, 999, 2, 24, 92, 92, 190, 109, 134, 59, 3, 5.00463
232, 1, wb, filler, NA, 999, 999, 2, 24, 92, 92, 190, 109, 134, 59, 2, 0.562306
232, 1, wb, attraction, a-b-da, 14, 3, 2, 25, 120, 195, 195, 120, 181, 111, 3, 2.00144
232, 1, wb, attraction, a-b-da, 14, 3, 2, 25, 120, 195, 195, 120, 181, 111, 1, 3.07214
232, 1, wb, attraction, a-b-db, 9, 1, 2, 26, 60, 135, 57, 129, 135, 60, 2, 3.21034
232, 1, wb, attraction, a-b-db, 9, 1, 2, 26, 60, 135, 57, 129, 135, 60, 1, 4.71997
232, 1, wb, attraction, a-b-da, 14, 2, 2, 27, 90, 165, 165, 90, 153, 83, 3, 1.87989
232, 1, wb, attraction, a-b-da, 14, 2, 2, 27, 90, 165, 165, 90, 153, 83, 2, 2.33931
232, 1, wb, attraction, a-b-db, 9, 2, 2, 28, 86, 157, 90, 165, 165, 90, 1, 1.48306
232, 1, wb, attraction, a-b-db, 9, 2, 2, 28, 86, 157, 90, 165, 165, 90, 2, 2.76675
232, 1, wb, attraction, a-b-db, 14, 2, 2, 29, 165, 90, 83, 153, 90, 165, 2, 1.74895
232, 1, wb, attraction, a-b-db, 14, 2, 2, 29, 165, 90, 83, 153, 90, 165, 3, 2.3258
232, 1, wb, filler, NA, 999, 999, 2, 30, 115, 136, 147, 86, 125, 144, 2, 5.14167
232, 1, wb, filler, NA, 999, 999, 2, 30, 115, 136, 147, 86, 125, 144, 3, 1.22153
232, 1, wb, attraction, a-b-da, 9, 2, 2, 31, 90, 165, 157, 86, 165, 90, 2, 3.8023
232, 1, wb, attraction, a-b-da, 9, 2, 2, 31, 90, 165, 157, 86, 165, 90, 1, 0.624449
232, 1, wb, attraction, a-b-da, 14, 1, 2, 32, 60, 135, 125, 56, 135, 60, 2, 1.82079
232, 1, wb, attraction, a-b-da, 14, 1, 2, 32, 60, 135, 125, 56, 135, 60, 1, 0.802769
232, 1, wb, attraction, a-b-db, 9, 3, 2, 33, 120, 195, 195, 120, 114, 186, 3, 1.60863
232, 1, wb, attraction, a-b-db, 9, 3, 2, 33, 120, 195, 195, 120, 114, 186, 1, 5.12675
232, 1, wb, filler, NA, 999, 999, 2, 34, 110, 185, 97, 149, 114, 143, 2, 1.47764
232, 1, wb, filler, NA, 999, 999, 2, 34, 110, 185, 97, 149, 114, 143, 1, 1.70526
232, 1, wb, attraction, a-b-db, 5, 1, 2, 35, 135, 60, 58, 132, 60, 135, 3, 7.58663
232, 1, wb, attraction, a-b-db, 5, 1, 2, 35, 135, 60, 58, 132, 60, 135, 1, 0.512156
232, 1, wb, attraction, a-b-db, 2, 1, 2, 36, 135, 60, 60, 135, 59, 134, 3, 2.70538
232, 1, wb, attraction, a-b-db, 2, 1, 2, 36, 135, 60, 60, 135, 59, 134, 1, 1.25912
232, 1, wb, filler, NA, 999, 999, 2, 37, 71, 104, 155, 153, 156, 84, 1, 1.46192
232, 1, wb, filler, NA, 999, 999, 2, 37, 71, 104, 155, 153, 156, 84, 2, 0.586166
232, 1, wb, filler, NA, 999, 999, 3, 1, 71, 153, 105, 187, 167, 154, 1, 1.38455
232, 1, wb, filler, NA, 999, 999, 3, 1, 71, 153, 105, 187, 167, 154, 3, 6.47212
232, 1, wb, attraction, a-b-da, 5, 3, 3, 2, 120, 195, 195, 120, 190, 117, 3, 6.60147
232, 1, wb, attraction, a-b-da, 5, 3, 3, 2, 120, 195, 195, 120, 190, 117, 1, 1.85468
232, 1, wb, attraction, a-b-db, 9, 3, 3, 3, 120, 195, 195, 120, 114, 186, 3, 1.42598
232, 1, wb, attraction, a-b-db, 9, 3, 3, 3, 120, 195, 195, 120, 114, 186, 1, 0.91149
232, 1, wb, filler, NA, 999, 999, 3, 4, 64, 173, 174, 173, 87, 169, 1, 1.11258
232, 1, wb, filler, NA, 999, 999, 3, 4, 64, 173, 174, 173, 87, 169, 2, 0.699033
232, 1, wb, catch, NA, 999, 999, 3, 5, 191, 124, 159, 96, 81, 114, 3, 1.11654
232, 1, wb, catch, NA, 999, 999, 3, 5, 191, 124, 159, 96, 81, 114, 1, 0.918875
232, 1, wb, attraction, a-b-db, 14, 3, 3, 6, 120, 195, 195, 120, 111, 181, 3, 1.78385
232, 1, wb, attraction, a-b-db, 14, 3, 3, 6, 120, 195, 195, 120, 111, 181, 1, 18.7352
232, 1, wb, attraction, a-b-db, 9, 2, 3, 7, 86, 157, 90, 165, 165, 90, 1, 4.74597
232, 1, wb, attraction, a-b-db, 9, 2, 3, 7, 86, 157, 90, 165, 165, 90, 2, 10.8899
232, 1, wb, catch, NA, 999, 999, 3, 8, 80, 115, 93, 162, 144, 171, 1, 0.825033
232, 1, wb, catch, NA, 999, 999, 3, 8, 80, 115, 93, 162, 144, 171, 3, 0.638774
232, 1, wb, attraction, a-b-db, 9, 1, 3, 9, 135, 60, 57, 129, 60, 135, 1, 2.16309
232, 1, wb, attraction, a-b-db, 9, 1, 3, 9, 135, 60, 57, 129, 60, 135, 3, 1.37913
232, 1, wb, attraction, a-b-da, 9, 1, 3, 10, 129, 57, 135, 60, 60, 135, 1, 2.07322
232, 1, wb, attraction, a-b-da, 9, 1, 3, 10, 129, 57, 135, 60, 60, 135, 3, 0.788647
232, 1, wb, attraction, a-b-da, 2, 1, 3, 11, 135, 60, 60, 135, 134, 59, 1, 2.85099
232, 1, wb, attraction, a-b-da, 2, 1, 3, 11, 135, 60, 60, 135, 134, 59, 2, 1.13551
232, 1, wb, attraction, a-b-db, 2, 1, 3, 12, 135, 60, 60, 135, 59, 134, 3, 6.67965
232, 1, wb, attraction, a-b-db, 2, 1, 3, 12, 135, 60, 60, 135, 59, 134, 2, 2.92156
232, 1, wb, attraction, a-b-da, 14, 3, 3, 13, 195, 120, 181, 111, 120, 195, 2, 3.72192
232, 1, wb, attraction, a-b-da, 14, 3, 3, 13, 195, 120, 181, 111, 120, 195, 3, 0.899386
232, 1, wb, filler, NA, 999, 999, 3, 14, 176, 168, 160, 70, 112, 73, 3, 0.933155
232, 1, wb, filler, NA, 999, 999, 3, 14, 176, 168, 160, 70, 112, 73, 1, 0.806795
232, 1, wb, attraction, a-b-db, 14, 1, 3, 15, 56, 125, 135, 60, 60, 135, 1, 2.87576
232, 1, wb, attraction, a-b-db, 14, 1, 3, 15, 56, 125, 135, 60, 60, 135, 3, 1.33482
232, 1, wb, filler, NA, 999, 999, 3, 16, 99, 57, 132, 63, 103, 157, 1, 1.35897
232, 1, wb, filler, NA, 999, 999, 3, 16, 99, 57, 132, 63, 103, 157, 3, 0.90321
232, 1, wb, attraction, a-b-da, 2, 2, 3, 17, 90, 165, 165, 90, 163, 89, 3, 8.16885
232, 1, wb, attraction, a-b-da, 2, 2, 3, 17, 90, 165, 165, 90, 163, 89, 2, 8.91098
232, 1, wb, catch, NA, 999, 999, 3, 18, 186, 129, 131, 64, 129, 126, 2, 1.48559
232, 1, wb, catch, NA, 999, 999, 3, 18, 186, 129, 131, 64, 129, 126, 1, 0.608883
232, 1, wb, attraction, a-b-db, 2, 2, 3, 19, 89, 163, 165, 90, 90, 165, 1, 3.21418
232, 1, wb, attraction, a-b-db, 2, 2, 3, 19, 89, 163, 165, 90, 90, 165, 2, 4.02772
232, 1, wb, attraction, a-b-db, 5, 2, 3, 20, 88, 161, 165, 90, 90, 165, 1, 1.39918
232, 1, wb, attraction, a-b-db, 5, 2, 3, 20, 88, 161, 165, 90, 90, 165, 2, 0.693861
232, 1, wb, attraction, a-b-db, 2, 3, 3, 21, 120, 195, 119, 193, 195, 120, 3, 4.33567
232, 1, wb, attraction, a-b-db, 2, 3, 3, 21, 120, 195, 119, 193, 195, 120, 2, 6.21626
232, 1, wb, filler, NA, 999, 999, 3, 22, 114, 161, 140, 92, 86, 103, 3, 1.75559
232, 1, wb, filler, NA, 999, 999, 3, 22, 114, 161, 140, 92, 86, 103, 1, 0.683678
232, 1, wb, filler, NA, 999, 999, 3, 23, 97, 115, 64, 186, 116, 78, 3, 7.99017
232, 1, wb, filler, NA, 999, 999, 3, 23, 97, 115, 64, 186, 116, 78, 1, 8.0029
232, 1, wb, attraction, a-b-da, 2, 3, 3, 24, 120, 195, 195, 120, 193, 119, 3, 3.37432
232, 1, wb, attraction, a-b-da, 2, 3, 3, 24, 120, 195, 195, 120, 193, 119, 1, 0.549253
232, 1, wb, filler, NA, 999, 999, 3, 25, 185, 121, 137, 96, 96, 122, 3, 1.74102
232, 1, wb, filler, NA, 999, 999, 3, 25, 185, 121, 137, 96, 96, 122, 1, 0.453846
232, 1, wb, attraction, a-b-da, 5, 1, 3, 26, 132, 58, 60, 135, 135, 60, 1, 2.80955
232, 1, wb, attraction, a-b-da, 5, 1, 3, 26, 132, 58, 60, 135, 135, 60, 2, 1.14338
232, 1, wb, attraction, a-b-db, 5, 3, 3, 27, 120, 195, 117, 190, 195, 120, 3, 2.25487
232, 1, wb, attraction, a-b-db, 5, 3, 3, 27, 120, 195, 117, 190, 195, 120, 1, 1.82687
232, 1, wb, attraction, a-b-db, 14, 2, 3, 28, 90, 165, 165, 90, 83, 153, 3, 1.63901
232, 1, wb, attraction, a-b-db, 14, 2, 3, 28, 90, 165, 165, 90, 83, 153, 2, 2.09174
232, 1, wb, filler, NA, 999, 999, 3, 29, 125, 154, 67, 71, 131, 140, 2, 0.948993
232, 1, wb, filler, NA, 999, 999, 3, 29, 125, 154, 67, 71, 131, 140, 1, 8.81397
232, 1, wb, attraction, a-b-da, 14, 2, 3, 30, 165, 90, 153, 83, 90, 165, 2, 2.25651
232, 1, wb, attraction, a-b-da, 14, 2, 3, 30, 165, 90, 153, 83, 90, 165, 1, 7.72443
232, 1, wb, attraction, a-b-da, 14, 1, 3, 31, 60, 135, 125, 56, 135, 60, 2, 6.59538
232, 1, wb, attraction, a-b-da, 14, 1, 3, 31, 60, 135, 125, 56, 135, 60, 1, 0.7845
232, 1, wb, attraction, a-b-da, 9, 2, 3, 32, 165, 90, 90, 165, 157, 86, 3, 2.06286
232, 1, wb, attraction, a-b-da, 9, 2, 3, 32, 165, 90, 90, 165, 157, 86, 2, 4.55485
232, 1, wb, attraction, a-b-db, 5, 1, 3, 33, 60, 135, 135, 60, 58, 132, 3, 1.78544
232, 1, wb, attraction, a-b-db, 5, 1, 3, 33, 60, 135, 135, 60, 58, 132, 2, 4.37676
232, 1, wb, attraction, a-b-da, 9, 3, 3, 34, 195, 120, 186, 114, 120, 195, 2, 6.72614
232, 1, wb, attraction, a-b-da, 9, 3, 3, 34, 195, 120, 186, 114, 120, 195, 3, 0.533923
232, 1, wb, filler, NA, 999, 999, 3, 35, 88, 115, 114, 177, 117, 128, 1, 1.48636
232, 1, wb, filler, NA, 999, 999, 3, 35, 88, 115, 114, 177, 117, 128, 2, 1.76992
232, 1, wb, filler, NA, 999, 999, 3, 36, 132, 113, 113, 185, 84, 158, 3, 4.77676
232, 1, wb, filler, NA, 999, 999, 3, 36, 132, 113, 113, 185, 84, 158, 2, 5.5911
232, 1, wb, attraction, a-b-da, 5, 2, 3, 37, 90, 165, 165, 90, 161, 88, 3, 5.85994
232, 1, wb, attraction, a-b-da, 5, 2, 3, 37, 90, 165, 165, 90, 161, 88, 1, 3.91078
232, 1, wb, attraction, a-b-da, 5, 3, 4, 1, 190, 117, 120, 195, 195, 120, 1, 3.6549
232, 1, wb, attraction, a-b-da, 5, 3, 4, 1, 190, 117, 120, 195, 195, 120, 2, 0.450993
232, 1, wb, attraction, a-b-db, 2, 1, 4, 2, 135, 60, 60, 135, 59, 134, 3, 5.88687
232, 1, wb, attraction, a-b-db, 2, 1, 4, 2, 135, 60, 60, 135, 59, 134, 2, 10.9449
232, 1, wb, filler, NA, 999, 999, 4, 3, 131, 167, 122, 119, 62, 113, 3, 1.25345
232, 1, wb, filler, NA, 999, 999, 4, 3, 131, 167, 122, 119, 62, 113, 1, 1.50632
232, 1, wb, attraction, a-b-db, 14, 3, 4, 4, 195, 120, 111, 181, 120, 195, 2, 2.28379
232, 1, wb, attraction, a-b-db, 14, 3, 4, 4, 195, 120, 111, 181, 120, 195, 1, 7.87108
232, 1, wb, attraction, a-b-da, 2, 2, 4, 5, 165, 90, 163, 89, 90, 165, 1, 8.21593
232, 1, wb, attraction, a-b-da, 2, 2, 4, 5, 165, 90, 163, 89, 90, 165, 3, 1.77202
232, 1, wb, attraction, a-b-db, 9, 3, 4, 6, 114, 186, 195, 120, 120, 195, 1, 1.20275
232, 1, wb, attraction, a-b-db, 9, 3, 4, 6, 114, 186, 195, 120, 120, 195, 3, 7.00979
232, 1, wb, attraction, a-b-db, 5, 1, 4, 7, 58, 132, 60, 135, 135, 60, 1, 7.58866
232, 1, wb, attraction, a-b-db, 5, 1, 4, 7, 58, 132, 60, 135, 135, 60, 2, 0.618292
232, 1, wb, filler, NA, 999, 999, 4, 8, 111, 178, 181, 69, 84, 117, 3, 1.11156
232, 1, wb, filler, NA, 999, 999, 4, 8, 111, 178, 181, 69, 84, 117, 1, 3.92964
232, 1, wb, filler, NA, 999, 999, 4, 9, 127, 123, 73, 138, 173, 194, 2, 1.33711
232, 1, wb, filler, NA, 999, 999, 4, 9, 127, 123, 73, 138, 173, 194, 3, 0.54688
232, 1, wb, attraction, a-b-da, 2, 1, 4, 10, 135, 60, 60, 135, 134, 59, 3, 5.5785
232, 1, wb, attraction, a-b-da, 2, 1, 4, 10, 135, 60, 60, 135, 134, 59, 2, 0.58458
232, 1, wb, filler, NA, 999, 999, 4, 11, 58, 116, 62, 128, 135, 74, 1, 4.29513
232, 1, wb, filler, NA, 999, 999, 4, 11, 58, 116, 62, 128, 135, 74, 3, 1.38502
232, 1, wb, attraction, a-b-da, 14, 2, 4, 12, 165, 90, 153, 83, 90, 165, 2, 2.57521
232, 1, wb, attraction, a-b-da, 14, 2, 4, 12, 165, 90, 153, 83, 90, 165, 3, 3.51042
232, 1, wb, attraction, a-b-db, 14, 2, 4, 13, 90, 165, 165, 90, 83, 153, 3, 1.82271
232, 1, wb, attraction, a-b-db, 14, 2, 4, 13, 90, 165, 165, 90, 83, 153, 2, 1.61204
232, 1, wb, attraction, a-b-da, 9, 3, 4, 14, 120, 195, 195, 120, 186, 114, 3, 2.18474
232, 1, wb, attraction, a-b-da, 9, 3, 4, 14, 120, 195, 195, 120, 186, 114, 2, 1.19216
232, 1, wb, attraction, a-b-da, 5, 1, 4, 15, 135, 60, 132, 58, 60, 135, 3, 2.91762
232, 1, wb, attraction, a-b-da, 5, 1, 4, 15, 135, 60, 132, 58, 60, 135, 1, 1.11933
232, 1, wb, attraction, a-b-da, 9, 1, 4, 16, 60, 135, 135, 60, 129, 57, 3, 2.04829
232, 1, wb, attraction, a-b-da, 9, 1, 4, 16, 60, 135, 135, 60, 129, 57, 2, 4.12505
232, 1, wb, attraction, a-b-db, 9, 2, 4, 17, 165, 90, 86, 157, 90, 165, 1, 14.0204
232, 1, wb, attraction, a-b-db, 9, 2, 4, 17, 165, 90, 86, 157, 90, 165, 3, 0.646579
232, 1, wb, filler, NA, 999, 999, 4, 18, 97, 194, 67, 79, 123, 61, 2, 1.03424
232, 1, wb, filler, NA, 999, 999, 4, 18, 97, 194, 67, 79, 123, 61, 1, 0.767935
232, 1, wb, catch, NA, 999, 999, 4, 19, 131, 184, 100, 95, 124, 131, 2, 0.958973
232, 1, wb, catch, NA, 999, 999, 4, 19, 131, 184, 100, 95, 124, 131, 1, 0.407338
232, 1, wb, catch, NA, 999, 999, 4, 20, 120, 75, 139, 116, 190, 125, 1, 0.980382
232, 1, wb, catch, NA, 999, 999, 4, 20, 120, 75, 139, 116, 190, 125, 3, 0.70012
232, 1, wb, catch, NA, 999, 999, 4, 21, 122, 133, 77, 118, 129, 186, 2, 1.23782
232, 1, wb, catch, NA, 999, 999, 4, 21, 122, 133, 77, 118, 129, 186, 3, 0.642774
232, 1, wb, filler, NA, 999, 999, 4, 22, 67, 76, 178, 176, 188, 125, 1, 0.766483
232, 1, wb, filler, NA, 999, 999, 4, 22, 67, 76, 178, 176, 188, 125, 2, 0.766909
232, 1, wb, attraction, a-b-db, 5, 3, 4, 23, 117, 190, 120, 195, 195, 120, 1, 10.8221
232, 1, wb, attraction, a-b-db, 5, 3, 4, 23, 117, 190, 120, 195, 195, 120, 2, 1.50522
232, 1, wb, attraction, a-b-db, 5, 2, 4, 24, 90, 165, 165, 90, 88, 161, 2, 7.37864
232, 1, wb, attraction, a-b-db, 5, 2, 4, 24, 90, 165, 165, 90, 88, 161, 1, 0.544274
232, 1, wb, filler, NA, 999, 999, 4, 25, 77, 93, 128, 139, 114, 155, 1, 0.944021
232, 1, wb, filler, NA, 999, 999, 4, 25, 77, 93, 128, 139, 114, 155, 2, 3.71317
232, 1, wb, attraction, a-b-db, 2, 2, 4, 26, 90, 165, 165, 90, 89, 163, 2, 10.8972
232, 1, wb, attraction, a-b-db, 2, 2, 4, 26, 90, 165, 165, 90, 89, 163, 3, 1.76912
232, 1, wb, attraction, a-b-da, 14, 1, 4, 27, 135, 60, 60, 135, 125, 56, 3, 1.61592
232, 1, wb, attraction, a-b-da, 14, 1, 4, 27, 135, 60, 60, 135, 125, 56, 2, 1.17401
232, 1, wb, attraction, a-b-db, 2, 3, 4, 28, 119, 193, 120, 195, 195, 120, 3, 5.0442
232, 1, wb, attraction, a-b-db, 2, 3, 4, 28, 119, 193, 120, 195, 195, 120, 1, 3.21592
232, 1, wb, filler, NA, 999, 999, 4, 29, 145, 106, 136, 109, 84, 186, 3, 12.8762
232, 1, wb, filler, NA, 999, 999, 4, 29, 145, 106, 136, 109, 84, 186, 1, 0.444149
232, 1, wb, attraction, a-b-db, 9, 1, 4, 30, 135, 60, 60, 135, 57, 129, 3, 2.43186
232, 1, wb, attraction, a-b-db, 9, 1, 4, 30, 135, 60, 60, 135, 57, 129, 1, 1.24524
232, 1, wb, attraction, a-b-da, 14, 3, 4, 31, 181, 111, 120, 195, 195, 120, 1, 1.60068
232, 1, wb, attraction, a-b-da, 14, 3, 4, 31, 181, 111, 120, 195, 195, 120, 2, 0.695463
232, 1, wb, attraction, a-b-da, 5, 2, 4, 32, 165, 90, 90, 165, 161, 88, 3, 3.65726
232, 1, wb, attraction, a-b-da, 5, 2, 4, 32, 165, 90, 90, 165, 161, 88, 2, 1.39685
232, 1, wb, attraction, a-b-db, 14, 1, 4, 33, 135, 60, 56, 125, 60, 135, 2, 2.0984
232, 1, wb, attraction, a-b-db, 14, 1, 4, 33, 135, 60, 56, 125, 60, 135, 3, 1.46902
232, 1, wb, attraction, a-b-da, 2, 3, 4, 34, 195, 120, 120, 195, 193, 119, 1, 3.37567
232, 1, wb, attraction, a-b-da, 2, 3, 4, 34, 195, 120, 120, 195, 193, 119, 2, 0.558609
232, 1, wb, attraction, a-b-da, 9, 2, 4, 35, 90, 165, 157, 86, 165, 90, 2, 7.3897
232, 1, wb, attraction, a-b-da, 9, 2, 4, 35, 90, 165, 157, 86, 165, 90, 1, 0.707408
232, 1, wb, filler, NA, 999, 999, 4, 36, 60, 156, 126, 164, 98, 186, 1, 0.996461
232, 1, wb, filler, NA, 999, 999, 4, 36, 60, 156, 126, 164, 98, 186, 2, 5.14749
232, 1, wb, filler, NA, 999, 999, 4, 37, 165, 160, 168, 60, 92, 190, 2, 0.977737
232, 1, wb, filler, NA, 999, 999, 4, 37, 165, 160, 168, 60, 92, 190, 1, 0.921401
232, 1, wb, filler, NA, 999, 999, 5, 1, 103, 140, 141, 175, 153, 159, 1, 2.0963
232, 1, wb, filler, NA, 999, 999, 5, 1, 103, 140, 141, 175, 153, 159, 2, 2.65906
232, 1, wb, attraction, a-b-db, 9, 3, 5, 2, 120, 195, 114, 186, 195, 120, 2, 3.14966
232, 1, wb, attraction, a-b-db, 9, 3, 5, 2, 120, 195, 114, 186, 195, 120, 1, 2.69377
232, 1, wb, filler, NA, 999, 999, 5, 3, 118, 192, 132, 149, 84, 109, 3, 1.05496
232, 1, wb, filler, NA, 999, 999, 5, 3, 118, 192, 132, 149, 84, 109, 1, 0.955199
232, 1, wb, attraction, a-b-db, 14, 3, 5, 4, 111, 181, 120, 195, 195, 120, 1, 2.47496
232, 1, wb, attraction, a-b-db, 14, 3, 5, 4, 111, 181, 120, 195, 195, 120, 2, 9.63
232, 1, wb, filler, NA, 999, 999, 5, 5, 155, 174, 131, 113, 149, 138, 2, 1.15157
232, 1, wb, filler, NA, 999, 999, 5, 5, 155, 174, 131, 113, 149, 138, 1, 0.760574
232, 1, wb, attraction, a-b-da, 2, 2, 5, 6, 90, 165, 165, 90, 163, 89, 3, 5.85557
232, 1, wb, attraction, a-b-da, 2, 2, 5, 6, 90, 165, 165, 90, 163, 89, 1, 0.48246
232, 1, wb, catch, NA, 999, 999, 5, 7, 135, 180, 135, 120, 94, 101, 3, 1.02881
232, 1, wb, catch, NA, 999, 999, 5, 7, 135, 180, 135, 120, 94, 101, 1, 0.666548
232, 1, wb, filler, NA, 999, 999, 5, 8, 188, 140, 82, 79, 108, 60, 2, 1.15755
232, 1, wb, filler, NA, 999, 999, 5, 8, 188, 140, 82, 79, 108, 60, 1, 0.445816
232, 1, wb, filler, NA, 999, 999, 5, 9, 76, 188, 149, 152, 56, 194, 3, 1.46562
232, 1, wb, filler, NA, 999, 999, 5, 9, 76, 188, 149, 152, 56, 194, 2, 0.613804
232, 1, wb, attraction, a-b-db, 5, 3, 5, 10, 120, 195, 195, 120, 117, 190, 3, 6.36316
232, 1, wb, attraction, a-b-db, 5, 3, 5, 10, 120, 195, 195, 120, 117, 190, 1, 2.42554
232, 1, wb, attraction, a-b-da, 2, 3, 5, 11, 195, 120, 120, 195, 193, 119, 3, 5.73347
232, 1, wb, attraction, a-b-da, 2, 3, 5, 11, 195, 120, 120, 195, 193, 119, 2, 0.533565
232, 1, wb, attraction, a-b-da, 5, 3, 5, 12, 190, 117, 195, 120, 120, 195, 1, 1.63811
232, 1, wb, attraction, a-b-da, 5, 3, 5, 12, 190, 117, 195, 120, 120, 195, 3, 0.939623
232, 1, wb, attraction, a-b-da, 9, 2, 5, 13, 165, 90, 90, 165, 157, 86, 3, 2.58788
232, 1, wb, attraction, a-b-da, 9, 2, 5, 13, 165, 90, 90, 165, 157, 86, 2, 12.971
232, 1, wb, attraction, a-b-db, 2, 1, 5, 14, 59, 134, 135, 60, 60, 135, 2, 2.77418
232, 1, wb, attraction, a-b-db, 2, 1, 5, 14, 59, 134, 135, 60, 60, 135, 3, 1.24539
232, 1, wb, attraction, a-b-db, 2, 2, 5, 15, 165, 90, 89, 163, 90, 165, 1, 4.2169
232, 1, wb, attraction, a-b-db, 2, 2, 5, 15, 165, 90, 89, 163, 90, 165, 2, 6.51021
232, 1, wb, attraction, a-b-db, 9, 2, 5, 16, 165, 90, 90, 165, 86, 157, 3, 1.54146
232, 1, wb, attraction, a-b-db, 9, 2, 5, 16, 165, 90, 90, 165, 86, 157, 2, 3.99045
232, 1, wb, catch, NA, 999, 999, 5, 17, 162, 93, 168, 147, 101, 94, 3, 0.963624
232, 1, wb, catch, NA, 999, 999, 5, 17, 162, 93, 168, 147, 101, 94, 2, 0.515983
232, 1, wb, attraction, a-b-db, 5, 1, 5, 18, 135, 60, 58, 132, 60, 135, 1, 10.6851
232, 1, wb, attraction, a-b-db, 5, 1, 5, 18, 135, 60, 58, 132, 60, 135, 3, 1.0137
232, 1, wb, filler, NA, 999, 999, 5, 19, 138, 160, 86, 152, 175, 195, 2, 1.59471
232, 1, wb, filler, NA, 999, 999, 5, 19, 138, 160, 86, 152, 175, 195, 3, 0.569659
232, 1, wb, attraction, a-b-da, 5, 2, 5, 20, 165, 90, 90, 165, 161, 88, 3, 1.42473
232, 1, wb, attraction, a-b-da, 5, 2, 5, 20, 165, 90, 90, 165, 161, 88, 1, 2.75015
232, 1, wb, attraction, a-b-da, 2, 1, 5, 21, 135, 60, 60, 135, 134, 59, 3, 4.46121
232, 1, wb, attraction, a-b-da, 2, 1, 5, 21, 135, 60, 60, 135, 134, 59, 2, 1.02446
232, 1, wb, attraction, a-b-db, 14, 2, 5, 22, 83, 153, 90, 165, 165, 90, 1, 1.6927
232, 1, wb, attraction, a-b-db, 14, 2, 5, 22, 83, 153, 90, 165, 165, 90, 2, 0.95951
232, 1, wb, filler, NA, 999, 999, 5, 23, 97, 134, 168, 66, 103, 178, 2, 10.0465
232, 1, wb, filler, NA, 999, 999, 5, 23, 97, 134, 168, 66, 103, 178, 3, 0.624704
232, 1, wb, attraction, a-b-db, 2, 3, 5, 24, 120, 195, 195, 120, 119, 193, 3, 8.95705
232, 1, wb, attraction, a-b-db, 2, 3, 5, 24, 120, 195, 195, 120, 119, 193, 2, 0.963609
232, 1, wb, catch, NA, 999, 999, 5, 25, 163, 92, 163, 152, 92, 103, 3, 1.08257
232, 1, wb, catch, NA, 999, 999, 5, 25, 163, 92, 163, 152, 92, 103, 2, 0.542399
232, 1, wb, filler, NA, 999, 999, 5, 26, 154, 103, 141, 143, 130, 89, 3, 1.14997
232, 1, wb, filler, NA, 999, 999, 5, 26, 154, 103, 141, 143, 130, 89, 2, 0.678992
232, 1, wb, attraction, a-b-db, 9, 1, 5, 27, 60, 135, 57, 129, 135, 60, 2, 3.29735
232, 1, wb, attraction, a-b-db, 9, 1, 5, 27, 60, 135, 57, 129, 135, 60, 3, 0.659744
232, 1, wb, filler, NA, 999, 999, 5, 28, 99, 151, 162, 87, 128, 178, 1, 1.15063
232, 1, wb, filler, NA, 999, 999, 5, 28, 99, 151, 162, 87, 128, 178, 3, 0.9597
232, 1, wb, attraction, a-b-da, 14, 2, 5, 29, 165, 90, 153, 83, 90, 165, 2, 3.0225
232, 1, wb, attraction, a-b-da, 14, 2, 5, 29, 165, 90, 153, 83, 90, 165, 1, 1.98757
232, 1, wb, attraction, a-b-da, 9, 3, 5, 30, 120, 195, 186, 114, 195, 120, 3, 3.66563
232, 1, wb, attraction, a-b-da, 9, 3, 5, 30, 120, 195, 186, 114, 195, 120, 1, 1.98903
232, 1, wb, attraction, a-b-da, 14, 3, 5, 31, 195, 120, 181, 111, 120, 195, 1, 5.49113
232, 1, wb, attraction, a-b-da, 14, 3, 5, 31, 195, 120, 181, 111, 120, 195, 3, 0.460695
232, 1, wb, attraction, a-b-db, 14, 1, 5, 32, 56, 125, 60, 135, 135, 60, 1, 1.05574
232, 1, wb, attraction, a-b-db, 14, 1, 5, 32, 56, 125, 60, 135, 135, 60, 2, 0.828078
232, 1, wb, filler, NA, 999, 999, 5, 33, 129, 62, 194, 62, 158, 117, 1, 1.22441
232, 1, wb, filler, NA, 999, 999, 5, 33, 129, 62, 194, 62, 158, 117, 3, 2.47812
232, 1, wb, attraction, a-b-db, 5, 2, 5, 34, 90, 165, 165, 90, 88, 161, 3, 6.43191
232, 1, wb, attraction, a-b-db, 5, 2, 5, 34, 90, 165, 165, 90, 88, 161, 2, 0.891915
232, 1, wb, attraction, a-b-da, 14, 1, 5, 35, 60, 135, 135, 60, 125, 56, 1, 5.52541
232, 1, wb, attraction, a-b-da, 14, 1, 5, 35, 60, 135, 135, 60, 125, 56, 2, 0.509675
232, 1, wb, attraction, a-b-da, 5, 1, 5, 36, 60, 135, 135, 60, 132, 58, 1, 1.19893
232, 1, wb, attraction, a-b-da, 5, 1, 5, 36, 60, 135, 135, 60, 132, 58, 2, 0.693855
232, 1, wb, attraction, a-b-da, 9, 1, 5, 37, 135, 60, 60, 135, 129, 57, 3, 2.86352
232, 1, wb, attraction, a-b-da, 9, 1, 5, 37, 135, 60, 60, 135, 129, 57, 2, 0.923281
232, 1, wb, catch, NA, 999, 999, 6, 1, 176, 139, 154, 101, 73, 122, 3, 0.851568
232, 1, wb, catch, NA, 999, 999, 6, 1, 176, 139, 154, 101, 73, 122, 1, 0.896564
232, 1, wb, attraction, a-b-db, 2, 3, 6, 2, 120, 195, 119, 193, 195, 120, 1, 2.85828
232, 1, wb, attraction, a-b-db, 2, 3, 6, 2, 120, 195, 119, 193, 195, 120, 2, 2.07808
232, 1, wb, attraction, a-b-db, 5, 1, 6, 3, 58, 132, 135, 60, 60, 135, 1, 1.22397
232, 1, wb, attraction, a-b-db, 5, 1, 6, 3, 58, 132, 135, 60, 60, 135, 2, 2.14163
232, 1, wb, attraction, a-b-db, 9, 1, 6, 4, 60, 135, 135, 60, 57, 129, 3, 3.41296
232, 1, wb, attraction, a-b-db, 9, 1, 6, 4, 60, 135, 135, 60, 57, 129, 2, 1.89042
232, 1, wb, attraction, a-b-da, 9, 1, 6, 5, 135, 60, 129, 57, 60, 135, 2, 6.30789
232, 1, wb, attraction, a-b-da, 9, 1, 6, 5, 135, 60, 129, 57, 60, 135, 1, 1.3245
232, 1, wb, attraction, a-b-da, 5, 2, 6, 6, 90, 165, 161, 88, 165, 90, 1, 1.30053
232, 1, wb, attraction, a-b-da, 5, 2, 6, 6, 90, 165, 161, 88, 165, 90, 2, 3.08766
232, 1, wb, attraction, a-b-da, 14, 2, 6, 7, 90, 165, 153, 83, 165, 90, 1, 1.07312
232, 1, wb, attraction, a-b-da, 14, 2, 6, 7, 90, 165, 153, 83, 165, 90, 2, 0.732817
232, 1, wb, filler, NA, 999, 999, 6, 8, 115, 151, 172, 158, 81, 110, 3, 1.54129
232, 1, wb, filler, NA, 999, 999, 6, 8, 115, 151, 172, 158, 81, 110, 2, 0.77394
232, 1, wb, attraction, a-b-da, 14, 3, 6, 9, 195, 120, 120, 195, 181, 111, 3, 1.54038
232, 1, wb, attraction, a-b-da, 14, 3, 6, 9, 195, 120, 120, 195, 181, 111, 2, 1.10125
232, 1, wb, attraction, a-b-db, 5, 2, 6, 10, 88, 161, 165, 90, 90, 165, 1, 1.44675
232, 1, wb, attraction, a-b-db, 5, 2, 6, 10, 88, 161, 165, 90, 90, 165, 3, 1.62778
232, 1, wb, filler, NA, 999, 999, 6, 11, 156, 106, 179, 167, 177, 128, 1, 1.02383
232, 1, wb, filler, NA, 999, 999, 6, 11, 156, 106, 179, 167, 177, 128, 2, 0.9574
232, 1, wb, attraction, a-b-da, 2, 1, 6, 12, 135, 60, 60, 135, 134, 59, 3, 1.55636
232, 1, wb, attraction, a-b-da, 2, 1, 6, 12, 135, 60, 60, 135, 134, 59, 2, 2.55655
232, 1, wb, attraction, a-b-db, 14, 2, 6, 13, 90, 165, 83, 153, 165, 90, 2, 2.21172
232, 1, wb, attraction, a-b-db, 14, 2, 6, 13, 90, 165, 83, 153, 165, 90, 3, 0.922201
232, 1, wb, filler, NA, 999, 999, 6, 14, 175, 120, 182, 83, 164, 78, 3, 1.22655
232, 1, wb, filler, NA, 999, 999, 6, 14, 175, 120, 182, 83, 164, 78, 1, 0.528266
232, 1, wb, attraction, a-b-db, 2, 2, 6, 15, 90, 165, 89, 163, 165, 90, 2, 2.06462
232, 1, wb, attraction, a-b-db, 2, 2, 6, 15, 90, 165, 89, 163, 165, 90, 3, 2.53268
232, 1, wb, attraction, a-b-db, 9, 2, 6, 16, 165, 90, 90, 165, 86, 157, 3, 1.39658
232, 1, wb, attraction, a-b-db, 9, 2, 6, 16, 165, 90, 90, 165, 86, 157, 2, 1.88328
232, 1, wb, attraction, a-b-db, 14, 1, 6, 17, 56, 125, 60, 135, 135, 60, 1, 1.33386
232, 1, wb, attraction, a-b-db, 14, 1, 6, 17, 56, 125, 60, 135, 135, 60, 2, 0.80699
232, 1, wb, attraction, a-b-da, 2, 2, 6, 18, 165, 90, 90, 165, 163, 89, 3, 1.628
232, 1, wb, attraction, a-b-da, 2, 2, 6, 18, 165, 90, 90, 165, 163, 89, 2, 1.03335
232, 1, wb, attraction, a-b-db, 2, 1, 6, 19, 59, 134, 135, 60, 60, 135, 1, 1.66983
232, 1, wb, attraction, a-b-db, 2, 1, 6, 19, 59, 134, 135, 60, 60, 135, 2, 1.31388
232, 1, wb, attraction, a-b-da, 9, 2, 6, 20, 165, 90, 157, 86, 90, 165, 2, 6.3147
232, 1, wb, attraction, a-b-da, 9, 2, 6, 20, 165, 90, 157, 86, 90, 165, 3, 0.555345
232, 1, wb, filler, NA, 999, 999, 6, 21, 117, 123, 140, 170, 141, 108, 3, 3.73916
232, 1, wb, filler, NA, 999, 999, 6, 21, 117, 123, 140, 170, 141, 108, 2, 0.483336
232, 1, wb, filler, NA, 999, 999, 6, 22, 187, 96, 78, 124, 133, 144, 2, 1.35762
232, 1, wb, filler, NA, 999, 999, 6, 22, 187, 96, 78, 124, 133, 144, 1, 7.39794
232, 1, wb, filler, NA, 999, 999, 6, 23, 90, 62, 184, 164, 174, 91, 1, 1.04953
232, 1, wb, filler, NA, 999, 999, 6, 23, 90, 62, 184, 164, 174, 91, 2, 0.47849
232, 1, wb, attraction, a-b-da, 14, 1, 6, 24, 135, 60, 125, 56, 60, 135, 2, 1.59303
232, 1, wb, attraction, a-b-da, 14, 1, 6, 24, 135, 60, 125, 56, 60, 135, 1, 1.9517
232, 1, wb, attraction, a-b-db, 9, 3, 6, 25, 114, 186, 195, 120, 120, 195, 1, 1.50324
232, 1, wb, attraction, a-b-db, 9, 3, 6, 25, 114, 186, 195, 120, 120, 195, 2, 0.650002
232, 1, wb, filler, NA, 999, 999, 6, 26, 88, 158, 80, 137, 124, 64, 3, 1.78169
232, 1, wb, filler, NA, 999, 999, 6, 26, 88, 158, 80, 137, 124, 64, 1, 0.757141
232, 1, wb, attraction, a-b-db, 5, 3, 6, 27, 195, 120, 120, 195, 117, 190, 1, 6.26822
232, 1, wb, attraction, a-b-db, 5, 3, 6, 27, 195, 120, 120, 195, 117, 190, 2, 0.950871
232, 1, wb, filler, NA, 999, 999, 6, 28, 178, 140, 163, 152, 106, 143, 3, 0.854527
232, 1, wb, filler, NA, 999, 999, 6, 28, 178, 140, 163, 152, 106, 143, 2, 2.25092
232, 1, wb, attraction, a-b-da, 9, 3, 6, 29, 186, 114, 195, 120, 120, 195, 1, 3.35805
232, 1, wb, attraction, a-b-da, 9, 3, 6, 29, 186, 114, 195, 120, 120, 195, 2, 0.525696
232, 1, wb, filler, NA, 999, 999, 6, 30, 60, 176, 141, 191, 190, 187, 1, 0.982025
232, 1, wb, filler, NA, 999, 999, 6, 30, 60, 176, 141, 191, 190, 187, 3, 1.10972
232, 1, wb, catch, NA, 999, 999, 6, 31, 116, 139, 132, 63, 134, 181, 2, 0.846665
232, 1, wb, catch, NA, 999, 999, 6, 31, 116, 139, 132, 63, 134, 181, 3, 0.619768
232, 1, wb, filler, NA, 999, 999, 6, 32, 91, 181, 154, 136, 178, 58, 3, 3.08881
232, 1, wb, filler, NA, 999, 999, 6, 32, 91, 181, 154, 136, 178, 58, 2, 0.523189
232, 1, wb, attraction, a-b-da, 2, 3, 6, 33, 195, 120, 193, 119, 120, 195, 1, 1.34828
232, 1, wb, attraction, a-b-da, 2, 3, 6, 33, 195, 120, 193, 119, 120, 195, 3, 0.677116
232, 1, wb, attraction, a-b-db, 14, 3, 6, 34, 120, 195, 111, 181, 195, 120, 2, 0.79147
232, 1, wb, attraction, a-b-db, 14, 3, 6, 34, 120, 195, 111, 181, 195, 120, 1, 0.870591
232, 1, wb, catch, NA, 999, 999, 6, 35, 114, 141, 180, 135, 118, 77, 3, 1.01762
232, 1, wb, catch, NA, 999, 999, 6, 35, 114, 141, 180, 135, 118, 77, 2, 0.647934
232, 1, wb, attraction, a-b-da, 5, 3, 6, 36, 195, 120, 120, 195, 190, 117, 3, 1.78776
232, 1, wb, attraction, a-b-da, 5, 3, 6, 36, 195, 120, 120, 195, 190, 117, 2, 0.50707
232, 1, wb, attraction, a-b-da, 5, 1, 6, 37, 60, 135, 132, 58, 135, 60, 1, 1.14816
232, 1, wb, attraction, a-b-da, 5, 1, 6, 37, 60, 135, 132, 58, 135, 60, 3, 0.709196
232, 1, wb, attraction, a-b-db, 14, 2, 7, 1, 83, 153, 90, 165, 165, 90, 1, 2.31018
232, 1, wb, attraction, a-b-db, 14, 2, 7, 1, 83, 153, 90, 165, 165, 90, 2, 0.792108
232, 1, wb, filler, NA, 999, 999, 7, 2, 189, 185, 59, 156, 193, 152, 2, 0.741804
232, 1, wb, filler, NA, 999, 999, 7, 2, 189, 185, 59, 156, 193, 152, 1, 0.782915
232, 1, wb, attraction, a-b-da, 2, 3, 7, 3, 195, 120, 120, 195, 193, 119, 3, 1.54926
232, 1, wb, attraction, a-b-da, 2, 3, 7, 3, 195, 120, 120, 195, 193, 119, 2, 0.606082
232, 1, wb, filler, NA, 999, 999, 7, 4, 160, 110, 181, 151, 119, 65, 3, 0.707812
232, 1, wb, filler, NA, 999, 999, 7, 4, 160, 110, 181, 151, 119, 65, 2, 0.598259
232, 1, wb, attraction, a-b-da, 5, 1, 7, 5, 132, 58, 60, 135, 135, 60, 3, 1.09998
232, 1, wb, attraction, a-b-da, 5, 1, 7, 5, 132, 58, 60, 135, 135, 60, 2, 0.606971
232, 1, wb, attraction, a-b-db, 14, 3, 7, 6, 111, 181, 195, 120, 120, 195, 1, 1.28405
232, 1, wb, attraction, a-b-db, 14, 3, 7, 6, 111, 181, 195, 120, 120, 195, 3, 1.09566
232, 1, wb, attraction, a-b-da, 9, 2, 7, 7, 157, 86, 165, 90, 90, 165, 1, 1.10524
232, 1, wb, attraction, a-b-da, 9, 2, 7, 7, 157, 86, 165, 90, 90, 165, 3, 0.859514
232, 1, wb, filler, NA, 999, 999, 7, 8, 124, 195, 194, 108, 93, 88, 3, 1.29452
232, 1, wb, filler, NA, 999, 999, 7, 8, 124, 195, 194, 108, 93, 88, 1, 0.681477
232, 1, wb, attraction, a-b-da, 5, 2, 7, 9, 161, 88, 90, 165, 165, 90, 1, 0.97173
232, 1, wb, attraction, a-b-da, 5, 2, 7, 9, 161, 88, 90, 165, 165, 90, 2, 0.555512
232, 1, wb, attraction, a-b-da, 14, 1, 7, 10, 135, 60, 60, 135, 125, 56, 3, 0.875288
232, 1, wb, attraction, a-b-da, 14, 1, 7, 10, 135, 60, 60, 135, 125, 56, 2, 1.17501
232, 1, wb, filler, NA, 999, 999, 7, 11, 158, 191, 150, 101, 69, 118, 3, 0.71716
232, 1, wb, filler, NA, 999, 999, 7, 11, 158, 191, 150, 101, 69, 118, 1, 0.69575
232, 1, wb, attraction, a-b-db, 5, 2, 7, 12, 90, 165, 165, 90, 88, 161, 1, 0.881258
232, 1, wb, attraction, a-b-db, 5, 2, 7, 12, 90, 165, 165, 90, 88, 161, 2, 0.636983
232, 1, wb, filler, NA, 999, 999, 7, 13, 95, 87, 87, 88, 187, 126, 1, 1.05736
232, 1, wb, filler, NA, 999, 999, 7, 13, 95, 87, 87, 88, 187, 126, 3, 0.517773
232, 1, wb, attraction, a-b-da, 2, 1, 7, 14, 135, 60, 134, 59, 60, 135, 1, 1.71889
232, 1, wb, attraction, a-b-da, 2, 1, 7, 14, 135, 60, 134, 59, 60, 135, 3, 0.633038
232, 1, wb, attraction, a-b-da, 9, 1, 7, 15, 60, 135, 135, 60, 129, 57, 1, 1.34144
232, 1, wb, attraction, a-b-da, 9, 1, 7, 15, 60, 135, 135, 60, 129, 57, 2, 0.702267
232, 1, wb, attraction, a-b-da, 9, 3, 7, 16, 186, 114, 120, 195, 195, 120, 1, 0.952129
232, 1, wb, attraction, a-b-da, 9, 3, 7, 16, 186, 114, 120, 195, 195, 120, 2, 0.536926
232, 1, wb, attraction, a-b-db, 9, 3, 7, 17, 195, 120, 120, 195, 114, 186, 1, 1.13756
232, 1, wb, attraction, a-b-db, 9, 3, 7, 17, 195, 120, 120, 195, 114, 186, 2, 0.483176
232, 1, wb, catch, NA, 999, 999, 7, 18, 142, 173, 159, 96, 115, 80, 3, 1.24562
232, 1, wb, catch, NA, 999, 999, 7, 18, 142, 173, 159, 96, 115, 80, 1, 0.450461
232, 1, wb, attraction, a-b-db, 5, 1, 7, 19, 135, 60, 58, 132, 60, 135, 1, 0.894261
232, 1, wb, attraction, a-b-db, 5, 1, 7, 19, 135, 60, 58, 132, 60, 135, 2, 0.793329
232, 1, wb, attraction, a-b-db, 9, 2, 7, 20, 90, 165, 165, 90, 86, 157, 3, 2.21498
232, 1, wb, attraction, a-b-db, 9, 2, 7, 20, 90, 165, 165, 90, 86, 157, 1, 1.50104
232, 1, wb, filler, NA, 999, 999, 7, 21, 107, 145, 140, 175, 172, 61, 3, 1.91838
232, 1, wb, filler, NA, 999, 999, 7, 21, 107, 145, 140, 175, 172, 61, 2, 0.600421
232, 1, wb, attraction, a-b-db, 5, 3, 7, 22, 117, 190, 120, 195, 195, 120, 3, 4.82222
232, 1, wb, attraction, a-b-db, 5, 3, 7, 22, 117, 190, 120, 195, 195, 120, 2, 0.834631
232, 1, wb, catch, NA, 999, 999, 7, 23, 154, 101, 72, 123, 131, 184, 2, 0.719037
232, 1, wb, catch, NA, 999, 999, 7, 23, 154, 101, 72, 123, 131, 184, 3, 0.497434
232, 1, wb, attraction, a-b-db, 2, 1, 7, 24, 59, 134, 135, 60, 60, 135, 1, 0.699239
232, 1, wb, attraction, a-b-db, 2, 1, 7, 24, 59, 134, 135, 60, 60, 135, 2, 0.446346
232, 1, wb, filler, NA, 999, 999, 7, 25, 68, 62, 175, 166, 123, 140, 1, 0.882025
232, 1, wb, filler, NA, 999, 999, 7, 25, 68, 62, 175, 166, 123, 140, 2, 0.429739
232, 1, wb, catch, NA, 999, 999, 7, 26, 89, 106, 123, 192, 105, 150, 1, 0.834265
232, 1, wb, catch, NA, 999, 999, 7, 26, 89, 106, 123, 192, 105, 150, 2, 0.615968
232, 1, wb, filler, NA, 999, 999, 7, 27, 115, 189, 127, 56, 70, 72, 3, 0.653083
232, 1, wb, filler, NA, 999, 999, 7, 27, 115, 189, 127, 56, 70, 72, 1, 0.466194
232, 1, wb, attraction, a-b-db, 2, 2, 7, 28, 89, 163, 90, 165, 165, 90, 3, 1.76532
232, 1, wb, attraction, a-b-db, 2, 2, 7, 28, 89, 163, 90, 165, 165, 90, 2, 0.605375
232, 1, wb, attraction, a-b-db, 9, 1, 7, 29, 135, 60, 60, 135, 57, 129, 1, 1.13115
232, 1, wb, attraction, a-b-db, 9, 1, 7, 29, 135, 60, 60, 135, 57, 129, 2, 0.94876
232, 1, wb, attraction, a-b-da, 2, 2, 7, 30, 90, 165, 163, 89, 165, 90, 1, 3.03642
232, 1, wb, attraction, a-b-da, 2, 2, 7, 30, 90, 165, 163, 89, 165, 90, 2, 0.681365
232, 1, wb, filler, NA, 999, 999, 7, 31, 83, 89, 169, 112, 123, 85, 1, 0.675911
232, 1, wb, filler, NA, 999, 999, 7, 31, 83, 89, 169, 112, 123, 85, 2, 0.423495
232, 1, wb, attraction, a-b-da, 14, 3, 7, 32, 195, 120, 120, 195, 181, 111, 3, 0.876074
232, 1, wb, attraction, a-b-da, 14, 3, 7, 32, 195, 120, 120, 195, 181, 111, 2, 0.567711
232, 1, wb, filler, NA, 999, 999, 7, 33, 188, 189, 126, 81, 151, 68, 2, 0.862812
232, 1, wb, filler, NA, 999, 999, 7, 33, 188, 189, 126, 81, 151, 68, 1, 0.355191
232, 1, wb, attraction, a-b-da, 5, 3, 7, 34, 120, 195, 195, 120, 190, 117, 1, 0.795026
232, 1, wb, attraction, a-b-da, 5, 3, 7, 34, 120, 195, 195, 120, 190, 117, 2, 0.458121
232, 1, wb, attraction, a-b-da, 14, 2, 7, 35, 90, 165, 153, 83, 165, 90, 2, 1.22915
232, 1, wb, attraction, a-b-da, 14, 2, 7, 35, 90, 165, 153, 83, 165, 90, 1, 0.434734
232, 1, wb, attraction, a-b-db, 14, 1, 7, 36, 60, 135, 56, 125, 135, 60, 3, 1.51943
232, 1, wb, attraction, a-b-db, 14, 1, 7, 36, 60, 135, 56, 125, 135, 60, 1, 1.78544
232, 1, wb, attraction, a-b-db, 2, 3, 7, 37, 120, 195, 119, 193, 195, 120, 3, 0.983558
232, 1, wb, attraction, a-b-db, 2, 3, 7, 37, 120, 195, 119, 193, 195, 120, 2, 0.775198
232, 1, wb, attraction, a-b-db, 14, 1, 8, 1, 60, 135, 56, 125, 135, 60, 2, 1.55759
232, 1, wb, attraction, a-b-db, 14, 1, 8, 1, 60, 135, 56, 125, 135, 60, 1, 0.501815
232, 1, wb, attraction, a-b-db, 2, 3, 8, 2, 195, 120, 119, 193, 120, 195, 1, 3.57549
232, 1, wb, attraction, a-b-db, 2, 3, 8, 2, 195, 120, 119, 193, 120, 195, 2, 1.0064
232, 1, wb, filler, NA, 999, 999, 8, 3, 195, 166, 76, 75, 71, 119, 2, 0.651992
232, 1, wb, filler, NA, 999, 999, 8, 3, 195, 166, 76, 75, 71, 119, 1, 0.457142
232, 1, wb, attraction, a-b-da, 9, 1, 8, 4, 60, 135, 129, 57, 135, 60, 1, 1.01216
232, 1, wb, attraction, a-b-da, 9, 1, 8, 4, 60, 135, 129, 57, 135, 60, 2, 0.682525
232, 1, wb, attraction, a-b-da, 9, 3, 8, 5, 120, 195, 195, 120, 186, 114, 3, 3.24489
232, 1, wb, attraction, a-b-da, 9, 3, 8, 5, 120, 195, 195, 120, 186, 114, 1, 1.33729
232, 1, wb, filler, NA, 999, 999, 8, 6, 117, 129, 146, 157, 98, 97, 3, 0.601447
232, 1, wb, filler, NA, 999, 999, 8, 6, 117, 129, 146, 157, 98, 97, 2, 0.392705
232, 1, wb, attraction, a-b-db, 9, 3, 8, 7, 195, 120, 120, 195, 114, 186, 3, 1.3504
232, 1, wb, attraction, a-b-db, 9, 3, 8, 7, 195, 120, 120, 195, 114, 186, 2, 0.5033
232, 1, wb, filler, NA, 999, 999, 8, 8, 89, 169, 90, 58, 187, 125, 2, 0.88903
232, 1, wb, filler, NA, 999, 999, 8, 8, 89, 169, 90, 58, 187, 125, 3, 0.404069
232, 1, wb, filler, NA, 999, 999, 8, 9, 176, 89, 99, 56, 74, 67, 3, 1.16187
232, 1, wb, filler, NA, 999, 999, 8, 9, 176, 89, 99, 56, 74, 67, 1, 0.746314
232, 1, wb, attraction, a-b-db, 5, 2, 8, 10, 90, 165, 165, 90, 88, 161, 3, 1.42594
232, 1, wb, attraction, a-b-db, 5, 2, 8, 10, 90, 165, 165, 90, 88, 161, 1, 0.775441
232, 1, wb, attraction, a-b-da, 14, 1, 8, 11, 135, 60, 125, 56, 60, 135, 1, 1.28577
232, 1, wb, attraction, a-b-da, 14, 1, 8, 11, 135, 60, 125, 56, 60, 135, 3, 2.77738
232, 1, wb, filler, NA, 999, 999, 8, 12, 104, 162, 68, 61, 171, 191, 2, 0.751021
232, 1, wb, filler, NA, 999, 999, 8, 12, 104, 162, 68, 61, 171, 191, 3, 0.576209
232, 1, wb, filler, NA, 999, 999, 8, 13, 128, 158, 161, 81, 142, 174, 2, 0.886633
232, 1, wb, filler, NA, 999, 999, 8, 13, 128, 158, 161, 81, 142, 174, 3, 0.466252
232, 1, wb, attraction, a-b-db, 14, 2, 8, 14, 165, 90, 90, 165, 83, 153, 3, 0.933445
232, 1, wb, attraction, a-b-db, 14, 2, 8, 14, 165, 90, 90, 165, 83, 153, 1, 0.51117
232, 1, wb, catch, NA, 999, 999, 8, 15, 131, 124, 131, 64, 142, 173, 2, 0.672216
232, 1, wb, catch, NA, 999, 999, 8, 15, 131, 124, 131, 64, 142, 173, 3, 0.404027
232, 1, wb, filler, NA, 999, 999, 8, 16, 167, 193, 183, 173, 94, 167, 3, 0.89768
232, 1, wb, filler, NA, 999, 999, 8, 16, 167, 193, 183, 173, 94, 167, 2, 0.604834
232, 1, wb, attraction, a-b-da, 2, 3, 8, 17, 195, 120, 120, 195, 193, 119, 3, 2.0666
232, 1, wb, attraction, a-b-da, 2, 3, 8, 17, 195, 120, 120, 195, 193, 119, 2, 0.446691
232, 1, wb, attraction, a-b-da, 5, 3, 8, 18, 190, 117, 120, 195, 195, 120, 3, 0.826316
232, 1, wb, attraction, a-b-da, 5, 3, 8, 18, 190, 117, 120, 195, 195, 120, 2, 0.408045
232, 1, wb, attraction, a-b-da, 9, 2, 8, 19, 90, 165, 157, 86, 165, 90, 3, 1.28528
232, 1, wb, attraction, a-b-da, 9, 2, 8, 19, 90, 165, 157, 86, 165, 90, 1, 0.840711
232, 1, wb, attraction, a-b-db, 14, 3, 8, 20, 195, 120, 120, 195, 111, 181, 3, 1.14039
232, 1, wb, attraction, a-b-db, 14, 3, 8, 20, 195, 120, 120, 195, 111, 181, 1, 0.861343
232, 1, wb, attraction, a-b-da, 5, 2, 8, 21, 165, 90, 90, 165, 161, 88, 3, 0.720586
232, 1, wb, attraction, a-b-da, 5, 2, 8, 21, 165, 90, 90, 165, 161, 88, 2, 0.498907
232, 1, wb, attraction, a-b-db, 9, 1, 8, 22, 135, 60, 60, 135, 57, 129, 3, 0.668548
232, 1, wb, attraction, a-b-db, 9, 1, 8, 22, 135, 60, 60, 135, 57, 129, 2, 0.521017
232, 1, wb, attraction, a-b-da, 14, 3, 8, 23, 195, 120, 120, 195, 181, 111, 3, 0.746119
232, 1, wb, attraction, a-b-da, 14, 3, 8, 23, 195, 120, 120, 195, 181, 111, 2, 0.851247
232, 1, wb, attraction, a-b-db, 9, 2, 8, 24, 86, 157, 90, 165, 165, 90, 1, 1.00706
232, 1, wb, attraction, a-b-db, 9, 2, 8, 24, 86, 157, 90, 165, 165, 90, 2, 0.533219
232, 1, wb, filler, NA, 999, 999, 8, 25, 166, 177, 83, 147, 161, 125, 2, 0.74166
232, 1, wb, filler, NA, 999, 999, 8, 25, 166, 177, 83, 147, 161, 125, 1, 0.454743
232, 1, wb, catch, NA, 999, 999, 8, 26, 122, 73, 184, 131, 113, 142, 1, 1.15445
232, 1, wb, catch, NA, 999, 999, 8, 26, 122, 73, 184, 131, 113, 142, 2, 0.627446
232, 1, wb, filler, NA, 999, 999, 8, 27, 105, 107, 93, 66, 105, 172, 2, 0.863862
232, 1, wb, filler, NA, 999, 999, 8, 27, 105, 107, 93, 66, 105, 172, 3, 0.540431
232, 1, wb, attraction, a-b-da, 2, 2, 8, 28, 90, 165, 163, 89, 165, 90, 2, 0.884054
232, 1, wb, attraction, a-b-da, 2, 2, 8, 28, 90, 165, 163, 89, 165, 90, 1, 0.41568
232, 1, wb, attraction, a-b-da, 14, 2, 8, 29, 90, 165, 165, 90, 153, 83, 2, 0.71696
232, 1, wb, attraction, a-b-da, 14, 2, 8, 29, 90, 165, 165, 90, 153, 83, 1, 0.431275
232, 1, wb, attraction, a-b-da, 5, 1, 8, 30, 132, 58, 60, 135, 135, 60, 2, 0.763726
232, 1, wb, attraction, a-b-da, 5, 1, 8, 30, 132, 58, 60, 135, 135, 60, 1, 0.548155
232, 1, wb, attraction, a-b-da, 2, 1, 8, 31, 134, 59, 60, 135, 135, 60, 2, 0.643896
232, 1, wb, attraction, a-b-da, 2, 1, 8, 31, 134, 59, 60, 135, 135, 60, 3, 0.63316
232, 1, wb, filler, NA, 999, 999, 8, 32, 136, 159, 68, 155, 153, 69, 2, 0.645476
232, 1, wb, filler, NA, 999, 999, 8, 32, 136, 159, 68, 155, 153, 69, 1, 0.402621
232, 1, wb, attraction, a-b-db, 5, 3, 8, 33, 120, 195, 195, 120, 117, 190, 3, 1.12838
232, 1, wb, attraction, a-b-db, 5, 3, 8, 33, 120, 195, 195, 120, 117, 190, 2, 0.506104
232, 1, wb, attraction, a-b-db, 5, 1, 8, 34, 135, 60, 58, 132, 60, 135, 3, 0.571811
232, 1, wb, attraction, a-b-db, 5, 1, 8, 34, 135, 60, 58, 132, 60, 135, 1, 0.627613
232, 1, wb, attraction, a-b-db, 2, 2, 8, 35, 89, 163, 90, 165, 165, 90, 1, 1.51193
232, 1, wb, attraction, a-b-db, 2, 2, 8, 35, 89, 163, 90, 165, 165, 90, 2, 0.44215
232, 1, wb, catch, NA, 999, 999, 8, 36, 145, 110, 187, 128, 72, 123, 3, 0.806082
232, 1, wb, catch, NA, 999, 999, 8, 36, 145, 110, 187, 128, 72, 123, 2, 0.564347
232, 1, wb, attraction, a-b-db, 2, 1, 8, 37, 135, 60, 59, 134, 60, 135, 2, 0.859478
232, 1, wb, attraction, a-b-db, 2, 1, 8, 37, 135, 60, 59, 134, 60, 135, 3, 0.719981
