sub_n, computer_n, bw_cond, effect, set, distance, diag, block_n, trial_n, h1, w1, h2, w2, h3, w3, choice, rt 
260, 1, wb, practice, NA, 999, 999, 0, 1, 145, 64, 76, 145, 188, 84, 2, 4.12044
260, 1, wb, practice, NA, 999, 999, 0, 1, 145, 64, 76, 145, 188, 84, 3, 2.25763
260, 1, wb, practice, NA, 999, 999, 0, 2, 162, 193, 98, 77, 155, 186, 2, 4.5541
260, 1, wb, practice, NA, 999, 999, 0, 2, 162, 193, 98, 77, 155, 186, 1, 2.3768
260, 1, wb, practice, NA, 999, 999, 0, 3, 180, 192, 160, 170, 62, 96, 3, 2.43729
260, 1, wb, practice, NA, 999, 999, 0, 3, 180, 192, 160, 170, 62, 96, 1, 3.05625
260, 1, wb, filler, NA, 999, 999, 1, 1, 174, 150, 96, 158, 125, 136, 3, 5.53587
260, 1, wb, filler, NA, 999, 999, 1, 1, 174, 150, 96, 158, 125, 136, 1, 1.61601
260, 1, wb, filler, NA, 999, 999, 1, 2, 81, 145, 188, 130, 77, 102, 3, 1.74073
260, 1, wb, filler, NA, 999, 999, 1, 2, 81, 145, 188, 130, 77, 102, 2, 1.38158
260, 1, wb, catch, NA, 999, 999, 1, 3, 168, 147, 103, 152, 90, 105, 3, 2.21972
260, 1, wb, catch, NA, 999, 999, 1, 3, 168, 147, 103, 152, 90, 105, 1, 1.0737
260, 1, wb, catch, NA, 999, 999, 1, 4, 138, 177, 144, 111, 73, 122, 3, 1.93193
260, 1, wb, catch, NA, 999, 999, 1, 4, 138, 177, 144, 111, 73, 122, 1, 0.573337
260, 1, wb, attraction, a-b-da, 5, 1, 1, 5, 132, 58, 135, 60, 60, 135, 3, 9.37231
260, 1, wb, attraction, a-b-da, 5, 1, 1, 5, 132, 58, 135, 60, 60, 135, 2, 6.30545
260, 1, wb, attraction, a-b-db, 9, 3, 1, 6, 195, 120, 120, 195, 114, 186, 3, 5.84146
260, 1, wb, attraction, a-b-db, 9, 3, 1, 6, 195, 120, 120, 195, 114, 186, 1, 3.95698
260, 1, wb, attraction, a-b-db, 2, 2, 1, 7, 165, 90, 90, 165, 89, 163, 3, 6.61173
260, 1, wb, attraction, a-b-db, 2, 2, 1, 7, 165, 90, 90, 165, 89, 163, 1, 1.4722
260, 1, wb, attraction, a-b-db, 9, 1, 1, 8, 135, 60, 57, 129, 60, 135, 2, 7.76301
260, 1, wb, attraction, a-b-db, 9, 1, 1, 8, 135, 60, 57, 129, 60, 135, 1, 2.61727
260, 1, wb, attraction, a-b-da, 9, 3, 1, 9, 186, 114, 120, 195, 195, 120, 1, 11.4536
260, 1, wb, attraction, a-b-da, 9, 3, 1, 9, 186, 114, 120, 195, 195, 120, 2, 3.1035
260, 1, wb, filler, NA, 999, 999, 1, 10, 143, 129, 129, 102, 125, 182, 2, 6.80048
260, 1, wb, filler, NA, 999, 999, 1, 10, 143, 129, 129, 102, 125, 182, 3, 19.8856
260, 1, wb, attraction, a-b-db, 9, 2, 1, 11, 90, 165, 165, 90, 86, 157, 3, 3.93801
260, 1, wb, attraction, a-b-db, 9, 2, 1, 11, 90, 165, 165, 90, 86, 157, 2, 1.56283
260, 1, wb, filler, NA, 999, 999, 1, 12, 116, 106, 95, 138, 142, 86, 1, 1.12159
260, 1, wb, filler, NA, 999, 999, 1, 12, 116, 106, 95, 138, 142, 86, 3, 2.01908
260, 1, wb, filler, NA, 999, 999, 1, 13, 87, 162, 150, 115, 86, 136, 3, 2.86378
260, 1, wb, filler, NA, 999, 999, 1, 13, 87, 162, 150, 115, 86, 136, 2, 0.635579
260, 1, wb, catch, NA, 999, 999, 1, 14, 123, 72, 180, 135, 130, 125, 1, 0.791997
260, 1, wb, catch, NA, 999, 999, 1, 14, 123, 72, 180, 135, 130, 125, 2, 0.81493
260, 1, wb, attraction, a-b-db, 5, 1, 1, 15, 60, 135, 135, 60, 58, 132, 3, 2.508
260, 1, wb, attraction, a-b-db, 5, 1, 1, 15, 60, 135, 135, 60, 58, 132, 2, 0.59793
260, 1, wb, filler, NA, 999, 999, 1, 16, 65, 185, 67, 137, 65, 67, 3, 0.979666
260, 1, wb, filler, NA, 999, 999, 1, 16, 65, 185, 67, 137, 65, 67, 1, 0.411213
260, 1, wb, attraction, a-b-db, 14, 3, 1, 17, 111, 181, 120, 195, 195, 120, 1, 3.31245
260, 1, wb, attraction, a-b-db, 14, 3, 1, 17, 111, 181, 120, 195, 195, 120, 3, 0.818089
260, 1, wb, filler, NA, 999, 999, 1, 18, 74, 92, 61, 119, 166, 135, 1, 1.10299
260, 1, wb, filler, NA, 999, 999, 1, 18, 74, 92, 61, 119, 166, 135, 3, 3.01002
260, 1, wb, attraction, a-b-da, 2, 1, 1, 19, 60, 135, 134, 59, 135, 60, 1, 3.90235
260, 1, wb, attraction, a-b-da, 2, 1, 1, 19, 60, 135, 134, 59, 135, 60, 2, 2.63242
260, 1, wb, attraction, a-b-db, 14, 2, 1, 20, 165, 90, 83, 153, 90, 165, 2, 3.57228
260, 1, wb, attraction, a-b-db, 14, 2, 1, 20, 165, 90, 83, 153, 90, 165, 1, 1.30699
260, 1, wb, attraction, a-b-db, 14, 1, 1, 21, 56, 125, 135, 60, 60, 135, 1, 3.75597
260, 1, wb, attraction, a-b-db, 14, 1, 1, 21, 56, 125, 135, 60, 60, 135, 2, 0.595482
260, 1, wb, attraction, a-b-db, 5, 2, 1, 22, 88, 161, 90, 165, 165, 90, 1, 11.2813
260, 1, wb, attraction, a-b-db, 5, 2, 1, 22, 88, 161, 90, 165, 165, 90, 3, 0.801624
260, 1, wb, filler, NA, 999, 999, 1, 23, 82, 195, 94, 171, 106, 162, 3, 6.52738
260, 1, wb, filler, NA, 999, 999, 1, 23, 82, 195, 94, 171, 106, 162, 1, 0.863218
260, 1, wb, attraction, a-b-da, 9, 2, 1, 24, 90, 165, 157, 86, 165, 90, 3, 4.90621
260, 1, wb, attraction, a-b-da, 9, 2, 1, 24, 90, 165, 157, 86, 165, 90, 1, 1.10738
260, 1, wb, attraction, a-b-db, 2, 1, 1, 25, 59, 134, 60, 135, 135, 60, 2, 2.60423
260, 1, wb, attraction, a-b-db, 2, 1, 1, 25, 59, 134, 60, 135, 135, 60, 1, 1.81072
260, 1, wb, attraction, a-b-da, 5, 2, 1, 26, 90, 165, 165, 90, 161, 88, 1, 2.29557
260, 1, wb, attraction, a-b-da, 5, 2, 1, 26, 90, 165, 165, 90, 161, 88, 2, 2.79415
260, 1, wb, filler, NA, 999, 999, 1, 27, 133, 132, 117, 84, 180, 59, 2, 1.7192
260, 1, wb, filler, NA, 999, 999, 1, 27, 133, 132, 117, 84, 180, 59, 3, 0.673191
260, 1, wb, attraction, a-b-db, 5, 3, 1, 28, 195, 120, 120, 195, 117, 190, 3, 3.08431
260, 1, wb, attraction, a-b-db, 5, 3, 1, 28, 195, 120, 120, 195, 117, 190, 2, 0.695435
260, 1, wb, attraction, a-b-da, 2, 2, 1, 29, 165, 90, 90, 165, 163, 89, 3, 3.64896
260, 1, wb, attraction, a-b-da, 2, 2, 1, 29, 165, 90, 90, 165, 163, 89, 2, 0.277267
260, 1, wb, attraction, a-b-da, 14, 3, 1, 30, 120, 195, 181, 111, 195, 120, 3, 21.2796
260, 1, wb, attraction, a-b-da, 14, 3, 1, 30, 120, 195, 181, 111, 195, 120, 1, 3.12508
260, 1, wb, attraction, a-b-da, 14, 1, 1, 31, 60, 135, 125, 56, 135, 60, 3, 4.02873
260, 1, wb, attraction, a-b-da, 14, 1, 1, 31, 60, 135, 125, 56, 135, 60, 1, 1.32937
260, 1, wb, attraction, a-b-da, 14, 2, 1, 32, 165, 90, 90, 165, 153, 83, 3, 2.12154
260, 1, wb, attraction, a-b-da, 14, 2, 1, 32, 165, 90, 90, 165, 153, 83, 2, 1.3796
260, 1, wb, attraction, a-b-da, 9, 1, 1, 33, 60, 135, 129, 57, 135, 60, 2, 5.2177
260, 1, wb, attraction, a-b-da, 9, 1, 1, 33, 60, 135, 129, 57, 135, 60, 1, 0.71072
260, 1, wb, attraction, a-b-db, 2, 3, 1, 34, 120, 195, 119, 193, 195, 120, 3, 2.38375
260, 1, wb, attraction, a-b-db, 2, 3, 1, 34, 120, 195, 119, 193, 195, 120, 2, 0.719024
260, 1, wb, filler, NA, 999, 999, 1, 35, 80, 74, 195, 82, 63, 96, 1, 0.600055
260, 1, wb, filler, NA, 999, 999, 1, 35, 80, 74, 195, 82, 63, 96, 2, 2.02322
260, 1, wb, attraction, a-b-da, 5, 3, 1, 36, 120, 195, 195, 120, 190, 117, 1, 2.70795
260, 1, wb, attraction, a-b-da, 5, 3, 1, 36, 120, 195, 195, 120, 190, 117, 2, 0.629867
260, 1, wb, attraction, a-b-da, 2, 3, 1, 37, 195, 120, 193, 119, 120, 195, 3, 1.09816
260, 1, wb, attraction, a-b-da, 2, 3, 1, 37, 195, 120, 193, 119, 120, 195, 2, 0.876954
260, 1, wb, filler, NA, 999, 999, 2, 1, 131, 100, 87, 164, 81, 173, 1, 0.679337
260, 1, wb, filler, NA, 999, 999, 2, 1, 131, 100, 87, 164, 81, 173, 3, 3.35509
260, 1, wb, filler, NA, 999, 999, 2, 2, 125, 56, 174, 152, 70, 73, 3, 0.841871
260, 1, wb, filler, NA, 999, 999, 2, 2, 125, 56, 174, 152, 70, 73, 2, 0.655179
260, 1, wb, filler, NA, 999, 999, 2, 3, 81, 179, 163, 70, 59, 181, 3, 1.17084
260, 1, wb, filler, NA, 999, 999, 2, 3, 81, 179, 163, 70, 59, 181, 1, 1.34705
260, 1, wb, filler, NA, 999, 999, 2, 4, 93, 174, 179, 155, 140, 105, 3, 1.4906
260, 1, wb, filler, NA, 999, 999, 2, 4, 93, 174, 179, 155, 140, 105, 2, 0.549394
260, 1, wb, attraction, a-b-db, 5, 3, 2, 5, 195, 120, 117, 190, 120, 195, 1, 3.74114
260, 1, wb, attraction, a-b-db, 5, 3, 2, 5, 195, 120, 117, 190, 120, 195, 2, 0.949284
260, 1, wb, attraction, a-b-da, 14, 2, 2, 6, 153, 83, 90, 165, 165, 90, 1, 0.972915
260, 1, wb, attraction, a-b-da, 14, 2, 2, 6, 153, 83, 90, 165, 165, 90, 3, 1.14858
260, 1, wb, attraction, a-b-da, 5, 3, 2, 7, 120, 195, 195, 120, 190, 117, 1, 1.15622
260, 1, wb, attraction, a-b-da, 5, 3, 2, 7, 120, 195, 195, 120, 190, 117, 2, 2.07664
260, 1, wb, filler, NA, 999, 999, 2, 8, 108, 80, 77, 112, 62, 60, 3, 0.67046
260, 1, wb, filler, NA, 999, 999, 2, 8, 108, 80, 77, 112, 62, 60, 1, 2.3149
260, 1, wb, attraction, a-b-da, 5, 1, 2, 9, 135, 60, 132, 58, 60, 135, 3, 3.11546
260, 1, wb, attraction, a-b-da, 5, 1, 2, 9, 135, 60, 132, 58, 60, 135, 2, 1.48511
260, 1, wb, filler, NA, 999, 999, 2, 10, 172, 183, 90, 185, 191, 109, 2, 3.01528
260, 1, wb, filler, NA, 999, 999, 2, 10, 172, 183, 90, 185, 191, 109, 1, 1.54098
260, 1, wb, attraction, a-b-da, 14, 3, 2, 11, 181, 111, 195, 120, 120, 195, 3, 3.53246
260, 1, wb, attraction, a-b-da, 14, 3, 2, 11, 181, 111, 195, 120, 120, 195, 2, 0.501248
260, 1, wb, attraction, a-b-db, 9, 3, 2, 12, 195, 120, 114, 186, 120, 195, 3, 1.10301
260, 1, wb, attraction, a-b-db, 9, 3, 2, 12, 195, 120, 114, 186, 120, 195, 2, 0.346046
260, 1, wb, attraction, a-b-db, 2, 1, 2, 13, 59, 134, 60, 135, 135, 60, 1, 1.03378
260, 1, wb, attraction, a-b-db, 2, 1, 2, 13, 59, 134, 60, 135, 135, 60, 2, 1.23957
260, 1, wb, catch, NA, 999, 999, 2, 14, 158, 157, 133, 62, 122, 133, 3, 1.2678
260, 1, wb, catch, NA, 999, 999, 2, 14, 158, 157, 133, 62, 122, 133, 1, 0.336029
260, 1, wb, attraction, a-b-da, 2, 2, 2, 15, 90, 165, 165, 90, 163, 89, 1, 1.67252
260, 1, wb, attraction, a-b-da, 2, 2, 2, 15, 90, 165, 165, 90, 163, 89, 3, 0.73208
260, 1, wb, attraction, a-b-da, 2, 3, 2, 16, 195, 120, 193, 119, 120, 195, 3, 2.89231
260, 1, wb, attraction, a-b-da, 2, 3, 2, 16, 195, 120, 193, 119, 120, 195, 2, 0.862598
260, 1, wb, attraction, a-b-db, 5, 2, 2, 17, 165, 90, 88, 161, 90, 165, 3, 2.60177
260, 1, wb, attraction, a-b-db, 5, 2, 2, 17, 165, 90, 88, 161, 90, 165, 1, 2.63218
260, 1, wb, filler, NA, 999, 999, 2, 18, 183, 186, 121, 172, 91, 159, 3, 1.02794
260, 1, wb, filler, NA, 999, 999, 2, 18, 183, 186, 121, 172, 91, 159, 1, 0.793735
260, 1, wb, attraction, a-b-db, 14, 3, 2, 19, 120, 195, 195, 120, 111, 181, 1, 2.34329
260, 1, wb, attraction, a-b-db, 14, 3, 2, 19, 120, 195, 195, 120, 111, 181, 2, 1.17595
260, 1, wb, attraction, a-b-da, 9, 2, 2, 20, 90, 165, 157, 86, 165, 90, 1, 3.03821
260, 1, wb, attraction, a-b-da, 9, 2, 2, 20, 90, 165, 157, 86, 165, 90, 2, 0.642591
260, 1, wb, attraction, a-b-db, 14, 2, 2, 21, 83, 153, 90, 165, 165, 90, 1, 1.98224
260, 1, wb, attraction, a-b-db, 14, 2, 2, 21, 83, 153, 90, 165, 165, 90, 2, 0.365576
260, 1, wb, catch, NA, 999, 999, 2, 22, 136, 119, 105, 90, 133, 182, 2, 1.21288
260, 1, wb, catch, NA, 999, 999, 2, 22, 136, 119, 105, 90, 133, 182, 3, 0.30697
260, 1, wb, filler, NA, 999, 999, 2, 23, 157, 59, 100, 71, 157, 103, 2, 0.876184
260, 1, wb, filler, NA, 999, 999, 2, 23, 157, 59, 100, 71, 157, 103, 3, 1.83191
260, 1, wb, attraction, a-b-db, 5, 1, 2, 24, 58, 132, 60, 135, 135, 60, 1, 2.10792
260, 1, wb, attraction, a-b-db, 5, 1, 2, 24, 58, 132, 60, 135, 135, 60, 2, 0.749996
260, 1, wb, attraction, a-b-da, 9, 3, 2, 25, 120, 195, 186, 114, 195, 120, 1, 4.0296
260, 1, wb, attraction, a-b-da, 9, 3, 2, 25, 120, 195, 186, 114, 195, 120, 2, 0.762405
260, 1, wb, attraction, a-b-db, 2, 3, 2, 26, 119, 193, 195, 120, 120, 195, 1, 0.977507
260, 1, wb, attraction, a-b-db, 2, 3, 2, 26, 119, 193, 195, 120, 120, 195, 2, 0.681165
260, 1, wb, attraction, a-b-db, 14, 1, 2, 27, 60, 135, 135, 60, 56, 125, 1, 0.715462
260, 1, wb, attraction, a-b-db, 14, 1, 2, 27, 60, 135, 135, 60, 56, 125, 2, 0.701833
260, 1, wb, catch, NA, 999, 999, 2, 28, 126, 129, 154, 161, 105, 90, 3, 1.03144
260, 1, wb, catch, NA, 999, 999, 2, 28, 126, 129, 154, 161, 105, 90, 2, 0.501194
260, 1, wb, attraction, a-b-db, 9, 1, 2, 29, 135, 60, 60, 135, 57, 129, 2, 2.04701
260, 1, wb, attraction, a-b-db, 9, 1, 2, 29, 135, 60, 60, 135, 57, 129, 1, 0.395679
260, 1, wb, attraction, a-b-db, 2, 2, 2, 30, 89, 163, 90, 165, 165, 90, 1, 0.929443
260, 1, wb, attraction, a-b-db, 2, 2, 2, 30, 89, 163, 90, 165, 165, 90, 3, 1.80334
260, 1, wb, attraction, a-b-da, 9, 1, 2, 31, 60, 135, 135, 60, 129, 57, 1, 0.816506
260, 1, wb, attraction, a-b-da, 9, 1, 2, 31, 60, 135, 135, 60, 129, 57, 2, 0.838943
260, 1, wb, filler, NA, 999, 999, 2, 32, 68, 57, 103, 72, 104, 98, 1, 1.19525
260, 1, wb, filler, NA, 999, 999, 2, 32, 68, 57, 103, 72, 104, 98, 3, 0.762203
260, 1, wb, attraction, a-b-da, 5, 2, 2, 33, 161, 88, 165, 90, 90, 165, 3, 0.83325
260, 1, wb, attraction, a-b-da, 5, 2, 2, 33, 161, 88, 165, 90, 90, 165, 1, 0.870969
260, 1, wb, attraction, a-b-da, 14, 1, 2, 34, 60, 135, 135, 60, 125, 56, 3, 1.72998
260, 1, wb, attraction, a-b-da, 14, 1, 2, 34, 60, 135, 135, 60, 125, 56, 2, 2.05139
260, 1, wb, attraction, a-b-db, 9, 2, 2, 35, 86, 157, 90, 165, 165, 90, 3, 4.3908
260, 1, wb, attraction, a-b-db, 9, 2, 2, 35, 86, 157, 90, 165, 165, 90, 2, 0.372613
260, 1, wb, attraction, a-b-da, 2, 1, 2, 36, 60, 135, 135, 60, 134, 59, 1, 1.10779
260, 1, wb, attraction, a-b-da, 2, 1, 2, 36, 60, 135, 135, 60, 134, 59, 2, 1.38216
260, 1, wb, filler, NA, 999, 999, 2, 37, 131, 142, 171, 177, 108, 117, 3, 1.33226
260, 1, wb, filler, NA, 999, 999, 2, 37, 131, 142, 171, 177, 108, 117, 2, 0.621829
260, 1, wb, filler, NA, 999, 999, 3, 1, 194, 161, 145, 176, 59, 108, 3, 0.770854
260, 1, wb, filler, NA, 999, 999, 3, 1, 194, 161, 145, 176, 59, 108, 1, 1.11528
260, 1, wb, attraction, a-b-db, 5, 1, 3, 2, 60, 135, 58, 132, 135, 60, 1, 1.53211
260, 1, wb, attraction, a-b-db, 5, 1, 3, 2, 60, 135, 58, 132, 135, 60, 2, 0.685729
260, 1, wb, filler, NA, 999, 999, 3, 3, 117, 155, 116, 90, 155, 75, 2, 0.800119
260, 1, wb, filler, NA, 999, 999, 3, 3, 117, 155, 116, 90, 155, 75, 3, 3.35926
260, 1, wb, attraction, a-b-da, 14, 2, 3, 4, 165, 90, 90, 165, 153, 83, 3, 1.58138
260, 1, wb, attraction, a-b-da, 14, 2, 3, 4, 165, 90, 90, 165, 153, 83, 1, 0.708867
260, 1, wb, attraction, a-b-da, 5, 1, 3, 5, 60, 135, 135, 60, 132, 58, 1, 1.78994
260, 1, wb, attraction, a-b-da, 5, 1, 3, 5, 60, 135, 135, 60, 132, 58, 2, 1.19681
260, 1, wb, catch, NA, 999, 999, 3, 6, 106, 149, 167, 148, 76, 119, 3, 0.850297
260, 1, wb, catch, NA, 999, 999, 3, 6, 106, 149, 167, 148, 76, 119, 2, 0.335401
260, 1, wb, attraction, a-b-db, 9, 3, 3, 7, 120, 195, 195, 120, 114, 186, 3, 4.43181
260, 1, wb, attraction, a-b-db, 9, 3, 3, 7, 120, 195, 195, 120, 114, 186, 2, 0.564627
260, 1, wb, filler, NA, 999, 999, 3, 8, 115, 164, 189, 181, 60, 147, 3, 0.955546
260, 1, wb, filler, NA, 999, 999, 3, 8, 115, 164, 189, 181, 60, 147, 2, 1.3319
260, 1, wb, attraction, a-b-db, 2, 1, 3, 9, 60, 135, 135, 60, 59, 134, 3, 3.3081
260, 1, wb, attraction, a-b-db, 2, 1, 3, 9, 60, 135, 135, 60, 59, 134, 2, 0.869634
260, 1, wb, attraction, a-b-da, 9, 2, 3, 10, 165, 90, 157, 86, 90, 165, 3, 2.67262
260, 1, wb, attraction, a-b-da, 9, 2, 3, 10, 165, 90, 157, 86, 90, 165, 2, 1.97996
260, 1, wb, filler, NA, 999, 999, 3, 11, 68, 141, 126, 130, 77, 108, 3, 1.26578
260, 1, wb, filler, NA, 999, 999, 3, 11, 68, 141, 126, 130, 77, 108, 2, 0.638091
260, 1, wb, filler, NA, 999, 999, 3, 12, 163, 69, 57, 162, 82, 158, 3, 2.89055
260, 1, wb, filler, NA, 999, 999, 3, 12, 163, 69, 57, 162, 82, 158, 1, 0.708906
260, 1, wb, attraction, a-b-db, 14, 1, 3, 13, 56, 125, 60, 135, 135, 60, 2, 1.84588
260, 1, wb, attraction, a-b-db, 14, 1, 3, 13, 56, 125, 60, 135, 135, 60, 3, 2.08263
260, 1, wb, attraction, a-b-da, 2, 3, 3, 14, 193, 119, 195, 120, 120, 195, 3, 2.86864
260, 1, wb, attraction, a-b-da, 2, 3, 3, 14, 193, 119, 195, 120, 120, 195, 2, 0.848287
260, 1, wb, filler, NA, 999, 999, 3, 15, 184, 146, 127, 138, 82, 88, 3, 0.708068
260, 1, wb, filler, NA, 999, 999, 3, 15, 184, 146, 127, 138, 82, 88, 1, 0.512341
260, 1, wb, filler, NA, 999, 999, 3, 16, 76, 174, 60, 120, 118, 154, 2, 0.855442
260, 1, wb, filler, NA, 999, 999, 3, 16, 76, 174, 60, 120, 118, 154, 3, 0.739798
260, 1, wb, attraction, a-b-db, 5, 2, 3, 17, 165, 90, 90, 165, 88, 161, 3, 3.62839
260, 1, wb, attraction, a-b-db, 5, 2, 3, 17, 165, 90, 90, 165, 88, 161, 1, 0.609165
260, 1, wb, attraction, a-b-da, 5, 3, 3, 18, 190, 117, 120, 195, 195, 120, 2, 2.24626
260, 1, wb, attraction, a-b-da, 5, 3, 3, 18, 190, 117, 120, 195, 195, 120, 1, 0.74689
260, 1, wb, attraction, a-b-da, 9, 3, 3, 19, 120, 195, 195, 120, 186, 114, 1, 1.61047
260, 1, wb, attraction, a-b-da, 9, 3, 3, 19, 120, 195, 195, 120, 186, 114, 2, 0.60063
260, 1, wb, attraction, a-b-da, 5, 2, 3, 20, 161, 88, 165, 90, 90, 165, 3, 0.854317
260, 1, wb, attraction, a-b-da, 5, 2, 3, 20, 161, 88, 165, 90, 90, 165, 2, 0.499483
260, 1, wb, filler, NA, 999, 999, 3, 21, 165, 67, 116, 105, 131, 184, 2, 1.07719
260, 1, wb, filler, NA, 999, 999, 3, 21, 165, 67, 116, 105, 131, 184, 1, 1.21677
260, 1, wb, catch, NA, 999, 999, 3, 22, 108, 87, 134, 181, 101, 154, 1, 0.765704
260, 1, wb, catch, NA, 999, 999, 3, 22, 108, 87, 134, 181, 101, 154, 2, 0.326142
260, 1, wb, attraction, a-b-db, 9, 2, 3, 23, 165, 90, 86, 157, 90, 165, 3, 1.61473
260, 1, wb, attraction, a-b-db, 9, 2, 3, 23, 165, 90, 86, 157, 90, 165, 1, 0.980831
260, 1, wb, attraction, a-b-da, 14, 1, 3, 24, 60, 135, 135, 60, 125, 56, 3, 1.31506
260, 1, wb, attraction, a-b-da, 14, 1, 3, 24, 60, 135, 135, 60, 125, 56, 2, 0.541383
260, 1, wb, filler, NA, 999, 999, 3, 25, 103, 151, 161, 139, 101, 56, 3, 1.60505
260, 1, wb, filler, NA, 999, 999, 3, 25, 103, 151, 161, 139, 101, 56, 2, 0.29922
260, 1, wb, attraction, a-b-da, 2, 1, 3, 26, 60, 135, 134, 59, 135, 60, 1, 0.941056
260, 1, wb, attraction, a-b-da, 2, 1, 3, 26, 60, 135, 134, 59, 135, 60, 2, 0.910037
260, 1, wb, filler, NA, 999, 999, 3, 27, 60, 123, 78, 157, 161, 182, 1, 0.871037
260, 1, wb, filler, NA, 999, 999, 3, 27, 60, 123, 78, 157, 161, 182, 3, 0.523464
260, 1, wb, attraction, a-b-db, 2, 2, 3, 28, 90, 165, 89, 163, 165, 90, 2, 1.63584
260, 1, wb, attraction, a-b-db, 2, 2, 3, 28, 90, 165, 89, 163, 165, 90, 3, 0.54533
260, 1, wb, attraction, a-b-db, 14, 2, 3, 29, 83, 153, 90, 165, 165, 90, 2, 1.10511
260, 1, wb, attraction, a-b-db, 14, 2, 3, 29, 83, 153, 90, 165, 165, 90, 3, 0.635407
260, 1, wb, catch, NA, 999, 999, 3, 30, 188, 127, 123, 72, 147, 108, 2, 0.711747
260, 1, wb, catch, NA, 999, 999, 3, 30, 188, 127, 123, 72, 147, 108, 1, 0.386184
260, 1, wb, attraction, a-b-db, 14, 3, 3, 31, 111, 181, 195, 120, 120, 195, 1, 1.01667
260, 1, wb, attraction, a-b-db, 14, 3, 3, 31, 111, 181, 195, 120, 120, 195, 2, 0.687103
260, 1, wb, attraction, a-b-db, 5, 3, 3, 32, 117, 190, 195, 120, 120, 195, 3, 1.42541
260, 1, wb, attraction, a-b-db, 5, 3, 3, 32, 117, 190, 195, 120, 120, 195, 2, 0.374979
260, 1, wb, attraction, a-b-da, 2, 2, 3, 33, 165, 90, 163, 89, 90, 165, 3, 1.70165
260, 1, wb, attraction, a-b-da, 2, 2, 3, 33, 165, 90, 163, 89, 90, 165, 2, 0.464281
260, 1, wb, attraction, a-b-da, 14, 3, 3, 34, 195, 120, 120, 195, 181, 111, 3, 2.66732
260, 1, wb, attraction, a-b-da, 14, 3, 3, 34, 195, 120, 120, 195, 181, 111, 2, 0.663221
260, 1, wb, attraction, a-b-db, 9, 1, 3, 35, 57, 129, 135, 60, 60, 135, 1, 2.49821
260, 1, wb, attraction, a-b-db, 9, 1, 3, 35, 57, 129, 135, 60, 60, 135, 2, 0.340852
260, 1, wb, attraction, a-b-da, 9, 1, 3, 36, 129, 57, 135, 60, 60, 135, 3, 1.22053
260, 1, wb, attraction, a-b-da, 9, 1, 3, 36, 129, 57, 135, 60, 60, 135, 2, 0.41897
260, 1, wb, attraction, a-b-db, 2, 3, 3, 37, 119, 193, 195, 120, 120, 195, 3, 1.36798
260, 1, wb, attraction, a-b-db, 2, 3, 3, 37, 119, 193, 195, 120, 120, 195, 2, 0.416258
260, 1, wb, attraction, a-b-db, 2, 1, 4, 1, 135, 60, 59, 134, 60, 135, 3, 1.01339
260, 1, wb, attraction, a-b-db, 2, 1, 4, 1, 135, 60, 59, 134, 60, 135, 1, 1.56382
260, 1, wb, filler, NA, 999, 999, 4, 2, 66, 190, 149, 75, 96, 103, 3, 1.21847
260, 1, wb, filler, NA, 999, 999, 4, 2, 66, 190, 149, 75, 96, 103, 2, 1.20076
260, 1, wb, attraction, a-b-db, 14, 3, 4, 3, 195, 120, 120, 195, 111, 181, 3, 7.90226
260, 1, wb, attraction, a-b-db, 14, 3, 4, 3, 195, 120, 120, 195, 111, 181, 1, 0.60726
260, 1, wb, filler, NA, 999, 999, 4, 4, 169, 113, 92, 171, 76, 184, 3, 2.64442
260, 1, wb, filler, NA, 999, 999, 4, 4, 169, 113, 92, 171, 76, 184, 1, 0.560678
260, 1, wb, attraction, a-b-da, 14, 1, 4, 5, 125, 56, 135, 60, 60, 135, 3, 2.43183
260, 1, wb, attraction, a-b-da, 14, 1, 4, 5, 125, 56, 135, 60, 60, 135, 2, 0.397084
260, 1, wb, catch, NA, 999, 999, 4, 6, 116, 139, 123, 72, 180, 135, 1, 1.17081
260, 1, wb, catch, NA, 999, 999, 4, 6, 116, 139, 123, 72, 180, 135, 3, 0.33109
260, 1, wb, filler, NA, 999, 999, 4, 7, 85, 120, 117, 144, 170, 182, 1, 0.747606
260, 1, wb, filler, NA, 999, 999, 4, 7, 85, 120, 117, 144, 170, 182, 3, 0.308726
260, 1, wb, attraction, a-b-db, 5, 3, 4, 8, 195, 120, 117, 190, 120, 195, 3, 1.72597
260, 1, wb, attraction, a-b-db, 5, 3, 4, 8, 195, 120, 117, 190, 120, 195, 1, 0.47137
260, 1, wb, attraction, a-b-da, 2, 3, 4, 9, 193, 119, 120, 195, 195, 120, 2, 1.51457
260, 1, wb, attraction, a-b-da, 2, 3, 4, 9, 193, 119, 120, 195, 195, 120, 3, 0.468488
260, 1, wb, attraction, a-b-db, 5, 2, 4, 10, 90, 165, 88, 161, 165, 90, 2, 0.791727
260, 1, wb, attraction, a-b-db, 5, 2, 4, 10, 90, 165, 88, 161, 165, 90, 3, 0.614796
260, 1, wb, attraction, a-b-da, 14, 2, 4, 11, 90, 165, 165, 90, 153, 83, 1, 1.32391
260, 1, wb, attraction, a-b-da, 14, 2, 4, 11, 90, 165, 165, 90, 153, 83, 2, 0.909822
260, 1, wb, attraction, a-b-db, 9, 1, 4, 12, 60, 135, 135, 60, 57, 129, 1, 0.926437
260, 1, wb, attraction, a-b-db, 9, 1, 4, 12, 60, 135, 135, 60, 57, 129, 2, 1.00822
260, 1, wb, filler, NA, 999, 999, 4, 13, 144, 91, 70, 77, 168, 65, 2, 1.47697
260, 1, wb, filler, NA, 999, 999, 4, 13, 144, 91, 70, 77, 168, 65, 3, 1.36048
260, 1, wb, attraction, a-b-da, 9, 1, 4, 14, 60, 135, 129, 57, 135, 60, 1, 1.0634
260, 1, wb, attraction, a-b-da, 9, 1, 4, 14, 60, 135, 129, 57, 135, 60, 2, 0.483681
260, 1, wb, attraction, a-b-da, 5, 1, 4, 15, 135, 60, 60, 135, 132, 58, 2, 1.55814
260, 1, wb, attraction, a-b-da, 5, 1, 4, 15, 135, 60, 60, 135, 132, 58, 1, 0.670331
260, 1, wb, attraction, a-b-da, 5, 2, 4, 16, 90, 165, 161, 88, 165, 90, 1, 0.945369
260, 1, wb, attraction, a-b-da, 5, 2, 4, 16, 90, 165, 161, 88, 165, 90, 2, 0.634398
260, 1, wb, attraction, a-b-db, 5, 1, 4, 17, 60, 135, 58, 132, 135, 60, 1, 0.806774
260, 1, wb, attraction, a-b-db, 5, 1, 4, 17, 60, 135, 58, 132, 135, 60, 3, 0.701194
260, 1, wb, attraction, a-b-da, 9, 3, 4, 18, 195, 120, 186, 114, 120, 195, 3, 1.0389
260, 1, wb, attraction, a-b-da, 9, 3, 4, 18, 195, 120, 186, 114, 120, 195, 2, 0.419874
260, 1, wb, catch, NA, 999, 999, 4, 19, 87, 108, 172, 143, 97, 158, 1, 0.641037
260, 1, wb, catch, NA, 999, 999, 4, 19, 87, 108, 172, 143, 97, 158, 2, 0.478184
260, 1, wb, attraction, a-b-db, 14, 1, 4, 20, 56, 125, 60, 135, 135, 60, 2, 1.0566
260, 1, wb, attraction, a-b-db, 14, 1, 4, 20, 56, 125, 60, 135, 135, 60, 3, 0.428943
260, 1, wb, attraction, a-b-db, 2, 2, 4, 21, 89, 163, 165, 90, 90, 165, 1, 0.633477
260, 1, wb, attraction, a-b-db, 2, 2, 4, 21, 89, 163, 165, 90, 90, 165, 3, 0.863251
260, 1, wb, attraction, a-b-da, 2, 1, 4, 22, 134, 59, 60, 135, 135, 60, 2, 2.06616
260, 1, wb, attraction, a-b-da, 2, 1, 4, 22, 134, 59, 60, 135, 135, 60, 1, 0.526125
260, 1, wb, filler, NA, 999, 999, 4, 23, 63, 145, 106, 115, 57, 136, 1, 0.998667
260, 1, wb, filler, NA, 999, 999, 4, 23, 63, 145, 106, 115, 57, 136, 2, 1.22965
260, 1, wb, attraction, a-b-da, 5, 3, 4, 24, 195, 120, 120, 195, 190, 117, 2, 1.3538
260, 1, wb, attraction, a-b-da, 5, 3, 4, 24, 195, 120, 120, 195, 190, 117, 1, 0.554705
260, 1, wb, filler, NA, 999, 999, 4, 25, 122, 103, 120, 59, 111, 195, 1, 3.10645
260, 1, wb, filler, NA, 999, 999, 4, 25, 122, 103, 120, 59, 111, 195, 3, 4.17213
260, 1, wb, attraction, a-b-db, 9, 3, 4, 26, 195, 120, 114, 186, 120, 195, 2, 1.69812
260, 1, wb, attraction, a-b-db, 9, 3, 4, 26, 195, 120, 114, 186, 120, 195, 1, 0.564948
260, 1, wb, filler, NA, 999, 999, 4, 27, 57, 94, 152, 92, 85, 123, 1, 0.812091
260, 1, wb, filler, NA, 999, 999, 4, 27, 57, 94, 152, 92, 85, 123, 2, 0.37834
260, 1, wb, catch, NA, 999, 999, 4, 28, 178, 137, 138, 117, 133, 62, 3, 1.66495
260, 1, wb, catch, NA, 999, 999, 4, 28, 178, 137, 138, 117, 133, 62, 1, 0.981041
260, 1, wb, filler, NA, 999, 999, 4, 29, 68, 66, 153, 64, 87, 116, 1, 0.955285
260, 1, wb, filler, NA, 999, 999, 4, 29, 68, 66, 153, 64, 87, 116, 2, 1.05178
260, 1, wb, attraction, a-b-da, 2, 2, 4, 30, 90, 165, 165, 90, 163, 89, 1, 3.02333
260, 1, wb, attraction, a-b-da, 2, 2, 4, 30, 90, 165, 165, 90, 163, 89, 2, 0.684269
260, 1, wb, attraction, a-b-db, 2, 3, 4, 31, 120, 195, 195, 120, 119, 193, 1, 2.2307
260, 1, wb, attraction, a-b-db, 2, 3, 4, 31, 120, 195, 195, 120, 119, 193, 2, 0.700077
260, 1, wb, attraction, a-b-da, 14, 3, 4, 32, 120, 195, 181, 111, 195, 120, 1, 2.82966
260, 1, wb, attraction, a-b-da, 14, 3, 4, 32, 120, 195, 181, 111, 195, 120, 2, 0.762889
260, 1, wb, attraction, a-b-db, 9, 2, 4, 33, 90, 165, 165, 90, 86, 157, 1, 0.897971
260, 1, wb, attraction, a-b-db, 9, 2, 4, 33, 90, 165, 165, 90, 86, 157, 2, 0.75694
260, 1, wb, filler, NA, 999, 999, 4, 34, 72, 191, 151, 146, 71, 89, 3, 0.692378
260, 1, wb, filler, NA, 999, 999, 4, 34, 72, 191, 151, 146, 71, 89, 2, 0.422978
260, 1, wb, attraction, a-b-db, 14, 2, 4, 35, 165, 90, 90, 165, 83, 153, 2, 4.38813
260, 1, wb, attraction, a-b-db, 14, 2, 4, 35, 165, 90, 90, 165, 83, 153, 1, 0.458618
260, 1, wb, attraction, a-b-da, 9, 2, 4, 36, 90, 165, 157, 86, 165, 90, 1, 0.653777
260, 1, wb, attraction, a-b-da, 9, 2, 4, 36, 90, 165, 157, 86, 165, 90, 2, 0.466895
260, 1, wb, filler, NA, 999, 999, 4, 37, 157, 143, 70, 69, 126, 172, 2, 1.13407
260, 1, wb, filler, NA, 999, 999, 4, 37, 157, 143, 70, 69, 126, 172, 1, 0.527579
260, 1, wb, filler, NA, 999, 999, 5, 1, 118, 99, 122, 144, 126, 180, 1, 3.67872
260, 1, wb, filler, NA, 999, 999, 5, 1, 118, 99, 122, 144, 126, 180, 3, 1.08167
260, 1, wb, attraction, a-b-db, 5, 3, 5, 2, 195, 120, 120, 195, 117, 190, 3, 1.95578
260, 1, wb, attraction, a-b-db, 5, 3, 5, 2, 195, 120, 120, 195, 117, 190, 1, 0.451902
260, 1, wb, filler, NA, 999, 999, 5, 3, 57, 108, 65, 165, 129, 127, 1, 0.687781
260, 1, wb, filler, NA, 999, 999, 5, 3, 57, 108, 65, 165, 129, 127, 3, 0.619487
260, 1, wb, attraction, a-b-db, 9, 2, 5, 4, 165, 90, 90, 165, 86, 157, 3, 1.33656
260, 1, wb, attraction, a-b-db, 9, 2, 5, 4, 165, 90, 90, 165, 86, 157, 1, 0.698028
260, 1, wb, attraction, a-b-da, 2, 2, 5, 5, 165, 90, 90, 165, 163, 89, 2, 1.88386
260, 1, wb, attraction, a-b-da, 2, 2, 5, 5, 165, 90, 90, 165, 163, 89, 1, 0.423175
260, 1, wb, attraction, a-b-da, 2, 1, 5, 6, 135, 60, 134, 59, 60, 135, 3, 1.01236
260, 1, wb, attraction, a-b-da, 2, 1, 5, 6, 135, 60, 134, 59, 60, 135, 1, 0.362578
260, 1, wb, filler, NA, 999, 999, 5, 7, 146, 176, 104, 145, 167, 66, 2, 1.00976
260, 1, wb, filler, NA, 999, 999, 5, 7, 146, 176, 104, 145, 167, 66, 1, 0.368176
260, 1, wb, filler, NA, 999, 999, 5, 8, 179, 120, 63, 70, 121, 114, 2, 0.719283
260, 1, wb, filler, NA, 999, 999, 5, 8, 179, 120, 63, 70, 121, 114, 1, 0.353743
260, 1, wb, attraction, a-b-da, 14, 2, 5, 9, 153, 83, 165, 90, 90, 165, 3, 1.12956
260, 1, wb, attraction, a-b-da, 14, 2, 5, 9, 153, 83, 165, 90, 90, 165, 1, 0.555175
260, 1, wb, attraction, a-b-db, 5, 2, 5, 10, 88, 161, 165, 90, 90, 165, 3, 1.52298
260, 1, wb, attraction, a-b-db, 5, 2, 5, 10, 88, 161, 165, 90, 90, 165, 2, 0.508444
260, 1, wb, filler, NA, 999, 999, 5, 11, 125, 143, 190, 69, 178, 90, 1, 4.77351
260, 1, wb, filler, NA, 999, 999, 5, 11, 125, 143, 190, 69, 178, 90, 2, 0.53218
260, 1, wb, attraction, a-b-da, 9, 1, 5, 12, 129, 57, 60, 135, 135, 60, 2, 1.80456
260, 1, wb, attraction, a-b-da, 9, 1, 5, 12, 129, 57, 60, 135, 135, 60, 1, 0.450509
260, 1, wb, attraction, a-b-db, 2, 3, 5, 13, 195, 120, 120, 195, 119, 193, 2, 2.15039
260, 1, wb, attraction, a-b-db, 2, 3, 5, 13, 195, 120, 120, 195, 119, 193, 1, 0.351024
260, 1, wb, filler, NA, 999, 999, 5, 14, 140, 163, 156, 177, 110, 118, 3, 1.24688
260, 1, wb, filler, NA, 999, 999, 5, 14, 140, 163, 156, 177, 110, 118, 2, 0.563724
260, 1, wb, attraction, a-b-da, 5, 1, 5, 15, 132, 58, 60, 135, 135, 60, 2, 4.69089
260, 1, wb, attraction, a-b-da, 5, 1, 5, 15, 132, 58, 60, 135, 135, 60, 1, 0.500897
260, 1, wb, attraction, a-b-db, 2, 2, 5, 16, 90, 165, 89, 163, 165, 90, 2, 1.48642
260, 1, wb, attraction, a-b-db, 2, 2, 5, 16, 90, 165, 89, 163, 165, 90, 3, 1.01008
260, 1, wb, attraction, a-b-db, 9, 1, 5, 17, 57, 129, 135, 60, 60, 135, 1, 1.10294
260, 1, wb, attraction, a-b-db, 9, 1, 5, 17, 57, 129, 135, 60, 60, 135, 2, 0.609878
260, 1, wb, attraction, a-b-db, 2, 1, 5, 18, 135, 60, 60, 135, 59, 134, 3, 1.67903
260, 1, wb, attraction, a-b-db, 2, 1, 5, 18, 135, 60, 60, 135, 59, 134, 1, 0.626635
260, 1, wb, filler, NA, 999, 999, 5, 19, 111, 157, 121, 178, 176, 137, 2, 1.43077
260, 1, wb, filler, NA, 999, 999, 5, 19, 111, 157, 121, 178, 176, 137, 3, 0.692297
260, 1, wb, attraction, a-b-da, 5, 2, 5, 20, 165, 90, 161, 88, 90, 165, 3, 1.68605
260, 1, wb, attraction, a-b-da, 5, 2, 5, 20, 165, 90, 161, 88, 90, 165, 1, 0.545581
260, 1, wb, attraction, a-b-db, 5, 1, 5, 21, 135, 60, 60, 135, 58, 132, 3, 1.52927
260, 1, wb, attraction, a-b-db, 5, 1, 5, 21, 135, 60, 60, 135, 58, 132, 1, 0.498844
260, 1, wb, attraction, a-b-db, 14, 2, 5, 22, 165, 90, 83, 153, 90, 165, 3, 1.26858
260, 1, wb, attraction, a-b-db, 14, 2, 5, 22, 165, 90, 83, 153, 90, 165, 1, 0.496826
260, 1, wb, attraction, a-b-da, 5, 3, 5, 23, 190, 117, 120, 195, 195, 120, 2, 1.84256
260, 1, wb, attraction, a-b-da, 5, 3, 5, 23, 190, 117, 120, 195, 195, 120, 1, 0.335419
260, 1, wb, attraction, a-b-db, 9, 3, 5, 24, 120, 195, 114, 186, 195, 120, 2, 0.783782
260, 1, wb, attraction, a-b-db, 9, 3, 5, 24, 120, 195, 114, 186, 195, 120, 3, 0.559571
260, 1, wb, attraction, a-b-da, 9, 2, 5, 25, 165, 90, 90, 165, 157, 86, 2, 0.942631
260, 1, wb, attraction, a-b-da, 9, 2, 5, 25, 165, 90, 90, 165, 157, 86, 1, 0.295654
260, 1, wb, catch, NA, 999, 999, 5, 26, 181, 134, 74, 121, 109, 146, 2, 1.06561
260, 1, wb, catch, NA, 999, 999, 5, 26, 181, 134, 74, 121, 109, 146, 1, 0.413757
260, 1, wb, attraction, a-b-da, 9, 3, 5, 27, 186, 114, 120, 195, 195, 120, 2, 0.923069
260, 1, wb, attraction, a-b-da, 9, 3, 5, 27, 186, 114, 120, 195, 195, 120, 1, 1.22887
260, 1, wb, attraction, a-b-db, 14, 1, 5, 28, 56, 125, 60, 135, 135, 60, 1, 1.05688
260, 1, wb, attraction, a-b-db, 14, 1, 5, 28, 56, 125, 60, 135, 135, 60, 3, 0.605248
260, 1, wb, attraction, a-b-db, 14, 3, 5, 29, 120, 195, 195, 120, 111, 181, 1, 1.22689
260, 1, wb, attraction, a-b-db, 14, 3, 5, 29, 120, 195, 195, 120, 111, 181, 2, 0.312582
260, 1, wb, catch, NA, 999, 999, 5, 30, 115, 140, 121, 194, 69, 126, 3, 0.881697
260, 1, wb, catch, NA, 999, 999, 5, 30, 115, 140, 121, 194, 69, 126, 2, 0.309425
260, 1, wb, attraction, a-b-da, 2, 3, 5, 31, 193, 119, 195, 120, 120, 195, 3, 0.662587
260, 1, wb, attraction, a-b-da, 2, 3, 5, 31, 193, 119, 195, 120, 120, 195, 2, 0.298999
260, 1, wb, filler, NA, 999, 999, 5, 32, 185, 97, 93, 71, 80, 78, 3, 0.676913
260, 1, wb, filler, NA, 999, 999, 5, 32, 185, 97, 93, 71, 80, 78, 1, 0.424565
260, 1, wb, attraction, a-b-da, 14, 3, 5, 33, 181, 111, 195, 120, 120, 195, 3, 1.87705
260, 1, wb, attraction, a-b-da, 14, 3, 5, 33, 181, 111, 195, 120, 120, 195, 2, 0.608435
260, 1, wb, attraction, a-b-da, 14, 1, 5, 34, 135, 60, 60, 135, 125, 56, 2, 3.2856
260, 1, wb, attraction, a-b-da, 14, 1, 5, 34, 135, 60, 60, 135, 125, 56, 3, 0.544526
260, 1, wb, filler, NA, 999, 999, 5, 35, 138, 118, 189, 142, 98, 122, 3, 1.36029
260, 1, wb, filler, NA, 999, 999, 5, 35, 138, 118, 189, 142, 98, 122, 2, 0.400608
260, 1, wb, filler, NA, 999, 999, 5, 36, 171, 96, 60, 108, 135, 176, 2, 0.630435
260, 1, wb, filler, NA, 999, 999, 5, 36, 171, 96, 60, 108, 135, 176, 3, 0.372051
260, 1, wb, catch, NA, 999, 999, 5, 37, 132, 183, 118, 77, 93, 162, 2, 1.49134
260, 1, wb, catch, NA, 999, 999, 5, 37, 132, 183, 118, 77, 93, 162, 1, 6.43006
260, 1, wb, attraction, a-b-da, 2, 1, 6, 1, 135, 60, 60, 135, 134, 59, 2, 1.43273
260, 1, wb, attraction, a-b-da, 2, 1, 6, 1, 135, 60, 60, 135, 134, 59, 1, 0.926356
260, 1, wb, attraction, a-b-db, 5, 2, 6, 2, 88, 161, 90, 165, 165, 90, 2, 1.64658
260, 1, wb, attraction, a-b-db, 5, 2, 6, 2, 88, 161, 90, 165, 165, 90, 3, 0.459331
260, 1, wb, attraction, a-b-db, 14, 2, 6, 3, 90, 165, 83, 153, 165, 90, 2, 0.766441
260, 1, wb, attraction, a-b-db, 14, 2, 6, 3, 90, 165, 83, 153, 165, 90, 3, 0.535037
260, 1, wb, attraction, a-b-da, 5, 3, 6, 4, 120, 195, 190, 117, 195, 120, 1, 1.82341
260, 1, wb, attraction, a-b-da, 5, 3, 6, 4, 120, 195, 190, 117, 195, 120, 2, 0.900873
260, 1, wb, catch, NA, 999, 999, 6, 5, 102, 153, 86, 109, 169, 146, 2, 1.39832
260, 1, wb, catch, NA, 999, 999, 6, 5, 102, 153, 86, 109, 169, 146, 3, 0.981292
260, 1, wb, filler, NA, 999, 999, 6, 6, 150, 182, 92, 88, 131, 142, 2, 1.0675
260, 1, wb, filler, NA, 999, 999, 6, 6, 150, 182, 92, 88, 131, 142, 1, 0.415867
260, 1, wb, attraction, a-b-da, 9, 3, 6, 7, 120, 195, 195, 120, 186, 114, 1, 1.78906
260, 1, wb, attraction, a-b-da, 9, 3, 6, 7, 120, 195, 195, 120, 186, 114, 2, 0.379668
260, 1, wb, attraction, a-b-db, 9, 1, 6, 8, 60, 135, 57, 129, 135, 60, 1, 1.09034
260, 1, wb, attraction, a-b-db, 9, 1, 6, 8, 60, 135, 57, 129, 135, 60, 3, 0.645254
260, 1, wb, attraction, a-b-db, 2, 2, 6, 9, 89, 163, 165, 90, 90, 165, 1, 2.84898
260, 1, wb, attraction, a-b-db, 2, 2, 6, 9, 89, 163, 165, 90, 90, 165, 2, 0.509354
260, 1, wb, attraction, a-b-db, 14, 3, 6, 10, 111, 181, 120, 195, 195, 120, 1, 1.39851
260, 1, wb, attraction, a-b-db, 14, 3, 6, 10, 111, 181, 120, 195, 195, 120, 3, 0.549356
260, 1, wb, filler, NA, 999, 999, 6, 11, 112, 171, 181, 161, 62, 142, 3, 1.25315
260, 1, wb, filler, NA, 999, 999, 6, 11, 112, 171, 181, 161, 62, 142, 2, 0.29801
260, 1, wb, attraction, a-b-db, 9, 3, 6, 12, 120, 195, 114, 186, 195, 120, 1, 2.15582
260, 1, wb, attraction, a-b-db, 9, 3, 6, 12, 120, 195, 114, 186, 195, 120, 3, 0.507835
260, 1, wb, attraction, a-b-da, 2, 3, 6, 13, 195, 120, 193, 119, 120, 195, 3, 0.916923
260, 1, wb, attraction, a-b-da, 2, 3, 6, 13, 195, 120, 193, 119, 120, 195, 2, 1.10333
260, 1, wb, attraction, a-b-da, 5, 1, 6, 14, 60, 135, 132, 58, 135, 60, 1, 0.776868
260, 1, wb, attraction, a-b-da, 5, 1, 6, 14, 60, 135, 132, 58, 135, 60, 2, 0.424593
260, 1, wb, catch, NA, 999, 999, 6, 15, 127, 188, 94, 161, 124, 71, 3, 1.06113
260, 1, wb, catch, NA, 999, 999, 6, 15, 127, 188, 94, 161, 124, 71, 1, 0.449366
260, 1, wb, attraction, a-b-db, 14, 1, 6, 16, 60, 135, 56, 125, 135, 60, 1, 1.67717
260, 1, wb, attraction, a-b-db, 14, 1, 6, 16, 60, 135, 56, 125, 135, 60, 3, 0.824591
260, 1, wb, filler, NA, 999, 999, 6, 17, 79, 101, 68, 178, 142, 66, 1, 0.605035
260, 1, wb, filler, NA, 999, 999, 6, 17, 79, 101, 68, 178, 142, 66, 3, 1.01944
260, 1, wb, filler, NA, 999, 999, 6, 18, 122, 143, 177, 78, 133, 195, 3, 4.0964
260, 1, wb, filler, NA, 999, 999, 6, 18, 122, 143, 177, 78, 133, 195, 2, 1.10653
260, 1, wb, filler, NA, 999, 999, 6, 19, 181, 107, 93, 116, 188, 160, 2, 2.16398
260, 1, wb, filler, NA, 999, 999, 6, 19, 181, 107, 93, 116, 188, 160, 3, 0.292091
260, 1, wb, attraction, a-b-da, 14, 3, 6, 20, 181, 111, 195, 120, 120, 195, 3, 1.00585
260, 1, wb, attraction, a-b-da, 14, 3, 6, 20, 181, 111, 195, 120, 120, 195, 2, 0.564147
260, 1, wb, attraction, a-b-db, 2, 3, 6, 21, 195, 120, 120, 195, 119, 193, 2, 1.90725
260, 1, wb, attraction, a-b-db, 2, 3, 6, 21, 195, 120, 120, 195, 119, 193, 1, 0.397281
260, 1, wb, attraction, a-b-da, 14, 2, 6, 22, 90, 165, 165, 90, 153, 83, 1, 0.8991
260, 1, wb, attraction, a-b-da, 14, 2, 6, 22, 90, 165, 165, 90, 153, 83, 2, 0.574156
260, 1, wb, filler, NA, 999, 999, 6, 23, 155, 169, 145, 125, 137, 86, 3, 1.06059
260, 1, wb, filler, NA, 999, 999, 6, 23, 155, 169, 145, 125, 137, 86, 1, 0.640838
260, 1, wb, filler, NA, 999, 999, 6, 24, 181, 112, 113, 194, 166, 147, 2, 1.88463
260, 1, wb, filler, NA, 999, 999, 6, 24, 181, 112, 113, 194, 166, 147, 1, 0.304093
260, 1, wb, filler, NA, 999, 999, 6, 25, 161, 173, 154, 113, 115, 174, 3, 1.60998
260, 1, wb, filler, NA, 999, 999, 6, 25, 161, 173, 154, 113, 115, 174, 1, 0.471998
260, 1, wb, attraction, a-b-da, 9, 2, 6, 26, 90, 165, 165, 90, 157, 86, 1, 1.60314
260, 1, wb, attraction, a-b-da, 9, 2, 6, 26, 90, 165, 165, 90, 157, 86, 2, 0.689925
260, 1, wb, filler, NA, 999, 999, 6, 27, 140, 128, 109, 161, 148, 194, 2, 1.05163
260, 1, wb, filler, NA, 999, 999, 6, 27, 140, 128, 109, 161, 148, 194, 3, 0.336667
260, 1, wb, attraction, a-b-da, 2, 2, 6, 28, 90, 165, 165, 90, 163, 89, 1, 1.27314
260, 1, wb, attraction, a-b-da, 2, 2, 6, 28, 90, 165, 165, 90, 163, 89, 2, 0.260714
260, 1, wb, attraction, a-b-db, 9, 2, 6, 29, 90, 165, 165, 90, 86, 157, 3, 0.703889
260, 1, wb, attraction, a-b-db, 9, 2, 6, 29, 90, 165, 165, 90, 86, 157, 2, 0.250971
260, 1, wb, attraction, a-b-da, 14, 1, 6, 30, 135, 60, 125, 56, 60, 135, 3, 2.07089
260, 1, wb, attraction, a-b-da, 14, 1, 6, 30, 135, 60, 125, 56, 60, 135, 1, 1.12294
260, 1, wb, catch, NA, 999, 999, 6, 31, 141, 114, 63, 132, 168, 147, 2, 1.00385
260, 1, wb, catch, NA, 999, 999, 6, 31, 141, 114, 63, 132, 168, 147, 3, 0.627258
260, 1, wb, attraction, a-b-db, 2, 1, 6, 32, 60, 135, 135, 60, 59, 134, 1, 1.39115
260, 1, wb, attraction, a-b-db, 2, 1, 6, 32, 60, 135, 135, 60, 59, 134, 2, 0.374164
260, 1, wb, attraction, a-b-db, 5, 3, 6, 33, 117, 190, 195, 120, 120, 195, 3, 1.4846
260, 1, wb, attraction, a-b-db, 5, 3, 6, 33, 117, 190, 195, 120, 120, 195, 2, 0.264209
260, 1, wb, attraction, a-b-da, 5, 2, 6, 34, 90, 165, 165, 90, 161, 88, 1, 1.47532
260, 1, wb, attraction, a-b-da, 5, 2, 6, 34, 90, 165, 165, 90, 161, 88, 3, 0.302776
260, 1, wb, attraction, a-b-da, 9, 1, 6, 35, 60, 135, 135, 60, 129, 57, 1, 0.552671
260, 1, wb, attraction, a-b-da, 9, 1, 6, 35, 60, 135, 135, 60, 129, 57, 3, 0.385742
260, 1, wb, filler, NA, 999, 999, 6, 36, 60, 113, 104, 81, 117, 126, 1, 0.760184
260, 1, wb, filler, NA, 999, 999, 6, 36, 60, 113, 104, 81, 117, 126, 3, 0.816876
260, 1, wb, attraction, a-b-db, 5, 1, 6, 37, 58, 132, 60, 135, 135, 60, 1, 1.1656
260, 1, wb, attraction, a-b-db, 5, 1, 6, 37, 58, 132, 60, 135, 135, 60, 3, 0.581919
260, 1, wb, attraction, a-b-da, 5, 3, 7, 1, 190, 117, 120, 195, 195, 120, 1, 1.70043
260, 1, wb, attraction, a-b-da, 5, 3, 7, 1, 190, 117, 120, 195, 195, 120, 2, 0.263117
260, 1, wb, attraction, a-b-db, 14, 1, 7, 2, 56, 125, 135, 60, 60, 135, 1, 0.722345
260, 1, wb, attraction, a-b-db, 14, 1, 7, 2, 56, 125, 135, 60, 60, 135, 2, 0.508069
260, 1, wb, attraction, a-b-da, 14, 1, 7, 3, 125, 56, 60, 135, 135, 60, 1, 0.621293
260, 1, wb, attraction, a-b-da, 14, 1, 7, 3, 125, 56, 60, 135, 135, 60, 2, 0.37167
260, 1, wb, filler, NA, 999, 999, 7, 4, 167, 138, 135, 119, 192, 187, 3, 3.59491
260, 1, wb, filler, NA, 999, 999, 7, 4, 167, 138, 135, 119, 192, 187, 1, 5.56896
260, 1, wb, attraction, a-b-db, 5, 2, 7, 5, 88, 161, 165, 90, 90, 165, 1, 0.790465
260, 1, wb, attraction, a-b-db, 5, 2, 7, 5, 88, 161, 165, 90, 90, 165, 2, 0.28561
260, 1, wb, attraction, a-b-db, 14, 3, 7, 6, 120, 195, 195, 120, 111, 181, 1, 0.560044
260, 1, wb, attraction, a-b-db, 14, 3, 7, 6, 120, 195, 195, 120, 111, 181, 2, 0.312667
260, 1, wb, attraction, a-b-da, 2, 2, 7, 7, 165, 90, 163, 89, 90, 165, 3, 0.96173
260, 1, wb, attraction, a-b-da, 2, 2, 7, 7, 165, 90, 163, 89, 90, 165, 2, 0.498178
260, 1, wb, attraction, a-b-da, 5, 1, 7, 8, 60, 135, 132, 58, 135, 60, 1, 0.627943
260, 1, wb, attraction, a-b-da, 5, 1, 7, 8, 60, 135, 132, 58, 135, 60, 3, 0.521778
260, 1, wb, filler, NA, 999, 999, 7, 9, 143, 128, 137, 123, 101, 69, 3, 0.850768
260, 1, wb, filler, NA, 999, 999, 7, 9, 143, 128, 137, 123, 101, 69, 1, 0.903807
260, 1, wb, filler, NA, 999, 999, 7, 10, 64, 155, 123, 152, 175, 119, 1, 1.00938
260, 1, wb, filler, NA, 999, 999, 7, 10, 64, 155, 123, 152, 175, 119, 3, 0.38393
260, 1, wb, attraction, a-b-da, 9, 2, 7, 11, 157, 86, 165, 90, 90, 165, 3, 1.11035
260, 1, wb, attraction, a-b-da, 9, 2, 7, 11, 157, 86, 165, 90, 90, 165, 1, 0.680558
260, 1, wb, attraction, a-b-db, 14, 2, 7, 12, 165, 90, 90, 165, 83, 153, 1, 1.48292
260, 1, wb, attraction, a-b-db, 14, 2, 7, 12, 165, 90, 90, 165, 83, 153, 2, 1.47046
260, 1, wb, filler, NA, 999, 999, 7, 13, 118, 57, 193, 156, 173, 85, 1, 0.673253
260, 1, wb, filler, NA, 999, 999, 7, 13, 118, 57, 193, 156, 173, 85, 2, 0.332961
260, 1, wb, filler, NA, 999, 999, 7, 14, 125, 155, 64, 57, 75, 73, 2, 0.90166
260, 1, wb, filler, NA, 999, 999, 7, 14, 125, 155, 64, 57, 75, 73, 1, 0.744503
260, 1, wb, attraction, a-b-da, 2, 1, 7, 15, 60, 135, 134, 59, 135, 60, 1, 0.944267
260, 1, wb, attraction, a-b-da, 2, 1, 7, 15, 60, 135, 134, 59, 135, 60, 2, 0.361289
260, 1, wb, attraction, a-b-db, 2, 2, 7, 16, 165, 90, 90, 165, 89, 163, 2, 0.74448
260, 1, wb, attraction, a-b-db, 2, 2, 7, 16, 165, 90, 90, 165, 89, 163, 1, 0.353523
260, 1, wb, attraction, a-b-da, 14, 2, 7, 17, 165, 90, 90, 165, 153, 83, 2, 0.633307
260, 1, wb, attraction, a-b-da, 14, 2, 7, 17, 165, 90, 90, 165, 153, 83, 1, 0.503177
260, 1, wb, filler, NA, 999, 999, 7, 18, 63, 192, 141, 139, 92, 180, 1, 0.744881
260, 1, wb, filler, NA, 999, 999, 7, 18, 63, 192, 141, 139, 92, 180, 2, 0.658004
260, 1, wb, attraction, a-b-db, 9, 2, 7, 19, 86, 157, 165, 90, 90, 165, 1, 0.661064
260, 1, wb, attraction, a-b-db, 9, 2, 7, 19, 86, 157, 165, 90, 90, 165, 2, 0.569442
260, 1, wb, attraction, a-b-db, 9, 3, 7, 20, 114, 186, 120, 195, 195, 120, 1, 1.36075
260, 1, wb, attraction, a-b-db, 9, 3, 7, 20, 114, 186, 120, 195, 195, 120, 3, 0.376867
260, 1, wb, filler, NA, 999, 999, 7, 21, 120, 117, 101, 156, 141, 67, 1, 0.807264
260, 1, wb, filler, NA, 999, 999, 7, 21, 120, 117, 101, 156, 141, 67, 3, 1.6537
260, 1, wb, attraction, a-b-da, 9, 3, 7, 22, 195, 120, 120, 195, 186, 114, 1, 2.20913
260, 1, wb, attraction, a-b-da, 9, 3, 7, 22, 195, 120, 120, 195, 186, 114, 2, 0.543043
260, 1, wb, attraction, a-b-db, 5, 1, 7, 23, 60, 135, 135, 60, 58, 132, 1, 1.63095
260, 1, wb, attraction, a-b-db, 5, 1, 7, 23, 60, 135, 135, 60, 58, 132, 2, 0.308314
260, 1, wb, catch, NA, 999, 999, 7, 24, 122, 133, 168, 147, 134, 61, 3, 7.1255
260, 1, wb, catch, NA, 999, 999, 7, 24, 122, 133, 168, 147, 134, 61, 2, 0.413306
260, 1, wb, attraction, a-b-da, 14, 3, 7, 25, 181, 111, 120, 195, 195, 120, 1, 1.16239
260, 1, wb, attraction, a-b-da, 14, 3, 7, 25, 181, 111, 120, 195, 195, 120, 2, 0.490564
260, 1, wb, catch, NA, 999, 999, 7, 26, 185, 130, 64, 131, 130, 125, 2, 1.41248
260, 1, wb, catch, NA, 999, 999, 7, 26, 185, 130, 64, 131, 130, 125, 1, 0.690639
260, 1, wb, attraction, a-b-db, 2, 3, 7, 27, 119, 193, 120, 195, 195, 120, 1, 1.98833
260, 1, wb, attraction, a-b-db, 2, 3, 7, 27, 119, 193, 120, 195, 195, 120, 3, 0.651053
260, 1, wb, attraction, a-b-db, 9, 1, 7, 28, 60, 135, 57, 129, 135, 60, 1, 1.31872
260, 1, wb, attraction, a-b-db, 9, 1, 7, 28, 60, 135, 57, 129, 135, 60, 3, 0.401016
260, 1, wb, attraction, a-b-da, 9, 1, 7, 29, 129, 57, 135, 60, 60, 135, 3, 2.51885
260, 1, wb, attraction, a-b-da, 9, 1, 7, 29, 129, 57, 135, 60, 60, 135, 2, 0.416705
260, 1, wb, attraction, a-b-da, 2, 3, 7, 30, 195, 120, 193, 119, 120, 195, 3, 0.877819
260, 1, wb, attraction, a-b-da, 2, 3, 7, 30, 195, 120, 193, 119, 120, 195, 2, 0.457542
260, 1, wb, attraction, a-b-da, 5, 2, 7, 31, 161, 88, 90, 165, 165, 90, 1, 0.812604
260, 1, wb, attraction, a-b-da, 5, 2, 7, 31, 161, 88, 90, 165, 165, 90, 2, 0.899168
260, 1, wb, filler, NA, 999, 999, 7, 32, 169, 83, 134, 98, 119, 128, 3, 2.7647
260, 1, wb, filler, NA, 999, 999, 7, 32, 169, 83, 134, 98, 119, 128, 1, 0.452609
260, 1, wb, catch, NA, 999, 999, 7, 33, 68, 127, 168, 147, 127, 128, 1, 0.896211
260, 1, wb, catch, NA, 999, 999, 7, 33, 68, 127, 168, 147, 127, 128, 2, 0.411294
260, 1, wb, attraction, a-b-db, 5, 3, 7, 34, 117, 190, 120, 195, 195, 120, 1, 1.96841
260, 1, wb, attraction, a-b-db, 5, 3, 7, 34, 117, 190, 120, 195, 195, 120, 3, 0.368523
260, 1, wb, filler, NA, 999, 999, 7, 35, 94, 90, 127, 187, 195, 115, 1, 0.591791
260, 1, wb, filler, NA, 999, 999, 7, 35, 94, 90, 127, 187, 195, 115, 3, 1.14282
260, 1, wb, attraction, a-b-db, 2, 1, 7, 36, 59, 134, 60, 135, 135, 60, 1, 1.19038
260, 1, wb, attraction, a-b-db, 2, 1, 7, 36, 59, 134, 60, 135, 135, 60, 3, 0.429319
260, 1, wb, filler, NA, 999, 999, 7, 37, 143, 77, 157, 162, 185, 134, 1, 3.5377
260, 1, wb, filler, NA, 999, 999, 7, 37, 143, 77, 157, 162, 185, 134, 2, 0.57068
260, 1, wb, attraction, a-b-da, 9, 3, 8, 1, 120, 195, 195, 120, 186, 114, 1, 2.78571
260, 1, wb, attraction, a-b-da, 9, 3, 8, 1, 120, 195, 195, 120, 186, 114, 2, 0.368833
260, 1, wb, attraction, a-b-db, 5, 1, 8, 2, 60, 135, 58, 132, 135, 60, 1, 0.735908
260, 1, wb, attraction, a-b-db, 5, 1, 8, 2, 60, 135, 58, 132, 135, 60, 3, 0.569837
260, 1, wb, attraction, a-b-db, 9, 1, 8, 3, 57, 129, 135, 60, 60, 135, 1, 0.64077
260, 1, wb, attraction, a-b-db, 9, 1, 8, 3, 57, 129, 135, 60, 60, 135, 2, 0.50195
260, 1, wb, attraction, a-b-da, 14, 1, 8, 4, 125, 56, 135, 60, 60, 135, 3, 0.903723
260, 1, wb, attraction, a-b-da, 14, 1, 8, 4, 125, 56, 135, 60, 60, 135, 2, 0.466784
260, 1, wb, attraction, a-b-db, 9, 2, 8, 5, 165, 90, 86, 157, 90, 165, 3, 1.12592
260, 1, wb, attraction, a-b-db, 9, 2, 8, 5, 165, 90, 86, 157, 90, 165, 1, 0.879522
260, 1, wb, attraction, a-b-da, 2, 3, 8, 6, 193, 119, 120, 195, 195, 120, 2, 1.15398
260, 1, wb, attraction, a-b-da, 2, 3, 8, 6, 193, 119, 120, 195, 195, 120, 3, 0.530744
260, 1, wb, filler, NA, 999, 999, 8, 7, 74, 98, 117, 182, 64, 146, 1, 0.643204
260, 1, wb, filler, NA, 999, 999, 8, 7, 74, 98, 117, 182, 64, 146, 2, 0.600301
260, 1, wb, attraction, a-b-da, 2, 1, 8, 8, 134, 59, 60, 135, 135, 60, 2, 1.48617
260, 1, wb, attraction, a-b-da, 2, 1, 8, 8, 134, 59, 60, 135, 135, 60, 1, 0.60154
260, 1, wb, filler, NA, 999, 999, 8, 9, 96, 137, 99, 78, 95, 81, 3, 2.70329
260, 1, wb, filler, NA, 999, 999, 8, 9, 96, 137, 99, 78, 95, 81, 1, 0.385769
260, 1, wb, catch, NA, 999, 999, 8, 10, 147, 108, 175, 140, 95, 100, 3, 0.760254
260, 1, wb, catch, NA, 999, 999, 8, 10, 147, 108, 175, 140, 95, 100, 2, 0.448708
260, 1, wb, attraction, a-b-db, 5, 3, 8, 11, 120, 195, 195, 120, 117, 190, 1, 1.88445
260, 1, wb, attraction, a-b-db, 5, 3, 8, 11, 120, 195, 195, 120, 117, 190, 2, 0.287862
260, 1, wb, filler, NA, 999, 999, 8, 12, 56, 90, 192, 178, 159, 110, 1, 0.474336
260, 1, wb, filler, NA, 999, 999, 8, 12, 56, 90, 192, 178, 159, 110, 2, 0.334214
260, 1, wb, filler, NA, 999, 999, 8, 13, 124, 120, 61, 84, 63, 69, 3, 1.33481
260, 1, wb, filler, NA, 999, 999, 8, 13, 124, 120, 61, 84, 63, 69, 1, 0.328397
260, 1, wb, filler, NA, 999, 999, 8, 14, 101, 162, 181, 149, 74, 100, 3, 0.76881
260, 1, wb, filler, NA, 999, 999, 8, 14, 101, 162, 181, 149, 74, 100, 2, 0.697178
260, 1, wb, attraction, a-b-db, 2, 2, 8, 15, 90, 165, 89, 163, 165, 90, 2, 2.22689
260, 1, wb, attraction, a-b-db, 2, 2, 8, 15, 90, 165, 89, 163, 165, 90, 3, 0.280186
260, 1, wb, filler, NA, 999, 999, 8, 16, 137, 138, 105, 171, 111, 143, 3, 3.74673
260, 1, wb, filler, NA, 999, 999, 8, 16, 137, 138, 105, 171, 111, 143, 1, 0.450875
260, 1, wb, attraction, a-b-da, 14, 3, 8, 17, 181, 111, 120, 195, 195, 120, 2, 1.33463
260, 1, wb, attraction, a-b-da, 14, 3, 8, 17, 181, 111, 120, 195, 195, 120, 3, 0.416202
260, 1, wb, attraction, a-b-da, 9, 2, 8, 18, 157, 86, 90, 165, 165, 90, 2, 0.885337
260, 1, wb, attraction, a-b-da, 9, 2, 8, 18, 157, 86, 90, 165, 165, 90, 3, 0.985061
260, 1, wb, catch, NA, 999, 999, 8, 19, 124, 191, 116, 139, 89, 106, 3, 0.703313
260, 1, wb, catch, NA, 999, 999, 8, 19, 124, 191, 116, 139, 89, 106, 1, 0.274394
260, 1, wb, attraction, a-b-db, 5, 2, 8, 20, 165, 90, 88, 161, 90, 165, 2, 3.60512
260, 1, wb, attraction, a-b-db, 5, 2, 8, 20, 165, 90, 88, 161, 90, 165, 1, 0.358082
260, 1, wb, filler, NA, 999, 999, 8, 21, 149, 178, 82, 90, 157, 68, 2, 0.602326
260, 1, wb, filler, NA, 999, 999, 8, 21, 149, 178, 82, 90, 157, 68, 1, 0.281424
260, 1, wb, attraction, a-b-da, 2, 2, 8, 22, 90, 165, 165, 90, 163, 89, 1, 1.60411
260, 1, wb, attraction, a-b-da, 2, 2, 8, 22, 90, 165, 165, 90, 163, 89, 2, 0.250704
260, 1, wb, attraction, a-b-da, 5, 2, 8, 23, 161, 88, 165, 90, 90, 165, 3, 0.9986
260, 1, wb, attraction, a-b-da, 5, 2, 8, 23, 161, 88, 165, 90, 90, 165, 1, 0.301594
260, 1, wb, filler, NA, 999, 999, 8, 24, 71, 61, 162, 112, 157, 65, 1, 0.775432
260, 1, wb, filler, NA, 999, 999, 8, 24, 71, 61, 162, 112, 157, 65, 2, 0.231158
260, 1, wb, attraction, a-b-db, 2, 3, 8, 25, 120, 195, 119, 193, 195, 120, 3, 0.715795
260, 1, wb, attraction, a-b-db, 2, 3, 8, 25, 120, 195, 119, 193, 195, 120, 2, 1.09412
260, 1, wb, attraction, a-b-da, 14, 2, 8, 26, 165, 90, 153, 83, 90, 165, 3, 2.01572
260, 1, wb, attraction, a-b-da, 14, 2, 8, 26, 165, 90, 153, 83, 90, 165, 2, 0.509774
260, 1, wb, attraction, a-b-db, 2, 1, 8, 27, 135, 60, 59, 134, 60, 135, 2, 1.35086
260, 1, wb, attraction, a-b-db, 2, 1, 8, 27, 135, 60, 59, 134, 60, 135, 1, 0.479783
260, 1, wb, attraction, a-b-db, 14, 3, 8, 28, 111, 181, 120, 195, 195, 120, 1, 0.538191
260, 1, wb, attraction, a-b-db, 14, 3, 8, 28, 111, 181, 120, 195, 195, 120, 3, 0.315417
260, 1, wb, attraction, a-b-db, 14, 1, 8, 29, 135, 60, 56, 125, 60, 135, 2, 0.924457
260, 1, wb, attraction, a-b-db, 14, 1, 8, 29, 135, 60, 56, 125, 60, 135, 1, 0.37414
260, 1, wb, attraction, a-b-da, 9, 1, 8, 30, 60, 135, 135, 60, 129, 57, 1, 1.46081
260, 1, wb, attraction, a-b-da, 9, 1, 8, 30, 60, 135, 135, 60, 129, 57, 3, 0.432907
260, 1, wb, catch, NA, 999, 999, 8, 31, 137, 118, 92, 103, 126, 189, 2, 1.38138
260, 1, wb, catch, NA, 999, 999, 8, 31, 137, 118, 92, 103, 126, 189, 3, 0.308794
260, 1, wb, attraction, a-b-db, 14, 2, 8, 32, 83, 153, 90, 165, 165, 90, 1, 0.974057
260, 1, wb, attraction, a-b-db, 14, 2, 8, 32, 83, 153, 90, 165, 165, 90, 3, 0.597997
260, 1, wb, attraction, a-b-da, 5, 1, 8, 33, 60, 135, 132, 58, 135, 60, 1, 1.75568
260, 1, wb, attraction, a-b-da, 5, 1, 8, 33, 60, 135, 132, 58, 135, 60, 2, 0.347693
260, 1, wb, attraction, a-b-db, 9, 3, 8, 34, 195, 120, 120, 195, 114, 186, 2, 1.51544
260, 1, wb, attraction, a-b-db, 9, 3, 8, 34, 195, 120, 120, 195, 114, 186, 1, 0.405562
260, 1, wb, filler, NA, 999, 999, 8, 35, 121, 158, 170, 178, 139, 64, 3, 1.93952
260, 1, wb, filler, NA, 999, 999, 8, 35, 121, 158, 170, 178, 139, 64, 2, 0.444081
260, 1, wb, attraction, a-b-da, 5, 3, 8, 36, 120, 195, 195, 120, 190, 117, 1, 1.89598
260, 1, wb, attraction, a-b-da, 5, 3, 8, 36, 120, 195, 195, 120, 190, 117, 2, 0.474816
260, 1, wb, filler, NA, 999, 999, 8, 37, 125, 75, 82, 96, 115, 182, 2, 1.73315
260, 1, wb, filler, NA, 999, 999, 8, 37, 125, 75, 82, 96, 115, 182, 3, 0.998497
