sub_n, computer_n, bw_cond, effect, set, distance, diag, block_n, trial_n, h1, w1, h2, w2, h3, w3, choice, rt 
208, 1, wb, practice, NA, 999, 999, 0, 1, 69, 145, 87, 69, 177, 152, 2, 3.85821
208, 1, wb, practice, NA, 999, 999, 0, 1, 69, 145, 87, 69, 177, 152, 3, 5.18778
208, 1, wb, practice, NA, 999, 999, 0, 2, 167, 66, 172, 177, 172, 85, 1, 4.7734
208, 1, wb, practice, NA, 999, 999, 0, 2, 167, 66, 172, 177, 172, 85, 2, 1.74252
208, 1, wb, practice, NA, 999, 999, 0, 3, 143, 167, 170, 118, 191, 158, 2, 7.74522
208, 1, wb, practice, NA, 999, 999, 0, 3, 143, 167, 170, 118, 191, 158, 3, 2.34648
208, 1, wb, attraction, a-b-db, 14, 2, 1, 1, 165, 90, 90, 165, 83, 153, 3, 5.37217
208, 1, wb, attraction, a-b-db, 14, 2, 1, 1, 165, 90, 90, 165, 83, 153, 1, 3.08319
208, 1, wb, attraction, a-b-da, 14, 2, 1, 2, 165, 90, 90, 165, 153, 83, 3, 1.31689
208, 1, wb, attraction, a-b-da, 14, 2, 1, 2, 165, 90, 90, 165, 153, 83, 2, 1.94304
208, 1, wb, filler, NA, 999, 999, 1, 3, 181, 174, 166, 73, 190, 194, 2, 0.862293
208, 1, wb, filler, NA, 999, 999, 1, 3, 181, 174, 166, 73, 190, 194, 3, 2.01076
208, 1, wb, attraction, a-b-da, 14, 1, 1, 4, 135, 60, 125, 56, 60, 135, 2, 1.97542
208, 1, wb, attraction, a-b-da, 14, 1, 1, 4, 135, 60, 125, 56, 60, 135, 3, 2.03878
208, 1, wb, attraction, a-b-db, 9, 2, 1, 5, 90, 165, 165, 90, 86, 157, 2, 39.6987
208, 1, wb, attraction, a-b-db, 9, 2, 1, 5, 90, 165, 165, 90, 86, 157, 3, 0.81031
208, 1, wb, attraction, a-b-db, 2, 2, 1, 6, 90, 165, 89, 163, 165, 90, 2, 6.8396
208, 1, wb, attraction, a-b-db, 2, 2, 1, 6, 90, 165, 89, 163, 165, 90, 3, 1.66714
208, 1, wb, attraction, a-b-db, 2, 3, 1, 7, 195, 120, 119, 193, 120, 195, 1, 8.94988
208, 1, wb, attraction, a-b-db, 2, 3, 1, 7, 195, 120, 119, 193, 120, 195, 3, 1.70042
208, 1, wb, attraction, a-b-db, 14, 3, 1, 8, 195, 120, 111, 181, 120, 195, 1, 5.44593
208, 1, wb, attraction, a-b-db, 14, 3, 1, 8, 195, 120, 111, 181, 120, 195, 3, 0.64938
208, 1, wb, attraction, a-b-da, 5, 1, 1, 9, 60, 135, 132, 58, 135, 60, 2, 6.3491
208, 1, wb, attraction, a-b-da, 5, 1, 1, 9, 60, 135, 132, 58, 135, 60, 1, 0.740451
208, 1, wb, attraction, a-b-da, 9, 3, 1, 10, 186, 114, 195, 120, 120, 195, 1, 1.30814
208, 1, wb, attraction, a-b-da, 9, 3, 1, 10, 186, 114, 195, 120, 120, 195, 2, 0.766387
208, 1, wb, attraction, a-b-db, 2, 1, 1, 11, 60, 135, 59, 134, 135, 60, 1, 2.00537
208, 1, wb, attraction, a-b-db, 2, 1, 1, 11, 60, 135, 59, 134, 135, 60, 3, 4.29965
208, 1, wb, filler, NA, 999, 999, 1, 12, 133, 102, 70, 131, 173, 88, 2, 1.26808
208, 1, wb, filler, NA, 999, 999, 1, 12, 133, 102, 70, 131, 173, 88, 1, 3.07237
208, 1, wb, attraction, a-b-da, 2, 2, 1, 13, 90, 165, 163, 89, 165, 90, 2, 4.38684
208, 1, wb, attraction, a-b-da, 2, 2, 1, 13, 90, 165, 163, 89, 165, 90, 1, 0.545156
208, 1, wb, filler, NA, 999, 999, 1, 14, 168, 70, 69, 166, 194, 157, 1, 1.40894
208, 1, wb, filler, NA, 999, 999, 1, 14, 168, 70, 69, 166, 194, 157, 3, 1.2152
208, 1, wb, filler, NA, 999, 999, 1, 15, 83, 118, 146, 132, 166, 115, 1, 0.924151
208, 1, wb, filler, NA, 999, 999, 1, 15, 83, 118, 146, 132, 166, 115, 2, 3.02986
208, 1, wb, attraction, a-b-da, 14, 3, 1, 16, 195, 120, 181, 111, 120, 195, 2, 2.32139
208, 1, wb, attraction, a-b-da, 14, 3, 1, 16, 195, 120, 181, 111, 120, 195, 3, 0.523341
208, 1, wb, catch, NA, 999, 999, 1, 17, 104, 151, 79, 116, 160, 155, 2, 1.10768
208, 1, wb, catch, NA, 999, 999, 1, 17, 104, 151, 79, 116, 160, 155, 3, 0.574098
208, 1, wb, attraction, a-b-da, 5, 3, 1, 18, 195, 120, 190, 117, 120, 195, 1, 3.61493
208, 1, wb, attraction, a-b-da, 5, 3, 1, 18, 195, 120, 190, 117, 120, 195, 3, 1.76204
208, 1, wb, attraction, a-b-da, 9, 2, 1, 19, 157, 86, 90, 165, 165, 90, 1, 1.06477
208, 1, wb, attraction, a-b-da, 9, 2, 1, 19, 157, 86, 90, 165, 165, 90, 3, 1.82106
208, 1, wb, filler, NA, 999, 999, 1, 20, 76, 172, 193, 120, 146, 131, 1, 1.1299
208, 1, wb, filler, NA, 999, 999, 1, 20, 76, 172, 193, 120, 146, 131, 2, 1.38749
208, 1, wb, attraction, a-b-db, 9, 1, 1, 21, 57, 129, 60, 135, 135, 60, 2, 1.1856
208, 1, wb, attraction, a-b-db, 9, 1, 1, 21, 57, 129, 60, 135, 135, 60, 3, 0.68107
208, 1, wb, attraction, a-b-db, 5, 2, 1, 22, 88, 161, 90, 165, 165, 90, 1, 9.65954
208, 1, wb, attraction, a-b-db, 5, 2, 1, 22, 88, 161, 90, 165, 165, 90, 3, 0.693157
208, 1, wb, attraction, a-b-db, 5, 1, 1, 23, 60, 135, 135, 60, 58, 132, 2, 2.89499
208, 1, wb, attraction, a-b-db, 5, 1, 1, 23, 60, 135, 135, 60, 58, 132, 1, 7.32126
208, 1, wb, attraction, a-b-da, 9, 1, 1, 24, 60, 135, 135, 60, 129, 57, 3, 2.76823
208, 1, wb, attraction, a-b-da, 9, 1, 1, 24, 60, 135, 135, 60, 129, 57, 1, 0.736088
208, 1, wb, filler, NA, 999, 999, 1, 25, 185, 120, 154, 99, 141, 193, 2, 0.808441
208, 1, wb, filler, NA, 999, 999, 1, 25, 185, 120, 154, 99, 141, 193, 3, 0.694862
208, 1, wb, filler, NA, 999, 999, 1, 26, 89, 110, 68, 102, 189, 102, 2, 1.22452
208, 1, wb, filler, NA, 999, 999, 1, 26, 89, 110, 68, 102, 189, 102, 3, 0.814068
208, 1, wb, filler, NA, 999, 999, 1, 27, 180, 192, 80, 110, 169, 135, 2, 0.731169
208, 1, wb, filler, NA, 999, 999, 1, 27, 180, 192, 80, 110, 169, 135, 1, 0.796834
208, 1, wb, attraction, a-b-db, 5, 3, 1, 28, 120, 195, 117, 190, 195, 120, 1, 1.76255
208, 1, wb, attraction, a-b-db, 5, 3, 1, 28, 120, 195, 117, 190, 195, 120, 2, 2.90669
208, 1, wb, attraction, a-b-da, 2, 1, 1, 29, 134, 59, 135, 60, 60, 135, 1, 2.50773
208, 1, wb, attraction, a-b-da, 2, 1, 1, 29, 134, 59, 135, 60, 60, 135, 2, 1.26151
208, 1, wb, attraction, a-b-da, 2, 3, 1, 30, 120, 195, 193, 119, 195, 120, 1, 1.8449
208, 1, wb, attraction, a-b-da, 2, 3, 1, 30, 120, 195, 193, 119, 195, 120, 2, 1.66922
208, 1, wb, catch, NA, 999, 999, 1, 31, 104, 151, 184, 131, 116, 79, 3, 1.31197
208, 1, wb, catch, NA, 999, 999, 1, 31, 104, 151, 184, 131, 116, 79, 2, 0.946117
208, 1, wb, attraction, a-b-db, 14, 1, 1, 32, 135, 60, 56, 125, 60, 135, 2, 1.55386
208, 1, wb, attraction, a-b-db, 14, 1, 1, 32, 135, 60, 56, 125, 60, 135, 3, 0.738573
208, 1, wb, attraction, a-b-db, 9, 3, 1, 33, 120, 195, 114, 186, 195, 120, 3, 4.23498
208, 1, wb, attraction, a-b-db, 9, 3, 1, 33, 120, 195, 114, 186, 195, 120, 1, 0.575741
208, 1, wb, attraction, a-b-da, 5, 2, 1, 34, 161, 88, 90, 165, 165, 90, 1, 1.57416
208, 1, wb, attraction, a-b-da, 5, 2, 1, 34, 161, 88, 90, 165, 165, 90, 2, 1.54956
208, 1, wb, filler, NA, 999, 999, 1, 35, 163, 186, 157, 183, 110, 130, 3, 0.853035
208, 1, wb, filler, NA, 999, 999, 1, 35, 163, 186, 157, 183, 110, 130, 1, 0.762134
208, 1, wb, filler, NA, 999, 999, 1, 36, 100, 170, 101, 79, 153, 133, 2, 0.937084
208, 1, wb, filler, NA, 999, 999, 1, 36, 100, 170, 101, 79, 153, 133, 3, 0.706855
208, 1, wb, catch, NA, 999, 999, 1, 37, 148, 167, 145, 110, 120, 75, 3, 0.867849
208, 1, wb, catch, NA, 999, 999, 1, 37, 148, 167, 145, 110, 120, 75, 1, 0.640203
208, 1, wb, attraction, a-b-da, 5, 3, 2, 1, 120, 195, 190, 117, 195, 120, 1, 2.93193
208, 1, wb, attraction, a-b-da, 5, 3, 2, 1, 120, 195, 190, 117, 195, 120, 3, 2.38899
208, 1, wb, attraction, a-b-da, 2, 2, 2, 2, 163, 89, 90, 165, 165, 90, 1, 1.4429
208, 1, wb, attraction, a-b-da, 2, 2, 2, 2, 163, 89, 90, 165, 165, 90, 2, 1.1279
208, 1, wb, filler, NA, 999, 999, 2, 3, 93, 127, 188, 69, 174, 107, 1, 0.879941
208, 1, wb, filler, NA, 999, 999, 2, 3, 93, 127, 188, 69, 174, 107, 3, 0.899719
208, 1, wb, filler, NA, 999, 999, 2, 4, 167, 82, 86, 156, 72, 60, 3, 0.989445
208, 1, wb, filler, NA, 999, 999, 2, 4, 167, 82, 86, 156, 72, 60, 2, 1.09238
208, 1, wb, attraction, a-b-db, 5, 1, 2, 5, 58, 132, 60, 135, 135, 60, 1, 1.81399
208, 1, wb, attraction, a-b-db, 5, 1, 2, 5, 58, 132, 60, 135, 135, 60, 2, 1.22798
208, 1, wb, attraction, a-b-db, 14, 1, 2, 6, 135, 60, 60, 135, 56, 125, 3, 2.29627
208, 1, wb, attraction, a-b-db, 14, 1, 2, 6, 135, 60, 60, 135, 56, 125, 1, 1.4428
208, 1, wb, attraction, a-b-db, 2, 1, 2, 7, 135, 60, 60, 135, 59, 134, 1, 2.67834
208, 1, wb, attraction, a-b-db, 2, 1, 2, 7, 135, 60, 60, 135, 59, 134, 3, 0.809416
208, 1, wb, filler, NA, 999, 999, 2, 8, 93, 84, 163, 143, 190, 182, 1, 0.662469
208, 1, wb, filler, NA, 999, 999, 2, 8, 93, 84, 163, 143, 190, 182, 3, 0.474913
208, 1, wb, filler, NA, 999, 999, 2, 9, 90, 95, 93, 78, 180, 193, 2, 2.8373
208, 1, wb, filler, NA, 999, 999, 2, 9, 90, 95, 93, 78, 180, 193, 3, 0.922525
208, 1, wb, attraction, a-b-da, 9, 3, 2, 10, 195, 120, 186, 114, 120, 195, 2, 2.4515
208, 1, wb, attraction, a-b-da, 9, 3, 2, 10, 195, 120, 186, 114, 120, 195, 1, 0.703994
208, 1, wb, filler, NA, 999, 999, 2, 11, 56, 165, 104, 99, 157, 158, 2, 0.66583
208, 1, wb, filler, NA, 999, 999, 2, 11, 56, 165, 104, 99, 157, 158, 3, 0.45417
208, 1, wb, filler, NA, 999, 999, 2, 12, 195, 159, 162, 145, 187, 181, 2, 0.8259
208, 1, wb, filler, NA, 999, 999, 2, 12, 195, 159, 162, 145, 187, 181, 3, 0.943651
208, 1, wb, attraction, a-b-da, 5, 2, 2, 13, 161, 88, 90, 165, 165, 90, 1, 0.583194
208, 1, wb, attraction, a-b-da, 5, 2, 2, 13, 161, 88, 90, 165, 165, 90, 2, 2.02306
208, 1, wb, attraction, a-b-da, 5, 1, 2, 14, 132, 58, 135, 60, 60, 135, 2, 9.4997
208, 1, wb, attraction, a-b-da, 5, 1, 2, 14, 132, 58, 135, 60, 60, 135, 3, 1.316
208, 1, wb, catch, NA, 999, 999, 2, 15, 184, 131, 123, 72, 100, 155, 2, 0.917065
208, 1, wb, catch, NA, 999, 999, 2, 15, 184, 131, 123, 72, 100, 155, 1, 0.607357
208, 1, wb, attraction, a-b-db, 5, 2, 2, 16, 90, 165, 165, 90, 88, 161, 2, 3.70042
208, 1, wb, attraction, a-b-db, 5, 2, 2, 16, 90, 165, 165, 90, 88, 161, 1, 0.790452
208, 1, wb, catch, NA, 999, 999, 2, 17, 145, 110, 60, 135, 153, 162, 2, 0.588266
208, 1, wb, catch, NA, 999, 999, 2, 17, 145, 110, 60, 135, 153, 162, 3, 0.483315
208, 1, wb, attraction, a-b-db, 5, 3, 2, 18, 117, 190, 120, 195, 195, 120, 1, 0.709727
208, 1, wb, attraction, a-b-db, 5, 3, 2, 18, 117, 190, 120, 195, 195, 120, 2, 0.640124
208, 1, wb, attraction, a-b-db, 14, 3, 2, 19, 120, 195, 111, 181, 195, 120, 2, 0.915967
208, 1, wb, attraction, a-b-db, 14, 3, 2, 19, 120, 195, 111, 181, 195, 120, 1, 2.56631
208, 1, wb, attraction, a-b-da, 2, 1, 2, 20, 134, 59, 135, 60, 60, 135, 2, 1.26872
208, 1, wb, attraction, a-b-da, 2, 1, 2, 20, 134, 59, 135, 60, 60, 135, 3, 3.01699
208, 1, wb, attraction, a-b-da, 9, 1, 2, 21, 129, 57, 135, 60, 60, 135, 1, 2.23735
208, 1, wb, attraction, a-b-da, 9, 1, 2, 21, 129, 57, 135, 60, 60, 135, 2, 0.922637
208, 1, wb, attraction, a-b-da, 14, 2, 2, 22, 90, 165, 165, 90, 153, 83, 3, 3.38763
208, 1, wb, attraction, a-b-da, 14, 2, 2, 22, 90, 165, 165, 90, 153, 83, 1, 0.682649
208, 1, wb, filler, NA, 999, 999, 2, 23, 79, 170, 119, 70, 122, 194, 2, 0.924912
208, 1, wb, filler, NA, 999, 999, 2, 23, 79, 170, 119, 70, 122, 194, 3, 0.566569
208, 1, wb, attraction, a-b-da, 14, 1, 2, 24, 135, 60, 60, 135, 125, 56, 3, 2.0457
208, 1, wb, attraction, a-b-da, 14, 1, 2, 24, 135, 60, 60, 135, 125, 56, 2, 0.946388
208, 1, wb, catch, NA, 999, 999, 2, 25, 99, 156, 179, 136, 101, 94, 3, 0.738045
208, 1, wb, catch, NA, 999, 999, 2, 25, 99, 156, 179, 136, 101, 94, 2, 0.555131
208, 1, wb, attraction, a-b-db, 9, 2, 2, 26, 86, 157, 165, 90, 90, 165, 1, 3.81085
208, 1, wb, attraction, a-b-db, 9, 2, 2, 26, 86, 157, 165, 90, 90, 165, 2, 0.87238
208, 1, wb, attraction, a-b-da, 14, 3, 2, 27, 120, 195, 181, 111, 195, 120, 2, 3.42736
208, 1, wb, attraction, a-b-da, 14, 3, 2, 27, 120, 195, 181, 111, 195, 120, 1, 0.696227
208, 1, wb, attraction, a-b-da, 9, 2, 2, 28, 157, 86, 165, 90, 90, 165, 1, 2.68992
208, 1, wb, attraction, a-b-da, 9, 2, 2, 28, 157, 86, 165, 90, 90, 165, 2, 0.852438
208, 1, wb, attraction, a-b-db, 2, 3, 2, 29, 119, 193, 195, 120, 120, 195, 1, 6.58419
208, 1, wb, attraction, a-b-db, 2, 3, 2, 29, 119, 193, 195, 120, 120, 195, 2, 0.813973
208, 1, wb, attraction, a-b-da, 2, 3, 2, 30, 193, 119, 120, 195, 195, 120, 1, 4.827
208, 1, wb, attraction, a-b-da, 2, 3, 2, 30, 193, 119, 120, 195, 195, 120, 2, 0.831593
208, 1, wb, filler, NA, 999, 999, 2, 31, 104, 182, 72, 141, 97, 124, 2, 0.771824
208, 1, wb, filler, NA, 999, 999, 2, 31, 104, 182, 72, 141, 97, 124, 1, 2.25958
208, 1, wb, filler, NA, 999, 999, 2, 32, 60, 106, 69, 162, 92, 153, 1, 0.774138
208, 1, wb, filler, NA, 999, 999, 2, 32, 60, 106, 69, 162, 92, 153, 3, 0.957827
208, 1, wb, filler, NA, 999, 999, 2, 33, 181, 91, 71, 174, 169, 138, 2, 2.52482
208, 1, wb, filler, NA, 999, 999, 2, 33, 181, 91, 71, 174, 169, 138, 3, 0.501979
208, 1, wb, attraction, a-b-db, 9, 3, 2, 34, 120, 195, 195, 120, 114, 186, 3, 2.01594
208, 1, wb, attraction, a-b-db, 9, 3, 2, 34, 120, 195, 195, 120, 114, 186, 1, 1.04584
208, 1, wb, attraction, a-b-db, 14, 2, 2, 35, 90, 165, 165, 90, 83, 153, 3, 3.37746
208, 1, wb, attraction, a-b-db, 14, 2, 2, 35, 90, 165, 165, 90, 83, 153, 1, 0.784336
208, 1, wb, attraction, a-b-db, 9, 1, 2, 36, 135, 60, 60, 135, 57, 129, 3, 1.84684
208, 1, wb, attraction, a-b-db, 9, 1, 2, 36, 135, 60, 60, 135, 57, 129, 2, 3.1075
208, 1, wb, attraction, a-b-db, 2, 2, 2, 37, 90, 165, 89, 163, 165, 90, 1, 1.9317
208, 1, wb, attraction, a-b-db, 2, 2, 2, 37, 90, 165, 89, 163, 165, 90, 2, 1.75707
208, 1, wb, attraction, a-b-da, 2, 3, 3, 1, 195, 120, 193, 119, 120, 195, 2, 36.0039
208, 1, wb, attraction, a-b-da, 2, 3, 3, 1, 195, 120, 193, 119, 120, 195, 3, 1.52797
208, 1, wb, attraction, a-b-da, 9, 2, 3, 2, 165, 90, 157, 86, 90, 165, 2, 1.58409
208, 1, wb, attraction, a-b-da, 9, 2, 3, 2, 165, 90, 157, 86, 90, 165, 3, 1.14351
208, 1, wb, attraction, a-b-db, 9, 2, 3, 3, 90, 165, 165, 90, 86, 157, 1, 1.05511
208, 1, wb, attraction, a-b-db, 9, 2, 3, 3, 90, 165, 165, 90, 86, 157, 2, 0.739399
208, 1, wb, attraction, a-b-da, 14, 3, 3, 4, 120, 195, 195, 120, 181, 111, 3, 1.32382
208, 1, wb, attraction, a-b-da, 14, 3, 3, 4, 120, 195, 195, 120, 181, 111, 1, 0.749344
208, 1, wb, attraction, a-b-db, 5, 3, 3, 5, 117, 190, 120, 195, 195, 120, 3, 2.20509
208, 1, wb, attraction, a-b-db, 5, 3, 3, 5, 117, 190, 120, 195, 195, 120, 2, 0.586954
208, 1, wb, attraction, a-b-da, 2, 2, 3, 6, 163, 89, 90, 165, 165, 90, 2, 1.07334
208, 1, wb, attraction, a-b-da, 2, 2, 3, 6, 163, 89, 90, 165, 165, 90, 3, 2.05299
208, 1, wb, attraction, a-b-da, 2, 1, 3, 7, 134, 59, 135, 60, 60, 135, 2, 1.84036
208, 1, wb, attraction, a-b-da, 2, 1, 3, 7, 134, 59, 135, 60, 60, 135, 3, 0.941092
208, 1, wb, attraction, a-b-da, 5, 2, 3, 8, 90, 165, 165, 90, 161, 88, 3, 1.24479
208, 1, wb, attraction, a-b-da, 5, 2, 3, 8, 90, 165, 165, 90, 161, 88, 1, 0.993704
208, 1, wb, catch, NA, 999, 999, 3, 9, 171, 144, 70, 125, 93, 162, 2, 0.775323
208, 1, wb, catch, NA, 999, 999, 3, 9, 171, 144, 70, 125, 93, 162, 1, 0.430947
208, 1, wb, filler, NA, 999, 999, 3, 10, 172, 91, 134, 129, 162, 67, 3, 0.907553
208, 1, wb, filler, NA, 999, 999, 3, 10, 172, 91, 134, 129, 162, 67, 2, 0.533801
208, 1, wb, attraction, a-b-db, 2, 2, 3, 11, 165, 90, 90, 165, 89, 163, 2, 2.28625
208, 1, wb, attraction, a-b-db, 2, 2, 3, 11, 165, 90, 90, 165, 89, 163, 1, 0.585549
208, 1, wb, filler, NA, 999, 999, 3, 12, 113, 110, 181, 72, 183, 91, 2, 4.31202
208, 1, wb, filler, NA, 999, 999, 3, 12, 113, 110, 181, 72, 183, 91, 1, 0.377203
208, 1, wb, catch, NA, 999, 999, 3, 13, 91, 104, 164, 91, 183, 132, 1, 1.39981
208, 1, wb, catch, NA, 999, 999, 3, 13, 91, 104, 164, 91, 183, 132, 3, 0.422565
208, 1, wb, attraction, a-b-db, 5, 2, 3, 14, 90, 165, 88, 161, 165, 90, 1, 4.61182
208, 1, wb, attraction, a-b-db, 5, 2, 3, 14, 90, 165, 88, 161, 165, 90, 2, 0.528907
208, 1, wb, filler, NA, 999, 999, 3, 15, 88, 122, 130, 92, 119, 161, 1, 2.13745
208, 1, wb, filler, NA, 999, 999, 3, 15, 88, 122, 130, 92, 119, 161, 3, 0.634676
208, 1, wb, attraction, a-b-db, 9, 3, 3, 16, 114, 186, 195, 120, 120, 195, 1, 1.30317
208, 1, wb, attraction, a-b-db, 9, 3, 3, 16, 114, 186, 195, 120, 120, 195, 3, 0.55412
208, 1, wb, attraction, a-b-db, 14, 1, 3, 17, 56, 125, 60, 135, 135, 60, 1, 1.0179
208, 1, wb, attraction, a-b-db, 14, 1, 3, 17, 56, 125, 60, 135, 135, 60, 2, 1.37616
208, 1, wb, filler, NA, 999, 999, 3, 18, 192, 90, 157, 128, 72, 175, 3, 1.43029
208, 1, wb, filler, NA, 999, 999, 3, 18, 192, 90, 157, 128, 72, 175, 2, 0.819898
208, 1, wb, catch, NA, 999, 999, 3, 19, 63, 132, 104, 151, 150, 165, 1, 0.824987
208, 1, wb, catch, NA, 999, 999, 3, 19, 63, 132, 104, 151, 150, 165, 3, 0.534565
208, 1, wb, attraction, a-b-db, 14, 3, 3, 20, 120, 195, 111, 181, 195, 120, 2, 4.55907
208, 1, wb, attraction, a-b-db, 14, 3, 3, 20, 120, 195, 111, 181, 195, 120, 1, 0.598252
208, 1, wb, filler, NA, 999, 999, 3, 21, 73, 157, 61, 63, 64, 115, 2, 1.04398
208, 1, wb, filler, NA, 999, 999, 3, 21, 73, 157, 61, 63, 64, 115, 1, 0.872974
208, 1, wb, attraction, a-b-db, 9, 1, 3, 22, 60, 135, 135, 60, 57, 129, 2, 2.99598
208, 1, wb, attraction, a-b-db, 9, 1, 3, 22, 60, 135, 135, 60, 57, 129, 1, 0.626373
208, 1, wb, filler, NA, 999, 999, 3, 23, 95, 133, 63, 176, 139, 108, 2, 3.47873
208, 1, wb, filler, NA, 999, 999, 3, 23, 95, 133, 63, 176, 139, 108, 3, 0.873536
208, 1, wb, attraction, a-b-da, 9, 1, 3, 24, 129, 57, 60, 135, 135, 60, 1, 1.01992
208, 1, wb, attraction, a-b-da, 9, 1, 3, 24, 129, 57, 60, 135, 135, 60, 2, 1.07427
208, 1, wb, filler, NA, 999, 999, 3, 25, 114, 171, 64, 70, 68, 140, 2, 0.796622
208, 1, wb, filler, NA, 999, 999, 3, 25, 114, 171, 64, 70, 68, 140, 1, 0.427523
208, 1, wb, attraction, a-b-db, 2, 3, 3, 26, 195, 120, 120, 195, 119, 193, 1, 3.63196
208, 1, wb, attraction, a-b-db, 2, 3, 3, 26, 195, 120, 120, 195, 119, 193, 3, 0.876841
208, 1, wb, attraction, a-b-da, 5, 1, 3, 27, 135, 60, 132, 58, 60, 135, 2, 3.70329
208, 1, wb, attraction, a-b-da, 5, 1, 3, 27, 135, 60, 132, 58, 60, 135, 3, 0.761493
208, 1, wb, attraction, a-b-da, 14, 2, 3, 28, 153, 83, 165, 90, 90, 165, 1, 1.66453
208, 1, wb, attraction, a-b-da, 14, 2, 3, 28, 153, 83, 165, 90, 90, 165, 2, 0.948563
208, 1, wb, attraction, a-b-db, 5, 1, 3, 29, 60, 135, 58, 132, 135, 60, 3, 2.15615
208, 1, wb, attraction, a-b-db, 5, 1, 3, 29, 60, 135, 58, 132, 135, 60, 1, 0.700093
208, 1, wb, filler, NA, 999, 999, 3, 30, 122, 135, 107, 124, 120, 144, 2, 3.02184
208, 1, wb, filler, NA, 999, 999, 3, 30, 122, 135, 107, 124, 120, 144, 3, 0.995605
208, 1, wb, attraction, a-b-db, 14, 2, 3, 31, 165, 90, 90, 165, 83, 153, 2, 3.20933
208, 1, wb, attraction, a-b-db, 14, 2, 3, 31, 165, 90, 90, 165, 83, 153, 1, 0.654808
208, 1, wb, attraction, a-b-db, 2, 1, 3, 32, 60, 135, 135, 60, 59, 134, 2, 0.978679
208, 1, wb, attraction, a-b-db, 2, 1, 3, 32, 60, 135, 135, 60, 59, 134, 1, 1.57028
208, 1, wb, attraction, a-b-da, 14, 1, 3, 33, 125, 56, 135, 60, 60, 135, 1, 2.22506
208, 1, wb, attraction, a-b-da, 14, 1, 3, 33, 125, 56, 135, 60, 60, 135, 3, 0.470301
208, 1, wb, attraction, a-b-da, 5, 3, 3, 34, 195, 120, 190, 117, 120, 195, 2, 2.62554
208, 1, wb, attraction, a-b-da, 5, 3, 3, 34, 195, 120, 190, 117, 120, 195, 1, 0.742701
208, 1, wb, attraction, a-b-da, 9, 3, 3, 35, 186, 114, 195, 120, 120, 195, 1, 3.84664
208, 1, wb, attraction, a-b-da, 9, 3, 3, 35, 186, 114, 195, 120, 120, 195, 3, 0.498326
208, 1, wb, filler, NA, 999, 999, 3, 36, 158, 59, 119, 187, 80, 63, 3, 0.948345
208, 1, wb, filler, NA, 999, 999, 3, 36, 158, 59, 119, 187, 80, 63, 2, 0.917249
208, 1, wb, filler, NA, 999, 999, 3, 37, 62, 82, 147, 104, 89, 87, 1, 1.15832
208, 1, wb, filler, NA, 999, 999, 3, 37, 62, 82, 147, 104, 89, 87, 2, 0.670451
208, 1, wb, attraction, a-b-db, 5, 3, 4, 1, 117, 190, 195, 120, 120, 195, 2, 5.63356
208, 1, wb, attraction, a-b-db, 5, 3, 4, 1, 117, 190, 195, 120, 120, 195, 1, 0.525773
208, 1, wb, attraction, a-b-da, 14, 3, 4, 2, 195, 120, 120, 195, 181, 111, 3, 1.21431
208, 1, wb, attraction, a-b-da, 14, 3, 4, 2, 195, 120, 120, 195, 181, 111, 2, 0.660448
208, 1, wb, attraction, a-b-db, 5, 2, 4, 3, 90, 165, 165, 90, 88, 161, 2, 1.33549
208, 1, wb, attraction, a-b-db, 5, 2, 4, 3, 90, 165, 165, 90, 88, 161, 1, 1.02513
208, 1, wb, attraction, a-b-da, 5, 2, 4, 4, 90, 165, 165, 90, 161, 88, 3, 4.69336
208, 1, wb, attraction, a-b-da, 5, 2, 4, 4, 90, 165, 165, 90, 161, 88, 1, 0.551233
208, 1, wb, attraction, a-b-da, 9, 3, 4, 5, 120, 195, 195, 120, 186, 114, 2, 6.223
208, 1, wb, attraction, a-b-da, 9, 3, 4, 5, 120, 195, 195, 120, 186, 114, 1, 0.474964
208, 1, wb, attraction, a-b-db, 9, 3, 4, 6, 120, 195, 195, 120, 114, 186, 1, 7.56547
208, 1, wb, attraction, a-b-db, 9, 3, 4, 6, 120, 195, 195, 120, 114, 186, 2, 1.05973
208, 1, wb, filler, NA, 999, 999, 4, 7, 90, 96, 163, 94, 56, 108, 3, 1.59072
208, 1, wb, filler, NA, 999, 999, 4, 7, 90, 96, 163, 94, 56, 108, 2, 1.18156
208, 1, wb, attraction, a-b-da, 2, 3, 4, 8, 193, 119, 195, 120, 120, 195, 2, 2.59583
208, 1, wb, attraction, a-b-da, 2, 3, 4, 8, 193, 119, 195, 120, 120, 195, 3, 2.60226
208, 1, wb, attraction, a-b-da, 9, 2, 4, 9, 165, 90, 157, 86, 90, 165, 1, 2.47133
208, 1, wb, attraction, a-b-da, 9, 2, 4, 9, 165, 90, 157, 86, 90, 165, 3, 0.482585
208, 1, wb, attraction, a-b-db, 5, 1, 4, 10, 60, 135, 135, 60, 58, 132, 3, 3.38103
208, 1, wb, attraction, a-b-db, 5, 1, 4, 10, 60, 135, 135, 60, 58, 132, 1, 0.82789
208, 1, wb, attraction, a-b-db, 9, 2, 4, 11, 86, 157, 165, 90, 90, 165, 2, 3.45635
208, 1, wb, attraction, a-b-db, 9, 2, 4, 11, 86, 157, 165, 90, 90, 165, 1, 0.83592
208, 1, wb, filler, NA, 999, 999, 4, 12, 177, 164, 100, 149, 61, 85, 3, 0.880223
208, 1, wb, filler, NA, 999, 999, 4, 12, 177, 164, 100, 149, 61, 85, 1, 0.739836
208, 1, wb, attraction, a-b-da, 2, 2, 4, 13, 163, 89, 165, 90, 90, 165, 1, 2.31621
208, 1, wb, attraction, a-b-da, 2, 2, 4, 13, 163, 89, 165, 90, 90, 165, 3, 0.974202
208, 1, wb, filler, NA, 999, 999, 4, 14, 169, 128, 80, 191, 147, 121, 2, 3.15655
208, 1, wb, filler, NA, 999, 999, 4, 14, 169, 128, 80, 191, 147, 121, 1, 0.628123
208, 1, wb, catch, NA, 999, 999, 4, 15, 154, 101, 184, 131, 72, 123, 3, 0.808484
208, 1, wb, catch, NA, 999, 999, 4, 15, 154, 101, 184, 131, 72, 123, 2, 0.75897
208, 1, wb, attraction, a-b-db, 9, 1, 4, 16, 60, 135, 135, 60, 57, 129, 2, 1.14994
208, 1, wb, attraction, a-b-db, 9, 1, 4, 16, 60, 135, 135, 60, 57, 129, 1, 1.09486
208, 1, wb, filler, NA, 999, 999, 4, 17, 146, 71, 181, 114, 110, 156, 1, 2.20857
208, 1, wb, filler, NA, 999, 999, 4, 17, 146, 71, 181, 114, 110, 156, 2, 0.934449
208, 1, wb, attraction, a-b-db, 14, 2, 4, 18, 83, 153, 165, 90, 90, 165, 1, 1.66279
208, 1, wb, attraction, a-b-db, 14, 2, 4, 18, 83, 153, 165, 90, 90, 165, 2, 2.1069
208, 1, wb, attraction, a-b-da, 5, 3, 4, 19, 190, 117, 120, 195, 195, 120, 1, 2.73215
208, 1, wb, attraction, a-b-da, 5, 3, 4, 19, 190, 117, 120, 195, 195, 120, 2, 1.01325
208, 1, wb, filler, NA, 999, 999, 4, 20, 96, 110, 161, 179, 114, 71, 3, 1.45023
208, 1, wb, filler, NA, 999, 999, 4, 20, 96, 110, 161, 179, 114, 71, 2, 1.11124
208, 1, wb, catch, NA, 999, 999, 4, 21, 129, 186, 124, 71, 140, 115, 2, 0.920046
208, 1, wb, catch, NA, 999, 999, 4, 21, 129, 186, 124, 71, 140, 115, 1, 0.794539
208, 1, wb, attraction, a-b-da, 2, 1, 4, 22, 60, 135, 135, 60, 134, 59, 1, 4.73625
208, 1, wb, attraction, a-b-da, 2, 1, 4, 22, 60, 135, 135, 60, 134, 59, 3, 1.61656
208, 1, wb, attraction, a-b-db, 2, 3, 4, 23, 119, 193, 195, 120, 120, 195, 3, 5.44538
208, 1, wb, attraction, a-b-db, 2, 3, 4, 23, 119, 193, 195, 120, 120, 195, 2, 0.792979
208, 1, wb, attraction, a-b-db, 2, 1, 4, 24, 60, 135, 135, 60, 59, 134, 1, 1.40664
208, 1, wb, attraction, a-b-db, 2, 1, 4, 24, 60, 135, 135, 60, 59, 134, 2, 0.772848
208, 1, wb, attraction, a-b-da, 5, 1, 4, 25, 60, 135, 135, 60, 132, 58, 1, 0.987838
208, 1, wb, attraction, a-b-da, 5, 1, 4, 25, 60, 135, 135, 60, 132, 58, 3, 2.45159
208, 1, wb, attraction, a-b-da, 14, 1, 4, 26, 60, 135, 125, 56, 135, 60, 2, 0.878737
208, 1, wb, attraction, a-b-da, 14, 1, 4, 26, 60, 135, 125, 56, 135, 60, 3, 0.890365
208, 1, wb, catch, NA, 999, 999, 4, 27, 92, 163, 89, 106, 154, 161, 2, 0.908035
208, 1, wb, catch, NA, 999, 999, 4, 27, 92, 163, 89, 106, 154, 161, 3, 0.790403
208, 1, wb, filler, NA, 999, 999, 4, 28, 156, 182, 135, 86, 142, 84, 2, 1.0681
208, 1, wb, filler, NA, 999, 999, 4, 28, 156, 182, 135, 86, 142, 84, 1, 0.576448
208, 1, wb, attraction, a-b-da, 14, 2, 4, 29, 153, 83, 90, 165, 165, 90, 1, 2.75901
208, 1, wb, attraction, a-b-da, 14, 2, 4, 29, 153, 83, 90, 165, 165, 90, 2, 0.766645
208, 1, wb, filler, NA, 999, 999, 4, 30, 149, 109, 132, 158, 108, 99, 3, 0.89371
208, 1, wb, filler, NA, 999, 999, 4, 30, 149, 109, 132, 158, 108, 99, 2, 0.90473
208, 1, wb, attraction, a-b-da, 9, 1, 4, 31, 129, 57, 60, 135, 135, 60, 1, 1.58631
208, 1, wb, attraction, a-b-da, 9, 1, 4, 31, 129, 57, 60, 135, 135, 60, 3, 1.92982
208, 1, wb, attraction, a-b-db, 2, 2, 4, 32, 89, 163, 165, 90, 90, 165, 1, 5.7219
208, 1, wb, attraction, a-b-db, 2, 2, 4, 32, 89, 163, 165, 90, 90, 165, 2, 0.858713
208, 1, wb, filler, NA, 999, 999, 4, 33, 177, 140, 73, 67, 153, 173, 2, 0.829691
208, 1, wb, filler, NA, 999, 999, 4, 33, 177, 140, 73, 67, 153, 173, 3, 0.619428
208, 1, wb, attraction, a-b-db, 14, 1, 4, 34, 56, 125, 135, 60, 60, 135, 1, 0.896494
208, 1, wb, attraction, a-b-db, 14, 1, 4, 34, 56, 125, 135, 60, 60, 135, 2, 0.451518
208, 1, wb, filler, NA, 999, 999, 4, 35, 130, 102, 186, 126, 79, 116, 3, 0.647343
208, 1, wb, filler, NA, 999, 999, 4, 35, 130, 102, 186, 126, 79, 116, 2, 0.652415
208, 1, wb, attraction, a-b-db, 14, 3, 4, 36, 111, 181, 195, 120, 120, 195, 1, 2.08818
208, 1, wb, attraction, a-b-db, 14, 3, 4, 36, 111, 181, 195, 120, 120, 195, 2, 0.506822
208, 1, wb, filler, NA, 999, 999, 4, 37, 190, 195, 176, 59, 135, 175, 2, 0.915923
208, 1, wb, filler, NA, 999, 999, 4, 37, 190, 195, 176, 59, 135, 175, 1, 0.582221
208, 1, wb, filler, NA, 999, 999, 5, 1, 117, 108, 84, 128, 65, 188, 2, 8.09932
208, 1, wb, filler, NA, 999, 999, 5, 1, 117, 108, 84, 128, 65, 188, 1, 0.748103
208, 1, wb, attraction, a-b-da, 14, 2, 5, 2, 153, 83, 90, 165, 165, 90, 1, 0.955859
208, 1, wb, attraction, a-b-da, 14, 2, 5, 2, 153, 83, 90, 165, 165, 90, 2, 0.396286
208, 1, wb, attraction, a-b-da, 5, 1, 5, 3, 132, 58, 135, 60, 60, 135, 3, 0.673927
208, 1, wb, attraction, a-b-da, 5, 1, 5, 3, 132, 58, 135, 60, 60, 135, 2, 0.469791
208, 1, wb, attraction, a-b-da, 14, 1, 5, 4, 60, 135, 125, 56, 135, 60, 1, 0.712884
208, 1, wb, attraction, a-b-da, 14, 1, 5, 4, 60, 135, 125, 56, 135, 60, 3, 0.483303
208, 1, wb, filler, NA, 999, 999, 5, 5, 161, 69, 190, 161, 172, 80, 1, 0.605726
208, 1, wb, filler, NA, 999, 999, 5, 5, 161, 69, 190, 161, 172, 80, 2, 0.428167
208, 1, wb, filler, NA, 999, 999, 5, 6, 126, 76, 132, 93, 138, 95, 1, 0.752671
208, 1, wb, filler, NA, 999, 999, 5, 6, 126, 76, 132, 93, 138, 95, 2, 1.03368
208, 1, wb, attraction, a-b-db, 5, 1, 5, 7, 60, 135, 58, 132, 135, 60, 2, 1.062
208, 1, wb, attraction, a-b-db, 5, 1, 5, 7, 60, 135, 58, 132, 135, 60, 3, 1.2343
208, 1, wb, catch, NA, 999, 999, 5, 8, 148, 167, 64, 131, 139, 116, 2, 0.598537
208, 1, wb, catch, NA, 999, 999, 5, 8, 148, 167, 64, 131, 139, 116, 1, 0.397603
208, 1, wb, catch, NA, 999, 999, 5, 9, 64, 131, 141, 174, 122, 133, 1, 0.587413
208, 1, wb, catch, NA, 999, 999, 5, 9, 64, 131, 141, 174, 122, 133, 2, 0.339289
208, 1, wb, attraction, a-b-db, 2, 3, 5, 10, 120, 195, 195, 120, 119, 193, 2, 2.06773
208, 1, wb, attraction, a-b-db, 2, 3, 5, 10, 120, 195, 195, 120, 119, 193, 1, 0.359725
208, 1, wb, attraction, a-b-da, 9, 1, 5, 11, 129, 57, 60, 135, 135, 60, 1, 2.10298
208, 1, wb, attraction, a-b-da, 9, 1, 5, 11, 129, 57, 60, 135, 135, 60, 2, 0.377569
208, 1, wb, filler, NA, 999, 999, 5, 12, 72, 100, 62, 150, 181, 83, 1, 0.544088
208, 1, wb, filler, NA, 999, 999, 5, 12, 72, 100, 62, 150, 181, 83, 3, 0.809381
208, 1, wb, attraction, a-b-db, 14, 2, 5, 13, 165, 90, 90, 165, 83, 153, 3, 1.24629
208, 1, wb, attraction, a-b-db, 14, 2, 5, 13, 165, 90, 90, 165, 83, 153, 1, 0.635186
208, 1, wb, attraction, a-b-da, 5, 3, 5, 14, 195, 120, 190, 117, 120, 195, 2, 0.607651
208, 1, wb, attraction, a-b-da, 5, 3, 5, 14, 195, 120, 190, 117, 120, 195, 1, 0.622
208, 1, wb, attraction, a-b-da, 5, 2, 5, 15, 161, 88, 90, 165, 165, 90, 2, 0.683053
208, 1, wb, attraction, a-b-da, 5, 2, 5, 15, 161, 88, 90, 165, 165, 90, 1, 0.51891
208, 1, wb, filler, NA, 999, 999, 5, 16, 191, 156, 123, 160, 68, 137, 2, 0.608035
208, 1, wb, filler, NA, 999, 999, 5, 16, 191, 156, 123, 160, 68, 137, 1, 2.88642
208, 1, wb, attraction, a-b-db, 5, 2, 5, 17, 90, 165, 165, 90, 88, 161, 2, 3.65619
208, 1, wb, attraction, a-b-db, 5, 2, 5, 17, 90, 165, 165, 90, 88, 161, 1, 0.3796
208, 1, wb, attraction, a-b-db, 5, 3, 5, 18, 120, 195, 117, 190, 195, 120, 1, 2.33804
208, 1, wb, attraction, a-b-db, 5, 3, 5, 18, 120, 195, 117, 190, 195, 120, 3, 1.22742
208, 1, wb, filler, NA, 999, 999, 5, 19, 94, 146, 156, 135, 114, 147, 1, 0.671517
208, 1, wb, filler, NA, 999, 999, 5, 19, 94, 146, 156, 135, 114, 147, 2, 0.635328
208, 1, wb, filler, NA, 999, 999, 5, 20, 194, 64, 94, 138, 160, 143, 1, 1.65573
208, 1, wb, filler, NA, 999, 999, 5, 20, 194, 64, 94, 138, 160, 143, 3, 0.379877
208, 1, wb, attraction, a-b-db, 14, 1, 5, 21, 135, 60, 60, 135, 56, 125, 2, 1.34642
208, 1, wb, attraction, a-b-db, 14, 1, 5, 21, 135, 60, 60, 135, 56, 125, 1, 0.57126
208, 1, wb, filler, NA, 999, 999, 5, 22, 184, 116, 188, 134, 130, 139, 3, 1.41832
208, 1, wb, filler, NA, 999, 999, 5, 22, 184, 116, 188, 134, 130, 139, 2, 0.712501
208, 1, wb, attraction, a-b-db, 14, 3, 5, 23, 111, 181, 120, 195, 195, 120, 1, 0.881597
208, 1, wb, attraction, a-b-db, 14, 3, 5, 23, 111, 181, 120, 195, 195, 120, 3, 0.541341
208, 1, wb, attraction, a-b-db, 9, 3, 5, 24, 120, 195, 114, 186, 195, 120, 2, 1.58907
208, 1, wb, attraction, a-b-db, 9, 3, 5, 24, 120, 195, 114, 186, 195, 120, 1, 1.06789
208, 1, wb, attraction, a-b-da, 9, 2, 5, 25, 165, 90, 157, 86, 90, 165, 2, 0.9749
208, 1, wb, attraction, a-b-da, 9, 2, 5, 25, 165, 90, 157, 86, 90, 165, 1, 1.11847
208, 1, wb, attraction, a-b-da, 9, 3, 5, 26, 120, 195, 195, 120, 186, 114, 2, 3.59942
208, 1, wb, attraction, a-b-da, 9, 3, 5, 26, 120, 195, 195, 120, 186, 114, 1, 0.685629
208, 1, wb, attraction, a-b-db, 2, 1, 5, 27, 135, 60, 59, 134, 60, 135, 2, 1.04795
208, 1, wb, attraction, a-b-db, 2, 1, 5, 27, 135, 60, 59, 134, 60, 135, 1, 1.27695
208, 1, wb, attraction, a-b-da, 2, 3, 5, 28, 193, 119, 195, 120, 120, 195, 2, 1.70319
208, 1, wb, attraction, a-b-da, 2, 3, 5, 28, 193, 119, 195, 120, 120, 195, 1, 0.617972
208, 1, wb, attraction, a-b-db, 2, 2, 5, 29, 165, 90, 90, 165, 89, 163, 2, 2.66299
208, 1, wb, attraction, a-b-db, 2, 2, 5, 29, 165, 90, 90, 165, 89, 163, 1, 0.67495
208, 1, wb, filler, NA, 999, 999, 5, 30, 107, 107, 105, 145, 56, 57, 3, 0.773234
208, 1, wb, filler, NA, 999, 999, 5, 30, 107, 107, 105, 145, 56, 57, 2, 0.604927
208, 1, wb, attraction, a-b-db, 9, 1, 5, 31, 57, 129, 60, 135, 135, 60, 2, 1.10666
208, 1, wb, attraction, a-b-db, 9, 1, 5, 31, 57, 129, 60, 135, 135, 60, 3, 1.09306
208, 1, wb, attraction, a-b-da, 14, 3, 5, 32, 195, 120, 181, 111, 120, 195, 2, 1.54259
208, 1, wb, attraction, a-b-da, 14, 3, 5, 32, 195, 120, 181, 111, 120, 195, 3, 0.719501
208, 1, wb, filler, NA, 999, 999, 5, 33, 186, 69, 158, 176, 75, 96, 3, 0.952624
208, 1, wb, filler, NA, 999, 999, 5, 33, 186, 69, 158, 176, 75, 96, 2, 0.513489
208, 1, wb, attraction, a-b-da, 2, 1, 5, 34, 135, 60, 60, 135, 134, 59, 2, 2.74662
208, 1, wb, attraction, a-b-da, 2, 1, 5, 34, 135, 60, 60, 135, 134, 59, 1, 0.715177
208, 1, wb, attraction, a-b-da, 2, 2, 5, 35, 165, 90, 90, 165, 163, 89, 2, 2.90816
208, 1, wb, attraction, a-b-da, 2, 2, 5, 35, 165, 90, 90, 165, 163, 89, 1, 0.725782
208, 1, wb, catch, NA, 999, 999, 5, 36, 132, 123, 137, 178, 86, 109, 3, 0.89429
208, 1, wb, catch, NA, 999, 999, 5, 36, 132, 123, 137, 178, 86, 109, 2, 0.321376
208, 1, wb, attraction, a-b-db, 9, 2, 5, 37, 86, 157, 165, 90, 90, 165, 2, 1.77842
208, 1, wb, attraction, a-b-db, 9, 2, 5, 37, 86, 157, 165, 90, 90, 165, 3, 0.425896
208, 1, wb, attraction, a-b-da, 9, 3, 6, 1, 120, 195, 195, 120, 186, 114, 2, 0.870369
208, 1, wb, attraction, a-b-da, 9, 3, 6, 1, 120, 195, 195, 120, 186, 114, 3, 0.394791
208, 1, wb, attraction, a-b-da, 14, 3, 6, 2, 195, 120, 120, 195, 181, 111, 3, 1.05658
208, 1, wb, attraction, a-b-da, 14, 3, 6, 2, 195, 120, 120, 195, 181, 111, 2, 0.756895
208, 1, wb, attraction, a-b-db, 5, 2, 6, 3, 88, 161, 90, 165, 165, 90, 2, 0.787926
208, 1, wb, attraction, a-b-db, 5, 2, 6, 3, 88, 161, 90, 165, 165, 90, 3, 0.835716
208, 1, wb, attraction, a-b-db, 5, 3, 6, 4, 117, 190, 195, 120, 120, 195, 2, 1.08794
208, 1, wb, attraction, a-b-db, 5, 3, 6, 4, 117, 190, 195, 120, 120, 195, 3, 0.610949
208, 1, wb, attraction, a-b-da, 14, 1, 6, 5, 135, 60, 60, 135, 125, 56, 3, 3.65597
208, 1, wb, attraction, a-b-da, 14, 1, 6, 5, 135, 60, 60, 135, 125, 56, 2, 0.739496
208, 1, wb, attraction, a-b-da, 5, 3, 6, 6, 195, 120, 190, 117, 120, 195, 2, 0.755829
208, 1, wb, attraction, a-b-da, 5, 3, 6, 6, 195, 120, 190, 117, 120, 195, 3, 0.860365
208, 1, wb, attraction, a-b-da, 2, 2, 6, 7, 165, 90, 163, 89, 90, 165, 2, 1.71136
208, 1, wb, attraction, a-b-da, 2, 2, 6, 7, 165, 90, 163, 89, 90, 165, 3, 0.609581
208, 1, wb, catch, NA, 999, 999, 6, 8, 120, 135, 119, 76, 139, 176, 2, 0.630438
208, 1, wb, catch, NA, 999, 999, 6, 8, 120, 135, 119, 76, 139, 176, 3, 0.548349
208, 1, wb, attraction, a-b-db, 2, 1, 6, 9, 60, 135, 59, 134, 135, 60, 1, 3.61994
208, 1, wb, attraction, a-b-db, 2, 1, 6, 9, 60, 135, 59, 134, 135, 60, 3, 1.0495
208, 1, wb, filler, NA, 999, 999, 6, 10, 156, 70, 93, 121, 133, 86, 2, 3.10116
208, 1, wb, filler, NA, 999, 999, 6, 10, 156, 70, 93, 121, 133, 86, 3, 1.2715
208, 1, wb, attraction, a-b-da, 14, 2, 6, 11, 153, 83, 90, 165, 165, 90, 1, 0.746327
208, 1, wb, attraction, a-b-da, 14, 2, 6, 11, 153, 83, 90, 165, 165, 90, 2, 0.747451
208, 1, wb, attraction, a-b-db, 9, 2, 6, 12, 86, 157, 90, 165, 165, 90, 1, 0.859129
208, 1, wb, attraction, a-b-db, 9, 2, 6, 12, 86, 157, 90, 165, 165, 90, 3, 1.23955
208, 1, wb, filler, NA, 999, 999, 6, 13, 182, 154, 157, 124, 144, 134, 2, 2.84379
208, 1, wb, filler, NA, 999, 999, 6, 13, 182, 154, 157, 124, 144, 134, 1, 0.424167
208, 1, wb, filler, NA, 999, 999, 6, 14, 90, 183, 61, 130, 90, 67, 3, 0.780568
208, 1, wb, filler, NA, 999, 999, 6, 14, 90, 183, 61, 130, 90, 67, 1, 0.48439
208, 1, wb, attraction, a-b-db, 14, 2, 6, 15, 165, 90, 90, 165, 83, 153, 3, 0.742804
208, 1, wb, attraction, a-b-db, 14, 2, 6, 15, 165, 90, 90, 165, 83, 153, 2, 0.727866
208, 1, wb, filler, NA, 999, 999, 6, 16, 134, 107, 152, 132, 124, 161, 1, 0.688274
208, 1, wb, filler, NA, 999, 999, 6, 16, 134, 107, 152, 132, 124, 161, 2, 0.619476
208, 1, wb, attraction, a-b-db, 9, 1, 6, 17, 135, 60, 57, 129, 60, 135, 2, 1.20036
208, 1, wb, attraction, a-b-db, 9, 1, 6, 17, 135, 60, 57, 129, 60, 135, 3, 1.00751
208, 1, wb, attraction, a-b-da, 2, 3, 6, 18, 193, 119, 195, 120, 120, 195, 1, 3.74029
208, 1, wb, attraction, a-b-da, 2, 3, 6, 18, 193, 119, 195, 120, 120, 195, 3, 0.508561
208, 1, wb, attraction, a-b-da, 9, 2, 6, 19, 165, 90, 157, 86, 90, 165, 1, 2.18958
208, 1, wb, attraction, a-b-da, 9, 2, 6, 19, 165, 90, 157, 86, 90, 165, 3, 0.732219
208, 1, wb, attraction, a-b-db, 2, 2, 6, 20, 90, 165, 165, 90, 89, 163, 1, 2.20463
208, 1, wb, attraction, a-b-db, 2, 2, 6, 20, 90, 165, 165, 90, 89, 163, 3, 0.515321
208, 1, wb, filler, NA, 999, 999, 6, 21, 186, 119, 191, 85, 82, 101, 3, 1.27629
208, 1, wb, filler, NA, 999, 999, 6, 21, 186, 119, 191, 85, 82, 101, 1, 0.752011
208, 1, wb, filler, NA, 999, 999, 6, 22, 171, 71, 182, 164, 97, 115, 3, 0.615584
208, 1, wb, filler, NA, 999, 999, 6, 22, 171, 71, 182, 164, 97, 115, 2, 0.542041
208, 1, wb, attraction, a-b-db, 5, 1, 6, 23, 135, 60, 60, 135, 58, 132, 1, 1.88584
208, 1, wb, attraction, a-b-db, 5, 1, 6, 23, 135, 60, 60, 135, 58, 132, 2, 0.409189
208, 1, wb, attraction, a-b-db, 14, 3, 6, 24, 120, 195, 195, 120, 111, 181, 3, 3.35044
208, 1, wb, attraction, a-b-db, 14, 3, 6, 24, 120, 195, 195, 120, 111, 181, 1, 1.22258
208, 1, wb, attraction, a-b-da, 2, 1, 6, 25, 60, 135, 135, 60, 134, 59, 1, 2.63552
208, 1, wb, attraction, a-b-da, 2, 1, 6, 25, 60, 135, 135, 60, 134, 59, 3, 2.43271
208, 1, wb, filler, NA, 999, 999, 6, 26, 169, 112, 184, 87, 140, 192, 2, 1.38849
208, 1, wb, filler, NA, 999, 999, 6, 26, 169, 112, 184, 87, 140, 192, 3, 0.339369
208, 1, wb, attraction, a-b-da, 9, 1, 6, 27, 135, 60, 60, 135, 129, 57, 3, 1.81986
208, 1, wb, attraction, a-b-da, 9, 1, 6, 27, 135, 60, 60, 135, 129, 57, 2, 0.457918
208, 1, wb, catch, NA, 999, 999, 6, 28, 141, 174, 93, 162, 101, 94, 3, 0.773047
208, 1, wb, catch, NA, 999, 999, 6, 28, 141, 174, 93, 162, 101, 94, 1, 0.516771
208, 1, wb, attraction, a-b-da, 5, 1, 6, 29, 60, 135, 132, 58, 135, 60, 2, 0.869845
208, 1, wb, attraction, a-b-da, 5, 1, 6, 29, 60, 135, 132, 58, 135, 60, 3, 0.39426
208, 1, wb, filler, NA, 999, 999, 6, 30, 144, 192, 79, 83, 181, 107, 2, 0.784035
208, 1, wb, filler, NA, 999, 999, 6, 30, 144, 192, 79, 83, 181, 107, 1, 0.599853
208, 1, wb, attraction, a-b-db, 14, 1, 6, 31, 60, 135, 56, 125, 135, 60, 2, 0.789863
208, 1, wb, attraction, a-b-db, 14, 1, 6, 31, 60, 135, 56, 125, 135, 60, 3, 0.508582
208, 1, wb, filler, NA, 999, 999, 6, 32, 174, 126, 88, 188, 136, 60, 3, 0.77369
208, 1, wb, filler, NA, 999, 999, 6, 32, 174, 126, 88, 188, 136, 60, 1, 0.653551
208, 1, wb, attraction, a-b-db, 9, 3, 6, 33, 114, 186, 120, 195, 195, 120, 1, 1.13728
208, 1, wb, attraction, a-b-db, 9, 3, 6, 33, 114, 186, 120, 195, 195, 120, 2, 1.32302
208, 1, wb, attraction, a-b-db, 2, 3, 6, 34, 120, 195, 195, 120, 119, 193, 2, 1.2837
208, 1, wb, attraction, a-b-db, 2, 3, 6, 34, 120, 195, 195, 120, 119, 193, 3, 0.799371
208, 1, wb, attraction, a-b-da, 5, 2, 6, 35, 90, 165, 161, 88, 165, 90, 1, 1.57305
208, 1, wb, attraction, a-b-da, 5, 2, 6, 35, 90, 165, 161, 88, 165, 90, 3, 0.516395
208, 1, wb, filler, NA, 999, 999, 6, 36, 117, 155, 126, 85, 83, 145, 2, 0.717534
208, 1, wb, filler, NA, 999, 999, 6, 36, 117, 155, 126, 85, 83, 145, 1, 0.495993
208, 1, wb, catch, NA, 999, 999, 6, 37, 137, 118, 188, 127, 134, 61, 3, 0.785893
208, 1, wb, catch, NA, 999, 999, 6, 37, 137, 118, 188, 127, 134, 61, 2, 0.593485
208, 1, wb, attraction, a-b-da, 5, 3, 7, 1, 195, 120, 190, 117, 120, 195, 1, 1.39118
208, 1, wb, attraction, a-b-da, 5, 3, 7, 1, 195, 120, 190, 117, 120, 195, 2, 0.710187
208, 1, wb, filler, NA, 999, 999, 7, 2, 149, 97, 114, 114, 106, 187, 2, 0.863186
208, 1, wb, filler, NA, 999, 999, 7, 2, 149, 97, 114, 114, 106, 187, 3, 4.08358
208, 1, wb, attraction, a-b-da, 9, 2, 7, 3, 165, 90, 157, 86, 90, 165, 2, 1.0288
208, 1, wb, attraction, a-b-da, 9, 2, 7, 3, 165, 90, 157, 86, 90, 165, 3, 0.44255
208, 1, wb, attraction, a-b-db, 5, 3, 7, 4, 195, 120, 120, 195, 117, 190, 1, 0.990286
208, 1, wb, attraction, a-b-db, 5, 3, 7, 4, 195, 120, 120, 195, 117, 190, 2, 0.437422
208, 1, wb, attraction, a-b-da, 5, 1, 7, 5, 60, 135, 135, 60, 132, 58, 1, 0.705788
208, 1, wb, attraction, a-b-da, 5, 1, 7, 5, 60, 135, 135, 60, 132, 58, 2, 0.380191
208, 1, wb, attraction, a-b-da, 2, 1, 7, 6, 60, 135, 135, 60, 134, 59, 3, 1.05876
208, 1, wb, attraction, a-b-da, 2, 1, 7, 6, 60, 135, 135, 60, 134, 59, 2, 0.878948
208, 1, wb, filler, NA, 999, 999, 7, 7, 148, 129, 145, 170, 190, 176, 1, 0.617252
208, 1, wb, filler, NA, 999, 999, 7, 7, 148, 129, 145, 170, 190, 176, 3, 0.39178
208, 1, wb, catch, NA, 999, 999, 7, 8, 88, 107, 127, 188, 116, 139, 1, 0.461642
208, 1, wb, catch, NA, 999, 999, 7, 8, 88, 107, 127, 188, 116, 139, 2, 0.618259
208, 1, wb, attraction, a-b-db, 9, 1, 7, 9, 60, 135, 57, 129, 135, 60, 2, 1.15114
208, 1, wb, attraction, a-b-db, 9, 1, 7, 9, 60, 135, 57, 129, 135, 60, 1, 0.680098
208, 1, wb, filler, NA, 999, 999, 7, 10, 182, 182, 163, 187, 120, 189, 3, 1.14653
208, 1, wb, filler, NA, 999, 999, 7, 10, 182, 182, 163, 187, 120, 189, 1, 0.635471
208, 1, wb, attraction, a-b-da, 9, 3, 7, 11, 186, 114, 120, 195, 195, 120, 1, 0.775854
208, 1, wb, attraction, a-b-da, 9, 3, 7, 11, 186, 114, 120, 195, 195, 120, 2, 1.05564
208, 1, wb, attraction, a-b-db, 5, 1, 7, 12, 135, 60, 60, 135, 58, 132, 3, 0.635258
208, 1, wb, attraction, a-b-db, 5, 1, 7, 12, 135, 60, 60, 135, 58, 132, 1, 0.825096
208, 1, wb, attraction, a-b-da, 14, 2, 7, 13, 90, 165, 165, 90, 153, 83, 3, 0.781382
208, 1, wb, attraction, a-b-da, 14, 2, 7, 13, 90, 165, 165, 90, 153, 83, 1, 0.461038
208, 1, wb, attraction, a-b-da, 5, 2, 7, 14, 90, 165, 161, 88, 165, 90, 2, 0.960166
208, 1, wb, attraction, a-b-da, 5, 2, 7, 14, 90, 165, 161, 88, 165, 90, 3, 0.552539
208, 1, wb, attraction, a-b-db, 2, 3, 7, 15, 120, 195, 195, 120, 119, 193, 1, 1.1603
208, 1, wb, attraction, a-b-db, 2, 3, 7, 15, 120, 195, 195, 120, 119, 193, 2, 0.496582
208, 1, wb, attraction, a-b-db, 2, 1, 7, 16, 60, 135, 135, 60, 59, 134, 2, 2.33834
208, 1, wb, attraction, a-b-db, 2, 1, 7, 16, 60, 135, 135, 60, 59, 134, 1, 0.547691
208, 1, wb, catch, NA, 999, 999, 7, 17, 114, 141, 160, 155, 76, 119, 3, 0.603479
208, 1, wb, catch, NA, 999, 999, 7, 17, 114, 141, 160, 155, 76, 119, 2, 0.586532
208, 1, wb, attraction, a-b-da, 9, 1, 7, 18, 135, 60, 60, 135, 129, 57, 3, 0.696966
208, 1, wb, attraction, a-b-da, 9, 1, 7, 18, 135, 60, 60, 135, 129, 57, 1, 0.91603
208, 1, wb, attraction, a-b-db, 14, 1, 7, 19, 56, 125, 135, 60, 60, 135, 1, 2.16515
208, 1, wb, attraction, a-b-db, 14, 1, 7, 19, 56, 125, 135, 60, 60, 135, 2, 0.540998
208, 1, wb, attraction, a-b-db, 5, 2, 7, 20, 88, 161, 165, 90, 90, 165, 2, 1.16484
208, 1, wb, attraction, a-b-db, 5, 2, 7, 20, 88, 161, 165, 90, 90, 165, 3, 0.884995
208, 1, wb, attraction, a-b-da, 2, 2, 7, 21, 163, 89, 165, 90, 90, 165, 1, 0.863484
208, 1, wb, attraction, a-b-da, 2, 2, 7, 21, 163, 89, 165, 90, 90, 165, 2, 1.09978
208, 1, wb, filler, NA, 999, 999, 7, 22, 61, 148, 72, 60, 123, 173, 2, 0.829359
208, 1, wb, filler, NA, 999, 999, 7, 22, 61, 148, 72, 60, 123, 173, 3, 0.715061
208, 1, wb, filler, NA, 999, 999, 7, 23, 71, 195, 112, 100, 126, 115, 2, 0.860109
208, 1, wb, filler, NA, 999, 999, 7, 23, 71, 195, 112, 100, 126, 115, 3, 0.760503
208, 1, wb, attraction, a-b-db, 9, 3, 7, 24, 195, 120, 120, 195, 114, 186, 3, 3.34353
208, 1, wb, attraction, a-b-db, 9, 3, 7, 24, 195, 120, 120, 195, 114, 186, 2, 0.591768
208, 1, wb, filler, NA, 999, 999, 7, 25, 62, 159, 150, 143, 168, 138, 1, 1.12546
208, 1, wb, filler, NA, 999, 999, 7, 25, 62, 159, 150, 143, 168, 138, 2, 0.439126
208, 1, wb, attraction, a-b-db, 2, 2, 7, 26, 90, 165, 89, 163, 165, 90, 3, 1.41155
208, 1, wb, attraction, a-b-db, 2, 2, 7, 26, 90, 165, 89, 163, 165, 90, 2, 0.713865
208, 1, wb, filler, NA, 999, 999, 7, 27, 83, 89, 185, 120, 88, 101, 1, 1.26681
208, 1, wb, filler, NA, 999, 999, 7, 27, 83, 89, 185, 120, 88, 101, 2, 0.447086
208, 1, wb, attraction, a-b-da, 2, 3, 7, 28, 193, 119, 120, 195, 195, 120, 1, 1.61101
208, 1, wb, attraction, a-b-da, 2, 3, 7, 28, 193, 119, 120, 195, 195, 120, 2, 0.553129
208, 1, wb, attraction, a-b-da, 14, 3, 7, 29, 181, 111, 120, 195, 195, 120, 1, 1.00087
208, 1, wb, attraction, a-b-da, 14, 3, 7, 29, 181, 111, 120, 195, 195, 120, 2, 0.807816
208, 1, wb, attraction, a-b-db, 14, 3, 7, 30, 195, 120, 120, 195, 111, 181, 1, 0.852814
208, 1, wb, attraction, a-b-db, 14, 3, 7, 30, 195, 120, 120, 195, 111, 181, 2, 0.857903
208, 1, wb, filler, NA, 999, 999, 7, 31, 103, 178, 72, 175, 129, 71, 3, 0.836884
208, 1, wb, filler, NA, 999, 999, 7, 31, 103, 178, 72, 175, 129, 71, 1, 0.826568
208, 1, wb, attraction, a-b-db, 14, 2, 7, 32, 83, 153, 165, 90, 90, 165, 1, 1.1909
208, 1, wb, attraction, a-b-db, 14, 2, 7, 32, 83, 153, 165, 90, 90, 165, 3, 0.509868
208, 1, wb, filler, NA, 999, 999, 7, 33, 165, 89, 116, 194, 64, 162, 3, 1.12695
208, 1, wb, filler, NA, 999, 999, 7, 33, 165, 89, 116, 194, 64, 162, 2, 0.424566
208, 1, wb, attraction, a-b-da, 14, 1, 7, 34, 135, 60, 125, 56, 60, 135, 2, 1.18102
208, 1, wb, attraction, a-b-da, 14, 1, 7, 34, 135, 60, 125, 56, 60, 135, 1, 0.564654
208, 1, wb, attraction, a-b-db, 9, 2, 7, 35, 86, 157, 165, 90, 90, 165, 2, 4.13176
208, 1, wb, attraction, a-b-db, 9, 2, 7, 35, 86, 157, 165, 90, 90, 165, 3, 1.34046
208, 1, wb, filler, NA, 999, 999, 7, 36, 67, 109, 67, 116, 172, 156, 2, 1.06812
208, 1, wb, filler, NA, 999, 999, 7, 36, 67, 109, 67, 116, 172, 156, 3, 0.944259
208, 1, wb, catch, NA, 999, 999, 7, 37, 117, 138, 188, 127, 91, 104, 3, 0.959888
208, 1, wb, catch, NA, 999, 999, 7, 37, 117, 138, 188, 127, 91, 104, 2, 0.456262
208, 1, wb, attraction, a-b-db, 2, 3, 8, 1, 195, 120, 119, 193, 120, 195, 1, 2.86756
208, 1, wb, attraction, a-b-db, 2, 3, 8, 1, 195, 120, 119, 193, 120, 195, 3, 1.18312
208, 1, wb, attraction, a-b-da, 14, 1, 8, 2, 135, 60, 60, 135, 125, 56, 3, 1.42146
208, 1, wb, attraction, a-b-da, 14, 1, 8, 2, 135, 60, 60, 135, 125, 56, 2, 0.435674
208, 1, wb, filler, NA, 999, 999, 8, 3, 62, 193, 176, 80, 162, 78, 1, 1.9521
208, 1, wb, filler, NA, 999, 999, 8, 3, 62, 193, 176, 80, 162, 78, 2, 0.832795
208, 1, wb, attraction, a-b-db, 9, 3, 8, 4, 120, 195, 195, 120, 114, 186, 3, 3.78911
208, 1, wb, attraction, a-b-db, 9, 3, 8, 4, 120, 195, 195, 120, 114, 186, 2, 0.499214
208, 1, wb, attraction, a-b-da, 9, 1, 8, 5, 129, 57, 60, 135, 135, 60, 1, 1.04496
208, 1, wb, attraction, a-b-da, 9, 1, 8, 5, 129, 57, 60, 135, 135, 60, 2, 1.098
208, 1, wb, attraction, a-b-da, 5, 2, 8, 6, 165, 90, 90, 165, 161, 88, 3, 1.00373
208, 1, wb, attraction, a-b-da, 5, 2, 8, 6, 165, 90, 90, 165, 161, 88, 2, 0.770762
208, 1, wb, attraction, a-b-db, 5, 1, 8, 7, 135, 60, 60, 135, 58, 132, 3, 0.937649
208, 1, wb, attraction, a-b-db, 5, 1, 8, 7, 135, 60, 60, 135, 58, 132, 2, 0.834689
208, 1, wb, attraction, a-b-db, 14, 2, 8, 8, 165, 90, 83, 153, 90, 165, 3, 2.11124
208, 1, wb, attraction, a-b-db, 14, 2, 8, 8, 165, 90, 83, 153, 90, 165, 2, 0.953055
208, 1, wb, attraction, a-b-da, 5, 1, 8, 9, 135, 60, 60, 135, 132, 58, 3, 1.14472
208, 1, wb, attraction, a-b-da, 5, 1, 8, 9, 135, 60, 60, 135, 132, 58, 1, 0.945712
208, 1, wb, catch, NA, 999, 999, 8, 10, 113, 82, 134, 121, 190, 125, 1, 1.1852
208, 1, wb, catch, NA, 999, 999, 8, 10, 113, 82, 134, 121, 190, 125, 3, 0.656831
208, 1, wb, filler, NA, 999, 999, 8, 11, 60, 187, 109, 129, 165, 154, 1, 2.31586
208, 1, wb, filler, NA, 999, 999, 8, 11, 60, 187, 109, 129, 165, 154, 3, 0.789921
208, 1, wb, filler, NA, 999, 999, 8, 12, 57, 133, 59, 124, 171, 102, 2, 1.83613
208, 1, wb, filler, NA, 999, 999, 8, 12, 57, 133, 59, 124, 171, 102, 3, 0.71361
208, 1, wb, attraction, a-b-da, 14, 2, 8, 13, 90, 165, 153, 83, 165, 90, 2, 1.15466
208, 1, wb, attraction, a-b-da, 14, 2, 8, 13, 90, 165, 153, 83, 165, 90, 3, 0.739596
208, 1, wb, catch, NA, 999, 999, 8, 14, 77, 118, 128, 187, 139, 116, 1, 0.779942
208, 1, wb, catch, NA, 999, 999, 8, 14, 77, 118, 128, 187, 139, 116, 2, 0.435787
208, 1, wb, attraction, a-b-db, 14, 3, 8, 15, 120, 195, 195, 120, 111, 181, 2, 0.784108
208, 1, wb, attraction, a-b-db, 14, 3, 8, 15, 120, 195, 195, 120, 111, 181, 1, 0.431882
208, 1, wb, filler, NA, 999, 999, 8, 16, 136, 120, 97, 113, 162, 194, 2, 0.580291
208, 1, wb, filler, NA, 999, 999, 8, 16, 136, 120, 97, 113, 162, 194, 3, 0.708148
208, 1, wb, attraction, a-b-db, 5, 3, 8, 17, 195, 120, 117, 190, 120, 195, 1, 0.765151
208, 1, wb, attraction, a-b-db, 5, 3, 8, 17, 195, 120, 117, 190, 120, 195, 2, 0.461574
208, 1, wb, filler, NA, 999, 999, 8, 18, 100, 169, 74, 111, 170, 157, 2, 0.984831
208, 1, wb, filler, NA, 999, 999, 8, 18, 100, 169, 74, 111, 170, 157, 3, 0.968395
208, 1, wb, filler, NA, 999, 999, 8, 19, 86, 83, 94, 77, 170, 156, 1, 0.815365
208, 1, wb, filler, NA, 999, 999, 8, 19, 86, 83, 94, 77, 170, 156, 3, 0.485761
208, 1, wb, attraction, a-b-da, 9, 2, 8, 20, 165, 90, 157, 86, 90, 165, 2, 1.04027
208, 1, wb, attraction, a-b-da, 9, 2, 8, 20, 165, 90, 157, 86, 90, 165, 3, 0.461168
208, 1, wb, filler, NA, 999, 999, 8, 21, 186, 144, 140, 170, 69, 109, 3, 0.688291
208, 1, wb, filler, NA, 999, 999, 8, 21, 186, 144, 140, 170, 69, 109, 2, 1.63542
208, 1, wb, attraction, a-b-db, 2, 2, 8, 22, 165, 90, 89, 163, 90, 165, 2, 1.10353
208, 1, wb, attraction, a-b-db, 2, 2, 8, 22, 165, 90, 89, 163, 90, 165, 1, 0.47463
208, 1, wb, filler, NA, 999, 999, 8, 23, 56, 166, 141, 171, 79, 129, 3, 1.20493
208, 1, wb, filler, NA, 999, 999, 8, 23, 56, 166, 141, 171, 79, 129, 2, 0.451247
208, 1, wb, attraction, a-b-db, 9, 1, 8, 24, 135, 60, 57, 129, 60, 135, 3, 0.710948
208, 1, wb, attraction, a-b-db, 9, 1, 8, 24, 135, 60, 57, 129, 60, 135, 2, 1.04138
208, 1, wb, attraction, a-b-da, 2, 3, 8, 25, 120, 195, 195, 120, 193, 119, 3, 1.18898
208, 1, wb, attraction, a-b-da, 2, 3, 8, 25, 120, 195, 195, 120, 193, 119, 1, 0.427906
208, 1, wb, attraction, a-b-da, 9, 3, 8, 26, 195, 120, 120, 195, 186, 114, 3, 1.38438
208, 1, wb, attraction, a-b-da, 9, 3, 8, 26, 195, 120, 120, 195, 186, 114, 2, 1.18393
208, 1, wb, attraction, a-b-db, 2, 1, 8, 27, 59, 134, 135, 60, 60, 135, 2, 1.93425
208, 1, wb, attraction, a-b-db, 2, 1, 8, 27, 59, 134, 135, 60, 60, 135, 3, 0.54358
208, 1, wb, attraction, a-b-da, 14, 3, 8, 28, 195, 120, 120, 195, 181, 111, 3, 2.23941
208, 1, wb, attraction, a-b-da, 14, 3, 8, 28, 195, 120, 120, 195, 181, 111, 2, 0.443911
208, 1, wb, attraction, a-b-db, 14, 1, 8, 29, 56, 125, 60, 135, 135, 60, 1, 0.871689
208, 1, wb, attraction, a-b-db, 14, 1, 8, 29, 56, 125, 60, 135, 135, 60, 3, 0.57142
208, 1, wb, attraction, a-b-db, 5, 2, 8, 30, 165, 90, 88, 161, 90, 165, 2, 1.15465
208, 1, wb, attraction, a-b-db, 5, 2, 8, 30, 165, 90, 88, 161, 90, 165, 1, 0.57949
208, 1, wb, attraction, a-b-da, 2, 1, 8, 31, 134, 59, 60, 135, 135, 60, 2, 0.698076
208, 1, wb, attraction, a-b-da, 2, 1, 8, 31, 134, 59, 60, 135, 135, 60, 3, 0.765051
208, 1, wb, attraction, a-b-da, 2, 2, 8, 32, 90, 165, 163, 89, 165, 90, 2, 1.11605
208, 1, wb, attraction, a-b-da, 2, 2, 8, 32, 90, 165, 163, 89, 165, 90, 1, 0.934314
208, 1, wb, filler, NA, 999, 999, 8, 33, 67, 190, 129, 106, 182, 77, 2, 0.5746
208, 1, wb, filler, NA, 999, 999, 8, 33, 67, 190, 129, 106, 182, 77, 3, 0.718441
208, 1, wb, filler, NA, 999, 999, 8, 34, 118, 143, 100, 140, 190, 103, 2, 0.591511
208, 1, wb, filler, NA, 999, 999, 8, 34, 118, 143, 100, 140, 190, 103, 3, 1.30267
208, 1, wb, attraction, a-b-db, 9, 2, 8, 35, 90, 165, 86, 157, 165, 90, 2, 0.808267
208, 1, wb, attraction, a-b-db, 9, 2, 8, 35, 90, 165, 86, 157, 165, 90, 3, 0.63856
208, 1, wb, attraction, a-b-da, 5, 3, 8, 36, 190, 117, 195, 120, 120, 195, 1, 2.01091
208, 1, wb, attraction, a-b-da, 5, 3, 8, 36, 190, 117, 195, 120, 120, 195, 3, 0.664927
208, 1, wb, catch, NA, 999, 999, 8, 37, 101, 94, 93, 162, 146, 169, 1, 0.563987
208, 1, wb, catch, NA, 999, 999, 8, 37, 101, 94, 93, 162, 146, 169, 3, 0.69263
