sub_n, computer_n, bw_cond, effect, set, distance, diag, block_n, trial_n, h1, w1, h2, w2, h3, w3, choice, rt 
268, 1, wb, practice, NA, 999, 999, 0, 1, 156, 188, 72, 59, 192, 147, 2, 2.40812
268, 1, wb, practice, NA, 999, 999, 0, 1, 156, 188, 72, 59, 192, 147, 1, 5.29479
268, 1, wb, practice, NA, 999, 999, 0, 2, 125, 71, 97, 168, 103, 127, 1, 3.10957
268, 1, wb, practice, NA, 999, 999, 0, 2, 125, 71, 97, 168, 103, 127, 2, 2.58151
268, 1, wb, practice, NA, 999, 999, 0, 3, 162, 85, 177, 193, 163, 103, 1, 3.34625
268, 1, wb, practice, NA, 999, 999, 0, 3, 162, 85, 177, 193, 163, 103, 2, 1.40042
268, 1, wb, filler, NA, 999, 999, 1, 1, 121, 103, 100, 144, 169, 92, 1, 4.5916
268, 1, wb, filler, NA, 999, 999, 1, 1, 121, 103, 100, 144, 169, 92, 3, 1.38146
268, 1, wb, attraction, a-b-da, 14, 1, 1, 2, 135, 60, 60, 135, 125, 56, 3, 3.33965
268, 1, wb, attraction, a-b-da, 14, 1, 1, 2, 135, 60, 60, 135, 125, 56, 2, 1.94788
268, 1, wb, catch, NA, 999, 999, 1, 3, 88, 107, 145, 110, 192, 123, 1, 1.45133
268, 1, wb, catch, NA, 999, 999, 1, 3, 88, 107, 145, 110, 192, 123, 3, 0.728237
268, 1, wb, filler, NA, 999, 999, 1, 4, 146, 163, 153, 81, 101, 114, 3, 2.76848
268, 1, wb, filler, NA, 999, 999, 1, 4, 146, 163, 153, 81, 101, 114, 1, 1.36833
268, 1, wb, filler, NA, 999, 999, 1, 5, 112, 159, 164, 64, 73, 166, 2, 2.51906
268, 1, wb, filler, NA, 999, 999, 1, 5, 112, 159, 164, 64, 73, 166, 1, 1.01688
268, 1, wb, attraction, a-b-da, 5, 1, 1, 6, 132, 58, 60, 135, 135, 60, 2, 4.42979
268, 1, wb, attraction, a-b-da, 5, 1, 1, 6, 132, 58, 60, 135, 135, 60, 3, 1.3545
268, 1, wb, catch, NA, 999, 999, 1, 7, 113, 142, 134, 181, 109, 86, 3, 2.43389
268, 1, wb, catch, NA, 999, 999, 1, 7, 113, 142, 134, 181, 109, 86, 2, 1.1273
268, 1, wb, attraction, a-b-da, 9, 1, 1, 8, 129, 57, 135, 60, 60, 135, 1, 3.08736
268, 1, wb, attraction, a-b-da, 9, 1, 1, 8, 129, 57, 135, 60, 60, 135, 3, 2.36249
268, 1, wb, attraction, a-b-da, 14, 2, 1, 9, 90, 165, 165, 90, 153, 83, 3, 4.18511
268, 1, wb, attraction, a-b-da, 14, 2, 1, 9, 90, 165, 165, 90, 153, 83, 2, 3.71163
268, 1, wb, attraction, a-b-db, 2, 2, 1, 10, 165, 90, 89, 163, 90, 165, 2, 4.82374
268, 1, wb, attraction, a-b-db, 2, 2, 1, 10, 165, 90, 89, 163, 90, 165, 1, 2.14828
268, 1, wb, filler, NA, 999, 999, 1, 11, 111, 195, 66, 116, 139, 113, 2, 1.56354
268, 1, wb, filler, NA, 999, 999, 1, 11, 111, 195, 66, 116, 139, 113, 1, 0.747723
268, 1, wb, filler, NA, 999, 999, 1, 12, 174, 91, 172, 72, 116, 79, 3, 6.33947
268, 1, wb, filler, NA, 999, 999, 1, 12, 174, 91, 172, 72, 116, 79, 1, 1.69063
268, 1, wb, catch, NA, 999, 999, 1, 13, 130, 65, 145, 170, 102, 153, 1, 2.46019
268, 1, wb, catch, NA, 999, 999, 1, 13, 130, 65, 145, 170, 102, 153, 2, 1.22396
268, 1, wb, filler, NA, 999, 999, 1, 14, 174, 104, 172, 92, 187, 174, 2, 2.87622
268, 1, wb, filler, NA, 999, 999, 1, 14, 174, 104, 172, 92, 187, 174, 3, 1.15142
268, 1, wb, attraction, a-b-da, 2, 2, 1, 15, 163, 89, 90, 165, 165, 90, 3, 3.11081
268, 1, wb, attraction, a-b-da, 2, 2, 1, 15, 163, 89, 90, 165, 165, 90, 2, 1.04052
268, 1, wb, attraction, a-b-db, 5, 3, 1, 16, 120, 195, 195, 120, 117, 190, 3, 3.29232
268, 1, wb, attraction, a-b-db, 5, 3, 1, 16, 120, 195, 195, 120, 117, 190, 2, 1.0624
268, 1, wb, filler, NA, 999, 999, 1, 17, 127, 89, 78, 72, 168, 177, 2, 1.58539
268, 1, wb, filler, NA, 999, 999, 1, 17, 127, 89, 78, 72, 168, 177, 3, 0.608813
268, 1, wb, attraction, a-b-db, 9, 1, 1, 18, 60, 135, 57, 129, 135, 60, 2, 5.39782
268, 1, wb, attraction, a-b-db, 9, 1, 1, 18, 60, 135, 57, 129, 135, 60, 3, 1.13165
268, 1, wb, filler, NA, 999, 999, 1, 19, 94, 143, 151, 143, 170, 61, 3, 8.11584
268, 1, wb, filler, NA, 999, 999, 1, 19, 94, 143, 151, 143, 170, 61, 2, 0.628067
268, 1, wb, attraction, a-b-da, 9, 2, 1, 20, 157, 86, 90, 165, 165, 90, 1, 4.07227
268, 1, wb, attraction, a-b-da, 9, 2, 1, 20, 157, 86, 90, 165, 165, 90, 2, 1.42769
268, 1, wb, attraction, a-b-db, 14, 1, 1, 21, 60, 135, 135, 60, 56, 125, 3, 4.47979
268, 1, wb, attraction, a-b-db, 14, 1, 1, 21, 60, 135, 135, 60, 56, 125, 2, 1.07443
268, 1, wb, attraction, a-b-db, 5, 2, 1, 22, 88, 161, 90, 165, 165, 90, 3, 5.13272
268, 1, wb, attraction, a-b-db, 5, 2, 1, 22, 88, 161, 90, 165, 165, 90, 2, 1.40508
268, 1, wb, attraction, a-b-db, 2, 3, 1, 23, 195, 120, 120, 195, 119, 193, 3, 3.54645
268, 1, wb, attraction, a-b-db, 2, 3, 1, 23, 195, 120, 120, 195, 119, 193, 2, 0.618736
268, 1, wb, attraction, a-b-da, 5, 3, 1, 24, 195, 120, 120, 195, 190, 117, 2, 5.67988
268, 1, wb, attraction, a-b-da, 5, 3, 1, 24, 195, 120, 120, 195, 190, 117, 1, 0.738009
268, 1, wb, attraction, a-b-da, 2, 3, 1, 25, 120, 195, 195, 120, 193, 119, 3, 4.67444
268, 1, wb, attraction, a-b-da, 2, 3, 1, 25, 120, 195, 195, 120, 193, 119, 1, 1.18091
268, 1, wb, attraction, a-b-db, 9, 3, 1, 26, 120, 195, 195, 120, 114, 186, 3, 3.39513
268, 1, wb, attraction, a-b-db, 9, 3, 1, 26, 120, 195, 195, 120, 114, 186, 1, 2.35351
268, 1, wb, attraction, a-b-da, 5, 2, 1, 27, 161, 88, 90, 165, 165, 90, 1, 1.95262
268, 1, wb, attraction, a-b-da, 5, 2, 1, 27, 161, 88, 90, 165, 165, 90, 2, 1.56926
268, 1, wb, filler, NA, 999, 999, 1, 28, 152, 180, 62, 150, 109, 92, 2, 5.37609
268, 1, wb, filler, NA, 999, 999, 1, 28, 152, 180, 62, 150, 109, 92, 1, 0.790379
268, 1, wb, attraction, a-b-db, 5, 1, 1, 29, 60, 135, 135, 60, 58, 132, 3, 2.4361
268, 1, wb, attraction, a-b-db, 5, 1, 1, 29, 60, 135, 135, 60, 58, 132, 2, 0.553398
268, 1, wb, attraction, a-b-da, 2, 1, 1, 30, 135, 60, 60, 135, 134, 59, 3, 2.46502
268, 1, wb, attraction, a-b-da, 2, 1, 1, 30, 135, 60, 60, 135, 134, 59, 2, 1.35694
268, 1, wb, attraction, a-b-db, 14, 2, 1, 31, 90, 165, 83, 153, 165, 90, 3, 4.18775
268, 1, wb, attraction, a-b-db, 14, 2, 1, 31, 90, 165, 83, 153, 165, 90, 1, 0.890565
268, 1, wb, attraction, a-b-da, 14, 3, 1, 32, 195, 120, 181, 111, 120, 195, 2, 2.7882
268, 1, wb, attraction, a-b-da, 14, 3, 1, 32, 195, 120, 181, 111, 120, 195, 3, 0.963213
268, 1, wb, filler, NA, 999, 999, 1, 33, 186, 180, 171, 97, 166, 144, 2, 2.8262
268, 1, wb, filler, NA, 999, 999, 1, 33, 186, 180, 171, 97, 166, 144, 1, 0.911232
268, 1, wb, attraction, a-b-db, 9, 2, 1, 34, 165, 90, 86, 157, 90, 165, 1, 4.8243
268, 1, wb, attraction, a-b-db, 9, 2, 1, 34, 165, 90, 86, 157, 90, 165, 3, 1.7327
268, 1, wb, attraction, a-b-db, 14, 3, 1, 35, 120, 195, 111, 181, 195, 120, 2, 6.94881
268, 1, wb, attraction, a-b-db, 14, 3, 1, 35, 120, 195, 111, 181, 195, 120, 3, 0.971896
268, 1, wb, attraction, a-b-db, 2, 1, 1, 36, 135, 60, 60, 135, 59, 134, 1, 2.57091
268, 1, wb, attraction, a-b-db, 2, 1, 1, 36, 135, 60, 60, 135, 59, 134, 2, 0.94693
268, 1, wb, attraction, a-b-da, 9, 3, 1, 37, 186, 114, 120, 195, 195, 120, 1, 4.7944
268, 1, wb, attraction, a-b-da, 9, 3, 1, 37, 186, 114, 120, 195, 195, 120, 2, 0.784285
268, 1, wb, catch, NA, 999, 999, 2, 1, 146, 109, 139, 176, 107, 88, 3, 1.35057
268, 1, wb, catch, NA, 999, 999, 2, 1, 146, 109, 139, 176, 107, 88, 2, 0.631355
268, 1, wb, catch, NA, 999, 999, 2, 2, 172, 143, 120, 135, 99, 96, 3, 1.65197
268, 1, wb, catch, NA, 999, 999, 2, 2, 172, 143, 120, 135, 99, 96, 1, 0.680571
268, 1, wb, attraction, a-b-da, 2, 2, 2, 3, 90, 165, 163, 89, 165, 90, 3, 2.61117
268, 1, wb, attraction, a-b-da, 2, 2, 2, 3, 90, 165, 163, 89, 165, 90, 2, 0.936855
268, 1, wb, attraction, a-b-db, 2, 1, 2, 4, 60, 135, 135, 60, 59, 134, 3, 1.94512
268, 1, wb, attraction, a-b-db, 2, 1, 2, 4, 60, 135, 135, 60, 59, 134, 2, 1.314
268, 1, wb, attraction, a-b-da, 14, 1, 2, 5, 135, 60, 125, 56, 60, 135, 2, 4.82675
268, 1, wb, attraction, a-b-da, 14, 1, 2, 5, 135, 60, 125, 56, 60, 135, 3, 1.27117
268, 1, wb, filler, NA, 999, 999, 2, 6, 67, 94, 185, 138, 105, 114, 1, 2.026
268, 1, wb, filler, NA, 999, 999, 2, 6, 67, 94, 185, 138, 105, 114, 2, 1.70345
268, 1, wb, attraction, a-b-db, 9, 3, 2, 7, 120, 195, 114, 186, 195, 120, 3, 6.45699
268, 1, wb, attraction, a-b-db, 9, 3, 2, 7, 120, 195, 114, 186, 195, 120, 1, 0.835392
268, 1, wb, attraction, a-b-da, 9, 1, 2, 8, 60, 135, 135, 60, 129, 57, 3, 2.12779
268, 1, wb, attraction, a-b-da, 9, 1, 2, 8, 60, 135, 135, 60, 129, 57, 2, 0.641077
268, 1, wb, attraction, a-b-da, 5, 2, 2, 9, 161, 88, 165, 90, 90, 165, 1, 5.42889
268, 1, wb, attraction, a-b-da, 5, 2, 2, 9, 161, 88, 165, 90, 90, 165, 3, 1.30522
268, 1, wb, attraction, a-b-db, 5, 2, 2, 10, 90, 165, 165, 90, 88, 161, 3, 1.98662
268, 1, wb, attraction, a-b-db, 5, 2, 2, 10, 90, 165, 165, 90, 88, 161, 2, 0.554
268, 1, wb, filler, NA, 999, 999, 2, 11, 86, 190, 178, 82, 161, 157, 2, 3.2898
268, 1, wb, filler, NA, 999, 999, 2, 11, 86, 190, 178, 82, 161, 157, 3, 1.54015
268, 1, wb, attraction, a-b-da, 2, 1, 2, 12, 135, 60, 60, 135, 134, 59, 2, 4.83556
268, 1, wb, attraction, a-b-da, 2, 1, 2, 12, 135, 60, 60, 135, 134, 59, 3, 0.928023
268, 1, wb, attraction, a-b-da, 5, 1, 2, 13, 132, 58, 135, 60, 60, 135, 1, 3.3683
268, 1, wb, attraction, a-b-da, 5, 1, 2, 13, 132, 58, 135, 60, 60, 135, 3, 0.935907
268, 1, wb, attraction, a-b-db, 9, 1, 2, 14, 135, 60, 60, 135, 57, 129, 3, 6.68023
268, 1, wb, attraction, a-b-db, 9, 1, 2, 14, 135, 60, 60, 135, 57, 129, 2, 0.874143
268, 1, wb, filler, NA, 999, 999, 2, 15, 87, 91, 66, 181, 173, 141, 1, 2.10839
268, 1, wb, filler, NA, 999, 999, 2, 15, 87, 91, 66, 181, 173, 141, 3, 2.15045
268, 1, wb, attraction, a-b-db, 5, 3, 2, 16, 195, 120, 117, 190, 120, 195, 1, 4.26174
268, 1, wb, attraction, a-b-db, 5, 3, 2, 16, 195, 120, 117, 190, 120, 195, 2, 0.905006
268, 1, wb, filler, NA, 999, 999, 2, 17, 56, 174, 160, 61, 188, 87, 1, 2.10679
268, 1, wb, filler, NA, 999, 999, 2, 17, 56, 174, 160, 61, 188, 87, 3, 0.716675
268, 1, wb, attraction, a-b-da, 2, 3, 2, 18, 195, 120, 120, 195, 193, 119, 3, 2.12572
268, 1, wb, attraction, a-b-da, 2, 3, 2, 18, 195, 120, 120, 195, 193, 119, 2, 0.670931
268, 1, wb, attraction, a-b-da, 9, 2, 2, 19, 165, 90, 90, 165, 157, 86, 3, 2.4262
268, 1, wb, attraction, a-b-da, 9, 2, 2, 19, 165, 90, 90, 165, 157, 86, 1, 0.631209
268, 1, wb, attraction, a-b-db, 5, 1, 2, 20, 58, 132, 135, 60, 60, 135, 1, 3.19576
268, 1, wb, attraction, a-b-db, 5, 1, 2, 20, 58, 132, 135, 60, 60, 135, 2, 1.15406
268, 1, wb, attraction, a-b-da, 14, 3, 2, 21, 181, 111, 195, 120, 120, 195, 1, 5.76153
268, 1, wb, attraction, a-b-da, 14, 3, 2, 21, 181, 111, 195, 120, 120, 195, 2, 0.768394
268, 1, wb, attraction, a-b-db, 2, 3, 2, 22, 195, 120, 120, 195, 119, 193, 1, 3.09535
268, 1, wb, attraction, a-b-db, 2, 3, 2, 22, 195, 120, 120, 195, 119, 193, 2, 0.721887
268, 1, wb, attraction, a-b-da, 9, 3, 2, 23, 120, 195, 186, 114, 195, 120, 3, 3.74695
268, 1, wb, attraction, a-b-da, 9, 3, 2, 23, 120, 195, 186, 114, 195, 120, 1, 1.05097
268, 1, wb, filler, NA, 999, 999, 2, 24, 137, 120, 88, 184, 127, 116, 3, 4.78278
268, 1, wb, filler, NA, 999, 999, 2, 24, 137, 120, 88, 184, 127, 116, 1, 2.38103
268, 1, wb, attraction, a-b-db, 14, 1, 2, 25, 60, 135, 135, 60, 56, 125, 3, 1.66696
268, 1, wb, attraction, a-b-db, 14, 1, 2, 25, 60, 135, 135, 60, 56, 125, 2, 0.463102
268, 1, wb, attraction, a-b-db, 2, 2, 2, 26, 165, 90, 89, 163, 90, 165, 1, 2.49812
268, 1, wb, attraction, a-b-db, 2, 2, 2, 26, 165, 90, 89, 163, 90, 165, 2, 0.604685
268, 1, wb, attraction, a-b-da, 5, 3, 2, 27, 120, 195, 190, 117, 195, 120, 3, 14.0344
268, 1, wb, attraction, a-b-da, 5, 3, 2, 27, 120, 195, 190, 117, 195, 120, 1, 0.932015
268, 1, wb, attraction, a-b-da, 14, 2, 2, 28, 90, 165, 165, 90, 153, 83, 3, 7.36448
268, 1, wb, attraction, a-b-da, 14, 2, 2, 28, 90, 165, 165, 90, 153, 83, 1, 0.642697
268, 1, wb, catch, NA, 999, 999, 2, 29, 171, 144, 111, 84, 165, 90, 2, 1.43839
268, 1, wb, catch, NA, 999, 999, 2, 29, 171, 144, 111, 84, 165, 90, 1, 0.331355
268, 1, wb, filler, NA, 999, 999, 2, 30, 143, 110, 139, 112, 84, 65, 3, 1.57984
268, 1, wb, filler, NA, 999, 999, 2, 30, 143, 110, 139, 112, 84, 65, 2, 2.0673
268, 1, wb, attraction, a-b-db, 14, 2, 2, 31, 165, 90, 90, 165, 83, 153, 3, 1.39002
268, 1, wb, attraction, a-b-db, 14, 2, 2, 31, 165, 90, 90, 165, 83, 153, 2, 0.396817
268, 1, wb, filler, NA, 999, 999, 2, 32, 189, 189, 153, 110, 136, 167, 2, 1.60263
268, 1, wb, filler, NA, 999, 999, 2, 32, 189, 189, 153, 110, 136, 167, 1, 0.297474
268, 1, wb, attraction, a-b-db, 9, 2, 2, 33, 165, 90, 90, 165, 86, 157, 3, 2.92332
268, 1, wb, attraction, a-b-db, 9, 2, 2, 33, 165, 90, 90, 165, 86, 157, 1, 2.76447
268, 1, wb, filler, NA, 999, 999, 2, 34, 99, 106, 164, 89, 155, 181, 1, 2.11474
268, 1, wb, filler, NA, 999, 999, 2, 34, 99, 106, 164, 89, 155, 181, 3, 0.940778
268, 1, wb, filler, NA, 999, 999, 2, 35, 60, 80, 195, 68, 118, 188, 1, 3.54846
268, 1, wb, filler, NA, 999, 999, 2, 35, 60, 80, 195, 68, 118, 188, 3, 1.19667
268, 1, wb, filler, NA, 999, 999, 2, 36, 141, 57, 176, 117, 97, 93, 1, 3.51415
268, 1, wb, filler, NA, 999, 999, 2, 36, 141, 57, 176, 117, 97, 93, 2, 0.547652
268, 1, wb, attraction, a-b-db, 14, 3, 2, 37, 111, 181, 195, 120, 120, 195, 1, 2.71536
268, 1, wb, attraction, a-b-db, 14, 3, 2, 37, 111, 181, 195, 120, 120, 195, 3, 1.42125
268, 1, wb, attraction, a-b-db, 9, 1, 3, 1, 135, 60, 57, 129, 60, 135, 1, 7.81799
268, 1, wb, attraction, a-b-db, 9, 1, 3, 1, 135, 60, 57, 129, 60, 135, 3, 0.726266
268, 1, wb, attraction, a-b-db, 5, 3, 3, 2, 120, 195, 195, 120, 117, 190, 3, 2.13459
268, 1, wb, attraction, a-b-db, 5, 3, 3, 2, 120, 195, 195, 120, 117, 190, 2, 0.895927
268, 1, wb, attraction, a-b-da, 14, 2, 3, 3, 165, 90, 153, 83, 90, 165, 2, 3.88157
268, 1, wb, attraction, a-b-da, 14, 2, 3, 3, 165, 90, 153, 83, 90, 165, 1, 0.860428
268, 1, wb, attraction, a-b-da, 2, 3, 3, 4, 195, 120, 193, 119, 120, 195, 1, 3.01534
268, 1, wb, attraction, a-b-da, 2, 3, 3, 4, 195, 120, 193, 119, 120, 195, 3, 0.941065
268, 1, wb, attraction, a-b-db, 2, 2, 3, 5, 89, 163, 90, 165, 165, 90, 3, 3.82866
268, 1, wb, attraction, a-b-db, 2, 2, 3, 5, 89, 163, 90, 165, 165, 90, 1, 1.3375
268, 1, wb, catch, NA, 999, 999, 3, 6, 160, 155, 121, 74, 96, 159, 2, 1.83373
268, 1, wb, catch, NA, 999, 999, 3, 6, 160, 155, 121, 74, 96, 159, 1, 0.679048
268, 1, wb, attraction, a-b-da, 9, 3, 3, 7, 195, 120, 186, 114, 120, 195, 3, 2.48158
268, 1, wb, attraction, a-b-da, 9, 3, 3, 7, 195, 120, 186, 114, 120, 195, 2, 0.564682
268, 1, wb, filler, NA, 999, 999, 3, 8, 117, 98, 107, 96, 62, 186, 2, 4.45178
268, 1, wb, filler, NA, 999, 999, 3, 8, 117, 98, 107, 96, 62, 186, 3, 1.27976
268, 1, wb, attraction, a-b-db, 14, 3, 3, 9, 120, 195, 111, 181, 195, 120, 3, 3.01813
268, 1, wb, attraction, a-b-db, 14, 3, 3, 9, 120, 195, 111, 181, 195, 120, 1, 0.503576
268, 1, wb, attraction, a-b-db, 9, 2, 3, 10, 86, 157, 165, 90, 90, 165, 1, 2.51339
268, 1, wb, attraction, a-b-db, 9, 2, 3, 10, 86, 157, 165, 90, 90, 165, 3, 0.763298
268, 1, wb, attraction, a-b-db, 2, 3, 3, 11, 195, 120, 120, 195, 119, 193, 3, 2.32224
268, 1, wb, attraction, a-b-db, 2, 3, 3, 11, 195, 120, 120, 195, 119, 193, 2, 0.37157
268, 1, wb, attraction, a-b-da, 14, 3, 3, 12, 195, 120, 181, 111, 120, 195, 3, 8.85864
268, 1, wb, attraction, a-b-da, 14, 3, 3, 12, 195, 120, 181, 111, 120, 195, 1, 0.524468
268, 1, wb, filler, NA, 999, 999, 3, 13, 85, 155, 110, 76, 188, 105, 2, 1.78903
268, 1, wb, filler, NA, 999, 999, 3, 13, 85, 155, 110, 76, 188, 105, 3, 0.915711
268, 1, wb, filler, NA, 999, 999, 3, 14, 171, 161, 194, 127, 81, 178, 3, 2.58866
268, 1, wb, filler, NA, 999, 999, 3, 14, 171, 161, 194, 127, 81, 178, 1, 0.835383
268, 1, wb, filler, NA, 999, 999, 3, 15, 137, 113, 110, 123, 69, 149, 3, 2.73562
268, 1, wb, filler, NA, 999, 999, 3, 15, 137, 113, 110, 123, 69, 149, 1, 0.672821
268, 1, wb, filler, NA, 999, 999, 3, 16, 62, 160, 96, 179, 104, 96, 3, 2.46777
268, 1, wb, filler, NA, 999, 999, 3, 16, 62, 160, 96, 179, 104, 96, 2, 0.471626
268, 1, wb, attraction, a-b-db, 14, 1, 3, 17, 135, 60, 56, 125, 60, 135, 2, 1.5228
268, 1, wb, attraction, a-b-db, 14, 1, 3, 17, 135, 60, 56, 125, 60, 135, 3, 1.08426
268, 1, wb, attraction, a-b-da, 5, 3, 3, 18, 195, 120, 120, 195, 190, 117, 1, 1.89458
268, 1, wb, attraction, a-b-da, 5, 3, 3, 18, 195, 120, 120, 195, 190, 117, 2, 0.537182
268, 1, wb, catch, NA, 999, 999, 3, 19, 125, 70, 172, 143, 135, 120, 1, 1.44164
268, 1, wb, catch, NA, 999, 999, 3, 19, 125, 70, 172, 143, 135, 120, 2, 0.310637
268, 1, wb, attraction, a-b-db, 14, 2, 3, 20, 165, 90, 90, 165, 83, 153, 3, 3.63975
268, 1, wb, attraction, a-b-db, 14, 2, 3, 20, 165, 90, 90, 165, 83, 153, 1, 1.20399
268, 1, wb, attraction, a-b-da, 2, 1, 3, 21, 135, 60, 60, 135, 134, 59, 3, 4.43345
268, 1, wb, attraction, a-b-da, 2, 1, 3, 21, 135, 60, 60, 135, 134, 59, 2, 1.30217
268, 1, wb, attraction, a-b-da, 5, 1, 3, 22, 60, 135, 132, 58, 135, 60, 1, 3.06361
268, 1, wb, attraction, a-b-da, 5, 1, 3, 22, 60, 135, 132, 58, 135, 60, 3, 1.60329
268, 1, wb, filler, NA, 999, 999, 3, 23, 136, 124, 136, 141, 147, 89, 3, 1.73673
268, 1, wb, filler, NA, 999, 999, 3, 23, 136, 124, 136, 141, 147, 89, 2, 0.322206
268, 1, wb, attraction, a-b-da, 2, 2, 3, 24, 90, 165, 163, 89, 165, 90, 1, 3.51526
268, 1, wb, attraction, a-b-da, 2, 2, 3, 24, 90, 165, 163, 89, 165, 90, 2, 0.572867
268, 1, wb, filler, NA, 999, 999, 3, 25, 138, 195, 103, 132, 141, 173, 2, 1.47595
268, 1, wb, filler, NA, 999, 999, 3, 25, 138, 195, 103, 132, 141, 173, 1, 1.31943
268, 1, wb, attraction, a-b-da, 9, 1, 3, 26, 135, 60, 60, 135, 129, 57, 3, 3.32045
268, 1, wb, attraction, a-b-da, 9, 1, 3, 26, 135, 60, 60, 135, 129, 57, 2, 1.52993
268, 1, wb, attraction, a-b-da, 5, 2, 3, 27, 165, 90, 90, 165, 161, 88, 3, 3.7941
268, 1, wb, attraction, a-b-da, 5, 2, 3, 27, 165, 90, 90, 165, 161, 88, 2, 0.400175
268, 1, wb, filler, NA, 999, 999, 3, 28, 187, 158, 176, 89, 142, 57, 3, 1.70211
268, 1, wb, filler, NA, 999, 999, 3, 28, 187, 158, 176, 89, 142, 57, 1, 0.504719
268, 1, wb, attraction, a-b-db, 9, 3, 3, 29, 114, 186, 195, 120, 120, 195, 1, 10.1625
268, 1, wb, attraction, a-b-db, 9, 3, 3, 29, 114, 186, 195, 120, 120, 195, 2, 0.359971
268, 1, wb, attraction, a-b-da, 9, 2, 3, 30, 165, 90, 157, 86, 90, 165, 2, 6.86314
268, 1, wb, attraction, a-b-da, 9, 2, 3, 30, 165, 90, 157, 86, 90, 165, 3, 1.58571
268, 1, wb, attraction, a-b-db, 5, 2, 3, 31, 88, 161, 165, 90, 90, 165, 1, 2.20783
268, 1, wb, attraction, a-b-db, 5, 2, 3, 31, 88, 161, 165, 90, 90, 165, 2, 1.02975
268, 1, wb, attraction, a-b-db, 5, 1, 3, 32, 135, 60, 58, 132, 60, 135, 1, 3.63401
268, 1, wb, attraction, a-b-db, 5, 1, 3, 32, 135, 60, 58, 132, 60, 135, 2, 0.638821
268, 1, wb, attraction, a-b-db, 2, 1, 3, 33, 59, 134, 60, 135, 135, 60, 1, 3.69924
268, 1, wb, attraction, a-b-db, 2, 1, 3, 33, 59, 134, 60, 135, 135, 60, 2, 0.55748
268, 1, wb, attraction, a-b-da, 14, 1, 3, 34, 125, 56, 135, 60, 60, 135, 1, 1.84445
268, 1, wb, attraction, a-b-da, 14, 1, 3, 34, 125, 56, 135, 60, 60, 135, 3, 1.12121
268, 1, wb, filler, NA, 999, 999, 3, 35, 193, 72, 116, 79, 155, 133, 2, 1.66613
268, 1, wb, filler, NA, 999, 999, 3, 35, 193, 72, 116, 79, 155, 133, 3, 0.478286
268, 1, wb, filler, NA, 999, 999, 3, 36, 182, 173, 116, 84, 189, 111, 2, 1.40065
268, 1, wb, filler, NA, 999, 999, 3, 36, 182, 173, 116, 84, 189, 111, 1, 0.295618
268, 1, wb, catch, NA, 999, 999, 3, 37, 91, 164, 67, 128, 194, 121, 2, 1.47348
268, 1, wb, catch, NA, 999, 999, 3, 37, 91, 164, 67, 128, 194, 121, 3, 0.428977
268, 1, wb, filler, NA, 999, 999, 4, 1, 144, 92, 174, 140, 66, 71, 3, 1.30548
268, 1, wb, filler, NA, 999, 999, 4, 1, 144, 92, 174, 140, 66, 71, 2, 0.267808
268, 1, wb, filler, NA, 999, 999, 4, 2, 111, 135, 153, 164, 117, 63, 3, 1.65492
268, 1, wb, filler, NA, 999, 999, 4, 2, 111, 135, 153, 164, 117, 63, 2, 0.27495
268, 1, wb, attraction, a-b-da, 2, 1, 4, 3, 134, 59, 135, 60, 60, 135, 1, 3.70954
268, 1, wb, attraction, a-b-da, 2, 1, 4, 3, 134, 59, 135, 60, 60, 135, 2, 2.30302
268, 1, wb, attraction, a-b-da, 14, 1, 4, 4, 60, 135, 125, 56, 135, 60, 1, 2.60819
268, 1, wb, attraction, a-b-da, 14, 1, 4, 4, 60, 135, 125, 56, 135, 60, 3, 1.19016
268, 1, wb, filler, NA, 999, 999, 4, 5, 82, 87, 59, 163, 193, 132, 1, 1.86826
268, 1, wb, filler, NA, 999, 999, 4, 5, 82, 87, 59, 163, 193, 132, 3, 0.736314
268, 1, wb, filler, NA, 999, 999, 4, 6, 124, 161, 63, 68, 67, 157, 2, 1.00875
268, 1, wb, filler, NA, 999, 999, 4, 6, 124, 161, 63, 68, 67, 157, 1, 0.687197
268, 1, wb, attraction, a-b-da, 9, 3, 4, 7, 120, 195, 195, 120, 186, 114, 3, 4.12159
268, 1, wb, attraction, a-b-da, 9, 3, 4, 7, 120, 195, 195, 120, 186, 114, 2, 2.90676
268, 1, wb, attraction, a-b-da, 14, 3, 4, 8, 195, 120, 120, 195, 181, 111, 3, 1.80383
268, 1, wb, attraction, a-b-da, 14, 3, 4, 8, 195, 120, 120, 195, 181, 111, 1, 1.19468
268, 1, wb, catch, NA, 999, 999, 4, 9, 123, 72, 100, 155, 131, 184, 1, 1.47208
268, 1, wb, catch, NA, 999, 999, 4, 9, 123, 72, 100, 155, 131, 184, 3, 0.635749
268, 1, wb, attraction, a-b-db, 5, 3, 4, 10, 117, 190, 120, 195, 195, 120, 1, 3.19214
268, 1, wb, attraction, a-b-db, 5, 3, 4, 10, 117, 190, 120, 195, 195, 120, 2, 1.02239
268, 1, wb, attraction, a-b-db, 2, 3, 4, 11, 119, 193, 120, 195, 195, 120, 3, 1.51537
268, 1, wb, attraction, a-b-db, 2, 3, 4, 11, 119, 193, 120, 195, 195, 120, 2, 0.581531
268, 1, wb, filler, NA, 999, 999, 4, 12, 141, 158, 117, 168, 139, 116, 3, 1.38798
268, 1, wb, filler, NA, 999, 999, 4, 12, 141, 158, 117, 168, 139, 116, 1, 0.803441
268, 1, wb, attraction, a-b-da, 14, 2, 4, 13, 90, 165, 165, 90, 153, 83, 3, 1.75316
268, 1, wb, attraction, a-b-da, 14, 2, 4, 13, 90, 165, 165, 90, 153, 83, 2, 0.513946
268, 1, wb, attraction, a-b-db, 9, 2, 4, 14, 90, 165, 165, 90, 86, 157, 3, 1.68313
268, 1, wb, attraction, a-b-db, 9, 2, 4, 14, 90, 165, 165, 90, 86, 157, 2, 0.958558
268, 1, wb, attraction, a-b-db, 2, 2, 4, 15, 89, 163, 165, 90, 90, 165, 1, 2.85346
268, 1, wb, attraction, a-b-db, 2, 2, 4, 15, 89, 163, 165, 90, 90, 165, 2, 1.12996
268, 1, wb, attraction, a-b-da, 5, 3, 4, 16, 195, 120, 190, 117, 120, 195, 2, 6.53028
268, 1, wb, attraction, a-b-da, 5, 3, 4, 16, 195, 120, 190, 117, 120, 195, 3, 0.954064
268, 1, wb, attraction, a-b-db, 5, 2, 4, 17, 88, 161, 165, 90, 90, 165, 1, 2.97776
268, 1, wb, attraction, a-b-db, 5, 2, 4, 17, 88, 161, 165, 90, 90, 165, 3, 0.712887
268, 1, wb, attraction, a-b-da, 5, 1, 4, 18, 135, 60, 132, 58, 60, 135, 3, 6.19395
268, 1, wb, attraction, a-b-da, 5, 1, 4, 18, 135, 60, 132, 58, 60, 135, 1, 0.63132
268, 1, wb, attraction, a-b-da, 5, 2, 4, 19, 161, 88, 90, 165, 165, 90, 1, 1.67571
268, 1, wb, attraction, a-b-da, 5, 2, 4, 19, 161, 88, 90, 165, 165, 90, 2, 0.382983
268, 1, wb, attraction, a-b-da, 9, 1, 4, 20, 60, 135, 129, 57, 135, 60, 3, 5.0776
268, 1, wb, attraction, a-b-da, 9, 1, 4, 20, 60, 135, 129, 57, 135, 60, 1, 0.959924
268, 1, wb, attraction, a-b-db, 9, 3, 4, 21, 114, 186, 195, 120, 120, 195, 1, 5.58279
268, 1, wb, attraction, a-b-db, 9, 3, 4, 21, 114, 186, 195, 120, 120, 195, 3, 0.853192
268, 1, wb, attraction, a-b-db, 14, 1, 4, 22, 60, 135, 135, 60, 56, 125, 3, 8.71281
268, 1, wb, attraction, a-b-db, 14, 1, 4, 22, 60, 135, 135, 60, 56, 125, 1, 0.625137
268, 1, wb, catch, NA, 999, 999, 4, 23, 116, 139, 166, 149, 116, 79, 3, 3.70117
268, 1, wb, catch, NA, 999, 999, 4, 23, 116, 139, 166, 149, 116, 79, 2, 0.671191
268, 1, wb, filler, NA, 999, 999, 4, 24, 71, 60, 154, 70, 66, 107, 1, 2.47436
268, 1, wb, filler, NA, 999, 999, 4, 24, 71, 60, 154, 70, 66, 107, 2, 0.98954
268, 1, wb, filler, NA, 999, 999, 4, 25, 127, 188, 143, 94, 143, 195, 2, 1.4919
268, 1, wb, filler, NA, 999, 999, 4, 25, 127, 188, 143, 94, 143, 195, 3, 0.390681
268, 1, wb, attraction, a-b-da, 2, 3, 4, 26, 193, 119, 120, 195, 195, 120, 3, 5.3485
268, 1, wb, attraction, a-b-da, 2, 3, 4, 26, 193, 119, 120, 195, 195, 120, 2, 0.692076
268, 1, wb, attraction, a-b-db, 5, 1, 4, 27, 60, 135, 58, 132, 135, 60, 2, 4.05388
268, 1, wb, attraction, a-b-db, 5, 1, 4, 27, 60, 135, 58, 132, 135, 60, 3, 0.801926
268, 1, wb, attraction, a-b-db, 14, 3, 4, 28, 195, 120, 111, 181, 120, 195, 2, 7.15161
268, 1, wb, attraction, a-b-db, 14, 3, 4, 28, 195, 120, 111, 181, 120, 195, 1, 0.582653
268, 1, wb, attraction, a-b-db, 14, 2, 4, 29, 83, 153, 90, 165, 165, 90, 1, 1.91717
268, 1, wb, attraction, a-b-db, 14, 2, 4, 29, 83, 153, 90, 165, 165, 90, 2, 0.431155
268, 1, wb, filler, NA, 999, 999, 4, 30, 114, 164, 59, 84, 143, 131, 2, 1.94762
268, 1, wb, filler, NA, 999, 999, 4, 30, 114, 164, 59, 84, 143, 131, 3, 0.64447
268, 1, wb, catch, NA, 999, 999, 4, 31, 88, 107, 158, 157, 134, 121, 1, 7.68798
268, 1, wb, catch, NA, 999, 999, 4, 31, 88, 107, 158, 157, 134, 121, 2, 0.497551
268, 1, wb, filler, NA, 999, 999, 4, 32, 152, 140, 70, 138, 112, 74, 3, 1.77934
268, 1, wb, filler, NA, 999, 999, 4, 32, 152, 140, 70, 138, 112, 74, 1, 0.642791
268, 1, wb, attraction, a-b-da, 2, 2, 4, 33, 90, 165, 165, 90, 163, 89, 3, 2.91066
268, 1, wb, attraction, a-b-da, 2, 2, 4, 33, 90, 165, 165, 90, 163, 89, 1, 0.416322
268, 1, wb, attraction, a-b-db, 9, 1, 4, 34, 135, 60, 60, 135, 57, 129, 3, 1.57347
268, 1, wb, attraction, a-b-db, 9, 1, 4, 34, 135, 60, 60, 135, 57, 129, 2, 0.620874
268, 1, wb, attraction, a-b-da, 9, 2, 4, 35, 90, 165, 157, 86, 165, 90, 2, 4.55397
268, 1, wb, attraction, a-b-da, 9, 2, 4, 35, 90, 165, 157, 86, 165, 90, 1, 0.617959
268, 1, wb, filler, NA, 999, 999, 4, 36, 187, 122, 82, 161, 155, 162, 2, 1.78303
268, 1, wb, filler, NA, 999, 999, 4, 36, 187, 122, 82, 161, 155, 162, 3, 0.670412
268, 1, wb, attraction, a-b-db, 2, 1, 4, 37, 59, 134, 60, 135, 135, 60, 1, 1.5774
268, 1, wb, attraction, a-b-db, 2, 1, 4, 37, 59, 134, 60, 135, 135, 60, 2, 0.4889
268, 1, wb, attraction, a-b-da, 14, 2, 5, 1, 165, 90, 90, 165, 153, 83, 3, 4.29727
268, 1, wb, attraction, a-b-da, 14, 2, 5, 1, 165, 90, 90, 165, 153, 83, 2, 0.395238
268, 1, wb, attraction, a-b-db, 9, 3, 5, 2, 195, 120, 114, 186, 120, 195, 2, 5.76909
268, 1, wb, attraction, a-b-db, 9, 3, 5, 2, 195, 120, 114, 186, 120, 195, 3, 0.535931
268, 1, wb, attraction, a-b-da, 9, 2, 5, 3, 165, 90, 90, 165, 157, 86, 1, 1.57652
268, 1, wb, attraction, a-b-da, 9, 2, 5, 3, 165, 90, 90, 165, 157, 86, 2, 0.319845
268, 1, wb, filler, NA, 999, 999, 5, 4, 113, 103, 170, 138, 89, 93, 3, 1.20896
268, 1, wb, filler, NA, 999, 999, 5, 4, 113, 103, 170, 138, 89, 93, 2, 0.335284
268, 1, wb, attraction, a-b-da, 2, 2, 5, 5, 165, 90, 163, 89, 90, 165, 2, 2.35179
268, 1, wb, attraction, a-b-da, 2, 2, 5, 5, 165, 90, 163, 89, 90, 165, 3, 1.04037
268, 1, wb, attraction, a-b-db, 9, 1, 5, 6, 57, 129, 135, 60, 60, 135, 1, 3.42796
268, 1, wb, attraction, a-b-db, 9, 1, 5, 6, 57, 129, 135, 60, 60, 135, 2, 0.904917
268, 1, wb, filler, NA, 999, 999, 5, 7, 90, 159, 155, 99, 172, 152, 1, 3.55451
268, 1, wb, filler, NA, 999, 999, 5, 7, 90, 159, 155, 99, 172, 152, 3, 0.698911
268, 1, wb, attraction, a-b-da, 9, 3, 5, 8, 120, 195, 195, 120, 186, 114, 3, 3.73259
268, 1, wb, attraction, a-b-da, 9, 3, 5, 8, 120, 195, 195, 120, 186, 114, 2, 0.55727
268, 1, wb, filler, NA, 999, 999, 5, 9, 125, 74, 145, 195, 116, 97, 1, 1.29236
268, 1, wb, filler, NA, 999, 999, 5, 9, 125, 74, 145, 195, 116, 97, 2, 0.487282
268, 1, wb, catch, NA, 999, 999, 5, 10, 131, 124, 122, 193, 129, 66, 3, 1.67371
268, 1, wb, catch, NA, 999, 999, 5, 10, 131, 124, 122, 193, 129, 66, 2, 0.397775
268, 1, wb, attraction, a-b-da, 2, 3, 5, 11, 193, 119, 195, 120, 120, 195, 3, 6.8431
268, 1, wb, attraction, a-b-da, 2, 3, 5, 11, 193, 119, 195, 120, 120, 195, 1, 0.606116
268, 1, wb, attraction, a-b-db, 5, 3, 5, 12, 195, 120, 117, 190, 120, 195, 3, 5.63594
268, 1, wb, attraction, a-b-db, 5, 3, 5, 12, 195, 120, 117, 190, 120, 195, 2, 0.408136
268, 1, wb, attraction, a-b-da, 14, 3, 5, 13, 195, 120, 120, 195, 181, 111, 3, 2.9573
268, 1, wb, attraction, a-b-da, 14, 3, 5, 13, 195, 120, 120, 195, 181, 111, 2, 0.47696
268, 1, wb, attraction, a-b-da, 5, 1, 5, 14, 135, 60, 60, 135, 132, 58, 3, 1.70348
268, 1, wb, attraction, a-b-da, 5, 1, 5, 14, 135, 60, 60, 135, 132, 58, 1, 1.46632
268, 1, wb, filler, NA, 999, 999, 5, 15, 120, 116, 179, 96, 76, 97, 3, 1.30106
268, 1, wb, filler, NA, 999, 999, 5, 15, 120, 116, 179, 96, 76, 97, 2, 0.680063
268, 1, wb, filler, NA, 999, 999, 5, 16, 147, 165, 74, 145, 97, 124, 2, 1.15453
268, 1, wb, filler, NA, 999, 999, 5, 16, 147, 165, 74, 145, 97, 124, 1, 0.283322
268, 1, wb, filler, NA, 999, 999, 5, 17, 153, 95, 165, 178, 65, 119, 3, 0.701873
268, 1, wb, filler, NA, 999, 999, 5, 17, 153, 95, 165, 178, 65, 119, 2, 0.216862
268, 1, wb, filler, NA, 999, 999, 5, 18, 160, 177, 147, 133, 180, 187, 2, 1.3421
268, 1, wb, filler, NA, 999, 999, 5, 18, 160, 177, 147, 133, 180, 187, 3, 0.271023
268, 1, wb, attraction, a-b-da, 9, 1, 5, 19, 129, 57, 60, 135, 135, 60, 2, 3.43412
268, 1, wb, attraction, a-b-da, 9, 1, 5, 19, 129, 57, 60, 135, 135, 60, 3, 0.447062
268, 1, wb, attraction, a-b-db, 5, 2, 5, 20, 165, 90, 90, 165, 88, 161, 3, 2.11485
268, 1, wb, attraction, a-b-db, 5, 2, 5, 20, 165, 90, 90, 165, 88, 161, 1, 0.373312
268, 1, wb, attraction, a-b-db, 9, 2, 5, 21, 90, 165, 165, 90, 86, 157, 3, 1.5473
268, 1, wb, attraction, a-b-db, 9, 2, 5, 21, 90, 165, 165, 90, 86, 157, 1, 0.516152
268, 1, wb, attraction, a-b-da, 2, 1, 5, 22, 60, 135, 134, 59, 135, 60, 1, 1.82926
268, 1, wb, attraction, a-b-da, 2, 1, 5, 22, 60, 135, 134, 59, 135, 60, 2, 0.642675
268, 1, wb, catch, NA, 999, 999, 5, 23, 144, 171, 117, 78, 138, 117, 2, 1.15052
268, 1, wb, catch, NA, 999, 999, 5, 23, 144, 171, 117, 78, 138, 117, 1, 0.271485
268, 1, wb, filler, NA, 999, 999, 5, 24, 71, 147, 74, 180, 192, 96, 1, 1.26652
268, 1, wb, filler, NA, 999, 999, 5, 24, 71, 147, 74, 180, 192, 96, 3, 0.526839
268, 1, wb, attraction, a-b-da, 5, 2, 5, 25, 161, 88, 90, 165, 165, 90, 3, 1.97549
268, 1, wb, attraction, a-b-da, 5, 2, 5, 25, 161, 88, 90, 165, 165, 90, 2, 0.414686
268, 1, wb, attraction, a-b-db, 14, 3, 5, 26, 120, 195, 111, 181, 195, 120, 3, 1.69185
268, 1, wb, attraction, a-b-db, 14, 3, 5, 26, 120, 195, 111, 181, 195, 120, 1, 0.606776
268, 1, wb, attraction, a-b-db, 2, 2, 5, 27, 165, 90, 90, 165, 89, 163, 1, 2.10764
268, 1, wb, attraction, a-b-db, 2, 2, 5, 27, 165, 90, 90, 165, 89, 163, 2, 0.365692
268, 1, wb, attraction, a-b-da, 14, 1, 5, 28, 135, 60, 60, 135, 125, 56, 3, 1.63679
268, 1, wb, attraction, a-b-da, 14, 1, 5, 28, 135, 60, 60, 135, 125, 56, 1, 1.41027
268, 1, wb, catch, NA, 999, 999, 5, 29, 100, 155, 105, 90, 147, 168, 2, 1.08712
268, 1, wb, catch, NA, 999, 999, 5, 29, 100, 155, 105, 90, 147, 168, 3, 0.330734
268, 1, wb, attraction, a-b-db, 2, 1, 5, 30, 135, 60, 59, 134, 60, 135, 2, 2.81134
268, 1, wb, attraction, a-b-db, 2, 1, 5, 30, 135, 60, 59, 134, 60, 135, 1, 0.640975
268, 1, wb, attraction, a-b-db, 14, 1, 5, 31, 135, 60, 60, 135, 56, 125, 3, 1.19686
268, 1, wb, attraction, a-b-db, 14, 1, 5, 31, 135, 60, 60, 135, 56, 125, 2, 1.05174
268, 1, wb, attraction, a-b-db, 14, 2, 5, 32, 165, 90, 90, 165, 83, 153, 3, 1.48719
268, 1, wb, attraction, a-b-db, 14, 2, 5, 32, 165, 90, 90, 165, 83, 153, 1, 0.5308
268, 1, wb, attraction, a-b-db, 2, 3, 5, 33, 120, 195, 119, 193, 195, 120, 1, 9.27518
268, 1, wb, attraction, a-b-db, 2, 3, 5, 33, 120, 195, 119, 193, 195, 120, 2, 0.348273
268, 1, wb, filler, NA, 999, 999, 5, 34, 137, 127, 153, 175, 68, 148, 3, 1.10013
268, 1, wb, filler, NA, 999, 999, 5, 34, 137, 127, 153, 175, 68, 148, 2, 0.383168
268, 1, wb, attraction, a-b-db, 5, 1, 5, 35, 58, 132, 60, 135, 135, 60, 1, 1.65353
268, 1, wb, attraction, a-b-db, 5, 1, 5, 35, 58, 132, 60, 135, 135, 60, 2, 0.73846
268, 1, wb, filler, NA, 999, 999, 5, 36, 78, 123, 150, 73, 188, 97, 1, 3.39478
268, 1, wb, filler, NA, 999, 999, 5, 36, 78, 123, 150, 73, 188, 97, 3, 0.465004
268, 1, wb, attraction, a-b-da, 5, 3, 5, 37, 195, 120, 120, 195, 190, 117, 3, 4.09208
268, 1, wb, attraction, a-b-da, 5, 3, 5, 37, 195, 120, 120, 195, 190, 117, 1, 0.90215
268, 1, wb, attraction, a-b-db, 9, 2, 6, 1, 86, 157, 165, 90, 90, 165, 1, 1.97579
268, 1, wb, attraction, a-b-db, 9, 2, 6, 1, 86, 157, 165, 90, 90, 165, 2, 0.671278
268, 1, wb, filler, NA, 999, 999, 6, 2, 132, 90, 99, 134, 80, 137, 3, 1.69028
268, 1, wb, filler, NA, 999, 999, 6, 2, 132, 90, 99, 134, 80, 137, 2, 0.508986
268, 1, wb, attraction, a-b-da, 2, 1, 6, 3, 135, 60, 134, 59, 60, 135, 2, 2.64624
268, 1, wb, attraction, a-b-da, 2, 1, 6, 3, 135, 60, 134, 59, 60, 135, 1, 0.898659
268, 1, wb, attraction, a-b-da, 5, 3, 6, 4, 195, 120, 190, 117, 120, 195, 2, 2.26839
268, 1, wb, attraction, a-b-da, 5, 3, 6, 4, 195, 120, 190, 117, 120, 195, 3, 0.456253
268, 1, wb, filler, NA, 999, 999, 6, 5, 76, 138, 189, 113, 62, 184, 1, 2.00396
268, 1, wb, filler, NA, 999, 999, 6, 5, 76, 138, 189, 113, 62, 184, 2, 0.426676
268, 1, wb, attraction, a-b-da, 14, 3, 6, 6, 195, 120, 120, 195, 181, 111, 3, 1.27916
268, 1, wb, attraction, a-b-da, 14, 3, 6, 6, 195, 120, 120, 195, 181, 111, 1, 0.698845
268, 1, wb, attraction, a-b-da, 5, 2, 6, 7, 165, 90, 90, 165, 161, 88, 3, 1.91662
268, 1, wb, attraction, a-b-da, 5, 2, 6, 7, 165, 90, 90, 165, 161, 88, 1, 0.646455
268, 1, wb, attraction, a-b-da, 9, 2, 6, 8, 165, 90, 157, 86, 90, 165, 1, 4.37824
268, 1, wb, attraction, a-b-da, 9, 2, 6, 8, 165, 90, 157, 86, 90, 165, 2, 0.577003
268, 1, wb, filler, NA, 999, 999, 6, 9, 111, 141, 108, 149, 178, 116, 1, 1.88724
268, 1, wb, filler, NA, 999, 999, 6, 9, 111, 141, 108, 149, 178, 116, 3, 0.658636
268, 1, wb, attraction, a-b-da, 2, 3, 6, 10, 195, 120, 193, 119, 120, 195, 3, 2.14974
268, 1, wb, attraction, a-b-da, 2, 3, 6, 10, 195, 120, 193, 119, 120, 195, 1, 0.550321
268, 1, wb, filler, NA, 999, 999, 6, 11, 97, 116, 162, 176, 65, 124, 3, 0.942174
268, 1, wb, filler, NA, 999, 999, 6, 11, 97, 116, 162, 176, 65, 124, 2, 0.247235
268, 1, wb, attraction, a-b-db, 14, 2, 6, 12, 83, 153, 165, 90, 90, 165, 1, 1.81098
268, 1, wb, attraction, a-b-db, 14, 2, 6, 12, 83, 153, 165, 90, 90, 165, 3, 0.753145
268, 1, wb, attraction, a-b-db, 14, 1, 6, 13, 56, 125, 135, 60, 60, 135, 1, 1.64577
268, 1, wb, attraction, a-b-db, 14, 1, 6, 13, 56, 125, 135, 60, 60, 135, 2, 0.549626
268, 1, wb, attraction, a-b-da, 5, 1, 6, 14, 132, 58, 135, 60, 60, 135, 3, 1.41334
268, 1, wb, attraction, a-b-da, 5, 1, 6, 14, 132, 58, 135, 60, 60, 135, 1, 1.17963
268, 1, wb, attraction, a-b-db, 2, 3, 6, 15, 120, 195, 119, 193, 195, 120, 3, 2.52182
268, 1, wb, attraction, a-b-db, 2, 3, 6, 15, 120, 195, 119, 193, 195, 120, 1, 0.506914
268, 1, wb, attraction, a-b-db, 5, 2, 6, 16, 165, 90, 88, 161, 90, 165, 1, 3.1161
268, 1, wb, attraction, a-b-db, 5, 2, 6, 16, 165, 90, 88, 161, 90, 165, 3, 0.765721
268, 1, wb, filler, NA, 999, 999, 6, 17, 86, 60, 162, 64, 61, 63, 3, 1.2048
268, 1, wb, filler, NA, 999, 999, 6, 17, 86, 60, 162, 64, 61, 63, 2, 0.475645
268, 1, wb, attraction, a-b-da, 9, 3, 6, 18, 186, 114, 120, 195, 195, 120, 1, 4.11015
268, 1, wb, attraction, a-b-da, 9, 3, 6, 18, 186, 114, 120, 195, 195, 120, 2, 0.391523
268, 1, wb, attraction, a-b-db, 9, 1, 6, 19, 60, 135, 57, 129, 135, 60, 3, 2.34132
268, 1, wb, attraction, a-b-db, 9, 1, 6, 19, 60, 135, 57, 129, 135, 60, 1, 0.933951
268, 1, wb, attraction, a-b-db, 5, 1, 6, 20, 60, 135, 135, 60, 58, 132, 3, 2.62221
268, 1, wb, attraction, a-b-db, 5, 1, 6, 20, 60, 135, 135, 60, 58, 132, 2, 0.723407
268, 1, wb, attraction, a-b-db, 2, 1, 6, 21, 135, 60, 60, 135, 59, 134, 3, 3.00436
268, 1, wb, attraction, a-b-db, 2, 1, 6, 21, 135, 60, 60, 135, 59, 134, 1, 0.714771
268, 1, wb, catch, NA, 999, 999, 6, 22, 182, 133, 92, 163, 117, 78, 3, 2.69192
268, 1, wb, catch, NA, 999, 999, 6, 22, 182, 133, 92, 163, 117, 78, 1, 0.486395
268, 1, wb, attraction, a-b-db, 9, 3, 6, 23, 114, 186, 195, 120, 120, 195, 1, 3.95274
268, 1, wb, attraction, a-b-db, 9, 3, 6, 23, 114, 186, 195, 120, 120, 195, 2, 1.55289
268, 1, wb, attraction, a-b-da, 9, 1, 6, 24, 135, 60, 60, 135, 129, 57, 3, 1.7763
268, 1, wb, attraction, a-b-da, 9, 1, 6, 24, 135, 60, 60, 135, 129, 57, 1, 0.983761
268, 1, wb, filler, NA, 999, 999, 6, 25, 110, 119, 184, 69, 83, 140, 3, 3.11814
268, 1, wb, filler, NA, 999, 999, 6, 25, 110, 119, 184, 69, 83, 140, 2, 0.863813
268, 1, wb, filler, NA, 999, 999, 6, 26, 77, 111, 147, 70, 142, 172, 1, 1.45875
268, 1, wb, filler, NA, 999, 999, 6, 26, 77, 111, 147, 70, 142, 172, 3, 0.622909
268, 1, wb, filler, NA, 999, 999, 6, 27, 136, 124, 130, 147, 152, 105, 3, 2.79603
268, 1, wb, filler, NA, 999, 999, 6, 27, 136, 124, 130, 147, 152, 105, 2, 0.506498
268, 1, wb, filler, NA, 999, 999, 6, 28, 194, 75, 143, 56, 99, 120, 2, 2.0842
268, 1, wb, filler, NA, 999, 999, 6, 28, 194, 75, 143, 56, 99, 120, 1, 1.64765
268, 1, wb, attraction, a-b-da, 14, 2, 6, 29, 90, 165, 165, 90, 153, 83, 3, 4.18695
268, 1, wb, attraction, a-b-da, 14, 2, 6, 29, 90, 165, 165, 90, 153, 83, 1, 0.537634
268, 1, wb, catch, NA, 999, 999, 6, 30, 183, 132, 157, 98, 119, 76, 3, 1.322
268, 1, wb, catch, NA, 999, 999, 6, 30, 183, 132, 157, 98, 119, 76, 1, 0.531552
268, 1, wb, attraction, a-b-db, 5, 3, 6, 31, 120, 195, 195, 120, 117, 190, 3, 2.02807
268, 1, wb, attraction, a-b-db, 5, 3, 6, 31, 120, 195, 195, 120, 117, 190, 2, 0.721335
268, 1, wb, attraction, a-b-da, 2, 2, 6, 32, 165, 90, 163, 89, 90, 165, 1, 5.09055
268, 1, wb, attraction, a-b-da, 2, 2, 6, 32, 165, 90, 163, 89, 90, 165, 2, 0.44414
268, 1, wb, filler, NA, 999, 999, 6, 33, 104, 157, 68, 161, 183, 184, 2, 1.81588
268, 1, wb, filler, NA, 999, 999, 6, 33, 104, 157, 68, 161, 183, 184, 3, 0.50198
268, 1, wb, catch, NA, 999, 999, 6, 34, 96, 159, 152, 163, 105, 90, 3, 1.74374
268, 1, wb, catch, NA, 999, 999, 6, 34, 96, 159, 152, 163, 105, 90, 2, 0.408601
268, 1, wb, attraction, a-b-da, 14, 1, 6, 35, 60, 135, 135, 60, 125, 56, 3, 1.76573
268, 1, wb, attraction, a-b-da, 14, 1, 6, 35, 60, 135, 135, 60, 125, 56, 1, 0.621925
268, 1, wb, attraction, a-b-db, 14, 3, 6, 36, 120, 195, 195, 120, 111, 181, 3, 1.76309
268, 1, wb, attraction, a-b-db, 14, 3, 6, 36, 120, 195, 195, 120, 111, 181, 2, 0.610951
268, 1, wb, attraction, a-b-db, 2, 2, 6, 37, 165, 90, 90, 165, 89, 163, 3, 1.79215
268, 1, wb, attraction, a-b-db, 2, 2, 6, 37, 165, 90, 90, 165, 89, 163, 2, 0.486795
268, 1, wb, attraction, a-b-da, 14, 1, 7, 1, 60, 135, 135, 60, 125, 56, 3, 1.21728
268, 1, wb, attraction, a-b-da, 14, 1, 7, 1, 60, 135, 135, 60, 125, 56, 2, 0.679649
268, 1, wb, filler, NA, 999, 999, 7, 2, 133, 71, 147, 186, 144, 141, 1, 1.66593
268, 1, wb, filler, NA, 999, 999, 7, 2, 133, 71, 147, 186, 144, 141, 2, 0.638158
268, 1, wb, attraction, a-b-db, 2, 2, 7, 3, 165, 90, 90, 165, 89, 163, 3, 3.53842
268, 1, wb, attraction, a-b-db, 2, 2, 7, 3, 165, 90, 90, 165, 89, 163, 1, 0.547322
268, 1, wb, catch, NA, 999, 999, 7, 4, 106, 149, 125, 70, 170, 145, 2, 1.13913
268, 1, wb, catch, NA, 999, 999, 7, 4, 106, 149, 125, 70, 170, 145, 3, 0.348084
268, 1, wb, attraction, a-b-db, 9, 2, 7, 5, 165, 90, 90, 165, 86, 157, 3, 2.56382
268, 1, wb, attraction, a-b-db, 9, 2, 7, 5, 165, 90, 90, 165, 86, 157, 1, 0.891812
268, 1, wb, attraction, a-b-db, 5, 2, 7, 6, 165, 90, 90, 165, 88, 161, 3, 2.58154
268, 1, wb, attraction, a-b-db, 5, 2, 7, 6, 165, 90, 90, 165, 88, 161, 2, 0.516488
268, 1, wb, attraction, a-b-db, 2, 3, 7, 7, 119, 193, 195, 120, 120, 195, 3, 1.91767
268, 1, wb, attraction, a-b-db, 2, 3, 7, 7, 119, 193, 195, 120, 120, 195, 2, 0.63973
268, 1, wb, filler, NA, 999, 999, 7, 8, 137, 173, 151, 86, 73, 116, 3, 1.07601
268, 1, wb, filler, NA, 999, 999, 7, 8, 137, 173, 151, 86, 73, 116, 1, 0.303753
268, 1, wb, filler, NA, 999, 999, 7, 9, 65, 175, 173, 102, 80, 75, 3, 1.25763
268, 1, wb, filler, NA, 999, 999, 7, 9, 65, 175, 173, 102, 80, 75, 2, 0.597888
268, 1, wb, filler, NA, 999, 999, 7, 10, 122, 118, 59, 124, 190, 130, 2, 1.25167
268, 1, wb, filler, NA, 999, 999, 7, 10, 122, 118, 59, 124, 190, 130, 3, 0.392641
268, 1, wb, filler, NA, 999, 999, 7, 11, 141, 60, 176, 81, 107, 69, 3, 1.6224
268, 1, wb, filler, NA, 999, 999, 7, 11, 141, 60, 176, 81, 107, 69, 2, 0.851798
268, 1, wb, attraction, a-b-da, 9, 2, 7, 12, 90, 165, 157, 86, 165, 90, 1, 2.94355
268, 1, wb, attraction, a-b-da, 9, 2, 7, 12, 90, 165, 157, 86, 165, 90, 2, 0.93605
268, 1, wb, attraction, a-b-da, 14, 3, 7, 13, 195, 120, 181, 111, 120, 195, 2, 3.96037
268, 1, wb, attraction, a-b-da, 14, 3, 7, 13, 195, 120, 181, 111, 120, 195, 3, 0.503499
268, 1, wb, attraction, a-b-da, 9, 1, 7, 14, 129, 57, 60, 135, 135, 60, 1, 1.54532
268, 1, wb, attraction, a-b-da, 9, 1, 7, 14, 129, 57, 60, 135, 135, 60, 2, 0.826244
268, 1, wb, attraction, a-b-da, 14, 2, 7, 15, 153, 83, 165, 90, 90, 165, 1, 1.6626
268, 1, wb, attraction, a-b-da, 14, 2, 7, 15, 153, 83, 165, 90, 90, 165, 2, 0.48272
268, 1, wb, attraction, a-b-da, 2, 1, 7, 16, 60, 135, 135, 60, 134, 59, 3, 2.0292
268, 1, wb, attraction, a-b-da, 2, 1, 7, 16, 60, 135, 135, 60, 134, 59, 1, 1.16254
268, 1, wb, attraction, a-b-da, 2, 3, 7, 17, 120, 195, 195, 120, 193, 119, 1, 4.61732
268, 1, wb, attraction, a-b-da, 2, 3, 7, 17, 120, 195, 195, 120, 193, 119, 2, 0.982559
268, 1, wb, filler, NA, 999, 999, 7, 18, 64, 136, 168, 67, 88, 143, 1, 1.7889
268, 1, wb, filler, NA, 999, 999, 7, 18, 64, 136, 168, 67, 88, 143, 3, 0.691611
268, 1, wb, filler, NA, 999, 999, 7, 19, 154, 72, 133, 103, 181, 165, 1, 2.55734
268, 1, wb, filler, NA, 999, 999, 7, 19, 154, 72, 133, 103, 181, 165, 3, 0.501126
268, 1, wb, filler, NA, 999, 999, 7, 20, 61, 178, 86, 96, 83, 176, 1, 3.959
268, 1, wb, filler, NA, 999, 999, 7, 20, 61, 178, 86, 96, 83, 176, 3, 0.614453
268, 1, wb, filler, NA, 999, 999, 7, 21, 68, 97, 176, 159, 86, 128, 1, 1.1074
268, 1, wb, filler, NA, 999, 999, 7, 21, 68, 97, 176, 159, 86, 128, 2, 0.277752
268, 1, wb, attraction, a-b-db, 14, 3, 7, 22, 195, 120, 111, 181, 120, 195, 2, 2.31233
268, 1, wb, attraction, a-b-db, 14, 3, 7, 22, 195, 120, 111, 181, 120, 195, 3, 0.434162
268, 1, wb, attraction, a-b-da, 5, 2, 7, 23, 165, 90, 161, 88, 90, 165, 3, 1.19875
268, 1, wb, attraction, a-b-da, 5, 2, 7, 23, 165, 90, 161, 88, 90, 165, 1, 0.918598
268, 1, wb, catch, NA, 999, 999, 7, 24, 165, 90, 109, 86, 160, 155, 2, 0.76672
268, 1, wb, catch, NA, 999, 999, 7, 24, 165, 90, 109, 86, 160, 155, 3, 0.318916
268, 1, wb, attraction, a-b-da, 5, 3, 7, 25, 120, 195, 195, 120, 190, 117, 3, 1.73628
268, 1, wb, attraction, a-b-da, 5, 3, 7, 25, 120, 195, 195, 120, 190, 117, 2, 0.41767
268, 1, wb, attraction, a-b-da, 2, 2, 7, 26, 163, 89, 165, 90, 90, 165, 3, 1.87074
268, 1, wb, attraction, a-b-da, 2, 2, 7, 26, 163, 89, 165, 90, 90, 165, 2, 0.522763
268, 1, wb, filler, NA, 999, 999, 7, 27, 80, 148, 76, 172, 74, 102, 3, 0.995877
268, 1, wb, filler, NA, 999, 999, 7, 27, 80, 148, 76, 172, 74, 102, 2, 1.10688
268, 1, wb, attraction, a-b-db, 5, 1, 7, 28, 58, 132, 60, 135, 135, 60, 1, 1.78786
268, 1, wb, attraction, a-b-db, 5, 1, 7, 28, 58, 132, 60, 135, 135, 60, 2, 1.05117
268, 1, wb, attraction, a-b-db, 14, 2, 7, 29, 90, 165, 83, 153, 165, 90, 2, 3.36681
268, 1, wb, attraction, a-b-db, 14, 2, 7, 29, 90, 165, 83, 153, 165, 90, 1, 0.606434
268, 1, wb, attraction, a-b-db, 14, 1, 7, 30, 135, 60, 60, 135, 56, 125, 3, 1.4443
268, 1, wb, attraction, a-b-db, 14, 1, 7, 30, 135, 60, 60, 135, 56, 125, 2, 1.76925
268, 1, wb, attraction, a-b-db, 2, 1, 7, 31, 60, 135, 135, 60, 59, 134, 1, 5.8158
268, 1, wb, attraction, a-b-db, 2, 1, 7, 31, 60, 135, 135, 60, 59, 134, 2, 0.508616
268, 1, wb, attraction, a-b-da, 5, 1, 7, 32, 135, 60, 60, 135, 132, 58, 3, 16.5577
268, 1, wb, attraction, a-b-da, 5, 1, 7, 32, 135, 60, 60, 135, 132, 58, 2, 0.569878
268, 1, wb, attraction, a-b-db, 9, 3, 7, 33, 114, 186, 120, 195, 195, 120, 1, 4.12092
268, 1, wb, attraction, a-b-db, 9, 3, 7, 33, 114, 186, 120, 195, 195, 120, 2, 0.538285
268, 1, wb, attraction, a-b-db, 9, 1, 7, 34, 57, 129, 135, 60, 60, 135, 2, 2.76276
268, 1, wb, attraction, a-b-db, 9, 1, 7, 34, 57, 129, 135, 60, 60, 135, 3, 0.634615
268, 1, wb, attraction, a-b-da, 9, 3, 7, 35, 186, 114, 195, 120, 120, 195, 1, 4.44691
268, 1, wb, attraction, a-b-da, 9, 3, 7, 35, 186, 114, 195, 120, 120, 195, 2, 0.402953
268, 1, wb, attraction, a-b-db, 5, 3, 7, 36, 120, 195, 195, 120, 117, 190, 3, 5.06464
268, 1, wb, attraction, a-b-db, 5, 3, 7, 36, 120, 195, 195, 120, 117, 190, 1, 0.531791
268, 1, wb, catch, NA, 999, 999, 7, 37, 130, 65, 178, 137, 96, 159, 1, 2.26016
268, 1, wb, catch, NA, 999, 999, 7, 37, 130, 65, 178, 137, 96, 159, 2, 0.336067
268, 1, wb, attraction, a-b-da, 2, 3, 8, 1, 120, 195, 193, 119, 195, 120, 3, 2.66464
268, 1, wb, attraction, a-b-da, 2, 3, 8, 1, 120, 195, 193, 119, 195, 120, 1, 0.51644
268, 1, wb, attraction, a-b-db, 2, 1, 8, 2, 135, 60, 60, 135, 59, 134, 3, 6.42951
268, 1, wb, attraction, a-b-db, 2, 1, 8, 2, 135, 60, 60, 135, 59, 134, 2, 0.52948
268, 1, wb, catch, NA, 999, 999, 8, 3, 106, 149, 95, 100, 193, 122, 2, 2.44985
268, 1, wb, catch, NA, 999, 999, 8, 3, 106, 149, 95, 100, 193, 122, 3, 0.470415
268, 1, wb, attraction, a-b-db, 14, 1, 8, 4, 60, 135, 56, 125, 135, 60, 2, 6.3136
268, 1, wb, attraction, a-b-db, 14, 1, 8, 4, 60, 135, 56, 125, 135, 60, 1, 0.426199
268, 1, wb, filler, NA, 999, 999, 8, 5, 83, 81, 151, 114, 171, 130, 1, 4.39884
268, 1, wb, filler, NA, 999, 999, 8, 5, 83, 81, 151, 114, 171, 130, 3, 0.9328
268, 1, wb, attraction, a-b-db, 14, 2, 8, 6, 165, 90, 90, 165, 83, 153, 3, 1.72511
268, 1, wb, attraction, a-b-db, 14, 2, 8, 6, 165, 90, 90, 165, 83, 153, 1, 0.718355
268, 1, wb, attraction, a-b-da, 5, 1, 8, 7, 135, 60, 132, 58, 60, 135, 3, 2.56739
268, 1, wb, attraction, a-b-da, 5, 1, 8, 7, 135, 60, 132, 58, 60, 135, 1, 0.647315
268, 1, wb, attraction, a-b-db, 2, 2, 8, 8, 165, 90, 90, 165, 89, 163, 3, 3.9874
268, 1, wb, attraction, a-b-db, 2, 2, 8, 8, 165, 90, 90, 165, 89, 163, 1, 0.913857
268, 1, wb, attraction, a-b-da, 14, 1, 8, 9, 125, 56, 60, 135, 135, 60, 2, 2.09875
268, 1, wb, attraction, a-b-da, 14, 1, 8, 9, 125, 56, 60, 135, 135, 60, 3, 0.429411
268, 1, wb, attraction, a-b-db, 9, 3, 8, 10, 195, 120, 114, 186, 120, 195, 2, 2.56181
268, 1, wb, attraction, a-b-db, 9, 3, 8, 10, 195, 120, 114, 186, 120, 195, 3, 1.04174
268, 1, wb, attraction, a-b-da, 9, 2, 8, 11, 90, 165, 165, 90, 157, 86, 3, 5.8694
268, 1, wb, attraction, a-b-da, 9, 2, 8, 11, 90, 165, 165, 90, 157, 86, 1, 0.672237
268, 1, wb, catch, NA, 999, 999, 8, 12, 145, 110, 163, 152, 118, 77, 3, 1.58723
268, 1, wb, catch, NA, 999, 999, 8, 12, 145, 110, 163, 152, 118, 77, 2, 0.810693
268, 1, wb, attraction, a-b-da, 9, 3, 8, 13, 186, 114, 195, 120, 120, 195, 1, 4.28767
268, 1, wb, attraction, a-b-da, 9, 3, 8, 13, 186, 114, 195, 120, 120, 195, 2, 0.370325
268, 1, wb, attraction, a-b-db, 5, 2, 8, 14, 88, 161, 165, 90, 90, 165, 1, 8.63361
268, 1, wb, attraction, a-b-db, 5, 2, 8, 14, 88, 161, 165, 90, 90, 165, 2, 0.292723
268, 1, wb, catch, NA, 999, 999, 8, 15, 121, 134, 121, 194, 123, 72, 3, 8.7586
268, 1, wb, catch, NA, 999, 999, 8, 15, 121, 134, 121, 194, 123, 72, 2, 0.268637
268, 1, wb, attraction, a-b-da, 9, 1, 8, 16, 129, 57, 60, 135, 135, 60, 1, 5.87964
268, 1, wb, attraction, a-b-da, 9, 1, 8, 16, 129, 57, 60, 135, 135, 60, 2, 0.55384
268, 1, wb, filler, NA, 999, 999, 8, 17, 134, 166, 133, 63, 187, 115, 2, 1.65755
268, 1, wb, filler, NA, 999, 999, 8, 17, 134, 166, 133, 63, 187, 115, 3, 0.717705
268, 1, wb, attraction, a-b-db, 14, 3, 8, 18, 120, 195, 195, 120, 111, 181, 3, 6.43078
268, 1, wb, attraction, a-b-db, 14, 3, 8, 18, 120, 195, 195, 120, 111, 181, 1, 0.402778
268, 1, wb, attraction, a-b-da, 14, 3, 8, 19, 181, 111, 195, 120, 120, 195, 1, 2.9685
268, 1, wb, attraction, a-b-da, 14, 3, 8, 19, 181, 111, 195, 120, 120, 195, 2, 0.928294
268, 1, wb, filler, NA, 999, 999, 8, 20, 63, 106, 195, 110, 150, 66, 1, 1.1207
268, 1, wb, filler, NA, 999, 999, 8, 20, 63, 106, 195, 110, 150, 66, 2, 0.290915
268, 1, wb, filler, NA, 999, 999, 8, 21, 116, 117, 57, 144, 102, 180, 2, 1.58878
268, 1, wb, filler, NA, 999, 999, 8, 21, 116, 117, 57, 144, 102, 180, 3, 0.403596
268, 1, wb, attraction, a-b-db, 5, 3, 8, 22, 117, 190, 120, 195, 195, 120, 1, 1.68142
268, 1, wb, attraction, a-b-db, 5, 3, 8, 22, 117, 190, 120, 195, 195, 120, 2, 0.556979
268, 1, wb, filler, NA, 999, 999, 8, 23, 150, 78, 152, 101, 119, 105, 3, 1.25994
268, 1, wb, filler, NA, 999, 999, 8, 23, 150, 78, 152, 101, 119, 105, 2, 0.464185
268, 1, wb, attraction, a-b-db, 9, 1, 8, 24, 60, 135, 57, 129, 135, 60, 2, 6.17141
268, 1, wb, attraction, a-b-db, 9, 1, 8, 24, 60, 135, 57, 129, 135, 60, 3, 0.642066
268, 1, wb, attraction, a-b-da, 14, 2, 8, 25, 165, 90, 90, 165, 153, 83, 3, 1.2137
268, 1, wb, attraction, a-b-da, 14, 2, 8, 25, 165, 90, 90, 165, 153, 83, 2, 0.380022
268, 1, wb, filler, NA, 999, 999, 8, 26, 103, 142, 173, 64, 174, 147, 2, 1.89856
268, 1, wb, filler, NA, 999, 999, 8, 26, 103, 142, 173, 64, 174, 147, 3, 0.285245
268, 1, wb, filler, NA, 999, 999, 8, 27, 97, 157, 150, 170, 162, 112, 1, 1.27966
268, 1, wb, filler, NA, 999, 999, 8, 27, 97, 157, 150, 170, 162, 112, 2, 0.331289
268, 1, wb, attraction, a-b-da, 5, 2, 8, 28, 165, 90, 161, 88, 90, 165, 3, 1.56396
268, 1, wb, attraction, a-b-da, 5, 2, 8, 28, 165, 90, 161, 88, 90, 165, 2, 0.483915
268, 1, wb, attraction, a-b-db, 5, 1, 8, 29, 135, 60, 60, 135, 58, 132, 3, 1.64641
268, 1, wb, attraction, a-b-db, 5, 1, 8, 29, 135, 60, 60, 135, 58, 132, 2, 0.31518
268, 1, wb, filler, NA, 999, 999, 8, 30, 58, 128, 181, 181, 93, 79, 3, 1.91641
268, 1, wb, filler, NA, 999, 999, 8, 30, 58, 128, 181, 181, 93, 79, 2, 0.182384
268, 1, wb, attraction, a-b-da, 2, 1, 8, 31, 60, 135, 135, 60, 134, 59, 1, 1.85298
268, 1, wb, attraction, a-b-da, 2, 1, 8, 31, 60, 135, 135, 60, 134, 59, 2, 0.633644
268, 1, wb, attraction, a-b-db, 2, 3, 8, 32, 120, 195, 195, 120, 119, 193, 3, 1.38223
268, 1, wb, attraction, a-b-db, 2, 3, 8, 32, 120, 195, 195, 120, 119, 193, 2, 0.325619
268, 1, wb, filler, NA, 999, 999, 8, 33, 155, 119, 95, 116, 75, 145, 2, 1.07822
268, 1, wb, filler, NA, 999, 999, 8, 33, 155, 119, 95, 116, 75, 145, 1, 0.64176
268, 1, wb, attraction, a-b-da, 5, 3, 8, 34, 195, 120, 120, 195, 190, 117, 3, 2.06159
268, 1, wb, attraction, a-b-da, 5, 3, 8, 34, 195, 120, 120, 195, 190, 117, 2, 0.321648
268, 1, wb, attraction, a-b-db, 9, 2, 8, 35, 165, 90, 86, 157, 90, 165, 2, 2.78672
268, 1, wb, attraction, a-b-db, 9, 2, 8, 35, 165, 90, 86, 157, 90, 165, 3, 0.45007
268, 1, wb, attraction, a-b-da, 2, 2, 8, 36, 165, 90, 90, 165, 163, 89, 1, 1.65369
268, 1, wb, attraction, a-b-da, 2, 2, 8, 36, 165, 90, 90, 165, 163, 89, 2, 0.330675
268, 1, wb, filler, NA, 999, 999, 8, 37, 151, 81, 57, 178, 79, 125, 3, 2.88303
268, 1, wb, filler, NA, 999, 999, 8, 37, 151, 81, 57, 178, 79, 125, 1, 0.550098
