sub_n, computer_n, bw_cond, effect, set, distance, diag, block_n, trial_n, h1, w1, h2, w2, h3, w3, choice, rt 
225, 1, bw, practice, NA, 999, 999, 0, 1, 175, 62, 80, 195, 70, 138, 2, 5.66845
225, 1, bw, practice, NA, 999, 999, 0, 1, 175, 62, 80, 195, 70, 138, 3, 7.15787
225, 1, bw, practice, NA, 999, 999, 0, 2, 68, 143, 69, 195, 77, 139, 3, 2.78299
225, 1, bw, practice, NA, 999, 999, 0, 2, 68, 143, 69, 195, 77, 139, 1, 2.24869
225, 1, bw, practice, NA, 999, 999, 0, 3, 129, 169, 108, 123, 125, 184, 1, 4.75163
225, 1, bw, practice, NA, 999, 999, 0, 3, 129, 169, 108, 123, 125, 184, 2, 1.60637
225, 1, bw, catch, NA, 999, 999, 1, 1, 125, 70, 128, 127, 154, 161, 3, 3.41539
225, 1, bw, catch, NA, 999, 999, 1, 1, 125, 70, 128, 127, 154, 161, 1, 2.17312
225, 1, bw, attraction, a-b-da, 2, 2, 1, 2, 90, 165, 163, 89, 165, 90, 1, 11.6035
225, 1, bw, attraction, a-b-da, 2, 2, 1, 2, 90, 165, 163, 89, 165, 90, 3, 2.04736
225, 1, bw, filler, NA, 999, 999, 1, 3, 87, 183, 84, 188, 75, 153, 1, 2.5785
225, 1, bw, filler, NA, 999, 999, 1, 3, 87, 183, 84, 188, 75, 153, 3, 0.993732
225, 1, bw, attraction, a-b-da, 2, 3, 1, 4, 195, 120, 193, 119, 120, 195, 3, 15.3352
225, 1, bw, attraction, a-b-da, 2, 3, 1, 4, 195, 120, 193, 119, 120, 195, 2, 1.82044
225, 1, bw, filler, NA, 999, 999, 1, 5, 143, 171, 195, 130, 57, 101, 1, 3.12115
225, 1, bw, filler, NA, 999, 999, 1, 5, 143, 171, 195, 130, 57, 101, 3, 0.714925
225, 1, bw, attraction, a-b-da, 2, 1, 1, 6, 134, 59, 135, 60, 60, 135, 1, 2.62007
225, 1, bw, attraction, a-b-da, 2, 1, 1, 6, 134, 59, 135, 60, 60, 135, 3, 1.02598
225, 1, bw, filler, NA, 999, 999, 1, 7, 91, 62, 94, 157, 124, 153, 3, 1.30869
225, 1, bw, filler, NA, 999, 999, 1, 7, 91, 62, 94, 157, 124, 153, 1, 1.30429
225, 1, bw, filler, NA, 999, 999, 1, 8, 166, 68, 88, 122, 135, 183, 3, 1.52988
225, 1, bw, filler, NA, 999, 999, 1, 8, 166, 68, 88, 122, 135, 183, 2, 1.12331
225, 1, bw, attraction, a-b-db, 14, 3, 1, 9, 195, 120, 111, 181, 120, 195, 3, 2.66025
225, 1, bw, attraction, a-b-db, 14, 3, 1, 9, 195, 120, 111, 181, 120, 195, 1, 0.936077
225, 1, bw, filler, NA, 999, 999, 1, 10, 121, 128, 94, 156, 153, 61, 2, 1.94455
225, 1, bw, filler, NA, 999, 999, 1, 10, 121, 128, 94, 156, 153, 61, 3, 1.32105
225, 1, bw, attraction, a-b-da, 14, 2, 1, 11, 165, 90, 90, 165, 153, 83, 2, 2.578
225, 1, bw, attraction, a-b-da, 14, 2, 1, 11, 165, 90, 90, 165, 153, 83, 3, 0.945232
225, 1, bw, attraction, a-b-da, 5, 3, 1, 12, 120, 195, 195, 120, 190, 117, 2, 7.39273
225, 1, bw, attraction, a-b-da, 5, 3, 1, 12, 120, 195, 195, 120, 190, 117, 3, 1.02169
225, 1, bw, attraction, a-b-da, 9, 1, 1, 13, 135, 60, 60, 135, 129, 57, 2, 2.34665
225, 1, bw, attraction, a-b-da, 9, 1, 1, 13, 135, 60, 60, 135, 129, 57, 3, 0.8273
225, 1, bw, attraction, a-b-db, 14, 2, 1, 14, 90, 165, 165, 90, 83, 153, 1, 2.20762
225, 1, bw, attraction, a-b-db, 14, 2, 1, 14, 90, 165, 165, 90, 83, 153, 3, 1.22961
225, 1, bw, attraction, a-b-da, 5, 2, 1, 15, 90, 165, 161, 88, 165, 90, 3, 2.71373
225, 1, bw, attraction, a-b-da, 5, 2, 1, 15, 90, 165, 161, 88, 165, 90, 1, 1.10762
225, 1, bw, filler, NA, 999, 999, 1, 16, 146, 89, 138, 90, 178, 61, 1, 3.59649
225, 1, bw, filler, NA, 999, 999, 1, 16, 146, 89, 138, 90, 178, 61, 3, 0.594667
225, 1, bw, attraction, a-b-da, 9, 3, 1, 17, 120, 195, 186, 114, 195, 120, 3, 1.70462
225, 1, bw, attraction, a-b-da, 9, 3, 1, 17, 120, 195, 186, 114, 195, 120, 2, 2.3625
225, 1, bw, attraction, a-b-db, 2, 3, 1, 18, 119, 193, 195, 120, 120, 195, 3, 4.53714
225, 1, bw, attraction, a-b-db, 2, 3, 1, 18, 119, 193, 195, 120, 120, 195, 1, 1.08972
225, 1, bw, attraction, a-b-db, 9, 3, 1, 19, 195, 120, 114, 186, 120, 195, 3, 2.56393
225, 1, bw, attraction, a-b-db, 9, 3, 1, 19, 195, 120, 114, 186, 120, 195, 2, 1.33981
225, 1, bw, attraction, a-b-da, 14, 3, 1, 20, 120, 195, 181, 111, 195, 120, 1, 2.65189
225, 1, bw, attraction, a-b-da, 14, 3, 1, 20, 120, 195, 181, 111, 195, 120, 2, 0.512538
225, 1, bw, filler, NA, 999, 999, 1, 21, 134, 118, 192, 170, 73, 141, 2, 1.14563
225, 1, bw, filler, NA, 999, 999, 1, 21, 134, 118, 192, 170, 73, 141, 3, 0.770484
225, 1, bw, attraction, a-b-db, 9, 1, 1, 22, 60, 135, 135, 60, 57, 129, 1, 2.3536
225, 1, bw, attraction, a-b-db, 9, 1, 1, 22, 60, 135, 135, 60, 57, 129, 2, 1.54616
225, 1, bw, attraction, a-b-da, 5, 1, 1, 23, 135, 60, 60, 135, 132, 58, 2, 2.65755
225, 1, bw, attraction, a-b-da, 5, 1, 1, 23, 135, 60, 60, 135, 132, 58, 3, 0.877393
225, 1, bw, attraction, a-b-db, 5, 1, 1, 24, 60, 135, 135, 60, 58, 132, 1, 2.54374
225, 1, bw, attraction, a-b-db, 5, 1, 1, 24, 60, 135, 135, 60, 58, 132, 2, 1.15229
225, 1, bw, attraction, a-b-db, 2, 1, 1, 25, 135, 60, 60, 135, 59, 134, 2, 3.3038
225, 1, bw, attraction, a-b-db, 2, 1, 1, 25, 135, 60, 60, 135, 59, 134, 1, 0.506104
225, 1, bw, catch, NA, 999, 999, 1, 26, 112, 143, 128, 67, 174, 141, 3, 1.45981
225, 1, bw, catch, NA, 999, 999, 1, 26, 112, 143, 128, 67, 174, 141, 2, 0.735985
225, 1, bw, filler, NA, 999, 999, 1, 27, 56, 83, 97, 195, 159, 191, 3, 1.02436
225, 1, bw, filler, NA, 999, 999, 1, 27, 56, 83, 97, 195, 159, 191, 1, 0.677951
225, 1, bw, catch, NA, 999, 999, 1, 28, 160, 155, 96, 99, 134, 121, 1, 1.30438
225, 1, bw, catch, NA, 999, 999, 1, 28, 160, 155, 96, 99, 134, 121, 2, 0.722699
225, 1, bw, attraction, a-b-db, 5, 2, 1, 29, 165, 90, 90, 165, 88, 161, 2, 4.96378
225, 1, bw, attraction, a-b-db, 5, 2, 1, 29, 165, 90, 90, 165, 88, 161, 3, 1.85877
225, 1, bw, filler, NA, 999, 999, 1, 30, 109, 65, 105, 109, 141, 181, 3, 1.45372
225, 1, bw, filler, NA, 999, 999, 1, 30, 109, 65, 105, 109, 141, 181, 1, 1.49048
225, 1, bw, attraction, a-b-db, 5, 3, 1, 31, 120, 195, 117, 190, 195, 120, 1, 3.44384
225, 1, bw, attraction, a-b-db, 5, 3, 1, 31, 120, 195, 117, 190, 195, 120, 2, 1.17604
225, 1, bw, filler, NA, 999, 999, 1, 32, 189, 156, 170, 77, 99, 173, 1, 1.19023
225, 1, bw, filler, NA, 999, 999, 1, 32, 189, 156, 170, 77, 99, 173, 2, 0.701287
225, 1, bw, attraction, a-b-db, 2, 2, 1, 33, 165, 90, 90, 165, 89, 163, 2, 3.05488
225, 1, bw, attraction, a-b-db, 2, 2, 1, 33, 165, 90, 90, 165, 89, 163, 1, 2.1953
225, 1, bw, attraction, a-b-da, 14, 1, 1, 34, 135, 60, 125, 56, 60, 135, 1, 4.12061
225, 1, bw, attraction, a-b-da, 14, 1, 1, 34, 135, 60, 125, 56, 60, 135, 2, 0.59408
225, 1, bw, attraction, a-b-db, 14, 1, 1, 35, 135, 60, 60, 135, 56, 125, 2, 3.52766
225, 1, bw, attraction, a-b-db, 14, 1, 1, 35, 135, 60, 60, 135, 56, 125, 3, 0.584548
225, 1, bw, attraction, a-b-db, 9, 2, 1, 36, 86, 157, 90, 165, 165, 90, 3, 5.43893
225, 1, bw, attraction, a-b-db, 9, 2, 1, 36, 86, 157, 90, 165, 165, 90, 1, 0.571357
225, 1, bw, attraction, a-b-da, 9, 2, 1, 37, 165, 90, 90, 165, 157, 86, 1, 3.37042
225, 1, bw, attraction, a-b-da, 9, 2, 1, 37, 165, 90, 90, 165, 157, 86, 3, 2.34601
225, 1, bw, filler, NA, 999, 999, 2, 1, 162, 134, 142, 154, 142, 65, 2, 8.34534
225, 1, bw, filler, NA, 999, 999, 2, 1, 162, 134, 142, 154, 142, 65, 3, 1.38393
225, 1, bw, filler, NA, 999, 999, 2, 2, 142, 149, 165, 170, 94, 66, 2, 0.885973
225, 1, bw, filler, NA, 999, 999, 2, 2, 142, 149, 165, 170, 94, 66, 3, 0.897858
225, 1, bw, filler, NA, 999, 999, 2, 3, 110, 163, 151, 183, 171, 180, 3, 6.61944
225, 1, bw, filler, NA, 999, 999, 2, 3, 110, 163, 151, 183, 171, 180, 1, 0.584071
225, 1, bw, attraction, a-b-da, 2, 3, 2, 4, 195, 120, 193, 119, 120, 195, 2, 10.0625
225, 1, bw, attraction, a-b-da, 2, 3, 2, 4, 195, 120, 193, 119, 120, 195, 3, 1.04783
225, 1, bw, attraction, a-b-db, 2, 3, 2, 5, 119, 193, 195, 120, 120, 195, 1, 2.4355
225, 1, bw, attraction, a-b-db, 2, 3, 2, 5, 119, 193, 195, 120, 120, 195, 3, 1.48868
225, 1, bw, attraction, a-b-db, 9, 2, 2, 6, 86, 157, 90, 165, 165, 90, 2, 2.17092
225, 1, bw, attraction, a-b-db, 9, 2, 2, 6, 86, 157, 90, 165, 165, 90, 1, 0.66677
225, 1, bw, attraction, a-b-da, 9, 1, 2, 7, 60, 135, 129, 57, 135, 60, 3, 5.16604
225, 1, bw, attraction, a-b-da, 9, 1, 2, 7, 60, 135, 129, 57, 135, 60, 2, 0.70085
225, 1, bw, attraction, a-b-da, 14, 1, 2, 8, 135, 60, 125, 56, 60, 135, 1, 3.6546
225, 1, bw, attraction, a-b-da, 14, 1, 2, 8, 135, 60, 125, 56, 60, 135, 2, 0.730831
225, 1, bw, attraction, a-b-db, 9, 1, 2, 9, 60, 135, 57, 129, 135, 60, 3, 2.76325
225, 1, bw, attraction, a-b-db, 9, 1, 2, 9, 60, 135, 57, 129, 135, 60, 2, 0.770957
225, 1, bw, filler, NA, 999, 999, 2, 10, 155, 136, 115, 165, 139, 63, 1, 4.45807
225, 1, bw, filler, NA, 999, 999, 2, 10, 155, 136, 115, 165, 139, 63, 3, 0.621183
225, 1, bw, attraction, a-b-db, 5, 1, 2, 11, 58, 132, 60, 135, 135, 60, 3, 2.89041
225, 1, bw, attraction, a-b-db, 5, 1, 2, 11, 58, 132, 60, 135, 135, 60, 2, 0.484738
225, 1, bw, catch, NA, 999, 999, 2, 12, 108, 87, 133, 182, 113, 142, 2, 1.15913
225, 1, bw, catch, NA, 999, 999, 2, 12, 108, 87, 133, 182, 113, 142, 1, 0.671441
225, 1, bw, attraction, a-b-da, 14, 3, 2, 13, 120, 195, 181, 111, 195, 120, 3, 4.0825
225, 1, bw, attraction, a-b-da, 14, 3, 2, 13, 120, 195, 181, 111, 195, 120, 2, 0.373267
225, 1, bw, attraction, a-b-db, 5, 2, 2, 14, 90, 165, 88, 161, 165, 90, 2, 4.45169
225, 1, bw, attraction, a-b-db, 5, 2, 2, 14, 90, 165, 88, 161, 165, 90, 3, 0.711799
225, 1, bw, attraction, a-b-da, 2, 1, 2, 15, 135, 60, 60, 135, 134, 59, 1, 3.56065
225, 1, bw, attraction, a-b-da, 2, 1, 2, 15, 135, 60, 60, 135, 134, 59, 2, 2.26415
225, 1, bw, attraction, a-b-db, 5, 3, 2, 16, 120, 195, 195, 120, 117, 190, 1, 3.12278
225, 1, bw, attraction, a-b-db, 5, 3, 2, 16, 120, 195, 195, 120, 117, 190, 2, 0.83581
225, 1, bw, attraction, a-b-db, 14, 1, 2, 17, 135, 60, 60, 135, 56, 125, 2, 3.52012
225, 1, bw, attraction, a-b-db, 14, 1, 2, 17, 135, 60, 60, 135, 56, 125, 3, 0.63367
225, 1, bw, attraction, a-b-da, 9, 2, 2, 18, 157, 86, 90, 165, 165, 90, 3, 8.74216
225, 1, bw, attraction, a-b-da, 9, 2, 2, 18, 157, 86, 90, 165, 165, 90, 1, 0.812717
225, 1, bw, filler, NA, 999, 999, 2, 19, 129, 105, 188, 85, 78, 107, 2, 5.74575
225, 1, bw, filler, NA, 999, 999, 2, 19, 129, 105, 188, 85, 78, 107, 3, 1.06529
225, 1, bw, attraction, a-b-da, 5, 1, 2, 20, 60, 135, 135, 60, 132, 58, 2, 3.08413
225, 1, bw, attraction, a-b-da, 5, 1, 2, 20, 60, 135, 135, 60, 132, 58, 3, 0.407137
225, 1, bw, filler, NA, 999, 999, 2, 21, 194, 111, 145, 177, 115, 179, 2, 1.30027
225, 1, bw, filler, NA, 999, 999, 2, 21, 194, 111, 145, 177, 115, 179, 3, 1.32712
225, 1, bw, attraction, a-b-db, 9, 3, 2, 22, 120, 195, 195, 120, 114, 186, 2, 4.55937
225, 1, bw, attraction, a-b-db, 9, 3, 2, 22, 120, 195, 195, 120, 114, 186, 3, 0.374532
225, 1, bw, attraction, a-b-db, 2, 2, 2, 23, 89, 163, 90, 165, 165, 90, 3, 7.06909
225, 1, bw, attraction, a-b-db, 2, 2, 2, 23, 89, 163, 90, 165, 165, 90, 1, 0.663508
225, 1, bw, attraction, a-b-da, 5, 3, 2, 24, 190, 117, 120, 195, 195, 120, 1, 7.51469
225, 1, bw, attraction, a-b-da, 5, 3, 2, 24, 190, 117, 120, 195, 195, 120, 3, 0.330966
225, 1, bw, attraction, a-b-da, 5, 2, 2, 25, 90, 165, 165, 90, 161, 88, 1, 6.98735
225, 1, bw, attraction, a-b-da, 5, 2, 2, 25, 90, 165, 165, 90, 161, 88, 2, 2.20111
225, 1, bw, attraction, a-b-da, 14, 2, 2, 26, 165, 90, 153, 83, 90, 165, 3, 2.6465
225, 1, bw, attraction, a-b-da, 14, 2, 2, 26, 165, 90, 153, 83, 90, 165, 2, 0.96292
225, 1, bw, filler, NA, 999, 999, 2, 27, 190, 153, 56, 102, 81, 104, 1, 1.55386
225, 1, bw, filler, NA, 999, 999, 2, 27, 190, 153, 56, 102, 81, 104, 2, 0.522713
225, 1, bw, attraction, a-b-db, 14, 3, 2, 28, 120, 195, 111, 181, 195, 120, 1, 4.75585
225, 1, bw, attraction, a-b-db, 14, 3, 2, 28, 120, 195, 111, 181, 195, 120, 2, 0.675075
225, 1, bw, attraction, a-b-da, 2, 2, 2, 29, 90, 165, 163, 89, 165, 90, 3, 2.76552
225, 1, bw, attraction, a-b-da, 2, 2, 2, 29, 90, 165, 163, 89, 165, 90, 1, 2.97309
225, 1, bw, attraction, a-b-db, 14, 2, 2, 30, 83, 153, 165, 90, 90, 165, 3, 4.69156
225, 1, bw, attraction, a-b-db, 14, 2, 2, 30, 83, 153, 165, 90, 90, 165, 1, 0.733428
225, 1, bw, attraction, a-b-da, 9, 3, 2, 31, 120, 195, 195, 120, 186, 114, 2, 6.93374
225, 1, bw, attraction, a-b-da, 9, 3, 2, 31, 120, 195, 195, 120, 186, 114, 3, 0.981587
225, 1, bw, catch, NA, 999, 999, 2, 32, 143, 112, 84, 111, 166, 149, 3, 1.13172
225, 1, bw, catch, NA, 999, 999, 2, 32, 143, 112, 84, 111, 166, 149, 2, 1.18152
225, 1, bw, catch, NA, 999, 999, 2, 33, 151, 104, 75, 120, 155, 160, 3, 4.21965
225, 1, bw, catch, NA, 999, 999, 2, 33, 151, 104, 75, 120, 155, 160, 2, 1.26512
225, 1, bw, filler, NA, 999, 999, 2, 34, 97, 170, 186, 153, 146, 69, 2, 1.72381
225, 1, bw, filler, NA, 999, 999, 2, 34, 97, 170, 186, 153, 146, 69, 3, 0.869314
225, 1, bw, attraction, a-b-db, 2, 1, 2, 35, 59, 134, 135, 60, 60, 135, 2, 2.61645
225, 1, bw, attraction, a-b-db, 2, 1, 2, 35, 59, 134, 135, 60, 60, 135, 1, 1.18209
225, 1, bw, filler, NA, 999, 999, 2, 36, 119, 183, 96, 72, 122, 87, 1, 1.11649
225, 1, bw, filler, NA, 999, 999, 2, 36, 119, 183, 96, 72, 122, 87, 2, 0.606766
225, 1, bw, filler, NA, 999, 999, 2, 37, 65, 98, 107, 91, 174, 160, 3, 0.843928
225, 1, bw, filler, NA, 999, 999, 2, 37, 65, 98, 107, 91, 174, 160, 1, 0.440792
225, 1, bw, attraction, a-b-db, 2, 3, 3, 1, 195, 120, 119, 193, 120, 195, 3, 4.81259
225, 1, bw, attraction, a-b-db, 2, 3, 3, 1, 195, 120, 119, 193, 120, 195, 1, 0.441668
225, 1, bw, attraction, a-b-da, 2, 1, 3, 2, 135, 60, 134, 59, 60, 135, 3, 2.44562
225, 1, bw, attraction, a-b-da, 2, 1, 3, 2, 135, 60, 134, 59, 60, 135, 1, 0.802156
225, 1, bw, attraction, a-b-db, 14, 3, 3, 3, 111, 181, 195, 120, 120, 195, 3, 0.92788
225, 1, bw, attraction, a-b-db, 14, 3, 3, 3, 111, 181, 195, 120, 120, 195, 1, 0.441487
225, 1, bw, attraction, a-b-da, 9, 2, 3, 4, 165, 90, 90, 165, 157, 86, 2, 1.70917
225, 1, bw, attraction, a-b-da, 9, 2, 3, 4, 165, 90, 90, 165, 157, 86, 1, 0.53532
225, 1, bw, attraction, a-b-db, 5, 3, 3, 5, 117, 190, 195, 120, 120, 195, 3, 3.47987
225, 1, bw, attraction, a-b-db, 5, 3, 3, 5, 117, 190, 195, 120, 120, 195, 1, 0.722702
225, 1, bw, filler, NA, 999, 999, 3, 6, 135, 102, 85, 155, 74, 109, 2, 5.73977
225, 1, bw, filler, NA, 999, 999, 3, 6, 135, 102, 85, 155, 74, 109, 3, 0.315152
225, 1, bw, attraction, a-b-db, 14, 1, 3, 7, 60, 135, 56, 125, 135, 60, 1, 3.63643
225, 1, bw, attraction, a-b-db, 14, 1, 3, 7, 60, 135, 56, 125, 135, 60, 3, 0.473257
225, 1, bw, catch, NA, 999, 999, 3, 8, 159, 96, 111, 84, 191, 124, 3, 0.867785
225, 1, bw, catch, NA, 999, 999, 3, 8, 159, 96, 111, 84, 191, 124, 2, 0.408078
225, 1, bw, attraction, a-b-da, 9, 3, 3, 9, 120, 195, 186, 114, 195, 120, 3, 6.06932
225, 1, bw, attraction, a-b-da, 9, 3, 3, 9, 120, 195, 186, 114, 195, 120, 2, 0.712023
225, 1, bw, attraction, a-b-da, 14, 1, 3, 10, 60, 135, 135, 60, 125, 56, 1, 3.46502
225, 1, bw, attraction, a-b-da, 14, 1, 3, 10, 60, 135, 135, 60, 125, 56, 3, 0.996761
225, 1, bw, attraction, a-b-db, 5, 1, 3, 11, 135, 60, 60, 135, 58, 132, 2, 2.40221
225, 1, bw, attraction, a-b-db, 5, 1, 3, 11, 135, 60, 60, 135, 58, 132, 3, 0.408894
225, 1, bw, attraction, a-b-db, 9, 2, 3, 12, 165, 90, 86, 157, 90, 165, 3, 1.79793
225, 1, bw, attraction, a-b-db, 9, 2, 3, 12, 165, 90, 86, 157, 90, 165, 2, 1.09265
225, 1, bw, attraction, a-b-db, 2, 1, 3, 13, 135, 60, 60, 135, 59, 134, 2, 2.87033
225, 1, bw, attraction, a-b-db, 2, 1, 3, 13, 135, 60, 60, 135, 59, 134, 3, 0.698093
225, 1, bw, filler, NA, 999, 999, 3, 14, 58, 191, 112, 58, 145, 167, 3, 0.955653
225, 1, bw, filler, NA, 999, 999, 3, 14, 58, 191, 112, 58, 145, 167, 2, 1.53215
225, 1, bw, filler, NA, 999, 999, 3, 15, 184, 92, 96, 101, 123, 117, 1, 3.82031
225, 1, bw, filler, NA, 999, 999, 3, 15, 184, 92, 96, 101, 123, 117, 2, 0.53768
225, 1, bw, attraction, a-b-da, 5, 1, 3, 16, 60, 135, 135, 60, 132, 58, 2, 2.57809
225, 1, bw, attraction, a-b-da, 5, 1, 3, 16, 60, 135, 135, 60, 132, 58, 1, 0.497186
225, 1, bw, filler, NA, 999, 999, 3, 17, 147, 96, 169, 82, 170, 127, 3, 6.40301
225, 1, bw, filler, NA, 999, 999, 3, 17, 147, 96, 169, 82, 170, 127, 1, 1.56039
225, 1, bw, attraction, a-b-da, 9, 1, 3, 18, 135, 60, 60, 135, 129, 57, 3, 3.92719
225, 1, bw, attraction, a-b-da, 9, 1, 3, 18, 135, 60, 60, 135, 129, 57, 2, 0.407918
225, 1, bw, attraction, a-b-da, 5, 2, 3, 19, 90, 165, 161, 88, 165, 90, 2, 2.44506
225, 1, bw, attraction, a-b-da, 5, 2, 3, 19, 90, 165, 161, 88, 165, 90, 1, 0.441582
225, 1, bw, filler, NA, 999, 999, 3, 20, 148, 148, 60, 132, 116, 80, 1, 0.925268
225, 1, bw, filler, NA, 999, 999, 3, 20, 148, 148, 60, 132, 116, 80, 2, 0.423018
225, 1, bw, attraction, a-b-da, 2, 2, 3, 21, 163, 89, 165, 90, 90, 165, 2, 7.27615
225, 1, bw, attraction, a-b-da, 2, 2, 3, 21, 163, 89, 165, 90, 90, 165, 1, 0.821908
225, 1, bw, catch, NA, 999, 999, 3, 22, 130, 185, 78, 117, 132, 123, 1, 0.874963
225, 1, bw, catch, NA, 999, 999, 3, 22, 130, 185, 78, 117, 132, 123, 2, 0.37462
225, 1, bw, attraction, a-b-db, 5, 2, 3, 23, 90, 165, 88, 161, 165, 90, 3, 2.19712
225, 1, bw, attraction, a-b-db, 5, 2, 3, 23, 90, 165, 88, 161, 165, 90, 1, 0.419646
225, 1, bw, filler, NA, 999, 999, 3, 24, 175, 59, 161, 113, 162, 138, 3, 1.76101
225, 1, bw, filler, NA, 999, 999, 3, 24, 175, 59, 161, 113, 162, 138, 2, 0.530515
225, 1, bw, attraction, a-b-db, 9, 1, 3, 25, 57, 129, 135, 60, 60, 135, 2, 5.71347
225, 1, bw, attraction, a-b-db, 9, 1, 3, 25, 57, 129, 135, 60, 60, 135, 1, 1.01024
225, 1, bw, attraction, a-b-db, 14, 2, 3, 26, 83, 153, 90, 165, 165, 90, 3, 1.92726
225, 1, bw, attraction, a-b-db, 14, 2, 3, 26, 83, 153, 90, 165, 165, 90, 1, 0.640679
225, 1, bw, attraction, a-b-da, 14, 2, 3, 27, 165, 90, 153, 83, 90, 165, 2, 3.35633
225, 1, bw, attraction, a-b-da, 14, 2, 3, 27, 165, 90, 153, 83, 90, 165, 3, 0.595923
225, 1, bw, attraction, a-b-db, 9, 3, 3, 28, 195, 120, 120, 195, 114, 186, 1, 2.32965
225, 1, bw, attraction, a-b-db, 9, 3, 3, 28, 195, 120, 120, 195, 114, 186, 3, 2.28305
225, 1, bw, attraction, a-b-da, 14, 3, 3, 29, 181, 111, 195, 120, 120, 195, 3, 3.94877
225, 1, bw, attraction, a-b-da, 14, 3, 3, 29, 181, 111, 195, 120, 120, 195, 1, 0.621093
225, 1, bw, filler, NA, 999, 999, 3, 30, 162, 157, 88, 145, 187, 139, 3, 1.07397
225, 1, bw, filler, NA, 999, 999, 3, 30, 162, 157, 88, 145, 187, 139, 2, 0.573544
225, 1, bw, filler, NA, 999, 999, 3, 31, 192, 81, 73, 85, 129, 167, 3, 4.3961
225, 1, bw, filler, NA, 999, 999, 3, 31, 192, 81, 73, 85, 129, 167, 2, 0.59392
225, 1, bw, filler, NA, 999, 999, 3, 32, 123, 63, 187, 77, 189, 167, 3, 0.751697
225, 1, bw, filler, NA, 999, 999, 3, 32, 123, 63, 187, 77, 189, 167, 1, 0.694154
225, 1, bw, attraction, a-b-da, 5, 3, 3, 33, 195, 120, 120, 195, 190, 117, 2, 3.77054
225, 1, bw, attraction, a-b-da, 5, 3, 3, 33, 195, 120, 120, 195, 190, 117, 1, 0.825925
225, 1, bw, filler, NA, 999, 999, 3, 34, 83, 72, 115, 91, 79, 176, 3, 2.04641
225, 1, bw, filler, NA, 999, 999, 3, 34, 83, 72, 115, 91, 79, 176, 1, 0.635039
225, 1, bw, attraction, a-b-da, 2, 3, 3, 35, 195, 120, 120, 195, 193, 119, 3, 6.95933
225, 1, bw, attraction, a-b-da, 2, 3, 3, 35, 195, 120, 120, 195, 193, 119, 1, 0.53381
225, 1, bw, catch, NA, 999, 999, 3, 36, 74, 121, 113, 142, 131, 184, 3, 0.734271
225, 1, bw, catch, NA, 999, 999, 3, 36, 74, 121, 113, 142, 131, 184, 1, 0.479976
225, 1, bw, attraction, a-b-db, 2, 2, 3, 37, 165, 90, 90, 165, 89, 163, 2, 4.25053
225, 1, bw, attraction, a-b-db, 2, 2, 3, 37, 165, 90, 90, 165, 89, 163, 3, 0.702548
225, 1, bw, attraction, a-b-db, 9, 2, 4, 1, 90, 165, 86, 157, 165, 90, 3, 4.93624
225, 1, bw, attraction, a-b-db, 9, 2, 4, 1, 90, 165, 86, 157, 165, 90, 2, 1.04858
225, 1, bw, catch, NA, 999, 999, 4, 2, 100, 155, 84, 111, 135, 180, 3, 1.12425
225, 1, bw, catch, NA, 999, 999, 4, 2, 100, 155, 84, 111, 135, 180, 2, 0.421911
225, 1, bw, attraction, a-b-da, 5, 2, 4, 3, 161, 88, 165, 90, 90, 165, 3, 5.65114
225, 1, bw, attraction, a-b-da, 5, 2, 4, 3, 161, 88, 165, 90, 90, 165, 1, 0.630575
225, 1, bw, attraction, a-b-db, 9, 1, 4, 4, 135, 60, 57, 129, 60, 135, 2, 7.94697
225, 1, bw, attraction, a-b-db, 9, 1, 4, 4, 135, 60, 57, 129, 60, 135, 3, 0.44986
225, 1, bw, filler, NA, 999, 999, 4, 5, 111, 68, 72, 115, 189, 135, 3, 0.765593
225, 1, bw, filler, NA, 999, 999, 4, 5, 111, 68, 72, 115, 189, 135, 1, 1.10195
225, 1, bw, attraction, a-b-da, 9, 2, 4, 6, 157, 86, 90, 165, 165, 90, 3, 5.1516
225, 1, bw, attraction, a-b-da, 9, 2, 4, 6, 157, 86, 90, 165, 165, 90, 1, 0.607243
225, 1, bw, attraction, a-b-db, 2, 1, 4, 7, 60, 135, 59, 134, 135, 60, 3, 5.39638
225, 1, bw, attraction, a-b-db, 2, 1, 4, 7, 60, 135, 59, 134, 135, 60, 1, 0.458064
225, 1, bw, attraction, a-b-db, 5, 3, 4, 8, 117, 190, 120, 195, 195, 120, 3, 4.65313
225, 1, bw, attraction, a-b-db, 5, 3, 4, 8, 117, 190, 120, 195, 195, 120, 1, 0.680969
225, 1, bw, attraction, a-b-da, 2, 2, 4, 9, 165, 90, 163, 89, 90, 165, 1, 4.00358
225, 1, bw, attraction, a-b-da, 2, 2, 4, 9, 165, 90, 163, 89, 90, 165, 2, 1.1935
225, 1, bw, attraction, a-b-da, 14, 2, 4, 10, 153, 83, 165, 90, 90, 165, 3, 4.38311
225, 1, bw, attraction, a-b-da, 14, 2, 4, 10, 153, 83, 165, 90, 90, 165, 1, 0.533556
225, 1, bw, attraction, a-b-db, 2, 3, 4, 11, 119, 193, 195, 120, 120, 195, 3, 4.28608
225, 1, bw, attraction, a-b-db, 2, 3, 4, 11, 119, 193, 195, 120, 120, 195, 1, 0.968599
225, 1, bw, attraction, a-b-db, 14, 2, 4, 12, 83, 153, 90, 165, 165, 90, 3, 2.7998
225, 1, bw, attraction, a-b-db, 14, 2, 4, 12, 83, 153, 90, 165, 165, 90, 1, 0.758176
225, 1, bw, catch, NA, 999, 999, 4, 13, 153, 102, 194, 121, 72, 123, 2, 1.44509
225, 1, bw, catch, NA, 999, 999, 4, 13, 153, 102, 194, 121, 72, 123, 3, 0.794132
225, 1, bw, filler, NA, 999, 999, 4, 14, 160, 130, 66, 188, 136, 63, 1, 4.15976
225, 1, bw, filler, NA, 999, 999, 4, 14, 160, 130, 66, 188, 136, 63, 3, 0.535064
225, 1, bw, attraction, a-b-db, 5, 2, 4, 15, 165, 90, 90, 165, 88, 161, 2, 2.13559
225, 1, bw, attraction, a-b-db, 5, 2, 4, 15, 165, 90, 90, 165, 88, 161, 1, 1.24871
225, 1, bw, attraction, a-b-da, 2, 3, 4, 16, 195, 120, 193, 119, 120, 195, 3, 2.16428
225, 1, bw, attraction, a-b-da, 2, 3, 4, 16, 195, 120, 193, 119, 120, 195, 1, 0.75629
225, 1, bw, attraction, a-b-da, 14, 1, 4, 17, 60, 135, 125, 56, 135, 60, 3, 2.21209
225, 1, bw, attraction, a-b-da, 14, 1, 4, 17, 60, 135, 125, 56, 135, 60, 2, 1.39398
225, 1, bw, attraction, a-b-db, 2, 2, 4, 18, 90, 165, 89, 163, 165, 90, 1, 3.83142
225, 1, bw, attraction, a-b-db, 2, 2, 4, 18, 90, 165, 89, 163, 165, 90, 3, 0.852429
225, 1, bw, filler, NA, 999, 999, 4, 19, 95, 193, 70, 114, 59, 163, 1, 0.959839
225, 1, bw, filler, NA, 999, 999, 4, 19, 95, 193, 70, 114, 59, 163, 2, 0.640357
225, 1, bw, attraction, a-b-da, 9, 3, 4, 20, 186, 114, 195, 120, 120, 195, 3, 1.82794
225, 1, bw, attraction, a-b-da, 9, 3, 4, 20, 186, 114, 195, 120, 120, 195, 1, 0.433383
225, 1, bw, attraction, a-b-da, 2, 1, 4, 21, 135, 60, 134, 59, 60, 135, 2, 2.51786
225, 1, bw, attraction, a-b-da, 2, 1, 4, 21, 135, 60, 134, 59, 60, 135, 1, 0.655717
225, 1, bw, attraction, a-b-da, 5, 1, 4, 22, 60, 135, 132, 58, 135, 60, 3, 4.46747
225, 1, bw, attraction, a-b-da, 5, 1, 4, 22, 60, 135, 132, 58, 135, 60, 2, 0.454764
225, 1, bw, attraction, a-b-db, 14, 1, 4, 23, 56, 125, 135, 60, 60, 135, 3, 2.73861
225, 1, bw, attraction, a-b-db, 14, 1, 4, 23, 56, 125, 135, 60, 60, 135, 1, 0.490961
225, 1, bw, filler, NA, 999, 999, 4, 24, 178, 138, 165, 160, 135, 124, 2, 1.08479
225, 1, bw, filler, NA, 999, 999, 4, 24, 178, 138, 165, 160, 135, 124, 3, 0.520398
225, 1, bw, filler, NA, 999, 999, 4, 25, 116, 149, 116, 113, 172, 125, 3, 2.61748
225, 1, bw, filler, NA, 999, 999, 4, 25, 116, 149, 116, 113, 172, 125, 2, 0.415237
225, 1, bw, attraction, a-b-db, 9, 3, 4, 26, 195, 120, 114, 186, 120, 195, 3, 3.44463
225, 1, bw, attraction, a-b-db, 9, 3, 4, 26, 195, 120, 114, 186, 120, 195, 1, 1.88873
225, 1, bw, attraction, a-b-db, 5, 1, 4, 27, 135, 60, 60, 135, 58, 132, 1, 2.13295
225, 1, bw, attraction, a-b-db, 5, 1, 4, 27, 135, 60, 60, 135, 58, 132, 3, 1.05202
225, 1, bw, attraction, a-b-da, 14, 3, 4, 28, 120, 195, 181, 111, 195, 120, 3, 3.20766
225, 1, bw, attraction, a-b-da, 14, 3, 4, 28, 120, 195, 181, 111, 195, 120, 2, 0.741269
225, 1, bw, attraction, a-b-da, 9, 1, 4, 29, 135, 60, 129, 57, 60, 135, 2, 2.36501
225, 1, bw, attraction, a-b-da, 9, 1, 4, 29, 135, 60, 129, 57, 60, 135, 3, 0.876886
225, 1, bw, filler, NA, 999, 999, 4, 30, 167, 90, 175, 167, 178, 190, 3, 4.0232
225, 1, bw, filler, NA, 999, 999, 4, 30, 167, 90, 175, 167, 178, 190, 1, 0.491883
225, 1, bw, filler, NA, 999, 999, 4, 31, 97, 73, 147, 102, 189, 149, 3, 0.845683
225, 1, bw, filler, NA, 999, 999, 4, 31, 97, 73, 147, 102, 189, 149, 1, 0.41093
225, 1, bw, attraction, a-b-db, 14, 3, 4, 32, 111, 181, 120, 195, 195, 120, 2, 7.55182
225, 1, bw, attraction, a-b-db, 14, 3, 4, 32, 111, 181, 120, 195, 195, 120, 1, 0.598817
225, 1, bw, attraction, a-b-da, 5, 3, 4, 33, 195, 120, 120, 195, 190, 117, 1, 4.2847
225, 1, bw, attraction, a-b-da, 5, 3, 4, 33, 195, 120, 120, 195, 190, 117, 3, 0.375182
225, 1, bw, catch, NA, 999, 999, 4, 34, 75, 120, 160, 155, 150, 105, 2, 1.00573
225, 1, bw, catch, NA, 999, 999, 4, 34, 75, 120, 160, 155, 150, 105, 1, 0.364085
225, 1, bw, filler, NA, 999, 999, 4, 35, 96, 72, 92, 140, 112, 175, 3, 0.779284
225, 1, bw, filler, NA, 999, 999, 4, 35, 96, 72, 92, 140, 112, 175, 1, 0.787825
225, 1, bw, filler, NA, 999, 999, 4, 36, 95, 136, 131, 195, 91, 181, 2, 1.62521
225, 1, bw, filler, NA, 999, 999, 4, 36, 95, 136, 131, 195, 91, 181, 1, 0.422814
225, 1, bw, filler, NA, 999, 999, 4, 37, 58, 101, 67, 161, 85, 93, 2, 1.64411
225, 1, bw, filler, NA, 999, 999, 4, 37, 58, 101, 67, 161, 85, 93, 1, 0.936732
225, 1, bw, attraction, a-b-da, 2, 3, 5, 1, 120, 195, 195, 120, 193, 119, 1, 7.15959
225, 1, bw, attraction, a-b-da, 2, 3, 5, 1, 120, 195, 195, 120, 193, 119, 3, 0.533988
225, 1, bw, catch, NA, 999, 999, 5, 2, 92, 163, 185, 130, 60, 135, 2, 1.16651
225, 1, bw, catch, NA, 999, 999, 5, 2, 92, 163, 185, 130, 60, 135, 3, 0.830945
225, 1, bw, attraction, a-b-da, 5, 1, 5, 3, 135, 60, 60, 135, 132, 58, 1, 4.05106
225, 1, bw, attraction, a-b-da, 5, 1, 5, 3, 135, 60, 60, 135, 132, 58, 3, 0.911187
225, 1, bw, attraction, a-b-da, 5, 3, 5, 4, 190, 117, 195, 120, 120, 195, 2, 4.07208
225, 1, bw, attraction, a-b-da, 5, 3, 5, 4, 190, 117, 195, 120, 120, 195, 1, 0.571464
225, 1, bw, filler, NA, 999, 999, 5, 5, 120, 195, 78, 181, 130, 113, 1, 1.33855
225, 1, bw, filler, NA, 999, 999, 5, 5, 120, 195, 78, 181, 130, 113, 2, 0.395585
225, 1, bw, attraction, a-b-db, 2, 1, 5, 6, 60, 135, 59, 134, 135, 60, 3, 9.22546
225, 1, bw, attraction, a-b-db, 2, 1, 5, 6, 60, 135, 59, 134, 135, 60, 1, 0.796417
225, 1, bw, attraction, a-b-db, 9, 1, 5, 7, 57, 129, 60, 135, 135, 60, 3, 2.04207
225, 1, bw, attraction, a-b-db, 9, 1, 5, 7, 57, 129, 60, 135, 135, 60, 1, 1.15071
225, 1, bw, attraction, a-b-da, 14, 2, 5, 8, 90, 165, 153, 83, 165, 90, 3, 3.25445
225, 1, bw, attraction, a-b-da, 14, 2, 5, 8, 90, 165, 153, 83, 165, 90, 2, 0.546542
225, 1, bw, attraction, a-b-db, 14, 1, 5, 9, 135, 60, 56, 125, 60, 135, 1, 10.1543
225, 1, bw, attraction, a-b-db, 14, 1, 5, 9, 135, 60, 56, 125, 60, 135, 2, 1.00846
225, 1, bw, filler, NA, 999, 999, 5, 10, 64, 130, 105, 127, 93, 165, 3, 1.50146
225, 1, bw, filler, NA, 999, 999, 5, 10, 64, 130, 105, 127, 93, 165, 1, 0.672299
225, 1, bw, attraction, a-b-db, 9, 2, 5, 11, 165, 90, 86, 157, 90, 165, 1, 3.05144
225, 1, bw, attraction, a-b-db, 9, 2, 5, 11, 165, 90, 86, 157, 90, 165, 2, 0.887854
225, 1, bw, attraction, a-b-da, 5, 2, 5, 12, 165, 90, 90, 165, 161, 88, 3, 4.05814
225, 1, bw, attraction, a-b-da, 5, 2, 5, 12, 165, 90, 90, 165, 161, 88, 1, 1.70144
225, 1, bw, attraction, a-b-da, 14, 1, 5, 13, 60, 135, 135, 60, 125, 56, 2, 1.79893
225, 1, bw, attraction, a-b-da, 14, 1, 5, 13, 60, 135, 135, 60, 125, 56, 1, 2.22162
225, 1, bw, filler, NA, 999, 999, 5, 14, 141, 97, 149, 57, 77, 126, 1, 1.08216
225, 1, bw, filler, NA, 999, 999, 5, 14, 141, 97, 149, 57, 77, 126, 3, 0.869801
225, 1, bw, attraction, a-b-db, 2, 2, 5, 15, 89, 163, 165, 90, 90, 165, 2, 2.08886
225, 1, bw, attraction, a-b-db, 2, 2, 5, 15, 89, 163, 165, 90, 90, 165, 1, 1.04349
225, 1, bw, filler, NA, 999, 999, 5, 16, 141, 180, 58, 84, 145, 152, 1, 4.0951
225, 1, bw, filler, NA, 999, 999, 5, 16, 141, 180, 58, 84, 145, 152, 2, 0.577163
225, 1, bw, catch, NA, 999, 999, 5, 17, 99, 156, 80, 115, 172, 143, 3, 0.951702
225, 1, bw, catch, NA, 999, 999, 5, 17, 99, 156, 80, 115, 172, 143, 2, 0.632574
225, 1, bw, attraction, a-b-db, 5, 3, 5, 18, 195, 120, 120, 195, 117, 190, 1, 6.1092
225, 1, bw, attraction, a-b-db, 5, 3, 5, 18, 195, 120, 120, 195, 117, 190, 2, 0.405699
225, 1, bw, attraction, a-b-da, 2, 2, 5, 19, 90, 165, 165, 90, 163, 89, 3, 7.90756
225, 1, bw, attraction, a-b-da, 2, 2, 5, 19, 90, 165, 165, 90, 163, 89, 1, 0.467821
225, 1, bw, attraction, a-b-db, 14, 2, 5, 20, 165, 90, 83, 153, 90, 165, 3, 1.5429
225, 1, bw, attraction, a-b-db, 14, 2, 5, 20, 165, 90, 83, 153, 90, 165, 2, 0.807742
225, 1, bw, attraction, a-b-db, 14, 3, 5, 21, 111, 181, 195, 120, 120, 195, 2, 3.01267
225, 1, bw, attraction, a-b-db, 14, 3, 5, 21, 111, 181, 195, 120, 120, 195, 1, 0.418351
225, 1, bw, attraction, a-b-da, 14, 3, 5, 22, 195, 120, 181, 111, 120, 195, 1, 3.99957
225, 1, bw, attraction, a-b-da, 14, 3, 5, 22, 195, 120, 181, 111, 120, 195, 3, 0.341852
225, 1, bw, attraction, a-b-da, 2, 1, 5, 23, 135, 60, 60, 135, 134, 59, 3, 3.40538
225, 1, bw, attraction, a-b-da, 2, 1, 5, 23, 135, 60, 60, 135, 134, 59, 2, 0.619576
225, 1, bw, filler, NA, 999, 999, 5, 24, 94, 79, 94, 135, 115, 135, 3, 1.87268
225, 1, bw, filler, NA, 999, 999, 5, 24, 94, 79, 94, 135, 115, 135, 1, 0.532045
225, 1, bw, attraction, a-b-da, 9, 2, 5, 25, 90, 165, 157, 86, 165, 90, 3, 4.34056
225, 1, bw, attraction, a-b-da, 9, 2, 5, 25, 90, 165, 157, 86, 165, 90, 1, 0.476649
225, 1, bw, attraction, a-b-db, 5, 1, 5, 26, 60, 135, 135, 60, 58, 132, 2, 2.90308
225, 1, bw, attraction, a-b-db, 5, 1, 5, 26, 60, 135, 135, 60, 58, 132, 1, 0.553386
225, 1, bw, filler, NA, 999, 999, 5, 27, 64, 171, 93, 169, 60, 192, 2, 1.42503
225, 1, bw, filler, NA, 999, 999, 5, 27, 64, 171, 93, 169, 60, 192, 1, 0.374658
225, 1, bw, attraction, a-b-db, 2, 3, 5, 28, 119, 193, 120, 195, 195, 120, 3, 6.41315
225, 1, bw, attraction, a-b-db, 2, 3, 5, 28, 119, 193, 120, 195, 195, 120, 1, 0.481972
225, 1, bw, filler, NA, 999, 999, 5, 29, 143, 126, 149, 87, 185, 177, 3, 0.828188
225, 1, bw, filler, NA, 999, 999, 5, 29, 143, 126, 149, 87, 185, 177, 2, 1.08193
225, 1, bw, filler, NA, 999, 999, 5, 30, 84, 146, 152, 169, 168, 121, 2, 1.58856
225, 1, bw, filler, NA, 999, 999, 5, 30, 84, 146, 152, 169, 168, 121, 1, 0.379043
225, 1, bw, attraction, a-b-db, 5, 2, 5, 31, 88, 161, 165, 90, 90, 165, 2, 6.84953
225, 1, bw, attraction, a-b-db, 5, 2, 5, 31, 88, 161, 165, 90, 90, 165, 1, 0.636634
225, 1, bw, catch, NA, 999, 999, 5, 32, 81, 114, 153, 162, 142, 113, 2, 1.0811
225, 1, bw, catch, NA, 999, 999, 5, 32, 81, 114, 153, 162, 142, 113, 1, 0.216942
225, 1, bw, filler, NA, 999, 999, 5, 33, 100, 68, 57, 168, 87, 74, 2, 3.16199
225, 1, bw, filler, NA, 999, 999, 5, 33, 100, 68, 57, 168, 87, 74, 3, 0.489563
225, 1, bw, attraction, a-b-db, 9, 3, 5, 34, 120, 195, 114, 186, 195, 120, 3, 3.56398
225, 1, bw, attraction, a-b-db, 9, 3, 5, 34, 120, 195, 114, 186, 195, 120, 2, 0.931597
225, 1, bw, attraction, a-b-da, 9, 3, 5, 35, 186, 114, 195, 120, 120, 195, 3, 3.38844
225, 1, bw, attraction, a-b-da, 9, 3, 5, 35, 186, 114, 195, 120, 120, 195, 1, 0.498302
225, 1, bw, attraction, a-b-da, 9, 1, 5, 36, 60, 135, 129, 57, 135, 60, 3, 1.76399
225, 1, bw, attraction, a-b-da, 9, 1, 5, 36, 60, 135, 129, 57, 135, 60, 1, 1.54812
225, 1, bw, filler, NA, 999, 999, 5, 37, 145, 183, 168, 67, 86, 155, 1, 1.48347
225, 1, bw, filler, NA, 999, 999, 5, 37, 145, 183, 168, 67, 86, 155, 2, 0.726928
225, 1, bw, filler, NA, 999, 999, 6, 1, 173, 78, 131, 130, 150, 59, 2, 3.51934
225, 1, bw, filler, NA, 999, 999, 6, 1, 173, 78, 131, 130, 150, 59, 3, 0.617523
225, 1, bw, attraction, a-b-da, 9, 3, 6, 2, 120, 195, 186, 114, 195, 120, 3, 3.95805
225, 1, bw, attraction, a-b-da, 9, 3, 6, 2, 120, 195, 186, 114, 195, 120, 2, 0.829429
225, 1, bw, attraction, a-b-da, 5, 2, 6, 3, 165, 90, 161, 88, 90, 165, 3, 7.3298
225, 1, bw, attraction, a-b-da, 5, 2, 6, 3, 165, 90, 161, 88, 90, 165, 1, 0.921423
225, 1, bw, attraction, a-b-da, 9, 2, 6, 4, 90, 165, 157, 86, 165, 90, 3, 2.6184
225, 1, bw, attraction, a-b-da, 9, 2, 6, 4, 90, 165, 157, 86, 165, 90, 2, 0.536258
225, 1, bw, catch, NA, 999, 999, 6, 5, 79, 116, 158, 97, 187, 128, 3, 0.912761
225, 1, bw, catch, NA, 999, 999, 6, 5, 79, 116, 158, 97, 187, 128, 1, 0.535713
225, 1, bw, attraction, a-b-db, 2, 3, 6, 6, 119, 193, 120, 195, 195, 120, 3, 5.73169
225, 1, bw, attraction, a-b-db, 2, 3, 6, 6, 119, 193, 120, 195, 195, 120, 1, 1.69169
225, 1, bw, filler, NA, 999, 999, 6, 7, 129, 139, 59, 139, 140, 153, 3, 1.22909
225, 1, bw, filler, NA, 999, 999, 6, 7, 129, 139, 59, 139, 140, 153, 2, 0.378666
225, 1, bw, attraction, a-b-da, 5, 3, 6, 8, 190, 117, 120, 195, 195, 120, 3, 9.12914
225, 1, bw, attraction, a-b-da, 5, 3, 6, 8, 190, 117, 120, 195, 195, 120, 1, 1.90432
225, 1, bw, attraction, a-b-db, 5, 3, 6, 9, 195, 120, 120, 195, 117, 190, 2, 4.93759
225, 1, bw, attraction, a-b-db, 5, 3, 6, 9, 195, 120, 120, 195, 117, 190, 1, 0.738085
225, 1, bw, catch, NA, 999, 999, 6, 10, 60, 135, 163, 152, 114, 141, 2, 2.90639
225, 1, bw, catch, NA, 999, 999, 6, 10, 60, 135, 163, 152, 114, 141, 1, 0.508174
225, 1, bw, attraction, a-b-db, 14, 3, 6, 11, 195, 120, 111, 181, 120, 195, 3, 2.50923
225, 1, bw, attraction, a-b-db, 14, 3, 6, 11, 195, 120, 111, 181, 120, 195, 2, 0.735058
225, 1, bw, attraction, a-b-da, 2, 3, 6, 12, 195, 120, 120, 195, 193, 119, 3, 1.0155
225, 1, bw, attraction, a-b-da, 2, 3, 6, 12, 195, 120, 120, 195, 193, 119, 1, 0.653761
225, 1, bw, filler, NA, 999, 999, 6, 13, 132, 168, 174, 81, 147, 111, 1, 4.44994
225, 1, bw, filler, NA, 999, 999, 6, 13, 132, 168, 174, 81, 147, 111, 3, 0.805521
225, 1, bw, filler, NA, 999, 999, 6, 14, 182, 72, 115, 114, 194, 167, 3, 1.53921
225, 1, bw, filler, NA, 999, 999, 6, 14, 182, 72, 115, 114, 194, 167, 2, 2.45206
225, 1, bw, attraction, a-b-da, 5, 1, 6, 15, 132, 58, 60, 135, 135, 60, 3, 2.15916
225, 1, bw, attraction, a-b-da, 5, 1, 6, 15, 132, 58, 60, 135, 135, 60, 1, 0.703233
225, 1, bw, attraction, a-b-db, 14, 2, 6, 16, 83, 153, 165, 90, 90, 165, 2, 9.42509
225, 1, bw, attraction, a-b-db, 14, 2, 6, 16, 83, 153, 165, 90, 90, 165, 1, 0.515823
225, 1, bw, attraction, a-b-db, 2, 2, 6, 17, 89, 163, 165, 90, 90, 165, 2, 4.18094
225, 1, bw, attraction, a-b-db, 2, 2, 6, 17, 89, 163, 165, 90, 90, 165, 1, 0.723734
225, 1, bw, attraction, a-b-db, 9, 3, 6, 18, 195, 120, 120, 195, 114, 186, 1, 7.86823
225, 1, bw, attraction, a-b-db, 9, 3, 6, 18, 195, 120, 120, 195, 114, 186, 3, 0.686303
225, 1, bw, attraction, a-b-da, 14, 2, 6, 19, 153, 83, 90, 165, 165, 90, 3, 7.31262
225, 1, bw, attraction, a-b-da, 14, 2, 6, 19, 153, 83, 90, 165, 165, 90, 1, 0.649046
225, 1, bw, filler, NA, 999, 999, 6, 20, 110, 75, 103, 152, 60, 160, 2, 1.74872
225, 1, bw, filler, NA, 999, 999, 6, 20, 110, 75, 103, 152, 60, 160, 1, 0.725498
225, 1, bw, filler, NA, 999, 999, 6, 21, 119, 145, 192, 183, 85, 193, 2, 1.1899
225, 1, bw, filler, NA, 999, 999, 6, 21, 119, 145, 192, 183, 85, 193, 1, 5.81275
225, 1, bw, filler, NA, 999, 999, 6, 22, 161, 142, 69, 102, 148, 120, 1, 1.75216
225, 1, bw, filler, NA, 999, 999, 6, 22, 161, 142, 69, 102, 148, 120, 2, 0.479012
225, 1, bw, attraction, a-b-db, 9, 2, 6, 23, 90, 165, 86, 157, 165, 90, 3, 2.29139
225, 1, bw, attraction, a-b-db, 9, 2, 6, 23, 90, 165, 86, 157, 165, 90, 1, 0.837989
225, 1, bw, attraction, a-b-da, 14, 3, 6, 24, 195, 120, 181, 111, 120, 195, 1, 3.48248
225, 1, bw, attraction, a-b-da, 14, 3, 6, 24, 195, 120, 181, 111, 120, 195, 2, 0.365309
225, 1, bw, filler, NA, 999, 999, 6, 25, 92, 84, 69, 75, 68, 118, 1, 10.1885
225, 1, bw, filler, NA, 999, 999, 6, 25, 92, 84, 69, 75, 68, 118, 2, 0.329283
225, 1, bw, attraction, a-b-db, 5, 2, 6, 26, 90, 165, 165, 90, 88, 161, 2, 3.8497
225, 1, bw, attraction, a-b-db, 5, 2, 6, 26, 90, 165, 165, 90, 88, 161, 1, 0.405848
225, 1, bw, attraction, a-b-da, 2, 1, 6, 27, 135, 60, 60, 135, 134, 59, 3, 4.0836
225, 1, bw, attraction, a-b-da, 2, 1, 6, 27, 135, 60, 60, 135, 134, 59, 1, 0.422433
225, 1, bw, attraction, a-b-db, 2, 1, 6, 28, 59, 134, 60, 135, 135, 60, 3, 2.01964
225, 1, bw, attraction, a-b-db, 2, 1, 6, 28, 59, 134, 60, 135, 135, 60, 1, 0.970199
225, 1, bw, attraction, a-b-da, 14, 1, 6, 29, 125, 56, 60, 135, 135, 60, 3, 1.68857
225, 1, bw, attraction, a-b-da, 14, 1, 6, 29, 125, 56, 60, 135, 135, 60, 1, 0.699289
225, 1, bw, filler, NA, 999, 999, 6, 30, 140, 94, 189, 191, 120, 103, 2, 0.964952
225, 1, bw, filler, NA, 999, 999, 6, 30, 140, 94, 189, 191, 120, 103, 3, 0.557322
225, 1, bw, attraction, a-b-db, 9, 1, 6, 31, 60, 135, 135, 60, 57, 129, 2, 5.58043
225, 1, bw, attraction, a-b-db, 9, 1, 6, 31, 60, 135, 135, 60, 57, 129, 3, 0.402753
225, 1, bw, attraction, a-b-da, 2, 2, 6, 32, 165, 90, 90, 165, 163, 89, 3, 5.63245
225, 1, bw, attraction, a-b-da, 2, 2, 6, 32, 165, 90, 90, 165, 163, 89, 2, 0.332686
225, 1, bw, attraction, a-b-db, 5, 1, 6, 33, 60, 135, 135, 60, 58, 132, 2, 4.28518
225, 1, bw, attraction, a-b-db, 5, 1, 6, 33, 60, 135, 135, 60, 58, 132, 1, 1.52801
225, 1, bw, filler, NA, 999, 999, 6, 34, 109, 63, 102, 71, 156, 76, 3, 1.20789
225, 1, bw, filler, NA, 999, 999, 6, 34, 109, 63, 102, 71, 156, 76, 1, 2.46225
225, 1, bw, catch, NA, 999, 999, 6, 35, 161, 154, 112, 83, 139, 116, 1, 1.00073
225, 1, bw, catch, NA, 999, 999, 6, 35, 161, 154, 112, 83, 139, 116, 2, 0.53568
225, 1, bw, attraction, a-b-db, 14, 1, 6, 36, 135, 60, 56, 125, 60, 135, 1, 2.21619
225, 1, bw, attraction, a-b-db, 14, 1, 6, 36, 135, 60, 56, 125, 60, 135, 2, 0.478078
225, 1, bw, attraction, a-b-da, 9, 1, 6, 37, 129, 57, 135, 60, 60, 135, 2, 2.42454
225, 1, bw, attraction, a-b-da, 9, 1, 6, 37, 129, 57, 135, 60, 60, 135, 1, 0.81379
225, 1, bw, filler, NA, 999, 999, 7, 1, 106, 89, 58, 157, 88, 128, 1, 4.97073
225, 1, bw, filler, NA, 999, 999, 7, 1, 106, 89, 58, 157, 88, 128, 3, 0.562141
225, 1, bw, attraction, a-b-da, 9, 3, 7, 2, 186, 114, 120, 195, 195, 120, 3, 3.96108
225, 1, bw, attraction, a-b-da, 9, 3, 7, 2, 186, 114, 120, 195, 195, 120, 1, 0.560435
225, 1, bw, attraction, a-b-db, 2, 2, 7, 3, 89, 163, 165, 90, 90, 165, 3, 7.08755
225, 1, bw, attraction, a-b-db, 2, 2, 7, 3, 89, 163, 165, 90, 90, 165, 2, 0.39321
225, 1, bw, filler, NA, 999, 999, 7, 4, 119, 101, 93, 67, 141, 110, 3, 1.18308
225, 1, bw, filler, NA, 999, 999, 7, 4, 119, 101, 93, 67, 141, 110, 2, 0.646678
225, 1, bw, attraction, a-b-db, 14, 2, 7, 5, 165, 90, 83, 153, 90, 165, 1, 4.77846
225, 1, bw, attraction, a-b-db, 14, 2, 7, 5, 165, 90, 83, 153, 90, 165, 2, 0.512899
225, 1, bw, attraction, a-b-da, 14, 2, 7, 6, 90, 165, 165, 90, 153, 83, 2, 6.05015
225, 1, bw, attraction, a-b-da, 14, 2, 7, 6, 90, 165, 165, 90, 153, 83, 3, 0.901428
225, 1, bw, filler, NA, 999, 999, 7, 7, 88, 60, 98, 140, 123, 124, 3, 2.76709
225, 1, bw, filler, NA, 999, 999, 7, 7, 88, 60, 98, 140, 123, 124, 1, 0.374956
225, 1, bw, attraction, a-b-da, 5, 3, 7, 8, 190, 117, 195, 120, 120, 195, 2, 3.66943
225, 1, bw, attraction, a-b-da, 5, 3, 7, 8, 190, 117, 195, 120, 120, 195, 1, 0.384922
225, 1, bw, attraction, a-b-db, 2, 3, 7, 9, 120, 195, 195, 120, 119, 193, 1, 2.08737
225, 1, bw, attraction, a-b-db, 2, 3, 7, 9, 120, 195, 195, 120, 119, 193, 3, 0.394787
225, 1, bw, attraction, a-b-da, 5, 2, 7, 10, 161, 88, 90, 165, 165, 90, 3, 2.16049
225, 1, bw, attraction, a-b-da, 5, 2, 7, 10, 161, 88, 90, 165, 165, 90, 1, 0.968378
225, 1, bw, attraction, a-b-db, 9, 1, 7, 11, 60, 135, 135, 60, 57, 129, 2, 2.99136
225, 1, bw, attraction, a-b-db, 9, 1, 7, 11, 60, 135, 135, 60, 57, 129, 3, 0.389916
225, 1, bw, attraction, a-b-db, 2, 1, 7, 12, 135, 60, 59, 134, 60, 135, 1, 8.74818
225, 1, bw, attraction, a-b-db, 2, 1, 7, 12, 135, 60, 59, 134, 60, 135, 2, 0.338842
225, 1, bw, attraction, a-b-da, 14, 1, 7, 13, 135, 60, 60, 135, 125, 56, 1, 1.74737
225, 1, bw, attraction, a-b-da, 14, 1, 7, 13, 135, 60, 60, 135, 125, 56, 3, 0.908094
225, 1, bw, catch, NA, 999, 999, 7, 14, 136, 179, 121, 74, 92, 163, 1, 0.813222
225, 1, bw, catch, NA, 999, 999, 7, 14, 136, 179, 121, 74, 92, 163, 2, 0.499475
225, 1, bw, catch, NA, 999, 999, 7, 15, 140, 115, 66, 129, 121, 194, 3, 1.34136
225, 1, bw, catch, NA, 999, 999, 7, 15, 140, 115, 66, 129, 121, 194, 2, 0.574691
225, 1, bw, filler, NA, 999, 999, 7, 16, 186, 116, 109, 89, 109, 194, 1, 1.84484
225, 1, bw, filler, NA, 999, 999, 7, 16, 186, 116, 109, 89, 109, 194, 2, 0.473444
225, 1, bw, attraction, a-b-db, 5, 1, 7, 17, 58, 132, 135, 60, 60, 135, 2, 2.88379
225, 1, bw, attraction, a-b-db, 5, 1, 7, 17, 58, 132, 135, 60, 60, 135, 1, 0.414912
225, 1, bw, attraction, a-b-db, 9, 2, 7, 18, 86, 157, 90, 165, 165, 90, 3, 2.21202
225, 1, bw, attraction, a-b-db, 9, 2, 7, 18, 86, 157, 90, 165, 165, 90, 1, 0.641987
225, 1, bw, filler, NA, 999, 999, 7, 19, 106, 80, 179, 137, 180, 151, 3, 1.67779
225, 1, bw, filler, NA, 999, 999, 7, 19, 106, 80, 179, 137, 180, 151, 1, 0.929169
225, 1, bw, attraction, a-b-da, 2, 3, 7, 20, 120, 195, 193, 119, 195, 120, 3, 3.60148
225, 1, bw, attraction, a-b-da, 2, 3, 7, 20, 120, 195, 193, 119, 195, 120, 2, 0.847654
225, 1, bw, attraction, a-b-da, 9, 1, 7, 21, 60, 135, 129, 57, 135, 60, 3, 2.21943
225, 1, bw, attraction, a-b-da, 9, 1, 7, 21, 60, 135, 129, 57, 135, 60, 1, 0.585382
225, 1, bw, attraction, a-b-db, 14, 3, 7, 22, 195, 120, 120, 195, 111, 181, 1, 3.47975
225, 1, bw, attraction, a-b-db, 14, 3, 7, 22, 195, 120, 120, 195, 111, 181, 3, 0.538654
225, 1, bw, filler, NA, 999, 999, 7, 23, 72, 85, 128, 150, 73, 91, 2, 0.723097
225, 1, bw, filler, NA, 999, 999, 7, 23, 72, 85, 128, 150, 73, 91, 1, 0.89286
225, 1, bw, filler, NA, 999, 999, 7, 24, 192, 89, 120, 58, 132, 151, 1, 4.83842
225, 1, bw, filler, NA, 999, 999, 7, 24, 192, 89, 120, 58, 132, 151, 2, 0.506865
225, 1, bw, attraction, a-b-da, 5, 1, 7, 25, 135, 60, 132, 58, 60, 135, 2, 2.58
225, 1, bw, attraction, a-b-da, 5, 1, 7, 25, 135, 60, 132, 58, 60, 135, 1, 1.1393
225, 1, bw, attraction, a-b-db, 5, 3, 7, 26, 120, 195, 117, 190, 195, 120, 3, 3.01143
225, 1, bw, attraction, a-b-db, 5, 3, 7, 26, 120, 195, 117, 190, 195, 120, 2, 2.1051
225, 1, bw, attraction, a-b-da, 9, 2, 7, 27, 157, 86, 90, 165, 165, 90, 3, 3.92239
225, 1, bw, attraction, a-b-da, 9, 2, 7, 27, 157, 86, 90, 165, 165, 90, 1, 1.13834
225, 1, bw, filler, NA, 999, 999, 7, 28, 140, 135, 171, 82, 71, 188, 1, 1.0914
225, 1, bw, filler, NA, 999, 999, 7, 28, 140, 135, 171, 82, 71, 188, 3, 0.758451
225, 1, bw, attraction, a-b-db, 5, 2, 7, 29, 165, 90, 90, 165, 88, 161, 1, 6.38946
225, 1, bw, attraction, a-b-db, 5, 2, 7, 29, 165, 90, 90, 165, 88, 161, 3, 0.475142
225, 1, bw, attraction, a-b-da, 2, 1, 7, 30, 134, 59, 60, 135, 135, 60, 3, 3.80521
225, 1, bw, attraction, a-b-da, 2, 1, 7, 30, 134, 59, 60, 135, 135, 60, 1, 0.555322
225, 1, bw, filler, NA, 999, 999, 7, 31, 66, 108, 76, 82, 82, 90, 3, 1.22712
225, 1, bw, filler, NA, 999, 999, 7, 31, 66, 108, 76, 82, 82, 90, 1, 0.456682
225, 1, bw, attraction, a-b-db, 9, 3, 7, 32, 195, 120, 114, 186, 120, 195, 1, 3.77182
225, 1, bw, attraction, a-b-db, 9, 3, 7, 32, 195, 120, 114, 186, 120, 195, 2, 0.426692
225, 1, bw, filler, NA, 999, 999, 7, 33, 150, 164, 69, 105, 164, 172, 3, 0.855025
225, 1, bw, filler, NA, 999, 999, 7, 33, 150, 164, 69, 105, 164, 172, 2, 0.539466
225, 1, bw, catch, NA, 999, 999, 7, 34, 187, 128, 107, 88, 110, 145, 1, 1.76388
225, 1, bw, catch, NA, 999, 999, 7, 34, 187, 128, 107, 88, 110, 145, 2, 0.379907
225, 1, bw, attraction, a-b-da, 14, 3, 7, 35, 195, 120, 120, 195, 181, 111, 1, 2.14655
225, 1, bw, attraction, a-b-da, 14, 3, 7, 35, 195, 120, 120, 195, 181, 111, 3, 0.443063
225, 1, bw, attraction, a-b-da, 2, 2, 7, 36, 165, 90, 90, 165, 163, 89, 3, 6.28692
225, 1, bw, attraction, a-b-da, 2, 2, 7, 36, 165, 90, 90, 165, 163, 89, 2, 0.488866
225, 1, bw, attraction, a-b-db, 14, 1, 7, 37, 135, 60, 60, 135, 56, 125, 1, 2.25946
225, 1, bw, attraction, a-b-db, 14, 1, 7, 37, 135, 60, 60, 135, 56, 125, 3, 0.543294
225, 1, bw, filler, NA, 999, 999, 8, 1, 68, 148, 90, 113, 65, 127, 1, 2.21535
225, 1, bw, filler, NA, 999, 999, 8, 1, 68, 148, 90, 113, 65, 127, 3, 0.365041
225, 1, bw, filler, NA, 999, 999, 8, 2, 131, 147, 186, 95, 72, 136, 2, 2.00417
225, 1, bw, filler, NA, 999, 999, 8, 2, 131, 147, 186, 95, 72, 136, 3, 0.594814
225, 1, bw, catch, NA, 999, 999, 8, 3, 181, 134, 95, 160, 61, 134, 1, 0.760522
225, 1, bw, catch, NA, 999, 999, 8, 3, 181, 134, 95, 160, 61, 134, 3, 0.505164
225, 1, bw, attraction, a-b-db, 5, 2, 8, 4, 90, 165, 88, 161, 165, 90, 3, 2.18674
225, 1, bw, attraction, a-b-db, 5, 2, 8, 4, 90, 165, 88, 161, 165, 90, 1, 0.506096
225, 1, bw, attraction, a-b-db, 2, 2, 8, 5, 89, 163, 165, 90, 90, 165, 2, 2.4198
225, 1, bw, attraction, a-b-db, 2, 2, 8, 5, 89, 163, 165, 90, 90, 165, 1, 0.745847
225, 1, bw, attraction, a-b-da, 14, 3, 8, 6, 120, 195, 195, 120, 181, 111, 2, 2.59363
225, 1, bw, attraction, a-b-da, 14, 3, 8, 6, 120, 195, 195, 120, 181, 111, 3, 0.391956
225, 1, bw, filler, NA, 999, 999, 8, 7, 66, 177, 83, 186, 109, 190, 3, 0.773646
225, 1, bw, filler, NA, 999, 999, 8, 7, 66, 177, 83, 186, 109, 190, 1, 0.533547
225, 1, bw, attraction, a-b-db, 2, 1, 8, 8, 135, 60, 60, 135, 59, 134, 2, 2.43793
225, 1, bw, attraction, a-b-db, 2, 1, 8, 8, 135, 60, 60, 135, 59, 134, 1, 0.955179
225, 1, bw, attraction, a-b-db, 2, 3, 8, 9, 120, 195, 195, 120, 119, 193, 2, 5.45883
225, 1, bw, attraction, a-b-db, 2, 3, 8, 9, 120, 195, 195, 120, 119, 193, 1, 1.94177
225, 1, bw, attraction, a-b-da, 9, 2, 8, 10, 90, 165, 165, 90, 157, 86, 3, 2.46111
225, 1, bw, attraction, a-b-da, 9, 2, 8, 10, 90, 165, 165, 90, 157, 86, 1, 0.52101
225, 1, bw, attraction, a-b-db, 5, 1, 8, 11, 60, 135, 58, 132, 135, 60, 3, 2.45017
225, 1, bw, attraction, a-b-db, 5, 1, 8, 11, 60, 135, 58, 132, 135, 60, 1, 0.550554
225, 1, bw, attraction, a-b-db, 9, 3, 8, 12, 195, 120, 114, 186, 120, 195, 1, 2.07041
225, 1, bw, attraction, a-b-db, 9, 3, 8, 12, 195, 120, 114, 186, 120, 195, 3, 0.842523
225, 1, bw, attraction, a-b-da, 5, 2, 8, 13, 165, 90, 161, 88, 90, 165, 2, 3.71812
225, 1, bw, attraction, a-b-da, 5, 2, 8, 13, 165, 90, 161, 88, 90, 165, 1, 1.69551
225, 1, bw, attraction, a-b-db, 14, 2, 8, 14, 90, 165, 83, 153, 165, 90, 3, 1.66495
225, 1, bw, attraction, a-b-db, 14, 2, 8, 14, 90, 165, 83, 153, 165, 90, 2, 0.821105
225, 1, bw, attraction, a-b-da, 2, 2, 8, 15, 165, 90, 163, 89, 90, 165, 2, 2.50616
225, 1, bw, attraction, a-b-da, 2, 2, 8, 15, 165, 90, 163, 89, 90, 165, 1, 0.595962
225, 1, bw, filler, NA, 999, 999, 8, 16, 102, 172, 192, 134, 158, 138, 2, 1.00975
225, 1, bw, filler, NA, 999, 999, 8, 16, 102, 172, 192, 134, 158, 138, 1, 0.352012
225, 1, bw, filler, NA, 999, 999, 8, 17, 123, 109, 188, 163, 127, 120, 2, 0.719807
225, 1, bw, filler, NA, 999, 999, 8, 17, 123, 109, 188, 163, 127, 120, 1, 0.914257
225, 1, bw, filler, NA, 999, 999, 8, 18, 111, 124, 110, 106, 148, 149, 3, 0.883299
225, 1, bw, filler, NA, 999, 999, 8, 18, 111, 124, 110, 106, 148, 149, 2, 0.57495
225, 1, bw, filler, NA, 999, 999, 8, 19, 187, 162, 146, 167, 96, 87, 1, 1.18136
225, 1, bw, filler, NA, 999, 999, 8, 19, 187, 162, 146, 167, 96, 87, 3, 0.357055
225, 1, bw, attraction, a-b-db, 14, 1, 8, 20, 56, 125, 135, 60, 60, 135, 2, 2.94826
225, 1, bw, attraction, a-b-db, 14, 1, 8, 20, 56, 125, 135, 60, 60, 135, 1, 0.852505
225, 1, bw, attraction, a-b-db, 5, 3, 8, 21, 117, 190, 120, 195, 195, 120, 3, 2.08825
225, 1, bw, attraction, a-b-db, 5, 3, 8, 21, 117, 190, 120, 195, 195, 120, 1, 0.459577
225, 1, bw, filler, NA, 999, 999, 8, 22, 117, 160, 174, 97, 127, 155, 2, 6.13469
225, 1, bw, filler, NA, 999, 999, 8, 22, 117, 160, 174, 97, 127, 155, 1, 0.414688
225, 1, bw, catch, NA, 999, 999, 8, 23, 92, 163, 127, 68, 173, 142, 3, 0.867867
225, 1, bw, catch, NA, 999, 999, 8, 23, 92, 163, 127, 68, 173, 142, 2, 0.52019
225, 1, bw, attraction, a-b-da, 2, 1, 8, 24, 60, 135, 134, 59, 135, 60, 2, 2.5935
225, 1, bw, attraction, a-b-da, 2, 1, 8, 24, 60, 135, 134, 59, 135, 60, 1, 0.567803
225, 1, bw, catch, NA, 999, 999, 8, 25, 167, 148, 98, 97, 152, 103, 1, 0.782911
225, 1, bw, catch, NA, 999, 999, 8, 25, 167, 148, 98, 97, 152, 103, 2, 0.350735
225, 1, bw, attraction, a-b-db, 9, 1, 8, 26, 135, 60, 57, 129, 60, 135, 1, 3.99846
225, 1, bw, attraction, a-b-db, 9, 1, 8, 26, 135, 60, 57, 129, 60, 135, 2, 0.348457
225, 1, bw, attraction, a-b-db, 14, 3, 8, 27, 120, 195, 111, 181, 195, 120, 3, 4.37246
225, 1, bw, attraction, a-b-db, 14, 3, 8, 27, 120, 195, 111, 181, 195, 120, 2, 0.394902
225, 1, bw, attraction, a-b-da, 9, 3, 8, 28, 120, 195, 195, 120, 186, 114, 2, 1.36876
225, 1, bw, attraction, a-b-da, 9, 3, 8, 28, 120, 195, 195, 120, 186, 114, 3, 0.361123
225, 1, bw, attraction, a-b-da, 5, 3, 8, 29, 120, 195, 190, 117, 195, 120, 2, 2.14416
225, 1, bw, attraction, a-b-da, 5, 3, 8, 29, 120, 195, 190, 117, 195, 120, 1, 0.968919
225, 1, bw, attraction, a-b-da, 14, 1, 8, 30, 135, 60, 60, 135, 125, 56, 1, 6.42385
225, 1, bw, attraction, a-b-da, 14, 1, 8, 30, 135, 60, 60, 135, 125, 56, 3, 0.74792
225, 1, bw, attraction, a-b-da, 9, 1, 8, 31, 129, 57, 60, 135, 135, 60, 3, 2.88357
225, 1, bw, attraction, a-b-da, 9, 1, 8, 31, 129, 57, 60, 135, 135, 60, 1, 0.550557
225, 1, bw, attraction, a-b-da, 14, 2, 8, 32, 90, 165, 153, 83, 165, 90, 3, 2.36633
225, 1, bw, attraction, a-b-da, 14, 2, 8, 32, 90, 165, 153, 83, 165, 90, 2, 0.766129
225, 1, bw, attraction, a-b-db, 9, 2, 8, 33, 86, 157, 165, 90, 90, 165, 2, 1.78127
225, 1, bw, attraction, a-b-db, 9, 2, 8, 33, 86, 157, 165, 90, 90, 165, 1, 0.348643
225, 1, bw, filler, NA, 999, 999, 8, 34, 95, 70, 155, 186, 124, 101, 2, 0.748538
225, 1, bw, filler, NA, 999, 999, 8, 34, 95, 70, 155, 186, 124, 101, 1, 0.381587
225, 1, bw, attraction, a-b-da, 5, 1, 8, 35, 132, 58, 60, 135, 135, 60, 3, 2.81199
225, 1, bw, attraction, a-b-da, 5, 1, 8, 35, 132, 58, 60, 135, 135, 60, 1, 0.431362
225, 1, bw, attraction, a-b-da, 2, 3, 8, 36, 195, 120, 193, 119, 120, 195, 1, 1.53436
225, 1, bw, attraction, a-b-da, 2, 3, 8, 36, 195, 120, 193, 119, 120, 195, 2, 0.831812
225, 1, bw, filler, NA, 999, 999, 8, 37, 145, 114, 136, 129, 68, 95, 2, 1.45212
225, 1, bw, filler, NA, 999, 999, 8, 37, 145, 114, 136, 129, 68, 95, 3, 0.560935
