sub_n, computer_n, bw_cond, effect, set, distance, diag, block_n, trial_n, h1, w1, h2, w2, h3, w3, choice, rt 
26, 1, wb, practice, NA, 999, 999, 0, 1, 141, 109, 66, 60, 100, 160, 2, 2.66119
26, 1, wb, practice, NA, 999, 999, 0, 1, 141, 109, 66, 60, 100, 160, 3, 3.80712
26, 1, wb, practice, NA, 999, 999, 0, 2, 139, 64, 84, 155, 167, 93, 1, 2.2898
26, 1, wb, practice, NA, 999, 999, 0, 2, 139, 64, 84, 155, 167, 93, 2, 1.93538
26, 1, wb, practice, NA, 999, 999, 0, 3, 82, 92, 181, 68, 85, 64, 3, 2.57054
26, 1, wb, practice, NA, 999, 999, 0, 3, 82, 92, 181, 68, 85, 64, 2, 1.90678
26, 1, wb, attraction, a-b-da, 2, 1, 1, 1, 135, 60, 134, 59, 60, 135, 2, 2.78991
26, 1, wb, attraction, a-b-da, 2, 1, 1, 1, 135, 60, 134, 59, 60, 135, 3, 1.53511
26, 1, wb, attraction, a-b-db, 14, 2, 1, 2, 90, 165, 165, 90, 83, 153, 3, 3.47347
26, 1, wb, attraction, a-b-db, 14, 2, 1, 2, 90, 165, 165, 90, 83, 153, 2, 3.15459
26, 1, wb, attraction, a-b-da, 5, 3, 1, 3, 120, 195, 190, 117, 195, 120, 2, 5.83545
26, 1, wb, attraction, a-b-da, 5, 3, 1, 3, 120, 195, 190, 117, 195, 120, 1, 1.11073
26, 1, wb, attraction, a-b-da, 5, 1, 1, 4, 135, 60, 60, 135, 132, 58, 1, 3.31035
26, 1, wb, attraction, a-b-da, 5, 1, 1, 4, 135, 60, 60, 135, 132, 58, 2, 1.76845
26, 1, wb, filler, NA, 999, 999, 1, 5, 58, 89, 160, 69, 153, 91, 1, 2.11245
26, 1, wb, filler, NA, 999, 999, 1, 5, 58, 89, 160, 69, 153, 91, 3, 0.818047
26, 1, wb, attraction, a-b-db, 9, 1, 1, 6, 60, 135, 57, 129, 135, 60, 3, 4.19135
26, 1, wb, attraction, a-b-db, 9, 1, 1, 6, 60, 135, 57, 129, 135, 60, 1, 2.58206
26, 1, wb, attraction, a-b-db, 5, 1, 1, 7, 60, 135, 135, 60, 58, 132, 3, 4.23603
26, 1, wb, attraction, a-b-db, 5, 1, 1, 7, 60, 135, 135, 60, 58, 132, 1, 0.768522
26, 1, wb, catch, NA, 999, 999, 1, 8, 165, 150, 160, 95, 89, 106, 3, 2.02322
26, 1, wb, catch, NA, 999, 999, 1, 8, 165, 150, 160, 95, 89, 106, 1, 0.726239
26, 1, wb, attraction, a-b-db, 9, 2, 1, 9, 165, 90, 86, 157, 90, 165, 2, 5.34409
26, 1, wb, attraction, a-b-db, 9, 2, 1, 9, 165, 90, 86, 157, 90, 165, 3, 0.676591
26, 1, wb, attraction, a-b-da, 9, 2, 1, 10, 90, 165, 165, 90, 157, 86, 3, 5.2018
26, 1, wb, attraction, a-b-da, 9, 2, 1, 10, 90, 165, 165, 90, 157, 86, 1, 0.543092
26, 1, wb, attraction, a-b-db, 2, 2, 1, 11, 90, 165, 165, 90, 89, 163, 2, 3.12701
26, 1, wb, attraction, a-b-db, 2, 2, 1, 11, 90, 165, 165, 90, 89, 163, 3, 0.640781
26, 1, wb, attraction, a-b-db, 14, 1, 1, 12, 135, 60, 56, 125, 60, 135, 2, 5.71069
26, 1, wb, attraction, a-b-db, 14, 1, 1, 12, 135, 60, 56, 125, 60, 135, 3, 1.33416
26, 1, wb, catch, NA, 999, 999, 1, 13, 95, 160, 160, 155, 98, 97, 3, 1.6
26, 1, wb, catch, NA, 999, 999, 1, 13, 95, 160, 160, 155, 98, 97, 2, 2.58975
26, 1, wb, filler, NA, 999, 999, 1, 14, 154, 74, 106, 102, 115, 118, 2, 2.72248
26, 1, wb, filler, NA, 999, 999, 1, 14, 154, 74, 106, 102, 115, 118, 3, 2.28677
26, 1, wb, attraction, a-b-da, 14, 3, 1, 15, 181, 111, 195, 120, 120, 195, 1, 3.52953
26, 1, wb, attraction, a-b-da, 14, 3, 1, 15, 181, 111, 195, 120, 120, 195, 3, 1.20891
26, 1, wb, attraction, a-b-da, 2, 2, 1, 16, 163, 89, 90, 165, 165, 90, 3, 4.9496
26, 1, wb, attraction, a-b-da, 2, 2, 1, 16, 163, 89, 90, 165, 165, 90, 2, 1.86186
26, 1, wb, filler, NA, 999, 999, 1, 17, 86, 147, 84, 189, 181, 69, 3, 2.45733
26, 1, wb, filler, NA, 999, 999, 1, 17, 86, 147, 84, 189, 181, 69, 2, 1.10967
26, 1, wb, filler, NA, 999, 999, 1, 18, 124, 161, 72, 64, 102, 168, 2, 1.46212
26, 1, wb, filler, NA, 999, 999, 1, 18, 124, 161, 72, 64, 102, 168, 1, 0.691176
26, 1, wb, attraction, a-b-da, 14, 2, 1, 19, 90, 165, 153, 83, 165, 90, 2, 3.23612
26, 1, wb, attraction, a-b-da, 14, 2, 1, 19, 90, 165, 153, 83, 165, 90, 1, 0.77985
26, 1, wb, attraction, a-b-da, 2, 3, 1, 20, 195, 120, 120, 195, 193, 119, 3, 3.86629
26, 1, wb, attraction, a-b-da, 2, 3, 1, 20, 195, 120, 120, 195, 193, 119, 2, 0.756137
26, 1, wb, attraction, a-b-db, 14, 3, 1, 21, 111, 181, 120, 195, 195, 120, 3, 4.5728
26, 1, wb, attraction, a-b-db, 14, 3, 1, 21, 111, 181, 120, 195, 195, 120, 2, 0.964514
26, 1, wb, attraction, a-b-da, 9, 3, 1, 22, 195, 120, 120, 195, 186, 114, 3, 2.24072
26, 1, wb, attraction, a-b-da, 9, 3, 1, 22, 195, 120, 120, 195, 186, 114, 2, 1.06249
26, 1, wb, filler, NA, 999, 999, 1, 23, 166, 137, 86, 61, 102, 113, 2, 2.57817
26, 1, wb, filler, NA, 999, 999, 1, 23, 166, 137, 86, 61, 102, 113, 1, 0.515001
26, 1, wb, catch, NA, 999, 999, 1, 24, 98, 97, 160, 155, 137, 118, 1, 1.80394
26, 1, wb, catch, NA, 999, 999, 1, 24, 98, 97, 160, 155, 137, 118, 2, 1.78816
26, 1, wb, attraction, a-b-db, 9, 3, 1, 25, 195, 120, 120, 195, 114, 186, 3, 4.62579
26, 1, wb, attraction, a-b-db, 9, 3, 1, 25, 195, 120, 120, 195, 114, 186, 2, 1.23641
26, 1, wb, attraction, a-b-da, 14, 1, 1, 26, 135, 60, 60, 135, 125, 56, 3, 3.62552
26, 1, wb, attraction, a-b-da, 14, 1, 1, 26, 135, 60, 60, 135, 125, 56, 2, 0.744456
26, 1, wb, attraction, a-b-da, 9, 1, 1, 27, 135, 60, 60, 135, 129, 57, 1, 3.0393
26, 1, wb, attraction, a-b-da, 9, 1, 1, 27, 135, 60, 60, 135, 129, 57, 2, 1.00526
26, 1, wb, attraction, a-b-da, 5, 2, 1, 28, 161, 88, 165, 90, 90, 165, 2, 4.92983
26, 1, wb, attraction, a-b-da, 5, 2, 1, 28, 161, 88, 165, 90, 90, 165, 3, 1.16281
26, 1, wb, attraction, a-b-db, 2, 1, 1, 29, 59, 134, 135, 60, 60, 135, 2, 5.11505
26, 1, wb, attraction, a-b-db, 2, 1, 1, 29, 59, 134, 135, 60, 60, 135, 1, 0.916053
26, 1, wb, filler, NA, 999, 999, 1, 30, 126, 142, 161, 63, 97, 62, 3, 1.73346
26, 1, wb, filler, NA, 999, 999, 1, 30, 126, 142, 161, 63, 97, 62, 1, 0.589173
26, 1, wb, filler, NA, 999, 999, 1, 31, 138, 63, 134, 170, 116, 66, 3, 1.68399
26, 1, wb, filler, NA, 999, 999, 1, 31, 138, 63, 134, 170, 116, 66, 2, 0.617259
26, 1, wb, filler, NA, 999, 999, 1, 32, 134, 124, 101, 187, 110, 97, 3, 1.41264
26, 1, wb, filler, NA, 999, 999, 1, 32, 134, 124, 101, 187, 110, 97, 2, 2.32387
26, 1, wb, attraction, a-b-db, 5, 2, 1, 33, 90, 165, 88, 161, 165, 90, 3, 2.49926
26, 1, wb, attraction, a-b-db, 5, 2, 1, 33, 90, 165, 88, 161, 165, 90, 2, 1.50343
26, 1, wb, attraction, a-b-db, 5, 3, 1, 34, 120, 195, 117, 190, 195, 120, 1, 3.86418
26, 1, wb, attraction, a-b-db, 5, 3, 1, 34, 120, 195, 117, 190, 195, 120, 2, 0.602598
26, 1, wb, filler, NA, 999, 999, 1, 35, 150, 166, 66, 104, 136, 103, 2, 1.49796
26, 1, wb, filler, NA, 999, 999, 1, 35, 150, 166, 66, 104, 136, 103, 1, 0.517583
26, 1, wb, filler, NA, 999, 999, 1, 36, 95, 150, 113, 89, 132, 58, 3, 2.88515
26, 1, wb, filler, NA, 999, 999, 1, 36, 95, 150, 113, 89, 132, 58, 1, 0.519895
26, 1, wb, attraction, a-b-db, 2, 3, 1, 37, 195, 120, 120, 195, 119, 193, 1, 4.25967
26, 1, wb, attraction, a-b-db, 2, 3, 1, 37, 195, 120, 120, 195, 119, 193, 3, 0.742057
26, 1, wb, attraction, a-b-da, 5, 1, 2, 1, 132, 58, 135, 60, 60, 135, 1, 2.50182
26, 1, wb, attraction, a-b-da, 5, 1, 2, 1, 132, 58, 135, 60, 60, 135, 3, 0.976355
26, 1, wb, attraction, a-b-db, 5, 1, 2, 2, 135, 60, 60, 135, 58, 132, 1, 2.18242
26, 1, wb, attraction, a-b-db, 5, 1, 2, 2, 135, 60, 60, 135, 58, 132, 2, 0.864741
26, 1, wb, attraction, a-b-da, 14, 3, 2, 3, 181, 111, 195, 120, 120, 195, 1, 2.23317
26, 1, wb, attraction, a-b-da, 14, 3, 2, 3, 181, 111, 195, 120, 120, 195, 2, 0.695294
26, 1, wb, attraction, a-b-da, 14, 1, 2, 4, 135, 60, 60, 135, 125, 56, 3, 2.04796
26, 1, wb, attraction, a-b-da, 14, 1, 2, 4, 135, 60, 60, 135, 125, 56, 1, 0.759177
26, 1, wb, attraction, a-b-db, 14, 1, 2, 5, 56, 125, 135, 60, 60, 135, 2, 3.23786
26, 1, wb, attraction, a-b-db, 14, 1, 2, 5, 56, 125, 135, 60, 60, 135, 3, 1.4103
26, 1, wb, attraction, a-b-db, 9, 3, 2, 6, 114, 186, 195, 120, 120, 195, 1, 4.19387
26, 1, wb, attraction, a-b-db, 9, 3, 2, 6, 114, 186, 195, 120, 120, 195, 3, 1.08477
26, 1, wb, attraction, a-b-da, 9, 3, 2, 7, 195, 120, 120, 195, 186, 114, 3, 2.77774
26, 1, wb, attraction, a-b-da, 9, 3, 2, 7, 195, 120, 120, 195, 186, 114, 2, 0.992225
26, 1, wb, attraction, a-b-db, 2, 1, 2, 8, 135, 60, 60, 135, 59, 134, 1, 5.52058
26, 1, wb, attraction, a-b-db, 2, 1, 2, 8, 135, 60, 60, 135, 59, 134, 2, 0.94372
26, 1, wb, attraction, a-b-db, 5, 2, 2, 9, 88, 161, 165, 90, 90, 165, 1, 4.17687
26, 1, wb, attraction, a-b-db, 5, 2, 2, 9, 88, 161, 165, 90, 90, 165, 2, 0.88745
26, 1, wb, filler, NA, 999, 999, 2, 10, 71, 142, 146, 155, 74, 161, 1, 2.41158
26, 1, wb, filler, NA, 999, 999, 2, 10, 71, 142, 146, 155, 74, 161, 2, 0.591358
26, 1, wb, filler, NA, 999, 999, 2, 11, 104, 117, 138, 176, 191, 144, 1, 1.62961
26, 1, wb, filler, NA, 999, 999, 2, 11, 104, 117, 138, 176, 191, 144, 3, 1.17234
26, 1, wb, filler, NA, 999, 999, 2, 12, 97, 182, 77, 85, 61, 128, 2, 1.41038
26, 1, wb, filler, NA, 999, 999, 2, 12, 97, 182, 77, 85, 61, 128, 1, 0.601591
26, 1, wb, filler, NA, 999, 999, 2, 13, 116, 161, 83, 83, 140, 106, 2, 2.02326
26, 1, wb, filler, NA, 999, 999, 2, 13, 116, 161, 83, 83, 140, 106, 1, 0.739094
26, 1, wb, catch, NA, 999, 999, 2, 14, 145, 110, 183, 132, 115, 80, 3, 1.39705
26, 1, wb, catch, NA, 999, 999, 2, 14, 145, 110, 183, 132, 115, 80, 2, 0.629973
26, 1, wb, attraction, a-b-db, 14, 2, 2, 15, 165, 90, 83, 153, 90, 165, 1, 5.95232
26, 1, wb, attraction, a-b-db, 14, 2, 2, 15, 165, 90, 83, 153, 90, 165, 3, 0.886821
26, 1, wb, attraction, a-b-da, 2, 1, 2, 16, 135, 60, 60, 135, 134, 59, 3, 1.316
26, 1, wb, attraction, a-b-da, 2, 1, 2, 16, 135, 60, 60, 135, 134, 59, 1, 1.78097
26, 1, wb, filler, NA, 999, 999, 2, 17, 106, 67, 168, 104, 177, 146, 1, 1.28153
26, 1, wb, filler, NA, 999, 999, 2, 17, 106, 67, 168, 104, 177, 146, 3, 0.719033
26, 1, wb, filler, NA, 999, 999, 2, 18, 151, 166, 94, 139, 90, 130, 3, 2.00091
26, 1, wb, filler, NA, 999, 999, 2, 18, 151, 166, 94, 139, 90, 130, 1, 1.11835
26, 1, wb, attraction, a-b-db, 14, 3, 2, 19, 120, 195, 111, 181, 195, 120, 2, 1.87096
26, 1, wb, attraction, a-b-db, 14, 3, 2, 19, 120, 195, 111, 181, 195, 120, 3, 0.973037
26, 1, wb, attraction, a-b-db, 9, 2, 2, 20, 90, 165, 86, 157, 165, 90, 3, 1.68316
26, 1, wb, attraction, a-b-db, 9, 2, 2, 20, 90, 165, 86, 157, 165, 90, 2, 1.11851
26, 1, wb, attraction, a-b-da, 2, 2, 2, 21, 90, 165, 165, 90, 163, 89, 3, 2.07184
26, 1, wb, attraction, a-b-da, 2, 2, 2, 21, 90, 165, 165, 90, 163, 89, 1, 0.69931
26, 1, wb, filler, NA, 999, 999, 2, 22, 187, 189, 73, 67, 62, 159, 2, 1.35748
26, 1, wb, filler, NA, 999, 999, 2, 22, 187, 189, 73, 67, 62, 159, 1, 0.711823
26, 1, wb, filler, NA, 999, 999, 2, 23, 63, 75, 76, 189, 175, 184, 1, 1.489
26, 1, wb, filler, NA, 999, 999, 2, 23, 63, 75, 76, 189, 175, 184, 3, 0.779905
26, 1, wb, attraction, a-b-da, 9, 2, 2, 24, 165, 90, 157, 86, 90, 165, 2, 2.48196
26, 1, wb, attraction, a-b-da, 9, 2, 2, 24, 165, 90, 157, 86, 90, 165, 1, 0.956061
26, 1, wb, attraction, a-b-da, 5, 2, 2, 25, 90, 165, 165, 90, 161, 88, 2, 3.74806
26, 1, wb, attraction, a-b-da, 5, 2, 2, 25, 90, 165, 165, 90, 161, 88, 1, 0.852012
26, 1, wb, attraction, a-b-da, 14, 2, 2, 26, 153, 83, 90, 165, 165, 90, 1, 2.15986
26, 1, wb, attraction, a-b-da, 14, 2, 2, 26, 153, 83, 90, 165, 165, 90, 2, 0.672944
26, 1, wb, attraction, a-b-da, 9, 1, 2, 27, 60, 135, 129, 57, 135, 60, 3, 3.1637
26, 1, wb, attraction, a-b-da, 9, 1, 2, 27, 60, 135, 129, 57, 135, 60, 1, 0.580504
26, 1, wb, attraction, a-b-da, 5, 3, 2, 28, 195, 120, 190, 117, 120, 195, 2, 4.04269
26, 1, wb, attraction, a-b-da, 5, 3, 2, 28, 195, 120, 190, 117, 120, 195, 3, 1.70415
26, 1, wb, catch, NA, 999, 999, 2, 29, 132, 63, 113, 142, 140, 175, 1, 1.59342
26, 1, wb, catch, NA, 999, 999, 2, 29, 132, 63, 113, 142, 140, 175, 3, 0.720411
26, 1, wb, attraction, a-b-da, 2, 3, 2, 30, 193, 119, 195, 120, 120, 195, 2, 2.33779
26, 1, wb, attraction, a-b-da, 2, 3, 2, 30, 193, 119, 195, 120, 120, 195, 1, 0.572851
26, 1, wb, attraction, a-b-db, 5, 3, 2, 31, 120, 195, 117, 190, 195, 120, 3, 1.39378
26, 1, wb, attraction, a-b-db, 5, 3, 2, 31, 120, 195, 117, 190, 195, 120, 1, 0.73081
26, 1, wb, filler, NA, 999, 999, 2, 32, 182, 104, 106, 85, 103, 164, 2, 1.27694
26, 1, wb, filler, NA, 999, 999, 2, 32, 182, 104, 106, 85, 103, 164, 1, 0.679278
26, 1, wb, catch, NA, 999, 999, 2, 33, 155, 160, 111, 144, 65, 130, 3, 1.21864
26, 1, wb, catch, NA, 999, 999, 2, 33, 155, 160, 111, 144, 65, 130, 1, 0.849253
26, 1, wb, filler, NA, 999, 999, 2, 34, 74, 124, 154, 147, 142, 110, 1, 1.26148
26, 1, wb, filler, NA, 999, 999, 2, 34, 74, 124, 154, 147, 142, 110, 2, 0.551415
26, 1, wb, attraction, a-b-db, 9, 1, 2, 35, 60, 135, 135, 60, 57, 129, 2, 1.59265
26, 1, wb, attraction, a-b-db, 9, 1, 2, 35, 60, 135, 135, 60, 57, 129, 3, 0.710568
26, 1, wb, attraction, a-b-db, 2, 3, 2, 36, 120, 195, 195, 120, 119, 193, 1, 3.85883
26, 1, wb, attraction, a-b-db, 2, 3, 2, 36, 120, 195, 195, 120, 119, 193, 3, 0.590364
26, 1, wb, attraction, a-b-db, 2, 2, 2, 37, 90, 165, 89, 163, 165, 90, 3, 3.40306
26, 1, wb, attraction, a-b-db, 2, 2, 2, 37, 90, 165, 89, 163, 165, 90, 1, 0.745567
26, 1, wb, attraction, a-b-db, 5, 3, 3, 1, 117, 190, 195, 120, 120, 195, 1, 2.15654
26, 1, wb, attraction, a-b-db, 5, 3, 3, 1, 117, 190, 195, 120, 120, 195, 3, 1.06045
26, 1, wb, attraction, a-b-db, 14, 3, 3, 2, 120, 195, 195, 120, 111, 181, 2, 2.91142
26, 1, wb, attraction, a-b-db, 14, 3, 3, 2, 120, 195, 195, 120, 111, 181, 1, 0.601099
26, 1, wb, catch, NA, 999, 999, 3, 3, 163, 152, 90, 105, 131, 124, 2, 1.55107
26, 1, wb, catch, NA, 999, 999, 3, 3, 163, 152, 90, 105, 131, 124, 1, 0.552253
26, 1, wb, attraction, a-b-db, 9, 3, 3, 4, 195, 120, 120, 195, 114, 186, 3, 4.96085
26, 1, wb, attraction, a-b-db, 9, 3, 3, 4, 195, 120, 120, 195, 114, 186, 2, 1.24057
26, 1, wb, attraction, a-b-db, 14, 2, 3, 5, 165, 90, 90, 165, 83, 153, 1, 1.68526
26, 1, wb, attraction, a-b-db, 14, 2, 3, 5, 165, 90, 90, 165, 83, 153, 2, 2.11198
26, 1, wb, attraction, a-b-db, 2, 3, 3, 6, 195, 120, 120, 195, 119, 193, 1, 2.21754
26, 1, wb, attraction, a-b-db, 2, 3, 3, 6, 195, 120, 120, 195, 119, 193, 2, 0.686719
26, 1, wb, attraction, a-b-db, 5, 1, 3, 7, 60, 135, 58, 132, 135, 60, 3, 1.37871
26, 1, wb, attraction, a-b-db, 5, 1, 3, 7, 60, 135, 58, 132, 135, 60, 1, 0.528542
26, 1, wb, filler, NA, 999, 999, 3, 8, 161, 102, 174, 63, 179, 78, 2, 1.61782
26, 1, wb, filler, NA, 999, 999, 3, 8, 161, 102, 174, 63, 179, 78, 1, 0.520703
26, 1, wb, filler, NA, 999, 999, 3, 9, 173, 57, 89, 108, 100, 185, 1, 2.76254
26, 1, wb, filler, NA, 999, 999, 3, 9, 173, 57, 89, 108, 100, 185, 3, 0.600489
26, 1, wb, attraction, a-b-da, 9, 2, 3, 10, 165, 90, 90, 165, 157, 86, 3, 2.42865
26, 1, wb, attraction, a-b-da, 9, 2, 3, 10, 165, 90, 90, 165, 157, 86, 2, 0.548134
26, 1, wb, attraction, a-b-db, 5, 2, 3, 11, 165, 90, 88, 161, 90, 165, 1, 2.17089
26, 1, wb, attraction, a-b-db, 5, 2, 3, 11, 165, 90, 88, 161, 90, 165, 2, 0.651978
26, 1, wb, filler, NA, 999, 999, 3, 12, 189, 98, 146, 116, 174, 65, 3, 1.3431
26, 1, wb, filler, NA, 999, 999, 3, 12, 189, 98, 146, 116, 174, 65, 2, 1.48734
26, 1, wb, attraction, a-b-da, 2, 3, 3, 13, 195, 120, 120, 195, 193, 119, 3, 1.67512
26, 1, wb, attraction, a-b-da, 2, 3, 3, 13, 195, 120, 120, 195, 193, 119, 2, 0.527867
26, 1, wb, catch, NA, 999, 999, 3, 14, 92, 163, 195, 120, 120, 75, 3, 1.15317
26, 1, wb, catch, NA, 999, 999, 3, 14, 92, 163, 195, 120, 120, 75, 2, 0.570601
26, 1, wb, filler, NA, 999, 999, 3, 15, 190, 60, 154, 107, 127, 131, 1, 1.64921
26, 1, wb, filler, NA, 999, 999, 3, 15, 190, 60, 154, 107, 127, 131, 2, 0.548612
26, 1, wb, attraction, a-b-db, 9, 1, 3, 16, 57, 129, 60, 135, 135, 60, 2, 3.42331
26, 1, wb, attraction, a-b-db, 9, 1, 3, 16, 57, 129, 60, 135, 135, 60, 3, 0.912968
26, 1, wb, filler, NA, 999, 999, 3, 17, 140, 77, 114, 137, 74, 110, 3, 1.88386
26, 1, wb, filler, NA, 999, 999, 3, 17, 140, 77, 114, 137, 74, 110, 2, 0.638495
26, 1, wb, filler, NA, 999, 999, 3, 18, 151, 192, 61, 172, 174, 106, 2, 1.58134
26, 1, wb, filler, NA, 999, 999, 3, 18, 151, 192, 61, 172, 174, 106, 1, 0.531418
26, 1, wb, attraction, a-b-db, 9, 2, 3, 19, 90, 165, 165, 90, 86, 157, 3, 3.41951
26, 1, wb, attraction, a-b-db, 9, 2, 3, 19, 90, 165, 165, 90, 86, 157, 1, 2.03559
26, 1, wb, attraction, a-b-da, 14, 2, 3, 20, 90, 165, 165, 90, 153, 83, 3, 1.30318
26, 1, wb, attraction, a-b-da, 14, 2, 3, 20, 90, 165, 165, 90, 153, 83, 1, 0.608139
26, 1, wb, attraction, a-b-db, 2, 2, 3, 21, 90, 165, 89, 163, 165, 90, 3, 1.95753
26, 1, wb, attraction, a-b-db, 2, 2, 3, 21, 90, 165, 89, 163, 165, 90, 2, 0.718982
26, 1, wb, attraction, a-b-da, 9, 1, 3, 22, 129, 57, 135, 60, 60, 135, 1, 1.66321
26, 1, wb, attraction, a-b-da, 9, 1, 3, 22, 129, 57, 135, 60, 60, 135, 3, 0.620816
26, 1, wb, attraction, a-b-db, 14, 1, 3, 23, 56, 125, 60, 135, 135, 60, 1, 2.3833
26, 1, wb, attraction, a-b-db, 14, 1, 3, 23, 56, 125, 60, 135, 135, 60, 2, 2.36054
26, 1, wb, catch, NA, 999, 999, 3, 24, 120, 195, 157, 98, 108, 87, 3, 1.1346
26, 1, wb, catch, NA, 999, 999, 3, 24, 120, 195, 157, 98, 108, 87, 1, 0.528217
26, 1, wb, attraction, a-b-da, 14, 3, 3, 25, 195, 120, 181, 111, 120, 195, 2, 2.77977
26, 1, wb, attraction, a-b-da, 14, 3, 3, 25, 195, 120, 181, 111, 120, 195, 3, 1.08979
26, 1, wb, filler, NA, 999, 999, 3, 26, 87, 128, 151, 140, 128, 94, 1, 1.49971
26, 1, wb, filler, NA, 999, 999, 3, 26, 87, 128, 151, 140, 128, 94, 2, 0.639304
26, 1, wb, attraction, a-b-da, 5, 1, 3, 27, 135, 60, 132, 58, 60, 135, 2, 2.17891
26, 1, wb, attraction, a-b-da, 5, 1, 3, 27, 135, 60, 132, 58, 60, 135, 3, 0.738552
26, 1, wb, filler, NA, 999, 999, 3, 28, 153, 126, 166, 186, 70, 62, 3, 1.40089
26, 1, wb, filler, NA, 999, 999, 3, 28, 153, 126, 166, 186, 70, 62, 2, 1.66574
26, 1, wb, attraction, a-b-da, 2, 2, 3, 29, 165, 90, 90, 165, 163, 89, 1, 2.63494
26, 1, wb, attraction, a-b-da, 2, 2, 3, 29, 165, 90, 90, 165, 163, 89, 2, 1.95331
26, 1, wb, attraction, a-b-da, 14, 1, 3, 30, 135, 60, 125, 56, 60, 135, 2, 1.9048
26, 1, wb, attraction, a-b-da, 14, 1, 3, 30, 135, 60, 125, 56, 60, 135, 3, 1.01927
26, 1, wb, filler, NA, 999, 999, 3, 31, 116, 128, 104, 177, 184, 130, 1, 1.94473
26, 1, wb, filler, NA, 999, 999, 3, 31, 116, 128, 104, 177, 184, 130, 3, 2.28154
26, 1, wb, attraction, a-b-da, 9, 3, 3, 32, 120, 195, 195, 120, 186, 114, 3, 3.40395
26, 1, wb, attraction, a-b-da, 9, 3, 3, 32, 120, 195, 195, 120, 186, 114, 1, 0.745106
26, 1, wb, filler, NA, 999, 999, 3, 33, 83, 85, 195, 84, 195, 79, 1, 1.30615
26, 1, wb, filler, NA, 999, 999, 3, 33, 83, 85, 195, 84, 195, 79, 2, 1.23791
26, 1, wb, attraction, a-b-da, 5, 2, 3, 34, 90, 165, 165, 90, 161, 88, 2, 2.91377
26, 1, wb, attraction, a-b-da, 5, 2, 3, 34, 90, 165, 165, 90, 161, 88, 1, 0.995532
26, 1, wb, attraction, a-b-db, 2, 1, 3, 35, 60, 135, 135, 60, 59, 134, 1, 2.40945
26, 1, wb, attraction, a-b-db, 2, 1, 3, 35, 60, 135, 135, 60, 59, 134, 3, 2.9133
26, 1, wb, attraction, a-b-da, 5, 3, 3, 36, 120, 195, 195, 120, 190, 117, 3, 1.73577
26, 1, wb, attraction, a-b-da, 5, 3, 3, 36, 120, 195, 195, 120, 190, 117, 1, 0.994798
26, 1, wb, attraction, a-b-da, 2, 1, 3, 37, 135, 60, 60, 135, 134, 59, 1, 2.88857
26, 1, wb, attraction, a-b-da, 2, 1, 3, 37, 135, 60, 60, 135, 134, 59, 2, 0.628407
26, 1, wb, attraction, a-b-da, 14, 2, 4, 1, 90, 165, 153, 83, 165, 90, 2, 1.88029
26, 1, wb, attraction, a-b-da, 14, 2, 4, 1, 90, 165, 153, 83, 165, 90, 1, 0.678091
26, 1, wb, attraction, a-b-da, 14, 3, 4, 2, 195, 120, 120, 195, 181, 111, 3, 1.63952
26, 1, wb, attraction, a-b-da, 14, 3, 4, 2, 195, 120, 120, 195, 181, 111, 2, 1.05275
26, 1, wb, attraction, a-b-da, 5, 2, 4, 3, 161, 88, 165, 90, 90, 165, 1, 2.94303
26, 1, wb, attraction, a-b-da, 5, 2, 4, 3, 161, 88, 165, 90, 90, 165, 3, 0.961322
26, 1, wb, filler, NA, 999, 999, 4, 4, 106, 107, 85, 159, 149, 176, 2, 1.45038
26, 1, wb, filler, NA, 999, 999, 4, 4, 106, 107, 85, 159, 149, 176, 3, 1.23797
26, 1, wb, attraction, a-b-db, 14, 3, 4, 5, 120, 195, 195, 120, 111, 181, 3, 1.94442
26, 1, wb, attraction, a-b-db, 14, 3, 4, 5, 120, 195, 195, 120, 111, 181, 1, 0.668342
26, 1, wb, attraction, a-b-da, 5, 3, 4, 6, 195, 120, 120, 195, 190, 117, 3, 2.0386
26, 1, wb, attraction, a-b-da, 5, 3, 4, 6, 195, 120, 120, 195, 190, 117, 2, 0.826057
26, 1, wb, attraction, a-b-da, 9, 3, 4, 7, 120, 195, 186, 114, 195, 120, 3, 3.6171
26, 1, wb, attraction, a-b-da, 9, 3, 4, 7, 120, 195, 186, 114, 195, 120, 1, 0.790537
26, 1, wb, attraction, a-b-da, 2, 1, 4, 8, 60, 135, 134, 59, 135, 60, 2, 1.55631
26, 1, wb, attraction, a-b-da, 2, 1, 4, 8, 60, 135, 134, 59, 135, 60, 1, 0.821988
26, 1, wb, attraction, a-b-db, 9, 1, 4, 9, 135, 60, 57, 129, 60, 135, 2, 2.21066
26, 1, wb, attraction, a-b-db, 9, 1, 4, 9, 135, 60, 57, 129, 60, 135, 3, 0.903958
26, 1, wb, attraction, a-b-da, 9, 1, 4, 10, 60, 135, 129, 57, 135, 60, 2, 3.09755
26, 1, wb, attraction, a-b-da, 9, 1, 4, 10, 60, 135, 129, 57, 135, 60, 1, 0.685593
26, 1, wb, attraction, a-b-db, 5, 2, 4, 11, 165, 90, 88, 161, 90, 165, 3, 6.02516
26, 1, wb, attraction, a-b-db, 5, 2, 4, 11, 165, 90, 88, 161, 90, 165, 1, 0.74688
26, 1, wb, catch, NA, 999, 999, 4, 12, 147, 168, 127, 68, 136, 119, 2, 1.17307
26, 1, wb, catch, NA, 999, 999, 4, 12, 147, 168, 127, 68, 136, 119, 1, 0.564615
26, 1, wb, attraction, a-b-db, 5, 3, 4, 13, 117, 190, 120, 195, 195, 120, 3, 2.43594
26, 1, wb, attraction, a-b-db, 5, 3, 4, 13, 117, 190, 120, 195, 195, 120, 2, 0.912876
26, 1, wb, attraction, a-b-da, 5, 1, 4, 14, 132, 58, 60, 135, 135, 60, 1, 1.81846
26, 1, wb, attraction, a-b-da, 5, 1, 4, 14, 132, 58, 60, 135, 135, 60, 2, 0.730413
26, 1, wb, attraction, a-b-db, 5, 1, 4, 15, 135, 60, 58, 132, 60, 135, 1, 2.20162
26, 1, wb, attraction, a-b-db, 5, 1, 4, 15, 135, 60, 58, 132, 60, 135, 2, 0.712581
26, 1, wb, attraction, a-b-db, 14, 2, 4, 16, 90, 165, 83, 153, 165, 90, 3, 4.39372
26, 1, wb, attraction, a-b-db, 14, 2, 4, 16, 90, 165, 83, 153, 165, 90, 1, 0.657029
26, 1, wb, attraction, a-b-da, 2, 2, 4, 17, 90, 165, 165, 90, 163, 89, 3, 1.97324
26, 1, wb, attraction, a-b-da, 2, 2, 4, 17, 90, 165, 165, 90, 163, 89, 1, 0.621456
26, 1, wb, filler, NA, 999, 999, 4, 18, 98, 110, 188, 121, 130, 157, 1, 1.49806
26, 1, wb, filler, NA, 999, 999, 4, 18, 98, 110, 188, 121, 130, 157, 2, 0.587502
26, 1, wb, attraction, a-b-db, 9, 3, 4, 19, 195, 120, 120, 195, 114, 186, 1, 2.40942
26, 1, wb, attraction, a-b-db, 9, 3, 4, 19, 195, 120, 120, 195, 114, 186, 2, 0.793269
26, 1, wb, filler, NA, 999, 999, 4, 20, 131, 69, 97, 139, 56, 72, 3, 1.44838
26, 1, wb, filler, NA, 999, 999, 4, 20, 131, 69, 97, 139, 56, 72, 2, 0.572163
26, 1, wb, filler, NA, 999, 999, 4, 21, 184, 132, 161, 92, 116, 142, 2, 1.90711
26, 1, wb, filler, NA, 999, 999, 4, 21, 184, 132, 161, 92, 116, 142, 1, 1.04701
26, 1, wb, filler, NA, 999, 999, 4, 22, 129, 192, 162, 115, 194, 71, 3, 1.31597
26, 1, wb, filler, NA, 999, 999, 4, 22, 129, 192, 162, 115, 194, 71, 1, 0.685374
26, 1, wb, catch, NA, 999, 999, 4, 23, 124, 191, 112, 83, 139, 116, 2, 1.79922
26, 1, wb, catch, NA, 999, 999, 4, 23, 124, 191, 112, 83, 139, 116, 1, 1.29401
26, 1, wb, filler, NA, 999, 999, 4, 24, 163, 166, 88, 152, 118, 129, 2, 1.89009
26, 1, wb, filler, NA, 999, 999, 4, 24, 163, 166, 88, 152, 118, 129, 1, 1.10708
26, 1, wb, filler, NA, 999, 999, 4, 25, 91, 92, 163, 165, 88, 85, 3, 1.73379
26, 1, wb, filler, NA, 999, 999, 4, 25, 91, 92, 163, 165, 88, 85, 2, 0.822562
26, 1, wb, filler, NA, 999, 999, 4, 26, 59, 158, 130, 101, 166, 145, 1, 2.11612
26, 1, wb, filler, NA, 999, 999, 4, 26, 59, 158, 130, 101, 166, 145, 3, 0.725956
26, 1, wb, attraction, a-b-da, 14, 1, 4, 27, 60, 135, 135, 60, 125, 56, 2, 2.49412
26, 1, wb, attraction, a-b-da, 14, 1, 4, 27, 60, 135, 135, 60, 125, 56, 1, 1.0743
26, 1, wb, filler, NA, 999, 999, 4, 28, 175, 117, 91, 76, 58, 76, 3, 1.13342
26, 1, wb, filler, NA, 999, 999, 4, 28, 175, 117, 91, 76, 58, 76, 1, 0.73331
26, 1, wb, attraction, a-b-db, 2, 3, 4, 29, 120, 195, 195, 120, 119, 193, 2, 1.81643
26, 1, wb, attraction, a-b-db, 2, 3, 4, 29, 120, 195, 195, 120, 119, 193, 3, 0.787874
26, 1, wb, attraction, a-b-db, 9, 2, 4, 30, 165, 90, 90, 165, 86, 157, 3, 1.54156
26, 1, wb, attraction, a-b-db, 9, 2, 4, 30, 165, 90, 90, 165, 86, 157, 2, 1.35755
26, 1, wb, catch, NA, 999, 999, 4, 31, 76, 119, 171, 144, 123, 132, 1, 1.44319
26, 1, wb, catch, NA, 999, 999, 4, 31, 76, 119, 171, 144, 123, 132, 2, 0.818616
26, 1, wb, filler, NA, 999, 999, 4, 32, 96, 96, 69, 125, 115, 97, 2, 1.85561
26, 1, wb, filler, NA, 999, 999, 4, 32, 96, 96, 69, 125, 115, 97, 3, 0.690447
26, 1, wb, attraction, a-b-db, 14, 1, 4, 33, 60, 135, 135, 60, 56, 125, 2, 2.43782
26, 1, wb, attraction, a-b-db, 14, 1, 4, 33, 60, 135, 135, 60, 56, 125, 1, 0.916805
26, 1, wb, attraction, a-b-db, 2, 1, 4, 34, 135, 60, 60, 135, 59, 134, 1, 2.76655
26, 1, wb, attraction, a-b-db, 2, 1, 4, 34, 135, 60, 60, 135, 59, 134, 2, 0.780867
26, 1, wb, attraction, a-b-db, 2, 2, 4, 35, 165, 90, 90, 165, 89, 163, 3, 2.47557
26, 1, wb, attraction, a-b-db, 2, 2, 4, 35, 165, 90, 90, 165, 89, 163, 2, 0.727607
26, 1, wb, attraction, a-b-da, 2, 3, 4, 36, 193, 119, 120, 195, 195, 120, 3, 1.84841
26, 1, wb, attraction, a-b-da, 2, 3, 4, 36, 193, 119, 120, 195, 195, 120, 2, 0.724494
26, 1, wb, attraction, a-b-da, 9, 2, 4, 37, 157, 86, 90, 165, 165, 90, 1, 1.63039
26, 1, wb, attraction, a-b-da, 9, 2, 4, 37, 157, 86, 90, 165, 165, 90, 2, 0.659819
26, 1, wb, filler, NA, 999, 999, 5, 1, 128, 73, 193, 189, 100, 133, 1, 2.15858
26, 1, wb, filler, NA, 999, 999, 5, 1, 128, 73, 193, 189, 100, 133, 2, 0.7818
26, 1, wb, filler, NA, 999, 999, 5, 2, 174, 172, 96, 150, 92, 184, 2, 1.73871
26, 1, wb, filler, NA, 999, 999, 5, 2, 174, 172, 96, 150, 92, 184, 1, 0.623161
26, 1, wb, catch, NA, 999, 999, 5, 3, 129, 66, 170, 145, 98, 157, 1, 1.21905
26, 1, wb, catch, NA, 999, 999, 5, 3, 129, 66, 170, 145, 98, 157, 2, 0.57632
26, 1, wb, attraction, a-b-da, 9, 2, 5, 4, 165, 90, 157, 86, 90, 165, 2, 1.62481
26, 1, wb, attraction, a-b-da, 9, 2, 5, 4, 165, 90, 157, 86, 90, 165, 3, 1.61451
26, 1, wb, filler, NA, 999, 999, 5, 5, 162, 90, 189, 140, 147, 156, 1, 1.2038
26, 1, wb, filler, NA, 999, 999, 5, 5, 162, 90, 189, 140, 147, 156, 2, 0.554471
26, 1, wb, catch, NA, 999, 999, 5, 6, 125, 190, 87, 108, 148, 107, 2, 1.322
26, 1, wb, catch, NA, 999, 999, 5, 6, 125, 190, 87, 108, 148, 107, 1, 0.540909
26, 1, wb, attraction, a-b-db, 9, 3, 5, 7, 120, 195, 195, 120, 114, 186, 2, 1.96708
26, 1, wb, attraction, a-b-db, 9, 3, 5, 7, 120, 195, 195, 120, 114, 186, 1, 2.25228
26, 1, wb, attraction, a-b-da, 2, 3, 5, 8, 193, 119, 120, 195, 195, 120, 3, 2.11332
26, 1, wb, attraction, a-b-da, 2, 3, 5, 8, 193, 119, 120, 195, 195, 120, 2, 0.626845
26, 1, wb, attraction, a-b-db, 2, 3, 5, 9, 195, 120, 119, 193, 120, 195, 1, 1.75847
26, 1, wb, attraction, a-b-db, 2, 3, 5, 9, 195, 120, 119, 193, 120, 195, 3, 0.808795
26, 1, wb, attraction, a-b-da, 9, 1, 5, 10, 135, 60, 60, 135, 129, 57, 3, 2.12685
26, 1, wb, attraction, a-b-da, 9, 1, 5, 10, 135, 60, 60, 135, 129, 57, 2, 0.592777
26, 1, wb, filler, NA, 999, 999, 5, 11, 166, 147, 162, 165, 182, 66, 3, 1.28586
26, 1, wb, filler, NA, 999, 999, 5, 11, 166, 147, 162, 165, 182, 66, 2, 0.633818
26, 1, wb, attraction, a-b-db, 5, 2, 5, 12, 90, 165, 165, 90, 88, 161, 2, 1.99709
26, 1, wb, attraction, a-b-db, 5, 2, 5, 12, 90, 165, 165, 90, 88, 161, 1, 0.637189
26, 1, wb, attraction, a-b-da, 5, 2, 5, 13, 90, 165, 165, 90, 161, 88, 3, 1.66762
26, 1, wb, attraction, a-b-da, 5, 2, 5, 13, 90, 165, 165, 90, 161, 88, 1, 3.09453
26, 1, wb, attraction, a-b-da, 14, 2, 5, 14, 90, 165, 153, 83, 165, 90, 2, 1.69449
26, 1, wb, attraction, a-b-da, 14, 2, 5, 14, 90, 165, 153, 83, 165, 90, 1, 0.802269
26, 1, wb, attraction, a-b-da, 14, 1, 5, 15, 60, 135, 135, 60, 125, 56, 3, 1.28997
26, 1, wb, attraction, a-b-da, 14, 1, 5, 15, 60, 135, 135, 60, 125, 56, 1, 0.755119
26, 1, wb, filler, NA, 999, 999, 5, 16, 142, 172, 156, 83, 66, 59, 3, 1.10777
26, 1, wb, filler, NA, 999, 999, 5, 16, 142, 172, 156, 83, 66, 59, 1, 0.60555
26, 1, wb, attraction, a-b-da, 5, 1, 5, 17, 135, 60, 132, 58, 60, 135, 2, 1.82772
26, 1, wb, attraction, a-b-da, 5, 1, 5, 17, 135, 60, 132, 58, 60, 135, 3, 0.657923
26, 1, wb, catch, NA, 999, 999, 5, 18, 186, 129, 133, 62, 92, 163, 2, 1.41315
26, 1, wb, catch, NA, 999, 999, 5, 18, 186, 129, 133, 62, 92, 163, 1, 0.610932
26, 1, wb, attraction, a-b-db, 14, 1, 5, 19, 56, 125, 60, 135, 135, 60, 3, 1.69579
26, 1, wb, attraction, a-b-db, 14, 1, 5, 19, 56, 125, 60, 135, 135, 60, 2, 0.700504
26, 1, wb, attraction, a-b-db, 2, 1, 5, 20, 135, 60, 59, 134, 60, 135, 1, 1.30132
26, 1, wb, attraction, a-b-db, 2, 1, 5, 20, 135, 60, 59, 134, 60, 135, 2, 0.673867
26, 1, wb, filler, NA, 999, 999, 5, 21, 170, 131, 127, 114, 56, 106, 3, 1.14101
26, 1, wb, filler, NA, 999, 999, 5, 21, 170, 131, 127, 114, 56, 106, 1, 0.638983
26, 1, wb, attraction, a-b-db, 14, 3, 5, 22, 120, 195, 111, 181, 195, 120, 2, 2.33024
26, 1, wb, attraction, a-b-db, 14, 3, 5, 22, 120, 195, 111, 181, 195, 120, 1, 0.619938
26, 1, wb, attraction, a-b-db, 5, 1, 5, 23, 58, 132, 135, 60, 60, 135, 2, 1.80719
26, 1, wb, attraction, a-b-db, 5, 1, 5, 23, 58, 132, 135, 60, 60, 135, 3, 0.61507
26, 1, wb, filler, NA, 999, 999, 5, 24, 83, 70, 188, 77, 76, 159, 1, 1.37127
26, 1, wb, filler, NA, 999, 999, 5, 24, 83, 70, 188, 77, 76, 159, 3, 0.883802
26, 1, wb, attraction, a-b-db, 5, 3, 5, 25, 120, 195, 117, 190, 195, 120, 3, 1.7683
26, 1, wb, attraction, a-b-db, 5, 3, 5, 25, 120, 195, 117, 190, 195, 120, 1, 1.16602
26, 1, wb, filler, NA, 999, 999, 5, 26, 185, 100, 99, 116, 82, 115, 3, 1.76527
26, 1, wb, filler, NA, 999, 999, 5, 26, 185, 100, 99, 116, 82, 115, 1, 1.02995
26, 1, wb, attraction, a-b-da, 9, 3, 5, 27, 186, 114, 120, 195, 195, 120, 1, 2.19455
26, 1, wb, attraction, a-b-da, 9, 3, 5, 27, 186, 114, 120, 195, 195, 120, 2, 0.738231
26, 1, wb, attraction, a-b-db, 2, 2, 5, 28, 90, 165, 165, 90, 89, 163, 2, 2.67215
26, 1, wb, attraction, a-b-db, 2, 2, 5, 28, 90, 165, 165, 90, 89, 163, 3, 0.797579
26, 1, wb, attraction, a-b-db, 14, 2, 5, 29, 90, 165, 165, 90, 83, 153, 2, 3.30781
26, 1, wb, attraction, a-b-db, 14, 2, 5, 29, 90, 165, 165, 90, 83, 153, 1, 0.74233
26, 1, wb, attraction, a-b-db, 9, 2, 5, 30, 90, 165, 86, 157, 165, 90, 3, 3.27089
26, 1, wb, attraction, a-b-db, 9, 2, 5, 30, 90, 165, 86, 157, 165, 90, 1, 0.698996
26, 1, wb, attraction, a-b-da, 2, 2, 5, 31, 90, 165, 163, 89, 165, 90, 2, 2.27537
26, 1, wb, attraction, a-b-da, 2, 2, 5, 31, 90, 165, 163, 89, 165, 90, 1, 0.664138
26, 1, wb, attraction, a-b-da, 2, 1, 5, 32, 135, 60, 60, 135, 134, 59, 1, 2.61785
26, 1, wb, attraction, a-b-da, 2, 1, 5, 32, 135, 60, 60, 135, 134, 59, 2, 0.634378
26, 1, wb, filler, NA, 999, 999, 5, 33, 129, 102, 68, 123, 158, 150, 2, 1.37293
26, 1, wb, filler, NA, 999, 999, 5, 33, 129, 102, 68, 123, 158, 150, 3, 0.679681
26, 1, wb, attraction, a-b-da, 5, 3, 5, 34, 120, 195, 190, 117, 195, 120, 2, 2.17542
26, 1, wb, attraction, a-b-da, 5, 3, 5, 34, 120, 195, 190, 117, 195, 120, 1, 0.689918
26, 1, wb, attraction, a-b-da, 14, 3, 5, 35, 120, 195, 181, 111, 195, 120, 2, 1.74751
26, 1, wb, attraction, a-b-da, 14, 3, 5, 35, 120, 195, 181, 111, 195, 120, 1, 1.41954
26, 1, wb, attraction, a-b-db, 9, 1, 5, 36, 60, 135, 135, 60, 57, 129, 2, 1.60859
26, 1, wb, attraction, a-b-db, 9, 1, 5, 36, 60, 135, 135, 60, 57, 129, 1, 0.750657
26, 1, wb, filler, NA, 999, 999, 5, 37, 115, 174, 187, 186, 156, 143, 1, 2.16863
26, 1, wb, filler, NA, 999, 999, 5, 37, 115, 174, 187, 186, 156, 143, 2, 0.647386
26, 1, wb, attraction, a-b-db, 14, 2, 6, 1, 165, 90, 83, 153, 90, 165, 1, 2.6425
26, 1, wb, attraction, a-b-db, 14, 2, 6, 1, 165, 90, 83, 153, 90, 165, 3, 0.6809
26, 1, wb, filler, NA, 999, 999, 6, 2, 137, 86, 130, 84, 175, 134, 2, 1.6844
26, 1, wb, filler, NA, 999, 999, 6, 2, 137, 86, 130, 84, 175, 134, 3, 0.640625
26, 1, wb, attraction, a-b-da, 5, 3, 6, 3, 190, 117, 195, 120, 120, 195, 2, 3.40513
26, 1, wb, attraction, a-b-da, 5, 3, 6, 3, 190, 117, 195, 120, 120, 195, 3, 0.545161
26, 1, wb, attraction, a-b-da, 9, 2, 6, 4, 165, 90, 157, 86, 90, 165, 2, 4.45779
26, 1, wb, attraction, a-b-da, 9, 2, 6, 4, 165, 90, 157, 86, 90, 165, 3, 0.766793
26, 1, wb, catch, NA, 999, 999, 6, 5, 67, 128, 117, 138, 176, 139, 1, 1.4391
26, 1, wb, catch, NA, 999, 999, 6, 5, 67, 128, 117, 138, 176, 139, 3, 0.811362
26, 1, wb, attraction, a-b-da, 9, 3, 6, 6, 195, 120, 120, 195, 186, 114, 3, 1.4906
26, 1, wb, attraction, a-b-da, 9, 3, 6, 6, 195, 120, 120, 195, 186, 114, 2, 0.923291
26, 1, wb, attraction, a-b-db, 2, 2, 6, 7, 89, 163, 90, 165, 165, 90, 3, 3.03618
26, 1, wb, attraction, a-b-db, 2, 2, 6, 7, 89, 163, 90, 165, 165, 90, 2, 1.31286
26, 1, wb, attraction, a-b-da, 5, 2, 6, 8, 165, 90, 90, 165, 161, 88, 3, 1.44392
26, 1, wb, attraction, a-b-da, 5, 2, 6, 8, 165, 90, 90, 165, 161, 88, 2, 0.849217
26, 1, wb, filler, NA, 999, 999, 6, 9, 56, 176, 190, 141, 190, 183, 1, 1.15085
26, 1, wb, filler, NA, 999, 999, 6, 9, 56, 176, 190, 141, 190, 183, 3, 0.76533
26, 1, wb, attraction, a-b-db, 5, 3, 6, 10, 117, 190, 195, 120, 120, 195, 2, 3.59037
26, 1, wb, attraction, a-b-db, 5, 3, 6, 10, 117, 190, 195, 120, 120, 195, 1, 0.859274
26, 1, wb, filler, NA, 999, 999, 6, 11, 150, 149, 154, 117, 58, 179, 3, 1.1743
26, 1, wb, filler, NA, 999, 999, 6, 11, 150, 149, 154, 117, 58, 179, 1, 0.616697
26, 1, wb, filler, NA, 999, 999, 6, 12, 94, 126, 120, 110, 156, 110, 1, 2.18772
26, 1, wb, filler, NA, 999, 999, 6, 12, 94, 126, 120, 110, 156, 110, 3, 0.757971
26, 1, wb, attraction, a-b-da, 14, 3, 6, 13, 195, 120, 181, 111, 120, 195, 2, 2.52424
26, 1, wb, attraction, a-b-da, 14, 3, 6, 13, 195, 120, 181, 111, 120, 195, 1, 1.16534
26, 1, wb, attraction, a-b-db, 9, 1, 6, 14, 135, 60, 57, 129, 60, 135, 1, 2.46896
26, 1, wb, attraction, a-b-db, 9, 1, 6, 14, 135, 60, 57, 129, 60, 135, 3, 0.727878
26, 1, wb, attraction, a-b-da, 14, 2, 6, 15, 165, 90, 90, 165, 153, 83, 1, 2.48971
26, 1, wb, attraction, a-b-da, 14, 2, 6, 15, 165, 90, 90, 165, 153, 83, 2, 0.549379
26, 1, wb, attraction, a-b-db, 5, 1, 6, 16, 135, 60, 60, 135, 58, 132, 1, 1.64575
26, 1, wb, attraction, a-b-db, 5, 1, 6, 16, 135, 60, 60, 135, 58, 132, 3, 0.721643
26, 1, wb, attraction, a-b-da, 2, 2, 6, 17, 163, 89, 90, 165, 165, 90, 3, 1.37059
26, 1, wb, attraction, a-b-da, 2, 2, 6, 17, 163, 89, 90, 165, 165, 90, 2, 0.921749
26, 1, wb, attraction, a-b-da, 9, 1, 6, 18, 60, 135, 135, 60, 129, 57, 3, 2.95648
26, 1, wb, attraction, a-b-da, 9, 1, 6, 18, 60, 135, 135, 60, 129, 57, 1, 0.781033
26, 1, wb, attraction, a-b-db, 5, 2, 6, 19, 165, 90, 90, 165, 88, 161, 1, 1.2593
26, 1, wb, attraction, a-b-db, 5, 2, 6, 19, 165, 90, 90, 165, 88, 161, 2, 0.560694
26, 1, wb, attraction, a-b-db, 2, 1, 6, 20, 59, 134, 60, 135, 135, 60, 3, 1.43731
26, 1, wb, attraction, a-b-db, 2, 1, 6, 20, 59, 134, 60, 135, 135, 60, 2, 0.58142
26, 1, wb, attraction, a-b-db, 14, 3, 6, 21, 120, 195, 195, 120, 111, 181, 2, 1.76442
26, 1, wb, attraction, a-b-db, 14, 3, 6, 21, 120, 195, 195, 120, 111, 181, 1, 0.837537
26, 1, wb, filler, NA, 999, 999, 6, 22, 181, 66, 98, 161, 142, 108, 1, 1.17769
26, 1, wb, filler, NA, 999, 999, 6, 22, 181, 66, 98, 161, 142, 108, 2, 1.90608
26, 1, wb, filler, NA, 999, 999, 6, 23, 67, 149, 88, 186, 178, 119, 1, 1.31213
26, 1, wb, filler, NA, 999, 999, 6, 23, 67, 149, 88, 186, 178, 119, 3, 0.63519
26, 1, wb, filler, NA, 999, 999, 6, 24, 60, 184, 192, 72, 177, 132, 2, 1.31974
26, 1, wb, filler, NA, 999, 999, 6, 24, 60, 184, 192, 72, 177, 132, 3, 0.585822
26, 1, wb, attraction, a-b-da, 2, 1, 6, 25, 60, 135, 134, 59, 135, 60, 3, 1.56048
26, 1, wb, attraction, a-b-da, 2, 1, 6, 25, 60, 135, 134, 59, 135, 60, 1, 0.560186
26, 1, wb, attraction, a-b-db, 2, 3, 6, 26, 195, 120, 119, 193, 120, 195, 1, 2.98583
26, 1, wb, attraction, a-b-db, 2, 3, 6, 26, 195, 120, 119, 193, 120, 195, 3, 0.609483
26, 1, wb, attraction, a-b-da, 5, 1, 6, 27, 60, 135, 135, 60, 132, 58, 3, 1.86943
26, 1, wb, attraction, a-b-da, 5, 1, 6, 27, 60, 135, 135, 60, 132, 58, 2, 0.770914
26, 1, wb, filler, NA, 999, 999, 6, 28, 177, 168, 121, 125, 142, 129, 2, 1.63254
26, 1, wb, filler, NA, 999, 999, 6, 28, 177, 168, 121, 125, 142, 129, 1, 0.767752
26, 1, wb, filler, NA, 999, 999, 6, 29, 123, 70, 193, 185, 86, 108, 1, 1.60689
26, 1, wb, filler, NA, 999, 999, 6, 29, 123, 70, 193, 185, 86, 108, 2, 1.0759
26, 1, wb, catch, NA, 999, 999, 6, 30, 132, 123, 96, 99, 154, 161, 2, 1.29536
26, 1, wb, catch, NA, 999, 999, 6, 30, 132, 123, 96, 99, 154, 161, 3, 0.521367
26, 1, wb, filler, NA, 999, 999, 6, 31, 123, 176, 115, 181, 181, 154, 1, 1.45132
26, 1, wb, filler, NA, 999, 999, 6, 31, 123, 176, 115, 181, 181, 154, 3, 0.543989
26, 1, wb, attraction, a-b-da, 2, 3, 6, 32, 195, 120, 193, 119, 120, 195, 2, 1.63507
26, 1, wb, attraction, a-b-da, 2, 3, 6, 32, 195, 120, 193, 119, 120, 195, 3, 0.702658
26, 1, wb, attraction, a-b-da, 14, 1, 6, 33, 125, 56, 135, 60, 60, 135, 1, 2.38437
26, 1, wb, attraction, a-b-da, 14, 1, 6, 33, 125, 56, 135, 60, 60, 135, 3, 0.798862
26, 1, wb, attraction, a-b-db, 14, 1, 6, 34, 135, 60, 60, 135, 56, 125, 3, 1.56552
26, 1, wb, attraction, a-b-db, 14, 1, 6, 34, 135, 60, 60, 135, 56, 125, 2, 0.694419
26, 1, wb, attraction, a-b-db, 9, 3, 6, 35, 114, 186, 120, 195, 195, 120, 1, 1.63097
26, 1, wb, attraction, a-b-db, 9, 3, 6, 35, 114, 186, 120, 195, 195, 120, 2, 0.637615
26, 1, wb, catch, NA, 999, 999, 6, 36, 194, 121, 70, 125, 119, 136, 2, 1.23547
26, 1, wb, catch, NA, 999, 999, 6, 36, 194, 121, 70, 125, 119, 136, 1, 0.534396
26, 1, wb, attraction, a-b-db, 9, 2, 6, 37, 165, 90, 86, 157, 90, 165, 1, 2.68684
26, 1, wb, attraction, a-b-db, 9, 2, 6, 37, 165, 90, 86, 157, 90, 165, 3, 0.649518
26, 1, wb, attraction, a-b-da, 5, 1, 7, 1, 132, 58, 60, 135, 135, 60, 1, 2.36623
26, 1, wb, attraction, a-b-da, 5, 1, 7, 1, 132, 58, 60, 135, 135, 60, 2, 1.75866
26, 1, wb, filler, NA, 999, 999, 7, 2, 94, 76, 125, 173, 104, 115, 1, 1.22122
26, 1, wb, filler, NA, 999, 999, 7, 2, 94, 76, 125, 173, 104, 115, 2, 0.74166
26, 1, wb, attraction, a-b-db, 9, 1, 7, 3, 60, 135, 57, 129, 135, 60, 3, 1.93289
26, 1, wb, attraction, a-b-db, 9, 1, 7, 3, 60, 135, 57, 129, 135, 60, 1, 0.631683
26, 1, wb, filler, NA, 999, 999, 7, 4, 87, 150, 89, 75, 181, 141, 2, 1.69682
26, 1, wb, filler, NA, 999, 999, 7, 4, 87, 150, 89, 75, 181, 141, 3, 0.589463
26, 1, wb, attraction, a-b-db, 5, 2, 7, 5, 90, 165, 165, 90, 88, 161, 3, 1.87547
26, 1, wb, attraction, a-b-db, 5, 2, 7, 5, 90, 165, 165, 90, 88, 161, 1, 0.573251
26, 1, wb, attraction, a-b-da, 2, 2, 7, 6, 163, 89, 165, 90, 90, 165, 2, 1.97453
26, 1, wb, attraction, a-b-da, 2, 2, 7, 6, 163, 89, 165, 90, 90, 165, 3, 0.783074
26, 1, wb, attraction, a-b-db, 9, 3, 7, 7, 114, 186, 195, 120, 120, 195, 2, 2.34995
26, 1, wb, attraction, a-b-db, 9, 3, 7, 7, 114, 186, 195, 120, 120, 195, 3, 0.622439
26, 1, wb, attraction, a-b-db, 5, 1, 7, 8, 58, 132, 60, 135, 135, 60, 3, 1.77882
26, 1, wb, attraction, a-b-db, 5, 1, 7, 8, 58, 132, 60, 135, 135, 60, 2, 0.521113
26, 1, wb, attraction, a-b-da, 9, 1, 7, 9, 129, 57, 60, 135, 135, 60, 1, 2.29884
26, 1, wb, attraction, a-b-da, 9, 1, 7, 9, 129, 57, 60, 135, 135, 60, 2, 0.630745
26, 1, wb, attraction, a-b-db, 2, 2, 7, 10, 89, 163, 90, 165, 165, 90, 3, 3.37901
26, 1, wb, attraction, a-b-db, 2, 2, 7, 10, 89, 163, 90, 165, 165, 90, 2, 1.00927
26, 1, wb, filler, NA, 999, 999, 7, 11, 179, 130, 107, 191, 60, 157, 3, 1.35788
26, 1, wb, filler, NA, 999, 999, 7, 11, 179, 130, 107, 191, 60, 157, 1, 0.743711
26, 1, wb, attraction, a-b-db, 2, 3, 7, 12, 195, 120, 120, 195, 119, 193, 1, 1.7609
26, 1, wb, attraction, a-b-db, 2, 3, 7, 12, 195, 120, 120, 195, 119, 193, 2, 3.64084
26, 1, wb, filler, NA, 999, 999, 7, 13, 69, 183, 151, 170, 72, 146, 1, 1.53384
26, 1, wb, filler, NA, 999, 999, 7, 13, 69, 183, 151, 170, 72, 146, 2, 0.694417
26, 1, wb, catch, NA, 999, 999, 7, 14, 117, 138, 133, 62, 188, 127, 2, 2.07364
26, 1, wb, catch, NA, 999, 999, 7, 14, 117, 138, 133, 62, 188, 127, 3, 0.756228
26, 1, wb, attraction, a-b-db, 14, 2, 7, 15, 83, 153, 90, 165, 165, 90, 3, 1.4272
26, 1, wb, attraction, a-b-db, 14, 2, 7, 15, 83, 153, 90, 165, 165, 90, 2, 0.618768
26, 1, wb, attraction, a-b-da, 9, 3, 7, 16, 195, 120, 120, 195, 186, 114, 3, 1.48794
26, 1, wb, attraction, a-b-da, 9, 3, 7, 16, 195, 120, 120, 195, 186, 114, 2, 0.541133
26, 1, wb, attraction, a-b-da, 2, 1, 7, 17, 134, 59, 135, 60, 60, 135, 1, 1.58805
26, 1, wb, attraction, a-b-da, 2, 1, 7, 17, 134, 59, 135, 60, 60, 135, 3, 0.586508
26, 1, wb, catch, NA, 999, 999, 7, 18, 160, 95, 176, 139, 75, 120, 2, 2.28246
26, 1, wb, catch, NA, 999, 999, 7, 18, 160, 95, 176, 139, 75, 120, 1, 3.8205
26, 1, wb, filler, NA, 999, 999, 7, 19, 154, 85, 119, 131, 174, 68, 1, 1.58344
26, 1, wb, filler, NA, 999, 999, 7, 19, 154, 85, 119, 131, 174, 68, 2, 0.70313
26, 1, wb, filler, NA, 999, 999, 7, 20, 69, 113, 135, 80, 85, 96, 1, 1.3624
26, 1, wb, filler, NA, 999, 999, 7, 20, 69, 113, 135, 80, 85, 96, 2, 0.705516
26, 1, wb, attraction, a-b-db, 14, 3, 7, 21, 195, 120, 111, 181, 120, 195, 2, 2.92286
26, 1, wb, attraction, a-b-db, 14, 3, 7, 21, 195, 120, 111, 181, 120, 195, 3, 0.638135
26, 1, wb, attraction, a-b-db, 2, 1, 7, 22, 135, 60, 60, 135, 59, 134, 1, 2.25046
26, 1, wb, attraction, a-b-db, 2, 1, 7, 22, 135, 60, 60, 135, 59, 134, 3, 0.701727
26, 1, wb, attraction, a-b-da, 5, 3, 7, 23, 120, 195, 190, 117, 195, 120, 3, 1.81684
26, 1, wb, attraction, a-b-da, 5, 3, 7, 23, 120, 195, 190, 117, 195, 120, 2, 0.790262
26, 1, wb, attraction, a-b-da, 14, 1, 7, 24, 60, 135, 135, 60, 125, 56, 2, 1.49945
26, 1, wb, attraction, a-b-da, 14, 1, 7, 24, 60, 135, 135, 60, 125, 56, 1, 0.616977
26, 1, wb, attraction, a-b-db, 5, 3, 7, 25, 120, 195, 195, 120, 117, 190, 2, 2.06905
26, 1, wb, attraction, a-b-db, 5, 3, 7, 25, 120, 195, 195, 120, 117, 190, 1, 1.09666
26, 1, wb, attraction, a-b-da, 14, 2, 7, 26, 90, 165, 153, 83, 165, 90, 3, 1.53945
26, 1, wb, attraction, a-b-da, 14, 2, 7, 26, 90, 165, 153, 83, 165, 90, 1, 0.691621
26, 1, wb, filler, NA, 999, 999, 7, 27, 96, 113, 121, 187, 164, 107, 1, 1.42336
26, 1, wb, filler, NA, 999, 999, 7, 27, 96, 113, 121, 187, 164, 107, 2, 0.57256
26, 1, wb, filler, NA, 999, 999, 7, 28, 109, 139, 89, 145, 81, 72, 3, 1.54066
26, 1, wb, filler, NA, 999, 999, 7, 28, 109, 139, 89, 145, 81, 72, 1, 0.588301
26, 1, wb, attraction, a-b-db, 9, 2, 7, 29, 165, 90, 86, 157, 90, 165, 1, 1.68361
26, 1, wb, attraction, a-b-db, 9, 2, 7, 29, 165, 90, 86, 157, 90, 165, 3, 0.817696
26, 1, wb, attraction, a-b-db, 14, 1, 7, 30, 56, 125, 60, 135, 135, 60, 3, 1.65453
26, 1, wb, attraction, a-b-db, 14, 1, 7, 30, 56, 125, 60, 135, 135, 60, 2, 0.721877
26, 1, wb, attraction, a-b-da, 14, 3, 7, 31, 120, 195, 195, 120, 181, 111, 3, 1.32853
26, 1, wb, attraction, a-b-da, 14, 3, 7, 31, 120, 195, 195, 120, 181, 111, 1, 0.57874
26, 1, wb, catch, NA, 999, 999, 7, 32, 147, 168, 78, 117, 103, 152, 2, 1.21854
26, 1, wb, catch, NA, 999, 999, 7, 32, 147, 168, 78, 117, 103, 152, 1, 0.593752
26, 1, wb, attraction, a-b-da, 5, 2, 7, 33, 90, 165, 165, 90, 161, 88, 3, 1.84968
26, 1, wb, attraction, a-b-da, 5, 2, 7, 33, 90, 165, 165, 90, 161, 88, 1, 0.549937
26, 1, wb, filler, NA, 999, 999, 7, 34, 169, 62, 63, 175, 135, 189, 2, 1.37886
26, 1, wb, filler, NA, 999, 999, 7, 34, 169, 62, 63, 175, 135, 189, 3, 0.549501
26, 1, wb, attraction, a-b-da, 9, 2, 7, 35, 157, 86, 90, 165, 165, 90, 3, 1.66729
26, 1, wb, attraction, a-b-da, 9, 2, 7, 35, 157, 86, 90, 165, 165, 90, 2, 0.521334
26, 1, wb, filler, NA, 999, 999, 7, 36, 125, 106, 133, 193, 121, 118, 1, 1.35433
26, 1, wb, filler, NA, 999, 999, 7, 36, 125, 106, 133, 193, 121, 118, 2, 0.530363
26, 1, wb, attraction, a-b-da, 2, 3, 7, 37, 120, 195, 193, 119, 195, 120, 2, 1.37259
26, 1, wb, attraction, a-b-da, 2, 3, 7, 37, 120, 195, 193, 119, 195, 120, 1, 0.531739
26, 1, wb, attraction, a-b-da, 5, 3, 8, 1, 120, 195, 195, 120, 190, 117, 3, 1.21188
26, 1, wb, attraction, a-b-da, 5, 3, 8, 1, 120, 195, 195, 120, 190, 117, 1, 0.586899
26, 1, wb, catch, NA, 999, 999, 8, 2, 76, 119, 116, 139, 164, 151, 1, 1.23395
26, 1, wb, catch, NA, 999, 999, 8, 2, 76, 119, 116, 139, 164, 151, 3, 0.637001
26, 1, wb, attraction, a-b-db, 14, 2, 8, 3, 83, 153, 90, 165, 165, 90, 3, 1.47407
26, 1, wb, attraction, a-b-db, 14, 2, 8, 3, 83, 153, 90, 165, 165, 90, 2, 0.517425
26, 1, wb, attraction, a-b-da, 5, 2, 8, 4, 161, 88, 165, 90, 90, 165, 2, 1.27055
26, 1, wb, attraction, a-b-da, 5, 2, 8, 4, 161, 88, 165, 90, 90, 165, 3, 0.540162
26, 1, wb, attraction, a-b-da, 2, 2, 8, 5, 90, 165, 165, 90, 163, 89, 2, 2.29134
26, 1, wb, attraction, a-b-da, 2, 2, 8, 5, 90, 165, 165, 90, 163, 89, 1, 0.991882
26, 1, wb, filler, NA, 999, 999, 8, 6, 134, 158, 107, 65, 176, 137, 2, 1.04557
26, 1, wb, filler, NA, 999, 999, 8, 6, 134, 158, 107, 65, 176, 137, 3, 1.04373
26, 1, wb, attraction, a-b-db, 5, 3, 8, 7, 195, 120, 120, 195, 117, 190, 1, 1.35956
26, 1, wb, attraction, a-b-db, 5, 3, 8, 7, 195, 120, 120, 195, 117, 190, 3, 0.58496
26, 1, wb, filler, NA, 999, 999, 8, 8, 109, 134, 59, 121, 155, 67, 2, 1.02268
26, 1, wb, filler, NA, 999, 999, 8, 8, 109, 134, 59, 121, 155, 67, 1, 0.533076
26, 1, wb, attraction, a-b-db, 5, 1, 8, 9, 60, 135, 58, 132, 135, 60, 3, 2.35662
26, 1, wb, attraction, a-b-db, 5, 1, 8, 9, 60, 135, 58, 132, 135, 60, 1, 0.637719
26, 1, wb, filler, NA, 999, 999, 8, 10, 119, 100, 122, 131, 117, 149, 1, 1.26705
26, 1, wb, filler, NA, 999, 999, 8, 10, 119, 100, 122, 131, 117, 149, 3, 0.566775
26, 1, wb, attraction, a-b-da, 9, 3, 8, 11, 195, 120, 120, 195, 186, 114, 3, 1.27811
26, 1, wb, attraction, a-b-da, 9, 3, 8, 11, 195, 120, 120, 195, 186, 114, 2, 0.600366
26, 1, wb, attraction, a-b-db, 14, 3, 8, 12, 120, 195, 111, 181, 195, 120, 2, 1.632
26, 1, wb, attraction, a-b-db, 14, 3, 8, 12, 120, 195, 111, 181, 195, 120, 3, 0.940465
26, 1, wb, attraction, a-b-db, 9, 2, 8, 13, 165, 90, 86, 157, 90, 165, 2, 1.06967
26, 1, wb, attraction, a-b-db, 9, 2, 8, 13, 165, 90, 86, 157, 90, 165, 1, 0.779371
26, 1, wb, filler, NA, 999, 999, 8, 14, 170, 169, 76, 87, 143, 85, 2, 1.04933
26, 1, wb, filler, NA, 999, 999, 8, 14, 170, 169, 76, 87, 143, 85, 1, 0.70367
26, 1, wb, filler, NA, 999, 999, 8, 15, 173, 154, 159, 192, 157, 188, 3, 2.00607
26, 1, wb, filler, NA, 999, 999, 8, 15, 173, 154, 159, 192, 157, 188, 2, 0.68714
26, 1, wb, attraction, a-b-da, 9, 2, 8, 16, 157, 86, 165, 90, 90, 165, 1, 1.31265
26, 1, wb, attraction, a-b-da, 9, 2, 8, 16, 157, 86, 165, 90, 90, 165, 3, 0.571279
26, 1, wb, attraction, a-b-db, 14, 1, 8, 17, 60, 135, 56, 125, 135, 60, 3, 1.62551
26, 1, wb, attraction, a-b-db, 14, 1, 8, 17, 60, 135, 56, 125, 135, 60, 1, 0.593743
26, 1, wb, catch, NA, 999, 999, 8, 18, 76, 119, 126, 189, 100, 155, 1, 1.63804
26, 1, wb, catch, NA, 999, 999, 8, 18, 76, 119, 126, 189, 100, 155, 2, 0.602929
26, 1, wb, attraction, a-b-db, 9, 3, 8, 19, 120, 195, 195, 120, 114, 186, 3, 1.45608
26, 1, wb, attraction, a-b-db, 9, 3, 8, 19, 120, 195, 195, 120, 114, 186, 1, 0.558101
26, 1, wb, attraction, a-b-da, 14, 2, 8, 20, 90, 165, 165, 90, 153, 83, 2, 1.39757
26, 1, wb, attraction, a-b-da, 14, 2, 8, 20, 90, 165, 165, 90, 153, 83, 1, 0.55729
26, 1, wb, filler, NA, 999, 999, 8, 21, 125, 83, 122, 144, 70, 154, 3, 1.74838
26, 1, wb, filler, NA, 999, 999, 8, 21, 125, 83, 122, 144, 70, 154, 2, 0.518188
26, 1, wb, attraction, a-b-db, 5, 2, 8, 22, 165, 90, 90, 165, 88, 161, 3, 1.67784
26, 1, wb, attraction, a-b-db, 5, 2, 8, 22, 165, 90, 90, 165, 88, 161, 2, 0.850986
26, 1, wb, filler, NA, 999, 999, 8, 23, 100, 76, 133, 158, 151, 120, 1, 1.28621
26, 1, wb, filler, NA, 999, 999, 8, 23, 100, 76, 133, 158, 151, 120, 2, 0.659266
26, 1, wb, catch, NA, 999, 999, 8, 24, 188, 127, 123, 72, 96, 159, 2, 1.37481
26, 1, wb, catch, NA, 999, 999, 8, 24, 188, 127, 123, 72, 96, 159, 1, 0.668558
26, 1, wb, filler, NA, 999, 999, 8, 25, 65, 174, 140, 176, 169, 152, 1, 1.40115
26, 1, wb, filler, NA, 999, 999, 8, 25, 65, 174, 140, 176, 169, 152, 3, 0.648115
26, 1, wb, attraction, a-b-db, 9, 1, 8, 26, 57, 129, 60, 135, 135, 60, 3, 1.56461
26, 1, wb, attraction, a-b-db, 9, 1, 8, 26, 57, 129, 60, 135, 135, 60, 1, 0.597087
26, 1, wb, attraction, a-b-db, 2, 1, 8, 27, 59, 134, 135, 60, 60, 135, 2, 1.71551
26, 1, wb, attraction, a-b-db, 2, 1, 8, 27, 59, 134, 135, 60, 60, 135, 3, 0.59576
26, 1, wb, attraction, a-b-da, 2, 3, 8, 28, 195, 120, 120, 195, 193, 119, 1, 1.82053
26, 1, wb, attraction, a-b-da, 2, 3, 8, 28, 195, 120, 120, 195, 193, 119, 2, 0.752093
26, 1, wb, attraction, a-b-da, 14, 3, 8, 29, 181, 111, 120, 195, 195, 120, 1, 2.88072
26, 1, wb, attraction, a-b-da, 14, 3, 8, 29, 181, 111, 120, 195, 195, 120, 2, 0.56186
26, 1, wb, filler, NA, 999, 999, 8, 30, 98, 146, 194, 190, 61, 57, 3, 1.49875
26, 1, wb, filler, NA, 999, 999, 8, 30, 98, 146, 194, 190, 61, 57, 2, 0.638777
26, 1, wb, attraction, a-b-da, 5, 1, 8, 31, 135, 60, 60, 135, 132, 58, 3, 3.10505
26, 1, wb, attraction, a-b-da, 5, 1, 8, 31, 135, 60, 60, 135, 132, 58, 2, 2.54022
26, 1, wb, attraction, a-b-da, 14, 1, 8, 32, 125, 56, 60, 135, 135, 60, 1, 1.5652
26, 1, wb, attraction, a-b-da, 14, 1, 8, 32, 125, 56, 60, 135, 135, 60, 2, 0.653319
26, 1, wb, attraction, a-b-da, 2, 1, 8, 33, 60, 135, 134, 59, 135, 60, 2, 1.76898
26, 1, wb, attraction, a-b-da, 2, 1, 8, 33, 60, 135, 134, 59, 135, 60, 1, 0.618472
26, 1, wb, attraction, a-b-db, 2, 2, 8, 34, 165, 90, 89, 163, 90, 165, 2, 2.90081
26, 1, wb, attraction, a-b-db, 2, 2, 8, 34, 165, 90, 89, 163, 90, 165, 1, 0.598952
26, 1, wb, filler, NA, 999, 999, 8, 35, 164, 95, 117, 58, 121, 164, 2, 1.28548
26, 1, wb, filler, NA, 999, 999, 8, 35, 164, 95, 117, 58, 121, 164, 3, 0.657659
26, 1, wb, attraction, a-b-db, 2, 3, 8, 36, 195, 120, 119, 193, 120, 195, 3, 1.86145
26, 1, wb, attraction, a-b-db, 2, 3, 8, 36, 195, 120, 119, 193, 120, 195, 2, 0.672814
26, 1, wb, attraction, a-b-da, 9, 1, 8, 37, 129, 57, 60, 135, 135, 60, 3, 1.63839
26, 1, wb, attraction, a-b-da, 9, 1, 8, 37, 129, 57, 60, 135, 135, 60, 2, 0.658573
