sub_n, computer_n, bw_cond, effect, set, distance, diag, block_n, trial_n, h1, w1, h2, w2, h3, w3, choice, rt 
274, 1, wb, practice, NA, 999, 999, 0, 1, 133, 140, 90, 115, 93, 72, 3, 5.44997
274, 1, wb, practice, NA, 999, 999, 0, 1, 133, 140, 90, 115, 93, 72, 1, 3.78167
274, 1, wb, practice, NA, 999, 999, 0, 2, 99, 58, 119, 130, 87, 155, 1, 2.32746
274, 1, wb, practice, NA, 999, 999, 0, 2, 99, 58, 119, 130, 87, 155, 3, 1.07351
274, 1, wb, practice, NA, 999, 999, 0, 3, 148, 71, 98, 164, 96, 100, 1, 3.28304
274, 1, wb, practice, NA, 999, 999, 0, 3, 148, 71, 98, 164, 96, 100, 2, 1.26888
274, 1, wb, attraction, a-b-da, 9, 2, 1, 1, 165, 90, 157, 86, 90, 165, 2, 3.20547
274, 1, wb, attraction, a-b-da, 9, 2, 1, 1, 165, 90, 157, 86, 90, 165, 3, 1.38792
274, 1, wb, filler, NA, 999, 999, 1, 2, 158, 177, 124, 132, 100, 151, 2, 1.28193
274, 1, wb, filler, NA, 999, 999, 1, 2, 158, 177, 124, 132, 100, 151, 1, 0.757517
274, 1, wb, attraction, a-b-db, 5, 2, 1, 3, 90, 165, 165, 90, 88, 161, 1, 1.0365
274, 1, wb, attraction, a-b-db, 5, 2, 1, 3, 90, 165, 165, 90, 88, 161, 3, 0.762158
274, 1, wb, filler, NA, 999, 999, 1, 4, 66, 127, 153, 139, 59, 189, 1, 1.07331
274, 1, wb, filler, NA, 999, 999, 1, 4, 66, 127, 153, 139, 59, 189, 2, 0.572819
274, 1, wb, attraction, a-b-da, 2, 1, 1, 5, 135, 60, 60, 135, 134, 59, 3, 2.32391
274, 1, wb, attraction, a-b-da, 2, 1, 1, 5, 135, 60, 60, 135, 134, 59, 2, 0.885215
274, 1, wb, attraction, a-b-db, 2, 1, 1, 6, 59, 134, 60, 135, 135, 60, 1, 1.29547
274, 1, wb, attraction, a-b-db, 2, 1, 1, 6, 59, 134, 60, 135, 135, 60, 2, 0.402369
274, 1, wb, filler, NA, 999, 999, 1, 7, 139, 156, 152, 79, 142, 82, 2, 1.07228
274, 1, wb, filler, NA, 999, 999, 1, 7, 139, 156, 152, 79, 142, 82, 1, 0.331979
274, 1, wb, attraction, a-b-da, 5, 3, 1, 8, 120, 195, 190, 117, 195, 120, 2, 1.68438
274, 1, wb, attraction, a-b-da, 5, 3, 1, 8, 120, 195, 190, 117, 195, 120, 3, 0.455815
274, 1, wb, attraction, a-b-da, 9, 1, 1, 9, 135, 60, 60, 135, 129, 57, 1, 1.55555
274, 1, wb, attraction, a-b-da, 9, 1, 1, 9, 135, 60, 60, 135, 129, 57, 2, 1.33974
274, 1, wb, catch, NA, 999, 999, 1, 10, 91, 164, 81, 114, 165, 150, 2, 1.17198
274, 1, wb, catch, NA, 999, 999, 1, 10, 91, 164, 81, 114, 165, 150, 3, 0.355644
274, 1, wb, attraction, a-b-db, 14, 1, 1, 11, 56, 125, 60, 135, 135, 60, 1, 0.971282
274, 1, wb, attraction, a-b-db, 14, 1, 1, 11, 56, 125, 60, 135, 135, 60, 2, 0.419227
274, 1, wb, attraction, a-b-da, 14, 3, 1, 12, 181, 111, 120, 195, 195, 120, 1, 1.24016
274, 1, wb, attraction, a-b-da, 14, 3, 1, 12, 181, 111, 120, 195, 195, 120, 2, 0.557184
274, 1, wb, attraction, a-b-da, 9, 3, 1, 13, 186, 114, 120, 195, 195, 120, 1, 1.26818
274, 1, wb, attraction, a-b-da, 9, 3, 1, 13, 186, 114, 120, 195, 195, 120, 2, 0.848468
274, 1, wb, attraction, a-b-da, 2, 2, 1, 14, 163, 89, 165, 90, 90, 165, 1, 1.10833
274, 1, wb, attraction, a-b-da, 2, 2, 1, 14, 163, 89, 165, 90, 90, 165, 2, 0.630443
274, 1, wb, attraction, a-b-db, 2, 3, 1, 15, 120, 195, 195, 120, 119, 193, 1, 0.99491
274, 1, wb, attraction, a-b-db, 2, 3, 1, 15, 120, 195, 195, 120, 119, 193, 2, 0.385889
274, 1, wb, filler, NA, 999, 999, 1, 16, 69, 88, 73, 103, 117, 61, 1, 0.688349
274, 1, wb, filler, NA, 999, 999, 1, 16, 69, 88, 73, 103, 117, 61, 2, 1.00345
274, 1, wb, attraction, a-b-db, 5, 1, 1, 17, 135, 60, 58, 132, 60, 135, 2, 1.29704
274, 1, wb, attraction, a-b-db, 5, 1, 1, 17, 135, 60, 58, 132, 60, 135, 3, 0.379976
274, 1, wb, catch, NA, 999, 999, 1, 18, 166, 149, 108, 147, 135, 60, 2, 1.39438
274, 1, wb, catch, NA, 999, 999, 1, 18, 166, 149, 108, 147, 135, 60, 1, 1.86525
274, 1, wb, attraction, a-b-db, 9, 1, 1, 19, 60, 135, 57, 129, 135, 60, 1, 1.23599
274, 1, wb, attraction, a-b-db, 9, 1, 1, 19, 60, 135, 57, 129, 135, 60, 3, 0.905653
274, 1, wb, filler, NA, 999, 999, 1, 20, 171, 107, 120, 60, 107, 180, 2, 1.01926
274, 1, wb, filler, NA, 999, 999, 1, 20, 171, 107, 120, 60, 107, 180, 3, 0.889786
274, 1, wb, attraction, a-b-db, 14, 3, 1, 21, 195, 120, 120, 195, 111, 181, 1, 1.32403
274, 1, wb, attraction, a-b-db, 14, 3, 1, 21, 195, 120, 120, 195, 111, 181, 2, 0.533482
274, 1, wb, attraction, a-b-db, 14, 2, 1, 22, 165, 90, 90, 165, 83, 153, 1, 0.845924
274, 1, wb, attraction, a-b-db, 14, 2, 1, 22, 165, 90, 90, 165, 83, 153, 2, 0.354992
274, 1, wb, attraction, a-b-db, 2, 2, 1, 23, 89, 163, 165, 90, 90, 165, 1, 0.546641
274, 1, wb, attraction, a-b-db, 2, 2, 1, 23, 89, 163, 165, 90, 90, 165, 2, 0.763856
274, 1, wb, filler, NA, 999, 999, 1, 24, 56, 150, 118, 156, 135, 172, 1, 0.675087
274, 1, wb, filler, NA, 999, 999, 1, 24, 56, 150, 118, 156, 135, 172, 2, 0.510673
274, 1, wb, filler, NA, 999, 999, 1, 25, 127, 178, 136, 70, 191, 123, 2, 0.823714
274, 1, wb, filler, NA, 999, 999, 1, 25, 127, 178, 136, 70, 191, 123, 1, 0.3496
274, 1, wb, attraction, a-b-db, 9, 2, 1, 26, 86, 157, 165, 90, 90, 165, 1, 0.933303
274, 1, wb, attraction, a-b-db, 9, 2, 1, 26, 86, 157, 165, 90, 90, 165, 2, 0.343075
274, 1, wb, filler, NA, 999, 999, 1, 27, 192, 58, 153, 104, 146, 175, 1, 0.510822
274, 1, wb, filler, NA, 999, 999, 1, 27, 192, 58, 153, 104, 146, 175, 3, 1.20932
274, 1, wb, attraction, a-b-da, 5, 2, 1, 28, 161, 88, 90, 165, 165, 90, 1, 0.710238
274, 1, wb, attraction, a-b-da, 5, 2, 1, 28, 161, 88, 90, 165, 165, 90, 2, 0.536688
274, 1, wb, attraction, a-b-da, 14, 2, 1, 29, 153, 83, 165, 90, 90, 165, 1, 0.673258
274, 1, wb, attraction, a-b-da, 14, 2, 1, 29, 153, 83, 165, 90, 90, 165, 3, 1.02893
274, 1, wb, catch, NA, 999, 999, 1, 30, 60, 135, 101, 154, 166, 149, 1, 0.569171
274, 1, wb, catch, NA, 999, 999, 1, 30, 60, 135, 101, 154, 166, 149, 3, 0.577777
274, 1, wb, attraction, a-b-da, 2, 3, 1, 31, 120, 195, 195, 120, 193, 119, 1, 0.928078
274, 1, wb, attraction, a-b-da, 2, 3, 1, 31, 120, 195, 195, 120, 193, 119, 3, 0.785698
274, 1, wb, attraction, a-b-db, 5, 3, 1, 32, 117, 190, 195, 120, 120, 195, 1, 0.832093
274, 1, wb, attraction, a-b-db, 5, 3, 1, 32, 117, 190, 195, 120, 120, 195, 2, 0.341902
274, 1, wb, filler, NA, 999, 999, 1, 33, 186, 65, 160, 75, 67, 100, 3, 1.6216
274, 1, wb, filler, NA, 999, 999, 1, 33, 186, 65, 160, 75, 67, 100, 2, 1.55577
274, 1, wb, attraction, a-b-db, 9, 3, 1, 34, 120, 195, 195, 120, 114, 186, 1, 0.75524
274, 1, wb, attraction, a-b-db, 9, 3, 1, 34, 120, 195, 195, 120, 114, 186, 2, 0.347653
274, 1, wb, attraction, a-b-da, 5, 1, 1, 35, 135, 60, 132, 58, 60, 135, 1, 0.659383
274, 1, wb, attraction, a-b-da, 5, 1, 1, 35, 135, 60, 132, 58, 60, 135, 3, 0.327843
274, 1, wb, attraction, a-b-da, 14, 1, 1, 36, 60, 135, 125, 56, 135, 60, 1, 0.56031
274, 1, wb, attraction, a-b-da, 14, 1, 1, 36, 60, 135, 125, 56, 135, 60, 3, 0.681034
274, 1, wb, filler, NA, 999, 999, 1, 37, 193, 108, 121, 81, 145, 104, 2, 0.87525
274, 1, wb, filler, NA, 999, 999, 1, 37, 193, 108, 121, 81, 145, 104, 1, 1.43891
274, 1, wb, attraction, a-b-db, 14, 3, 2, 1, 111, 181, 195, 120, 120, 195, 1, 1.09108
274, 1, wb, attraction, a-b-db, 14, 3, 2, 1, 111, 181, 195, 120, 120, 195, 3, 0.670068
274, 1, wb, attraction, a-b-da, 9, 1, 2, 2, 129, 57, 60, 135, 135, 60, 1, 0.6027
274, 1, wb, attraction, a-b-da, 9, 1, 2, 2, 129, 57, 60, 135, 135, 60, 2, 0.584287
274, 1, wb, attraction, a-b-da, 14, 3, 2, 3, 120, 195, 181, 111, 195, 120, 1, 0.422661
274, 1, wb, attraction, a-b-da, 14, 3, 2, 3, 120, 195, 181, 111, 195, 120, 3, 0.644669
274, 1, wb, filler, NA, 999, 999, 2, 4, 171, 111, 115, 92, 74, 69, 3, 0.776217
274, 1, wb, filler, NA, 999, 999, 2, 4, 171, 111, 115, 92, 74, 69, 1, 0.623942
274, 1, wb, filler, NA, 999, 999, 2, 5, 182, 140, 106, 117, 182, 70, 2, 0.716514
274, 1, wb, filler, NA, 999, 999, 2, 5, 182, 140, 106, 117, 182, 70, 1, 0.598852
274, 1, wb, attraction, a-b-da, 2, 3, 2, 6, 195, 120, 193, 119, 120, 195, 2, 0.764603
274, 1, wb, attraction, a-b-da, 2, 3, 2, 6, 195, 120, 193, 119, 120, 195, 3, 0.357001
274, 1, wb, attraction, a-b-db, 2, 3, 2, 7, 119, 193, 195, 120, 120, 195, 1, 0.532131
274, 1, wb, attraction, a-b-db, 2, 3, 2, 7, 119, 193, 195, 120, 120, 195, 3, 0.285991
274, 1, wb, filler, NA, 999, 999, 2, 8, 194, 188, 158, 115, 82, 183, 2, 0.72047
274, 1, wb, filler, NA, 999, 999, 2, 8, 194, 188, 158, 115, 82, 183, 1, 0.346895
274, 1, wb, attraction, a-b-da, 9, 3, 2, 9, 195, 120, 186, 114, 120, 195, 2, 0.466691
274, 1, wb, attraction, a-b-da, 9, 3, 2, 9, 195, 120, 186, 114, 120, 195, 3, 0.343222
274, 1, wb, filler, NA, 999, 999, 2, 10, 170, 153, 80, 133, 153, 89, 2, 0.791048
274, 1, wb, filler, NA, 999, 999, 2, 10, 170, 153, 80, 133, 153, 89, 1, 0.342117
274, 1, wb, attraction, a-b-db, 9, 2, 2, 11, 165, 90, 90, 165, 86, 157, 2, 0.502033
274, 1, wb, attraction, a-b-db, 9, 2, 2, 11, 165, 90, 90, 165, 86, 157, 3, 0.665205
274, 1, wb, attraction, a-b-da, 2, 2, 2, 12, 165, 90, 163, 89, 90, 165, 1, 0.620225
274, 1, wb, attraction, a-b-da, 2, 2, 2, 12, 165, 90, 163, 89, 90, 165, 3, 0.426685
274, 1, wb, attraction, a-b-db, 5, 2, 2, 13, 90, 165, 88, 161, 165, 90, 1, 0.431038
274, 1, wb, attraction, a-b-db, 5, 2, 2, 13, 90, 165, 88, 161, 165, 90, 3, 0.428885
274, 1, wb, attraction, a-b-db, 2, 2, 2, 14, 165, 90, 90, 165, 89, 163, 1, 0.3375
274, 1, wb, attraction, a-b-db, 2, 2, 2, 14, 165, 90, 90, 165, 89, 163, 3, 0.475316
274, 1, wb, attraction, a-b-da, 9, 2, 2, 15, 157, 86, 90, 165, 165, 90, 1, 0.317762
274, 1, wb, attraction, a-b-da, 9, 2, 2, 15, 157, 86, 90, 165, 165, 90, 3, 0.920278
274, 1, wb, filler, NA, 999, 999, 2, 16, 165, 150, 118, 74, 155, 179, 2, 0.793019
274, 1, wb, filler, NA, 999, 999, 2, 16, 165, 150, 118, 74, 155, 179, 3, 0.58432
274, 1, wb, catch, NA, 999, 999, 2, 17, 60, 135, 142, 113, 141, 174, 1, 0.91074
274, 1, wb, catch, NA, 999, 999, 2, 17, 60, 135, 142, 113, 141, 174, 3, 0.329088
274, 1, wb, attraction, a-b-da, 5, 3, 2, 18, 120, 195, 195, 120, 190, 117, 2, 0.481618
274, 1, wb, attraction, a-b-da, 5, 3, 2, 18, 120, 195, 195, 120, 190, 117, 3, 0.32545
274, 1, wb, attraction, a-b-db, 2, 1, 2, 19, 60, 135, 59, 134, 135, 60, 2, 0.485904
274, 1, wb, attraction, a-b-db, 2, 1, 2, 19, 60, 135, 59, 134, 135, 60, 3, 0.385796
274, 1, wb, attraction, a-b-da, 14, 1, 2, 20, 135, 60, 60, 135, 125, 56, 1, 0.664256
274, 1, wb, attraction, a-b-da, 14, 1, 2, 20, 135, 60, 60, 135, 125, 56, 3, 0.972701
274, 1, wb, attraction, a-b-da, 5, 2, 2, 21, 161, 88, 165, 90, 90, 165, 1, 0.88357
274, 1, wb, attraction, a-b-da, 5, 2, 2, 21, 161, 88, 165, 90, 90, 165, 3, 0.263376
274, 1, wb, attraction, a-b-db, 9, 1, 2, 22, 60, 135, 135, 60, 57, 129, 2, 0.55451
274, 1, wb, attraction, a-b-db, 9, 1, 2, 22, 60, 135, 135, 60, 57, 129, 3, 0.379025
274, 1, wb, catch, NA, 999, 999, 2, 23, 162, 93, 128, 67, 124, 191, 2, 0.593637
274, 1, wb, catch, NA, 999, 999, 2, 23, 162, 93, 128, 67, 124, 191, 3, 0.328647
274, 1, wb, filler, NA, 999, 999, 2, 24, 88, 148, 192, 79, 108, 175, 2, 0.590726
274, 1, wb, filler, NA, 999, 999, 2, 24, 88, 148, 192, 79, 108, 175, 3, 0.464294
274, 1, wb, filler, NA, 999, 999, 2, 25, 69, 126, 143, 167, 60, 100, 1, 1.04336
274, 1, wb, filler, NA, 999, 999, 2, 25, 69, 126, 143, 167, 60, 100, 2, 1.00051
274, 1, wb, filler, NA, 999, 999, 2, 26, 81, 173, 110, 158, 69, 60, 3, 1.13406
274, 1, wb, filler, NA, 999, 999, 2, 26, 81, 173, 110, 158, 69, 60, 2, 0.615644
274, 1, wb, attraction, a-b-db, 9, 3, 2, 27, 120, 195, 195, 120, 114, 186, 3, 0.643967
274, 1, wb, attraction, a-b-db, 9, 3, 2, 27, 120, 195, 195, 120, 114, 186, 1, 0.777819
274, 1, wb, attraction, a-b-db, 5, 3, 2, 28, 120, 195, 195, 120, 117, 190, 2, 0.544179
274, 1, wb, attraction, a-b-db, 5, 3, 2, 28, 120, 195, 195, 120, 117, 190, 3, 0.385337
274, 1, wb, attraction, a-b-da, 5, 1, 2, 29, 60, 135, 132, 58, 135, 60, 1, 0.671795
274, 1, wb, attraction, a-b-da, 5, 1, 2, 29, 60, 135, 132, 58, 135, 60, 3, 0.595601
274, 1, wb, filler, NA, 999, 999, 2, 30, 131, 156, 151, 85, 178, 143, 2, 0.593357
274, 1, wb, filler, NA, 999, 999, 2, 30, 131, 156, 151, 85, 178, 143, 3, 0.296401
274, 1, wb, catch, NA, 999, 999, 2, 31, 153, 162, 123, 132, 111, 84, 3, 0.858217
274, 1, wb, catch, NA, 999, 999, 2, 31, 153, 162, 123, 132, 111, 84, 1, 0.694618
274, 1, wb, attraction, a-b-db, 14, 1, 2, 32, 135, 60, 60, 135, 56, 125, 2, 0.504395
274, 1, wb, attraction, a-b-db, 14, 1, 2, 32, 135, 60, 60, 135, 56, 125, 3, 0.587507
274, 1, wb, attraction, a-b-da, 14, 2, 2, 33, 90, 165, 153, 83, 165, 90, 1, 0.560316
274, 1, wb, attraction, a-b-da, 14, 2, 2, 33, 90, 165, 153, 83, 165, 90, 3, 0.306468
274, 1, wb, attraction, a-b-db, 14, 2, 2, 34, 165, 90, 83, 153, 90, 165, 1, 0.548173
274, 1, wb, attraction, a-b-db, 14, 2, 2, 34, 165, 90, 83, 153, 90, 165, 3, 0.357512
274, 1, wb, attraction, a-b-da, 2, 1, 2, 35, 60, 135, 135, 60, 134, 59, 1, 0.388472
274, 1, wb, attraction, a-b-da, 2, 1, 2, 35, 60, 135, 135, 60, 134, 59, 3, 0.371668
274, 1, wb, attraction, a-b-db, 5, 1, 2, 36, 135, 60, 60, 135, 58, 132, 1, 0.442928
274, 1, wb, attraction, a-b-db, 5, 1, 2, 36, 135, 60, 60, 135, 58, 132, 3, 0.688022
274, 1, wb, filler, NA, 999, 999, 2, 37, 119, 142, 157, 171, 158, 68, 3, 1.57844
274, 1, wb, filler, NA, 999, 999, 2, 37, 119, 142, 157, 171, 158, 68, 2, 0.385843
274, 1, wb, catch, NA, 999, 999, 3, 1, 133, 122, 63, 132, 129, 186, 2, 0.744531
274, 1, wb, catch, NA, 999, 999, 3, 1, 133, 122, 63, 132, 129, 186, 3, 0.657514
274, 1, wb, filler, NA, 999, 999, 3, 2, 138, 63, 185, 159, 163, 162, 1, 0.604616
274, 1, wb, filler, NA, 999, 999, 3, 2, 138, 63, 185, 159, 163, 162, 2, 0.330967
274, 1, wb, filler, NA, 999, 999, 3, 3, 152, 103, 92, 59, 90, 158, 2, 0.699465
274, 1, wb, filler, NA, 999, 999, 3, 3, 152, 103, 92, 59, 90, 158, 1, 0.414526
274, 1, wb, attraction, a-b-da, 9, 1, 3, 4, 135, 60, 129, 57, 60, 135, 2, 1.50777
274, 1, wb, attraction, a-b-da, 9, 1, 3, 4, 135, 60, 129, 57, 60, 135, 3, 0.566003
274, 1, wb, attraction, a-b-db, 5, 1, 3, 5, 60, 135, 135, 60, 58, 132, 2, 0.836951
274, 1, wb, attraction, a-b-db, 5, 1, 3, 5, 60, 135, 135, 60, 58, 132, 3, 0.458827
274, 1, wb, attraction, a-b-da, 5, 3, 3, 6, 120, 195, 190, 117, 195, 120, 2, 1.26995
274, 1, wb, attraction, a-b-da, 5, 3, 3, 6, 120, 195, 190, 117, 195, 120, 1, 0.370061
274, 1, wb, filler, NA, 999, 999, 3, 7, 96, 124, 91, 160, 60, 97, 3, 0.977196
274, 1, wb, filler, NA, 999, 999, 3, 7, 96, 124, 91, 160, 60, 97, 2, 0.561023
274, 1, wb, filler, NA, 999, 999, 3, 8, 191, 148, 146, 163, 128, 103, 3, 0.816026
274, 1, wb, filler, NA, 999, 999, 3, 8, 191, 148, 146, 163, 128, 103, 1, 0.638444
274, 1, wb, filler, NA, 999, 999, 3, 9, 112, 63, 81, 79, 178, 161, 2, 1.01095
274, 1, wb, filler, NA, 999, 999, 3, 9, 112, 63, 81, 79, 178, 161, 3, 0.417121
274, 1, wb, attraction, a-b-db, 5, 3, 3, 10, 195, 120, 117, 190, 120, 195, 2, 1.03046
274, 1, wb, attraction, a-b-db, 5, 3, 3, 10, 195, 120, 117, 190, 120, 195, 1, 0.419956
274, 1, wb, attraction, a-b-db, 5, 2, 3, 11, 88, 161, 90, 165, 165, 90, 1, 0.761153
274, 1, wb, attraction, a-b-db, 5, 2, 3, 11, 88, 161, 90, 165, 165, 90, 3, 0.481516
274, 1, wb, attraction, a-b-db, 14, 3, 3, 12, 195, 120, 111, 181, 120, 195, 1, 0.619938
274, 1, wb, attraction, a-b-db, 14, 3, 3, 12, 195, 120, 111, 181, 120, 195, 2, 0.346387
274, 1, wb, catch, NA, 999, 999, 3, 13, 95, 100, 134, 181, 114, 141, 1, 0.842194
274, 1, wb, catch, NA, 999, 999, 3, 13, 95, 100, 134, 181, 114, 141, 2, 0.343255
274, 1, wb, attraction, a-b-da, 14, 3, 3, 14, 120, 195, 195, 120, 181, 111, 1, 0.759156
274, 1, wb, attraction, a-b-da, 14, 3, 3, 14, 120, 195, 195, 120, 181, 111, 2, 0.639531
274, 1, wb, catch, NA, 999, 999, 3, 15, 96, 159, 89, 106, 127, 188, 2, 1.10785
274, 1, wb, catch, NA, 999, 999, 3, 15, 96, 159, 89, 106, 127, 188, 3, 0.622159
274, 1, wb, attraction, a-b-da, 9, 2, 3, 16, 165, 90, 157, 86, 90, 165, 1, 0.691338
274, 1, wb, attraction, a-b-da, 9, 2, 3, 16, 165, 90, 157, 86, 90, 165, 3, 0.350517
274, 1, wb, attraction, a-b-da, 2, 2, 3, 17, 90, 165, 165, 90, 163, 89, 2, 0.526263
274, 1, wb, attraction, a-b-da, 2, 2, 3, 17, 90, 165, 165, 90, 163, 89, 3, 0.496017
274, 1, wb, filler, NA, 999, 999, 3, 18, 132, 189, 152, 124, 157, 176, 2, 1.17782
274, 1, wb, filler, NA, 999, 999, 3, 18, 132, 189, 152, 124, 157, 176, 3, 0.393492
274, 1, wb, filler, NA, 999, 999, 3, 19, 110, 155, 82, 134, 84, 182, 2, 0.639344
274, 1, wb, filler, NA, 999, 999, 3, 19, 110, 155, 82, 134, 84, 182, 1, 0.42831
274, 1, wb, attraction, a-b-da, 14, 2, 3, 20, 165, 90, 153, 83, 90, 165, 2, 0.568785
274, 1, wb, attraction, a-b-da, 14, 2, 3, 20, 165, 90, 153, 83, 90, 165, 3, 0.361241
274, 1, wb, attraction, a-b-da, 14, 1, 3, 21, 135, 60, 125, 56, 60, 135, 1, 0.568378
274, 1, wb, attraction, a-b-da, 14, 1, 3, 21, 135, 60, 125, 56, 60, 135, 2, 0.344878
274, 1, wb, attraction, a-b-db, 9, 1, 3, 22, 135, 60, 60, 135, 57, 129, 2, 0.680744
274, 1, wb, attraction, a-b-db, 9, 1, 3, 22, 135, 60, 60, 135, 57, 129, 1, 0.668569
274, 1, wb, attraction, a-b-db, 14, 1, 3, 23, 60, 135, 56, 125, 135, 60, 2, 0.479581
274, 1, wb, attraction, a-b-db, 14, 1, 3, 23, 60, 135, 56, 125, 135, 60, 1, 0.411408
274, 1, wb, attraction, a-b-db, 14, 2, 3, 24, 165, 90, 90, 165, 83, 153, 2, 0.520535
274, 1, wb, attraction, a-b-db, 14, 2, 3, 24, 165, 90, 90, 165, 83, 153, 1, 0.619108
274, 1, wb, attraction, a-b-db, 2, 2, 3, 25, 90, 165, 165, 90, 89, 163, 2, 0.472022
274, 1, wb, attraction, a-b-db, 2, 2, 3, 25, 90, 165, 165, 90, 89, 163, 1, 0.45193
274, 1, wb, attraction, a-b-db, 9, 3, 3, 26, 120, 195, 195, 120, 114, 186, 2, 0.495674
274, 1, wb, attraction, a-b-db, 9, 3, 3, 26, 120, 195, 195, 120, 114, 186, 1, 0.362918
274, 1, wb, attraction, a-b-da, 2, 1, 3, 27, 134, 59, 60, 135, 135, 60, 2, 0.466151
274, 1, wb, attraction, a-b-da, 2, 1, 3, 27, 134, 59, 60, 135, 135, 60, 1, 0.414802
274, 1, wb, attraction, a-b-da, 5, 2, 3, 28, 90, 165, 161, 88, 165, 90, 2, 0.491715
274, 1, wb, attraction, a-b-da, 5, 2, 3, 28, 90, 165, 161, 88, 165, 90, 1, 0.390782
274, 1, wb, filler, NA, 999, 999, 3, 29, 81, 159, 149, 187, 141, 72, 1, 1.2207
274, 1, wb, filler, NA, 999, 999, 3, 29, 81, 159, 149, 187, 141, 72, 2, 0.827008
274, 1, wb, filler, NA, 999, 999, 3, 30, 70, 78, 59, 151, 90, 78, 1, 0.567141
274, 1, wb, filler, NA, 999, 999, 3, 30, 70, 78, 59, 151, 90, 78, 2, 0.359735
274, 1, wb, attraction, a-b-db, 2, 3, 3, 31, 120, 195, 119, 193, 195, 120, 1, 0.526781
274, 1, wb, attraction, a-b-db, 2, 3, 3, 31, 120, 195, 119, 193, 195, 120, 2, 0.584621
274, 1, wb, attraction, a-b-da, 2, 3, 3, 32, 193, 119, 195, 120, 120, 195, 1, 0.439147
274, 1, wb, attraction, a-b-da, 2, 3, 3, 32, 193, 119, 195, 120, 120, 195, 2, 0.508299
274, 1, wb, attraction, a-b-da, 9, 3, 3, 33, 195, 120, 120, 195, 186, 114, 1, 0.413404
274, 1, wb, attraction, a-b-da, 9, 3, 3, 33, 195, 120, 120, 195, 186, 114, 2, 0.37983
274, 1, wb, attraction, a-b-db, 2, 1, 3, 34, 135, 60, 60, 135, 59, 134, 1, 0.570285
274, 1, wb, attraction, a-b-db, 2, 1, 3, 34, 135, 60, 60, 135, 59, 134, 2, 0.442772
274, 1, wb, filler, NA, 999, 999, 3, 35, 82, 94, 176, 180, 107, 145, 1, 0.726628
274, 1, wb, filler, NA, 999, 999, 3, 35, 82, 94, 176, 180, 107, 145, 2, 0.28057
274, 1, wb, attraction, a-b-db, 9, 2, 3, 36, 86, 157, 90, 165, 165, 90, 1, 0.642808
274, 1, wb, attraction, a-b-db, 9, 2, 3, 36, 86, 157, 90, 165, 165, 90, 2, 0.407942
274, 1, wb, attraction, a-b-da, 5, 1, 3, 37, 60, 135, 135, 60, 132, 58, 1, 1.50913
274, 1, wb, attraction, a-b-da, 5, 1, 3, 37, 60, 135, 135, 60, 132, 58, 2, 0.639416
274, 1, wb, attraction, a-b-db, 9, 2, 4, 1, 165, 90, 90, 165, 86, 157, 1, 0.38779
274, 1, wb, attraction, a-b-db, 9, 2, 4, 1, 165, 90, 90, 165, 86, 157, 2, 0.419534
274, 1, wb, attraction, a-b-db, 2, 2, 4, 2, 89, 163, 90, 165, 165, 90, 1, 1.16066
274, 1, wb, attraction, a-b-db, 2, 2, 4, 2, 89, 163, 90, 165, 165, 90, 2, 0.425172
274, 1, wb, catch, NA, 999, 999, 4, 3, 109, 86, 136, 179, 160, 95, 1, 0.493423
274, 1, wb, catch, NA, 999, 999, 4, 3, 109, 86, 136, 179, 160, 95, 2, 0.344771
274, 1, wb, attraction, a-b-db, 5, 2, 4, 4, 88, 161, 165, 90, 90, 165, 1, 0.35243
274, 1, wb, attraction, a-b-db, 5, 2, 4, 4, 88, 161, 165, 90, 90, 165, 2, 0.313658
274, 1, wb, attraction, a-b-db, 9, 3, 4, 5, 120, 195, 114, 186, 195, 120, 1, 0.418831
274, 1, wb, attraction, a-b-db, 9, 3, 4, 5, 120, 195, 114, 186, 195, 120, 2, 0.329391
274, 1, wb, attraction, a-b-da, 9, 3, 4, 6, 120, 195, 195, 120, 186, 114, 1, 0.377875
274, 1, wb, attraction, a-b-da, 9, 3, 4, 6, 120, 195, 195, 120, 186, 114, 2, 0.617925
274, 1, wb, filler, NA, 999, 999, 4, 7, 94, 143, 125, 116, 161, 92, 1, 0.270796
274, 1, wb, filler, NA, 999, 999, 4, 7, 94, 143, 125, 116, 161, 92, 2, 0.418797
274, 1, wb, attraction, a-b-da, 14, 2, 4, 8, 153, 83, 90, 165, 165, 90, 1, 0.511909
274, 1, wb, attraction, a-b-da, 14, 2, 4, 8, 153, 83, 90, 165, 165, 90, 2, 0.754404
274, 1, wb, catch, NA, 999, 999, 4, 9, 101, 154, 108, 87, 184, 131, 1, 0.602062
274, 1, wb, catch, NA, 999, 999, 4, 9, 101, 154, 108, 87, 184, 131, 3, 1.7132
274, 1, wb, filler, NA, 999, 999, 4, 10, 150, 64, 89, 104, 84, 170, 2, 0.665918
274, 1, wb, filler, NA, 999, 999, 4, 10, 150, 64, 89, 104, 84, 170, 3, 0.646336
274, 1, wb, attraction, a-b-db, 5, 1, 4, 11, 135, 60, 58, 132, 60, 135, 2, 0.770235
274, 1, wb, attraction, a-b-db, 5, 1, 4, 11, 135, 60, 58, 132, 60, 135, 3, 0.538453
274, 1, wb, attraction, a-b-db, 9, 1, 4, 12, 135, 60, 57, 129, 60, 135, 2, 0.410906
274, 1, wb, attraction, a-b-db, 9, 1, 4, 12, 135, 60, 57, 129, 60, 135, 3, 0.617475
274, 1, wb, filler, NA, 999, 999, 4, 13, 195, 149, 108, 191, 179, 172, 2, 1.03843
274, 1, wb, filler, NA, 999, 999, 4, 13, 195, 149, 108, 191, 179, 172, 3, 0.275464
274, 1, wb, attraction, a-b-db, 14, 1, 4, 14, 60, 135, 56, 125, 135, 60, 2, 0.477922
274, 1, wb, attraction, a-b-db, 14, 1, 4, 14, 60, 135, 56, 125, 135, 60, 3, 0.44184
274, 1, wb, filler, NA, 999, 999, 4, 15, 143, 78, 195, 185, 118, 112, 1, 1.38964
274, 1, wb, filler, NA, 999, 999, 4, 15, 143, 78, 195, 185, 118, 112, 2, 0.380432
274, 1, wb, filler, NA, 999, 999, 4, 16, 85, 189, 86, 72, 171, 146, 2, 0.714982
274, 1, wb, filler, NA, 999, 999, 4, 16, 85, 189, 86, 72, 171, 146, 3, 0.309391
274, 1, wb, attraction, a-b-da, 14, 1, 4, 17, 125, 56, 135, 60, 60, 135, 2, 0.782612
274, 1, wb, attraction, a-b-da, 14, 1, 4, 17, 125, 56, 135, 60, 60, 135, 3, 0.542388
274, 1, wb, attraction, a-b-da, 9, 1, 4, 18, 135, 60, 129, 57, 60, 135, 1, 0.558002
274, 1, wb, attraction, a-b-da, 9, 1, 4, 18, 135, 60, 129, 57, 60, 135, 3, 0.494527
274, 1, wb, catch, NA, 999, 999, 4, 19, 149, 106, 168, 147, 114, 81, 2, 0.52034
274, 1, wb, catch, NA, 999, 999, 4, 19, 149, 106, 168, 147, 114, 81, 3, 0.594782
274, 1, wb, attraction, a-b-da, 5, 2, 4, 20, 165, 90, 90, 165, 161, 88, 2, 1.00058
274, 1, wb, attraction, a-b-da, 5, 2, 4, 20, 165, 90, 90, 165, 161, 88, 3, 0.360219
274, 1, wb, attraction, a-b-da, 5, 1, 4, 21, 135, 60, 132, 58, 60, 135, 2, 0.534799
274, 1, wb, attraction, a-b-da, 5, 1, 4, 21, 135, 60, 132, 58, 60, 135, 3, 0.504485
274, 1, wb, filler, NA, 999, 999, 4, 22, 171, 162, 172, 128, 94, 78, 3, 0.842366
274, 1, wb, filler, NA, 999, 999, 4, 22, 171, 162, 172, 128, 94, 78, 1, 0.487414
274, 1, wb, attraction, a-b-db, 2, 3, 4, 23, 119, 193, 195, 120, 120, 195, 2, 0.553738
274, 1, wb, attraction, a-b-db, 2, 3, 4, 23, 119, 193, 195, 120, 120, 195, 3, 0.307099
274, 1, wb, attraction, a-b-da, 14, 3, 4, 24, 195, 120, 181, 111, 120, 195, 1, 0.788196
274, 1, wb, attraction, a-b-da, 14, 3, 4, 24, 195, 120, 181, 111, 120, 195, 2, 0.90716
274, 1, wb, filler, NA, 999, 999, 4, 25, 175, 132, 92, 178, 82, 171, 1, 0.70017
274, 1, wb, filler, NA, 999, 999, 4, 25, 175, 132, 92, 178, 82, 171, 2, 0.359262
274, 1, wb, filler, NA, 999, 999, 4, 26, 139, 76, 192, 58, 160, 105, 1, 0.374383
274, 1, wb, filler, NA, 999, 999, 4, 26, 139, 76, 192, 58, 160, 105, 3, 0.462274
274, 1, wb, attraction, a-b-da, 2, 3, 4, 27, 120, 195, 193, 119, 195, 120, 1, 0.545373
274, 1, wb, attraction, a-b-da, 2, 3, 4, 27, 120, 195, 193, 119, 195, 120, 3, 0.506588
274, 1, wb, attraction, a-b-da, 2, 1, 4, 28, 134, 59, 60, 135, 135, 60, 1, 0.516336
274, 1, wb, attraction, a-b-da, 2, 1, 4, 28, 134, 59, 60, 135, 135, 60, 2, 0.438763
274, 1, wb, attraction, a-b-da, 2, 2, 4, 29, 165, 90, 90, 165, 163, 89, 1, 0.419333
274, 1, wb, attraction, a-b-da, 2, 2, 4, 29, 165, 90, 90, 165, 163, 89, 3, 0.737931
274, 1, wb, filler, NA, 999, 999, 4, 30, 173, 92, 95, 138, 95, 70, 3, 0.81038
274, 1, wb, filler, NA, 999, 999, 4, 30, 173, 92, 95, 138, 95, 70, 2, 0.432671
274, 1, wb, attraction, a-b-db, 14, 3, 4, 31, 120, 195, 111, 181, 195, 120, 1, 0.564975
274, 1, wb, attraction, a-b-db, 14, 3, 4, 31, 120, 195, 111, 181, 195, 120, 2, 0.381455
274, 1, wb, attraction, a-b-db, 5, 3, 4, 32, 195, 120, 117, 190, 120, 195, 1, 0.747951
274, 1, wb, attraction, a-b-db, 5, 3, 4, 32, 195, 120, 117, 190, 120, 195, 3, 0.381123
274, 1, wb, attraction, a-b-da, 9, 2, 4, 33, 157, 86, 90, 165, 165, 90, 1, 0.731482
274, 1, wb, attraction, a-b-da, 9, 2, 4, 33, 157, 86, 90, 165, 165, 90, 2, 0.445229
274, 1, wb, attraction, a-b-db, 2, 1, 4, 34, 59, 134, 135, 60, 60, 135, 1, 0.409157
274, 1, wb, attraction, a-b-db, 2, 1, 4, 34, 59, 134, 135, 60, 60, 135, 2, 0.911632
274, 1, wb, attraction, a-b-da, 5, 3, 4, 35, 190, 117, 120, 195, 195, 120, 1, 0.456599
274, 1, wb, attraction, a-b-da, 5, 3, 4, 35, 190, 117, 120, 195, 195, 120, 2, 0.309137
274, 1, wb, attraction, a-b-db, 14, 2, 4, 36, 165, 90, 83, 153, 90, 165, 1, 0.31824
274, 1, wb, attraction, a-b-db, 14, 2, 4, 36, 165, 90, 83, 153, 90, 165, 2, 0.344975
274, 1, wb, filler, NA, 999, 999, 4, 37, 57, 133, 87, 108, 171, 192, 1, 0.560619
274, 1, wb, filler, NA, 999, 999, 4, 37, 57, 133, 87, 108, 171, 192, 3, 0.657152
274, 1, wb, attraction, a-b-da, 9, 3, 5, 1, 186, 114, 120, 195, 195, 120, 1, 4.17084
274, 1, wb, attraction, a-b-da, 9, 3, 5, 1, 186, 114, 120, 195, 195, 120, 2, 0.314083
274, 1, wb, filler, NA, 999, 999, 5, 2, 129, 134, 111, 80, 193, 105, 2, 1.04329
274, 1, wb, filler, NA, 999, 999, 5, 2, 129, 134, 111, 80, 193, 105, 3, 0.808293
274, 1, wb, attraction, a-b-da, 9, 1, 5, 3, 135, 60, 129, 57, 60, 135, 1, 0.685344
274, 1, wb, attraction, a-b-da, 9, 1, 5, 3, 135, 60, 129, 57, 60, 135, 2, 0.47317
274, 1, wb, filler, NA, 999, 999, 5, 4, 92, 153, 64, 123, 86, 181, 1, 0.452099
274, 1, wb, filler, NA, 999, 999, 5, 4, 92, 153, 64, 123, 86, 181, 2, 0.369287
274, 1, wb, filler, NA, 999, 999, 5, 5, 93, 129, 109, 67, 88, 107, 2, 0.760603
274, 1, wb, filler, NA, 999, 999, 5, 5, 93, 129, 109, 67, 88, 107, 1, 1.08092
274, 1, wb, attraction, a-b-db, 9, 3, 5, 6, 114, 186, 120, 195, 195, 120, 3, 1.08323
274, 1, wb, attraction, a-b-db, 9, 3, 5, 6, 114, 186, 120, 195, 195, 120, 2, 0.350957
274, 1, wb, attraction, a-b-db, 2, 2, 5, 7, 90, 165, 165, 90, 89, 163, 1, 0.510739
274, 1, wb, attraction, a-b-db, 2, 2, 5, 7, 90, 165, 165, 90, 89, 163, 2, 0.561208
274, 1, wb, attraction, a-b-da, 5, 1, 5, 8, 135, 60, 132, 58, 60, 135, 1, 0.696265
274, 1, wb, attraction, a-b-da, 5, 1, 5, 8, 135, 60, 132, 58, 60, 135, 2, 0.459297
274, 1, wb, attraction, a-b-db, 14, 2, 5, 9, 165, 90, 90, 165, 83, 153, 1, 0.558509
274, 1, wb, attraction, a-b-db, 14, 2, 5, 9, 165, 90, 90, 165, 83, 153, 3, 0.406873
274, 1, wb, attraction, a-b-db, 5, 2, 5, 10, 165, 90, 88, 161, 90, 165, 1, 0.540088
274, 1, wb, attraction, a-b-db, 5, 2, 5, 10, 165, 90, 88, 161, 90, 165, 2, 0.317239
274, 1, wb, filler, NA, 999, 999, 5, 11, 137, 147, 102, 59, 126, 128, 1, 0.318366
274, 1, wb, filler, NA, 999, 999, 5, 11, 137, 147, 102, 59, 126, 128, 2, 0.665032
274, 1, wb, filler, NA, 999, 999, 5, 12, 184, 97, 181, 126, 120, 178, 1, 0.947998
274, 1, wb, filler, NA, 999, 999, 5, 12, 184, 97, 181, 126, 120, 178, 2, 0.349133
274, 1, wb, attraction, a-b-da, 2, 2, 5, 13, 163, 89, 165, 90, 90, 165, 1, 0.444828
274, 1, wb, attraction, a-b-da, 2, 2, 5, 13, 163, 89, 165, 90, 90, 165, 2, 0.97811
274, 1, wb, attraction, a-b-db, 14, 3, 5, 14, 195, 120, 111, 181, 120, 195, 1, 0.496367
274, 1, wb, attraction, a-b-db, 14, 3, 5, 14, 195, 120, 111, 181, 120, 195, 3, 0.491419
274, 1, wb, attraction, a-b-da, 9, 2, 5, 15, 165, 90, 157, 86, 90, 165, 1, 0.589231
274, 1, wb, attraction, a-b-da, 9, 2, 5, 15, 165, 90, 157, 86, 90, 165, 3, 0.68432
274, 1, wb, filler, NA, 999, 999, 5, 16, 109, 125, 58, 176, 86, 164, 2, 1.02275
274, 1, wb, filler, NA, 999, 999, 5, 16, 109, 125, 58, 176, 86, 164, 3, 0.70044
274, 1, wb, catch, NA, 999, 999, 5, 17, 138, 117, 127, 188, 123, 72, 3, 0.822125
274, 1, wb, catch, NA, 999, 999, 5, 17, 138, 117, 127, 188, 123, 72, 2, 0.371862
274, 1, wb, catch, NA, 999, 999, 5, 18, 162, 153, 132, 63, 98, 157, 2, 1.01904
274, 1, wb, catch, NA, 999, 999, 5, 18, 162, 153, 132, 63, 98, 157, 1, 0.44934
274, 1, wb, attraction, a-b-da, 5, 3, 5, 19, 190, 117, 195, 120, 120, 195, 2, 0.517269
274, 1, wb, attraction, a-b-da, 5, 3, 5, 19, 190, 117, 195, 120, 120, 195, 3, 0.359644
274, 1, wb, attraction, a-b-da, 14, 3, 5, 20, 195, 120, 120, 195, 181, 111, 2, 0.462701
274, 1, wb, attraction, a-b-da, 14, 3, 5, 20, 195, 120, 120, 195, 181, 111, 3, 0.363192
274, 1, wb, attraction, a-b-db, 5, 3, 5, 21, 120, 195, 117, 190, 195, 120, 2, 0.442553
274, 1, wb, attraction, a-b-db, 5, 3, 5, 21, 120, 195, 117, 190, 195, 120, 3, 0.391686
274, 1, wb, attraction, a-b-db, 5, 1, 5, 22, 60, 135, 135, 60, 58, 132, 1, 0.765477
274, 1, wb, attraction, a-b-db, 5, 1, 5, 22, 60, 135, 135, 60, 58, 132, 3, 0.557891
274, 1, wb, filler, NA, 999, 999, 5, 23, 122, 77, 113, 171, 185, 83, 1, 0.773022
274, 1, wb, filler, NA, 999, 999, 5, 23, 122, 77, 113, 171, 185, 83, 2, 0.428678
274, 1, wb, attraction, a-b-db, 14, 1, 5, 24, 60, 135, 135, 60, 56, 125, 1, 0.377229
274, 1, wb, attraction, a-b-db, 14, 1, 5, 24, 60, 135, 135, 60, 56, 125, 3, 0.368951
274, 1, wb, attraction, a-b-db, 9, 1, 5, 25, 135, 60, 60, 135, 57, 129, 1, 0.776121
274, 1, wb, attraction, a-b-db, 9, 1, 5, 25, 135, 60, 60, 135, 57, 129, 3, 0.615848
274, 1, wb, filler, NA, 999, 999, 5, 26, 81, 177, 163, 118, 188, 109, 1, 0.565009
274, 1, wb, filler, NA, 999, 999, 5, 26, 81, 177, 163, 118, 188, 109, 3, 0.413508
274, 1, wb, attraction, a-b-db, 2, 1, 5, 27, 135, 60, 60, 135, 59, 134, 1, 0.482514
274, 1, wb, attraction, a-b-db, 2, 1, 5, 27, 135, 60, 60, 135, 59, 134, 3, 0.406363
274, 1, wb, attraction, a-b-db, 2, 3, 5, 28, 195, 120, 120, 195, 119, 193, 1, 0.53217
274, 1, wb, attraction, a-b-db, 2, 3, 5, 28, 195, 120, 120, 195, 119, 193, 3, 0.725953
274, 1, wb, attraction, a-b-da, 5, 2, 5, 29, 165, 90, 90, 165, 161, 88, 1, 0.592675
274, 1, wb, attraction, a-b-da, 5, 2, 5, 29, 165, 90, 90, 165, 161, 88, 3, 0.861518
274, 1, wb, attraction, a-b-da, 14, 1, 5, 30, 60, 135, 135, 60, 125, 56, 1, 0.632567
274, 1, wb, attraction, a-b-da, 14, 1, 5, 30, 60, 135, 135, 60, 125, 56, 3, 0.630226
274, 1, wb, filler, NA, 999, 999, 5, 31, 71, 72, 180, 107, 89, 66, 2, 0.794643
274, 1, wb, filler, NA, 999, 999, 5, 31, 71, 72, 180, 107, 89, 66, 1, 0.777692
274, 1, wb, attraction, a-b-da, 14, 2, 5, 32, 90, 165, 165, 90, 153, 83, 1, 0.560115
274, 1, wb, attraction, a-b-da, 14, 2, 5, 32, 90, 165, 165, 90, 153, 83, 3, 0.352739
274, 1, wb, attraction, a-b-da, 2, 3, 5, 33, 193, 119, 195, 120, 120, 195, 1, 0.360417
274, 1, wb, attraction, a-b-da, 2, 3, 5, 33, 193, 119, 195, 120, 120, 195, 3, 0.336947
274, 1, wb, catch, NA, 999, 999, 5, 34, 192, 123, 93, 102, 98, 157, 1, 0.265585
274, 1, wb, catch, NA, 999, 999, 5, 34, 192, 123, 93, 102, 98, 157, 3, 0.430006
274, 1, wb, attraction, a-b-db, 9, 2, 5, 35, 165, 90, 86, 157, 90, 165, 1, 0.394495
274, 1, wb, attraction, a-b-db, 9, 2, 5, 35, 165, 90, 86, 157, 90, 165, 2, 0.353641
274, 1, wb, filler, NA, 999, 999, 5, 36, 122, 76, 76, 194, 147, 85, 1, 1.9455
274, 1, wb, filler, NA, 999, 999, 5, 36, 122, 76, 76, 194, 147, 85, 2, 0.34622
274, 1, wb, attraction, a-b-da, 2, 1, 5, 37, 60, 135, 135, 60, 134, 59, 1, 0.401961
274, 1, wb, attraction, a-b-da, 2, 1, 5, 37, 60, 135, 135, 60, 134, 59, 3, 0.585211
274, 1, wb, attraction, a-b-da, 9, 2, 6, 1, 157, 86, 90, 165, 165, 90, 1, 0.43179
274, 1, wb, attraction, a-b-da, 9, 2, 6, 1, 157, 86, 90, 165, 165, 90, 2, 0.38149
274, 1, wb, attraction, a-b-db, 2, 2, 6, 2, 165, 90, 90, 165, 89, 163, 1, 0.483945
274, 1, wb, attraction, a-b-db, 2, 2, 6, 2, 165, 90, 90, 165, 89, 163, 3, 0.359785
274, 1, wb, attraction, a-b-db, 5, 3, 6, 3, 195, 120, 120, 195, 117, 190, 2, 0.495001
274, 1, wb, attraction, a-b-db, 5, 3, 6, 3, 195, 120, 120, 195, 117, 190, 3, 0.362133
274, 1, wb, attraction, a-b-db, 2, 1, 6, 4, 60, 135, 59, 134, 135, 60, 1, 0.513205
274, 1, wb, attraction, a-b-db, 2, 1, 6, 4, 60, 135, 59, 134, 135, 60, 3, 0.580026
274, 1, wb, attraction, a-b-da, 2, 1, 6, 5, 60, 135, 135, 60, 134, 59, 1, 0.586158
274, 1, wb, attraction, a-b-da, 2, 1, 6, 5, 60, 135, 135, 60, 134, 59, 3, 0.377978
274, 1, wb, catch, NA, 999, 999, 6, 6, 155, 160, 138, 117, 65, 130, 1, 0.408466
274, 1, wb, catch, NA, 999, 999, 6, 6, 155, 160, 138, 117, 65, 130, 3, 0.342979
274, 1, wb, filler, NA, 999, 999, 6, 7, 93, 125, 152, 154, 78, 102, 2, 0.422703
274, 1, wb, filler, NA, 999, 999, 6, 7, 93, 125, 152, 154, 78, 102, 1, 0.34072
274, 1, wb, attraction, a-b-db, 2, 3, 6, 8, 120, 195, 195, 120, 119, 193, 2, 0.604509
274, 1, wb, attraction, a-b-db, 2, 3, 6, 8, 120, 195, 195, 120, 119, 193, 3, 0.307575
274, 1, wb, attraction, a-b-da, 2, 2, 6, 9, 90, 165, 165, 90, 163, 89, 2, 0.876766
274, 1, wb, attraction, a-b-da, 2, 2, 6, 9, 90, 165, 165, 90, 163, 89, 3, 0.312498
274, 1, wb, attraction, a-b-db, 9, 1, 6, 10, 135, 60, 57, 129, 60, 135, 1, 0.681547
274, 1, wb, attraction, a-b-db, 9, 1, 6, 10, 135, 60, 57, 129, 60, 135, 3, 0.517384
274, 1, wb, attraction, a-b-da, 14, 1, 6, 11, 135, 60, 125, 56, 60, 135, 2, 0.510478
274, 1, wb, attraction, a-b-da, 14, 1, 6, 11, 135, 60, 125, 56, 60, 135, 3, 0.369031
274, 1, wb, attraction, a-b-da, 2, 3, 6, 12, 195, 120, 120, 195, 193, 119, 1, 0.440231
274, 1, wb, attraction, a-b-da, 2, 3, 6, 12, 195, 120, 120, 195, 193, 119, 3, 0.389301
274, 1, wb, attraction, a-b-da, 5, 1, 6, 13, 60, 135, 132, 58, 135, 60, 1, 0.595733
274, 1, wb, attraction, a-b-da, 5, 1, 6, 13, 60, 135, 132, 58, 135, 60, 3, 0.570977
274, 1, wb, attraction, a-b-da, 9, 3, 6, 14, 120, 195, 195, 120, 186, 114, 1, 0.505982
274, 1, wb, attraction, a-b-da, 9, 3, 6, 14, 120, 195, 195, 120, 186, 114, 3, 0.332497
274, 1, wb, attraction, a-b-db, 14, 1, 6, 15, 135, 60, 56, 125, 60, 135, 2, 0.477002
274, 1, wb, attraction, a-b-db, 14, 1, 6, 15, 135, 60, 56, 125, 60, 135, 3, 0.344842
274, 1, wb, filler, NA, 999, 999, 6, 16, 102, 59, 177, 179, 181, 122, 1, 0.864655
274, 1, wb, filler, NA, 999, 999, 6, 16, 102, 59, 177, 179, 181, 122, 2, 0.333029
274, 1, wb, attraction, a-b-da, 14, 3, 6, 17, 181, 111, 195, 120, 120, 195, 1, 0.541531
274, 1, wb, attraction, a-b-da, 14, 3, 6, 17, 181, 111, 195, 120, 120, 195, 3, 0.334705
274, 1, wb, attraction, a-b-db, 5, 1, 6, 18, 135, 60, 60, 135, 58, 132, 2, 0.599106
274, 1, wb, attraction, a-b-db, 5, 1, 6, 18, 135, 60, 60, 135, 58, 132, 3, 0.358349
274, 1, wb, attraction, a-b-db, 5, 2, 6, 19, 90, 165, 165, 90, 88, 161, 2, 0.429453
274, 1, wb, attraction, a-b-db, 5, 2, 6, 19, 90, 165, 165, 90, 88, 161, 3, 0.331338
274, 1, wb, filler, NA, 999, 999, 6, 20, 97, 76, 146, 178, 152, 135, 1, 0.411767
274, 1, wb, filler, NA, 999, 999, 6, 20, 97, 76, 146, 178, 152, 135, 3, 0.330305
274, 1, wb, filler, NA, 999, 999, 6, 21, 96, 123, 173, 164, 95, 92, 3, 0.978883
274, 1, wb, filler, NA, 999, 999, 6, 21, 96, 123, 173, 164, 95, 92, 2, 0.338565
274, 1, wb, attraction, a-b-da, 14, 2, 6, 22, 153, 83, 165, 90, 90, 165, 1, 1.33118
274, 1, wb, attraction, a-b-da, 14, 2, 6, 22, 153, 83, 165, 90, 90, 165, 3, 0.56454
274, 1, wb, attraction, a-b-db, 9, 3, 6, 23, 120, 195, 195, 120, 114, 186, 1, 0.483586
274, 1, wb, attraction, a-b-db, 9, 3, 6, 23, 120, 195, 195, 120, 114, 186, 3, 0.287488
274, 1, wb, attraction, a-b-da, 9, 1, 6, 24, 135, 60, 129, 57, 60, 135, 1, 0.561965
274, 1, wb, attraction, a-b-da, 9, 1, 6, 24, 135, 60, 129, 57, 60, 135, 2, 0.330596
274, 1, wb, attraction, a-b-db, 14, 2, 6, 25, 165, 90, 83, 153, 90, 165, 1, 0.418925
274, 1, wb, attraction, a-b-db, 14, 2, 6, 25, 165, 90, 83, 153, 90, 165, 3, 0.305501
274, 1, wb, filler, NA, 999, 999, 6, 26, 163, 168, 101, 116, 65, 80, 3, 1.10732
274, 1, wb, filler, NA, 999, 999, 6, 26, 163, 168, 101, 116, 65, 80, 1, 0.669617
274, 1, wb, filler, NA, 999, 999, 6, 27, 93, 150, 69, 76, 72, 195, 2, 1.05677
274, 1, wb, filler, NA, 999, 999, 6, 27, 93, 150, 69, 76, 72, 195, 1, 1.00501
274, 1, wb, catch, NA, 999, 999, 6, 28, 107, 88, 96, 159, 142, 173, 1, 0.610645
274, 1, wb, catch, NA, 999, 999, 6, 28, 107, 88, 96, 159, 142, 173, 2, 0.505142
274, 1, wb, filler, NA, 999, 999, 6, 29, 57, 175, 139, 58, 92, 161, 1, 0.618863
274, 1, wb, filler, NA, 999, 999, 6, 29, 57, 175, 139, 58, 92, 161, 3, 0.825316
274, 1, wb, filler, NA, 999, 999, 6, 30, 82, 78, 93, 126, 94, 119, 1, 1.63759
274, 1, wb, filler, NA, 999, 999, 6, 30, 82, 78, 93, 126, 94, 119, 2, 0.539033
274, 1, wb, filler, NA, 999, 999, 6, 31, 147, 113, 72, 94, 105, 146, 2, 0.731551
274, 1, wb, filler, NA, 999, 999, 6, 31, 147, 113, 72, 94, 105, 146, 1, 0.365272
274, 1, wb, attraction, a-b-da, 5, 3, 6, 32, 195, 120, 190, 117, 120, 195, 2, 0.620518
274, 1, wb, attraction, a-b-da, 5, 3, 6, 32, 195, 120, 190, 117, 120, 195, 3, 0.258876
274, 1, wb, attraction, a-b-da, 5, 2, 6, 33, 165, 90, 161, 88, 90, 165, 1, 0.38209
274, 1, wb, attraction, a-b-da, 5, 2, 6, 33, 165, 90, 161, 88, 90, 165, 3, 0.286072
274, 1, wb, filler, NA, 999, 999, 6, 34, 79, 146, 183, 119, 76, 185, 2, 0.280444
274, 1, wb, filler, NA, 999, 999, 6, 34, 79, 146, 183, 119, 76, 185, 3, 0.380336
274, 1, wb, attraction, a-b-db, 14, 3, 6, 35, 111, 181, 120, 195, 195, 120, 1, 0.43496
274, 1, wb, attraction, a-b-db, 14, 3, 6, 35, 111, 181, 120, 195, 195, 120, 3, 0.44082
274, 1, wb, attraction, a-b-db, 9, 2, 6, 36, 86, 157, 165, 90, 90, 165, 1, 0.284607
274, 1, wb, attraction, a-b-db, 9, 2, 6, 36, 86, 157, 165, 90, 90, 165, 2, 0.376392
274, 1, wb, catch, NA, 999, 999, 6, 37, 94, 101, 135, 120, 123, 192, 1, 1.343
274, 1, wb, catch, NA, 999, 999, 6, 37, 94, 101, 135, 120, 123, 192, 3, 0.64784
274, 1, wb, attraction, a-b-da, 2, 2, 7, 1, 165, 90, 163, 89, 90, 165, 1, 0.723557
274, 1, wb, attraction, a-b-da, 2, 2, 7, 1, 165, 90, 163, 89, 90, 165, 3, 1.07721
274, 1, wb, attraction, a-b-da, 5, 2, 7, 2, 161, 88, 165, 90, 90, 165, 1, 0.45541
274, 1, wb, attraction, a-b-da, 5, 2, 7, 2, 161, 88, 165, 90, 90, 165, 3, 0.292022
274, 1, wb, filler, NA, 999, 999, 7, 3, 191, 62, 162, 94, 170, 175, 1, 0.493846
274, 1, wb, filler, NA, 999, 999, 7, 3, 191, 62, 162, 94, 170, 175, 3, 0.345032
274, 1, wb, filler, NA, 999, 999, 7, 4, 129, 121, 129, 152, 170, 161, 1, 0.512935
274, 1, wb, filler, NA, 999, 999, 7, 4, 129, 121, 129, 152, 170, 161, 3, 1.37931
274, 1, wb, attraction, a-b-db, 14, 3, 7, 5, 120, 195, 195, 120, 111, 181, 1, 0.553588
274, 1, wb, attraction, a-b-db, 14, 3, 7, 5, 120, 195, 195, 120, 111, 181, 3, 0.266635
274, 1, wb, attraction, a-b-da, 2, 3, 7, 6, 195, 120, 193, 119, 120, 195, 1, 0.509723
274, 1, wb, attraction, a-b-da, 2, 3, 7, 6, 195, 120, 193, 119, 120, 195, 3, 0.32039
274, 1, wb, attraction, a-b-da, 9, 2, 7, 7, 157, 86, 90, 165, 165, 90, 1, 0.473376
274, 1, wb, attraction, a-b-da, 9, 2, 7, 7, 157, 86, 90, 165, 165, 90, 3, 0.429308
274, 1, wb, attraction, a-b-da, 9, 3, 7, 8, 120, 195, 186, 114, 195, 120, 1, 0.322171
274, 1, wb, attraction, a-b-da, 9, 3, 7, 8, 120, 195, 186, 114, 195, 120, 3, 0.363705
274, 1, wb, attraction, a-b-da, 5, 1, 7, 9, 60, 135, 135, 60, 132, 58, 1, 0.592602
274, 1, wb, attraction, a-b-da, 5, 1, 7, 9, 60, 135, 135, 60, 132, 58, 3, 0.26592
274, 1, wb, attraction, a-b-db, 2, 2, 7, 10, 89, 163, 90, 165, 165, 90, 1, 1.12512
274, 1, wb, attraction, a-b-db, 2, 2, 7, 10, 89, 163, 90, 165, 165, 90, 2, 0.294755
274, 1, wb, attraction, a-b-da, 2, 1, 7, 11, 134, 59, 60, 135, 135, 60, 1, 0.384585
274, 1, wb, attraction, a-b-da, 2, 1, 7, 11, 134, 59, 60, 135, 135, 60, 2, 0.360461
274, 1, wb, filler, NA, 999, 999, 7, 12, 83, 149, 81, 190, 178, 74, 1, 0.447576
274, 1, wb, filler, NA, 999, 999, 7, 12, 83, 149, 81, 190, 178, 74, 2, 0.252821
274, 1, wb, filler, NA, 999, 999, 7, 13, 119, 95, 106, 124, 119, 113, 1, 0.424575
274, 1, wb, filler, NA, 999, 999, 7, 13, 119, 95, 106, 124, 119, 113, 2, 0.326529
274, 1, wb, attraction, a-b-db, 9, 1, 7, 14, 60, 135, 57, 129, 135, 60, 1, 0.478972
274, 1, wb, attraction, a-b-db, 9, 1, 7, 14, 60, 135, 57, 129, 135, 60, 2, 0.386781
274, 1, wb, catch, NA, 999, 999, 7, 15, 146, 109, 121, 194, 104, 91, 3, 1.05741
274, 1, wb, catch, NA, 999, 999, 7, 15, 146, 109, 121, 194, 104, 91, 2, 0.653589
274, 1, wb, attraction, a-b-da, 14, 1, 7, 16, 60, 135, 125, 56, 135, 60, 1, 0.649256
274, 1, wb, attraction, a-b-da, 14, 1, 7, 16, 60, 135, 125, 56, 135, 60, 3, 0.566413
274, 1, wb, filler, NA, 999, 999, 7, 17, 90, 193, 63, 184, 75, 171, 2, 1.02173
274, 1, wb, filler, NA, 999, 999, 7, 17, 90, 193, 63, 184, 75, 171, 1, 0.579273
274, 1, wb, attraction, a-b-da, 14, 3, 7, 18, 120, 195, 195, 120, 181, 111, 2, 0.561595
274, 1, wb, attraction, a-b-da, 14, 3, 7, 18, 120, 195, 195, 120, 181, 111, 3, 0.330232
274, 1, wb, catch, NA, 999, 999, 7, 19, 68, 127, 120, 135, 191, 124, 1, 0.554602
274, 1, wb, catch, NA, 999, 999, 7, 19, 68, 127, 120, 135, 191, 124, 2, 0.314972
274, 1, wb, attraction, a-b-db, 9, 3, 7, 20, 114, 186, 120, 195, 195, 120, 1, 0.548173
274, 1, wb, attraction, a-b-db, 9, 3, 7, 20, 114, 186, 120, 195, 195, 120, 2, 0.381364
274, 1, wb, attraction, a-b-db, 14, 1, 7, 21, 135, 60, 56, 125, 60, 135, 2, 0.88387
274, 1, wb, attraction, a-b-db, 14, 1, 7, 21, 135, 60, 56, 125, 60, 135, 1, 1.02366
274, 1, wb, attraction, a-b-db, 2, 3, 7, 22, 119, 193, 120, 195, 195, 120, 1, 0.779831
274, 1, wb, attraction, a-b-db, 2, 3, 7, 22, 119, 193, 120, 195, 195, 120, 3, 0.499664
274, 1, wb, attraction, a-b-db, 14, 2, 7, 23, 165, 90, 90, 165, 83, 153, 1, 0.693329
274, 1, wb, attraction, a-b-db, 14, 2, 7, 23, 165, 90, 90, 165, 83, 153, 3, 0.54447
274, 1, wb, filler, NA, 999, 999, 7, 24, 191, 179, 179, 93, 172, 158, 2, 0.736154
274, 1, wb, filler, NA, 999, 999, 7, 24, 191, 179, 179, 93, 172, 158, 1, 0.369934
274, 1, wb, filler, NA, 999, 999, 7, 25, 106, 179, 102, 152, 139, 194, 2, 0.465058
274, 1, wb, filler, NA, 999, 999, 7, 25, 106, 179, 102, 152, 139, 194, 3, 0.293524
274, 1, wb, attraction, a-b-da, 14, 2, 7, 26, 165, 90, 153, 83, 90, 165, 1, 0.391485
274, 1, wb, attraction, a-b-da, 14, 2, 7, 26, 165, 90, 153, 83, 90, 165, 3, 0.278573
274, 1, wb, attraction, a-b-da, 9, 1, 7, 27, 129, 57, 60, 135, 135, 60, 1, 0.817257
274, 1, wb, attraction, a-b-da, 9, 1, 7, 27, 129, 57, 60, 135, 135, 60, 2, 0.431573
274, 1, wb, attraction, a-b-db, 2, 1, 7, 28, 135, 60, 60, 135, 59, 134, 1, 0.468077
274, 1, wb, attraction, a-b-db, 2, 1, 7, 28, 135, 60, 60, 135, 59, 134, 3, 0.536518
274, 1, wb, attraction, a-b-db, 9, 2, 7, 29, 165, 90, 86, 157, 90, 165, 1, 0.521083
274, 1, wb, attraction, a-b-db, 9, 2, 7, 29, 165, 90, 86, 157, 90, 165, 2, 0.37141
274, 1, wb, filler, NA, 999, 999, 7, 30, 157, 158, 130, 76, 185, 105, 2, 0.818584
274, 1, wb, filler, NA, 999, 999, 7, 30, 157, 158, 130, 76, 185, 105, 1, 0.368919
274, 1, wb, catch, NA, 999, 999, 7, 31, 121, 194, 94, 161, 128, 67, 3, 0.856184
274, 1, wb, catch, NA, 999, 999, 7, 31, 121, 194, 94, 161, 128, 67, 1, 0.364472
274, 1, wb, attraction, a-b-db, 5, 3, 7, 32, 120, 195, 195, 120, 117, 190, 2, 0.595699
274, 1, wb, attraction, a-b-db, 5, 3, 7, 32, 120, 195, 195, 120, 117, 190, 3, 0.330896
274, 1, wb, attraction, a-b-db, 5, 2, 7, 33, 88, 161, 90, 165, 165, 90, 2, 0.475327
274, 1, wb, attraction, a-b-db, 5, 2, 7, 33, 88, 161, 90, 165, 165, 90, 3, 0.279052
274, 1, wb, attraction, a-b-db, 5, 1, 7, 34, 60, 135, 58, 132, 135, 60, 2, 0.401589
274, 1, wb, attraction, a-b-db, 5, 1, 7, 34, 60, 135, 58, 132, 135, 60, 3, 0.560963
274, 1, wb, filler, NA, 999, 999, 7, 35, 170, 185, 150, 89, 134, 156, 2, 0.839913
274, 1, wb, filler, NA, 999, 999, 7, 35, 170, 185, 150, 89, 134, 156, 1, 0.333097
274, 1, wb, filler, NA, 999, 999, 7, 36, 130, 85, 66, 189, 81, 113, 2, 0.5094
274, 1, wb, filler, NA, 999, 999, 7, 36, 130, 85, 66, 189, 81, 113, 3, 0.3199
274, 1, wb, attraction, a-b-da, 5, 3, 7, 37, 195, 120, 190, 117, 120, 195, 2, 0.529098
274, 1, wb, attraction, a-b-da, 5, 3, 7, 37, 195, 120, 190, 117, 120, 195, 3, 0.394944
274, 1, wb, filler, NA, 999, 999, 8, 1, 64, 97, 67, 73, 69, 116, 1, 0.752698
274, 1, wb, filler, NA, 999, 999, 8, 1, 64, 97, 67, 73, 69, 116, 3, 0.577863
274, 1, wb, attraction, a-b-db, 5, 2, 8, 2, 90, 165, 165, 90, 88, 161, 1, 0.528352
274, 1, wb, attraction, a-b-db, 5, 2, 8, 2, 90, 165, 165, 90, 88, 161, 3, 0.306051
274, 1, wb, attraction, a-b-da, 5, 1, 8, 3, 132, 58, 135, 60, 60, 135, 1, 0.555919
274, 1, wb, attraction, a-b-da, 5, 1, 8, 3, 132, 58, 135, 60, 60, 135, 2, 0.4284
274, 1, wb, attraction, a-b-da, 9, 2, 8, 4, 90, 165, 165, 90, 157, 86, 1, 0.480842
274, 1, wb, attraction, a-b-da, 9, 2, 8, 4, 90, 165, 165, 90, 157, 86, 3, 0.404686
274, 1, wb, attraction, a-b-da, 2, 3, 8, 5, 120, 195, 193, 119, 195, 120, 1, 0.594491
274, 1, wb, attraction, a-b-da, 2, 3, 8, 5, 120, 195, 193, 119, 195, 120, 3, 0.361724
274, 1, wb, attraction, a-b-db, 9, 1, 8, 6, 60, 135, 57, 129, 135, 60, 1, 0.384799
274, 1, wb, attraction, a-b-db, 9, 1, 8, 6, 60, 135, 57, 129, 135, 60, 3, 0.440769
274, 1, wb, attraction, a-b-db, 14, 3, 8, 7, 120, 195, 195, 120, 111, 181, 1, 0.436438
274, 1, wb, attraction, a-b-db, 14, 3, 8, 7, 120, 195, 195, 120, 111, 181, 3, 0.386299
274, 1, wb, catch, NA, 999, 999, 8, 8, 115, 80, 135, 180, 129, 126, 1, 0.42476
274, 1, wb, catch, NA, 999, 999, 8, 8, 115, 80, 135, 180, 129, 126, 2, 0.518591
274, 1, wb, filler, NA, 999, 999, 8, 9, 74, 186, 71, 193, 94, 134, 1, 0.463861
274, 1, wb, filler, NA, 999, 999, 8, 9, 74, 186, 71, 193, 94, 134, 2, 0.316283
274, 1, wb, filler, NA, 999, 999, 8, 10, 126, 180, 175, 180, 103, 177, 2, 0.493471
274, 1, wb, filler, NA, 999, 999, 8, 10, 126, 180, 175, 180, 103, 177, 3, 0.392569
274, 1, wb, attraction, a-b-da, 2, 2, 8, 11, 90, 165, 163, 89, 165, 90, 1, 0.406339
274, 1, wb, attraction, a-b-da, 2, 2, 8, 11, 90, 165, 163, 89, 165, 90, 2, 0.356881
274, 1, wb, attraction, a-b-db, 2, 1, 8, 12, 60, 135, 135, 60, 59, 134, 1, 0.332123
274, 1, wb, attraction, a-b-db, 2, 1, 8, 12, 60, 135, 135, 60, 59, 134, 2, 0.389915
274, 1, wb, attraction, a-b-db, 14, 1, 8, 13, 135, 60, 60, 135, 56, 125, 1, 0.900328
274, 1, wb, attraction, a-b-db, 14, 1, 8, 13, 135, 60, 60, 135, 56, 125, 2, 0.359426
274, 1, wb, filler, NA, 999, 999, 8, 14, 153, 169, 64, 145, 134, 134, 1, 0.342563
274, 1, wb, filler, NA, 999, 999, 8, 14, 153, 169, 64, 145, 134, 134, 2, 1.03982
274, 1, wb, filler, NA, 999, 999, 8, 15, 192, 130, 132, 136, 124, 172, 2, 0.648852
274, 1, wb, filler, NA, 999, 999, 8, 15, 192, 130, 132, 136, 124, 172, 1, 0.313108
274, 1, wb, catch, NA, 999, 999, 8, 16, 133, 62, 143, 112, 181, 134, 1, 0.858361
274, 1, wb, catch, NA, 999, 999, 8, 16, 133, 62, 143, 112, 181, 134, 2, 0.358728
274, 1, wb, attraction, a-b-db, 9, 2, 8, 17, 90, 165, 86, 157, 165, 90, 1, 0.589851
274, 1, wb, attraction, a-b-db, 9, 2, 8, 17, 90, 165, 86, 157, 165, 90, 2, 0.349015
274, 1, wb, attraction, a-b-da, 14, 3, 8, 18, 120, 195, 195, 120, 181, 111, 1, 0.564793
274, 1, wb, attraction, a-b-da, 14, 3, 8, 18, 120, 195, 195, 120, 181, 111, 2, 0.421506
274, 1, wb, attraction, a-b-da, 5, 3, 8, 19, 195, 120, 120, 195, 190, 117, 1, 0.594469
274, 1, wb, attraction, a-b-da, 5, 3, 8, 19, 195, 120, 120, 195, 190, 117, 2, 0.537483
274, 1, wb, attraction, a-b-da, 5, 2, 8, 20, 165, 90, 90, 165, 161, 88, 1, 0.746003
274, 1, wb, attraction, a-b-da, 5, 2, 8, 20, 165, 90, 90, 165, 161, 88, 2, 0.579101
274, 1, wb, attraction, a-b-da, 9, 3, 8, 21, 195, 120, 120, 195, 186, 114, 2, 0.785493
274, 1, wb, attraction, a-b-da, 9, 3, 8, 21, 195, 120, 120, 195, 186, 114, 3, 0.42524
274, 1, wb, filler, NA, 999, 999, 8, 22, 134, 160, 108, 108, 76, 118, 3, 1.36567
274, 1, wb, filler, NA, 999, 999, 8, 22, 134, 160, 108, 108, 76, 118, 1, 0.501919
274, 1, wb, attraction, a-b-db, 2, 3, 8, 23, 120, 195, 119, 193, 195, 120, 2, 0.495722
274, 1, wb, attraction, a-b-db, 2, 3, 8, 23, 120, 195, 119, 193, 195, 120, 3, 0.34687
274, 1, wb, attraction, a-b-db, 2, 2, 8, 24, 165, 90, 90, 165, 89, 163, 2, 1.3946
274, 1, wb, attraction, a-b-db, 2, 2, 8, 24, 165, 90, 90, 165, 89, 163, 3, 0.393629
274, 1, wb, filler, NA, 999, 999, 8, 25, 84, 179, 110, 119, 157, 90, 2, 1.13546
274, 1, wb, filler, NA, 999, 999, 8, 25, 84, 179, 110, 119, 157, 90, 1, 0.609071
274, 1, wb, attraction, a-b-da, 14, 2, 8, 26, 153, 83, 165, 90, 90, 165, 1, 1.07803
274, 1, wb, attraction, a-b-da, 14, 2, 8, 26, 153, 83, 165, 90, 90, 165, 3, 0.681742
274, 1, wb, attraction, a-b-da, 2, 1, 8, 27, 60, 135, 134, 59, 135, 60, 1, 0.500088
274, 1, wb, attraction, a-b-da, 2, 1, 8, 27, 60, 135, 134, 59, 135, 60, 3, 0.423447
274, 1, wb, filler, NA, 999, 999, 8, 28, 153, 107, 59, 90, 161, 171, 1, 0.283749
274, 1, wb, filler, NA, 999, 999, 8, 28, 153, 107, 59, 90, 161, 171, 3, 0.327905
274, 1, wb, filler, NA, 999, 999, 8, 29, 75, 140, 75, 182, 195, 102, 2, 0.376116
274, 1, wb, filler, NA, 999, 999, 8, 29, 75, 140, 75, 182, 195, 102, 3, 0.327999
274, 1, wb, attraction, a-b-db, 5, 1, 8, 30, 58, 132, 60, 135, 135, 60, 2, 0.416486
274, 1, wb, attraction, a-b-db, 5, 1, 8, 30, 58, 132, 60, 135, 135, 60, 3, 0.623021
274, 1, wb, attraction, a-b-db, 14, 2, 8, 31, 165, 90, 90, 165, 83, 153, 1, 0.524045
274, 1, wb, attraction, a-b-db, 14, 2, 8, 31, 165, 90, 90, 165, 83, 153, 2, 0.373809
274, 1, wb, filler, NA, 999, 999, 8, 32, 69, 64, 134, 114, 85, 192, 1, 0.340486
274, 1, wb, filler, NA, 999, 999, 8, 32, 69, 64, 134, 114, 85, 192, 2, 0.461561
274, 1, wb, attraction, a-b-db, 9, 3, 8, 33, 195, 120, 114, 186, 120, 195, 1, 0.360781
274, 1, wb, attraction, a-b-db, 9, 3, 8, 33, 195, 120, 114, 186, 120, 195, 2, 0.37725
274, 1, wb, attraction, a-b-da, 14, 1, 8, 34, 135, 60, 60, 135, 125, 56, 1, 0.591703
274, 1, wb, attraction, a-b-da, 14, 1, 8, 34, 135, 60, 60, 135, 125, 56, 2, 0.518874
274, 1, wb, attraction, a-b-da, 9, 1, 8, 35, 135, 60, 60, 135, 129, 57, 1, 0.503933
274, 1, wb, attraction, a-b-da, 9, 1, 8, 35, 135, 60, 60, 135, 129, 57, 2, 0.563245
274, 1, wb, catch, NA, 999, 999, 8, 36, 189, 126, 142, 113, 105, 90, 3, 0.962263
274, 1, wb, catch, NA, 999, 999, 8, 36, 189, 126, 142, 113, 105, 90, 1, 0.57857
274, 1, wb, attraction, a-b-db, 5, 3, 8, 37, 195, 120, 120, 195, 117, 190, 3, 0.481081
274, 1, wb, attraction, a-b-db, 5, 3, 8, 37, 195, 120, 120, 195, 117, 190, 1, 0.804776
