sub_n, computer_n, bw_cond, effect, set, distance, diag, block_n, trial_n, h1, w1, h2, w2, h3, w3, choice, rt 
282, 1, wb, practice, NA, 999, 999, 0, 1, 121, 150, 99, 142, 138, 83, 3, 5.86294
282, 1, wb, practice, NA, 999, 999, 0, 1, 121, 150, 99, 142, 138, 83, 1, 3.0984
282, 1, wb, practice, NA, 999, 999, 0, 2, 110, 70, 75, 192, 70, 172, 1, 2.40817
282, 1, wb, practice, NA, 999, 999, 0, 2, 110, 70, 75, 192, 70, 172, 2, 2.34252
282, 1, wb, practice, NA, 999, 999, 0, 3, 113, 144, 174, 62, 183, 68, 2, 3.29175
282, 1, wb, practice, NA, 999, 999, 0, 3, 113, 144, 174, 62, 183, 68, 1, 2.27886
282, 1, wb, attraction, a-b-da, 9, 1, 1, 1, 129, 57, 135, 60, 60, 135, 1, 4.58145
282, 1, wb, attraction, a-b-da, 9, 1, 1, 1, 129, 57, 135, 60, 60, 135, 3, 2.36406
282, 1, wb, attraction, a-b-da, 9, 2, 1, 2, 90, 165, 165, 90, 157, 86, 3, 3.56271
282, 1, wb, attraction, a-b-da, 9, 2, 1, 2, 90, 165, 165, 90, 157, 86, 1, 0.898111
282, 1, wb, attraction, a-b-da, 2, 1, 1, 3, 134, 59, 135, 60, 60, 135, 2, 4.37984
282, 1, wb, attraction, a-b-da, 2, 1, 1, 3, 134, 59, 135, 60, 60, 135, 3, 2.09845
282, 1, wb, catch, NA, 999, 999, 1, 4, 121, 194, 63, 132, 90, 165, 2, 1.77981
282, 1, wb, catch, NA, 999, 999, 1, 4, 121, 194, 63, 132, 90, 165, 1, 0.707188
282, 1, wb, attraction, a-b-da, 5, 2, 1, 5, 161, 88, 90, 165, 165, 90, 1, 2.79668
282, 1, wb, attraction, a-b-da, 5, 2, 1, 5, 161, 88, 90, 165, 165, 90, 2, 0.818557
282, 1, wb, attraction, a-b-db, 5, 2, 1, 6, 90, 165, 165, 90, 88, 161, 1, 5.67154
282, 1, wb, attraction, a-b-db, 5, 2, 1, 6, 90, 165, 165, 90, 88, 161, 3, 2.64255
282, 1, wb, attraction, a-b-da, 5, 3, 1, 7, 120, 195, 195, 120, 190, 117, 3, 3.30164
282, 1, wb, attraction, a-b-da, 5, 3, 1, 7, 120, 195, 195, 120, 190, 117, 2, 1.44016
282, 1, wb, filler, NA, 999, 999, 1, 8, 142, 190, 178, 172, 190, 67, 3, 2.09147
282, 1, wb, filler, NA, 999, 999, 1, 8, 142, 190, 178, 172, 190, 67, 2, 1.15814
282, 1, wb, attraction, a-b-db, 2, 2, 1, 9, 89, 163, 165, 90, 90, 165, 2, 2.59694
282, 1, wb, attraction, a-b-db, 2, 2, 1, 9, 89, 163, 165, 90, 90, 165, 3, 1.92361
282, 1, wb, filler, NA, 999, 999, 1, 10, 75, 148, 130, 76, 95, 146, 2, 6.22813
282, 1, wb, filler, NA, 999, 999, 1, 10, 75, 148, 130, 76, 95, 146, 3, 1.86418
282, 1, wb, attraction, a-b-da, 14, 3, 1, 11, 195, 120, 181, 111, 120, 195, 1, 2.68283
282, 1, wb, attraction, a-b-da, 14, 3, 1, 11, 195, 120, 181, 111, 120, 195, 3, 0.862109
282, 1, wb, filler, NA, 999, 999, 1, 12, 157, 183, 182, 151, 80, 162, 3, 1.69699
282, 1, wb, filler, NA, 999, 999, 1, 12, 157, 183, 182, 151, 80, 162, 1, 0.443662
282, 1, wb, attraction, a-b-db, 9, 1, 1, 13, 60, 135, 135, 60, 57, 129, 3, 2.52766
282, 1, wb, attraction, a-b-db, 9, 1, 1, 13, 60, 135, 135, 60, 57, 129, 2, 1.13671
282, 1, wb, attraction, a-b-db, 5, 1, 1, 14, 58, 132, 135, 60, 60, 135, 1, 2.97697
282, 1, wb, attraction, a-b-db, 5, 1, 1, 14, 58, 132, 135, 60, 60, 135, 3, 1.1361
282, 1, wb, attraction, a-b-db, 14, 1, 1, 15, 135, 60, 60, 135, 56, 125, 3, 1.72825
282, 1, wb, attraction, a-b-db, 14, 1, 1, 15, 135, 60, 60, 135, 56, 125, 1, 0.857674
282, 1, wb, catch, NA, 999, 999, 1, 16, 110, 85, 130, 185, 135, 120, 1, 1.15675
282, 1, wb, catch, NA, 999, 999, 1, 16, 110, 85, 130, 185, 135, 120, 2, 0.917009
282, 1, wb, filler, NA, 999, 999, 1, 17, 106, 91, 82, 81, 137, 116, 2, 1.38188
282, 1, wb, filler, NA, 999, 999, 1, 17, 106, 91, 82, 81, 137, 116, 3, 0.397573
282, 1, wb, attraction, a-b-da, 14, 2, 1, 18, 165, 90, 90, 165, 153, 83, 3, 1.45134
282, 1, wb, attraction, a-b-da, 14, 2, 1, 18, 165, 90, 90, 165, 153, 83, 2, 0.68839
282, 1, wb, filler, NA, 999, 999, 1, 19, 132, 195, 77, 165, 135, 152, 2, 2.12258
282, 1, wb, filler, NA, 999, 999, 1, 19, 132, 195, 77, 165, 135, 152, 1, 0.467913
282, 1, wb, attraction, a-b-db, 14, 3, 1, 20, 111, 181, 120, 195, 195, 120, 1, 1.81505
282, 1, wb, attraction, a-b-db, 14, 3, 1, 20, 111, 181, 120, 195, 195, 120, 3, 1.45304
282, 1, wb, attraction, a-b-da, 2, 2, 1, 21, 165, 90, 163, 89, 90, 165, 1, 1.89659
282, 1, wb, attraction, a-b-da, 2, 2, 1, 21, 165, 90, 163, 89, 90, 165, 2, 1.94739
282, 1, wb, attraction, a-b-da, 14, 1, 1, 22, 125, 56, 135, 60, 60, 135, 1, 1.9306
282, 1, wb, attraction, a-b-da, 14, 1, 1, 22, 125, 56, 135, 60, 60, 135, 3, 0.915946
282, 1, wb, attraction, a-b-db, 9, 2, 1, 23, 86, 157, 165, 90, 90, 165, 1, 0.812886
282, 1, wb, attraction, a-b-db, 9, 2, 1, 23, 86, 157, 165, 90, 90, 165, 2, 0.82743
282, 1, wb, filler, NA, 999, 999, 1, 24, 66, 78, 100, 60, 60, 82, 1, 2.15974
282, 1, wb, filler, NA, 999, 999, 1, 24, 66, 78, 100, 60, 60, 82, 2, 1.00778
282, 1, wb, filler, NA, 999, 999, 1, 25, 148, 129, 103, 101, 166, 106, 2, 3.46872
282, 1, wb, filler, NA, 999, 999, 1, 25, 148, 129, 103, 101, 166, 106, 1, 0.696308
282, 1, wb, attraction, a-b-db, 9, 3, 1, 26, 120, 195, 114, 186, 195, 120, 1, 1.68195
282, 1, wb, attraction, a-b-db, 9, 3, 1, 26, 120, 195, 114, 186, 195, 120, 2, 0.573364
282, 1, wb, filler, NA, 999, 999, 1, 27, 154, 71, 86, 185, 155, 107, 1, 1.1718
282, 1, wb, filler, NA, 999, 999, 1, 27, 154, 71, 86, 185, 155, 107, 3, 0.811417
282, 1, wb, attraction, a-b-da, 2, 3, 1, 28, 120, 195, 193, 119, 195, 120, 3, 1.10449
282, 1, wb, attraction, a-b-da, 2, 3, 1, 28, 120, 195, 193, 119, 195, 120, 2, 0.60277
282, 1, wb, filler, NA, 999, 999, 1, 29, 146, 189, 160, 86, 85, 56, 3, 1.29641
282, 1, wb, filler, NA, 999, 999, 1, 29, 146, 189, 160, 86, 85, 56, 1, 0.58743
282, 1, wb, attraction, a-b-db, 2, 1, 1, 30, 135, 60, 59, 134, 60, 135, 1, 2.09784
282, 1, wb, attraction, a-b-db, 2, 1, 1, 30, 135, 60, 59, 134, 60, 135, 3, 0.660425
282, 1, wb, attraction, a-b-db, 14, 2, 1, 31, 83, 153, 90, 165, 165, 90, 1, 0.919532
282, 1, wb, attraction, a-b-db, 14, 2, 1, 31, 83, 153, 90, 165, 165, 90, 2, 0.633863
282, 1, wb, attraction, a-b-da, 5, 1, 1, 32, 132, 58, 135, 60, 60, 135, 1, 0.750245
282, 1, wb, attraction, a-b-da, 5, 1, 1, 32, 132, 58, 135, 60, 60, 135, 3, 1.2234
282, 1, wb, catch, NA, 999, 999, 1, 33, 102, 153, 64, 131, 190, 125, 2, 0.788269
282, 1, wb, catch, NA, 999, 999, 1, 33, 102, 153, 64, 131, 190, 125, 3, 0.435447
282, 1, wb, attraction, a-b-db, 2, 3, 1, 34, 195, 120, 120, 195, 119, 193, 1, 0.839898
282, 1, wb, attraction, a-b-db, 2, 3, 1, 34, 195, 120, 120, 195, 119, 193, 2, 0.340804
282, 1, wb, filler, NA, 999, 999, 1, 35, 188, 188, 192, 166, 105, 134, 3, 0.700714
282, 1, wb, filler, NA, 999, 999, 1, 35, 188, 188, 192, 166, 105, 134, 1, 0.407714
282, 1, wb, attraction, a-b-da, 9, 3, 1, 36, 186, 114, 195, 120, 120, 195, 1, 1.10111
282, 1, wb, attraction, a-b-da, 9, 3, 1, 36, 186, 114, 195, 120, 120, 195, 3, 0.807926
282, 1, wb, attraction, a-b-db, 5, 3, 1, 37, 120, 195, 117, 190, 195, 120, 1, 1.61291
282, 1, wb, attraction, a-b-db, 5, 3, 1, 37, 120, 195, 117, 190, 195, 120, 2, 0.915179
282, 1, wb, attraction, a-b-da, 14, 1, 2, 1, 135, 60, 125, 56, 60, 135, 2, 2.61202
282, 1, wb, attraction, a-b-da, 14, 1, 2, 1, 135, 60, 125, 56, 60, 135, 3, 1.09792
282, 1, wb, filler, NA, 999, 999, 2, 2, 154, 61, 137, 98, 145, 120, 1, 2.37943
282, 1, wb, filler, NA, 999, 999, 2, 2, 154, 61, 137, 98, 145, 120, 3, 0.51475
282, 1, wb, attraction, a-b-db, 2, 3, 2, 3, 119, 193, 120, 195, 195, 120, 3, 1.24371
282, 1, wb, attraction, a-b-db, 2, 3, 2, 3, 119, 193, 120, 195, 195, 120, 2, 0.448644
282, 1, wb, filler, NA, 999, 999, 2, 4, 168, 160, 88, 115, 93, 81, 3, 0.764545
282, 1, wb, filler, NA, 999, 999, 2, 4, 168, 160, 88, 115, 93, 81, 1, 0.396818
282, 1, wb, attraction, a-b-da, 2, 2, 2, 5, 163, 89, 90, 165, 165, 90, 1, 1.09877
282, 1, wb, attraction, a-b-da, 2, 2, 2, 5, 163, 89, 90, 165, 165, 90, 2, 0.621744
282, 1, wb, attraction, a-b-da, 5, 1, 2, 6, 135, 60, 132, 58, 60, 135, 3, 0.858778
282, 1, wb, attraction, a-b-da, 5, 1, 2, 6, 135, 60, 132, 58, 60, 135, 1, 1.42318
282, 1, wb, filler, NA, 999, 999, 2, 7, 167, 194, 168, 97, 154, 91, 3, 0.859927
282, 1, wb, filler, NA, 999, 999, 2, 7, 167, 194, 168, 97, 154, 91, 1, 0.384223
282, 1, wb, catch, NA, 999, 999, 2, 8, 162, 93, 95, 100, 139, 176, 2, 0.686794
282, 1, wb, catch, NA, 999, 999, 2, 8, 162, 93, 95, 100, 139, 176, 3, 0.322484
282, 1, wb, attraction, a-b-db, 9, 2, 2, 9, 86, 157, 90, 165, 165, 90, 3, 2.79571
282, 1, wb, attraction, a-b-db, 9, 2, 2, 9, 86, 157, 90, 165, 165, 90, 2, 0.570114
282, 1, wb, catch, NA, 999, 999, 2, 10, 90, 165, 151, 164, 133, 62, 3, 1.02534
282, 1, wb, catch, NA, 999, 999, 2, 10, 90, 165, 151, 164, 133, 62, 2, 0.766885
282, 1, wb, attraction, a-b-db, 14, 2, 2, 11, 165, 90, 83, 153, 90, 165, 2, 1.9019
282, 1, wb, attraction, a-b-db, 14, 2, 2, 11, 165, 90, 83, 153, 90, 165, 3, 1.0167
282, 1, wb, attraction, a-b-db, 2, 1, 2, 12, 59, 134, 60, 135, 135, 60, 1, 1.74962
282, 1, wb, attraction, a-b-db, 2, 1, 2, 12, 59, 134, 60, 135, 135, 60, 2, 0.670548
282, 1, wb, filler, NA, 999, 999, 2, 13, 102, 146, 91, 115, 122, 190, 2, 1.48946
282, 1, wb, filler, NA, 999, 999, 2, 13, 102, 146, 91, 115, 122, 190, 3, 0.540366
282, 1, wb, attraction, a-b-db, 5, 2, 2, 14, 90, 165, 88, 161, 165, 90, 2, 2.07618
282, 1, wb, attraction, a-b-db, 5, 2, 2, 14, 90, 165, 88, 161, 165, 90, 3, 0.511429
282, 1, wb, filler, NA, 999, 999, 2, 15, 139, 57, 77, 124, 129, 166, 1, 0.872499
282, 1, wb, filler, NA, 999, 999, 2, 15, 139, 57, 77, 124, 129, 166, 3, 0.356188
282, 1, wb, attraction, a-b-da, 14, 2, 2, 16, 165, 90, 153, 83, 90, 165, 2, 0.756032
282, 1, wb, attraction, a-b-da, 14, 2, 2, 16, 165, 90, 153, 83, 90, 165, 1, 0.348456
282, 1, wb, attraction, a-b-da, 5, 3, 2, 17, 120, 195, 195, 120, 190, 117, 2, 0.852276
282, 1, wb, attraction, a-b-da, 5, 3, 2, 17, 120, 195, 195, 120, 190, 117, 1, 0.913336
282, 1, wb, attraction, a-b-da, 9, 1, 2, 18, 135, 60, 60, 135, 129, 57, 3, 0.962328
282, 1, wb, attraction, a-b-da, 9, 1, 2, 18, 135, 60, 60, 135, 129, 57, 2, 1.22671
282, 1, wb, attraction, a-b-da, 5, 2, 2, 19, 161, 88, 90, 165, 165, 90, 1, 0.974869
282, 1, wb, attraction, a-b-da, 5, 2, 2, 19, 161, 88, 90, 165, 165, 90, 2, 0.45449
282, 1, wb, attraction, a-b-da, 2, 1, 2, 20, 135, 60, 134, 59, 60, 135, 3, 0.97826
282, 1, wb, attraction, a-b-da, 2, 1, 2, 20, 135, 60, 134, 59, 60, 135, 2, 0.858116
282, 1, wb, filler, NA, 999, 999, 2, 21, 113, 122, 153, 194, 98, 142, 3, 1.46901
282, 1, wb, filler, NA, 999, 999, 2, 21, 113, 122, 153, 194, 98, 142, 2, 0.449246
282, 1, wb, attraction, a-b-db, 5, 3, 2, 22, 195, 120, 120, 195, 117, 190, 2, 1.06907
282, 1, wb, attraction, a-b-db, 5, 3, 2, 22, 195, 120, 120, 195, 117, 190, 1, 0.449365
282, 1, wb, attraction, a-b-db, 9, 1, 2, 23, 60, 135, 135, 60, 57, 129, 1, 0.973094
282, 1, wb, attraction, a-b-db, 9, 1, 2, 23, 60, 135, 135, 60, 57, 129, 3, 0.924736
282, 1, wb, filler, NA, 999, 999, 2, 24, 176, 184, 88, 187, 94, 67, 3, 1.14916
282, 1, wb, filler, NA, 999, 999, 2, 24, 176, 184, 88, 187, 94, 67, 1, 0.702018
282, 1, wb, attraction, a-b-db, 14, 1, 2, 25, 60, 135, 135, 60, 56, 125, 3, 3.46383
282, 1, wb, attraction, a-b-db, 14, 1, 2, 25, 60, 135, 135, 60, 56, 125, 2, 0.723362
282, 1, wb, attraction, a-b-da, 9, 3, 2, 26, 186, 114, 120, 195, 195, 120, 1, 0.907691
282, 1, wb, attraction, a-b-da, 9, 3, 2, 26, 186, 114, 120, 195, 195, 120, 2, 0.622129
282, 1, wb, filler, NA, 999, 999, 2, 27, 113, 82, 63, 149, 81, 137, 1, 0.771153
282, 1, wb, filler, NA, 999, 999, 2, 27, 113, 82, 63, 149, 81, 137, 3, 1.93167
282, 1, wb, filler, NA, 999, 999, 2, 28, 171, 165, 127, 127, 112, 89, 3, 1.07557
282, 1, wb, filler, NA, 999, 999, 2, 28, 171, 165, 127, 127, 112, 89, 1, 0.407334
282, 1, wb, attraction, a-b-db, 5, 1, 2, 29, 58, 132, 60, 135, 135, 60, 1, 2.06044
282, 1, wb, attraction, a-b-db, 5, 1, 2, 29, 58, 132, 60, 135, 135, 60, 3, 1.93631
282, 1, wb, attraction, a-b-da, 9, 2, 2, 30, 157, 86, 165, 90, 90, 165, 1, 1.24822
282, 1, wb, attraction, a-b-da, 9, 2, 2, 30, 157, 86, 165, 90, 90, 165, 3, 0.325197
282, 1, wb, catch, NA, 999, 999, 2, 31, 145, 110, 73, 122, 192, 123, 2, 0.653672
282, 1, wb, catch, NA, 999, 999, 2, 31, 145, 110, 73, 122, 192, 123, 3, 0.386853
282, 1, wb, attraction, a-b-da, 2, 3, 2, 32, 120, 195, 193, 119, 195, 120, 1, 0.873309
282, 1, wb, attraction, a-b-da, 2, 3, 2, 32, 120, 195, 193, 119, 195, 120, 2, 0.644987
282, 1, wb, attraction, a-b-db, 14, 3, 2, 33, 120, 195, 195, 120, 111, 181, 1, 1.27275
282, 1, wb, attraction, a-b-db, 14, 3, 2, 33, 120, 195, 195, 120, 111, 181, 2, 0.612759
282, 1, wb, attraction, a-b-db, 2, 2, 2, 34, 89, 163, 90, 165, 165, 90, 3, 3.12947
282, 1, wb, attraction, a-b-db, 2, 2, 2, 34, 89, 163, 90, 165, 165, 90, 2, 0.650428
282, 1, wb, filler, NA, 999, 999, 2, 35, 109, 140, 60, 85, 119, 186, 2, 0.750289
282, 1, wb, filler, NA, 999, 999, 2, 35, 109, 140, 60, 85, 119, 186, 3, 0.791231
282, 1, wb, attraction, a-b-da, 14, 3, 2, 36, 181, 111, 195, 120, 120, 195, 3, 1.30085
282, 1, wb, attraction, a-b-da, 14, 3, 2, 36, 181, 111, 195, 120, 120, 195, 2, 0.431794
282, 1, wb, attraction, a-b-db, 9, 3, 2, 37, 114, 186, 195, 120, 120, 195, 1, 0.908625
282, 1, wb, attraction, a-b-db, 9, 3, 2, 37, 114, 186, 195, 120, 120, 195, 2, 0.358649
282, 1, wb, attraction, a-b-db, 5, 3, 3, 1, 117, 190, 120, 195, 195, 120, 1, 1.02189
282, 1, wb, attraction, a-b-db, 5, 3, 3, 1, 117, 190, 120, 195, 195, 120, 2, 0.347601
282, 1, wb, attraction, a-b-da, 14, 1, 3, 2, 125, 56, 60, 135, 135, 60, 1, 1.57132
282, 1, wb, attraction, a-b-da, 14, 1, 3, 2, 125, 56, 60, 135, 135, 60, 2, 0.658783
282, 1, wb, attraction, a-b-da, 5, 3, 3, 3, 190, 117, 195, 120, 120, 195, 1, 1.10191
282, 1, wb, attraction, a-b-da, 5, 3, 3, 3, 190, 117, 195, 120, 120, 195, 3, 1.24891
282, 1, wb, attraction, a-b-da, 9, 3, 3, 4, 195, 120, 120, 195, 186, 114, 3, 1.88431
282, 1, wb, attraction, a-b-da, 9, 3, 3, 4, 195, 120, 120, 195, 186, 114, 1, 0.423835
282, 1, wb, attraction, a-b-db, 9, 2, 3, 5, 90, 165, 165, 90, 86, 157, 3, 3.23635
282, 1, wb, attraction, a-b-db, 9, 2, 3, 5, 90, 165, 165, 90, 86, 157, 2, 2.22534
282, 1, wb, filler, NA, 999, 999, 3, 6, 156, 143, 185, 91, 68, 114, 3, 0.853131
282, 1, wb, filler, NA, 999, 999, 3, 6, 156, 143, 185, 91, 68, 114, 1, 0.858182
282, 1, wb, filler, NA, 999, 999, 3, 7, 117, 69, 149, 57, 120, 113, 1, 0.933098
282, 1, wb, filler, NA, 999, 999, 3, 7, 117, 69, 149, 57, 120, 113, 3, 0.46288
282, 1, wb, filler, NA, 999, 999, 3, 8, 142, 153, 111, 121, 188, 163, 2, 1.08197
282, 1, wb, filler, NA, 999, 999, 3, 8, 142, 153, 111, 121, 188, 163, 3, 0.373724
282, 1, wb, attraction, a-b-db, 2, 2, 3, 9, 90, 165, 89, 163, 165, 90, 1, 4.43607
282, 1, wb, attraction, a-b-db, 2, 2, 3, 9, 90, 165, 89, 163, 165, 90, 3, 0.808729
282, 1, wb, attraction, a-b-db, 9, 3, 3, 10, 195, 120, 120, 195, 114, 186, 2, 2.74171
282, 1, wb, attraction, a-b-db, 9, 3, 3, 10, 195, 120, 120, 195, 114, 186, 1, 1.31026
282, 1, wb, filler, NA, 999, 999, 3, 11, 77, 171, 102, 76, 159, 152, 2, 0.583045
282, 1, wb, filler, NA, 999, 999, 3, 11, 77, 171, 102, 76, 159, 152, 3, 0.358755
282, 1, wb, attraction, a-b-db, 14, 1, 3, 12, 56, 125, 60, 135, 135, 60, 1, 0.934091
282, 1, wb, attraction, a-b-db, 14, 1, 3, 12, 56, 125, 60, 135, 135, 60, 2, 1.0717
282, 1, wb, attraction, a-b-db, 5, 1, 3, 13, 135, 60, 58, 132, 60, 135, 2, 0.86663
282, 1, wb, attraction, a-b-db, 5, 1, 3, 13, 135, 60, 58, 132, 60, 135, 3, 1.07101
282, 1, wb, filler, NA, 999, 999, 3, 14, 95, 186, 77, 135, 136, 63, 2, 1.13788
282, 1, wb, filler, NA, 999, 999, 3, 14, 95, 186, 77, 135, 136, 63, 1, 0.715575
282, 1, wb, catch, NA, 999, 999, 3, 15, 133, 122, 76, 119, 123, 192, 2, 0.820572
282, 1, wb, catch, NA, 999, 999, 3, 15, 133, 122, 76, 119, 123, 192, 1, 0.539101
282, 1, wb, filler, NA, 999, 999, 3, 16, 68, 103, 85, 109, 140, 73, 1, 2.49937
282, 1, wb, filler, NA, 999, 999, 3, 16, 68, 103, 85, 109, 140, 73, 3, 2.44597
282, 1, wb, filler, NA, 999, 999, 3, 17, 91, 140, 184, 195, 187, 166, 1, 0.665058
282, 1, wb, filler, NA, 999, 999, 3, 17, 91, 140, 184, 195, 187, 166, 2, 0.485493
282, 1, wb, attraction, a-b-db, 9, 1, 3, 18, 57, 129, 60, 135, 135, 60, 1, 1.03998
282, 1, wb, attraction, a-b-db, 9, 1, 3, 18, 57, 129, 60, 135, 135, 60, 3, 1.81294
282, 1, wb, catch, NA, 999, 999, 3, 19, 139, 116, 122, 193, 89, 106, 3, 0.93768
282, 1, wb, catch, NA, 999, 999, 3, 19, 139, 116, 122, 193, 89, 106, 2, 0.8668
282, 1, wb, attraction, a-b-db, 14, 3, 3, 20, 111, 181, 120, 195, 195, 120, 1, 0.861675
282, 1, wb, attraction, a-b-db, 14, 3, 3, 20, 111, 181, 120, 195, 195, 120, 2, 0.882036
282, 1, wb, attraction, a-b-da, 5, 2, 3, 21, 90, 165, 165, 90, 161, 88, 1, 1.43631
282, 1, wb, attraction, a-b-da, 5, 2, 3, 21, 90, 165, 165, 90, 161, 88, 2, 0.61008
282, 1, wb, attraction, a-b-da, 9, 1, 3, 22, 135, 60, 60, 135, 129, 57, 1, 0.863065
282, 1, wb, attraction, a-b-da, 9, 1, 3, 22, 135, 60, 60, 135, 129, 57, 2, 0.459441
282, 1, wb, attraction, a-b-db, 5, 2, 3, 23, 90, 165, 88, 161, 165, 90, 1, 1.11861
282, 1, wb, attraction, a-b-db, 5, 2, 3, 23, 90, 165, 88, 161, 165, 90, 3, 2.39287
282, 1, wb, filler, NA, 999, 999, 3, 24, 99, 74, 164, 77, 133, 124, 1, 0.757921
282, 1, wb, filler, NA, 999, 999, 3, 24, 99, 74, 164, 77, 133, 124, 3, 0.446371
282, 1, wb, filler, NA, 999, 999, 3, 25, 189, 171, 56, 155, 56, 71, 3, 0.938273
282, 1, wb, filler, NA, 999, 999, 3, 25, 189, 171, 56, 155, 56, 71, 1, 0.41918
282, 1, wb, catch, NA, 999, 999, 3, 26, 90, 165, 184, 131, 90, 105, 3, 1.15236
282, 1, wb, catch, NA, 999, 999, 3, 26, 90, 165, 184, 131, 90, 105, 2, 0.417254
282, 1, wb, attraction, a-b-da, 2, 2, 3, 27, 163, 89, 165, 90, 90, 165, 1, 0.798365
282, 1, wb, attraction, a-b-da, 2, 2, 3, 27, 163, 89, 165, 90, 90, 165, 2, 0.581494
282, 1, wb, attraction, a-b-da, 9, 2, 3, 28, 165, 90, 157, 86, 90, 165, 1, 0.883852
282, 1, wb, attraction, a-b-da, 9, 2, 3, 28, 165, 90, 157, 86, 90, 165, 3, 1.01566
282, 1, wb, attraction, a-b-da, 2, 1, 3, 29, 135, 60, 134, 59, 60, 135, 3, 2.80451
282, 1, wb, attraction, a-b-da, 2, 1, 3, 29, 135, 60, 134, 59, 60, 135, 2, 1.41098
282, 1, wb, attraction, a-b-db, 2, 1, 3, 30, 135, 60, 59, 134, 60, 135, 3, 4.29593
282, 1, wb, attraction, a-b-db, 2, 1, 3, 30, 135, 60, 59, 134, 60, 135, 1, 0.71375
282, 1, wb, attraction, a-b-db, 14, 2, 3, 31, 90, 165, 165, 90, 83, 153, 3, 2.97886
282, 1, wb, attraction, a-b-db, 14, 2, 3, 31, 90, 165, 165, 90, 83, 153, 2, 0.689995
282, 1, wb, attraction, a-b-db, 2, 3, 3, 32, 120, 195, 119, 193, 195, 120, 2, 7.71624
282, 1, wb, attraction, a-b-db, 2, 3, 3, 32, 120, 195, 119, 193, 195, 120, 3, 0.636473
282, 1, wb, attraction, a-b-da, 2, 3, 3, 33, 193, 119, 195, 120, 120, 195, 1, 1.51297
282, 1, wb, attraction, a-b-da, 2, 3, 3, 33, 193, 119, 195, 120, 120, 195, 3, 0.323089
282, 1, wb, attraction, a-b-da, 14, 2, 3, 34, 90, 165, 153, 83, 165, 90, 2, 2.95635
282, 1, wb, attraction, a-b-da, 14, 2, 3, 34, 90, 165, 153, 83, 165, 90, 1, 0.644046
282, 1, wb, filler, NA, 999, 999, 3, 35, 123, 68, 189, 109, 67, 109, 3, 1.06381
282, 1, wb, filler, NA, 999, 999, 3, 35, 123, 68, 189, 109, 67, 109, 2, 0.340105
282, 1, wb, attraction, a-b-da, 14, 3, 3, 36, 181, 111, 120, 195, 195, 120, 1, 0.915984
282, 1, wb, attraction, a-b-da, 14, 3, 3, 36, 181, 111, 120, 195, 195, 120, 2, 0.246303
282, 1, wb, attraction, a-b-da, 5, 1, 3, 37, 132, 58, 135, 60, 60, 135, 1, 0.866041
282, 1, wb, attraction, a-b-da, 5, 1, 3, 37, 132, 58, 135, 60, 60, 135, 2, 2.35854
282, 1, wb, attraction, a-b-db, 9, 3, 4, 1, 195, 120, 120, 195, 114, 186, 3, 1.98113
282, 1, wb, attraction, a-b-db, 9, 3, 4, 1, 195, 120, 120, 195, 114, 186, 1, 0.508319
282, 1, wb, attraction, a-b-db, 14, 3, 4, 2, 120, 195, 195, 120, 111, 181, 3, 1.16545
282, 1, wb, attraction, a-b-db, 14, 3, 4, 2, 120, 195, 195, 120, 111, 181, 1, 0.845843
282, 1, wb, attraction, a-b-da, 2, 2, 4, 3, 163, 89, 90, 165, 165, 90, 1, 1.52144
282, 1, wb, attraction, a-b-da, 2, 2, 4, 3, 163, 89, 90, 165, 165, 90, 2, 0.50764
282, 1, wb, attraction, a-b-db, 5, 1, 4, 4, 58, 132, 135, 60, 60, 135, 1, 1.28475
282, 1, wb, attraction, a-b-db, 5, 1, 4, 4, 58, 132, 135, 60, 60, 135, 2, 0.800326
282, 1, wb, attraction, a-b-da, 14, 2, 4, 5, 90, 165, 165, 90, 153, 83, 3, 1.27007
282, 1, wb, attraction, a-b-da, 14, 2, 4, 5, 90, 165, 165, 90, 153, 83, 2, 0.458269
282, 1, wb, attraction, a-b-da, 9, 3, 4, 6, 195, 120, 186, 114, 120, 195, 2, 1.17353
282, 1, wb, attraction, a-b-da, 9, 3, 4, 6, 195, 120, 186, 114, 120, 195, 3, 0.32506
282, 1, wb, attraction, a-b-db, 2, 1, 4, 7, 60, 135, 135, 60, 59, 134, 1, 0.741537
282, 1, wb, attraction, a-b-db, 2, 1, 4, 7, 60, 135, 135, 60, 59, 134, 3, 0.878726
282, 1, wb, filler, NA, 999, 999, 4, 8, 99, 124, 137, 88, 93, 78, 2, 0.83301
282, 1, wb, filler, NA, 999, 999, 4, 8, 99, 124, 137, 88, 93, 78, 1, 1.91063
282, 1, wb, filler, NA, 999, 999, 4, 9, 183, 189, 164, 59, 119, 142, 2, 2.15122
282, 1, wb, filler, NA, 999, 999, 4, 9, 183, 189, 164, 59, 119, 142, 1, 0.30392
282, 1, wb, attraction, a-b-da, 5, 3, 4, 10, 195, 120, 120, 195, 190, 117, 2, 1.56981
282, 1, wb, attraction, a-b-da, 5, 3, 4, 10, 195, 120, 120, 195, 190, 117, 3, 0.393999
282, 1, wb, attraction, a-b-da, 5, 1, 4, 11, 60, 135, 132, 58, 135, 60, 2, 0.663637
282, 1, wb, attraction, a-b-da, 5, 1, 4, 11, 60, 135, 132, 58, 135, 60, 1, 0.612228
282, 1, wb, attraction, a-b-db, 9, 1, 4, 12, 135, 60, 57, 129, 60, 135, 2, 0.929374
282, 1, wb, attraction, a-b-db, 9, 1, 4, 12, 135, 60, 57, 129, 60, 135, 3, 0.931364
282, 1, wb, filler, NA, 999, 999, 4, 13, 188, 179, 163, 123, 68, 129, 3, 1.06715
282, 1, wb, filler, NA, 999, 999, 4, 13, 188, 179, 163, 123, 68, 129, 1, 0.455557
282, 1, wb, filler, NA, 999, 999, 4, 14, 114, 57, 179, 86, 166, 121, 1, 0.939331
282, 1, wb, filler, NA, 999, 999, 4, 14, 114, 57, 179, 86, 166, 121, 3, 0.292432
282, 1, wb, catch, NA, 999, 999, 4, 15, 89, 106, 159, 96, 161, 154, 1, 0.534264
282, 1, wb, catch, NA, 999, 999, 4, 15, 89, 106, 159, 96, 161, 154, 3, 0.407995
282, 1, wb, attraction, a-b-db, 5, 2, 4, 16, 165, 90, 90, 165, 88, 161, 3, 1.06915
282, 1, wb, attraction, a-b-db, 5, 2, 4, 16, 165, 90, 90, 165, 88, 161, 1, 0.577488
282, 1, wb, filler, NA, 999, 999, 4, 17, 153, 82, 129, 63, 77, 67, 3, 0.63185
282, 1, wb, filler, NA, 999, 999, 4, 17, 153, 82, 129, 63, 77, 67, 1, 0.373682
282, 1, wb, filler, NA, 999, 999, 4, 18, 145, 128, 166, 112, 78, 183, 1, 4.57212
282, 1, wb, filler, NA, 999, 999, 4, 18, 145, 128, 166, 112, 78, 183, 2, 0.371568
282, 1, wb, filler, NA, 999, 999, 4, 19, 135, 106, 73, 144, 72, 76, 3, 0.9466
282, 1, wb, filler, NA, 999, 999, 4, 19, 135, 106, 73, 144, 72, 76, 1, 0.387516
282, 1, wb, attraction, a-b-da, 9, 1, 4, 20, 60, 135, 135, 60, 129, 57, 2, 1.18605
282, 1, wb, attraction, a-b-da, 9, 1, 4, 20, 60, 135, 135, 60, 129, 57, 1, 2.62574
282, 1, wb, attraction, a-b-db, 9, 2, 4, 21, 165, 90, 90, 165, 86, 157, 3, 1.58146
282, 1, wb, attraction, a-b-db, 9, 2, 4, 21, 165, 90, 90, 165, 86, 157, 1, 1.14896
282, 1, wb, catch, NA, 999, 999, 4, 22, 90, 105, 130, 185, 107, 148, 1, 1.02845
282, 1, wb, catch, NA, 999, 999, 4, 22, 90, 105, 130, 185, 107, 148, 2, 0.378105
282, 1, wb, filler, NA, 999, 999, 4, 23, 168, 110, 163, 95, 181, 136, 2, 1.48871
282, 1, wb, filler, NA, 999, 999, 4, 23, 168, 110, 163, 95, 181, 136, 3, 1.10755
282, 1, wb, attraction, a-b-da, 2, 3, 4, 24, 120, 195, 195, 120, 193, 119, 2, 2.2204
282, 1, wb, attraction, a-b-da, 2, 3, 4, 24, 120, 195, 195, 120, 193, 119, 1, 1.20226
282, 1, wb, attraction, a-b-db, 14, 1, 4, 25, 56, 125, 135, 60, 60, 135, 1, 2.21594
282, 1, wb, attraction, a-b-db, 14, 1, 4, 25, 56, 125, 135, 60, 60, 135, 3, 1.83794
282, 1, wb, attraction, a-b-da, 2, 1, 4, 26, 134, 59, 135, 60, 60, 135, 3, 3.54587
282, 1, wb, attraction, a-b-da, 2, 1, 4, 26, 134, 59, 135, 60, 60, 135, 1, 0.970086
282, 1, wb, filler, NA, 999, 999, 4, 27, 71, 181, 129, 106, 135, 177, 2, 1.94509
282, 1, wb, filler, NA, 999, 999, 4, 27, 71, 181, 129, 106, 135, 177, 3, 0.393691
282, 1, wb, catch, NA, 999, 999, 4, 28, 101, 154, 108, 87, 184, 131, 2, 1.02358
282, 1, wb, catch, NA, 999, 999, 4, 28, 101, 154, 108, 87, 184, 131, 3, 0.365242
282, 1, wb, attraction, a-b-db, 2, 2, 4, 29, 89, 163, 165, 90, 90, 165, 1, 1.0604
282, 1, wb, attraction, a-b-db, 2, 2, 4, 29, 89, 163, 165, 90, 90, 165, 2, 0.616741
282, 1, wb, attraction, a-b-db, 5, 3, 4, 30, 195, 120, 117, 190, 120, 195, 1, 2.32568
282, 1, wb, attraction, a-b-db, 5, 3, 4, 30, 195, 120, 117, 190, 120, 195, 3, 1.143
282, 1, wb, attraction, a-b-db, 14, 2, 4, 31, 83, 153, 165, 90, 90, 165, 1, 1.23863
282, 1, wb, attraction, a-b-db, 14, 2, 4, 31, 83, 153, 165, 90, 90, 165, 2, 0.635459
282, 1, wb, attraction, a-b-da, 14, 1, 4, 32, 60, 135, 135, 60, 125, 56, 1, 0.80798
282, 1, wb, attraction, a-b-da, 14, 1, 4, 32, 60, 135, 135, 60, 125, 56, 2, 0.870413
282, 1, wb, attraction, a-b-da, 9, 2, 4, 33, 157, 86, 90, 165, 165, 90, 1, 5.40944
282, 1, wb, attraction, a-b-da, 9, 2, 4, 33, 157, 86, 90, 165, 165, 90, 2, 0.87834
282, 1, wb, attraction, a-b-da, 14, 3, 4, 34, 120, 195, 181, 111, 195, 120, 2, 1.66456
282, 1, wb, attraction, a-b-da, 14, 3, 4, 34, 120, 195, 181, 111, 195, 120, 1, 0.716706
282, 1, wb, attraction, a-b-db, 2, 3, 4, 35, 120, 195, 195, 120, 119, 193, 3, 3.36578
282, 1, wb, attraction, a-b-db, 2, 3, 4, 35, 120, 195, 195, 120, 119, 193, 2, 0.581421
282, 1, wb, attraction, a-b-da, 5, 2, 4, 36, 90, 165, 161, 88, 165, 90, 2, 4.27585
282, 1, wb, attraction, a-b-da, 5, 2, 4, 36, 90, 165, 161, 88, 165, 90, 1, 0.422469
282, 1, wb, filler, NA, 999, 999, 4, 37, 122, 105, 181, 173, 152, 175, 1, 0.947573
282, 1, wb, filler, NA, 999, 999, 4, 37, 122, 105, 181, 173, 152, 175, 2, 0.372568
282, 1, wb, filler, NA, 999, 999, 5, 1, 66, 80, 68, 175, 87, 125, 1, 1.35366
282, 1, wb, filler, NA, 999, 999, 5, 1, 66, 80, 68, 175, 87, 125, 2, 1.73065
282, 1, wb, attraction, a-b-da, 5, 3, 5, 2, 195, 120, 190, 117, 120, 195, 2, 4.38665
282, 1, wb, attraction, a-b-da, 5, 3, 5, 2, 195, 120, 190, 117, 120, 195, 3, 0.665299
282, 1, wb, filler, NA, 999, 999, 5, 3, 184, 101, 162, 187, 124, 120, 3, 1.12435
282, 1, wb, filler, NA, 999, 999, 5, 3, 184, 101, 162, 187, 124, 120, 2, 0.413885
282, 1, wb, attraction, a-b-da, 9, 1, 5, 4, 60, 135, 135, 60, 129, 57, 1, 0.59515
282, 1, wb, attraction, a-b-da, 9, 1, 5, 4, 60, 135, 135, 60, 129, 57, 2, 0.658178
282, 1, wb, attraction, a-b-da, 14, 2, 5, 5, 165, 90, 153, 83, 90, 165, 3, 2.85333
282, 1, wb, attraction, a-b-da, 14, 2, 5, 5, 165, 90, 153, 83, 90, 165, 2, 0.409724
282, 1, wb, filler, NA, 999, 999, 5, 6, 107, 170, 62, 124, 153, 124, 2, 0.838846
282, 1, wb, filler, NA, 999, 999, 5, 6, 107, 170, 62, 124, 153, 124, 3, 0.291889
282, 1, wb, catch, NA, 999, 999, 5, 7, 186, 129, 91, 104, 150, 105, 2, 0.837666
282, 1, wb, catch, NA, 999, 999, 5, 7, 186, 129, 91, 104, 150, 105, 1, 0.635499
282, 1, wb, attraction, a-b-db, 14, 3, 5, 8, 111, 181, 195, 120, 120, 195, 1, 0.968534
282, 1, wb, attraction, a-b-db, 14, 3, 5, 8, 111, 181, 195, 120, 120, 195, 3, 0.968233
282, 1, wb, attraction, a-b-db, 5, 2, 5, 9, 90, 165, 165, 90, 88, 161, 1, 0.63108
282, 1, wb, attraction, a-b-db, 5, 2, 5, 9, 90, 165, 165, 90, 88, 161, 3, 0.572932
282, 1, wb, attraction, a-b-db, 5, 3, 5, 10, 120, 195, 117, 190, 195, 120, 2, 0.924148
282, 1, wb, attraction, a-b-db, 5, 3, 5, 10, 120, 195, 117, 190, 195, 120, 3, 0.62172
282, 1, wb, attraction, a-b-da, 9, 2, 5, 11, 157, 86, 165, 90, 90, 165, 1, 0.770786
282, 1, wb, attraction, a-b-da, 9, 2, 5, 11, 157, 86, 165, 90, 90, 165, 3, 0.58725
282, 1, wb, attraction, a-b-da, 9, 3, 5, 12, 186, 114, 195, 120, 120, 195, 1, 0.681618
282, 1, wb, attraction, a-b-da, 9, 3, 5, 12, 186, 114, 195, 120, 120, 195, 3, 0.333404
282, 1, wb, catch, NA, 999, 999, 5, 13, 123, 132, 112, 83, 193, 122, 2, 0.709877
282, 1, wb, catch, NA, 999, 999, 5, 13, 123, 132, 112, 83, 193, 122, 3, 0.656359
282, 1, wb, filler, NA, 999, 999, 5, 14, 114, 186, 95, 132, 77, 93, 3, 0.996092
282, 1, wb, filler, NA, 999, 999, 5, 14, 114, 186, 95, 132, 77, 93, 1, 0.395052
282, 1, wb, filler, NA, 999, 999, 5, 15, 149, 62, 59, 73, 106, 85, 2, 0.672853
282, 1, wb, filler, NA, 999, 999, 5, 15, 149, 62, 59, 73, 106, 85, 3, 3.51676
282, 1, wb, attraction, a-b-db, 9, 3, 5, 16, 114, 186, 120, 195, 195, 120, 1, 0.828832
282, 1, wb, attraction, a-b-db, 9, 3, 5, 16, 114, 186, 120, 195, 195, 120, 3, 0.426548
282, 1, wb, attraction, a-b-da, 14, 3, 5, 17, 195, 120, 181, 111, 120, 195, 2, 0.734969
282, 1, wb, attraction, a-b-da, 14, 3, 5, 17, 195, 120, 181, 111, 120, 195, 1, 0.248763
282, 1, wb, filler, NA, 999, 999, 5, 18, 70, 115, 159, 139, 123, 184, 1, 0.812565
282, 1, wb, filler, NA, 999, 999, 5, 18, 70, 115, 159, 139, 123, 184, 3, 0.971097
282, 1, wb, attraction, a-b-db, 2, 1, 5, 19, 59, 134, 60, 135, 135, 60, 2, 1.05788
282, 1, wb, attraction, a-b-db, 2, 1, 5, 19, 59, 134, 60, 135, 135, 60, 3, 0.654282
282, 1, wb, attraction, a-b-db, 9, 1, 5, 20, 57, 129, 135, 60, 60, 135, 2, 0.497985
282, 1, wb, attraction, a-b-db, 9, 1, 5, 20, 57, 129, 135, 60, 60, 135, 3, 0.677174
282, 1, wb, attraction, a-b-db, 9, 2, 5, 21, 90, 165, 86, 157, 165, 90, 2, 0.47958
282, 1, wb, attraction, a-b-db, 9, 2, 5, 21, 90, 165, 86, 157, 165, 90, 3, 0.731503
282, 1, wb, attraction, a-b-db, 2, 3, 5, 22, 119, 193, 195, 120, 120, 195, 2, 0.483859
282, 1, wb, attraction, a-b-db, 2, 3, 5, 22, 119, 193, 195, 120, 120, 195, 3, 0.60754
282, 1, wb, filler, NA, 999, 999, 5, 23, 170, 157, 195, 169, 151, 148, 3, 1.18867
282, 1, wb, filler, NA, 999, 999, 5, 23, 170, 157, 195, 169, 151, 148, 2, 0.6116
282, 1, wb, attraction, a-b-db, 2, 2, 5, 24, 165, 90, 90, 165, 89, 163, 1, 1.46472
282, 1, wb, attraction, a-b-db, 2, 2, 5, 24, 165, 90, 90, 165, 89, 163, 2, 0.588889
282, 1, wb, attraction, a-b-da, 14, 1, 5, 25, 60, 135, 125, 56, 135, 60, 3, 0.867303
282, 1, wb, attraction, a-b-da, 14, 1, 5, 25, 60, 135, 125, 56, 135, 60, 2, 2.12776
282, 1, wb, filler, NA, 999, 999, 5, 26, 173, 180, 69, 194, 62, 77, 3, 0.839631
282, 1, wb, filler, NA, 999, 999, 5, 26, 173, 180, 69, 194, 62, 77, 1, 0.404627
282, 1, wb, attraction, a-b-da, 2, 3, 5, 27, 195, 120, 193, 119, 120, 195, 1, 0.762566
282, 1, wb, attraction, a-b-da, 2, 3, 5, 27, 195, 120, 193, 119, 120, 195, 3, 0.322994
282, 1, wb, filler, NA, 999, 999, 5, 28, 154, 119, 115, 163, 73, 94, 3, 0.764055
282, 1, wb, filler, NA, 999, 999, 5, 28, 154, 119, 115, 163, 73, 94, 1, 0.39638
282, 1, wb, attraction, a-b-db, 14, 1, 5, 29, 56, 125, 60, 135, 135, 60, 2, 0.65823
282, 1, wb, attraction, a-b-db, 14, 1, 5, 29, 56, 125, 60, 135, 135, 60, 3, 0.598744
282, 1, wb, attraction, a-b-db, 14, 2, 5, 30, 165, 90, 83, 153, 90, 165, 2, 0.580619
282, 1, wb, attraction, a-b-db, 14, 2, 5, 30, 165, 90, 83, 153, 90, 165, 3, 0.308251
282, 1, wb, catch, NA, 999, 999, 5, 31, 167, 148, 72, 123, 126, 129, 2, 0.557441
282, 1, wb, catch, NA, 999, 999, 5, 31, 167, 148, 72, 123, 126, 129, 1, 0.253941
282, 1, wb, attraction, a-b-da, 2, 2, 5, 32, 90, 165, 165, 90, 163, 89, 1, 2.42576
282, 1, wb, attraction, a-b-da, 2, 2, 5, 32, 90, 165, 165, 90, 163, 89, 2, 0.303025
282, 1, wb, attraction, a-b-da, 2, 1, 5, 33, 60, 135, 135, 60, 134, 59, 1, 0.857013
282, 1, wb, attraction, a-b-da, 2, 1, 5, 33, 60, 135, 135, 60, 134, 59, 3, 0.613355
282, 1, wb, attraction, a-b-da, 5, 2, 5, 34, 90, 165, 161, 88, 165, 90, 2, 0.546226
282, 1, wb, attraction, a-b-da, 5, 2, 5, 34, 90, 165, 161, 88, 165, 90, 3, 0.291592
282, 1, wb, attraction, a-b-da, 5, 1, 5, 35, 60, 135, 135, 60, 132, 58, 2, 0.533303
282, 1, wb, attraction, a-b-da, 5, 1, 5, 35, 60, 135, 135, 60, 132, 58, 3, 0.383102
282, 1, wb, attraction, a-b-db, 5, 1, 5, 36, 135, 60, 58, 132, 60, 135, 2, 0.61375
282, 1, wb, attraction, a-b-db, 5, 1, 5, 36, 135, 60, 58, 132, 60, 135, 1, 0.284076
282, 1, wb, filler, NA, 999, 999, 5, 37, 140, 115, 139, 139, 121, 190, 2, 0.966517
282, 1, wb, filler, NA, 999, 999, 5, 37, 140, 115, 139, 139, 121, 190, 3, 0.94291
282, 1, wb, attraction, a-b-da, 14, 1, 6, 1, 135, 60, 60, 135, 125, 56, 1, 2.06256
282, 1, wb, attraction, a-b-da, 14, 1, 6, 1, 135, 60, 60, 135, 125, 56, 2, 0.330454
282, 1, wb, attraction, a-b-db, 9, 2, 6, 2, 90, 165, 86, 157, 165, 90, 2, 0.730946
282, 1, wb, attraction, a-b-db, 9, 2, 6, 2, 90, 165, 86, 157, 165, 90, 3, 0.756749
282, 1, wb, attraction, a-b-db, 9, 3, 6, 3, 114, 186, 195, 120, 120, 195, 1, 1.77984
282, 1, wb, attraction, a-b-db, 9, 3, 6, 3, 114, 186, 195, 120, 120, 195, 2, 0.403224
282, 1, wb, catch, NA, 999, 999, 6, 4, 88, 107, 184, 131, 131, 124, 1, 0.720944
282, 1, wb, catch, NA, 999, 999, 6, 4, 88, 107, 184, 131, 131, 124, 2, 0.283371
282, 1, wb, attraction, a-b-da, 2, 2, 6, 5, 90, 165, 163, 89, 165, 90, 1, 0.629873
282, 1, wb, attraction, a-b-da, 2, 2, 6, 5, 90, 165, 163, 89, 165, 90, 2, 0.587806
282, 1, wb, filler, NA, 999, 999, 6, 6, 163, 87, 180, 94, 86, 125, 3, 0.946109
282, 1, wb, filler, NA, 999, 999, 6, 6, 163, 87, 180, 94, 86, 125, 2, 0.35512
282, 1, wb, attraction, a-b-db, 14, 3, 6, 7, 120, 195, 195, 120, 111, 181, 2, 0.579016
282, 1, wb, attraction, a-b-db, 14, 3, 6, 7, 120, 195, 195, 120, 111, 181, 1, 1.32286
282, 1, wb, attraction, a-b-db, 14, 1, 6, 8, 60, 135, 135, 60, 56, 125, 3, 0.899753
282, 1, wb, attraction, a-b-db, 14, 1, 6, 8, 60, 135, 135, 60, 56, 125, 2, 1.4387
282, 1, wb, filler, NA, 999, 999, 6, 9, 87, 101, 93, 93, 100, 155, 2, 3.37893
282, 1, wb, filler, NA, 999, 999, 6, 9, 87, 101, 93, 93, 100, 155, 3, 0.289859
282, 1, wb, attraction, a-b-da, 9, 2, 6, 10, 157, 86, 90, 165, 165, 90, 2, 0.540279
282, 1, wb, attraction, a-b-da, 9, 2, 6, 10, 157, 86, 90, 165, 165, 90, 1, 0.269354
282, 1, wb, filler, NA, 999, 999, 6, 11, 169, 188, 84, 129, 152, 69, 2, 0.520521
282, 1, wb, filler, NA, 999, 999, 6, 11, 169, 188, 84, 129, 152, 69, 1, 0.290989
282, 1, wb, filler, NA, 999, 999, 6, 12, 180, 147, 70, 84, 114, 183, 2, 0.572987
282, 1, wb, filler, NA, 999, 999, 6, 12, 180, 147, 70, 84, 114, 183, 1, 0.492932
282, 1, wb, filler, NA, 999, 999, 6, 13, 101, 151, 65, 78, 84, 180, 2, 0.534532
282, 1, wb, filler, NA, 999, 999, 6, 13, 101, 151, 65, 78, 84, 180, 1, 0.784351
282, 1, wb, catch, NA, 999, 999, 6, 14, 108, 147, 67, 128, 137, 178, 2, 0.566679
282, 1, wb, catch, NA, 999, 999, 6, 14, 108, 147, 67, 128, 137, 178, 3, 0.895336
282, 1, wb, attraction, a-b-da, 9, 1, 6, 15, 135, 60, 129, 57, 60, 135, 2, 0.848763
282, 1, wb, attraction, a-b-da, 9, 1, 6, 15, 135, 60, 129, 57, 60, 135, 3, 2.04581
282, 1, wb, filler, NA, 999, 999, 6, 16, 87, 117, 137, 119, 96, 134, 1, 1.20918
282, 1, wb, filler, NA, 999, 999, 6, 16, 87, 117, 137, 119, 96, 134, 2, 0.327408
282, 1, wb, attraction, a-b-da, 2, 3, 6, 17, 193, 119, 195, 120, 120, 195, 2, 2.472
282, 1, wb, attraction, a-b-da, 2, 3, 6, 17, 193, 119, 195, 120, 120, 195, 3, 0.347107
282, 1, wb, attraction, a-b-db, 5, 2, 6, 18, 165, 90, 88, 161, 90, 165, 2, 0.642847
282, 1, wb, attraction, a-b-db, 5, 2, 6, 18, 165, 90, 88, 161, 90, 165, 1, 0.248073
282, 1, wb, attraction, a-b-db, 5, 1, 6, 19, 60, 135, 135, 60, 58, 132, 2, 0.843864
282, 1, wb, attraction, a-b-db, 5, 1, 6, 19, 60, 135, 135, 60, 58, 132, 1, 1.79307
282, 1, wb, attraction, a-b-da, 5, 3, 6, 20, 120, 195, 190, 117, 195, 120, 2, 1.88634
282, 1, wb, attraction, a-b-da, 5, 3, 6, 20, 120, 195, 190, 117, 195, 120, 1, 0.985856
282, 1, wb, filler, NA, 999, 999, 6, 21, 109, 68, 177, 64, 125, 60, 1, 0.912044
282, 1, wb, filler, NA, 999, 999, 6, 21, 109, 68, 177, 64, 125, 60, 2, 0.618421
282, 1, wb, attraction, a-b-db, 2, 3, 6, 22, 120, 195, 195, 120, 119, 193, 2, 2.46359
282, 1, wb, attraction, a-b-db, 2, 3, 6, 22, 120, 195, 195, 120, 119, 193, 3, 0.387322
282, 1, wb, attraction, a-b-db, 9, 1, 6, 23, 135, 60, 57, 129, 60, 135, 2, 0.609784
282, 1, wb, attraction, a-b-db, 9, 1, 6, 23, 135, 60, 57, 129, 60, 135, 1, 0.600315
282, 1, wb, attraction, a-b-db, 14, 2, 6, 24, 90, 165, 165, 90, 83, 153, 2, 0.478094
282, 1, wb, attraction, a-b-db, 14, 2, 6, 24, 90, 165, 165, 90, 83, 153, 1, 0.249976
282, 1, wb, attraction, a-b-db, 5, 3, 6, 25, 195, 120, 120, 195, 117, 190, 2, 0.613785
282, 1, wb, attraction, a-b-db, 5, 3, 6, 25, 195, 120, 120, 195, 117, 190, 1, 1.10829
282, 1, wb, attraction, a-b-db, 2, 2, 6, 26, 89, 163, 90, 165, 165, 90, 1, 1.23713
282, 1, wb, attraction, a-b-db, 2, 2, 6, 26, 89, 163, 90, 165, 165, 90, 2, 0.498788
282, 1, wb, filler, NA, 999, 999, 6, 27, 75, 192, 174, 57, 114, 58, 3, 1.26039
282, 1, wb, filler, NA, 999, 999, 6, 27, 75, 192, 174, 57, 114, 58, 1, 0.453907
282, 1, wb, filler, NA, 999, 999, 6, 28, 78, 135, 80, 181, 183, 119, 1, 2.02845
282, 1, wb, filler, NA, 999, 999, 6, 28, 78, 135, 80, 181, 183, 119, 3, 0.345887
282, 1, wb, attraction, a-b-da, 9, 3, 6, 29, 120, 195, 195, 120, 186, 114, 3, 0.945608
282, 1, wb, attraction, a-b-da, 9, 3, 6, 29, 120, 195, 195, 120, 186, 114, 1, 0.530743
282, 1, wb, attraction, a-b-da, 5, 1, 6, 30, 132, 58, 135, 60, 60, 135, 1, 0.587184
282, 1, wb, attraction, a-b-da, 5, 1, 6, 30, 132, 58, 135, 60, 60, 135, 3, 0.411011
282, 1, wb, attraction, a-b-da, 5, 2, 6, 31, 90, 165, 165, 90, 161, 88, 1, 0.472146
282, 1, wb, attraction, a-b-da, 5, 2, 6, 31, 90, 165, 165, 90, 161, 88, 3, 0.483811
282, 1, wb, attraction, a-b-db, 2, 1, 6, 32, 135, 60, 60, 135, 59, 134, 1, 0.430365
282, 1, wb, attraction, a-b-db, 2, 1, 6, 32, 135, 60, 60, 135, 59, 134, 3, 1.2282
282, 1, wb, attraction, a-b-da, 14, 2, 6, 33, 153, 83, 90, 165, 165, 90, 1, 1.73641
282, 1, wb, attraction, a-b-da, 14, 2, 6, 33, 153, 83, 90, 165, 165, 90, 2, 0.44986
282, 1, wb, attraction, a-b-da, 14, 3, 6, 34, 195, 120, 181, 111, 120, 195, 2, 0.973594
282, 1, wb, attraction, a-b-da, 14, 3, 6, 34, 195, 120, 181, 111, 120, 195, 1, 0.309226
282, 1, wb, filler, NA, 999, 999, 6, 35, 168, 105, 124, 120, 179, 169, 2, 0.558608
282, 1, wb, filler, NA, 999, 999, 6, 35, 168, 105, 124, 120, 179, 169, 3, 0.318964
282, 1, wb, attraction, a-b-da, 2, 1, 6, 36, 135, 60, 134, 59, 60, 135, 1, 1.34408
282, 1, wb, attraction, a-b-da, 2, 1, 6, 36, 135, 60, 134, 59, 60, 135, 3, 0.344951
282, 1, wb, catch, NA, 999, 999, 6, 37, 98, 157, 98, 97, 148, 167, 2, 0.488947
282, 1, wb, catch, NA, 999, 999, 6, 37, 98, 157, 98, 97, 148, 167, 3, 0.340131
282, 1, wb, attraction, a-b-da, 14, 1, 7, 1, 60, 135, 135, 60, 125, 56, 2, 0.675853
282, 1, wb, attraction, a-b-da, 14, 1, 7, 1, 60, 135, 135, 60, 125, 56, 3, 1.31971
282, 1, wb, attraction, a-b-db, 9, 1, 7, 2, 135, 60, 57, 129, 60, 135, 2, 0.832568
282, 1, wb, attraction, a-b-db, 9, 1, 7, 2, 135, 60, 57, 129, 60, 135, 1, 0.734171
282, 1, wb, attraction, a-b-db, 2, 2, 7, 3, 89, 163, 90, 165, 165, 90, 3, 1.41457
282, 1, wb, attraction, a-b-db, 2, 2, 7, 3, 89, 163, 90, 165, 165, 90, 1, 0.644778
282, 1, wb, filler, NA, 999, 999, 7, 4, 182, 72, 165, 161, 73, 127, 3, 0.728551
282, 1, wb, filler, NA, 999, 999, 7, 4, 182, 72, 165, 161, 73, 127, 2, 0.62639
282, 1, wb, attraction, a-b-da, 5, 3, 7, 5, 120, 195, 195, 120, 190, 117, 1, 0.846807
282, 1, wb, attraction, a-b-da, 5, 3, 7, 5, 120, 195, 195, 120, 190, 117, 2, 0.363751
282, 1, wb, attraction, a-b-da, 9, 2, 7, 6, 165, 90, 157, 86, 90, 165, 2, 0.674833
282, 1, wb, attraction, a-b-da, 9, 2, 7, 6, 165, 90, 157, 86, 90, 165, 1, 0.326657
282, 1, wb, catch, NA, 999, 999, 7, 7, 127, 68, 132, 183, 115, 140, 1, 1.83106
282, 1, wb, catch, NA, 999, 999, 7, 7, 127, 68, 132, 183, 115, 140, 2, 0.516497
282, 1, wb, attraction, a-b-db, 14, 2, 7, 8, 90, 165, 165, 90, 83, 153, 2, 1.05368
282, 1, wb, attraction, a-b-db, 14, 2, 7, 8, 90, 165, 165, 90, 83, 153, 1, 0.522854
282, 1, wb, attraction, a-b-db, 5, 3, 7, 9, 120, 195, 195, 120, 117, 190, 2, 1.06778
282, 1, wb, attraction, a-b-db, 5, 3, 7, 9, 120, 195, 195, 120, 117, 190, 1, 0.664152
282, 1, wb, filler, NA, 999, 999, 7, 10, 122, 140, 100, 141, 119, 152, 2, 2.77128
282, 1, wb, filler, NA, 999, 999, 7, 10, 122, 140, 100, 141, 119, 152, 1, 0.370884
282, 1, wb, attraction, a-b-db, 9, 3, 7, 11, 120, 195, 195, 120, 114, 186, 2, 0.626024
282, 1, wb, attraction, a-b-db, 9, 3, 7, 11, 120, 195, 195, 120, 114, 186, 1, 0.359801
282, 1, wb, attraction, a-b-db, 9, 2, 7, 12, 165, 90, 90, 165, 86, 157, 1, 0.934954
282, 1, wb, attraction, a-b-db, 9, 2, 7, 12, 165, 90, 90, 165, 86, 157, 2, 0.280674
282, 1, wb, attraction, a-b-da, 2, 2, 7, 13, 165, 90, 90, 165, 163, 89, 2, 1.38731
282, 1, wb, attraction, a-b-da, 2, 2, 7, 13, 165, 90, 90, 165, 163, 89, 1, 1.21081
282, 1, wb, attraction, a-b-db, 2, 1, 7, 14, 135, 60, 60, 135, 59, 134, 1, 0.74376
282, 1, wb, attraction, a-b-db, 2, 1, 7, 14, 135, 60, 60, 135, 59, 134, 2, 0.328752
282, 1, wb, filler, NA, 999, 999, 7, 15, 188, 63, 159, 158, 172, 118, 1, 0.953124
282, 1, wb, filler, NA, 999, 999, 7, 15, 188, 63, 159, 158, 172, 118, 2, 0.306283
282, 1, wb, catch, NA, 999, 999, 7, 16, 193, 122, 161, 94, 127, 68, 3, 1.14805
282, 1, wb, catch, NA, 999, 999, 7, 16, 193, 122, 161, 94, 127, 68, 1, 0.357116
282, 1, wb, attraction, a-b-da, 5, 1, 7, 17, 60, 135, 135, 60, 132, 58, 2, 0.916204
282, 1, wb, attraction, a-b-da, 5, 1, 7, 17, 60, 135, 135, 60, 132, 58, 3, 0.830498
282, 1, wb, attraction, a-b-da, 14, 2, 7, 18, 153, 83, 165, 90, 90, 165, 1, 1.37912
282, 1, wb, attraction, a-b-da, 14, 2, 7, 18, 153, 83, 165, 90, 90, 165, 2, 0.698531
282, 1, wb, filler, NA, 999, 999, 7, 19, 122, 173, 67, 151, 178, 106, 2, 1.17216
282, 1, wb, filler, NA, 999, 999, 7, 19, 122, 173, 67, 151, 178, 106, 1, 0.347737
282, 1, wb, attraction, a-b-da, 14, 3, 7, 20, 181, 111, 120, 195, 195, 120, 1, 0.803688
282, 1, wb, attraction, a-b-da, 14, 3, 7, 20, 181, 111, 120, 195, 195, 120, 2, 0.46661
282, 1, wb, filler, NA, 999, 999, 7, 21, 164, 114, 106, 190, 94, 99, 3, 1.03792
282, 1, wb, filler, NA, 999, 999, 7, 21, 164, 114, 106, 190, 94, 99, 1, 0.923452
282, 1, wb, attraction, a-b-db, 14, 1, 7, 22, 56, 125, 60, 135, 135, 60, 3, 0.58776
282, 1, wb, attraction, a-b-db, 14, 1, 7, 22, 56, 125, 60, 135, 135, 60, 2, 0.618924
282, 1, wb, attraction, a-b-da, 2, 1, 7, 23, 134, 59, 135, 60, 60, 135, 1, 0.679838
282, 1, wb, attraction, a-b-da, 2, 1, 7, 23, 134, 59, 135, 60, 60, 135, 3, 0.699699
282, 1, wb, attraction, a-b-da, 9, 3, 7, 24, 186, 114, 120, 195, 195, 120, 1, 0.581505
282, 1, wb, attraction, a-b-da, 9, 3, 7, 24, 186, 114, 120, 195, 195, 120, 2, 0.309199
282, 1, wb, attraction, a-b-db, 5, 1, 7, 25, 60, 135, 135, 60, 58, 132, 1, 0.590484
282, 1, wb, attraction, a-b-db, 5, 1, 7, 25, 60, 135, 135, 60, 58, 132, 2, 0.365573
282, 1, wb, catch, NA, 999, 999, 7, 26, 188, 127, 131, 124, 92, 103, 3, 1.12461
282, 1, wb, catch, NA, 999, 999, 7, 26, 188, 127, 131, 124, 92, 103, 1, 0.398243
282, 1, wb, attraction, a-b-db, 2, 3, 7, 27, 120, 195, 119, 193, 195, 120, 2, 0.772014
282, 1, wb, attraction, a-b-db, 2, 3, 7, 27, 120, 195, 119, 193, 195, 120, 3, 0.403831
282, 1, wb, attraction, a-b-db, 5, 2, 7, 28, 88, 161, 165, 90, 90, 165, 1, 0.641669
282, 1, wb, attraction, a-b-db, 5, 2, 7, 28, 88, 161, 165, 90, 90, 165, 2, 0.342765
282, 1, wb, filler, NA, 999, 999, 7, 29, 123, 57, 100, 63, 126, 87, 2, 1.20684
282, 1, wb, filler, NA, 999, 999, 7, 29, 123, 57, 100, 63, 126, 87, 3, 0.292851
282, 1, wb, attraction, a-b-da, 9, 1, 7, 30, 60, 135, 129, 57, 135, 60, 2, 0.838644
282, 1, wb, attraction, a-b-da, 9, 1, 7, 30, 60, 135, 129, 57, 135, 60, 3, 0.571926
282, 1, wb, filler, NA, 999, 999, 7, 31, 106, 68, 105, 143, 99, 140, 1, 0.994838
282, 1, wb, filler, NA, 999, 999, 7, 31, 106, 68, 105, 143, 99, 140, 2, 0.665962
282, 1, wb, filler, NA, 999, 999, 7, 32, 62, 175, 81, 192, 147, 134, 1, 1.08486
282, 1, wb, filler, NA, 999, 999, 7, 32, 62, 175, 81, 192, 147, 134, 3, 0.472681
282, 1, wb, attraction, a-b-da, 5, 2, 7, 33, 90, 165, 161, 88, 165, 90, 2, 1.09965
282, 1, wb, attraction, a-b-da, 5, 2, 7, 33, 90, 165, 161, 88, 165, 90, 1, 0.38258
282, 1, wb, attraction, a-b-da, 2, 3, 7, 34, 193, 119, 195, 120, 120, 195, 2, 1.20511
282, 1, wb, attraction, a-b-da, 2, 3, 7, 34, 193, 119, 195, 120, 120, 195, 1, 0.443357
282, 1, wb, filler, NA, 999, 999, 7, 35, 84, 126, 184, 152, 70, 67, 3, 1.1592
282, 1, wb, filler, NA, 999, 999, 7, 35, 84, 126, 184, 152, 70, 67, 2, 0.367599
282, 1, wb, attraction, a-b-db, 14, 3, 7, 36, 111, 181, 195, 120, 120, 195, 1, 0.758608
282, 1, wb, attraction, a-b-db, 14, 3, 7, 36, 111, 181, 195, 120, 120, 195, 3, 0.855078
282, 1, wb, filler, NA, 999, 999, 7, 37, 188, 117, 158, 164, 161, 114, 1, 0.554781
282, 1, wb, filler, NA, 999, 999, 7, 37, 188, 117, 158, 164, 161, 114, 2, 1.8032
282, 1, wb, attraction, a-b-db, 5, 1, 8, 1, 58, 132, 135, 60, 60, 135, 2, 2.6647
282, 1, wb, attraction, a-b-db, 5, 1, 8, 1, 58, 132, 135, 60, 60, 135, 3, 0.708426
282, 1, wb, attraction, a-b-db, 14, 1, 8, 2, 135, 60, 56, 125, 60, 135, 2, 0.645502
282, 1, wb, attraction, a-b-db, 14, 1, 8, 2, 135, 60, 56, 125, 60, 135, 3, 0.978553
282, 1, wb, attraction, a-b-da, 14, 3, 8, 3, 120, 195, 181, 111, 195, 120, 2, 1.20881
282, 1, wb, attraction, a-b-da, 14, 3, 8, 3, 120, 195, 181, 111, 195, 120, 1, 0.575082
282, 1, wb, attraction, a-b-da, 2, 2, 8, 4, 165, 90, 90, 165, 163, 89, 3, 1.15753
282, 1, wb, attraction, a-b-da, 2, 2, 8, 4, 165, 90, 90, 165, 163, 89, 1, 1.11781
282, 1, wb, filler, NA, 999, 999, 8, 5, 87, 157, 62, 124, 74, 98, 2, 0.750711
282, 1, wb, filler, NA, 999, 999, 8, 5, 87, 157, 62, 124, 74, 98, 1, 0.847713
282, 1, wb, filler, NA, 999, 999, 8, 6, 194, 169, 167, 151, 172, 91, 3, 0.627392
282, 1, wb, filler, NA, 999, 999, 8, 6, 194, 169, 167, 151, 172, 91, 1, 0.497161
282, 1, wb, filler, NA, 999, 999, 8, 7, 162, 175, 112, 145, 131, 78, 3, 0.555011
282, 1, wb, filler, NA, 999, 999, 8, 7, 162, 175, 112, 145, 131, 78, 1, 0.46747
282, 1, wb, attraction, a-b-da, 9, 3, 8, 8, 186, 114, 120, 195, 195, 120, 1, 0.830507
282, 1, wb, attraction, a-b-da, 9, 3, 8, 8, 186, 114, 120, 195, 195, 120, 3, 0.388326
282, 1, wb, attraction, a-b-db, 2, 1, 8, 9, 59, 134, 60, 135, 135, 60, 2, 0.858946
282, 1, wb, attraction, a-b-db, 2, 1, 8, 9, 59, 134, 60, 135, 135, 60, 3, 0.631263
282, 1, wb, filler, NA, 999, 999, 8, 10, 138, 71, 70, 58, 112, 90, 2, 0.859662
282, 1, wb, filler, NA, 999, 999, 8, 10, 138, 71, 70, 58, 112, 90, 1, 2.55199
282, 1, wb, attraction, a-b-db, 9, 1, 8, 11, 60, 135, 135, 60, 57, 129, 3, 0.831163
282, 1, wb, attraction, a-b-db, 9, 1, 8, 11, 60, 135, 135, 60, 57, 129, 2, 0.436834
282, 1, wb, catch, NA, 999, 999, 8, 12, 113, 142, 180, 135, 74, 121, 3, 1.04137
282, 1, wb, catch, NA, 999, 999, 8, 12, 113, 142, 180, 135, 74, 121, 2, 0.262326
282, 1, wb, attraction, a-b-da, 2, 3, 8, 13, 120, 195, 195, 120, 193, 119, 1, 0.673538
282, 1, wb, attraction, a-b-da, 2, 3, 8, 13, 120, 195, 195, 120, 193, 119, 2, 0.589314
282, 1, wb, attraction, a-b-da, 5, 3, 8, 14, 120, 195, 190, 117, 195, 120, 3, 1.14766
282, 1, wb, attraction, a-b-da, 5, 3, 8, 14, 120, 195, 190, 117, 195, 120, 1, 0.284727
282, 1, wb, attraction, a-b-db, 14, 2, 8, 15, 165, 90, 83, 153, 90, 165, 2, 0.679274
282, 1, wb, attraction, a-b-db, 14, 2, 8, 15, 165, 90, 83, 153, 90, 165, 1, 0.290916
282, 1, wb, filler, NA, 999, 999, 8, 16, 92, 188, 111, 122, 136, 125, 2, 0.532671
282, 1, wb, filler, NA, 999, 999, 8, 16, 92, 188, 111, 122, 136, 125, 3, 0.326638
282, 1, wb, attraction, a-b-da, 5, 2, 8, 17, 90, 165, 161, 88, 165, 90, 2, 0.999172
282, 1, wb, attraction, a-b-da, 5, 2, 8, 17, 90, 165, 161, 88, 165, 90, 1, 0.678291
282, 1, wb, attraction, a-b-da, 2, 1, 8, 18, 135, 60, 60, 135, 134, 59, 2, 0.728438
282, 1, wb, attraction, a-b-da, 2, 1, 8, 18, 135, 60, 60, 135, 134, 59, 3, 2.35428
282, 1, wb, filler, NA, 999, 999, 8, 19, 83, 81, 148, 69, 72, 116, 1, 0.785362
282, 1, wb, filler, NA, 999, 999, 8, 19, 83, 81, 148, 69, 72, 116, 2, 1.58514
282, 1, wb, attraction, a-b-da, 9, 2, 8, 20, 90, 165, 165, 90, 157, 86, 2, 1.38319
282, 1, wb, attraction, a-b-da, 9, 2, 8, 20, 90, 165, 165, 90, 157, 86, 1, 0.334828
282, 1, wb, attraction, a-b-db, 14, 3, 8, 21, 111, 181, 120, 195, 195, 120, 3, 1.97528
282, 1, wb, attraction, a-b-db, 14, 3, 8, 21, 111, 181, 120, 195, 195, 120, 2, 0.702596
282, 1, wb, attraction, a-b-db, 9, 3, 8, 22, 120, 195, 195, 120, 114, 186, 3, 2.22438
282, 1, wb, attraction, a-b-db, 9, 3, 8, 22, 120, 195, 195, 120, 114, 186, 1, 0.54959
282, 1, wb, attraction, a-b-db, 5, 2, 8, 23, 88, 161, 165, 90, 90, 165, 2, 0.821519
282, 1, wb, attraction, a-b-db, 5, 2, 8, 23, 88, 161, 165, 90, 90, 165, 1, 0.603062
282, 1, wb, catch, NA, 999, 999, 8, 24, 114, 81, 136, 179, 106, 149, 1, 0.784846
282, 1, wb, catch, NA, 999, 999, 8, 24, 114, 81, 136, 179, 106, 149, 2, 0.296596
282, 1, wb, attraction, a-b-db, 2, 3, 8, 25, 120, 195, 119, 193, 195, 120, 3, 1.10645
282, 1, wb, attraction, a-b-db, 2, 3, 8, 25, 120, 195, 119, 193, 195, 120, 2, 0.276744
282, 1, wb, attraction, a-b-db, 5, 3, 8, 26, 117, 190, 195, 120, 120, 195, 1, 1.7994
282, 1, wb, attraction, a-b-db, 5, 3, 8, 26, 117, 190, 195, 120, 120, 195, 2, 0.373985
282, 1, wb, attraction, a-b-da, 9, 1, 8, 27, 135, 60, 60, 135, 129, 57, 1, 0.756443
282, 1, wb, attraction, a-b-da, 9, 1, 8, 27, 135, 60, 60, 135, 129, 57, 2, 0.716928
282, 1, wb, filler, NA, 999, 999, 8, 28, 105, 135, 80, 103, 181, 102, 2, 0.773958
282, 1, wb, filler, NA, 999, 999, 8, 28, 105, 135, 80, 103, 181, 102, 3, 0.301634
282, 1, wb, filler, NA, 999, 999, 8, 29, 121, 106, 195, 166, 135, 158, 1, 0.647484
282, 1, wb, filler, NA, 999, 999, 8, 29, 121, 106, 195, 166, 135, 158, 2, 0.31665
282, 1, wb, attraction, a-b-da, 14, 2, 8, 30, 153, 83, 90, 165, 165, 90, 1, 0.765802
282, 1, wb, attraction, a-b-da, 14, 2, 8, 30, 153, 83, 90, 165, 165, 90, 2, 0.542153
282, 1, wb, attraction, a-b-da, 14, 1, 8, 31, 125, 56, 60, 135, 135, 60, 1, 1.18195
282, 1, wb, attraction, a-b-da, 14, 1, 8, 31, 125, 56, 60, 135, 135, 60, 2, 0.341512
282, 1, wb, catch, NA, 999, 999, 8, 32, 117, 138, 139, 176, 85, 110, 3, 0.997399
282, 1, wb, catch, NA, 999, 999, 8, 32, 117, 138, 139, 176, 85, 110, 2, 0.324408
282, 1, wb, attraction, a-b-db, 9, 2, 8, 33, 165, 90, 90, 165, 86, 157, 1, 0.796892
282, 1, wb, attraction, a-b-db, 9, 2, 8, 33, 165, 90, 90, 165, 86, 157, 3, 0.356115
282, 1, wb, attraction, a-b-db, 2, 2, 8, 34, 89, 163, 165, 90, 90, 165, 3, 1.43574
282, 1, wb, attraction, a-b-db, 2, 2, 8, 34, 89, 163, 165, 90, 90, 165, 2, 0.393386
282, 1, wb, filler, NA, 999, 999, 8, 35, 76, 125, 123, 95, 165, 127, 1, 0.583127
282, 1, wb, filler, NA, 999, 999, 8, 35, 76, 125, 123, 95, 165, 127, 3, 0.734986
282, 1, wb, filler, NA, 999, 999, 8, 36, 93, 185, 127, 91, 115, 69, 3, 0.887333
282, 1, wb, filler, NA, 999, 999, 8, 36, 93, 185, 127, 91, 115, 69, 1, 0.459049
282, 1, wb, attraction, a-b-da, 5, 1, 8, 37, 60, 135, 132, 58, 135, 60, 2, 0.686093
282, 1, wb, attraction, a-b-da, 5, 1, 8, 37, 60, 135, 132, 58, 135, 60, 3, 0.361226
