sub_n, computer_n, bw_cond, effect, set, distance, diag, block_n, trial_n, h1, w1, h2, w2, h3, w3, choice, rt 
241, 1, bw, practice, NA, 999, 999, 0, 1, 79, 137, 112, 123, 158, 158, 3, 4.69054
241, 1, bw, practice, NA, 999, 999, 0, 1, 79, 137, 112, 123, 158, 158, 1, 4.61041
241, 1, bw, practice, NA, 999, 999, 0, 2, 178, 80, 136, 115, 130, 177, 3, 4.06696
241, 1, bw, practice, NA, 999, 999, 0, 2, 178, 80, 136, 115, 130, 177, 1, 1.65561
241, 1, bw, practice, NA, 999, 999, 0, 3, 187, 132, 167, 105, 136, 103, 1, 2.5922
241, 1, bw, practice, NA, 999, 999, 0, 3, 187, 132, 167, 105, 136, 103, 3, 2.40453
241, 1, bw, attraction, a-b-db, 5, 3, 1, 1, 195, 120, 120, 195, 117, 190, 2, 9.54013
241, 1, bw, attraction, a-b-db, 5, 3, 1, 1, 195, 120, 120, 195, 117, 190, 1, 1.2031
241, 1, bw, attraction, a-b-da, 2, 3, 1, 2, 193, 119, 120, 195, 195, 120, 2, 3.88866
241, 1, bw, attraction, a-b-da, 2, 3, 1, 2, 193, 119, 120, 195, 195, 120, 1, 2.97142
241, 1, bw, attraction, a-b-da, 5, 2, 1, 3, 90, 165, 165, 90, 161, 88, 1, 7.88178
241, 1, bw, attraction, a-b-da, 5, 2, 1, 3, 90, 165, 165, 90, 161, 88, 2, 11.7715
241, 1, bw, attraction, a-b-db, 5, 1, 1, 4, 60, 135, 135, 60, 58, 132, 1, 3.49502
241, 1, bw, attraction, a-b-db, 5, 1, 1, 4, 60, 135, 135, 60, 58, 132, 2, 2.52922
241, 1, bw, catch, NA, 999, 999, 1, 5, 152, 103, 63, 132, 179, 136, 3, 3.15302
241, 1, bw, catch, NA, 999, 999, 1, 5, 152, 103, 63, 132, 179, 136, 2, 3.28135
241, 1, bw, attraction, a-b-db, 14, 1, 1, 6, 56, 125, 135, 60, 60, 135, 3, 2.72281
241, 1, bw, attraction, a-b-db, 14, 1, 1, 6, 56, 125, 135, 60, 60, 135, 2, 1.69197
241, 1, bw, catch, NA, 999, 999, 1, 7, 114, 81, 146, 109, 133, 182, 3, 1.96538
241, 1, bw, catch, NA, 999, 999, 1, 7, 114, 81, 146, 109, 133, 182, 1, 1.58941
241, 1, bw, attraction, a-b-db, 14, 3, 1, 8, 111, 181, 120, 195, 195, 120, 2, 2.32363
241, 1, bw, attraction, a-b-db, 14, 3, 1, 8, 111, 181, 120, 195, 195, 120, 3, 3.10083
241, 1, bw, attraction, a-b-db, 9, 1, 1, 9, 57, 129, 135, 60, 60, 135, 3, 3.6058
241, 1, bw, attraction, a-b-db, 9, 1, 1, 9, 57, 129, 135, 60, 60, 135, 2, 4.41918
241, 1, bw, filler, NA, 999, 999, 1, 10, 189, 88, 160, 56, 93, 93, 1, 9.72724
241, 1, bw, filler, NA, 999, 999, 1, 10, 189, 88, 160, 56, 93, 93, 3, 22.182
241, 1, bw, attraction, a-b-da, 14, 1, 1, 11, 135, 60, 60, 135, 125, 56, 2, 2.03777
241, 1, bw, attraction, a-b-da, 14, 1, 1, 11, 135, 60, 60, 135, 125, 56, 3, 1.1791
241, 1, bw, filler, NA, 999, 999, 1, 12, 131, 152, 148, 135, 142, 60, 1, 1.58532
241, 1, bw, filler, NA, 999, 999, 1, 12, 131, 152, 148, 135, 142, 60, 3, 0.704787
241, 1, bw, filler, NA, 999, 999, 1, 13, 181, 89, 169, 139, 181, 65, 2, 3.0346
241, 1, bw, filler, NA, 999, 999, 1, 13, 181, 89, 169, 139, 181, 65, 3, 0.727581
241, 1, bw, attraction, a-b-da, 14, 2, 1, 14, 165, 90, 153, 83, 90, 165, 1, 2.59993
241, 1, bw, attraction, a-b-da, 14, 2, 1, 14, 165, 90, 153, 83, 90, 165, 2, 0.678452
241, 1, bw, filler, NA, 999, 999, 1, 15, 167, 82, 96, 121, 89, 190, 3, 5.27296
241, 1, bw, filler, NA, 999, 999, 1, 15, 167, 82, 96, 121, 89, 190, 2, 2.12316
241, 1, bw, attraction, a-b-db, 2, 1, 1, 16, 59, 134, 135, 60, 60, 135, 3, 2.95571
241, 1, bw, attraction, a-b-db, 2, 1, 1, 16, 59, 134, 135, 60, 60, 135, 2, 0.675572
241, 1, bw, attraction, a-b-da, 2, 2, 1, 17, 165, 90, 163, 89, 90, 165, 3, 4.89389
241, 1, bw, attraction, a-b-da, 2, 2, 1, 17, 165, 90, 163, 89, 90, 165, 2, 0.695679
241, 1, bw, filler, NA, 999, 999, 1, 18, 134, 156, 58, 125, 104, 56, 1, 0.801334
241, 1, bw, filler, NA, 999, 999, 1, 18, 134, 156, 58, 125, 104, 56, 3, 1.0004
241, 1, bw, attraction, a-b-da, 9, 2, 1, 19, 90, 165, 165, 90, 157, 86, 2, 2.07007
241, 1, bw, attraction, a-b-da, 9, 2, 1, 19, 90, 165, 165, 90, 157, 86, 3, 4.61797
241, 1, bw, attraction, a-b-da, 5, 3, 1, 20, 195, 120, 120, 195, 190, 117, 2, 2.91
241, 1, bw, attraction, a-b-da, 5, 3, 1, 20, 195, 120, 120, 195, 190, 117, 3, 1.80765
241, 1, bw, attraction, a-b-db, 14, 2, 1, 21, 83, 153, 165, 90, 90, 165, 3, 8.05228
241, 1, bw, attraction, a-b-db, 14, 2, 1, 21, 83, 153, 165, 90, 90, 165, 1, 0.855204
241, 1, bw, attraction, a-b-da, 14, 3, 1, 22, 181, 111, 195, 120, 120, 195, 3, 3.33099
241, 1, bw, attraction, a-b-da, 14, 3, 1, 22, 181, 111, 195, 120, 120, 195, 1, 0.659709
241, 1, bw, attraction, a-b-db, 2, 3, 1, 23, 195, 120, 120, 195, 119, 193, 2, 4.52675
241, 1, bw, attraction, a-b-db, 2, 3, 1, 23, 195, 120, 120, 195, 119, 193, 3, 4.19153
241, 1, bw, attraction, a-b-da, 9, 1, 1, 24, 60, 135, 135, 60, 129, 57, 1, 4.42797
241, 1, bw, attraction, a-b-da, 9, 1, 1, 24, 60, 135, 135, 60, 129, 57, 3, 4.19275
241, 1, bw, attraction, a-b-db, 9, 3, 1, 25, 120, 195, 195, 120, 114, 186, 1, 15.1012
241, 1, bw, attraction, a-b-db, 9, 3, 1, 25, 120, 195, 195, 120, 114, 186, 2, 2.35579
241, 1, bw, filler, NA, 999, 999, 1, 26, 95, 171, 184, 82, 150, 102, 3, 2.52305
241, 1, bw, filler, NA, 999, 999, 1, 26, 95, 171, 184, 82, 150, 102, 2, 1.22011
241, 1, bw, attraction, a-b-da, 5, 1, 1, 27, 60, 135, 132, 58, 135, 60, 1, 9.37711
241, 1, bw, attraction, a-b-da, 5, 1, 1, 27, 60, 135, 132, 58, 135, 60, 3, 1.21411
241, 1, bw, filler, NA, 999, 999, 1, 28, 166, 123, 62, 129, 57, 110, 1, 4.89904
241, 1, bw, filler, NA, 999, 999, 1, 28, 166, 123, 62, 129, 57, 110, 3, 0.612889
241, 1, bw, attraction, a-b-db, 9, 2, 1, 29, 86, 157, 90, 165, 165, 90, 2, 3.75389
241, 1, bw, attraction, a-b-db, 9, 2, 1, 29, 86, 157, 90, 165, 165, 90, 1, 14.7221
241, 1, bw, filler, NA, 999, 999, 1, 30, 163, 168, 69, 96, 67, 191, 1, 1.38277
241, 1, bw, filler, NA, 999, 999, 1, 30, 163, 168, 69, 96, 67, 191, 2, 0.678158
241, 1, bw, filler, NA, 999, 999, 1, 31, 103, 149, 114, 122, 82, 85, 1, 1.80057
241, 1, bw, filler, NA, 999, 999, 1, 31, 103, 149, 114, 122, 82, 85, 3, 1.07937
241, 1, bw, catch, NA, 999, 999, 1, 32, 65, 130, 111, 144, 173, 142, 3, 1.72966
241, 1, bw, catch, NA, 999, 999, 1, 32, 65, 130, 111, 144, 173, 142, 1, 2.48308
241, 1, bw, attraction, a-b-da, 2, 1, 1, 33, 135, 60, 134, 59, 60, 135, 3, 3.54894
241, 1, bw, attraction, a-b-da, 2, 1, 1, 33, 135, 60, 134, 59, 60, 135, 2, 0.64513
241, 1, bw, attraction, a-b-da, 9, 3, 1, 34, 186, 114, 195, 120, 120, 195, 3, 1.99286
241, 1, bw, attraction, a-b-da, 9, 3, 1, 34, 186, 114, 195, 120, 120, 195, 1, 1.00747
241, 1, bw, filler, NA, 999, 999, 1, 35, 184, 152, 127, 66, 58, 152, 1, 1.08447
241, 1, bw, filler, NA, 999, 999, 1, 35, 184, 152, 127, 66, 58, 152, 2, 0.816163
241, 1, bw, attraction, a-b-db, 2, 2, 1, 36, 90, 165, 89, 163, 165, 90, 1, 1.78117
241, 1, bw, attraction, a-b-db, 2, 2, 1, 36, 90, 165, 89, 163, 165, 90, 3, 0.748552
241, 1, bw, attraction, a-b-db, 5, 2, 1, 37, 165, 90, 88, 161, 90, 165, 3, 6.26036
241, 1, bw, attraction, a-b-db, 5, 2, 1, 37, 165, 90, 88, 161, 90, 165, 1, 1.14299
241, 1, bw, attraction, a-b-db, 14, 3, 2, 1, 111, 181, 120, 195, 195, 120, 2, 4.0865
241, 1, bw, attraction, a-b-db, 14, 3, 2, 1, 111, 181, 120, 195, 195, 120, 3, 0.801183
241, 1, bw, catch, NA, 999, 999, 2, 2, 92, 103, 137, 178, 133, 122, 2, 1.04687
241, 1, bw, catch, NA, 999, 999, 2, 2, 92, 103, 137, 178, 133, 122, 1, 0.635906
241, 1, bw, attraction, a-b-da, 5, 1, 2, 3, 132, 58, 60, 135, 135, 60, 2, 2.88836
241, 1, bw, attraction, a-b-da, 5, 1, 2, 3, 132, 58, 60, 135, 135, 60, 1, 1.87482
241, 1, bw, attraction, a-b-da, 2, 1, 2, 4, 135, 60, 60, 135, 134, 59, 2, 21.2128
241, 1, bw, attraction, a-b-da, 2, 1, 2, 4, 135, 60, 60, 135, 134, 59, 1, 0.580675
241, 1, bw, attraction, a-b-da, 2, 3, 2, 5, 193, 119, 195, 120, 120, 195, 3, 2.59523
241, 1, bw, attraction, a-b-da, 2, 3, 2, 5, 193, 119, 195, 120, 120, 195, 1, 2.98578
241, 1, bw, attraction, a-b-db, 5, 3, 2, 6, 117, 190, 195, 120, 120, 195, 3, 1.39143
241, 1, bw, attraction, a-b-db, 5, 3, 2, 6, 117, 190, 195, 120, 120, 195, 2, 0.926258
241, 1, bw, attraction, a-b-db, 2, 3, 2, 7, 195, 120, 120, 195, 119, 193, 2, 2.47853
241, 1, bw, attraction, a-b-db, 2, 3, 2, 7, 195, 120, 120, 195, 119, 193, 1, 0.617789
241, 1, bw, attraction, a-b-da, 9, 3, 2, 8, 120, 195, 186, 114, 195, 120, 1, 3.04675
241, 1, bw, attraction, a-b-da, 9, 3, 2, 8, 120, 195, 186, 114, 195, 120, 2, 1.9391
241, 1, bw, attraction, a-b-da, 2, 2, 2, 9, 163, 89, 90, 165, 165, 90, 2, 1.90708
241, 1, bw, attraction, a-b-da, 2, 2, 2, 9, 163, 89, 90, 165, 165, 90, 3, 0.893215
241, 1, bw, attraction, a-b-db, 5, 2, 2, 10, 165, 90, 90, 165, 88, 161, 2, 4.15096
241, 1, bw, attraction, a-b-db, 5, 2, 2, 10, 165, 90, 90, 165, 88, 161, 1, 3.68715
241, 1, bw, filler, NA, 999, 999, 2, 11, 188, 105, 179, 166, 100, 130, 2, 0.800351
241, 1, bw, filler, NA, 999, 999, 2, 11, 188, 105, 179, 166, 100, 130, 3, 2.0474
241, 1, bw, attraction, a-b-da, 5, 2, 2, 12, 165, 90, 161, 88, 90, 165, 3, 5.09875
241, 1, bw, attraction, a-b-da, 5, 2, 2, 12, 165, 90, 161, 88, 90, 165, 2, 2.02846
241, 1, bw, catch, NA, 999, 999, 2, 13, 153, 162, 70, 125, 140, 115, 1, 1.44836
241, 1, bw, catch, NA, 999, 999, 2, 13, 153, 162, 70, 125, 140, 115, 2, 0.437238
241, 1, bw, filler, NA, 999, 999, 2, 14, 98, 59, 62, 59, 142, 144, 3, 1.04979
241, 1, bw, filler, NA, 999, 999, 2, 14, 98, 59, 62, 59, 142, 144, 2, 0.894786
241, 1, bw, attraction, a-b-db, 14, 1, 2, 15, 135, 60, 60, 135, 56, 125, 2, 3.17634
241, 1, bw, attraction, a-b-db, 14, 1, 2, 15, 135, 60, 60, 135, 56, 125, 3, 0.38332
241, 1, bw, attraction, a-b-db, 2, 2, 2, 16, 90, 165, 165, 90, 89, 163, 1, 2.76577
241, 1, bw, attraction, a-b-db, 2, 2, 2, 16, 90, 165, 165, 90, 89, 163, 2, 4.68556
241, 1, bw, attraction, a-b-da, 9, 1, 2, 17, 60, 135, 135, 60, 129, 57, 2, 2.3427
241, 1, bw, attraction, a-b-da, 9, 1, 2, 17, 60, 135, 135, 60, 129, 57, 3, 1.16728
241, 1, bw, attraction, a-b-da, 5, 3, 2, 18, 190, 117, 195, 120, 120, 195, 3, 1.33425
241, 1, bw, attraction, a-b-da, 5, 3, 2, 18, 190, 117, 195, 120, 120, 195, 2, 0.399788
241, 1, bw, filler, NA, 999, 999, 2, 19, 88, 123, 79, 107, 113, 57, 1, 3.99766
241, 1, bw, filler, NA, 999, 999, 2, 19, 88, 123, 79, 107, 113, 57, 3, 0.755639
241, 1, bw, filler, NA, 999, 999, 2, 20, 82, 169, 157, 113, 159, 56, 2, 1.57131
241, 1, bw, filler, NA, 999, 999, 2, 20, 82, 169, 157, 113, 159, 56, 3, 0.64354
241, 1, bw, catch, NA, 999, 999, 2, 21, 126, 69, 163, 152, 131, 124, 2, 1.39932
241, 1, bw, catch, NA, 999, 999, 2, 21, 126, 69, 163, 152, 131, 124, 1, 0.854099
241, 1, bw, filler, NA, 999, 999, 2, 22, 57, 190, 114, 101, 132, 152, 3, 1.89774
241, 1, bw, filler, NA, 999, 999, 2, 22, 57, 190, 114, 101, 132, 152, 2, 7.70065
241, 1, bw, filler, NA, 999, 999, 2, 23, 76, 174, 170, 132, 159, 134, 2, 3.55617
241, 1, bw, filler, NA, 999, 999, 2, 23, 76, 174, 170, 132, 159, 134, 1, 1.61161
241, 1, bw, filler, NA, 999, 999, 2, 24, 92, 92, 190, 109, 134, 59, 2, 2.53643
241, 1, bw, filler, NA, 999, 999, 2, 24, 92, 92, 190, 109, 134, 59, 3, 7.01758
241, 1, bw, attraction, a-b-da, 14, 3, 2, 25, 120, 195, 195, 120, 181, 111, 2, 1.43671
241, 1, bw, attraction, a-b-da, 14, 3, 2, 25, 120, 195, 195, 120, 181, 111, 3, 0.490144
241, 1, bw, attraction, a-b-db, 9, 1, 2, 26, 60, 135, 57, 129, 135, 60, 2, 6.49994
241, 1, bw, attraction, a-b-db, 9, 1, 2, 26, 60, 135, 57, 129, 135, 60, 3, 0.669332
241, 1, bw, attraction, a-b-da, 14, 2, 2, 27, 90, 165, 165, 90, 153, 83, 2, 3.68835
241, 1, bw, attraction, a-b-da, 14, 2, 2, 27, 90, 165, 165, 90, 153, 83, 3, 0.682439
241, 1, bw, attraction, a-b-db, 9, 2, 2, 28, 86, 157, 90, 165, 165, 90, 2, 8.9329
241, 1, bw, attraction, a-b-db, 9, 2, 2, 28, 86, 157, 90, 165, 165, 90, 3, 0.93202
241, 1, bw, attraction, a-b-db, 14, 2, 2, 29, 165, 90, 83, 153, 90, 165, 3, 1.64429
241, 1, bw, attraction, a-b-db, 14, 2, 2, 29, 165, 90, 83, 153, 90, 165, 1, 1.32113
241, 1, bw, filler, NA, 999, 999, 2, 30, 115, 136, 147, 86, 125, 144, 3, 1.57802
241, 1, bw, filler, NA, 999, 999, 2, 30, 115, 136, 147, 86, 125, 144, 2, 3.20155
241, 1, bw, attraction, a-b-da, 9, 2, 2, 31, 90, 165, 157, 86, 165, 90, 2, 21.6144
241, 1, bw, attraction, a-b-da, 9, 2, 2, 31, 90, 165, 157, 86, 165, 90, 3, 0.662405
241, 1, bw, attraction, a-b-da, 14, 1, 2, 32, 60, 135, 125, 56, 135, 60, 3, 3.00142
241, 1, bw, attraction, a-b-da, 14, 1, 2, 32, 60, 135, 125, 56, 135, 60, 2, 0.415794
241, 1, bw, attraction, a-b-db, 9, 3, 2, 33, 120, 195, 195, 120, 114, 186, 1, 1.86086
241, 1, bw, attraction, a-b-db, 9, 3, 2, 33, 120, 195, 195, 120, 114, 186, 3, 1.42499
241, 1, bw, filler, NA, 999, 999, 2, 34, 110, 185, 97, 149, 114, 143, 1, 1.90921
241, 1, bw, filler, NA, 999, 999, 2, 34, 110, 185, 97, 149, 114, 143, 2, 0.407154
241, 1, bw, attraction, a-b-db, 5, 1, 2, 35, 135, 60, 58, 132, 60, 135, 2, 2.97226
241, 1, bw, attraction, a-b-db, 5, 1, 2, 35, 135, 60, 58, 132, 60, 135, 1, 0.707272
241, 1, bw, attraction, a-b-db, 2, 1, 2, 36, 135, 60, 60, 135, 59, 134, 2, 2.68449
241, 1, bw, attraction, a-b-db, 2, 1, 2, 36, 135, 60, 60, 135, 59, 134, 1, 0.583569
241, 1, bw, filler, NA, 999, 999, 2, 37, 71, 104, 155, 153, 156, 84, 2, 1.14984
241, 1, bw, filler, NA, 999, 999, 2, 37, 71, 104, 155, 153, 156, 84, 1, 0.662881
241, 1, bw, filler, NA, 999, 999, 3, 1, 71, 153, 105, 187, 167, 154, 3, 1.2019
241, 1, bw, filler, NA, 999, 999, 3, 1, 71, 153, 105, 187, 167, 154, 1, 0.776854
241, 1, bw, attraction, a-b-da, 5, 3, 3, 2, 120, 195, 195, 120, 190, 117, 1, 2.60731
241, 1, bw, attraction, a-b-da, 5, 3, 3, 2, 120, 195, 195, 120, 190, 117, 2, 1.50103
241, 1, bw, attraction, a-b-db, 9, 3, 3, 3, 120, 195, 195, 120, 114, 186, 1, 2.85462
241, 1, bw, attraction, a-b-db, 9, 3, 3, 3, 120, 195, 195, 120, 114, 186, 2, 1.93838
241, 1, bw, filler, NA, 999, 999, 3, 4, 64, 173, 174, 173, 87, 169, 2, 2.05826
241, 1, bw, filler, NA, 999, 999, 3, 4, 64, 173, 174, 173, 87, 169, 1, 0.494387
241, 1, bw, catch, NA, 999, 999, 3, 5, 191, 124, 159, 96, 81, 114, 1, 1.82403
241, 1, bw, catch, NA, 999, 999, 3, 5, 191, 124, 159, 96, 81, 114, 3, 1.02168
241, 1, bw, attraction, a-b-db, 14, 3, 3, 6, 120, 195, 195, 120, 111, 181, 1, 2.63441
241, 1, bw, attraction, a-b-db, 14, 3, 3, 6, 120, 195, 195, 120, 111, 181, 2, 18.2476
241, 1, bw, attraction, a-b-db, 9, 2, 3, 7, 86, 157, 90, 165, 165, 90, 2, 4.62976
241, 1, bw, attraction, a-b-db, 9, 2, 3, 7, 86, 157, 90, 165, 165, 90, 1, 3.24247
241, 1, bw, catch, NA, 999, 999, 3, 8, 80, 115, 93, 162, 144, 171, 3, 1.00532
241, 1, bw, catch, NA, 999, 999, 3, 8, 80, 115, 93, 162, 144, 171, 1, 0.699611
241, 1, bw, attraction, a-b-db, 9, 1, 3, 9, 135, 60, 57, 129, 60, 135, 3, 4.70939
241, 1, bw, attraction, a-b-db, 9, 1, 3, 9, 135, 60, 57, 129, 60, 135, 1, 0.718568
241, 1, bw, attraction, a-b-da, 9, 1, 3, 10, 129, 57, 135, 60, 60, 135, 3, 10.3756
241, 1, bw, attraction, a-b-da, 9, 1, 3, 10, 129, 57, 135, 60, 60, 135, 1, 0.836291
241, 1, bw, attraction, a-b-da, 2, 1, 3, 11, 135, 60, 60, 135, 134, 59, 2, 2.42474
241, 1, bw, attraction, a-b-da, 2, 1, 3, 11, 135, 60, 60, 135, 134, 59, 3, 0.91783
241, 1, bw, attraction, a-b-db, 2, 1, 3, 12, 135, 60, 60, 135, 59, 134, 2, 1.88688
241, 1, bw, attraction, a-b-db, 2, 1, 3, 12, 135, 60, 60, 135, 59, 134, 1, 1.56222
241, 1, bw, attraction, a-b-da, 14, 3, 3, 13, 195, 120, 181, 111, 120, 195, 1, 9.36911
241, 1, bw, attraction, a-b-da, 14, 3, 3, 13, 195, 120, 181, 111, 120, 195, 2, 0.550699
241, 1, bw, filler, NA, 999, 999, 3, 14, 176, 168, 160, 70, 112, 73, 1, 0.670423
241, 1, bw, filler, NA, 999, 999, 3, 14, 176, 168, 160, 70, 112, 73, 3, 1.08285
241, 1, bw, attraction, a-b-db, 14, 1, 3, 15, 56, 125, 135, 60, 60, 135, 3, 3.83726
241, 1, bw, attraction, a-b-db, 14, 1, 3, 15, 56, 125, 135, 60, 60, 135, 1, 0.650089
241, 1, bw, filler, NA, 999, 999, 3, 16, 99, 57, 132, 63, 103, 157, 3, 0.909632
241, 1, bw, filler, NA, 999, 999, 3, 16, 99, 57, 132, 63, 103, 157, 1, 1.04799
241, 1, bw, attraction, a-b-da, 2, 2, 3, 17, 90, 165, 165, 90, 163, 89, 1, 2.54761
241, 1, bw, attraction, a-b-da, 2, 2, 3, 17, 90, 165, 165, 90, 163, 89, 2, 0.788187
241, 1, bw, catch, NA, 999, 999, 3, 18, 186, 129, 131, 64, 129, 126, 1, 0.850506
241, 1, bw, catch, NA, 999, 999, 3, 18, 186, 129, 131, 64, 129, 126, 2, 0.447625
241, 1, bw, attraction, a-b-db, 2, 2, 3, 19, 89, 163, 165, 90, 90, 165, 2, 1.93939
241, 1, bw, attraction, a-b-db, 2, 2, 3, 19, 89, 163, 165, 90, 90, 165, 3, 11.0921
241, 1, bw, attraction, a-b-db, 5, 2, 3, 20, 88, 161, 165, 90, 90, 165, 3, 3.82724
241, 1, bw, attraction, a-b-db, 5, 2, 3, 20, 88, 161, 165, 90, 90, 165, 2, 2.43999
241, 1, bw, attraction, a-b-db, 2, 3, 3, 21, 120, 195, 119, 193, 195, 120, 2, 1.69187
241, 1, bw, attraction, a-b-db, 2, 3, 3, 21, 120, 195, 119, 193, 195, 120, 3, 4.40676
241, 1, bw, filler, NA, 999, 999, 3, 22, 114, 161, 140, 92, 86, 103, 1, 1.35516
241, 1, bw, filler, NA, 999, 999, 3, 22, 114, 161, 140, 92, 86, 103, 3, 0.659397
241, 1, bw, filler, NA, 999, 999, 3, 23, 97, 115, 64, 186, 116, 78, 1, 13.8066
241, 1, bw, filler, NA, 999, 999, 3, 23, 97, 115, 64, 186, 116, 78, 3, 0.921486
241, 1, bw, attraction, a-b-da, 2, 3, 3, 24, 120, 195, 195, 120, 193, 119, 2, 8.56256
241, 1, bw, attraction, a-b-da, 2, 3, 3, 24, 120, 195, 195, 120, 193, 119, 1, 0.624424
241, 1, bw, filler, NA, 999, 999, 3, 25, 185, 121, 137, 96, 96, 122, 1, 1.20484
241, 1, bw, filler, NA, 999, 999, 3, 25, 185, 121, 137, 96, 96, 122, 3, 0.491202
241, 1, bw, attraction, a-b-da, 5, 1, 3, 26, 132, 58, 60, 135, 135, 60, 2, 1.84515
241, 1, bw, attraction, a-b-da, 5, 1, 3, 26, 132, 58, 60, 135, 135, 60, 1, 2.36165
241, 1, bw, attraction, a-b-db, 5, 3, 3, 27, 120, 195, 117, 190, 195, 120, 1, 10.9282
241, 1, bw, attraction, a-b-db, 5, 3, 3, 27, 120, 195, 117, 190, 195, 120, 2, 3.6948
241, 1, bw, attraction, a-b-db, 14, 2, 3, 28, 90, 165, 165, 90, 83, 153, 3, 6.58355
241, 1, bw, attraction, a-b-db, 14, 2, 3, 28, 90, 165, 165, 90, 83, 153, 2, 1.63746
241, 1, bw, filler, NA, 999, 999, 3, 29, 125, 154, 67, 71, 131, 140, 1, 10.4017
241, 1, bw, filler, NA, 999, 999, 3, 29, 125, 154, 67, 71, 131, 140, 2, 0.733577
241, 1, bw, attraction, a-b-da, 14, 2, 3, 30, 165, 90, 153, 83, 90, 165, 3, 2.90196
241, 1, bw, attraction, a-b-da, 14, 2, 3, 30, 165, 90, 153, 83, 90, 165, 2, 0.560408
241, 1, bw, attraction, a-b-da, 14, 1, 3, 31, 60, 135, 125, 56, 135, 60, 1, 14.4155
241, 1, bw, attraction, a-b-da, 14, 1, 3, 31, 60, 135, 125, 56, 135, 60, 2, 0.977714
241, 1, bw, attraction, a-b-da, 9, 2, 3, 32, 165, 90, 90, 165, 157, 86, 2, 6.56783
241, 1, bw, attraction, a-b-da, 9, 2, 3, 32, 165, 90, 90, 165, 157, 86, 3, 0.76654
241, 1, bw, attraction, a-b-db, 5, 1, 3, 33, 60, 135, 135, 60, 58, 132, 1, 6.58957
241, 1, bw, attraction, a-b-db, 5, 1, 3, 33, 60, 135, 135, 60, 58, 132, 3, 0.94737
241, 1, bw, attraction, a-b-da, 9, 3, 3, 34, 195, 120, 186, 114, 120, 195, 3, 1.44318
241, 1, bw, attraction, a-b-da, 9, 3, 3, 34, 195, 120, 186, 114, 120, 195, 2, 2.24001
241, 1, bw, filler, NA, 999, 999, 3, 35, 88, 115, 114, 177, 117, 128, 2, 2.25999
241, 1, bw, filler, NA, 999, 999, 3, 35, 88, 115, 114, 177, 117, 128, 1, 0.559733
241, 1, bw, filler, NA, 999, 999, 3, 36, 132, 113, 113, 185, 84, 158, 2, 2.38285
241, 1, bw, filler, NA, 999, 999, 3, 36, 132, 113, 113, 185, 84, 158, 3, 0.494161
241, 1, bw, attraction, a-b-da, 5, 2, 3, 37, 90, 165, 165, 90, 161, 88, 1, 3.81593
241, 1, bw, attraction, a-b-da, 5, 2, 3, 37, 90, 165, 165, 90, 161, 88, 3, 2.79733
241, 1, bw, attraction, a-b-da, 5, 3, 4, 1, 190, 117, 120, 195, 195, 120, 2, 8.86638
241, 1, bw, attraction, a-b-da, 5, 3, 4, 1, 190, 117, 120, 195, 195, 120, 1, 1.12429
241, 1, bw, attraction, a-b-db, 2, 1, 4, 2, 135, 60, 60, 135, 59, 134, 2, 8.10878
241, 1, bw, attraction, a-b-db, 2, 1, 4, 2, 135, 60, 60, 135, 59, 134, 1, 0.884625
241, 1, bw, filler, NA, 999, 999, 4, 3, 131, 167, 122, 119, 62, 113, 1, 1.32699
241, 1, bw, filler, NA, 999, 999, 4, 3, 131, 167, 122, 119, 62, 113, 3, 0.672519
241, 1, bw, attraction, a-b-db, 14, 3, 4, 4, 195, 120, 111, 181, 120, 195, 3, 2.31568
241, 1, bw, attraction, a-b-db, 14, 3, 4, 4, 195, 120, 111, 181, 120, 195, 1, 0.55749
241, 1, bw, attraction, a-b-da, 2, 2, 4, 5, 165, 90, 163, 89, 90, 165, 3, 9.42063
241, 1, bw, attraction, a-b-da, 2, 2, 4, 5, 165, 90, 163, 89, 90, 165, 1, 0.680272
241, 1, bw, attraction, a-b-db, 9, 3, 4, 6, 114, 186, 195, 120, 120, 195, 3, 1.41874
241, 1, bw, attraction, a-b-db, 9, 3, 4, 6, 114, 186, 195, 120, 120, 195, 1, 0.440854
241, 1, bw, attraction, a-b-db, 5, 1, 4, 7, 58, 132, 60, 135, 135, 60, 2, 6.42875
241, 1, bw, attraction, a-b-db, 5, 1, 4, 7, 58, 132, 60, 135, 135, 60, 3, 0.512711
241, 1, bw, filler, NA, 999, 999, 4, 8, 111, 178, 181, 69, 84, 117, 1, 1.47389
241, 1, bw, filler, NA, 999, 999, 4, 8, 111, 178, 181, 69, 84, 117, 3, 1.70931
241, 1, bw, filler, NA, 999, 999, 4, 9, 127, 123, 73, 138, 173, 194, 3, 3.56602
241, 1, bw, filler, NA, 999, 999, 4, 9, 127, 123, 73, 138, 173, 194, 2, 0.869659
241, 1, bw, attraction, a-b-da, 2, 1, 4, 10, 135, 60, 60, 135, 134, 59, 2, 12.5286
241, 1, bw, attraction, a-b-da, 2, 1, 4, 10, 135, 60, 60, 135, 134, 59, 3, 1.15871
241, 1, bw, filler, NA, 999, 999, 4, 11, 58, 116, 62, 128, 135, 74, 3, 1.21351
241, 1, bw, filler, NA, 999, 999, 4, 11, 58, 116, 62, 128, 135, 74, 1, 0.659831
241, 1, bw, attraction, a-b-da, 14, 2, 4, 12, 165, 90, 153, 83, 90, 165, 3, 5.55885
241, 1, bw, attraction, a-b-da, 14, 2, 4, 12, 165, 90, 153, 83, 90, 165, 2, 2.62983
241, 1, bw, attraction, a-b-db, 14, 2, 4, 13, 90, 165, 165, 90, 83, 153, 1, 1.53748
241, 1, bw, attraction, a-b-db, 14, 2, 4, 13, 90, 165, 165, 90, 83, 153, 3, 1.98705
241, 1, bw, attraction, a-b-da, 9, 3, 4, 14, 120, 195, 195, 120, 186, 114, 1, 2.33709
241, 1, bw, attraction, a-b-da, 9, 3, 4, 14, 120, 195, 195, 120, 186, 114, 3, 1.37825
241, 1, bw, attraction, a-b-da, 5, 1, 4, 15, 135, 60, 132, 58, 60, 135, 3, 2.56846
241, 1, bw, attraction, a-b-da, 5, 1, 4, 15, 135, 60, 132, 58, 60, 135, 2, 0.688388
241, 1, bw, attraction, a-b-da, 9, 1, 4, 16, 60, 135, 135, 60, 129, 57, 1, 8.60263
241, 1, bw, attraction, a-b-da, 9, 1, 4, 16, 60, 135, 135, 60, 129, 57, 3, 0.887284
241, 1, bw, attraction, a-b-db, 9, 2, 4, 17, 165, 90, 86, 157, 90, 165, 3, 4.08178
241, 1, bw, attraction, a-b-db, 9, 2, 4, 17, 165, 90, 86, 157, 90, 165, 1, 0.668302
241, 1, bw, filler, NA, 999, 999, 4, 18, 97, 194, 67, 79, 123, 61, 1, 1.07938
241, 1, bw, filler, NA, 999, 999, 4, 18, 97, 194, 67, 79, 123, 61, 2, 0.507073
241, 1, bw, catch, NA, 999, 999, 4, 19, 131, 184, 100, 95, 124, 131, 1, 1.9001
241, 1, bw, catch, NA, 999, 999, 4, 19, 131, 184, 100, 95, 124, 131, 2, 0.726907
241, 1, bw, catch, NA, 999, 999, 4, 20, 120, 75, 139, 116, 190, 125, 3, 1.25532
241, 1, bw, catch, NA, 999, 999, 4, 20, 120, 75, 139, 116, 190, 125, 1, 0.635506
241, 1, bw, catch, NA, 999, 999, 4, 21, 122, 133, 77, 118, 129, 186, 3, 1.63993
241, 1, bw, catch, NA, 999, 999, 4, 21, 122, 133, 77, 118, 129, 186, 2, 0.548733
241, 1, bw, filler, NA, 999, 999, 4, 22, 67, 76, 178, 176, 188, 125, 2, 1.13261
241, 1, bw, filler, NA, 999, 999, 4, 22, 67, 76, 178, 176, 188, 125, 1, 0.854128
241, 1, bw, attraction, a-b-db, 5, 3, 4, 23, 117, 190, 120, 195, 195, 120, 1, 5.95372
241, 1, bw, attraction, a-b-db, 5, 3, 4, 23, 117, 190, 120, 195, 195, 120, 2, 1.54531
241, 1, bw, attraction, a-b-db, 5, 2, 4, 24, 90, 165, 165, 90, 88, 161, 1, 3.87272
241, 1, bw, attraction, a-b-db, 5, 2, 4, 24, 90, 165, 165, 90, 88, 161, 3, 2.05942
241, 1, bw, filler, NA, 999, 999, 4, 25, 77, 93, 128, 139, 114, 155, 2, 1.51003
241, 1, bw, filler, NA, 999, 999, 4, 25, 77, 93, 128, 139, 114, 155, 1, 0.736154
241, 1, bw, attraction, a-b-db, 2, 2, 4, 26, 90, 165, 165, 90, 89, 163, 1, 1.95275
241, 1, bw, attraction, a-b-db, 2, 2, 4, 26, 90, 165, 165, 90, 89, 163, 2, 2.1853
241, 1, bw, attraction, a-b-da, 14, 1, 4, 27, 135, 60, 60, 135, 125, 56, 2, 1.42324
241, 1, bw, attraction, a-b-da, 14, 1, 4, 27, 135, 60, 60, 135, 125, 56, 3, 0.620884
241, 1, bw, attraction, a-b-db, 2, 3, 4, 28, 119, 193, 120, 195, 195, 120, 2, 2.4019
241, 1, bw, attraction, a-b-db, 2, 3, 4, 28, 119, 193, 120, 195, 195, 120, 3, 0.504561
241, 1, bw, filler, NA, 999, 999, 4, 29, 145, 106, 136, 109, 84, 186, 2, 1.57023
241, 1, bw, filler, NA, 999, 999, 4, 29, 145, 106, 136, 109, 84, 186, 3, 2.71438
241, 1, bw, attraction, a-b-db, 9, 1, 4, 30, 135, 60, 60, 135, 57, 129, 2, 1.93077
241, 1, bw, attraction, a-b-db, 9, 1, 4, 30, 135, 60, 60, 135, 57, 129, 1, 0.724144
241, 1, bw, attraction, a-b-da, 14, 3, 4, 31, 181, 111, 120, 195, 195, 120, 2, 5.34866
241, 1, bw, attraction, a-b-da, 14, 3, 4, 31, 181, 111, 120, 195, 195, 120, 1, 0.596239
241, 1, bw, attraction, a-b-da, 5, 2, 4, 32, 165, 90, 90, 165, 161, 88, 2, 5.05801
241, 1, bw, attraction, a-b-da, 5, 2, 4, 32, 165, 90, 90, 165, 161, 88, 3, 1.09291
241, 1, bw, attraction, a-b-db, 14, 1, 4, 33, 135, 60, 56, 125, 60, 135, 2, 1.48651
241, 1, bw, attraction, a-b-db, 14, 1, 4, 33, 135, 60, 56, 125, 60, 135, 1, 0.666146
241, 1, bw, attraction, a-b-da, 2, 3, 4, 34, 195, 120, 120, 195, 193, 119, 2, 6.2852
241, 1, bw, attraction, a-b-da, 2, 3, 4, 34, 195, 120, 120, 195, 193, 119, 1, 0.583185
241, 1, bw, attraction, a-b-da, 9, 2, 4, 35, 90, 165, 157, 86, 165, 90, 3, 7.57365
241, 1, bw, attraction, a-b-da, 9, 2, 4, 35, 90, 165, 157, 86, 165, 90, 2, 0.451187
241, 1, bw, filler, NA, 999, 999, 4, 36, 60, 156, 126, 164, 98, 186, 2, 0.903072
241, 1, bw, filler, NA, 999, 999, 4, 36, 60, 156, 126, 164, 98, 186, 1, 0.409971
241, 1, bw, filler, NA, 999, 999, 4, 37, 165, 160, 168, 60, 92, 190, 1, 1.00714
241, 1, bw, filler, NA, 999, 999, 4, 37, 165, 160, 168, 60, 92, 190, 2, 0.445474
241, 1, bw, filler, NA, 999, 999, 5, 1, 103, 140, 141, 175, 153, 159, 2, 3.1919
241, 1, bw, filler, NA, 999, 999, 5, 1, 103, 140, 141, 175, 153, 159, 1, 0.942172
241, 1, bw, attraction, a-b-db, 9, 3, 5, 2, 120, 195, 114, 186, 195, 120, 1, 2.54184
241, 1, bw, attraction, a-b-db, 9, 3, 5, 2, 120, 195, 114, 186, 195, 120, 3, 1.38249
241, 1, bw, filler, NA, 999, 999, 5, 3, 118, 192, 132, 149, 84, 109, 2, 1.06856
241, 1, bw, filler, NA, 999, 999, 5, 3, 118, 192, 132, 149, 84, 109, 3, 2.08892
241, 1, bw, attraction, a-b-db, 14, 3, 5, 4, 111, 181, 120, 195, 195, 120, 2, 1.33883
241, 1, bw, attraction, a-b-db, 14, 3, 5, 4, 111, 181, 120, 195, 195, 120, 1, 0.851759
241, 1, bw, filler, NA, 999, 999, 5, 5, 155, 174, 131, 113, 149, 138, 1, 1.06335
241, 1, bw, filler, NA, 999, 999, 5, 5, 155, 174, 131, 113, 149, 138, 2, 0.747689
241, 1, bw, attraction, a-b-da, 2, 2, 5, 6, 90, 165, 165, 90, 163, 89, 1, 4.09952
241, 1, bw, attraction, a-b-da, 2, 2, 5, 6, 90, 165, 165, 90, 163, 89, 2, 0.709558
241, 1, bw, catch, NA, 999, 999, 5, 7, 135, 180, 135, 120, 94, 101, 1, 1.03046
241, 1, bw, catch, NA, 999, 999, 5, 7, 135, 180, 135, 120, 94, 101, 3, 0.844129
241, 1, bw, filler, NA, 999, 999, 5, 8, 188, 140, 82, 79, 108, 60, 1, 0.759762
241, 1, bw, filler, NA, 999, 999, 5, 8, 188, 140, 82, 79, 108, 60, 3, 1.48033
241, 1, bw, filler, NA, 999, 999, 5, 9, 76, 188, 149, 152, 56, 194, 2, 1.14629
241, 1, bw, filler, NA, 999, 999, 5, 9, 76, 188, 149, 152, 56, 194, 3, 0.731279
241, 1, bw, attraction, a-b-db, 5, 3, 5, 10, 120, 195, 195, 120, 117, 190, 1, 5.33961
241, 1, bw, attraction, a-b-db, 5, 3, 5, 10, 120, 195, 195, 120, 117, 190, 2, 4.21129
241, 1, bw, attraction, a-b-da, 2, 3, 5, 11, 195, 120, 120, 195, 193, 119, 2, 1.63148
241, 1, bw, attraction, a-b-da, 2, 3, 5, 11, 195, 120, 120, 195, 193, 119, 3, 14.4609
241, 1, bw, attraction, a-b-da, 5, 3, 5, 12, 190, 117, 195, 120, 120, 195, 3, 2.55615
241, 1, bw, attraction, a-b-da, 5, 3, 5, 12, 190, 117, 195, 120, 120, 195, 1, 0.739953
241, 1, bw, attraction, a-b-da, 9, 2, 5, 13, 165, 90, 90, 165, 157, 86, 2, 4.37964
241, 1, bw, attraction, a-b-da, 9, 2, 5, 13, 165, 90, 90, 165, 157, 86, 3, 0.682374
241, 1, bw, attraction, a-b-db, 2, 1, 5, 14, 59, 134, 135, 60, 60, 135, 1, 4.3087
241, 1, bw, attraction, a-b-db, 2, 1, 5, 14, 59, 134, 135, 60, 60, 135, 2, 1.30214
241, 1, bw, attraction, a-b-db, 2, 2, 5, 15, 165, 90, 89, 163, 90, 165, 2, 5.42366
241, 1, bw, attraction, a-b-db, 2, 2, 5, 15, 165, 90, 89, 163, 90, 165, 3, 1.03576
241, 1, bw, attraction, a-b-db, 9, 2, 5, 16, 165, 90, 90, 165, 86, 157, 2, 10.4721
241, 1, bw, attraction, a-b-db, 9, 2, 5, 16, 165, 90, 90, 165, 86, 157, 3, 2.06541
241, 1, bw, catch, NA, 999, 999, 5, 17, 162, 93, 168, 147, 101, 94, 2, 1.10011
241, 1, bw, catch, NA, 999, 999, 5, 17, 162, 93, 168, 147, 101, 94, 3, 0.535146
241, 1, bw, attraction, a-b-db, 5, 1, 5, 18, 135, 60, 58, 132, 60, 135, 3, 2.68755
241, 1, bw, attraction, a-b-db, 5, 1, 5, 18, 135, 60, 58, 132, 60, 135, 1, 0.594605
241, 1, bw, filler, NA, 999, 999, 5, 19, 138, 160, 86, 152, 175, 195, 3, 1.52039
241, 1, bw, filler, NA, 999, 999, 5, 19, 138, 160, 86, 152, 175, 195, 2, 0.570539
241, 1, bw, attraction, a-b-da, 5, 2, 5, 20, 165, 90, 90, 165, 161, 88, 2, 4.79373
241, 1, bw, attraction, a-b-da, 5, 2, 5, 20, 165, 90, 90, 165, 161, 88, 3, 1.87971
241, 1, bw, attraction, a-b-da, 2, 1, 5, 21, 135, 60, 60, 135, 134, 59, 2, 1.52161
241, 1, bw, attraction, a-b-da, 2, 1, 5, 21, 135, 60, 60, 135, 134, 59, 3, 3.51504
241, 1, bw, attraction, a-b-db, 14, 2, 5, 22, 83, 153, 90, 165, 165, 90, 2, 2.67508
241, 1, bw, attraction, a-b-db, 14, 2, 5, 22, 83, 153, 90, 165, 165, 90, 1, 0.926237
241, 1, bw, filler, NA, 999, 999, 5, 23, 97, 134, 168, 66, 103, 178, 3, 0.662598
241, 1, bw, filler, NA, 999, 999, 5, 23, 97, 134, 168, 66, 103, 178, 2, 1.62877
241, 1, bw, attraction, a-b-db, 2, 3, 5, 24, 120, 195, 195, 120, 119, 193, 1, 5.19116
241, 1, bw, attraction, a-b-db, 2, 3, 5, 24, 120, 195, 195, 120, 119, 193, 2, 1.52473
241, 1, bw, catch, NA, 999, 999, 5, 25, 163, 92, 163, 152, 92, 103, 2, 1.04488
241, 1, bw, catch, NA, 999, 999, 5, 25, 163, 92, 163, 152, 92, 103, 3, 0.513991
241, 1, bw, filler, NA, 999, 999, 5, 26, 154, 103, 141, 143, 130, 89, 2, 3.00306
241, 1, bw, filler, NA, 999, 999, 5, 26, 154, 103, 141, 143, 130, 89, 3, 0.617389
241, 1, bw, attraction, a-b-db, 9, 1, 5, 27, 60, 135, 57, 129, 135, 60, 1, 4.8625
241, 1, bw, attraction, a-b-db, 9, 1, 5, 27, 60, 135, 57, 129, 135, 60, 2, 1.11362
241, 1, bw, filler, NA, 999, 999, 5, 28, 99, 151, 162, 87, 128, 178, 3, 1.29053
241, 1, bw, filler, NA, 999, 999, 5, 28, 99, 151, 162, 87, 128, 178, 2, 2.82148
241, 1, bw, attraction, a-b-da, 14, 2, 5, 29, 165, 90, 153, 83, 90, 165, 3, 2.59387
241, 1, bw, attraction, a-b-da, 14, 2, 5, 29, 165, 90, 153, 83, 90, 165, 2, 1.86435
241, 1, bw, attraction, a-b-da, 9, 3, 5, 30, 120, 195, 186, 114, 195, 120, 1, 6.5711
241, 1, bw, attraction, a-b-da, 9, 3, 5, 30, 120, 195, 186, 114, 195, 120, 2, 2.37763
241, 1, bw, attraction, a-b-da, 14, 3, 5, 31, 195, 120, 181, 111, 120, 195, 3, 4.77572
241, 1, bw, attraction, a-b-da, 14, 3, 5, 31, 195, 120, 181, 111, 120, 195, 2, 0.493977
241, 1, bw, attraction, a-b-db, 14, 1, 5, 32, 56, 125, 60, 135, 135, 60, 2, 3.36769
241, 1, bw, attraction, a-b-db, 14, 1, 5, 32, 56, 125, 60, 135, 135, 60, 1, 0.527328
241, 1, bw, filler, NA, 999, 999, 5, 33, 129, 62, 194, 62, 158, 117, 3, 1.28778
241, 1, bw, filler, NA, 999, 999, 5, 33, 129, 62, 194, 62, 158, 117, 1, 0.642672
241, 1, bw, attraction, a-b-db, 5, 2, 5, 34, 90, 165, 165, 90, 88, 161, 1, 5.08643
241, 1, bw, attraction, a-b-db, 5, 2, 5, 34, 90, 165, 165, 90, 88, 161, 2, 0.792899
241, 1, bw, attraction, a-b-da, 14, 1, 5, 35, 60, 135, 135, 60, 125, 56, 2, 1.59045
241, 1, bw, attraction, a-b-da, 14, 1, 5, 35, 60, 135, 135, 60, 125, 56, 3, 0.613297
241, 1, bw, attraction, a-b-da, 5, 1, 5, 36, 60, 135, 135, 60, 132, 58, 1, 15.0183
241, 1, bw, attraction, a-b-da, 5, 1, 5, 36, 60, 135, 135, 60, 132, 58, 3, 0.996327
241, 1, bw, attraction, a-b-da, 9, 1, 5, 37, 135, 60, 60, 135, 129, 57, 2, 3.31393
241, 1, bw, attraction, a-b-da, 9, 1, 5, 37, 135, 60, 60, 135, 129, 57, 3, 0.683562
241, 1, bw, catch, NA, 999, 999, 6, 1, 176, 139, 154, 101, 73, 122, 1, 0.893945
241, 1, bw, catch, NA, 999, 999, 6, 1, 176, 139, 154, 101, 73, 122, 3, 0.449008
241, 1, bw, attraction, a-b-db, 2, 3, 6, 2, 120, 195, 119, 193, 195, 120, 2, 2.70079
241, 1, bw, attraction, a-b-db, 2, 3, 6, 2, 120, 195, 119, 193, 195, 120, 1, 0.399267
241, 1, bw, attraction, a-b-db, 5, 1, 6, 3, 58, 132, 135, 60, 60, 135, 1, 3.42103
241, 1, bw, attraction, a-b-db, 5, 1, 6, 3, 58, 132, 135, 60, 60, 135, 2, 1.25879
241, 1, bw, attraction, a-b-db, 9, 1, 6, 4, 60, 135, 135, 60, 57, 129, 1, 2.14954
241, 1, bw, attraction, a-b-db, 9, 1, 6, 4, 60, 135, 135, 60, 57, 129, 2, 0.49417
241, 1, bw, attraction, a-b-da, 9, 1, 6, 5, 135, 60, 129, 57, 60, 135, 3, 2.24008
241, 1, bw, attraction, a-b-da, 9, 1, 6, 5, 135, 60, 129, 57, 60, 135, 1, 0.836578
241, 1, bw, attraction, a-b-da, 5, 2, 6, 6, 90, 165, 161, 88, 165, 90, 1, 7.63292
241, 1, bw, attraction, a-b-da, 5, 2, 6, 6, 90, 165, 161, 88, 165, 90, 2, 0.628504
241, 1, bw, attraction, a-b-da, 14, 2, 6, 7, 90, 165, 153, 83, 165, 90, 3, 1.2729
241, 1, bw, attraction, a-b-da, 14, 2, 6, 7, 90, 165, 153, 83, 165, 90, 2, 2.06844
241, 1, bw, filler, NA, 999, 999, 6, 8, 115, 151, 172, 158, 81, 110, 2, 0.775146
241, 1, bw, filler, NA, 999, 999, 6, 8, 115, 151, 172, 158, 81, 110, 3, 0.342843
241, 1, bw, attraction, a-b-da, 14, 3, 6, 9, 195, 120, 120, 195, 181, 111, 2, 1.09465
241, 1, bw, attraction, a-b-da, 14, 3, 6, 9, 195, 120, 120, 195, 181, 111, 3, 1.31371
241, 1, bw, attraction, a-b-db, 5, 2, 6, 10, 88, 161, 165, 90, 90, 165, 3, 6.7225
241, 1, bw, attraction, a-b-db, 5, 2, 6, 10, 88, 161, 165, 90, 90, 165, 1, 4.31449
241, 1, bw, filler, NA, 999, 999, 6, 11, 156, 106, 179, 167, 177, 128, 2, 0.882425
241, 1, bw, filler, NA, 999, 999, 6, 11, 156, 106, 179, 167, 177, 128, 1, 0.509995
241, 1, bw, attraction, a-b-da, 2, 1, 6, 12, 135, 60, 60, 135, 134, 59, 2, 2.22316
241, 1, bw, attraction, a-b-da, 2, 1, 6, 12, 135, 60, 60, 135, 134, 59, 3, 0.364314
241, 1, bw, attraction, a-b-db, 14, 2, 6, 13, 90, 165, 83, 153, 165, 90, 1, 2.19566
241, 1, bw, attraction, a-b-db, 14, 2, 6, 13, 90, 165, 83, 153, 165, 90, 3, 0.746188
241, 1, bw, filler, NA, 999, 999, 6, 14, 175, 120, 182, 83, 164, 78, 1, 1.22597
241, 1, bw, filler, NA, 999, 999, 6, 14, 175, 120, 182, 83, 164, 78, 3, 0.65548
241, 1, bw, attraction, a-b-db, 2, 2, 6, 15, 90, 165, 89, 163, 165, 90, 2, 9.3872
241, 1, bw, attraction, a-b-db, 2, 2, 6, 15, 90, 165, 89, 163, 165, 90, 3, 0.82437
241, 1, bw, attraction, a-b-db, 9, 2, 6, 16, 165, 90, 90, 165, 86, 157, 2, 2.79659
241, 1, bw, attraction, a-b-db, 9, 2, 6, 16, 165, 90, 90, 165, 86, 157, 3, 4.04315
241, 1, bw, attraction, a-b-db, 14, 1, 6, 17, 56, 125, 60, 135, 135, 60, 2, 5.70971
241, 1, bw, attraction, a-b-db, 14, 1, 6, 17, 56, 125, 60, 135, 135, 60, 1, 0.918643
241, 1, bw, attraction, a-b-da, 2, 2, 6, 18, 165, 90, 90, 165, 163, 89, 2, 1.02355
241, 1, bw, attraction, a-b-da, 2, 2, 6, 18, 165, 90, 90, 165, 163, 89, 3, 0.493189
241, 1, bw, attraction, a-b-db, 2, 1, 6, 19, 59, 134, 135, 60, 60, 135, 3, 12.5829
241, 1, bw, attraction, a-b-db, 2, 1, 6, 19, 59, 134, 135, 60, 60, 135, 2, 0.435079
241, 1, bw, attraction, a-b-da, 9, 2, 6, 20, 165, 90, 157, 86, 90, 165, 3, 1.93553
241, 1, bw, attraction, a-b-da, 9, 2, 6, 20, 165, 90, 157, 86, 90, 165, 2, 1.08092
241, 1, bw, filler, NA, 999, 999, 6, 21, 117, 123, 140, 170, 141, 108, 2, 0.87512
241, 1, bw, filler, NA, 999, 999, 6, 21, 117, 123, 140, 170, 141, 108, 1, 0.726823
241, 1, bw, filler, NA, 999, 999, 6, 22, 187, 96, 78, 124, 133, 144, 3, 1.05526
241, 1, bw, filler, NA, 999, 999, 6, 22, 187, 96, 78, 124, 133, 144, 2, 0.675497
241, 1, bw, filler, NA, 999, 999, 6, 23, 90, 62, 184, 164, 174, 91, 2, 0.653967
241, 1, bw, filler, NA, 999, 999, 6, 23, 90, 62, 184, 164, 174, 91, 1, 0.474976
241, 1, bw, attraction, a-b-da, 14, 1, 6, 24, 135, 60, 125, 56, 60, 135, 3, 2.30145
241, 1, bw, attraction, a-b-da, 14, 1, 6, 24, 135, 60, 125, 56, 60, 135, 2, 0.936095
241, 1, bw, attraction, a-b-db, 9, 3, 6, 25, 114, 186, 195, 120, 120, 195, 3, 6.20841
241, 1, bw, attraction, a-b-db, 9, 3, 6, 25, 114, 186, 195, 120, 120, 195, 1, 0.669089
241, 1, bw, filler, NA, 999, 999, 6, 26, 88, 158, 80, 137, 124, 64, 1, 1.48815
241, 1, bw, filler, NA, 999, 999, 6, 26, 88, 158, 80, 137, 124, 64, 3, 1.18703
241, 1, bw, attraction, a-b-db, 5, 3, 6, 27, 195, 120, 120, 195, 117, 190, 2, 5.1134
241, 1, bw, attraction, a-b-db, 5, 3, 6, 27, 195, 120, 120, 195, 117, 190, 1, 0.39432
241, 1, bw, filler, NA, 999, 999, 6, 28, 178, 140, 163, 152, 106, 143, 2, 1.54416
241, 1, bw, filler, NA, 999, 999, 6, 28, 178, 140, 163, 152, 106, 143, 3, 0.6649
241, 1, bw, attraction, a-b-da, 9, 3, 6, 29, 186, 114, 195, 120, 120, 195, 3, 2.30798
241, 1, bw, attraction, a-b-da, 9, 3, 6, 29, 186, 114, 195, 120, 120, 195, 1, 1.63791
241, 1, bw, filler, NA, 999, 999, 6, 30, 60, 176, 141, 191, 190, 187, 3, 3.25826
241, 1, bw, filler, NA, 999, 999, 6, 30, 60, 176, 141, 191, 190, 187, 1, 0.741719
241, 1, bw, catch, NA, 999, 999, 6, 31, 116, 139, 132, 63, 134, 181, 3, 2.79736
241, 1, bw, catch, NA, 999, 999, 6, 31, 116, 139, 132, 63, 134, 181, 2, 0.451804
241, 1, bw, filler, NA, 999, 999, 6, 32, 91, 181, 154, 136, 178, 58, 2, 2.23969
241, 1, bw, filler, NA, 999, 999, 6, 32, 91, 181, 154, 136, 178, 58, 3, 0.604208
241, 1, bw, attraction, a-b-da, 2, 3, 6, 33, 195, 120, 193, 119, 120, 195, 3, 4.58592
241, 1, bw, attraction, a-b-da, 2, 3, 6, 33, 195, 120, 193, 119, 120, 195, 1, 1.49655
241, 1, bw, attraction, a-b-db, 14, 3, 6, 34, 120, 195, 111, 181, 195, 120, 2, 5.57805
241, 1, bw, attraction, a-b-db, 14, 3, 6, 34, 120, 195, 111, 181, 195, 120, 3, 0.360138
241, 1, bw, catch, NA, 999, 999, 6, 35, 114, 141, 180, 135, 118, 77, 2, 1.49534
241, 1, bw, catch, NA, 999, 999, 6, 35, 114, 141, 180, 135, 118, 77, 3, 0.642185
241, 1, bw, attraction, a-b-da, 5, 3, 6, 36, 195, 120, 120, 195, 190, 117, 2, 2.14996
241, 1, bw, attraction, a-b-da, 5, 3, 6, 36, 195, 120, 120, 195, 190, 117, 3, 0.870577
241, 1, bw, attraction, a-b-da, 5, 1, 6, 37, 60, 135, 132, 58, 135, 60, 1, 5.36944
241, 1, bw, attraction, a-b-da, 5, 1, 6, 37, 60, 135, 132, 58, 135, 60, 2, 0.616533
241, 1, bw, attraction, a-b-db, 14, 2, 7, 1, 83, 153, 90, 165, 165, 90, 2, 3.30159
241, 1, bw, attraction, a-b-db, 14, 2, 7, 1, 83, 153, 90, 165, 165, 90, 1, 3.08
241, 1, bw, filler, NA, 999, 999, 7, 2, 189, 185, 59, 156, 193, 152, 1, 2.02544
241, 1, bw, filler, NA, 999, 999, 7, 2, 189, 185, 59, 156, 193, 152, 2, 0.518778
241, 1, bw, attraction, a-b-da, 2, 3, 7, 3, 195, 120, 120, 195, 193, 119, 2, 6.26402
241, 1, bw, attraction, a-b-da, 2, 3, 7, 3, 195, 120, 120, 195, 193, 119, 3, 2.20274
241, 1, bw, filler, NA, 999, 999, 7, 4, 160, 110, 181, 151, 119, 65, 2, 1.41594
241, 1, bw, filler, NA, 999, 999, 7, 4, 160, 110, 181, 151, 119, 65, 3, 1.07804
241, 1, bw, attraction, a-b-da, 5, 1, 7, 5, 132, 58, 60, 135, 135, 60, 3, 2.88047
241, 1, bw, attraction, a-b-da, 5, 1, 7, 5, 132, 58, 60, 135, 135, 60, 1, 7.87547
241, 1, bw, attraction, a-b-db, 14, 3, 7, 6, 111, 181, 195, 120, 120, 195, 3, 1.4357
241, 1, bw, attraction, a-b-db, 14, 3, 7, 6, 111, 181, 195, 120, 120, 195, 1, 0.57717
241, 1, bw, attraction, a-b-da, 9, 2, 7, 7, 157, 86, 165, 90, 90, 165, 3, 3.85555
241, 1, bw, attraction, a-b-da, 9, 2, 7, 7, 157, 86, 165, 90, 90, 165, 1, 0.515729
241, 1, bw, filler, NA, 999, 999, 7, 8, 124, 195, 194, 108, 93, 88, 1, 1.50871
241, 1, bw, filler, NA, 999, 999, 7, 8, 124, 195, 194, 108, 93, 88, 3, 0.751027
241, 1, bw, attraction, a-b-da, 5, 2, 7, 9, 161, 88, 90, 165, 165, 90, 3, 3.25469
241, 1, bw, attraction, a-b-da, 5, 2, 7, 9, 161, 88, 90, 165, 165, 90, 1, 1.25087
241, 1, bw, attraction, a-b-da, 14, 1, 7, 10, 135, 60, 60, 135, 125, 56, 1, 11.2786
241, 1, bw, attraction, a-b-da, 14, 1, 7, 10, 135, 60, 60, 135, 125, 56, 3, 1.18306
241, 1, bw, filler, NA, 999, 999, 7, 11, 158, 191, 150, 101, 69, 118, 1, 0.981287
241, 1, bw, filler, NA, 999, 999, 7, 11, 158, 191, 150, 101, 69, 118, 3, 1.18079
241, 1, bw, attraction, a-b-db, 5, 2, 7, 12, 90, 165, 165, 90, 88, 161, 1, 2.93124
241, 1, bw, attraction, a-b-db, 5, 2, 7, 12, 90, 165, 165, 90, 88, 161, 2, 1.74017
241, 1, bw, filler, NA, 999, 999, 7, 13, 95, 87, 87, 88, 187, 126, 3, 0.619524
241, 1, bw, filler, NA, 999, 999, 7, 13, 95, 87, 87, 88, 187, 126, 2, 2.49801
241, 1, bw, attraction, a-b-da, 2, 1, 7, 14, 135, 60, 134, 59, 60, 135, 2, 1.56319
241, 1, bw, attraction, a-b-da, 2, 1, 7, 14, 135, 60, 134, 59, 60, 135, 3, 0.411335
241, 1, bw, attraction, a-b-da, 9, 1, 7, 15, 60, 135, 135, 60, 129, 57, 1, 3.88854
241, 1, bw, attraction, a-b-da, 9, 1, 7, 15, 60, 135, 135, 60, 129, 57, 3, 0.643225
241, 1, bw, attraction, a-b-da, 9, 3, 7, 16, 186, 114, 120, 195, 195, 120, 2, 1.87086
241, 1, bw, attraction, a-b-da, 9, 3, 7, 16, 186, 114, 120, 195, 195, 120, 1, 1.39504
241, 1, bw, attraction, a-b-db, 9, 3, 7, 17, 195, 120, 120, 195, 114, 186, 2, 2.82454
241, 1, bw, attraction, a-b-db, 9, 3, 7, 17, 195, 120, 120, 195, 114, 186, 3, 0.501643
241, 1, bw, catch, NA, 999, 999, 7, 18, 142, 173, 159, 96, 115, 80, 1, 1.11942
241, 1, bw, catch, NA, 999, 999, 7, 18, 142, 173, 159, 96, 115, 80, 3, 1.46586
241, 1, bw, attraction, a-b-db, 5, 1, 7, 19, 135, 60, 58, 132, 60, 135, 1, 3.95655
241, 1, bw, attraction, a-b-db, 5, 1, 7, 19, 135, 60, 58, 132, 60, 135, 3, 2.23592
241, 1, bw, attraction, a-b-db, 9, 2, 7, 20, 90, 165, 165, 90, 86, 157, 1, 2.98384
241, 1, bw, attraction, a-b-db, 9, 2, 7, 20, 90, 165, 165, 90, 86, 157, 2, 2.24694
241, 1, bw, filler, NA, 999, 999, 7, 21, 107, 145, 140, 175, 172, 61, 2, 1.41017
241, 1, bw, filler, NA, 999, 999, 7, 21, 107, 145, 140, 175, 172, 61, 3, 0.576373
241, 1, bw, attraction, a-b-db, 5, 3, 7, 22, 117, 190, 120, 195, 195, 120, 3, 6.91072
241, 1, bw, attraction, a-b-db, 5, 3, 7, 22, 117, 190, 120, 195, 195, 120, 1, 0.623284
241, 1, bw, catch, NA, 999, 999, 7, 23, 154, 101, 72, 123, 131, 184, 3, 1.01225
241, 1, bw, catch, NA, 999, 999, 7, 23, 154, 101, 72, 123, 131, 184, 2, 0.554598
241, 1, bw, attraction, a-b-db, 2, 1, 7, 24, 59, 134, 135, 60, 60, 135, 3, 4.03438
241, 1, bw, attraction, a-b-db, 2, 1, 7, 24, 59, 134, 135, 60, 60, 135, 2, 0.863103
241, 1, bw, filler, NA, 999, 999, 7, 25, 68, 62, 175, 166, 123, 140, 2, 0.882066
241, 1, bw, filler, NA, 999, 999, 7, 25, 68, 62, 175, 166, 123, 140, 1, 0.725821
241, 1, bw, catch, NA, 999, 999, 7, 26, 89, 106, 123, 192, 105, 150, 2, 1.77416
241, 1, bw, catch, NA, 999, 999, 7, 26, 89, 106, 123, 192, 105, 150, 1, 0.533537
241, 1, bw, filler, NA, 999, 999, 7, 27, 115, 189, 127, 56, 70, 72, 1, 0.910106
241, 1, bw, filler, NA, 999, 999, 7, 27, 115, 189, 127, 56, 70, 72, 3, 0.528506
241, 1, bw, attraction, a-b-db, 2, 2, 7, 28, 89, 163, 90, 165, 165, 90, 2, 4.10496
241, 1, bw, attraction, a-b-db, 2, 2, 7, 28, 89, 163, 90, 165, 165, 90, 3, 4.43495
241, 1, bw, attraction, a-b-db, 9, 1, 7, 29, 135, 60, 60, 135, 57, 129, 1, 2.38199
241, 1, bw, attraction, a-b-db, 9, 1, 7, 29, 135, 60, 60, 135, 57, 129, 3, 0.421229
241, 1, bw, attraction, a-b-da, 2, 2, 7, 30, 90, 165, 163, 89, 165, 90, 3, 4.93841
241, 1, bw, attraction, a-b-da, 2, 2, 7, 30, 90, 165, 163, 89, 165, 90, 2, 1.89888
241, 1, bw, filler, NA, 999, 999, 7, 31, 83, 89, 169, 112, 123, 85, 2, 1.21226
241, 1, bw, filler, NA, 999, 999, 7, 31, 83, 89, 169, 112, 123, 85, 1, 0.450431
241, 1, bw, attraction, a-b-da, 14, 3, 7, 32, 195, 120, 120, 195, 181, 111, 2, 2.63038
241, 1, bw, attraction, a-b-da, 14, 3, 7, 32, 195, 120, 120, 195, 181, 111, 3, 0.539564
241, 1, bw, filler, NA, 999, 999, 7, 33, 188, 189, 126, 81, 151, 68, 1, 0.675854
241, 1, bw, filler, NA, 999, 999, 7, 33, 188, 189, 126, 81, 151, 68, 2, 6.83965
241, 1, bw, attraction, a-b-da, 5, 3, 7, 34, 120, 195, 195, 120, 190, 117, 1, 1.57803
241, 1, bw, attraction, a-b-da, 5, 3, 7, 34, 120, 195, 195, 120, 190, 117, 2, 0.657562
241, 1, bw, attraction, a-b-da, 14, 2, 7, 35, 90, 165, 153, 83, 165, 90, 1, 3.81257
241, 1, bw, attraction, a-b-da, 14, 2, 7, 35, 90, 165, 153, 83, 165, 90, 2, 1.57821
241, 1, bw, attraction, a-b-db, 14, 1, 7, 36, 60, 135, 56, 125, 135, 60, 2, 5.10427
241, 1, bw, attraction, a-b-db, 14, 1, 7, 36, 60, 135, 56, 125, 135, 60, 3, 1.8339
241, 1, bw, attraction, a-b-db, 2, 3, 7, 37, 120, 195, 119, 193, 195, 120, 2, 1.23006
241, 1, bw, attraction, a-b-db, 2, 3, 7, 37, 120, 195, 119, 193, 195, 120, 3, 0.843665
241, 1, bw, attraction, a-b-db, 14, 1, 8, 1, 60, 135, 56, 125, 135, 60, 1, 3.40736
241, 1, bw, attraction, a-b-db, 14, 1, 8, 1, 60, 135, 56, 125, 135, 60, 3, 1.23729
241, 1, bw, attraction, a-b-db, 2, 3, 8, 2, 195, 120, 119, 193, 120, 195, 2, 1.28124
241, 1, bw, attraction, a-b-db, 2, 3, 8, 2, 195, 120, 119, 193, 120, 195, 1, 0.956655
241, 1, bw, filler, NA, 999, 999, 8, 3, 195, 166, 76, 75, 71, 119, 1, 1.34025
241, 1, bw, filler, NA, 999, 999, 8, 3, 195, 166, 76, 75, 71, 119, 2, 0.88527
241, 1, bw, attraction, a-b-da, 9, 1, 8, 4, 60, 135, 129, 57, 135, 60, 3, 1.31955
241, 1, bw, attraction, a-b-da, 9, 1, 8, 4, 60, 135, 129, 57, 135, 60, 2, 1.7298
241, 1, bw, attraction, a-b-da, 9, 3, 8, 5, 120, 195, 195, 120, 186, 114, 2, 1.86576
241, 1, bw, attraction, a-b-da, 9, 3, 8, 5, 120, 195, 195, 120, 186, 114, 3, 0.437868
241, 1, bw, filler, NA, 999, 999, 8, 6, 117, 129, 146, 157, 98, 97, 2, 0.786367
241, 1, bw, filler, NA, 999, 999, 8, 6, 117, 129, 146, 157, 98, 97, 3, 0.626092
241, 1, bw, attraction, a-b-db, 9, 3, 8, 7, 195, 120, 120, 195, 114, 186, 2, 1.88654
241, 1, bw, attraction, a-b-db, 9, 3, 8, 7, 195, 120, 120, 195, 114, 186, 3, 2.43379
241, 1, bw, filler, NA, 999, 999, 8, 8, 89, 169, 90, 58, 187, 125, 3, 1.77369
241, 1, bw, filler, NA, 999, 999, 8, 8, 89, 169, 90, 58, 187, 125, 2, 0.429016
241, 1, bw, filler, NA, 999, 999, 8, 9, 176, 89, 99, 56, 74, 67, 1, 2.84166
241, 1, bw, filler, NA, 999, 999, 8, 9, 176, 89, 99, 56, 74, 67, 2, 1.65391
241, 1, bw, attraction, a-b-db, 5, 2, 8, 10, 90, 165, 165, 90, 88, 161, 3, 7.68142
241, 1, bw, attraction, a-b-db, 5, 2, 8, 10, 90, 165, 165, 90, 88, 161, 2, 1.06714
241, 1, bw, attraction, a-b-da, 14, 1, 8, 11, 135, 60, 125, 56, 60, 135, 3, 1.454
241, 1, bw, attraction, a-b-da, 14, 1, 8, 11, 135, 60, 125, 56, 60, 135, 2, 3.50687
241, 1, bw, filler, NA, 999, 999, 8, 12, 104, 162, 68, 61, 171, 191, 3, 0.723579
241, 1, bw, filler, NA, 999, 999, 8, 12, 104, 162, 68, 61, 171, 191, 2, 0.989506
241, 1, bw, filler, NA, 999, 999, 8, 13, 128, 158, 161, 81, 142, 174, 3, 2.45175
241, 1, bw, filler, NA, 999, 999, 8, 13, 128, 158, 161, 81, 142, 174, 2, 0.456234
241, 1, bw, attraction, a-b-db, 14, 2, 8, 14, 165, 90, 90, 165, 83, 153, 2, 1.59611
241, 1, bw, attraction, a-b-db, 14, 2, 8, 14, 165, 90, 90, 165, 83, 153, 1, 0.546949
241, 1, bw, catch, NA, 999, 999, 8, 15, 131, 124, 131, 64, 142, 173, 3, 0.578621
241, 1, bw, catch, NA, 999, 999, 8, 15, 131, 124, 131, 64, 142, 173, 2, 0.674527
241, 1, bw, filler, NA, 999, 999, 8, 16, 167, 193, 183, 173, 94, 167, 2, 6.38081
241, 1, bw, filler, NA, 999, 999, 8, 16, 167, 193, 183, 173, 94, 167, 3, 1.40287
241, 1, bw, attraction, a-b-da, 2, 3, 8, 17, 195, 120, 120, 195, 193, 119, 3, 1.51223
241, 1, bw, attraction, a-b-da, 2, 3, 8, 17, 195, 120, 120, 195, 193, 119, 1, 1.13039
241, 1, bw, attraction, a-b-da, 5, 3, 8, 18, 190, 117, 120, 195, 195, 120, 2, 7.1948
241, 1, bw, attraction, a-b-da, 5, 3, 8, 18, 190, 117, 120, 195, 195, 120, 1, 0.927828
241, 1, bw, attraction, a-b-da, 9, 2, 8, 19, 90, 165, 157, 86, 165, 90, 1, 9.41599
241, 1, bw, attraction, a-b-da, 9, 2, 8, 19, 90, 165, 157, 86, 165, 90, 2, 0.811768
241, 1, bw, attraction, a-b-db, 14, 3, 8, 20, 195, 120, 120, 195, 111, 181, 2, 1.04879
241, 1, bw, attraction, a-b-db, 14, 3, 8, 20, 195, 120, 120, 195, 111, 181, 3, 0.981822
241, 1, bw, attraction, a-b-da, 5, 2, 8, 21, 165, 90, 90, 165, 161, 88, 2, 10.436
241, 1, bw, attraction, a-b-da, 5, 2, 8, 21, 165, 90, 90, 165, 161, 88, 1, 3.99082
241, 1, bw, attraction, a-b-db, 9, 1, 8, 22, 135, 60, 60, 135, 57, 129, 2, 2.85204
241, 1, bw, attraction, a-b-db, 9, 1, 8, 22, 135, 60, 60, 135, 57, 129, 1, 1.86466
241, 1, bw, attraction, a-b-da, 14, 3, 8, 23, 195, 120, 120, 195, 181, 111, 2, 1.06728
241, 1, bw, attraction, a-b-da, 14, 3, 8, 23, 195, 120, 120, 195, 181, 111, 3, 0.479677
241, 1, bw, attraction, a-b-db, 9, 2, 8, 24, 86, 157, 90, 165, 165, 90, 2, 2.97811
241, 1, bw, attraction, a-b-db, 9, 2, 8, 24, 86, 157, 90, 165, 165, 90, 1, 0.681022
241, 1, bw, filler, NA, 999, 999, 8, 25, 166, 177, 83, 147, 161, 125, 1, 1.76343
241, 1, bw, filler, NA, 999, 999, 8, 25, 166, 177, 83, 147, 161, 125, 2, 1.3396
241, 1, bw, catch, NA, 999, 999, 8, 26, 122, 73, 184, 131, 113, 142, 2, 0.995722
241, 1, bw, catch, NA, 999, 999, 8, 26, 122, 73, 184, 131, 113, 142, 1, 0.474703
241, 1, bw, filler, NA, 999, 999, 8, 27, 105, 107, 93, 66, 105, 172, 3, 2.6132
241, 1, bw, filler, NA, 999, 999, 8, 27, 105, 107, 93, 66, 105, 172, 2, 0.595094
241, 1, bw, attraction, a-b-da, 2, 2, 8, 28, 90, 165, 163, 89, 165, 90, 2, 1.14472
241, 1, bw, attraction, a-b-da, 2, 2, 8, 28, 90, 165, 163, 89, 165, 90, 3, 0.833784
241, 1, bw, attraction, a-b-da, 14, 2, 8, 29, 90, 165, 165, 90, 153, 83, 1, 2.45416
241, 1, bw, attraction, a-b-da, 14, 2, 8, 29, 90, 165, 165, 90, 153, 83, 3, 0.370585
241, 1, bw, attraction, a-b-da, 5, 1, 8, 30, 132, 58, 60, 135, 135, 60, 2, 3.69782
241, 1, bw, attraction, a-b-da, 5, 1, 8, 30, 132, 58, 60, 135, 135, 60, 1, 0.627903
241, 1, bw, attraction, a-b-da, 2, 1, 8, 31, 134, 59, 60, 135, 135, 60, 2, 3.19241
241, 1, bw, attraction, a-b-da, 2, 1, 8, 31, 134, 59, 60, 135, 135, 60, 3, 0.438689
241, 1, bw, filler, NA, 999, 999, 8, 32, 136, 159, 68, 155, 153, 69, 1, 1.03524
241, 1, bw, filler, NA, 999, 999, 8, 32, 136, 159, 68, 155, 153, 69, 2, 2.82484
241, 1, bw, attraction, a-b-db, 5, 3, 8, 33, 120, 195, 195, 120, 117, 190, 2, 2.23661
241, 1, bw, attraction, a-b-db, 5, 3, 8, 33, 120, 195, 195, 120, 117, 190, 3, 1.12185
241, 1, bw, attraction, a-b-db, 5, 1, 8, 34, 135, 60, 58, 132, 60, 135, 2, 12.8507
241, 1, bw, attraction, a-b-db, 5, 1, 8, 34, 135, 60, 58, 132, 60, 135, 3, 5.41995
241, 1, bw, attraction, a-b-db, 2, 2, 8, 35, 89, 163, 90, 165, 165, 90, 2, 1.11961
241, 1, bw, attraction, a-b-db, 2, 2, 8, 35, 89, 163, 90, 165, 165, 90, 3, 1.13783
241, 1, bw, catch, NA, 999, 999, 8, 36, 145, 110, 187, 128, 72, 123, 2, 1.72209
241, 1, bw, catch, NA, 999, 999, 8, 36, 145, 110, 187, 128, 72, 123, 3, 0.547591
241, 1, bw, attraction, a-b-db, 2, 1, 8, 37, 135, 60, 59, 134, 60, 135, 2, 3.26732
241, 1, bw, attraction, a-b-db, 2, 1, 8, 37, 135, 60, 59, 134, 60, 135, 1, 0.871039
