sub_n, computer_n, bw_cond, effect, set, distance, diag, block_n, trial_n, h1, w1, h2, w2, h3, w3, choice, rt 
250, 1, wb, practice, NA, 999, 999, 0, 1, 121, 143, 105, 90, 143, 123, 2, 3.00875
250, 1, wb, practice, NA, 999, 999, 0, 1, 121, 143, 105, 90, 143, 123, 3, 5.90602
250, 1, wb, practice, NA, 999, 999, 0, 2, 153, 148, 127, 82, 179, 87, 2, 1.71576
250, 1, wb, practice, NA, 999, 999, 0, 2, 153, 148, 127, 82, 179, 87, 3, 3.80843
250, 1, wb, practice, NA, 999, 999, 0, 3, 140, 64, 131, 185, 103, 62, 3, 2.40835
250, 1, wb, practice, NA, 999, 999, 0, 3, 140, 64, 131, 185, 103, 62, 2, 9.63046
250, 1, wb, attraction, a-b-db, 5, 2, 1, 1, 90, 165, 165, 90, 88, 161, 2, 10.8076
250, 1, wb, attraction, a-b-db, 5, 2, 1, 1, 90, 165, 165, 90, 88, 161, 1, 1.85956
250, 1, wb, filler, NA, 999, 999, 1, 2, 146, 141, 185, 180, 68, 178, 3, 2.41417
250, 1, wb, filler, NA, 999, 999, 1, 2, 146, 141, 185, 180, 68, 178, 2, 0.860066
250, 1, wb, attraction, a-b-da, 2, 2, 1, 3, 165, 90, 90, 165, 163, 89, 1, 4.47902
250, 1, wb, attraction, a-b-da, 2, 2, 1, 3, 165, 90, 90, 165, 163, 89, 2, 0.969631
250, 1, wb, attraction, a-b-db, 5, 1, 1, 4, 60, 135, 58, 132, 135, 60, 3, 4.6007
250, 1, wb, attraction, a-b-db, 5, 1, 1, 4, 60, 135, 58, 132, 135, 60, 2, 1.47845
250, 1, wb, filler, NA, 999, 999, 1, 5, 154, 176, 185, 117, 85, 77, 3, 1.87267
250, 1, wb, filler, NA, 999, 999, 1, 5, 154, 176, 185, 117, 85, 77, 1, 1.6201
250, 1, wb, attraction, a-b-da, 2, 3, 1, 6, 120, 195, 195, 120, 193, 119, 3, 4.57684
250, 1, wb, attraction, a-b-da, 2, 3, 1, 6, 120, 195, 195, 120, 193, 119, 1, 1.91927
250, 1, wb, attraction, a-b-da, 9, 3, 1, 7, 186, 114, 195, 120, 120, 195, 1, 5.69597
250, 1, wb, attraction, a-b-da, 9, 3, 1, 7, 186, 114, 195, 120, 120, 195, 3, 0.865474
250, 1, wb, attraction, a-b-db, 2, 1, 1, 8, 59, 134, 135, 60, 60, 135, 2, 6.08463
250, 1, wb, attraction, a-b-db, 2, 1, 1, 8, 59, 134, 135, 60, 60, 135, 3, 1.14257
250, 1, wb, filler, NA, 999, 999, 1, 9, 119, 135, 167, 158, 67, 95, 3, 2.02211
250, 1, wb, filler, NA, 999, 999, 1, 9, 119, 135, 167, 158, 67, 95, 2, 0.891544
250, 1, wb, filler, NA, 999, 999, 1, 10, 65, 78, 174, 99, 87, 64, 1, 3.90112
250, 1, wb, filler, NA, 999, 999, 1, 10, 65, 78, 174, 99, 87, 64, 2, 0.719307
250, 1, wb, attraction, a-b-da, 14, 3, 1, 11, 181, 111, 120, 195, 195, 120, 1, 2.15234
250, 1, wb, attraction, a-b-da, 14, 3, 1, 11, 181, 111, 120, 195, 195, 120, 2, 1.56103
250, 1, wb, filler, NA, 999, 999, 1, 12, 59, 192, 117, 70, 125, 75, 2, 3.59981
250, 1, wb, filler, NA, 999, 999, 1, 12, 59, 192, 117, 70, 125, 75, 1, 5.35804
250, 1, wb, attraction, a-b-db, 14, 1, 1, 13, 56, 125, 135, 60, 60, 135, 2, 8.0435
250, 1, wb, attraction, a-b-db, 14, 1, 1, 13, 56, 125, 135, 60, 60, 135, 3, 0.814428
250, 1, wb, attraction, a-b-db, 2, 2, 1, 14, 90, 165, 165, 90, 89, 163, 2, 11.3953
250, 1, wb, attraction, a-b-db, 2, 2, 1, 14, 90, 165, 165, 90, 89, 163, 3, 1.74324
250, 1, wb, attraction, a-b-db, 2, 3, 1, 15, 195, 120, 120, 195, 119, 193, 1, 4.47061
250, 1, wb, attraction, a-b-db, 2, 3, 1, 15, 195, 120, 120, 195, 119, 193, 2, 1.60971
250, 1, wb, attraction, a-b-db, 14, 3, 1, 16, 120, 195, 111, 181, 195, 120, 2, 9.20646
250, 1, wb, attraction, a-b-db, 14, 3, 1, 16, 120, 195, 111, 181, 195, 120, 3, 1.49832
250, 1, wb, attraction, a-b-db, 14, 2, 1, 17, 83, 153, 165, 90, 90, 165, 1, 3.87571
250, 1, wb, attraction, a-b-db, 14, 2, 1, 17, 83, 153, 165, 90, 90, 165, 3, 0.79841
250, 1, wb, attraction, a-b-da, 14, 2, 1, 18, 165, 90, 90, 165, 153, 83, 3, 5.87624
250, 1, wb, attraction, a-b-da, 14, 2, 1, 18, 165, 90, 90, 165, 153, 83, 2, 1.39045
250, 1, wb, filler, NA, 999, 999, 1, 19, 113, 123, 183, 118, 81, 144, 3, 3.3559
250, 1, wb, filler, NA, 999, 999, 1, 19, 113, 123, 183, 118, 81, 144, 2, 1.07537
250, 1, wb, attraction, a-b-db, 5, 3, 1, 20, 195, 120, 117, 190, 120, 195, 2, 10.2378
250, 1, wb, attraction, a-b-db, 5, 3, 1, 20, 195, 120, 117, 190, 120, 195, 3, 0.680505
250, 1, wb, catch, NA, 999, 999, 1, 21, 182, 133, 60, 135, 150, 105, 2, 1.6828
250, 1, wb, catch, NA, 999, 999, 1, 21, 182, 133, 60, 135, 150, 105, 1, 0.798286
250, 1, wb, filler, NA, 999, 999, 1, 22, 160, 141, 135, 103, 171, 193, 2, 1.39603
250, 1, wb, filler, NA, 999, 999, 1, 22, 160, 141, 135, 103, 171, 193, 3, 0.578867
250, 1, wb, attraction, a-b-da, 5, 2, 1, 23, 165, 90, 161, 88, 90, 165, 1, 8.57723
250, 1, wb, attraction, a-b-da, 5, 2, 1, 23, 165, 90, 161, 88, 90, 165, 3, 0.790504
250, 1, wb, attraction, a-b-da, 5, 3, 1, 24, 190, 117, 195, 120, 120, 195, 1, 1.80443
250, 1, wb, attraction, a-b-da, 5, 3, 1, 24, 190, 117, 195, 120, 120, 195, 3, 1.1151
250, 1, wb, filler, NA, 999, 999, 1, 25, 67, 80, 58, 90, 131, 180, 2, 2.22806
250, 1, wb, filler, NA, 999, 999, 1, 25, 67, 80, 58, 90, 131, 180, 3, 0.601212
250, 1, wb, catch, NA, 999, 999, 1, 26, 124, 71, 157, 158, 127, 128, 1, 1.98302
250, 1, wb, catch, NA, 999, 999, 1, 26, 124, 71, 157, 158, 127, 128, 2, 0.582358
250, 1, wb, catch, NA, 999, 999, 1, 27, 115, 140, 126, 69, 135, 180, 2, 0.908792
250, 1, wb, catch, NA, 999, 999, 1, 27, 115, 140, 126, 69, 135, 180, 3, 0.615106
250, 1, wb, filler, NA, 999, 999, 1, 28, 74, 195, 119, 189, 63, 122, 3, 0.81231
250, 1, wb, filler, NA, 999, 999, 1, 28, 74, 195, 119, 189, 63, 122, 2, 1.1065
250, 1, wb, attraction, a-b-db, 9, 1, 1, 29, 57, 129, 60, 135, 135, 60, 2, 4.16424
250, 1, wb, attraction, a-b-db, 9, 1, 1, 29, 57, 129, 60, 135, 135, 60, 1, 1.48353
250, 1, wb, attraction, a-b-da, 2, 1, 1, 30, 60, 135, 134, 59, 135, 60, 2, 2.74979
250, 1, wb, attraction, a-b-da, 2, 1, 1, 30, 60, 135, 134, 59, 135, 60, 1, 0.590022
250, 1, wb, attraction, a-b-da, 9, 1, 1, 31, 135, 60, 129, 57, 60, 135, 2, 3.34803
250, 1, wb, attraction, a-b-da, 9, 1, 1, 31, 135, 60, 129, 57, 60, 135, 3, 1.65226
250, 1, wb, filler, NA, 999, 999, 1, 32, 81, 97, 118, 160, 157, 194, 1, 1.2796
250, 1, wb, filler, NA, 999, 999, 1, 32, 81, 97, 118, 160, 157, 194, 3, 0.459125
250, 1, wb, attraction, a-b-da, 5, 1, 1, 33, 132, 58, 60, 135, 135, 60, 2, 1.72616
250, 1, wb, attraction, a-b-da, 5, 1, 1, 33, 132, 58, 60, 135, 135, 60, 3, 2.23161
250, 1, wb, attraction, a-b-da, 14, 1, 1, 34, 135, 60, 125, 56, 60, 135, 2, 1.84353
250, 1, wb, attraction, a-b-da, 14, 1, 1, 34, 135, 60, 125, 56, 60, 135, 1, 2.96036
250, 1, wb, attraction, a-b-db, 9, 2, 1, 35, 90, 165, 165, 90, 86, 157, 2, 3.27071
250, 1, wb, attraction, a-b-db, 9, 2, 1, 35, 90, 165, 165, 90, 86, 157, 1, 0.386367
250, 1, wb, attraction, a-b-da, 9, 2, 1, 36, 90, 165, 165, 90, 157, 86, 3, 2.84087
250, 1, wb, attraction, a-b-da, 9, 2, 1, 36, 90, 165, 165, 90, 157, 86, 1, 0.78934
250, 1, wb, attraction, a-b-db, 9, 3, 1, 37, 114, 186, 195, 120, 120, 195, 1, 3.16353
250, 1, wb, attraction, a-b-db, 9, 3, 1, 37, 114, 186, 195, 120, 120, 195, 3, 1.41126
250, 1, wb, attraction, a-b-da, 9, 1, 2, 1, 135, 60, 129, 57, 60, 135, 2, 1.68009
250, 1, wb, attraction, a-b-da, 9, 1, 2, 1, 135, 60, 129, 57, 60, 135, 3, 0.547562
250, 1, wb, attraction, a-b-da, 14, 3, 2, 2, 181, 111, 195, 120, 120, 195, 1, 5.24334
250, 1, wb, attraction, a-b-da, 14, 3, 2, 2, 181, 111, 195, 120, 120, 195, 2, 1.27908
250, 1, wb, filler, NA, 999, 999, 2, 3, 115, 180, 108, 140, 63, 126, 3, 1.12915
250, 1, wb, filler, NA, 999, 999, 2, 3, 115, 180, 108, 140, 63, 126, 1, 0.546737
250, 1, wb, attraction, a-b-db, 9, 2, 2, 4, 90, 165, 86, 157, 165, 90, 2, 6.40249
250, 1, wb, attraction, a-b-db, 9, 2, 2, 4, 90, 165, 86, 157, 165, 90, 3, 2.05582
250, 1, wb, attraction, a-b-db, 14, 3, 2, 5, 111, 181, 195, 120, 120, 195, 1, 1.63506
250, 1, wb, attraction, a-b-db, 14, 3, 2, 5, 111, 181, 195, 120, 120, 195, 2, 0.680634
250, 1, wb, attraction, a-b-db, 9, 3, 2, 6, 195, 120, 120, 195, 114, 186, 3, 1.70695
250, 1, wb, attraction, a-b-db, 9, 3, 2, 6, 195, 120, 120, 195, 114, 186, 2, 0.933151
250, 1, wb, attraction, a-b-da, 5, 1, 2, 7, 135, 60, 132, 58, 60, 135, 2, 1.37358
250, 1, wb, attraction, a-b-da, 5, 1, 2, 7, 135, 60, 132, 58, 60, 135, 3, 1.04515
250, 1, wb, attraction, a-b-db, 5, 2, 2, 8, 88, 161, 90, 165, 165, 90, 3, 5.55273
250, 1, wb, attraction, a-b-db, 5, 2, 2, 8, 88, 161, 90, 165, 165, 90, 2, 2.89629
250, 1, wb, attraction, a-b-db, 2, 3, 2, 9, 120, 195, 195, 120, 119, 193, 3, 6.75334
250, 1, wb, attraction, a-b-db, 2, 3, 2, 9, 120, 195, 195, 120, 119, 193, 1, 2.10438
250, 1, wb, filler, NA, 999, 999, 2, 10, 71, 130, 88, 89, 110, 130, 2, 2.76164
250, 1, wb, filler, NA, 999, 999, 2, 10, 71, 130, 88, 89, 110, 130, 3, 0.585474
250, 1, wb, attraction, a-b-da, 2, 2, 2, 11, 165, 90, 90, 165, 163, 89, 3, 4.09592
250, 1, wb, attraction, a-b-da, 2, 2, 2, 11, 165, 90, 90, 165, 163, 89, 2, 0.60186
250, 1, wb, attraction, a-b-db, 2, 1, 2, 12, 60, 135, 135, 60, 59, 134, 2, 3.01577
250, 1, wb, attraction, a-b-db, 2, 1, 2, 12, 60, 135, 135, 60, 59, 134, 3, 0.653344
250, 1, wb, attraction, a-b-db, 5, 1, 2, 13, 60, 135, 58, 132, 135, 60, 3, 4.5771
250, 1, wb, attraction, a-b-db, 5, 1, 2, 13, 60, 135, 58, 132, 135, 60, 1, 1.72763
250, 1, wb, attraction, a-b-da, 9, 3, 2, 14, 186, 114, 120, 195, 195, 120, 1, 9.57571
250, 1, wb, attraction, a-b-da, 9, 3, 2, 14, 186, 114, 120, 195, 195, 120, 2, 0.524673
250, 1, wb, filler, NA, 999, 999, 2, 15, 64, 178, 182, 167, 162, 127, 1, 1.15708
250, 1, wb, filler, NA, 999, 999, 2, 15, 64, 178, 182, 167, 162, 127, 2, 0.39744
250, 1, wb, attraction, a-b-db, 9, 1, 2, 16, 60, 135, 57, 129, 135, 60, 3, 2.76321
250, 1, wb, attraction, a-b-db, 9, 1, 2, 16, 60, 135, 57, 129, 135, 60, 1, 0.498926
250, 1, wb, attraction, a-b-da, 14, 1, 2, 17, 60, 135, 135, 60, 125, 56, 3, 2.17274
250, 1, wb, attraction, a-b-da, 14, 1, 2, 17, 60, 135, 135, 60, 125, 56, 1, 0.475982
250, 1, wb, filler, NA, 999, 999, 2, 18, 86, 87, 158, 102, 159, 145, 1, 1.33463
250, 1, wb, filler, NA, 999, 999, 2, 18, 86, 87, 158, 102, 159, 145, 3, 0.432079
250, 1, wb, attraction, a-b-db, 14, 2, 2, 19, 90, 165, 83, 153, 165, 90, 2, 4.78053
250, 1, wb, attraction, a-b-db, 14, 2, 2, 19, 90, 165, 83, 153, 165, 90, 3, 1.49114
250, 1, wb, attraction, a-b-da, 2, 1, 2, 20, 135, 60, 60, 135, 134, 59, 3, 4.39657
250, 1, wb, attraction, a-b-da, 2, 1, 2, 20, 135, 60, 60, 135, 134, 59, 2, 0.938415
250, 1, wb, filler, NA, 999, 999, 2, 21, 76, 104, 128, 112, 86, 151, 1, 1.55468
250, 1, wb, filler, NA, 999, 999, 2, 21, 76, 104, 128, 112, 86, 151, 3, 1.7229
250, 1, wb, filler, NA, 999, 999, 2, 22, 174, 129, 179, 64, 163, 104, 2, 2.42767
250, 1, wb, filler, NA, 999, 999, 2, 22, 174, 129, 179, 64, 163, 104, 1, 0.416849
250, 1, wb, catch, NA, 999, 999, 2, 23, 139, 176, 122, 133, 70, 125, 3, 1.59004
250, 1, wb, catch, NA, 999, 999, 2, 23, 139, 176, 122, 133, 70, 125, 1, 0.868836
250, 1, wb, attraction, a-b-da, 5, 3, 2, 24, 195, 120, 120, 195, 190, 117, 3, 6.93583
250, 1, wb, attraction, a-b-da, 5, 3, 2, 24, 195, 120, 120, 195, 190, 117, 2, 0.839689
250, 1, wb, attraction, a-b-da, 2, 3, 2, 25, 193, 119, 120, 195, 195, 120, 1, 5.51592
250, 1, wb, attraction, a-b-da, 2, 3, 2, 25, 193, 119, 120, 195, 195, 120, 2, 0.804888
250, 1, wb, filler, NA, 999, 999, 2, 26, 171, 162, 177, 162, 142, 65, 3, 2.01062
250, 1, wb, filler, NA, 999, 999, 2, 26, 171, 162, 177, 162, 142, 65, 2, 1.36054
250, 1, wb, filler, NA, 999, 999, 2, 27, 76, 103, 110, 137, 75, 73, 3, 1.90352
250, 1, wb, filler, NA, 999, 999, 2, 27, 76, 103, 110, 137, 75, 73, 2, 0.650184
250, 1, wb, attraction, a-b-db, 5, 3, 2, 28, 120, 195, 117, 190, 195, 120, 2, 3.94995
250, 1, wb, attraction, a-b-db, 5, 3, 2, 28, 120, 195, 117, 190, 195, 120, 1, 1.72611
250, 1, wb, attraction, a-b-db, 14, 1, 2, 29, 135, 60, 56, 125, 60, 135, 1, 7.49397
250, 1, wb, attraction, a-b-db, 14, 1, 2, 29, 135, 60, 56, 125, 60, 135, 2, 0.68699
250, 1, wb, attraction, a-b-da, 5, 2, 2, 30, 90, 165, 161, 88, 165, 90, 2, 3.80143
250, 1, wb, attraction, a-b-da, 5, 2, 2, 30, 90, 165, 161, 88, 165, 90, 1, 0.815459
250, 1, wb, catch, NA, 999, 999, 2, 31, 73, 122, 140, 175, 151, 104, 1, 2.03657
250, 1, wb, catch, NA, 999, 999, 2, 31, 73, 122, 140, 175, 151, 104, 2, 0.465979
250, 1, wb, attraction, a-b-da, 14, 2, 2, 32, 153, 83, 90, 165, 165, 90, 1, 5.63702
250, 1, wb, attraction, a-b-da, 14, 2, 2, 32, 153, 83, 90, 165, 165, 90, 2, 0.817146
250, 1, wb, attraction, a-b-da, 9, 2, 2, 33, 165, 90, 90, 165, 157, 86, 3, 1.69414
250, 1, wb, attraction, a-b-da, 9, 2, 2, 33, 165, 90, 90, 165, 157, 86, 2, 0.769155
250, 1, wb, catch, NA, 999, 999, 2, 34, 73, 122, 172, 143, 119, 136, 1, 0.968061
250, 1, wb, catch, NA, 999, 999, 2, 34, 73, 122, 172, 143, 119, 136, 2, 0.56058
250, 1, wb, filler, NA, 999, 999, 2, 35, 70, 139, 62, 70, 131, 62, 2, 1.52745
250, 1, wb, filler, NA, 999, 999, 2, 35, 70, 139, 62, 70, 131, 62, 1, 1.673
250, 1, wb, attraction, a-b-db, 2, 2, 2, 36, 90, 165, 165, 90, 89, 163, 2, 5.18774
250, 1, wb, attraction, a-b-db, 2, 2, 2, 36, 90, 165, 165, 90, 89, 163, 3, 0.338055
250, 1, wb, filler, NA, 999, 999, 2, 37, 153, 189, 77, 101, 191, 60, 2, 4.81072
250, 1, wb, filler, NA, 999, 999, 2, 37, 153, 189, 77, 101, 191, 60, 1, 0.6478
250, 1, wb, attraction, a-b-db, 9, 2, 3, 1, 86, 157, 90, 165, 165, 90, 1, 4.13941
250, 1, wb, attraction, a-b-db, 9, 2, 3, 1, 86, 157, 90, 165, 165, 90, 2, 3.59551
250, 1, wb, filler, NA, 999, 999, 3, 2, 175, 85, 73, 72, 146, 125, 2, 1.32031
250, 1, wb, filler, NA, 999, 999, 3, 2, 175, 85, 73, 72, 146, 125, 3, 2.20267
250, 1, wb, attraction, a-b-da, 9, 3, 3, 3, 120, 195, 195, 120, 186, 114, 3, 11.7519
250, 1, wb, attraction, a-b-da, 9, 3, 3, 3, 120, 195, 195, 120, 186, 114, 1, 0.39745
250, 1, wb, filler, NA, 999, 999, 3, 4, 63, 137, 159, 176, 65, 62, 3, 0.71533
250, 1, wb, filler, NA, 999, 999, 3, 4, 63, 137, 159, 176, 65, 62, 2, 0.42968
250, 1, wb, attraction, a-b-db, 5, 3, 3, 5, 195, 120, 117, 190, 120, 195, 2, 5.8422
250, 1, wb, attraction, a-b-db, 5, 3, 3, 5, 195, 120, 117, 190, 120, 195, 3, 0.517649
250, 1, wb, attraction, a-b-da, 9, 2, 3, 6, 165, 90, 157, 86, 90, 165, 2, 6.26284
250, 1, wb, attraction, a-b-da, 9, 2, 3, 6, 165, 90, 157, 86, 90, 165, 3, 1.15349
250, 1, wb, attraction, a-b-db, 14, 2, 3, 7, 90, 165, 83, 153, 165, 90, 2, 2.86513
250, 1, wb, attraction, a-b-db, 14, 2, 3, 7, 90, 165, 83, 153, 165, 90, 3, 1.18873
250, 1, wb, attraction, a-b-db, 5, 2, 3, 8, 90, 165, 165, 90, 88, 161, 2, 8.00308
250, 1, wb, attraction, a-b-db, 5, 2, 3, 8, 90, 165, 165, 90, 88, 161, 3, 0.439784
250, 1, wb, filler, NA, 999, 999, 3, 9, 60, 188, 170, 162, 169, 141, 1, 2.62838
250, 1, wb, filler, NA, 999, 999, 3, 9, 60, 188, 170, 162, 169, 141, 2, 0.553376
250, 1, wb, attraction, a-b-db, 5, 1, 3, 10, 58, 132, 60, 135, 135, 60, 3, 7.75315
250, 1, wb, attraction, a-b-db, 5, 1, 3, 10, 58, 132, 60, 135, 135, 60, 2, 0.552177
250, 1, wb, filler, NA, 999, 999, 3, 11, 114, 88, 111, 170, 107, 194, 1, 2.26381
250, 1, wb, filler, NA, 999, 999, 3, 11, 114, 88, 111, 170, 107, 194, 3, 0.8598
250, 1, wb, attraction, a-b-da, 2, 2, 3, 12, 163, 89, 90, 165, 165, 90, 1, 3.52682
250, 1, wb, attraction, a-b-da, 2, 2, 3, 12, 163, 89, 90, 165, 165, 90, 2, 0.535802
250, 1, wb, filler, NA, 999, 999, 3, 13, 88, 149, 112, 135, 66, 106, 3, 1.84008
250, 1, wb, filler, NA, 999, 999, 3, 13, 88, 149, 112, 135, 66, 106, 2, 1.62881
250, 1, wb, filler, NA, 999, 999, 3, 14, 98, 128, 168, 169, 188, 81, 1, 7.36105
250, 1, wb, filler, NA, 999, 999, 3, 14, 98, 128, 168, 169, 188, 81, 2, 1.44727
250, 1, wb, attraction, a-b-da, 9, 1, 3, 15, 129, 57, 135, 60, 60, 135, 1, 3.41078
250, 1, wb, attraction, a-b-da, 9, 1, 3, 15, 129, 57, 135, 60, 60, 135, 3, 0.464316
250, 1, wb, catch, NA, 999, 999, 3, 16, 124, 71, 125, 190, 128, 127, 3, 2.11547
250, 1, wb, catch, NA, 999, 999, 3, 16, 124, 71, 125, 190, 128, 127, 2, 0.693439
250, 1, wb, filler, NA, 999, 999, 3, 17, 61, 143, 133, 125, 191, 134, 1, 2.66315
250, 1, wb, filler, NA, 999, 999, 3, 17, 61, 143, 133, 125, 191, 134, 3, 0.787079
250, 1, wb, attraction, a-b-db, 14, 1, 3, 18, 135, 60, 60, 135, 56, 125, 3, 5.20937
250, 1, wb, attraction, a-b-db, 14, 1, 3, 18, 135, 60, 60, 135, 56, 125, 1, 0.782446
250, 1, wb, attraction, a-b-da, 14, 1, 3, 19, 60, 135, 125, 56, 135, 60, 2, 2.21282
250, 1, wb, attraction, a-b-da, 14, 1, 3, 19, 60, 135, 125, 56, 135, 60, 1, 0.60267
250, 1, wb, filler, NA, 999, 999, 3, 20, 195, 78, 145, 65, 194, 177, 2, 2.15239
250, 1, wb, filler, NA, 999, 999, 3, 20, 195, 78, 145, 65, 194, 177, 3, 0.529038
250, 1, wb, attraction, a-b-db, 2, 3, 3, 21, 195, 120, 119, 193, 120, 195, 3, 9.62546
250, 1, wb, attraction, a-b-db, 2, 3, 3, 21, 195, 120, 119, 193, 120, 195, 1, 0.356428
250, 1, wb, attraction, a-b-db, 14, 3, 3, 22, 195, 120, 120, 195, 111, 181, 3, 2.33231
250, 1, wb, attraction, a-b-db, 14, 3, 3, 22, 195, 120, 120, 195, 111, 181, 2, 4.01355
250, 1, wb, attraction, a-b-da, 14, 3, 3, 23, 120, 195, 195, 120, 181, 111, 3, 3.7297
250, 1, wb, attraction, a-b-da, 14, 3, 3, 23, 120, 195, 195, 120, 181, 111, 1, 1.69854
250, 1, wb, filler, NA, 999, 999, 3, 24, 140, 90, 79, 165, 129, 109, 1, 3.21975
250, 1, wb, filler, NA, 999, 999, 3, 24, 140, 90, 79, 165, 129, 109, 2, 0.369413
250, 1, wb, attraction, a-b-db, 9, 3, 3, 25, 195, 120, 114, 186, 120, 195, 3, 8.96858
250, 1, wb, attraction, a-b-db, 9, 3, 3, 25, 195, 120, 114, 186, 120, 195, 1, 0.678377
250, 1, wb, attraction, a-b-da, 5, 1, 3, 26, 135, 60, 60, 135, 132, 58, 3, 8.20093
250, 1, wb, attraction, a-b-da, 5, 1, 3, 26, 135, 60, 60, 135, 132, 58, 2, 0.365559
250, 1, wb, attraction, a-b-da, 14, 2, 3, 27, 90, 165, 153, 83, 165, 90, 2, 6.02872
250, 1, wb, attraction, a-b-da, 14, 2, 3, 27, 90, 165, 153, 83, 165, 90, 1, 1.80879
250, 1, wb, catch, NA, 999, 999, 3, 28, 77, 118, 158, 97, 181, 134, 1, 1.16566
250, 1, wb, catch, NA, 999, 999, 3, 28, 77, 118, 158, 97, 181, 134, 3, 0.549857
250, 1, wb, attraction, a-b-db, 9, 1, 3, 29, 60, 135, 135, 60, 57, 129, 2, 5.80567
250, 1, wb, attraction, a-b-db, 9, 1, 3, 29, 60, 135, 135, 60, 57, 129, 1, 0.395106
250, 1, wb, attraction, a-b-da, 5, 2, 3, 30, 90, 165, 161, 88, 165, 90, 2, 2.681
250, 1, wb, attraction, a-b-da, 5, 2, 3, 30, 90, 165, 161, 88, 165, 90, 1, 0.371931
250, 1, wb, attraction, a-b-da, 5, 3, 3, 31, 195, 120, 120, 195, 190, 117, 3, 4.71509
250, 1, wb, attraction, a-b-da, 5, 3, 3, 31, 195, 120, 120, 195, 190, 117, 2, 0.636427
250, 1, wb, attraction, a-b-db, 2, 1, 3, 32, 135, 60, 59, 134, 60, 135, 1, 6.22473
250, 1, wb, attraction, a-b-db, 2, 1, 3, 32, 135, 60, 59, 134, 60, 135, 2, 0.668754
250, 1, wb, attraction, a-b-da, 2, 1, 3, 33, 135, 60, 134, 59, 60, 135, 2, 3.35181
250, 1, wb, attraction, a-b-da, 2, 1, 3, 33, 135, 60, 134, 59, 60, 135, 3, 0.432114
250, 1, wb, filler, NA, 999, 999, 3, 34, 192, 62, 112, 125, 92, 76, 3, 1.18863
250, 1, wb, filler, NA, 999, 999, 3, 34, 192, 62, 112, 125, 92, 76, 2, 0.851436
250, 1, wb, attraction, a-b-da, 2, 3, 3, 35, 195, 120, 193, 119, 120, 195, 2, 2.65513
250, 1, wb, attraction, a-b-da, 2, 3, 3, 35, 195, 120, 193, 119, 120, 195, 3, 0.611719
250, 1, wb, catch, NA, 999, 999, 3, 36, 174, 141, 106, 149, 102, 93, 3, 1.52071
250, 1, wb, catch, NA, 999, 999, 3, 36, 174, 141, 106, 149, 102, 93, 1, 0.466828
250, 1, wb, attraction, a-b-db, 2, 2, 3, 37, 165, 90, 89, 163, 90, 165, 3, 4.43808
250, 1, wb, attraction, a-b-db, 2, 2, 3, 37, 165, 90, 89, 163, 90, 165, 1, 1.67461
250, 1, wb, filler, NA, 999, 999, 4, 1, 76, 67, 188, 60, 107, 76, 1, 0.804709
250, 1, wb, filler, NA, 999, 999, 4, 1, 76, 67, 188, 60, 107, 76, 2, 1.63588
250, 1, wb, attraction, a-b-db, 2, 1, 4, 2, 59, 134, 60, 135, 135, 60, 3, 5.7358
250, 1, wb, attraction, a-b-db, 2, 1, 4, 2, 59, 134, 60, 135, 135, 60, 1, 0.912008
250, 1, wb, catch, NA, 999, 999, 4, 3, 183, 132, 111, 144, 75, 120, 3, 1.20905
250, 1, wb, catch, NA, 999, 999, 4, 3, 183, 132, 111, 144, 75, 120, 1, 0.543263
250, 1, wb, filler, NA, 999, 999, 4, 4, 116, 180, 114, 100, 85, 191, 2, 2.11107
250, 1, wb, filler, NA, 999, 999, 4, 4, 116, 180, 114, 100, 85, 191, 1, 0.625005
250, 1, wb, attraction, a-b-db, 14, 3, 4, 5, 120, 195, 111, 181, 195, 120, 2, 3.63751
250, 1, wb, attraction, a-b-db, 14, 3, 4, 5, 120, 195, 111, 181, 195, 120, 3, 1.17024
250, 1, wb, attraction, a-b-da, 2, 2, 4, 6, 163, 89, 90, 165, 165, 90, 2, 4.14526
250, 1, wb, attraction, a-b-da, 2, 2, 4, 6, 163, 89, 90, 165, 165, 90, 3, 3.01733
250, 1, wb, filler, NA, 999, 999, 4, 7, 156, 153, 181, 194, 149, 148, 1, 2.9017
250, 1, wb, filler, NA, 999, 999, 4, 7, 156, 153, 181, 194, 149, 148, 2, 0.463932
250, 1, wb, attraction, a-b-db, 9, 3, 4, 8, 114, 186, 120, 195, 195, 120, 3, 4.21926
250, 1, wb, attraction, a-b-db, 9, 3, 4, 8, 114, 186, 120, 195, 195, 120, 2, 0.640486
250, 1, wb, filler, NA, 999, 999, 4, 9, 171, 69, 175, 66, 116, 103, 2, 5.18822
250, 1, wb, filler, NA, 999, 999, 4, 9, 171, 69, 175, 66, 116, 103, 3, 0.698551
250, 1, wb, attraction, a-b-da, 5, 2, 4, 10, 90, 165, 161, 88, 165, 90, 2, 8.53224
250, 1, wb, attraction, a-b-da, 5, 2, 4, 10, 90, 165, 161, 88, 165, 90, 1, 0.38752
250, 1, wb, filler, NA, 999, 999, 4, 11, 90, 187, 63, 190, 156, 142, 2, 2.78602
250, 1, wb, filler, NA, 999, 999, 4, 11, 90, 187, 63, 190, 156, 142, 3, 1.4012
250, 1, wb, attraction, a-b-db, 2, 2, 4, 12, 90, 165, 89, 163, 165, 90, 2, 14.8786
250, 1, wb, attraction, a-b-db, 2, 2, 4, 12, 90, 165, 89, 163, 165, 90, 3, 0.653939
250, 1, wb, attraction, a-b-da, 9, 3, 4, 13, 195, 120, 186, 114, 120, 195, 2, 4.28168
250, 1, wb, attraction, a-b-da, 9, 3, 4, 13, 195, 120, 186, 114, 120, 195, 3, 0.876442
250, 1, wb, attraction, a-b-db, 5, 3, 4, 14, 195, 120, 120, 195, 117, 190, 3, 2.22272
250, 1, wb, attraction, a-b-db, 5, 3, 4, 14, 195, 120, 120, 195, 117, 190, 1, 0.691873
250, 1, wb, catch, NA, 999, 999, 4, 15, 107, 88, 144, 171, 136, 119, 1, 1.05373
250, 1, wb, catch, NA, 999, 999, 4, 15, 107, 88, 144, 171, 136, 119, 2, 0.466713
250, 1, wb, attraction, a-b-da, 5, 3, 4, 16, 120, 195, 190, 117, 195, 120, 2, 2.74188
250, 1, wb, attraction, a-b-da, 5, 3, 4, 16, 120, 195, 190, 117, 195, 120, 1, 0.566226
250, 1, wb, attraction, a-b-da, 9, 2, 4, 17, 157, 86, 165, 90, 90, 165, 2, 1.22925
250, 1, wb, attraction, a-b-da, 9, 2, 4, 17, 157, 86, 165, 90, 90, 165, 3, 0.666913
250, 1, wb, filler, NA, 999, 999, 4, 18, 130, 181, 160, 116, 175, 107, 3, 1.10201
250, 1, wb, filler, NA, 999, 999, 4, 18, 130, 181, 160, 116, 175, 107, 1, 0.800928
250, 1, wb, attraction, a-b-db, 14, 1, 4, 19, 56, 125, 60, 135, 135, 60, 3, 7.78268
250, 1, wb, attraction, a-b-db, 14, 1, 4, 19, 56, 125, 60, 135, 135, 60, 1, 0.804274
250, 1, wb, attraction, a-b-da, 9, 1, 4, 20, 135, 60, 60, 135, 129, 57, 3, 1.33788
250, 1, wb, attraction, a-b-da, 9, 1, 4, 20, 135, 60, 60, 135, 129, 57, 2, 0.803536
250, 1, wb, attraction, a-b-da, 14, 2, 4, 21, 90, 165, 165, 90, 153, 83, 3, 2.71331
250, 1, wb, attraction, a-b-da, 14, 2, 4, 21, 90, 165, 165, 90, 153, 83, 1, 0.627047
250, 1, wb, filler, NA, 999, 999, 4, 22, 128, 95, 60, 108, 130, 102, 2, 0.927452
250, 1, wb, filler, NA, 999, 999, 4, 22, 128, 95, 60, 108, 130, 102, 3, 1.32094
250, 1, wb, attraction, a-b-da, 5, 1, 4, 23, 135, 60, 60, 135, 132, 58, 3, 1.48184
250, 1, wb, attraction, a-b-da, 5, 1, 4, 23, 135, 60, 60, 135, 132, 58, 2, 0.79745
250, 1, wb, filler, NA, 999, 999, 4, 24, 70, 175, 195, 124, 109, 172, 1, 2.4912
250, 1, wb, filler, NA, 999, 999, 4, 24, 70, 175, 195, 124, 109, 172, 3, 1.2617
250, 1, wb, attraction, a-b-da, 14, 3, 4, 25, 120, 195, 195, 120, 181, 111, 3, 6.97657
250, 1, wb, attraction, a-b-da, 14, 3, 4, 25, 120, 195, 195, 120, 181, 111, 1, 0.734322
250, 1, wb, attraction, a-b-db, 2, 3, 4, 26, 195, 120, 120, 195, 119, 193, 2, 3.0789
250, 1, wb, attraction, a-b-db, 2, 3, 4, 26, 195, 120, 120, 195, 119, 193, 1, 1.96171
250, 1, wb, attraction, a-b-db, 5, 2, 4, 27, 90, 165, 165, 90, 88, 161, 2, 9.05639
250, 1, wb, attraction, a-b-db, 5, 2, 4, 27, 90, 165, 165, 90, 88, 161, 1, 0.434787
250, 1, wb, attraction, a-b-db, 9, 1, 4, 28, 60, 135, 135, 60, 57, 129, 2, 1.88738
250, 1, wb, attraction, a-b-db, 9, 1, 4, 28, 60, 135, 135, 60, 57, 129, 1, 0.394682
250, 1, wb, attraction, a-b-db, 5, 1, 4, 29, 60, 135, 58, 132, 135, 60, 3, 2.20855
250, 1, wb, attraction, a-b-db, 5, 1, 4, 29, 60, 135, 58, 132, 135, 60, 1, 0.742522
250, 1, wb, attraction, a-b-da, 2, 1, 4, 30, 60, 135, 135, 60, 134, 59, 2, 1.69427
250, 1, wb, attraction, a-b-da, 2, 1, 4, 30, 60, 135, 135, 60, 134, 59, 1, 0.712944
250, 1, wb, attraction, a-b-db, 9, 2, 4, 31, 86, 157, 165, 90, 90, 165, 2, 3.26591
250, 1, wb, attraction, a-b-db, 9, 2, 4, 31, 86, 157, 165, 90, 90, 165, 3, 0.805551
250, 1, wb, attraction, a-b-da, 2, 3, 4, 32, 120, 195, 193, 119, 195, 120, 2, 6.48318
250, 1, wb, attraction, a-b-da, 2, 3, 4, 32, 120, 195, 193, 119, 195, 120, 1, 0.757306
250, 1, wb, filler, NA, 999, 999, 4, 33, 71, 149, 156, 75, 128, 156, 2, 2.49239
250, 1, wb, filler, NA, 999, 999, 4, 33, 71, 149, 156, 75, 128, 156, 3, 0.806907
250, 1, wb, filler, NA, 999, 999, 4, 34, 125, 94, 168, 161, 123, 149, 1, 2.97179
250, 1, wb, filler, NA, 999, 999, 4, 34, 125, 94, 168, 161, 123, 149, 2, 0.555678
250, 1, wb, attraction, a-b-da, 14, 1, 4, 35, 135, 60, 125, 56, 60, 135, 2, 2.57921
250, 1, wb, attraction, a-b-da, 14, 1, 4, 35, 135, 60, 125, 56, 60, 135, 3, 1.33053
250, 1, wb, attraction, a-b-db, 14, 2, 4, 36, 90, 165, 83, 153, 165, 90, 2, 3.66662
250, 1, wb, attraction, a-b-db, 14, 2, 4, 36, 90, 165, 83, 153, 165, 90, 1, 0.606161
250, 1, wb, catch, NA, 999, 999, 4, 37, 100, 95, 120, 195, 106, 149, 1, 1.05995
250, 1, wb, catch, NA, 999, 999, 4, 37, 100, 95, 120, 195, 106, 149, 2, 0.456255
250, 1, wb, filler, NA, 999, 999, 5, 1, 83, 149, 85, 77, 58, 116, 3, 14.738
250, 1, wb, filler, NA, 999, 999, 5, 1, 83, 149, 85, 77, 58, 116, 1, 0.775414
250, 1, wb, filler, NA, 999, 999, 5, 2, 89, 153, 81, 94, 109, 157, 1, 1.24582
250, 1, wb, filler, NA, 999, 999, 5, 2, 89, 153, 81, 94, 109, 157, 3, 0.362585
250, 1, wb, attraction, a-b-db, 9, 2, 5, 3, 86, 157, 165, 90, 90, 165, 1, 2.94589
250, 1, wb, attraction, a-b-db, 9, 2, 5, 3, 86, 157, 165, 90, 90, 165, 3, 0.474184
250, 1, wb, attraction, a-b-da, 2, 2, 5, 4, 163, 89, 90, 165, 165, 90, 1, 1.99661
250, 1, wb, attraction, a-b-da, 2, 2, 5, 4, 163, 89, 90, 165, 165, 90, 2, 0.459364
250, 1, wb, attraction, a-b-da, 2, 1, 5, 5, 135, 60, 134, 59, 60, 135, 1, 1.87048
250, 1, wb, attraction, a-b-da, 2, 1, 5, 5, 135, 60, 134, 59, 60, 135, 3, 0.458592
250, 1, wb, attraction, a-b-da, 14, 3, 5, 6, 120, 195, 181, 111, 195, 120, 2, 6.20576
250, 1, wb, attraction, a-b-da, 14, 3, 5, 6, 120, 195, 181, 111, 195, 120, 1, 0.595051
250, 1, wb, attraction, a-b-da, 14, 1, 5, 7, 125, 56, 60, 135, 135, 60, 1, 1.82467
250, 1, wb, attraction, a-b-da, 14, 1, 5, 7, 125, 56, 60, 135, 135, 60, 2, 0.998128
250, 1, wb, attraction, a-b-da, 9, 2, 5, 8, 90, 165, 157, 86, 165, 90, 2, 3.86778
250, 1, wb, attraction, a-b-da, 9, 2, 5, 8, 90, 165, 157, 86, 165, 90, 1, 0.431218
250, 1, wb, filler, NA, 999, 999, 5, 9, 172, 74, 107, 192, 88, 62, 3, 0.819611
250, 1, wb, filler, NA, 999, 999, 5, 9, 172, 74, 107, 192, 88, 62, 2, 0.722131
250, 1, wb, catch, NA, 999, 999, 5, 10, 79, 116, 157, 98, 174, 141, 1, 1.82712
250, 1, wb, catch, NA, 999, 999, 5, 10, 79, 116, 157, 98, 174, 141, 3, 0.872704
250, 1, wb, filler, NA, 999, 999, 5, 11, 144, 98, 105, 162, 56, 61, 3, 0.867505
250, 1, wb, filler, NA, 999, 999, 5, 11, 144, 98, 105, 162, 56, 61, 2, 1.912
250, 1, wb, attraction, a-b-da, 14, 2, 5, 12, 153, 83, 165, 90, 90, 165, 1, 1.93651
250, 1, wb, attraction, a-b-da, 14, 2, 5, 12, 153, 83, 165, 90, 90, 165, 3, 0.67398
250, 1, wb, filler, NA, 999, 999, 5, 13, 165, 107, 108, 92, 101, 165, 2, 2.06032
250, 1, wb, filler, NA, 999, 999, 5, 13, 165, 107, 108, 92, 101, 165, 3, 0.69636
250, 1, wb, attraction, a-b-db, 2, 2, 5, 14, 165, 90, 89, 163, 90, 165, 1, 3.13
250, 1, wb, attraction, a-b-db, 2, 2, 5, 14, 165, 90, 89, 163, 90, 165, 3, 1.90702
250, 1, wb, attraction, a-b-da, 2, 3, 5, 15, 120, 195, 195, 120, 193, 119, 2, 5.03634
250, 1, wb, attraction, a-b-da, 2, 3, 5, 15, 120, 195, 195, 120, 193, 119, 1, 0.680769
250, 1, wb, catch, NA, 999, 999, 5, 16, 191, 124, 99, 156, 63, 132, 3, 1.17118
250, 1, wb, catch, NA, 999, 999, 5, 16, 191, 124, 99, 156, 63, 132, 1, 0.963508
250, 1, wb, attraction, a-b-da, 9, 3, 5, 17, 186, 114, 120, 195, 195, 120, 1, 6.4905
250, 1, wb, attraction, a-b-da, 9, 3, 5, 17, 186, 114, 120, 195, 195, 120, 2, 2.60387
250, 1, wb, catch, NA, 999, 999, 5, 18, 143, 172, 112, 143, 107, 88, 3, 1.88089
250, 1, wb, catch, NA, 999, 999, 5, 18, 143, 172, 112, 143, 107, 88, 1, 0.604304
250, 1, wb, attraction, a-b-da, 5, 2, 5, 19, 165, 90, 161, 88, 90, 165, 1, 2.71408
250, 1, wb, attraction, a-b-da, 5, 2, 5, 19, 165, 90, 161, 88, 90, 165, 3, 0.699728
250, 1, wb, attraction, a-b-db, 2, 3, 5, 20, 119, 193, 195, 120, 120, 195, 2, 2.99746
250, 1, wb, attraction, a-b-db, 2, 3, 5, 20, 119, 193, 195, 120, 120, 195, 3, 0.587925
250, 1, wb, attraction, a-b-db, 9, 3, 5, 21, 114, 186, 195, 120, 120, 195, 2, 1.8903
250, 1, wb, attraction, a-b-db, 9, 3, 5, 21, 114, 186, 195, 120, 120, 195, 3, 0.557192
250, 1, wb, attraction, a-b-db, 2, 1, 5, 22, 60, 135, 59, 134, 135, 60, 3, 5.30018
250, 1, wb, attraction, a-b-db, 2, 1, 5, 22, 60, 135, 59, 134, 135, 60, 1, 0.765739
250, 1, wb, attraction, a-b-da, 9, 1, 5, 23, 60, 135, 135, 60, 129, 57, 3, 5.4049
250, 1, wb, attraction, a-b-da, 9, 1, 5, 23, 60, 135, 135, 60, 129, 57, 1, 0.930449
250, 1, wb, attraction, a-b-db, 14, 2, 5, 24, 90, 165, 83, 153, 165, 90, 2, 12.6109
250, 1, wb, attraction, a-b-db, 14, 2, 5, 24, 90, 165, 83, 153, 165, 90, 1, 0.573457
250, 1, wb, attraction, a-b-db, 9, 1, 5, 25, 60, 135, 57, 129, 135, 60, 3, 6.86784
250, 1, wb, attraction, a-b-db, 9, 1, 5, 25, 60, 135, 57, 129, 135, 60, 1, 1.14228
250, 1, wb, attraction, a-b-db, 5, 3, 5, 26, 117, 190, 120, 195, 195, 120, 1, 4.958
250, 1, wb, attraction, a-b-db, 5, 3, 5, 26, 117, 190, 120, 195, 195, 120, 2, 2.63713
250, 1, wb, attraction, a-b-db, 14, 3, 5, 27, 195, 120, 120, 195, 111, 181, 1, 3.52888
250, 1, wb, attraction, a-b-db, 14, 3, 5, 27, 195, 120, 120, 195, 111, 181, 2, 0.409654
250, 1, wb, filler, NA, 999, 999, 5, 28, 71, 56, 68, 97, 171, 167, 1, 1.36688
250, 1, wb, filler, NA, 999, 999, 5, 28, 71, 56, 68, 97, 171, 167, 3, 0.335074
250, 1, wb, attraction, a-b-da, 5, 1, 5, 29, 132, 58, 60, 135, 135, 60, 1, 2.91166
250, 1, wb, attraction, a-b-da, 5, 1, 5, 29, 132, 58, 60, 135, 135, 60, 2, 0.569277
250, 1, wb, attraction, a-b-db, 5, 2, 5, 30, 90, 165, 88, 161, 165, 90, 3, 3.23255
250, 1, wb, attraction, a-b-db, 5, 2, 5, 30, 90, 165, 88, 161, 165, 90, 2, 1.07736
250, 1, wb, filler, NA, 999, 999, 5, 31, 110, 99, 63, 108, 60, 163, 2, 2.83161
250, 1, wb, filler, NA, 999, 999, 5, 31, 110, 99, 63, 108, 60, 163, 1, 0.756751
250, 1, wb, attraction, a-b-da, 5, 3, 5, 32, 120, 195, 195, 120, 190, 117, 3, 8.33968
250, 1, wb, attraction, a-b-da, 5, 3, 5, 32, 120, 195, 195, 120, 190, 117, 1, 0.403177
250, 1, wb, filler, NA, 999, 999, 5, 33, 94, 96, 80, 138, 129, 170, 1, 0.992872
250, 1, wb, filler, NA, 999, 999, 5, 33, 94, 96, 80, 138, 129, 170, 3, 0.672067
250, 1, wb, filler, NA, 999, 999, 5, 34, 93, 60, 195, 70, 153, 166, 1, 1.19502
250, 1, wb, filler, NA, 999, 999, 5, 34, 93, 60, 195, 70, 153, 166, 3, 0.40187
250, 1, wb, attraction, a-b-db, 14, 1, 5, 35, 135, 60, 56, 125, 60, 135, 1, 2.87192
250, 1, wb, attraction, a-b-db, 14, 1, 5, 35, 135, 60, 56, 125, 60, 135, 3, 0.530868
250, 1, wb, attraction, a-b-db, 5, 1, 5, 36, 58, 132, 60, 135, 135, 60, 3, 1.34723
250, 1, wb, attraction, a-b-db, 5, 1, 5, 36, 58, 132, 60, 135, 135, 60, 2, 0.380228
250, 1, wb, filler, NA, 999, 999, 5, 37, 194, 116, 119, 99, 135, 185, 2, 1.66671
250, 1, wb, filler, NA, 999, 999, 5, 37, 194, 116, 119, 99, 135, 185, 3, 0.83875
250, 1, wb, attraction, a-b-da, 9, 2, 6, 1, 165, 90, 157, 86, 90, 165, 1, 4.00322
250, 1, wb, attraction, a-b-da, 9, 2, 6, 1, 165, 90, 157, 86, 90, 165, 3, 0.353115
250, 1, wb, attraction, a-b-db, 2, 2, 6, 2, 89, 163, 90, 165, 165, 90, 3, 1.88116
250, 1, wb, attraction, a-b-db, 2, 2, 6, 2, 89, 163, 90, 165, 165, 90, 2, 0.708371
250, 1, wb, attraction, a-b-da, 5, 2, 6, 3, 90, 165, 165, 90, 161, 88, 2, 3.78147
250, 1, wb, attraction, a-b-da, 5, 2, 6, 3, 90, 165, 165, 90, 161, 88, 1, 0.612353
250, 1, wb, attraction, a-b-da, 5, 3, 6, 4, 190, 117, 195, 120, 120, 195, 1, 2.13739
250, 1, wb, attraction, a-b-da, 5, 3, 6, 4, 190, 117, 195, 120, 120, 195, 3, 0.410658
250, 1, wb, attraction, a-b-db, 9, 1, 6, 5, 135, 60, 57, 129, 60, 135, 1, 1.74376
250, 1, wb, attraction, a-b-db, 9, 1, 6, 5, 135, 60, 57, 129, 60, 135, 3, 0.584476
250, 1, wb, attraction, a-b-da, 2, 2, 6, 6, 163, 89, 165, 90, 90, 165, 1, 1.839
250, 1, wb, attraction, a-b-da, 2, 2, 6, 6, 163, 89, 165, 90, 90, 165, 3, 0.307633
250, 1, wb, attraction, a-b-db, 5, 3, 6, 7, 117, 190, 195, 120, 120, 195, 2, 0.828907
250, 1, wb, attraction, a-b-db, 5, 3, 6, 7, 117, 190, 195, 120, 120, 195, 3, 0.386498
250, 1, wb, attraction, a-b-db, 5, 2, 6, 8, 165, 90, 90, 165, 88, 161, 1, 0.904945
250, 1, wb, attraction, a-b-db, 5, 2, 6, 8, 165, 90, 90, 165, 88, 161, 2, 2.85942
250, 1, wb, filler, NA, 999, 999, 6, 9, 70, 60, 155, 101, 141, 144, 1, 0.925826
250, 1, wb, filler, NA, 999, 999, 6, 9, 70, 60, 155, 101, 141, 144, 3, 0.415578
250, 1, wb, attraction, a-b-da, 14, 1, 6, 10, 60, 135, 135, 60, 125, 56, 3, 6.21273
250, 1, wb, attraction, a-b-da, 14, 1, 6, 10, 60, 135, 135, 60, 125, 56, 1, 3.08126
250, 1, wb, catch, NA, 999, 999, 6, 11, 140, 115, 165, 150, 61, 134, 3, 1.33894
250, 1, wb, catch, NA, 999, 999, 6, 11, 140, 115, 165, 150, 61, 134, 2, 1.33193
250, 1, wb, attraction, a-b-da, 9, 1, 6, 12, 129, 57, 60, 135, 135, 60, 1, 3.38807
250, 1, wb, attraction, a-b-da, 9, 1, 6, 12, 129, 57, 60, 135, 135, 60, 2, 1.33895
250, 1, wb, attraction, a-b-da, 14, 3, 6, 13, 181, 111, 195, 120, 120, 195, 1, 2.67509
250, 1, wb, attraction, a-b-da, 14, 3, 6, 13, 181, 111, 195, 120, 120, 195, 3, 0.454277
250, 1, wb, attraction, a-b-da, 9, 3, 6, 14, 195, 120, 186, 114, 120, 195, 2, 2.69012
250, 1, wb, attraction, a-b-da, 9, 3, 6, 14, 195, 120, 186, 114, 120, 195, 3, 0.620517
250, 1, wb, catch, NA, 999, 999, 6, 15, 71, 124, 124, 191, 117, 138, 1, 1.05766
250, 1, wb, catch, NA, 999, 999, 6, 15, 71, 124, 124, 191, 117, 138, 2, 0.974041
250, 1, wb, attraction, a-b-da, 2, 3, 6, 16, 195, 120, 193, 119, 120, 195, 1, 6.60427
250, 1, wb, attraction, a-b-da, 2, 3, 6, 16, 195, 120, 193, 119, 120, 195, 3, 0.98544
250, 1, wb, filler, NA, 999, 999, 6, 17, 166, 128, 102, 180, 124, 57, 3, 0.943799
250, 1, wb, filler, NA, 999, 999, 6, 17, 166, 128, 102, 180, 124, 57, 1, 1.76881
250, 1, wb, attraction, a-b-db, 5, 1, 6, 18, 135, 60, 58, 132, 60, 135, 1, 1.39148
250, 1, wb, attraction, a-b-db, 5, 1, 6, 18, 135, 60, 58, 132, 60, 135, 3, 0.422486
250, 1, wb, attraction, a-b-db, 14, 3, 6, 19, 195, 120, 120, 195, 111, 181, 1, 3.52363
250, 1, wb, attraction, a-b-db, 14, 3, 6, 19, 195, 120, 120, 195, 111, 181, 3, 0.572419
250, 1, wb, filler, NA, 999, 999, 6, 20, 136, 152, 180, 108, 81, 104, 3, 0.779464
250, 1, wb, filler, NA, 999, 999, 6, 20, 136, 152, 180, 108, 81, 104, 1, 0.667307
250, 1, wb, catch, NA, 999, 999, 6, 21, 147, 108, 107, 88, 155, 160, 2, 0.878307
250, 1, wb, catch, NA, 999, 999, 6, 21, 147, 108, 107, 88, 155, 160, 3, 0.386032
250, 1, wb, filler, NA, 999, 999, 6, 22, 110, 95, 150, 110, 123, 79, 3, 2.9685
250, 1, wb, filler, NA, 999, 999, 6, 22, 110, 95, 150, 110, 123, 79, 2, 1.34427
250, 1, wb, attraction, a-b-da, 14, 2, 6, 23, 165, 90, 153, 83, 90, 165, 1, 1.61588
250, 1, wb, attraction, a-b-da, 14, 2, 6, 23, 165, 90, 153, 83, 90, 165, 3, 0.358075
250, 1, wb, attraction, a-b-da, 2, 1, 6, 24, 135, 60, 134, 59, 60, 135, 1, 1.12504
250, 1, wb, attraction, a-b-da, 2, 1, 6, 24, 135, 60, 134, 59, 60, 135, 3, 0.438626
250, 1, wb, filler, NA, 999, 999, 6, 25, 182, 101, 66, 145, 65, 71, 3, 1.09939
250, 1, wb, filler, NA, 999, 999, 6, 25, 182, 101, 66, 145, 65, 71, 1, 0.406036
250, 1, wb, attraction, a-b-db, 9, 2, 6, 26, 165, 90, 86, 157, 90, 165, 1, 2.22794
250, 1, wb, attraction, a-b-db, 9, 2, 6, 26, 165, 90, 86, 157, 90, 165, 3, 1.4573
250, 1, wb, attraction, a-b-db, 2, 3, 6, 27, 119, 193, 120, 195, 195, 120, 3, 6.30803
250, 1, wb, attraction, a-b-db, 2, 3, 6, 27, 119, 193, 120, 195, 195, 120, 2, 2.16463
250, 1, wb, filler, NA, 999, 999, 6, 28, 80, 114, 58, 127, 152, 172, 2, 1.01929
250, 1, wb, filler, NA, 999, 999, 6, 28, 80, 114, 58, 127, 152, 172, 3, 0.601629
250, 1, wb, filler, NA, 999, 999, 6, 29, 163, 83, 150, 155, 64, 83, 3, 0.83936
250, 1, wb, filler, NA, 999, 999, 6, 29, 163, 83, 150, 155, 64, 83, 2, 0.740557
250, 1, wb, attraction, a-b-db, 14, 1, 6, 30, 135, 60, 60, 135, 56, 125, 3, 2.07618
250, 1, wb, attraction, a-b-db, 14, 1, 6, 30, 135, 60, 60, 135, 56, 125, 2, 1.23148
250, 1, wb, filler, NA, 999, 999, 6, 31, 74, 158, 145, 128, 135, 86, 1, 5.00357
250, 1, wb, filler, NA, 999, 999, 6, 31, 74, 158, 145, 128, 135, 86, 2, 0.449314
250, 1, wb, attraction, a-b-db, 9, 3, 6, 32, 195, 120, 120, 195, 114, 186, 1, 2.12519
250, 1, wb, attraction, a-b-db, 9, 3, 6, 32, 195, 120, 120, 195, 114, 186, 3, 0.582507
250, 1, wb, attraction, a-b-db, 2, 1, 6, 33, 59, 134, 135, 60, 60, 135, 2, 3.13292
250, 1, wb, attraction, a-b-db, 2, 1, 6, 33, 59, 134, 135, 60, 60, 135, 3, 0.405981
250, 1, wb, filler, NA, 999, 999, 6, 34, 72, 117, 91, 155, 141, 96, 1, 3.17969
250, 1, wb, filler, NA, 999, 999, 6, 34, 72, 117, 91, 155, 141, 96, 2, 0.730684
250, 1, wb, attraction, a-b-da, 5, 1, 6, 35, 60, 135, 132, 58, 135, 60, 2, 2.9231
250, 1, wb, attraction, a-b-da, 5, 1, 6, 35, 60, 135, 132, 58, 135, 60, 1, 0.500157
250, 1, wb, filler, NA, 999, 999, 6, 36, 117, 173, 113, 93, 60, 103, 3, 1.06995
250, 1, wb, filler, NA, 999, 999, 6, 36, 117, 173, 113, 93, 60, 103, 1, 0.562278
250, 1, wb, attraction, a-b-db, 14, 2, 6, 37, 165, 90, 90, 165, 83, 153, 1, 4.40934
250, 1, wb, attraction, a-b-db, 14, 2, 6, 37, 165, 90, 90, 165, 83, 153, 2, 0.406605
250, 1, wb, filler, NA, 999, 999, 7, 1, 174, 126, 146, 88, 64, 93, 3, 1.2197
250, 1, wb, filler, NA, 999, 999, 7, 1, 174, 126, 146, 88, 64, 93, 1, 0.450031
250, 1, wb, attraction, a-b-da, 2, 2, 7, 2, 90, 165, 163, 89, 165, 90, 3, 4.28586
250, 1, wb, attraction, a-b-da, 2, 2, 7, 2, 90, 165, 163, 89, 165, 90, 1, 0.760423
250, 1, wb, catch, NA, 999, 999, 7, 3, 124, 131, 171, 144, 76, 119, 3, 0.991496
250, 1, wb, catch, NA, 999, 999, 7, 3, 124, 131, 171, 144, 76, 119, 2, 0.510429
250, 1, wb, attraction, a-b-db, 2, 3, 7, 4, 195, 120, 120, 195, 119, 193, 1, 2.72753
250, 1, wb, attraction, a-b-db, 2, 3, 7, 4, 195, 120, 120, 195, 119, 193, 3, 0.584712
250, 1, wb, attraction, a-b-db, 14, 1, 7, 5, 56, 125, 135, 60, 60, 135, 2, 1.31119
250, 1, wb, attraction, a-b-db, 14, 1, 7, 5, 56, 125, 135, 60, 60, 135, 3, 0.369904
250, 1, wb, filler, NA, 999, 999, 7, 6, 97, 95, 109, 58, 139, 176, 2, 2.41655
250, 1, wb, filler, NA, 999, 999, 7, 6, 97, 95, 109, 58, 139, 176, 3, 0.358452
250, 1, wb, attraction, a-b-da, 5, 3, 7, 7, 120, 195, 190, 117, 195, 120, 3, 2.63758
250, 1, wb, attraction, a-b-da, 5, 3, 7, 7, 120, 195, 190, 117, 195, 120, 1, 0.906784
250, 1, wb, filler, NA, 999, 999, 7, 8, 167, 194, 59, 176, 189, 99, 2, 1.57981
250, 1, wb, filler, NA, 999, 999, 7, 8, 167, 194, 59, 176, 189, 99, 1, 0.331187
250, 1, wb, attraction, a-b-da, 2, 1, 7, 9, 134, 59, 60, 135, 135, 60, 2, 1.25162
250, 1, wb, attraction, a-b-da, 2, 1, 7, 9, 134, 59, 60, 135, 135, 60, 1, 0.456598
250, 1, wb, attraction, a-b-db, 14, 2, 7, 10, 83, 153, 165, 90, 90, 165, 1, 3.21966
250, 1, wb, attraction, a-b-db, 14, 2, 7, 10, 83, 153, 165, 90, 90, 165, 3, 0.345344
250, 1, wb, filler, NA, 999, 999, 7, 11, 57, 155, 144, 162, 137, 100, 1, 1.68921
250, 1, wb, filler, NA, 999, 999, 7, 11, 57, 155, 144, 162, 137, 100, 2, 0.515999
250, 1, wb, attraction, a-b-db, 2, 2, 7, 12, 90, 165, 165, 90, 89, 163, 2, 7.66902
250, 1, wb, attraction, a-b-db, 2, 2, 7, 12, 90, 165, 165, 90, 89, 163, 3, 0.447428
250, 1, wb, attraction, a-b-da, 14, 3, 7, 13, 181, 111, 195, 120, 120, 195, 1, 2.10719
250, 1, wb, attraction, a-b-da, 14, 3, 7, 13, 181, 111, 195, 120, 120, 195, 3, 0.317157
250, 1, wb, filler, NA, 999, 999, 7, 14, 102, 84, 56, 95, 65, 144, 2, 0.910336
250, 1, wb, filler, NA, 999, 999, 7, 14, 102, 84, 56, 95, 65, 144, 1, 0.936585
250, 1, wb, attraction, a-b-db, 9, 1, 7, 15, 60, 135, 57, 129, 135, 60, 3, 1.48897
250, 1, wb, attraction, a-b-db, 9, 1, 7, 15, 60, 135, 57, 129, 135, 60, 1, 0.699759
250, 1, wb, catch, NA, 999, 999, 7, 16, 134, 61, 165, 150, 164, 91, 1, 1.2856
250, 1, wb, catch, NA, 999, 999, 7, 16, 134, 61, 165, 150, 164, 91, 2, 0.54529
250, 1, wb, catch, NA, 999, 999, 7, 17, 128, 127, 102, 93, 151, 164, 2, 1.63298
250, 1, wb, catch, NA, 999, 999, 7, 17, 128, 127, 102, 93, 151, 164, 3, 0.422468
250, 1, wb, attraction, a-b-da, 9, 2, 7, 18, 157, 86, 165, 90, 90, 165, 1, 2.48342
250, 1, wb, attraction, a-b-da, 9, 2, 7, 18, 157, 86, 165, 90, 90, 165, 3, 0.358661
250, 1, wb, attraction, a-b-da, 14, 2, 7, 19, 165, 90, 90, 165, 153, 83, 3, 1.56581
250, 1, wb, attraction, a-b-da, 14, 2, 7, 19, 165, 90, 90, 165, 153, 83, 2, 0.502119
250, 1, wb, attraction, a-b-da, 2, 3, 7, 20, 120, 195, 195, 120, 193, 119, 3, 2.12775
250, 1, wb, attraction, a-b-da, 2, 3, 7, 20, 120, 195, 195, 120, 193, 119, 1, 0.457114
250, 1, wb, attraction, a-b-db, 9, 3, 7, 21, 114, 186, 195, 120, 120, 195, 1, 2.67617
250, 1, wb, attraction, a-b-db, 9, 3, 7, 21, 114, 186, 195, 120, 120, 195, 3, 0.327338
250, 1, wb, attraction, a-b-da, 5, 2, 7, 22, 165, 90, 90, 165, 161, 88, 3, 2.06383
250, 1, wb, attraction, a-b-da, 5, 2, 7, 22, 165, 90, 90, 165, 161, 88, 2, 0.339883
250, 1, wb, attraction, a-b-db, 5, 3, 7, 23, 195, 120, 117, 190, 120, 195, 1, 4.46045
250, 1, wb, attraction, a-b-db, 5, 3, 7, 23, 195, 120, 117, 190, 120, 195, 2, 0.671664
250, 1, wb, attraction, a-b-db, 5, 1, 7, 24, 58, 132, 135, 60, 60, 135, 2, 0.778661
250, 1, wb, attraction, a-b-db, 5, 1, 7, 24, 58, 132, 135, 60, 60, 135, 3, 1.45849
250, 1, wb, attraction, a-b-db, 2, 1, 7, 25, 135, 60, 60, 135, 59, 134, 1, 2.01317
250, 1, wb, attraction, a-b-db, 2, 1, 7, 25, 135, 60, 60, 135, 59, 134, 3, 0.403251
250, 1, wb, attraction, a-b-da, 5, 1, 7, 26, 132, 58, 135, 60, 60, 135, 2, 1.16903
250, 1, wb, attraction, a-b-da, 5, 1, 7, 26, 132, 58, 135, 60, 60, 135, 3, 0.545337
250, 1, wb, attraction, a-b-da, 9, 1, 7, 27, 60, 135, 135, 60, 129, 57, 3, 2.66512
250, 1, wb, attraction, a-b-da, 9, 1, 7, 27, 60, 135, 135, 60, 129, 57, 1, 0.452933
250, 1, wb, filler, NA, 999, 999, 7, 28, 132, 68, 57, 141, 86, 190, 2, 2.3847
250, 1, wb, filler, NA, 999, 999, 7, 28, 132, 68, 57, 141, 86, 190, 3, 0.327899
250, 1, wb, filler, NA, 999, 999, 7, 29, 59, 128, 167, 64, 133, 59, 3, 3.84844
250, 1, wb, filler, NA, 999, 999, 7, 29, 59, 128, 167, 64, 133, 59, 2, 0.300586
250, 1, wb, attraction, a-b-db, 5, 2, 7, 30, 165, 90, 90, 165, 88, 161, 2, 3.14238
250, 1, wb, attraction, a-b-db, 5, 2, 7, 30, 165, 90, 90, 165, 88, 161, 1, 0.758694
250, 1, wb, filler, NA, 999, 999, 7, 31, 57, 163, 159, 189, 134, 65, 3, 4.35782
250, 1, wb, filler, NA, 999, 999, 7, 31, 57, 163, 159, 189, 134, 65, 2, 0.30105
250, 1, wb, attraction, a-b-da, 14, 1, 7, 32, 135, 60, 125, 56, 60, 135, 2, 4.51087
250, 1, wb, attraction, a-b-da, 14, 1, 7, 32, 135, 60, 125, 56, 60, 135, 3, 0.408257
250, 1, wb, attraction, a-b-da, 9, 3, 7, 33, 186, 114, 120, 195, 195, 120, 1, 2.51718
250, 1, wb, attraction, a-b-da, 9, 3, 7, 33, 186, 114, 120, 195, 195, 120, 3, 1.34317
250, 1, wb, attraction, a-b-db, 9, 2, 7, 34, 90, 165, 165, 90, 86, 157, 2, 3.69463
250, 1, wb, attraction, a-b-db, 9, 2, 7, 34, 90, 165, 165, 90, 86, 157, 1, 0.528695
250, 1, wb, attraction, a-b-db, 14, 3, 7, 35, 111, 181, 195, 120, 120, 195, 1, 1.63328
250, 1, wb, attraction, a-b-db, 14, 3, 7, 35, 111, 181, 195, 120, 120, 195, 3, 2.83062
250, 1, wb, filler, NA, 999, 999, 7, 36, 57, 75, 83, 124, 157, 91, 1, 1.99447
250, 1, wb, filler, NA, 999, 999, 7, 36, 57, 75, 83, 124, 157, 91, 3, 1.91327
250, 1, wb, filler, NA, 999, 999, 7, 37, 73, 94, 79, 82, 164, 162, 2, 1.27379
250, 1, wb, filler, NA, 999, 999, 7, 37, 73, 94, 79, 82, 164, 162, 3, 0.805431
250, 1, wb, filler, NA, 999, 999, 8, 1, 160, 97, 113, 182, 169, 170, 1, 3.81892
250, 1, wb, filler, NA, 999, 999, 8, 1, 160, 97, 113, 182, 169, 170, 3, 0.640537
250, 1, wb, attraction, a-b-da, 5, 2, 8, 2, 165, 90, 161, 88, 90, 165, 2, 3.80425
250, 1, wb, attraction, a-b-da, 5, 2, 8, 2, 165, 90, 161, 88, 90, 165, 3, 0.658363
250, 1, wb, attraction, a-b-db, 2, 1, 8, 3, 60, 135, 135, 60, 59, 134, 2, 4.42138
250, 1, wb, attraction, a-b-db, 2, 1, 8, 3, 60, 135, 135, 60, 59, 134, 3, 0.954775
250, 1, wb, attraction, a-b-db, 9, 1, 8, 4, 60, 135, 57, 129, 135, 60, 3, 1.81037
250, 1, wb, attraction, a-b-db, 9, 1, 8, 4, 60, 135, 57, 129, 135, 60, 1, 0.992462
250, 1, wb, filler, NA, 999, 999, 8, 5, 84, 189, 78, 95, 99, 146, 2, 1.86375
250, 1, wb, filler, NA, 999, 999, 8, 5, 84, 189, 78, 95, 99, 146, 1, 0.682121
250, 1, wb, filler, NA, 999, 999, 8, 6, 62, 76, 185, 117, 125, 120, 1, 1.24463
250, 1, wb, filler, NA, 999, 999, 8, 6, 62, 76, 185, 117, 125, 120, 2, 0.361514
250, 1, wb, attraction, a-b-db, 5, 1, 8, 7, 60, 135, 58, 132, 135, 60, 3, 4.6646
250, 1, wb, attraction, a-b-db, 5, 1, 8, 7, 60, 135, 58, 132, 135, 60, 1, 0.571706
250, 1, wb, attraction, a-b-da, 5, 1, 8, 8, 132, 58, 135, 60, 60, 135, 1, 2.40277
250, 1, wb, attraction, a-b-da, 5, 1, 8, 8, 132, 58, 135, 60, 60, 135, 3, 0.985522
250, 1, wb, attraction, a-b-db, 5, 2, 8, 9, 90, 165, 88, 161, 165, 90, 3, 3.18382
250, 1, wb, attraction, a-b-db, 5, 2, 8, 9, 90, 165, 88, 161, 165, 90, 1, 0.526738
250, 1, wb, filler, NA, 999, 999, 8, 10, 110, 85, 172, 97, 111, 178, 1, 1.10318
250, 1, wb, filler, NA, 999, 999, 8, 10, 110, 85, 172, 97, 111, 178, 3, 0.618147
250, 1, wb, filler, NA, 999, 999, 8, 11, 64, 88, 86, 104, 125, 169, 1, 0.695101
250, 1, wb, filler, NA, 999, 999, 8, 11, 64, 88, 86, 104, 125, 169, 3, 0.690293
250, 1, wb, attraction, a-b-db, 14, 1, 8, 12, 60, 135, 135, 60, 56, 125, 2, 1.244
250, 1, wb, attraction, a-b-db, 14, 1, 8, 12, 60, 135, 135, 60, 56, 125, 3, 1.12096
250, 1, wb, attraction, a-b-da, 2, 1, 8, 13, 134, 59, 60, 135, 135, 60, 1, 2.01781
250, 1, wb, attraction, a-b-da, 2, 1, 8, 13, 134, 59, 60, 135, 135, 60, 2, 1.63985
250, 1, wb, attraction, a-b-da, 9, 3, 8, 14, 195, 120, 120, 195, 186, 114, 3, 2.01191
250, 1, wb, attraction, a-b-da, 9, 3, 8, 14, 195, 120, 120, 195, 186, 114, 1, 1.05802
250, 1, wb, attraction, a-b-da, 14, 2, 8, 15, 153, 83, 165, 90, 90, 165, 1, 5.05285
250, 1, wb, attraction, a-b-da, 14, 2, 8, 15, 153, 83, 165, 90, 90, 165, 2, 0.464583
250, 1, wb, attraction, a-b-db, 9, 2, 8, 16, 86, 157, 165, 90, 90, 165, 2, 1.2037
250, 1, wb, attraction, a-b-db, 9, 2, 8, 16, 86, 157, 165, 90, 90, 165, 3, 0.554614
250, 1, wb, attraction, a-b-da, 9, 1, 8, 17, 135, 60, 129, 57, 60, 135, 2, 4.37044
250, 1, wb, attraction, a-b-da, 9, 1, 8, 17, 135, 60, 129, 57, 60, 135, 3, 0.481751
250, 1, wb, attraction, a-b-da, 9, 2, 8, 18, 157, 86, 165, 90, 90, 165, 1, 6.2442
250, 1, wb, attraction, a-b-da, 9, 2, 8, 18, 157, 86, 165, 90, 90, 165, 3, 0.551465
250, 1, wb, filler, NA, 999, 999, 8, 19, 139, 125, 194, 162, 134, 76, 3, 1.37529
250, 1, wb, filler, NA, 999, 999, 8, 19, 139, 125, 194, 162, 134, 76, 2, 0.502781
250, 1, wb, attraction, a-b-db, 14, 3, 8, 20, 111, 181, 120, 195, 195, 120, 3, 1.85672
250, 1, wb, attraction, a-b-db, 14, 3, 8, 20, 111, 181, 120, 195, 195, 120, 2, 0.396664
250, 1, wb, catch, NA, 999, 999, 8, 21, 187, 128, 127, 128, 74, 121, 3, 0.666564
250, 1, wb, catch, NA, 999, 999, 8, 21, 187, 128, 127, 128, 74, 121, 1, 0.807031
250, 1, wb, filler, NA, 999, 999, 8, 22, 89, 85, 163, 86, 166, 85, 1, 0.995862
250, 1, wb, filler, NA, 999, 999, 8, 22, 89, 85, 163, 86, 166, 85, 3, 0.578911
250, 1, wb, attraction, a-b-db, 2, 2, 8, 23, 90, 165, 165, 90, 89, 163, 2, 4.64138
250, 1, wb, attraction, a-b-db, 2, 2, 8, 23, 90, 165, 165, 90, 89, 163, 3, 0.581265
250, 1, wb, catch, NA, 999, 999, 8, 24, 61, 134, 138, 177, 138, 117, 1, 2.22757
250, 1, wb, catch, NA, 999, 999, 8, 24, 61, 134, 138, 177, 138, 117, 2, 2.64108
250, 1, wb, catch, NA, 999, 999, 8, 25, 183, 132, 97, 98, 126, 129, 2, 0.812064
250, 1, wb, catch, NA, 999, 999, 8, 25, 183, 132, 97, 98, 126, 129, 3, 0.650392
250, 1, wb, filler, NA, 999, 999, 8, 26, 83, 113, 162, 180, 80, 83, 3, 1.54227
250, 1, wb, filler, NA, 999, 999, 8, 26, 83, 113, 162, 180, 80, 83, 2, 0.406949
250, 1, wb, attraction, a-b-db, 14, 2, 8, 27, 90, 165, 83, 153, 165, 90, 2, 5.26024
250, 1, wb, attraction, a-b-db, 14, 2, 8, 27, 90, 165, 83, 153, 165, 90, 1, 0.535172
250, 1, wb, attraction, a-b-db, 9, 3, 8, 28, 114, 186, 120, 195, 195, 120, 1, 1.3357
250, 1, wb, attraction, a-b-db, 9, 3, 8, 28, 114, 186, 120, 195, 195, 120, 2, 0.377114
250, 1, wb, attraction, a-b-da, 2, 3, 8, 29, 195, 120, 120, 195, 193, 119, 1, 1.51166
250, 1, wb, attraction, a-b-da, 2, 3, 8, 29, 195, 120, 120, 195, 193, 119, 2, 0.634053
250, 1, wb, attraction, a-b-da, 14, 1, 8, 30, 60, 135, 135, 60, 125, 56, 3, 1.55821
250, 1, wb, attraction, a-b-da, 14, 1, 8, 30, 60, 135, 135, 60, 125, 56, 1, 0.494342
250, 1, wb, attraction, a-b-da, 2, 2, 8, 31, 163, 89, 90, 165, 165, 90, 2, 3.45617
250, 1, wb, attraction, a-b-da, 2, 2, 8, 31, 163, 89, 90, 165, 165, 90, 3, 0.827802
250, 1, wb, filler, NA, 999, 999, 8, 32, 156, 133, 144, 156, 122, 87, 3, 1.47208
250, 1, wb, filler, NA, 999, 999, 8, 32, 156, 133, 144, 156, 122, 87, 1, 0.459666
250, 1, wb, filler, NA, 999, 999, 8, 33, 84, 69, 182, 154, 190, 68, 1, 0.678723
250, 1, wb, filler, NA, 999, 999, 8, 33, 84, 69, 182, 154, 190, 68, 2, 0.426456
250, 1, wb, attraction, a-b-db, 2, 3, 8, 34, 195, 120, 119, 193, 120, 195, 2, 1.73488
250, 1, wb, attraction, a-b-db, 2, 3, 8, 34, 195, 120, 119, 193, 120, 195, 3, 0.688352
250, 1, wb, attraction, a-b-da, 5, 3, 8, 35, 120, 195, 195, 120, 190, 117, 2, 2.46669
250, 1, wb, attraction, a-b-da, 5, 3, 8, 35, 120, 195, 195, 120, 190, 117, 1, 0.502885
250, 1, wb, attraction, a-b-da, 14, 3, 8, 36, 181, 111, 120, 195, 195, 120, 1, 1.35252
250, 1, wb, attraction, a-b-da, 14, 3, 8, 36, 181, 111, 120, 195, 195, 120, 2, 0.44933
250, 1, wb, attraction, a-b-db, 5, 3, 8, 37, 120, 195, 195, 120, 117, 190, 2, 1.6531
250, 1, wb, attraction, a-b-db, 5, 3, 8, 37, 120, 195, 195, 120, 117, 190, 3, 0.641871
