sub_n, computer_n, bw_cond, effect, set, distance, diag, block_n, trial_n, h1, w1, h2, w2, h3, w3, choice, rt 
283, 1, bw, practice, NA, 999, 999, 0, 1, 125, 179, 66, 187, 151, 94, 1, 2.81717
283, 1, bw, practice, NA, 999, 999, 0, 1, 125, 179, 66, 187, 151, 94, 2, 6.1629
283, 1, bw, practice, NA, 999, 999, 0, 2, 67, 83, 127, 142, 62, 149, 2, 2.00843
283, 1, bw, practice, NA, 999, 999, 0, 2, 67, 83, 127, 142, 62, 149, 1, 1.18283
283, 1, bw, practice, NA, 999, 999, 0, 3, 169, 156, 181, 71, 137, 106, 1, 1.83398
283, 1, bw, practice, NA, 999, 999, 0, 3, 169, 156, 181, 71, 137, 106, 2, 9.57611
283, 1, bw, filler, NA, 999, 999, 1, 1, 152, 138, 124, 172, 114, 131, 2, 2.75015
283, 1, bw, filler, NA, 999, 999, 1, 1, 152, 138, 124, 172, 114, 131, 3, 1.02255
283, 1, bw, attraction, a-b-db, 5, 2, 1, 2, 90, 165, 165, 90, 88, 161, 1, 4.64362
283, 1, bw, attraction, a-b-db, 5, 2, 1, 2, 90, 165, 165, 90, 88, 161, 3, 1.16729
283, 1, bw, attraction, a-b-da, 9, 3, 1, 3, 195, 120, 186, 114, 120, 195, 1, 6.36634
283, 1, bw, attraction, a-b-da, 9, 3, 1, 3, 195, 120, 186, 114, 120, 195, 2, 0.780994
283, 1, bw, attraction, a-b-db, 9, 1, 1, 4, 60, 135, 57, 129, 135, 60, 1, 6.65135
283, 1, bw, attraction, a-b-db, 9, 1, 1, 4, 60, 135, 57, 129, 135, 60, 2, 1.35051
283, 1, bw, attraction, a-b-da, 5, 2, 1, 5, 161, 88, 165, 90, 90, 165, 3, 6.43006
283, 1, bw, attraction, a-b-da, 5, 2, 1, 5, 161, 88, 165, 90, 90, 165, 1, 4.86613
283, 1, bw, attraction, a-b-db, 14, 2, 1, 6, 165, 90, 83, 153, 90, 165, 1, 9.4037
283, 1, bw, attraction, a-b-db, 14, 2, 1, 6, 165, 90, 83, 153, 90, 165, 2, 1.85615
283, 1, bw, attraction, a-b-db, 2, 2, 1, 7, 89, 163, 90, 165, 165, 90, 3, 17.6435
283, 1, bw, attraction, a-b-db, 2, 2, 1, 7, 89, 163, 90, 165, 165, 90, 2, 4.76328
283, 1, bw, attraction, a-b-db, 9, 2, 1, 8, 90, 165, 165, 90, 86, 157, 1, 7.41701
283, 1, bw, attraction, a-b-db, 9, 2, 1, 8, 90, 165, 165, 90, 86, 157, 3, 4.2294
283, 1, bw, filler, NA, 999, 999, 1, 9, 61, 72, 115, 195, 142, 195, 3, 3.2726
283, 1, bw, filler, NA, 999, 999, 1, 9, 61, 72, 115, 195, 142, 195, 1, 0.995605
283, 1, bw, attraction, a-b-db, 5, 3, 1, 10, 120, 195, 117, 190, 195, 120, 1, 10.9212
283, 1, bw, attraction, a-b-db, 5, 3, 1, 10, 120, 195, 117, 190, 195, 120, 3, 4.39252
283, 1, bw, attraction, a-b-da, 14, 3, 1, 11, 120, 195, 181, 111, 195, 120, 1, 4.8932
283, 1, bw, attraction, a-b-da, 14, 3, 1, 11, 120, 195, 181, 111, 195, 120, 2, 0.958754
283, 1, bw, attraction, a-b-da, 9, 2, 1, 12, 157, 86, 90, 165, 165, 90, 2, 1.50182
283, 1, bw, attraction, a-b-da, 9, 2, 1, 12, 157, 86, 90, 165, 165, 90, 1, 1.09666
283, 1, bw, attraction, a-b-da, 2, 3, 1, 13, 193, 119, 120, 195, 195, 120, 2, 1.91426
283, 1, bw, attraction, a-b-da, 2, 3, 1, 13, 193, 119, 120, 195, 195, 120, 1, 0.732297
283, 1, bw, attraction, a-b-db, 2, 3, 1, 14, 120, 195, 195, 120, 119, 193, 1, 2.35675
283, 1, bw, attraction, a-b-db, 2, 3, 1, 14, 120, 195, 195, 120, 119, 193, 3, 1.74858
283, 1, bw, filler, NA, 999, 999, 1, 15, 88, 167, 122, 101, 157, 99, 1, 2.75595
283, 1, bw, filler, NA, 999, 999, 1, 15, 88, 167, 122, 101, 157, 99, 2, 0.675754
283, 1, bw, attraction, a-b-da, 5, 1, 1, 16, 135, 60, 60, 135, 132, 58, 2, 12.4461
283, 1, bw, attraction, a-b-da, 5, 1, 1, 16, 135, 60, 60, 135, 132, 58, 3, 0.503507
283, 1, bw, filler, NA, 999, 999, 1, 17, 103, 81, 192, 64, 120, 174, 3, 1.56936
283, 1, bw, filler, NA, 999, 999, 1, 17, 103, 81, 192, 64, 120, 174, 1, 1.21747
283, 1, bw, attraction, a-b-da, 14, 1, 1, 18, 135, 60, 60, 135, 125, 56, 2, 14.1507
283, 1, bw, attraction, a-b-da, 14, 1, 1, 18, 135, 60, 60, 135, 125, 56, 3, 0.643236
283, 1, bw, attraction, a-b-db, 14, 1, 1, 19, 60, 135, 56, 125, 135, 60, 1, 4.68703
283, 1, bw, attraction, a-b-db, 14, 1, 1, 19, 60, 135, 56, 125, 135, 60, 2, 1.04149
283, 1, bw, filler, NA, 999, 999, 1, 20, 96, 86, 121, 166, 132, 133, 2, 1.46909
283, 1, bw, filler, NA, 999, 999, 1, 20, 96, 86, 121, 166, 132, 133, 1, 0.665354
283, 1, bw, attraction, a-b-da, 5, 3, 1, 21, 195, 120, 190, 117, 120, 195, 3, 7.7404
283, 1, bw, attraction, a-b-da, 5, 3, 1, 21, 195, 120, 190, 117, 120, 195, 2, 0.707377
283, 1, bw, filler, NA, 999, 999, 1, 22, 119, 84, 190, 187, 155, 76, 2, 1.05225
283, 1, bw, filler, NA, 999, 999, 1, 22, 119, 84, 190, 187, 155, 76, 1, 0.801372
283, 1, bw, attraction, a-b-da, 2, 1, 1, 23, 60, 135, 135, 60, 134, 59, 1, 3.98304
283, 1, bw, attraction, a-b-da, 2, 1, 1, 23, 60, 135, 135, 60, 134, 59, 3, 0.709712
283, 1, bw, filler, NA, 999, 999, 1, 24, 174, 126, 86, 178, 64, 80, 1, 1.07074
283, 1, bw, filler, NA, 999, 999, 1, 24, 174, 126, 86, 178, 64, 80, 3, 0.818998
283, 1, bw, attraction, a-b-db, 9, 3, 1, 25, 195, 120, 114, 186, 120, 195, 1, 16.0961
283, 1, bw, attraction, a-b-db, 9, 3, 1, 25, 195, 120, 114, 186, 120, 195, 2, 2.83841
283, 1, bw, filler, NA, 999, 999, 1, 26, 110, 165, 61, 95, 161, 90, 1, 2.40213
283, 1, bw, filler, NA, 999, 999, 1, 26, 110, 165, 61, 95, 161, 90, 3, 0.464658
283, 1, bw, attraction, a-b-da, 9, 1, 1, 27, 60, 135, 135, 60, 129, 57, 2, 6.59579
283, 1, bw, attraction, a-b-da, 9, 1, 1, 27, 60, 135, 135, 60, 129, 57, 3, 0.496959
283, 1, bw, attraction, a-b-db, 14, 3, 1, 28, 111, 181, 195, 120, 120, 195, 3, 13.8909
283, 1, bw, attraction, a-b-db, 14, 3, 1, 28, 111, 181, 195, 120, 120, 195, 1, 0.874506
283, 1, bw, attraction, a-b-da, 14, 2, 1, 29, 90, 165, 153, 83, 165, 90, 1, 6.72473
283, 1, bw, attraction, a-b-da, 14, 2, 1, 29, 90, 165, 153, 83, 165, 90, 2, 0.516651
283, 1, bw, attraction, a-b-db, 5, 1, 1, 30, 58, 132, 60, 135, 135, 60, 3, 6.11781
283, 1, bw, attraction, a-b-db, 5, 1, 1, 30, 58, 132, 60, 135, 135, 60, 1, 26.6704
283, 1, bw, filler, NA, 999, 999, 1, 31, 158, 192, 120, 72, 102, 172, 1, 1.0895
283, 1, bw, filler, NA, 999, 999, 1, 31, 158, 192, 120, 72, 102, 172, 2, 0.660394
283, 1, bw, catch, NA, 999, 999, 1, 32, 127, 128, 74, 121, 132, 183, 3, 1.33549
283, 1, bw, catch, NA, 999, 999, 1, 32, 127, 128, 74, 121, 132, 183, 2, 0.505149
283, 1, bw, catch, NA, 999, 999, 1, 33, 174, 141, 152, 103, 105, 90, 1, 0.938905
283, 1, bw, catch, NA, 999, 999, 1, 33, 174, 141, 152, 103, 105, 90, 3, 0.371875
283, 1, bw, attraction, a-b-da, 2, 2, 1, 34, 90, 165, 163, 89, 165, 90, 1, 6.52296
283, 1, bw, attraction, a-b-da, 2, 2, 1, 34, 90, 165, 163, 89, 165, 90, 2, 8.07495
283, 1, bw, filler, NA, 999, 999, 1, 35, 110, 115, 177, 168, 67, 94, 2, 1.13968
283, 1, bw, filler, NA, 999, 999, 1, 35, 110, 115, 177, 168, 67, 94, 3, 1.98075
283, 1, bw, catch, NA, 999, 999, 1, 36, 69, 126, 129, 126, 137, 178, 3, 1.01857
283, 1, bw, catch, NA, 999, 999, 1, 36, 69, 126, 129, 126, 137, 178, 1, 0.52088
283, 1, bw, attraction, a-b-db, 2, 1, 1, 37, 135, 60, 59, 134, 60, 135, 3, 64.2741
283, 1, bw, attraction, a-b-db, 2, 1, 1, 37, 135, 60, 59, 134, 60, 135, 1, 0.835385
283, 1, bw, attraction, a-b-da, 5, 3, 2, 1, 195, 120, 190, 117, 120, 195, 3, 7.67171
283, 1, bw, attraction, a-b-da, 5, 3, 2, 1, 195, 120, 190, 117, 120, 195, 2, 3.98595
283, 1, bw, filler, NA, 999, 999, 2, 2, 77, 116, 141, 78, 156, 185, 3, 1.64725
283, 1, bw, filler, NA, 999, 999, 2, 2, 77, 116, 141, 78, 156, 185, 1, 0.596116
283, 1, bw, attraction, a-b-da, 2, 1, 2, 3, 134, 59, 135, 60, 60, 135, 3, 10.0658
283, 1, bw, attraction, a-b-da, 2, 1, 2, 3, 134, 59, 135, 60, 60, 135, 1, 0.779442
283, 1, bw, attraction, a-b-db, 2, 1, 2, 4, 59, 134, 60, 135, 135, 60, 2, 2.88163
283, 1, bw, attraction, a-b-db, 2, 1, 2, 4, 59, 134, 60, 135, 135, 60, 3, 12.7328
283, 1, bw, filler, NA, 999, 999, 2, 5, 175, 160, 67, 154, 175, 84, 1, 2.77736
283, 1, bw, filler, NA, 999, 999, 2, 5, 175, 160, 67, 154, 175, 84, 2, 2.55259
283, 1, bw, attraction, a-b-db, 14, 3, 2, 6, 195, 120, 111, 181, 120, 195, 1, 10.0316
283, 1, bw, attraction, a-b-db, 14, 3, 2, 6, 195, 120, 111, 181, 120, 195, 2, 7.01842
283, 1, bw, attraction, a-b-da, 5, 2, 2, 7, 90, 165, 161, 88, 165, 90, 1, 19.0055
283, 1, bw, attraction, a-b-da, 5, 2, 2, 7, 90, 165, 161, 88, 165, 90, 2, 0.366863
283, 1, bw, attraction, a-b-db, 9, 1, 2, 8, 60, 135, 57, 129, 135, 60, 3, 37.99
283, 1, bw, attraction, a-b-db, 9, 1, 2, 8, 60, 135, 57, 129, 135, 60, 2, 0.650325
283, 1, bw, attraction, a-b-da, 2, 2, 2, 9, 163, 89, 165, 90, 90, 165, 1, 8.67779
283, 1, bw, attraction, a-b-da, 2, 2, 2, 9, 163, 89, 165, 90, 90, 165, 3, 0.647296
283, 1, bw, filler, NA, 999, 999, 2, 10, 175, 109, 123, 103, 75, 135, 1, 3.21085
283, 1, bw, filler, NA, 999, 999, 2, 10, 175, 109, 123, 103, 75, 135, 3, 0.504474
283, 1, bw, attraction, a-b-da, 9, 3, 2, 11, 195, 120, 186, 114, 120, 195, 1, 28.6503
283, 1, bw, attraction, a-b-da, 9, 3, 2, 11, 195, 120, 186, 114, 120, 195, 2, 0.534683
283, 1, bw, attraction, a-b-da, 14, 1, 2, 12, 60, 135, 125, 56, 135, 60, 1, 16.2392
283, 1, bw, attraction, a-b-da, 14, 1, 2, 12, 60, 135, 125, 56, 135, 60, 2, 0.28003
283, 1, bw, attraction, a-b-db, 14, 1, 2, 13, 60, 135, 56, 125, 135, 60, 1, 14.8265
283, 1, bw, attraction, a-b-db, 14, 1, 2, 13, 60, 135, 56, 125, 135, 60, 2, 0.499908
283, 1, bw, filler, NA, 999, 999, 2, 14, 132, 67, 171, 187, 184, 158, 2, 2.40573
283, 1, bw, filler, NA, 999, 999, 2, 14, 132, 67, 171, 187, 184, 158, 1, 0.507475
283, 1, bw, filler, NA, 999, 999, 2, 15, 117, 74, 183, 141, 194, 133, 2, 2.68467
283, 1, bw, filler, NA, 999, 999, 2, 15, 117, 74, 183, 141, 194, 133, 1, 0.519786
283, 1, bw, attraction, a-b-db, 14, 2, 2, 16, 165, 90, 90, 165, 83, 153, 1, 7.60897
283, 1, bw, attraction, a-b-db, 14, 2, 2, 16, 165, 90, 90, 165, 83, 153, 3, 0.573134
283, 1, bw, attraction, a-b-db, 2, 2, 2, 17, 89, 163, 165, 90, 90, 165, 2, 15.6283
283, 1, bw, attraction, a-b-db, 2, 2, 2, 17, 89, 163, 165, 90, 90, 165, 1, 16.6853
283, 1, bw, catch, NA, 999, 999, 2, 18, 116, 79, 141, 114, 122, 193, 3, 2.09075
283, 1, bw, catch, NA, 999, 999, 2, 18, 116, 79, 141, 114, 122, 193, 1, 0.453367
283, 1, bw, attraction, a-b-db, 5, 3, 2, 19, 195, 120, 117, 190, 120, 195, 1, 7.22521
283, 1, bw, attraction, a-b-db, 5, 3, 2, 19, 195, 120, 117, 190, 120, 195, 2, 5.81291
283, 1, bw, attraction, a-b-da, 9, 2, 2, 20, 90, 165, 165, 90, 157, 86, 2, 2.42444
283, 1, bw, attraction, a-b-da, 9, 2, 2, 20, 90, 165, 165, 90, 157, 86, 3, 4.34955
283, 1, bw, filler, NA, 999, 999, 2, 21, 77, 87, 137, 159, 171, 152, 3, 2.62013
283, 1, bw, filler, NA, 999, 999, 2, 21, 77, 87, 137, 159, 171, 152, 1, 0.633981
283, 1, bw, filler, NA, 999, 999, 2, 22, 66, 64, 58, 170, 101, 146, 3, 1.97434
283, 1, bw, filler, NA, 999, 999, 2, 22, 66, 64, 58, 170, 101, 146, 1, 0.445727
283, 1, bw, filler, NA, 999, 999, 2, 23, 143, 138, 98, 64, 56, 135, 1, 1.86551
283, 1, bw, filler, NA, 999, 999, 2, 23, 143, 138, 98, 64, 56, 135, 2, 1.60571
283, 1, bw, attraction, a-b-db, 2, 3, 2, 24, 120, 195, 119, 193, 195, 120, 3, 13.2031
283, 1, bw, attraction, a-b-db, 2, 3, 2, 24, 120, 195, 119, 193, 195, 120, 2, 6.21434
283, 1, bw, attraction, a-b-db, 5, 1, 2, 25, 58, 132, 60, 135, 135, 60, 3, 2.88952
283, 1, bw, attraction, a-b-db, 5, 1, 2, 25, 58, 132, 60, 135, 135, 60, 1, 0.436006
283, 1, bw, attraction, a-b-da, 5, 1, 2, 26, 132, 58, 135, 60, 60, 135, 1, 3.8725
283, 1, bw, attraction, a-b-da, 5, 1, 2, 26, 132, 58, 135, 60, 60, 135, 3, 0.435197
283, 1, bw, catch, NA, 999, 999, 2, 27, 164, 151, 147, 108, 73, 122, 1, 1.51158
283, 1, bw, catch, NA, 999, 999, 2, 27, 164, 151, 147, 108, 73, 122, 3, 0.353859
283, 1, bw, catch, NA, 999, 999, 2, 28, 174, 141, 100, 155, 62, 133, 1, 1.04182
283, 1, bw, catch, NA, 999, 999, 2, 28, 174, 141, 100, 155, 62, 133, 3, 0.462697
283, 1, bw, attraction, a-b-da, 14, 2, 2, 29, 153, 83, 90, 165, 165, 90, 3, 1.60187
283, 1, bw, attraction, a-b-da, 14, 2, 2, 29, 153, 83, 90, 165, 165, 90, 1, 0.840661
283, 1, bw, filler, NA, 999, 999, 2, 30, 178, 61, 195, 167, 92, 84, 2, 1.33223
283, 1, bw, filler, NA, 999, 999, 2, 30, 178, 61, 195, 167, 92, 84, 3, 0.733813
283, 1, bw, attraction, a-b-db, 9, 2, 2, 31, 86, 157, 165, 90, 90, 165, 2, 10.1502
283, 1, bw, attraction, a-b-db, 9, 2, 2, 31, 86, 157, 165, 90, 90, 165, 1, 0.356324
283, 1, bw, attraction, a-b-db, 5, 2, 2, 32, 165, 90, 88, 161, 90, 165, 1, 5.4283
283, 1, bw, attraction, a-b-db, 5, 2, 2, 32, 165, 90, 88, 161, 90, 165, 2, 1.65649
283, 1, bw, filler, NA, 999, 999, 2, 33, 74, 166, 179, 156, 141, 152, 2, 2.28389
283, 1, bw, filler, NA, 999, 999, 2, 33, 74, 166, 179, 156, 141, 152, 1, 0.439125
283, 1, bw, attraction, a-b-da, 14, 3, 2, 34, 195, 120, 181, 111, 120, 195, 3, 8.06763
283, 1, bw, attraction, a-b-da, 14, 3, 2, 34, 195, 120, 181, 111, 120, 195, 2, 0.333755
283, 1, bw, attraction, a-b-da, 9, 1, 2, 35, 135, 60, 129, 57, 60, 135, 3, 10.3503
283, 1, bw, attraction, a-b-da, 9, 1, 2, 35, 135, 60, 129, 57, 60, 135, 2, 0.804365
283, 1, bw, attraction, a-b-db, 9, 3, 2, 36, 120, 195, 114, 186, 195, 120, 1, 13.6662
283, 1, bw, attraction, a-b-db, 9, 3, 2, 36, 120, 195, 114, 186, 195, 120, 2, 0.35436
283, 1, bw, attraction, a-b-da, 2, 3, 2, 37, 195, 120, 193, 119, 120, 195, 2, 3.59422
283, 1, bw, attraction, a-b-da, 2, 3, 2, 37, 195, 120, 193, 119, 120, 195, 1, 0.400429
283, 1, bw, filler, NA, 999, 999, 3, 1, 180, 113, 61, 105, 100, 153, 1, 2.41419
283, 1, bw, filler, NA, 999, 999, 3, 1, 180, 113, 61, 105, 100, 153, 2, 0.564078
283, 1, bw, attraction, a-b-db, 9, 1, 3, 2, 60, 135, 135, 60, 57, 129, 2, 2.18716
283, 1, bw, attraction, a-b-db, 9, 1, 3, 2, 60, 135, 135, 60, 57, 129, 3, 0.570511
283, 1, bw, attraction, a-b-db, 2, 3, 3, 3, 119, 193, 120, 195, 195, 120, 3, 6.25758
283, 1, bw, attraction, a-b-db, 2, 3, 3, 3, 119, 193, 120, 195, 195, 120, 1, 1.32439
283, 1, bw, filler, NA, 999, 999, 3, 4, 153, 132, 64, 189, 194, 115, 3, 0.956519
283, 1, bw, filler, NA, 999, 999, 3, 4, 153, 132, 64, 189, 194, 115, 2, 0.868828
283, 1, bw, attraction, a-b-db, 5, 1, 3, 5, 58, 132, 135, 60, 60, 135, 1, 10.4797
283, 1, bw, attraction, a-b-db, 5, 1, 3, 5, 58, 132, 135, 60, 60, 135, 3, 0.272463
283, 1, bw, catch, NA, 999, 999, 3, 6, 128, 67, 108, 147, 130, 185, 3, 0.947635
283, 1, bw, catch, NA, 999, 999, 3, 6, 128, 67, 108, 147, 130, 185, 1, 0.524672
283, 1, bw, attraction, a-b-da, 9, 2, 3, 7, 157, 86, 90, 165, 165, 90, 2, 4.98911
283, 1, bw, attraction, a-b-da, 9, 2, 3, 7, 157, 86, 90, 165, 165, 90, 1, 0.443506
283, 1, bw, attraction, a-b-da, 2, 2, 3, 8, 165, 90, 90, 165, 163, 89, 1, 4.43141
283, 1, bw, attraction, a-b-da, 2, 2, 3, 8, 165, 90, 90, 165, 163, 89, 3, 0.668163
283, 1, bw, attraction, a-b-db, 5, 2, 3, 9, 165, 90, 90, 165, 88, 161, 2, 7.03911
283, 1, bw, attraction, a-b-db, 5, 2, 3, 9, 165, 90, 90, 165, 88, 161, 3, 2.71475
283, 1, bw, attraction, a-b-db, 14, 3, 3, 10, 111, 181, 195, 120, 120, 195, 3, 5.88327
283, 1, bw, attraction, a-b-db, 14, 3, 3, 10, 111, 181, 195, 120, 120, 195, 1, 0.589335
283, 1, bw, attraction, a-b-db, 2, 2, 3, 11, 89, 163, 165, 90, 90, 165, 1, 14.5638
283, 1, bw, attraction, a-b-db, 2, 2, 3, 11, 89, 163, 165, 90, 90, 165, 3, 3.73583
283, 1, bw, filler, NA, 999, 999, 3, 12, 65, 83, 90, 72, 139, 120, 3, 1.8073
283, 1, bw, filler, NA, 999, 999, 3, 12, 65, 83, 90, 72, 139, 120, 1, 0.613322
283, 1, bw, attraction, a-b-da, 14, 3, 3, 13, 181, 111, 195, 120, 120, 195, 2, 6.51448
283, 1, bw, attraction, a-b-da, 14, 3, 3, 13, 181, 111, 195, 120, 120, 195, 1, 0.883005
283, 1, bw, attraction, a-b-da, 2, 1, 3, 14, 60, 135, 135, 60, 134, 59, 1, 25.7254
283, 1, bw, attraction, a-b-da, 2, 1, 3, 14, 60, 135, 135, 60, 134, 59, 3, 2.83202
283, 1, bw, attraction, a-b-db, 2, 1, 3, 15, 60, 135, 59, 134, 135, 60, 3, 1.79569
283, 1, bw, attraction, a-b-db, 2, 1, 3, 15, 60, 135, 59, 134, 135, 60, 2, 0.434616
283, 1, bw, attraction, a-b-da, 14, 2, 3, 16, 165, 90, 90, 165, 153, 83, 2, 1.40713
283, 1, bw, attraction, a-b-da, 14, 2, 3, 16, 165, 90, 90, 165, 153, 83, 3, 0.389126
283, 1, bw, attraction, a-b-da, 2, 3, 3, 17, 195, 120, 193, 119, 120, 195, 3, 11.6356
283, 1, bw, attraction, a-b-da, 2, 3, 3, 17, 195, 120, 193, 119, 120, 195, 2, 0.509955
283, 1, bw, attraction, a-b-da, 5, 3, 3, 18, 195, 120, 190, 117, 120, 195, 2, 4.52715
283, 1, bw, attraction, a-b-da, 5, 3, 3, 18, 195, 120, 190, 117, 120, 195, 1, 6.95172
283, 1, bw, filler, NA, 999, 999, 3, 19, 111, 134, 125, 114, 165, 122, 3, 9.09339
283, 1, bw, filler, NA, 999, 999, 3, 19, 111, 134, 125, 114, 165, 122, 2, 10.822
283, 1, bw, filler, NA, 999, 999, 3, 20, 178, 119, 57, 72, 180, 70, 1, 1.27193
283, 1, bw, filler, NA, 999, 999, 3, 20, 178, 119, 57, 72, 180, 70, 2, 0.45936
283, 1, bw, attraction, a-b-da, 14, 1, 3, 21, 135, 60, 60, 135, 125, 56, 2, 2.6787
283, 1, bw, attraction, a-b-da, 14, 1, 3, 21, 135, 60, 60, 135, 125, 56, 3, 1.11364
283, 1, bw, filler, NA, 999, 999, 3, 22, 119, 92, 110, 77, 155, 73, 1, 11.8667
283, 1, bw, filler, NA, 999, 999, 3, 22, 119, 92, 110, 77, 155, 73, 2, 0.451654
283, 1, bw, filler, NA, 999, 999, 3, 23, 108, 154, 104, 150, 92, 117, 1, 1.6472
283, 1, bw, filler, NA, 999, 999, 3, 23, 108, 154, 104, 150, 92, 117, 3, 0.660098
283, 1, bw, filler, NA, 999, 999, 3, 24, 75, 183, 81, 186, 192, 190, 3, 1.6392
283, 1, bw, filler, NA, 999, 999, 3, 24, 75, 183, 81, 186, 192, 190, 1, 1.62804
283, 1, bw, attraction, a-b-da, 9, 1, 3, 25, 60, 135, 135, 60, 129, 57, 1, 6.09609
283, 1, bw, attraction, a-b-da, 9, 1, 3, 25, 60, 135, 135, 60, 129, 57, 3, 0.345536
283, 1, bw, filler, NA, 999, 999, 3, 26, 142, 174, 183, 82, 113, 149, 1, 1.43321
283, 1, bw, filler, NA, 999, 999, 3, 26, 142, 174, 183, 82, 113, 149, 3, 4.83898
283, 1, bw, filler, NA, 999, 999, 3, 27, 106, 144, 143, 57, 121, 163, 3, 2.95394
283, 1, bw, filler, NA, 999, 999, 3, 27, 106, 144, 143, 57, 121, 163, 2, 0.59422
283, 1, bw, catch, NA, 999, 999, 3, 28, 124, 71, 96, 159, 122, 193, 3, 1.72001
283, 1, bw, catch, NA, 999, 999, 3, 28, 124, 71, 96, 159, 122, 193, 1, 0.594272
283, 1, bw, attraction, a-b-db, 9, 3, 3, 29, 195, 120, 120, 195, 114, 186, 2, 4.60788
283, 1, bw, attraction, a-b-db, 9, 3, 3, 29, 195, 120, 120, 195, 114, 186, 3, 6.44521
283, 1, bw, attraction, a-b-db, 9, 2, 3, 30, 165, 90, 90, 165, 86, 157, 2, 4.61495
283, 1, bw, attraction, a-b-db, 9, 2, 3, 30, 165, 90, 90, 165, 86, 157, 1, 2.26828
283, 1, bw, attraction, a-b-da, 9, 3, 3, 31, 186, 114, 120, 195, 195, 120, 3, 1.57484
283, 1, bw, attraction, a-b-da, 9, 3, 3, 31, 186, 114, 120, 195, 195, 120, 1, 0.550344
283, 1, bw, attraction, a-b-db, 14, 1, 3, 32, 135, 60, 60, 135, 56, 125, 1, 1.494
283, 1, bw, attraction, a-b-db, 14, 1, 3, 32, 135, 60, 60, 135, 56, 125, 3, 0.448945
283, 1, bw, catch, NA, 999, 999, 3, 33, 156, 159, 146, 109, 61, 134, 1, 0.90067
283, 1, bw, catch, NA, 999, 999, 3, 33, 156, 159, 146, 109, 61, 134, 3, 0.551725
283, 1, bw, attraction, a-b-db, 5, 3, 3, 34, 195, 120, 120, 195, 117, 190, 3, 3.00747
283, 1, bw, attraction, a-b-db, 5, 3, 3, 34, 195, 120, 120, 195, 117, 190, 1, 0.549189
283, 1, bw, attraction, a-b-da, 5, 2, 3, 35, 165, 90, 90, 165, 161, 88, 2, 5.205
283, 1, bw, attraction, a-b-da, 5, 2, 3, 35, 165, 90, 90, 165, 161, 88, 3, 1.51464
283, 1, bw, attraction, a-b-db, 14, 2, 3, 36, 90, 165, 83, 153, 165, 90, 1, 8.6994
283, 1, bw, attraction, a-b-db, 14, 2, 3, 36, 90, 165, 83, 153, 165, 90, 2, 0.660045
283, 1, bw, attraction, a-b-da, 5, 1, 3, 37, 132, 58, 135, 60, 60, 135, 1, 15.9591
283, 1, bw, attraction, a-b-da, 5, 1, 3, 37, 132, 58, 135, 60, 60, 135, 3, 0.466868
283, 1, bw, attraction, a-b-db, 2, 2, 4, 1, 89, 163, 90, 165, 165, 90, 2, 3.09392
283, 1, bw, attraction, a-b-db, 2, 2, 4, 1, 89, 163, 90, 165, 165, 90, 3, 1.26422
283, 1, bw, filler, NA, 999, 999, 4, 2, 99, 57, 94, 166, 63, 184, 2, 1.07502
283, 1, bw, filler, NA, 999, 999, 4, 2, 99, 57, 94, 166, 63, 184, 1, 0.366747
283, 1, bw, attraction, a-b-da, 9, 2, 4, 3, 90, 165, 157, 86, 165, 90, 1, 1.61406
283, 1, bw, attraction, a-b-da, 9, 2, 4, 3, 90, 165, 157, 86, 165, 90, 2, 0.548023
283, 1, bw, attraction, a-b-db, 2, 3, 4, 4, 119, 193, 120, 195, 195, 120, 1, 15.6039
283, 1, bw, attraction, a-b-db, 2, 3, 4, 4, 119, 193, 120, 195, 195, 120, 3, 0.262163
283, 1, bw, filler, NA, 999, 999, 4, 5, 187, 129, 169, 129, 70, 172, 1, 6.52942
283, 1, bw, filler, NA, 999, 999, 4, 5, 187, 129, 169, 129, 70, 172, 3, 0.361394
283, 1, bw, catch, NA, 999, 999, 4, 6, 195, 120, 81, 114, 130, 125, 1, 1.51255
283, 1, bw, catch, NA, 999, 999, 4, 6, 195, 120, 81, 114, 130, 125, 2, 0.490885
283, 1, bw, filler, NA, 999, 999, 4, 7, 81, 156, 154, 133, 124, 194, 3, 1.30046
283, 1, bw, filler, NA, 999, 999, 4, 7, 81, 156, 154, 133, 124, 194, 1, 0.519288
283, 1, bw, filler, NA, 999, 999, 4, 8, 150, 127, 158, 168, 152, 116, 2, 1.46449
283, 1, bw, filler, NA, 999, 999, 4, 8, 150, 127, 158, 168, 152, 116, 3, 1.98886
283, 1, bw, filler, NA, 999, 999, 4, 9, 144, 171, 96, 58, 188, 144, 1, 3.28264
283, 1, bw, filler, NA, 999, 999, 4, 9, 144, 171, 96, 58, 188, 144, 2, 0.469546
283, 1, bw, catch, NA, 999, 999, 4, 10, 117, 138, 147, 168, 121, 74, 2, 1.28877
283, 1, bw, catch, NA, 999, 999, 4, 10, 117, 138, 147, 168, 121, 74, 3, 0.411691
283, 1, bw, attraction, a-b-db, 5, 3, 4, 11, 195, 120, 120, 195, 117, 190, 1, 7.33683
283, 1, bw, attraction, a-b-db, 5, 3, 4, 11, 195, 120, 120, 195, 117, 190, 3, 0.408453
283, 1, bw, filler, NA, 999, 999, 4, 12, 76, 109, 66, 75, 93, 77, 1, 2.72564
283, 1, bw, filler, NA, 999, 999, 4, 12, 76, 109, 66, 75, 93, 77, 2, 0.398734
283, 1, bw, attraction, a-b-da, 9, 1, 4, 13, 135, 60, 60, 135, 129, 57, 1, 1.94048
283, 1, bw, attraction, a-b-da, 9, 1, 4, 13, 135, 60, 60, 135, 129, 57, 3, 3.20527
283, 1, bw, attraction, a-b-db, 9, 2, 4, 14, 90, 165, 86, 157, 165, 90, 1, 11.3062
283, 1, bw, attraction, a-b-db, 9, 2, 4, 14, 90, 165, 86, 157, 165, 90, 2, 2.30597
283, 1, bw, filler, NA, 999, 999, 4, 15, 134, 89, 160, 126, 164, 152, 3, 3.31531
283, 1, bw, filler, NA, 999, 999, 4, 15, 134, 89, 160, 126, 164, 152, 1, 0.316738
283, 1, bw, attraction, a-b-db, 9, 3, 4, 16, 195, 120, 120, 195, 114, 186, 1, 2.72598
283, 1, bw, attraction, a-b-db, 9, 3, 4, 16, 195, 120, 120, 195, 114, 186, 3, 0.38307
283, 1, bw, attraction, a-b-db, 5, 2, 4, 17, 88, 161, 90, 165, 165, 90, 1, 13.6856
283, 1, bw, attraction, a-b-db, 5, 2, 4, 17, 88, 161, 90, 165, 165, 90, 3, 2.62926
283, 1, bw, filler, NA, 999, 999, 4, 18, 64, 68, 156, 68, 100, 92, 2, 17.7199
283, 1, bw, filler, NA, 999, 999, 4, 18, 64, 68, 156, 68, 100, 92, 1, 0.694214
283, 1, bw, attraction, a-b-da, 2, 2, 4, 19, 165, 90, 163, 89, 90, 165, 3, 20.0879
283, 1, bw, attraction, a-b-da, 2, 2, 4, 19, 165, 90, 163, 89, 90, 165, 1, 0.557503
283, 1, bw, attraction, a-b-da, 5, 3, 4, 20, 120, 195, 195, 120, 190, 117, 1, 2.74075
283, 1, bw, attraction, a-b-da, 5, 3, 4, 20, 120, 195, 195, 120, 190, 117, 3, 0.381205
283, 1, bw, attraction, a-b-db, 5, 1, 4, 21, 135, 60, 58, 132, 60, 135, 1, 1.91559
283, 1, bw, attraction, a-b-db, 5, 1, 4, 21, 135, 60, 58, 132, 60, 135, 2, 0.429733
283, 1, bw, attraction, a-b-da, 2, 3, 4, 22, 193, 119, 195, 120, 120, 195, 3, 7.93809
283, 1, bw, attraction, a-b-da, 2, 3, 4, 22, 193, 119, 195, 120, 120, 195, 1, 0.433724
283, 1, bw, filler, NA, 999, 999, 4, 23, 79, 194, 95, 174, 171, 99, 1, 13.8621
283, 1, bw, filler, NA, 999, 999, 4, 23, 79, 194, 95, 174, 171, 99, 3, 0.390447
283, 1, bw, attraction, a-b-da, 5, 1, 4, 24, 132, 58, 60, 135, 135, 60, 1, 19.7643
283, 1, bw, attraction, a-b-da, 5, 1, 4, 24, 132, 58, 60, 135, 135, 60, 3, 1.74266
283, 1, bw, attraction, a-b-db, 2, 1, 4, 25, 135, 60, 60, 135, 59, 134, 1, 7.27027
283, 1, bw, attraction, a-b-db, 2, 1, 4, 25, 135, 60, 60, 135, 59, 134, 3, 0.704629
283, 1, bw, attraction, a-b-da, 14, 2, 4, 26, 165, 90, 153, 83, 90, 165, 3, 3.35419
283, 1, bw, attraction, a-b-da, 14, 2, 4, 26, 165, 90, 153, 83, 90, 165, 2, 0.530532
283, 1, bw, catch, NA, 999, 999, 4, 27, 108, 87, 174, 141, 98, 157, 2, 0.962894
283, 1, bw, catch, NA, 999, 999, 4, 27, 108, 87, 174, 141, 98, 157, 1, 0.555285
283, 1, bw, attraction, a-b-da, 5, 2, 4, 28, 90, 165, 165, 90, 161, 88, 2, 12.307
283, 1, bw, attraction, a-b-da, 5, 2, 4, 28, 90, 165, 165, 90, 161, 88, 3, 0.290431
283, 1, bw, attraction, a-b-da, 9, 3, 4, 29, 186, 114, 120, 195, 195, 120, 3, 1.05234
283, 1, bw, attraction, a-b-da, 9, 3, 4, 29, 186, 114, 120, 195, 195, 120, 1, 0.489266
283, 1, bw, attraction, a-b-db, 14, 2, 4, 30, 83, 153, 90, 165, 165, 90, 3, 1.17168
283, 1, bw, attraction, a-b-db, 14, 2, 4, 30, 83, 153, 90, 165, 165, 90, 1, 0.323312
283, 1, bw, filler, NA, 999, 999, 4, 31, 164, 87, 68, 147, 82, 159, 1, 1.44393
283, 1, bw, filler, NA, 999, 999, 4, 31, 164, 87, 68, 147, 82, 159, 2, 0.376667
283, 1, bw, attraction, a-b-da, 14, 3, 4, 32, 195, 120, 120, 195, 181, 111, 1, 1.24716
283, 1, bw, attraction, a-b-da, 14, 3, 4, 32, 195, 120, 120, 195, 181, 111, 3, 0.356154
283, 1, bw, attraction, a-b-da, 2, 1, 4, 33, 135, 60, 134, 59, 60, 135, 1, 1.48399
283, 1, bw, attraction, a-b-da, 2, 1, 4, 33, 135, 60, 134, 59, 60, 135, 3, 0.519435
283, 1, bw, attraction, a-b-da, 14, 1, 4, 34, 125, 56, 135, 60, 60, 135, 2, 1.86456
283, 1, bw, attraction, a-b-da, 14, 1, 4, 34, 125, 56, 135, 60, 60, 135, 1, 0.404661
283, 1, bw, attraction, a-b-db, 14, 3, 4, 35, 120, 195, 111, 181, 195, 120, 3, 2.17053
283, 1, bw, attraction, a-b-db, 14, 3, 4, 35, 120, 195, 111, 181, 195, 120, 2, 0.450348
283, 1, bw, attraction, a-b-db, 9, 1, 4, 36, 57, 129, 60, 135, 135, 60, 3, 1.19824
283, 1, bw, attraction, a-b-db, 9, 1, 4, 36, 57, 129, 60, 135, 135, 60, 1, 0.66921
283, 1, bw, attraction, a-b-db, 14, 1, 4, 37, 60, 135, 135, 60, 56, 125, 2, 1.4562
283, 1, bw, attraction, a-b-db, 14, 1, 4, 37, 60, 135, 135, 60, 56, 125, 1, 0.404411
283, 1, bw, attraction, a-b-db, 5, 3, 5, 1, 120, 195, 117, 190, 195, 120, 1, 22.6081
283, 1, bw, attraction, a-b-db, 5, 3, 5, 1, 120, 195, 117, 190, 195, 120, 3, 0.280405
283, 1, bw, attraction, a-b-db, 5, 1, 5, 2, 60, 135, 58, 132, 135, 60, 3, 1.96303
283, 1, bw, attraction, a-b-db, 5, 1, 5, 2, 60, 135, 58, 132, 135, 60, 2, 0.370937
283, 1, bw, attraction, a-b-da, 14, 3, 5, 3, 195, 120, 181, 111, 120, 195, 3, 7.17008
283, 1, bw, attraction, a-b-da, 14, 3, 5, 3, 195, 120, 181, 111, 120, 195, 2, 0.832609
283, 1, bw, filler, NA, 999, 999, 5, 4, 114, 154, 79, 125, 136, 96, 1, 1.42087
283, 1, bw, filler, NA, 999, 999, 5, 4, 114, 154, 79, 125, 136, 96, 2, 0.354397
283, 1, bw, attraction, a-b-db, 2, 1, 5, 5, 135, 60, 60, 135, 59, 134, 1, 4.57814
283, 1, bw, attraction, a-b-db, 2, 1, 5, 5, 135, 60, 60, 135, 59, 134, 3, 0.56075
283, 1, bw, attraction, a-b-da, 9, 3, 5, 6, 186, 114, 195, 120, 120, 195, 3, 5.51194
283, 1, bw, attraction, a-b-da, 9, 3, 5, 6, 186, 114, 195, 120, 120, 195, 1, 0.400865
283, 1, bw, attraction, a-b-db, 9, 1, 5, 7, 57, 129, 135, 60, 60, 135, 3, 2.26261
283, 1, bw, attraction, a-b-db, 9, 1, 5, 7, 57, 129, 135, 60, 60, 135, 1, 0.370589
283, 1, bw, attraction, a-b-db, 5, 2, 5, 8, 88, 161, 90, 165, 165, 90, 1, 16.0738
283, 1, bw, attraction, a-b-db, 5, 2, 5, 8, 88, 161, 90, 165, 165, 90, 2, 0.321426
283, 1, bw, catch, NA, 999, 999, 5, 9, 127, 68, 149, 166, 147, 108, 2, 1.05058
283, 1, bw, catch, NA, 999, 999, 5, 9, 127, 68, 149, 166, 147, 108, 1, 0.351459
283, 1, bw, filler, NA, 999, 999, 5, 10, 159, 74, 195, 177, 126, 93, 2, 7.8713
283, 1, bw, filler, NA, 999, 999, 5, 10, 159, 74, 195, 177, 126, 93, 3, 0.225615
283, 1, bw, attraction, a-b-da, 5, 1, 5, 11, 132, 58, 135, 60, 60, 135, 1, 7.03006
283, 1, bw, attraction, a-b-da, 5, 1, 5, 11, 132, 58, 135, 60, 60, 135, 3, 0.345752
283, 1, bw, attraction, a-b-db, 9, 2, 5, 12, 90, 165, 165, 90, 86, 157, 2, 5.02567
283, 1, bw, attraction, a-b-db, 9, 2, 5, 12, 90, 165, 165, 90, 86, 157, 3, 0.909969
283, 1, bw, filler, NA, 999, 999, 5, 13, 160, 66, 99, 105, 61, 120, 2, 6.98297
283, 1, bw, filler, NA, 999, 999, 5, 13, 160, 66, 99, 105, 61, 120, 3, 0.245846
283, 1, bw, attraction, a-b-da, 2, 3, 5, 14, 193, 119, 195, 120, 120, 195, 3, 3.40078
283, 1, bw, attraction, a-b-da, 2, 3, 5, 14, 193, 119, 195, 120, 120, 195, 1, 9.32699
283, 1, bw, attraction, a-b-da, 2, 2, 5, 15, 163, 89, 90, 165, 165, 90, 2, 2.5327
283, 1, bw, attraction, a-b-da, 2, 2, 5, 15, 163, 89, 90, 165, 165, 90, 3, 0.373737
283, 1, bw, filler, NA, 999, 999, 5, 16, 70, 101, 87, 119, 76, 137, 2, 3.65243
283, 1, bw, filler, NA, 999, 999, 5, 16, 70, 101, 87, 119, 76, 137, 1, 0.280417
283, 1, bw, filler, NA, 999, 999, 5, 17, 126, 111, 148, 179, 190, 150, 3, 1.67501
283, 1, bw, filler, NA, 999, 999, 5, 17, 126, 111, 148, 179, 190, 150, 1, 0.286395
283, 1, bw, attraction, a-b-db, 9, 3, 5, 18, 195, 120, 114, 186, 120, 195, 1, 2.07305
283, 1, bw, attraction, a-b-db, 9, 3, 5, 18, 195, 120, 114, 186, 120, 195, 2, 1.40426
283, 1, bw, attraction, a-b-da, 5, 2, 5, 19, 161, 88, 90, 165, 165, 90, 2, 1.79378
283, 1, bw, attraction, a-b-da, 5, 2, 5, 19, 161, 88, 90, 165, 165, 90, 1, 0.280533
283, 1, bw, filler, NA, 999, 999, 5, 20, 178, 73, 79, 173, 183, 107, 3, 1.60303
283, 1, bw, filler, NA, 999, 999, 5, 20, 178, 73, 79, 173, 183, 107, 1, 0.401806
283, 1, bw, filler, NA, 999, 999, 5, 21, 113, 62, 110, 172, 193, 67, 2, 1.00767
283, 1, bw, filler, NA, 999, 999, 5, 21, 113, 62, 110, 172, 193, 67, 1, 0.630021
283, 1, bw, filler, NA, 999, 999, 5, 22, 110, 87, 101, 134, 66, 98, 2, 1.83448
283, 1, bw, filler, NA, 999, 999, 5, 22, 110, 87, 101, 134, 66, 98, 3, 0.335808
283, 1, bw, attraction, a-b-db, 14, 3, 5, 23, 120, 195, 195, 120, 111, 181, 1, 1.71236
283, 1, bw, attraction, a-b-db, 14, 3, 5, 23, 120, 195, 195, 120, 111, 181, 3, 0.258512
283, 1, bw, attraction, a-b-db, 2, 3, 5, 24, 120, 195, 119, 193, 195, 120, 1, 9.10156
283, 1, bw, attraction, a-b-db, 2, 3, 5, 24, 120, 195, 119, 193, 195, 120, 3, 0.318014
283, 1, bw, attraction, a-b-da, 2, 1, 5, 25, 135, 60, 134, 59, 60, 135, 1, 7.12728
283, 1, bw, attraction, a-b-da, 2, 1, 5, 25, 135, 60, 134, 59, 60, 135, 2, 0.351002
283, 1, bw, attraction, a-b-db, 14, 2, 5, 26, 83, 153, 90, 165, 165, 90, 2, 6.31881
283, 1, bw, attraction, a-b-db, 14, 2, 5, 26, 83, 153, 90, 165, 165, 90, 1, 0.239453
283, 1, bw, filler, NA, 999, 999, 5, 27, 139, 176, 56, 72, 86, 184, 1, 1.48409
283, 1, bw, filler, NA, 999, 999, 5, 27, 139, 176, 56, 72, 86, 184, 2, 0.335617
283, 1, bw, attraction, a-b-da, 9, 2, 5, 28, 165, 90, 157, 86, 90, 165, 1, 6.35202
283, 1, bw, attraction, a-b-da, 9, 2, 5, 28, 165, 90, 157, 86, 90, 165, 2, 3.91946
283, 1, bw, attraction, a-b-da, 14, 2, 5, 29, 153, 83, 90, 165, 165, 90, 2, 4.41549
283, 1, bw, attraction, a-b-da, 14, 2, 5, 29, 153, 83, 90, 165, 165, 90, 1, 0.404632
283, 1, bw, catch, NA, 999, 999, 5, 30, 189, 126, 154, 101, 77, 118, 1, 1.76249
283, 1, bw, catch, NA, 999, 999, 5, 30, 189, 126, 154, 101, 77, 118, 3, 0.682599
283, 1, bw, attraction, a-b-db, 2, 2, 5, 31, 165, 90, 90, 165, 89, 163, 1, 15.037
283, 1, bw, attraction, a-b-db, 2, 2, 5, 31, 165, 90, 90, 165, 89, 163, 3, 0.52621
283, 1, bw, attraction, a-b-da, 9, 1, 5, 32, 135, 60, 60, 135, 129, 57, 2, 4.16673
283, 1, bw, attraction, a-b-da, 9, 1, 5, 32, 135, 60, 60, 135, 129, 57, 3, 0.486101
283, 1, bw, attraction, a-b-da, 5, 3, 5, 33, 120, 195, 190, 117, 195, 120, 3, 30.5365
283, 1, bw, attraction, a-b-da, 5, 3, 5, 33, 120, 195, 190, 117, 195, 120, 2, 0.512912
283, 1, bw, attraction, a-b-da, 14, 1, 5, 34, 125, 56, 60, 135, 135, 60, 2, 1.18606
283, 1, bw, attraction, a-b-da, 14, 1, 5, 34, 125, 56, 60, 135, 135, 60, 1, 0.409666
283, 1, bw, filler, NA, 999, 999, 5, 35, 187, 88, 159, 190, 130, 173, 2, 1.07881
283, 1, bw, filler, NA, 999, 999, 5, 35, 187, 88, 159, 190, 130, 173, 1, 0.586552
283, 1, bw, attraction, a-b-db, 14, 1, 5, 36, 56, 125, 135, 60, 60, 135, 3, 1.29705
283, 1, bw, attraction, a-b-db, 14, 1, 5, 36, 56, 125, 135, 60, 60, 135, 1, 0.347877
283, 1, bw, catch, NA, 999, 999, 5, 37, 187, 128, 133, 62, 101, 154, 1, 0.979535
283, 1, bw, catch, NA, 999, 999, 5, 37, 187, 128, 133, 62, 101, 154, 2, 0.347255
283, 1, bw, attraction, a-b-db, 5, 3, 6, 1, 120, 195, 195, 120, 117, 190, 1, 5.73108
283, 1, bw, attraction, a-b-db, 5, 3, 6, 1, 120, 195, 195, 120, 117, 190, 3, 0.515211
283, 1, bw, filler, NA, 999, 999, 6, 2, 163, 174, 166, 98, 118, 112, 1, 0.828363
283, 1, bw, filler, NA, 999, 999, 6, 2, 163, 174, 166, 98, 118, 112, 3, 0.626202
283, 1, bw, filler, NA, 999, 999, 6, 3, 161, 118, 121, 145, 76, 69, 2, 2.59063
283, 1, bw, filler, NA, 999, 999, 6, 3, 161, 118, 121, 145, 76, 69, 3, 0.773063
283, 1, bw, attraction, a-b-da, 14, 3, 6, 4, 181, 111, 195, 120, 120, 195, 2, 8.79605
283, 1, bw, attraction, a-b-da, 14, 3, 6, 4, 181, 111, 195, 120, 120, 195, 1, 0.344493
283, 1, bw, attraction, a-b-da, 9, 3, 6, 5, 120, 195, 186, 114, 195, 120, 1, 3.38435
283, 1, bw, attraction, a-b-da, 9, 3, 6, 5, 120, 195, 186, 114, 195, 120, 2, 0.287288
283, 1, bw, catch, NA, 999, 999, 6, 6, 137, 118, 85, 110, 194, 121, 3, 1.26597
283, 1, bw, catch, NA, 999, 999, 6, 6, 137, 118, 85, 110, 194, 121, 1, 0.310182
283, 1, bw, filler, NA, 999, 999, 6, 7, 106, 57, 173, 164, 66, 180, 2, 1.88723
283, 1, bw, filler, NA, 999, 999, 6, 7, 106, 57, 173, 164, 66, 180, 1, 0.402733
283, 1, bw, attraction, a-b-db, 9, 2, 6, 8, 165, 90, 86, 157, 90, 165, 1, 1.08048
283, 1, bw, attraction, a-b-db, 9, 2, 6, 8, 165, 90, 86, 157, 90, 165, 2, 0.380076
283, 1, bw, attraction, a-b-db, 9, 1, 6, 9, 60, 135, 57, 129, 135, 60, 1, 1.05855
283, 1, bw, attraction, a-b-db, 9, 1, 6, 9, 60, 135, 57, 129, 135, 60, 2, 0.799023
283, 1, bw, filler, NA, 999, 999, 6, 10, 156, 178, 65, 133, 173, 171, 3, 1.38869
283, 1, bw, filler, NA, 999, 999, 6, 10, 156, 178, 65, 133, 173, 171, 2, 0.579621
283, 1, bw, attraction, a-b-db, 2, 1, 6, 11, 60, 135, 135, 60, 59, 134, 1, 8.36182
283, 1, bw, attraction, a-b-db, 2, 1, 6, 11, 60, 135, 135, 60, 59, 134, 2, 0.279957
283, 1, bw, attraction, a-b-da, 9, 2, 6, 12, 157, 86, 90, 165, 165, 90, 2, 3.99454
283, 1, bw, attraction, a-b-da, 9, 2, 6, 12, 157, 86, 90, 165, 165, 90, 1, 0.312525
283, 1, bw, catch, NA, 999, 999, 6, 13, 150, 165, 71, 124, 152, 103, 1, 1.16969
283, 1, bw, catch, NA, 999, 999, 6, 13, 150, 165, 71, 124, 152, 103, 2, 0.394015
283, 1, bw, filler, NA, 999, 999, 6, 14, 172, 79, 148, 181, 174, 83, 2, 1.15977
283, 1, bw, filler, NA, 999, 999, 6, 14, 172, 79, 148, 181, 174, 83, 1, 0.344047
283, 1, bw, attraction, a-b-db, 2, 3, 6, 15, 195, 120, 119, 193, 120, 195, 2, 12.5599
283, 1, bw, attraction, a-b-db, 2, 3, 6, 15, 195, 120, 119, 193, 120, 195, 1, 0.236634
283, 1, bw, attraction, a-b-db, 14, 1, 6, 16, 135, 60, 60, 135, 56, 125, 1, 2.19315
283, 1, bw, attraction, a-b-db, 14, 1, 6, 16, 135, 60, 60, 135, 56, 125, 3, 0.479899
283, 1, bw, filler, NA, 999, 999, 6, 17, 165, 188, 98, 130, 107, 157, 1, 1.29812
283, 1, bw, filler, NA, 999, 999, 6, 17, 165, 188, 98, 130, 107, 157, 2, 0.381227
283, 1, bw, attraction, a-b-da, 5, 1, 6, 18, 60, 135, 135, 60, 132, 58, 2, 5.12368
283, 1, bw, attraction, a-b-da, 5, 1, 6, 18, 60, 135, 135, 60, 132, 58, 1, 0.244109
283, 1, bw, attraction, a-b-db, 14, 2, 6, 19, 90, 165, 83, 153, 165, 90, 1, 2.24791
283, 1, bw, attraction, a-b-db, 14, 2, 6, 19, 90, 165, 83, 153, 165, 90, 2, 4.89243
283, 1, bw, attraction, a-b-da, 14, 2, 6, 20, 165, 90, 153, 83, 90, 165, 3, 14.4849
283, 1, bw, attraction, a-b-da, 14, 2, 6, 20, 165, 90, 153, 83, 90, 165, 2, 1.10031
283, 1, bw, filler, NA, 999, 999, 6, 21, 136, 146, 127, 62, 89, 169, 1, 1.33388
283, 1, bw, filler, NA, 999, 999, 6, 21, 136, 146, 127, 62, 89, 169, 2, 0.559486
283, 1, bw, attraction, a-b-db, 5, 2, 6, 22, 165, 90, 90, 165, 88, 161, 1, 7.61461
283, 1, bw, attraction, a-b-db, 5, 2, 6, 22, 165, 90, 90, 165, 88, 161, 3, 0.787032
283, 1, bw, attraction, a-b-da, 9, 1, 6, 23, 60, 135, 129, 57, 135, 60, 1, 4.79324
283, 1, bw, attraction, a-b-da, 9, 1, 6, 23, 60, 135, 129, 57, 135, 60, 2, 2.73501
283, 1, bw, attraction, a-b-db, 2, 2, 6, 24, 89, 163, 90, 165, 165, 90, 2, 10.9189
283, 1, bw, attraction, a-b-db, 2, 2, 6, 24, 89, 163, 90, 165, 165, 90, 1, 1.48603
283, 1, bw, catch, NA, 999, 999, 6, 25, 116, 79, 124, 191, 116, 139, 2, 1.48812
283, 1, bw, catch, NA, 999, 999, 6, 25, 116, 79, 124, 191, 116, 139, 1, 0.105668
283, 1, bw, attraction, a-b-da, 14, 1, 6, 26, 125, 56, 60, 135, 135, 60, 3, 21.3089
283, 1, bw, attraction, a-b-da, 14, 1, 6, 26, 125, 56, 60, 135, 135, 60, 1, 0.561513
283, 1, bw, attraction, a-b-da, 5, 2, 6, 27, 165, 90, 90, 165, 161, 88, 1, 2.05663
283, 1, bw, attraction, a-b-da, 5, 2, 6, 27, 165, 90, 90, 165, 161, 88, 3, 0.732652
283, 1, bw, attraction, a-b-da, 2, 3, 6, 28, 193, 119, 195, 120, 120, 195, 2, 37.3811
283, 1, bw, attraction, a-b-da, 2, 3, 6, 28, 193, 119, 195, 120, 120, 195, 3, 0.457926
283, 1, bw, attraction, a-b-da, 2, 1, 6, 29, 134, 59, 135, 60, 60, 135, 3, 4.41314
283, 1, bw, attraction, a-b-da, 2, 1, 6, 29, 134, 59, 135, 60, 60, 135, 1, 6.57843
283, 1, bw, attraction, a-b-db, 9, 3, 6, 30, 114, 186, 120, 195, 195, 120, 2, 2.66292
283, 1, bw, attraction, a-b-db, 9, 3, 6, 30, 114, 186, 120, 195, 195, 120, 1, 0.178773
283, 1, bw, attraction, a-b-da, 5, 3, 6, 31, 190, 117, 195, 120, 120, 195, 2, 5.54532
283, 1, bw, attraction, a-b-da, 5, 3, 6, 31, 190, 117, 195, 120, 120, 195, 1, 0.288854
283, 1, bw, filler, NA, 999, 999, 6, 32, 71, 130, 183, 107, 185, 141, 3, 0.827439
283, 1, bw, filler, NA, 999, 999, 6, 32, 71, 130, 183, 107, 185, 141, 1, 0.513153
283, 1, bw, filler, NA, 999, 999, 6, 33, 186, 92, 133, 138, 163, 132, 3, 1.59427
283, 1, bw, filler, NA, 999, 999, 6, 33, 186, 92, 133, 138, 163, 132, 1, 0.37709
283, 1, bw, attraction, a-b-da, 2, 2, 6, 34, 90, 165, 163, 89, 165, 90, 3, 6.49549
283, 1, bw, attraction, a-b-da, 2, 2, 6, 34, 90, 165, 163, 89, 165, 90, 1, 0.248676
283, 1, bw, attraction, a-b-db, 14, 3, 6, 35, 111, 181, 195, 120, 120, 195, 2, 1.01267
283, 1, bw, attraction, a-b-db, 14, 3, 6, 35, 111, 181, 195, 120, 120, 195, 1, 0.186962
283, 1, bw, filler, NA, 999, 999, 6, 36, 61, 133, 158, 66, 107, 68, 2, 1.27351
283, 1, bw, filler, NA, 999, 999, 6, 36, 61, 133, 158, 66, 107, 68, 3, 1.0051
283, 1, bw, attraction, a-b-db, 5, 1, 6, 37, 135, 60, 58, 132, 60, 135, 1, 1.8827
283, 1, bw, attraction, a-b-db, 5, 1, 6, 37, 135, 60, 58, 132, 60, 135, 2, 3.85415
283, 1, bw, attraction, a-b-da, 5, 2, 7, 1, 90, 165, 165, 90, 161, 88, 2, 8.30477
283, 1, bw, attraction, a-b-da, 5, 2, 7, 1, 90, 165, 165, 90, 161, 88, 3, 0.521501
283, 1, bw, attraction, a-b-da, 2, 3, 7, 2, 195, 120, 120, 195, 193, 119, 2, 2.71482
283, 1, bw, attraction, a-b-da, 2, 3, 7, 2, 195, 120, 120, 195, 193, 119, 1, 0.324399
283, 1, bw, filler, NA, 999, 999, 7, 3, 154, 135, 122, 132, 107, 194, 1, 2.24494
283, 1, bw, filler, NA, 999, 999, 7, 3, 154, 135, 122, 132, 107, 194, 2, 0.377682
283, 1, bw, attraction, a-b-db, 2, 1, 7, 4, 60, 135, 135, 60, 59, 134, 1, 9.61609
283, 1, bw, attraction, a-b-db, 2, 1, 7, 4, 60, 135, 135, 60, 59, 134, 3, 0.652499
283, 1, bw, attraction, a-b-da, 9, 1, 7, 5, 129, 57, 60, 135, 135, 60, 3, 2.15148
283, 1, bw, attraction, a-b-da, 9, 1, 7, 5, 129, 57, 60, 135, 135, 60, 1, 0.336046
283, 1, bw, attraction, a-b-da, 14, 2, 7, 6, 90, 165, 153, 83, 165, 90, 3, 2.56849
283, 1, bw, attraction, a-b-da, 14, 2, 7, 6, 90, 165, 153, 83, 165, 90, 2, 0.312627
283, 1, bw, attraction, a-b-da, 2, 2, 7, 7, 90, 165, 163, 89, 165, 90, 1, 2.12957
283, 1, bw, attraction, a-b-da, 2, 2, 7, 7, 90, 165, 163, 89, 165, 90, 3, 3.85891
283, 1, bw, filler, NA, 999, 999, 7, 8, 79, 126, 134, 77, 164, 57, 2, 1.62978
283, 1, bw, filler, NA, 999, 999, 7, 8, 79, 126, 134, 77, 164, 57, 3, 1.93052
283, 1, bw, attraction, a-b-db, 2, 3, 7, 9, 195, 120, 120, 195, 119, 193, 2, 3.6268
283, 1, bw, attraction, a-b-db, 2, 3, 7, 9, 195, 120, 120, 195, 119, 193, 3, 0.106352
283, 1, bw, catch, NA, 999, 999, 7, 10, 140, 115, 139, 176, 88, 107, 2, 2.46461
283, 1, bw, catch, NA, 999, 999, 7, 10, 140, 115, 139, 176, 88, 107, 3, 0.287061
283, 1, bw, attraction, a-b-db, 5, 1, 7, 11, 58, 132, 60, 135, 135, 60, 3, 4.14294
283, 1, bw, attraction, a-b-db, 5, 1, 7, 11, 58, 132, 60, 135, 135, 60, 1, 1.28289
283, 1, bw, attraction, a-b-db, 9, 1, 7, 12, 60, 135, 57, 129, 135, 60, 3, 5.1612
283, 1, bw, attraction, a-b-db, 9, 1, 7, 12, 60, 135, 57, 129, 135, 60, 2, 1.02419
283, 1, bw, filler, NA, 999, 999, 7, 13, 179, 61, 173, 126, 68, 170, 2, 2.57255
283, 1, bw, filler, NA, 999, 999, 7, 13, 179, 61, 173, 126, 68, 170, 3, 3.23777
283, 1, bw, attraction, a-b-db, 9, 3, 7, 14, 120, 195, 114, 186, 195, 120, 3, 2.02891
283, 1, bw, attraction, a-b-db, 9, 3, 7, 14, 120, 195, 114, 186, 195, 120, 2, 0.009341
283, 1, bw, attraction, a-b-da, 5, 3, 7, 15, 120, 195, 195, 120, 190, 117, 2, 6.22021
283, 1, bw, attraction, a-b-da, 5, 3, 7, 15, 120, 195, 195, 120, 190, 117, 1, 0.0677972
283, 1, bw, filler, NA, 999, 999, 7, 16, 170, 165, 57, 131, 87, 158, 1, 1.0651
283, 1, bw, filler, NA, 999, 999, 7, 16, 170, 165, 57, 131, 87, 158, 2, 0.162179
283, 1, bw, attraction, a-b-db, 5, 2, 7, 17, 88, 161, 165, 90, 90, 165, 3, 1.82864
283, 1, bw, attraction, a-b-db, 5, 2, 7, 17, 88, 161, 165, 90, 90, 165, 1, 0.145163
283, 1, bw, attraction, a-b-db, 14, 3, 7, 18, 195, 120, 111, 181, 120, 195, 3, 5.55388
283, 1, bw, attraction, a-b-db, 14, 3, 7, 18, 195, 120, 111, 181, 120, 195, 2, 0.164222
283, 1, bw, filler, NA, 999, 999, 7, 19, 87, 118, 195, 88, 131, 168, 3, 1.32069
283, 1, bw, filler, NA, 999, 999, 7, 19, 87, 118, 195, 88, 131, 168, 1, 0.176224
283, 1, bw, filler, NA, 999, 999, 7, 20, 151, 189, 122, 164, 103, 181, 1, 1.12965
283, 1, bw, filler, NA, 999, 999, 7, 20, 151, 189, 122, 164, 103, 181, 3, 0.141925
283, 1, bw, attraction, a-b-da, 14, 3, 7, 21, 195, 120, 120, 195, 181, 111, 2, 1.85909
283, 1, bw, attraction, a-b-da, 14, 3, 7, 21, 195, 120, 120, 195, 181, 111, 3, 0.125896
283, 1, bw, attraction, a-b-da, 9, 3, 7, 22, 120, 195, 186, 114, 195, 120, 3, 2.76774
283, 1, bw, attraction, a-b-da, 9, 3, 7, 22, 120, 195, 186, 114, 195, 120, 2, 0.648512
283, 1, bw, catch, NA, 999, 999, 7, 23, 105, 90, 159, 156, 162, 93, 2, 1.33113
283, 1, bw, catch, NA, 999, 999, 7, 23, 105, 90, 159, 156, 162, 93, 1, 0.438013
283, 1, bw, attraction, a-b-db, 9, 2, 7, 24, 165, 90, 86, 157, 90, 165, 1, 4.11927
283, 1, bw, attraction, a-b-db, 9, 2, 7, 24, 165, 90, 86, 157, 90, 165, 2, 0.0184319
283, 1, bw, attraction, a-b-da, 2, 1, 7, 25, 134, 59, 135, 60, 60, 135, 3, 2.0223
283, 1, bw, attraction, a-b-da, 2, 1, 7, 25, 134, 59, 135, 60, 60, 135, 1, 0.0536101
283, 1, bw, catch, NA, 999, 999, 7, 26, 108, 87, 188, 127, 129, 126, 2, 1.09866
283, 1, bw, catch, NA, 999, 999, 7, 26, 108, 87, 188, 127, 129, 126, 1, 0.0978801
283, 1, bw, filler, NA, 999, 999, 7, 27, 139, 109, 175, 74, 146, 103, 3, 4.00521
283, 1, bw, filler, NA, 999, 999, 7, 27, 139, 109, 175, 74, 146, 103, 2, 0.271065
283, 1, bw, attraction, a-b-db, 14, 1, 7, 28, 56, 125, 135, 60, 60, 135, 2, 1.63875
283, 1, bw, attraction, a-b-db, 14, 1, 7, 28, 56, 125, 135, 60, 60, 135, 1, 0.0824032
283, 1, bw, filler, NA, 999, 999, 7, 29, 100, 102, 188, 161, 141, 192, 2, 1.45398
283, 1, bw, filler, NA, 999, 999, 7, 29, 100, 102, 188, 161, 141, 192, 1, 0.165035
283, 1, bw, attraction, a-b-db, 2, 2, 7, 30, 89, 163, 165, 90, 90, 165, 2, 4.74604
283, 1, bw, attraction, a-b-db, 2, 2, 7, 30, 89, 163, 165, 90, 90, 165, 1, 0.209717
283, 1, bw, attraction, a-b-db, 14, 2, 7, 31, 165, 90, 83, 153, 90, 165, 1, 2.11103
283, 1, bw, attraction, a-b-db, 14, 2, 7, 31, 165, 90, 83, 153, 90, 165, 2, 0.329081
283, 1, bw, attraction, a-b-da, 14, 1, 7, 32, 60, 135, 125, 56, 135, 60, 3, 2.89765
283, 1, bw, attraction, a-b-da, 14, 1, 7, 32, 60, 135, 125, 56, 135, 60, 1, 0.459873
283, 1, bw, filler, NA, 999, 999, 7, 33, 146, 67, 124, 143, 175, 192, 3, 0.759093
283, 1, bw, filler, NA, 999, 999, 7, 33, 146, 67, 124, 143, 175, 192, 1, 0.272532
283, 1, bw, attraction, a-b-da, 5, 1, 7, 34, 60, 135, 132, 58, 135, 60, 3, 6.31522
283, 1, bw, attraction, a-b-da, 5, 1, 7, 34, 60, 135, 132, 58, 135, 60, 1, 0.0721259
283, 1, bw, filler, NA, 999, 999, 7, 35, 107, 186, 78, 68, 185, 140, 3, 1.17399
283, 1, bw, filler, NA, 999, 999, 7, 35, 107, 186, 78, 68, 185, 140, 2, 0.164532
283, 1, bw, attraction, a-b-db, 5, 3, 7, 36, 117, 190, 195, 120, 120, 195, 2, 4.03678
283, 1, bw, attraction, a-b-db, 5, 3, 7, 36, 117, 190, 195, 120, 120, 195, 1, 0.132622
283, 1, bw, attraction, a-b-da, 9, 2, 7, 37, 157, 86, 165, 90, 90, 165, 2, 16.5731
283, 1, bw, attraction, a-b-da, 9, 2, 7, 37, 157, 86, 165, 90, 90, 165, 1, 0.0445576
283, 1, bw, catch, NA, 999, 999, 8, 1, 126, 189, 116, 79, 151, 104, 1, 1.3932
283, 1, bw, catch, NA, 999, 999, 8, 1, 126, 189, 116, 79, 151, 104, 2, 0.0812638
283, 1, bw, attraction, a-b-db, 9, 1, 8, 2, 60, 135, 57, 129, 135, 60, 3, 1.42349
283, 1, bw, attraction, a-b-db, 9, 1, 8, 2, 60, 135, 57, 129, 135, 60, 1, 0.389889
283, 1, bw, attraction, a-b-db, 9, 3, 8, 3, 195, 120, 114, 186, 120, 195, 1, 3.25128
283, 1, bw, attraction, a-b-db, 9, 3, 8, 3, 195, 120, 114, 186, 120, 195, 3, 0.100065
283, 1, bw, attraction, a-b-db, 5, 3, 8, 4, 195, 120, 117, 190, 120, 195, 1, 2.30586
283, 1, bw, attraction, a-b-db, 5, 3, 8, 4, 195, 120, 117, 190, 120, 195, 3, 0.811264
283, 1, bw, filler, NA, 999, 999, 8, 5, 194, 166, 78, 133, 102, 78, 1, 1.05843
283, 1, bw, filler, NA, 999, 999, 8, 5, 194, 166, 78, 133, 102, 78, 3, 0.0818927
283, 1, bw, attraction, a-b-da, 14, 2, 8, 6, 153, 83, 90, 165, 165, 90, 3, 4.42595
283, 1, bw, attraction, a-b-da, 14, 2, 8, 6, 153, 83, 90, 165, 165, 90, 1, 0.0631616
283, 1, bw, attraction, a-b-da, 9, 1, 8, 7, 129, 57, 60, 135, 135, 60, 2, 4.88159
283, 1, bw, attraction, a-b-da, 9, 1, 8, 7, 129, 57, 60, 135, 135, 60, 1, 0.051187
283, 1, bw, filler, NA, 999, 999, 8, 8, 195, 148, 91, 138, 189, 161, 3, 1.95714
283, 1, bw, filler, NA, 999, 999, 8, 8, 195, 148, 91, 138, 189, 161, 2, 0.203192
283, 1, bw, filler, NA, 999, 999, 8, 9, 56, 149, 186, 137, 57, 67, 2, 1.01371
283, 1, bw, filler, NA, 999, 999, 8, 9, 56, 149, 186, 137, 57, 67, 3, 0.209019
283, 1, bw, attraction, a-b-db, 5, 2, 8, 10, 88, 161, 165, 90, 90, 165, 3, 11.6503
283, 1, bw, attraction, a-b-db, 5, 2, 8, 10, 88, 161, 165, 90, 90, 165, 2, 0.143332
283, 1, bw, attraction, a-b-da, 9, 2, 8, 11, 165, 90, 157, 86, 90, 165, 1, 5.13356
283, 1, bw, attraction, a-b-da, 9, 2, 8, 11, 165, 90, 157, 86, 90, 165, 2, 0.126515
283, 1, bw, attraction, a-b-da, 2, 1, 8, 12, 60, 135, 135, 60, 134, 59, 2, 4.04029
283, 1, bw, attraction, a-b-da, 2, 1, 8, 12, 60, 135, 135, 60, 134, 59, 1, 0.0974295
283, 1, bw, filler, NA, 999, 999, 8, 13, 170, 101, 77, 188, 158, 58, 1, 1.29015
283, 1, bw, filler, NA, 999, 999, 8, 13, 170, 101, 77, 188, 158, 58, 3, 0.136885
283, 1, bw, filler, NA, 999, 999, 8, 14, 151, 80, 143, 151, 184, 143, 3, 1.21196
283, 1, bw, filler, NA, 999, 999, 8, 14, 151, 80, 143, 151, 184, 143, 1, 0.0915878
283, 1, bw, filler, NA, 999, 999, 8, 15, 191, 145, 82, 116, 176, 88, 1, 1.37333
283, 1, bw, filler, NA, 999, 999, 8, 15, 191, 145, 82, 116, 176, 88, 2, 0.190065
283, 1, bw, attraction, a-b-da, 14, 3, 8, 16, 195, 120, 120, 195, 181, 111, 2, 1.84282
283, 1, bw, attraction, a-b-da, 14, 3, 8, 16, 195, 120, 120, 195, 181, 111, 3, 0.289113
283, 1, bw, attraction, a-b-db, 14, 3, 8, 17, 111, 181, 195, 120, 120, 195, 2, 1.22605
283, 1, bw, attraction, a-b-db, 14, 3, 8, 17, 111, 181, 195, 120, 120, 195, 1, 0.141825
283, 1, bw, attraction, a-b-da, 5, 3, 8, 18, 120, 195, 195, 120, 190, 117, 1, 6.17553
283, 1, bw, attraction, a-b-da, 5, 3, 8, 18, 120, 195, 195, 120, 190, 117, 3, 0.115858
283, 1, bw, attraction, a-b-da, 2, 3, 8, 19, 193, 119, 120, 195, 195, 120, 2, 4.32683
283, 1, bw, attraction, a-b-da, 2, 3, 8, 19, 193, 119, 120, 195, 195, 120, 1, 1.15161
283, 1, bw, attraction, a-b-da, 5, 2, 8, 20, 165, 90, 161, 88, 90, 165, 1, 6.41981
283, 1, bw, attraction, a-b-da, 5, 2, 8, 20, 165, 90, 161, 88, 90, 165, 3, 0.0447443
283, 1, bw, attraction, a-b-db, 5, 1, 8, 21, 60, 135, 135, 60, 58, 132, 2, 8.09549
283, 1, bw, attraction, a-b-db, 5, 1, 8, 21, 60, 135, 135, 60, 58, 132, 3, 0.124457
283, 1, bw, attraction, a-b-db, 14, 2, 8, 22, 165, 90, 83, 153, 90, 165, 3, 2.3377
283, 1, bw, attraction, a-b-db, 14, 2, 8, 22, 165, 90, 83, 153, 90, 165, 1, 0.16141
283, 1, bw, filler, NA, 999, 999, 8, 23, 159, 139, 179, 181, 173, 111, 2, 2.40074
283, 1, bw, filler, NA, 999, 999, 8, 23, 159, 139, 179, 181, 173, 111, 3, 0.187956
283, 1, bw, attraction, a-b-db, 2, 3, 8, 24, 120, 195, 119, 193, 195, 120, 1, 13.3258
283, 1, bw, attraction, a-b-db, 2, 3, 8, 24, 120, 195, 119, 193, 195, 120, 3, 0.187509
283, 1, bw, catch, NA, 999, 999, 8, 25, 141, 174, 75, 120, 131, 124, 1, 0.946146
283, 1, bw, catch, NA, 999, 999, 8, 25, 141, 174, 75, 120, 131, 124, 2, 0.843129
283, 1, bw, attraction, a-b-da, 5, 1, 8, 26, 135, 60, 132, 58, 60, 135, 3, 4.25301
283, 1, bw, attraction, a-b-da, 5, 1, 8, 26, 135, 60, 132, 58, 60, 135, 1, 0.0358067
283, 1, bw, attraction, a-b-da, 2, 2, 8, 27, 163, 89, 90, 165, 165, 90, 2, 13.4506
283, 1, bw, attraction, a-b-da, 2, 2, 8, 27, 163, 89, 90, 165, 165, 90, 3, 0.116483
283, 1, bw, attraction, a-b-db, 2, 2, 8, 28, 90, 165, 165, 90, 89, 163, 1, 5.00901
283, 1, bw, attraction, a-b-db, 2, 2, 8, 28, 90, 165, 165, 90, 89, 163, 2, 0.164013
283, 1, bw, attraction, a-b-da, 14, 1, 8, 29, 60, 135, 135, 60, 125, 56, 2, 4.72531
283, 1, bw, attraction, a-b-da, 14, 1, 8, 29, 60, 135, 135, 60, 125, 56, 3, 0.113643
283, 1, bw, attraction, a-b-db, 2, 1, 8, 30, 59, 134, 135, 60, 60, 135, 2, 26.5132
283, 1, bw, attraction, a-b-db, 2, 1, 8, 30, 59, 134, 135, 60, 60, 135, 1, 0.0447595
283, 1, bw, attraction, a-b-da, 9, 3, 8, 31, 186, 114, 195, 120, 120, 195, 2, 9.46929
283, 1, bw, attraction, a-b-da, 9, 3, 8, 31, 186, 114, 195, 120, 120, 195, 1, 0.130615
283, 1, bw, attraction, a-b-db, 9, 2, 8, 32, 165, 90, 90, 165, 86, 157, 2, 1.90361
283, 1, bw, attraction, a-b-db, 9, 2, 8, 32, 165, 90, 90, 165, 86, 157, 1, 0.10839
283, 1, bw, filler, NA, 999, 999, 8, 33, 64, 148, 132, 141, 142, 136, 3, 2.86
283, 1, bw, filler, NA, 999, 999, 8, 33, 64, 148, 132, 141, 142, 136, 1, 0.0272579
283, 1, bw, filler, NA, 999, 999, 8, 34, 114, 165, 108, 155, 130, 177, 3, 2.41192
283, 1, bw, filler, NA, 999, 999, 8, 34, 114, 165, 108, 155, 130, 177, 2, 1.6647
283, 1, bw, catch, NA, 999, 999, 8, 35, 91, 104, 129, 126, 133, 182, 3, 1.18052
283, 1, bw, catch, NA, 999, 999, 8, 35, 91, 104, 129, 126, 133, 182, 1, 0.415279
283, 1, bw, attraction, a-b-db, 14, 1, 8, 36, 135, 60, 60, 135, 56, 125, 2, 5.22325
283, 1, bw, attraction, a-b-db, 14, 1, 8, 36, 135, 60, 60, 135, 56, 125, 3, 0.921203
283, 1, bw, filler, NA, 999, 999, 8, 37, 78, 175, 109, 194, 170, 161, 3, 2.83496
283, 1, bw, filler, NA, 999, 999, 8, 37, 78, 175, 109, 194, 170, 161, 1, 0.0979238
