sub_n, computer_n, bw_cond, effect, set, distance, diag, block_n, trial_n, h1, w1, h2, w2, h3, w3, choice, rt 
24, 1, wb, practice, NA, 999, 999, 0, 1, 125, 98, 139, 158, 131, 168, 1, 3.01806
24, 1, wb, practice, NA, 999, 999, 0, 1, 125, 98, 139, 158, 131, 168, 2, 2.37535
24, 1, wb, practice, NA, 999, 999, 0, 2, 67, 105, 89, 156, 118, 127, 1, 1.50663
24, 1, wb, practice, NA, 999, 999, 0, 2, 67, 105, 89, 156, 118, 127, 3, 2.55748
24, 1, wb, practice, NA, 999, 999, 0, 3, 118, 139, 153, 115, 57, 76, 3, 1.63287
24, 1, wb, practice, NA, 999, 999, 0, 3, 118, 139, 153, 115, 57, 76, 2, 1.01641
24, 1, wb, catch, NA, 999, 999, 1, 1, 186, 129, 91, 164, 122, 73, 3, 2.15996
24, 1, wb, catch, NA, 999, 999, 1, 1, 186, 129, 91, 164, 122, 73, 1, 1.33139
24, 1, wb, attraction, a-b-db, 2, 1, 1, 2, 59, 134, 135, 60, 60, 135, 2, 3.86679
24, 1, wb, attraction, a-b-db, 2, 1, 1, 2, 59, 134, 135, 60, 60, 135, 3, 1.45391
24, 1, wb, filler, NA, 999, 999, 1, 3, 173, 98, 59, 84, 193, 146, 2, 1.84965
24, 1, wb, filler, NA, 999, 999, 1, 3, 173, 98, 59, 84, 193, 146, 3, 0.796487
24, 1, wb, attraction, a-b-db, 9, 1, 1, 4, 60, 135, 57, 129, 135, 60, 3, 2.7253
24, 1, wb, attraction, a-b-db, 9, 1, 1, 4, 60, 135, 57, 129, 135, 60, 1, 0.976918
24, 1, wb, attraction, a-b-da, 5, 1, 1, 5, 132, 58, 60, 135, 135, 60, 1, 2.21268
24, 1, wb, attraction, a-b-da, 5, 1, 1, 5, 132, 58, 60, 135, 135, 60, 2, 1.14704
24, 1, wb, attraction, a-b-da, 14, 2, 1, 6, 165, 90, 90, 165, 153, 83, 3, 2.01998
24, 1, wb, attraction, a-b-da, 14, 2, 1, 6, 165, 90, 90, 165, 153, 83, 2, 1.80835
24, 1, wb, attraction, a-b-db, 9, 2, 1, 7, 90, 165, 86, 157, 165, 90, 3, 2.28891
24, 1, wb, attraction, a-b-db, 9, 2, 1, 7, 90, 165, 86, 157, 165, 90, 1, 1.3716
24, 1, wb, filler, NA, 999, 999, 1, 8, 182, 175, 113, 115, 127, 107, 2, 3.23186
24, 1, wb, filler, NA, 999, 999, 1, 8, 182, 175, 113, 115, 127, 107, 1, 1.38082
24, 1, wb, attraction, a-b-db, 5, 3, 1, 9, 195, 120, 117, 190, 120, 195, 1, 2.73984
24, 1, wb, attraction, a-b-db, 5, 3, 1, 9, 195, 120, 117, 190, 120, 195, 2, 0.828731
24, 1, wb, filler, NA, 999, 999, 1, 10, 118, 152, 74, 61, 151, 154, 2, 1.41172
24, 1, wb, filler, NA, 999, 999, 1, 10, 118, 152, 74, 61, 151, 154, 3, 0.921761
24, 1, wb, filler, NA, 999, 999, 1, 11, 90, 103, 105, 95, 63, 116, 3, 2.02816
24, 1, wb, filler, NA, 999, 999, 1, 11, 90, 103, 105, 95, 63, 116, 1, 1.80857
24, 1, wb, filler, NA, 999, 999, 1, 12, 178, 82, 57, 193, 172, 150, 2, 2.36563
24, 1, wb, filler, NA, 999, 999, 1, 12, 178, 82, 57, 193, 172, 150, 3, 1.07728
24, 1, wb, attraction, a-b-da, 9, 2, 1, 13, 165, 90, 90, 165, 157, 86, 3, 1.93798
24, 1, wb, attraction, a-b-da, 9, 2, 1, 13, 165, 90, 90, 165, 157, 86, 2, 0.815909
24, 1, wb, filler, NA, 999, 999, 1, 14, 175, 66, 159, 158, 174, 127, 1, 1.53388
24, 1, wb, filler, NA, 999, 999, 1, 14, 175, 66, 159, 158, 174, 127, 2, 0.897093
24, 1, wb, attraction, a-b-db, 5, 1, 1, 15, 60, 135, 58, 132, 135, 60, 3, 1.96252
24, 1, wb, attraction, a-b-db, 5, 1, 1, 15, 60, 135, 58, 132, 135, 60, 1, 0.769757
24, 1, wb, attraction, a-b-db, 14, 2, 1, 16, 90, 165, 165, 90, 83, 153, 2, 2.92236
24, 1, wb, attraction, a-b-db, 14, 2, 1, 16, 90, 165, 165, 90, 83, 153, 1, 1.01879
24, 1, wb, attraction, a-b-da, 2, 3, 1, 17, 195, 120, 120, 195, 193, 119, 3, 5.4144
24, 1, wb, attraction, a-b-da, 2, 3, 1, 17, 195, 120, 120, 195, 193, 119, 2, 0.802806
24, 1, wb, attraction, a-b-db, 2, 3, 1, 18, 120, 195, 119, 193, 195, 120, 3, 2.28396
24, 1, wb, attraction, a-b-db, 2, 3, 1, 18, 120, 195, 119, 193, 195, 120, 1, 0.983143
24, 1, wb, attraction, a-b-db, 14, 3, 1, 19, 195, 120, 120, 195, 111, 181, 3, 4.23491
24, 1, wb, attraction, a-b-db, 14, 3, 1, 19, 195, 120, 120, 195, 111, 181, 2, 0.859126
24, 1, wb, attraction, a-b-db, 5, 2, 1, 20, 90, 165, 165, 90, 88, 161, 2, 2.00625
24, 1, wb, attraction, a-b-db, 5, 2, 1, 20, 90, 165, 165, 90, 88, 161, 1, 0.803026
24, 1, wb, filler, NA, 999, 999, 1, 21, 144, 107, 107, 125, 70, 173, 3, 2.14592
24, 1, wb, filler, NA, 999, 999, 1, 21, 144, 107, 107, 125, 70, 173, 1, 2.05846
24, 1, wb, attraction, a-b-da, 2, 2, 1, 22, 165, 90, 90, 165, 163, 89, 1, 2.01307
24, 1, wb, attraction, a-b-da, 2, 2, 1, 22, 165, 90, 90, 165, 163, 89, 2, 1.61905
24, 1, wb, filler, NA, 999, 999, 1, 23, 118, 193, 86, 188, 116, 95, 3, 1.51882
24, 1, wb, filler, NA, 999, 999, 1, 23, 118, 193, 86, 188, 116, 95, 1, 0.961969
24, 1, wb, catch, NA, 999, 999, 1, 24, 126, 129, 145, 170, 101, 94, 3, 1.2503
24, 1, wb, catch, NA, 999, 999, 1, 24, 126, 129, 145, 170, 101, 94, 2, 0.830936
24, 1, wb, attraction, a-b-da, 9, 1, 1, 25, 129, 57, 135, 60, 60, 135, 1, 2.09174
24, 1, wb, attraction, a-b-da, 9, 1, 1, 25, 129, 57, 135, 60, 60, 135, 3, 0.830649
24, 1, wb, attraction, a-b-db, 2, 2, 1, 26, 165, 90, 90, 165, 89, 163, 1, 4.3872
24, 1, wb, attraction, a-b-db, 2, 2, 1, 26, 165, 90, 90, 165, 89, 163, 2, 0.866242
24, 1, wb, attraction, a-b-da, 5, 2, 1, 27, 161, 88, 90, 165, 165, 90, 1, 4.09301
24, 1, wb, attraction, a-b-da, 5, 2, 1, 27, 161, 88, 90, 165, 165, 90, 2, 1.88681
24, 1, wb, attraction, a-b-db, 9, 3, 1, 28, 120, 195, 195, 120, 114, 186, 2, 3.65765
24, 1, wb, attraction, a-b-db, 9, 3, 1, 28, 120, 195, 195, 120, 114, 186, 1, 0.893549
24, 1, wb, attraction, a-b-da, 5, 3, 1, 29, 195, 120, 120, 195, 190, 117, 1, 3.38541
24, 1, wb, attraction, a-b-da, 5, 3, 1, 29, 195, 120, 120, 195, 190, 117, 2, 0.823092
24, 1, wb, attraction, a-b-da, 14, 3, 1, 30, 120, 195, 181, 111, 195, 120, 3, 3.19597
24, 1, wb, attraction, a-b-da, 14, 3, 1, 30, 120, 195, 181, 111, 195, 120, 1, 1.4253
24, 1, wb, attraction, a-b-db, 14, 1, 1, 31, 135, 60, 56, 125, 60, 135, 2, 2.2153
24, 1, wb, attraction, a-b-db, 14, 1, 1, 31, 135, 60, 56, 125, 60, 135, 3, 0.998649
24, 1, wb, attraction, a-b-da, 9, 3, 1, 32, 120, 195, 195, 120, 186, 114, 3, 2.06786
24, 1, wb, attraction, a-b-da, 9, 3, 1, 32, 120, 195, 195, 120, 186, 114, 1, 0.944519
24, 1, wb, catch, NA, 999, 999, 1, 33, 163, 92, 75, 120, 171, 144, 2, 1.39137
24, 1, wb, catch, NA, 999, 999, 1, 33, 163, 92, 75, 120, 171, 144, 3, 0.934695
24, 1, wb, attraction, a-b-da, 14, 1, 1, 34, 125, 56, 135, 60, 60, 135, 2, 3.73546
24, 1, wb, attraction, a-b-da, 14, 1, 1, 34, 125, 56, 135, 60, 60, 135, 3, 0.753433
24, 1, wb, filler, NA, 999, 999, 1, 35, 145, 153, 85, 161, 194, 152, 2, 2.71818
24, 1, wb, filler, NA, 999, 999, 1, 35, 145, 153, 85, 161, 194, 152, 3, 1.23462
24, 1, wb, attraction, a-b-da, 2, 1, 1, 36, 60, 135, 134, 59, 135, 60, 2, 2.24845
24, 1, wb, attraction, a-b-da, 2, 1, 1, 36, 60, 135, 134, 59, 135, 60, 1, 1.23697
24, 1, wb, filler, NA, 999, 999, 1, 37, 73, 76, 138, 105, 110, 192, 1, 1.54099
24, 1, wb, filler, NA, 999, 999, 1, 37, 73, 76, 138, 105, 110, 192, 3, 0.833025
24, 1, wb, attraction, a-b-da, 2, 3, 2, 1, 195, 120, 193, 119, 120, 195, 2, 3.5646
24, 1, wb, attraction, a-b-da, 2, 3, 2, 1, 195, 120, 193, 119, 120, 195, 3, 1.62669
24, 1, wb, attraction, a-b-db, 2, 2, 2, 2, 90, 165, 165, 90, 89, 163, 2, 1.63204
24, 1, wb, attraction, a-b-db, 2, 2, 2, 2, 90, 165, 165, 90, 89, 163, 3, 1.06989
24, 1, wb, attraction, a-b-da, 2, 2, 2, 3, 165, 90, 163, 89, 90, 165, 2, 3.00111
24, 1, wb, attraction, a-b-da, 2, 2, 2, 3, 165, 90, 163, 89, 90, 165, 3, 1.95124
24, 1, wb, attraction, a-b-db, 5, 3, 2, 4, 195, 120, 117, 190, 120, 195, 1, 5.75306
24, 1, wb, attraction, a-b-db, 5, 3, 2, 4, 195, 120, 117, 190, 120, 195, 3, 0.959506
24, 1, wb, filler, NA, 999, 999, 2, 5, 93, 104, 173, 103, 88, 116, 1, 1.86068
24, 1, wb, filler, NA, 999, 999, 2, 5, 93, 104, 173, 103, 88, 116, 2, 1.43408
24, 1, wb, attraction, a-b-da, 9, 1, 2, 6, 129, 57, 60, 135, 135, 60, 1, 1.57506
24, 1, wb, attraction, a-b-da, 9, 1, 2, 6, 129, 57, 60, 135, 135, 60, 2, 1.34242
24, 1, wb, attraction, a-b-da, 2, 1, 2, 7, 134, 59, 60, 135, 135, 60, 1, 7.91122
24, 1, wb, attraction, a-b-da, 2, 1, 2, 7, 134, 59, 60, 135, 135, 60, 2, 1.20753
24, 1, wb, filler, NA, 999, 999, 2, 8, 116, 178, 78, 67, 110, 67, 2, 1.57296
24, 1, wb, filler, NA, 999, 999, 2, 8, 116, 178, 78, 67, 110, 67, 1, 0.931028
24, 1, wb, attraction, a-b-db, 2, 3, 2, 9, 120, 195, 195, 120, 119, 193, 2, 1.94237
24, 1, wb, attraction, a-b-db, 2, 3, 2, 9, 120, 195, 195, 120, 119, 193, 1, 0.751457
24, 1, wb, attraction, a-b-da, 5, 3, 2, 10, 120, 195, 195, 120, 190, 117, 2, 3.93568
24, 1, wb, attraction, a-b-da, 5, 3, 2, 10, 120, 195, 195, 120, 190, 117, 1, 1.40045
24, 1, wb, attraction, a-b-da, 5, 1, 2, 11, 60, 135, 135, 60, 132, 58, 1, 3.24612
24, 1, wb, attraction, a-b-da, 5, 1, 2, 11, 60, 135, 135, 60, 132, 58, 3, 1.24987
24, 1, wb, attraction, a-b-db, 5, 2, 2, 12, 90, 165, 88, 161, 165, 90, 2, 5.29202
24, 1, wb, attraction, a-b-db, 5, 2, 2, 12, 90, 165, 88, 161, 165, 90, 1, 1.60672
24, 1, wb, attraction, a-b-db, 14, 1, 2, 13, 56, 125, 60, 135, 135, 60, 1, 2.56616
24, 1, wb, attraction, a-b-db, 14, 1, 2, 13, 56, 125, 60, 135, 135, 60, 2, 1.10844
24, 1, wb, attraction, a-b-da, 9, 2, 2, 14, 157, 86, 165, 90, 90, 165, 1, 3.53493
24, 1, wb, attraction, a-b-da, 9, 2, 2, 14, 157, 86, 165, 90, 90, 165, 3, 2.42499
24, 1, wb, attraction, a-b-da, 9, 3, 2, 15, 186, 114, 120, 195, 195, 120, 1, 2.3707
24, 1, wb, attraction, a-b-da, 9, 3, 2, 15, 186, 114, 120, 195, 195, 120, 2, 0.891807
24, 1, wb, catch, NA, 999, 999, 2, 16, 146, 169, 133, 62, 112, 143, 2, 2.78135
24, 1, wb, catch, NA, 999, 999, 2, 16, 146, 169, 133, 62, 112, 143, 1, 0.789783
24, 1, wb, filler, NA, 999, 999, 2, 17, 120, 137, 120, 106, 179, 76, 2, 4.63373
24, 1, wb, filler, NA, 999, 999, 2, 17, 120, 137, 120, 106, 179, 76, 3, 4.52113
24, 1, wb, filler, NA, 999, 999, 2, 18, 148, 143, 60, 165, 105, 104, 3, 5.52641
24, 1, wb, filler, NA, 999, 999, 2, 18, 148, 143, 60, 165, 105, 104, 1, 1.16892
24, 1, wb, attraction, a-b-da, 5, 2, 2, 19, 165, 90, 90, 165, 161, 88, 1, 6.03791
24, 1, wb, attraction, a-b-da, 5, 2, 2, 19, 165, 90, 90, 165, 161, 88, 2, 1.14931
24, 1, wb, catch, NA, 999, 999, 2, 20, 124, 71, 91, 164, 136, 179, 1, 1.86747
24, 1, wb, catch, NA, 999, 999, 2, 20, 124, 71, 91, 164, 136, 179, 3, 0.784933
24, 1, wb, attraction, a-b-db, 9, 3, 2, 21, 195, 120, 114, 186, 120, 195, 1, 2.26747
24, 1, wb, attraction, a-b-db, 9, 3, 2, 21, 195, 120, 114, 186, 120, 195, 3, 0.737842
24, 1, wb, filler, NA, 999, 999, 2, 22, 130, 64, 70, 72, 97, 132, 2, 1.70608
24, 1, wb, filler, NA, 999, 999, 2, 22, 130, 64, 70, 72, 97, 132, 3, 0.81985
24, 1, wb, filler, NA, 999, 999, 2, 23, 90, 86, 56, 138, 133, 62, 1, 4.73935
24, 1, wb, filler, NA, 999, 999, 2, 23, 90, 86, 56, 138, 133, 62, 2, 2.18636
24, 1, wb, catch, NA, 999, 999, 2, 24, 111, 84, 128, 127, 130, 185, 1, 1.72073
24, 1, wb, catch, NA, 999, 999, 2, 24, 111, 84, 128, 127, 130, 185, 3, 0.778289
24, 1, wb, attraction, a-b-da, 14, 3, 2, 25, 195, 120, 181, 111, 120, 195, 2, 2.56958
24, 1, wb, attraction, a-b-da, 14, 3, 2, 25, 195, 120, 181, 111, 120, 195, 3, 0.856243
24, 1, wb, attraction, a-b-db, 9, 1, 2, 26, 135, 60, 57, 129, 60, 135, 1, 6.71714
24, 1, wb, attraction, a-b-db, 9, 1, 2, 26, 135, 60, 57, 129, 60, 135, 2, 0.869507
24, 1, wb, filler, NA, 999, 999, 2, 27, 72, 166, 115, 174, 66, 110, 3, 2.36959
24, 1, wb, filler, NA, 999, 999, 2, 27, 72, 166, 115, 174, 66, 110, 2, 0.752584
24, 1, wb, filler, NA, 999, 999, 2, 28, 69, 74, 69, 195, 142, 178, 1, 1.36914
24, 1, wb, filler, NA, 999, 999, 2, 28, 69, 74, 69, 195, 142, 178, 3, 0.872342
24, 1, wb, attraction, a-b-db, 9, 2, 2, 29, 165, 90, 86, 157, 90, 165, 2, 9.65933
24, 1, wb, attraction, a-b-db, 9, 2, 2, 29, 165, 90, 86, 157, 90, 165, 3, 1.30298
24, 1, wb, attraction, a-b-da, 14, 2, 2, 30, 90, 165, 153, 83, 165, 90, 2, 6.17532
24, 1, wb, attraction, a-b-da, 14, 2, 2, 30, 90, 165, 153, 83, 165, 90, 1, 0.741976
24, 1, wb, attraction, a-b-db, 14, 2, 2, 31, 90, 165, 165, 90, 83, 153, 3, 2.40498
24, 1, wb, attraction, a-b-db, 14, 2, 2, 31, 90, 165, 165, 90, 83, 153, 2, 2.22891
24, 1, wb, attraction, a-b-da, 14, 1, 2, 32, 135, 60, 125, 56, 60, 135, 2, 2.3791
24, 1, wb, attraction, a-b-da, 14, 1, 2, 32, 135, 60, 125, 56, 60, 135, 3, 0.815635
24, 1, wb, attraction, a-b-db, 5, 1, 2, 33, 60, 135, 58, 132, 135, 60, 2, 3.4227
24, 1, wb, attraction, a-b-db, 5, 1, 2, 33, 60, 135, 58, 132, 135, 60, 1, 1.01145
24, 1, wb, filler, NA, 999, 999, 2, 34, 64, 121, 160, 190, 114, 161, 1, 2.82633
24, 1, wb, filler, NA, 999, 999, 2, 34, 64, 121, 160, 190, 114, 161, 2, 0.838879
24, 1, wb, attraction, a-b-db, 2, 1, 2, 35, 59, 134, 135, 60, 60, 135, 3, 5.94005
24, 1, wb, attraction, a-b-db, 2, 1, 2, 35, 59, 134, 135, 60, 60, 135, 1, 1.9871
24, 1, wb, attraction, a-b-db, 14, 3, 2, 36, 120, 195, 195, 120, 111, 181, 3, 9.40918
24, 1, wb, attraction, a-b-db, 14, 3, 2, 36, 120, 195, 195, 120, 111, 181, 2, 0.757572
24, 1, wb, filler, NA, 999, 999, 2, 37, 102, 126, 86, 151, 166, 191, 1, 9.39582
24, 1, wb, filler, NA, 999, 999, 2, 37, 102, 126, 86, 151, 166, 191, 3, 3.52175
24, 1, wb, catch, NA, 999, 999, 3, 1, 106, 89, 114, 141, 155, 160, 1, 2.61124
24, 1, wb, catch, NA, 999, 999, 3, 1, 106, 89, 114, 141, 155, 160, 3, 0.976686
24, 1, wb, attraction, a-b-db, 9, 2, 3, 2, 90, 165, 165, 90, 86, 157, 3, 2.23993
24, 1, wb, attraction, a-b-db, 9, 2, 3, 2, 90, 165, 165, 90, 86, 157, 2, 1.78772
24, 1, wb, attraction, a-b-db, 14, 2, 3, 3, 90, 165, 83, 153, 165, 90, 2, 7.87598
24, 1, wb, attraction, a-b-db, 14, 2, 3, 3, 90, 165, 83, 153, 165, 90, 1, 0.871022
24, 1, wb, attraction, a-b-da, 14, 1, 3, 4, 125, 56, 135, 60, 60, 135, 1, 1.95279
24, 1, wb, attraction, a-b-da, 14, 1, 3, 4, 125, 56, 135, 60, 60, 135, 2, 0.856978
24, 1, wb, attraction, a-b-db, 9, 3, 3, 5, 114, 186, 195, 120, 120, 195, 1, 14.8834
24, 1, wb, attraction, a-b-db, 9, 3, 3, 5, 114, 186, 195, 120, 120, 195, 3, 4.14929
24, 1, wb, attraction, a-b-db, 14, 3, 3, 6, 111, 181, 120, 195, 195, 120, 1, 2.93257
24, 1, wb, attraction, a-b-db, 14, 3, 3, 6, 111, 181, 120, 195, 195, 120, 3, 1.70687
24, 1, wb, attraction, a-b-db, 5, 1, 3, 7, 58, 132, 135, 60, 60, 135, 2, 2.58071
24, 1, wb, attraction, a-b-db, 5, 1, 3, 7, 58, 132, 135, 60, 60, 135, 3, 1.34013
24, 1, wb, attraction, a-b-da, 14, 3, 3, 8, 181, 111, 195, 120, 120, 195, 1, 3.05868
24, 1, wb, attraction, a-b-da, 14, 3, 3, 8, 181, 111, 195, 120, 120, 195, 3, 0.753998
24, 1, wb, attraction, a-b-da, 5, 2, 3, 9, 90, 165, 161, 88, 165, 90, 1, 3.71183
24, 1, wb, attraction, a-b-da, 5, 2, 3, 9, 90, 165, 161, 88, 165, 90, 2, 0.89729
24, 1, wb, attraction, a-b-da, 9, 2, 3, 10, 165, 90, 90, 165, 157, 86, 3, 3.70084
24, 1, wb, attraction, a-b-da, 9, 2, 3, 10, 165, 90, 90, 165, 157, 86, 2, 1.07946
24, 1, wb, attraction, a-b-da, 5, 3, 3, 11, 120, 195, 190, 117, 195, 120, 2, 9.68925
24, 1, wb, attraction, a-b-da, 5, 3, 3, 11, 120, 195, 190, 117, 195, 120, 1, 1.21068
24, 1, wb, filler, NA, 999, 999, 3, 12, 178, 162, 153, 189, 64, 118, 3, 2.04841
24, 1, wb, filler, NA, 999, 999, 3, 12, 178, 162, 153, 189, 64, 118, 2, 1.85935
24, 1, wb, filler, NA, 999, 999, 3, 13, 191, 66, 159, 131, 99, 74, 3, 2.39188
24, 1, wb, filler, NA, 999, 999, 3, 13, 191, 66, 159, 131, 99, 74, 2, 4.82334
24, 1, wb, attraction, a-b-db, 2, 2, 3, 14, 89, 163, 165, 90, 90, 165, 2, 4.8108
24, 1, wb, attraction, a-b-db, 2, 2, 3, 14, 89, 163, 165, 90, 90, 165, 1, 0.974692
24, 1, wb, attraction, a-b-db, 2, 1, 3, 15, 60, 135, 59, 134, 135, 60, 2, 4.22274
24, 1, wb, attraction, a-b-db, 2, 1, 3, 15, 60, 135, 59, 134, 135, 60, 3, 2.49367
24, 1, wb, catch, NA, 999, 999, 3, 16, 83, 112, 142, 173, 148, 107, 1, 1.73444
24, 1, wb, catch, NA, 999, 999, 3, 16, 83, 112, 142, 173, 148, 107, 2, 0.791881
24, 1, wb, filler, NA, 999, 999, 3, 17, 127, 141, 116, 69, 86, 136, 2, 1.28662
24, 1, wb, filler, NA, 999, 999, 3, 17, 127, 141, 116, 69, 86, 136, 1, 1.48242
24, 1, wb, filler, NA, 999, 999, 3, 18, 172, 101, 69, 179, 149, 126, 2, 2.20283
24, 1, wb, filler, NA, 999, 999, 3, 18, 172, 101, 69, 179, 149, 126, 3, 0.8256
24, 1, wb, attraction, a-b-da, 9, 3, 3, 19, 195, 120, 186, 114, 120, 195, 2, 3.36829
24, 1, wb, attraction, a-b-da, 9, 3, 3, 19, 195, 120, 186, 114, 120, 195, 3, 0.670004
24, 1, wb, attraction, a-b-db, 14, 1, 3, 20, 135, 60, 60, 135, 56, 125, 3, 2.22791
24, 1, wb, attraction, a-b-db, 14, 1, 3, 20, 135, 60, 60, 135, 56, 125, 2, 0.770623
24, 1, wb, attraction, a-b-da, 2, 2, 3, 21, 165, 90, 90, 165, 163, 89, 3, 1.62426
24, 1, wb, attraction, a-b-da, 2, 2, 3, 21, 165, 90, 90, 165, 163, 89, 2, 0.614101
24, 1, wb, attraction, a-b-db, 5, 2, 3, 22, 90, 165, 88, 161, 165, 90, 3, 7.49108
24, 1, wb, attraction, a-b-db, 5, 2, 3, 22, 90, 165, 88, 161, 165, 90, 2, 0.558161
24, 1, wb, attraction, a-b-da, 9, 1, 3, 23, 135, 60, 60, 135, 129, 57, 3, 3.19527
24, 1, wb, attraction, a-b-da, 9, 1, 3, 23, 135, 60, 60, 135, 129, 57, 2, 1.13197
24, 1, wb, catch, NA, 999, 999, 3, 24, 153, 102, 69, 126, 167, 148, 2, 1.49109
24, 1, wb, catch, NA, 999, 999, 3, 24, 153, 102, 69, 126, 167, 148, 3, 0.686886
24, 1, wb, filler, NA, 999, 999, 3, 25, 149, 101, 88, 129, 150, 167, 2, 1.67295
24, 1, wb, filler, NA, 999, 999, 3, 25, 149, 101, 88, 129, 150, 167, 3, 0.796661
24, 1, wb, attraction, a-b-db, 5, 3, 3, 26, 120, 195, 117, 190, 195, 120, 3, 3.13988
24, 1, wb, attraction, a-b-db, 5, 3, 3, 26, 120, 195, 117, 190, 195, 120, 2, 0.629901
24, 1, wb, attraction, a-b-db, 9, 1, 3, 27, 60, 135, 135, 60, 57, 129, 3, 3.05891
24, 1, wb, attraction, a-b-db, 9, 1, 3, 27, 60, 135, 135, 60, 57, 129, 1, 6.53434
24, 1, wb, filler, NA, 999, 999, 3, 28, 190, 179, 56, 95, 114, 76, 2, 1.67687
24, 1, wb, filler, NA, 999, 999, 3, 28, 190, 179, 56, 95, 114, 76, 1, 0.880013
24, 1, wb, attraction, a-b-da, 5, 1, 3, 29, 60, 135, 132, 58, 135, 60, 3, 2.17256
24, 1, wb, attraction, a-b-da, 5, 1, 3, 29, 60, 135, 132, 58, 135, 60, 1, 0.725306
24, 1, wb, filler, NA, 999, 999, 3, 30, 101, 176, 174, 112, 163, 162, 1, 1.86992
24, 1, wb, filler, NA, 999, 999, 3, 30, 101, 176, 174, 112, 163, 162, 3, 0.60897
24, 1, wb, filler, NA, 999, 999, 3, 31, 97, 105, 106, 173, 74, 89, 3, 1.28692
24, 1, wb, filler, NA, 999, 999, 3, 31, 97, 105, 106, 173, 74, 89, 2, 0.714337
24, 1, wb, filler, NA, 999, 999, 3, 32, 111, 185, 178, 100, 71, 137, 3, 1.2773
24, 1, wb, filler, NA, 999, 999, 3, 32, 111, 185, 178, 100, 71, 137, 1, 0.758236
24, 1, wb, filler, NA, 999, 999, 3, 33, 96, 64, 176, 96, 81, 160, 1, 1.64675
24, 1, wb, filler, NA, 999, 999, 3, 33, 96, 64, 176, 96, 81, 160, 2, 0.748935
24, 1, wb, attraction, a-b-da, 2, 3, 3, 34, 193, 119, 120, 195, 195, 120, 3, 3.49949
24, 1, wb, attraction, a-b-da, 2, 3, 3, 34, 193, 119, 120, 195, 195, 120, 1, 1.25606
24, 1, wb, attraction, a-b-da, 2, 1, 3, 35, 60, 135, 134, 59, 135, 60, 3, 2.16272
24, 1, wb, attraction, a-b-da, 2, 1, 3, 35, 60, 135, 134, 59, 135, 60, 1, 0.960486
24, 1, wb, attraction, a-b-db, 2, 3, 3, 36, 119, 193, 120, 195, 195, 120, 2, 2.54658
24, 1, wb, attraction, a-b-db, 2, 3, 3, 36, 119, 193, 120, 195, 195, 120, 1, 0.729148
24, 1, wb, attraction, a-b-da, 14, 2, 3, 37, 165, 90, 90, 165, 153, 83, 1, 5.58837
24, 1, wb, attraction, a-b-da, 14, 2, 3, 37, 165, 90, 90, 165, 153, 83, 2, 0.690449
24, 1, wb, attraction, a-b-da, 5, 1, 4, 1, 135, 60, 60, 135, 132, 58, 3, 2.25074
24, 1, wb, attraction, a-b-da, 5, 1, 4, 1, 135, 60, 60, 135, 132, 58, 2, 1.38619
24, 1, wb, attraction, a-b-db, 5, 1, 4, 2, 135, 60, 58, 132, 60, 135, 1, 4.77326
24, 1, wb, attraction, a-b-db, 5, 1, 4, 2, 135, 60, 58, 132, 60, 135, 2, 1.66231
24, 1, wb, filler, NA, 999, 999, 4, 3, 195, 77, 59, 70, 131, 84, 2, 1.49795
24, 1, wb, filler, NA, 999, 999, 4, 3, 195, 77, 59, 70, 131, 84, 1, 0.732243
24, 1, wb, attraction, a-b-db, 9, 2, 4, 4, 86, 157, 165, 90, 90, 165, 1, 2.44618
24, 1, wb, attraction, a-b-db, 9, 2, 4, 4, 86, 157, 165, 90, 90, 165, 2, 1.12142
24, 1, wb, attraction, a-b-db, 2, 1, 4, 5, 59, 134, 135, 60, 60, 135, 3, 2.20969
24, 1, wb, attraction, a-b-db, 2, 1, 4, 5, 59, 134, 135, 60, 60, 135, 1, 2.58491
24, 1, wb, filler, NA, 999, 999, 4, 6, 116, 108, 103, 132, 190, 119, 1, 2.5038
24, 1, wb, filler, NA, 999, 999, 4, 6, 116, 108, 103, 132, 190, 119, 3, 1.03381
24, 1, wb, catch, NA, 999, 999, 4, 7, 123, 72, 186, 129, 165, 90, 1, 1.46928
24, 1, wb, catch, NA, 999, 999, 4, 7, 123, 72, 186, 129, 165, 90, 2, 0.737761
24, 1, wb, attraction, a-b-da, 5, 2, 4, 8, 161, 88, 165, 90, 90, 165, 2, 2.26631
24, 1, wb, attraction, a-b-da, 5, 2, 4, 8, 161, 88, 165, 90, 90, 165, 3, 0.734263
24, 1, wb, attraction, a-b-db, 14, 3, 4, 9, 195, 120, 111, 181, 120, 195, 2, 1.96684
24, 1, wb, attraction, a-b-db, 14, 3, 4, 9, 195, 120, 111, 181, 120, 195, 1, 0.725253
24, 1, wb, attraction, a-b-da, 2, 1, 4, 10, 60, 135, 135, 60, 134, 59, 3, 12.6716
24, 1, wb, attraction, a-b-da, 2, 1, 4, 10, 60, 135, 135, 60, 134, 59, 1, 0.66444
24, 1, wb, attraction, a-b-da, 14, 2, 4, 11, 165, 90, 153, 83, 90, 165, 2, 2.33135
24, 1, wb, attraction, a-b-da, 14, 2, 4, 11, 165, 90, 153, 83, 90, 165, 3, 0.582803
24, 1, wb, attraction, a-b-db, 5, 2, 4, 12, 165, 90, 90, 165, 88, 161, 3, 6.69099
24, 1, wb, attraction, a-b-db, 5, 2, 4, 12, 165, 90, 90, 165, 88, 161, 2, 1.11787
24, 1, wb, filler, NA, 999, 999, 4, 13, 175, 101, 180, 73, 104, 192, 2, 2.03152
24, 1, wb, filler, NA, 999, 999, 4, 13, 175, 101, 180, 73, 104, 192, 3, 0.668733
24, 1, wb, attraction, a-b-da, 14, 1, 4, 14, 125, 56, 135, 60, 60, 135, 2, 2.56637
24, 1, wb, attraction, a-b-da, 14, 1, 4, 14, 125, 56, 135, 60, 60, 135, 3, 1.44032
24, 1, wb, attraction, a-b-db, 14, 1, 4, 15, 135, 60, 56, 125, 60, 135, 1, 3.43473
24, 1, wb, attraction, a-b-db, 14, 1, 4, 15, 135, 60, 56, 125, 60, 135, 3, 0.790265
24, 1, wb, filler, NA, 999, 999, 4, 16, 72, 134, 195, 117, 136, 178, 1, 1.32542
24, 1, wb, filler, NA, 999, 999, 4, 16, 72, 134, 195, 117, 136, 178, 3, 0.77562
24, 1, wb, attraction, a-b-da, 2, 3, 4, 17, 120, 195, 195, 120, 193, 119, 2, 4.90163
24, 1, wb, attraction, a-b-da, 2, 3, 4, 17, 120, 195, 195, 120, 193, 119, 1, 1.40751
24, 1, wb, attraction, a-b-db, 2, 2, 4, 18, 89, 163, 90, 165, 165, 90, 3, 1.70219
24, 1, wb, attraction, a-b-db, 2, 2, 4, 18, 89, 163, 90, 165, 165, 90, 1, 0.937756
24, 1, wb, filler, NA, 999, 999, 4, 19, 185, 87, 67, 121, 135, 129, 2, 1.69829
24, 1, wb, filler, NA, 999, 999, 4, 19, 185, 87, 67, 121, 135, 129, 1, 0.804588
24, 1, wb, attraction, a-b-db, 9, 3, 4, 20, 120, 195, 114, 186, 195, 120, 3, 3.17748
24, 1, wb, attraction, a-b-db, 9, 3, 4, 20, 120, 195, 114, 186, 195, 120, 2, 1.25851
24, 1, wb, attraction, a-b-da, 14, 3, 4, 21, 181, 111, 195, 120, 120, 195, 1, 1.48493
24, 1, wb, attraction, a-b-da, 14, 3, 4, 21, 181, 111, 195, 120, 120, 195, 3, 0.8003
24, 1, wb, filler, NA, 999, 999, 4, 22, 102, 79, 76, 126, 138, 117, 1, 1.82429
24, 1, wb, filler, NA, 999, 999, 4, 22, 102, 79, 76, 126, 138, 117, 3, 0.757299
24, 1, wb, attraction, a-b-da, 2, 2, 4, 23, 90, 165, 163, 89, 165, 90, 3, 2.15633
24, 1, wb, attraction, a-b-da, 2, 2, 4, 23, 90, 165, 163, 89, 165, 90, 1, 0.68329
24, 1, wb, attraction, a-b-db, 2, 3, 4, 24, 195, 120, 119, 193, 120, 195, 1, 1.93648
24, 1, wb, attraction, a-b-db, 2, 3, 4, 24, 195, 120, 119, 193, 120, 195, 2, 0.632049
24, 1, wb, attraction, a-b-db, 9, 1, 4, 25, 135, 60, 57, 129, 60, 135, 2, 1.78713
24, 1, wb, attraction, a-b-db, 9, 1, 4, 25, 135, 60, 57, 129, 60, 135, 3, 0.859203
24, 1, wb, attraction, a-b-da, 9, 3, 4, 26, 195, 120, 186, 114, 120, 195, 2, 2.40116
24, 1, wb, attraction, a-b-da, 9, 3, 4, 26, 195, 120, 186, 114, 120, 195, 3, 0.567095
24, 1, wb, filler, NA, 999, 999, 4, 27, 156, 92, 109, 60, 126, 155, 2, 1.31805
24, 1, wb, filler, NA, 999, 999, 4, 27, 156, 92, 109, 60, 126, 155, 3, 0.704056
24, 1, wb, catch, NA, 999, 999, 4, 28, 63, 132, 174, 141, 156, 99, 1, 1.37933
24, 1, wb, catch, NA, 999, 999, 4, 28, 63, 132, 174, 141, 156, 99, 2, 0.76168
24, 1, wb, filler, NA, 999, 999, 4, 29, 145, 61, 121, 152, 194, 115, 1, 1.585
24, 1, wb, filler, NA, 999, 999, 4, 29, 145, 61, 121, 152, 194, 115, 3, 0.77579
24, 1, wb, attraction, a-b-da, 5, 3, 4, 30, 120, 195, 195, 120, 190, 117, 3, 1.89514
24, 1, wb, attraction, a-b-da, 5, 3, 4, 30, 120, 195, 195, 120, 190, 117, 1, 0.737395
24, 1, wb, filler, NA, 999, 999, 4, 31, 186, 188, 181, 89, 142, 184, 2, 1.32912
24, 1, wb, filler, NA, 999, 999, 4, 31, 186, 188, 181, 89, 142, 184, 1, 0.723549
24, 1, wb, attraction, a-b-db, 5, 3, 4, 32, 120, 195, 117, 190, 195, 120, 2, 3.02896
24, 1, wb, attraction, a-b-db, 5, 3, 4, 32, 120, 195, 117, 190, 195, 120, 1, 2.60931
24, 1, wb, filler, NA, 999, 999, 4, 33, 72, 174, 141, 129, 140, 105, 1, 1.53667
24, 1, wb, filler, NA, 999, 999, 4, 33, 72, 174, 141, 129, 140, 105, 2, 0.697349
24, 1, wb, attraction, a-b-db, 14, 2, 4, 34, 165, 90, 90, 165, 83, 153, 1, 1.86684
24, 1, wb, attraction, a-b-db, 14, 2, 4, 34, 165, 90, 90, 165, 83, 153, 2, 0.702106
24, 1, wb, attraction, a-b-da, 9, 1, 4, 35, 135, 60, 129, 57, 60, 135, 1, 3.56132
24, 1, wb, attraction, a-b-da, 9, 1, 4, 35, 135, 60, 129, 57, 60, 135, 3, 1.06704
24, 1, wb, attraction, a-b-da, 9, 2, 4, 36, 157, 86, 165, 90, 90, 165, 1, 4.3335
24, 1, wb, attraction, a-b-da, 9, 2, 4, 36, 157, 86, 165, 90, 90, 165, 3, 1.33378
24, 1, wb, catch, NA, 999, 999, 4, 37, 187, 128, 84, 111, 125, 130, 2, 1.22915
24, 1, wb, catch, NA, 999, 999, 4, 37, 187, 128, 84, 111, 125, 130, 1, 1.33873
24, 1, wb, filler, NA, 999, 999, 5, 1, 90, 128, 156, 91, 85, 119, 3, 5.69711
24, 1, wb, filler, NA, 999, 999, 5, 1, 90, 128, 156, 91, 85, 119, 2, 1.26907
24, 1, wb, attraction, a-b-db, 2, 2, 5, 2, 89, 163, 165, 90, 90, 165, 1, 2.00694
24, 1, wb, attraction, a-b-db, 2, 2, 5, 2, 89, 163, 165, 90, 90, 165, 2, 0.867488
24, 1, wb, filler, NA, 999, 999, 5, 3, 84, 64, 59, 177, 100, 148, 1, 1.71741
24, 1, wb, filler, NA, 999, 999, 5, 3, 84, 64, 59, 177, 100, 148, 3, 0.71389
24, 1, wb, catch, NA, 999, 999, 5, 4, 82, 113, 172, 143, 101, 154, 1, 1.1486
24, 1, wb, catch, NA, 999, 999, 5, 4, 82, 113, 172, 143, 101, 154, 2, 0.796509
24, 1, wb, attraction, a-b-da, 9, 1, 5, 5, 129, 57, 60, 135, 135, 60, 2, 1.76122
24, 1, wb, attraction, a-b-da, 9, 1, 5, 5, 129, 57, 60, 135, 135, 60, 3, 0.763032
24, 1, wb, attraction, a-b-db, 14, 3, 5, 6, 120, 195, 111, 181, 195, 120, 2, 2.2036
24, 1, wb, attraction, a-b-db, 14, 3, 5, 6, 120, 195, 111, 181, 195, 120, 1, 0.77072
24, 1, wb, filler, NA, 999, 999, 5, 7, 128, 59, 128, 74, 106, 127, 1, 1.94393
24, 1, wb, filler, NA, 999, 999, 5, 7, 128, 59, 128, 74, 106, 127, 3, 0.825293
24, 1, wb, attraction, a-b-db, 9, 1, 5, 8, 60, 135, 135, 60, 57, 129, 3, 2.11782
24, 1, wb, attraction, a-b-db, 9, 1, 5, 8, 60, 135, 135, 60, 57, 129, 1, 1.58552
24, 1, wb, attraction, a-b-db, 5, 3, 5, 9, 120, 195, 117, 190, 195, 120, 3, 3.39264
24, 1, wb, attraction, a-b-db, 5, 3, 5, 9, 120, 195, 117, 190, 195, 120, 2, 0.797594
24, 1, wb, attraction, a-b-da, 14, 1, 5, 10, 60, 135, 125, 56, 135, 60, 2, 1.98664
24, 1, wb, attraction, a-b-da, 14, 1, 5, 10, 60, 135, 125, 56, 135, 60, 1, 0.812162
24, 1, wb, attraction, a-b-db, 5, 1, 5, 11, 135, 60, 60, 135, 58, 132, 3, 2.15401
24, 1, wb, attraction, a-b-db, 5, 1, 5, 11, 135, 60, 60, 135, 58, 132, 2, 15.1302
24, 1, wb, filler, NA, 999, 999, 5, 12, 59, 66, 127, 120, 163, 104, 1, 1.71137
24, 1, wb, filler, NA, 999, 999, 5, 12, 59, 66, 127, 120, 163, 104, 3, 0.754141
24, 1, wb, attraction, a-b-da, 9, 3, 5, 13, 195, 120, 120, 195, 186, 114, 1, 14.1218
24, 1, wb, attraction, a-b-da, 9, 3, 5, 13, 195, 120, 120, 195, 186, 114, 2, 0.709589
24, 1, wb, catch, NA, 999, 999, 5, 14, 125, 190, 122, 73, 157, 98, 2, 1.11201
24, 1, wb, catch, NA, 999, 999, 5, 14, 125, 190, 122, 73, 157, 98, 1, 0.738014
24, 1, wb, attraction, a-b-db, 2, 3, 5, 15, 195, 120, 119, 193, 120, 195, 1, 1.995
24, 1, wb, attraction, a-b-db, 2, 3, 5, 15, 195, 120, 119, 193, 120, 195, 2, 0.738349
24, 1, wb, attraction, a-b-db, 14, 2, 5, 16, 165, 90, 83, 153, 90, 165, 2, 1.73908
24, 1, wb, attraction, a-b-db, 14, 2, 5, 16, 165, 90, 83, 153, 90, 165, 3, 1.91515
24, 1, wb, attraction, a-b-da, 2, 3, 5, 17, 195, 120, 120, 195, 193, 119, 3, 1.8862
24, 1, wb, attraction, a-b-da, 2, 3, 5, 17, 195, 120, 120, 195, 193, 119, 2, 0.983759
24, 1, wb, attraction, a-b-db, 9, 3, 5, 18, 120, 195, 114, 186, 195, 120, 3, 4.71176
24, 1, wb, attraction, a-b-db, 9, 3, 5, 18, 120, 195, 114, 186, 195, 120, 1, 0.689242
24, 1, wb, filler, NA, 999, 999, 5, 19, 131, 109, 173, 56, 163, 179, 2, 1.38717
24, 1, wb, filler, NA, 999, 999, 5, 19, 131, 109, 173, 56, 163, 179, 3, 0.69061
24, 1, wb, attraction, a-b-da, 2, 1, 5, 20, 60, 135, 135, 60, 134, 59, 3, 2.06086
24, 1, wb, attraction, a-b-da, 2, 1, 5, 20, 60, 135, 135, 60, 134, 59, 1, 0.82596
24, 1, wb, filler, NA, 999, 999, 5, 21, 138, 190, 74, 169, 115, 102, 3, 1.69377
24, 1, wb, filler, NA, 999, 999, 5, 21, 138, 190, 74, 169, 115, 102, 1, 0.728875
24, 1, wb, attraction, a-b-db, 9, 2, 5, 22, 90, 165, 86, 157, 165, 90, 2, 5.56344
24, 1, wb, attraction, a-b-db, 9, 2, 5, 22, 90, 165, 86, 157, 165, 90, 1, 1.09801
24, 1, wb, filler, NA, 999, 999, 5, 23, 60, 80, 137, 162, 82, 80, 1, 1.88481
24, 1, wb, filler, NA, 999, 999, 5, 23, 60, 80, 137, 162, 82, 80, 2, 0.853631
24, 1, wb, attraction, a-b-da, 9, 2, 5, 24, 90, 165, 157, 86, 165, 90, 2, 1.67325
24, 1, wb, attraction, a-b-da, 9, 2, 5, 24, 90, 165, 157, 86, 165, 90, 3, 2.67105
24, 1, wb, attraction, a-b-db, 14, 1, 5, 25, 135, 60, 56, 125, 60, 135, 2, 3.91479
24, 1, wb, attraction, a-b-db, 14, 1, 5, 25, 135, 60, 56, 125, 60, 135, 1, 0.714913
24, 1, wb, attraction, a-b-da, 2, 2, 5, 26, 163, 89, 165, 90, 90, 165, 1, 9.06862
24, 1, wb, attraction, a-b-da, 2, 2, 5, 26, 163, 89, 165, 90, 90, 165, 3, 0.949519
24, 1, wb, attraction, a-b-da, 5, 1, 5, 27, 132, 58, 60, 135, 135, 60, 3, 2.76323
24, 1, wb, attraction, a-b-da, 5, 1, 5, 27, 132, 58, 60, 135, 135, 60, 1, 1.17322
24, 1, wb, attraction, a-b-da, 5, 2, 5, 28, 165, 90, 90, 165, 161, 88, 3, 11.0599
24, 1, wb, attraction, a-b-da, 5, 2, 5, 28, 165, 90, 90, 165, 161, 88, 2, 0.82222
24, 1, wb, attraction, a-b-da, 14, 2, 5, 29, 153, 83, 90, 165, 165, 90, 1, 1.51354
24, 1, wb, attraction, a-b-da, 14, 2, 5, 29, 153, 83, 90, 165, 165, 90, 2, 0.764016
24, 1, wb, filler, NA, 999, 999, 5, 30, 194, 157, 179, 115, 110, 132, 3, 1.0777
24, 1, wb, filler, NA, 999, 999, 5, 30, 194, 157, 179, 115, 110, 132, 1, 0.728846
24, 1, wb, attraction, a-b-da, 5, 3, 5, 31, 120, 195, 195, 120, 190, 117, 1, 2.94743
24, 1, wb, attraction, a-b-da, 5, 3, 5, 31, 120, 195, 195, 120, 190, 117, 2, 1.1147
24, 1, wb, filler, NA, 999, 999, 5, 32, 152, 60, 171, 171, 101, 188, 1, 4.54542
24, 1, wb, filler, NA, 999, 999, 5, 32, 152, 60, 171, 171, 101, 188, 2, 1.15473
24, 1, wb, catch, NA, 999, 999, 5, 33, 142, 113, 120, 195, 106, 89, 3, 1.29117
24, 1, wb, catch, NA, 999, 999, 5, 33, 142, 113, 120, 195, 106, 89, 2, 0.757927
24, 1, wb, attraction, a-b-db, 5, 2, 5, 34, 165, 90, 88, 161, 90, 165, 1, 3.14122
24, 1, wb, attraction, a-b-db, 5, 2, 5, 34, 165, 90, 88, 161, 90, 165, 3, 0.686817
24, 1, wb, filler, NA, 999, 999, 5, 35, 139, 91, 146, 85, 169, 116, 1, 1.62446
24, 1, wb, filler, NA, 999, 999, 5, 35, 139, 91, 146, 85, 169, 116, 3, 0.785611
24, 1, wb, attraction, a-b-da, 14, 3, 5, 36, 195, 120, 120, 195, 181, 111, 3, 1.44792
24, 1, wb, attraction, a-b-da, 14, 3, 5, 36, 195, 120, 120, 195, 181, 111, 2, 0.700537
24, 1, wb, attraction, a-b-db, 2, 1, 5, 37, 135, 60, 59, 134, 60, 135, 2, 1.49201
24, 1, wb, attraction, a-b-db, 2, 1, 5, 37, 135, 60, 59, 134, 60, 135, 3, 0.712859
24, 1, wb, attraction, a-b-da, 9, 3, 6, 1, 195, 120, 186, 114, 120, 195, 2, 2.28416
24, 1, wb, attraction, a-b-da, 9, 3, 6, 1, 195, 120, 186, 114, 120, 195, 3, 0.74259
24, 1, wb, filler, NA, 999, 999, 6, 2, 100, 56, 178, 140, 172, 164, 1, 1.39783
24, 1, wb, filler, NA, 999, 999, 6, 2, 100, 56, 178, 140, 172, 164, 3, 1.2519
24, 1, wb, attraction, a-b-da, 2, 3, 6, 3, 120, 195, 195, 120, 193, 119, 2, 3.86305
24, 1, wb, attraction, a-b-da, 2, 3, 6, 3, 120, 195, 195, 120, 193, 119, 1, 1.31612
24, 1, wb, attraction, a-b-da, 5, 1, 6, 4, 135, 60, 132, 58, 60, 135, 2, 2.44478
24, 1, wb, attraction, a-b-da, 5, 1, 6, 4, 135, 60, 132, 58, 60, 135, 3, 0.683092
24, 1, wb, attraction, a-b-db, 14, 3, 6, 5, 120, 195, 111, 181, 195, 120, 2, 3.17239
24, 1, wb, attraction, a-b-db, 14, 3, 6, 5, 120, 195, 111, 181, 195, 120, 1, 0.707161
24, 1, wb, catch, NA, 999, 999, 6, 6, 126, 69, 141, 114, 133, 182, 1, 1.64414
24, 1, wb, catch, NA, 999, 999, 6, 6, 126, 69, 141, 114, 133, 182, 3, 0.754097
24, 1, wb, catch, NA, 999, 999, 6, 7, 141, 174, 136, 119, 106, 89, 3, 1.99407
24, 1, wb, catch, NA, 999, 999, 6, 7, 141, 174, 136, 119, 106, 89, 1, 0.515626
24, 1, wb, filler, NA, 999, 999, 6, 8, 105, 120, 195, 188, 188, 56, 1, 3.3624
24, 1, wb, filler, NA, 999, 999, 6, 8, 105, 120, 195, 188, 188, 56, 2, 0.64275
24, 1, wb, filler, NA, 999, 999, 6, 9, 76, 158, 158, 130, 178, 93, 1, 16.7516
24, 1, wb, filler, NA, 999, 999, 6, 9, 76, 158, 158, 130, 178, 93, 2, 0.749492
24, 1, wb, filler, NA, 999, 999, 6, 10, 105, 189, 111, 103, 113, 123, 2, 1.33263
24, 1, wb, filler, NA, 999, 999, 6, 10, 105, 189, 111, 103, 113, 123, 1, 0.884765
24, 1, wb, attraction, a-b-da, 14, 3, 6, 11, 181, 111, 120, 195, 195, 120, 1, 2.23876
24, 1, wb, attraction, a-b-da, 14, 3, 6, 11, 181, 111, 120, 195, 195, 120, 3, 0.820608
24, 1, wb, attraction, a-b-da, 14, 2, 6, 12, 153, 83, 90, 165, 165, 90, 1, 1.59251
24, 1, wb, attraction, a-b-da, 14, 2, 6, 12, 153, 83, 90, 165, 165, 90, 2, 0.785007
24, 1, wb, attraction, a-b-db, 2, 2, 6, 13, 89, 163, 165, 90, 90, 165, 2, 2.14407
24, 1, wb, attraction, a-b-db, 2, 2, 6, 13, 89, 163, 165, 90, 90, 165, 1, 0.927262
24, 1, wb, attraction, a-b-db, 2, 3, 6, 14, 119, 193, 195, 120, 120, 195, 2, 2.58611
24, 1, wb, attraction, a-b-db, 2, 3, 6, 14, 119, 193, 195, 120, 120, 195, 1, 0.768897
24, 1, wb, attraction, a-b-db, 9, 2, 6, 15, 86, 157, 165, 90, 90, 165, 2, 3.15984
24, 1, wb, attraction, a-b-db, 9, 2, 6, 15, 86, 157, 165, 90, 90, 165, 1, 0.984434
24, 1, wb, filler, NA, 999, 999, 6, 16, 101, 190, 66, 77, 74, 68, 2, 1.68648
24, 1, wb, filler, NA, 999, 999, 6, 16, 101, 190, 66, 77, 74, 68, 1, 1.22554
24, 1, wb, attraction, a-b-db, 9, 1, 6, 17, 60, 135, 135, 60, 57, 129, 2, 6.34842
24, 1, wb, attraction, a-b-db, 9, 1, 6, 17, 60, 135, 135, 60, 57, 129, 1, 2.42312
24, 1, wb, attraction, a-b-db, 14, 1, 6, 18, 60, 135, 56, 125, 135, 60, 2, 3.7465
24, 1, wb, attraction, a-b-db, 14, 1, 6, 18, 60, 135, 56, 125, 135, 60, 1, 1.55614
24, 1, wb, attraction, a-b-db, 5, 3, 6, 19, 120, 195, 117, 190, 195, 120, 2, 2.85684
24, 1, wb, attraction, a-b-db, 5, 3, 6, 19, 120, 195, 117, 190, 195, 120, 3, 0.847075
24, 1, wb, filler, NA, 999, 999, 6, 20, 128, 181, 168, 166, 160, 195, 1, 3.37974
24, 1, wb, filler, NA, 999, 999, 6, 20, 128, 181, 168, 166, 160, 195, 3, 3.14569
24, 1, wb, attraction, a-b-db, 5, 1, 6, 21, 58, 132, 60, 135, 135, 60, 2, 4.90583
24, 1, wb, attraction, a-b-db, 5, 1, 6, 21, 58, 132, 60, 135, 135, 60, 3, 0.653435
24, 1, wb, attraction, a-b-db, 2, 1, 6, 22, 60, 135, 59, 134, 135, 60, 2, 1.83149
24, 1, wb, attraction, a-b-db, 2, 1, 6, 22, 60, 135, 59, 134, 135, 60, 3, 0.645883
24, 1, wb, filler, NA, 999, 999, 6, 23, 115, 169, 120, 80, 179, 183, 2, 1.79154
24, 1, wb, filler, NA, 999, 999, 6, 23, 115, 169, 120, 80, 179, 183, 3, 0.550358
24, 1, wb, catch, NA, 999, 999, 6, 24, 145, 170, 109, 86, 156, 99, 2, 1.45482
24, 1, wb, catch, NA, 999, 999, 6, 24, 145, 170, 109, 86, 156, 99, 1, 0.557846
24, 1, wb, attraction, a-b-da, 9, 2, 6, 25, 90, 165, 157, 86, 165, 90, 2, 2.18044
24, 1, wb, attraction, a-b-da, 9, 2, 6, 25, 90, 165, 157, 86, 165, 90, 1, 0.778071
24, 1, wb, attraction, a-b-da, 2, 2, 6, 26, 90, 165, 165, 90, 163, 89, 2, 6.64953
24, 1, wb, attraction, a-b-da, 2, 2, 6, 26, 90, 165, 165, 90, 163, 89, 1, 1.44495
24, 1, wb, attraction, a-b-db, 5, 2, 6, 27, 165, 90, 88, 161, 90, 165, 2, 2.42702
24, 1, wb, attraction, a-b-db, 5, 2, 6, 27, 165, 90, 88, 161, 90, 165, 3, 1.00798
24, 1, wb, attraction, a-b-da, 9, 1, 6, 28, 60, 135, 129, 57, 135, 60, 2, 2.48377
24, 1, wb, attraction, a-b-da, 9, 1, 6, 28, 60, 135, 129, 57, 135, 60, 1, 0.969551
24, 1, wb, attraction, a-b-da, 5, 3, 6, 29, 195, 120, 190, 117, 120, 195, 2, 2.73639
24, 1, wb, attraction, a-b-da, 5, 3, 6, 29, 195, 120, 190, 117, 120, 195, 1, 0.737609
24, 1, wb, filler, NA, 999, 999, 6, 30, 119, 143, 92, 151, 184, 65, 2, 2.80028
24, 1, wb, filler, NA, 999, 999, 6, 30, 119, 143, 92, 151, 184, 65, 1, 0.935093
24, 1, wb, filler, NA, 999, 999, 6, 31, 136, 112, 96, 80, 95, 60, 3, 3.61513
24, 1, wb, filler, NA, 999, 999, 6, 31, 136, 112, 96, 80, 95, 60, 1, 0.709019
24, 1, wb, filler, NA, 999, 999, 6, 32, 70, 92, 122, 154, 82, 90, 1, 2.12155
24, 1, wb, filler, NA, 999, 999, 6, 32, 70, 92, 122, 154, 82, 90, 2, 0.672296
24, 1, wb, attraction, a-b-da, 5, 2, 6, 33, 161, 88, 165, 90, 90, 165, 2, 1.85206
24, 1, wb, attraction, a-b-da, 5, 2, 6, 33, 161, 88, 165, 90, 90, 165, 3, 0.610212
24, 1, wb, attraction, a-b-db, 9, 3, 6, 34, 114, 186, 195, 120, 120, 195, 2, 2.01389
24, 1, wb, attraction, a-b-db, 9, 3, 6, 34, 114, 186, 195, 120, 120, 195, 3, 0.619854
24, 1, wb, attraction, a-b-da, 14, 1, 6, 35, 60, 135, 125, 56, 135, 60, 2, 1.59331
24, 1, wb, attraction, a-b-da, 14, 1, 6, 35, 60, 135, 125, 56, 135, 60, 3, 0.832446
24, 1, wb, attraction, a-b-db, 14, 2, 6, 36, 83, 153, 165, 90, 90, 165, 2, 2.1119
24, 1, wb, attraction, a-b-db, 14, 2, 6, 36, 83, 153, 165, 90, 90, 165, 3, 0.710045
24, 1, wb, attraction, a-b-da, 2, 1, 6, 37, 135, 60, 134, 59, 60, 135, 2, 1.44275
24, 1, wb, attraction, a-b-da, 2, 1, 6, 37, 135, 60, 134, 59, 60, 135, 3, 0.904275
24, 1, wb, attraction, a-b-da, 14, 1, 7, 1, 135, 60, 60, 135, 125, 56, 2, 2.73504
24, 1, wb, attraction, a-b-da, 14, 1, 7, 1, 135, 60, 60, 135, 125, 56, 1, 0.915135
24, 1, wb, attraction, a-b-db, 2, 3, 7, 2, 119, 193, 120, 195, 195, 120, 2, 2.59295
24, 1, wb, attraction, a-b-db, 2, 3, 7, 2, 119, 193, 120, 195, 195, 120, 3, 4.20936
24, 1, wb, attraction, a-b-db, 14, 1, 7, 3, 56, 125, 60, 135, 135, 60, 2, 4.5754
24, 1, wb, attraction, a-b-db, 14, 1, 7, 3, 56, 125, 60, 135, 135, 60, 3, 0.885005
24, 1, wb, attraction, a-b-db, 14, 3, 7, 4, 120, 195, 111, 181, 195, 120, 2, 1.56713
24, 1, wb, attraction, a-b-db, 14, 3, 7, 4, 120, 195, 111, 181, 195, 120, 1, 1.4718
24, 1, wb, attraction, a-b-da, 5, 3, 7, 5, 195, 120, 120, 195, 190, 117, 3, 2.70609
24, 1, wb, attraction, a-b-da, 5, 3, 7, 5, 195, 120, 120, 195, 190, 117, 2, 0.534987
24, 1, wb, attraction, a-b-da, 5, 2, 7, 6, 161, 88, 90, 165, 165, 90, 3, 2.46189
24, 1, wb, attraction, a-b-da, 5, 2, 7, 6, 161, 88, 90, 165, 165, 90, 2, 3.23323
24, 1, wb, attraction, a-b-db, 5, 1, 7, 7, 58, 132, 135, 60, 60, 135, 2, 1.9404
24, 1, wb, attraction, a-b-db, 5, 1, 7, 7, 58, 132, 135, 60, 60, 135, 1, 0.79873
24, 1, wb, filler, NA, 999, 999, 7, 8, 99, 82, 121, 119, 191, 95, 1, 1.50887
24, 1, wb, filler, NA, 999, 999, 7, 8, 99, 82, 121, 119, 191, 95, 3, 0.91928
24, 1, wb, attraction, a-b-da, 2, 2, 7, 9, 165, 90, 163, 89, 90, 165, 1, 1.54437
24, 1, wb, attraction, a-b-da, 2, 2, 7, 9, 165, 90, 163, 89, 90, 165, 2, 0.74645
24, 1, wb, attraction, a-b-da, 2, 3, 7, 10, 195, 120, 120, 195, 193, 119, 1, 1.31384
24, 1, wb, attraction, a-b-da, 2, 3, 7, 10, 195, 120, 120, 195, 193, 119, 2, 0.548426
24, 1, wb, attraction, a-b-db, 14, 2, 7, 11, 83, 153, 165, 90, 90, 165, 2, 1.68226
24, 1, wb, attraction, a-b-db, 14, 2, 7, 11, 83, 153, 165, 90, 90, 165, 3, 0.622644
24, 1, wb, attraction, a-b-da, 9, 2, 7, 12, 90, 165, 157, 86, 165, 90, 2, 1.76676
24, 1, wb, attraction, a-b-da, 9, 2, 7, 12, 90, 165, 157, 86, 165, 90, 1, 0.660389
24, 1, wb, attraction, a-b-db, 5, 3, 7, 13, 120, 195, 195, 120, 117, 190, 2, 1.466
24, 1, wb, attraction, a-b-db, 5, 3, 7, 13, 120, 195, 195, 120, 117, 190, 1, 0.876138
24, 1, wb, attraction, a-b-da, 14, 3, 7, 14, 120, 195, 181, 111, 195, 120, 2, 2.15982
24, 1, wb, attraction, a-b-da, 14, 3, 7, 14, 120, 195, 181, 111, 195, 120, 1, 0.849395
24, 1, wb, attraction, a-b-db, 2, 1, 7, 15, 60, 135, 59, 134, 135, 60, 2, 1.692
24, 1, wb, attraction, a-b-db, 2, 1, 7, 15, 60, 135, 59, 134, 135, 60, 1, 2.87205
24, 1, wb, attraction, a-b-da, 5, 1, 7, 16, 135, 60, 60, 135, 132, 58, 2, 3.51501
24, 1, wb, attraction, a-b-da, 5, 1, 7, 16, 135, 60, 60, 135, 132, 58, 3, 0.579381
24, 1, wb, attraction, a-b-da, 9, 1, 7, 17, 135, 60, 129, 57, 60, 135, 2, 4.5382
24, 1, wb, attraction, a-b-da, 9, 1, 7, 17, 135, 60, 129, 57, 60, 135, 3, 1.13978
24, 1, wb, catch, NA, 999, 999, 7, 18, 147, 168, 102, 93, 157, 98, 2, 1.26817
24, 1, wb, catch, NA, 999, 999, 7, 18, 147, 168, 102, 93, 157, 98, 1, 0.807853
24, 1, wb, filler, NA, 999, 999, 7, 19, 150, 131, 192, 114, 152, 77, 3, 1.69366
24, 1, wb, filler, NA, 999, 999, 7, 19, 150, 131, 192, 114, 152, 77, 2, 1.2497
24, 1, wb, filler, NA, 999, 999, 7, 20, 155, 65, 118, 61, 87, 124, 2, 2.0609
24, 1, wb, filler, NA, 999, 999, 7, 20, 155, 65, 118, 61, 87, 124, 3, 0.673549
24, 1, wb, attraction, a-b-da, 9, 3, 7, 21, 195, 120, 120, 195, 186, 114, 3, 7.02709
24, 1, wb, attraction, a-b-da, 9, 3, 7, 21, 195, 120, 120, 195, 186, 114, 2, 0.777107
24, 1, wb, attraction, a-b-da, 2, 1, 7, 22, 60, 135, 135, 60, 134, 59, 2, 1.63016
24, 1, wb, attraction, a-b-da, 2, 1, 7, 22, 60, 135, 135, 60, 134, 59, 1, 1.96428
24, 1, wb, filler, NA, 999, 999, 7, 23, 67, 82, 180, 100, 125, 190, 1, 1.49191
24, 1, wb, filler, NA, 999, 999, 7, 23, 67, 82, 180, 100, 125, 190, 3, 0.790272
24, 1, wb, attraction, a-b-db, 5, 2, 7, 24, 90, 165, 88, 161, 165, 90, 3, 2.58105
24, 1, wb, attraction, a-b-db, 5, 2, 7, 24, 90, 165, 88, 161, 165, 90, 1, 0.67836
24, 1, wb, attraction, a-b-db, 2, 2, 7, 25, 165, 90, 89, 163, 90, 165, 2, 2.82328
24, 1, wb, attraction, a-b-db, 2, 2, 7, 25, 165, 90, 89, 163, 90, 165, 3, 0.70044
24, 1, wb, attraction, a-b-db, 9, 2, 7, 26, 86, 157, 90, 165, 165, 90, 3, 1.40671
24, 1, wb, attraction, a-b-db, 9, 2, 7, 26, 86, 157, 90, 165, 165, 90, 1, 0.631704
24, 1, wb, filler, NA, 999, 999, 7, 27, 106, 150, 162, 141, 161, 89, 3, 1.87498
24, 1, wb, filler, NA, 999, 999, 7, 27, 106, 150, 162, 141, 161, 89, 2, 0.767347
24, 1, wb, attraction, a-b-db, 9, 3, 7, 28, 120, 195, 195, 120, 114, 186, 3, 1.44737
24, 1, wb, attraction, a-b-db, 9, 3, 7, 28, 120, 195, 195, 120, 114, 186, 1, 0.722157
24, 1, wb, attraction, a-b-da, 14, 2, 7, 29, 90, 165, 165, 90, 153, 83, 3, 2.55753
24, 1, wb, attraction, a-b-da, 14, 2, 7, 29, 90, 165, 165, 90, 153, 83, 1, 0.844395
24, 1, wb, filler, NA, 999, 999, 7, 30, 124, 90, 187, 112, 90, 150, 1, 2.99364
24, 1, wb, filler, NA, 999, 999, 7, 30, 124, 90, 187, 112, 90, 150, 2, 0.840459
24, 1, wb, filler, NA, 999, 999, 7, 31, 87, 124, 180, 82, 137, 148, 1, 3.4614
24, 1, wb, filler, NA, 999, 999, 7, 31, 87, 124, 180, 82, 137, 148, 3, 0.953993
24, 1, wb, filler, NA, 999, 999, 7, 32, 111, 172, 115, 124, 175, 141, 2, 2.55191
24, 1, wb, filler, NA, 999, 999, 7, 32, 111, 172, 115, 124, 175, 141, 3, 0.777186
24, 1, wb, catch, NA, 999, 999, 7, 33, 99, 96, 128, 127, 140, 175, 1, 1.37741
24, 1, wb, catch, NA, 999, 999, 7, 33, 99, 96, 128, 127, 140, 175, 3, 0.735798
24, 1, wb, catch, NA, 999, 999, 7, 34, 150, 165, 98, 157, 99, 96, 3, 2.0095
24, 1, wb, catch, NA, 999, 999, 7, 34, 150, 165, 98, 157, 99, 96, 1, 0.798137
24, 1, wb, filler, NA, 999, 999, 7, 35, 162, 78, 87, 109, 85, 62, 3, 1.22847
24, 1, wb, filler, NA, 999, 999, 7, 35, 162, 78, 87, 109, 85, 62, 1, 1.14914
24, 1, wb, attraction, a-b-db, 9, 1, 7, 36, 57, 129, 135, 60, 60, 135, 2, 1.44992
24, 1, wb, attraction, a-b-db, 9, 1, 7, 36, 57, 129, 135, 60, 60, 135, 3, 0.616095
24, 1, wb, filler, NA, 999, 999, 7, 37, 152, 61, 185, 60, 97, 193, 2, 1.49198
24, 1, wb, filler, NA, 999, 999, 7, 37, 152, 61, 185, 60, 97, 193, 3, 0.734939
24, 1, wb, filler, NA, 999, 999, 8, 1, 115, 136, 135, 124, 137, 173, 2, 3.68894
24, 1, wb, filler, NA, 999, 999, 8, 1, 115, 136, 135, 124, 137, 173, 3, 0.701388
24, 1, wb, attraction, a-b-da, 2, 1, 8, 2, 134, 59, 135, 60, 60, 135, 2, 7.90091
24, 1, wb, attraction, a-b-da, 2, 1, 8, 2, 134, 59, 135, 60, 60, 135, 3, 0.645529
24, 1, wb, attraction, a-b-da, 14, 1, 8, 3, 135, 60, 125, 56, 60, 135, 2, 1.31407
24, 1, wb, attraction, a-b-da, 14, 1, 8, 3, 135, 60, 125, 56, 60, 135, 1, 0.77941
24, 1, wb, catch, NA, 999, 999, 8, 4, 149, 166, 130, 125, 94, 101, 3, 1.14703
24, 1, wb, catch, NA, 999, 999, 8, 4, 149, 166, 130, 125, 94, 101, 1, 0.747741
24, 1, wb, attraction, a-b-db, 2, 1, 8, 5, 135, 60, 60, 135, 59, 134, 1, 1.72424
24, 1, wb, attraction, a-b-db, 2, 1, 8, 5, 135, 60, 60, 135, 59, 134, 2, 0.783477
24, 1, wb, attraction, a-b-db, 5, 3, 8, 6, 117, 190, 195, 120, 120, 195, 2, 2.45247
24, 1, wb, attraction, a-b-db, 5, 3, 8, 6, 117, 190, 195, 120, 120, 195, 3, 0.674134
24, 1, wb, attraction, a-b-da, 5, 1, 8, 7, 132, 58, 60, 135, 135, 60, 3, 1.69142
24, 1, wb, attraction, a-b-da, 5, 1, 8, 7, 132, 58, 60, 135, 135, 60, 2, 0.583493
24, 1, wb, attraction, a-b-db, 5, 1, 8, 8, 135, 60, 60, 135, 58, 132, 1, 1.77417
24, 1, wb, attraction, a-b-db, 5, 1, 8, 8, 135, 60, 60, 135, 58, 132, 2, 0.735735
24, 1, wb, attraction, a-b-db, 5, 2, 8, 9, 165, 90, 88, 161, 90, 165, 3, 1.77461
24, 1, wb, attraction, a-b-db, 5, 2, 8, 9, 165, 90, 88, 161, 90, 165, 1, 0.631257
24, 1, wb, attraction, a-b-da, 2, 3, 8, 10, 195, 120, 120, 195, 193, 119, 1, 2.22668
24, 1, wb, attraction, a-b-da, 2, 3, 8, 10, 195, 120, 120, 195, 193, 119, 2, 0.52888
24, 1, wb, attraction, a-b-da, 14, 3, 8, 11, 120, 195, 195, 120, 181, 111, 2, 2.38748
24, 1, wb, attraction, a-b-da, 14, 3, 8, 11, 120, 195, 195, 120, 181, 111, 1, 3.68986
24, 1, wb, attraction, a-b-da, 9, 2, 8, 12, 165, 90, 90, 165, 157, 86, 3, 2.33955
24, 1, wb, attraction, a-b-da, 9, 2, 8, 12, 165, 90, 90, 165, 157, 86, 2, 1.12458
24, 1, wb, catch, NA, 999, 999, 8, 13, 143, 172, 115, 80, 140, 115, 2, 1.14915
24, 1, wb, catch, NA, 999, 999, 8, 13, 143, 172, 115, 80, 140, 115, 1, 0.767388
24, 1, wb, attraction, a-b-db, 9, 1, 8, 14, 57, 129, 60, 135, 135, 60, 1, 1.62958
24, 1, wb, attraction, a-b-db, 9, 1, 8, 14, 57, 129, 60, 135, 135, 60, 3, 0.86683
24, 1, wb, attraction, a-b-da, 5, 3, 8, 15, 120, 195, 195, 120, 190, 117, 3, 5.25582
24, 1, wb, attraction, a-b-da, 5, 3, 8, 15, 120, 195, 195, 120, 190, 117, 1, 1.08997
24, 1, wb, attraction, a-b-da, 5, 2, 8, 16, 161, 88, 90, 165, 165, 90, 3, 2.13322
24, 1, wb, attraction, a-b-da, 5, 2, 8, 16, 161, 88, 90, 165, 165, 90, 2, 1.35876
24, 1, wb, attraction, a-b-db, 14, 2, 8, 17, 165, 90, 90, 165, 83, 153, 3, 1.81297
24, 1, wb, attraction, a-b-db, 14, 2, 8, 17, 165, 90, 90, 165, 83, 153, 1, 0.651438
24, 1, wb, attraction, a-b-db, 2, 3, 8, 18, 195, 120, 119, 193, 120, 195, 1, 2.80778
24, 1, wb, attraction, a-b-db, 2, 3, 8, 18, 195, 120, 119, 193, 120, 195, 3, 0.732933
24, 1, wb, attraction, a-b-db, 14, 3, 8, 19, 195, 120, 111, 181, 120, 195, 2, 3.38342
24, 1, wb, attraction, a-b-db, 14, 3, 8, 19, 195, 120, 111, 181, 120, 195, 3, 1.13246
24, 1, wb, attraction, a-b-da, 14, 2, 8, 20, 90, 165, 153, 83, 165, 90, 2, 1.53215
24, 1, wb, attraction, a-b-da, 14, 2, 8, 20, 90, 165, 153, 83, 165, 90, 3, 2.02997
24, 1, wb, filler, NA, 999, 999, 8, 21, 89, 73, 151, 78, 116, 186, 1, 1.50711
24, 1, wb, filler, NA, 999, 999, 8, 21, 89, 73, 151, 78, 116, 186, 3, 0.716451
24, 1, wb, filler, NA, 999, 999, 8, 22, 191, 90, 146, 193, 136, 173, 1, 1.73517
24, 1, wb, filler, NA, 999, 999, 8, 22, 191, 90, 146, 193, 136, 173, 2, 1.99181
24, 1, wb, catch, NA, 999, 999, 8, 23, 128, 187, 127, 68, 123, 132, 2, 1.91953
24, 1, wb, catch, NA, 999, 999, 8, 23, 128, 187, 127, 68, 123, 132, 1, 1.21513
24, 1, wb, filler, NA, 999, 999, 8, 24, 150, 130, 134, 117, 156, 66, 3, 2.40494
24, 1, wb, filler, NA, 999, 999, 8, 24, 150, 130, 134, 117, 156, 66, 1, 0.83767
24, 1, wb, attraction, a-b-db, 2, 2, 8, 25, 89, 163, 165, 90, 90, 165, 2, 3.2248
24, 1, wb, attraction, a-b-db, 2, 2, 8, 25, 89, 163, 165, 90, 90, 165, 3, 1.55778
24, 1, wb, filler, NA, 999, 999, 8, 26, 181, 133, 194, 169, 148, 64, 3, 2.22167
24, 1, wb, filler, NA, 999, 999, 8, 26, 181, 133, 194, 169, 148, 64, 2, 1.11554
24, 1, wb, filler, NA, 999, 999, 8, 27, 147, 99, 108, 114, 79, 144, 2, 2.58134
24, 1, wb, filler, NA, 999, 999, 8, 27, 147, 99, 108, 114, 79, 144, 1, 0.964998
24, 1, wb, attraction, a-b-da, 2, 2, 8, 28, 90, 165, 165, 90, 163, 89, 3, 4.17931
24, 1, wb, attraction, a-b-da, 2, 2, 8, 28, 90, 165, 165, 90, 163, 89, 1, 0.795297
24, 1, wb, attraction, a-b-da, 9, 1, 8, 29, 129, 57, 60, 135, 135, 60, 1, 3.07968
24, 1, wb, attraction, a-b-da, 9, 1, 8, 29, 129, 57, 60, 135, 135, 60, 2, 0.763834
24, 1, wb, filler, NA, 999, 999, 8, 30, 71, 161, 162, 150, 145, 182, 1, 1.65098
24, 1, wb, filler, NA, 999, 999, 8, 30, 71, 161, 162, 150, 145, 182, 3, 0.887062
24, 1, wb, attraction, a-b-db, 9, 2, 8, 31, 90, 165, 165, 90, 86, 157, 2, 1.89743
24, 1, wb, attraction, a-b-db, 9, 2, 8, 31, 90, 165, 165, 90, 86, 157, 1, 2.17889
24, 1, wb, attraction, a-b-db, 9, 3, 8, 32, 114, 186, 195, 120, 120, 195, 2, 4.34681
24, 1, wb, attraction, a-b-db, 9, 3, 8, 32, 114, 186, 195, 120, 120, 195, 3, 0.755226
24, 1, wb, filler, NA, 999, 999, 8, 33, 60, 131, 88, 128, 61, 160, 1, 8.15449
24, 1, wb, filler, NA, 999, 999, 8, 33, 60, 131, 88, 128, 61, 160, 2, 0.802933
24, 1, wb, filler, NA, 999, 999, 8, 34, 122, 116, 137, 90, 110, 116, 2, 1.20685
24, 1, wb, filler, NA, 999, 999, 8, 34, 122, 116, 137, 90, 110, 116, 1, 1.70253
24, 1, wb, attraction, a-b-da, 9, 3, 8, 35, 195, 120, 186, 114, 120, 195, 1, 2.95056
24, 1, wb, attraction, a-b-da, 9, 3, 8, 35, 195, 120, 186, 114, 120, 195, 3, 1.02301
24, 1, wb, attraction, a-b-db, 14, 1, 8, 36, 135, 60, 60, 135, 56, 125, 3, 3.89144
24, 1, wb, attraction, a-b-db, 14, 1, 8, 36, 135, 60, 60, 135, 56, 125, 1, 0.974998
24, 1, wb, filler, NA, 999, 999, 8, 37, 148, 85, 78, 160, 145, 123, 2, 2.11027
24, 1, wb, filler, NA, 999, 999, 8, 37, 148, 85, 78, 160, 145, 123, 3, 0.729842
