sub_n, computer_n, bw_cond, effect, set, distance, diag, block_n, trial_n, h1, w1, h2, w2, h3, w3, choice, rt 
20, 1, wb, practice, NA, 999, 999, 0, 1, 82, 147, 95, 141, 137, 157, 1, 7.12696
20, 1, wb, practice, NA, 999, 999, 0, 1, 82, 147, 95, 141, 137, 157, 3, 1.89186
20, 1, wb, practice, NA, 999, 999, 0, 2, 112, 187, 151, 174, 190, 125, 1, 6.87553
20, 1, wb, practice, NA, 999, 999, 0, 2, 112, 187, 151, 174, 190, 125, 3, 4.59042
20, 1, wb, practice, NA, 999, 999, 0, 3, 154, 138, 60, 87, 70, 140, 2, 2.03367
20, 1, wb, practice, NA, 999, 999, 0, 3, 154, 138, 60, 87, 70, 140, 1, 1.94077
20, 1, wb, attraction, a-b-da, 2, 2, 1, 1, 90, 165, 163, 89, 165, 90, 3, 6.69997
20, 1, wb, attraction, a-b-da, 2, 2, 1, 1, 90, 165, 163, 89, 165, 90, 1, 2.01692
20, 1, wb, attraction, a-b-da, 5, 3, 1, 2, 190, 117, 195, 120, 120, 195, 1, 2.34689
20, 1, wb, attraction, a-b-da, 5, 3, 1, 2, 190, 117, 195, 120, 120, 195, 3, 1.67723
20, 1, wb, filler, NA, 999, 999, 1, 3, 146, 128, 139, 105, 129, 153, 2, 2.59681
20, 1, wb, filler, NA, 999, 999, 1, 3, 146, 128, 139, 105, 129, 153, 3, 1.70823
20, 1, wb, filler, NA, 999, 999, 1, 4, 166, 95, 135, 131, 158, 124, 1, 4.12649
20, 1, wb, filler, NA, 999, 999, 1, 4, 166, 95, 135, 131, 158, 124, 3, 1.94406
20, 1, wb, catch, NA, 999, 999, 1, 5, 147, 168, 138, 117, 77, 118, 3, 1.7433
20, 1, wb, catch, NA, 999, 999, 1, 5, 147, 168, 138, 117, 77, 118, 1, 1.36142
20, 1, wb, attraction, a-b-da, 2, 1, 1, 6, 135, 60, 60, 135, 134, 59, 3, 3.35345
20, 1, wb, attraction, a-b-da, 2, 1, 1, 6, 135, 60, 60, 135, 134, 59, 1, 1.75436
20, 1, wb, catch, NA, 999, 999, 1, 7, 124, 191, 107, 88, 100, 155, 2, 1.88034
20, 1, wb, catch, NA, 999, 999, 1, 7, 124, 191, 107, 88, 100, 155, 1, 0.955494
20, 1, wb, attraction, a-b-db, 14, 1, 1, 8, 135, 60, 60, 135, 56, 125, 1, 5.56442
20, 1, wb, attraction, a-b-db, 14, 1, 1, 8, 135, 60, 60, 135, 56, 125, 2, 3.12333
20, 1, wb, attraction, a-b-da, 9, 1, 1, 9, 135, 60, 60, 135, 129, 57, 3, 3.44318
20, 1, wb, attraction, a-b-da, 9, 1, 1, 9, 135, 60, 60, 135, 129, 57, 2, 3.07291
20, 1, wb, attraction, a-b-db, 2, 2, 1, 10, 165, 90, 90, 165, 89, 163, 3, 10.4814
20, 1, wb, attraction, a-b-db, 2, 2, 1, 10, 165, 90, 90, 165, 89, 163, 1, 1.24378
20, 1, wb, attraction, a-b-da, 5, 2, 1, 11, 90, 165, 165, 90, 161, 88, 3, 3.51924
20, 1, wb, attraction, a-b-da, 5, 2, 1, 11, 90, 165, 165, 90, 161, 88, 1, 2.60005
20, 1, wb, attraction, a-b-db, 14, 2, 1, 12, 90, 165, 83, 153, 165, 90, 2, 2.68574
20, 1, wb, attraction, a-b-db, 14, 2, 1, 12, 90, 165, 83, 153, 165, 90, 1, 2.12863
20, 1, wb, attraction, a-b-da, 5, 1, 1, 13, 60, 135, 135, 60, 132, 58, 3, 4.19116
20, 1, wb, attraction, a-b-da, 5, 1, 1, 13, 60, 135, 135, 60, 132, 58, 1, 1.42201
20, 1, wb, filler, NA, 999, 999, 1, 14, 84, 145, 172, 143, 180, 158, 1, 1.5499
20, 1, wb, filler, NA, 999, 999, 1, 14, 84, 145, 172, 143, 180, 158, 3, 1.21965
20, 1, wb, attraction, a-b-db, 9, 1, 1, 15, 135, 60, 57, 129, 60, 135, 2, 4.02796
20, 1, wb, attraction, a-b-db, 9, 1, 1, 15, 135, 60, 57, 129, 60, 135, 1, 1.80907
20, 1, wb, attraction, a-b-da, 9, 3, 1, 16, 195, 120, 120, 195, 186, 114, 3, 3.44478
20, 1, wb, attraction, a-b-da, 9, 3, 1, 16, 195, 120, 120, 195, 186, 114, 2, 1.88148
20, 1, wb, attraction, a-b-da, 14, 1, 1, 17, 60, 135, 125, 56, 135, 60, 2, 2.13957
20, 1, wb, attraction, a-b-da, 14, 1, 1, 17, 60, 135, 125, 56, 135, 60, 1, 2.72339
20, 1, wb, filler, NA, 999, 999, 1, 18, 66, 69, 175, 153, 123, 74, 1, 3.75731
20, 1, wb, filler, NA, 999, 999, 1, 18, 66, 69, 175, 153, 123, 74, 2, 1.238
20, 1, wb, filler, NA, 999, 999, 1, 19, 126, 140, 133, 139, 147, 164, 1, 1.89772
20, 1, wb, filler, NA, 999, 999, 1, 19, 126, 140, 133, 139, 147, 164, 3, 1.54793
20, 1, wb, filler, NA, 999, 999, 1, 20, 126, 82, 161, 81, 60, 171, 3, 4.08474
20, 1, wb, filler, NA, 999, 999, 1, 20, 126, 82, 161, 81, 60, 171, 2, 2.07834
20, 1, wb, attraction, a-b-db, 14, 3, 1, 21, 111, 181, 120, 195, 195, 120, 1, 2.09813
20, 1, wb, attraction, a-b-db, 14, 3, 1, 21, 111, 181, 120, 195, 195, 120, 2, 0.979593
20, 1, wb, attraction, a-b-db, 5, 1, 1, 22, 58, 132, 135, 60, 60, 135, 1, 4.25767
20, 1, wb, attraction, a-b-db, 5, 1, 1, 22, 58, 132, 135, 60, 60, 135, 2, 1.87141
20, 1, wb, attraction, a-b-db, 5, 3, 1, 23, 117, 190, 120, 195, 195, 120, 1, 6.59165
20, 1, wb, attraction, a-b-db, 5, 3, 1, 23, 117, 190, 120, 195, 195, 120, 3, 2.85509
20, 1, wb, filler, NA, 999, 999, 1, 24, 72, 103, 60, 102, 170, 60, 2, 1.46683
20, 1, wb, filler, NA, 999, 999, 1, 24, 72, 103, 60, 102, 170, 60, 3, 1.99855
20, 1, wb, attraction, a-b-da, 2, 3, 1, 25, 193, 119, 120, 195, 195, 120, 1, 4.90781
20, 1, wb, attraction, a-b-da, 2, 3, 1, 25, 193, 119, 120, 195, 195, 120, 2, 1.44396
20, 1, wb, attraction, a-b-da, 14, 2, 1, 26, 90, 165, 153, 83, 165, 90, 1, 6.16844
20, 1, wb, attraction, a-b-da, 14, 2, 1, 26, 90, 165, 153, 83, 165, 90, 2, 3.32163
20, 1, wb, attraction, a-b-db, 5, 2, 1, 27, 88, 161, 165, 90, 90, 165, 2, 3.0096
20, 1, wb, attraction, a-b-db, 5, 2, 1, 27, 88, 161, 165, 90, 90, 165, 3, 1.47054
20, 1, wb, filler, NA, 999, 999, 1, 28, 99, 182, 115, 71, 181, 126, 2, 1.56949
20, 1, wb, filler, NA, 999, 999, 1, 28, 99, 182, 115, 71, 181, 126, 3, 0.994238
20, 1, wb, filler, NA, 999, 999, 1, 29, 141, 81, 174, 159, 56, 157, 3, 2.19936
20, 1, wb, filler, NA, 999, 999, 1, 29, 141, 81, 174, 159, 56, 157, 2, 0.913149
20, 1, wb, attraction, a-b-da, 14, 3, 1, 30, 120, 195, 195, 120, 181, 111, 3, 2.89081
20, 1, wb, attraction, a-b-da, 14, 3, 1, 30, 120, 195, 195, 120, 181, 111, 1, 1.00513
20, 1, wb, attraction, a-b-da, 9, 2, 1, 31, 165, 90, 90, 165, 157, 86, 3, 4.63247
20, 1, wb, attraction, a-b-da, 9, 2, 1, 31, 165, 90, 90, 165, 157, 86, 2, 1.80539
20, 1, wb, attraction, a-b-db, 2, 3, 1, 32, 120, 195, 195, 120, 119, 193, 2, 4.08991
20, 1, wb, attraction, a-b-db, 2, 3, 1, 32, 120, 195, 195, 120, 119, 193, 3, 1.63094
20, 1, wb, catch, NA, 999, 999, 1, 33, 156, 159, 87, 108, 125, 130, 2, 1.49095
20, 1, wb, catch, NA, 999, 999, 1, 33, 156, 159, 87, 108, 125, 130, 1, 0.732843
20, 1, wb, attraction, a-b-db, 9, 2, 1, 34, 86, 157, 165, 90, 90, 165, 1, 3.04706
20, 1, wb, attraction, a-b-db, 9, 2, 1, 34, 86, 157, 165, 90, 90, 165, 3, 1.42809
20, 1, wb, attraction, a-b-db, 9, 3, 1, 35, 120, 195, 114, 186, 195, 120, 1, 2.01765
20, 1, wb, attraction, a-b-db, 9, 3, 1, 35, 120, 195, 114, 186, 195, 120, 3, 2.86192
20, 1, wb, attraction, a-b-db, 2, 1, 1, 36, 135, 60, 59, 134, 60, 135, 3, 3.7061
20, 1, wb, attraction, a-b-db, 2, 1, 1, 36, 135, 60, 59, 134, 60, 135, 1, 1.74127
20, 1, wb, filler, NA, 999, 999, 1, 37, 125, 141, 68, 97, 138, 144, 2, 1.36323
20, 1, wb, filler, NA, 999, 999, 1, 37, 125, 141, 68, 97, 138, 144, 3, 1.01242
20, 1, wb, attraction, a-b-db, 9, 1, 2, 1, 135, 60, 60, 135, 57, 129, 3, 2.42529
20, 1, wb, attraction, a-b-db, 9, 1, 2, 1, 135, 60, 60, 135, 57, 129, 2, 1.82917
20, 1, wb, filler, NA, 999, 999, 2, 2, 140, 79, 157, 81, 195, 123, 1, 2.96255
20, 1, wb, filler, NA, 999, 999, 2, 2, 140, 79, 157, 81, 195, 123, 3, 1.34713
20, 1, wb, filler, NA, 999, 999, 2, 3, 170, 107, 140, 63, 166, 164, 2, 2.2118
20, 1, wb, filler, NA, 999, 999, 2, 3, 170, 107, 140, 63, 166, 164, 3, 1.70415
20, 1, wb, attraction, a-b-da, 2, 1, 2, 4, 60, 135, 134, 59, 135, 60, 1, 3.34804
20, 1, wb, attraction, a-b-da, 2, 1, 2, 4, 60, 135, 134, 59, 135, 60, 2, 1.0189
20, 1, wb, catch, NA, 999, 999, 2, 5, 101, 154, 195, 120, 90, 105, 3, 2.03889
20, 1, wb, catch, NA, 999, 999, 2, 5, 101, 154, 195, 120, 90, 105, 2, 0.900058
20, 1, wb, catch, NA, 999, 999, 2, 6, 162, 153, 114, 141, 131, 64, 3, 1.63884
20, 1, wb, catch, NA, 999, 999, 2, 6, 162, 153, 114, 141, 131, 64, 1, 1.13148
20, 1, wb, attraction, a-b-da, 14, 1, 2, 7, 60, 135, 135, 60, 125, 56, 1, 3.8516
20, 1, wb, attraction, a-b-da, 14, 1, 2, 7, 60, 135, 135, 60, 125, 56, 2, 2.48905
20, 1, wb, attraction, a-b-da, 2, 3, 2, 8, 195, 120, 193, 119, 120, 195, 1, 4.35348
20, 1, wb, attraction, a-b-da, 2, 3, 2, 8, 195, 120, 193, 119, 120, 195, 3, 2.79614
20, 1, wb, filler, NA, 999, 999, 2, 9, 110, 140, 156, 181, 112, 90, 3, 1.54429
20, 1, wb, filler, NA, 999, 999, 2, 9, 110, 140, 156, 181, 112, 90, 2, 1.09118
20, 1, wb, attraction, a-b-db, 9, 3, 2, 10, 195, 120, 120, 195, 114, 186, 3, 2.5398
20, 1, wb, attraction, a-b-db, 9, 3, 2, 10, 195, 120, 120, 195, 114, 186, 2, 1.38902
20, 1, wb, attraction, a-b-db, 5, 3, 2, 11, 195, 120, 120, 195, 117, 190, 3, 2.70897
20, 1, wb, attraction, a-b-db, 5, 3, 2, 11, 195, 120, 120, 195, 117, 190, 1, 1.25413
20, 1, wb, attraction, a-b-db, 5, 1, 2, 12, 58, 132, 60, 135, 135, 60, 1, 2.47451
20, 1, wb, attraction, a-b-db, 5, 1, 2, 12, 58, 132, 60, 135, 135, 60, 2, 2.54214
20, 1, wb, attraction, a-b-da, 9, 1, 2, 13, 129, 57, 60, 135, 135, 60, 1, 2.42244
20, 1, wb, attraction, a-b-da, 9, 1, 2, 13, 129, 57, 60, 135, 135, 60, 2, 1.94839
20, 1, wb, attraction, a-b-da, 5, 3, 2, 14, 120, 195, 195, 120, 190, 117, 3, 2.54444
20, 1, wb, attraction, a-b-da, 5, 3, 2, 14, 120, 195, 195, 120, 190, 117, 1, 1.51356
20, 1, wb, attraction, a-b-db, 14, 1, 2, 15, 60, 135, 135, 60, 56, 125, 2, 1.89537
20, 1, wb, attraction, a-b-db, 14, 1, 2, 15, 60, 135, 135, 60, 56, 125, 3, 1.81475
20, 1, wb, filler, NA, 999, 999, 2, 16, 160, 121, 95, 73, 104, 139, 2, 1.22826
20, 1, wb, filler, NA, 999, 999, 2, 16, 160, 121, 95, 73, 104, 139, 1, 0.786267
20, 1, wb, attraction, a-b-db, 2, 2, 2, 17, 89, 163, 90, 165, 165, 90, 1, 3.12984
20, 1, wb, attraction, a-b-db, 2, 2, 2, 17, 89, 163, 90, 165, 165, 90, 3, 0.913505
20, 1, wb, filler, NA, 999, 999, 2, 18, 123, 96, 194, 87, 116, 191, 1, 1.96307
20, 1, wb, filler, NA, 999, 999, 2, 18, 123, 96, 194, 87, 116, 191, 3, 1.66762
20, 1, wb, attraction, a-b-da, 5, 2, 2, 19, 161, 88, 165, 90, 90, 165, 1, 2.09621
20, 1, wb, attraction, a-b-da, 5, 2, 2, 19, 161, 88, 165, 90, 90, 165, 3, 4.1751
20, 1, wb, attraction, a-b-db, 5, 2, 2, 20, 88, 161, 165, 90, 90, 165, 1, 3.15166
20, 1, wb, attraction, a-b-db, 5, 2, 2, 20, 88, 161, 165, 90, 90, 165, 3, 1.98089
20, 1, wb, attraction, a-b-db, 14, 3, 2, 21, 111, 181, 195, 120, 120, 195, 1, 2.07615
20, 1, wb, attraction, a-b-db, 14, 3, 2, 21, 111, 181, 195, 120, 120, 195, 3, 0.713778
20, 1, wb, filler, NA, 999, 999, 2, 22, 77, 134, 123, 183, 179, 173, 1, 1.4511
20, 1, wb, filler, NA, 999, 999, 2, 22, 77, 134, 123, 183, 179, 173, 3, 0.777362
20, 1, wb, filler, NA, 999, 999, 2, 23, 168, 119, 181, 100, 67, 184, 3, 1.63268
20, 1, wb, filler, NA, 999, 999, 2, 23, 168, 119, 181, 100, 67, 184, 1, 1.14937
20, 1, wb, attraction, a-b-db, 2, 3, 2, 24, 120, 195, 195, 120, 119, 193, 2, 2.70125
20, 1, wb, attraction, a-b-db, 2, 3, 2, 24, 120, 195, 195, 120, 119, 193, 1, 1.67875
20, 1, wb, attraction, a-b-da, 9, 3, 2, 25, 186, 114, 195, 120, 120, 195, 1, 2.10474
20, 1, wb, attraction, a-b-da, 9, 3, 2, 25, 186, 114, 195, 120, 120, 195, 3, 0.699681
20, 1, wb, filler, NA, 999, 999, 2, 26, 69, 85, 175, 145, 110, 190, 1, 1.22264
20, 1, wb, filler, NA, 999, 999, 2, 26, 69, 85, 175, 145, 110, 190, 2, 1.04503
20, 1, wb, attraction, a-b-da, 14, 2, 2, 27, 165, 90, 90, 165, 153, 83, 3, 2.61608
20, 1, wb, attraction, a-b-da, 14, 2, 2, 27, 165, 90, 90, 165, 153, 83, 2, 1.67821
20, 1, wb, attraction, a-b-db, 9, 2, 2, 28, 90, 165, 165, 90, 86, 157, 3, 3.761
20, 1, wb, attraction, a-b-db, 9, 2, 2, 28, 90, 165, 165, 90, 86, 157, 1, 2.96799
20, 1, wb, filler, NA, 999, 999, 2, 29, 173, 166, 140, 176, 71, 86, 3, 1.32706
20, 1, wb, filler, NA, 999, 999, 2, 29, 173, 166, 140, 176, 71, 86, 1, 0.896885
20, 1, wb, attraction, a-b-da, 2, 2, 2, 30, 90, 165, 165, 90, 163, 89, 3, 1.95475
20, 1, wb, attraction, a-b-da, 2, 2, 2, 30, 90, 165, 165, 90, 163, 89, 1, 0.763112
20, 1, wb, attraction, a-b-da, 14, 3, 2, 31, 181, 111, 195, 120, 120, 195, 1, 2.3176
20, 1, wb, attraction, a-b-da, 14, 3, 2, 31, 181, 111, 195, 120, 120, 195, 3, 1.03811
20, 1, wb, attraction, a-b-da, 9, 2, 2, 32, 157, 86, 165, 90, 90, 165, 1, 1.83418
20, 1, wb, attraction, a-b-da, 9, 2, 2, 32, 157, 86, 165, 90, 90, 165, 3, 2.2882
20, 1, wb, attraction, a-b-db, 2, 1, 2, 33, 60, 135, 135, 60, 59, 134, 2, 1.6649
20, 1, wb, attraction, a-b-db, 2, 1, 2, 33, 60, 135, 135, 60, 59, 134, 1, 1.98062
20, 1, wb, catch, NA, 999, 999, 2, 34, 92, 103, 149, 166, 143, 112, 1, 1.33186
20, 1, wb, catch, NA, 999, 999, 2, 34, 92, 103, 149, 166, 143, 112, 2, 1.03778
20, 1, wb, filler, NA, 999, 999, 2, 35, 134, 59, 63, 168, 110, 141, 1, 1.68146
20, 1, wb, filler, NA, 999, 999, 2, 35, 134, 59, 63, 168, 110, 141, 3, 0.831403
20, 1, wb, attraction, a-b-db, 14, 2, 2, 36, 83, 153, 165, 90, 90, 165, 1, 1.86493
20, 1, wb, attraction, a-b-db, 14, 2, 2, 36, 83, 153, 165, 90, 90, 165, 3, 1.05385
20, 1, wb, attraction, a-b-da, 5, 1, 2, 37, 60, 135, 132, 58, 135, 60, 3, 2.38505
20, 1, wb, attraction, a-b-da, 5, 1, 2, 37, 60, 135, 132, 58, 135, 60, 1, 1.84131
20, 1, wb, filler, NA, 999, 999, 3, 1, 100, 123, 124, 105, 155, 65, 3, 3.26176
20, 1, wb, filler, NA, 999, 999, 3, 1, 100, 123, 124, 105, 155, 65, 2, 0.998625
20, 1, wb, catch, NA, 999, 999, 3, 2, 130, 65, 163, 152, 106, 149, 1, 1.2366
20, 1, wb, catch, NA, 999, 999, 3, 2, 130, 65, 163, 152, 106, 149, 2, 1.04436
20, 1, wb, attraction, a-b-da, 9, 3, 3, 3, 120, 195, 186, 114, 195, 120, 2, 6.11167
20, 1, wb, attraction, a-b-da, 9, 3, 3, 3, 120, 195, 186, 114, 195, 120, 1, 0.967686
20, 1, wb, attraction, a-b-da, 2, 3, 3, 4, 193, 119, 120, 195, 195, 120, 1, 2.8576
20, 1, wb, attraction, a-b-da, 2, 3, 3, 4, 193, 119, 120, 195, 195, 120, 3, 1.47524
20, 1, wb, attraction, a-b-db, 2, 3, 3, 5, 120, 195, 195, 120, 119, 193, 1, 1.77591
20, 1, wb, attraction, a-b-db, 2, 3, 3, 5, 120, 195, 195, 120, 119, 193, 2, 1.62308
20, 1, wb, attraction, a-b-db, 5, 3, 3, 6, 117, 190, 195, 120, 120, 195, 1, 2.75711
20, 1, wb, attraction, a-b-db, 5, 3, 3, 6, 117, 190, 195, 120, 120, 195, 2, 1.29191
20, 1, wb, filler, NA, 999, 999, 3, 7, 87, 106, 177, 110, 162, 95, 1, 1.7736
20, 1, wb, filler, NA, 999, 999, 3, 7, 87, 106, 177, 110, 162, 95, 2, 0.846786
20, 1, wb, filler, NA, 999, 999, 3, 8, 161, 167, 110, 148, 159, 84, 3, 1.98615
20, 1, wb, filler, NA, 999, 999, 3, 8, 161, 167, 110, 148, 159, 84, 1, 0.689045
20, 1, wb, attraction, a-b-db, 5, 1, 3, 9, 58, 132, 135, 60, 60, 135, 1, 1.82083
20, 1, wb, attraction, a-b-db, 5, 1, 3, 9, 58, 132, 135, 60, 60, 135, 3, 4.89035
20, 1, wb, attraction, a-b-db, 14, 2, 3, 10, 83, 153, 165, 90, 90, 165, 1, 2.04294
20, 1, wb, attraction, a-b-db, 14, 2, 3, 10, 83, 153, 165, 90, 90, 165, 3, 1.45057
20, 1, wb, filler, NA, 999, 999, 3, 11, 150, 66, 84, 97, 131, 133, 2, 1.63724
20, 1, wb, filler, NA, 999, 999, 3, 11, 150, 66, 84, 97, 131, 133, 3, 1.28053
20, 1, wb, attraction, a-b-da, 5, 2, 3, 12, 90, 165, 165, 90, 161, 88, 3, 3.64607
20, 1, wb, attraction, a-b-da, 5, 2, 3, 12, 90, 165, 165, 90, 161, 88, 2, 2.21718
20, 1, wb, attraction, a-b-da, 14, 3, 3, 13, 195, 120, 120, 195, 181, 111, 3, 2.66304
20, 1, wb, attraction, a-b-da, 14, 3, 3, 13, 195, 120, 120, 195, 181, 111, 2, 1.00812
20, 1, wb, filler, NA, 999, 999, 3, 14, 101, 123, 138, 98, 124, 179, 1, 1.37376
20, 1, wb, filler, NA, 999, 999, 3, 14, 101, 123, 138, 98, 124, 179, 3, 0.872211
20, 1, wb, attraction, a-b-db, 5, 2, 3, 15, 165, 90, 90, 165, 88, 161, 1, 3.20171
20, 1, wb, attraction, a-b-db, 5, 2, 3, 15, 165, 90, 90, 165, 88, 161, 2, 5.06307
20, 1, wb, attraction, a-b-da, 14, 2, 3, 16, 90, 165, 165, 90, 153, 83, 3, 1.91359
20, 1, wb, attraction, a-b-da, 14, 2, 3, 16, 90, 165, 165, 90, 153, 83, 1, 1.31588
20, 1, wb, attraction, a-b-db, 9, 1, 3, 17, 57, 129, 60, 135, 135, 60, 1, 1.67812
20, 1, wb, attraction, a-b-db, 9, 1, 3, 17, 57, 129, 60, 135, 135, 60, 2, 1.35577
20, 1, wb, attraction, a-b-da, 5, 3, 3, 18, 120, 195, 190, 117, 195, 120, 1, 1.60752
20, 1, wb, attraction, a-b-da, 5, 3, 3, 18, 120, 195, 190, 117, 195, 120, 2, 1.6572
20, 1, wb, attraction, a-b-db, 9, 2, 3, 19, 165, 90, 86, 157, 90, 165, 3, 6.19537
20, 1, wb, attraction, a-b-db, 9, 2, 3, 19, 165, 90, 86, 157, 90, 165, 1, 2.07412
20, 1, wb, attraction, a-b-da, 9, 1, 3, 20, 129, 57, 135, 60, 60, 135, 1, 1.72246
20, 1, wb, attraction, a-b-da, 9, 1, 3, 20, 129, 57, 135, 60, 60, 135, 3, 2.39722
20, 1, wb, attraction, a-b-db, 14, 3, 3, 21, 195, 120, 120, 195, 111, 181, 3, 1.69917
20, 1, wb, attraction, a-b-db, 14, 3, 3, 21, 195, 120, 120, 195, 111, 181, 2, 1.0392
20, 1, wb, catch, NA, 999, 999, 3, 22, 116, 139, 104, 91, 188, 127, 2, 1.55442
20, 1, wb, catch, NA, 999, 999, 3, 22, 116, 139, 104, 91, 188, 127, 3, 0.676612
20, 1, wb, attraction, a-b-db, 14, 1, 3, 23, 60, 135, 56, 125, 135, 60, 1, 5.64709
20, 1, wb, attraction, a-b-db, 14, 1, 3, 23, 60, 135, 56, 125, 135, 60, 3, 1.41822
20, 1, wb, attraction, a-b-db, 2, 1, 3, 24, 60, 135, 59, 134, 135, 60, 1, 2.12721
20, 1, wb, attraction, a-b-db, 2, 1, 3, 24, 60, 135, 59, 134, 135, 60, 3, 2.15479
20, 1, wb, attraction, a-b-da, 14, 1, 3, 25, 135, 60, 125, 56, 60, 135, 2, 1.79347
20, 1, wb, attraction, a-b-da, 14, 1, 3, 25, 135, 60, 125, 56, 60, 135, 3, 1.29639
20, 1, wb, filler, NA, 999, 999, 3, 26, 131, 86, 184, 190, 106, 73, 3, 1.89851
20, 1, wb, filler, NA, 999, 999, 3, 26, 131, 86, 184, 190, 106, 73, 2, 0.868864
20, 1, wb, filler, NA, 999, 999, 3, 27, 121, 90, 158, 69, 91, 108, 3, 2.96793
20, 1, wb, filler, NA, 999, 999, 3, 27, 121, 90, 158, 69, 91, 108, 1, 3.0724
20, 1, wb, filler, NA, 999, 999, 3, 28, 74, 85, 172, 167, 115, 189, 1, 1.86585
20, 1, wb, filler, NA, 999, 999, 3, 28, 74, 85, 172, 167, 115, 189, 2, 1.47848
20, 1, wb, attraction, a-b-db, 9, 3, 3, 29, 195, 120, 120, 195, 114, 186, 3, 2.28045
20, 1, wb, attraction, a-b-db, 9, 3, 3, 29, 195, 120, 120, 195, 114, 186, 1, 0.965581
20, 1, wb, attraction, a-b-da, 2, 2, 3, 30, 163, 89, 165, 90, 90, 165, 1, 1.7486
20, 1, wb, attraction, a-b-da, 2, 2, 3, 30, 163, 89, 165, 90, 90, 165, 3, 0.732175
20, 1, wb, attraction, a-b-da, 9, 2, 3, 31, 90, 165, 157, 86, 165, 90, 2, 3.61459
20, 1, wb, attraction, a-b-da, 9, 2, 3, 31, 90, 165, 157, 86, 165, 90, 1, 0.896269
20, 1, wb, filler, NA, 999, 999, 3, 32, 108, 65, 103, 174, 195, 152, 1, 1.67513
20, 1, wb, filler, NA, 999, 999, 3, 32, 108, 65, 103, 174, 195, 152, 3, 0.761777
20, 1, wb, attraction, a-b-da, 5, 1, 3, 33, 135, 60, 132, 58, 60, 135, 2, 1.23927
20, 1, wb, attraction, a-b-da, 5, 1, 3, 33, 135, 60, 132, 58, 60, 135, 3, 2.35875
20, 1, wb, attraction, a-b-da, 2, 1, 3, 34, 135, 60, 134, 59, 60, 135, 3, 2.03548
20, 1, wb, attraction, a-b-da, 2, 1, 3, 34, 135, 60, 134, 59, 60, 135, 2, 2.36415
20, 1, wb, filler, NA, 999, 999, 3, 35, 64, 144, 182, 151, 189, 106, 1, 1.61845
20, 1, wb, filler, NA, 999, 999, 3, 35, 64, 144, 182, 151, 189, 106, 2, 0.774239
20, 1, wb, attraction, a-b-db, 2, 2, 3, 36, 90, 165, 165, 90, 89, 163, 1, 2.70917
20, 1, wb, attraction, a-b-db, 2, 2, 3, 36, 90, 165, 165, 90, 89, 163, 2, 0.770342
20, 1, wb, catch, NA, 999, 999, 3, 37, 93, 162, 120, 75, 170, 145, 2, 1.43172
20, 1, wb, catch, NA, 999, 999, 3, 37, 93, 162, 120, 75, 170, 145, 3, 0.740307
20, 1, wb, attraction, a-b-db, 2, 3, 4, 1, 195, 120, 119, 193, 120, 195, 2, 4.06226
20, 1, wb, attraction, a-b-db, 2, 3, 4, 1, 195, 120, 119, 193, 120, 195, 3, 1.27973
20, 1, wb, filler, NA, 999, 999, 4, 2, 185, 184, 126, 127, 82, 99, 3, 1.72567
20, 1, wb, filler, NA, 999, 999, 4, 2, 185, 184, 126, 127, 82, 99, 1, 0.678484
20, 1, wb, attraction, a-b-da, 2, 2, 4, 3, 90, 165, 165, 90, 163, 89, 1, 12.7285
20, 1, wb, attraction, a-b-da, 2, 2, 4, 3, 90, 165, 165, 90, 163, 89, 2, 4.40814
20, 1, wb, attraction, a-b-da, 5, 2, 4, 4, 165, 90, 161, 88, 90, 165, 2, 6.82711
20, 1, wb, attraction, a-b-da, 5, 2, 4, 4, 165, 90, 161, 88, 90, 165, 1, 0.953095
20, 1, wb, filler, NA, 999, 999, 4, 5, 189, 70, 64, 167, 162, 146, 2, 5.15284
20, 1, wb, filler, NA, 999, 999, 4, 5, 189, 70, 64, 167, 162, 146, 3, 0.886593
20, 1, wb, attraction, a-b-da, 9, 3, 4, 6, 120, 195, 186, 114, 195, 120, 2, 6.41854
20, 1, wb, attraction, a-b-da, 9, 3, 4, 6, 120, 195, 186, 114, 195, 120, 1, 0.551232
20, 1, wb, attraction, a-b-db, 9, 2, 4, 7, 90, 165, 165, 90, 86, 157, 2, 3.46994
20, 1, wb, attraction, a-b-db, 9, 2, 4, 7, 90, 165, 165, 90, 86, 157, 3, 1.09898
20, 1, wb, filler, NA, 999, 999, 4, 8, 178, 74, 186, 120, 72, 61, 3, 1.80325
20, 1, wb, filler, NA, 999, 999, 4, 8, 178, 74, 186, 120, 72, 61, 2, 0.803525
20, 1, wb, attraction, a-b-db, 9, 1, 4, 9, 135, 60, 57, 129, 60, 135, 2, 3.10614
20, 1, wb, attraction, a-b-db, 9, 1, 4, 9, 135, 60, 57, 129, 60, 135, 3, 1.38095
20, 1, wb, catch, NA, 999, 999, 4, 10, 130, 65, 97, 158, 143, 172, 1, 1.59497
20, 1, wb, catch, NA, 999, 999, 4, 10, 130, 65, 97, 158, 143, 172, 3, 0.816074
20, 1, wb, filler, NA, 999, 999, 4, 11, 176, 137, 180, 99, 125, 119, 3, 3.15063
20, 1, wb, filler, NA, 999, 999, 4, 11, 176, 137, 180, 99, 125, 119, 1, 0.821636
20, 1, wb, attraction, a-b-db, 5, 3, 4, 12, 195, 120, 120, 195, 117, 190, 1, 6.61151
20, 1, wb, attraction, a-b-db, 5, 3, 4, 12, 195, 120, 120, 195, 117, 190, 3, 0.983625
20, 1, wb, attraction, a-b-da, 9, 2, 4, 13, 165, 90, 157, 86, 90, 165, 2, 2.63895
20, 1, wb, attraction, a-b-da, 9, 2, 4, 13, 165, 90, 157, 86, 90, 165, 3, 0.907847
20, 1, wb, attraction, a-b-da, 5, 1, 4, 14, 135, 60, 132, 58, 60, 135, 2, 2.50142
20, 1, wb, attraction, a-b-da, 5, 1, 4, 14, 135, 60, 132, 58, 60, 135, 3, 0.663694
20, 1, wb, attraction, a-b-db, 14, 2, 4, 15, 165, 90, 90, 165, 83, 153, 3, 9.08334
20, 1, wb, attraction, a-b-db, 14, 2, 4, 15, 165, 90, 90, 165, 83, 153, 1, 1.61236
20, 1, wb, attraction, a-b-da, 5, 3, 4, 16, 190, 117, 195, 120, 120, 195, 1, 2.2418
20, 1, wb, attraction, a-b-da, 5, 3, 4, 16, 190, 117, 195, 120, 120, 195, 3, 2.99309
20, 1, wb, filler, NA, 999, 999, 4, 17, 90, 170, 90, 59, 124, 194, 2, 1.26005
20, 1, wb, filler, NA, 999, 999, 4, 17, 90, 170, 90, 59, 124, 194, 3, 0.610974
20, 1, wb, filler, NA, 999, 999, 4, 18, 195, 173, 109, 72, 109, 151, 2, 2.09568
20, 1, wb, filler, NA, 999, 999, 4, 18, 195, 173, 109, 72, 109, 151, 1, 1.27369
20, 1, wb, attraction, a-b-da, 2, 3, 4, 19, 120, 195, 195, 120, 193, 119, 3, 3.62194
20, 1, wb, attraction, a-b-da, 2, 3, 4, 19, 120, 195, 195, 120, 193, 119, 1, 0.7858
20, 1, wb, catch, NA, 999, 999, 4, 20, 90, 165, 148, 167, 122, 73, 3, 2.07187
20, 1, wb, catch, NA, 999, 999, 4, 20, 90, 165, 148, 167, 122, 73, 2, 1.31716
20, 1, wb, catch, NA, 999, 999, 4, 21, 101, 94, 138, 117, 170, 145, 1, 1.22911
20, 1, wb, catch, NA, 999, 999, 4, 21, 101, 94, 138, 117, 170, 145, 3, 0.715615
20, 1, wb, filler, NA, 999, 999, 4, 22, 70, 77, 151, 77, 177, 189, 1, 1.748
20, 1, wb, filler, NA, 999, 999, 4, 22, 70, 77, 151, 77, 177, 189, 3, 0.77263
20, 1, wb, attraction, a-b-db, 2, 1, 4, 23, 60, 135, 135, 60, 59, 134, 3, 1.53859
20, 1, wb, attraction, a-b-db, 2, 1, 4, 23, 60, 135, 135, 60, 59, 134, 2, 1.52617
20, 1, wb, attraction, a-b-da, 14, 3, 4, 24, 195, 120, 181, 111, 120, 195, 1, 9.23157
20, 1, wb, attraction, a-b-da, 14, 3, 4, 24, 195, 120, 181, 111, 120, 195, 3, 3.32214
20, 1, wb, attraction, a-b-da, 14, 1, 4, 25, 60, 135, 125, 56, 135, 60, 1, 4.61174
20, 1, wb, attraction, a-b-da, 14, 1, 4, 25, 60, 135, 125, 56, 135, 60, 3, 0.960947
20, 1, wb, attraction, a-b-db, 5, 2, 4, 26, 90, 165, 88, 161, 165, 90, 1, 2.18368
20, 1, wb, attraction, a-b-db, 5, 2, 4, 26, 90, 165, 88, 161, 165, 90, 2, 2.23711
20, 1, wb, attraction, a-b-db, 14, 3, 4, 27, 111, 181, 195, 120, 120, 195, 1, 1.71428
20, 1, wb, attraction, a-b-db, 14, 3, 4, 27, 111, 181, 195, 120, 120, 195, 3, 1.48352
20, 1, wb, attraction, a-b-da, 14, 2, 4, 28, 90, 165, 153, 83, 165, 90, 2, 4.01667
20, 1, wb, attraction, a-b-da, 14, 2, 4, 28, 90, 165, 153, 83, 165, 90, 1, 0.635393
20, 1, wb, filler, NA, 999, 999, 4, 29, 163, 111, 177, 151, 71, 90, 3, 1.22508
20, 1, wb, filler, NA, 999, 999, 4, 29, 163, 111, 177, 151, 71, 90, 2, 0.621395
20, 1, wb, attraction, a-b-db, 9, 3, 4, 30, 114, 186, 195, 120, 120, 195, 1, 2.42007
20, 1, wb, attraction, a-b-db, 9, 3, 4, 30, 114, 186, 195, 120, 120, 195, 3, 1.50449
20, 1, wb, attraction, a-b-db, 2, 2, 4, 31, 89, 163, 165, 90, 90, 165, 1, 1.80369
20, 1, wb, attraction, a-b-db, 2, 2, 4, 31, 89, 163, 165, 90, 90, 165, 3, 0.699294
20, 1, wb, attraction, a-b-da, 9, 1, 4, 32, 135, 60, 129, 57, 60, 135, 2, 2.38245
20, 1, wb, attraction, a-b-da, 9, 1, 4, 32, 135, 60, 129, 57, 60, 135, 3, 2.95538
20, 1, wb, filler, NA, 999, 999, 4, 33, 112, 176, 93, 163, 169, 176, 2, 2.61771
20, 1, wb, filler, NA, 999, 999, 4, 33, 112, 176, 93, 163, 169, 176, 3, 0.944965
20, 1, wb, attraction, a-b-db, 5, 1, 4, 34, 60, 135, 135, 60, 58, 132, 2, 3.16005
20, 1, wb, attraction, a-b-db, 5, 1, 4, 34, 60, 135, 135, 60, 58, 132, 3, 1.14606
20, 1, wb, attraction, a-b-db, 14, 1, 4, 35, 60, 135, 56, 125, 135, 60, 2, 1.48135
20, 1, wb, attraction, a-b-db, 14, 1, 4, 35, 60, 135, 56, 125, 135, 60, 3, 1.86934
20, 1, wb, filler, NA, 999, 999, 4, 36, 102, 99, 160, 193, 114, 127, 1, 2.13345
20, 1, wb, filler, NA, 999, 999, 4, 36, 102, 99, 160, 193, 114, 127, 2, 0.784431
20, 1, wb, attraction, a-b-da, 2, 1, 4, 37, 134, 59, 135, 60, 60, 135, 3, 2.8802
20, 1, wb, attraction, a-b-da, 2, 1, 4, 37, 134, 59, 135, 60, 60, 135, 2, 1.12998
20, 1, wb, filler, NA, 999, 999, 5, 1, 189, 122, 168, 121, 75, 79, 3, 6.36757
20, 1, wb, filler, NA, 999, 999, 5, 1, 189, 122, 168, 121, 75, 79, 1, 0.814198
20, 1, wb, attraction, a-b-db, 9, 1, 5, 2, 135, 60, 57, 129, 60, 135, 2, 3.64511
20, 1, wb, attraction, a-b-db, 9, 1, 5, 2, 135, 60, 57, 129, 60, 135, 1, 1.89701
20, 1, wb, filler, NA, 999, 999, 5, 3, 67, 98, 98, 73, 186, 170, 1, 3.0357
20, 1, wb, filler, NA, 999, 999, 5, 3, 67, 98, 98, 73, 186, 170, 3, 1.61878
20, 1, wb, attraction, a-b-da, 5, 3, 5, 4, 190, 117, 120, 195, 195, 120, 1, 2.82208
20, 1, wb, attraction, a-b-da, 5, 3, 5, 4, 190, 117, 120, 195, 195, 120, 2, 0.796221
20, 1, wb, attraction, a-b-da, 14, 3, 5, 5, 195, 120, 181, 111, 120, 195, 2, 1.76923
20, 1, wb, attraction, a-b-da, 14, 3, 5, 5, 195, 120, 181, 111, 120, 195, 3, 0.778145
20, 1, wb, catch, NA, 999, 999, 5, 6, 162, 153, 152, 103, 118, 77, 3, 1.68114
20, 1, wb, catch, NA, 999, 999, 5, 6, 162, 153, 152, 103, 118, 77, 1, 1.82002
20, 1, wb, attraction, a-b-da, 9, 3, 5, 7, 195, 120, 120, 195, 186, 114, 3, 2.49724
20, 1, wb, attraction, a-b-da, 9, 3, 5, 7, 195, 120, 120, 195, 186, 114, 1, 1.18855
20, 1, wb, attraction, a-b-da, 2, 3, 5, 8, 195, 120, 120, 195, 193, 119, 3, 2.81843
20, 1, wb, attraction, a-b-da, 2, 3, 5, 8, 195, 120, 120, 195, 193, 119, 2, 1.56813
20, 1, wb, attraction, a-b-da, 9, 2, 5, 9, 165, 90, 157, 86, 90, 165, 2, 3.19858
20, 1, wb, attraction, a-b-da, 9, 2, 5, 9, 165, 90, 157, 86, 90, 165, 1, 2.37372
20, 1, wb, attraction, a-b-db, 2, 2, 5, 10, 90, 165, 165, 90, 89, 163, 3, 2.76289
20, 1, wb, attraction, a-b-db, 2, 2, 5, 10, 90, 165, 165, 90, 89, 163, 1, 2.21905
20, 1, wb, attraction, a-b-db, 14, 1, 5, 11, 135, 60, 56, 125, 60, 135, 2, 4.70395
20, 1, wb, attraction, a-b-db, 14, 1, 5, 11, 135, 60, 56, 125, 60, 135, 3, 1.48324
20, 1, wb, attraction, a-b-da, 14, 1, 5, 12, 125, 56, 135, 60, 60, 135, 1, 1.6437
20, 1, wb, attraction, a-b-da, 14, 1, 5, 12, 125, 56, 135, 60, 60, 135, 3, 1.3851
20, 1, wb, filler, NA, 999, 999, 5, 13, 151, 99, 192, 113, 156, 191, 1, 1.48808
20, 1, wb, filler, NA, 999, 999, 5, 13, 151, 99, 192, 113, 156, 191, 3, 0.691229
20, 1, wb, filler, NA, 999, 999, 5, 14, 99, 65, 184, 165, 186, 164, 1, 1.54927
20, 1, wb, filler, NA, 999, 999, 5, 14, 99, 65, 184, 165, 186, 164, 2, 4.6764
20, 1, wb, filler, NA, 999, 999, 5, 15, 68, 159, 157, 132, 167, 73, 1, 1.25534
20, 1, wb, filler, NA, 999, 999, 5, 15, 68, 159, 157, 132, 167, 73, 2, 0.76428
20, 1, wb, attraction, a-b-db, 2, 3, 5, 16, 119, 193, 120, 195, 195, 120, 1, 1.68617
20, 1, wb, attraction, a-b-db, 2, 3, 5, 16, 119, 193, 120, 195, 195, 120, 3, 3.00952
20, 1, wb, catch, NA, 999, 999, 5, 17, 69, 126, 145, 170, 92, 163, 1, 2.27592
20, 1, wb, catch, NA, 999, 999, 5, 17, 69, 126, 145, 170, 92, 163, 2, 0.706031
20, 1, wb, attraction, a-b-db, 14, 2, 5, 18, 90, 165, 83, 153, 165, 90, 3, 4.24243
20, 1, wb, attraction, a-b-db, 14, 2, 5, 18, 90, 165, 83, 153, 165, 90, 1, 1.9984
20, 1, wb, attraction, a-b-da, 9, 1, 5, 19, 135, 60, 129, 57, 60, 135, 2, 2.07559
20, 1, wb, attraction, a-b-da, 9, 1, 5, 19, 135, 60, 129, 57, 60, 135, 1, 1.34465
20, 1, wb, attraction, a-b-da, 2, 1, 5, 20, 135, 60, 60, 135, 134, 59, 2, 4.57481
20, 1, wb, attraction, a-b-da, 2, 1, 5, 20, 135, 60, 60, 135, 134, 59, 1, 1.80923
20, 1, wb, attraction, a-b-da, 14, 2, 5, 21, 153, 83, 90, 165, 165, 90, 1, 2.14063
20, 1, wb, attraction, a-b-da, 14, 2, 5, 21, 153, 83, 90, 165, 165, 90, 2, 0.735621
20, 1, wb, attraction, a-b-db, 14, 3, 5, 22, 195, 120, 120, 195, 111, 181, 3, 2.85424
20, 1, wb, attraction, a-b-db, 14, 3, 5, 22, 195, 120, 120, 195, 111, 181, 2, 1.1421
20, 1, wb, filler, NA, 999, 999, 5, 23, 152, 130, 89, 111, 164, 99, 2, 1.26925
20, 1, wb, filler, NA, 999, 999, 5, 23, 152, 130, 89, 111, 164, 99, 1, 0.710591
20, 1, wb, catch, NA, 999, 999, 5, 24, 144, 171, 121, 134, 132, 63, 3, 1.53817
20, 1, wb, catch, NA, 999, 999, 5, 24, 144, 171, 121, 134, 132, 63, 1, 0.721765
20, 1, wb, attraction, a-b-db, 9, 2, 5, 25, 165, 90, 86, 157, 90, 165, 1, 3.20428
20, 1, wb, attraction, a-b-db, 9, 2, 5, 25, 165, 90, 86, 157, 90, 165, 3, 0.843986
20, 1, wb, attraction, a-b-db, 5, 1, 5, 26, 60, 135, 58, 132, 135, 60, 2, 3.87117
20, 1, wb, attraction, a-b-db, 5, 1, 5, 26, 60, 135, 58, 132, 135, 60, 1, 1.7696
20, 1, wb, attraction, a-b-da, 5, 1, 5, 27, 135, 60, 132, 58, 60, 135, 3, 1.7444
20, 1, wb, attraction, a-b-da, 5, 1, 5, 27, 135, 60, 132, 58, 60, 135, 1, 0.850091
20, 1, wb, attraction, a-b-db, 5, 3, 5, 28, 117, 190, 195, 120, 120, 195, 1, 2.92645
20, 1, wb, attraction, a-b-db, 5, 3, 5, 28, 117, 190, 195, 120, 120, 195, 3, 0.951129
20, 1, wb, filler, NA, 999, 999, 5, 29, 163, 58, 149, 190, 138, 134, 1, 4.31164
20, 1, wb, filler, NA, 999, 999, 5, 29, 163, 58, 149, 190, 138, 134, 2, 1.1064
20, 1, wb, attraction, a-b-db, 5, 2, 5, 30, 88, 161, 90, 165, 165, 90, 1, 5.80363
20, 1, wb, attraction, a-b-db, 5, 2, 5, 30, 88, 161, 90, 165, 165, 90, 2, 1.38537
20, 1, wb, filler, NA, 999, 999, 5, 31, 76, 136, 141, 108, 141, 60, 3, 1.93316
20, 1, wb, filler, NA, 999, 999, 5, 31, 76, 136, 141, 108, 141, 60, 2, 0.958629
20, 1, wb, attraction, a-b-da, 2, 2, 5, 32, 165, 90, 163, 89, 90, 165, 1, 3.72787
20, 1, wb, attraction, a-b-da, 2, 2, 5, 32, 165, 90, 163, 89, 90, 165, 3, 1.7441
20, 1, wb, attraction, a-b-da, 5, 2, 5, 33, 90, 165, 161, 88, 165, 90, 2, 2.25689
20, 1, wb, attraction, a-b-da, 5, 2, 5, 33, 90, 165, 161, 88, 165, 90, 1, 0.844597
20, 1, wb, attraction, a-b-db, 2, 1, 5, 34, 59, 134, 135, 60, 60, 135, 3, 1.9287
20, 1, wb, attraction, a-b-db, 2, 1, 5, 34, 59, 134, 135, 60, 60, 135, 1, 2.283
20, 1, wb, filler, NA, 999, 999, 5, 35, 175, 118, 177, 146, 96, 183, 3, 1.74015
20, 1, wb, filler, NA, 999, 999, 5, 35, 175, 118, 177, 146, 96, 183, 2, 0.711921
20, 1, wb, filler, NA, 999, 999, 5, 36, 179, 183, 178, 82, 136, 181, 2, 2.15903
20, 1, wb, filler, NA, 999, 999, 5, 36, 179, 183, 178, 82, 136, 181, 1, 1.29459
20, 1, wb, attraction, a-b-db, 9, 3, 5, 37, 195, 120, 120, 195, 114, 186, 3, 3.42724
20, 1, wb, attraction, a-b-db, 9, 3, 5, 37, 195, 120, 120, 195, 114, 186, 1, 1.40841
20, 1, wb, attraction, a-b-db, 14, 2, 6, 1, 83, 153, 90, 165, 165, 90, 1, 4.04481
20, 1, wb, attraction, a-b-db, 14, 2, 6, 1, 83, 153, 90, 165, 165, 90, 2, 1.01939
20, 1, wb, attraction, a-b-da, 5, 1, 6, 2, 132, 58, 135, 60, 60, 135, 3, 1.90343
20, 1, wb, attraction, a-b-da, 5, 1, 6, 2, 132, 58, 135, 60, 60, 135, 1, 3.12484
20, 1, wb, attraction, a-b-db, 5, 3, 6, 3, 120, 195, 117, 190, 195, 120, 2, 2.36272
20, 1, wb, attraction, a-b-db, 5, 3, 6, 3, 120, 195, 117, 190, 195, 120, 3, 1.70636
20, 1, wb, attraction, a-b-da, 2, 3, 6, 4, 195, 120, 120, 195, 193, 119, 3, 3.09159
20, 1, wb, attraction, a-b-da, 2, 3, 6, 4, 195, 120, 120, 195, 193, 119, 2, 1.12827
20, 1, wb, attraction, a-b-db, 2, 3, 6, 5, 119, 193, 195, 120, 120, 195, 1, 3.45674
20, 1, wb, attraction, a-b-db, 2, 3, 6, 5, 119, 193, 195, 120, 120, 195, 3, 1.43577
20, 1, wb, attraction, a-b-db, 5, 2, 6, 6, 90, 165, 165, 90, 88, 161, 2, 1.95248
20, 1, wb, attraction, a-b-db, 5, 2, 6, 6, 90, 165, 165, 90, 88, 161, 1, 1.71263
20, 1, wb, attraction, a-b-da, 9, 2, 6, 7, 157, 86, 90, 165, 165, 90, 1, 2.38499
20, 1, wb, attraction, a-b-da, 9, 2, 6, 7, 157, 86, 90, 165, 165, 90, 2, 0.658406
20, 1, wb, filler, NA, 999, 999, 6, 8, 119, 138, 127, 156, 145, 171, 1, 1.36543
20, 1, wb, filler, NA, 999, 999, 6, 8, 119, 138, 127, 156, 145, 171, 3, 1.01369
20, 1, wb, attraction, a-b-db, 5, 1, 6, 9, 58, 132, 135, 60, 60, 135, 1, 2.41837
20, 1, wb, attraction, a-b-db, 5, 1, 6, 9, 58, 132, 135, 60, 60, 135, 3, 1.05739
20, 1, wb, attraction, a-b-db, 14, 1, 6, 10, 56, 125, 135, 60, 60, 135, 1, 3.04614
20, 1, wb, attraction, a-b-db, 14, 1, 6, 10, 56, 125, 135, 60, 60, 135, 3, 0.801155
20, 1, wb, filler, NA, 999, 999, 6, 11, 68, 159, 180, 175, 126, 74, 2, 2.37424
20, 1, wb, filler, NA, 999, 999, 6, 11, 68, 159, 180, 175, 126, 74, 3, 2.3736
20, 1, wb, attraction, a-b-da, 9, 3, 6, 12, 186, 114, 195, 120, 120, 195, 2, 7.38872
20, 1, wb, attraction, a-b-da, 9, 3, 6, 12, 186, 114, 195, 120, 120, 195, 3, 1.49044
20, 1, wb, attraction, a-b-db, 9, 1, 6, 13, 60, 135, 135, 60, 57, 129, 3, 5.78139
20, 1, wb, attraction, a-b-db, 9, 1, 6, 13, 60, 135, 135, 60, 57, 129, 1, 1.97058
20, 1, wb, catch, NA, 999, 999, 6, 14, 124, 131, 85, 110, 195, 120, 2, 1.5383
20, 1, wb, catch, NA, 999, 999, 6, 14, 124, 131, 85, 110, 195, 120, 3, 0.666312
20, 1, wb, attraction, a-b-db, 2, 1, 6, 15, 60, 135, 59, 134, 135, 60, 3, 2.45593
20, 1, wb, attraction, a-b-db, 2, 1, 6, 15, 60, 135, 59, 134, 135, 60, 2, 0.779987
20, 1, wb, attraction, a-b-da, 5, 3, 6, 16, 120, 195, 195, 120, 190, 117, 3, 2.54595
20, 1, wb, attraction, a-b-da, 5, 3, 6, 16, 120, 195, 195, 120, 190, 117, 1, 0.816882
20, 1, wb, attraction, a-b-da, 2, 1, 6, 17, 135, 60, 60, 135, 134, 59, 3, 2.43107
20, 1, wb, attraction, a-b-da, 2, 1, 6, 17, 135, 60, 60, 135, 134, 59, 2, 2.13363
20, 1, wb, attraction, a-b-db, 14, 3, 6, 18, 111, 181, 120, 195, 195, 120, 1, 3.9873
20, 1, wb, attraction, a-b-db, 14, 3, 6, 18, 111, 181, 120, 195, 195, 120, 2, 1.81883
20, 1, wb, filler, NA, 999, 999, 6, 19, 157, 66, 134, 115, 182, 147, 1, 1.23797
20, 1, wb, filler, NA, 999, 999, 6, 19, 157, 66, 134, 115, 182, 147, 3, 2.15789
20, 1, wb, filler, NA, 999, 999, 6, 20, 143, 118, 99, 142, 117, 90, 3, 1.80506
20, 1, wb, filler, NA, 999, 999, 6, 20, 143, 118, 99, 142, 117, 90, 1, 0.699852
20, 1, wb, attraction, a-b-da, 14, 3, 6, 21, 181, 111, 195, 120, 120, 195, 1, 1.47782
20, 1, wb, attraction, a-b-da, 14, 3, 6, 21, 181, 111, 195, 120, 120, 195, 2, 0.887318
20, 1, wb, filler, NA, 999, 999, 6, 22, 96, 113, 57, 143, 170, 188, 2, 2.4342
20, 1, wb, filler, NA, 999, 999, 6, 22, 96, 113, 57, 143, 170, 188, 3, 1.2899
20, 1, wb, filler, NA, 999, 999, 6, 23, 112, 97, 135, 146, 75, 84, 3, 1.69013
20, 1, wb, filler, NA, 999, 999, 6, 23, 112, 97, 135, 146, 75, 84, 2, 1.76631
20, 1, wb, filler, NA, 999, 999, 6, 24, 98, 74, 146, 170, 176, 168, 1, 1.68494
20, 1, wb, filler, NA, 999, 999, 6, 24, 98, 74, 146, 170, 176, 168, 3, 0.951522
20, 1, wb, attraction, a-b-da, 14, 2, 6, 25, 90, 165, 165, 90, 153, 83, 3, 3.30386
20, 1, wb, attraction, a-b-da, 14, 2, 6, 25, 90, 165, 165, 90, 153, 83, 1, 1.68043
20, 1, wb, attraction, a-b-da, 2, 2, 6, 26, 163, 89, 165, 90, 90, 165, 1, 3.81224
20, 1, wb, attraction, a-b-da, 2, 2, 6, 26, 163, 89, 165, 90, 90, 165, 3, 1.34817
20, 1, wb, attraction, a-b-da, 14, 1, 6, 27, 60, 135, 125, 56, 135, 60, 3, 2.36347
20, 1, wb, attraction, a-b-da, 14, 1, 6, 27, 60, 135, 125, 56, 135, 60, 1, 1.15484
20, 1, wb, attraction, a-b-da, 9, 1, 6, 28, 60, 135, 129, 57, 135, 60, 2, 2.52907
20, 1, wb, attraction, a-b-da, 9, 1, 6, 28, 60, 135, 129, 57, 135, 60, 1, 0.932079
20, 1, wb, attraction, a-b-da, 5, 2, 6, 29, 90, 165, 161, 88, 165, 90, 3, 2.62034
20, 1, wb, attraction, a-b-da, 5, 2, 6, 29, 90, 165, 161, 88, 165, 90, 1, 1.10398
20, 1, wb, catch, NA, 999, 999, 6, 30, 164, 151, 105, 90, 124, 131, 2, 1.43605
20, 1, wb, catch, NA, 999, 999, 6, 30, 164, 151, 105, 90, 124, 131, 1, 0.816204
20, 1, wb, attraction, a-b-db, 9, 3, 6, 31, 195, 120, 114, 186, 120, 195, 3, 6.84564
20, 1, wb, attraction, a-b-db, 9, 3, 6, 31, 195, 120, 114, 186, 120, 195, 1, 1.67363
20, 1, wb, filler, NA, 999, 999, 6, 32, 70, 72, 148, 125, 166, 138, 1, 1.26941
20, 1, wb, filler, NA, 999, 999, 6, 32, 70, 72, 148, 125, 166, 138, 3, 1.01501
20, 1, wb, filler, NA, 999, 999, 6, 33, 61, 83, 56, 112, 66, 152, 1, 1.6463
20, 1, wb, filler, NA, 999, 999, 6, 33, 61, 83, 56, 112, 66, 152, 3, 1.53646
20, 1, wb, filler, NA, 999, 999, 6, 34, 121, 181, 131, 106, 161, 148, 2, 1.47446
20, 1, wb, filler, NA, 999, 999, 6, 34, 121, 181, 131, 106, 161, 148, 3, 0.822959
20, 1, wb, catch, NA, 999, 999, 6, 35, 137, 178, 96, 99, 129, 126, 2, 1.37227
20, 1, wb, catch, NA, 999, 999, 6, 35, 137, 178, 96, 99, 129, 126, 1, 1.09804
20, 1, wb, attraction, a-b-db, 2, 2, 6, 36, 165, 90, 89, 163, 90, 165, 3, 3.43733
20, 1, wb, attraction, a-b-db, 2, 2, 6, 36, 165, 90, 89, 163, 90, 165, 2, 2.25997
20, 1, wb, attraction, a-b-db, 9, 2, 6, 37, 165, 90, 86, 157, 90, 165, 2, 1.77406
20, 1, wb, attraction, a-b-db, 9, 2, 6, 37, 165, 90, 86, 157, 90, 165, 1, 1.36632
20, 1, wb, filler, NA, 999, 999, 7, 1, 93, 131, 92, 129, 62, 141, 3, 1.70036
20, 1, wb, filler, NA, 999, 999, 7, 1, 93, 131, 92, 129, 62, 141, 1, 3.58403
20, 1, wb, attraction, a-b-da, 2, 1, 7, 2, 134, 59, 135, 60, 60, 135, 2, 4.25332
20, 1, wb, attraction, a-b-da, 2, 1, 7, 2, 134, 59, 135, 60, 60, 135, 1, 1.01037
20, 1, wb, attraction, a-b-db, 5, 3, 7, 3, 117, 190, 195, 120, 120, 195, 1, 3.32771
20, 1, wb, attraction, a-b-db, 5, 3, 7, 3, 117, 190, 195, 120, 120, 195, 3, 2.51091
20, 1, wb, attraction, a-b-da, 9, 2, 7, 4, 90, 165, 157, 86, 165, 90, 2, 3.13658
20, 1, wb, attraction, a-b-da, 9, 2, 7, 4, 90, 165, 157, 86, 165, 90, 1, 0.802871
20, 1, wb, attraction, a-b-db, 14, 1, 7, 5, 60, 135, 56, 125, 135, 60, 2, 1.63225
20, 1, wb, attraction, a-b-db, 14, 1, 7, 5, 60, 135, 56, 125, 135, 60, 3, 1.52823
20, 1, wb, attraction, a-b-da, 14, 2, 7, 6, 153, 83, 90, 165, 165, 90, 1, 1.90127
20, 1, wb, attraction, a-b-da, 14, 2, 7, 6, 153, 83, 90, 165, 165, 90, 2, 0.929452
20, 1, wb, attraction, a-b-db, 2, 1, 7, 7, 59, 134, 135, 60, 60, 135, 1, 2.01029
20, 1, wb, attraction, a-b-db, 2, 1, 7, 7, 59, 134, 135, 60, 60, 135, 3, 1.37725
20, 1, wb, filler, NA, 999, 999, 7, 8, 72, 130, 89, 155, 75, 161, 1, 1.33416
20, 1, wb, filler, NA, 999, 999, 7, 8, 72, 130, 89, 155, 75, 161, 2, 0.743967
20, 1, wb, attraction, a-b-da, 9, 1, 7, 9, 135, 60, 129, 57, 60, 135, 2, 2.22589
20, 1, wb, attraction, a-b-da, 9, 1, 7, 9, 135, 60, 129, 57, 60, 135, 3, 0.992336
20, 1, wb, catch, NA, 999, 999, 7, 10, 167, 148, 101, 154, 100, 95, 3, 2.13609
20, 1, wb, catch, NA, 999, 999, 7, 10, 167, 148, 101, 154, 100, 95, 1, 0.759044
20, 1, wb, attraction, a-b-db, 5, 1, 7, 11, 58, 132, 60, 135, 135, 60, 2, 2.00541
20, 1, wb, attraction, a-b-db, 5, 1, 7, 11, 58, 132, 60, 135, 135, 60, 3, 0.869908
20, 1, wb, attraction, a-b-db, 9, 2, 7, 12, 86, 157, 165, 90, 90, 165, 1, 3.25714
20, 1, wb, attraction, a-b-db, 9, 2, 7, 12, 86, 157, 165, 90, 90, 165, 3, 1.27678
20, 1, wb, attraction, a-b-da, 5, 2, 7, 13, 165, 90, 161, 88, 90, 165, 3, 3.09467
20, 1, wb, attraction, a-b-da, 5, 2, 7, 13, 165, 90, 161, 88, 90, 165, 1, 0.722077
20, 1, wb, attraction, a-b-db, 9, 3, 7, 14, 120, 195, 114, 186, 195, 120, 2, 3.43664
20, 1, wb, attraction, a-b-db, 9, 3, 7, 14, 120, 195, 114, 186, 195, 120, 1, 1.45541
20, 1, wb, attraction, a-b-db, 9, 1, 7, 15, 60, 135, 57, 129, 135, 60, 2, 1.72279
20, 1, wb, attraction, a-b-db, 9, 1, 7, 15, 60, 135, 57, 129, 135, 60, 1, 1.32612
20, 1, wb, filler, NA, 999, 999, 7, 16, 166, 161, 108, 73, 126, 93, 2, 1.33478
20, 1, wb, filler, NA, 999, 999, 7, 16, 166, 161, 108, 73, 126, 93, 1, 0.728888
20, 1, wb, catch, NA, 999, 999, 7, 17, 102, 93, 148, 107, 132, 183, 1, 1.39552
20, 1, wb, catch, NA, 999, 999, 7, 17, 102, 93, 148, 107, 132, 183, 3, 0.6821
20, 1, wb, attraction, a-b-da, 2, 2, 7, 18, 90, 165, 163, 89, 165, 90, 3, 2.90559
20, 1, wb, attraction, a-b-da, 2, 2, 7, 18, 90, 165, 163, 89, 165, 90, 1, 0.803582
20, 1, wb, filler, NA, 999, 999, 7, 19, 148, 95, 90, 139, 191, 139, 2, 1.60358
20, 1, wb, filler, NA, 999, 999, 7, 19, 148, 95, 90, 139, 191, 139, 3, 0.809173
20, 1, wb, filler, NA, 999, 999, 7, 20, 64, 163, 125, 187, 186, 170, 1, 1.29602
20, 1, wb, filler, NA, 999, 999, 7, 20, 64, 163, 125, 187, 186, 170, 3, 0.835293
20, 1, wb, filler, NA, 999, 999, 7, 21, 75, 74, 167, 115, 94, 159, 1, 2.31004
20, 1, wb, filler, NA, 999, 999, 7, 21, 75, 74, 167, 115, 94, 159, 2, 0.745867
20, 1, wb, attraction, a-b-db, 2, 2, 7, 22, 89, 163, 90, 165, 165, 90, 3, 5.61858
20, 1, wb, attraction, a-b-db, 2, 2, 7, 22, 89, 163, 90, 165, 165, 90, 1, 0.815887
20, 1, wb, attraction, a-b-db, 5, 2, 7, 23, 88, 161, 165, 90, 90, 165, 2, 4.40237
20, 1, wb, attraction, a-b-db, 5, 2, 7, 23, 88, 161, 165, 90, 90, 165, 3, 0.769331
20, 1, wb, attraction, a-b-da, 14, 1, 7, 24, 125, 56, 60, 135, 135, 60, 1, 2.02508
20, 1, wb, attraction, a-b-da, 14, 1, 7, 24, 125, 56, 60, 135, 135, 60, 2, 2.89615
20, 1, wb, filler, NA, 999, 999, 7, 25, 90, 169, 185, 133, 143, 164, 1, 1.35091
20, 1, wb, filler, NA, 999, 999, 7, 25, 90, 169, 185, 133, 143, 164, 2, 0.777691
20, 1, wb, attraction, a-b-da, 2, 3, 7, 26, 193, 119, 120, 195, 195, 120, 3, 2.88077
20, 1, wb, attraction, a-b-da, 2, 3, 7, 26, 193, 119, 120, 195, 195, 120, 2, 1.19677
20, 1, wb, attraction, a-b-da, 5, 3, 7, 27, 120, 195, 195, 120, 190, 117, 3, 2.11478
20, 1, wb, attraction, a-b-da, 5, 3, 7, 27, 120, 195, 195, 120, 190, 117, 1, 1.94021
20, 1, wb, attraction, a-b-da, 5, 1, 7, 28, 132, 58, 135, 60, 60, 135, 1, 2.48364
20, 1, wb, attraction, a-b-da, 5, 1, 7, 28, 132, 58, 135, 60, 60, 135, 3, 1.5182
20, 1, wb, filler, NA, 999, 999, 7, 29, 105, 95, 112, 97, 67, 86, 3, 1.32013
20, 1, wb, filler, NA, 999, 999, 7, 29, 105, 95, 112, 97, 67, 86, 2, 0.720655
20, 1, wb, attraction, a-b-db, 14, 2, 7, 30, 83, 153, 90, 165, 165, 90, 1, 2.50652
20, 1, wb, attraction, a-b-db, 14, 2, 7, 30, 83, 153, 90, 165, 165, 90, 2, 1.20502
20, 1, wb, filler, NA, 999, 999, 7, 31, 94, 74, 129, 182, 117, 188, 1, 1.29973
20, 1, wb, filler, NA, 999, 999, 7, 31, 94, 74, 129, 182, 117, 188, 2, 0.805439
20, 1, wb, catch, NA, 999, 999, 7, 32, 105, 90, 183, 132, 105, 150, 1, 1.44242
20, 1, wb, catch, NA, 999, 999, 7, 32, 105, 90, 183, 132, 105, 150, 2, 0.721377
20, 1, wb, filler, NA, 999, 999, 7, 33, 114, 158, 126, 186, 115, 69, 3, 1.20284
20, 1, wb, filler, NA, 999, 999, 7, 33, 114, 158, 126, 186, 115, 69, 2, 1.65583
20, 1, wb, attraction, a-b-db, 14, 3, 7, 34, 120, 195, 111, 181, 195, 120, 2, 3.12348
20, 1, wb, attraction, a-b-db, 14, 3, 7, 34, 120, 195, 111, 181, 195, 120, 3, 0.885527
20, 1, wb, attraction, a-b-da, 9, 3, 7, 35, 186, 114, 195, 120, 120, 195, 1, 1.5288
20, 1, wb, attraction, a-b-da, 9, 3, 7, 35, 186, 114, 195, 120, 120, 195, 3, 1.01081
20, 1, wb, attraction, a-b-db, 2, 3, 7, 36, 120, 195, 119, 193, 195, 120, 1, 2.40789
20, 1, wb, attraction, a-b-db, 2, 3, 7, 36, 120, 195, 119, 193, 195, 120, 3, 0.712351
20, 1, wb, attraction, a-b-da, 14, 3, 7, 37, 181, 111, 120, 195, 195, 120, 1, 2.16731
20, 1, wb, attraction, a-b-da, 14, 3, 7, 37, 181, 111, 120, 195, 195, 120, 3, 0.887618
20, 1, wb, attraction, a-b-da, 9, 3, 8, 1, 186, 114, 195, 120, 120, 195, 1, 2.47288
20, 1, wb, attraction, a-b-da, 9, 3, 8, 1, 186, 114, 195, 120, 120, 195, 3, 0.918698
20, 1, wb, attraction, a-b-db, 9, 2, 8, 2, 90, 165, 165, 90, 86, 157, 3, 3.4482
20, 1, wb, attraction, a-b-db, 9, 2, 8, 2, 90, 165, 165, 90, 86, 157, 1, 0.827478
20, 1, wb, attraction, a-b-da, 2, 3, 8, 3, 193, 119, 120, 195, 195, 120, 3, 4.7694
20, 1, wb, attraction, a-b-da, 2, 3, 8, 3, 193, 119, 120, 195, 195, 120, 1, 1.05591
20, 1, wb, attraction, a-b-db, 14, 3, 8, 4, 111, 181, 195, 120, 120, 195, 1, 2.53966
20, 1, wb, attraction, a-b-db, 14, 3, 8, 4, 111, 181, 195, 120, 120, 195, 3, 2.37365
20, 1, wb, attraction, a-b-da, 9, 1, 8, 5, 60, 135, 135, 60, 129, 57, 3, 2.00254
20, 1, wb, attraction, a-b-da, 9, 1, 8, 5, 60, 135, 135, 60, 129, 57, 1, 1.20173
20, 1, wb, attraction, a-b-db, 2, 3, 8, 6, 120, 195, 195, 120, 119, 193, 3, 1.72094
20, 1, wb, attraction, a-b-db, 2, 3, 8, 6, 120, 195, 195, 120, 119, 193, 1, 0.735826
20, 1, wb, attraction, a-b-db, 5, 1, 8, 7, 135, 60, 60, 135, 58, 132, 3, 1.70535
20, 1, wb, attraction, a-b-db, 5, 1, 8, 7, 135, 60, 60, 135, 58, 132, 1, 2.09954
20, 1, wb, attraction, a-b-da, 2, 1, 8, 8, 134, 59, 60, 135, 135, 60, 2, 4.03719
20, 1, wb, attraction, a-b-da, 2, 1, 8, 8, 134, 59, 60, 135, 135, 60, 1, 1.24348
20, 1, wb, attraction, a-b-db, 5, 3, 8, 9, 120, 195, 195, 120, 117, 190, 2, 2.31012
20, 1, wb, attraction, a-b-db, 5, 3, 8, 9, 120, 195, 195, 120, 117, 190, 1, 0.715052
20, 1, wb, catch, NA, 999, 999, 8, 10, 92, 103, 156, 99, 177, 138, 1, 1.32464
20, 1, wb, catch, NA, 999, 999, 8, 10, 92, 103, 156, 99, 177, 138, 3, 0.660696
20, 1, wb, attraction, a-b-db, 14, 2, 8, 11, 83, 153, 165, 90, 90, 165, 1, 2.21626
20, 1, wb, attraction, a-b-db, 14, 2, 8, 11, 83, 153, 165, 90, 90, 165, 3, 1.23211
20, 1, wb, filler, NA, 999, 999, 8, 12, 65, 168, 102, 162, 159, 77, 1, 1.27572
20, 1, wb, filler, NA, 999, 999, 8, 12, 65, 168, 102, 162, 159, 77, 2, 3.11772
20, 1, wb, attraction, a-b-da, 14, 1, 8, 13, 60, 135, 135, 60, 125, 56, 3, 6.2628
20, 1, wb, attraction, a-b-da, 14, 1, 8, 13, 60, 135, 135, 60, 125, 56, 1, 0.763605
20, 1, wb, filler, NA, 999, 999, 8, 14, 139, 153, 120, 67, 147, 185, 2, 1.2107
20, 1, wb, filler, NA, 999, 999, 8, 14, 139, 153, 120, 67, 147, 185, 3, 0.680714
20, 1, wb, filler, NA, 999, 999, 8, 15, 166, 195, 193, 152, 121, 168, 3, 1.69969
20, 1, wb, filler, NA, 999, 999, 8, 15, 166, 195, 193, 152, 121, 168, 1, 1.75051
20, 1, wb, filler, NA, 999, 999, 8, 16, 97, 85, 135, 167, 118, 112, 1, 1.55768
20, 1, wb, filler, NA, 999, 999, 8, 16, 97, 85, 135, 167, 118, 112, 2, 0.830188
20, 1, wb, catch, NA, 999, 999, 8, 17, 105, 90, 129, 126, 129, 186, 1, 1.64343
20, 1, wb, catch, NA, 999, 999, 8, 17, 105, 90, 129, 126, 129, 186, 3, 1.04929
20, 1, wb, filler, NA, 999, 999, 8, 18, 168, 194, 158, 86, 119, 164, 2, 1.8939
20, 1, wb, filler, NA, 999, 999, 8, 18, 168, 194, 158, 86, 119, 164, 1, 0.735316
20, 1, wb, attraction, a-b-da, 14, 2, 8, 19, 90, 165, 165, 90, 153, 83, 3, 2.18437
20, 1, wb, attraction, a-b-da, 14, 2, 8, 19, 90, 165, 165, 90, 153, 83, 1, 1.52128
20, 1, wb, attraction, a-b-db, 9, 1, 8, 20, 57, 129, 135, 60, 60, 135, 1, 2.31265
20, 1, wb, attraction, a-b-db, 9, 1, 8, 20, 57, 129, 135, 60, 60, 135, 3, 1.57891
20, 1, wb, filler, NA, 999, 999, 8, 21, 179, 132, 175, 138, 59, 123, 3, 1.42493
20, 1, wb, filler, NA, 999, 999, 8, 21, 179, 132, 175, 138, 59, 123, 1, 1.28645
20, 1, wb, attraction, a-b-db, 14, 1, 8, 22, 60, 135, 135, 60, 56, 125, 3, 1.60833
20, 1, wb, attraction, a-b-db, 14, 1, 8, 22, 60, 135, 135, 60, 56, 125, 1, 1.95074
20, 1, wb, catch, NA, 999, 999, 8, 23, 162, 153, 100, 95, 140, 115, 2, 1.19849
20, 1, wb, catch, NA, 999, 999, 8, 23, 162, 153, 100, 95, 140, 115, 1, 0.725393
20, 1, wb, attraction, a-b-da, 5, 2, 8, 24, 90, 165, 161, 88, 165, 90, 2, 2.23978
20, 1, wb, attraction, a-b-da, 5, 2, 8, 24, 90, 165, 161, 88, 165, 90, 1, 1.11725
20, 1, wb, attraction, a-b-da, 5, 3, 8, 25, 195, 120, 120, 195, 190, 117, 3, 1.67946
20, 1, wb, attraction, a-b-da, 5, 3, 8, 25, 195, 120, 120, 195, 190, 117, 2, 0.985575
20, 1, wb, attraction, a-b-db, 9, 3, 8, 26, 114, 186, 195, 120, 120, 195, 1, 2.01585
20, 1, wb, attraction, a-b-db, 9, 3, 8, 26, 114, 186, 195, 120, 120, 195, 3, 1.24647
20, 1, wb, attraction, a-b-da, 5, 1, 8, 27, 132, 58, 135, 60, 60, 135, 2, 1.41849
20, 1, wb, attraction, a-b-da, 5, 1, 8, 27, 132, 58, 135, 60, 60, 135, 3, 1.3139
20, 1, wb, filler, NA, 999, 999, 8, 28, 154, 121, 106, 186, 187, 59, 3, 4.47307
20, 1, wb, filler, NA, 999, 999, 8, 28, 154, 121, 106, 186, 187, 59, 2, 2.18161
20, 1, wb, attraction, a-b-db, 5, 2, 8, 29, 165, 90, 90, 165, 88, 161, 1, 2.48299
20, 1, wb, attraction, a-b-db, 5, 2, 8, 29, 165, 90, 90, 165, 88, 161, 2, 2.27028
20, 1, wb, filler, NA, 999, 999, 8, 30, 70, 145, 78, 103, 95, 59, 3, 2.67278
20, 1, wb, filler, NA, 999, 999, 8, 30, 70, 145, 78, 103, 95, 59, 1, 0.76468
20, 1, wb, attraction, a-b-db, 2, 2, 8, 31, 90, 165, 89, 163, 165, 90, 3, 4.20295
20, 1, wb, attraction, a-b-db, 2, 2, 8, 31, 90, 165, 89, 163, 165, 90, 2, 0.98555
20, 1, wb, attraction, a-b-da, 2, 2, 8, 32, 163, 89, 165, 90, 90, 165, 1, 2.23307
20, 1, wb, attraction, a-b-da, 2, 2, 8, 32, 163, 89, 165, 90, 90, 165, 2, 1.29234
20, 1, wb, filler, NA, 999, 999, 8, 33, 80, 171, 84, 119, 71, 92, 3, 1.20809
20, 1, wb, filler, NA, 999, 999, 8, 33, 80, 171, 84, 119, 71, 92, 1, 0.822385
20, 1, wb, filler, NA, 999, 999, 8, 34, 177, 63, 95, 147, 96, 151, 1, 5.30688
20, 1, wb, filler, NA, 999, 999, 8, 34, 177, 63, 95, 147, 96, 151, 2, 1.37207
20, 1, wb, attraction, a-b-da, 9, 2, 8, 35, 90, 165, 157, 86, 165, 90, 2, 5.6667
20, 1, wb, attraction, a-b-da, 9, 2, 8, 35, 90, 165, 157, 86, 165, 90, 3, 0.982642
20, 1, wb, attraction, a-b-db, 2, 1, 8, 36, 135, 60, 60, 135, 59, 134, 1, 2.57306
20, 1, wb, attraction, a-b-db, 2, 1, 8, 36, 135, 60, 60, 135, 59, 134, 3, 1.90106
20, 1, wb, attraction, a-b-da, 14, 3, 8, 37, 120, 195, 195, 120, 181, 111, 3, 3.1098
20, 1, wb, attraction, a-b-da, 14, 3, 8, 37, 120, 195, 195, 120, 181, 111, 2, 1.14544
