sub_n, computer_n, bw_cond, effect, set, distance, diag, block_n, trial_n, h1, w1, h2, w2, h3, w3, choice, rt 
286, 1, wb, practice, NA, 999, 999, 0, 1, 177, 135, 99, 180, 101, 104, 3, 2.75721
286, 1, wb, practice, NA, 999, 999, 0, 1, 177, 135, 99, 180, 101, 104, 1, 2.00598
286, 1, wb, practice, NA, 999, 999, 0, 2, 99, 115, 139, 124, 83, 78, 3, 2.26173
286, 1, wb, practice, NA, 999, 999, 0, 2, 99, 115, 139, 124, 83, 78, 2, 1.14771
286, 1, wb, practice, NA, 999, 999, 0, 3, 182, 142, 92, 84, 115, 90, 2, 1.63978
286, 1, wb, practice, NA, 999, 999, 0, 3, 182, 142, 92, 84, 115, 90, 1, 1.12468
286, 1, wb, attraction, a-b-da, 2, 3, 1, 1, 193, 119, 120, 195, 195, 120, 3, 7.06971
286, 1, wb, attraction, a-b-da, 2, 3, 1, 1, 193, 119, 120, 195, 195, 120, 1, 1.05611
286, 1, wb, filler, NA, 999, 999, 1, 2, 143, 118, 169, 98, 88, 153, 3, 9.21179
286, 1, wb, filler, NA, 999, 999, 1, 2, 143, 118, 169, 98, 88, 153, 1, 1.10342
286, 1, wb, attraction, a-b-db, 9, 2, 1, 3, 90, 165, 86, 157, 165, 90, 2, 6.3451
286, 1, wb, attraction, a-b-db, 9, 2, 1, 3, 90, 165, 86, 157, 165, 90, 1, 1.91243
286, 1, wb, attraction, a-b-db, 5, 1, 1, 4, 135, 60, 60, 135, 58, 132, 1, 2.50507
286, 1, wb, attraction, a-b-db, 5, 1, 1, 4, 135, 60, 60, 135, 58, 132, 3, 0.906958
286, 1, wb, attraction, a-b-db, 14, 2, 1, 5, 165, 90, 83, 153, 90, 165, 2, 6.3879
286, 1, wb, attraction, a-b-db, 14, 2, 1, 5, 165, 90, 83, 153, 90, 165, 1, 0.593899
286, 1, wb, attraction, a-b-db, 5, 3, 1, 6, 120, 195, 117, 190, 195, 120, 3, 2.39167
286, 1, wb, attraction, a-b-db, 5, 3, 1, 6, 120, 195, 117, 190, 195, 120, 2, 0.350206
286, 1, wb, attraction, a-b-da, 9, 3, 1, 7, 186, 114, 120, 195, 195, 120, 1, 2.15812
286, 1, wb, attraction, a-b-da, 9, 3, 1, 7, 186, 114, 120, 195, 195, 120, 3, 0.829982
286, 1, wb, attraction, a-b-db, 2, 1, 1, 8, 59, 134, 60, 135, 135, 60, 1, 1.81834
286, 1, wb, attraction, a-b-db, 2, 1, 1, 8, 59, 134, 60, 135, 135, 60, 3, 0.800419
286, 1, wb, attraction, a-b-db, 14, 1, 1, 9, 56, 125, 60, 135, 135, 60, 2, 0.702058
286, 1, wb, attraction, a-b-db, 14, 1, 1, 9, 56, 125, 60, 135, 135, 60, 3, 0.95319
286, 1, wb, filler, NA, 999, 999, 1, 10, 126, 94, 113, 194, 157, 158, 1, 0.824953
286, 1, wb, filler, NA, 999, 999, 1, 10, 126, 94, 113, 194, 157, 158, 3, 3.2466
286, 1, wb, filler, NA, 999, 999, 1, 11, 63, 112, 96, 189, 135, 151, 1, 1.32145
286, 1, wb, filler, NA, 999, 999, 1, 11, 63, 112, 96, 189, 135, 151, 3, 2.55575
286, 1, wb, filler, NA, 999, 999, 1, 12, 148, 65, 65, 153, 111, 132, 1, 2.17098
286, 1, wb, filler, NA, 999, 999, 1, 12, 148, 65, 65, 153, 111, 132, 3, 0.62683
286, 1, wb, filler, NA, 999, 999, 1, 13, 195, 133, 175, 154, 112, 100, 3, 1.27122
286, 1, wb, filler, NA, 999, 999, 1, 13, 195, 133, 175, 154, 112, 100, 2, 1.7956
286, 1, wb, attraction, a-b-db, 2, 2, 1, 14, 89, 163, 90, 165, 165, 90, 1, 3.57695
286, 1, wb, attraction, a-b-db, 2, 2, 1, 14, 89, 163, 90, 165, 165, 90, 2, 1.21567
286, 1, wb, filler, NA, 999, 999, 1, 15, 133, 193, 76, 74, 86, 62, 2, 1.22065
286, 1, wb, filler, NA, 999, 999, 1, 15, 133, 193, 76, 74, 86, 62, 1, 0.594906
286, 1, wb, attraction, a-b-db, 14, 3, 1, 16, 120, 195, 111, 181, 195, 120, 1, 1.60066
286, 1, wb, attraction, a-b-db, 14, 3, 1, 16, 120, 195, 111, 181, 195, 120, 3, 0.431376
286, 1, wb, attraction, a-b-db, 9, 1, 1, 17, 57, 129, 60, 135, 135, 60, 1, 0.748056
286, 1, wb, attraction, a-b-db, 9, 1, 1, 17, 57, 129, 60, 135, 135, 60, 3, 0.636969
286, 1, wb, filler, NA, 999, 999, 1, 18, 79, 66, 191, 104, 124, 160, 1, 0.593317
286, 1, wb, filler, NA, 999, 999, 1, 18, 79, 66, 191, 104, 124, 160, 2, 1.19255
286, 1, wb, attraction, a-b-da, 5, 3, 1, 19, 190, 117, 120, 195, 195, 120, 1, 1.09403
286, 1, wb, attraction, a-b-da, 5, 3, 1, 19, 190, 117, 120, 195, 195, 120, 2, 1.11299
286, 1, wb, catch, NA, 999, 999, 1, 20, 116, 139, 172, 143, 64, 131, 3, 0.897968
286, 1, wb, catch, NA, 999, 999, 1, 20, 116, 139, 172, 143, 64, 131, 2, 0.765029
286, 1, wb, catch, NA, 999, 999, 1, 21, 131, 124, 71, 124, 158, 157, 2, 1.38804
286, 1, wb, catch, NA, 999, 999, 1, 21, 131, 124, 71, 124, 158, 157, 3, 0.411647
286, 1, wb, attraction, a-b-da, 2, 2, 1, 22, 90, 165, 163, 89, 165, 90, 3, 1.10475
286, 1, wb, attraction, a-b-da, 2, 2, 1, 22, 90, 165, 163, 89, 165, 90, 2, 0.467667
286, 1, wb, attraction, a-b-da, 5, 2, 1, 23, 90, 165, 161, 88, 165, 90, 3, 0.886882
286, 1, wb, attraction, a-b-da, 5, 2, 1, 23, 90, 165, 161, 88, 165, 90, 2, 0.506607
286, 1, wb, attraction, a-b-db, 5, 2, 1, 24, 165, 90, 90, 165, 88, 161, 1, 1.1883
286, 1, wb, attraction, a-b-db, 5, 2, 1, 24, 165, 90, 90, 165, 88, 161, 2, 0.595189
286, 1, wb, attraction, a-b-da, 14, 3, 1, 25, 195, 120, 120, 195, 181, 111, 3, 1.16093
286, 1, wb, attraction, a-b-da, 14, 3, 1, 25, 195, 120, 120, 195, 181, 111, 2, 0.641295
286, 1, wb, attraction, a-b-da, 14, 1, 1, 26, 135, 60, 60, 135, 125, 56, 3, 1.02106
286, 1, wb, attraction, a-b-da, 14, 1, 1, 26, 135, 60, 60, 135, 125, 56, 2, 0.611306
286, 1, wb, attraction, a-b-da, 9, 1, 1, 27, 60, 135, 129, 57, 135, 60, 1, 0.808327
286, 1, wb, attraction, a-b-da, 9, 1, 1, 27, 60, 135, 129, 57, 135, 60, 2, 0.502901
286, 1, wb, attraction, a-b-da, 9, 2, 1, 28, 90, 165, 157, 86, 165, 90, 3, 0.608556
286, 1, wb, attraction, a-b-da, 9, 2, 1, 28, 90, 165, 157, 86, 165, 90, 2, 0.479102
286, 1, wb, attraction, a-b-da, 14, 2, 1, 29, 90, 165, 153, 83, 165, 90, 3, 0.889485
286, 1, wb, attraction, a-b-da, 14, 2, 1, 29, 90, 165, 153, 83, 165, 90, 1, 0.548457
286, 1, wb, attraction, a-b-da, 5, 1, 1, 30, 60, 135, 132, 58, 135, 60, 3, 0.548238
286, 1, wb, attraction, a-b-da, 5, 1, 1, 30, 60, 135, 132, 58, 135, 60, 2, 0.573544
286, 1, wb, filler, NA, 999, 999, 1, 31, 131, 125, 137, 81, 171, 77, 3, 0.491846
286, 1, wb, filler, NA, 999, 999, 1, 31, 131, 125, 137, 81, 171, 77, 1, 0.574954
286, 1, wb, attraction, a-b-da, 2, 1, 1, 32, 134, 59, 60, 135, 135, 60, 3, 0.613505
286, 1, wb, attraction, a-b-da, 2, 1, 1, 32, 134, 59, 60, 135, 135, 60, 1, 0.483938
286, 1, wb, catch, NA, 999, 999, 1, 33, 63, 132, 187, 128, 141, 114, 1, 0.934366
286, 1, wb, catch, NA, 999, 999, 1, 33, 63, 132, 187, 128, 141, 114, 2, 0.512111
286, 1, wb, attraction, a-b-db, 2, 3, 1, 34, 195, 120, 119, 193, 120, 195, 2, 1.44915
286, 1, wb, attraction, a-b-db, 2, 3, 1, 34, 195, 120, 119, 193, 120, 195, 1, 0.357909
286, 1, wb, filler, NA, 999, 999, 1, 35, 110, 88, 180, 163, 149, 91, 1, 0.789093
286, 1, wb, filler, NA, 999, 999, 1, 35, 110, 88, 180, 163, 149, 91, 2, 0.276169
286, 1, wb, attraction, a-b-db, 9, 3, 1, 36, 114, 186, 120, 195, 195, 120, 1, 3.15073
286, 1, wb, attraction, a-b-db, 9, 3, 1, 36, 114, 186, 120, 195, 195, 120, 2, 0.70306
286, 1, wb, filler, NA, 999, 999, 1, 37, 187, 110, 149, 182, 65, 102, 3, 0.856778
286, 1, wb, filler, NA, 999, 999, 1, 37, 187, 110, 149, 182, 65, 102, 2, 0.357201
286, 1, wb, attraction, a-b-db, 2, 2, 2, 1, 89, 163, 90, 165, 165, 90, 3, 0.700345
286, 1, wb, attraction, a-b-db, 2, 2, 2, 1, 89, 163, 90, 165, 165, 90, 2, 0.647429
286, 1, wb, attraction, a-b-da, 5, 1, 2, 2, 60, 135, 135, 60, 132, 58, 3, 0.739121
286, 1, wb, attraction, a-b-da, 5, 1, 2, 2, 60, 135, 135, 60, 132, 58, 2, 0.676206
286, 1, wb, attraction, a-b-db, 2, 3, 2, 3, 119, 193, 120, 195, 195, 120, 2, 2.43056
286, 1, wb, attraction, a-b-db, 2, 3, 2, 3, 119, 193, 120, 195, 195, 120, 3, 0.411827
286, 1, wb, filler, NA, 999, 999, 2, 4, 166, 110, 84, 122, 64, 83, 3, 0.952964
286, 1, wb, filler, NA, 999, 999, 2, 4, 166, 110, 84, 122, 64, 83, 1, 0.682005
286, 1, wb, attraction, a-b-db, 9, 1, 2, 5, 57, 129, 135, 60, 60, 135, 3, 0.780396
286, 1, wb, attraction, a-b-db, 9, 1, 2, 5, 57, 129, 135, 60, 60, 135, 2, 0.532129
286, 1, wb, filler, NA, 999, 999, 2, 6, 167, 188, 162, 115, 96, 188, 3, 0.676623
286, 1, wb, filler, NA, 999, 999, 2, 6, 167, 188, 162, 115, 96, 188, 1, 0.512275
286, 1, wb, filler, NA, 999, 999, 2, 7, 78, 75, 149, 123, 179, 105, 1, 0.913401
286, 1, wb, filler, NA, 999, 999, 2, 7, 78, 75, 149, 123, 179, 105, 2, 0.499751
286, 1, wb, filler, NA, 999, 999, 2, 8, 95, 165, 120, 177, 85, 75, 3, 0.725573
286, 1, wb, filler, NA, 999, 999, 2, 8, 95, 165, 120, 177, 85, 75, 2, 0.407459
286, 1, wb, attraction, a-b-da, 14, 3, 2, 9, 181, 111, 195, 120, 120, 195, 1, 0.852349
286, 1, wb, attraction, a-b-da, 14, 3, 2, 9, 181, 111, 195, 120, 120, 195, 3, 0.401662
286, 1, wb, attraction, a-b-da, 9, 1, 2, 10, 129, 57, 135, 60, 60, 135, 1, 1.93532
286, 1, wb, attraction, a-b-da, 9, 1, 2, 10, 129, 57, 135, 60, 60, 135, 2, 0.49661
286, 1, wb, catch, NA, 999, 999, 2, 11, 118, 137, 175, 140, 95, 100, 3, 0.922555
286, 1, wb, catch, NA, 999, 999, 2, 11, 118, 137, 175, 140, 95, 100, 2, 0.380173
286, 1, wb, attraction, a-b-da, 2, 1, 2, 12, 134, 59, 60, 135, 135, 60, 3, 1.33863
286, 1, wb, attraction, a-b-da, 2, 1, 2, 12, 134, 59, 60, 135, 135, 60, 2, 0.363571
286, 1, wb, filler, NA, 999, 999, 2, 13, 168, 160, 86, 138, 115, 163, 2, 1.3869
286, 1, wb, filler, NA, 999, 999, 2, 13, 168, 160, 86, 138, 115, 163, 1, 0.362248
286, 1, wb, filler, NA, 999, 999, 2, 14, 87, 172, 100, 178, 96, 89, 3, 2.03335
286, 1, wb, filler, NA, 999, 999, 2, 14, 87, 172, 100, 178, 96, 89, 2, 0.430761
286, 1, wb, attraction, a-b-da, 9, 2, 2, 15, 165, 90, 157, 86, 90, 165, 3, 0.563273
286, 1, wb, attraction, a-b-da, 9, 2, 2, 15, 165, 90, 157, 86, 90, 165, 2, 0.539763
286, 1, wb, attraction, a-b-da, 14, 1, 2, 16, 125, 56, 60, 135, 135, 60, 1, 1.34003
286, 1, wb, attraction, a-b-da, 14, 1, 2, 16, 125, 56, 60, 135, 135, 60, 2, 0.636993
286, 1, wb, attraction, a-b-da, 5, 2, 2, 17, 165, 90, 161, 88, 90, 165, 3, 0.46538
286, 1, wb, attraction, a-b-da, 5, 2, 2, 17, 165, 90, 161, 88, 90, 165, 2, 0.75789
286, 1, wb, attraction, a-b-db, 5, 2, 2, 18, 90, 165, 88, 161, 165, 90, 3, 0.717033
286, 1, wb, attraction, a-b-db, 5, 2, 2, 18, 90, 165, 88, 161, 165, 90, 2, 0.487366
286, 1, wb, filler, NA, 999, 999, 2, 19, 93, 139, 139, 161, 119, 130, 3, 0.569817
286, 1, wb, filler, NA, 999, 999, 2, 19, 93, 139, 139, 161, 119, 130, 2, 1.85823
286, 1, wb, attraction, a-b-db, 14, 2, 2, 20, 90, 165, 83, 153, 165, 90, 2, 1.91691
286, 1, wb, attraction, a-b-db, 14, 2, 2, 20, 90, 165, 83, 153, 165, 90, 3, 0.583152
286, 1, wb, attraction, a-b-db, 14, 1, 2, 21, 60, 135, 56, 125, 135, 60, 2, 2.19739
286, 1, wb, attraction, a-b-db, 14, 1, 2, 21, 60, 135, 56, 125, 135, 60, 1, 0.660038
286, 1, wb, attraction, a-b-db, 14, 3, 2, 22, 111, 181, 195, 120, 120, 195, 3, 0.799203
286, 1, wb, attraction, a-b-db, 14, 3, 2, 22, 111, 181, 195, 120, 120, 195, 2, 0.886272
286, 1, wb, attraction, a-b-da, 2, 2, 2, 23, 163, 89, 165, 90, 90, 165, 1, 1.03253
286, 1, wb, attraction, a-b-da, 2, 2, 2, 23, 163, 89, 165, 90, 90, 165, 2, 0.502153
286, 1, wb, filler, NA, 999, 999, 2, 24, 168, 182, 193, 100, 109, 91, 3, 0.655937
286, 1, wb, filler, NA, 999, 999, 2, 24, 168, 182, 193, 100, 109, 91, 1, 0.404377
286, 1, wb, attraction, a-b-db, 5, 3, 2, 25, 195, 120, 120, 195, 117, 190, 1, 1.0182
286, 1, wb, attraction, a-b-db, 5, 3, 2, 25, 195, 120, 120, 195, 117, 190, 2, 0.864549
286, 1, wb, attraction, a-b-da, 14, 2, 2, 26, 165, 90, 90, 165, 153, 83, 3, 1.57951
286, 1, wb, attraction, a-b-da, 14, 2, 2, 26, 165, 90, 90, 165, 153, 83, 2, 0.578971
286, 1, wb, attraction, a-b-da, 2, 3, 2, 27, 193, 119, 195, 120, 120, 195, 1, 0.905396
286, 1, wb, attraction, a-b-da, 2, 3, 2, 27, 193, 119, 195, 120, 120, 195, 2, 0.497882
286, 1, wb, catch, NA, 999, 999, 2, 28, 147, 108, 143, 172, 92, 103, 3, 0.981636
286, 1, wb, catch, NA, 999, 999, 2, 28, 147, 108, 143, 172, 92, 103, 2, 0.357324
286, 1, wb, filler, NA, 999, 999, 2, 29, 109, 70, 129, 173, 150, 116, 1, 1.23639
286, 1, wb, filler, NA, 999, 999, 2, 29, 109, 70, 129, 173, 150, 116, 2, 0.849992
286, 1, wb, attraction, a-b-db, 9, 2, 2, 30, 86, 157, 165, 90, 90, 165, 1, 3.14965
286, 1, wb, attraction, a-b-db, 9, 2, 2, 30, 86, 157, 165, 90, 90, 165, 2, 0.390019
286, 1, wb, filler, NA, 999, 999, 2, 31, 75, 193, 147, 80, 89, 94, 3, 0.908479
286, 1, wb, filler, NA, 999, 999, 2, 31, 75, 193, 147, 80, 89, 94, 1, 0.390792
286, 1, wb, catch, NA, 999, 999, 2, 32, 79, 116, 161, 154, 115, 140, 1, 0.900643
286, 1, wb, catch, NA, 999, 999, 2, 32, 79, 116, 161, 154, 115, 140, 2, 0.415665
286, 1, wb, attraction, a-b-da, 9, 3, 2, 33, 195, 120, 186, 114, 120, 195, 1, 0.548886
286, 1, wb, attraction, a-b-da, 9, 3, 2, 33, 195, 120, 186, 114, 120, 195, 2, 0.34199
286, 1, wb, attraction, a-b-db, 2, 1, 2, 34, 60, 135, 59, 134, 135, 60, 3, 0.71777
286, 1, wb, attraction, a-b-db, 2, 1, 2, 34, 60, 135, 59, 134, 135, 60, 2, 0.400271
286, 1, wb, attraction, a-b-da, 5, 3, 2, 35, 120, 195, 195, 120, 190, 117, 1, 1.22211
286, 1, wb, attraction, a-b-da, 5, 3, 2, 35, 120, 195, 195, 120, 190, 117, 2, 0.419571
286, 1, wb, attraction, a-b-db, 5, 1, 2, 36, 60, 135, 58, 132, 135, 60, 3, 0.67269
286, 1, wb, attraction, a-b-db, 5, 1, 2, 36, 60, 135, 58, 132, 135, 60, 2, 1.3565
286, 1, wb, attraction, a-b-db, 9, 3, 2, 37, 114, 186, 195, 120, 120, 195, 1, 0.796129
286, 1, wb, attraction, a-b-db, 9, 3, 2, 37, 114, 186, 195, 120, 120, 195, 2, 0.339177
286, 1, wb, catch, NA, 999, 999, 3, 1, 171, 144, 90, 105, 159, 96, 2, 1.01971
286, 1, wb, catch, NA, 999, 999, 3, 1, 171, 144, 90, 105, 159, 96, 1, 1.00195
286, 1, wb, attraction, a-b-db, 5, 3, 3, 2, 117, 190, 195, 120, 120, 195, 1, 0.911533
286, 1, wb, attraction, a-b-db, 5, 3, 3, 2, 117, 190, 195, 120, 120, 195, 3, 0.401914
286, 1, wb, filler, NA, 999, 999, 3, 3, 134, 189, 126, 71, 164, 114, 2, 0.799718
286, 1, wb, filler, NA, 999, 999, 3, 3, 134, 189, 126, 71, 164, 114, 1, 0.326767
286, 1, wb, filler, NA, 999, 999, 3, 4, 118, 140, 179, 172, 154, 179, 1, 0.727251
286, 1, wb, filler, NA, 999, 999, 3, 4, 118, 140, 179, 172, 154, 179, 2, 0.401042
286, 1, wb, attraction, a-b-db, 2, 3, 3, 5, 195, 120, 120, 195, 119, 193, 1, 0.694873
286, 1, wb, attraction, a-b-db, 2, 3, 3, 5, 195, 120, 120, 195, 119, 193, 2, 0.401977
286, 1, wb, attraction, a-b-db, 2, 1, 3, 6, 59, 134, 135, 60, 60, 135, 2, 0.783762
286, 1, wb, attraction, a-b-db, 2, 1, 3, 6, 59, 134, 135, 60, 60, 135, 1, 0.351498
286, 1, wb, attraction, a-b-da, 2, 3, 3, 7, 193, 119, 195, 120, 120, 195, 1, 0.839265
286, 1, wb, attraction, a-b-da, 2, 3, 3, 7, 193, 119, 195, 120, 120, 195, 2, 0.332481
286, 1, wb, attraction, a-b-db, 9, 2, 3, 8, 165, 90, 86, 157, 90, 165, 1, 0.88495
286, 1, wb, attraction, a-b-db, 9, 2, 3, 8, 165, 90, 86, 157, 90, 165, 3, 0.432513
286, 1, wb, catch, NA, 999, 999, 3, 9, 145, 170, 129, 126, 108, 87, 3, 1.94909
286, 1, wb, catch, NA, 999, 999, 3, 9, 145, 170, 129, 126, 108, 87, 1, 0.405677
286, 1, wb, attraction, a-b-db, 5, 2, 3, 10, 90, 165, 88, 161, 165, 90, 3, 0.73966
286, 1, wb, attraction, a-b-db, 5, 2, 3, 10, 90, 165, 88, 161, 165, 90, 2, 0.388695
286, 1, wb, attraction, a-b-da, 5, 1, 3, 11, 135, 60, 132, 58, 60, 135, 3, 0.619113
286, 1, wb, attraction, a-b-da, 5, 1, 3, 11, 135, 60, 132, 58, 60, 135, 2, 0.825642
286, 1, wb, attraction, a-b-da, 5, 3, 3, 12, 120, 195, 195, 120, 190, 117, 2, 3.40592
286, 1, wb, attraction, a-b-da, 5, 3, 3, 12, 120, 195, 195, 120, 190, 117, 1, 0.347472
286, 1, wb, filler, NA, 999, 999, 3, 13, 138, 162, 160, 165, 180, 134, 3, 3.94728
286, 1, wb, filler, NA, 999, 999, 3, 13, 138, 162, 160, 165, 180, 134, 2, 2.88338
286, 1, wb, filler, NA, 999, 999, 3, 14, 146, 130, 97, 139, 176, 183, 2, 2.24501
286, 1, wb, filler, NA, 999, 999, 3, 14, 146, 130, 97, 139, 176, 183, 3, 0.481659
286, 1, wb, attraction, a-b-da, 14, 2, 3, 15, 90, 165, 153, 83, 165, 90, 2, 1.2841
286, 1, wb, attraction, a-b-da, 14, 2, 3, 15, 90, 165, 153, 83, 165, 90, 1, 0.375671
286, 1, wb, attraction, a-b-da, 2, 1, 3, 16, 135, 60, 60, 135, 134, 59, 2, 0.830146
286, 1, wb, attraction, a-b-da, 2, 1, 3, 16, 135, 60, 60, 135, 134, 59, 1, 1.73992
286, 1, wb, attraction, a-b-db, 9, 1, 3, 17, 135, 60, 60, 135, 57, 129, 1, 2.12396
286, 1, wb, attraction, a-b-db, 9, 1, 3, 17, 135, 60, 60, 135, 57, 129, 2, 0.389263
286, 1, wb, attraction, a-b-db, 5, 1, 3, 18, 58, 132, 60, 135, 135, 60, 3, 1.17981
286, 1, wb, attraction, a-b-db, 5, 1, 3, 18, 58, 132, 60, 135, 135, 60, 2, 0.539413
286, 1, wb, filler, NA, 999, 999, 3, 19, 133, 82, 111, 84, 105, 158, 2, 0.979999
286, 1, wb, filler, NA, 999, 999, 3, 19, 133, 82, 111, 84, 105, 158, 3, 0.523535
286, 1, wb, filler, NA, 999, 999, 3, 20, 164, 139, 124, 92, 71, 65, 3, 0.875975
286, 1, wb, filler, NA, 999, 999, 3, 20, 164, 139, 124, 92, 71, 65, 1, 0.35961
286, 1, wb, attraction, a-b-db, 2, 2, 3, 21, 165, 90, 90, 165, 89, 163, 1, 1.26274
286, 1, wb, attraction, a-b-db, 2, 2, 3, 21, 165, 90, 90, 165, 89, 163, 2, 0.419037
286, 1, wb, attraction, a-b-da, 14, 1, 3, 22, 135, 60, 125, 56, 60, 135, 3, 0.680266
286, 1, wb, attraction, a-b-da, 14, 1, 3, 22, 135, 60, 125, 56, 60, 135, 2, 0.331906
286, 1, wb, attraction, a-b-da, 2, 2, 3, 23, 90, 165, 163, 89, 165, 90, 3, 0.540535
286, 1, wb, attraction, a-b-da, 2, 2, 3, 23, 90, 165, 163, 89, 165, 90, 1, 0.533795
286, 1, wb, attraction, a-b-da, 5, 2, 3, 24, 161, 88, 90, 165, 165, 90, 3, 1.7981
286, 1, wb, attraction, a-b-da, 5, 2, 3, 24, 161, 88, 90, 165, 165, 90, 1, 0.468791
286, 1, wb, attraction, a-b-da, 9, 1, 3, 25, 60, 135, 135, 60, 129, 57, 3, 0.855943
286, 1, wb, attraction, a-b-da, 9, 1, 3, 25, 60, 135, 135, 60, 129, 57, 2, 0.580327
286, 1, wb, filler, NA, 999, 999, 3, 26, 182, 116, 181, 96, 173, 147, 2, 0.938693
286, 1, wb, filler, NA, 999, 999, 3, 26, 182, 116, 181, 96, 173, 147, 3, 0.595678
286, 1, wb, attraction, a-b-db, 14, 1, 3, 27, 56, 125, 60, 135, 135, 60, 2, 2.10542
286, 1, wb, attraction, a-b-db, 14, 1, 3, 27, 56, 125, 60, 135, 135, 60, 3, 0.443512
286, 1, wb, attraction, a-b-db, 14, 2, 3, 28, 83, 153, 165, 90, 90, 165, 2, 0.847247
286, 1, wb, attraction, a-b-db, 14, 2, 3, 28, 83, 153, 165, 90, 90, 165, 3, 0.44434
286, 1, wb, attraction, a-b-db, 9, 3, 3, 29, 195, 120, 120, 195, 114, 186, 2, 1.06422
286, 1, wb, attraction, a-b-db, 9, 3, 3, 29, 195, 120, 120, 195, 114, 186, 1, 0.396547
286, 1, wb, filler, NA, 999, 999, 3, 30, 180, 167, 149, 133, 193, 80, 2, 0.86625
286, 1, wb, filler, NA, 999, 999, 3, 30, 180, 167, 149, 133, 193, 80, 1, 0.374627
286, 1, wb, attraction, a-b-da, 9, 3, 3, 31, 186, 114, 195, 120, 120, 195, 1, 0.725059
286, 1, wb, attraction, a-b-da, 9, 3, 3, 31, 186, 114, 195, 120, 120, 195, 2, 0.89493
286, 1, wb, filler, NA, 999, 999, 3, 32, 57, 177, 195, 166, 106, 181, 1, 1.56053
286, 1, wb, filler, NA, 999, 999, 3, 32, 57, 177, 195, 166, 106, 181, 2, 0.440617
286, 1, wb, attraction, a-b-db, 14, 3, 3, 33, 120, 195, 195, 120, 111, 181, 2, 0.756472
286, 1, wb, attraction, a-b-db, 14, 3, 3, 33, 120, 195, 195, 120, 111, 181, 1, 0.68484
286, 1, wb, attraction, a-b-da, 14, 3, 3, 34, 120, 195, 181, 111, 195, 120, 2, 0.751355
286, 1, wb, attraction, a-b-da, 14, 3, 3, 34, 120, 195, 181, 111, 195, 120, 1, 0.432296
286, 1, wb, attraction, a-b-da, 9, 2, 3, 35, 165, 90, 157, 86, 90, 165, 1, 1.03698
286, 1, wb, attraction, a-b-da, 9, 2, 3, 35, 165, 90, 157, 86, 90, 165, 3, 0.442604
286, 1, wb, catch, NA, 999, 999, 3, 36, 168, 147, 121, 74, 141, 114, 2, 0.758284
286, 1, wb, catch, NA, 999, 999, 3, 36, 168, 147, 121, 74, 141, 114, 1, 0.462741
286, 1, wb, filler, NA, 999, 999, 3, 37, 184, 65, 121, 180, 92, 156, 1, 1.13785
286, 1, wb, filler, NA, 999, 999, 3, 37, 184, 65, 121, 180, 92, 156, 2, 0.451557
286, 1, wb, catch, NA, 999, 999, 4, 1, 90, 165, 89, 106, 172, 143, 2, 1.00736
286, 1, wb, catch, NA, 999, 999, 4, 1, 90, 165, 89, 106, 172, 143, 3, 0.461653
286, 1, wb, attraction, a-b-db, 9, 3, 4, 2, 195, 120, 120, 195, 114, 186, 1, 1.33669
286, 1, wb, attraction, a-b-db, 9, 3, 4, 2, 195, 120, 120, 195, 114, 186, 2, 0.402359
286, 1, wb, attraction, a-b-db, 9, 2, 4, 3, 90, 165, 86, 157, 165, 90, 3, 0.951967
286, 1, wb, attraction, a-b-db, 9, 2, 4, 3, 90, 165, 86, 157, 165, 90, 2, 0.552999
286, 1, wb, attraction, a-b-db, 14, 1, 4, 4, 135, 60, 60, 135, 56, 125, 1, 1.11283
286, 1, wb, attraction, a-b-db, 14, 1, 4, 4, 135, 60, 60, 135, 56, 125, 2, 0.603247
286, 1, wb, attraction, a-b-db, 9, 1, 4, 5, 57, 129, 60, 135, 135, 60, 3, 0.912903
286, 1, wb, attraction, a-b-db, 9, 1, 4, 5, 57, 129, 60, 135, 135, 60, 2, 0.619217
286, 1, wb, attraction, a-b-da, 9, 3, 4, 6, 186, 114, 195, 120, 120, 195, 1, 0.744371
286, 1, wb, attraction, a-b-da, 9, 3, 4, 6, 186, 114, 195, 120, 120, 195, 2, 0.937499
286, 1, wb, attraction, a-b-da, 9, 1, 4, 7, 135, 60, 129, 57, 60, 135, 2, 1.50574
286, 1, wb, attraction, a-b-da, 9, 1, 4, 7, 135, 60, 129, 57, 60, 135, 1, 0.85988
286, 1, wb, attraction, a-b-db, 5, 1, 4, 8, 60, 135, 58, 132, 135, 60, 3, 0.670899
286, 1, wb, attraction, a-b-db, 5, 1, 4, 8, 60, 135, 58, 132, 135, 60, 1, 0.683304
286, 1, wb, filler, NA, 999, 999, 4, 9, 84, 64, 111, 67, 72, 81, 1, 1.2217
286, 1, wb, filler, NA, 999, 999, 4, 9, 84, 64, 111, 67, 72, 81, 2, 0.419327
286, 1, wb, attraction, a-b-da, 14, 1, 4, 10, 125, 56, 60, 135, 135, 60, 1, 0.952429
286, 1, wb, attraction, a-b-da, 14, 1, 4, 10, 125, 56, 60, 135, 135, 60, 2, 0.449564
286, 1, wb, attraction, a-b-da, 14, 2, 4, 11, 90, 165, 165, 90, 153, 83, 3, 0.853265
286, 1, wb, attraction, a-b-da, 14, 2, 4, 11, 90, 165, 165, 90, 153, 83, 1, 0.4103
286, 1, wb, filler, NA, 999, 999, 4, 12, 123, 158, 84, 164, 73, 160, 3, 0.503525
286, 1, wb, filler, NA, 999, 999, 4, 12, 123, 158, 84, 164, 73, 160, 1, 0.826606
286, 1, wb, filler, NA, 999, 999, 4, 13, 137, 85, 193, 121, 117, 115, 1, 0.95892
286, 1, wb, filler, NA, 999, 999, 4, 13, 137, 85, 193, 121, 117, 115, 2, 1.2954
286, 1, wb, attraction, a-b-db, 2, 3, 4, 14, 119, 193, 195, 120, 120, 195, 2, 1.40882
286, 1, wb, attraction, a-b-db, 2, 3, 4, 14, 119, 193, 195, 120, 120, 195, 3, 0.40703
286, 1, wb, attraction, a-b-da, 9, 2, 4, 15, 90, 165, 157, 86, 165, 90, 2, 0.996112
286, 1, wb, attraction, a-b-da, 9, 2, 4, 15, 90, 165, 157, 86, 165, 90, 3, 0.49109
286, 1, wb, filler, NA, 999, 999, 4, 16, 169, 120, 133, 77, 126, 57, 2, 0.804884
286, 1, wb, filler, NA, 999, 999, 4, 16, 169, 120, 133, 77, 126, 57, 1, 0.419334
286, 1, wb, attraction, a-b-da, 2, 2, 4, 17, 165, 90, 90, 165, 163, 89, 2, 0.640417
286, 1, wb, attraction, a-b-da, 2, 2, 4, 17, 165, 90, 90, 165, 163, 89, 3, 0.501562
286, 1, wb, attraction, a-b-db, 2, 2, 4, 18, 90, 165, 165, 90, 89, 163, 2, 0.751305
286, 1, wb, attraction, a-b-db, 2, 2, 4, 18, 90, 165, 165, 90, 89, 163, 1, 0.528353
286, 1, wb, filler, NA, 999, 999, 4, 19, 98, 92, 63, 122, 91, 185, 2, 2.47283
286, 1, wb, filler, NA, 999, 999, 4, 19, 98, 92, 63, 122, 91, 185, 3, 0.492103
286, 1, wb, filler, NA, 999, 999, 4, 20, 58, 115, 68, 182, 68, 68, 3, 1.10983
286, 1, wb, filler, NA, 999, 999, 4, 20, 58, 115, 68, 182, 68, 68, 2, 0.35211
286, 1, wb, filler, NA, 999, 999, 4, 21, 193, 74, 119, 87, 134, 87, 2, 1.30401
286, 1, wb, filler, NA, 999, 999, 4, 21, 193, 74, 119, 87, 134, 87, 1, 1.71491
286, 1, wb, attraction, a-b-db, 14, 3, 4, 22, 195, 120, 111, 181, 120, 195, 2, 1.29968
286, 1, wb, attraction, a-b-db, 14, 3, 4, 22, 195, 120, 111, 181, 120, 195, 1, 0.710532
286, 1, wb, attraction, a-b-db, 5, 2, 4, 23, 165, 90, 88, 161, 90, 165, 2, 2.39169
286, 1, wb, attraction, a-b-db, 5, 2, 4, 23, 165, 90, 88, 161, 90, 165, 3, 0.566236
286, 1, wb, catch, NA, 999, 999, 4, 24, 101, 94, 162, 93, 130, 185, 1, 0.589214
286, 1, wb, catch, NA, 999, 999, 4, 24, 101, 94, 162, 93, 130, 185, 3, 0.636312
286, 1, wb, catch, NA, 999, 999, 4, 25, 76, 119, 161, 154, 129, 126, 1, 0.424736
286, 1, wb, catch, NA, 999, 999, 4, 25, 76, 119, 161, 154, 129, 126, 2, 1.30266
286, 1, wb, filler, NA, 999, 999, 4, 26, 90, 130, 66, 66, 61, 145, 2, 0.64807
286, 1, wb, filler, NA, 999, 999, 4, 26, 90, 130, 66, 66, 61, 145, 1, 1.14127
286, 1, wb, filler, NA, 999, 999, 4, 27, 118, 119, 157, 158, 192, 176, 1, 0.884815
286, 1, wb, filler, NA, 999, 999, 4, 27, 118, 119, 157, 158, 192, 176, 3, 0.752498
286, 1, wb, attraction, a-b-da, 14, 3, 4, 28, 195, 120, 120, 195, 181, 111, 3, 0.74419
286, 1, wb, attraction, a-b-da, 14, 3, 4, 28, 195, 120, 120, 195, 181, 111, 1, 0.657243
286, 1, wb, attraction, a-b-da, 2, 1, 4, 29, 134, 59, 135, 60, 60, 135, 1, 1.18032
286, 1, wb, attraction, a-b-da, 2, 1, 4, 29, 134, 59, 135, 60, 60, 135, 2, 0.763913
286, 1, wb, attraction, a-b-db, 5, 3, 4, 30, 195, 120, 117, 190, 120, 195, 2, 0.907011
286, 1, wb, attraction, a-b-db, 5, 3, 4, 30, 195, 120, 117, 190, 120, 195, 1, 0.381308
286, 1, wb, attraction, a-b-da, 5, 1, 4, 31, 135, 60, 60, 135, 132, 58, 3, 0.739871
286, 1, wb, attraction, a-b-da, 5, 1, 4, 31, 135, 60, 60, 135, 132, 58, 1, 0.581054
286, 1, wb, attraction, a-b-db, 2, 1, 4, 32, 59, 134, 60, 135, 135, 60, 2, 0.547293
286, 1, wb, attraction, a-b-db, 2, 1, 4, 32, 59, 134, 60, 135, 135, 60, 3, 0.516654
286, 1, wb, attraction, a-b-da, 5, 2, 4, 33, 161, 88, 165, 90, 90, 165, 2, 0.637585
286, 1, wb, attraction, a-b-da, 5, 2, 4, 33, 161, 88, 165, 90, 90, 165, 1, 0.37944
286, 1, wb, attraction, a-b-da, 5, 3, 4, 34, 120, 195, 190, 117, 195, 120, 2, 0.409855
286, 1, wb, attraction, a-b-da, 5, 3, 4, 34, 120, 195, 190, 117, 195, 120, 1, 0.328359
286, 1, wb, attraction, a-b-da, 2, 3, 4, 35, 120, 195, 193, 119, 195, 120, 2, 0.400858
286, 1, wb, attraction, a-b-da, 2, 3, 4, 35, 120, 195, 193, 119, 195, 120, 1, 0.760067
286, 1, wb, filler, NA, 999, 999, 4, 36, 158, 190, 105, 75, 175, 156, 2, 0.423128
286, 1, wb, filler, NA, 999, 999, 4, 36, 158, 190, 105, 75, 175, 156, 1, 0.668886
286, 1, wb, attraction, a-b-db, 14, 2, 4, 37, 165, 90, 83, 153, 90, 165, 1, 0.832046
286, 1, wb, attraction, a-b-db, 14, 2, 4, 37, 165, 90, 83, 153, 90, 165, 2, 0.349741
286, 1, wb, attraction, a-b-da, 14, 3, 5, 1, 181, 111, 195, 120, 120, 195, 1, 2.67616
286, 1, wb, attraction, a-b-da, 14, 3, 5, 1, 181, 111, 195, 120, 120, 195, 3, 0.807324
286, 1, wb, filler, NA, 999, 999, 5, 2, 129, 59, 151, 116, 138, 108, 1, 0.804361
286, 1, wb, filler, NA, 999, 999, 5, 2, 129, 59, 151, 116, 138, 108, 2, 0.379352
286, 1, wb, filler, NA, 999, 999, 5, 3, 188, 120, 148, 72, 122, 179, 2, 0.921846
286, 1, wb, filler, NA, 999, 999, 5, 3, 188, 120, 148, 72, 122, 179, 1, 0.59553
286, 1, wb, attraction, a-b-da, 5, 3, 5, 4, 120, 195, 190, 117, 195, 120, 1, 0.865372
286, 1, wb, attraction, a-b-da, 5, 3, 5, 4, 120, 195, 190, 117, 195, 120, 2, 0.525795
286, 1, wb, attraction, a-b-da, 14, 1, 5, 5, 60, 135, 135, 60, 125, 56, 3, 1.25424
286, 1, wb, attraction, a-b-da, 14, 1, 5, 5, 60, 135, 135, 60, 125, 56, 2, 0.563161
286, 1, wb, attraction, a-b-da, 14, 2, 5, 6, 90, 165, 153, 83, 165, 90, 3, 0.538158
286, 1, wb, attraction, a-b-da, 14, 2, 5, 6, 90, 165, 153, 83, 165, 90, 1, 0.555912
286, 1, wb, attraction, a-b-db, 14, 3, 5, 7, 195, 120, 120, 195, 111, 181, 1, 0.739846
286, 1, wb, attraction, a-b-db, 14, 3, 5, 7, 195, 120, 120, 195, 111, 181, 2, 0.364794
286, 1, wb, attraction, a-b-db, 9, 3, 5, 8, 114, 186, 120, 195, 195, 120, 1, 0.64397
286, 1, wb, attraction, a-b-db, 9, 3, 5, 8, 114, 186, 120, 195, 195, 120, 2, 0.489172
286, 1, wb, attraction, a-b-db, 5, 1, 5, 9, 60, 135, 58, 132, 135, 60, 3, 1.40354
286, 1, wb, attraction, a-b-db, 5, 1, 5, 9, 60, 135, 58, 132, 135, 60, 1, 0.586382
286, 1, wb, attraction, a-b-db, 5, 3, 5, 10, 117, 190, 120, 195, 195, 120, 3, 0.864794
286, 1, wb, attraction, a-b-db, 5, 3, 5, 10, 117, 190, 120, 195, 195, 120, 2, 0.349139
286, 1, wb, attraction, a-b-da, 9, 2, 5, 11, 165, 90, 90, 165, 157, 86, 1, 0.653089
286, 1, wb, attraction, a-b-da, 9, 2, 5, 11, 165, 90, 90, 165, 157, 86, 2, 0.706178
286, 1, wb, attraction, a-b-da, 9, 1, 5, 12, 60, 135, 129, 57, 135, 60, 2, 0.80392
286, 1, wb, attraction, a-b-da, 9, 1, 5, 12, 60, 135, 129, 57, 135, 60, 1, 0.586846
286, 1, wb, attraction, a-b-da, 5, 2, 5, 13, 165, 90, 90, 165, 161, 88, 1, 0.649381
286, 1, wb, attraction, a-b-da, 5, 2, 5, 13, 165, 90, 90, 165, 161, 88, 2, 0.67043
286, 1, wb, attraction, a-b-db, 2, 1, 5, 14, 60, 135, 135, 60, 59, 134, 1, 0.761468
286, 1, wb, attraction, a-b-db, 2, 1, 5, 14, 60, 135, 135, 60, 59, 134, 2, 0.994015
286, 1, wb, filler, NA, 999, 999, 5, 15, 163, 154, 186, 170, 187, 91, 1, 1.76753
286, 1, wb, filler, NA, 999, 999, 5, 15, 163, 154, 186, 170, 187, 91, 2, 0.599678
286, 1, wb, filler, NA, 999, 999, 5, 16, 133, 133, 62, 170, 180, 121, 2, 2.41344
286, 1, wb, filler, NA, 999, 999, 5, 16, 133, 133, 62, 170, 180, 121, 1, 0.443277
286, 1, wb, attraction, a-b-db, 14, 2, 5, 17, 83, 153, 165, 90, 90, 165, 2, 0.663082
286, 1, wb, attraction, a-b-db, 14, 2, 5, 17, 83, 153, 165, 90, 90, 165, 1, 0.923523
286, 1, wb, filler, NA, 999, 999, 5, 18, 97, 57, 63, 97, 155, 194, 1, 1.16391
286, 1, wb, filler, NA, 999, 999, 5, 18, 97, 57, 63, 97, 155, 194, 3, 0.516035
286, 1, wb, filler, NA, 999, 999, 5, 19, 123, 149, 71, 77, 74, 61, 3, 1.0132
286, 1, wb, filler, NA, 999, 999, 5, 19, 123, 149, 71, 77, 74, 61, 1, 0.483528
286, 1, wb, attraction, a-b-db, 9, 1, 5, 20, 57, 129, 60, 135, 135, 60, 1, 0.614088
286, 1, wb, attraction, a-b-db, 9, 1, 5, 20, 57, 129, 60, 135, 135, 60, 3, 0.906468
286, 1, wb, attraction, a-b-da, 5, 1, 5, 21, 60, 135, 135, 60, 132, 58, 2, 0.934084
286, 1, wb, attraction, a-b-da, 5, 1, 5, 21, 60, 135, 135, 60, 132, 58, 3, 0.535799
286, 1, wb, attraction, a-b-db, 9, 2, 5, 22, 90, 165, 165, 90, 86, 157, 3, 1.00017
286, 1, wb, attraction, a-b-db, 9, 2, 5, 22, 90, 165, 165, 90, 86, 157, 1, 0.623199
286, 1, wb, attraction, a-b-db, 2, 2, 5, 23, 90, 165, 165, 90, 89, 163, 3, 0.46034
286, 1, wb, attraction, a-b-db, 2, 2, 5, 23, 90, 165, 165, 90, 89, 163, 1, 0.568771
286, 1, wb, filler, NA, 999, 999, 5, 24, 140, 77, 105, 96, 194, 91, 2, 0.975926
286, 1, wb, filler, NA, 999, 999, 5, 24, 140, 77, 105, 96, 194, 91, 3, 0.463657
286, 1, wb, catch, NA, 999, 999, 5, 25, 88, 107, 132, 123, 137, 178, 1, 0.762692
286, 1, wb, catch, NA, 999, 999, 5, 25, 88, 107, 132, 123, 137, 178, 3, 0.411157
286, 1, wb, attraction, a-b-db, 14, 1, 5, 26, 60, 135, 135, 60, 56, 125, 1, 0.928162
286, 1, wb, attraction, a-b-db, 14, 1, 5, 26, 60, 135, 135, 60, 56, 125, 2, 0.490058
286, 1, wb, attraction, a-b-db, 5, 2, 5, 27, 88, 161, 90, 165, 165, 90, 2, 1.26771
286, 1, wb, attraction, a-b-db, 5, 2, 5, 27, 88, 161, 90, 165, 165, 90, 3, 0.511937
286, 1, wb, attraction, a-b-da, 2, 3, 5, 28, 195, 120, 120, 195, 193, 119, 2, 0.873136
286, 1, wb, attraction, a-b-da, 2, 3, 5, 28, 195, 120, 120, 195, 193, 119, 1, 0.88483
286, 1, wb, filler, NA, 999, 999, 5, 29, 128, 162, 111, 93, 85, 74, 3, 0.703067
286, 1, wb, filler, NA, 999, 999, 5, 29, 128, 162, 111, 93, 85, 74, 1, 0.378189
286, 1, wb, attraction, a-b-da, 9, 3, 5, 30, 186, 114, 120, 195, 195, 120, 1, 0.744699
286, 1, wb, attraction, a-b-da, 9, 3, 5, 30, 186, 114, 120, 195, 195, 120, 3, 0.497805
286, 1, wb, attraction, a-b-da, 2, 2, 5, 31, 90, 165, 163, 89, 165, 90, 1, 0.723533
286, 1, wb, attraction, a-b-da, 2, 2, 5, 31, 90, 165, 163, 89, 165, 90, 3, 0.621296
286, 1, wb, catch, NA, 999, 999, 5, 32, 121, 134, 145, 170, 131, 64, 3, 0.850336
286, 1, wb, catch, NA, 999, 999, 5, 32, 121, 134, 145, 170, 131, 64, 2, 0.447432
286, 1, wb, attraction, a-b-da, 2, 1, 5, 33, 134, 59, 135, 60, 60, 135, 3, 0.515296
286, 1, wb, attraction, a-b-da, 2, 1, 5, 33, 134, 59, 135, 60, 60, 135, 2, 0.89368
286, 1, wb, filler, NA, 999, 999, 5, 34, 117, 75, 117, 76, 126, 78, 3, 0.423355
286, 1, wb, filler, NA, 999, 999, 5, 34, 117, 75, 117, 76, 126, 78, 2, 0.373216
286, 1, wb, catch, NA, 999, 999, 5, 35, 91, 104, 133, 122, 136, 179, 1, 0.867612
286, 1, wb, catch, NA, 999, 999, 5, 35, 91, 104, 133, 122, 136, 179, 3, 0.440056
286, 1, wb, filler, NA, 999, 999, 5, 36, 86, 60, 194, 172, 59, 93, 1, 0.819941
286, 1, wb, filler, NA, 999, 999, 5, 36, 86, 60, 194, 172, 59, 93, 2, 0.338228
286, 1, wb, attraction, a-b-db, 2, 3, 5, 37, 120, 195, 195, 120, 119, 193, 1, 0.794684
286, 1, wb, attraction, a-b-db, 2, 3, 5, 37, 120, 195, 195, 120, 119, 193, 2, 0.417869
286, 1, wb, attraction, a-b-da, 9, 2, 6, 1, 90, 165, 157, 86, 165, 90, 1, 0.558913
286, 1, wb, attraction, a-b-da, 9, 2, 6, 1, 90, 165, 157, 86, 165, 90, 3, 0.479409
286, 1, wb, attraction, a-b-db, 2, 2, 6, 2, 165, 90, 90, 165, 89, 163, 1, 0.713799
286, 1, wb, attraction, a-b-db, 2, 2, 6, 2, 165, 90, 90, 165, 89, 163, 3, 0.732342
286, 1, wb, filler, NA, 999, 999, 6, 3, 91, 68, 100, 100, 149, 60, 1, 0.988752
286, 1, wb, filler, NA, 999, 999, 6, 3, 91, 68, 100, 100, 149, 60, 2, 2.58771
286, 1, wb, attraction, a-b-db, 2, 1, 6, 4, 59, 134, 60, 135, 135, 60, 1, 0.881494
286, 1, wb, attraction, a-b-db, 2, 1, 6, 4, 59, 134, 60, 135, 135, 60, 2, 0.493203
286, 1, wb, attraction, a-b-db, 5, 1, 6, 5, 60, 135, 58, 132, 135, 60, 3, 2.25497
286, 1, wb, attraction, a-b-db, 5, 1, 6, 5, 60, 135, 58, 132, 135, 60, 2, 0.595592
286, 1, wb, attraction, a-b-db, 9, 2, 6, 6, 165, 90, 86, 157, 90, 165, 2, 1.4173
286, 1, wb, attraction, a-b-db, 9, 2, 6, 6, 165, 90, 86, 157, 90, 165, 3, 0.367524
286, 1, wb, filler, NA, 999, 999, 6, 7, 94, 171, 143, 164, 98, 58, 3, 0.82271
286, 1, wb, filler, NA, 999, 999, 6, 7, 94, 171, 143, 164, 98, 58, 2, 0.284349
286, 1, wb, catch, NA, 999, 999, 6, 8, 153, 102, 110, 85, 191, 124, 2, 0.902937
286, 1, wb, catch, NA, 999, 999, 6, 8, 153, 102, 110, 85, 191, 124, 3, 0.314026
286, 1, wb, attraction, a-b-da, 2, 1, 6, 9, 135, 60, 134, 59, 60, 135, 2, 0.803052
286, 1, wb, attraction, a-b-da, 2, 1, 6, 9, 135, 60, 134, 59, 60, 135, 3, 0.682143
286, 1, wb, catch, NA, 999, 999, 6, 10, 109, 146, 190, 125, 66, 129, 3, 0.620492
286, 1, wb, catch, NA, 999, 999, 6, 10, 109, 146, 190, 125, 66, 129, 2, 0.226957
286, 1, wb, attraction, a-b-db, 14, 2, 6, 11, 90, 165, 165, 90, 83, 153, 2, 0.903541
286, 1, wb, attraction, a-b-db, 14, 2, 6, 11, 90, 165, 165, 90, 83, 153, 1, 0.426634
286, 1, wb, attraction, a-b-da, 5, 1, 6, 12, 60, 135, 132, 58, 135, 60, 2, 0.703133
286, 1, wb, attraction, a-b-da, 5, 1, 6, 12, 60, 135, 132, 58, 135, 60, 1, 0.530183
286, 1, wb, attraction, a-b-da, 14, 2, 6, 13, 153, 83, 90, 165, 165, 90, 1, 0.778523
286, 1, wb, attraction, a-b-da, 14, 2, 6, 13, 153, 83, 90, 165, 165, 90, 2, 0.29824
286, 1, wb, attraction, a-b-db, 5, 2, 6, 14, 90, 165, 88, 161, 165, 90, 1, 0.532084
286, 1, wb, attraction, a-b-db, 5, 2, 6, 14, 90, 165, 88, 161, 165, 90, 3, 1.23012
286, 1, wb, attraction, a-b-da, 9, 1, 6, 15, 135, 60, 129, 57, 60, 135, 1, 0.498132
286, 1, wb, attraction, a-b-da, 9, 1, 6, 15, 135, 60, 129, 57, 60, 135, 2, 0.597267
286, 1, wb, filler, NA, 999, 999, 6, 16, 151, 192, 148, 77, 148, 80, 1, 0.483083
286, 1, wb, filler, NA, 999, 999, 6, 16, 151, 192, 148, 77, 148, 80, 2, 8.37484
286, 1, wb, attraction, a-b-db, 9, 1, 6, 17, 135, 60, 57, 129, 60, 135, 2, 2.94757
286, 1, wb, attraction, a-b-db, 9, 1, 6, 17, 135, 60, 57, 129, 60, 135, 3, 1.39596
286, 1, wb, attraction, a-b-da, 5, 3, 6, 18, 195, 120, 190, 117, 120, 195, 1, 1.29743
286, 1, wb, attraction, a-b-da, 5, 3, 6, 18, 195, 120, 190, 117, 120, 195, 3, 1.22842
286, 1, wb, attraction, a-b-db, 14, 3, 6, 19, 120, 195, 195, 120, 111, 181, 2, 2.04056
286, 1, wb, attraction, a-b-db, 14, 3, 6, 19, 120, 195, 195, 120, 111, 181, 1, 0.381176
286, 1, wb, filler, NA, 999, 999, 6, 20, 114, 156, 104, 141, 56, 177, 3, 1.08379
286, 1, wb, filler, NA, 999, 999, 6, 20, 114, 156, 104, 141, 56, 177, 1, 0.871484
286, 1, wb, filler, NA, 999, 999, 6, 21, 158, 130, 146, 195, 94, 195, 1, 1.16238
286, 1, wb, filler, NA, 999, 999, 6, 21, 158, 130, 146, 195, 94, 195, 2, 0.522752
286, 1, wb, attraction, a-b-db, 5, 3, 6, 22, 117, 190, 120, 195, 195, 120, 2, 5.88373
286, 1, wb, attraction, a-b-db, 5, 3, 6, 22, 117, 190, 120, 195, 195, 120, 1, 0.565877
286, 1, wb, attraction, a-b-da, 2, 3, 6, 23, 195, 120, 193, 119, 120, 195, 3, 0.813071
286, 1, wb, attraction, a-b-da, 2, 3, 6, 23, 195, 120, 193, 119, 120, 195, 2, 0.3073
286, 1, wb, attraction, a-b-da, 14, 1, 6, 24, 125, 56, 60, 135, 135, 60, 1, 0.844515
286, 1, wb, attraction, a-b-da, 14, 1, 6, 24, 125, 56, 60, 135, 135, 60, 2, 0.625534
286, 1, wb, catch, NA, 999, 999, 6, 25, 93, 102, 127, 128, 138, 177, 1, 0.614038
286, 1, wb, catch, NA, 999, 999, 6, 25, 93, 102, 127, 128, 138, 177, 3, 0.628479
286, 1, wb, attraction, a-b-da, 9, 3, 6, 26, 186, 114, 120, 195, 195, 120, 1, 1.01687
286, 1, wb, attraction, a-b-da, 9, 3, 6, 26, 186, 114, 120, 195, 195, 120, 2, 0.415136
286, 1, wb, filler, NA, 999, 999, 6, 27, 107, 102, 97, 87, 110, 184, 2, 0.804404
286, 1, wb, filler, NA, 999, 999, 6, 27, 107, 102, 97, 87, 110, 184, 3, 0.379389
286, 1, wb, attraction, a-b-db, 14, 1, 6, 28, 56, 125, 135, 60, 60, 135, 2, 0.62584
286, 1, wb, attraction, a-b-db, 14, 1, 6, 28, 56, 125, 135, 60, 60, 135, 3, 0.471725
286, 1, wb, attraction, a-b-da, 2, 2, 6, 29, 165, 90, 163, 89, 90, 165, 3, 0.906796
286, 1, wb, attraction, a-b-da, 2, 2, 6, 29, 165, 90, 163, 89, 90, 165, 2, 0.333098
286, 1, wb, filler, NA, 999, 999, 6, 30, 69, 152, 165, 79, 163, 169, 2, 0.629619
286, 1, wb, filler, NA, 999, 999, 6, 30, 69, 152, 165, 79, 163, 169, 3, 0.363427
286, 1, wb, filler, NA, 999, 999, 6, 31, 195, 129, 63, 155, 68, 193, 2, 0.738605
286, 1, wb, filler, NA, 999, 999, 6, 31, 195, 129, 63, 155, 68, 193, 1, 0.60368
286, 1, wb, filler, NA, 999, 999, 6, 32, 86, 149, 165, 145, 100, 95, 3, 0.873542
286, 1, wb, filler, NA, 999, 999, 6, 32, 86, 149, 165, 145, 100, 95, 2, 0.277206
286, 1, wb, attraction, a-b-da, 5, 2, 6, 33, 165, 90, 161, 88, 90, 165, 3, 0.591611
286, 1, wb, attraction, a-b-da, 5, 2, 6, 33, 165, 90, 161, 88, 90, 165, 2, 0.310902
286, 1, wb, attraction, a-b-db, 2, 3, 6, 34, 119, 193, 195, 120, 120, 195, 3, 0.472079
286, 1, wb, attraction, a-b-db, 2, 3, 6, 34, 119, 193, 195, 120, 120, 195, 1, 0.947726
286, 1, wb, filler, NA, 999, 999, 6, 35, 78, 178, 169, 139, 122, 88, 3, 0.755364
286, 1, wb, filler, NA, 999, 999, 6, 35, 78, 178, 169, 139, 122, 88, 2, 0.32391
286, 1, wb, attraction, a-b-da, 14, 3, 6, 36, 195, 120, 181, 111, 120, 195, 3, 0.660348
286, 1, wb, attraction, a-b-da, 14, 3, 6, 36, 195, 120, 181, 111, 120, 195, 1, 0.872713
286, 1, wb, attraction, a-b-db, 9, 3, 6, 37, 114, 186, 195, 120, 120, 195, 3, 0.53981
286, 1, wb, attraction, a-b-db, 9, 3, 6, 37, 114, 186, 195, 120, 120, 195, 2, 0.420899
286, 1, wb, attraction, a-b-da, 14, 1, 7, 1, 60, 135, 125, 56, 135, 60, 3, 0.914235
286, 1, wb, attraction, a-b-da, 14, 1, 7, 1, 60, 135, 125, 56, 135, 60, 1, 0.428427
286, 1, wb, filler, NA, 999, 999, 7, 2, 63, 191, 109, 67, 92, 63, 3, 0.944785
286, 1, wb, filler, NA, 999, 999, 7, 2, 63, 191, 109, 67, 92, 63, 1, 0.393941
286, 1, wb, attraction, a-b-db, 5, 3, 7, 3, 117, 190, 120, 195, 195, 120, 3, 1.68772
286, 1, wb, attraction, a-b-db, 5, 3, 7, 3, 117, 190, 120, 195, 195, 120, 2, 0.307148
286, 1, wb, attraction, a-b-db, 9, 3, 7, 4, 120, 195, 114, 186, 195, 120, 3, 0.588235
286, 1, wb, attraction, a-b-db, 9, 3, 7, 4, 120, 195, 114, 186, 195, 120, 2, 0.643461
286, 1, wb, filler, NA, 999, 999, 7, 5, 67, 190, 135, 78, 188, 193, 2, 0.983177
286, 1, wb, filler, NA, 999, 999, 7, 5, 67, 190, 135, 78, 188, 193, 3, 0.462862
286, 1, wb, attraction, a-b-db, 14, 3, 7, 6, 195, 120, 111, 181, 120, 195, 2, 1.55393
286, 1, wb, attraction, a-b-db, 14, 3, 7, 6, 195, 120, 111, 181, 120, 195, 1, 0.530843
286, 1, wb, attraction, a-b-da, 9, 3, 7, 7, 195, 120, 186, 114, 120, 195, 2, 1.14716
286, 1, wb, attraction, a-b-da, 9, 3, 7, 7, 195, 120, 186, 114, 120, 195, 3, 0.52412
286, 1, wb, attraction, a-b-da, 5, 1, 7, 8, 135, 60, 60, 135, 132, 58, 1, 1.0846
286, 1, wb, attraction, a-b-da, 5, 1, 7, 8, 135, 60, 60, 135, 132, 58, 2, 0.416271
286, 1, wb, attraction, a-b-da, 5, 3, 7, 9, 190, 117, 195, 120, 120, 195, 2, 0.637499
286, 1, wb, attraction, a-b-da, 5, 3, 7, 9, 190, 117, 195, 120, 120, 195, 1, 0.363196
286, 1, wb, attraction, a-b-db, 9, 2, 7, 10, 90, 165, 165, 90, 86, 157, 2, 0.882346
286, 1, wb, attraction, a-b-db, 9, 2, 7, 10, 90, 165, 165, 90, 86, 157, 1, 0.341995
286, 1, wb, attraction, a-b-db, 9, 1, 7, 11, 57, 129, 60, 135, 135, 60, 1, 1.33388
286, 1, wb, attraction, a-b-db, 9, 1, 7, 11, 57, 129, 60, 135, 135, 60, 2, 0.61546
286, 1, wb, filler, NA, 999, 999, 7, 12, 189, 116, 120, 71, 139, 110, 2, 0.940554
286, 1, wb, filler, NA, 999, 999, 7, 12, 189, 116, 120, 71, 139, 110, 1, 0.421599
286, 1, wb, attraction, a-b-da, 2, 1, 7, 13, 135, 60, 60, 135, 134, 59, 2, 1.66671
286, 1, wb, attraction, a-b-da, 2, 1, 7, 13, 135, 60, 60, 135, 134, 59, 1, 0.438803
286, 1, wb, filler, NA, 999, 999, 7, 14, 81, 118, 97, 76, 78, 170, 2, 1.0113
286, 1, wb, filler, NA, 999, 999, 7, 14, 81, 118, 97, 76, 78, 170, 3, 0.393615
286, 1, wb, attraction, a-b-da, 2, 2, 7, 15, 165, 90, 163, 89, 90, 165, 3, 1.28741
286, 1, wb, attraction, a-b-da, 2, 2, 7, 15, 165, 90, 163, 89, 90, 165, 2, 0.346992
286, 1, wb, filler, NA, 999, 999, 7, 16, 154, 129, 179, 122, 132, 172, 1, 3.38673
286, 1, wb, filler, NA, 999, 999, 7, 16, 154, 129, 179, 122, 132, 172, 3, 1.08176
286, 1, wb, attraction, a-b-db, 2, 1, 7, 17, 135, 60, 60, 135, 59, 134, 1, 0.731994
286, 1, wb, attraction, a-b-db, 2, 1, 7, 17, 135, 60, 60, 135, 59, 134, 3, 1.14169
286, 1, wb, catch, NA, 999, 999, 7, 18, 120, 195, 151, 104, 87, 108, 3, 1.12543
286, 1, wb, catch, NA, 999, 999, 7, 18, 120, 195, 151, 104, 87, 108, 1, 0.310938
286, 1, wb, attraction, a-b-da, 9, 1, 7, 19, 135, 60, 129, 57, 60, 135, 2, 0.968126
286, 1, wb, attraction, a-b-da, 9, 1, 7, 19, 135, 60, 129, 57, 60, 135, 1, 0.304499
286, 1, wb, filler, NA, 999, 999, 7, 20, 153, 92, 168, 174, 164, 143, 1, 1.08238
286, 1, wb, filler, NA, 999, 999, 7, 20, 153, 92, 168, 174, 164, 143, 2, 0.413884
286, 1, wb, attraction, a-b-db, 14, 2, 7, 21, 90, 165, 165, 90, 83, 153, 3, 0.69901
286, 1, wb, attraction, a-b-db, 14, 2, 7, 21, 90, 165, 165, 90, 83, 153, 2, 0.718287
286, 1, wb, attraction, a-b-db, 14, 1, 7, 22, 56, 125, 60, 135, 135, 60, 2, 1.16795
286, 1, wb, attraction, a-b-db, 14, 1, 7, 22, 56, 125, 60, 135, 135, 60, 1, 0.495515
286, 1, wb, attraction, a-b-db, 5, 2, 7, 23, 90, 165, 165, 90, 88, 161, 2, 0.737256
286, 1, wb, attraction, a-b-db, 5, 2, 7, 23, 90, 165, 165, 90, 88, 161, 1, 0.355193
286, 1, wb, attraction, a-b-db, 2, 2, 7, 24, 89, 163, 90, 165, 165, 90, 2, 0.73102
286, 1, wb, attraction, a-b-db, 2, 2, 7, 24, 89, 163, 90, 165, 165, 90, 1, 0.404716
286, 1, wb, attraction, a-b-da, 9, 2, 7, 25, 90, 165, 165, 90, 157, 86, 2, 0.690495
286, 1, wb, attraction, a-b-da, 9, 2, 7, 25, 90, 165, 165, 90, 157, 86, 1, 0.34949
286, 1, wb, attraction, a-b-da, 2, 3, 7, 26, 120, 195, 193, 119, 195, 120, 2, 0.837364
286, 1, wb, attraction, a-b-da, 2, 3, 7, 26, 120, 195, 193, 119, 195, 120, 1, 0.339014
286, 1, wb, attraction, a-b-db, 5, 1, 7, 27, 60, 135, 58, 132, 135, 60, 2, 0.723619
286, 1, wb, attraction, a-b-db, 5, 1, 7, 27, 60, 135, 58, 132, 135, 60, 3, 0.965361
286, 1, wb, filler, NA, 999, 999, 7, 28, 73, 183, 170, 145, 100, 60, 3, 0.876335
286, 1, wb, filler, NA, 999, 999, 7, 28, 73, 183, 170, 145, 100, 60, 2, 0.688044
286, 1, wb, filler, NA, 999, 999, 7, 29, 178, 102, 184, 120, 134, 84, 3, 1.28241
286, 1, wb, filler, NA, 999, 999, 7, 29, 178, 102, 184, 120, 134, 84, 2, 0.358019
286, 1, wb, filler, NA, 999, 999, 7, 30, 111, 126, 143, 181, 109, 133, 1, 0.78918
286, 1, wb, filler, NA, 999, 999, 7, 30, 111, 126, 143, 181, 109, 133, 2, 0.548106
286, 1, wb, attraction, a-b-da, 5, 2, 7, 31, 90, 165, 161, 88, 165, 90, 2, 0.995891
286, 1, wb, attraction, a-b-da, 5, 2, 7, 31, 90, 165, 161, 88, 165, 90, 3, 0.754891
286, 1, wb, attraction, a-b-db, 2, 3, 7, 32, 195, 120, 120, 195, 119, 193, 2, 4.97069
286, 1, wb, attraction, a-b-db, 2, 3, 7, 32, 195, 120, 120, 195, 119, 193, 1, 0.265745
286, 1, wb, filler, NA, 999, 999, 7, 33, 133, 79, 157, 107, 187, 115, 1, 0.916937
286, 1, wb, filler, NA, 999, 999, 7, 33, 133, 79, 157, 107, 187, 115, 3, 0.391356
286, 1, wb, attraction, a-b-da, 14, 3, 7, 34, 195, 120, 181, 111, 120, 195, 2, 0.877111
286, 1, wb, attraction, a-b-da, 14, 3, 7, 34, 195, 120, 181, 111, 120, 195, 3, 0.616885
286, 1, wb, catch, NA, 999, 999, 7, 35, 137, 178, 68, 127, 142, 113, 2, 0.685811
286, 1, wb, catch, NA, 999, 999, 7, 35, 137, 178, 68, 127, 142, 113, 1, 0.29761
286, 1, wb, attraction, a-b-da, 14, 2, 7, 36, 153, 83, 90, 165, 165, 90, 1, 0.923623
286, 1, wb, attraction, a-b-da, 14, 2, 7, 36, 153, 83, 90, 165, 165, 90, 3, 0.661309
286, 1, wb, catch, NA, 999, 999, 7, 37, 103, 152, 136, 179, 73, 122, 3, 1.11228
286, 1, wb, catch, NA, 999, 999, 7, 37, 103, 152, 136, 179, 73, 122, 2, 0.29057
286, 1, wb, attraction, a-b-db, 9, 1, 8, 1, 135, 60, 57, 129, 60, 135, 3, 0.580387
286, 1, wb, attraction, a-b-db, 9, 1, 8, 1, 135, 60, 57, 129, 60, 135, 1, 0.508173
286, 1, wb, filler, NA, 999, 999, 8, 2, 112, 58, 148, 78, 63, 60, 3, 0.661308
286, 1, wb, filler, NA, 999, 999, 8, 2, 112, 58, 148, 78, 63, 60, 2, 0.69787
286, 1, wb, attraction, a-b-da, 14, 1, 8, 3, 135, 60, 60, 135, 125, 56, 2, 1.16362
286, 1, wb, attraction, a-b-da, 14, 1, 8, 3, 135, 60, 60, 135, 125, 56, 3, 0.603652
286, 1, wb, attraction, a-b-db, 14, 3, 8, 4, 120, 195, 111, 181, 195, 120, 2, 0.465428
286, 1, wb, attraction, a-b-db, 14, 3, 8, 4, 120, 195, 111, 181, 195, 120, 1, 0.293908
286, 1, wb, attraction, a-b-da, 5, 1, 8, 5, 132, 58, 60, 135, 135, 60, 2, 1.03975
286, 1, wb, attraction, a-b-da, 5, 1, 8, 5, 132, 58, 60, 135, 135, 60, 3, 0.452748
286, 1, wb, filler, NA, 999, 999, 8, 6, 161, 102, 60, 126, 184, 120, 2, 0.720553
286, 1, wb, filler, NA, 999, 999, 8, 6, 161, 102, 60, 126, 184, 120, 3, 0.355003
286, 1, wb, catch, NA, 999, 999, 8, 7, 180, 135, 111, 84, 100, 155, 2, 0.970882
286, 1, wb, catch, NA, 999, 999, 8, 7, 180, 135, 111, 84, 100, 155, 1, 0.251131
286, 1, wb, attraction, a-b-db, 2, 3, 8, 8, 119, 193, 120, 195, 195, 120, 3, 0.863075
286, 1, wb, attraction, a-b-db, 2, 3, 8, 8, 119, 193, 120, 195, 195, 120, 1, 0.843401
286, 1, wb, attraction, a-b-db, 14, 2, 8, 9, 83, 153, 165, 90, 90, 165, 2, 1.02312
286, 1, wb, attraction, a-b-db, 14, 2, 8, 9, 83, 153, 165, 90, 90, 165, 1, 0.652725
286, 1, wb, attraction, a-b-db, 5, 1, 8, 10, 60, 135, 135, 60, 58, 132, 2, 1.1926
286, 1, wb, attraction, a-b-db, 5, 1, 8, 10, 60, 135, 135, 60, 58, 132, 1, 0.399446
286, 1, wb, catch, NA, 999, 999, 8, 11, 132, 123, 180, 135, 93, 102, 3, 0.813318
286, 1, wb, catch, NA, 999, 999, 8, 11, 132, 123, 180, 135, 93, 102, 2, 0.34769
286, 1, wb, attraction, a-b-db, 14, 1, 8, 12, 60, 135, 135, 60, 56, 125, 3, 0.923486
286, 1, wb, attraction, a-b-db, 14, 1, 8, 12, 60, 135, 135, 60, 56, 125, 1, 0.82919
286, 1, wb, filler, NA, 999, 999, 8, 13, 89, 105, 136, 137, 145, 78, 1, 0.865482
286, 1, wb, filler, NA, 999, 999, 8, 13, 89, 105, 136, 137, 145, 78, 2, 0.333838
286, 1, wb, catch, NA, 999, 999, 8, 14, 164, 151, 73, 122, 127, 128, 2, 0.918386
286, 1, wb, catch, NA, 999, 999, 8, 14, 164, 151, 73, 122, 127, 128, 1, 0.432949
286, 1, wb, attraction, a-b-da, 5, 2, 8, 15, 90, 165, 165, 90, 161, 88, 3, 1.20533
286, 1, wb, attraction, a-b-da, 5, 2, 8, 15, 90, 165, 165, 90, 161, 88, 1, 0.699501
286, 1, wb, attraction, a-b-db, 9, 2, 8, 16, 86, 157, 165, 90, 90, 165, 1, 1.04514
286, 1, wb, attraction, a-b-db, 9, 2, 8, 16, 86, 157, 165, 90, 90, 165, 2, 0.514237
286, 1, wb, attraction, a-b-db, 2, 2, 8, 17, 89, 163, 165, 90, 90, 165, 3, 0.58732
286, 1, wb, attraction, a-b-db, 2, 2, 8, 17, 89, 163, 165, 90, 90, 165, 2, 0.435109
286, 1, wb, filler, NA, 999, 999, 8, 18, 103, 76, 100, 157, 120, 146, 1, 0.583571
286, 1, wb, filler, NA, 999, 999, 8, 18, 103, 76, 100, 157, 120, 146, 3, 0.431372
286, 1, wb, attraction, a-b-db, 2, 1, 8, 19, 59, 134, 135, 60, 60, 135, 1, 0.539825
286, 1, wb, attraction, a-b-db, 2, 1, 8, 19, 59, 134, 135, 60, 60, 135, 2, 0.517011
286, 1, wb, attraction, a-b-da, 2, 1, 8, 20, 134, 59, 60, 135, 135, 60, 1, 0.542148
286, 1, wb, attraction, a-b-da, 2, 1, 8, 20, 134, 59, 60, 135, 135, 60, 3, 0.767169
286, 1, wb, filler, NA, 999, 999, 8, 21, 154, 192, 65, 150, 65, 185, 2, 0.550281
286, 1, wb, filler, NA, 999, 999, 8, 21, 154, 192, 65, 150, 65, 185, 1, 0.327289
286, 1, wb, attraction, a-b-da, 14, 2, 8, 22, 153, 83, 90, 165, 165, 90, 1, 1.01585
286, 1, wb, attraction, a-b-da, 14, 2, 8, 22, 153, 83, 90, 165, 165, 90, 2, 0.374216
286, 1, wb, attraction, a-b-db, 5, 2, 8, 23, 88, 161, 165, 90, 90, 165, 2, 1.0527
286, 1, wb, attraction, a-b-db, 5, 2, 8, 23, 88, 161, 165, 90, 90, 165, 1, 0.329615
286, 1, wb, attraction, a-b-da, 9, 1, 8, 24, 60, 135, 129, 57, 135, 60, 2, 0.946259
286, 1, wb, attraction, a-b-da, 9, 1, 8, 24, 60, 135, 129, 57, 135, 60, 1, 0.299239
286, 1, wb, filler, NA, 999, 999, 8, 25, 172, 71, 134, 141, 163, 69, 3, 1.34904
286, 1, wb, filler, NA, 999, 999, 8, 25, 172, 71, 134, 141, 163, 69, 2, 0.589845
286, 1, wb, attraction, a-b-da, 2, 3, 8, 26, 193, 119, 195, 120, 120, 195, 2, 1.1644
286, 1, wb, attraction, a-b-da, 2, 3, 8, 26, 193, 119, 195, 120, 120, 195, 3, 0.708773
286, 1, wb, filler, NA, 999, 999, 8, 27, 140, 160, 152, 152, 135, 186, 2, 1.46961
286, 1, wb, filler, NA, 999, 999, 8, 27, 140, 160, 152, 152, 135, 186, 3, 0.65791
286, 1, wb, attraction, a-b-db, 5, 3, 8, 28, 120, 195, 195, 120, 117, 190, 2, 2.25293
286, 1, wb, attraction, a-b-db, 5, 3, 8, 28, 120, 195, 195, 120, 117, 190, 1, 0.417645
286, 1, wb, attraction, a-b-da, 9, 2, 8, 29, 157, 86, 165, 90, 90, 165, 2, 1.11068
286, 1, wb, attraction, a-b-da, 9, 2, 8, 29, 157, 86, 165, 90, 90, 165, 1, 0.576997
286, 1, wb, filler, NA, 999, 999, 8, 30, 64, 177, 99, 97, 64, 153, 2, 0.527469
286, 1, wb, filler, NA, 999, 999, 8, 30, 64, 177, 99, 97, 64, 153, 1, 3.33723
286, 1, wb, attraction, a-b-da, 2, 2, 8, 31, 163, 89, 90, 165, 165, 90, 2, 0.776743
286, 1, wb, attraction, a-b-da, 2, 2, 8, 31, 163, 89, 90, 165, 165, 90, 1, 0.376513
286, 1, wb, filler, NA, 999, 999, 8, 32, 92, 77, 108, 67, 100, 60, 3, 11.5431
286, 1, wb, filler, NA, 999, 999, 8, 32, 92, 77, 108, 67, 100, 60, 1, 0.372617
286, 1, wb, attraction, a-b-da, 14, 3, 8, 33, 195, 120, 120, 195, 181, 111, 1, 1.52378
286, 1, wb, attraction, a-b-da, 14, 3, 8, 33, 195, 120, 120, 195, 181, 111, 2, 0.397487
286, 1, wb, attraction, a-b-db, 9, 3, 8, 34, 120, 195, 195, 120, 114, 186, 3, 1.31517
286, 1, wb, attraction, a-b-db, 9, 3, 8, 34, 120, 195, 195, 120, 114, 186, 2, 0.725438
286, 1, wb, filler, NA, 999, 999, 8, 35, 72, 145, 159, 105, 114, 95, 1, 1.54185
286, 1, wb, filler, NA, 999, 999, 8, 35, 72, 145, 159, 105, 114, 95, 2, 0.702634
286, 1, wb, attraction, a-b-da, 5, 3, 8, 36, 120, 195, 190, 117, 195, 120, 2, 1.04028
286, 1, wb, attraction, a-b-da, 5, 3, 8, 36, 120, 195, 190, 117, 195, 120, 1, 0.349277
286, 1, wb, attraction, a-b-da, 9, 3, 8, 37, 186, 114, 120, 195, 195, 120, 1, 1.90914
286, 1, wb, attraction, a-b-da, 9, 3, 8, 37, 186, 114, 120, 195, 195, 120, 2, 0.319259
