sub_n, computer_n, bw_cond, effect, set, distance, diag, block_n, trial_n, h1, w1, h2, w2, h3, w3, choice, rt 
296, 1, wb, practice, NA, 999, 999, 0, 1, 125, 124, 72, 150, 106, 69, 3, 8.09093
296, 1, wb, practice, NA, 999, 999, 0, 1, 125, 124, 72, 150, 106, 69, 1, 13.0987
296, 1, wb, practice, NA, 999, 999, 0, 2, 106, 94, 118, 188, 74, 166, 1, 10.1356
296, 1, wb, practice, NA, 999, 999, 0, 2, 106, 94, 118, 188, 74, 166, 2, 3.83644
296, 1, wb, practice, NA, 999, 999, 0, 3, 149, 65, 114, 107, 73, 99, 3, 9.93369
296, 1, wb, practice, NA, 999, 999, 0, 3, 149, 65, 114, 107, 73, 99, 2, 4.57127
296, 1, wb, attraction, a-b-db, 14, 2, 1, 1, 83, 153, 165, 90, 90, 165, 1, 32.1655
296, 1, wb, attraction, a-b-db, 14, 2, 1, 1, 83, 153, 165, 90, 90, 165, 3, 9.98021
296, 1, wb, attraction, a-b-da, 5, 3, 1, 2, 190, 117, 195, 120, 120, 195, 1, 10.7996
296, 1, wb, attraction, a-b-da, 5, 3, 1, 2, 190, 117, 195, 120, 120, 195, 3, 1.97961
296, 1, wb, attraction, a-b-da, 14, 1, 1, 3, 60, 135, 125, 56, 135, 60, 2, 9.6656
296, 1, wb, attraction, a-b-da, 14, 1, 1, 3, 60, 135, 125, 56, 135, 60, 3, 6.71536
296, 1, wb, filler, NA, 999, 999, 1, 4, 90, 67, 106, 82, 65, 145, 1, 2.81039
296, 1, wb, filler, NA, 999, 999, 1, 4, 90, 67, 106, 82, 65, 145, 3, 4.64025
296, 1, wb, attraction, a-b-da, 14, 2, 1, 5, 90, 165, 153, 83, 165, 90, 2, 28.6593
296, 1, wb, attraction, a-b-da, 14, 2, 1, 5, 90, 165, 153, 83, 165, 90, 3, 4.43962
296, 1, wb, attraction, a-b-da, 5, 2, 1, 6, 165, 90, 90, 165, 161, 88, 3, 8.4109
296, 1, wb, attraction, a-b-da, 5, 2, 1, 6, 165, 90, 90, 165, 161, 88, 2, 3.63887
296, 1, wb, attraction, a-b-db, 9, 2, 1, 7, 165, 90, 86, 157, 90, 165, 2, 6.21838
296, 1, wb, attraction, a-b-db, 9, 2, 1, 7, 165, 90, 86, 157, 90, 165, 3, 2.87104
296, 1, wb, attraction, a-b-db, 9, 3, 1, 8, 120, 195, 195, 120, 114, 186, 3, 2.55342
296, 1, wb, attraction, a-b-db, 9, 3, 1, 8, 120, 195, 195, 120, 114, 186, 2, 3.90593
296, 1, wb, catch, NA, 999, 999, 1, 9, 86, 109, 137, 178, 142, 113, 1, 1.52266
296, 1, wb, catch, NA, 999, 999, 1, 9, 86, 109, 137, 178, 142, 113, 2, 1.13215
296, 1, wb, attraction, a-b-db, 2, 2, 1, 10, 90, 165, 165, 90, 89, 163, 3, 7.99642
296, 1, wb, attraction, a-b-db, 2, 2, 1, 10, 90, 165, 165, 90, 89, 163, 2, 4.17719
296, 1, wb, attraction, a-b-da, 9, 2, 1, 11, 165, 90, 90, 165, 157, 86, 3, 5.6385
296, 1, wb, attraction, a-b-da, 9, 2, 1, 11, 165, 90, 90, 165, 157, 86, 2, 1.81869
296, 1, wb, filler, NA, 999, 999, 1, 12, 161, 180, 82, 165, 90, 116, 3, 1.54334
296, 1, wb, filler, NA, 999, 999, 1, 12, 161, 180, 82, 165, 90, 116, 1, 1.80832
296, 1, wb, filler, NA, 999, 999, 1, 13, 140, 193, 94, 73, 155, 60, 2, 4.98901
296, 1, wb, filler, NA, 999, 999, 1, 13, 140, 193, 94, 73, 155, 60, 1, 0.92351
296, 1, wb, attraction, a-b-db, 2, 1, 1, 14, 59, 134, 60, 135, 135, 60, 1, 6.88366
296, 1, wb, attraction, a-b-db, 2, 1, 1, 14, 59, 134, 60, 135, 135, 60, 3, 6.42957
296, 1, wb, attraction, a-b-da, 5, 1, 1, 15, 132, 58, 60, 135, 135, 60, 1, 25.0481
296, 1, wb, attraction, a-b-da, 5, 1, 1, 15, 132, 58, 60, 135, 135, 60, 3, 4.10158
296, 1, wb, attraction, a-b-da, 14, 3, 1, 16, 120, 195, 181, 111, 195, 120, 2, 3.91043
296, 1, wb, attraction, a-b-da, 14, 3, 1, 16, 120, 195, 181, 111, 195, 120, 1, 2.46375
296, 1, wb, attraction, a-b-da, 2, 1, 1, 17, 60, 135, 134, 59, 135, 60, 1, 19.5621
296, 1, wb, attraction, a-b-da, 2, 1, 1, 17, 60, 135, 134, 59, 135, 60, 3, 9.74872
296, 1, wb, filler, NA, 999, 999, 1, 18, 129, 97, 68, 106, 68, 182, 2, 2.80177
296, 1, wb, filler, NA, 999, 999, 1, 18, 129, 97, 68, 106, 68, 182, 1, 3.81604
296, 1, wb, catch, NA, 999, 999, 1, 19, 192, 123, 127, 128, 116, 79, 3, 1.81216
296, 1, wb, catch, NA, 999, 999, 1, 19, 192, 123, 127, 128, 116, 79, 1, 1.43432
296, 1, wb, attraction, a-b-da, 9, 3, 1, 20, 120, 195, 195, 120, 186, 114, 3, 2.39036
296, 1, wb, attraction, a-b-da, 9, 3, 1, 20, 120, 195, 195, 120, 186, 114, 1, 3.09291
296, 1, wb, attraction, a-b-db, 9, 1, 1, 21, 135, 60, 57, 129, 60, 135, 2, 4.90184
296, 1, wb, attraction, a-b-db, 9, 1, 1, 21, 135, 60, 57, 129, 60, 135, 1, 1.79181
296, 1, wb, attraction, a-b-da, 2, 2, 1, 22, 163, 89, 90, 165, 165, 90, 1, 12.2291
296, 1, wb, attraction, a-b-da, 2, 2, 1, 22, 163, 89, 90, 165, 165, 90, 2, 3.91124
296, 1, wb, filler, NA, 999, 999, 1, 23, 66, 171, 144, 65, 112, 133, 2, 3.42328
296, 1, wb, filler, NA, 999, 999, 1, 23, 66, 171, 144, 65, 112, 133, 3, 4.53228
296, 1, wb, catch, NA, 999, 999, 1, 24, 133, 62, 153, 102, 152, 163, 1, 1.39534
296, 1, wb, catch, NA, 999, 999, 1, 24, 133, 62, 153, 102, 152, 163, 3, 0.898167
296, 1, wb, filler, NA, 999, 999, 1, 25, 126, 183, 129, 137, 59, 84, 3, 1.44388
296, 1, wb, filler, NA, 999, 999, 1, 25, 126, 183, 129, 137, 59, 84, 1, 0.92872
296, 1, wb, filler, NA, 999, 999, 1, 26, 105, 123, 142, 158, 174, 167, 1, 1.62508
296, 1, wb, filler, NA, 999, 999, 1, 26, 105, 123, 142, 158, 174, 167, 3, 0.502526
296, 1, wb, attraction, a-b-db, 14, 1, 1, 27, 60, 135, 135, 60, 56, 125, 3, 3.96829
296, 1, wb, attraction, a-b-db, 14, 1, 1, 27, 60, 135, 135, 60, 56, 125, 2, 1.32769
296, 1, wb, filler, NA, 999, 999, 1, 28, 161, 189, 152, 183, 176, 71, 3, 1.12789
296, 1, wb, filler, NA, 999, 999, 1, 28, 161, 189, 152, 183, 176, 71, 1, 3.44946
296, 1, wb, attraction, a-b-db, 2, 3, 1, 29, 120, 195, 119, 193, 195, 120, 3, 10.5404
296, 1, wb, attraction, a-b-db, 2, 3, 1, 29, 120, 195, 119, 193, 195, 120, 2, 1.98642
296, 1, wb, filler, NA, 999, 999, 1, 30, 165, 150, 133, 86, 166, 156, 2, 1.04041
296, 1, wb, filler, NA, 999, 999, 1, 30, 165, 150, 133, 86, 166, 156, 1, 0.989411
296, 1, wb, attraction, a-b-da, 2, 3, 1, 31, 193, 119, 120, 195, 195, 120, 1, 18.6677
296, 1, wb, attraction, a-b-da, 2, 3, 1, 31, 193, 119, 120, 195, 195, 120, 2, 1.05842
296, 1, wb, attraction, a-b-db, 5, 1, 1, 32, 60, 135, 58, 132, 135, 60, 3, 3.71742
296, 1, wb, attraction, a-b-db, 5, 1, 1, 32, 60, 135, 58, 132, 135, 60, 2, 0.68699
296, 1, wb, filler, NA, 999, 999, 1, 33, 72, 144, 115, 126, 142, 191, 1, 1.09723
296, 1, wb, filler, NA, 999, 999, 1, 33, 72, 144, 115, 126, 142, 191, 3, 0.708156
296, 1, wb, attraction, a-b-db, 5, 2, 1, 34, 90, 165, 88, 161, 165, 90, 3, 5.78927
296, 1, wb, attraction, a-b-db, 5, 2, 1, 34, 90, 165, 88, 161, 165, 90, 2, 2.35473
296, 1, wb, attraction, a-b-da, 9, 1, 1, 35, 60, 135, 129, 57, 135, 60, 1, 12.426
296, 1, wb, attraction, a-b-da, 9, 1, 1, 35, 60, 135, 129, 57, 135, 60, 3, 0.628041
296, 1, wb, attraction, a-b-db, 14, 3, 1, 36, 195, 120, 120, 195, 111, 181, 3, 2.78447
296, 1, wb, attraction, a-b-db, 14, 3, 1, 36, 195, 120, 120, 195, 111, 181, 1, 2.83171
296, 1, wb, attraction, a-b-db, 5, 3, 1, 37, 120, 195, 117, 190, 195, 120, 2, 6.02727
296, 1, wb, attraction, a-b-db, 5, 3, 1, 37, 120, 195, 117, 190, 195, 120, 3, 0.791431
296, 1, wb, attraction, a-b-da, 14, 2, 2, 1, 165, 90, 90, 165, 153, 83, 3, 5.85317
296, 1, wb, attraction, a-b-da, 14, 2, 2, 1, 165, 90, 90, 165, 153, 83, 2, 1.07256
296, 1, wb, attraction, a-b-db, 2, 1, 2, 2, 59, 134, 60, 135, 135, 60, 1, 2.81955
296, 1, wb, attraction, a-b-db, 2, 1, 2, 2, 59, 134, 60, 135, 135, 60, 3, 1.83339
296, 1, wb, filler, NA, 999, 999, 2, 3, 104, 188, 185, 114, 105, 70, 3, 1.02128
296, 1, wb, filler, NA, 999, 999, 2, 3, 104, 188, 185, 114, 105, 70, 2, 1.8437
296, 1, wb, attraction, a-b-da, 5, 1, 2, 4, 132, 58, 60, 135, 135, 60, 1, 4.24699
296, 1, wb, attraction, a-b-da, 5, 1, 2, 4, 132, 58, 60, 135, 135, 60, 3, 2.92304
296, 1, wb, catch, NA, 999, 999, 2, 5, 164, 91, 85, 110, 159, 156, 2, 1.58736
296, 1, wb, catch, NA, 999, 999, 2, 5, 164, 91, 85, 110, 159, 156, 3, 0.706809
296, 1, wb, attraction, a-b-da, 2, 2, 2, 6, 90, 165, 163, 89, 165, 90, 1, 71.7079
296, 1, wb, attraction, a-b-da, 2, 2, 2, 6, 90, 165, 163, 89, 165, 90, 2, 2.46545
296, 1, wb, attraction, a-b-db, 5, 2, 2, 7, 90, 165, 165, 90, 88, 161, 1, 3.47596
296, 1, wb, attraction, a-b-db, 5, 2, 2, 7, 90, 165, 165, 90, 88, 161, 2, 0.806889
296, 1, wb, filler, NA, 999, 999, 2, 8, 103, 85, 161, 144, 140, 194, 1, 0.955829
296, 1, wb, filler, NA, 999, 999, 2, 8, 103, 85, 161, 144, 140, 194, 3, 0.94027
296, 1, wb, filler, NA, 999, 999, 2, 9, 188, 63, 188, 173, 130, 134, 1, 3.10795
296, 1, wb, filler, NA, 999, 999, 2, 9, 188, 63, 188, 173, 130, 134, 2, 0.845504
296, 1, wb, attraction, a-b-db, 5, 3, 2, 10, 117, 190, 120, 195, 195, 120, 1, 5.96121
296, 1, wb, attraction, a-b-db, 5, 3, 2, 10, 117, 190, 120, 195, 195, 120, 3, 1.02393
296, 1, wb, attraction, a-b-da, 2, 3, 2, 11, 193, 119, 120, 195, 195, 120, 1, 2.1963
296, 1, wb, attraction, a-b-da, 2, 3, 2, 11, 193, 119, 120, 195, 195, 120, 2, 2.99491
296, 1, wb, attraction, a-b-da, 14, 3, 2, 12, 195, 120, 120, 195, 181, 111, 3, 1.3838
296, 1, wb, attraction, a-b-da, 14, 3, 2, 12, 195, 120, 120, 195, 181, 111, 1, 1.33541
296, 1, wb, filler, NA, 999, 999, 2, 13, 96, 181, 84, 108, 96, 159, 2, 1.19973
296, 1, wb, filler, NA, 999, 999, 2, 13, 96, 181, 84, 108, 96, 159, 1, 1.04665
296, 1, wb, attraction, a-b-db, 14, 2, 2, 14, 90, 165, 165, 90, 83, 153, 3, 3.18623
296, 1, wb, attraction, a-b-db, 14, 2, 2, 14, 90, 165, 165, 90, 83, 153, 2, 5.35318
296, 1, wb, attraction, a-b-da, 5, 3, 2, 15, 190, 117, 195, 120, 120, 195, 1, 20.1834
296, 1, wb, attraction, a-b-da, 5, 3, 2, 15, 190, 117, 195, 120, 120, 195, 3, 1.129
296, 1, wb, catch, NA, 999, 999, 2, 16, 137, 178, 60, 135, 121, 134, 2, 1.31326
296, 1, wb, catch, NA, 999, 999, 2, 16, 137, 178, 60, 135, 121, 134, 1, 0.475484
296, 1, wb, attraction, a-b-db, 9, 2, 2, 17, 165, 90, 86, 157, 90, 165, 1, 5.90212
296, 1, wb, attraction, a-b-db, 9, 2, 2, 17, 165, 90, 86, 157, 90, 165, 3, 0.39151
296, 1, wb, attraction, a-b-db, 9, 1, 2, 18, 135, 60, 60, 135, 57, 129, 3, 2.01336
296, 1, wb, attraction, a-b-db, 9, 1, 2, 18, 135, 60, 60, 135, 57, 129, 2, 1.0193
296, 1, wb, filler, NA, 999, 999, 2, 19, 192, 176, 167, 110, 191, 123, 2, 2.0883
296, 1, wb, filler, NA, 999, 999, 2, 19, 192, 176, 167, 110, 191, 123, 1, 0.72359
296, 1, wb, attraction, a-b-da, 14, 1, 2, 20, 125, 56, 135, 60, 60, 135, 1, 7.14814
296, 1, wb, attraction, a-b-da, 14, 1, 2, 20, 125, 56, 135, 60, 60, 135, 3, 1.27505
296, 1, wb, attraction, a-b-db, 2, 3, 2, 21, 195, 120, 120, 195, 119, 193, 2, 11.8132
296, 1, wb, attraction, a-b-db, 2, 3, 2, 21, 195, 120, 120, 195, 119, 193, 1, 1.23215
296, 1, wb, attraction, a-b-da, 5, 2, 2, 22, 165, 90, 90, 165, 161, 88, 3, 2.82052
296, 1, wb, attraction, a-b-da, 5, 2, 2, 22, 165, 90, 90, 165, 161, 88, 2, 0.634354
296, 1, wb, attraction, a-b-db, 14, 1, 2, 23, 60, 135, 135, 60, 56, 125, 3, 17.2546
296, 1, wb, attraction, a-b-db, 14, 1, 2, 23, 60, 135, 135, 60, 56, 125, 1, 1.79854
296, 1, wb, attraction, a-b-db, 9, 3, 2, 24, 195, 120, 114, 186, 120, 195, 2, 10.4199
296, 1, wb, attraction, a-b-db, 9, 3, 2, 24, 195, 120, 114, 186, 120, 195, 1, 1.75123
296, 1, wb, attraction, a-b-db, 14, 3, 2, 25, 195, 120, 120, 195, 111, 181, 3, 1.87871
296, 1, wb, attraction, a-b-db, 14, 3, 2, 25, 195, 120, 120, 195, 111, 181, 2, 0.961996
296, 1, wb, filler, NA, 999, 999, 2, 26, 110, 177, 112, 63, 128, 58, 2, 2.3132
296, 1, wb, filler, NA, 999, 999, 2, 26, 110, 177, 112, 63, 128, 58, 1, 0.690913
296, 1, wb, filler, NA, 999, 999, 2, 27, 155, 96, 154, 60, 101, 133, 2, 4.82863
296, 1, wb, filler, NA, 999, 999, 2, 27, 155, 96, 154, 60, 101, 133, 1, 4.45736
296, 1, wb, attraction, a-b-da, 9, 2, 2, 28, 157, 86, 165, 90, 90, 165, 1, 6.51568
296, 1, wb, attraction, a-b-da, 9, 2, 2, 28, 157, 86, 165, 90, 90, 165, 3, 6.90828
296, 1, wb, filler, NA, 999, 999, 2, 29, 118, 133, 194, 145, 81, 121, 3, 1.10803
296, 1, wb, filler, NA, 999, 999, 2, 29, 118, 133, 194, 145, 81, 121, 2, 0.430369
296, 1, wb, filler, NA, 999, 999, 2, 30, 171, 101, 173, 119, 192, 78, 1, 3.45079
296, 1, wb, filler, NA, 999, 999, 2, 30, 171, 101, 173, 119, 192, 78, 2, 3.36712
296, 1, wb, attraction, a-b-da, 2, 1, 2, 31, 135, 60, 134, 59, 60, 135, 1, 4.37336
296, 1, wb, attraction, a-b-da, 2, 1, 2, 31, 135, 60, 134, 59, 60, 135, 3, 1.04387
296, 1, wb, attraction, a-b-db, 2, 2, 2, 32, 90, 165, 165, 90, 89, 163, 3, 7.58359
296, 1, wb, attraction, a-b-db, 2, 2, 2, 32, 90, 165, 165, 90, 89, 163, 2, 1.70109
296, 1, wb, catch, NA, 999, 999, 2, 33, 186, 129, 146, 109, 76, 119, 3, 0.910479
296, 1, wb, catch, NA, 999, 999, 2, 33, 186, 129, 146, 109, 76, 119, 1, 0.496836
296, 1, wb, attraction, a-b-db, 5, 1, 2, 34, 135, 60, 58, 132, 60, 135, 2, 9.17869
296, 1, wb, attraction, a-b-db, 5, 1, 2, 34, 135, 60, 58, 132, 60, 135, 3, 1.79175
296, 1, wb, filler, NA, 999, 999, 2, 35, 101, 194, 78, 111, 68, 157, 2, 1.65314
296, 1, wb, filler, NA, 999, 999, 2, 35, 101, 194, 78, 111, 68, 157, 1, 0.425946
296, 1, wb, attraction, a-b-da, 9, 3, 2, 36, 195, 120, 120, 195, 186, 114, 3, 2.75843
296, 1, wb, attraction, a-b-da, 9, 3, 2, 36, 195, 120, 120, 195, 186, 114, 2, 0.878235
296, 1, wb, attraction, a-b-da, 9, 1, 2, 37, 60, 135, 129, 57, 135, 60, 1, 3.98453
296, 1, wb, attraction, a-b-da, 9, 1, 2, 37, 60, 135, 129, 57, 135, 60, 3, 1.99931
296, 1, wb, attraction, a-b-db, 9, 2, 3, 1, 165, 90, 90, 165, 86, 157, 3, 8.82863
296, 1, wb, attraction, a-b-db, 9, 2, 3, 1, 165, 90, 90, 165, 86, 157, 2, 1.23981
296, 1, wb, catch, NA, 999, 999, 3, 2, 140, 115, 147, 168, 83, 112, 3, 1.18803
296, 1, wb, catch, NA, 999, 999, 3, 2, 140, 115, 147, 168, 83, 112, 2, 0.875698
296, 1, wb, attraction, a-b-db, 9, 3, 3, 3, 195, 120, 120, 195, 114, 186, 3, 12.0619
296, 1, wb, attraction, a-b-db, 9, 3, 3, 3, 195, 120, 120, 195, 114, 186, 1, 0.878825
296, 1, wb, catch, NA, 999, 999, 3, 4, 175, 140, 80, 115, 161, 94, 2, 0.865067
296, 1, wb, catch, NA, 999, 999, 3, 4, 175, 140, 80, 115, 161, 94, 1, 0.389506
296, 1, wb, attraction, a-b-da, 9, 1, 3, 5, 129, 57, 60, 135, 135, 60, 1, 4.52397
296, 1, wb, attraction, a-b-da, 9, 1, 3, 5, 129, 57, 60, 135, 135, 60, 2, 0.732546
296, 1, wb, attraction, a-b-da, 9, 2, 3, 6, 90, 165, 157, 86, 165, 90, 2, 6.23694
296, 1, wb, attraction, a-b-da, 9, 2, 3, 6, 90, 165, 157, 86, 165, 90, 1, 0.936944
296, 1, wb, attraction, a-b-da, 14, 2, 3, 7, 165, 90, 90, 165, 153, 83, 1, 2.57733
296, 1, wb, attraction, a-b-da, 14, 2, 3, 7, 165, 90, 90, 165, 153, 83, 2, 1.28864
296, 1, wb, filler, NA, 999, 999, 3, 8, 168, 170, 71, 109, 83, 146, 2, 1.08261
296, 1, wb, filler, NA, 999, 999, 3, 8, 168, 170, 71, 109, 83, 146, 1, 0.358217
296, 1, wb, attraction, a-b-da, 9, 3, 3, 9, 195, 120, 120, 195, 186, 114, 3, 1.72546
296, 1, wb, attraction, a-b-da, 9, 3, 3, 9, 195, 120, 120, 195, 186, 114, 2, 0.39105
296, 1, wb, filler, NA, 999, 999, 3, 10, 183, 142, 104, 102, 101, 87, 3, 1.63676
296, 1, wb, filler, NA, 999, 999, 3, 10, 183, 142, 104, 102, 101, 87, 1, 0.746315
296, 1, wb, attraction, a-b-da, 5, 1, 3, 11, 135, 60, 60, 135, 132, 58, 2, 4.47388
296, 1, wb, attraction, a-b-da, 5, 1, 3, 11, 135, 60, 60, 135, 132, 58, 1, 0.636438
296, 1, wb, attraction, a-b-db, 5, 1, 3, 12, 58, 132, 135, 60, 60, 135, 3, 5.9129
296, 1, wb, attraction, a-b-db, 5, 1, 3, 12, 58, 132, 135, 60, 60, 135, 2, 2.60978
296, 1, wb, filler, NA, 999, 999, 3, 13, 166, 181, 67, 93, 66, 176, 2, 1.42207
296, 1, wb, filler, NA, 999, 999, 3, 13, 166, 181, 67, 93, 66, 176, 1, 0.467614
296, 1, wb, filler, NA, 999, 999, 3, 14, 91, 127, 91, 140, 155, 66, 3, 2.63878
296, 1, wb, filler, NA, 999, 999, 3, 14, 91, 127, 91, 140, 155, 66, 2, 2.13935
296, 1, wb, attraction, a-b-db, 14, 3, 3, 15, 195, 120, 120, 195, 111, 181, 3, 2.26724
296, 1, wb, attraction, a-b-db, 14, 3, 3, 15, 195, 120, 120, 195, 111, 181, 1, 1.40721
296, 1, wb, filler, NA, 999, 999, 3, 16, 136, 125, 80, 71, 175, 113, 2, 0.947895
296, 1, wb, filler, NA, 999, 999, 3, 16, 136, 125, 80, 71, 175, 113, 3, 1.90098
296, 1, wb, attraction, a-b-da, 2, 3, 3, 17, 120, 195, 193, 119, 195, 120, 1, 10.4383
296, 1, wb, attraction, a-b-da, 2, 3, 3, 17, 120, 195, 193, 119, 195, 120, 2, 0.505003
296, 1, wb, attraction, a-b-db, 14, 2, 3, 18, 165, 90, 90, 165, 83, 153, 3, 1.30685
296, 1, wb, attraction, a-b-db, 14, 2, 3, 18, 165, 90, 90, 165, 83, 153, 1, 0.90912
296, 1, wb, attraction, a-b-da, 14, 3, 3, 19, 120, 195, 181, 111, 195, 120, 3, 8.17408
296, 1, wb, attraction, a-b-da, 14, 3, 3, 19, 120, 195, 181, 111, 195, 120, 2, 0.867615
296, 1, wb, attraction, a-b-db, 2, 2, 3, 20, 90, 165, 165, 90, 89, 163, 1, 3.9344
296, 1, wb, attraction, a-b-db, 2, 2, 3, 20, 90, 165, 165, 90, 89, 163, 2, 0.60721
296, 1, wb, filler, NA, 999, 999, 3, 21, 158, 114, 92, 119, 124, 66, 3, 3.97236
296, 1, wb, filler, NA, 999, 999, 3, 21, 158, 114, 92, 119, 124, 66, 1, 0.563638
296, 1, wb, attraction, a-b-da, 14, 1, 3, 22, 135, 60, 125, 56, 60, 135, 2, 1.87476
296, 1, wb, attraction, a-b-da, 14, 1, 3, 22, 135, 60, 125, 56, 60, 135, 3, 0.998181
296, 1, wb, filler, NA, 999, 999, 3, 23, 95, 172, 129, 157, 180, 69, 3, 1.78791
296, 1, wb, filler, NA, 999, 999, 3, 23, 95, 172, 129, 157, 180, 69, 2, 0.531205
296, 1, wb, attraction, a-b-db, 5, 2, 3, 24, 88, 161, 90, 165, 165, 90, 1, 4.42767
296, 1, wb, attraction, a-b-db, 5, 2, 3, 24, 88, 161, 90, 165, 165, 90, 2, 1.05619
296, 1, wb, attraction, a-b-da, 5, 3, 3, 25, 120, 195, 195, 120, 190, 117, 3, 3.43589
296, 1, wb, attraction, a-b-da, 5, 3, 3, 25, 120, 195, 195, 120, 190, 117, 2, 0.528734
296, 1, wb, attraction, a-b-db, 5, 3, 3, 26, 117, 190, 120, 195, 195, 120, 1, 4.0573
296, 1, wb, attraction, a-b-db, 5, 3, 3, 26, 117, 190, 120, 195, 195, 120, 3, 0.956632
296, 1, wb, filler, NA, 999, 999, 3, 27, 59, 164, 184, 56, 105, 161, 1, 2.48423
296, 1, wb, filler, NA, 999, 999, 3, 27, 59, 164, 184, 56, 105, 161, 3, 0.551373
296, 1, wb, catch, NA, 999, 999, 3, 28, 153, 102, 161, 154, 120, 75, 3, 1.67921
296, 1, wb, catch, NA, 999, 999, 3, 28, 153, 102, 161, 154, 120, 75, 2, 0.44276
296, 1, wb, attraction, a-b-da, 2, 2, 3, 29, 165, 90, 163, 89, 90, 165, 1, 1.21448
296, 1, wb, attraction, a-b-da, 2, 2, 3, 29, 165, 90, 163, 89, 90, 165, 3, 1.65277
296, 1, wb, filler, NA, 999, 999, 3, 30, 186, 124, 191, 147, 136, 143, 3, 1.81629
296, 1, wb, filler, NA, 999, 999, 3, 30, 186, 124, 191, 147, 136, 143, 2, 2.43035
296, 1, wb, attraction, a-b-db, 14, 1, 3, 31, 135, 60, 60, 135, 56, 125, 3, 2.23401
296, 1, wb, attraction, a-b-db, 14, 1, 3, 31, 135, 60, 60, 135, 56, 125, 1, 1.61531
296, 1, wb, attraction, a-b-db, 2, 1, 3, 32, 60, 135, 135, 60, 59, 134, 3, 1.70825
296, 1, wb, attraction, a-b-db, 2, 1, 3, 32, 60, 135, 135, 60, 59, 134, 2, 2.55023
296, 1, wb, filler, NA, 999, 999, 3, 33, 75, 115, 99, 93, 59, 69, 3, 0.8534
296, 1, wb, filler, NA, 999, 999, 3, 33, 75, 115, 99, 93, 59, 69, 2, 0.570506
296, 1, wb, attraction, a-b-da, 2, 1, 3, 34, 134, 59, 135, 60, 60, 135, 3, 6.34556
296, 1, wb, attraction, a-b-da, 2, 1, 3, 34, 134, 59, 135, 60, 60, 135, 2, 0.504836
296, 1, wb, attraction, a-b-db, 2, 3, 3, 35, 120, 195, 119, 193, 195, 120, 3, 5.36275
296, 1, wb, attraction, a-b-db, 2, 3, 3, 35, 120, 195, 119, 193, 195, 120, 2, 0.81751
296, 1, wb, attraction, a-b-da, 5, 2, 3, 36, 165, 90, 90, 165, 161, 88, 3, 1.84663
296, 1, wb, attraction, a-b-da, 5, 2, 3, 36, 165, 90, 90, 165, 161, 88, 1, 0.691369
296, 1, wb, attraction, a-b-db, 9, 1, 3, 37, 60, 135, 57, 129, 135, 60, 2, 1.59702
296, 1, wb, attraction, a-b-db, 9, 1, 3, 37, 60, 135, 57, 129, 135, 60, 3, 0.523785
296, 1, wb, filler, NA, 999, 999, 4, 1, 66, 138, 140, 89, 136, 66, 3, 5.98037
296, 1, wb, filler, NA, 999, 999, 4, 1, 66, 138, 140, 89, 136, 66, 2, 0.450402
296, 1, wb, attraction, a-b-da, 2, 1, 4, 2, 135, 60, 134, 59, 60, 135, 3, 9.89421
296, 1, wb, attraction, a-b-da, 2, 1, 4, 2, 135, 60, 134, 59, 60, 135, 2, 0.470517
296, 1, wb, attraction, a-b-db, 14, 2, 4, 3, 165, 90, 90, 165, 83, 153, 3, 4.72956
296, 1, wb, attraction, a-b-db, 14, 2, 4, 3, 165, 90, 90, 165, 83, 153, 1, 0.370037
296, 1, wb, attraction, a-b-da, 5, 2, 4, 4, 90, 165, 165, 90, 161, 88, 1, 2.50538
296, 1, wb, attraction, a-b-da, 5, 2, 4, 4, 90, 165, 165, 90, 161, 88, 2, 1.93105
296, 1, wb, attraction, a-b-da, 2, 3, 4, 5, 120, 195, 195, 120, 193, 119, 2, 2.97904
296, 1, wb, attraction, a-b-da, 2, 3, 4, 5, 120, 195, 195, 120, 193, 119, 1, 0.5301
296, 1, wb, attraction, a-b-db, 5, 1, 4, 6, 135, 60, 60, 135, 58, 132, 2, 2.06658
296, 1, wb, attraction, a-b-db, 5, 1, 4, 6, 135, 60, 60, 135, 58, 132, 3, 0.718664
296, 1, wb, attraction, a-b-da, 9, 1, 4, 7, 60, 135, 129, 57, 135, 60, 1, 2.9196
296, 1, wb, attraction, a-b-da, 9, 1, 4, 7, 60, 135, 129, 57, 135, 60, 3, 0.737334
296, 1, wb, attraction, a-b-db, 2, 1, 4, 8, 135, 60, 59, 134, 60, 135, 3, 2.0098
296, 1, wb, attraction, a-b-db, 2, 1, 4, 8, 135, 60, 59, 134, 60, 135, 2, 0.599733
296, 1, wb, filler, NA, 999, 999, 4, 9, 94, 125, 188, 122, 133, 97, 1, 1.56546
296, 1, wb, filler, NA, 999, 999, 4, 9, 94, 125, 188, 122, 133, 97, 2, 0.365637
296, 1, wb, attraction, a-b-da, 14, 2, 4, 10, 153, 83, 90, 165, 165, 90, 1, 1.90882
296, 1, wb, attraction, a-b-da, 14, 2, 4, 10, 153, 83, 90, 165, 165, 90, 2, 0.670917
296, 1, wb, attraction, a-b-db, 5, 3, 4, 11, 195, 120, 120, 195, 117, 190, 3, 4.59388
296, 1, wb, attraction, a-b-db, 5, 3, 4, 11, 195, 120, 120, 195, 117, 190, 2, 0.847688
296, 1, wb, filler, NA, 999, 999, 4, 12, 58, 106, 153, 85, 193, 157, 1, 1.01136
296, 1, wb, filler, NA, 999, 999, 4, 12, 58, 106, 153, 85, 193, 157, 3, 0.369773
296, 1, wb, filler, NA, 999, 999, 4, 13, 177, 56, 151, 119, 109, 191, 1, 0.808912
296, 1, wb, filler, NA, 999, 999, 4, 13, 177, 56, 151, 119, 109, 191, 3, 2.15936
296, 1, wb, attraction, a-b-db, 14, 3, 4, 14, 111, 181, 195, 120, 120, 195, 1, 2.48613
296, 1, wb, attraction, a-b-db, 14, 3, 4, 14, 111, 181, 195, 120, 120, 195, 2, 0.601229
296, 1, wb, attraction, a-b-db, 5, 2, 4, 15, 90, 165, 165, 90, 88, 161, 3, 5.15099
296, 1, wb, attraction, a-b-db, 5, 2, 4, 15, 90, 165, 165, 90, 88, 161, 2, 1.34254
296, 1, wb, attraction, a-b-da, 2, 2, 4, 16, 163, 89, 90, 165, 165, 90, 1, 9.70206
296, 1, wb, attraction, a-b-da, 2, 2, 4, 16, 163, 89, 90, 165, 165, 90, 2, 0.742429
296, 1, wb, attraction, a-b-da, 14, 1, 4, 17, 125, 56, 60, 135, 135, 60, 1, 1.38196
296, 1, wb, attraction, a-b-da, 14, 1, 4, 17, 125, 56, 60, 135, 135, 60, 2, 0.485598
296, 1, wb, catch, NA, 999, 999, 4, 18, 89, 106, 158, 97, 174, 141, 1, 0.912005
296, 1, wb, catch, NA, 999, 999, 4, 18, 89, 106, 158, 97, 174, 141, 3, 0.802432
296, 1, wb, attraction, a-b-da, 9, 3, 4, 19, 120, 195, 186, 114, 195, 120, 3, 3.14413
296, 1, wb, attraction, a-b-da, 9, 3, 4, 19, 120, 195, 186, 114, 195, 120, 1, 0.912368
296, 1, wb, attraction, a-b-db, 9, 1, 4, 20, 60, 135, 57, 129, 135, 60, 2, 2.01756
296, 1, wb, attraction, a-b-db, 9, 1, 4, 20, 60, 135, 57, 129, 135, 60, 3, 0.759489
296, 1, wb, attraction, a-b-da, 9, 2, 4, 21, 157, 86, 165, 90, 90, 165, 2, 3.78246
296, 1, wb, attraction, a-b-da, 9, 2, 4, 21, 157, 86, 165, 90, 90, 165, 3, 0.477227
296, 1, wb, filler, NA, 999, 999, 4, 22, 101, 143, 71, 179, 71, 180, 3, 14.9038
296, 1, wb, filler, NA, 999, 999, 4, 22, 101, 143, 71, 179, 71, 180, 2, 2.27832
296, 1, wb, filler, NA, 999, 999, 4, 23, 120, 183, 154, 86, 68, 119, 3, 1.32022
296, 1, wb, filler, NA, 999, 999, 4, 23, 120, 183, 154, 86, 68, 119, 1, 0.354559
296, 1, wb, attraction, a-b-db, 14, 1, 4, 24, 60, 135, 135, 60, 56, 125, 1, 2.3384
296, 1, wb, attraction, a-b-db, 14, 1, 4, 24, 60, 135, 135, 60, 56, 125, 2, 0.402915
296, 1, wb, filler, NA, 999, 999, 4, 25, 153, 132, 157, 179, 61, 78, 3, 1.12073
296, 1, wb, filler, NA, 999, 999, 4, 25, 153, 132, 157, 179, 61, 78, 2, 0.40244
296, 1, wb, catch, NA, 999, 999, 4, 26, 135, 180, 84, 111, 101, 154, 2, 1.08018
296, 1, wb, catch, NA, 999, 999, 4, 26, 135, 180, 84, 111, 101, 154, 1, 0.507801
296, 1, wb, attraction, a-b-da, 5, 1, 4, 27, 60, 135, 132, 58, 135, 60, 3, 3.58094
296, 1, wb, attraction, a-b-da, 5, 1, 4, 27, 60, 135, 132, 58, 135, 60, 2, 0.387781
296, 1, wb, filler, NA, 999, 999, 4, 28, 82, 163, 107, 152, 131, 87, 3, 0.882195
296, 1, wb, filler, NA, 999, 999, 4, 28, 82, 163, 107, 152, 131, 87, 2, 0.637926
296, 1, wb, catch, NA, 999, 999, 4, 29, 75, 120, 134, 181, 163, 92, 1, 1.21033
296, 1, wb, catch, NA, 999, 999, 4, 29, 75, 120, 134, 181, 163, 92, 2, 0.776569
296, 1, wb, attraction, a-b-db, 2, 2, 4, 30, 89, 163, 90, 165, 165, 90, 3, 2.32704
296, 1, wb, attraction, a-b-db, 2, 2, 4, 30, 89, 163, 90, 165, 165, 90, 2, 1.96829
296, 1, wb, attraction, a-b-db, 9, 2, 4, 31, 86, 157, 165, 90, 90, 165, 1, 1.21486
296, 1, wb, attraction, a-b-db, 9, 2, 4, 31, 86, 157, 165, 90, 90, 165, 2, 0.429143
296, 1, wb, filler, NA, 999, 999, 4, 32, 167, 94, 136, 160, 63, 71, 3, 0.865634
296, 1, wb, filler, NA, 999, 999, 4, 32, 167, 94, 136, 160, 63, 71, 2, 0.325965
296, 1, wb, filler, NA, 999, 999, 4, 33, 175, 175, 107, 98, 74, 173, 2, 2.96646
296, 1, wb, filler, NA, 999, 999, 4, 33, 175, 175, 107, 98, 74, 173, 1, 0.470187
296, 1, wb, attraction, a-b-db, 2, 3, 4, 34, 195, 120, 119, 193, 120, 195, 2, 1.68143
296, 1, wb, attraction, a-b-db, 2, 3, 4, 34, 195, 120, 119, 193, 120, 195, 1, 0.876743
296, 1, wb, attraction, a-b-da, 14, 3, 4, 35, 181, 111, 120, 195, 195, 120, 1, 2.1351
296, 1, wb, attraction, a-b-da, 14, 3, 4, 35, 181, 111, 120, 195, 195, 120, 2, 0.504377
296, 1, wb, attraction, a-b-da, 5, 3, 4, 36, 190, 117, 120, 195, 195, 120, 3, 1.94627
296, 1, wb, attraction, a-b-da, 5, 3, 4, 36, 190, 117, 120, 195, 195, 120, 1, 1.22696
296, 1, wb, attraction, a-b-db, 9, 3, 4, 37, 114, 186, 195, 120, 120, 195, 1, 2.43108
296, 1, wb, attraction, a-b-db, 9, 3, 4, 37, 114, 186, 195, 120, 120, 195, 3, 0.476315
296, 1, wb, attraction, a-b-db, 9, 2, 5, 1, 86, 157, 165, 90, 90, 165, 1, 5.42934
296, 1, wb, attraction, a-b-db, 9, 2, 5, 1, 86, 157, 165, 90, 90, 165, 2, 0.337705
296, 1, wb, filler, NA, 999, 999, 5, 2, 98, 118, 119, 187, 172, 141, 1, 0.810188
296, 1, wb, filler, NA, 999, 999, 5, 2, 98, 118, 119, 187, 172, 141, 2, 0.560646
296, 1, wb, attraction, a-b-db, 9, 3, 5, 3, 114, 186, 120, 195, 195, 120, 1, 2.01568
296, 1, wb, attraction, a-b-db, 9, 3, 5, 3, 114, 186, 120, 195, 195, 120, 3, 0.781742
296, 1, wb, attraction, a-b-da, 14, 3, 5, 4, 181, 111, 195, 120, 120, 195, 1, 2.07597
296, 1, wb, attraction, a-b-da, 14, 3, 5, 4, 181, 111, 195, 120, 120, 195, 2, 0.343349
296, 1, wb, filler, NA, 999, 999, 5, 5, 68, 74, 75, 71, 145, 120, 1, 1.2552
296, 1, wb, filler, NA, 999, 999, 5, 5, 68, 74, 75, 71, 145, 120, 3, 0.875423
296, 1, wb, attraction, a-b-da, 2, 1, 5, 6, 135, 60, 134, 59, 60, 135, 3, 2.07778
296, 1, wb, attraction, a-b-da, 2, 1, 5, 6, 135, 60, 134, 59, 60, 135, 2, 0.609145
296, 1, wb, attraction, a-b-da, 9, 1, 5, 7, 60, 135, 135, 60, 129, 57, 3, 4.03023
296, 1, wb, attraction, a-b-da, 9, 1, 5, 7, 60, 135, 135, 60, 129, 57, 2, 0.530949
296, 1, wb, attraction, a-b-db, 2, 1, 5, 8, 135, 60, 60, 135, 59, 134, 3, 3.57141
296, 1, wb, attraction, a-b-db, 2, 1, 5, 8, 135, 60, 60, 135, 59, 134, 2, 0.994888
296, 1, wb, filler, NA, 999, 999, 5, 9, 86, 56, 189, 128, 129, 61, 1, 3.83253
296, 1, wb, filler, NA, 999, 999, 5, 9, 86, 56, 189, 128, 129, 61, 2, 0.325282
296, 1, wb, attraction, a-b-da, 14, 1, 5, 10, 125, 56, 135, 60, 60, 135, 3, 1.73374
296, 1, wb, attraction, a-b-da, 14, 1, 5, 10, 125, 56, 135, 60, 60, 135, 2, 0.415155
296, 1, wb, attraction, a-b-db, 2, 2, 5, 11, 90, 165, 165, 90, 89, 163, 1, 1.04439
296, 1, wb, attraction, a-b-db, 2, 2, 5, 11, 90, 165, 165, 90, 89, 163, 2, 0.345422
296, 1, wb, attraction, a-b-db, 9, 1, 5, 12, 57, 129, 60, 135, 135, 60, 3, 3.39322
296, 1, wb, attraction, a-b-db, 9, 1, 5, 12, 57, 129, 60, 135, 135, 60, 2, 0.719499
296, 1, wb, attraction, a-b-db, 5, 1, 5, 13, 135, 60, 60, 135, 58, 132, 1, 0.856446
296, 1, wb, attraction, a-b-db, 5, 1, 5, 13, 135, 60, 60, 135, 58, 132, 2, 0.516886
296, 1, wb, attraction, a-b-da, 5, 2, 5, 14, 90, 165, 161, 88, 165, 90, 3, 3.22205
296, 1, wb, attraction, a-b-da, 5, 2, 5, 14, 90, 165, 161, 88, 165, 90, 1, 0.706939
296, 1, wb, attraction, a-b-da, 14, 2, 5, 15, 153, 83, 165, 90, 90, 165, 1, 1.54797
296, 1, wb, attraction, a-b-da, 14, 2, 5, 15, 153, 83, 165, 90, 90, 165, 2, 0.356735
296, 1, wb, attraction, a-b-da, 5, 1, 5, 16, 132, 58, 60, 135, 135, 60, 3, 3.0521
296, 1, wb, attraction, a-b-da, 5, 1, 5, 16, 132, 58, 60, 135, 135, 60, 2, 0.752347
296, 1, wb, attraction, a-b-da, 9, 2, 5, 17, 90, 165, 165, 90, 157, 86, 3, 3.4321
296, 1, wb, attraction, a-b-da, 9, 2, 5, 17, 90, 165, 165, 90, 157, 86, 1, 0.412871
296, 1, wb, attraction, a-b-db, 5, 2, 5, 18, 88, 161, 90, 165, 165, 90, 3, 1.65015
296, 1, wb, attraction, a-b-db, 5, 2, 5, 18, 88, 161, 90, 165, 165, 90, 2, 0.430873
296, 1, wb, filler, NA, 999, 999, 5, 19, 192, 143, 118, 180, 171, 163, 2, 1.02737
296, 1, wb, filler, NA, 999, 999, 5, 19, 192, 143, 118, 180, 171, 163, 1, 1.55301
296, 1, wb, filler, NA, 999, 999, 5, 20, 80, 63, 100, 191, 149, 144, 1, 1.47239
296, 1, wb, filler, NA, 999, 999, 5, 20, 80, 63, 100, 191, 149, 144, 3, 0.467928
296, 1, wb, attraction, a-b-db, 14, 2, 5, 21, 83, 153, 90, 165, 165, 90, 1, 4.41506
296, 1, wb, attraction, a-b-db, 14, 2, 5, 21, 83, 153, 90, 165, 165, 90, 2, 0.628359
296, 1, wb, attraction, a-b-db, 5, 3, 5, 22, 117, 190, 120, 195, 195, 120, 1, 1.56889
296, 1, wb, attraction, a-b-db, 5, 3, 5, 22, 117, 190, 120, 195, 195, 120, 2, 0.400911
296, 1, wb, attraction, a-b-da, 5, 3, 5, 23, 120, 195, 190, 117, 195, 120, 1, 3.63075
296, 1, wb, attraction, a-b-da, 5, 3, 5, 23, 120, 195, 190, 117, 195, 120, 3, 0.467587
296, 1, wb, catch, NA, 999, 999, 5, 24, 141, 114, 63, 132, 166, 149, 2, 0.894841
296, 1, wb, catch, NA, 999, 999, 5, 24, 141, 114, 63, 132, 166, 149, 3, 0.585784
296, 1, wb, filler, NA, 999, 999, 5, 25, 96, 96, 72, 112, 124, 101, 2, 1.08815
296, 1, wb, filler, NA, 999, 999, 5, 25, 96, 96, 72, 112, 124, 101, 3, 1.78713
296, 1, wb, attraction, a-b-da, 2, 2, 5, 26, 163, 89, 90, 165, 165, 90, 2, 1.80924
296, 1, wb, attraction, a-b-da, 2, 2, 5, 26, 163, 89, 90, 165, 165, 90, 1, 0.351167
296, 1, wb, filler, NA, 999, 999, 5, 27, 111, 106, 156, 86, 118, 183, 1, 1.92701
296, 1, wb, filler, NA, 999, 999, 5, 27, 111, 106, 156, 86, 118, 183, 3, 0.440382
296, 1, wb, filler, NA, 999, 999, 5, 28, 128, 189, 64, 84, 119, 112, 2, 0.668283
296, 1, wb, filler, NA, 999, 999, 5, 28, 128, 189, 64, 84, 119, 112, 1, 0.32864
296, 1, wb, attraction, a-b-db, 14, 1, 5, 29, 135, 60, 60, 135, 56, 125, 3, 1.95322
296, 1, wb, attraction, a-b-db, 14, 1, 5, 29, 135, 60, 60, 135, 56, 125, 1, 0.585968
296, 1, wb, filler, NA, 999, 999, 5, 30, 134, 77, 121, 64, 152, 60, 2, 1.25628
296, 1, wb, filler, NA, 999, 999, 5, 30, 134, 77, 121, 64, 152, 60, 1, 1.0766
296, 1, wb, catch, NA, 999, 999, 5, 31, 103, 92, 99, 156, 140, 175, 1, 0.942822
296, 1, wb, catch, NA, 999, 999, 5, 31, 103, 92, 99, 156, 140, 175, 3, 0.447772
296, 1, wb, attraction, a-b-da, 2, 3, 5, 32, 195, 120, 193, 119, 120, 195, 3, 1.60361
296, 1, wb, attraction, a-b-da, 2, 3, 5, 32, 195, 120, 193, 119, 120, 195, 1, 2.67449
296, 1, wb, filler, NA, 999, 999, 5, 33, 58, 123, 170, 96, 189, 69, 1, 0.81229
296, 1, wb, filler, NA, 999, 999, 5, 33, 58, 123, 170, 96, 189, 69, 2, 0.874777
296, 1, wb, catch, NA, 999, 999, 5, 34, 133, 182, 158, 97, 95, 100, 3, 0.700951
296, 1, wb, catch, NA, 999, 999, 5, 34, 133, 182, 158, 97, 95, 100, 1, 0.431994
296, 1, wb, attraction, a-b-db, 14, 3, 5, 35, 120, 195, 111, 181, 195, 120, 2, 2.28454
296, 1, wb, attraction, a-b-db, 14, 3, 5, 35, 120, 195, 111, 181, 195, 120, 3, 0.879877
296, 1, wb, attraction, a-b-db, 2, 3, 5, 36, 120, 195, 195, 120, 119, 193, 1, 3.51415
296, 1, wb, attraction, a-b-db, 2, 3, 5, 36, 120, 195, 195, 120, 119, 193, 3, 1.44374
296, 1, wb, attraction, a-b-da, 9, 3, 5, 37, 186, 114, 195, 120, 120, 195, 1, 5.23111
296, 1, wb, attraction, a-b-da, 9, 3, 5, 37, 186, 114, 195, 120, 120, 195, 2, 0.507576
296, 1, wb, filler, NA, 999, 999, 6, 1, 181, 157, 180, 176, 180, 117, 3, 1.13254
296, 1, wb, filler, NA, 999, 999, 6, 1, 181, 157, 180, 176, 180, 117, 2, 0.430246
296, 1, wb, catch, NA, 999, 999, 6, 2, 131, 124, 154, 161, 78, 117, 3, 0.762707
296, 1, wb, catch, NA, 999, 999, 6, 2, 131, 124, 154, 161, 78, 117, 2, 0.403126
296, 1, wb, attraction, a-b-da, 9, 2, 6, 3, 90, 165, 157, 86, 165, 90, 2, 7.00093
296, 1, wb, attraction, a-b-da, 9, 2, 6, 3, 90, 165, 157, 86, 165, 90, 3, 0.990072
296, 1, wb, attraction, a-b-db, 5, 3, 6, 4, 117, 190, 120, 195, 195, 120, 2, 1.38839
296, 1, wb, attraction, a-b-db, 5, 3, 6, 4, 117, 190, 120, 195, 195, 120, 3, 0.731225
296, 1, wb, filler, NA, 999, 999, 6, 5, 86, 190, 123, 180, 157, 138, 1, 0.619548
296, 1, wb, filler, NA, 999, 999, 6, 5, 86, 190, 123, 180, 157, 138, 2, 0.642033
296, 1, wb, attraction, a-b-da, 9, 1, 6, 6, 135, 60, 60, 135, 129, 57, 3, 0.925671
296, 1, wb, attraction, a-b-da, 9, 1, 6, 6, 135, 60, 60, 135, 129, 57, 2, 0.479393
296, 1, wb, filler, NA, 999, 999, 6, 7, 140, 107, 88, 131, 72, 130, 3, 0.785912
296, 1, wb, filler, NA, 999, 999, 6, 7, 140, 107, 88, 131, 72, 130, 1, 0.529804
296, 1, wb, attraction, a-b-da, 5, 3, 6, 8, 190, 117, 195, 120, 120, 195, 1, 3.6661
296, 1, wb, attraction, a-b-da, 5, 3, 6, 8, 190, 117, 195, 120, 120, 195, 2, 0.421501
296, 1, wb, attraction, a-b-db, 5, 2, 6, 9, 90, 165, 165, 90, 88, 161, 3, 3.17079
296, 1, wb, attraction, a-b-db, 5, 2, 6, 9, 90, 165, 165, 90, 88, 161, 2, 0.394348
296, 1, wb, attraction, a-b-db, 9, 1, 6, 10, 135, 60, 60, 135, 57, 129, 2, 2.01615
296, 1, wb, attraction, a-b-db, 9, 1, 6, 10, 135, 60, 60, 135, 57, 129, 1, 0.550125
296, 1, wb, attraction, a-b-da, 2, 3, 6, 11, 120, 195, 195, 120, 193, 119, 3, 5.41402
296, 1, wb, attraction, a-b-da, 2, 3, 6, 11, 120, 195, 195, 120, 193, 119, 1, 0.410876
296, 1, wb, filler, NA, 999, 999, 6, 12, 129, 119, 130, 182, 148, 102, 3, 1.94412
296, 1, wb, filler, NA, 999, 999, 6, 12, 129, 119, 130, 182, 148, 102, 2, 0.34475
296, 1, wb, filler, NA, 999, 999, 6, 13, 110, 160, 179, 179, 126, 59, 3, 0.776541
296, 1, wb, filler, NA, 999, 999, 6, 13, 110, 160, 179, 179, 126, 59, 2, 0.32036
296, 1, wb, attraction, a-b-da, 5, 1, 6, 14, 135, 60, 132, 58, 60, 135, 3, 2.72949
296, 1, wb, attraction, a-b-da, 5, 1, 6, 14, 135, 60, 132, 58, 60, 135, 2, 0.778686
296, 1, wb, attraction, a-b-db, 9, 2, 6, 15, 86, 157, 165, 90, 90, 165, 1, 0.921124
296, 1, wb, attraction, a-b-db, 9, 2, 6, 15, 86, 157, 165, 90, 90, 165, 2, 0.827381
296, 1, wb, filler, NA, 999, 999, 6, 16, 81, 149, 87, 188, 152, 169, 1, 0.711746
296, 1, wb, filler, NA, 999, 999, 6, 16, 81, 149, 87, 188, 152, 169, 3, 0.490075
296, 1, wb, filler, NA, 999, 999, 6, 17, 112, 116, 135, 149, 186, 97, 1, 1.17995
296, 1, wb, filler, NA, 999, 999, 6, 17, 112, 116, 135, 149, 186, 97, 2, 2.43552
296, 1, wb, catch, NA, 999, 999, 6, 18, 156, 99, 139, 176, 65, 130, 3, 1.03148
296, 1, wb, catch, NA, 999, 999, 6, 18, 156, 99, 139, 176, 65, 130, 2, 0.50105
296, 1, wb, attraction, a-b-db, 2, 3, 6, 19, 195, 120, 119, 193, 120, 195, 2, 1.65475
296, 1, wb, attraction, a-b-db, 2, 3, 6, 19, 195, 120, 119, 193, 120, 195, 1, 0.443506
296, 1, wb, attraction, a-b-db, 2, 2, 6, 20, 90, 165, 165, 90, 89, 163, 2, 1.23942
296, 1, wb, attraction, a-b-db, 2, 2, 6, 20, 90, 165, 165, 90, 89, 163, 3, 0.660252
296, 1, wb, attraction, a-b-da, 14, 3, 6, 21, 181, 111, 120, 195, 195, 120, 1, 2.38326
296, 1, wb, attraction, a-b-da, 14, 3, 6, 21, 181, 111, 120, 195, 195, 120, 2, 0.710519
296, 1, wb, attraction, a-b-db, 14, 1, 6, 22, 135, 60, 60, 135, 56, 125, 2, 1.59173
296, 1, wb, attraction, a-b-db, 14, 1, 6, 22, 135, 60, 60, 135, 56, 125, 1, 0.582435
296, 1, wb, attraction, a-b-da, 14, 1, 6, 23, 135, 60, 125, 56, 60, 135, 2, 3.00493
296, 1, wb, attraction, a-b-da, 14, 1, 6, 23, 135, 60, 125, 56, 60, 135, 1, 0.507144
296, 1, wb, attraction, a-b-db, 14, 3, 6, 24, 120, 195, 111, 181, 195, 120, 2, 4.67644
296, 1, wb, attraction, a-b-db, 14, 3, 6, 24, 120, 195, 111, 181, 195, 120, 1, 0.414849
296, 1, wb, filler, NA, 999, 999, 6, 25, 157, 186, 159, 69, 76, 119, 3, 0.875929
296, 1, wb, filler, NA, 999, 999, 6, 25, 157, 186, 159, 69, 76, 119, 1, 0.43965
296, 1, wb, attraction, a-b-db, 9, 3, 6, 26, 120, 195, 114, 186, 195, 120, 1, 2.08415
296, 1, wb, attraction, a-b-db, 9, 3, 6, 26, 120, 195, 114, 186, 195, 120, 2, 0.479441
296, 1, wb, attraction, a-b-da, 5, 2, 6, 27, 165, 90, 161, 88, 90, 165, 2, 0.866076
296, 1, wb, attraction, a-b-da, 5, 2, 6, 27, 165, 90, 161, 88, 90, 165, 3, 0.358328
296, 1, wb, filler, NA, 999, 999, 6, 28, 78, 130, 141, 87, 141, 109, 1, 1.02951
296, 1, wb, filler, NA, 999, 999, 6, 28, 78, 130, 141, 87, 141, 109, 2, 0.435187
296, 1, wb, attraction, a-b-db, 14, 2, 6, 29, 83, 153, 165, 90, 90, 165, 1, 1.67962
296, 1, wb, attraction, a-b-db, 14, 2, 6, 29, 83, 153, 165, 90, 90, 165, 3, 0.779167
296, 1, wb, attraction, a-b-db, 5, 1, 6, 30, 135, 60, 60, 135, 58, 132, 1, 1.31334
296, 1, wb, attraction, a-b-db, 5, 1, 6, 30, 135, 60, 60, 135, 58, 132, 3, 0.379624
296, 1, wb, catch, NA, 999, 999, 6, 31, 119, 76, 184, 131, 118, 137, 1, 0.826158
296, 1, wb, catch, NA, 999, 999, 6, 31, 119, 76, 184, 131, 118, 137, 2, 0.327805
296, 1, wb, attraction, a-b-db, 2, 1, 6, 32, 60, 135, 59, 134, 135, 60, 1, 3.36841
296, 1, wb, attraction, a-b-db, 2, 1, 6, 32, 60, 135, 59, 134, 135, 60, 3, 0.623962
296, 1, wb, attraction, a-b-da, 9, 3, 6, 33, 120, 195, 186, 114, 195, 120, 2, 1.98032
296, 1, wb, attraction, a-b-da, 9, 3, 6, 33, 120, 195, 186, 114, 195, 120, 1, 0.395835
296, 1, wb, attraction, a-b-da, 2, 1, 6, 34, 135, 60, 134, 59, 60, 135, 1, 1.78556
296, 1, wb, attraction, a-b-da, 2, 1, 6, 34, 135, 60, 134, 59, 60, 135, 3, 0.656948
296, 1, wb, attraction, a-b-da, 14, 2, 6, 35, 165, 90, 90, 165, 153, 83, 3, 2.47604
296, 1, wb, attraction, a-b-da, 14, 2, 6, 35, 165, 90, 90, 165, 153, 83, 2, 0.607295
296, 1, wb, filler, NA, 999, 999, 6, 36, 62, 74, 155, 90, 91, 69, 1, 0.788315
296, 1, wb, filler, NA, 999, 999, 6, 36, 62, 74, 155, 90, 91, 69, 2, 0.61938
296, 1, wb, attraction, a-b-da, 2, 2, 6, 37, 165, 90, 90, 165, 163, 89, 3, 6.11257
296, 1, wb, attraction, a-b-da, 2, 2, 6, 37, 165, 90, 90, 165, 163, 89, 2, 0.321149
296, 1, wb, attraction, a-b-da, 2, 2, 7, 1, 163, 89, 90, 165, 165, 90, 3, 2.15434
296, 1, wb, attraction, a-b-da, 2, 2, 7, 1, 163, 89, 90, 165, 165, 90, 2, 0.474925
296, 1, wb, attraction, a-b-da, 9, 1, 7, 2, 129, 57, 60, 135, 135, 60, 1, 1.05344
296, 1, wb, attraction, a-b-da, 9, 1, 7, 2, 129, 57, 60, 135, 135, 60, 2, 0.394442
296, 1, wb, catch, NA, 999, 999, 7, 3, 60, 135, 161, 154, 101, 154, 1, 0.784241
296, 1, wb, catch, NA, 999, 999, 7, 3, 60, 135, 161, 154, 101, 154, 2, 0.327983
296, 1, wb, attraction, a-b-db, 5, 3, 7, 4, 195, 120, 120, 195, 117, 190, 1, 1.96844
296, 1, wb, attraction, a-b-db, 5, 3, 7, 4, 195, 120, 120, 195, 117, 190, 2, 0.32849
296, 1, wb, attraction, a-b-db, 5, 2, 7, 5, 90, 165, 88, 161, 165, 90, 3, 3.2411
296, 1, wb, attraction, a-b-db, 5, 2, 7, 5, 90, 165, 88, 161, 165, 90, 2, 0.45329
296, 1, wb, attraction, a-b-db, 14, 2, 7, 6, 90, 165, 83, 153, 165, 90, 1, 2.29704
296, 1, wb, attraction, a-b-db, 14, 2, 7, 6, 90, 165, 83, 153, 165, 90, 2, 0.46772
296, 1, wb, filler, NA, 999, 999, 7, 7, 174, 185, 61, 85, 73, 172, 2, 0.694827
296, 1, wb, filler, NA, 999, 999, 7, 7, 174, 185, 61, 85, 73, 172, 1, 0.321855
296, 1, wb, attraction, a-b-da, 9, 2, 7, 8, 90, 165, 165, 90, 157, 86, 3, 1.94719
296, 1, wb, attraction, a-b-da, 9, 2, 7, 8, 90, 165, 165, 90, 157, 86, 2, 0.795706
296, 1, wb, attraction, a-b-db, 14, 1, 7, 9, 56, 125, 60, 135, 135, 60, 1, 0.705479
296, 1, wb, attraction, a-b-db, 14, 1, 7, 9, 56, 125, 60, 135, 135, 60, 2, 0.779903
296, 1, wb, filler, NA, 999, 999, 7, 10, 57, 65, 98, 100, 56, 104, 1, 0.7062
296, 1, wb, filler, NA, 999, 999, 7, 10, 57, 65, 98, 100, 56, 104, 2, 0.356635
296, 1, wb, filler, NA, 999, 999, 7, 11, 148, 175, 113, 145, 171, 174, 2, 0.91644
296, 1, wb, filler, NA, 999, 999, 7, 11, 148, 175, 113, 145, 171, 174, 3, 0.918801
296, 1, wb, filler, NA, 999, 999, 7, 12, 63, 174, 69, 85, 75, 127, 2, 1.03181
296, 1, wb, filler, NA, 999, 999, 7, 12, 63, 174, 69, 85, 75, 127, 1, 1.74965
296, 1, wb, attraction, a-b-db, 9, 3, 7, 13, 114, 186, 195, 120, 120, 195, 1, 0.916834
296, 1, wb, attraction, a-b-db, 9, 3, 7, 13, 114, 186, 195, 120, 120, 195, 2, 0.583325
296, 1, wb, attraction, a-b-da, 9, 3, 7, 14, 120, 195, 195, 120, 186, 114, 1, 1.05374
296, 1, wb, attraction, a-b-da, 9, 3, 7, 14, 120, 195, 195, 120, 186, 114, 3, 0.594707
296, 1, wb, attraction, a-b-da, 14, 1, 7, 15, 125, 56, 135, 60, 60, 135, 3, 2.12848
296, 1, wb, attraction, a-b-da, 14, 1, 7, 15, 125, 56, 135, 60, 60, 135, 2, 0.649746
296, 1, wb, attraction, a-b-db, 2, 2, 7, 16, 90, 165, 165, 90, 89, 163, 3, 3.18147
296, 1, wb, attraction, a-b-db, 2, 2, 7, 16, 90, 165, 165, 90, 89, 163, 2, 0.860425
296, 1, wb, catch, NA, 999, 999, 7, 17, 121, 194, 119, 76, 153, 102, 2, 0.823435
296, 1, wb, catch, NA, 999, 999, 7, 17, 121, 194, 119, 76, 153, 102, 1, 0.517157
296, 1, wb, attraction, a-b-db, 2, 3, 7, 18, 120, 195, 119, 193, 195, 120, 3, 3.95833
296, 1, wb, attraction, a-b-db, 2, 3, 7, 18, 120, 195, 119, 193, 195, 120, 2, 0.557745
296, 1, wb, attraction, a-b-db, 9, 2, 7, 19, 165, 90, 90, 165, 86, 157, 1, 1.76478
296, 1, wb, attraction, a-b-db, 9, 2, 7, 19, 165, 90, 90, 165, 86, 157, 2, 0.428877
296, 1, wb, attraction, a-b-da, 2, 1, 7, 20, 134, 59, 60, 135, 135, 60, 3, 2.2973
296, 1, wb, attraction, a-b-da, 2, 1, 7, 20, 134, 59, 60, 135, 135, 60, 2, 0.803837
296, 1, wb, attraction, a-b-da, 14, 2, 7, 21, 90, 165, 153, 83, 165, 90, 3, 1.44972
296, 1, wb, attraction, a-b-da, 14, 2, 7, 21, 90, 165, 153, 83, 165, 90, 2, 0.574459
296, 1, wb, filler, NA, 999, 999, 7, 22, 94, 71, 113, 70, 67, 113, 1, 0.964837
296, 1, wb, filler, NA, 999, 999, 7, 22, 94, 71, 113, 70, 67, 113, 3, 1.22932
296, 1, wb, attraction, a-b-db, 5, 1, 7, 23, 60, 135, 58, 132, 135, 60, 1, 5.56157
296, 1, wb, attraction, a-b-db, 5, 1, 7, 23, 60, 135, 58, 132, 135, 60, 2, 0.376377
296, 1, wb, attraction, a-b-db, 2, 1, 7, 24, 135, 60, 59, 134, 60, 135, 3, 1.36683
296, 1, wb, attraction, a-b-db, 2, 1, 7, 24, 135, 60, 59, 134, 60, 135, 2, 0.407075
296, 1, wb, attraction, a-b-da, 5, 2, 7, 25, 165, 90, 90, 165, 161, 88, 3, 2.27635
296, 1, wb, attraction, a-b-da, 5, 2, 7, 25, 165, 90, 90, 165, 161, 88, 2, 0.58344
296, 1, wb, catch, NA, 999, 999, 7, 26, 106, 149, 113, 82, 180, 135, 2, 0.949838
296, 1, wb, catch, NA, 999, 999, 7, 26, 106, 149, 113, 82, 180, 135, 3, 0.390884
296, 1, wb, filler, NA, 999, 999, 7, 27, 165, 81, 170, 195, 95, 94, 3, 0.964664
296, 1, wb, filler, NA, 999, 999, 7, 27, 165, 81, 170, 195, 95, 94, 2, 0.333058
296, 1, wb, filler, NA, 999, 999, 7, 28, 177, 115, 191, 63, 101, 81, 3, 1.43757
296, 1, wb, filler, NA, 999, 999, 7, 28, 177, 115, 191, 63, 101, 81, 1, 0.395026
296, 1, wb, attraction, a-b-da, 14, 3, 7, 29, 195, 120, 120, 195, 181, 111, 3, 6.40892
296, 1, wb, attraction, a-b-da, 14, 3, 7, 29, 195, 120, 120, 195, 181, 111, 1, 1.23762
296, 1, wb, attraction, a-b-da, 2, 3, 7, 30, 193, 119, 195, 120, 120, 195, 2, 4.00184
296, 1, wb, attraction, a-b-da, 2, 3, 7, 30, 193, 119, 195, 120, 120, 195, 3, 1.54392
296, 1, wb, attraction, a-b-da, 5, 1, 7, 31, 60, 135, 135, 60, 132, 58, 1, 1.95132
296, 1, wb, attraction, a-b-da, 5, 1, 7, 31, 60, 135, 135, 60, 132, 58, 3, 0.504148
296, 1, wb, attraction, a-b-db, 14, 3, 7, 32, 120, 195, 111, 181, 195, 120, 2, 1.21776
296, 1, wb, attraction, a-b-db, 14, 3, 7, 32, 120, 195, 111, 181, 195, 120, 3, 0.640027
296, 1, wb, filler, NA, 999, 999, 7, 33, 99, 176, 84, 86, 88, 179, 2, 0.715766
296, 1, wb, filler, NA, 999, 999, 7, 33, 99, 176, 84, 86, 88, 179, 1, 0.758188
296, 1, wb, attraction, a-b-db, 9, 1, 7, 34, 135, 60, 57, 129, 60, 135, 3, 2.26132
296, 1, wb, attraction, a-b-db, 9, 1, 7, 34, 135, 60, 57, 129, 60, 135, 2, 0.825165
296, 1, wb, filler, NA, 999, 999, 7, 35, 71, 67, 132, 76, 62, 60, 1, 1.01345
296, 1, wb, filler, NA, 999, 999, 7, 35, 71, 67, 132, 76, 62, 60, 2, 0.443879
296, 1, wb, filler, NA, 999, 999, 7, 36, 86, 107, 159, 139, 133, 104, 1, 3.53561
296, 1, wb, filler, NA, 999, 999, 7, 36, 86, 107, 159, 139, 133, 104, 2, 0.352621
296, 1, wb, attraction, a-b-da, 5, 3, 7, 37, 120, 195, 195, 120, 190, 117, 3, 3.07234
296, 1, wb, attraction, a-b-da, 5, 3, 7, 37, 120, 195, 195, 120, 190, 117, 2, 0.723328
296, 1, wb, attraction, a-b-da, 5, 3, 8, 1, 190, 117, 195, 120, 120, 195, 3, 1.65184
296, 1, wb, attraction, a-b-da, 5, 3, 8, 1, 190, 117, 195, 120, 120, 195, 2, 0.496963
296, 1, wb, filler, NA, 999, 999, 8, 2, 192, 101, 190, 161, 150, 69, 3, 1.01831
296, 1, wb, filler, NA, 999, 999, 8, 2, 192, 101, 190, 161, 150, 69, 2, 0.328716
296, 1, wb, filler, NA, 999, 999, 8, 3, 124, 148, 88, 148, 57, 157, 3, 1.54509
296, 1, wb, filler, NA, 999, 999, 8, 3, 124, 148, 88, 148, 57, 157, 1, 0.593956
296, 1, wb, attraction, a-b-da, 14, 1, 8, 4, 125, 56, 60, 135, 135, 60, 3, 3.62379
296, 1, wb, attraction, a-b-da, 14, 1, 8, 4, 125, 56, 60, 135, 135, 60, 2, 0.396488
296, 1, wb, attraction, a-b-da, 14, 2, 8, 5, 153, 83, 165, 90, 90, 165, 3, 0.922415
296, 1, wb, attraction, a-b-da, 14, 2, 8, 5, 153, 83, 165, 90, 90, 165, 2, 0.78006
296, 1, wb, attraction, a-b-db, 5, 2, 8, 6, 165, 90, 90, 165, 88, 161, 1, 0.882375
296, 1, wb, attraction, a-b-db, 5, 2, 8, 6, 165, 90, 90, 165, 88, 161, 2, 0.446163
296, 1, wb, attraction, a-b-db, 14, 1, 8, 7, 135, 60, 56, 125, 60, 135, 2, 1.40194
296, 1, wb, attraction, a-b-db, 14, 1, 8, 7, 135, 60, 56, 125, 60, 135, 1, 0.360741
296, 1, wb, catch, NA, 999, 999, 8, 8, 151, 104, 160, 155, 132, 63, 3, 0.671885
296, 1, wb, catch, NA, 999, 999, 8, 8, 151, 104, 160, 155, 132, 63, 2, 0.379652
296, 1, wb, filler, NA, 999, 999, 8, 9, 79, 184, 163, 124, 57, 150, 3, 0.818192
296, 1, wb, filler, NA, 999, 999, 8, 9, 79, 184, 163, 124, 57, 150, 2, 0.528582
296, 1, wb, attraction, a-b-db, 9, 3, 8, 10, 195, 120, 114, 186, 120, 195, 3, 1.56099
296, 1, wb, attraction, a-b-db, 9, 3, 8, 10, 195, 120, 114, 186, 120, 195, 1, 1.12127
296, 1, wb, attraction, a-b-db, 5, 3, 8, 11, 195, 120, 117, 190, 120, 195, 3, 1.87402
296, 1, wb, attraction, a-b-db, 5, 3, 8, 11, 195, 120, 117, 190, 120, 195, 1, 0.421433
296, 1, wb, filler, NA, 999, 999, 8, 12, 185, 80, 137, 165, 145, 135, 1, 1.69066
296, 1, wb, filler, NA, 999, 999, 8, 12, 185, 80, 137, 165, 145, 135, 2, 0.94943
296, 1, wb, filler, NA, 999, 999, 8, 13, 93, 115, 123, 139, 83, 91, 3, 0.757037
296, 1, wb, filler, NA, 999, 999, 8, 13, 93, 115, 123, 139, 83, 91, 2, 0.445547
296, 1, wb, filler, NA, 999, 999, 8, 14, 84, 157, 194, 145, 131, 89, 3, 0.833254
296, 1, wb, filler, NA, 999, 999, 8, 14, 84, 157, 194, 145, 131, 89, 2, 0.414924
296, 1, wb, attraction, a-b-db, 2, 2, 8, 15, 165, 90, 90, 165, 89, 163, 2, 1.54816
296, 1, wb, attraction, a-b-db, 2, 2, 8, 15, 165, 90, 90, 165, 89, 163, 1, 0.516892
296, 1, wb, attraction, a-b-da, 14, 3, 8, 16, 120, 195, 181, 111, 195, 120, 2, 2.10203
296, 1, wb, attraction, a-b-da, 14, 3, 8, 16, 120, 195, 181, 111, 195, 120, 3, 0.640713
296, 1, wb, filler, NA, 999, 999, 8, 17, 63, 124, 60, 73, 75, 99, 2, 0.788449
296, 1, wb, filler, NA, 999, 999, 8, 17, 63, 124, 60, 73, 75, 99, 1, 2.73165
296, 1, wb, attraction, a-b-da, 9, 3, 8, 18, 186, 114, 195, 120, 120, 195, 3, 2.05949
296, 1, wb, attraction, a-b-da, 9, 3, 8, 18, 186, 114, 195, 120, 120, 195, 2, 0.575223
296, 1, wb, attraction, a-b-da, 2, 3, 8, 19, 195, 120, 120, 195, 193, 119, 1, 2.56563
296, 1, wb, attraction, a-b-da, 2, 3, 8, 19, 195, 120, 120, 195, 193, 119, 2, 0.349517
296, 1, wb, attraction, a-b-da, 9, 2, 8, 20, 165, 90, 157, 86, 90, 165, 1, 3.57334
296, 1, wb, attraction, a-b-da, 9, 2, 8, 20, 165, 90, 157, 86, 90, 165, 2, 0.524209
296, 1, wb, attraction, a-b-db, 2, 1, 8, 21, 60, 135, 135, 60, 59, 134, 1, 2.26071
296, 1, wb, attraction, a-b-db, 2, 1, 8, 21, 60, 135, 135, 60, 59, 134, 2, 0.464565
296, 1, wb, filler, NA, 999, 999, 8, 22, 131, 166, 183, 76, 117, 144, 3, 2.42781
296, 1, wb, filler, NA, 999, 999, 8, 22, 131, 166, 183, 76, 117, 144, 2, 0.472881
296, 1, wb, attraction, a-b-db, 2, 3, 8, 23, 195, 120, 120, 195, 119, 193, 1, 2.66007
296, 1, wb, attraction, a-b-db, 2, 3, 8, 23, 195, 120, 120, 195, 119, 193, 2, 0.391852
296, 1, wb, attraction, a-b-db, 14, 3, 8, 24, 195, 120, 120, 195, 111, 181, 3, 0.94963
296, 1, wb, attraction, a-b-db, 14, 3, 8, 24, 195, 120, 120, 195, 111, 181, 2, 0.438645
296, 1, wb, attraction, a-b-da, 5, 2, 8, 25, 165, 90, 90, 165, 161, 88, 3, 1.93917
296, 1, wb, attraction, a-b-da, 5, 2, 8, 25, 165, 90, 90, 165, 161, 88, 1, 2.0279
296, 1, wb, attraction, a-b-db, 14, 2, 8, 26, 165, 90, 90, 165, 83, 153, 3, 2.55195
296, 1, wb, attraction, a-b-db, 14, 2, 8, 26, 165, 90, 90, 165, 83, 153, 2, 0.368358
296, 1, wb, attraction, a-b-da, 5, 1, 8, 27, 60, 135, 135, 60, 132, 58, 3, 2.79954
296, 1, wb, attraction, a-b-da, 5, 1, 8, 27, 60, 135, 135, 60, 132, 58, 2, 0.381999
296, 1, wb, attraction, a-b-da, 2, 2, 8, 28, 165, 90, 90, 165, 163, 89, 3, 1.18047
296, 1, wb, attraction, a-b-da, 2, 2, 8, 28, 165, 90, 90, 165, 163, 89, 2, 0.651976
296, 1, wb, filler, NA, 999, 999, 8, 29, 104, 193, 77, 152, 181, 115, 2, 1.36778
296, 1, wb, filler, NA, 999, 999, 8, 29, 104, 193, 77, 152, 181, 115, 3, 0.583998
296, 1, wb, attraction, a-b-db, 9, 1, 8, 30, 57, 129, 135, 60, 60, 135, 2, 1.30242
296, 1, wb, attraction, a-b-db, 9, 1, 8, 30, 57, 129, 135, 60, 60, 135, 1, 0.481289
296, 1, wb, catch, NA, 999, 999, 8, 31, 140, 115, 82, 113, 161, 154, 2, 0.867747
296, 1, wb, catch, NA, 999, 999, 8, 31, 140, 115, 82, 113, 161, 154, 3, 0.768211
296, 1, wb, attraction, a-b-da, 2, 1, 8, 32, 60, 135, 135, 60, 134, 59, 3, 0.839288
296, 1, wb, attraction, a-b-da, 2, 1, 8, 32, 60, 135, 135, 60, 134, 59, 2, 0.388366
296, 1, wb, catch, NA, 999, 999, 8, 33, 64, 131, 153, 162, 149, 106, 1, 0.88269
296, 1, wb, catch, NA, 999, 999, 8, 33, 64, 131, 153, 162, 149, 106, 2, 0.39041
296, 1, wb, filler, NA, 999, 999, 8, 34, 82, 151, 94, 94, 102, 146, 2, 1.34823
296, 1, wb, filler, NA, 999, 999, 8, 34, 82, 151, 94, 94, 102, 146, 3, 0.605136
296, 1, wb, attraction, a-b-db, 9, 2, 8, 35, 165, 90, 86, 157, 90, 165, 1, 4.59492
296, 1, wb, attraction, a-b-db, 9, 2, 8, 35, 165, 90, 86, 157, 90, 165, 3, 0.720744
296, 1, wb, attraction, a-b-db, 5, 1, 8, 36, 58, 132, 60, 135, 135, 60, 3, 1.40176
296, 1, wb, attraction, a-b-db, 5, 1, 8, 36, 58, 132, 60, 135, 135, 60, 2, 0.360734
296, 1, wb, attraction, a-b-da, 9, 1, 8, 37, 135, 60, 129, 57, 60, 135, 3, 4.98385
296, 1, wb, attraction, a-b-da, 9, 1, 8, 37, 135, 60, 129, 57, 60, 135, 2, 0.422316
