sub_n, computer_n, bw_cond, effect, set, distance, diag, block_n, trial_n, h1, w1, h2, w2, h3, w3, choice, rt 
247, 1, bw, practice, NA, 999, 999, 0, 1, 139, 132, 107, 130, 71, 178, 1, 7.52405
247, 1, bw, practice, NA, 999, 999, 0, 1, 139, 132, 107, 130, 71, 178, 2, 11.5396
247, 1, bw, practice, NA, 999, 999, 0, 2, 100, 57, 65, 59, 167, 123, 3, 3.64758
247, 1, bw, practice, NA, 999, 999, 0, 2, 100, 57, 65, 59, 167, 123, 2, 1.74905
247, 1, bw, practice, NA, 999, 999, 0, 3, 143, 138, 126, 56, 129, 172, 3, 11.2495
247, 1, bw, practice, NA, 999, 999, 0, 3, 143, 138, 126, 56, 129, 172, 2, 1.66486
247, 1, bw, filler, NA, 999, 999, 1, 1, 104, 77, 139, 115, 62, 157, 2, 2.10334
247, 1, bw, filler, NA, 999, 999, 1, 1, 104, 77, 139, 115, 62, 157, 1, 1.92214
247, 1, bw, attraction, a-b-db, 9, 1, 1, 2, 60, 135, 135, 60, 57, 129, 1, 3.96282
247, 1, bw, attraction, a-b-db, 9, 1, 1, 2, 60, 135, 135, 60, 57, 129, 3, 1.42619
247, 1, bw, catch, NA, 999, 999, 1, 3, 109, 86, 156, 99, 165, 150, 3, 1.30239
247, 1, bw, catch, NA, 999, 999, 1, 3, 109, 86, 156, 99, 165, 150, 1, 1.00914
247, 1, bw, attraction, a-b-db, 9, 2, 1, 4, 165, 90, 86, 157, 90, 165, 1, 4.59023
247, 1, bw, attraction, a-b-db, 9, 2, 1, 4, 165, 90, 86, 157, 90, 165, 3, 4.66809
247, 1, bw, attraction, a-b-db, 14, 3, 1, 5, 120, 195, 195, 120, 111, 181, 2, 5.46178
247, 1, bw, attraction, a-b-db, 14, 3, 1, 5, 120, 195, 195, 120, 111, 181, 3, 1.40082
247, 1, bw, attraction, a-b-db, 2, 3, 1, 6, 119, 193, 120, 195, 195, 120, 2, 2.49426
247, 1, bw, attraction, a-b-db, 2, 3, 1, 6, 119, 193, 120, 195, 195, 120, 1, 0.888785
247, 1, bw, filler, NA, 999, 999, 1, 7, 174, 163, 138, 77, 167, 162, 1, 1.9392
247, 1, bw, filler, NA, 999, 999, 1, 7, 174, 163, 138, 77, 167, 162, 2, 1.33191
247, 1, bw, attraction, a-b-db, 5, 1, 1, 8, 60, 135, 135, 60, 58, 132, 3, 3.30022
247, 1, bw, attraction, a-b-db, 5, 1, 1, 8, 60, 135, 135, 60, 58, 132, 2, 1.11842
247, 1, bw, attraction, a-b-db, 2, 1, 1, 9, 135, 60, 60, 135, 59, 134, 3, 1.77553
247, 1, bw, attraction, a-b-db, 2, 1, 1, 9, 135, 60, 60, 135, 59, 134, 1, 0.91861
247, 1, bw, attraction, a-b-da, 2, 3, 1, 10, 120, 195, 195, 120, 193, 119, 1, 2.87163
247, 1, bw, attraction, a-b-da, 2, 3, 1, 10, 120, 195, 195, 120, 193, 119, 3, 1.91535
247, 1, bw, filler, NA, 999, 999, 1, 11, 110, 167, 142, 103, 113, 175, 3, 2.88425
247, 1, bw, filler, NA, 999, 999, 1, 11, 110, 167, 142, 103, 113, 175, 2, 3.21522
247, 1, bw, attraction, a-b-da, 14, 3, 1, 12, 120, 195, 195, 120, 181, 111, 2, 1.60357
247, 1, bw, attraction, a-b-da, 14, 3, 1, 12, 120, 195, 195, 120, 181, 111, 3, 1.13026
247, 1, bw, filler, NA, 999, 999, 1, 13, 106, 106, 159, 158, 125, 170, 2, 4.81056
247, 1, bw, filler, NA, 999, 999, 1, 13, 106, 106, 159, 158, 125, 170, 1, 1.03157
247, 1, bw, filler, NA, 999, 999, 1, 14, 66, 118, 125, 67, 102, 146, 3, 1.64388
247, 1, bw, filler, NA, 999, 999, 1, 14, 66, 118, 125, 67, 102, 146, 1, 0.872787
247, 1, bw, filler, NA, 999, 999, 1, 15, 144, 145, 56, 99, 121, 146, 1, 1.34766
247, 1, bw, filler, NA, 999, 999, 1, 15, 144, 145, 56, 99, 121, 146, 2, 1.01254
247, 1, bw, attraction, a-b-da, 2, 2, 1, 16, 165, 90, 90, 165, 163, 89, 2, 2.0657
247, 1, bw, attraction, a-b-da, 2, 2, 1, 16, 165, 90, 90, 165, 163, 89, 1, 1.24561
247, 1, bw, attraction, a-b-da, 9, 1, 1, 17, 129, 57, 135, 60, 60, 135, 3, 5.21717
247, 1, bw, attraction, a-b-da, 9, 1, 1, 17, 129, 57, 135, 60, 60, 135, 1, 1.26203
247, 1, bw, attraction, a-b-da, 9, 3, 1, 18, 195, 120, 120, 195, 186, 114, 2, 3.16916
247, 1, bw, attraction, a-b-da, 9, 3, 1, 18, 195, 120, 120, 195, 186, 114, 3, 1.02474
247, 1, bw, attraction, a-b-da, 14, 2, 1, 19, 90, 165, 153, 83, 165, 90, 3, 2.59697
247, 1, bw, attraction, a-b-da, 14, 2, 1, 19, 90, 165, 153, 83, 165, 90, 2, 1.80347
247, 1, bw, attraction, a-b-da, 5, 1, 1, 20, 60, 135, 135, 60, 132, 58, 2, 2.04085
247, 1, bw, attraction, a-b-da, 5, 1, 1, 20, 60, 135, 135, 60, 132, 58, 3, 1.0536
247, 1, bw, filler, NA, 999, 999, 1, 21, 155, 162, 69, 67, 125, 186, 1, 1.28912
247, 1, bw, filler, NA, 999, 999, 1, 21, 155, 162, 69, 67, 125, 186, 2, 1.052
247, 1, bw, attraction, a-b-da, 2, 1, 1, 22, 135, 60, 134, 59, 60, 135, 2, 2.85557
247, 1, bw, attraction, a-b-da, 2, 1, 1, 22, 135, 60, 134, 59, 60, 135, 1, 1.69134
247, 1, bw, attraction, a-b-da, 9, 2, 1, 23, 157, 86, 165, 90, 90, 165, 2, 2.92477
247, 1, bw, attraction, a-b-da, 9, 2, 1, 23, 157, 86, 165, 90, 90, 165, 3, 0.901809
247, 1, bw, attraction, a-b-da, 5, 3, 1, 24, 190, 117, 195, 120, 120, 195, 2, 2.00748
247, 1, bw, attraction, a-b-da, 5, 3, 1, 24, 190, 117, 195, 120, 120, 195, 1, 1.54946
247, 1, bw, filler, NA, 999, 999, 1, 25, 74, 87, 167, 138, 114, 106, 2, 4.04496
247, 1, bw, filler, NA, 999, 999, 1, 25, 74, 87, 167, 138, 114, 106, 1, 0.76912
247, 1, bw, attraction, a-b-db, 14, 2, 1, 26, 83, 153, 165, 90, 90, 165, 3, 2.34409
247, 1, bw, attraction, a-b-db, 14, 2, 1, 26, 83, 153, 165, 90, 90, 165, 2, 0.552726
247, 1, bw, attraction, a-b-db, 14, 1, 1, 27, 135, 60, 60, 135, 56, 125, 3, 2.24837
247, 1, bw, attraction, a-b-db, 14, 1, 1, 27, 135, 60, 60, 135, 56, 125, 1, 1.26903
247, 1, bw, attraction, a-b-db, 5, 3, 1, 28, 120, 195, 195, 120, 117, 190, 2, 2.47191
247, 1, bw, attraction, a-b-db, 5, 3, 1, 28, 120, 195, 195, 120, 117, 190, 3, 1.81906
247, 1, bw, catch, NA, 999, 999, 1, 29, 136, 179, 129, 66, 140, 115, 1, 1.54376
247, 1, bw, catch, NA, 999, 999, 1, 29, 136, 179, 129, 66, 140, 115, 2, 0.952534
247, 1, bw, attraction, a-b-da, 5, 2, 1, 30, 161, 88, 90, 165, 165, 90, 2, 3.33622
247, 1, bw, attraction, a-b-da, 5, 2, 1, 30, 161, 88, 90, 165, 165, 90, 1, 0.737148
247, 1, bw, attraction, a-b-db, 5, 2, 1, 31, 88, 161, 90, 165, 165, 90, 2, 2.57766
247, 1, bw, attraction, a-b-db, 5, 2, 1, 31, 88, 161, 90, 165, 165, 90, 1, 1.96073
247, 1, bw, catch, NA, 999, 999, 1, 32, 147, 108, 92, 103, 157, 158, 3, 1.1993
247, 1, bw, catch, NA, 999, 999, 1, 32, 147, 108, 92, 103, 157, 158, 2, 0.870414
247, 1, bw, attraction, a-b-da, 14, 1, 1, 33, 135, 60, 125, 56, 60, 135, 1, 1.97727
247, 1, bw, attraction, a-b-da, 14, 1, 1, 33, 135, 60, 125, 56, 60, 135, 2, 0.848789
247, 1, bw, filler, NA, 999, 999, 1, 34, 102, 160, 131, 177, 164, 175, 3, 1.81232
247, 1, bw, filler, NA, 999, 999, 1, 34, 102, 160, 131, 177, 164, 175, 1, 0.714614
247, 1, bw, attraction, a-b-db, 9, 3, 1, 35, 195, 120, 120, 195, 114, 186, 2, 2.20358
247, 1, bw, attraction, a-b-db, 9, 3, 1, 35, 195, 120, 120, 195, 114, 186, 3, 1.25009
247, 1, bw, attraction, a-b-db, 2, 2, 1, 36, 89, 163, 165, 90, 90, 165, 2, 1.40576
247, 1, bw, attraction, a-b-db, 2, 2, 1, 36, 89, 163, 165, 90, 90, 165, 1, 0.523793
247, 1, bw, filler, NA, 999, 999, 1, 37, 122, 144, 169, 131, 77, 171, 2, 1.38833
247, 1, bw, filler, NA, 999, 999, 1, 37, 122, 144, 169, 131, 77, 171, 3, 0.539138
247, 1, bw, attraction, a-b-db, 2, 1, 2, 1, 60, 135, 59, 134, 135, 60, 1, 2.13963
247, 1, bw, attraction, a-b-db, 2, 1, 2, 1, 60, 135, 59, 134, 135, 60, 3, 1.93238
247, 1, bw, attraction, a-b-db, 9, 3, 2, 2, 195, 120, 114, 186, 120, 195, 2, 6.46018
247, 1, bw, attraction, a-b-db, 9, 3, 2, 2, 195, 120, 114, 186, 120, 195, 1, 4.63091
247, 1, bw, filler, NA, 999, 999, 2, 3, 146, 58, 155, 134, 139, 151, 2, 1.21791
247, 1, bw, filler, NA, 999, 999, 2, 3, 146, 58, 155, 134, 139, 151, 1, 1.12029
247, 1, bw, filler, NA, 999, 999, 2, 4, 176, 189, 109, 101, 82, 160, 1, 1.01719
247, 1, bw, filler, NA, 999, 999, 2, 4, 176, 189, 109, 101, 82, 160, 2, 1.27957
247, 1, bw, attraction, a-b-db, 14, 2, 2, 5, 83, 153, 165, 90, 90, 165, 3, 1.56972
247, 1, bw, attraction, a-b-db, 14, 2, 2, 5, 83, 153, 165, 90, 90, 165, 1, 0.905874
247, 1, bw, catch, NA, 999, 999, 2, 6, 136, 119, 99, 96, 146, 169, 3, 1.15562
247, 1, bw, catch, NA, 999, 999, 2, 6, 136, 119, 99, 96, 146, 169, 2, 0.651844
247, 1, bw, attraction, a-b-db, 2, 2, 2, 7, 89, 163, 90, 165, 165, 90, 2, 4.09553
247, 1, bw, attraction, a-b-db, 2, 2, 2, 7, 89, 163, 90, 165, 165, 90, 1, 1.3376
247, 1, bw, filler, NA, 999, 999, 2, 8, 103, 167, 58, 76, 185, 103, 3, 2.41778
247, 1, bw, filler, NA, 999, 999, 2, 8, 103, 167, 58, 76, 185, 103, 2, 0.583657
247, 1, bw, attraction, a-b-da, 14, 2, 2, 9, 90, 165, 153, 83, 165, 90, 1, 3.0542
247, 1, bw, attraction, a-b-da, 14, 2, 2, 9, 90, 165, 153, 83, 165, 90, 2, 0.978506
247, 1, bw, attraction, a-b-da, 14, 3, 2, 10, 181, 111, 195, 120, 120, 195, 2, 1.89677
247, 1, bw, attraction, a-b-da, 14, 3, 2, 10, 181, 111, 195, 120, 120, 195, 3, 0.611527
247, 1, bw, attraction, a-b-da, 5, 2, 2, 11, 161, 88, 90, 165, 165, 90, 2, 8.19255
247, 1, bw, attraction, a-b-da, 5, 2, 2, 11, 161, 88, 90, 165, 165, 90, 3, 0.525229
247, 1, bw, filler, NA, 999, 999, 2, 12, 164, 113, 139, 62, 133, 66, 1, 1.02179
247, 1, bw, filler, NA, 999, 999, 2, 12, 164, 113, 139, 62, 133, 66, 2, 0.843426
247, 1, bw, attraction, a-b-db, 14, 1, 2, 13, 60, 135, 56, 125, 135, 60, 1, 2.38312
247, 1, bw, attraction, a-b-db, 14, 1, 2, 13, 60, 135, 56, 125, 135, 60, 2, 0.910284
247, 1, bw, attraction, a-b-da, 9, 1, 2, 14, 60, 135, 129, 57, 135, 60, 3, 1.60731
247, 1, bw, attraction, a-b-da, 9, 1, 2, 14, 60, 135, 129, 57, 135, 60, 2, 0.725494
247, 1, bw, filler, NA, 999, 999, 2, 15, 100, 138, 172, 135, 153, 67, 2, 1.50979
247, 1, bw, filler, NA, 999, 999, 2, 15, 100, 138, 172, 135, 153, 67, 3, 1.09614
247, 1, bw, attraction, a-b-db, 5, 3, 2, 16, 195, 120, 120, 195, 117, 190, 1, 1.24949
247, 1, bw, attraction, a-b-db, 5, 3, 2, 16, 195, 120, 120, 195, 117, 190, 2, 0.990423
247, 1, bw, catch, NA, 999, 999, 2, 17, 94, 101, 184, 131, 122, 133, 2, 0.812212
247, 1, bw, catch, NA, 999, 999, 2, 17, 94, 101, 184, 131, 122, 133, 1, 0.778404
247, 1, bw, attraction, a-b-da, 9, 2, 2, 18, 157, 86, 90, 165, 165, 90, 3, 2.15282
247, 1, bw, attraction, a-b-da, 9, 2, 2, 18, 157, 86, 90, 165, 165, 90, 2, 0.785779
247, 1, bw, attraction, a-b-db, 5, 1, 2, 19, 60, 135, 135, 60, 58, 132, 2, 1.11988
247, 1, bw, attraction, a-b-db, 5, 1, 2, 19, 60, 135, 135, 60, 58, 132, 3, 0.634174
247, 1, bw, attraction, a-b-da, 2, 3, 2, 20, 120, 195, 195, 120, 193, 119, 3, 1.9106
247, 1, bw, attraction, a-b-da, 2, 3, 2, 20, 120, 195, 195, 120, 193, 119, 2, 0.560664
247, 1, bw, attraction, a-b-db, 2, 3, 2, 21, 119, 193, 120, 195, 195, 120, 2, 2.28768
247, 1, bw, attraction, a-b-db, 2, 3, 2, 21, 119, 193, 120, 195, 195, 120, 1, 0.602902
247, 1, bw, attraction, a-b-da, 5, 3, 2, 22, 195, 120, 120, 195, 190, 117, 2, 1.68079
247, 1, bw, attraction, a-b-da, 5, 3, 2, 22, 195, 120, 120, 195, 190, 117, 3, 1.31621
247, 1, bw, attraction, a-b-da, 14, 1, 2, 23, 60, 135, 125, 56, 135, 60, 3, 1.81308
247, 1, bw, attraction, a-b-da, 14, 1, 2, 23, 60, 135, 125, 56, 135, 60, 2, 0.763146
247, 1, bw, attraction, a-b-da, 5, 1, 2, 24, 132, 58, 60, 135, 135, 60, 2, 2.3703
247, 1, bw, attraction, a-b-da, 5, 1, 2, 24, 132, 58, 60, 135, 135, 60, 1, 0.754102
247, 1, bw, attraction, a-b-db, 9, 1, 2, 25, 57, 129, 60, 135, 135, 60, 2, 6.05778
247, 1, bw, attraction, a-b-db, 9, 1, 2, 25, 57, 129, 60, 135, 135, 60, 1, 1.93253
247, 1, bw, attraction, a-b-db, 9, 2, 2, 26, 90, 165, 165, 90, 86, 157, 3, 6.25254
247, 1, bw, attraction, a-b-db, 9, 2, 2, 26, 90, 165, 165, 90, 86, 157, 2, 0.535943
247, 1, bw, filler, NA, 999, 999, 2, 27, 125, 95, 139, 92, 73, 57, 2, 1.37627
247, 1, bw, filler, NA, 999, 999, 2, 27, 125, 95, 139, 92, 73, 57, 3, 1.07193
247, 1, bw, attraction, a-b-da, 2, 2, 2, 28, 165, 90, 90, 165, 163, 89, 1, 3.63467
247, 1, bw, attraction, a-b-da, 2, 2, 2, 28, 165, 90, 90, 165, 163, 89, 2, 2.27959
247, 1, bw, filler, NA, 999, 999, 2, 29, 188, 126, 87, 181, 95, 76, 2, 1.80952
247, 1, bw, filler, NA, 999, 999, 2, 29, 188, 126, 87, 181, 95, 76, 3, 1.02371
247, 1, bw, attraction, a-b-da, 9, 3, 2, 30, 120, 195, 195, 120, 186, 114, 2, 2.97183
247, 1, bw, attraction, a-b-da, 9, 3, 2, 30, 120, 195, 195, 120, 186, 114, 3, 2.41897
247, 1, bw, attraction, a-b-da, 2, 1, 2, 31, 134, 59, 135, 60, 60, 135, 2, 1.76739
247, 1, bw, attraction, a-b-da, 2, 1, 2, 31, 134, 59, 135, 60, 60, 135, 1, 2.36759
247, 1, bw, catch, NA, 999, 999, 2, 32, 163, 92, 123, 192, 73, 122, 2, 1.47819
247, 1, bw, catch, NA, 999, 999, 2, 32, 163, 92, 123, 192, 73, 122, 3, 1.07352
247, 1, bw, filler, NA, 999, 999, 2, 33, 123, 139, 102, 146, 137, 76, 1, 2.47589
247, 1, bw, filler, NA, 999, 999, 2, 33, 123, 139, 102, 146, 137, 76, 3, 1.06317
247, 1, bw, attraction, a-b-db, 5, 2, 2, 34, 165, 90, 90, 165, 88, 161, 1, 5.32201
247, 1, bw, attraction, a-b-db, 5, 2, 2, 34, 165, 90, 90, 165, 88, 161, 3, 1.73907
247, 1, bw, filler, NA, 999, 999, 2, 35, 118, 129, 89, 128, 154, 160, 3, 2.24296
247, 1, bw, filler, NA, 999, 999, 2, 35, 118, 129, 89, 128, 154, 160, 2, 0.927747
247, 1, bw, attraction, a-b-db, 14, 3, 2, 36, 120, 195, 195, 120, 111, 181, 2, 2.91993
247, 1, bw, attraction, a-b-db, 14, 3, 2, 36, 120, 195, 195, 120, 111, 181, 3, 1.2576
247, 1, bw, filler, NA, 999, 999, 2, 37, 66, 181, 67, 148, 94, 69, 1, 1.3727
247, 1, bw, filler, NA, 999, 999, 2, 37, 66, 181, 67, 148, 94, 69, 3, 1.26008
247, 1, bw, attraction, a-b-db, 14, 2, 3, 1, 83, 153, 165, 90, 90, 165, 2, 1.91095
247, 1, bw, attraction, a-b-db, 14, 2, 3, 1, 83, 153, 165, 90, 90, 165, 1, 0.793018
247, 1, bw, attraction, a-b-da, 14, 3, 3, 2, 195, 120, 120, 195, 181, 111, 1, 6.59067
247, 1, bw, attraction, a-b-da, 14, 3, 3, 2, 195, 120, 120, 195, 181, 111, 3, 0.891937
247, 1, bw, filler, NA, 999, 999, 3, 3, 187, 152, 59, 96, 75, 148, 1, 1.6296
247, 1, bw, filler, NA, 999, 999, 3, 3, 187, 152, 59, 96, 75, 148, 2, 0.899092
247, 1, bw, catch, NA, 999, 999, 3, 4, 154, 161, 91, 164, 103, 92, 1, 1.05279
247, 1, bw, catch, NA, 999, 999, 3, 4, 154, 161, 91, 164, 103, 92, 3, 0.793738
247, 1, bw, attraction, a-b-db, 14, 1, 3, 5, 135, 60, 60, 135, 56, 125, 1, 5.47147
247, 1, bw, attraction, a-b-db, 14, 1, 3, 5, 135, 60, 60, 135, 56, 125, 3, 2.2344
247, 1, bw, filler, NA, 999, 999, 3, 6, 190, 186, 141, 161, 171, 95, 1, 1.04616
247, 1, bw, filler, NA, 999, 999, 3, 6, 190, 186, 141, 161, 171, 95, 3, 1.19528
247, 1, bw, attraction, a-b-db, 5, 3, 3, 7, 195, 120, 117, 190, 120, 195, 1, 4.00073
247, 1, bw, attraction, a-b-db, 5, 3, 3, 7, 195, 120, 117, 190, 120, 195, 2, 1.33493
247, 1, bw, attraction, a-b-da, 5, 1, 3, 8, 60, 135, 135, 60, 132, 58, 2, 1.85509
247, 1, bw, attraction, a-b-da, 5, 1, 3, 8, 60, 135, 135, 60, 132, 58, 1, 1.21104
247, 1, bw, filler, NA, 999, 999, 3, 9, 189, 135, 186, 56, 149, 170, 1, 1.944
247, 1, bw, filler, NA, 999, 999, 3, 9, 189, 135, 186, 56, 149, 170, 2, 0.904664
247, 1, bw, attraction, a-b-da, 9, 1, 3, 10, 135, 60, 60, 135, 129, 57, 1, 2.63438
247, 1, bw, attraction, a-b-da, 9, 1, 3, 10, 135, 60, 60, 135, 129, 57, 2, 3.20759
247, 1, bw, attraction, a-b-db, 2, 1, 3, 11, 59, 134, 135, 60, 60, 135, 2, 1.91569
247, 1, bw, attraction, a-b-db, 2, 1, 3, 11, 59, 134, 135, 60, 60, 135, 1, 1.58993
247, 1, bw, attraction, a-b-db, 9, 2, 3, 12, 90, 165, 86, 157, 165, 90, 3, 25.068
247, 1, bw, attraction, a-b-db, 9, 2, 3, 12, 90, 165, 86, 157, 165, 90, 2, 0.744739
247, 1, bw, catch, NA, 999, 999, 3, 13, 94, 101, 173, 142, 94, 161, 2, 1.0726
247, 1, bw, catch, NA, 999, 999, 3, 13, 94, 101, 173, 142, 94, 161, 1, 0.44407
247, 1, bw, attraction, a-b-db, 2, 3, 3, 14, 119, 193, 195, 120, 120, 195, 2, 19.4718
247, 1, bw, attraction, a-b-db, 2, 3, 3, 14, 119, 193, 195, 120, 120, 195, 1, 0.774545
247, 1, bw, attraction, a-b-db, 2, 2, 3, 15, 90, 165, 165, 90, 89, 163, 2, 3.58888
247, 1, bw, attraction, a-b-db, 2, 2, 3, 15, 90, 165, 165, 90, 89, 163, 1, 1.20318
247, 1, bw, attraction, a-b-da, 9, 2, 3, 16, 165, 90, 90, 165, 157, 86, 2, 22.3286
247, 1, bw, attraction, a-b-da, 9, 2, 3, 16, 165, 90, 90, 165, 157, 86, 3, 3.01164
247, 1, bw, filler, NA, 999, 999, 3, 17, 176, 180, 129, 165, 122, 115, 1, 1.59196
247, 1, bw, filler, NA, 999, 999, 3, 17, 176, 180, 129, 165, 122, 115, 3, 0.654728
247, 1, bw, filler, NA, 999, 999, 3, 18, 144, 101, 140, 121, 68, 162, 2, 2.0264
247, 1, bw, filler, NA, 999, 999, 3, 18, 144, 101, 140, 121, 68, 162, 3, 0.583747
247, 1, bw, attraction, a-b-db, 5, 1, 3, 19, 135, 60, 60, 135, 58, 132, 1, 1.75044
247, 1, bw, attraction, a-b-db, 5, 1, 3, 19, 135, 60, 60, 135, 58, 132, 3, 2.319
247, 1, bw, attraction, a-b-da, 2, 2, 3, 20, 163, 89, 165, 90, 90, 165, 3, 4.30355
247, 1, bw, attraction, a-b-da, 2, 2, 3, 20, 163, 89, 165, 90, 90, 165, 1, 1.35349
247, 1, bw, filler, NA, 999, 999, 3, 21, 74, 120, 107, 107, 59, 118, 2, 2.63305
247, 1, bw, filler, NA, 999, 999, 3, 21, 74, 120, 107, 107, 59, 118, 3, 0.902203
247, 1, bw, attraction, a-b-db, 9, 1, 3, 22, 57, 129, 135, 60, 60, 135, 2, 2.00782
247, 1, bw, attraction, a-b-db, 9, 1, 3, 22, 57, 129, 135, 60, 60, 135, 1, 0.965795
247, 1, bw, attraction, a-b-da, 14, 1, 3, 23, 135, 60, 60, 135, 125, 56, 3, 3.34079
247, 1, bw, attraction, a-b-da, 14, 1, 3, 23, 135, 60, 60, 135, 125, 56, 1, 1.34102
247, 1, bw, attraction, a-b-da, 14, 2, 3, 24, 165, 90, 90, 165, 153, 83, 2, 4.60463
247, 1, bw, attraction, a-b-da, 14, 2, 3, 24, 165, 90, 90, 165, 153, 83, 3, 0.713783
247, 1, bw, filler, NA, 999, 999, 3, 25, 81, 124, 77, 138, 106, 78, 2, 2.01103
247, 1, bw, filler, NA, 999, 999, 3, 25, 81, 124, 77, 138, 106, 78, 3, 0.640855
247, 1, bw, attraction, a-b-db, 5, 2, 3, 26, 88, 161, 90, 165, 165, 90, 2, 7.22056
247, 1, bw, attraction, a-b-db, 5, 2, 3, 26, 88, 161, 90, 165, 165, 90, 1, 0.841034
247, 1, bw, attraction, a-b-da, 9, 3, 3, 27, 120, 195, 186, 114, 195, 120, 2, 6.82871
247, 1, bw, attraction, a-b-da, 9, 3, 3, 27, 120, 195, 186, 114, 195, 120, 1, 0.656568
247, 1, bw, attraction, a-b-db, 14, 3, 3, 28, 120, 195, 111, 181, 195, 120, 1, 4.13238
247, 1, bw, attraction, a-b-db, 14, 3, 3, 28, 120, 195, 111, 181, 195, 120, 3, 1.20489
247, 1, bw, attraction, a-b-da, 2, 1, 3, 29, 135, 60, 60, 135, 134, 59, 1, 2.63447
247, 1, bw, attraction, a-b-da, 2, 1, 3, 29, 135, 60, 60, 135, 134, 59, 2, 0.495674
247, 1, bw, filler, NA, 999, 999, 3, 30, 164, 186, 102, 132, 82, 84, 1, 0.993398
247, 1, bw, filler, NA, 999, 999, 3, 30, 164, 186, 102, 132, 82, 84, 3, 0.584498
247, 1, bw, attraction, a-b-da, 2, 3, 3, 31, 120, 195, 193, 119, 195, 120, 3, 2.70289
247, 1, bw, attraction, a-b-da, 2, 3, 3, 31, 120, 195, 193, 119, 195, 120, 1, 1.40952
247, 1, bw, attraction, a-b-da, 5, 3, 3, 32, 190, 117, 120, 195, 195, 120, 2, 1.77427
247, 1, bw, attraction, a-b-da, 5, 3, 3, 32, 190, 117, 120, 195, 195, 120, 1, 1.1255
247, 1, bw, attraction, a-b-db, 9, 3, 3, 33, 114, 186, 120, 195, 195, 120, 2, 1.7739
247, 1, bw, attraction, a-b-db, 9, 3, 3, 33, 114, 186, 120, 195, 195, 120, 1, 0.733164
247, 1, bw, filler, NA, 999, 999, 3, 34, 136, 63, 169, 127, 90, 184, 2, 1.08551
247, 1, bw, filler, NA, 999, 999, 3, 34, 136, 63, 169, 127, 90, 184, 1, 0.681232
247, 1, bw, filler, NA, 999, 999, 3, 35, 104, 191, 87, 119, 102, 152, 1, 1.46755
247, 1, bw, filler, NA, 999, 999, 3, 35, 104, 191, 87, 119, 102, 152, 2, 0.439769
247, 1, bw, attraction, a-b-da, 5, 2, 3, 36, 161, 88, 165, 90, 90, 165, 1, 1.30032
247, 1, bw, attraction, a-b-da, 5, 2, 3, 36, 161, 88, 165, 90, 90, 165, 2, 0.847203
247, 1, bw, catch, NA, 999, 999, 3, 37, 80, 115, 131, 124, 192, 123, 3, 0.866868
247, 1, bw, catch, NA, 999, 999, 3, 37, 80, 115, 131, 124, 192, 123, 1, 0.559225
247, 1, bw, attraction, a-b-db, 9, 2, 4, 1, 86, 157, 165, 90, 90, 165, 2, 1.63836
247, 1, bw, attraction, a-b-db, 9, 2, 4, 1, 86, 157, 165, 90, 90, 165, 1, 0.595863
247, 1, bw, attraction, a-b-da, 2, 1, 4, 2, 135, 60, 60, 135, 134, 59, 1, 1.32958
247, 1, bw, attraction, a-b-da, 2, 1, 4, 2, 135, 60, 60, 135, 134, 59, 2, 0.595177
247, 1, bw, filler, NA, 999, 999, 4, 3, 66, 188, 75, 163, 195, 92, 3, 1.28087
247, 1, bw, filler, NA, 999, 999, 4, 3, 66, 188, 75, 163, 195, 92, 2, 0.780434
247, 1, bw, filler, NA, 999, 999, 4, 4, 173, 147, 185, 184, 149, 160, 2, 1.62678
247, 1, bw, filler, NA, 999, 999, 4, 4, 173, 147, 185, 184, 149, 160, 3, 0.960279
247, 1, bw, attraction, a-b-db, 2, 2, 4, 5, 165, 90, 90, 165, 89, 163, 1, 3.35137
247, 1, bw, attraction, a-b-db, 2, 2, 4, 5, 165, 90, 90, 165, 89, 163, 2, 0.679534
247, 1, bw, filler, NA, 999, 999, 4, 6, 194, 162, 123, 61, 168, 139, 1, 1.00205
247, 1, bw, filler, NA, 999, 999, 4, 6, 194, 162, 123, 61, 168, 139, 2, 0.568851
247, 1, bw, filler, NA, 999, 999, 4, 7, 179, 61, 137, 161, 140, 181, 2, 1.45592
247, 1, bw, filler, NA, 999, 999, 4, 7, 179, 61, 137, 161, 140, 181, 1, 0.476155
247, 1, bw, attraction, a-b-da, 2, 3, 4, 8, 193, 119, 120, 195, 195, 120, 1, 1.7267
247, 1, bw, attraction, a-b-da, 2, 3, 4, 8, 193, 119, 120, 195, 195, 120, 3, 0.520139
247, 1, bw, attraction, a-b-db, 14, 1, 4, 9, 56, 125, 60, 135, 135, 60, 2, 1.72922
247, 1, bw, attraction, a-b-db, 14, 1, 4, 9, 56, 125, 60, 135, 135, 60, 1, 0.906689
247, 1, bw, attraction, a-b-da, 9, 1, 4, 10, 135, 60, 60, 135, 129, 57, 3, 4.2844
247, 1, bw, attraction, a-b-da, 9, 1, 4, 10, 135, 60, 60, 135, 129, 57, 2, 1.23899
247, 1, bw, attraction, a-b-db, 9, 3, 4, 11, 120, 195, 195, 120, 114, 186, 2, 2.05919
247, 1, bw, attraction, a-b-db, 9, 3, 4, 11, 120, 195, 195, 120, 114, 186, 3, 0.903246
247, 1, bw, attraction, a-b-da, 14, 1, 4, 12, 60, 135, 135, 60, 125, 56, 2, 3.49688
247, 1, bw, attraction, a-b-da, 14, 1, 4, 12, 60, 135, 135, 60, 125, 56, 1, 0.547049
247, 1, bw, attraction, a-b-da, 9, 3, 4, 13, 120, 195, 186, 114, 195, 120, 3, 5.35481
247, 1, bw, attraction, a-b-da, 9, 3, 4, 13, 120, 195, 186, 114, 195, 120, 1, 0.674356
247, 1, bw, attraction, a-b-db, 5, 2, 4, 14, 90, 165, 88, 161, 165, 90, 3, 1.68482
247, 1, bw, attraction, a-b-db, 5, 2, 4, 14, 90, 165, 88, 161, 165, 90, 2, 1.00023
247, 1, bw, attraction, a-b-da, 5, 1, 4, 15, 60, 135, 132, 58, 135, 60, 3, 4.15788
247, 1, bw, attraction, a-b-da, 5, 1, 4, 15, 60, 135, 132, 58, 135, 60, 1, 0.693352
247, 1, bw, attraction, a-b-da, 5, 2, 4, 16, 90, 165, 161, 88, 165, 90, 2, 5.68685
247, 1, bw, attraction, a-b-da, 5, 2, 4, 16, 90, 165, 161, 88, 165, 90, 1, 1.28909
247, 1, bw, attraction, a-b-da, 9, 2, 4, 17, 90, 165, 165, 90, 157, 86, 2, 4.45929
247, 1, bw, attraction, a-b-da, 9, 2, 4, 17, 90, 165, 165, 90, 157, 86, 1, 1.07862
247, 1, bw, attraction, a-b-db, 2, 1, 4, 18, 59, 134, 135, 60, 60, 135, 3, 7.95283
247, 1, bw, attraction, a-b-db, 2, 1, 4, 18, 59, 134, 135, 60, 60, 135, 1, 0.783672
247, 1, bw, attraction, a-b-db, 14, 2, 4, 19, 90, 165, 83, 153, 165, 90, 3, 3.87009
247, 1, bw, attraction, a-b-db, 14, 2, 4, 19, 90, 165, 83, 153, 165, 90, 2, 0.521495
247, 1, bw, filler, NA, 999, 999, 4, 20, 145, 89, 66, 189, 72, 69, 2, 7.29858
247, 1, bw, filler, NA, 999, 999, 4, 20, 145, 89, 66, 189, 72, 69, 3, 0.987615
247, 1, bw, attraction, a-b-da, 14, 3, 4, 21, 120, 195, 181, 111, 195, 120, 3, 10.3699
247, 1, bw, attraction, a-b-da, 14, 3, 4, 21, 120, 195, 181, 111, 195, 120, 2, 1.13542
247, 1, bw, attraction, a-b-da, 14, 2, 4, 22, 90, 165, 165, 90, 153, 83, 2, 18.3435
247, 1, bw, attraction, a-b-da, 14, 2, 4, 22, 90, 165, 165, 90, 153, 83, 3, 0.899799
247, 1, bw, attraction, a-b-da, 2, 2, 4, 23, 165, 90, 90, 165, 163, 89, 2, 5.78951
247, 1, bw, attraction, a-b-da, 2, 2, 4, 23, 165, 90, 90, 165, 163, 89, 3, 0.747066
247, 1, bw, catch, NA, 999, 999, 4, 24, 142, 113, 182, 133, 71, 124, 2, 1.11466
247, 1, bw, catch, NA, 999, 999, 4, 24, 142, 113, 182, 133, 71, 124, 3, 0.717098
247, 1, bw, filler, NA, 999, 999, 4, 25, 91, 87, 71, 71, 67, 72, 1, 1.47001
247, 1, bw, filler, NA, 999, 999, 4, 25, 91, 87, 71, 71, 67, 72, 3, 1.04235
247, 1, bw, filler, NA, 999, 999, 4, 26, 86, 90, 69, 181, 75, 162, 2, 1.67792
247, 1, bw, filler, NA, 999, 999, 4, 26, 86, 90, 69, 181, 75, 162, 1, 1.12128
247, 1, bw, attraction, a-b-db, 5, 3, 4, 27, 117, 190, 195, 120, 120, 195, 2, 2.00223
247, 1, bw, attraction, a-b-db, 5, 3, 4, 27, 117, 190, 195, 120, 120, 195, 1, 1.23298
247, 1, bw, filler, NA, 999, 999, 4, 28, 111, 68, 167, 141, 140, 165, 2, 1.70109
247, 1, bw, filler, NA, 999, 999, 4, 28, 111, 68, 167, 141, 140, 165, 1, 0.751825
247, 1, bw, filler, NA, 999, 999, 4, 29, 102, 135, 161, 56, 92, 104, 1, 0.943519
247, 1, bw, filler, NA, 999, 999, 4, 29, 102, 135, 161, 56, 92, 104, 2, 0.872592
247, 1, bw, attraction, a-b-db, 5, 1, 4, 30, 60, 135, 135, 60, 58, 132, 2, 2.85171
247, 1, bw, attraction, a-b-db, 5, 1, 4, 30, 60, 135, 135, 60, 58, 132, 3, 0.87205
247, 1, bw, attraction, a-b-db, 14, 3, 4, 31, 120, 195, 195, 120, 111, 181, 2, 2.55517
247, 1, bw, attraction, a-b-db, 14, 3, 4, 31, 120, 195, 195, 120, 111, 181, 3, 0.738924
247, 1, bw, attraction, a-b-da, 5, 3, 4, 32, 195, 120, 120, 195, 190, 117, 2, 3.25121
247, 1, bw, attraction, a-b-da, 5, 3, 4, 32, 195, 120, 120, 195, 190, 117, 3, 0.815687
247, 1, bw, attraction, a-b-db, 9, 1, 4, 33, 57, 129, 135, 60, 60, 135, 2, 3.32451
247, 1, bw, attraction, a-b-db, 9, 1, 4, 33, 57, 129, 135, 60, 60, 135, 1, 1.05345
247, 1, bw, attraction, a-b-db, 2, 3, 4, 34, 120, 195, 195, 120, 119, 193, 1, 4.75311
247, 1, bw, attraction, a-b-db, 2, 3, 4, 34, 120, 195, 195, 120, 119, 193, 2, 0.744962
247, 1, bw, catch, NA, 999, 999, 4, 35, 93, 102, 153, 162, 114, 141, 2, 1.24866
247, 1, bw, catch, NA, 999, 999, 4, 35, 93, 102, 153, 162, 114, 141, 1, 0.477518
247, 1, bw, filler, NA, 999, 999, 4, 36, 143, 143, 177, 175, 157, 111, 2, 2.1521
247, 1, bw, filler, NA, 999, 999, 4, 36, 143, 143, 177, 175, 157, 111, 3, 0.664685
247, 1, bw, catch, NA, 999, 999, 4, 37, 132, 123, 127, 188, 96, 99, 2, 5.45174
247, 1, bw, catch, NA, 999, 999, 4, 37, 132, 123, 127, 188, 96, 99, 3, 1.09621
247, 1, bw, filler, NA, 999, 999, 5, 1, 57, 169, 57, 171, 83, 124, 2, 6.51964
247, 1, bw, filler, NA, 999, 999, 5, 1, 57, 169, 57, 171, 83, 124, 3, 0.720157
247, 1, bw, attraction, a-b-da, 5, 2, 5, 2, 165, 90, 90, 165, 161, 88, 1, 3.51328
247, 1, bw, attraction, a-b-da, 5, 2, 5, 2, 165, 90, 90, 165, 161, 88, 2, 0.410753
247, 1, bw, catch, NA, 999, 999, 5, 3, 98, 157, 163, 152, 66, 129, 2, 0.967929
247, 1, bw, catch, NA, 999, 999, 5, 3, 98, 157, 163, 152, 66, 129, 3, 0.712218
247, 1, bw, attraction, a-b-da, 2, 2, 5, 4, 165, 90, 90, 165, 163, 89, 1, 7.29733
247, 1, bw, attraction, a-b-da, 2, 2, 5, 4, 165, 90, 90, 165, 163, 89, 2, 0.450268
247, 1, bw, attraction, a-b-da, 14, 1, 5, 5, 125, 56, 60, 135, 135, 60, 3, 1.39807
247, 1, bw, attraction, a-b-da, 14, 1, 5, 5, 125, 56, 60, 135, 135, 60, 1, 0.964945
247, 1, bw, attraction, a-b-da, 14, 3, 5, 6, 181, 111, 195, 120, 120, 195, 2, 3.07585
247, 1, bw, attraction, a-b-da, 14, 3, 5, 6, 181, 111, 195, 120, 120, 195, 1, 0.751095
247, 1, bw, filler, NA, 999, 999, 5, 7, 107, 66, 181, 73, 179, 133, 3, 1.2227
247, 1, bw, filler, NA, 999, 999, 5, 7, 107, 66, 181, 73, 179, 133, 1, 0.724269
247, 1, bw, attraction, a-b-da, 2, 3, 5, 8, 193, 119, 195, 120, 120, 195, 2, 5.99676
247, 1, bw, attraction, a-b-da, 2, 3, 5, 8, 193, 119, 195, 120, 120, 195, 1, 0.978108
247, 1, bw, attraction, a-b-db, 9, 1, 5, 9, 60, 135, 57, 129, 135, 60, 3, 1.80843
247, 1, bw, attraction, a-b-db, 9, 1, 5, 9, 60, 135, 57, 129, 135, 60, 2, 0.950575
247, 1, bw, attraction, a-b-db, 5, 3, 5, 10, 120, 195, 117, 190, 195, 120, 3, 2.18214
247, 1, bw, attraction, a-b-db, 5, 3, 5, 10, 120, 195, 117, 190, 195, 120, 2, 0.541369
247, 1, bw, catch, NA, 999, 999, 5, 11, 100, 155, 84, 111, 129, 186, 3, 1.03716
247, 1, bw, catch, NA, 999, 999, 5, 11, 100, 155, 84, 111, 129, 186, 2, 0.450791
247, 1, bw, attraction, a-b-db, 9, 2, 5, 12, 86, 157, 165, 90, 90, 165, 2, 1.40667
247, 1, bw, attraction, a-b-db, 9, 2, 5, 12, 86, 157, 165, 90, 90, 165, 1, 0.468908
247, 1, bw, attraction, a-b-da, 14, 2, 5, 13, 165, 90, 153, 83, 90, 165, 1, 1.55987
247, 1, bw, attraction, a-b-da, 14, 2, 5, 13, 165, 90, 153, 83, 90, 165, 2, 0.896092
247, 1, bw, attraction, a-b-db, 2, 3, 5, 14, 120, 195, 119, 193, 195, 120, 2, 1.91376
247, 1, bw, attraction, a-b-db, 2, 3, 5, 14, 120, 195, 119, 193, 195, 120, 1, 0.859781
247, 1, bw, filler, NA, 999, 999, 5, 15, 178, 71, 111, 134, 106, 130, 1, 1.57491
247, 1, bw, filler, NA, 999, 999, 5, 15, 178, 71, 111, 134, 106, 130, 3, 0.670264
247, 1, bw, attraction, a-b-db, 5, 1, 5, 16, 60, 135, 135, 60, 58, 132, 2, 1.42539
247, 1, bw, attraction, a-b-db, 5, 1, 5, 16, 60, 135, 135, 60, 58, 132, 1, 0.406923
247, 1, bw, filler, NA, 999, 999, 5, 17, 130, 73, 157, 57, 96, 182, 3, 1.03599
247, 1, bw, filler, NA, 999, 999, 5, 17, 130, 73, 157, 57, 96, 182, 1, 0.665637
247, 1, bw, attraction, a-b-da, 2, 1, 5, 18, 135, 60, 60, 135, 134, 59, 1, 2.56479
247, 1, bw, attraction, a-b-da, 2, 1, 5, 18, 135, 60, 60, 135, 134, 59, 2, 0.508537
247, 1, bw, attraction, a-b-da, 5, 1, 5, 19, 60, 135, 132, 58, 135, 60, 3, 2.90969
247, 1, bw, attraction, a-b-da, 5, 1, 5, 19, 60, 135, 132, 58, 135, 60, 2, 0.583361
247, 1, bw, attraction, a-b-db, 5, 2, 5, 20, 90, 165, 88, 161, 165, 90, 3, 2.10983
247, 1, bw, attraction, a-b-db, 5, 2, 5, 20, 90, 165, 88, 161, 165, 90, 2, 0.439745
247, 1, bw, attraction, a-b-da, 9, 3, 5, 21, 195, 120, 186, 114, 120, 195, 2, 5.16433
247, 1, bw, attraction, a-b-da, 9, 3, 5, 21, 195, 120, 186, 114, 120, 195, 3, 2.5153
247, 1, bw, attraction, a-b-db, 2, 2, 5, 22, 90, 165, 165, 90, 89, 163, 2, 1.11588
247, 1, bw, attraction, a-b-db, 2, 2, 5, 22, 90, 165, 165, 90, 89, 163, 3, 0.574208
247, 1, bw, filler, NA, 999, 999, 5, 23, 68, 135, 98, 132, 92, 173, 3, 2.3406
247, 1, bw, filler, NA, 999, 999, 5, 23, 68, 135, 98, 132, 92, 173, 1, 0.693121
247, 1, bw, filler, NA, 999, 999, 5, 24, 176, 125, 189, 129, 76, 167, 2, 2.11086
247, 1, bw, filler, NA, 999, 999, 5, 24, 176, 125, 189, 129, 76, 167, 3, 0.544919
247, 1, bw, attraction, a-b-db, 2, 1, 5, 25, 135, 60, 59, 134, 60, 135, 1, 2.72857
247, 1, bw, attraction, a-b-db, 2, 1, 5, 25, 135, 60, 59, 134, 60, 135, 3, 1.3217
247, 1, bw, attraction, a-b-db, 14, 3, 5, 26, 195, 120, 120, 195, 111, 181, 1, 2.41073
247, 1, bw, attraction, a-b-db, 14, 3, 5, 26, 195, 120, 120, 195, 111, 181, 3, 0.480461
247, 1, bw, attraction, a-b-db, 9, 3, 5, 27, 114, 186, 195, 120, 120, 195, 2, 2.595
247, 1, bw, attraction, a-b-db, 9, 3, 5, 27, 114, 186, 195, 120, 120, 195, 1, 0.521517
247, 1, bw, filler, NA, 999, 999, 5, 28, 131, 132, 134, 139, 105, 188, 3, 1.48242
247, 1, bw, filler, NA, 999, 999, 5, 28, 131, 132, 134, 139, 105, 188, 1, 0.413963
247, 1, bw, attraction, a-b-da, 9, 2, 5, 29, 90, 165, 165, 90, 157, 86, 3, 2.9315
247, 1, bw, attraction, a-b-da, 9, 2, 5, 29, 90, 165, 165, 90, 157, 86, 1, 1.41213
247, 1, bw, filler, NA, 999, 999, 5, 30, 110, 61, 77, 108, 149, 192, 3, 1.46513
247, 1, bw, filler, NA, 999, 999, 5, 30, 110, 61, 77, 108, 149, 192, 2, 0.557178
247, 1, bw, filler, NA, 999, 999, 5, 31, 145, 185, 100, 121, 80, 150, 1, 2.28435
247, 1, bw, filler, NA, 999, 999, 5, 31, 145, 185, 100, 121, 80, 150, 2, 1.75164
247, 1, bw, attraction, a-b-da, 9, 1, 5, 32, 135, 60, 129, 57, 60, 135, 1, 2.287
247, 1, bw, attraction, a-b-da, 9, 1, 5, 32, 135, 60, 129, 57, 60, 135, 2, 1.88217
247, 1, bw, catch, NA, 999, 999, 5, 33, 152, 103, 156, 159, 78, 117, 2, 1.42839
247, 1, bw, catch, NA, 999, 999, 5, 33, 152, 103, 156, 159, 78, 117, 3, 0.593824
247, 1, bw, attraction, a-b-db, 14, 2, 5, 34, 165, 90, 90, 165, 83, 153, 1, 2.51947
247, 1, bw, attraction, a-b-db, 14, 2, 5, 34, 165, 90, 90, 165, 83, 153, 3, 0.50549
247, 1, bw, attraction, a-b-da, 5, 3, 5, 35, 195, 120, 190, 117, 120, 195, 3, 5.25114
247, 1, bw, attraction, a-b-da, 5, 3, 5, 35, 195, 120, 190, 117, 120, 195, 1, 3.61479
247, 1, bw, attraction, a-b-db, 14, 1, 5, 36, 56, 125, 135, 60, 60, 135, 2, 1.78702
247, 1, bw, attraction, a-b-db, 14, 1, 5, 36, 56, 125, 135, 60, 60, 135, 1, 0.786381
247, 1, bw, filler, NA, 999, 999, 5, 37, 108, 112, 88, 99, 62, 130, 1, 1.00082
247, 1, bw, filler, NA, 999, 999, 5, 37, 108, 112, 88, 99, 62, 130, 2, 0.751922
247, 1, bw, filler, NA, 999, 999, 6, 1, 156, 103, 146, 91, 122, 130, 3, 2.47948
247, 1, bw, filler, NA, 999, 999, 6, 1, 156, 103, 146, 91, 122, 130, 2, 0.874733
247, 1, bw, attraction, a-b-db, 14, 2, 6, 2, 90, 165, 165, 90, 83, 153, 2, 1.66899
247, 1, bw, attraction, a-b-db, 14, 2, 6, 2, 90, 165, 165, 90, 83, 153, 3, 0.537225
247, 1, bw, attraction, a-b-da, 5, 3, 6, 3, 195, 120, 120, 195, 190, 117, 2, 7.46562
247, 1, bw, attraction, a-b-da, 5, 3, 6, 3, 195, 120, 120, 195, 190, 117, 1, 1.36391
247, 1, bw, filler, NA, 999, 999, 6, 4, 70, 60, 165, 119, 138, 68, 2, 3.93885
247, 1, bw, filler, NA, 999, 999, 6, 4, 70, 60, 165, 119, 138, 68, 1, 1.23551
247, 1, bw, filler, NA, 999, 999, 6, 5, 181, 66, 68, 97, 136, 192, 3, 9.0317
247, 1, bw, filler, NA, 999, 999, 6, 5, 181, 66, 68, 97, 136, 192, 2, 0.658886
247, 1, bw, filler, NA, 999, 999, 6, 6, 127, 96, 117, 148, 114, 133, 2, 1.43806
247, 1, bw, filler, NA, 999, 999, 6, 6, 127, 96, 117, 148, 114, 133, 1, 0.539487
247, 1, bw, filler, NA, 999, 999, 6, 7, 83, 130, 155, 75, 123, 104, 3, 1.24395
247, 1, bw, filler, NA, 999, 999, 6, 7, 83, 130, 155, 75, 123, 104, 1, 2.51298
247, 1, bw, attraction, a-b-da, 14, 2, 6, 8, 90, 165, 153, 83, 165, 90, 3, 2.20137
247, 1, bw, attraction, a-b-da, 14, 2, 6, 8, 90, 165, 153, 83, 165, 90, 1, 0.744005
247, 1, bw, attraction, a-b-da, 14, 3, 6, 9, 195, 120, 181, 111, 120, 195, 3, 8.72762
247, 1, bw, attraction, a-b-da, 14, 3, 6, 9, 195, 120, 181, 111, 120, 195, 2, 0.486906
247, 1, bw, attraction, a-b-db, 5, 2, 6, 10, 165, 90, 88, 161, 90, 165, 1, 2.80149
247, 1, bw, attraction, a-b-db, 5, 2, 6, 10, 165, 90, 88, 161, 90, 165, 3, 0.575921
247, 1, bw, catch, NA, 999, 999, 6, 11, 98, 157, 126, 69, 163, 152, 3, 1.34221
247, 1, bw, catch, NA, 999, 999, 6, 11, 98, 157, 126, 69, 163, 152, 2, 1.18318
247, 1, bw, attraction, a-b-db, 5, 3, 6, 12, 117, 190, 195, 120, 120, 195, 2, 2.93339
247, 1, bw, attraction, a-b-db, 5, 3, 6, 12, 117, 190, 195, 120, 120, 195, 1, 0.606349
247, 1, bw, attraction, a-b-db, 14, 3, 6, 13, 195, 120, 111, 181, 120, 195, 3, 4.03619
247, 1, bw, attraction, a-b-db, 14, 3, 6, 13, 195, 120, 111, 181, 120, 195, 2, 0.872793
247, 1, bw, attraction, a-b-da, 2, 2, 6, 14, 165, 90, 163, 89, 90, 165, 3, 4.66785
247, 1, bw, attraction, a-b-da, 2, 2, 6, 14, 165, 90, 163, 89, 90, 165, 2, 0.694983
247, 1, bw, attraction, a-b-da, 9, 3, 6, 15, 120, 195, 186, 114, 195, 120, 3, 3.2808
247, 1, bw, attraction, a-b-da, 9, 3, 6, 15, 120, 195, 186, 114, 195, 120, 2, 0.499624
247, 1, bw, attraction, a-b-db, 9, 3, 6, 16, 195, 120, 114, 186, 120, 195, 3, 2.46147
247, 1, bw, attraction, a-b-db, 9, 3, 6, 16, 195, 120, 114, 186, 120, 195, 2, 0.921432
247, 1, bw, attraction, a-b-da, 2, 1, 6, 17, 135, 60, 134, 59, 60, 135, 1, 1.04234
247, 1, bw, attraction, a-b-da, 2, 1, 6, 17, 135, 60, 134, 59, 60, 135, 2, 0.623418
247, 1, bw, attraction, a-b-da, 2, 3, 6, 18, 195, 120, 120, 195, 193, 119, 2, 1.6117
247, 1, bw, attraction, a-b-da, 2, 3, 6, 18, 195, 120, 120, 195, 193, 119, 3, 0.641824
247, 1, bw, attraction, a-b-db, 9, 1, 6, 19, 135, 60, 57, 129, 60, 135, 3, 7.76564
247, 1, bw, attraction, a-b-db, 9, 1, 6, 19, 135, 60, 57, 129, 60, 135, 2, 0.875799
247, 1, bw, attraction, a-b-da, 9, 1, 6, 20, 129, 57, 60, 135, 135, 60, 2, 3.06229
247, 1, bw, attraction, a-b-da, 9, 1, 6, 20, 129, 57, 60, 135, 135, 60, 1, 0.873808
247, 1, bw, catch, NA, 999, 999, 6, 21, 116, 139, 133, 182, 125, 70, 2, 1.05219
247, 1, bw, catch, NA, 999, 999, 6, 21, 116, 139, 133, 182, 125, 70, 3, 0.849196
247, 1, bw, attraction, a-b-da, 5, 1, 6, 22, 135, 60, 60, 135, 132, 58, 3, 3.32492
247, 1, bw, attraction, a-b-da, 5, 1, 6, 22, 135, 60, 60, 135, 132, 58, 2, 0.45401
247, 1, bw, attraction, a-b-da, 9, 2, 6, 23, 165, 90, 90, 165, 157, 86, 1, 16.3136
247, 1, bw, attraction, a-b-da, 9, 2, 6, 23, 165, 90, 90, 165, 157, 86, 3, 0.639064
247, 1, bw, attraction, a-b-db, 9, 2, 6, 24, 86, 157, 165, 90, 90, 165, 3, 5.67553
247, 1, bw, attraction, a-b-db, 9, 2, 6, 24, 86, 157, 165, 90, 90, 165, 1, 0.637735
247, 1, bw, attraction, a-b-db, 2, 1, 6, 25, 60, 135, 59, 134, 135, 60, 3, 1.63418
247, 1, bw, attraction, a-b-db, 2, 1, 6, 25, 60, 135, 59, 134, 135, 60, 2, 0.647744
247, 1, bw, attraction, a-b-da, 14, 1, 6, 26, 60, 135, 125, 56, 135, 60, 3, 3.98738
247, 1, bw, attraction, a-b-da, 14, 1, 6, 26, 60, 135, 125, 56, 135, 60, 1, 0.874184
247, 1, bw, catch, NA, 999, 999, 6, 27, 146, 169, 72, 123, 123, 132, 1, 1.02047
247, 1, bw, catch, NA, 999, 999, 6, 27, 146, 169, 72, 123, 123, 132, 2, 0.610881
247, 1, bw, attraction, a-b-db, 2, 3, 6, 28, 119, 193, 120, 195, 195, 120, 2, 1.42391
247, 1, bw, attraction, a-b-db, 2, 3, 6, 28, 119, 193, 120, 195, 195, 120, 1, 0.50936
247, 1, bw, filler, NA, 999, 999, 6, 29, 90, 145, 186, 173, 111, 83, 2, 0.96646
247, 1, bw, filler, NA, 999, 999, 6, 29, 90, 145, 186, 173, 111, 83, 3, 2.12692
247, 1, bw, filler, NA, 999, 999, 6, 30, 186, 152, 187, 160, 109, 189, 2, 1.64684
247, 1, bw, filler, NA, 999, 999, 6, 30, 186, 152, 187, 160, 109, 189, 1, 0.771555
247, 1, bw, attraction, a-b-db, 5, 1, 6, 31, 60, 135, 58, 132, 135, 60, 3, 1.24259
247, 1, bw, attraction, a-b-db, 5, 1, 6, 31, 60, 135, 58, 132, 135, 60, 2, 1.04758
247, 1, bw, attraction, a-b-db, 14, 1, 6, 32, 56, 125, 60, 135, 135, 60, 3, 1.50717
247, 1, bw, attraction, a-b-db, 14, 1, 6, 32, 56, 125, 60, 135, 135, 60, 1, 1.09327
247, 1, bw, attraction, a-b-db, 2, 2, 6, 33, 165, 90, 90, 165, 89, 163, 2, 2.75085
247, 1, bw, attraction, a-b-db, 2, 2, 6, 33, 165, 90, 90, 165, 89, 163, 3, 0.655339
247, 1, bw, filler, NA, 999, 999, 6, 34, 133, 172, 190, 93, 176, 181, 3, 25.323
247, 1, bw, filler, NA, 999, 999, 6, 34, 133, 172, 190, 93, 176, 181, 2, 0.917914
247, 1, bw, attraction, a-b-da, 5, 2, 6, 35, 90, 165, 161, 88, 165, 90, 2, 3.82278
247, 1, bw, attraction, a-b-da, 5, 2, 6, 35, 90, 165, 161, 88, 165, 90, 1, 0.75553
247, 1, bw, filler, NA, 999, 999, 6, 36, 59, 162, 144, 167, 171, 158, 3, 2.68328
247, 1, bw, filler, NA, 999, 999, 6, 36, 59, 162, 144, 167, 171, 158, 1, 1.2224
247, 1, bw, filler, NA, 999, 999, 6, 37, 107, 125, 63, 74, 137, 147, 3, 1.29924
247, 1, bw, filler, NA, 999, 999, 6, 37, 107, 125, 63, 74, 137, 147, 2, 0.454331
247, 1, bw, catch, NA, 999, 999, 7, 1, 98, 97, 164, 151, 161, 94, 2, 0.825924
247, 1, bw, catch, NA, 999, 999, 7, 1, 98, 97, 164, 151, 161, 94, 1, 0.615874
247, 1, bw, catch, NA, 999, 999, 7, 2, 130, 125, 63, 132, 173, 142, 3, 2.05279
247, 1, bw, catch, NA, 999, 999, 7, 2, 130, 125, 63, 132, 173, 142, 2, 0.777549
247, 1, bw, attraction, a-b-da, 5, 1, 7, 3, 135, 60, 60, 135, 132, 58, 2, 5.18387
247, 1, bw, attraction, a-b-da, 5, 1, 7, 3, 135, 60, 60, 135, 132, 58, 1, 0.726202
247, 1, bw, attraction, a-b-db, 5, 3, 7, 4, 120, 195, 195, 120, 117, 190, 2, 3.13452
247, 1, bw, attraction, a-b-db, 5, 3, 7, 4, 120, 195, 195, 120, 117, 190, 1, 1.85548
247, 1, bw, attraction, a-b-db, 9, 1, 7, 5, 135, 60, 57, 129, 60, 135, 1, 11.2749
247, 1, bw, attraction, a-b-db, 9, 1, 7, 5, 135, 60, 57, 129, 60, 135, 2, 0.443527
247, 1, bw, catch, NA, 999, 999, 7, 6, 178, 137, 68, 127, 93, 162, 1, 1.07916
247, 1, bw, catch, NA, 999, 999, 7, 6, 178, 137, 68, 127, 93, 162, 2, 0.546827
247, 1, bw, attraction, a-b-da, 14, 1, 7, 7, 60, 135, 125, 56, 135, 60, 2, 3.50662
247, 1, bw, attraction, a-b-da, 14, 1, 7, 7, 60, 135, 125, 56, 135, 60, 1, 1.35622
247, 1, bw, attraction, a-b-db, 14, 1, 7, 8, 60, 135, 56, 125, 135, 60, 3, 1.19561
247, 1, bw, attraction, a-b-db, 14, 1, 7, 8, 60, 135, 56, 125, 135, 60, 2, 0.882497
247, 1, bw, filler, NA, 999, 999, 7, 9, 165, 149, 106, 173, 124, 100, 1, 1.01285
247, 1, bw, filler, NA, 999, 999, 7, 9, 165, 149, 106, 173, 124, 100, 3, 0.699221
247, 1, bw, filler, NA, 999, 999, 7, 10, 66, 119, 128, 114, 192, 123, 3, 1.47693
247, 1, bw, filler, NA, 999, 999, 7, 10, 66, 119, 128, 114, 192, 123, 1, 0.472405
247, 1, bw, filler, NA, 999, 999, 7, 11, 177, 154, 83, 78, 157, 131, 1, 0.859748
247, 1, bw, filler, NA, 999, 999, 7, 11, 177, 154, 83, 78, 157, 131, 2, 0.423962
247, 1, bw, attraction, a-b-db, 2, 2, 7, 12, 89, 163, 90, 165, 165, 90, 3, 4.02041
247, 1, bw, attraction, a-b-db, 2, 2, 7, 12, 89, 163, 90, 165, 165, 90, 1, 0.56181
247, 1, bw, attraction, a-b-da, 2, 3, 7, 13, 195, 120, 193, 119, 120, 195, 2, 1.20088
247, 1, bw, attraction, a-b-da, 2, 3, 7, 13, 195, 120, 193, 119, 120, 195, 3, 0.535877
247, 1, bw, attraction, a-b-da, 9, 3, 7, 14, 120, 195, 195, 120, 186, 114, 2, 1.35236
247, 1, bw, attraction, a-b-da, 9, 3, 7, 14, 120, 195, 195, 120, 186, 114, 1, 0.353126
247, 1, bw, filler, NA, 999, 999, 7, 15, 65, 124, 159, 110, 98, 100, 2, 0.961023
247, 1, bw, filler, NA, 999, 999, 7, 15, 65, 124, 159, 110, 98, 100, 1, 0.929288
247, 1, bw, attraction, a-b-da, 9, 2, 7, 16, 90, 165, 165, 90, 157, 86, 2, 3.36168
247, 1, bw, attraction, a-b-da, 9, 2, 7, 16, 90, 165, 165, 90, 157, 86, 1, 0.529277
247, 1, bw, attraction, a-b-db, 9, 3, 7, 17, 195, 120, 120, 195, 114, 186, 2, 1.54562
247, 1, bw, attraction, a-b-db, 9, 3, 7, 17, 195, 120, 120, 195, 114, 186, 3, 0.786461
247, 1, bw, attraction, a-b-db, 14, 2, 7, 18, 90, 165, 165, 90, 83, 153, 1, 2.22486
247, 1, bw, attraction, a-b-db, 14, 2, 7, 18, 90, 165, 165, 90, 83, 153, 3, 0.902164
247, 1, bw, attraction, a-b-da, 5, 2, 7, 19, 90, 165, 161, 88, 165, 90, 3, 2.57575
247, 1, bw, attraction, a-b-da, 5, 2, 7, 19, 90, 165, 161, 88, 165, 90, 2, 1.02293
247, 1, bw, attraction, a-b-da, 2, 1, 7, 20, 135, 60, 60, 135, 134, 59, 2, 7.37201
247, 1, bw, attraction, a-b-da, 2, 1, 7, 20, 135, 60, 60, 135, 134, 59, 3, 1.05826
247, 1, bw, filler, NA, 999, 999, 7, 21, 153, 77, 189, 179, 64, 92, 2, 1.8932
247, 1, bw, filler, NA, 999, 999, 7, 21, 153, 77, 189, 179, 64, 92, 3, 1.02389
247, 1, bw, attraction, a-b-db, 5, 2, 7, 22, 90, 165, 165, 90, 88, 161, 1, 1.90816
247, 1, bw, attraction, a-b-db, 5, 2, 7, 22, 90, 165, 165, 90, 88, 161, 2, 0.870266
247, 1, bw, attraction, a-b-db, 9, 2, 7, 23, 90, 165, 165, 90, 86, 157, 2, 3.48133
247, 1, bw, attraction, a-b-db, 9, 2, 7, 23, 90, 165, 165, 90, 86, 157, 3, 0.684148
247, 1, bw, attraction, a-b-db, 2, 3, 7, 24, 195, 120, 120, 195, 119, 193, 1, 5.67867
247, 1, bw, attraction, a-b-db, 2, 3, 7, 24, 195, 120, 120, 195, 119, 193, 3, 0.98467
247, 1, bw, filler, NA, 999, 999, 7, 25, 134, 79, 143, 92, 116, 161, 3, 6.25504
247, 1, bw, filler, NA, 999, 999, 7, 25, 134, 79, 143, 92, 116, 161, 1, 2.16235
247, 1, bw, attraction, a-b-da, 5, 3, 7, 26, 190, 117, 120, 195, 195, 120, 2, 21.3372
247, 1, bw, attraction, a-b-da, 5, 3, 7, 26, 190, 117, 120, 195, 195, 120, 1, 0.484474
247, 1, bw, attraction, a-b-da, 14, 2, 7, 27, 90, 165, 165, 90, 153, 83, 2, 3.27869
247, 1, bw, attraction, a-b-da, 14, 2, 7, 27, 90, 165, 165, 90, 153, 83, 3, 1.21783
247, 1, bw, attraction, a-b-db, 14, 3, 7, 28, 120, 195, 195, 120, 111, 181, 2, 16.2465
247, 1, bw, attraction, a-b-db, 14, 3, 7, 28, 120, 195, 195, 120, 111, 181, 3, 0.830949
247, 1, bw, filler, NA, 999, 999, 7, 29, 185, 194, 177, 116, 108, 166, 1, 0.883072
247, 1, bw, filler, NA, 999, 999, 7, 29, 185, 194, 177, 116, 108, 166, 3, 0.823025
247, 1, bw, attraction, a-b-da, 2, 2, 7, 30, 163, 89, 165, 90, 90, 165, 2, 2.3478
247, 1, bw, attraction, a-b-da, 2, 2, 7, 30, 163, 89, 165, 90, 90, 165, 1, 0.556528
247, 1, bw, attraction, a-b-db, 2, 1, 7, 31, 135, 60, 59, 134, 60, 135, 1, 1.81223
247, 1, bw, attraction, a-b-db, 2, 1, 7, 31, 135, 60, 59, 134, 60, 135, 2, 0.594384
247, 1, bw, filler, NA, 999, 999, 7, 32, 59, 191, 157, 179, 66, 145, 2, 0.776098
247, 1, bw, filler, NA, 999, 999, 7, 32, 59, 191, 157, 179, 66, 145, 3, 0.719807
247, 1, bw, filler, NA, 999, 999, 7, 33, 100, 67, 123, 184, 110, 104, 2, 5.27282
247, 1, bw, filler, NA, 999, 999, 7, 33, 100, 67, 123, 184, 110, 104, 1, 0.843198
247, 1, bw, filler, NA, 999, 999, 7, 34, 144, 194, 131, 98, 91, 144, 1, 1.92689
247, 1, bw, filler, NA, 999, 999, 7, 34, 144, 194, 131, 98, 91, 144, 3, 0.624227
247, 1, bw, attraction, a-b-da, 9, 1, 7, 35, 135, 60, 60, 135, 129, 57, 1, 1.40466
247, 1, bw, attraction, a-b-da, 9, 1, 7, 35, 135, 60, 60, 135, 129, 57, 2, 0.515434
247, 1, bw, attraction, a-b-db, 5, 1, 7, 36, 60, 135, 58, 132, 135, 60, 3, 1.86068
247, 1, bw, attraction, a-b-db, 5, 1, 7, 36, 60, 135, 58, 132, 135, 60, 2, 0.64861
247, 1, bw, attraction, a-b-da, 14, 3, 7, 37, 195, 120, 181, 111, 120, 195, 1, 3.12445
247, 1, bw, attraction, a-b-da, 14, 3, 7, 37, 195, 120, 181, 111, 120, 195, 2, 0.8694
247, 1, bw, attraction, a-b-db, 14, 1, 8, 1, 60, 135, 135, 60, 56, 125, 1, 1.49639
247, 1, bw, attraction, a-b-db, 14, 1, 8, 1, 60, 135, 135, 60, 56, 125, 3, 0.531214
247, 1, bw, attraction, a-b-da, 5, 3, 8, 2, 190, 117, 195, 120, 120, 195, 3, 5.04372
247, 1, bw, attraction, a-b-da, 5, 3, 8, 2, 190, 117, 195, 120, 120, 195, 1, 0.623493
247, 1, bw, attraction, a-b-da, 9, 3, 8, 3, 186, 114, 195, 120, 120, 195, 2, 6.29988
247, 1, bw, attraction, a-b-da, 9, 3, 8, 3, 186, 114, 195, 120, 120, 195, 3, 0.677205
247, 1, bw, catch, NA, 999, 999, 8, 4, 63, 132, 180, 135, 117, 138, 2, 2.65563
247, 1, bw, catch, NA, 999, 999, 8, 4, 63, 132, 180, 135, 117, 138, 1, 0.587359
247, 1, bw, attraction, a-b-db, 9, 3, 8, 5, 120, 195, 114, 186, 195, 120, 3, 2.81789
247, 1, bw, attraction, a-b-db, 9, 3, 8, 5, 120, 195, 114, 186, 195, 120, 2, 0.50348
247, 1, bw, attraction, a-b-db, 5, 1, 8, 6, 135, 60, 58, 132, 60, 135, 1, 0.9134
247, 1, bw, attraction, a-b-db, 5, 1, 8, 6, 135, 60, 58, 132, 60, 135, 2, 0.643789
247, 1, bw, filler, NA, 999, 999, 8, 7, 91, 118, 128, 193, 111, 186, 2, 1.17547
247, 1, bw, filler, NA, 999, 999, 8, 7, 91, 118, 128, 193, 111, 186, 1, 0.518948
247, 1, bw, attraction, a-b-da, 5, 2, 8, 8, 165, 90, 90, 165, 161, 88, 1, 1.35212
247, 1, bw, attraction, a-b-da, 5, 2, 8, 8, 165, 90, 90, 165, 161, 88, 2, 0.393023
247, 1, bw, filler, NA, 999, 999, 8, 9, 175, 140, 191, 153, 132, 182, 2, 2.09502
247, 1, bw, filler, NA, 999, 999, 8, 9, 175, 140, 191, 153, 132, 182, 1, 0.521614
247, 1, bw, catch, NA, 999, 999, 8, 10, 158, 97, 64, 131, 147, 168, 3, 0.90665
247, 1, bw, catch, NA, 999, 999, 8, 10, 158, 97, 64, 131, 147, 168, 2, 1.08831
247, 1, bw, attraction, a-b-da, 2, 1, 8, 11, 134, 59, 135, 60, 60, 135, 2, 1.36735
247, 1, bw, attraction, a-b-da, 2, 1, 8, 11, 134, 59, 135, 60, 60, 135, 3, 1.3435
247, 1, bw, attraction, a-b-db, 2, 3, 8, 12, 120, 195, 195, 120, 119, 193, 2, 1.98302
247, 1, bw, attraction, a-b-db, 2, 3, 8, 12, 120, 195, 195, 120, 119, 193, 3, 0.7104
247, 1, bw, attraction, a-b-da, 5, 1, 8, 13, 60, 135, 135, 60, 132, 58, 2, 2.04751
247, 1, bw, attraction, a-b-da, 5, 1, 8, 13, 60, 135, 135, 60, 132, 58, 1, 0.876076
247, 1, bw, attraction, a-b-da, 9, 2, 8, 14, 165, 90, 90, 165, 157, 86, 1, 1.95836
247, 1, bw, attraction, a-b-da, 9, 2, 8, 14, 165, 90, 90, 165, 157, 86, 3, 0.678505
247, 1, bw, attraction, a-b-db, 14, 2, 8, 15, 165, 90, 90, 165, 83, 153, 1, 11.4329
247, 1, bw, attraction, a-b-db, 14, 2, 8, 15, 165, 90, 90, 165, 83, 153, 3, 0.531387
247, 1, bw, attraction, a-b-da, 14, 2, 8, 16, 90, 165, 153, 83, 165, 90, 3, 1.86768
247, 1, bw, attraction, a-b-da, 14, 2, 8, 16, 90, 165, 153, 83, 165, 90, 2, 0.511701
247, 1, bw, filler, NA, 999, 999, 8, 17, 125, 64, 79, 146, 120, 174, 3, 1.32075
247, 1, bw, filler, NA, 999, 999, 8, 17, 125, 64, 79, 146, 120, 174, 1, 0.675065
247, 1, bw, catch, NA, 999, 999, 8, 18, 122, 193, 81, 114, 108, 147, 1, 1.41347
247, 1, bw, catch, NA, 999, 999, 8, 18, 122, 193, 81, 114, 108, 147, 2, 0.555689
247, 1, bw, filler, NA, 999, 999, 8, 19, 65, 127, 102, 99, 80, 193, 3, 1.38744
247, 1, bw, filler, NA, 999, 999, 8, 19, 65, 127, 102, 99, 80, 193, 1, 0.538986
247, 1, bw, filler, NA, 999, 999, 8, 20, 173, 131, 76, 159, 79, 84, 1, 0.915312
247, 1, bw, filler, NA, 999, 999, 8, 20, 173, 131, 76, 159, 79, 84, 3, 0.557802
247, 1, bw, filler, NA, 999, 999, 8, 21, 161, 70, 74, 93, 61, 82, 1, 1.03696
247, 1, bw, filler, NA, 999, 999, 8, 21, 161, 70, 74, 93, 61, 82, 3, 0.522634
247, 1, bw, attraction, a-b-db, 5, 3, 8, 22, 195, 120, 120, 195, 117, 190, 1, 4.22772
247, 1, bw, attraction, a-b-db, 5, 3, 8, 22, 195, 120, 120, 195, 117, 190, 3, 0.528305
247, 1, bw, attraction, a-b-da, 9, 1, 8, 23, 135, 60, 129, 57, 60, 135, 1, 1.2087
247, 1, bw, attraction, a-b-da, 9, 1, 8, 23, 135, 60, 129, 57, 60, 135, 3, 0.831117
247, 1, bw, attraction, a-b-db, 5, 2, 8, 24, 88, 161, 165, 90, 90, 165, 2, 2.07541
247, 1, bw, attraction, a-b-db, 5, 2, 8, 24, 88, 161, 165, 90, 90, 165, 1, 0.686656
247, 1, bw, attraction, a-b-da, 14, 1, 8, 25, 60, 135, 125, 56, 135, 60, 3, 1.80908
247, 1, bw, attraction, a-b-da, 14, 1, 8, 25, 60, 135, 125, 56, 135, 60, 2, 1.35119
247, 1, bw, attraction, a-b-db, 9, 2, 8, 26, 86, 157, 165, 90, 90, 165, 2, 0.982673
247, 1, bw, attraction, a-b-db, 9, 2, 8, 26, 86, 157, 165, 90, 90, 165, 1, 0.438372
247, 1, bw, filler, NA, 999, 999, 8, 27, 57, 135, 170, 59, 98, 69, 2, 0.858774
247, 1, bw, filler, NA, 999, 999, 8, 27, 57, 135, 170, 59, 98, 69, 3, 1.91121
247, 1, bw, filler, NA, 999, 999, 8, 28, 112, 123, 98, 101, 154, 116, 3, 1.17584
247, 1, bw, filler, NA, 999, 999, 8, 28, 112, 123, 98, 101, 154, 116, 2, 0.543437
247, 1, bw, attraction, a-b-da, 2, 2, 8, 29, 163, 89, 90, 165, 165, 90, 3, 1.8233
247, 1, bw, attraction, a-b-da, 2, 2, 8, 29, 163, 89, 90, 165, 165, 90, 2, 0.54072
247, 1, bw, attraction, a-b-db, 2, 1, 8, 30, 60, 135, 135, 60, 59, 134, 2, 1.60447
247, 1, bw, attraction, a-b-db, 2, 1, 8, 30, 60, 135, 135, 60, 59, 134, 1, 0.530754
247, 1, bw, attraction, a-b-db, 14, 3, 8, 31, 195, 120, 111, 181, 120, 195, 1, 1.13086
247, 1, bw, attraction, a-b-db, 14, 3, 8, 31, 195, 120, 111, 181, 120, 195, 2, 0.444648
247, 1, bw, attraction, a-b-db, 2, 2, 8, 32, 89, 163, 90, 165, 165, 90, 3, 2.03237
247, 1, bw, attraction, a-b-db, 2, 2, 8, 32, 89, 163, 90, 165, 165, 90, 2, 0.821805
247, 1, bw, filler, NA, 999, 999, 8, 33, 106, 147, 178, 126, 193, 68, 2, 1.2828
247, 1, bw, filler, NA, 999, 999, 8, 33, 106, 147, 178, 126, 193, 68, 1, 0.726297
247, 1, bw, attraction, a-b-db, 9, 1, 8, 34, 60, 135, 135, 60, 57, 129, 2, 1.75878
247, 1, bw, attraction, a-b-db, 9, 1, 8, 34, 60, 135, 135, 60, 57, 129, 3, 0.830773
247, 1, bw, attraction, a-b-da, 2, 3, 8, 35, 195, 120, 120, 195, 193, 119, 3, 3.48317
247, 1, bw, attraction, a-b-da, 2, 3, 8, 35, 195, 120, 120, 195, 193, 119, 2, 0.597995
247, 1, bw, attraction, a-b-da, 14, 3, 8, 36, 181, 111, 195, 120, 120, 195, 2, 0.923742
247, 1, bw, attraction, a-b-da, 14, 3, 8, 36, 181, 111, 195, 120, 120, 195, 1, 0.845529
247, 1, bw, filler, NA, 999, 999, 8, 37, 135, 91, 121, 167, 68, 170, 2, 1.20118
247, 1, bw, filler, NA, 999, 999, 8, 37, 135, 91, 121, 167, 68, 170, 1, 0.784124
