sub_n, computer_n, bw_cond, effect, set, distance, diag, block_n, trial_n, h1, w1, h2, w2, h3, w3, choice, rt 
238, 1, wb, practice, NA, 999, 999, 0, 1, 69, 132, 151, 171, 72, 96, 3, 4.72804
238, 1, wb, practice, NA, 999, 999, 0, 1, 69, 132, 151, 171, 72, 96, 2, 1.97537
238, 1, wb, practice, NA, 999, 999, 0, 2, 92, 110, 65, 73, 177, 113, 2, 2.09042
238, 1, wb, practice, NA, 999, 999, 0, 2, 92, 110, 65, 73, 177, 113, 3, 1.14192
238, 1, wb, practice, NA, 999, 999, 0, 3, 134, 86, 68, 161, 105, 165, 1, 7.49244
238, 1, wb, practice, NA, 999, 999, 0, 3, 134, 86, 68, 161, 105, 165, 3, 1.549
238, 1, wb, attraction, a-b-da, 9, 1, 1, 1, 60, 135, 129, 57, 135, 60, 2, 3.55884
238, 1, wb, attraction, a-b-da, 9, 1, 1, 1, 60, 135, 129, 57, 135, 60, 1, 2.36646
238, 1, wb, attraction, a-b-db, 5, 1, 1, 2, 135, 60, 58, 132, 60, 135, 1, 6.47704
238, 1, wb, attraction, a-b-db, 5, 1, 1, 2, 135, 60, 58, 132, 60, 135, 3, 0.934878
238, 1, wb, filler, NA, 999, 999, 1, 3, 156, 69, 167, 103, 80, 195, 1, 1.44723
238, 1, wb, filler, NA, 999, 999, 1, 3, 156, 69, 167, 103, 80, 195, 2, 0.67613
238, 1, wb, attraction, a-b-da, 5, 3, 1, 4, 120, 195, 195, 120, 190, 117, 2, 3.36635
238, 1, wb, attraction, a-b-da, 5, 3, 1, 4, 120, 195, 195, 120, 190, 117, 1, 1.03797
238, 1, wb, attraction, a-b-db, 9, 1, 1, 5, 57, 129, 60, 135, 135, 60, 3, 2.13845
238, 1, wb, attraction, a-b-db, 9, 1, 1, 5, 57, 129, 60, 135, 135, 60, 2, 1.37191
238, 1, wb, attraction, a-b-db, 9, 2, 1, 6, 86, 157, 90, 165, 165, 90, 1, 1.74648
238, 1, wb, attraction, a-b-db, 9, 2, 1, 6, 86, 157, 90, 165, 165, 90, 2, 1.39536
238, 1, wb, attraction, a-b-db, 14, 1, 1, 7, 135, 60, 60, 135, 56, 125, 1, 6.44073
238, 1, wb, attraction, a-b-db, 14, 1, 1, 7, 135, 60, 60, 135, 56, 125, 2, 0.451962
238, 1, wb, attraction, a-b-da, 9, 2, 1, 8, 157, 86, 165, 90, 90, 165, 1, 1.35183
238, 1, wb, attraction, a-b-da, 9, 2, 1, 8, 157, 86, 165, 90, 90, 165, 3, 0.600823
238, 1, wb, catch, NA, 999, 999, 1, 9, 125, 130, 66, 129, 139, 176, 2, 1.22252
238, 1, wb, catch, NA, 999, 999, 1, 9, 125, 130, 66, 129, 139, 176, 3, 0.620136
238, 1, wb, attraction, a-b-db, 14, 2, 1, 10, 90, 165, 83, 153, 165, 90, 2, 3.48914
238, 1, wb, attraction, a-b-db, 14, 2, 1, 10, 90, 165, 83, 153, 165, 90, 1, 1.44347
238, 1, wb, filler, NA, 999, 999, 1, 11, 155, 129, 79, 99, 145, 142, 2, 0.958854
238, 1, wb, filler, NA, 999, 999, 1, 11, 155, 129, 79, 99, 145, 142, 3, 4.11126
238, 1, wb, attraction, a-b-da, 2, 2, 1, 12, 163, 89, 165, 90, 90, 165, 1, 2.75119
238, 1, wb, attraction, a-b-da, 2, 2, 1, 12, 163, 89, 165, 90, 90, 165, 3, 0.687581
238, 1, wb, attraction, a-b-da, 5, 1, 1, 13, 132, 58, 60, 135, 135, 60, 1, 1.89811
238, 1, wb, attraction, a-b-da, 5, 1, 1, 13, 132, 58, 60, 135, 135, 60, 2, 0.572764
238, 1, wb, attraction, a-b-db, 2, 1, 1, 14, 59, 134, 60, 135, 135, 60, 1, 1.30791
238, 1, wb, attraction, a-b-db, 2, 1, 1, 14, 59, 134, 60, 135, 135, 60, 3, 0.669989
238, 1, wb, filler, NA, 999, 999, 1, 15, 78, 64, 62, 146, 100, 139, 1, 0.82513
238, 1, wb, filler, NA, 999, 999, 1, 15, 78, 64, 62, 146, 100, 139, 3, 0.566932
238, 1, wb, attraction, a-b-db, 2, 3, 1, 16, 195, 120, 120, 195, 119, 193, 1, 3.66212
238, 1, wb, attraction, a-b-db, 2, 3, 1, 16, 195, 120, 120, 195, 119, 193, 2, 0.497622
238, 1, wb, attraction, a-b-db, 9, 3, 1, 17, 120, 195, 195, 120, 114, 186, 2, 2.91524
238, 1, wb, attraction, a-b-db, 9, 3, 1, 17, 120, 195, 195, 120, 114, 186, 1, 1.06898
238, 1, wb, attraction, a-b-db, 5, 3, 1, 18, 195, 120, 120, 195, 117, 190, 1, 3.65594
238, 1, wb, attraction, a-b-db, 5, 3, 1, 18, 195, 120, 120, 195, 117, 190, 2, 0.339635
238, 1, wb, attraction, a-b-da, 14, 2, 1, 19, 165, 90, 90, 165, 153, 83, 3, 1.89984
238, 1, wb, attraction, a-b-da, 14, 2, 1, 19, 165, 90, 90, 165, 153, 83, 2, 0.478553
238, 1, wb, attraction, a-b-da, 2, 3, 1, 20, 193, 119, 195, 120, 120, 195, 1, 1.92919
238, 1, wb, attraction, a-b-da, 2, 3, 1, 20, 193, 119, 195, 120, 120, 195, 3, 0.306582
238, 1, wb, filler, NA, 999, 999, 1, 21, 178, 129, 102, 118, 130, 172, 2, 0.795663
238, 1, wb, filler, NA, 999, 999, 1, 21, 178, 129, 102, 118, 130, 172, 1, 1.41874
238, 1, wb, filler, NA, 999, 999, 1, 22, 190, 65, 129, 195, 185, 72, 1, 1.53555
238, 1, wb, filler, NA, 999, 999, 1, 22, 190, 65, 129, 195, 185, 72, 2, 0.441079
238, 1, wb, attraction, a-b-db, 5, 2, 1, 23, 165, 90, 88, 161, 90, 165, 1, 4.88497
238, 1, wb, attraction, a-b-db, 5, 2, 1, 23, 165, 90, 88, 161, 90, 165, 3, 1.17523
238, 1, wb, attraction, a-b-da, 14, 1, 1, 24, 60, 135, 135, 60, 125, 56, 2, 7.50152
238, 1, wb, attraction, a-b-da, 14, 1, 1, 24, 60, 135, 135, 60, 125, 56, 1, 0.902582
238, 1, wb, attraction, a-b-db, 2, 2, 1, 25, 165, 90, 89, 163, 90, 165, 1, 1.07215
238, 1, wb, attraction, a-b-db, 2, 2, 1, 25, 165, 90, 89, 163, 90, 165, 3, 0.715893
238, 1, wb, attraction, a-b-da, 9, 3, 1, 26, 120, 195, 186, 114, 195, 120, 2, 1.06877
238, 1, wb, attraction, a-b-da, 9, 3, 1, 26, 120, 195, 186, 114, 195, 120, 1, 0.481189
238, 1, wb, filler, NA, 999, 999, 1, 27, 190, 194, 88, 115, 69, 86, 3, 1.13967
238, 1, wb, filler, NA, 999, 999, 1, 27, 190, 194, 88, 115, 69, 86, 1, 0.884533
238, 1, wb, filler, NA, 999, 999, 1, 28, 147, 106, 99, 171, 147, 127, 1, 1.47091
238, 1, wb, filler, NA, 999, 999, 1, 28, 147, 106, 99, 171, 147, 127, 3, 0.76305
238, 1, wb, catch, NA, 999, 999, 1, 29, 83, 112, 144, 171, 154, 101, 1, 1.09807
238, 1, wb, catch, NA, 999, 999, 1, 29, 83, 112, 144, 171, 154, 101, 2, 0.325075
238, 1, wb, attraction, a-b-da, 2, 1, 1, 30, 134, 59, 60, 135, 135, 60, 1, 1.6057
238, 1, wb, attraction, a-b-da, 2, 1, 1, 30, 134, 59, 60, 135, 135, 60, 2, 0.403609
238, 1, wb, attraction, a-b-da, 5, 2, 1, 31, 161, 88, 165, 90, 90, 165, 1, 1.65746
238, 1, wb, attraction, a-b-da, 5, 2, 1, 31, 161, 88, 165, 90, 90, 165, 3, 0.36574
238, 1, wb, filler, NA, 999, 999, 1, 32, 138, 150, 92, 140, 121, 140, 2, 1.84478
238, 1, wb, filler, NA, 999, 999, 1, 32, 138, 150, 92, 140, 121, 140, 1, 0.369533
238, 1, wb, attraction, a-b-db, 14, 3, 1, 33, 120, 195, 195, 120, 111, 181, 3, 1.87271
238, 1, wb, attraction, a-b-db, 14, 3, 1, 33, 120, 195, 195, 120, 111, 181, 1, 0.396207
238, 1, wb, filler, NA, 999, 999, 1, 34, 132, 103, 192, 141, 106, 106, 3, 1.10587
238, 1, wb, filler, NA, 999, 999, 1, 34, 132, 103, 192, 141, 106, 106, 2, 0.30829
238, 1, wb, filler, NA, 999, 999, 1, 35, 66, 77, 97, 117, 62, 148, 1, 1.61326
238, 1, wb, filler, NA, 999, 999, 1, 35, 66, 77, 97, 117, 62, 148, 2, 0.483495
238, 1, wb, catch, NA, 999, 999, 1, 36, 124, 71, 159, 96, 128, 187, 1, 0.90193
238, 1, wb, catch, NA, 999, 999, 1, 36, 124, 71, 159, 96, 128, 187, 3, 0.248928
238, 1, wb, attraction, a-b-da, 14, 3, 1, 37, 120, 195, 195, 120, 181, 111, 3, 1.31678
238, 1, wb, attraction, a-b-da, 14, 3, 1, 37, 120, 195, 195, 120, 181, 111, 2, 0.671028
238, 1, wb, attraction, a-b-db, 2, 1, 2, 1, 60, 135, 59, 134, 135, 60, 1, 1.31415
238, 1, wb, attraction, a-b-db, 2, 1, 2, 1, 60, 135, 59, 134, 135, 60, 2, 0.580264
238, 1, wb, attraction, a-b-db, 9, 2, 2, 2, 165, 90, 86, 157, 90, 165, 1, 1.57872
238, 1, wb, attraction, a-b-db, 9, 2, 2, 2, 165, 90, 86, 157, 90, 165, 2, 0.242187
238, 1, wb, catch, NA, 999, 999, 2, 3, 132, 183, 79, 116, 116, 139, 2, 1.08627
238, 1, wb, catch, NA, 999, 999, 2, 3, 132, 183, 79, 116, 116, 139, 1, 0.257726
238, 1, wb, catch, NA, 999, 999, 2, 4, 138, 177, 104, 91, 96, 159, 2, 0.828939
238, 1, wb, catch, NA, 999, 999, 2, 4, 138, 177, 104, 91, 96, 159, 1, 0.226754
238, 1, wb, attraction, a-b-da, 14, 2, 2, 5, 165, 90, 90, 165, 153, 83, 3, 0.831298
238, 1, wb, attraction, a-b-da, 14, 2, 2, 5, 165, 90, 90, 165, 153, 83, 2, 0.212935
238, 1, wb, filler, NA, 999, 999, 2, 6, 148, 72, 112, 73, 114, 77, 3, 1.09022
238, 1, wb, filler, NA, 999, 999, 2, 6, 148, 72, 112, 73, 114, 77, 1, 0.58915
238, 1, wb, attraction, a-b-db, 14, 1, 2, 7, 56, 125, 135, 60, 60, 135, 1, 0.843508
238, 1, wb, attraction, a-b-db, 14, 1, 2, 7, 56, 125, 135, 60, 60, 135, 3, 0.696525
238, 1, wb, filler, NA, 999, 999, 2, 8, 168, 102, 117, 120, 107, 111, 3, 1.25021
238, 1, wb, filler, NA, 999, 999, 2, 8, 168, 102, 117, 120, 107, 111, 2, 1.05518
238, 1, wb, attraction, a-b-da, 2, 1, 2, 9, 134, 59, 135, 60, 60, 135, 3, 1.94675
238, 1, wb, attraction, a-b-da, 2, 1, 2, 9, 134, 59, 135, 60, 60, 135, 2, 0.523463
238, 1, wb, attraction, a-b-da, 14, 1, 2, 10, 125, 56, 60, 135, 135, 60, 1, 0.939948
238, 1, wb, attraction, a-b-da, 14, 1, 2, 10, 125, 56, 60, 135, 135, 60, 2, 0.588872
238, 1, wb, filler, NA, 999, 999, 2, 11, 97, 177, 67, 117, 121, 104, 2, 0.923338
238, 1, wb, filler, NA, 999, 999, 2, 11, 97, 177, 67, 117, 121, 104, 1, 0.26899
238, 1, wb, attraction, a-b-da, 5, 2, 2, 12, 90, 165, 161, 88, 165, 90, 2, 2.44032
238, 1, wb, attraction, a-b-da, 5, 2, 2, 12, 90, 165, 161, 88, 165, 90, 1, 0.732916
238, 1, wb, attraction, a-b-da, 9, 2, 2, 13, 157, 86, 165, 90, 90, 165, 1, 2.42115
238, 1, wb, attraction, a-b-da, 9, 2, 2, 13, 157, 86, 165, 90, 90, 165, 3, 0.234578
238, 1, wb, filler, NA, 999, 999, 2, 14, 188, 143, 149, 109, 86, 156, 3, 1.03903
238, 1, wb, filler, NA, 999, 999, 2, 14, 188, 143, 149, 109, 86, 156, 1, 0.299882
238, 1, wb, attraction, a-b-db, 5, 2, 2, 15, 88, 161, 90, 165, 165, 90, 1, 1.13385
238, 1, wb, attraction, a-b-db, 5, 2, 2, 15, 88, 161, 90, 165, 165, 90, 2, 0.599421
238, 1, wb, filler, NA, 999, 999, 2, 16, 100, 109, 85, 169, 175, 96, 1, 4.34919
238, 1, wb, filler, NA, 999, 999, 2, 16, 100, 109, 85, 169, 175, 96, 3, 1.20512
238, 1, wb, attraction, a-b-db, 9, 3, 2, 17, 195, 120, 114, 186, 120, 195, 1, 1.33073
238, 1, wb, attraction, a-b-db, 9, 3, 2, 17, 195, 120, 114, 186, 120, 195, 3, 0.724264
238, 1, wb, attraction, a-b-da, 2, 3, 2, 18, 120, 195, 195, 120, 193, 119, 3, 1.22061
238, 1, wb, attraction, a-b-da, 2, 3, 2, 18, 120, 195, 195, 120, 193, 119, 1, 1.16281
238, 1, wb, filler, NA, 999, 999, 2, 19, 72, 182, 160, 168, 56, 137, 3, 1.24177
238, 1, wb, filler, NA, 999, 999, 2, 19, 72, 182, 160, 168, 56, 137, 2, 0.254722
238, 1, wb, filler, NA, 999, 999, 2, 20, 171, 98, 128, 144, 123, 142, 1, 2.17049
238, 1, wb, filler, NA, 999, 999, 2, 20, 171, 98, 128, 144, 123, 142, 2, 1.26656
238, 1, wb, attraction, a-b-db, 5, 1, 2, 21, 60, 135, 135, 60, 58, 132, 1, 1.09338
238, 1, wb, attraction, a-b-db, 5, 1, 2, 21, 60, 135, 135, 60, 58, 132, 3, 0.72826
238, 1, wb, attraction, a-b-da, 2, 2, 2, 22, 163, 89, 165, 90, 90, 165, 1, 1.65674
238, 1, wb, attraction, a-b-da, 2, 2, 2, 22, 163, 89, 165, 90, 90, 165, 3, 0.76493
238, 1, wb, attraction, a-b-db, 5, 3, 2, 23, 117, 190, 195, 120, 120, 195, 1, 3.05986
238, 1, wb, attraction, a-b-db, 5, 3, 2, 23, 117, 190, 195, 120, 120, 195, 3, 0.351761
238, 1, wb, attraction, a-b-db, 2, 3, 2, 24, 119, 193, 120, 195, 195, 120, 1, 3.10332
238, 1, wb, attraction, a-b-db, 2, 3, 2, 24, 119, 193, 120, 195, 195, 120, 2, 0.457797
238, 1, wb, attraction, a-b-da, 5, 1, 2, 25, 132, 58, 60, 135, 135, 60, 1, 0.97289
238, 1, wb, attraction, a-b-da, 5, 1, 2, 25, 132, 58, 60, 135, 135, 60, 3, 1.25258
238, 1, wb, attraction, a-b-db, 14, 2, 2, 26, 165, 90, 83, 153, 90, 165, 1, 3.56807
238, 1, wb, attraction, a-b-db, 14, 2, 2, 26, 165, 90, 83, 153, 90, 165, 3, 0.759646
238, 1, wb, attraction, a-b-da, 5, 3, 2, 27, 195, 120, 120, 195, 190, 117, 1, 2.55871
238, 1, wb, attraction, a-b-da, 5, 3, 2, 27, 195, 120, 120, 195, 190, 117, 2, 0.246596
238, 1, wb, catch, NA, 999, 999, 2, 28, 91, 164, 70, 125, 142, 173, 2, 1.25837
238, 1, wb, catch, NA, 999, 999, 2, 28, 91, 164, 70, 125, 142, 173, 3, 0.342626
238, 1, wb, attraction, a-b-da, 14, 3, 2, 29, 195, 120, 120, 195, 181, 111, 3, 1.16645
238, 1, wb, attraction, a-b-da, 14, 3, 2, 29, 195, 120, 120, 195, 181, 111, 2, 0.246701
238, 1, wb, attraction, a-b-db, 2, 2, 2, 30, 90, 165, 89, 163, 165, 90, 3, 0.874662
238, 1, wb, attraction, a-b-db, 2, 2, 2, 30, 90, 165, 89, 163, 165, 90, 2, 0.358268
238, 1, wb, filler, NA, 999, 999, 2, 31, 72, 138, 118, 183, 108, 157, 1, 0.789415
238, 1, wb, filler, NA, 999, 999, 2, 31, 72, 138, 118, 183, 108, 157, 3, 0.404541
238, 1, wb, filler, NA, 999, 999, 2, 32, 71, 159, 133, 97, 187, 93, 1, 1.42633
238, 1, wb, filler, NA, 999, 999, 2, 32, 71, 159, 133, 97, 187, 93, 3, 0.919915
238, 1, wb, filler, NA, 999, 999, 2, 33, 72, 152, 129, 162, 182, 145, 1, 0.880894
238, 1, wb, filler, NA, 999, 999, 2, 33, 72, 152, 129, 162, 182, 145, 3, 0.444504
238, 1, wb, attraction, a-b-db, 14, 3, 2, 34, 120, 195, 111, 181, 195, 120, 3, 1.41638
238, 1, wb, attraction, a-b-db, 14, 3, 2, 34, 120, 195, 111, 181, 195, 120, 1, 0.406553
238, 1, wb, attraction, a-b-da, 9, 3, 2, 35, 186, 114, 195, 120, 120, 195, 1, 1.53167
238, 1, wb, attraction, a-b-da, 9, 3, 2, 35, 186, 114, 195, 120, 120, 195, 2, 0.477342
238, 1, wb, attraction, a-b-da, 9, 1, 2, 36, 60, 135, 129, 57, 135, 60, 2, 1.41559
238, 1, wb, attraction, a-b-da, 9, 1, 2, 36, 60, 135, 129, 57, 135, 60, 3, 0.557839
238, 1, wb, attraction, a-b-db, 9, 1, 2, 37, 135, 60, 60, 135, 57, 129, 3, 1.22093
238, 1, wb, attraction, a-b-db, 9, 1, 2, 37, 135, 60, 60, 135, 57, 129, 1, 0.627234
238, 1, wb, attraction, a-b-db, 9, 1, 3, 1, 57, 129, 60, 135, 135, 60, 1, 1.63154
238, 1, wb, attraction, a-b-db, 9, 1, 3, 1, 57, 129, 60, 135, 135, 60, 3, 0.533097
238, 1, wb, attraction, a-b-db, 9, 2, 3, 2, 90, 165, 165, 90, 86, 157, 2, 1.18143
238, 1, wb, attraction, a-b-db, 9, 2, 3, 2, 90, 165, 165, 90, 86, 157, 3, 0.437012
238, 1, wb, catch, NA, 999, 999, 3, 3, 76, 119, 175, 140, 127, 128, 1, 0.585561
238, 1, wb, catch, NA, 999, 999, 3, 3, 76, 119, 175, 140, 127, 128, 2, 0.425369
238, 1, wb, attraction, a-b-da, 2, 3, 3, 4, 120, 195, 193, 119, 195, 120, 2, 2.02183
238, 1, wb, attraction, a-b-da, 2, 3, 3, 4, 120, 195, 193, 119, 195, 120, 1, 0.483197
238, 1, wb, filler, NA, 999, 999, 3, 5, 105, 66, 193, 116, 82, 76, 1, 1.70963
238, 1, wb, filler, NA, 999, 999, 3, 5, 105, 66, 193, 116, 82, 76, 2, 0.263714
238, 1, wb, catch, NA, 999, 999, 3, 6, 162, 153, 99, 156, 132, 63, 3, 0.778965
238, 1, wb, catch, NA, 999, 999, 3, 6, 162, 153, 99, 156, 132, 63, 1, 0.674637
238, 1, wb, attraction, a-b-db, 5, 3, 3, 7, 117, 190, 120, 195, 195, 120, 1, 3.50904
238, 1, wb, attraction, a-b-db, 5, 3, 3, 7, 117, 190, 120, 195, 195, 120, 3, 0.502679
238, 1, wb, filler, NA, 999, 999, 3, 8, 103, 82, 56, 126, 63, 152, 1, 1.51242
238, 1, wb, filler, NA, 999, 999, 3, 8, 103, 82, 56, 126, 63, 152, 2, 1.82676
238, 1, wb, attraction, a-b-da, 14, 3, 3, 9, 120, 195, 181, 111, 195, 120, 2, 0.718484
238, 1, wb, attraction, a-b-da, 14, 3, 3, 9, 120, 195, 181, 111, 195, 120, 3, 0.657098
238, 1, wb, attraction, a-b-da, 9, 2, 3, 10, 165, 90, 157, 86, 90, 165, 3, 0.844019
238, 1, wb, attraction, a-b-da, 9, 2, 3, 10, 165, 90, 157, 86, 90, 165, 2, 0.27311
238, 1, wb, filler, NA, 999, 999, 3, 11, 112, 68, 191, 114, 105, 127, 1, 0.596245
238, 1, wb, filler, NA, 999, 999, 3, 11, 112, 68, 191, 114, 105, 127, 2, 0.491509
238, 1, wb, attraction, a-b-db, 14, 3, 3, 12, 195, 120, 111, 181, 120, 195, 2, 4.53331
238, 1, wb, attraction, a-b-db, 14, 3, 3, 12, 195, 120, 111, 181, 120, 195, 3, 0.66179
238, 1, wb, attraction, a-b-da, 9, 1, 3, 13, 129, 57, 135, 60, 60, 135, 3, 1.10488
238, 1, wb, attraction, a-b-da, 9, 1, 3, 13, 129, 57, 135, 60, 60, 135, 1, 0.443173
238, 1, wb, attraction, a-b-db, 14, 2, 3, 14, 83, 153, 90, 165, 165, 90, 1, 1.34292
238, 1, wb, attraction, a-b-db, 14, 2, 3, 14, 83, 153, 90, 165, 165, 90, 3, 0.431877
238, 1, wb, attraction, a-b-da, 5, 2, 3, 15, 161, 88, 165, 90, 90, 165, 1, 0.940377
238, 1, wb, attraction, a-b-da, 5, 2, 3, 15, 161, 88, 165, 90, 90, 165, 3, 0.453285
238, 1, wb, filler, NA, 999, 999, 3, 16, 70, 81, 194, 182, 95, 72, 1, 1.2811
238, 1, wb, filler, NA, 999, 999, 3, 16, 70, 81, 194, 182, 95, 72, 2, 0.380774
238, 1, wb, attraction, a-b-db, 5, 2, 3, 17, 90, 165, 88, 161, 165, 90, 1, 1.8432
238, 1, wb, attraction, a-b-db, 5, 2, 3, 17, 90, 165, 88, 161, 165, 90, 2, 0.359958
238, 1, wb, attraction, a-b-da, 14, 1, 3, 18, 135, 60, 60, 135, 125, 56, 3, 0.847047
238, 1, wb, attraction, a-b-da, 14, 1, 3, 18, 135, 60, 60, 135, 125, 56, 1, 0.564087
238, 1, wb, attraction, a-b-db, 5, 1, 3, 19, 60, 135, 135, 60, 58, 132, 2, 2.33926
238, 1, wb, attraction, a-b-db, 5, 1, 3, 19, 60, 135, 135, 60, 58, 132, 3, 0.523862
238, 1, wb, catch, NA, 999, 999, 3, 20, 161, 94, 120, 75, 165, 150, 2, 0.884227
238, 1, wb, catch, NA, 999, 999, 3, 20, 161, 94, 120, 75, 165, 150, 3, 0.32804
238, 1, wb, attraction, a-b-db, 9, 3, 3, 21, 114, 186, 195, 120, 120, 195, 1, 1.43237
238, 1, wb, attraction, a-b-db, 9, 3, 3, 21, 114, 186, 195, 120, 120, 195, 3, 0.525983
238, 1, wb, filler, NA, 999, 999, 3, 22, 184, 187, 148, 72, 106, 65, 3, 0.654365
238, 1, wb, filler, NA, 999, 999, 3, 22, 184, 187, 148, 72, 106, 65, 1, 0.323546
238, 1, wb, attraction, a-b-da, 5, 1, 3, 23, 60, 135, 132, 58, 135, 60, 1, 1.18803
238, 1, wb, attraction, a-b-da, 5, 1, 3, 23, 60, 135, 132, 58, 135, 60, 3, 0.515638
238, 1, wb, filler, NA, 999, 999, 3, 24, 67, 95, 81, 186, 155, 86, 1, 1.14072
238, 1, wb, filler, NA, 999, 999, 3, 24, 67, 95, 81, 186, 155, 86, 2, 0.485633
238, 1, wb, attraction, a-b-db, 2, 3, 3, 25, 119, 193, 195, 120, 120, 195, 2, 2.76024
238, 1, wb, attraction, a-b-db, 2, 3, 3, 25, 119, 193, 195, 120, 120, 195, 3, 0.823849
238, 1, wb, attraction, a-b-da, 2, 2, 3, 26, 90, 165, 163, 89, 165, 90, 2, 3.14832
238, 1, wb, attraction, a-b-da, 2, 2, 3, 26, 90, 165, 163, 89, 165, 90, 1, 1.27651
238, 1, wb, attraction, a-b-db, 14, 1, 3, 27, 135, 60, 60, 135, 56, 125, 3, 1.16683
238, 1, wb, attraction, a-b-db, 14, 1, 3, 27, 135, 60, 60, 135, 56, 125, 2, 0.519056
238, 1, wb, attraction, a-b-db, 2, 1, 3, 28, 60, 135, 135, 60, 59, 134, 1, 1.66419
238, 1, wb, attraction, a-b-db, 2, 1, 3, 28, 60, 135, 135, 60, 59, 134, 3, 0.460384
238, 1, wb, filler, NA, 999, 999, 3, 29, 60, 122, 68, 91, 100, 152, 2, 1.1114
238, 1, wb, filler, NA, 999, 999, 3, 29, 60, 122, 68, 91, 100, 152, 3, 0.577713
238, 1, wb, filler, NA, 999, 999, 3, 30, 81, 181, 73, 178, 182, 172, 1, 0.9601
238, 1, wb, filler, NA, 999, 999, 3, 30, 81, 181, 73, 178, 182, 172, 3, 0.216487
238, 1, wb, attraction, a-b-da, 2, 1, 3, 31, 135, 60, 134, 59, 60, 135, 3, 0.813673
238, 1, wb, attraction, a-b-da, 2, 1, 3, 31, 135, 60, 134, 59, 60, 135, 2, 0.297272
238, 1, wb, filler, NA, 999, 999, 3, 32, 69, 192, 87, 82, 101, 144, 2, 0.974016
238, 1, wb, filler, NA, 999, 999, 3, 32, 69, 192, 87, 82, 101, 144, 1, 0.757654
238, 1, wb, attraction, a-b-db, 2, 2, 3, 33, 89, 163, 90, 165, 165, 90, 3, 0.876587
238, 1, wb, attraction, a-b-db, 2, 2, 3, 33, 89, 163, 90, 165, 165, 90, 1, 0.592326
238, 1, wb, filler, NA, 999, 999, 3, 34, 112, 138, 83, 145, 153, 158, 2, 0.710069
238, 1, wb, filler, NA, 999, 999, 3, 34, 112, 138, 83, 145, 153, 158, 3, 0.360608
238, 1, wb, attraction, a-b-da, 14, 2, 3, 35, 153, 83, 90, 165, 165, 90, 2, 1.15181
238, 1, wb, attraction, a-b-da, 14, 2, 3, 35, 153, 83, 90, 165, 165, 90, 3, 0.427576
238, 1, wb, attraction, a-b-da, 9, 3, 3, 36, 195, 120, 120, 195, 186, 114, 1, 0.805034
238, 1, wb, attraction, a-b-da, 9, 3, 3, 36, 195, 120, 120, 195, 186, 114, 3, 0.44346
238, 1, wb, attraction, a-b-da, 5, 3, 3, 37, 190, 117, 195, 120, 120, 195, 2, 1.43942
238, 1, wb, attraction, a-b-da, 5, 3, 3, 37, 190, 117, 195, 120, 120, 195, 1, 0.276194
238, 1, wb, attraction, a-b-db, 5, 2, 4, 1, 165, 90, 90, 165, 88, 161, 2, 0.630711
238, 1, wb, attraction, a-b-db, 5, 2, 4, 1, 165, 90, 90, 165, 88, 161, 3, 1.28445
238, 1, wb, attraction, a-b-da, 9, 2, 4, 2, 157, 86, 90, 165, 165, 90, 1, 0.718553
238, 1, wb, attraction, a-b-da, 9, 2, 4, 2, 157, 86, 90, 165, 165, 90, 2, 0.800944
238, 1, wb, attraction, a-b-db, 2, 2, 4, 3, 89, 163, 90, 165, 165, 90, 3, 1.17469
238, 1, wb, attraction, a-b-db, 2, 2, 4, 3, 89, 163, 90, 165, 165, 90, 2, 0.246236
238, 1, wb, attraction, a-b-db, 5, 3, 4, 4, 195, 120, 120, 195, 117, 190, 1, 0.842304
238, 1, wb, attraction, a-b-db, 5, 3, 4, 4, 195, 120, 120, 195, 117, 190, 2, 0.831278
238, 1, wb, attraction, a-b-da, 2, 3, 4, 5, 195, 120, 120, 195, 193, 119, 1, 2.97955
238, 1, wb, attraction, a-b-da, 2, 3, 4, 5, 195, 120, 120, 195, 193, 119, 2, 1.98674
238, 1, wb, attraction, a-b-da, 5, 1, 4, 6, 132, 58, 60, 135, 135, 60, 1, 2.22467
238, 1, wb, attraction, a-b-da, 5, 1, 4, 6, 132, 58, 60, 135, 135, 60, 2, 1.062
238, 1, wb, attraction, a-b-db, 2, 1, 4, 7, 135, 60, 60, 135, 59, 134, 3, 0.896839
238, 1, wb, attraction, a-b-db, 2, 1, 4, 7, 135, 60, 60, 135, 59, 134, 1, 2.75584
238, 1, wb, attraction, a-b-db, 14, 1, 4, 8, 135, 60, 56, 125, 60, 135, 2, 0.938968
238, 1, wb, attraction, a-b-db, 14, 1, 4, 8, 135, 60, 56, 125, 60, 135, 3, 0.596011
238, 1, wb, attraction, a-b-db, 9, 3, 4, 9, 195, 120, 114, 186, 120, 195, 2, 1.66568
238, 1, wb, attraction, a-b-db, 9, 3, 4, 9, 195, 120, 114, 186, 120, 195, 3, 0.749914
238, 1, wb, attraction, a-b-db, 2, 3, 4, 10, 120, 195, 195, 120, 119, 193, 1, 1.52565
238, 1, wb, attraction, a-b-db, 2, 3, 4, 10, 120, 195, 195, 120, 119, 193, 2, 0.295034
238, 1, wb, filler, NA, 999, 999, 4, 11, 186, 71, 157, 141, 174, 163, 1, 0.960993
238, 1, wb, filler, NA, 999, 999, 4, 11, 186, 71, 157, 141, 174, 163, 3, 0.473363
238, 1, wb, attraction, a-b-da, 5, 3, 4, 12, 190, 117, 195, 120, 120, 195, 1, 2.57169
238, 1, wb, attraction, a-b-da, 5, 3, 4, 12, 190, 117, 195, 120, 120, 195, 2, 0.539521
238, 1, wb, filler, NA, 999, 999, 4, 13, 61, 99, 180, 84, 193, 83, 1, 0.795865
238, 1, wb, filler, NA, 999, 999, 4, 13, 61, 99, 180, 84, 193, 83, 2, 1.25903
238, 1, wb, filler, NA, 999, 999, 4, 14, 144, 58, 192, 181, 164, 172, 1, 0.757897
238, 1, wb, filler, NA, 999, 999, 4, 14, 144, 58, 192, 181, 164, 172, 2, 0.758221
238, 1, wb, filler, NA, 999, 999, 4, 15, 128, 84, 131, 128, 159, 188, 1, 0.837316
238, 1, wb, filler, NA, 999, 999, 4, 15, 128, 84, 131, 128, 159, 188, 3, 0.323106
238, 1, wb, attraction, a-b-db, 5, 1, 4, 16, 135, 60, 58, 132, 60, 135, 2, 2.14025
238, 1, wb, attraction, a-b-db, 5, 1, 4, 16, 135, 60, 58, 132, 60, 135, 3, 1.02083
238, 1, wb, filler, NA, 999, 999, 4, 17, 100, 77, 123, 123, 132, 158, 1, 0.7058
238, 1, wb, filler, NA, 999, 999, 4, 17, 100, 77, 123, 123, 132, 158, 3, 0.252206
238, 1, wb, attraction, a-b-db, 9, 2, 4, 18, 165, 90, 86, 157, 90, 165, 2, 2.95219
238, 1, wb, attraction, a-b-db, 9, 2, 4, 18, 165, 90, 86, 157, 90, 165, 3, 0.936558
238, 1, wb, attraction, a-b-db, 14, 2, 4, 19, 90, 165, 165, 90, 83, 153, 3, 1.89681
238, 1, wb, attraction, a-b-db, 14, 2, 4, 19, 90, 165, 165, 90, 83, 153, 1, 1.15549
238, 1, wb, attraction, a-b-da, 14, 1, 4, 20, 60, 135, 125, 56, 135, 60, 1, 1.17111
238, 1, wb, attraction, a-b-da, 14, 1, 4, 20, 60, 135, 125, 56, 135, 60, 2, 0.299351
238, 1, wb, catch, NA, 999, 999, 4, 21, 145, 110, 106, 89, 121, 194, 2, 0.73319
238, 1, wb, catch, NA, 999, 999, 4, 21, 145, 110, 106, 89, 121, 194, 3, 0.598995
238, 1, wb, attraction, a-b-da, 2, 1, 4, 22, 60, 135, 135, 60, 134, 59, 1, 1.30879
238, 1, wb, attraction, a-b-da, 2, 1, 4, 22, 60, 135, 135, 60, 134, 59, 3, 0.358956
238, 1, wb, attraction, a-b-da, 5, 2, 4, 23, 161, 88, 165, 90, 90, 165, 3, 1.03024
238, 1, wb, attraction, a-b-da, 5, 2, 4, 23, 161, 88, 165, 90, 90, 165, 2, 0.275996
238, 1, wb, catch, NA, 999, 999, 4, 24, 123, 132, 80, 115, 193, 122, 2, 0.814309
238, 1, wb, catch, NA, 999, 999, 4, 24, 123, 132, 80, 115, 193, 122, 3, 0.540681
238, 1, wb, filler, NA, 999, 999, 4, 25, 111, 163, 183, 123, 58, 75, 3, 0.708391
238, 1, wb, filler, NA, 999, 999, 4, 25, 111, 163, 183, 123, 58, 75, 2, 0.326923
238, 1, wb, filler, NA, 999, 999, 4, 26, 162, 191, 105, 189, 68, 122, 3, 0.871367
238, 1, wb, filler, NA, 999, 999, 4, 26, 162, 191, 105, 189, 68, 122, 1, 0.46774
238, 1, wb, filler, NA, 999, 999, 4, 27, 68, 159, 116, 94, 195, 57, 3, 3.55093
238, 1, wb, filler, NA, 999, 999, 4, 27, 68, 159, 116, 94, 195, 57, 2, 0.35903
238, 1, wb, attraction, a-b-da, 9, 3, 4, 28, 120, 195, 186, 114, 195, 120, 1, 1.03032
238, 1, wb, attraction, a-b-da, 9, 3, 4, 28, 120, 195, 186, 114, 195, 120, 3, 0.355893
238, 1, wb, attraction, a-b-db, 14, 3, 4, 29, 120, 195, 195, 120, 111, 181, 2, 0.843749
238, 1, wb, attraction, a-b-db, 14, 3, 4, 29, 120, 195, 195, 120, 111, 181, 1, 0.36072
238, 1, wb, catch, NA, 999, 999, 4, 30, 124, 191, 161, 94, 84, 111, 3, 0.615882
238, 1, wb, catch, NA, 999, 999, 4, 30, 124, 191, 161, 94, 84, 111, 1, 0.478305
238, 1, wb, attraction, a-b-da, 9, 1, 4, 31, 129, 57, 135, 60, 60, 135, 1, 1.30484
238, 1, wb, attraction, a-b-da, 9, 1, 4, 31, 129, 57, 135, 60, 60, 135, 2, 0.65167
238, 1, wb, filler, NA, 999, 999, 4, 32, 157, 145, 69, 65, 131, 172, 2, 0.719476
238, 1, wb, filler, NA, 999, 999, 4, 32, 157, 145, 69, 65, 131, 172, 1, 0.593927
238, 1, wb, attraction, a-b-da, 14, 3, 4, 33, 120, 195, 181, 111, 195, 120, 3, 1.33559
238, 1, wb, attraction, a-b-da, 14, 3, 4, 33, 120, 195, 181, 111, 195, 120, 1, 0.377286
238, 1, wb, filler, NA, 999, 999, 4, 34, 186, 158, 124, 139, 106, 184, 2, 0.87166
238, 1, wb, filler, NA, 999, 999, 4, 34, 186, 158, 124, 139, 106, 184, 1, 0.859446
238, 1, wb, attraction, a-b-da, 2, 2, 4, 35, 163, 89, 90, 165, 165, 90, 1, 1.47839
238, 1, wb, attraction, a-b-da, 2, 2, 4, 35, 163, 89, 90, 165, 165, 90, 2, 0.27397
238, 1, wb, attraction, a-b-db, 9, 1, 4, 36, 135, 60, 57, 129, 60, 135, 1, 1.34842
238, 1, wb, attraction, a-b-db, 9, 1, 4, 36, 135, 60, 57, 129, 60, 135, 3, 0.893355
238, 1, wb, attraction, a-b-da, 14, 2, 4, 37, 153, 83, 90, 165, 165, 90, 3, 0.879095
238, 1, wb, attraction, a-b-da, 14, 2, 4, 37, 153, 83, 90, 165, 165, 90, 2, 0.258589
238, 1, wb, attraction, a-b-db, 14, 3, 5, 1, 195, 120, 111, 181, 120, 195, 1, 4.85247
238, 1, wb, attraction, a-b-db, 14, 3, 5, 1, 195, 120, 111, 181, 120, 195, 3, 0.392397
238, 1, wb, attraction, a-b-da, 2, 1, 5, 2, 134, 59, 60, 135, 135, 60, 3, 0.998044
238, 1, wb, attraction, a-b-da, 2, 1, 5, 2, 134, 59, 60, 135, 135, 60, 2, 0.557148
238, 1, wb, attraction, a-b-da, 9, 1, 5, 3, 129, 57, 60, 135, 135, 60, 1, 1.45209
238, 1, wb, attraction, a-b-da, 9, 1, 5, 3, 129, 57, 60, 135, 135, 60, 2, 0.473138
238, 1, wb, filler, NA, 999, 999, 5, 4, 180, 64, 142, 150, 179, 161, 1, 0.852293
238, 1, wb, filler, NA, 999, 999, 5, 4, 180, 64, 142, 150, 179, 161, 3, 0.361274
238, 1, wb, filler, NA, 999, 999, 5, 5, 174, 186, 176, 101, 132, 158, 2, 1.17638
238, 1, wb, filler, NA, 999, 999, 5, 5, 174, 186, 176, 101, 132, 158, 1, 0.480056
238, 1, wb, attraction, a-b-da, 5, 2, 5, 6, 161, 88, 90, 165, 165, 90, 1, 1.14642
238, 1, wb, attraction, a-b-da, 5, 2, 5, 6, 161, 88, 90, 165, 165, 90, 2, 0.595397
238, 1, wb, attraction, a-b-da, 5, 1, 5, 7, 132, 58, 60, 135, 135, 60, 1, 0.801046
238, 1, wb, attraction, a-b-da, 5, 1, 5, 7, 132, 58, 60, 135, 135, 60, 2, 0.544243
238, 1, wb, attraction, a-b-db, 2, 1, 5, 8, 60, 135, 135, 60, 59, 134, 1, 3.34398
238, 1, wb, attraction, a-b-db, 2, 1, 5, 8, 60, 135, 135, 60, 59, 134, 2, 0.480436
238, 1, wb, attraction, a-b-db, 5, 2, 5, 9, 90, 165, 88, 161, 165, 90, 1, 179.179
238, 1, wb, attraction, a-b-db, 5, 2, 5, 9, 90, 165, 88, 161, 165, 90, 2, 1.31666
238, 1, wb, filler, NA, 999, 999, 5, 10, 73, 151, 106, 188, 73, 118, 3, 1.6055
238, 1, wb, filler, NA, 999, 999, 5, 10, 73, 151, 106, 188, 73, 118, 2, 0.307765
238, 1, wb, attraction, a-b-da, 14, 1, 5, 11, 125, 56, 60, 135, 135, 60, 2, 1.17297
238, 1, wb, attraction, a-b-da, 14, 1, 5, 11, 125, 56, 60, 135, 135, 60, 3, 0.556539
238, 1, wb, attraction, a-b-da, 14, 2, 5, 12, 153, 83, 90, 165, 165, 90, 1, 1.70754
238, 1, wb, attraction, a-b-da, 14, 2, 5, 12, 153, 83, 90, 165, 165, 90, 2, 0.501691
238, 1, wb, attraction, a-b-da, 5, 3, 5, 13, 120, 195, 190, 117, 195, 120, 1, 2.22355
238, 1, wb, attraction, a-b-da, 5, 3, 5, 13, 120, 195, 190, 117, 195, 120, 3, 0.644693
238, 1, wb, attraction, a-b-db, 2, 2, 5, 14, 165, 90, 89, 163, 90, 165, 1, 2.44046
238, 1, wb, attraction, a-b-db, 2, 2, 5, 14, 165, 90, 89, 163, 90, 165, 2, 0.621079
238, 1, wb, attraction, a-b-db, 5, 1, 5, 15, 135, 60, 58, 132, 60, 135, 2, 1.61803
238, 1, wb, attraction, a-b-db, 5, 1, 5, 15, 135, 60, 58, 132, 60, 135, 1, 0.456237
238, 1, wb, catch, NA, 999, 999, 5, 16, 141, 114, 129, 66, 158, 157, 2, 1.54805
238, 1, wb, catch, NA, 999, 999, 5, 16, 141, 114, 129, 66, 158, 157, 3, 0.596819
238, 1, wb, filler, NA, 999, 999, 5, 17, 173, 107, 106, 138, 57, 82, 3, 0.970629
238, 1, wb, filler, NA, 999, 999, 5, 17, 173, 107, 106, 138, 57, 82, 1, 0.75432
238, 1, wb, attraction, a-b-db, 14, 1, 5, 18, 56, 125, 60, 135, 135, 60, 1, 0.810121
238, 1, wb, attraction, a-b-db, 14, 1, 5, 18, 56, 125, 60, 135, 135, 60, 3, 0.62443
238, 1, wb, filler, NA, 999, 999, 5, 19, 57, 163, 122, 132, 137, 193, 1, 0.604747
238, 1, wb, filler, NA, 999, 999, 5, 19, 57, 163, 122, 132, 137, 193, 3, 0.283269
238, 1, wb, attraction, a-b-db, 9, 1, 5, 20, 135, 60, 60, 135, 57, 129, 3, 0.837776
238, 1, wb, attraction, a-b-db, 9, 1, 5, 20, 135, 60, 60, 135, 57, 129, 1, 0.618808
238, 1, wb, filler, NA, 999, 999, 5, 21, 184, 67, 129, 104, 174, 119, 1, 1.03986
238, 1, wb, filler, NA, 999, 999, 5, 21, 184, 67, 129, 104, 174, 119, 3, 0.604775
238, 1, wb, attraction, a-b-da, 2, 3, 5, 22, 120, 195, 193, 119, 195, 120, 2, 4.02663
238, 1, wb, attraction, a-b-da, 2, 3, 5, 22, 120, 195, 193, 119, 195, 120, 3, 0.503383
238, 1, wb, attraction, a-b-da, 2, 2, 5, 23, 163, 89, 165, 90, 90, 165, 2, 1.1851
238, 1, wb, attraction, a-b-da, 2, 2, 5, 23, 163, 89, 165, 90, 90, 165, 1, 0.57667
238, 1, wb, attraction, a-b-da, 9, 2, 5, 24, 165, 90, 157, 86, 90, 165, 2, 1.79916
238, 1, wb, attraction, a-b-da, 9, 2, 5, 24, 165, 90, 157, 86, 90, 165, 3, 0.253929
238, 1, wb, attraction, a-b-da, 9, 3, 5, 25, 186, 114, 195, 120, 120, 195, 2, 1.47375
238, 1, wb, attraction, a-b-da, 9, 3, 5, 25, 186, 114, 195, 120, 120, 195, 3, 0.26925
238, 1, wb, attraction, a-b-db, 2, 3, 5, 26, 119, 193, 195, 120, 120, 195, 2, 0.912605
238, 1, wb, attraction, a-b-db, 2, 3, 5, 26, 119, 193, 195, 120, 120, 195, 3, 0.266774
238, 1, wb, attraction, a-b-db, 9, 2, 5, 27, 86, 157, 90, 165, 165, 90, 1, 0.70193
238, 1, wb, attraction, a-b-db, 9, 2, 5, 27, 86, 157, 90, 165, 165, 90, 3, 0.601029
238, 1, wb, attraction, a-b-da, 14, 3, 5, 28, 120, 195, 181, 111, 195, 120, 2, 2.30282
238, 1, wb, attraction, a-b-da, 14, 3, 5, 28, 120, 195, 181, 111, 195, 120, 1, 1.29743
238, 1, wb, filler, NA, 999, 999, 5, 29, 107, 57, 63, 58, 109, 79, 2, 0.714967
238, 1, wb, filler, NA, 999, 999, 5, 29, 107, 57, 63, 58, 109, 79, 3, 0.445354
238, 1, wb, filler, NA, 999, 999, 5, 30, 151, 160, 103, 164, 185, 83, 3, 1.16922
238, 1, wb, filler, NA, 999, 999, 5, 30, 151, 160, 103, 164, 185, 83, 1, 0.377445
238, 1, wb, attraction, a-b-db, 14, 2, 5, 31, 165, 90, 83, 153, 90, 165, 2, 1.9921
238, 1, wb, attraction, a-b-db, 14, 2, 5, 31, 165, 90, 83, 153, 90, 165, 3, 0.318665
238, 1, wb, filler, NA, 999, 999, 5, 32, 164, 146, 85, 111, 61, 144, 2, 0.879819
238, 1, wb, filler, NA, 999, 999, 5, 32, 164, 146, 85, 111, 61, 144, 1, 0.539532
238, 1, wb, catch, NA, 999, 999, 5, 33, 120, 75, 105, 150, 125, 190, 1, 1.12398
238, 1, wb, catch, NA, 999, 999, 5, 33, 120, 75, 105, 150, 125, 190, 3, 0.397622
238, 1, wb, catch, NA, 999, 999, 5, 34, 103, 152, 110, 85, 145, 170, 2, 0.651576
238, 1, wb, catch, NA, 999, 999, 5, 34, 103, 152, 110, 85, 145, 170, 3, 0.312502
238, 1, wb, filler, NA, 999, 999, 5, 35, 128, 68, 171, 185, 97, 76, 3, 0.753602
238, 1, wb, filler, NA, 999, 999, 5, 35, 128, 68, 171, 185, 97, 76, 2, 0.274728
238, 1, wb, attraction, a-b-db, 5, 3, 5, 36, 195, 120, 117, 190, 120, 195, 2, 4.22132
238, 1, wb, attraction, a-b-db, 5, 3, 5, 36, 195, 120, 117, 190, 120, 195, 3, 0.394582
238, 1, wb, attraction, a-b-db, 9, 3, 5, 37, 114, 186, 120, 195, 195, 120, 1, 1.74442
238, 1, wb, attraction, a-b-db, 9, 3, 5, 37, 114, 186, 120, 195, 195, 120, 2, 0.233164
238, 1, wb, filler, NA, 999, 999, 6, 1, 77, 139, 168, 166, 146, 69, 1, 0.73367
238, 1, wb, filler, NA, 999, 999, 6, 1, 77, 139, 168, 166, 146, 69, 2, 0.407462
238, 1, wb, filler, NA, 999, 999, 6, 2, 106, 176, 159, 158, 61, 145, 3, 0.68458
238, 1, wb, filler, NA, 999, 999, 6, 2, 106, 176, 159, 158, 61, 145, 2, 0.624465
238, 1, wb, attraction, a-b-da, 14, 1, 6, 3, 135, 60, 125, 56, 60, 135, 3, 1.05276
238, 1, wb, attraction, a-b-da, 14, 1, 6, 3, 135, 60, 125, 56, 60, 135, 1, 0.577836
238, 1, wb, attraction, a-b-db, 14, 2, 6, 4, 165, 90, 83, 153, 90, 165, 2, 1.29624
238, 1, wb, attraction, a-b-db, 14, 2, 6, 4, 165, 90, 83, 153, 90, 165, 1, 0.499057
238, 1, wb, filler, NA, 999, 999, 6, 5, 163, 190, 147, 154, 181, 91, 3, 0.948768
238, 1, wb, filler, NA, 999, 999, 6, 5, 163, 190, 147, 154, 181, 91, 1, 0.36599
238, 1, wb, attraction, a-b-da, 14, 3, 6, 6, 120, 195, 181, 111, 195, 120, 2, 1.09307
238, 1, wb, attraction, a-b-da, 14, 3, 6, 6, 120, 195, 181, 111, 195, 120, 1, 0.567997
238, 1, wb, attraction, a-b-db, 9, 1, 6, 7, 135, 60, 57, 129, 60, 135, 3, 1.5271
238, 1, wb, attraction, a-b-db, 9, 1, 6, 7, 135, 60, 57, 129, 60, 135, 2, 0.600572
238, 1, wb, filler, NA, 999, 999, 6, 8, 74, 188, 63, 168, 179, 155, 2, 0.766492
238, 1, wb, filler, NA, 999, 999, 6, 8, 74, 188, 63, 168, 179, 155, 3, 0.598745
238, 1, wb, catch, NA, 999, 999, 6, 9, 103, 152, 183, 132, 122, 73, 3, 0.756582
238, 1, wb, catch, NA, 999, 999, 6, 9, 103, 152, 183, 132, 122, 73, 2, 0.26093
238, 1, wb, attraction, a-b-da, 2, 3, 6, 10, 193, 119, 195, 120, 120, 195, 2, 1.36805
238, 1, wb, attraction, a-b-da, 2, 3, 6, 10, 193, 119, 195, 120, 120, 195, 3, 1.15238
238, 1, wb, attraction, a-b-db, 9, 2, 6, 11, 90, 165, 86, 157, 165, 90, 3, 4.18397
238, 1, wb, attraction, a-b-db, 9, 2, 6, 11, 90, 165, 86, 157, 165, 90, 2, 0.334604
238, 1, wb, filler, NA, 999, 999, 6, 12, 176, 78, 158, 146, 130, 148, 1, 0.951098
238, 1, wb, filler, NA, 999, 999, 6, 12, 176, 78, 158, 146, 130, 148, 2, 0.408047
238, 1, wb, attraction, a-b-da, 5, 2, 6, 13, 165, 90, 90, 165, 161, 88, 3, 3.98124
238, 1, wb, attraction, a-b-da, 5, 2, 6, 13, 165, 90, 90, 165, 161, 88, 2, 0.547978
238, 1, wb, attraction, a-b-da, 5, 1, 6, 14, 132, 58, 135, 60, 60, 135, 3, 1.47584
238, 1, wb, attraction, a-b-da, 5, 1, 6, 14, 132, 58, 135, 60, 60, 135, 2, 0.527385
238, 1, wb, catch, NA, 999, 999, 6, 15, 153, 162, 141, 114, 132, 63, 3, 0.74379
238, 1, wb, catch, NA, 999, 999, 6, 15, 153, 162, 141, 114, 132, 63, 1, 0.328726
238, 1, wb, attraction, a-b-db, 2, 1, 6, 16, 60, 135, 135, 60, 59, 134, 3, 2.72932
238, 1, wb, attraction, a-b-db, 2, 1, 6, 16, 60, 135, 135, 60, 59, 134, 1, 0.354384
238, 1, wb, attraction, a-b-da, 9, 3, 6, 17, 186, 114, 195, 120, 120, 195, 3, 2.94628
238, 1, wb, attraction, a-b-da, 9, 3, 6, 17, 186, 114, 195, 120, 120, 195, 2, 0.322594
238, 1, wb, attraction, a-b-db, 2, 2, 6, 18, 165, 90, 90, 165, 89, 163, 1, 1.81189
238, 1, wb, attraction, a-b-db, 2, 2, 6, 18, 165, 90, 90, 165, 89, 163, 2, 0.273816
238, 1, wb, attraction, a-b-db, 14, 3, 6, 19, 120, 195, 111, 181, 195, 120, 2, 2.67641
238, 1, wb, attraction, a-b-db, 14, 3, 6, 19, 120, 195, 111, 181, 195, 120, 3, 0.767502
238, 1, wb, filler, NA, 999, 999, 6, 20, 168, 79, 137, 87, 78, 123, 3, 1.25459
238, 1, wb, filler, NA, 999, 999, 6, 20, 168, 79, 137, 87, 78, 123, 1, 0.539438
238, 1, wb, filler, NA, 999, 999, 6, 21, 187, 128, 189, 147, 103, 114, 3, 0.939861
238, 1, wb, filler, NA, 999, 999, 6, 21, 187, 128, 189, 147, 103, 114, 2, 0.64501
238, 1, wb, attraction, a-b-da, 2, 2, 6, 22, 165, 90, 90, 165, 163, 89, 3, 1.45663
238, 1, wb, attraction, a-b-da, 2, 2, 6, 22, 165, 90, 90, 165, 163, 89, 2, 0.716756
238, 1, wb, attraction, a-b-db, 2, 3, 6, 23, 120, 195, 119, 193, 195, 120, 3, 1.60587
238, 1, wb, attraction, a-b-db, 2, 3, 6, 23, 120, 195, 119, 193, 195, 120, 2, 0.508021
238, 1, wb, catch, NA, 999, 999, 6, 24, 104, 91, 135, 180, 129, 126, 1, 0.597148
238, 1, wb, catch, NA, 999, 999, 6, 24, 104, 91, 135, 180, 129, 126, 2, 0.516263
238, 1, wb, attraction, a-b-db, 5, 1, 6, 25, 60, 135, 135, 60, 58, 132, 3, 1.38138
238, 1, wb, attraction, a-b-db, 5, 1, 6, 25, 60, 135, 135, 60, 58, 132, 1, 0.420934
238, 1, wb, attraction, a-b-da, 5, 3, 6, 26, 190, 117, 120, 195, 195, 120, 1, 0.937951
238, 1, wb, attraction, a-b-da, 5, 3, 6, 26, 190, 117, 120, 195, 195, 120, 2, 0.36369
238, 1, wb, attraction, a-b-db, 5, 2, 6, 27, 165, 90, 90, 165, 88, 161, 1, 0.794889
238, 1, wb, attraction, a-b-db, 5, 2, 6, 27, 165, 90, 90, 165, 88, 161, 2, 0.682053
238, 1, wb, attraction, a-b-db, 5, 3, 6, 28, 117, 190, 120, 195, 195, 120, 1, 3.78839
238, 1, wb, attraction, a-b-db, 5, 3, 6, 28, 117, 190, 120, 195, 195, 120, 3, 0.52307
238, 1, wb, attraction, a-b-da, 9, 2, 6, 29, 165, 90, 157, 86, 90, 165, 2, 1.34026
238, 1, wb, attraction, a-b-da, 9, 2, 6, 29, 165, 90, 157, 86, 90, 165, 3, 0.541114
238, 1, wb, attraction, a-b-da, 9, 1, 6, 30, 129, 57, 60, 135, 135, 60, 1, 1.13297
238, 1, wb, attraction, a-b-da, 9, 1, 6, 30, 129, 57, 60, 135, 135, 60, 2, 0.374563
238, 1, wb, attraction, a-b-da, 2, 1, 6, 31, 135, 60, 60, 135, 134, 59, 3, 1.54097
238, 1, wb, attraction, a-b-da, 2, 1, 6, 31, 135, 60, 60, 135, 134, 59, 1, 1.80588
238, 1, wb, filler, NA, 999, 999, 6, 32, 65, 64, 59, 190, 67, 184, 1, 0.85924
238, 1, wb, filler, NA, 999, 999, 6, 32, 65, 64, 59, 190, 67, 184, 3, 0.879512
238, 1, wb, attraction, a-b-da, 14, 2, 6, 33, 165, 90, 153, 83, 90, 165, 2, 1.50591
238, 1, wb, attraction, a-b-da, 14, 2, 6, 33, 165, 90, 153, 83, 90, 165, 3, 1.51616
238, 1, wb, attraction, a-b-db, 9, 3, 6, 34, 114, 186, 195, 120, 120, 195, 1, 1.57285
238, 1, wb, attraction, a-b-db, 9, 3, 6, 34, 114, 186, 195, 120, 120, 195, 3, 0.564302
238, 1, wb, filler, NA, 999, 999, 6, 35, 62, 117, 168, 95, 167, 169, 1, 0.651428
238, 1, wb, filler, NA, 999, 999, 6, 35, 62, 117, 168, 95, 167, 169, 3, 0.536574
238, 1, wb, attraction, a-b-db, 14, 1, 6, 36, 135, 60, 56, 125, 60, 135, 2, 2.04104
238, 1, wb, attraction, a-b-db, 14, 1, 6, 36, 135, 60, 56, 125, 60, 135, 3, 0.709814
238, 1, wb, filler, NA, 999, 999, 6, 37, 85, 188, 77, 70, 142, 163, 2, 0.798693
238, 1, wb, filler, NA, 999, 999, 6, 37, 85, 188, 77, 70, 142, 163, 3, 0.318027
238, 1, wb, attraction, a-b-da, 9, 1, 7, 1, 60, 135, 135, 60, 129, 57, 3, 1.32688
238, 1, wb, attraction, a-b-da, 9, 1, 7, 1, 60, 135, 135, 60, 129, 57, 2, 0.632589
238, 1, wb, filler, NA, 999, 999, 7, 2, 183, 134, 172, 108, 120, 106, 3, 0.853076
238, 1, wb, filler, NA, 999, 999, 7, 2, 183, 134, 172, 108, 120, 106, 1, 0.633981
238, 1, wb, attraction, a-b-da, 14, 3, 7, 3, 195, 120, 181, 111, 120, 195, 2, 1.05432
238, 1, wb, attraction, a-b-da, 14, 3, 7, 3, 195, 120, 181, 111, 120, 195, 1, 0.619333
238, 1, wb, attraction, a-b-db, 2, 1, 7, 4, 60, 135, 135, 60, 59, 134, 2, 1.35258
238, 1, wb, attraction, a-b-db, 2, 1, 7, 4, 60, 135, 135, 60, 59, 134, 3, 0.641422
238, 1, wb, attraction, a-b-da, 2, 3, 7, 5, 193, 119, 120, 195, 195, 120, 1, 1.6291
238, 1, wb, attraction, a-b-da, 2, 3, 7, 5, 193, 119, 120, 195, 195, 120, 3, 0.466556
238, 1, wb, attraction, a-b-db, 14, 1, 7, 6, 56, 125, 135, 60, 60, 135, 1, 0.877651
238, 1, wb, attraction, a-b-db, 14, 1, 7, 6, 56, 125, 135, 60, 60, 135, 3, 0.673398
238, 1, wb, catch, NA, 999, 999, 7, 7, 181, 134, 61, 134, 145, 110, 2, 0.604428
238, 1, wb, catch, NA, 999, 999, 7, 7, 181, 134, 61, 134, 145, 110, 1, 0.346985
238, 1, wb, attraction, a-b-db, 9, 2, 7, 8, 165, 90, 90, 165, 86, 157, 3, 2.05077
238, 1, wb, attraction, a-b-db, 9, 2, 7, 8, 165, 90, 90, 165, 86, 157, 2, 1.96742
238, 1, wb, attraction, a-b-da, 5, 1, 7, 9, 132, 58, 135, 60, 60, 135, 1, 0.798136
238, 1, wb, attraction, a-b-da, 5, 1, 7, 9, 132, 58, 135, 60, 60, 135, 3, 0.621162
238, 1, wb, filler, NA, 999, 999, 7, 10, 152, 111, 92, 105, 161, 150, 2, 0.586298
238, 1, wb, filler, NA, 999, 999, 7, 10, 152, 111, 92, 105, 161, 150, 3, 0.602046
238, 1, wb, attraction, a-b-db, 14, 2, 7, 11, 90, 165, 165, 90, 83, 153, 1, 0.807683
238, 1, wb, attraction, a-b-db, 14, 2, 7, 11, 90, 165, 165, 90, 83, 153, 2, 0.334241
238, 1, wb, attraction, a-b-db, 2, 2, 7, 12, 165, 90, 90, 165, 89, 163, 3, 2.04675
238, 1, wb, attraction, a-b-db, 2, 2, 7, 12, 165, 90, 90, 165, 89, 163, 2, 0.587358
238, 1, wb, attraction, a-b-db, 14, 3, 7, 13, 111, 181, 195, 120, 120, 195, 1, 1.42588
238, 1, wb, attraction, a-b-db, 14, 3, 7, 13, 111, 181, 195, 120, 120, 195, 3, 0.479269
238, 1, wb, filler, NA, 999, 999, 7, 14, 72, 110, 162, 113, 89, 90, 3, 1.00974
238, 1, wb, filler, NA, 999, 999, 7, 14, 72, 110, 162, 113, 89, 90, 2, 0.383952
238, 1, wb, catch, NA, 999, 999, 7, 15, 121, 194, 104, 151, 79, 116, 3, 0.782528
238, 1, wb, catch, NA, 999, 999, 7, 15, 121, 194, 104, 151, 79, 116, 1, 0.63825
238, 1, wb, attraction, a-b-da, 9, 3, 7, 16, 186, 114, 120, 195, 195, 120, 1, 1.28277
238, 1, wb, attraction, a-b-da, 9, 3, 7, 16, 186, 114, 120, 195, 195, 120, 2, 0.462302
238, 1, wb, filler, NA, 999, 999, 7, 17, 129, 115, 139, 135, 104, 101, 3, 0.673329
238, 1, wb, filler, NA, 999, 999, 7, 17, 129, 115, 139, 135, 104, 101, 2, 0.597116
238, 1, wb, attraction, a-b-da, 2, 1, 7, 18, 135, 60, 60, 135, 134, 59, 3, 3.36293
238, 1, wb, attraction, a-b-da, 2, 1, 7, 18, 135, 60, 60, 135, 134, 59, 2, 0.370492
238, 1, wb, attraction, a-b-da, 14, 1, 7, 19, 135, 60, 60, 135, 125, 56, 2, 1.73767
238, 1, wb, attraction, a-b-da, 14, 1, 7, 19, 135, 60, 60, 135, 125, 56, 1, 0.386357
238, 1, wb, filler, NA, 999, 999, 7, 20, 125, 128, 77, 194, 150, 152, 1, 1.6728
238, 1, wb, filler, NA, 999, 999, 7, 20, 125, 128, 77, 194, 150, 152, 3, 0.300276
238, 1, wb, attraction, a-b-da, 2, 2, 7, 21, 90, 165, 163, 89, 165, 90, 2, 1.96617
238, 1, wb, attraction, a-b-da, 2, 2, 7, 21, 90, 165, 163, 89, 165, 90, 1, 0.566129
238, 1, wb, filler, NA, 999, 999, 7, 22, 153, 84, 115, 129, 81, 66, 3, 1.0133
238, 1, wb, filler, NA, 999, 999, 7, 22, 153, 84, 115, 129, 81, 66, 2, 0.27565
238, 1, wb, attraction, a-b-da, 5, 2, 7, 23, 161, 88, 165, 90, 90, 165, 1, 1.98209
238, 1, wb, attraction, a-b-da, 5, 2, 7, 23, 161, 88, 165, 90, 90, 165, 3, 0.445451
238, 1, wb, attraction, a-b-db, 5, 3, 7, 24, 117, 190, 195, 120, 120, 195, 2, 3.12133
238, 1, wb, attraction, a-b-db, 5, 3, 7, 24, 117, 190, 195, 120, 120, 195, 3, 0.602986
238, 1, wb, attraction, a-b-da, 14, 2, 7, 25, 165, 90, 90, 165, 153, 83, 3, 1.53685
238, 1, wb, attraction, a-b-da, 14, 2, 7, 25, 165, 90, 90, 165, 153, 83, 2, 0.626304
238, 1, wb, attraction, a-b-db, 5, 2, 7, 26, 88, 161, 90, 165, 165, 90, 1, 0.798556
238, 1, wb, attraction, a-b-db, 5, 2, 7, 26, 88, 161, 90, 165, 165, 90, 3, 0.477763
238, 1, wb, filler, NA, 999, 999, 7, 27, 165, 62, 130, 120, 113, 61, 3, 1.04813
238, 1, wb, filler, NA, 999, 999, 7, 27, 165, 62, 130, 120, 113, 61, 2, 0.389075
238, 1, wb, attraction, a-b-db, 9, 3, 7, 28, 120, 195, 195, 120, 114, 186, 2, 1.7396
238, 1, wb, attraction, a-b-db, 9, 3, 7, 28, 120, 195, 195, 120, 114, 186, 1, 0.420359
238, 1, wb, attraction, a-b-db, 5, 1, 7, 29, 135, 60, 58, 132, 60, 135, 3, 2.07351
238, 1, wb, attraction, a-b-db, 5, 1, 7, 29, 135, 60, 58, 132, 60, 135, 2, 1.21286
238, 1, wb, filler, NA, 999, 999, 7, 30, 190, 132, 78, 151, 79, 174, 3, 1.00978
238, 1, wb, filler, NA, 999, 999, 7, 30, 190, 132, 78, 151, 79, 174, 1, 0.359977
238, 1, wb, filler, NA, 999, 999, 7, 31, 171, 139, 170, 154, 173, 184, 1, 1.04722
238, 1, wb, filler, NA, 999, 999, 7, 31, 171, 139, 170, 154, 173, 184, 3, 0.59623
238, 1, wb, attraction, a-b-da, 5, 3, 7, 32, 190, 117, 195, 120, 120, 195, 1, 1.86604
238, 1, wb, attraction, a-b-da, 5, 3, 7, 32, 190, 117, 195, 120, 120, 195, 3, 0.446179
238, 1, wb, attraction, a-b-da, 9, 2, 7, 33, 90, 165, 165, 90, 157, 86, 3, 0.849774
238, 1, wb, attraction, a-b-da, 9, 2, 7, 33, 90, 165, 165, 90, 157, 86, 2, 1.24687
238, 1, wb, catch, NA, 999, 999, 7, 34, 187, 128, 124, 71, 115, 140, 2, 0.74647
238, 1, wb, catch, NA, 999, 999, 7, 34, 187, 128, 124, 71, 115, 140, 1, 0.499482
238, 1, wb, attraction, a-b-db, 9, 1, 7, 35, 60, 135, 57, 129, 135, 60, 2, 1.46933
238, 1, wb, attraction, a-b-db, 9, 1, 7, 35, 60, 135, 57, 129, 135, 60, 1, 1.11342
238, 1, wb, attraction, a-b-db, 2, 3, 7, 36, 119, 193, 195, 120, 120, 195, 2, 1.95438
238, 1, wb, attraction, a-b-db, 2, 3, 7, 36, 119, 193, 195, 120, 120, 195, 3, 0.458457
238, 1, wb, filler, NA, 999, 999, 7, 37, 58, 72, 82, 146, 160, 133, 1, 0.749464
238, 1, wb, filler, NA, 999, 999, 7, 37, 58, 72, 82, 146, 160, 133, 3, 0.510581
238, 1, wb, catch, NA, 999, 999, 8, 1, 165, 90, 129, 186, 88, 107, 3, 1.11164
238, 1, wb, catch, NA, 999, 999, 8, 1, 165, 90, 129, 186, 88, 107, 2, 0.858028
238, 1, wb, attraction, a-b-da, 5, 1, 8, 2, 60, 135, 132, 58, 135, 60, 2, 2.18915
238, 1, wb, attraction, a-b-da, 5, 1, 8, 2, 60, 135, 132, 58, 135, 60, 1, 0.491617
238, 1, wb, filler, NA, 999, 999, 8, 3, 106, 70, 151, 89, 103, 107, 1, 0.725363
238, 1, wb, filler, NA, 999, 999, 8, 3, 106, 70, 151, 89, 103, 107, 3, 0.399261
238, 1, wb, filler, NA, 999, 999, 8, 4, 175, 88, 78, 147, 181, 189, 2, 1.82905
238, 1, wb, filler, NA, 999, 999, 8, 4, 175, 88, 78, 147, 181, 189, 3, 0.330413
238, 1, wb, attraction, a-b-db, 2, 2, 8, 5, 165, 90, 90, 165, 89, 163, 1, 2.25096
238, 1, wb, attraction, a-b-db, 2, 2, 8, 5, 165, 90, 90, 165, 89, 163, 2, 0.687554
238, 1, wb, filler, NA, 999, 999, 8, 6, 85, 123, 125, 136, 115, 157, 1, 0.705836
238, 1, wb, filler, NA, 999, 999, 8, 6, 85, 123, 125, 136, 115, 157, 2, 1.14039
238, 1, wb, attraction, a-b-db, 9, 1, 8, 7, 135, 60, 57, 129, 60, 135, 2, 1.76398
238, 1, wb, attraction, a-b-db, 9, 1, 8, 7, 135, 60, 57, 129, 60, 135, 3, 0.564013
238, 1, wb, attraction, a-b-da, 14, 1, 8, 8, 125, 56, 60, 135, 135, 60, 1, 1.72305
238, 1, wb, attraction, a-b-da, 14, 1, 8, 8, 125, 56, 60, 135, 135, 60, 3, 0.764585
238, 1, wb, attraction, a-b-da, 9, 3, 8, 9, 120, 195, 186, 114, 195, 120, 2, 1.80354
238, 1, wb, attraction, a-b-da, 9, 3, 8, 9, 120, 195, 186, 114, 195, 120, 1, 0.282289
238, 1, wb, attraction, a-b-da, 9, 2, 8, 10, 165, 90, 90, 165, 157, 86, 3, 0.956782
238, 1, wb, attraction, a-b-da, 9, 2, 8, 10, 165, 90, 90, 165, 157, 86, 2, 0.229114
238, 1, wb, filler, NA, 999, 999, 8, 11, 191, 189, 86, 161, 134, 65, 3, 0.761624
238, 1, wb, filler, NA, 999, 999, 8, 11, 191, 189, 86, 161, 134, 65, 1, 0.306042
238, 1, wb, attraction, a-b-da, 14, 2, 8, 12, 165, 90, 90, 165, 153, 83, 3, 1.6359
238, 1, wb, attraction, a-b-da, 14, 2, 8, 12, 165, 90, 90, 165, 153, 83, 1, 0.98544
238, 1, wb, filler, NA, 999, 999, 8, 13, 122, 133, 111, 97, 166, 60, 3, 1.84775
238, 1, wb, filler, NA, 999, 999, 8, 13, 122, 133, 111, 97, 166, 60, 1, 0.732425
238, 1, wb, attraction, a-b-da, 2, 2, 8, 14, 165, 90, 163, 89, 90, 165, 2, 5.83685
238, 1, wb, attraction, a-b-da, 2, 2, 8, 14, 165, 90, 163, 89, 90, 165, 3, 0.312868
238, 1, wb, filler, NA, 999, 999, 8, 15, 192, 148, 99, 134, 195, 114, 2, 1.69011
238, 1, wb, filler, NA, 999, 999, 8, 15, 192, 148, 99, 134, 195, 114, 1, 0.292885
238, 1, wb, filler, NA, 999, 999, 8, 16, 163, 125, 76, 190, 168, 60, 3, 0.774893
238, 1, wb, filler, NA, 999, 999, 8, 16, 163, 125, 76, 190, 168, 60, 1, 0.59046
238, 1, wb, filler, NA, 999, 999, 8, 17, 168, 113, 144, 181, 128, 185, 1, 0.860179
238, 1, wb, filler, NA, 999, 999, 8, 17, 168, 113, 144, 181, 128, 185, 2, 0.35259
238, 1, wb, filler, NA, 999, 999, 8, 18, 180, 89, 101, 70, 61, 85, 3, 0.82453
238, 1, wb, filler, NA, 999, 999, 8, 18, 180, 89, 101, 70, 61, 85, 1, 0.550314
238, 1, wb, attraction, a-b-db, 2, 3, 8, 19, 120, 195, 195, 120, 119, 193, 1, 1.86197
238, 1, wb, attraction, a-b-db, 2, 3, 8, 19, 120, 195, 195, 120, 119, 193, 3, 0.458015
238, 1, wb, attraction, a-b-da, 14, 3, 8, 20, 181, 111, 195, 120, 120, 195, 1, 2.43717
238, 1, wb, attraction, a-b-da, 14, 3, 8, 20, 181, 111, 195, 120, 120, 195, 3, 1.29841
238, 1, wb, attraction, a-b-da, 5, 2, 8, 21, 165, 90, 161, 88, 90, 165, 2, 1.66797
238, 1, wb, attraction, a-b-da, 5, 2, 8, 21, 165, 90, 161, 88, 90, 165, 3, 0.57611
238, 1, wb, attraction, a-b-da, 9, 1, 8, 22, 60, 135, 135, 60, 129, 57, 3, 1.3585
238, 1, wb, attraction, a-b-da, 9, 1, 8, 22, 60, 135, 135, 60, 129, 57, 2, 0.390567
238, 1, wb, attraction, a-b-db, 14, 3, 8, 23, 195, 120, 120, 195, 111, 181, 3, 0.900579
238, 1, wb, attraction, a-b-db, 14, 3, 8, 23, 195, 120, 120, 195, 111, 181, 2, 0.599496
238, 1, wb, attraction, a-b-db, 2, 1, 8, 24, 60, 135, 135, 60, 59, 134, 1, 2.86125
238, 1, wb, attraction, a-b-db, 2, 1, 8, 24, 60, 135, 135, 60, 59, 134, 3, 0.657066
238, 1, wb, attraction, a-b-db, 14, 2, 8, 25, 83, 153, 90, 165, 165, 90, 1, 3.65198
238, 1, wb, attraction, a-b-db, 14, 2, 8, 25, 83, 153, 90, 165, 165, 90, 3, 0.816192
238, 1, wb, attraction, a-b-db, 14, 1, 8, 26, 135, 60, 56, 125, 60, 135, 2, 1.85322
238, 1, wb, attraction, a-b-db, 14, 1, 8, 26, 135, 60, 56, 125, 60, 135, 3, 1.002
238, 1, wb, attraction, a-b-db, 9, 3, 8, 27, 195, 120, 120, 195, 114, 186, 3, 2.14359
238, 1, wb, attraction, a-b-db, 9, 3, 8, 27, 195, 120, 120, 195, 114, 186, 2, 0.776348
238, 1, wb, attraction, a-b-db, 5, 2, 8, 28, 165, 90, 90, 165, 88, 161, 1, 1.99063
238, 1, wb, attraction, a-b-db, 5, 2, 8, 28, 165, 90, 90, 165, 88, 161, 2, 1.14131
238, 1, wb, attraction, a-b-da, 2, 3, 8, 29, 120, 195, 195, 120, 193, 119, 3, 2.04489
238, 1, wb, attraction, a-b-da, 2, 3, 8, 29, 120, 195, 195, 120, 193, 119, 2, 0.569487
238, 1, wb, catch, NA, 999, 999, 8, 30, 186, 129, 138, 117, 72, 123, 3, 0.800743
238, 1, wb, catch, NA, 999, 999, 8, 30, 186, 129, 138, 117, 72, 123, 1, 0.519676
238, 1, wb, attraction, a-b-db, 5, 1, 8, 31, 58, 132, 135, 60, 60, 135, 1, 1.24081
238, 1, wb, attraction, a-b-db, 5, 1, 8, 31, 58, 132, 135, 60, 60, 135, 3, 0.341616
238, 1, wb, attraction, a-b-da, 2, 1, 8, 32, 135, 60, 134, 59, 60, 135, 2, 2.10958
238, 1, wb, attraction, a-b-da, 2, 1, 8, 32, 135, 60, 134, 59, 60, 135, 3, 0.487466
238, 1, wb, catch, NA, 999, 999, 8, 33, 149, 166, 120, 135, 129, 66, 3, 0.818096
238, 1, wb, catch, NA, 999, 999, 8, 33, 149, 166, 120, 135, 129, 66, 1, 0.480326
238, 1, wb, attraction, a-b-db, 9, 2, 8, 34, 90, 165, 165, 90, 86, 157, 2, 4.09878
238, 1, wb, attraction, a-b-db, 9, 2, 8, 34, 90, 165, 165, 90, 86, 157, 1, 1.14083
238, 1, wb, filler, NA, 999, 999, 8, 35, 113, 90, 116, 60, 162, 127, 2, 0.772509
238, 1, wb, filler, NA, 999, 999, 8, 35, 113, 90, 116, 60, 162, 127, 1, 0.980134
238, 1, wb, attraction, a-b-da, 5, 3, 8, 36, 190, 117, 195, 120, 120, 195, 1, 2.94659
238, 1, wb, attraction, a-b-da, 5, 3, 8, 36, 190, 117, 195, 120, 120, 195, 3, 0.554894
238, 1, wb, attraction, a-b-db, 5, 3, 8, 37, 120, 195, 117, 190, 195, 120, 3, 2.20274
238, 1, wb, attraction, a-b-db, 5, 3, 8, 37, 120, 195, 117, 190, 195, 120, 1, 0.633366
