sub_n, computer_n, bw_cond, effect, set, distance, diag, block_n, trial_n, h1, w1, h2, w2, h3, w3, choice, rt 
270, 1, wb, practice, NA, 999, 999, 0, 1, 63, 191, 134, 88, 76, 56, 3, 2.06455
270, 1, wb, practice, NA, 999, 999, 0, 1, 63, 191, 134, 88, 76, 56, 2, 3.95793
270, 1, wb, practice, NA, 999, 999, 0, 2, 173, 155, 147, 72, 57, 164, 2, 10.3927
270, 1, wb, practice, NA, 999, 999, 0, 2, 173, 155, 147, 72, 57, 164, 1, 1.83661
270, 1, wb, practice, NA, 999, 999, 0, 3, 140, 71, 105, 158, 165, 190, 1, 1.80505
270, 1, wb, practice, NA, 999, 999, 0, 3, 140, 71, 105, 158, 165, 190, 3, 1.26826
270, 1, wb, attraction, a-b-da, 9, 3, 1, 1, 195, 120, 186, 114, 120, 195, 2, 3.04371
270, 1, wb, attraction, a-b-da, 9, 3, 1, 1, 195, 120, 186, 114, 120, 195, 1, 3.32807
270, 1, wb, attraction, a-b-db, 2, 2, 1, 2, 90, 165, 165, 90, 89, 163, 3, 2.92763
270, 1, wb, attraction, a-b-db, 2, 2, 1, 2, 90, 165, 165, 90, 89, 163, 1, 2.06484
270, 1, wb, filler, NA, 999, 999, 1, 3, 152, 107, 126, 158, 95, 184, 1, 4.57137
270, 1, wb, filler, NA, 999, 999, 1, 3, 152, 107, 126, 158, 95, 184, 2, 0.834592
270, 1, wb, attraction, a-b-db, 5, 2, 1, 4, 165, 90, 88, 161, 90, 165, 2, 3.79891
270, 1, wb, attraction, a-b-db, 5, 2, 1, 4, 165, 90, 88, 161, 90, 165, 3, 1.68511
270, 1, wb, catch, NA, 999, 999, 1, 5, 133, 122, 78, 117, 129, 186, 2, 1.45518
270, 1, wb, catch, NA, 999, 999, 1, 5, 133, 122, 78, 117, 129, 186, 3, 0.403279
270, 1, wb, attraction, a-b-db, 5, 3, 1, 6, 195, 120, 117, 190, 120, 195, 1, 2.78503
270, 1, wb, attraction, a-b-db, 5, 3, 1, 6, 195, 120, 117, 190, 120, 195, 2, 7.28013
270, 1, wb, attraction, a-b-db, 9, 2, 1, 7, 165, 90, 90, 165, 86, 157, 2, 2.95244
270, 1, wb, attraction, a-b-db, 9, 2, 1, 7, 165, 90, 90, 165, 86, 157, 1, 1.89689
270, 1, wb, attraction, a-b-da, 2, 3, 1, 8, 195, 120, 120, 195, 193, 119, 3, 2.13026
270, 1, wb, attraction, a-b-da, 2, 3, 1, 8, 195, 120, 120, 195, 193, 119, 2, 1.25162
270, 1, wb, filler, NA, 999, 999, 1, 9, 89, 102, 76, 169, 132, 84, 1, 1.77514
270, 1, wb, filler, NA, 999, 999, 1, 9, 89, 102, 76, 169, 132, 84, 2, 1.49469
270, 1, wb, filler, NA, 999, 999, 1, 10, 62, 120, 178, 133, 165, 195, 1, 1.04001
270, 1, wb, filler, NA, 999, 999, 1, 10, 62, 120, 178, 133, 165, 195, 3, 0.556965
270, 1, wb, filler, NA, 999, 999, 1, 11, 81, 195, 64, 177, 161, 170, 2, 1.62004
270, 1, wb, filler, NA, 999, 999, 1, 11, 81, 195, 64, 177, 161, 170, 3, 0.77037
270, 1, wb, attraction, a-b-da, 5, 1, 1, 12, 135, 60, 60, 135, 132, 58, 1, 2.24937
270, 1, wb, attraction, a-b-da, 5, 1, 1, 12, 135, 60, 60, 135, 132, 58, 2, 0.661805
270, 1, wb, attraction, a-b-da, 14, 3, 1, 13, 181, 111, 120, 195, 195, 120, 1, 2.13682
270, 1, wb, attraction, a-b-da, 14, 3, 1, 13, 181, 111, 120, 195, 195, 120, 2, 0.874266
270, 1, wb, filler, NA, 999, 999, 1, 14, 171, 60, 153, 80, 69, 116, 3, 2.30855
270, 1, wb, filler, NA, 999, 999, 1, 14, 171, 60, 153, 80, 69, 116, 2, 0.462566
270, 1, wb, attraction, a-b-db, 2, 1, 1, 15, 135, 60, 59, 134, 60, 135, 1, 4.98554
270, 1, wb, attraction, a-b-db, 2, 1, 1, 15, 135, 60, 59, 134, 60, 135, 3, 2.8401
270, 1, wb, attraction, a-b-da, 9, 2, 1, 16, 157, 86, 90, 165, 165, 90, 1, 1.61984
270, 1, wb, attraction, a-b-da, 9, 2, 1, 16, 157, 86, 90, 165, 165, 90, 2, 0.489906
270, 1, wb, attraction, a-b-da, 14, 1, 1, 17, 135, 60, 60, 135, 125, 56, 3, 2.0756
270, 1, wb, attraction, a-b-da, 14, 1, 1, 17, 135, 60, 60, 135, 125, 56, 2, 2.84713
270, 1, wb, attraction, a-b-da, 2, 2, 1, 18, 90, 165, 165, 90, 163, 89, 3, 1.92208
270, 1, wb, attraction, a-b-da, 2, 2, 1, 18, 90, 165, 165, 90, 163, 89, 1, 0.523459
270, 1, wb, attraction, a-b-db, 2, 3, 1, 19, 119, 193, 195, 120, 120, 195, 2, 1.78795
270, 1, wb, attraction, a-b-db, 2, 3, 1, 19, 119, 193, 195, 120, 120, 195, 1, 0.346758
270, 1, wb, attraction, a-b-db, 9, 1, 1, 20, 135, 60, 57, 129, 60, 135, 2, 1.85846
270, 1, wb, attraction, a-b-db, 9, 1, 1, 20, 135, 60, 57, 129, 60, 135, 3, 0.662567
270, 1, wb, attraction, a-b-db, 14, 3, 1, 21, 120, 195, 111, 181, 195, 120, 3, 2.56964
270, 1, wb, attraction, a-b-db, 14, 3, 1, 21, 120, 195, 111, 181, 195, 120, 1, 0.609484
270, 1, wb, attraction, a-b-db, 14, 1, 1, 22, 56, 125, 135, 60, 60, 135, 1, 2.31859
270, 1, wb, attraction, a-b-db, 14, 1, 1, 22, 56, 125, 135, 60, 60, 135, 2, 1.05646
270, 1, wb, attraction, a-b-da, 2, 1, 1, 23, 60, 135, 134, 59, 135, 60, 2, 1.76412
270, 1, wb, attraction, a-b-da, 2, 1, 1, 23, 60, 135, 134, 59, 135, 60, 1, 1.11626
270, 1, wb, attraction, a-b-db, 9, 3, 1, 24, 114, 186, 120, 195, 195, 120, 1, 1.41301
270, 1, wb, attraction, a-b-db, 9, 3, 1, 24, 114, 186, 120, 195, 195, 120, 2, 0.523302
270, 1, wb, filler, NA, 999, 999, 1, 25, 117, 167, 163, 121, 183, 192, 1, 1.18773
270, 1, wb, filler, NA, 999, 999, 1, 25, 117, 167, 163, 121, 183, 192, 3, 0.394554
270, 1, wb, filler, NA, 999, 999, 1, 26, 164, 74, 153, 133, 94, 168, 1, 1.42445
270, 1, wb, filler, NA, 999, 999, 1, 26, 164, 74, 153, 133, 94, 168, 2, 0.405883
270, 1, wb, catch, NA, 999, 999, 1, 27, 144, 111, 122, 193, 80, 115, 3, 0.955745
270, 1, wb, catch, NA, 999, 999, 1, 27, 144, 111, 122, 193, 80, 115, 2, 0.596127
270, 1, wb, catch, NA, 999, 999, 1, 28, 149, 166, 135, 60, 161, 94, 2, 1.36178
270, 1, wb, catch, NA, 999, 999, 1, 28, 149, 166, 135, 60, 161, 94, 1, 0.762367
270, 1, wb, attraction, a-b-db, 5, 1, 1, 29, 60, 135, 135, 60, 58, 132, 2, 1.97716
270, 1, wb, attraction, a-b-db, 5, 1, 1, 29, 60, 135, 135, 60, 58, 132, 3, 0.568846
270, 1, wb, attraction, a-b-da, 5, 2, 1, 30, 161, 88, 165, 90, 90, 165, 1, 1.73555
270, 1, wb, attraction, a-b-da, 5, 2, 1, 30, 161, 88, 165, 90, 90, 165, 2, 1.20908
270, 1, wb, filler, NA, 999, 999, 1, 31, 163, 154, 144, 146, 111, 142, 3, 0.765919
270, 1, wb, filler, NA, 999, 999, 1, 31, 163, 154, 144, 146, 111, 142, 1, 0.654289
270, 1, wb, filler, NA, 999, 999, 1, 32, 101, 165, 194, 101, 194, 179, 1, 0.946228
270, 1, wb, filler, NA, 999, 999, 1, 32, 101, 165, 194, 101, 194, 179, 3, 0.315043
270, 1, wb, attraction, a-b-da, 5, 3, 1, 33, 195, 120, 120, 195, 190, 117, 3, 1.52424
270, 1, wb, attraction, a-b-da, 5, 3, 1, 33, 195, 120, 120, 195, 190, 117, 2, 0.637733
270, 1, wb, attraction, a-b-da, 14, 2, 1, 34, 90, 165, 165, 90, 153, 83, 1, 0.850131
270, 1, wb, attraction, a-b-da, 14, 2, 1, 34, 90, 165, 165, 90, 153, 83, 2, 1.71123
270, 1, wb, attraction, a-b-db, 14, 2, 1, 35, 165, 90, 90, 165, 83, 153, 3, 1.29599
270, 1, wb, attraction, a-b-db, 14, 2, 1, 35, 165, 90, 90, 165, 83, 153, 2, 0.682789
270, 1, wb, filler, NA, 999, 999, 1, 36, 90, 73, 130, 92, 136, 134, 1, 0.869161
270, 1, wb, filler, NA, 999, 999, 1, 36, 90, 73, 130, 92, 136, 134, 3, 0.337511
270, 1, wb, attraction, a-b-da, 9, 1, 1, 37, 60, 135, 129, 57, 135, 60, 2, 1.88214
270, 1, wb, attraction, a-b-da, 9, 1, 1, 37, 60, 135, 129, 57, 135, 60, 3, 0.613431
270, 1, wb, attraction, a-b-db, 9, 3, 2, 1, 195, 120, 114, 186, 120, 195, 3, 1.69065
270, 1, wb, attraction, a-b-db, 9, 3, 2, 1, 195, 120, 114, 186, 120, 195, 1, 0.525242
270, 1, wb, attraction, a-b-da, 5, 3, 2, 2, 195, 120, 120, 195, 190, 117, 3, 1.63783
270, 1, wb, attraction, a-b-da, 5, 3, 2, 2, 195, 120, 120, 195, 190, 117, 2, 0.450554
270, 1, wb, filler, NA, 999, 999, 2, 3, 138, 68, 110, 181, 122, 140, 1, 1.07034
270, 1, wb, filler, NA, 999, 999, 2, 3, 138, 68, 110, 181, 122, 140, 2, 0.450673
270, 1, wb, attraction, a-b-da, 9, 3, 2, 4, 186, 114, 120, 195, 195, 120, 3, 1.18242
270, 1, wb, attraction, a-b-da, 9, 3, 2, 4, 186, 114, 120, 195, 195, 120, 2, 0.886121
270, 1, wb, attraction, a-b-da, 9, 2, 2, 5, 157, 86, 90, 165, 165, 90, 1, 1.95231
270, 1, wb, attraction, a-b-da, 9, 2, 2, 5, 157, 86, 90, 165, 165, 90, 2, 0.705064
270, 1, wb, catch, NA, 999, 999, 2, 6, 122, 133, 193, 122, 112, 83, 3, 1.21883
270, 1, wb, catch, NA, 999, 999, 2, 6, 122, 133, 193, 122, 112, 83, 2, 0.601145
270, 1, wb, attraction, a-b-da, 9, 1, 2, 7, 60, 135, 129, 57, 135, 60, 2, 1.15881
270, 1, wb, attraction, a-b-da, 9, 1, 2, 7, 60, 135, 129, 57, 135, 60, 1, 0.511076
270, 1, wb, attraction, a-b-da, 14, 2, 2, 8, 153, 83, 165, 90, 90, 165, 1, 2.76022
270, 1, wb, attraction, a-b-da, 14, 2, 2, 8, 153, 83, 165, 90, 90, 165, 2, 1.55198
270, 1, wb, attraction, a-b-da, 5, 1, 2, 9, 60, 135, 135, 60, 132, 58, 2, 2.27951
270, 1, wb, attraction, a-b-da, 5, 1, 2, 9, 60, 135, 135, 60, 132, 58, 1, 0.690727
270, 1, wb, filler, NA, 999, 999, 2, 10, 113, 113, 113, 75, 126, 69, 2, 1.23654
270, 1, wb, filler, NA, 999, 999, 2, 10, 113, 113, 113, 75, 126, 69, 1, 0.946144
270, 1, wb, catch, NA, 999, 999, 2, 11, 97, 158, 120, 75, 138, 177, 2, 1.46573
270, 1, wb, catch, NA, 999, 999, 2, 11, 97, 158, 120, 75, 138, 177, 3, 0.765778
270, 1, wb, attraction, a-b-db, 2, 3, 2, 12, 195, 120, 120, 195, 119, 193, 3, 1.46887
270, 1, wb, attraction, a-b-db, 2, 3, 2, 12, 195, 120, 120, 195, 119, 193, 1, 0.537081
270, 1, wb, attraction, a-b-db, 14, 1, 2, 13, 56, 125, 135, 60, 60, 135, 1, 2.20158
270, 1, wb, attraction, a-b-db, 14, 1, 2, 13, 56, 125, 135, 60, 60, 135, 3, 0.584221
270, 1, wb, filler, NA, 999, 999, 2, 14, 158, 170, 184, 116, 172, 118, 3, 1.35858
270, 1, wb, filler, NA, 999, 999, 2, 14, 158, 170, 184, 116, 172, 118, 1, 0.54281
270, 1, wb, attraction, a-b-da, 2, 1, 2, 15, 134, 59, 135, 60, 60, 135, 1, 2.48658
270, 1, wb, attraction, a-b-da, 2, 1, 2, 15, 134, 59, 135, 60, 60, 135, 2, 0.55373
270, 1, wb, attraction, a-b-da, 14, 1, 2, 16, 135, 60, 125, 56, 60, 135, 2, 1.20155
270, 1, wb, attraction, a-b-da, 14, 1, 2, 16, 135, 60, 125, 56, 60, 135, 3, 1.01643
270, 1, wb, filler, NA, 999, 999, 2, 17, 73, 184, 137, 147, 193, 119, 1, 1.72545
270, 1, wb, filler, NA, 999, 999, 2, 17, 73, 184, 137, 147, 193, 119, 2, 0.550811
270, 1, wb, attraction, a-b-db, 9, 1, 2, 18, 135, 60, 57, 129, 60, 135, 2, 4.04671
270, 1, wb, attraction, a-b-db, 9, 1, 2, 18, 135, 60, 57, 129, 60, 135, 3, 0.71461
270, 1, wb, attraction, a-b-da, 5, 2, 2, 19, 165, 90, 161, 88, 90, 165, 2, 0.955688
270, 1, wb, attraction, a-b-da, 5, 2, 2, 19, 165, 90, 161, 88, 90, 165, 1, 0.572059
270, 1, wb, attraction, a-b-da, 2, 2, 2, 20, 90, 165, 163, 89, 165, 90, 2, 2.22721
270, 1, wb, attraction, a-b-da, 2, 2, 2, 20, 90, 165, 163, 89, 165, 90, 1, 0.512408
270, 1, wb, filler, NA, 999, 999, 2, 21, 142, 177, 189, 146, 73, 123, 3, 0.665605
270, 1, wb, filler, NA, 999, 999, 2, 21, 142, 177, 189, 146, 73, 123, 2, 0.870038
270, 1, wb, filler, NA, 999, 999, 2, 22, 150, 166, 178, 166, 142, 112, 3, 1.07307
270, 1, wb, filler, NA, 999, 999, 2, 22, 150, 166, 178, 166, 142, 112, 2, 0.524738
270, 1, wb, filler, NA, 999, 999, 2, 23, 132, 195, 92, 145, 72, 182, 2, 1.76524
270, 1, wb, filler, NA, 999, 999, 2, 23, 132, 195, 92, 145, 72, 182, 1, 0.597066
270, 1, wb, attraction, a-b-db, 2, 1, 2, 24, 59, 134, 135, 60, 60, 135, 2, 1.95482
270, 1, wb, attraction, a-b-db, 2, 1, 2, 24, 59, 134, 135, 60, 60, 135, 3, 0.515738
270, 1, wb, attraction, a-b-db, 5, 3, 2, 25, 117, 190, 120, 195, 195, 120, 3, 1.50874
270, 1, wb, attraction, a-b-db, 5, 3, 2, 25, 117, 190, 120, 195, 195, 120, 2, 0.422876
270, 1, wb, attraction, a-b-db, 14, 3, 2, 26, 195, 120, 111, 181, 120, 195, 3, 1.32411
270, 1, wb, attraction, a-b-db, 14, 3, 2, 26, 195, 120, 111, 181, 120, 195, 1, 0.381637
270, 1, wb, filler, NA, 999, 999, 2, 27, 66, 170, 188, 98, 132, 175, 1, 0.836081
270, 1, wb, filler, NA, 999, 999, 2, 27, 66, 170, 188, 98, 132, 175, 3, 0.401784
270, 1, wb, attraction, a-b-db, 5, 2, 2, 28, 88, 161, 90, 165, 165, 90, 1, 1.15959
270, 1, wb, attraction, a-b-db, 5, 2, 2, 28, 88, 161, 90, 165, 165, 90, 3, 0.663908
270, 1, wb, catch, NA, 999, 999, 2, 29, 134, 61, 145, 110, 175, 140, 1, 0.682873
270, 1, wb, catch, NA, 999, 999, 2, 29, 134, 61, 145, 110, 175, 140, 3, 0.638717
270, 1, wb, attraction, a-b-da, 2, 3, 2, 30, 195, 120, 193, 119, 120, 195, 1, 2.68311
270, 1, wb, attraction, a-b-da, 2, 3, 2, 30, 195, 120, 193, 119, 120, 195, 3, 0.470242
270, 1, wb, filler, NA, 999, 999, 2, 31, 149, 65, 139, 98, 95, 103, 3, 0.76143
270, 1, wb, filler, NA, 999, 999, 2, 31, 149, 65, 139, 98, 95, 103, 2, 1.10589
270, 1, wb, attraction, a-b-db, 14, 2, 2, 32, 90, 165, 165, 90, 83, 153, 3, 1.76341
270, 1, wb, attraction, a-b-db, 14, 2, 2, 32, 90, 165, 165, 90, 83, 153, 1, 0.587461
270, 1, wb, attraction, a-b-da, 14, 3, 2, 33, 120, 195, 195, 120, 181, 111, 3, 1.56191
270, 1, wb, attraction, a-b-da, 14, 3, 2, 33, 120, 195, 195, 120, 181, 111, 1, 0.426089
270, 1, wb, filler, NA, 999, 999, 2, 34, 162, 88, 164, 155, 60, 170, 3, 0.822504
270, 1, wb, filler, NA, 999, 999, 2, 34, 162, 88, 164, 155, 60, 170, 2, 0.796366
270, 1, wb, attraction, a-b-db, 2, 2, 2, 35, 90, 165, 89, 163, 165, 90, 1, 1.16194
270, 1, wb, attraction, a-b-db, 2, 2, 2, 35, 90, 165, 89, 163, 165, 90, 2, 1.71427
270, 1, wb, attraction, a-b-db, 9, 2, 2, 36, 86, 157, 90, 165, 165, 90, 1, 1.40304
270, 1, wb, attraction, a-b-db, 9, 2, 2, 36, 86, 157, 90, 165, 165, 90, 2, 0.313956
270, 1, wb, attraction, a-b-db, 5, 1, 2, 37, 60, 135, 135, 60, 58, 132, 2, 2.45094
270, 1, wb, attraction, a-b-db, 5, 1, 2, 37, 60, 135, 135, 60, 58, 132, 1, 0.783513
270, 1, wb, attraction, a-b-db, 14, 3, 3, 1, 111, 181, 195, 120, 120, 195, 1, 1.37389
270, 1, wb, attraction, a-b-db, 14, 3, 3, 1, 111, 181, 195, 120, 120, 195, 3, 0.373604
270, 1, wb, attraction, a-b-db, 14, 1, 3, 2, 56, 125, 60, 135, 135, 60, 1, 1.14788
270, 1, wb, attraction, a-b-db, 14, 1, 3, 2, 56, 125, 60, 135, 135, 60, 2, 0.860875
270, 1, wb, filler, NA, 999, 999, 3, 3, 169, 106, 123, 183, 161, 148, 1, 0.863949
270, 1, wb, filler, NA, 999, 999, 3, 3, 169, 106, 123, 183, 161, 148, 2, 1.0603
270, 1, wb, attraction, a-b-da, 9, 2, 3, 4, 165, 90, 157, 86, 90, 165, 2, 1.98327
270, 1, wb, attraction, a-b-da, 9, 2, 3, 4, 165, 90, 157, 86, 90, 165, 1, 0.318464
270, 1, wb, attraction, a-b-da, 9, 3, 3, 5, 195, 120, 120, 195, 186, 114, 3, 1.20792
270, 1, wb, attraction, a-b-da, 9, 3, 3, 5, 195, 120, 120, 195, 186, 114, 1, 0.781917
270, 1, wb, filler, NA, 999, 999, 3, 6, 97, 144, 187, 194, 180, 64, 3, 1.18831
270, 1, wb, filler, NA, 999, 999, 3, 6, 97, 144, 187, 194, 180, 64, 2, 1.63534
270, 1, wb, filler, NA, 999, 999, 3, 7, 182, 110, 149, 154, 141, 71, 3, 0.951303
270, 1, wb, filler, NA, 999, 999, 3, 7, 182, 110, 149, 154, 141, 71, 2, 0.456441
270, 1, wb, attraction, a-b-da, 2, 1, 3, 8, 60, 135, 135, 60, 134, 59, 1, 1.03623
270, 1, wb, attraction, a-b-da, 2, 1, 3, 8, 60, 135, 135, 60, 134, 59, 3, 1.05796
270, 1, wb, filler, NA, 999, 999, 3, 9, 149, 66, 177, 162, 99, 109, 3, 1.6527
270, 1, wb, filler, NA, 999, 999, 3, 9, 149, 66, 177, 162, 99, 109, 2, 0.449713
270, 1, wb, attraction, a-b-da, 5, 3, 3, 10, 120, 195, 190, 117, 195, 120, 3, 6.62138
270, 1, wb, attraction, a-b-da, 5, 3, 3, 10, 120, 195, 190, 117, 195, 120, 1, 0.609866
270, 1, wb, catch, NA, 999, 999, 3, 11, 140, 175, 159, 96, 119, 76, 3, 1.23911
270, 1, wb, catch, NA, 999, 999, 3, 11, 140, 175, 159, 96, 119, 76, 1, 0.579966
270, 1, wb, filler, NA, 999, 999, 3, 12, 61, 188, 150, 195, 166, 73, 1, 0.914294
270, 1, wb, filler, NA, 999, 999, 3, 12, 61, 188, 150, 195, 166, 73, 2, 0.276687
270, 1, wb, attraction, a-b-db, 2, 2, 3, 13, 89, 163, 90, 165, 165, 90, 2, 1.30382
270, 1, wb, attraction, a-b-db, 2, 2, 3, 13, 89, 163, 90, 165, 165, 90, 1, 1.11414
270, 1, wb, attraction, a-b-db, 9, 3, 3, 14, 114, 186, 120, 195, 195, 120, 3, 1.25905
270, 1, wb, attraction, a-b-db, 9, 3, 3, 14, 114, 186, 120, 195, 195, 120, 2, 0.343325
270, 1, wb, attraction, a-b-da, 5, 1, 3, 15, 132, 58, 135, 60, 60, 135, 1, 2.65522
270, 1, wb, attraction, a-b-da, 5, 1, 3, 15, 132, 58, 135, 60, 60, 135, 2, 0.523595
270, 1, wb, attraction, a-b-db, 5, 3, 3, 16, 195, 120, 120, 195, 117, 190, 1, 0.668224
270, 1, wb, attraction, a-b-db, 5, 3, 3, 16, 195, 120, 120, 195, 117, 190, 3, 1.07247
270, 1, wb, attraction, a-b-db, 5, 1, 3, 17, 135, 60, 58, 132, 60, 135, 3, 1.28353
270, 1, wb, attraction, a-b-db, 5, 1, 3, 17, 135, 60, 58, 132, 60, 135, 2, 0.68696
270, 1, wb, catch, NA, 999, 999, 3, 18, 96, 159, 153, 162, 74, 121, 3, 1.41744
270, 1, wb, catch, NA, 999, 999, 3, 18, 96, 159, 153, 162, 74, 121, 2, 0.383649
270, 1, wb, attraction, a-b-db, 9, 1, 3, 19, 60, 135, 135, 60, 57, 129, 2, 1.24612
270, 1, wb, attraction, a-b-db, 9, 1, 3, 19, 60, 135, 135, 60, 57, 129, 3, 0.811166
270, 1, wb, attraction, a-b-db, 5, 2, 3, 20, 88, 161, 90, 165, 165, 90, 3, 1.848
270, 1, wb, attraction, a-b-db, 5, 2, 3, 20, 88, 161, 90, 165, 165, 90, 2, 0.700857
270, 1, wb, attraction, a-b-da, 2, 2, 3, 21, 165, 90, 90, 165, 163, 89, 1, 1.26269
270, 1, wb, attraction, a-b-da, 2, 2, 3, 21, 165, 90, 90, 165, 163, 89, 2, 0.386714
270, 1, wb, filler, NA, 999, 999, 3, 22, 185, 141, 64, 107, 90, 193, 2, 0.921265
270, 1, wb, filler, NA, 999, 999, 3, 22, 185, 141, 64, 107, 90, 193, 1, 0.379699
270, 1, wb, attraction, a-b-da, 5, 2, 3, 23, 165, 90, 90, 165, 161, 88, 3, 1.05009
270, 1, wb, attraction, a-b-da, 5, 2, 3, 23, 165, 90, 90, 165, 161, 88, 2, 0.679029
270, 1, wb, attraction, a-b-da, 14, 3, 3, 24, 195, 120, 181, 111, 120, 195, 2, 2.26544
270, 1, wb, attraction, a-b-da, 14, 3, 3, 24, 195, 120, 181, 111, 120, 195, 3, 0.605384
270, 1, wb, catch, NA, 999, 999, 3, 25, 132, 63, 151, 104, 137, 178, 1, 0.835151
270, 1, wb, catch, NA, 999, 999, 3, 25, 132, 63, 151, 104, 137, 178, 3, 0.384921
270, 1, wb, filler, NA, 999, 999, 3, 26, 90, 110, 66, 192, 71, 69, 3, 0.783286
270, 1, wb, filler, NA, 999, 999, 3, 26, 90, 110, 66, 192, 71, 69, 1, 0.599164
270, 1, wb, attraction, a-b-db, 2, 3, 3, 27, 120, 195, 119, 193, 195, 120, 3, 2.81277
270, 1, wb, attraction, a-b-db, 2, 3, 3, 27, 120, 195, 119, 193, 195, 120, 2, 1.2986
270, 1, wb, attraction, a-b-da, 9, 1, 3, 28, 60, 135, 129, 57, 135, 60, 2, 1.54009
270, 1, wb, attraction, a-b-da, 9, 1, 3, 28, 60, 135, 129, 57, 135, 60, 1, 0.757149
270, 1, wb, attraction, a-b-da, 14, 1, 3, 29, 135, 60, 125, 56, 60, 135, 2, 1.44404
270, 1, wb, attraction, a-b-da, 14, 1, 3, 29, 135, 60, 125, 56, 60, 135, 1, 0.568825
270, 1, wb, filler, NA, 999, 999, 3, 30, 114, 106, 163, 181, 102, 133, 3, 0.807963
270, 1, wb, filler, NA, 999, 999, 3, 30, 114, 106, 163, 181, 102, 133, 2, 0.494497
270, 1, wb, attraction, a-b-db, 9, 2, 3, 31, 165, 90, 86, 157, 90, 165, 3, 2.31223
270, 1, wb, attraction, a-b-db, 9, 2, 3, 31, 165, 90, 86, 157, 90, 165, 1, 0.5301
270, 1, wb, attraction, a-b-db, 2, 1, 3, 32, 135, 60, 60, 135, 59, 134, 1, 1.16248
270, 1, wb, attraction, a-b-db, 2, 1, 3, 32, 135, 60, 60, 135, 59, 134, 2, 2.08291
270, 1, wb, filler, NA, 999, 999, 3, 33, 154, 95, 104, 169, 184, 76, 1, 1.09265
270, 1, wb, filler, NA, 999, 999, 3, 33, 154, 95, 104, 169, 184, 76, 2, 0.83961
270, 1, wb, attraction, a-b-da, 14, 2, 3, 34, 90, 165, 153, 83, 165, 90, 3, 1.49191
270, 1, wb, attraction, a-b-da, 14, 2, 3, 34, 90, 165, 153, 83, 165, 90, 1, 0.415062
270, 1, wb, filler, NA, 999, 999, 3, 35, 63, 75, 73, 102, 160, 175, 1, 0.715999
270, 1, wb, filler, NA, 999, 999, 3, 35, 63, 75, 73, 102, 160, 175, 3, 0.390417
270, 1, wb, attraction, a-b-da, 2, 3, 3, 36, 193, 119, 120, 195, 195, 120, 3, 1.14827
270, 1, wb, attraction, a-b-da, 2, 3, 3, 36, 193, 119, 120, 195, 195, 120, 2, 0.693183
270, 1, wb, attraction, a-b-db, 14, 2, 3, 37, 165, 90, 83, 153, 90, 165, 3, 1.29492
270, 1, wb, attraction, a-b-db, 14, 2, 3, 37, 165, 90, 83, 153, 90, 165, 1, 0.421073
270, 1, wb, attraction, a-b-db, 9, 1, 4, 1, 135, 60, 57, 129, 60, 135, 2, 1.455
270, 1, wb, attraction, a-b-db, 9, 1, 4, 1, 135, 60, 57, 129, 60, 135, 3, 1.59518
270, 1, wb, attraction, a-b-db, 9, 2, 4, 2, 165, 90, 90, 165, 86, 157, 1, 0.872572
270, 1, wb, attraction, a-b-db, 9, 2, 4, 2, 165, 90, 90, 165, 86, 157, 2, 0.644217
270, 1, wb, catch, NA, 999, 999, 4, 3, 123, 192, 91, 164, 88, 107, 3, 0.807971
270, 1, wb, catch, NA, 999, 999, 4, 3, 123, 192, 91, 164, 88, 107, 1, 0.358463
270, 1, wb, filler, NA, 999, 999, 4, 4, 133, 76, 165, 128, 169, 62, 1, 0.733656
270, 1, wb, filler, NA, 999, 999, 4, 4, 133, 76, 165, 128, 169, 62, 2, 0.29536
270, 1, wb, attraction, a-b-da, 2, 1, 4, 5, 134, 59, 60, 135, 135, 60, 1, 1.13725
270, 1, wb, attraction, a-b-da, 2, 1, 4, 5, 134, 59, 60, 135, 135, 60, 2, 0.490856
270, 1, wb, attraction, a-b-da, 14, 1, 4, 6, 125, 56, 135, 60, 60, 135, 1, 0.716559
270, 1, wb, attraction, a-b-da, 14, 1, 4, 6, 125, 56, 135, 60, 60, 135, 2, 0.398959
270, 1, wb, attraction, a-b-db, 2, 2, 4, 7, 165, 90, 89, 163, 90, 165, 3, 2.22896
270, 1, wb, attraction, a-b-db, 2, 2, 4, 7, 165, 90, 89, 163, 90, 165, 2, 0.786072
270, 1, wb, filler, NA, 999, 999, 4, 8, 187, 146, 173, 168, 79, 102, 3, 0.760579
270, 1, wb, filler, NA, 999, 999, 4, 8, 187, 146, 173, 168, 79, 102, 2, 1.63292
270, 1, wb, attraction, a-b-da, 9, 3, 4, 9, 195, 120, 120, 195, 186, 114, 3, 1.54429
270, 1, wb, attraction, a-b-da, 9, 3, 4, 9, 195, 120, 120, 195, 186, 114, 2, 0.637737
270, 1, wb, attraction, a-b-db, 9, 3, 4, 10, 114, 186, 120, 195, 195, 120, 1, 0.802133
270, 1, wb, attraction, a-b-db, 9, 3, 4, 10, 114, 186, 120, 195, 195, 120, 2, 0.321197
270, 1, wb, attraction, a-b-da, 9, 1, 4, 11, 129, 57, 60, 135, 135, 60, 1, 0.714362
270, 1, wb, attraction, a-b-da, 9, 1, 4, 11, 129, 57, 60, 135, 135, 60, 2, 1.00491
270, 1, wb, attraction, a-b-da, 14, 3, 4, 12, 120, 195, 195, 120, 181, 111, 1, 1.05045
270, 1, wb, attraction, a-b-da, 14, 3, 4, 12, 120, 195, 195, 120, 181, 111, 2, 1.55951
270, 1, wb, attraction, a-b-db, 14, 3, 4, 13, 111, 181, 195, 120, 120, 195, 1, 1.21434
270, 1, wb, attraction, a-b-db, 14, 3, 4, 13, 111, 181, 195, 120, 120, 195, 3, 0.724595
270, 1, wb, filler, NA, 999, 999, 4, 14, 138, 64, 74, 182, 90, 168, 1, 1.93293
270, 1, wb, filler, NA, 999, 999, 4, 14, 138, 64, 74, 182, 90, 168, 3, 0.574258
270, 1, wb, attraction, a-b-db, 14, 2, 4, 15, 165, 90, 83, 153, 90, 165, 1, 1.05258
270, 1, wb, attraction, a-b-db, 14, 2, 4, 15, 165, 90, 83, 153, 90, 165, 2, 0.953849
270, 1, wb, attraction, a-b-da, 2, 3, 4, 16, 195, 120, 120, 195, 193, 119, 3, 1.76928
270, 1, wb, attraction, a-b-da, 2, 3, 4, 16, 195, 120, 120, 195, 193, 119, 2, 0.433417
270, 1, wb, catch, NA, 999, 999, 4, 17, 129, 126, 122, 193, 101, 94, 3, 0.701856
270, 1, wb, catch, NA, 999, 999, 4, 17, 129, 126, 122, 193, 101, 94, 2, 0.408964
270, 1, wb, catch, NA, 999, 999, 4, 18, 154, 161, 107, 148, 119, 76, 3, 1.12616
270, 1, wb, catch, NA, 999, 999, 4, 18, 154, 161, 107, 148, 119, 76, 1, 0.719731
270, 1, wb, attraction, a-b-da, 14, 2, 4, 19, 90, 165, 165, 90, 153, 83, 2, 1.47284
270, 1, wb, attraction, a-b-da, 14, 2, 4, 19, 90, 165, 165, 90, 153, 83, 1, 1.00428
270, 1, wb, attraction, a-b-da, 5, 1, 4, 20, 132, 58, 135, 60, 60, 135, 1, 1.69797
270, 1, wb, attraction, a-b-da, 5, 1, 4, 20, 132, 58, 135, 60, 60, 135, 3, 1.02071
270, 1, wb, attraction, a-b-da, 9, 2, 4, 21, 90, 165, 165, 90, 157, 86, 3, 2.6497
270, 1, wb, attraction, a-b-da, 9, 2, 4, 21, 90, 165, 165, 90, 157, 86, 1, 0.718217
270, 1, wb, filler, NA, 999, 999, 4, 22, 125, 134, 85, 139, 105, 71, 3, 0.991156
270, 1, wb, filler, NA, 999, 999, 4, 22, 125, 134, 85, 139, 105, 71, 1, 0.51009
270, 1, wb, filler, NA, 999, 999, 4, 23, 145, 180, 154, 171, 73, 132, 1, 2.23974
270, 1, wb, filler, NA, 999, 999, 4, 23, 145, 180, 154, 171, 73, 132, 2, 1.85187
270, 1, wb, attraction, a-b-db, 14, 1, 4, 24, 60, 135, 135, 60, 56, 125, 1, 1.58327
270, 1, wb, attraction, a-b-db, 14, 1, 4, 24, 60, 135, 135, 60, 56, 125, 2, 0.886664
270, 1, wb, filler, NA, 999, 999, 4, 25, 106, 140, 191, 165, 69, 144, 3, 1.67305
270, 1, wb, filler, NA, 999, 999, 4, 25, 106, 140, 191, 165, 69, 144, 2, 0.308477
270, 1, wb, attraction, a-b-db, 5, 1, 4, 26, 135, 60, 58, 132, 60, 135, 3, 1.52567
270, 1, wb, attraction, a-b-db, 5, 1, 4, 26, 135, 60, 58, 132, 60, 135, 1, 0.559203
270, 1, wb, filler, NA, 999, 999, 4, 27, 123, 85, 110, 149, 115, 106, 1, 0.830338
270, 1, wb, filler, NA, 999, 999, 4, 27, 123, 85, 110, 149, 115, 106, 2, 0.668002
270, 1, wb, attraction, a-b-db, 2, 1, 4, 28, 60, 135, 59, 134, 135, 60, 2, 1.3591
270, 1, wb, attraction, a-b-db, 2, 1, 4, 28, 60, 135, 59, 134, 135, 60, 1, 0.951334
270, 1, wb, attraction, a-b-da, 2, 2, 4, 29, 165, 90, 90, 165, 163, 89, 3, 1.63086
270, 1, wb, attraction, a-b-da, 2, 2, 4, 29, 165, 90, 90, 165, 163, 89, 2, 0.524328
270, 1, wb, attraction, a-b-db, 5, 2, 4, 30, 90, 165, 88, 161, 165, 90, 2, 0.764805
270, 1, wb, attraction, a-b-db, 5, 2, 4, 30, 90, 165, 88, 161, 165, 90, 3, 0.405285
270, 1, wb, attraction, a-b-da, 5, 2, 4, 31, 165, 90, 161, 88, 90, 165, 2, 0.827088
270, 1, wb, attraction, a-b-da, 5, 2, 4, 31, 165, 90, 161, 88, 90, 165, 3, 0.344711
270, 1, wb, attraction, a-b-da, 5, 3, 4, 32, 120, 195, 195, 120, 190, 117, 1, 1.16057
270, 1, wb, attraction, a-b-da, 5, 3, 4, 32, 120, 195, 195, 120, 190, 117, 3, 0.51308
270, 1, wb, filler, NA, 999, 999, 4, 33, 136, 139, 127, 176, 63, 97, 3, 0.865936
270, 1, wb, filler, NA, 999, 999, 4, 33, 136, 139, 127, 176, 63, 97, 2, 0.310312
270, 1, wb, attraction, a-b-db, 5, 3, 4, 34, 120, 195, 117, 190, 195, 120, 1, 0.735528
270, 1, wb, attraction, a-b-db, 5, 3, 4, 34, 120, 195, 117, 190, 195, 120, 3, 0.457233
270, 1, wb, attraction, a-b-db, 2, 3, 4, 35, 119, 193, 195, 120, 120, 195, 2, 0.980378
270, 1, wb, attraction, a-b-db, 2, 3, 4, 35, 119, 193, 195, 120, 120, 195, 3, 0.524089
270, 1, wb, filler, NA, 999, 999, 4, 36, 169, 100, 189, 73, 126, 178, 2, 0.596475
270, 1, wb, filler, NA, 999, 999, 4, 36, 169, 100, 189, 73, 126, 178, 3, 0.371593
270, 1, wb, filler, NA, 999, 999, 4, 37, 85, 70, 135, 94, 80, 159, 1, 0.82671
270, 1, wb, filler, NA, 999, 999, 4, 37, 85, 70, 135, 94, 80, 159, 3, 1.22467
270, 1, wb, filler, NA, 999, 999, 5, 1, 128, 80, 191, 153, 175, 82, 1, 1.6993
270, 1, wb, filler, NA, 999, 999, 5, 1, 128, 80, 191, 153, 175, 82, 2, 0.475967
270, 1, wb, attraction, a-b-db, 14, 3, 5, 2, 120, 195, 111, 181, 195, 120, 3, 1.21656
270, 1, wb, attraction, a-b-db, 14, 3, 5, 2, 120, 195, 111, 181, 195, 120, 1, 0.702838
270, 1, wb, catch, NA, 999, 999, 5, 3, 114, 141, 104, 91, 176, 139, 2, 0.752661
270, 1, wb, catch, NA, 999, 999, 5, 3, 114, 141, 104, 91, 176, 139, 3, 0.329695
270, 1, wb, filler, NA, 999, 999, 5, 4, 159, 171, 104, 83, 172, 84, 2, 0.466145
270, 1, wb, filler, NA, 999, 999, 5, 4, 159, 171, 104, 83, 172, 84, 1, 0.310628
270, 1, wb, attraction, a-b-db, 5, 2, 5, 5, 88, 161, 165, 90, 90, 165, 1, 1.3838
270, 1, wb, attraction, a-b-db, 5, 2, 5, 5, 88, 161, 165, 90, 90, 165, 2, 0.935282
270, 1, wb, attraction, a-b-da, 14, 1, 5, 6, 135, 60, 60, 135, 125, 56, 3, 1.52786
270, 1, wb, attraction, a-b-da, 14, 1, 5, 6, 135, 60, 60, 135, 125, 56, 2, 0.449122
270, 1, wb, attraction, a-b-da, 14, 3, 5, 7, 195, 120, 120, 195, 181, 111, 3, 1.405
270, 1, wb, attraction, a-b-da, 14, 3, 5, 7, 195, 120, 120, 195, 181, 111, 2, 0.3559
270, 1, wb, filler, NA, 999, 999, 5, 8, 62, 194, 165, 195, 67, 140, 3, 1.15572
270, 1, wb, filler, NA, 999, 999, 5, 8, 62, 194, 165, 195, 67, 140, 2, 0.307905
270, 1, wb, attraction, a-b-da, 5, 2, 5, 9, 165, 90, 161, 88, 90, 165, 2, 0.893169
270, 1, wb, attraction, a-b-da, 5, 2, 5, 9, 165, 90, 161, 88, 90, 165, 3, 0.328158
270, 1, wb, catch, NA, 999, 999, 5, 10, 74, 121, 160, 155, 105, 150, 1, 0.504676
270, 1, wb, catch, NA, 999, 999, 5, 10, 74, 121, 160, 155, 105, 150, 2, 0.227211
270, 1, wb, filler, NA, 999, 999, 5, 11, 127, 99, 71, 166, 93, 98, 3, 0.935698
270, 1, wb, filler, NA, 999, 999, 5, 11, 127, 99, 71, 166, 93, 98, 1, 0.441392
270, 1, wb, attraction, a-b-da, 9, 2, 5, 12, 90, 165, 157, 86, 165, 90, 2, 0.589179
270, 1, wb, attraction, a-b-da, 9, 2, 5, 12, 90, 165, 157, 86, 165, 90, 3, 0.2683
270, 1, wb, attraction, a-b-db, 14, 1, 5, 13, 56, 125, 60, 135, 135, 60, 1, 0.439458
270, 1, wb, attraction, a-b-db, 14, 1, 5, 13, 56, 125, 60, 135, 135, 60, 2, 0.84466
270, 1, wb, attraction, a-b-db, 14, 2, 5, 14, 165, 90, 90, 165, 83, 153, 3, 0.968451
270, 1, wb, attraction, a-b-db, 14, 2, 5, 14, 165, 90, 90, 165, 83, 153, 1, 0.51274
270, 1, wb, filler, NA, 999, 999, 5, 15, 133, 174, 62, 61, 88, 100, 2, 0.777705
270, 1, wb, filler, NA, 999, 999, 5, 15, 133, 174, 62, 61, 88, 100, 1, 0.3136
270, 1, wb, filler, NA, 999, 999, 5, 16, 79, 138, 74, 126, 188, 168, 2, 1.02677
270, 1, wb, filler, NA, 999, 999, 5, 16, 79, 138, 74, 126, 188, 168, 3, 0.320412
270, 1, wb, catch, NA, 999, 999, 5, 17, 172, 143, 162, 93, 126, 69, 3, 0.681662
270, 1, wb, catch, NA, 999, 999, 5, 17, 172, 143, 162, 93, 126, 69, 1, 0.277306
270, 1, wb, attraction, a-b-db, 9, 3, 5, 18, 114, 186, 120, 195, 195, 120, 1, 1.12786
270, 1, wb, attraction, a-b-db, 9, 3, 5, 18, 114, 186, 120, 195, 195, 120, 2, 0.897319
270, 1, wb, filler, NA, 999, 999, 5, 19, 81, 172, 57, 92, 172, 86, 2, 0.715057
270, 1, wb, filler, NA, 999, 999, 5, 19, 81, 172, 57, 92, 172, 86, 3, 0.277565
270, 1, wb, attraction, a-b-db, 9, 1, 5, 20, 60, 135, 57, 129, 135, 60, 2, 0.816001
270, 1, wb, attraction, a-b-db, 9, 1, 5, 20, 60, 135, 57, 129, 135, 60, 3, 0.494331
270, 1, wb, attraction, a-b-da, 14, 2, 5, 21, 153, 83, 165, 90, 90, 165, 1, 1.14419
270, 1, wb, attraction, a-b-da, 14, 2, 5, 21, 153, 83, 165, 90, 90, 165, 2, 0.395371
270, 1, wb, attraction, a-b-db, 2, 2, 5, 22, 165, 90, 90, 165, 89, 163, 1, 1.06296
270, 1, wb, attraction, a-b-db, 2, 2, 5, 22, 165, 90, 90, 165, 89, 163, 2, 0.6353
270, 1, wb, attraction, a-b-da, 2, 1, 5, 23, 134, 59, 60, 135, 135, 60, 1, 0.823674
270, 1, wb, attraction, a-b-da, 2, 1, 5, 23, 134, 59, 60, 135, 135, 60, 2, 0.597346
270, 1, wb, attraction, a-b-da, 5, 1, 5, 24, 135, 60, 60, 135, 132, 58, 3, 0.947263
270, 1, wb, attraction, a-b-da, 5, 1, 5, 24, 135, 60, 60, 135, 132, 58, 2, 0.588244
270, 1, wb, attraction, a-b-da, 2, 3, 5, 25, 195, 120, 193, 119, 120, 195, 3, 1.68259
270, 1, wb, attraction, a-b-da, 2, 3, 5, 25, 195, 120, 193, 119, 120, 195, 2, 0.758115
270, 1, wb, attraction, a-b-db, 2, 3, 5, 26, 119, 193, 195, 120, 120, 195, 2, 1.57306
270, 1, wb, attraction, a-b-db, 2, 3, 5, 26, 119, 193, 195, 120, 120, 195, 1, 0.380483
270, 1, wb, attraction, a-b-da, 2, 2, 5, 27, 163, 89, 165, 90, 90, 165, 1, 1.28314
270, 1, wb, attraction, a-b-da, 2, 2, 5, 27, 163, 89, 165, 90, 90, 165, 2, 0.374571
270, 1, wb, filler, NA, 999, 999, 5, 28, 173, 81, 138, 154, 192, 155, 1, 0.677054
270, 1, wb, filler, NA, 999, 999, 5, 28, 173, 81, 138, 154, 192, 155, 3, 0.288961
270, 1, wb, filler, NA, 999, 999, 5, 29, 170, 86, 150, 98, 78, 181, 2, 1.17135
270, 1, wb, filler, NA, 999, 999, 5, 29, 170, 86, 150, 98, 78, 181, 1, 1.16293
270, 1, wb, attraction, a-b-db, 5, 1, 5, 30, 60, 135, 135, 60, 58, 132, 2, 0.857855
270, 1, wb, attraction, a-b-db, 5, 1, 5, 30, 60, 135, 135, 60, 58, 132, 3, 0.782256
270, 1, wb, attraction, a-b-db, 5, 3, 5, 31, 195, 120, 120, 195, 117, 190, 1, 1.76461
270, 1, wb, attraction, a-b-db, 5, 3, 5, 31, 195, 120, 120, 195, 117, 190, 2, 0.796686
270, 1, wb, filler, NA, 999, 999, 5, 32, 110, 91, 187, 100, 151, 117, 1, 0.770334
270, 1, wb, filler, NA, 999, 999, 5, 32, 110, 91, 187, 100, 151, 117, 3, 0.490785
270, 1, wb, attraction, a-b-da, 9, 3, 5, 33, 195, 120, 186, 114, 120, 195, 1, 1.18871
270, 1, wb, attraction, a-b-da, 9, 3, 5, 33, 195, 120, 186, 114, 120, 195, 3, 0.315516
270, 1, wb, attraction, a-b-db, 2, 1, 5, 34, 60, 135, 59, 134, 135, 60, 3, 1.35668
270, 1, wb, attraction, a-b-db, 2, 1, 5, 34, 60, 135, 59, 134, 135, 60, 2, 0.661002
270, 1, wb, attraction, a-b-da, 5, 3, 5, 35, 190, 117, 195, 120, 120, 195, 1, 1.31994
270, 1, wb, attraction, a-b-da, 5, 3, 5, 35, 190, 117, 195, 120, 120, 195, 2, 0.346244
270, 1, wb, attraction, a-b-da, 9, 1, 5, 36, 135, 60, 129, 57, 60, 135, 1, 1.12218
270, 1, wb, attraction, a-b-da, 9, 1, 5, 36, 135, 60, 129, 57, 60, 135, 3, 0.387584
270, 1, wb, attraction, a-b-db, 9, 2, 5, 37, 165, 90, 90, 165, 86, 157, 1, 1.55417
270, 1, wb, attraction, a-b-db, 9, 2, 5, 37, 165, 90, 90, 165, 86, 157, 2, 0.330934
270, 1, wb, attraction, a-b-da, 5, 3, 6, 1, 195, 120, 190, 117, 120, 195, 1, 1.09952
270, 1, wb, attraction, a-b-da, 5, 3, 6, 1, 195, 120, 190, 117, 120, 195, 3, 0.414437
270, 1, wb, attraction, a-b-db, 9, 3, 6, 2, 120, 195, 195, 120, 114, 186, 3, 1.4196
270, 1, wb, attraction, a-b-db, 9, 3, 6, 2, 120, 195, 195, 120, 114, 186, 1, 0.92994
270, 1, wb, attraction, a-b-da, 9, 2, 6, 3, 157, 86, 90, 165, 165, 90, 1, 1.69014
270, 1, wb, attraction, a-b-da, 9, 2, 6, 3, 157, 86, 90, 165, 165, 90, 2, 0.524876
270, 1, wb, attraction, a-b-da, 5, 1, 6, 4, 132, 58, 60, 135, 135, 60, 3, 1.25334
270, 1, wb, attraction, a-b-da, 5, 1, 6, 4, 132, 58, 60, 135, 135, 60, 2, 0.714389
270, 1, wb, attraction, a-b-db, 14, 2, 6, 5, 90, 165, 165, 90, 83, 153, 2, 1.07532
270, 1, wb, attraction, a-b-db, 14, 2, 6, 5, 90, 165, 165, 90, 83, 153, 3, 0.534963
270, 1, wb, attraction, a-b-da, 2, 2, 6, 6, 90, 165, 163, 89, 165, 90, 2, 2.11937
270, 1, wb, attraction, a-b-da, 2, 2, 6, 6, 90, 165, 163, 89, 165, 90, 1, 0.377298
270, 1, wb, attraction, a-b-db, 5, 1, 6, 7, 60, 135, 135, 60, 58, 132, 1, 1.16791
270, 1, wb, attraction, a-b-db, 5, 1, 6, 7, 60, 135, 135, 60, 58, 132, 2, 0.280205
270, 1, wb, attraction, a-b-da, 5, 2, 6, 8, 161, 88, 90, 165, 165, 90, 3, 0.922663
270, 1, wb, attraction, a-b-da, 5, 2, 6, 8, 161, 88, 90, 165, 165, 90, 2, 0.380308
270, 1, wb, attraction, a-b-db, 14, 1, 6, 9, 56, 125, 60, 135, 135, 60, 1, 1.32279
270, 1, wb, attraction, a-b-db, 14, 1, 6, 9, 56, 125, 60, 135, 135, 60, 2, 0.540365
270, 1, wb, attraction, a-b-da, 2, 3, 6, 10, 195, 120, 120, 195, 193, 119, 3, 1.95619
270, 1, wb, attraction, a-b-da, 2, 3, 6, 10, 195, 120, 120, 195, 193, 119, 2, 0.652215
270, 1, wb, attraction, a-b-da, 14, 1, 6, 11, 125, 56, 60, 135, 135, 60, 1, 1.60781
270, 1, wb, attraction, a-b-da, 14, 1, 6, 11, 125, 56, 60, 135, 135, 60, 2, 1.97427
270, 1, wb, attraction, a-b-db, 9, 2, 6, 12, 90, 165, 86, 157, 165, 90, 1, 1.03598
270, 1, wb, attraction, a-b-db, 9, 2, 6, 12, 90, 165, 86, 157, 165, 90, 3, 0.545697
270, 1, wb, filler, NA, 999, 999, 6, 13, 165, 82, 193, 164, 183, 144, 1, 0.67343
270, 1, wb, filler, NA, 999, 999, 6, 13, 165, 82, 193, 164, 183, 144, 2, 0.317208
270, 1, wb, attraction, a-b-db, 5, 3, 6, 14, 120, 195, 195, 120, 117, 190, 3, 1.12637
270, 1, wb, attraction, a-b-db, 5, 3, 6, 14, 120, 195, 195, 120, 117, 190, 1, 0.84802
270, 1, wb, filler, NA, 999, 999, 6, 15, 192, 102, 174, 173, 84, 101, 3, 0.603613
270, 1, wb, filler, NA, 999, 999, 6, 15, 192, 102, 174, 173, 84, 101, 2, 0.650779
270, 1, wb, filler, NA, 999, 999, 6, 16, 159, 131, 123, 63, 79, 105, 2, 2.67052
270, 1, wb, filler, NA, 999, 999, 6, 16, 159, 131, 123, 63, 79, 105, 1, 0.442384
270, 1, wb, attraction, a-b-db, 2, 2, 6, 17, 165, 90, 90, 165, 89, 163, 3, 2.36613
270, 1, wb, attraction, a-b-db, 2, 2, 6, 17, 165, 90, 90, 165, 89, 163, 2, 0.829991
270, 1, wb, attraction, a-b-db, 5, 2, 6, 18, 88, 161, 90, 165, 165, 90, 1, 2.03443
270, 1, wb, attraction, a-b-db, 5, 2, 6, 18, 88, 161, 90, 165, 165, 90, 2, 1.28783
270, 1, wb, attraction, a-b-da, 2, 1, 6, 19, 60, 135, 134, 59, 135, 60, 2, 1.81003
270, 1, wb, attraction, a-b-da, 2, 1, 6, 19, 60, 135, 134, 59, 135, 60, 3, 0.49606
270, 1, wb, attraction, a-b-db, 14, 3, 6, 20, 111, 181, 195, 120, 120, 195, 3, 2.02587
270, 1, wb, attraction, a-b-db, 14, 3, 6, 20, 111, 181, 195, 120, 120, 195, 1, 0.519232
270, 1, wb, attraction, a-b-da, 14, 2, 6, 21, 165, 90, 153, 83, 90, 165, 2, 1.44027
270, 1, wb, attraction, a-b-da, 14, 2, 6, 21, 165, 90, 153, 83, 90, 165, 3, 0.50115
270, 1, wb, attraction, a-b-da, 9, 3, 6, 22, 120, 195, 186, 114, 195, 120, 2, 1.03888
270, 1, wb, attraction, a-b-da, 9, 3, 6, 22, 120, 195, 186, 114, 195, 120, 1, 1.03588
270, 1, wb, filler, NA, 999, 999, 6, 23, 110, 127, 128, 151, 69, 59, 3, 0.688153
270, 1, wb, filler, NA, 999, 999, 6, 23, 110, 127, 128, 151, 69, 59, 2, 0.555475
270, 1, wb, filler, NA, 999, 999, 6, 24, 98, 101, 191, 194, 146, 103, 1, 0.986943
270, 1, wb, filler, NA, 999, 999, 6, 24, 98, 101, 191, 194, 146, 103, 2, 0.370718
270, 1, wb, filler, NA, 999, 999, 6, 25, 150, 127, 164, 129, 161, 166, 1, 1.32989
270, 1, wb, filler, NA, 999, 999, 6, 25, 150, 127, 164, 129, 161, 166, 3, 0.635375
270, 1, wb, catch, NA, 999, 999, 6, 26, 103, 92, 124, 131, 120, 195, 1, 0.759939
270, 1, wb, catch, NA, 999, 999, 6, 26, 103, 92, 124, 131, 120, 195, 3, 0.656214
270, 1, wb, attraction, a-b-da, 14, 3, 6, 27, 181, 111, 195, 120, 120, 195, 1, 1.23604
270, 1, wb, attraction, a-b-da, 14, 3, 6, 27, 181, 111, 195, 120, 120, 195, 3, 0.849637
270, 1, wb, attraction, a-b-db, 9, 1, 6, 28, 60, 135, 57, 129, 135, 60, 3, 1.39736
270, 1, wb, attraction, a-b-db, 9, 1, 6, 28, 60, 135, 57, 129, 135, 60, 2, 0.548157
270, 1, wb, filler, NA, 999, 999, 6, 29, 113, 74, 162, 129, 134, 89, 1, 0.675938
270, 1, wb, filler, NA, 999, 999, 6, 29, 113, 74, 162, 129, 134, 89, 2, 0.375546
270, 1, wb, filler, NA, 999, 999, 6, 30, 84, 164, 176, 118, 190, 168, 1, 0.950136
270, 1, wb, filler, NA, 999, 999, 6, 30, 84, 164, 176, 118, 190, 168, 3, 0.839078
270, 1, wb, catch, NA, 999, 999, 6, 31, 159, 156, 87, 108, 161, 94, 2, 0.851461
270, 1, wb, catch, NA, 999, 999, 6, 31, 159, 156, 87, 108, 161, 94, 1, 1.78456
270, 1, wb, filler, NA, 999, 999, 6, 32, 109, 177, 112, 66, 190, 169, 2, 0.854619
270, 1, wb, filler, NA, 999, 999, 6, 32, 109, 177, 112, 66, 190, 169, 3, 0.323056
270, 1, wb, attraction, a-b-da, 9, 1, 6, 33, 135, 60, 129, 57, 60, 135, 2, 1.99618
270, 1, wb, attraction, a-b-da, 9, 1, 6, 33, 135, 60, 129, 57, 60, 135, 3, 1.41883
270, 1, wb, attraction, a-b-db, 2, 3, 6, 34, 120, 195, 195, 120, 119, 193, 2, 1.15168
270, 1, wb, attraction, a-b-db, 2, 3, 6, 34, 120, 195, 195, 120, 119, 193, 3, 0.320569
270, 1, wb, filler, NA, 999, 999, 6, 35, 169, 138, 82, 144, 68, 162, 2, 1.46576
270, 1, wb, filler, NA, 999, 999, 6, 35, 169, 138, 82, 144, 68, 162, 1, 0.317912
270, 1, wb, catch, NA, 999, 999, 6, 36, 178, 137, 104, 151, 72, 123, 3, 0.66315
270, 1, wb, catch, NA, 999, 999, 6, 36, 178, 137, 104, 151, 72, 123, 1, 0.731631
270, 1, wb, attraction, a-b-db, 2, 1, 6, 37, 135, 60, 59, 134, 60, 135, 2, 1.17211
270, 1, wb, attraction, a-b-db, 2, 1, 6, 37, 135, 60, 59, 134, 60, 135, 3, 0.531483
270, 1, wb, filler, NA, 999, 999, 7, 1, 189, 67, 77, 186, 165, 112, 1, 1.76409
270, 1, wb, filler, NA, 999, 999, 7, 1, 189, 67, 77, 186, 165, 112, 3, 0.444004
270, 1, wb, attraction, a-b-db, 9, 3, 7, 2, 114, 186, 195, 120, 120, 195, 1, 1.19182
270, 1, wb, attraction, a-b-db, 9, 3, 7, 2, 114, 186, 195, 120, 120, 195, 3, 0.390774
270, 1, wb, attraction, a-b-db, 5, 1, 7, 3, 60, 135, 135, 60, 58, 132, 2, 1.03686
270, 1, wb, attraction, a-b-db, 5, 1, 7, 3, 60, 135, 135, 60, 58, 132, 1, 0.522324
270, 1, wb, attraction, a-b-db, 9, 2, 7, 4, 90, 165, 165, 90, 86, 157, 1, 0.81141
270, 1, wb, attraction, a-b-db, 9, 2, 7, 4, 90, 165, 165, 90, 86, 157, 3, 0.418017
270, 1, wb, attraction, a-b-da, 2, 2, 7, 5, 163, 89, 90, 165, 165, 90, 1, 0.871007
270, 1, wb, attraction, a-b-da, 2, 2, 7, 5, 163, 89, 90, 165, 165, 90, 3, 0.563364
270, 1, wb, attraction, a-b-da, 9, 3, 7, 6, 120, 195, 195, 120, 186, 114, 2, 0.826436
270, 1, wb, attraction, a-b-da, 9, 3, 7, 6, 120, 195, 195, 120, 186, 114, 3, 0.360201
270, 1, wb, filler, NA, 999, 999, 7, 7, 56, 103, 93, 146, 136, 123, 1, 0.751218
270, 1, wb, filler, NA, 999, 999, 7, 7, 56, 103, 93, 146, 136, 123, 3, 0.312362
270, 1, wb, filler, NA, 999, 999, 7, 8, 163, 150, 111, 158, 61, 169, 3, 0.9295
270, 1, wb, filler, NA, 999, 999, 7, 8, 163, 150, 111, 158, 61, 169, 1, 0.395315
270, 1, wb, attraction, a-b-db, 14, 3, 7, 9, 111, 181, 120, 195, 195, 120, 1, 0.865128
270, 1, wb, attraction, a-b-db, 14, 3, 7, 9, 111, 181, 120, 195, 195, 120, 3, 0.381458
270, 1, wb, attraction, a-b-da, 9, 1, 7, 10, 60, 135, 135, 60, 129, 57, 2, 1.34792
270, 1, wb, attraction, a-b-da, 9, 1, 7, 10, 60, 135, 135, 60, 129, 57, 1, 0.396794
270, 1, wb, attraction, a-b-db, 2, 1, 7, 11, 135, 60, 60, 135, 59, 134, 1, 0.95451
270, 1, wb, attraction, a-b-db, 2, 1, 7, 11, 135, 60, 60, 135, 59, 134, 3, 0.467534
270, 1, wb, attraction, a-b-db, 9, 1, 7, 12, 60, 135, 135, 60, 57, 129, 2, 1.95075
270, 1, wb, attraction, a-b-db, 9, 1, 7, 12, 60, 135, 135, 60, 57, 129, 3, 0.551486
270, 1, wb, filler, NA, 999, 999, 7, 13, 152, 169, 58, 133, 61, 56, 3, 0.87121
270, 1, wb, filler, NA, 999, 999, 7, 13, 152, 169, 58, 133, 61, 56, 1, 0.539524
270, 1, wb, attraction, a-b-da, 14, 2, 7, 14, 165, 90, 90, 165, 153, 83, 1, 1.11604
270, 1, wb, attraction, a-b-da, 14, 2, 7, 14, 165, 90, 90, 165, 153, 83, 2, 0.294297
270, 1, wb, filler, NA, 999, 999, 7, 15, 173, 178, 139, 72, 101, 76, 3, 0.58415
270, 1, wb, filler, NA, 999, 999, 7, 15, 173, 178, 139, 72, 101, 76, 1, 0.295882
270, 1, wb, catch, NA, 999, 999, 7, 16, 63, 132, 128, 187, 107, 148, 1, 0.577923
270, 1, wb, catch, NA, 999, 999, 7, 16, 63, 132, 128, 187, 107, 148, 2, 0.265533
270, 1, wb, attraction, a-b-da, 14, 3, 7, 17, 195, 120, 120, 195, 181, 111, 3, 2.74876
270, 1, wb, attraction, a-b-da, 14, 3, 7, 17, 195, 120, 120, 195, 181, 111, 2, 0.393915
270, 1, wb, filler, NA, 999, 999, 7, 18, 100, 135, 129, 129, 140, 141, 1, 0.675214
270, 1, wb, filler, NA, 999, 999, 7, 18, 100, 135, 129, 129, 140, 141, 3, 0.47085
270, 1, wb, attraction, a-b-da, 5, 3, 7, 19, 195, 120, 190, 117, 120, 195, 3, 1.32197
270, 1, wb, attraction, a-b-da, 5, 3, 7, 19, 195, 120, 190, 117, 120, 195, 1, 1.30754
270, 1, wb, filler, NA, 999, 999, 7, 20, 69, 125, 72, 76, 175, 106, 2, 0.748384
270, 1, wb, filler, NA, 999, 999, 7, 20, 69, 125, 72, 76, 175, 106, 3, 0.461464
270, 1, wb, attraction, a-b-da, 5, 1, 7, 21, 132, 58, 60, 135, 135, 60, 1, 1.01653
270, 1, wb, attraction, a-b-da, 5, 1, 7, 21, 132, 58, 60, 135, 135, 60, 2, 0.366971
270, 1, wb, attraction, a-b-da, 2, 1, 7, 22, 60, 135, 135, 60, 134, 59, 2, 1.79799
270, 1, wb, attraction, a-b-da, 2, 1, 7, 22, 60, 135, 135, 60, 134, 59, 3, 0.324747
270, 1, wb, filler, NA, 999, 999, 7, 23, 129, 193, 98, 101, 103, 69, 3, 1.18118
270, 1, wb, filler, NA, 999, 999, 7, 23, 129, 193, 98, 101, 103, 69, 1, 0.284821
270, 1, wb, attraction, a-b-da, 9, 2, 7, 24, 157, 86, 165, 90, 90, 165, 1, 1.4953
270, 1, wb, attraction, a-b-da, 9, 2, 7, 24, 157, 86, 165, 90, 90, 165, 3, 0.618329
270, 1, wb, attraction, a-b-db, 14, 2, 7, 25, 90, 165, 165, 90, 83, 153, 3, 1.18329
270, 1, wb, attraction, a-b-db, 14, 2, 7, 25, 90, 165, 165, 90, 83, 153, 1, 1.12689
270, 1, wb, attraction, a-b-da, 2, 3, 7, 26, 193, 119, 195, 120, 120, 195, 1, 0.94316
270, 1, wb, attraction, a-b-da, 2, 3, 7, 26, 193, 119, 195, 120, 120, 195, 3, 0.376206
270, 1, wb, catch, NA, 999, 999, 7, 27, 145, 110, 85, 110, 160, 155, 2, 0.798713
270, 1, wb, catch, NA, 999, 999, 7, 27, 145, 110, 85, 110, 160, 155, 3, 0.333721
270, 1, wb, attraction, a-b-db, 5, 2, 7, 28, 165, 90, 88, 161, 90, 165, 1, 1.30222
270, 1, wb, attraction, a-b-db, 5, 2, 7, 28, 165, 90, 88, 161, 90, 165, 2, 0.633255
270, 1, wb, attraction, a-b-db, 14, 1, 7, 29, 135, 60, 56, 125, 60, 135, 2, 2.77349
270, 1, wb, attraction, a-b-db, 14, 1, 7, 29, 135, 60, 56, 125, 60, 135, 3, 0.549092
270, 1, wb, attraction, a-b-da, 5, 2, 7, 30, 161, 88, 90, 165, 165, 90, 1, 0.900506
270, 1, wb, attraction, a-b-da, 5, 2, 7, 30, 161, 88, 90, 165, 165, 90, 2, 0.959398
270, 1, wb, filler, NA, 999, 999, 7, 31, 78, 154, 159, 70, 73, 66, 3, 1.03034
270, 1, wb, filler, NA, 999, 999, 7, 31, 78, 154, 159, 70, 73, 66, 1, 0.332017
270, 1, wb, attraction, a-b-db, 2, 3, 7, 32, 119, 193, 120, 195, 195, 120, 3, 1.80454
270, 1, wb, attraction, a-b-db, 2, 3, 7, 32, 119, 193, 120, 195, 195, 120, 1, 0.371304
270, 1, wb, attraction, a-b-da, 14, 1, 7, 33, 60, 135, 135, 60, 125, 56, 3, 0.882547
270, 1, wb, attraction, a-b-da, 14, 1, 7, 33, 60, 135, 135, 60, 125, 56, 1, 0.35024
270, 1, wb, filler, NA, 999, 999, 7, 34, 164, 161, 136, 179, 85, 150, 3, 3.74217
270, 1, wb, filler, NA, 999, 999, 7, 34, 164, 161, 136, 179, 85, 150, 1, 0.310155
270, 1, wb, attraction, a-b-db, 2, 2, 7, 35, 90, 165, 89, 163, 165, 90, 3, 1.33533
270, 1, wb, attraction, a-b-db, 2, 2, 7, 35, 90, 165, 89, 163, 165, 90, 2, 0.520847
270, 1, wb, attraction, a-b-db, 5, 3, 7, 36, 120, 195, 117, 190, 195, 120, 1, 2.39403
270, 1, wb, attraction, a-b-db, 5, 3, 7, 36, 120, 195, 117, 190, 195, 120, 3, 0.512531
270, 1, wb, catch, NA, 999, 999, 7, 37, 155, 100, 63, 132, 189, 126, 2, 0.921802
270, 1, wb, catch, NA, 999, 999, 7, 37, 155, 100, 63, 132, 189, 126, 3, 0.715332
270, 1, wb, attraction, a-b-db, 9, 2, 8, 1, 165, 90, 86, 157, 90, 165, 2, 1.87638
270, 1, wb, attraction, a-b-db, 9, 2, 8, 1, 165, 90, 86, 157, 90, 165, 1, 0.335876
270, 1, wb, attraction, a-b-da, 9, 3, 8, 2, 195, 120, 186, 114, 120, 195, 3, 2.44826
270, 1, wb, attraction, a-b-da, 9, 3, 8, 2, 195, 120, 186, 114, 120, 195, 1, 0.364908
270, 1, wb, attraction, a-b-db, 14, 2, 8, 3, 83, 153, 90, 165, 165, 90, 1, 0.724133
270, 1, wb, attraction, a-b-db, 14, 2, 8, 3, 83, 153, 90, 165, 165, 90, 2, 0.533807
270, 1, wb, attraction, a-b-da, 5, 1, 8, 4, 132, 58, 135, 60, 60, 135, 2, 1.40617
270, 1, wb, attraction, a-b-da, 5, 1, 8, 4, 132, 58, 135, 60, 60, 135, 3, 0.516346
270, 1, wb, attraction, a-b-da, 9, 2, 8, 5, 90, 165, 165, 90, 157, 86, 3, 1.03745
270, 1, wb, attraction, a-b-da, 9, 2, 8, 5, 90, 165, 165, 90, 157, 86, 2, 0.538552
270, 1, wb, attraction, a-b-db, 14, 3, 8, 6, 120, 195, 195, 120, 111, 181, 3, 1.95492
270, 1, wb, attraction, a-b-db, 14, 3, 8, 6, 120, 195, 195, 120, 111, 181, 2, 0.355632
270, 1, wb, attraction, a-b-da, 9, 1, 8, 7, 60, 135, 129, 57, 135, 60, 3, 1.8115
270, 1, wb, attraction, a-b-da, 9, 1, 8, 7, 60, 135, 129, 57, 135, 60, 1, 0.497615
270, 1, wb, filler, NA, 999, 999, 8, 8, 109, 193, 147, 85, 167, 145, 2, 0.843296
270, 1, wb, filler, NA, 999, 999, 8, 8, 109, 193, 147, 85, 167, 145, 3, 0.648434
270, 1, wb, filler, NA, 999, 999, 8, 9, 99, 112, 72, 84, 114, 168, 2, 0.660157
270, 1, wb, filler, NA, 999, 999, 8, 9, 99, 112, 72, 84, 114, 168, 3, 0.52857
270, 1, wb, filler, NA, 999, 999, 8, 10, 89, 182, 159, 139, 86, 65, 3, 0.552924
270, 1, wb, filler, NA, 999, 999, 8, 10, 89, 182, 159, 139, 86, 65, 2, 0.482071
270, 1, wb, attraction, a-b-db, 9, 3, 8, 11, 114, 186, 195, 120, 120, 195, 1, 1.07672
270, 1, wb, attraction, a-b-db, 9, 3, 8, 11, 114, 186, 195, 120, 120, 195, 2, 0.424174
270, 1, wb, attraction, a-b-da, 14, 1, 8, 12, 125, 56, 60, 135, 135, 60, 1, 0.972698
270, 1, wb, attraction, a-b-da, 14, 1, 8, 12, 125, 56, 60, 135, 135, 60, 2, 0.78834
270, 1, wb, attraction, a-b-da, 14, 3, 8, 13, 195, 120, 181, 111, 120, 195, 2, 0.99483
270, 1, wb, attraction, a-b-da, 14, 3, 8, 13, 195, 120, 181, 111, 120, 195, 3, 0.665752
270, 1, wb, attraction, a-b-db, 9, 1, 8, 14, 60, 135, 57, 129, 135, 60, 3, 1.39674
270, 1, wb, attraction, a-b-db, 9, 1, 8, 14, 60, 135, 57, 129, 135, 60, 2, 0.547595
270, 1, wb, attraction, a-b-da, 2, 2, 8, 15, 165, 90, 163, 89, 90, 165, 1, 0.803336
270, 1, wb, attraction, a-b-da, 2, 2, 8, 15, 165, 90, 163, 89, 90, 165, 2, 0.306509
270, 1, wb, filler, NA, 999, 999, 8, 16, 159, 156, 133, 63, 171, 121, 2, 0.644334
270, 1, wb, filler, NA, 999, 999, 8, 16, 159, 156, 133, 63, 171, 121, 1, 0.353459
270, 1, wb, catch, NA, 999, 999, 8, 17, 153, 162, 115, 80, 159, 96, 2, 0.593322
270, 1, wb, catch, NA, 999, 999, 8, 17, 153, 162, 115, 80, 159, 96, 1, 0.312376
270, 1, wb, filler, NA, 999, 999, 8, 18, 112, 174, 152, 81, 130, 176, 2, 0.825637
270, 1, wb, filler, NA, 999, 999, 8, 18, 112, 174, 152, 81, 130, 176, 3, 0.49538
270, 1, wb, filler, NA, 999, 999, 8, 19, 119, 150, 189, 64, 176, 168, 2, 0.937079
270, 1, wb, filler, NA, 999, 999, 8, 19, 119, 150, 189, 64, 176, 168, 3, 0.386916
270, 1, wb, attraction, a-b-da, 5, 2, 8, 20, 161, 88, 90, 165, 165, 90, 1, 0.921254
270, 1, wb, attraction, a-b-da, 5, 2, 8, 20, 161, 88, 90, 165, 165, 90, 2, 0.275603
270, 1, wb, filler, NA, 999, 999, 8, 21, 56, 106, 99, 66, 143, 149, 1, 0.870134
270, 1, wb, filler, NA, 999, 999, 8, 21, 56, 106, 99, 66, 143, 149, 3, 0.274503
270, 1, wb, attraction, a-b-db, 5, 1, 8, 22, 135, 60, 60, 135, 58, 132, 3, 1.22091
270, 1, wb, attraction, a-b-db, 5, 1, 8, 22, 135, 60, 60, 135, 58, 132, 2, 0.907249
270, 1, wb, attraction, a-b-da, 14, 2, 8, 23, 165, 90, 153, 83, 90, 165, 2, 1.39624
270, 1, wb, attraction, a-b-da, 14, 2, 8, 23, 165, 90, 153, 83, 90, 165, 3, 0.40315
270, 1, wb, attraction, a-b-db, 2, 1, 8, 24, 135, 60, 59, 134, 60, 135, 3, 1.46489
270, 1, wb, attraction, a-b-db, 2, 1, 8, 24, 135, 60, 59, 134, 60, 135, 2, 1.07715
270, 1, wb, attraction, a-b-da, 2, 1, 8, 25, 60, 135, 134, 59, 135, 60, 1, 0.943299
270, 1, wb, attraction, a-b-da, 2, 1, 8, 25, 60, 135, 134, 59, 135, 60, 3, 1.10441
270, 1, wb, catch, NA, 999, 999, 8, 26, 152, 103, 184, 131, 121, 74, 3, 0.954009
270, 1, wb, catch, NA, 999, 999, 8, 26, 152, 103, 184, 131, 121, 74, 2, 0.266978
270, 1, wb, attraction, a-b-da, 5, 3, 8, 27, 120, 195, 195, 120, 190, 117, 3, 1.37435
270, 1, wb, attraction, a-b-da, 5, 3, 8, 27, 120, 195, 195, 120, 190, 117, 1, 0.853751
270, 1, wb, attraction, a-b-db, 2, 2, 8, 28, 90, 165, 89, 163, 165, 90, 3, 2.60938
270, 1, wb, attraction, a-b-db, 2, 2, 8, 28, 90, 165, 89, 163, 165, 90, 1, 0.855278
270, 1, wb, filler, NA, 999, 999, 8, 29, 59, 173, 72, 148, 150, 108, 1, 1.22693
270, 1, wb, filler, NA, 999, 999, 8, 29, 59, 173, 72, 148, 150, 108, 3, 0.360521
270, 1, wb, filler, NA, 999, 999, 8, 30, 133, 62, 140, 134, 195, 176, 1, 0.503673
270, 1, wb, filler, NA, 999, 999, 8, 30, 133, 62, 140, 134, 195, 176, 3, 0.298878
270, 1, wb, attraction, a-b-db, 5, 2, 8, 31, 88, 161, 90, 165, 165, 90, 2, 0.868747
270, 1, wb, attraction, a-b-db, 5, 2, 8, 31, 88, 161, 90, 165, 165, 90, 3, 0.329127
270, 1, wb, attraction, a-b-db, 5, 3, 8, 32, 120, 195, 117, 190, 195, 120, 3, 0.913585
270, 1, wb, attraction, a-b-db, 5, 3, 8, 32, 120, 195, 117, 190, 195, 120, 1, 0.331863
270, 1, wb, filler, NA, 999, 999, 8, 33, 65, 131, 170, 138, 147, 59, 1, 0.780419
270, 1, wb, filler, NA, 999, 999, 8, 33, 65, 131, 170, 138, 147, 59, 2, 0.612109
270, 1, wb, attraction, a-b-db, 14, 1, 8, 34, 60, 135, 56, 125, 135, 60, 2, 1.16117
270, 1, wb, attraction, a-b-db, 14, 1, 8, 34, 60, 135, 56, 125, 135, 60, 1, 0.73748
270, 1, wb, attraction, a-b-da, 2, 3, 8, 35, 195, 120, 193, 119, 120, 195, 2, 1.29788
270, 1, wb, attraction, a-b-da, 2, 3, 8, 35, 195, 120, 193, 119, 120, 195, 3, 0.572702
270, 1, wb, attraction, a-b-db, 2, 3, 8, 36, 120, 195, 119, 193, 195, 120, 3, 0.971917
270, 1, wb, attraction, a-b-db, 2, 3, 8, 36, 120, 195, 119, 193, 195, 120, 1, 0.547536
270, 1, wb, catch, NA, 999, 999, 8, 37, 89, 106, 122, 133, 144, 171, 1, 0.619326
270, 1, wb, catch, NA, 999, 999, 8, 37, 89, 106, 122, 133, 144, 171, 3, 0.385818
