sub_n, computer_n, bw_cond, effect, set, distance, diag, block_n, trial_n, h1, w1, h2, w2, h3, w3, choice, rt 
228, 1, wb, practice, NA, 999, 999, 0, 1, 166, 161, 136, 60, 105, 159, 2, 2.7841
228, 1, wb, practice, NA, 999, 999, 0, 1, 166, 161, 136, 60, 105, 159, 1, 2.06975
228, 1, wb, practice, NA, 999, 999, 0, 2, 106, 147, 69, 59, 109, 143, 2, 1.83714
228, 1, wb, practice, NA, 999, 999, 0, 2, 106, 147, 69, 59, 109, 143, 3, 1.61278
228, 1, wb, practice, NA, 999, 999, 0, 3, 146, 133, 183, 98, 101, 187, 2, 4.3337
228, 1, wb, practice, NA, 999, 999, 0, 3, 146, 133, 183, 98, 101, 187, 1, 2.02928
228, 1, wb, attraction, a-b-db, 9, 1, 1, 1, 60, 135, 57, 129, 135, 60, 2, 3.2841
228, 1, wb, attraction, a-b-db, 9, 1, 1, 1, 60, 135, 57, 129, 135, 60, 3, 1.0549
228, 1, wb, attraction, a-b-db, 2, 2, 1, 2, 90, 165, 89, 163, 165, 90, 3, 4.83461
228, 1, wb, attraction, a-b-db, 2, 2, 1, 2, 90, 165, 89, 163, 165, 90, 2, 1.41512
228, 1, wb, attraction, a-b-db, 9, 3, 1, 3, 195, 120, 114, 186, 120, 195, 2, 8.28395
228, 1, wb, attraction, a-b-db, 9, 3, 1, 3, 195, 120, 114, 186, 120, 195, 1, 0.757151
228, 1, wb, filler, NA, 999, 999, 1, 4, 93, 137, 157, 97, 115, 187, 1, 1.56427
228, 1, wb, filler, NA, 999, 999, 1, 4, 93, 137, 157, 97, 115, 187, 3, 0.556404
228, 1, wb, attraction, a-b-db, 2, 1, 1, 5, 60, 135, 135, 60, 59, 134, 3, 2.03627
228, 1, wb, attraction, a-b-db, 2, 1, 1, 5, 60, 135, 135, 60, 59, 134, 2, 1.02566
228, 1, wb, filler, NA, 999, 999, 1, 6, 109, 170, 86, 80, 181, 118, 2, 1.22176
228, 1, wb, filler, NA, 999, 999, 1, 6, 109, 170, 86, 80, 181, 118, 3, 0.883434
228, 1, wb, attraction, a-b-da, 2, 1, 1, 7, 134, 59, 60, 135, 135, 60, 1, 2.46972
228, 1, wb, attraction, a-b-da, 2, 1, 1, 7, 134, 59, 60, 135, 135, 60, 2, 0.329699
228, 1, wb, catch, NA, 999, 999, 1, 8, 144, 111, 167, 148, 131, 64, 3, 2.25806
228, 1, wb, catch, NA, 999, 999, 1, 8, 144, 111, 167, 148, 131, 64, 2, 0.454086
228, 1, wb, attraction, a-b-da, 5, 1, 1, 9, 60, 135, 135, 60, 132, 58, 1, 3.46586
228, 1, wb, attraction, a-b-da, 5, 1, 1, 9, 60, 135, 135, 60, 132, 58, 2, 9.58942
228, 1, wb, catch, NA, 999, 999, 1, 10, 142, 113, 79, 116, 183, 132, 2, 1.34501
228, 1, wb, catch, NA, 999, 999, 1, 10, 142, 113, 79, 116, 183, 132, 3, 0.353896
228, 1, wb, attraction, a-b-da, 2, 3, 1, 11, 195, 120, 120, 195, 193, 119, 2, 3.3857
228, 1, wb, attraction, a-b-da, 2, 3, 1, 11, 195, 120, 120, 195, 193, 119, 3, 0.680656
228, 1, wb, attraction, a-b-da, 5, 2, 1, 12, 161, 88, 165, 90, 90, 165, 1, 2.89105
228, 1, wb, attraction, a-b-da, 5, 2, 1, 12, 161, 88, 165, 90, 90, 165, 2, 0.861541
228, 1, wb, filler, NA, 999, 999, 1, 13, 133, 62, 84, 87, 58, 180, 1, 5.01661
228, 1, wb, filler, NA, 999, 999, 1, 13, 133, 62, 84, 87, 58, 180, 3, 0.821587
228, 1, wb, attraction, a-b-db, 5, 1, 1, 14, 135, 60, 60, 135, 58, 132, 3, 1.89856
228, 1, wb, attraction, a-b-db, 5, 1, 1, 14, 135, 60, 60, 135, 58, 132, 2, 0.629259
228, 1, wb, attraction, a-b-da, 14, 2, 1, 15, 153, 83, 165, 90, 90, 165, 1, 2.16172
228, 1, wb, attraction, a-b-da, 14, 2, 1, 15, 153, 83, 165, 90, 90, 165, 2, 6.27365
228, 1, wb, filler, NA, 999, 999, 1, 16, 168, 156, 129, 161, 71, 98, 3, 1.49098
228, 1, wb, filler, NA, 999, 999, 1, 16, 168, 156, 129, 161, 71, 98, 1, 0.597868
228, 1, wb, attraction, a-b-da, 5, 3, 1, 17, 190, 117, 120, 195, 195, 120, 1, 5.29954
228, 1, wb, attraction, a-b-da, 5, 3, 1, 17, 190, 117, 120, 195, 195, 120, 2, 0.405124
228, 1, wb, filler, NA, 999, 999, 1, 18, 145, 112, 128, 79, 125, 162, 2, 1.09094
228, 1, wb, filler, NA, 999, 999, 1, 18, 145, 112, 128, 79, 125, 162, 3, 0.573987
228, 1, wb, attraction, a-b-da, 14, 1, 1, 19, 125, 56, 135, 60, 60, 135, 1, 4.67635
228, 1, wb, attraction, a-b-da, 14, 1, 1, 19, 125, 56, 135, 60, 60, 135, 2, 0.414885
228, 1, wb, catch, NA, 999, 999, 1, 20, 164, 151, 67, 128, 117, 138, 2, 1.28412
228, 1, wb, catch, NA, 999, 999, 1, 20, 164, 151, 67, 128, 117, 138, 1, 0.463621
228, 1, wb, attraction, a-b-db, 9, 2, 1, 21, 165, 90, 90, 165, 86, 157, 3, 6.41083
228, 1, wb, attraction, a-b-db, 9, 2, 1, 21, 165, 90, 90, 165, 86, 157, 2, 1.4955
228, 1, wb, attraction, a-b-da, 9, 3, 1, 22, 120, 195, 186, 114, 195, 120, 2, 5.38487
228, 1, wb, attraction, a-b-da, 9, 3, 1, 22, 120, 195, 186, 114, 195, 120, 1, 0.735219
228, 1, wb, attraction, a-b-db, 14, 3, 1, 23, 195, 120, 111, 181, 120, 195, 2, 3.84752
228, 1, wb, attraction, a-b-db, 14, 3, 1, 23, 195, 120, 111, 181, 120, 195, 3, 0.651772
228, 1, wb, attraction, a-b-db, 14, 1, 1, 24, 135, 60, 56, 125, 60, 135, 2, 3.02343
228, 1, wb, attraction, a-b-db, 14, 1, 1, 24, 135, 60, 56, 125, 60, 135, 1, 3.9727
228, 1, wb, attraction, a-b-db, 5, 2, 1, 25, 88, 161, 90, 165, 165, 90, 1, 10.6025
228, 1, wb, attraction, a-b-db, 5, 2, 1, 25, 88, 161, 90, 165, 165, 90, 2, 0.766421
228, 1, wb, filler, NA, 999, 999, 1, 26, 74, 126, 183, 191, 90, 185, 1, 1.14152
228, 1, wb, filler, NA, 999, 999, 1, 26, 74, 126, 183, 191, 90, 185, 2, 0.278502
228, 1, wb, attraction, a-b-da, 9, 2, 1, 27, 90, 165, 165, 90, 157, 86, 3, 11.8809
228, 1, wb, attraction, a-b-da, 9, 2, 1, 27, 90, 165, 165, 90, 157, 86, 1, 1.50533
228, 1, wb, attraction, a-b-db, 14, 2, 1, 28, 90, 165, 83, 153, 165, 90, 2, 2.16269
228, 1, wb, attraction, a-b-db, 14, 2, 1, 28, 90, 165, 83, 153, 165, 90, 1, 0.482702
228, 1, wb, attraction, a-b-db, 2, 3, 1, 29, 195, 120, 120, 195, 119, 193, 1, 4.50114
228, 1, wb, attraction, a-b-db, 2, 3, 1, 29, 195, 120, 120, 195, 119, 193, 2, 0.830944
228, 1, wb, filler, NA, 999, 999, 1, 30, 170, 153, 103, 99, 101, 68, 3, 0.82734
228, 1, wb, filler, NA, 999, 999, 1, 30, 170, 153, 103, 99, 101, 68, 1, 0.497038
228, 1, wb, filler, NA, 999, 999, 1, 31, 58, 72, 186, 90, 75, 156, 1, 1.2269
228, 1, wb, filler, NA, 999, 999, 1, 31, 58, 72, 186, 90, 75, 156, 2, 0.280526
228, 1, wb, filler, NA, 999, 999, 1, 32, 104, 144, 169, 99, 117, 114, 3, 2.81899
228, 1, wb, filler, NA, 999, 999, 1, 32, 104, 144, 169, 99, 117, 114, 2, 0.776721
228, 1, wb, attraction, a-b-db, 5, 3, 1, 33, 195, 120, 117, 190, 120, 195, 1, 3.48714
228, 1, wb, attraction, a-b-db, 5, 3, 1, 33, 195, 120, 117, 190, 120, 195, 2, 0.810046
228, 1, wb, attraction, a-b-da, 9, 1, 1, 34, 135, 60, 60, 135, 129, 57, 3, 2.36698
228, 1, wb, attraction, a-b-da, 9, 1, 1, 34, 135, 60, 60, 135, 129, 57, 1, 5.75086
228, 1, wb, filler, NA, 999, 999, 1, 35, 148, 97, 69, 84, 123, 144, 2, 2.62104
228, 1, wb, filler, NA, 999, 999, 1, 35, 148, 97, 69, 84, 123, 144, 3, 0.554963
228, 1, wb, attraction, a-b-da, 14, 3, 1, 36, 195, 120, 120, 195, 181, 111, 3, 1.09058
228, 1, wb, attraction, a-b-da, 14, 3, 1, 36, 195, 120, 120, 195, 181, 111, 2, 0.853617
228, 1, wb, attraction, a-b-da, 2, 2, 1, 37, 165, 90, 90, 165, 163, 89, 1, 5.41731
228, 1, wb, attraction, a-b-da, 2, 2, 1, 37, 165, 90, 90, 165, 163, 89, 2, 0.542225
228, 1, wb, attraction, a-b-db, 5, 3, 2, 1, 117, 190, 120, 195, 195, 120, 3, 4.34205
228, 1, wb, attraction, a-b-db, 5, 3, 2, 1, 117, 190, 120, 195, 195, 120, 2, 0.302031
228, 1, wb, attraction, a-b-db, 14, 3, 2, 2, 111, 181, 120, 195, 195, 120, 1, 2.6399
228, 1, wb, attraction, a-b-db, 14, 3, 2, 2, 111, 181, 120, 195, 195, 120, 2, 0.628411
228, 1, wb, filler, NA, 999, 999, 2, 3, 161, 152, 84, 71, 183, 131, 2, 1.09675
228, 1, wb, filler, NA, 999, 999, 2, 3, 161, 152, 84, 71, 183, 131, 3, 0.275649
228, 1, wb, attraction, a-b-da, 5, 3, 2, 4, 190, 117, 195, 120, 120, 195, 1, 19.7582
228, 1, wb, attraction, a-b-da, 5, 3, 2, 4, 190, 117, 195, 120, 120, 195, 3, 0.457276
228, 1, wb, attraction, a-b-db, 5, 2, 2, 5, 90, 165, 165, 90, 88, 161, 3, 10.2044
228, 1, wb, attraction, a-b-db, 5, 2, 2, 5, 90, 165, 165, 90, 88, 161, 1, 0.864547
228, 1, wb, filler, NA, 999, 999, 2, 6, 186, 113, 119, 180, 70, 179, 3, 1.12358
228, 1, wb, filler, NA, 999, 999, 2, 6, 186, 113, 119, 180, 70, 179, 2, 0.453155
228, 1, wb, filler, NA, 999, 999, 2, 7, 110, 158, 80, 81, 144, 74, 2, 1.76102
228, 1, wb, filler, NA, 999, 999, 2, 7, 110, 158, 80, 81, 144, 74, 1, 0.321187
228, 1, wb, filler, NA, 999, 999, 2, 8, 83, 168, 107, 61, 63, 125, 2, 2.13824
228, 1, wb, filler, NA, 999, 999, 2, 8, 83, 168, 107, 61, 63, 125, 1, 0.699582
228, 1, wb, attraction, a-b-db, 5, 1, 2, 9, 135, 60, 58, 132, 60, 135, 1, 3.50145
228, 1, wb, attraction, a-b-db, 5, 1, 2, 9, 135, 60, 58, 132, 60, 135, 3, 0.671562
228, 1, wb, attraction, a-b-db, 9, 2, 2, 10, 165, 90, 86, 157, 90, 165, 1, 11.5385
228, 1, wb, attraction, a-b-db, 9, 2, 2, 10, 165, 90, 86, 157, 90, 165, 3, 0.576945
228, 1, wb, attraction, a-b-da, 14, 3, 2, 11, 195, 120, 181, 111, 120, 195, 2, 13.7274
228, 1, wb, attraction, a-b-da, 14, 3, 2, 11, 195, 120, 181, 111, 120, 195, 3, 0.469011
228, 1, wb, attraction, a-b-da, 2, 3, 2, 12, 195, 120, 193, 119, 120, 195, 2, 17.5442
228, 1, wb, attraction, a-b-da, 2, 3, 2, 12, 195, 120, 193, 119, 120, 195, 1, 1.23601
228, 1, wb, filler, NA, 999, 999, 2, 13, 172, 114, 188, 170, 126, 143, 3, 1.74434
228, 1, wb, filler, NA, 999, 999, 2, 13, 172, 114, 188, 170, 126, 143, 2, 0.409439
228, 1, wb, attraction, a-b-da, 5, 2, 2, 14, 165, 90, 90, 165, 161, 88, 1, 10.9261
228, 1, wb, attraction, a-b-da, 5, 2, 2, 14, 165, 90, 90, 165, 161, 88, 2, 0.260678
228, 1, wb, catch, NA, 999, 999, 2, 15, 111, 144, 105, 90, 151, 164, 2, 1.76788
228, 1, wb, catch, NA, 999, 999, 2, 15, 111, 144, 105, 90, 151, 164, 3, 0.279986
228, 1, wb, filler, NA, 999, 999, 2, 16, 88, 61, 80, 189, 102, 88, 1, 1.20261
228, 1, wb, filler, NA, 999, 999, 2, 16, 88, 61, 80, 189, 102, 88, 2, 0.289546
228, 1, wb, attraction, a-b-db, 14, 1, 2, 17, 60, 135, 135, 60, 56, 125, 3, 10.044
228, 1, wb, attraction, a-b-db, 14, 1, 2, 17, 60, 135, 135, 60, 56, 125, 1, 0.2861
228, 1, wb, attraction, a-b-da, 9, 1, 2, 18, 129, 57, 135, 60, 60, 135, 1, 3.07262
228, 1, wb, attraction, a-b-da, 9, 1, 2, 18, 129, 57, 135, 60, 60, 135, 3, 0.867709
228, 1, wb, attraction, a-b-da, 5, 1, 2, 19, 60, 135, 135, 60, 132, 58, 3, 5.20668
228, 1, wb, attraction, a-b-da, 5, 1, 2, 19, 60, 135, 135, 60, 132, 58, 2, 0.563699
228, 1, wb, attraction, a-b-da, 9, 3, 2, 20, 120, 195, 195, 120, 186, 114, 3, 3.43482
228, 1, wb, attraction, a-b-da, 9, 3, 2, 20, 120, 195, 195, 120, 186, 114, 2, 0.287713
228, 1, wb, attraction, a-b-da, 2, 2, 2, 21, 90, 165, 163, 89, 165, 90, 1, 12.8981
228, 1, wb, attraction, a-b-da, 2, 2, 2, 21, 90, 165, 163, 89, 165, 90, 2, 2.48941
228, 1, wb, filler, NA, 999, 999, 2, 22, 186, 115, 187, 72, 83, 105, 3, 1.12334
228, 1, wb, filler, NA, 999, 999, 2, 22, 186, 115, 187, 72, 83, 105, 1, 0.364903
228, 1, wb, attraction, a-b-da, 14, 1, 2, 23, 135, 60, 125, 56, 60, 135, 2, 2.49206
228, 1, wb, attraction, a-b-da, 14, 1, 2, 23, 135, 60, 125, 56, 60, 135, 1, 0.598605
228, 1, wb, attraction, a-b-db, 9, 3, 2, 24, 114, 186, 120, 195, 195, 120, 3, 3.05642
228, 1, wb, attraction, a-b-db, 9, 3, 2, 24, 114, 186, 120, 195, 195, 120, 2, 0.20012
228, 1, wb, attraction, a-b-db, 2, 2, 2, 25, 165, 90, 90, 165, 89, 163, 1, 18.3739
228, 1, wb, attraction, a-b-db, 2, 2, 2, 25, 165, 90, 90, 165, 89, 163, 2, 0.416904
228, 1, wb, catch, NA, 999, 999, 2, 26, 119, 136, 100, 95, 162, 153, 2, 1.14987
228, 1, wb, catch, NA, 999, 999, 2, 26, 119, 136, 100, 95, 162, 153, 3, 0.639049
228, 1, wb, filler, NA, 999, 999, 2, 27, 61, 80, 183, 89, 80, 87, 1, 1.30735
228, 1, wb, filler, NA, 999, 999, 2, 27, 61, 80, 183, 89, 80, 87, 2, 0.24566
228, 1, wb, attraction, a-b-da, 14, 2, 2, 28, 153, 83, 90, 165, 165, 90, 1, 3.44139
228, 1, wb, attraction, a-b-da, 14, 2, 2, 28, 153, 83, 90, 165, 165, 90, 2, 0.317653
228, 1, wb, attraction, a-b-db, 2, 3, 2, 29, 120, 195, 119, 193, 195, 120, 1, 27.1269
228, 1, wb, attraction, a-b-db, 2, 3, 2, 29, 120, 195, 119, 193, 195, 120, 2, 0.568972
228, 1, wb, filler, NA, 999, 999, 2, 30, 168, 154, 115, 121, 103, 170, 2, 1.24806
228, 1, wb, filler, NA, 999, 999, 2, 30, 168, 154, 115, 121, 103, 170, 1, 0.516948
228, 1, wb, attraction, a-b-db, 2, 1, 2, 31, 135, 60, 59, 134, 60, 135, 1, 1.80625
228, 1, wb, attraction, a-b-db, 2, 1, 2, 31, 135, 60, 59, 134, 60, 135, 3, 0.508253
228, 1, wb, attraction, a-b-db, 9, 1, 2, 32, 135, 60, 60, 135, 57, 129, 1, 1.52531
228, 1, wb, attraction, a-b-db, 9, 1, 2, 32, 135, 60, 60, 135, 57, 129, 2, 1.58277
228, 1, wb, attraction, a-b-db, 14, 2, 2, 33, 165, 90, 90, 165, 83, 153, 3, 1.22892
228, 1, wb, attraction, a-b-db, 14, 2, 2, 33, 165, 90, 90, 165, 83, 153, 2, 0.866472
228, 1, wb, attraction, a-b-da, 9, 2, 2, 34, 157, 86, 165, 90, 90, 165, 1, 3.18143
228, 1, wb, attraction, a-b-da, 9, 2, 2, 34, 157, 86, 165, 90, 90, 165, 3, 0.252427
228, 1, wb, attraction, a-b-da, 2, 1, 2, 35, 134, 59, 135, 60, 60, 135, 1, 2.83233
228, 1, wb, attraction, a-b-da, 2, 1, 2, 35, 134, 59, 135, 60, 60, 135, 3, 0.765417
228, 1, wb, filler, NA, 999, 999, 2, 36, 83, 70, 154, 104, 140, 161, 1, 0.820396
228, 1, wb, filler, NA, 999, 999, 2, 36, 83, 70, 154, 104, 140, 161, 3, 0.258932
228, 1, wb, catch, NA, 999, 999, 2, 37, 161, 94, 177, 138, 91, 104, 3, 0.886052
228, 1, wb, catch, NA, 999, 999, 2, 37, 161, 94, 177, 138, 91, 104, 2, 0.233829
228, 1, wb, attraction, a-b-da, 9, 1, 3, 1, 60, 135, 129, 57, 135, 60, 2, 4.96632
228, 1, wb, attraction, a-b-da, 9, 1, 3, 1, 60, 135, 129, 57, 135, 60, 1, 0.693434
228, 1, wb, attraction, a-b-db, 9, 3, 3, 2, 120, 195, 114, 186, 195, 120, 3, 4.32713
228, 1, wb, attraction, a-b-db, 9, 3, 3, 2, 120, 195, 114, 186, 195, 120, 1, 1.9357
228, 1, wb, filler, NA, 999, 999, 3, 3, 101, 172, 100, 192, 104, 121, 3, 1.07167
228, 1, wb, filler, NA, 999, 999, 3, 3, 101, 172, 100, 192, 104, 121, 2, 0.227462
228, 1, wb, filler, NA, 999, 999, 3, 4, 171, 73, 111, 171, 125, 171, 1, 1.88784
228, 1, wb, filler, NA, 999, 999, 3, 4, 171, 73, 111, 171, 125, 171, 3, 0.346631
228, 1, wb, catch, NA, 999, 999, 3, 5, 132, 123, 174, 141, 135, 60, 3, 0.842397
228, 1, wb, catch, NA, 999, 999, 3, 5, 132, 123, 174, 141, 135, 60, 2, 0.23944
228, 1, wb, filler, NA, 999, 999, 3, 6, 185, 96, 135, 130, 117, 123, 3, 1.77206
228, 1, wb, filler, NA, 999, 999, 3, 6, 185, 96, 135, 130, 117, 123, 1, 8.24341
228, 1, wb, filler, NA, 999, 999, 3, 7, 185, 58, 164, 166, 136, 78, 1, 1.07694
228, 1, wb, filler, NA, 999, 999, 3, 7, 185, 58, 164, 166, 136, 78, 2, 0.30446
228, 1, wb, filler, NA, 999, 999, 3, 8, 124, 88, 151, 60, 101, 193, 2, 0.81836
228, 1, wb, filler, NA, 999, 999, 3, 8, 124, 88, 151, 60, 101, 193, 3, 0.272709
228, 1, wb, attraction, a-b-da, 2, 1, 3, 9, 135, 60, 60, 135, 134, 59, 3, 28.3079
228, 1, wb, attraction, a-b-da, 2, 1, 3, 9, 135, 60, 60, 135, 134, 59, 1, 0.502318
228, 1, wb, attraction, a-b-db, 5, 1, 3, 10, 58, 132, 60, 135, 135, 60, 3, 2.13609
228, 1, wb, attraction, a-b-db, 5, 1, 3, 10, 58, 132, 60, 135, 135, 60, 2, 0.385502
228, 1, wb, catch, NA, 999, 999, 3, 11, 156, 159, 79, 116, 145, 110, 2, 1.03184
228, 1, wb, catch, NA, 999, 999, 3, 11, 156, 159, 79, 116, 145, 110, 1, 0.293617
228, 1, wb, attraction, a-b-db, 5, 3, 3, 12, 117, 190, 195, 120, 120, 195, 2, 2.78341
228, 1, wb, attraction, a-b-db, 5, 3, 3, 12, 117, 190, 195, 120, 120, 195, 3, 0.246522
228, 1, wb, attraction, a-b-db, 5, 2, 3, 13, 165, 90, 90, 165, 88, 161, 3, 3.13047
228, 1, wb, attraction, a-b-db, 5, 2, 3, 13, 165, 90, 90, 165, 88, 161, 2, 1.1474
228, 1, wb, attraction, a-b-da, 5, 3, 3, 14, 195, 120, 120, 195, 190, 117, 3, 1.45899
228, 1, wb, attraction, a-b-da, 5, 3, 3, 14, 195, 120, 120, 195, 190, 117, 2, 0.895155
228, 1, wb, catch, NA, 999, 999, 3, 15, 98, 157, 104, 91, 137, 178, 2, 1.02473
228, 1, wb, catch, NA, 999, 999, 3, 15, 98, 157, 104, 91, 137, 178, 3, 0.238479
228, 1, wb, attraction, a-b-da, 2, 3, 3, 16, 195, 120, 120, 195, 193, 119, 3, 1.69103
228, 1, wb, attraction, a-b-da, 2, 3, 3, 16, 195, 120, 120, 195, 193, 119, 2, 0.349794
228, 1, wb, attraction, a-b-da, 14, 3, 3, 17, 195, 120, 181, 111, 120, 195, 2, 2.1097
228, 1, wb, attraction, a-b-da, 14, 3, 3, 17, 195, 120, 181, 111, 120, 195, 1, 0.351685
228, 1, wb, attraction, a-b-db, 14, 1, 3, 18, 56, 125, 135, 60, 60, 135, 1, 1.67138
228, 1, wb, attraction, a-b-db, 14, 1, 3, 18, 56, 125, 135, 60, 60, 135, 2, 0.635552
228, 1, wb, attraction, a-b-da, 14, 2, 3, 19, 90, 165, 165, 90, 153, 83, 3, 3.18391
228, 1, wb, attraction, a-b-da, 14, 2, 3, 19, 90, 165, 165, 90, 153, 83, 2, 0.519012
228, 1, wb, attraction, a-b-db, 2, 1, 3, 20, 59, 134, 60, 135, 135, 60, 1, 2.48
228, 1, wb, attraction, a-b-db, 2, 1, 3, 20, 59, 134, 60, 135, 135, 60, 2, 0.275235
228, 1, wb, filler, NA, 999, 999, 3, 21, 90, 188, 181, 99, 71, 127, 3, 1.49395
228, 1, wb, filler, NA, 999, 999, 3, 21, 90, 188, 181, 99, 71, 127, 1, 1.51277
228, 1, wb, attraction, a-b-da, 5, 2, 3, 22, 90, 165, 161, 88, 165, 90, 3, 4.68947
228, 1, wb, attraction, a-b-da, 5, 2, 3, 22, 90, 165, 161, 88, 165, 90, 1, 0.307299
228, 1, wb, attraction, a-b-da, 14, 1, 3, 23, 60, 135, 135, 60, 125, 56, 3, 1.9965
228, 1, wb, attraction, a-b-da, 14, 1, 3, 23, 60, 135, 135, 60, 125, 56, 2, 0.467031
228, 1, wb, filler, NA, 999, 999, 3, 24, 179, 157, 104, 167, 109, 116, 3, 0.878292
228, 1, wb, filler, NA, 999, 999, 3, 24, 179, 157, 104, 167, 109, 116, 1, 0.257874
228, 1, wb, filler, NA, 999, 999, 3, 25, 120, 144, 114, 147, 191, 68, 3, 4.62913
228, 1, wb, filler, NA, 999, 999, 3, 25, 120, 144, 114, 147, 191, 68, 1, 0.513585
228, 1, wb, attraction, a-b-db, 9, 1, 3, 26, 60, 135, 57, 129, 135, 60, 3, 2.13088
228, 1, wb, attraction, a-b-db, 9, 1, 3, 26, 60, 135, 57, 129, 135, 60, 2, 0.340109
228, 1, wb, attraction, a-b-db, 2, 3, 3, 27, 195, 120, 120, 195, 119, 193, 3, 1.64392
228, 1, wb, attraction, a-b-db, 2, 3, 3, 27, 195, 120, 120, 195, 119, 193, 2, 1.92871
228, 1, wb, filler, NA, 999, 999, 3, 28, 126, 126, 173, 178, 157, 191, 1, 0.864689
228, 1, wb, filler, NA, 999, 999, 3, 28, 126, 126, 173, 178, 157, 191, 2, 0.301044
228, 1, wb, attraction, a-b-db, 14, 2, 3, 29, 90, 165, 165, 90, 83, 153, 3, 1.36692
228, 1, wb, attraction, a-b-db, 14, 2, 3, 29, 90, 165, 165, 90, 83, 153, 1, 0.287099
228, 1, wb, attraction, a-b-db, 14, 3, 3, 30, 111, 181, 195, 120, 120, 195, 2, 1.64178
228, 1, wb, attraction, a-b-db, 14, 3, 3, 30, 111, 181, 195, 120, 120, 195, 3, 1.29447
228, 1, wb, attraction, a-b-db, 9, 2, 3, 31, 86, 157, 90, 165, 165, 90, 1, 4.43204
228, 1, wb, attraction, a-b-db, 9, 2, 3, 31, 86, 157, 90, 165, 165, 90, 3, 0.804565
228, 1, wb, attraction, a-b-da, 5, 1, 3, 32, 132, 58, 135, 60, 60, 135, 1, 2.31429
228, 1, wb, attraction, a-b-da, 5, 1, 3, 32, 132, 58, 135, 60, 60, 135, 2, 0.540303
228, 1, wb, attraction, a-b-da, 2, 2, 3, 33, 165, 90, 163, 89, 90, 165, 3, 2.47608
228, 1, wb, attraction, a-b-da, 2, 2, 3, 33, 165, 90, 163, 89, 90, 165, 2, 0.871222
228, 1, wb, attraction, a-b-da, 9, 3, 3, 34, 186, 114, 120, 195, 195, 120, 1, 1.77016
228, 1, wb, attraction, a-b-da, 9, 3, 3, 34, 186, 114, 120, 195, 195, 120, 3, 2.73022
228, 1, wb, attraction, a-b-da, 9, 2, 3, 35, 90, 165, 165, 90, 157, 86, 3, 2.83398
228, 1, wb, attraction, a-b-da, 9, 2, 3, 35, 90, 165, 165, 90, 157, 86, 1, 0.799029
228, 1, wb, filler, NA, 999, 999, 3, 36, 118, 83, 82, 88, 59, 76, 3, 0.78079
228, 1, wb, filler, NA, 999, 999, 3, 36, 118, 83, 82, 88, 59, 76, 1, 0.436525
228, 1, wb, attraction, a-b-db, 2, 2, 3, 37, 89, 163, 165, 90, 90, 165, 3, 3.93709
228, 1, wb, attraction, a-b-db, 2, 2, 3, 37, 89, 163, 165, 90, 90, 165, 1, 0.47373
228, 1, wb, filler, NA, 999, 999, 4, 1, 93, 90, 143, 130, 156, 66, 1, 0.844156
228, 1, wb, filler, NA, 999, 999, 4, 1, 93, 90, 143, 130, 156, 66, 2, 0.273187
228, 1, wb, filler, NA, 999, 999, 4, 2, 78, 58, 160, 94, 177, 179, 1, 0.764467
228, 1, wb, filler, NA, 999, 999, 4, 2, 78, 58, 160, 94, 177, 179, 3, 0.300835
228, 1, wb, attraction, a-b-da, 9, 3, 4, 3, 120, 195, 195, 120, 186, 114, 3, 3.19073
228, 1, wb, attraction, a-b-da, 9, 3, 4, 3, 120, 195, 195, 120, 186, 114, 2, 0.989103
228, 1, wb, attraction, a-b-da, 14, 1, 4, 4, 135, 60, 60, 135, 125, 56, 3, 1.34724
228, 1, wb, attraction, a-b-da, 14, 1, 4, 4, 135, 60, 60, 135, 125, 56, 1, 0.516206
228, 1, wb, catch, NA, 999, 999, 4, 5, 181, 134, 97, 158, 67, 128, 3, 0.933288
228, 1, wb, catch, NA, 999, 999, 4, 5, 181, 134, 97, 158, 67, 128, 1, 0.279003
228, 1, wb, attraction, a-b-da, 9, 1, 4, 6, 135, 60, 129, 57, 60, 135, 2, 2.72151
228, 1, wb, attraction, a-b-da, 9, 1, 4, 6, 135, 60, 129, 57, 60, 135, 3, 0.491225
228, 1, wb, attraction, a-b-da, 14, 3, 4, 7, 120, 195, 195, 120, 181, 111, 3, 4.42915
228, 1, wb, attraction, a-b-da, 14, 3, 4, 7, 120, 195, 195, 120, 181, 111, 2, 0.353684
228, 1, wb, attraction, a-b-da, 5, 3, 4, 8, 195, 120, 190, 117, 120, 195, 1, 1.69761
228, 1, wb, attraction, a-b-da, 5, 3, 4, 8, 195, 120, 190, 117, 120, 195, 3, 0.34027
228, 1, wb, attraction, a-b-db, 5, 1, 4, 9, 60, 135, 58, 132, 135, 60, 3, 1.34014
228, 1, wb, attraction, a-b-db, 5, 1, 4, 9, 60, 135, 58, 132, 135, 60, 2, 0.300948
228, 1, wb, attraction, a-b-da, 5, 2, 4, 10, 90, 165, 161, 88, 165, 90, 1, 2.71894
228, 1, wb, attraction, a-b-da, 5, 2, 4, 10, 90, 165, 161, 88, 165, 90, 3, 0.472646
228, 1, wb, attraction, a-b-db, 2, 2, 4, 11, 89, 163, 165, 90, 90, 165, 3, 1.99577
228, 1, wb, attraction, a-b-db, 2, 2, 4, 11, 89, 163, 165, 90, 90, 165, 2, 0.650391
228, 1, wb, attraction, a-b-db, 14, 2, 4, 12, 90, 165, 165, 90, 83, 153, 3, 2.03011
228, 1, wb, attraction, a-b-db, 14, 2, 4, 12, 90, 165, 165, 90, 83, 153, 1, 0.411493
228, 1, wb, attraction, a-b-db, 5, 3, 4, 13, 195, 120, 120, 195, 117, 190, 3, 3.14459
228, 1, wb, attraction, a-b-db, 5, 3, 4, 13, 195, 120, 120, 195, 117, 190, 1, 0.67305
228, 1, wb, attraction, a-b-da, 2, 2, 4, 14, 90, 165, 165, 90, 163, 89, 1, 7.58003
228, 1, wb, attraction, a-b-da, 2, 2, 4, 14, 90, 165, 165, 90, 163, 89, 2, 0.433634
228, 1, wb, attraction, a-b-db, 9, 3, 4, 15, 195, 120, 120, 195, 114, 186, 3, 1.5741
228, 1, wb, attraction, a-b-db, 9, 3, 4, 15, 195, 120, 120, 195, 114, 186, 1, 0.381605
228, 1, wb, attraction, a-b-da, 5, 1, 4, 16, 60, 135, 135, 60, 132, 58, 1, 1.51601
228, 1, wb, attraction, a-b-da, 5, 1, 4, 16, 60, 135, 135, 60, 132, 58, 3, 0.374205
228, 1, wb, catch, NA, 999, 999, 4, 17, 115, 140, 145, 170, 96, 99, 3, 0.724854
228, 1, wb, catch, NA, 999, 999, 4, 17, 115, 140, 145, 170, 96, 99, 2, 0.582562
228, 1, wb, filler, NA, 999, 999, 4, 18, 90, 88, 108, 170, 167, 187, 1, 0.692825
228, 1, wb, filler, NA, 999, 999, 4, 18, 90, 88, 108, 170, 167, 187, 3, 0.328009
228, 1, wb, catch, NA, 999, 999, 4, 19, 99, 96, 97, 158, 140, 175, 1, 0.688478
228, 1, wb, catch, NA, 999, 999, 4, 19, 99, 96, 97, 158, 140, 175, 3, 0.307623
228, 1, wb, filler, NA, 999, 999, 4, 20, 144, 136, 163, 87, 116, 111, 3, 0.724811
228, 1, wb, filler, NA, 999, 999, 4, 20, 144, 136, 163, 87, 116, 111, 1, 0.278527
228, 1, wb, attraction, a-b-db, 5, 2, 4, 21, 90, 165, 88, 161, 165, 90, 2, 3.2812
228, 1, wb, attraction, a-b-db, 5, 2, 4, 21, 90, 165, 88, 161, 165, 90, 3, 0.348007
228, 1, wb, attraction, a-b-da, 2, 1, 4, 22, 134, 59, 60, 135, 135, 60, 3, 2.3238
228, 1, wb, attraction, a-b-da, 2, 1, 4, 22, 134, 59, 60, 135, 135, 60, 1, 0.621047
228, 1, wb, attraction, a-b-da, 2, 3, 4, 23, 193, 119, 195, 120, 120, 195, 3, 2.16227
228, 1, wb, attraction, a-b-da, 2, 3, 4, 23, 193, 119, 195, 120, 120, 195, 2, 0.442276
228, 1, wb, filler, NA, 999, 999, 4, 24, 181, 171, 129, 175, 183, 86, 3, 0.918044
228, 1, wb, filler, NA, 999, 999, 4, 24, 181, 171, 129, 175, 183, 86, 1, 0.392401
228, 1, wb, attraction, a-b-db, 14, 3, 4, 25, 120, 195, 111, 181, 195, 120, 2, 3.39007
228, 1, wb, attraction, a-b-db, 14, 3, 4, 25, 120, 195, 111, 181, 195, 120, 3, 0.396397
228, 1, wb, attraction, a-b-da, 9, 2, 4, 26, 157, 86, 165, 90, 90, 165, 1, 1.77825
228, 1, wb, attraction, a-b-da, 9, 2, 4, 26, 157, 86, 165, 90, 90, 165, 2, 0.609481
228, 1, wb, attraction, a-b-db, 9, 2, 4, 27, 86, 157, 165, 90, 90, 165, 1, 3.39065
228, 1, wb, attraction, a-b-db, 9, 2, 4, 27, 86, 157, 165, 90, 90, 165, 3, 0.460829
228, 1, wb, filler, NA, 999, 999, 4, 28, 147, 80, 93, 145, 122, 60, 3, 0.751979
228, 1, wb, filler, NA, 999, 999, 4, 28, 147, 80, 93, 145, 122, 60, 2, 0.529126
228, 1, wb, filler, NA, 999, 999, 4, 29, 80, 187, 85, 137, 187, 91, 2, 1.74565
228, 1, wb, filler, NA, 999, 999, 4, 29, 80, 187, 85, 137, 187, 91, 3, 0.458249
228, 1, wb, attraction, a-b-db, 9, 1, 4, 30, 135, 60, 60, 135, 57, 129, 3, 2.84545
228, 1, wb, attraction, a-b-db, 9, 1, 4, 30, 135, 60, 60, 135, 57, 129, 2, 0.745866
228, 1, wb, filler, NA, 999, 999, 4, 31, 108, 128, 149, 61, 125, 110, 2, 3.56966
228, 1, wb, filler, NA, 999, 999, 4, 31, 108, 128, 149, 61, 125, 110, 1, 1.3051
228, 1, wb, attraction, a-b-db, 2, 3, 4, 32, 120, 195, 195, 120, 119, 193, 3, 5.59456
228, 1, wb, attraction, a-b-db, 2, 3, 4, 32, 120, 195, 195, 120, 119, 193, 2, 0.34412
228, 1, wb, attraction, a-b-db, 2, 1, 4, 33, 59, 134, 135, 60, 60, 135, 3, 5.3362
228, 1, wb, attraction, a-b-db, 2, 1, 4, 33, 59, 134, 135, 60, 60, 135, 2, 0.456422
228, 1, wb, attraction, a-b-db, 14, 1, 4, 34, 135, 60, 56, 125, 60, 135, 2, 2.13222
228, 1, wb, attraction, a-b-db, 14, 1, 4, 34, 135, 60, 56, 125, 60, 135, 1, 0.525522
228, 1, wb, filler, NA, 999, 999, 4, 35, 88, 140, 188, 80, 162, 130, 1, 1.05383
228, 1, wb, filler, NA, 999, 999, 4, 35, 88, 140, 188, 80, 162, 130, 3, 0.338776
228, 1, wb, filler, NA, 999, 999, 4, 36, 165, 100, 134, 160, 109, 108, 3, 1.3713
228, 1, wb, filler, NA, 999, 999, 4, 36, 165, 100, 134, 160, 109, 108, 2, 0.299578
228, 1, wb, attraction, a-b-da, 14, 2, 4, 37, 90, 165, 165, 90, 153, 83, 3, 4.30137
228, 1, wb, attraction, a-b-da, 14, 2, 4, 37, 90, 165, 165, 90, 153, 83, 2, 0.375333
228, 1, wb, catch, NA, 999, 999, 5, 1, 169, 146, 124, 131, 85, 110, 3, 1.29246
228, 1, wb, catch, NA, 999, 999, 5, 1, 169, 146, 124, 131, 85, 110, 1, 0.76741
228, 1, wb, attraction, a-b-db, 9, 2, 5, 2, 86, 157, 165, 90, 90, 165, 1, 1.40648
228, 1, wb, attraction, a-b-db, 9, 2, 5, 2, 86, 157, 165, 90, 90, 165, 2, 0.252637
228, 1, wb, attraction, a-b-db, 5, 3, 5, 3, 195, 120, 120, 195, 117, 190, 1, 2.5685
228, 1, wb, attraction, a-b-db, 5, 3, 5, 3, 195, 120, 120, 195, 117, 190, 2, 0.592317
228, 1, wb, filler, NA, 999, 999, 5, 4, 80, 182, 92, 123, 79, 179, 3, 3.57414
228, 1, wb, filler, NA, 999, 999, 5, 4, 80, 182, 92, 123, 79, 179, 1, 0.380916
228, 1, wb, filler, NA, 999, 999, 5, 5, 122, 119, 65, 94, 79, 66, 3, 0.931386
228, 1, wb, filler, NA, 999, 999, 5, 5, 122, 119, 65, 94, 79, 66, 1, 0.397074
228, 1, wb, attraction, a-b-db, 2, 3, 5, 6, 119, 193, 195, 120, 120, 195, 3, 1.97911
228, 1, wb, attraction, a-b-db, 2, 3, 5, 6, 119, 193, 195, 120, 120, 195, 2, 0.338305
228, 1, wb, attraction, a-b-da, 9, 1, 5, 7, 129, 57, 60, 135, 135, 60, 1, 2.64279
228, 1, wb, attraction, a-b-da, 9, 1, 5, 7, 129, 57, 60, 135, 135, 60, 2, 0.415202
228, 1, wb, attraction, a-b-da, 9, 3, 5, 8, 195, 120, 120, 195, 186, 114, 3, 2.15649
228, 1, wb, attraction, a-b-da, 9, 3, 5, 8, 195, 120, 120, 195, 186, 114, 1, 0.42838
228, 1, wb, attraction, a-b-da, 2, 3, 5, 9, 120, 195, 193, 119, 195, 120, 1, 3.18488
228, 1, wb, attraction, a-b-da, 2, 3, 5, 9, 120, 195, 193, 119, 195, 120, 3, 0.999899
228, 1, wb, filler, NA, 999, 999, 5, 10, 183, 131, 167, 143, 132, 71, 3, 0.781522
228, 1, wb, filler, NA, 999, 999, 5, 10, 183, 131, 167, 143, 132, 71, 2, 0.725224
228, 1, wb, attraction, a-b-da, 5, 1, 5, 11, 60, 135, 132, 58, 135, 60, 1, 2.50966
228, 1, wb, attraction, a-b-da, 5, 1, 5, 11, 60, 135, 132, 58, 135, 60, 3, 0.559494
228, 1, wb, attraction, a-b-db, 14, 3, 5, 12, 120, 195, 111, 181, 195, 120, 2, 2.17451
228, 1, wb, attraction, a-b-db, 14, 3, 5, 12, 120, 195, 111, 181, 195, 120, 3, 0.781839
228, 1, wb, attraction, a-b-da, 2, 1, 5, 13, 60, 135, 135, 60, 134, 59, 1, 2.76429
228, 1, wb, attraction, a-b-da, 2, 1, 5, 13, 60, 135, 135, 60, 134, 59, 3, 0.755968
228, 1, wb, attraction, a-b-db, 5, 1, 5, 14, 58, 132, 135, 60, 60, 135, 1, 1.0676
228, 1, wb, attraction, a-b-db, 5, 1, 5, 14, 58, 132, 135, 60, 60, 135, 3, 1.18398
228, 1, wb, attraction, a-b-db, 9, 3, 5, 15, 195, 120, 114, 186, 120, 195, 2, 1.59822
228, 1, wb, attraction, a-b-db, 9, 3, 5, 15, 195, 120, 114, 186, 120, 195, 3, 0.332971
228, 1, wb, filler, NA, 999, 999, 5, 16, 57, 74, 106, 150, 82, 152, 1, 0.821515
228, 1, wb, filler, NA, 999, 999, 5, 16, 57, 74, 106, 150, 82, 152, 2, 0.235196
228, 1, wb, filler, NA, 999, 999, 5, 17, 107, 65, 113, 65, 71, 127, 1, 2.87981
228, 1, wb, filler, NA, 999, 999, 5, 17, 107, 65, 113, 65, 71, 127, 3, 0.266962
228, 1, wb, filler, NA, 999, 999, 5, 18, 145, 153, 164, 103, 98, 150, 3, 1.27012
228, 1, wb, filler, NA, 999, 999, 5, 18, 145, 153, 164, 103, 98, 150, 1, 0.25836
228, 1, wb, attraction, a-b-da, 14, 1, 5, 19, 135, 60, 125, 56, 60, 135, 2, 1.71761
228, 1, wb, attraction, a-b-da, 14, 1, 5, 19, 135, 60, 125, 56, 60, 135, 3, 0.303587
228, 1, wb, attraction, a-b-db, 2, 2, 5, 20, 89, 163, 90, 165, 165, 90, 1, 3.12943
228, 1, wb, attraction, a-b-db, 2, 2, 5, 20, 89, 163, 90, 165, 165, 90, 2, 0.28242
228, 1, wb, attraction, a-b-db, 2, 1, 5, 21, 60, 135, 59, 134, 135, 60, 1, 1.90095
228, 1, wb, attraction, a-b-db, 2, 1, 5, 21, 60, 135, 59, 134, 135, 60, 2, 0.687636
228, 1, wb, attraction, a-b-da, 14, 3, 5, 22, 120, 195, 195, 120, 181, 111, 2, 2.93013
228, 1, wb, attraction, a-b-da, 14, 3, 5, 22, 120, 195, 195, 120, 181, 111, 1, 0.347235
228, 1, wb, attraction, a-b-db, 14, 2, 5, 23, 165, 90, 90, 165, 83, 153, 3, 2.21104
228, 1, wb, attraction, a-b-db, 14, 2, 5, 23, 165, 90, 90, 165, 83, 153, 2, 0.92091
228, 1, wb, attraction, a-b-da, 5, 2, 5, 24, 90, 165, 165, 90, 161, 88, 1, 1.84983
228, 1, wb, attraction, a-b-da, 5, 2, 5, 24, 90, 165, 165, 90, 161, 88, 2, 0.254566
228, 1, wb, catch, NA, 999, 999, 5, 25, 143, 112, 184, 131, 63, 132, 3, 0.89054
228, 1, wb, catch, NA, 999, 999, 5, 25, 143, 112, 184, 131, 63, 132, 2, 0.285451
228, 1, wb, attraction, a-b-db, 5, 2, 5, 26, 88, 161, 165, 90, 90, 165, 2, 2.01607
228, 1, wb, attraction, a-b-db, 5, 2, 5, 26, 88, 161, 165, 90, 90, 165, 3, 0.598011
228, 1, wb, filler, NA, 999, 999, 5, 27, 112, 60, 193, 138, 183, 194, 1, 1.7478
228, 1, wb, filler, NA, 999, 999, 5, 27, 112, 60, 193, 138, 183, 194, 3, 0.28452
228, 1, wb, attraction, a-b-db, 9, 1, 5, 28, 135, 60, 57, 129, 60, 135, 2, 2.03105
228, 1, wb, attraction, a-b-db, 9, 1, 5, 28, 135, 60, 57, 129, 60, 135, 1, 0.388317
228, 1, wb, attraction, a-b-da, 9, 2, 5, 29, 90, 165, 157, 86, 165, 90, 2, 2.58684
228, 1, wb, attraction, a-b-da, 9, 2, 5, 29, 90, 165, 157, 86, 165, 90, 1, 1.33019
228, 1, wb, filler, NA, 999, 999, 5, 30, 190, 81, 158, 90, 140, 184, 2, 4.45825
228, 1, wb, filler, NA, 999, 999, 5, 30, 190, 81, 158, 90, 140, 184, 3, 0.23748
228, 1, wb, filler, NA, 999, 999, 5, 31, 139, 159, 157, 115, 102, 174, 3, 1.91414
228, 1, wb, filler, NA, 999, 999, 5, 31, 139, 159, 157, 115, 102, 174, 1, 0.436101
228, 1, wb, attraction, a-b-da, 2, 2, 5, 32, 90, 165, 163, 89, 165, 90, 3, 2.23259
228, 1, wb, attraction, a-b-da, 2, 2, 5, 32, 90, 165, 163, 89, 165, 90, 1, 0.373926
228, 1, wb, attraction, a-b-db, 14, 1, 5, 33, 56, 125, 135, 60, 60, 135, 1, 1.12434
228, 1, wb, attraction, a-b-db, 14, 1, 5, 33, 56, 125, 135, 60, 60, 135, 3, 0.421967
228, 1, wb, attraction, a-b-da, 14, 2, 5, 34, 165, 90, 153, 83, 90, 165, 2, 1.23516
228, 1, wb, attraction, a-b-da, 14, 2, 5, 34, 165, 90, 153, 83, 90, 165, 1, 0.312784
228, 1, wb, filler, NA, 999, 999, 5, 35, 59, 134, 126, 135, 195, 166, 1, 0.961834
228, 1, wb, filler, NA, 999, 999, 5, 35, 59, 134, 126, 135, 195, 166, 3, 0.250208
228, 1, wb, attraction, a-b-da, 5, 3, 5, 36, 190, 117, 120, 195, 195, 120, 1, 2.16614
228, 1, wb, attraction, a-b-da, 5, 3, 5, 36, 190, 117, 120, 195, 195, 120, 2, 0.253942
228, 1, wb, catch, NA, 999, 999, 5, 37, 175, 140, 72, 123, 133, 122, 2, 0.850045
228, 1, wb, catch, NA, 999, 999, 5, 37, 175, 140, 72, 123, 133, 122, 1, 0.206943
228, 1, wb, attraction, a-b-db, 14, 3, 6, 1, 195, 120, 120, 195, 111, 181, 3, 1.95608
228, 1, wb, attraction, a-b-db, 14, 3, 6, 1, 195, 120, 120, 195, 111, 181, 2, 0.220197
228, 1, wb, filler, NA, 999, 999, 6, 2, 195, 180, 158, 175, 120, 75, 3, 0.785299
228, 1, wb, filler, NA, 999, 999, 6, 2, 195, 180, 158, 175, 120, 75, 1, 0.241042
228, 1, wb, attraction, a-b-db, 9, 2, 6, 3, 86, 157, 165, 90, 90, 165, 1, 4.35696
228, 1, wb, attraction, a-b-db, 9, 2, 6, 3, 86, 157, 165, 90, 90, 165, 3, 0.348247
228, 1, wb, filler, NA, 999, 999, 6, 4, 113, 169, 138, 102, 93, 154, 3, 1.26802
228, 1, wb, filler, NA, 999, 999, 6, 4, 113, 169, 138, 102, 93, 154, 1, 0.784261
228, 1, wb, attraction, a-b-da, 14, 2, 6, 5, 90, 165, 153, 83, 165, 90, 2, 1.7427
228, 1, wb, attraction, a-b-da, 14, 2, 6, 5, 90, 165, 153, 83, 165, 90, 3, 0.783569
228, 1, wb, filler, NA, 999, 999, 6, 6, 193, 145, 179, 195, 75, 181, 3, 1.18976
228, 1, wb, filler, NA, 999, 999, 6, 6, 193, 145, 179, 195, 75, 181, 2, 0.316753
228, 1, wb, attraction, a-b-db, 2, 1, 6, 7, 60, 135, 59, 134, 135, 60, 3, 1.70194
228, 1, wb, attraction, a-b-db, 2, 1, 6, 7, 60, 135, 59, 134, 135, 60, 1, 0.28066
228, 1, wb, attraction, a-b-da, 5, 2, 6, 8, 165, 90, 90, 165, 161, 88, 3, 1.36318
228, 1, wb, attraction, a-b-da, 5, 2, 6, 8, 165, 90, 90, 165, 161, 88, 2, 0.555357
228, 1, wb, filler, NA, 999, 999, 6, 9, 69, 175, 56, 125, 80, 136, 2, 1.47561
228, 1, wb, filler, NA, 999, 999, 6, 9, 69, 175, 56, 125, 80, 136, 3, 0.758868
228, 1, wb, filler, NA, 999, 999, 6, 10, 170, 110, 175, 162, 171, 175, 1, 1.76568
228, 1, wb, filler, NA, 999, 999, 6, 10, 170, 110, 175, 162, 171, 175, 3, 1.64594
228, 1, wb, filler, NA, 999, 999, 6, 11, 111, 61, 73, 190, 151, 90, 1, 1.64925
228, 1, wb, filler, NA, 999, 999, 6, 11, 111, 61, 73, 190, 151, 90, 3, 0.462103
228, 1, wb, filler, NA, 999, 999, 6, 12, 154, 133, 187, 106, 163, 56, 3, 1.53732
228, 1, wb, filler, NA, 999, 999, 6, 12, 154, 133, 187, 106, 163, 56, 2, 1.11472
228, 1, wb, attraction, a-b-da, 5, 1, 6, 13, 135, 60, 132, 58, 60, 135, 2, 2.45158
228, 1, wb, attraction, a-b-da, 5, 1, 6, 13, 135, 60, 132, 58, 60, 135, 3, 0.296117
228, 1, wb, attraction, a-b-da, 2, 2, 6, 14, 90, 165, 163, 89, 165, 90, 3, 4.20212
228, 1, wb, attraction, a-b-da, 2, 2, 6, 14, 90, 165, 163, 89, 165, 90, 1, 0.247994
228, 1, wb, attraction, a-b-db, 5, 1, 6, 15, 58, 132, 60, 135, 135, 60, 3, 3.14795
228, 1, wb, attraction, a-b-db, 5, 1, 6, 15, 58, 132, 60, 135, 135, 60, 2, 0.388289
228, 1, wb, filler, NA, 999, 999, 6, 16, 118, 76, 117, 129, 141, 186, 1, 1.45067
228, 1, wb, filler, NA, 999, 999, 6, 16, 118, 76, 117, 129, 141, 186, 3, 0.255463
228, 1, wb, attraction, a-b-db, 5, 3, 6, 17, 195, 120, 120, 195, 117, 190, 1, 2.14728
228, 1, wb, attraction, a-b-db, 5, 3, 6, 17, 195, 120, 120, 195, 117, 190, 2, 0.299946
228, 1, wb, attraction, a-b-db, 9, 3, 6, 18, 195, 120, 120, 195, 114, 186, 3, 1.95787
228, 1, wb, attraction, a-b-db, 9, 3, 6, 18, 195, 120, 120, 195, 114, 186, 2, 0.230003
228, 1, wb, catch, NA, 999, 999, 6, 19, 66, 129, 171, 144, 112, 143, 1, 0.858369
228, 1, wb, catch, NA, 999, 999, 6, 19, 66, 129, 171, 144, 112, 143, 2, 0.598776
228, 1, wb, attraction, a-b-db, 2, 2, 6, 20, 165, 90, 90, 165, 89, 163, 1, 3.22069
228, 1, wb, attraction, a-b-db, 2, 2, 6, 20, 165, 90, 90, 165, 89, 163, 2, 0.426341
228, 1, wb, attraction, a-b-da, 2, 3, 6, 21, 195, 120, 193, 119, 120, 195, 3, 1.82271
228, 1, wb, attraction, a-b-da, 2, 3, 6, 21, 195, 120, 193, 119, 120, 195, 2, 0.80149
228, 1, wb, attraction, a-b-da, 9, 3, 6, 22, 186, 114, 120, 195, 195, 120, 1, 2.99393
228, 1, wb, attraction, a-b-da, 9, 3, 6, 22, 186, 114, 120, 195, 195, 120, 3, 1.72031
228, 1, wb, attraction, a-b-db, 14, 2, 6, 23, 83, 153, 90, 165, 165, 90, 3, 3.29682
228, 1, wb, attraction, a-b-db, 14, 2, 6, 23, 83, 153, 90, 165, 165, 90, 2, 0.803128
228, 1, wb, attraction, a-b-da, 5, 3, 6, 24, 120, 195, 195, 120, 190, 117, 1, 2.44877
228, 1, wb, attraction, a-b-da, 5, 3, 6, 24, 120, 195, 195, 120, 190, 117, 2, 0.349308
228, 1, wb, attraction, a-b-db, 5, 2, 6, 25, 90, 165, 165, 90, 88, 161, 3, 1.1733
228, 1, wb, attraction, a-b-db, 5, 2, 6, 25, 90, 165, 165, 90, 88, 161, 1, 0.716949
228, 1, wb, catch, NA, 999, 999, 6, 26, 67, 128, 193, 122, 94, 161, 1, 0.781766
228, 1, wb, catch, NA, 999, 999, 6, 26, 67, 128, 193, 122, 94, 161, 2, 0.237541
228, 1, wb, attraction, a-b-db, 9, 1, 6, 27, 57, 129, 135, 60, 60, 135, 1, 2.33016
228, 1, wb, attraction, a-b-db, 9, 1, 6, 27, 57, 129, 135, 60, 60, 135, 2, 0.259416
228, 1, wb, attraction, a-b-da, 2, 1, 6, 28, 135, 60, 60, 135, 134, 59, 3, 4.45468
228, 1, wb, attraction, a-b-da, 2, 1, 6, 28, 135, 60, 60, 135, 134, 59, 2, 1.06648
228, 1, wb, attraction, a-b-da, 9, 1, 6, 29, 135, 60, 129, 57, 60, 135, 2, 2.53346
228, 1, wb, attraction, a-b-da, 9, 1, 6, 29, 135, 60, 129, 57, 60, 135, 3, 0.590596
228, 1, wb, filler, NA, 999, 999, 6, 30, 194, 167, 152, 73, 71, 125, 3, 1.50834
228, 1, wb, filler, NA, 999, 999, 6, 30, 194, 167, 152, 73, 71, 125, 1, 0.182468
228, 1, wb, catch, NA, 999, 999, 6, 31, 121, 74, 140, 115, 181, 134, 1, 1.10903
228, 1, wb, catch, NA, 999, 999, 6, 31, 121, 74, 140, 115, 181, 134, 3, 0.223326
228, 1, wb, attraction, a-b-da, 14, 3, 6, 32, 195, 120, 120, 195, 181, 111, 3, 1.93995
228, 1, wb, attraction, a-b-da, 14, 3, 6, 32, 195, 120, 120, 195, 181, 111, 2, 1.50078
228, 1, wb, filler, NA, 999, 999, 6, 33, 64, 67, 58, 155, 58, 153, 1, 1.35023
228, 1, wb, filler, NA, 999, 999, 6, 33, 64, 67, 58, 155, 58, 153, 2, 0.278904
228, 1, wb, attraction, a-b-da, 14, 1, 6, 34, 125, 56, 60, 135, 135, 60, 1, 1.92141
228, 1, wb, attraction, a-b-da, 14, 1, 6, 34, 125, 56, 60, 135, 135, 60, 2, 0.458942
228, 1, wb, attraction, a-b-db, 2, 3, 6, 35, 195, 120, 120, 195, 119, 193, 3, 2.662
228, 1, wb, attraction, a-b-db, 2, 3, 6, 35, 195, 120, 120, 195, 119, 193, 2, 0.369728
228, 1, wb, attraction, a-b-da, 9, 2, 6, 36, 165, 90, 157, 86, 90, 165, 2, 5.72102
228, 1, wb, attraction, a-b-da, 9, 2, 6, 36, 165, 90, 157, 86, 90, 165, 1, 0.449826
228, 1, wb, attraction, a-b-db, 14, 1, 6, 37, 56, 125, 135, 60, 60, 135, 1, 3.18958
228, 1, wb, attraction, a-b-db, 14, 1, 6, 37, 56, 125, 135, 60, 60, 135, 3, 0.435971
228, 1, wb, filler, NA, 999, 999, 7, 1, 106, 162, 189, 92, 64, 162, 3, 1.87241
228, 1, wb, filler, NA, 999, 999, 7, 1, 106, 162, 189, 92, 64, 162, 2, 0.683887
228, 1, wb, attraction, a-b-db, 9, 1, 7, 2, 57, 129, 135, 60, 60, 135, 3, 1.79818
228, 1, wb, attraction, a-b-db, 9, 1, 7, 2, 57, 129, 135, 60, 60, 135, 1, 0.260888
228, 1, wb, attraction, a-b-da, 5, 1, 7, 3, 132, 58, 60, 135, 135, 60, 3, 1.33615
228, 1, wb, attraction, a-b-da, 5, 1, 7, 3, 132, 58, 60, 135, 135, 60, 2, 0.617696
228, 1, wb, attraction, a-b-da, 14, 3, 7, 4, 181, 111, 120, 195, 195, 120, 3, 2.67081
228, 1, wb, attraction, a-b-da, 14, 3, 7, 4, 181, 111, 120, 195, 195, 120, 1, 1.60254
228, 1, wb, attraction, a-b-db, 9, 3, 7, 5, 195, 120, 120, 195, 114, 186, 3, 2.03195
228, 1, wb, attraction, a-b-db, 9, 3, 7, 5, 195, 120, 120, 195, 114, 186, 2, 0.301331
228, 1, wb, attraction, a-b-da, 5, 2, 7, 6, 165, 90, 90, 165, 161, 88, 3, 2.86317
228, 1, wb, attraction, a-b-da, 5, 2, 7, 6, 165, 90, 90, 165, 161, 88, 2, 0.45088
228, 1, wb, attraction, a-b-da, 9, 3, 7, 7, 120, 195, 186, 114, 195, 120, 2, 4.55072
228, 1, wb, attraction, a-b-da, 9, 3, 7, 7, 120, 195, 186, 114, 195, 120, 3, 0.55072
228, 1, wb, attraction, a-b-db, 5, 1, 7, 8, 58, 132, 135, 60, 60, 135, 2, 1.92639
228, 1, wb, attraction, a-b-db, 5, 1, 7, 8, 58, 132, 135, 60, 60, 135, 1, 0.615733
228, 1, wb, attraction, a-b-da, 2, 3, 7, 9, 120, 195, 195, 120, 193, 119, 2, 5.64486
228, 1, wb, attraction, a-b-da, 2, 3, 7, 9, 120, 195, 195, 120, 193, 119, 1, 0.360551
228, 1, wb, catch, NA, 999, 999, 7, 10, 124, 131, 170, 145, 130, 65, 3, 1.05561
228, 1, wb, catch, NA, 999, 999, 7, 10, 124, 131, 170, 145, 130, 65, 2, 0.291854
228, 1, wb, attraction, a-b-da, 14, 2, 7, 11, 90, 165, 165, 90, 153, 83, 3, 2.18175
228, 1, wb, attraction, a-b-da, 14, 2, 7, 11, 90, 165, 165, 90, 153, 83, 1, 0.261016
228, 1, wb, attraction, a-b-db, 2, 2, 7, 12, 90, 165, 89, 163, 165, 90, 3, 2.53633
228, 1, wb, attraction, a-b-db, 2, 2, 7, 12, 90, 165, 89, 163, 165, 90, 1, 0.337426
228, 1, wb, attraction, a-b-db, 14, 2, 7, 13, 83, 153, 90, 165, 165, 90, 1, 3.25785
228, 1, wb, attraction, a-b-db, 14, 2, 7, 13, 83, 153, 90, 165, 165, 90, 2, 0.629472
228, 1, wb, catch, NA, 999, 999, 7, 14, 133, 122, 142, 173, 70, 125, 3, 0.913855
228, 1, wb, catch, NA, 999, 999, 7, 14, 133, 122, 142, 173, 70, 125, 2, 0.532232
228, 1, wb, filler, NA, 999, 999, 7, 15, 84, 190, 137, 119, 98, 122, 3, 2.10076
228, 1, wb, filler, NA, 999, 999, 7, 15, 84, 190, 137, 119, 98, 122, 1, 0.247505
228, 1, wb, attraction, a-b-da, 9, 2, 7, 16, 90, 165, 165, 90, 157, 86, 1, 7.24339
228, 1, wb, attraction, a-b-da, 9, 2, 7, 16, 90, 165, 165, 90, 157, 86, 2, 0.454203
228, 1, wb, attraction, a-b-db, 2, 3, 7, 17, 120, 195, 119, 193, 195, 120, 2, 7.81017
228, 1, wb, attraction, a-b-db, 2, 3, 7, 17, 120, 195, 119, 193, 195, 120, 3, 0.502338
228, 1, wb, filler, NA, 999, 999, 7, 18, 187, 92, 88, 73, 91, 69, 2, 1.8481
228, 1, wb, filler, NA, 999, 999, 7, 18, 187, 92, 88, 73, 91, 69, 1, 0.260774
228, 1, wb, attraction, a-b-da, 5, 3, 7, 19, 190, 117, 195, 120, 120, 195, 1, 1.39195
228, 1, wb, attraction, a-b-da, 5, 3, 7, 19, 190, 117, 195, 120, 120, 195, 2, 0.278824
228, 1, wb, filler, NA, 999, 999, 7, 20, 108, 109, 107, 185, 140, 91, 1, 1.08133
228, 1, wb, filler, NA, 999, 999, 7, 20, 108, 109, 107, 185, 140, 91, 2, 0.34103
228, 1, wb, attraction, a-b-db, 14, 3, 7, 21, 120, 195, 111, 181, 195, 120, 2, 3.26885
228, 1, wb, attraction, a-b-db, 14, 3, 7, 21, 120, 195, 111, 181, 195, 120, 1, 0.672489
228, 1, wb, attraction, a-b-db, 2, 1, 7, 22, 59, 134, 135, 60, 60, 135, 3, 3.24355
228, 1, wb, attraction, a-b-db, 2, 1, 7, 22, 59, 134, 135, 60, 60, 135, 1, 0.255821
228, 1, wb, filler, NA, 999, 999, 7, 23, 65, 61, 95, 102, 192, 145, 1, 1.01968
228, 1, wb, filler, NA, 999, 999, 7, 23, 65, 61, 95, 102, 192, 145, 3, 0.60196
228, 1, wb, attraction, a-b-db, 9, 2, 7, 24, 165, 90, 90, 165, 86, 157, 1, 1.57573
228, 1, wb, attraction, a-b-db, 9, 2, 7, 24, 165, 90, 90, 165, 86, 157, 2, 0.335268
228, 1, wb, catch, NA, 999, 999, 7, 25, 171, 144, 110, 85, 93, 162, 2, 1.15181
228, 1, wb, catch, NA, 999, 999, 7, 25, 171, 144, 110, 85, 93, 162, 1, 0.288811
228, 1, wb, attraction, a-b-da, 2, 2, 7, 26, 90, 165, 163, 89, 165, 90, 2, 6.50719
228, 1, wb, attraction, a-b-da, 2, 2, 7, 26, 90, 165, 163, 89, 165, 90, 3, 0.731956
228, 1, wb, attraction, a-b-da, 14, 1, 7, 27, 135, 60, 125, 56, 60, 135, 2, 4.93213
228, 1, wb, attraction, a-b-da, 14, 1, 7, 27, 135, 60, 125, 56, 60, 135, 1, 0.57268
228, 1, wb, attraction, a-b-db, 14, 1, 7, 28, 60, 135, 56, 125, 135, 60, 2, 1.97968
228, 1, wb, attraction, a-b-db, 14, 1, 7, 28, 60, 135, 56, 125, 135, 60, 3, 1.64308
228, 1, wb, filler, NA, 999, 999, 7, 29, 123, 191, 169, 156, 61, 71, 3, 2.21445
228, 1, wb, filler, NA, 999, 999, 7, 29, 123, 191, 169, 156, 61, 71, 2, 0.4846
228, 1, wb, filler, NA, 999, 999, 7, 30, 117, 95, 150, 131, 132, 128, 1, 2.03097
228, 1, wb, filler, NA, 999, 999, 7, 30, 117, 95, 150, 131, 132, 128, 2, 0.860181
228, 1, wb, attraction, a-b-da, 2, 1, 7, 31, 135, 60, 134, 59, 60, 135, 2, 2.82325
228, 1, wb, attraction, a-b-da, 2, 1, 7, 31, 135, 60, 134, 59, 60, 135, 1, 0.452337
228, 1, wb, filler, NA, 999, 999, 7, 32, 149, 162, 149, 184, 65, 193, 3, 2.40016
228, 1, wb, filler, NA, 999, 999, 7, 32, 149, 162, 149, 184, 65, 193, 2, 0.462667
228, 1, wb, attraction, a-b-db, 5, 2, 7, 33, 90, 165, 88, 161, 165, 90, 2, 2.01792
228, 1, wb, attraction, a-b-db, 5, 2, 7, 33, 90, 165, 88, 161, 165, 90, 3, 0.423862
228, 1, wb, filler, NA, 999, 999, 7, 34, 177, 112, 137, 147, 93, 153, 3, 2.29232
228, 1, wb, filler, NA, 999, 999, 7, 34, 177, 112, 137, 147, 93, 153, 1, 0.406902
228, 1, wb, attraction, a-b-da, 9, 1, 7, 35, 135, 60, 60, 135, 129, 57, 3, 2.64414
228, 1, wb, attraction, a-b-da, 9, 1, 7, 35, 135, 60, 60, 135, 129, 57, 1, 0.520521
228, 1, wb, attraction, a-b-db, 5, 3, 7, 36, 120, 195, 117, 190, 195, 120, 2, 3.51374
228, 1, wb, attraction, a-b-db, 5, 3, 7, 36, 120, 195, 117, 190, 195, 120, 3, 0.435135
228, 1, wb, filler, NA, 999, 999, 7, 37, 114, 67, 177, 193, 181, 155, 1, 1.42363
228, 1, wb, filler, NA, 999, 999, 7, 37, 114, 67, 177, 193, 181, 155, 2, 0.5892
228, 1, wb, filler, NA, 999, 999, 8, 1, 140, 135, 91, 186, 113, 103, 3, 1.87555
228, 1, wb, filler, NA, 999, 999, 8, 1, 140, 135, 91, 186, 113, 103, 1, 0.302933
228, 1, wb, catch, NA, 999, 999, 8, 2, 92, 163, 143, 172, 69, 126, 3, 1.17685
228, 1, wb, catch, NA, 999, 999, 8, 2, 92, 163, 143, 172, 69, 126, 2, 0.464578
228, 1, wb, attraction, a-b-da, 14, 2, 8, 3, 153, 83, 165, 90, 90, 165, 1, 1.92355
228, 1, wb, attraction, a-b-da, 14, 2, 8, 3, 153, 83, 165, 90, 90, 165, 3, 0.252931
228, 1, wb, attraction, a-b-da, 9, 3, 8, 4, 195, 120, 120, 195, 186, 114, 3, 1.88082
228, 1, wb, attraction, a-b-da, 9, 3, 8, 4, 195, 120, 120, 195, 186, 114, 2, 0.468225
228, 1, wb, attraction, a-b-db, 2, 1, 8, 5, 59, 134, 135, 60, 60, 135, 2, 2.50332
228, 1, wb, attraction, a-b-db, 2, 1, 8, 5, 59, 134, 135, 60, 60, 135, 3, 0.329943
228, 1, wb, filler, NA, 999, 999, 8, 6, 82, 80, 90, 147, 131, 101, 1, 0.76232
228, 1, wb, filler, NA, 999, 999, 8, 6, 82, 80, 90, 147, 131, 101, 2, 1.46679
228, 1, wb, attraction, a-b-da, 2, 3, 8, 7, 193, 119, 195, 120, 120, 195, 1, 8.30964
228, 1, wb, attraction, a-b-da, 2, 3, 8, 7, 193, 119, 195, 120, 120, 195, 3, 0.285698
228, 1, wb, filler, NA, 999, 999, 8, 8, 171, 76, 164, 158, 131, 68, 3, 0.816265
228, 1, wb, filler, NA, 999, 999, 8, 8, 171, 76, 164, 158, 131, 68, 2, 0.278608
228, 1, wb, attraction, a-b-da, 14, 1, 8, 9, 60, 135, 135, 60, 125, 56, 3, 2.45703
228, 1, wb, attraction, a-b-da, 14, 1, 8, 9, 60, 135, 135, 60, 125, 56, 2, 0.52492
228, 1, wb, attraction, a-b-db, 2, 3, 8, 10, 119, 193, 195, 120, 120, 195, 1, 3.09337
228, 1, wb, attraction, a-b-db, 2, 3, 8, 10, 119, 193, 195, 120, 120, 195, 3, 0.583806
228, 1, wb, attraction, a-b-da, 9, 2, 8, 11, 165, 90, 90, 165, 157, 86, 3, 2.38214
228, 1, wb, attraction, a-b-da, 9, 2, 8, 11, 165, 90, 90, 165, 157, 86, 2, 0.493388
228, 1, wb, filler, NA, 999, 999, 8, 12, 75, 173, 135, 95, 117, 99, 3, 2.29536
228, 1, wb, filler, NA, 999, 999, 8, 12, 75, 173, 135, 95, 117, 99, 2, 0.361676
228, 1, wb, attraction, a-b-db, 9, 3, 8, 13, 120, 195, 195, 120, 114, 186, 3, 1.95289
228, 1, wb, attraction, a-b-db, 9, 3, 8, 13, 120, 195, 195, 120, 114, 186, 2, 0.473586
228, 1, wb, filler, NA, 999, 999, 8, 14, 113, 80, 98, 185, 95, 103, 1, 1.60402
228, 1, wb, filler, NA, 999, 999, 8, 14, 113, 80, 98, 185, 95, 103, 2, 0.234201
228, 1, wb, attraction, a-b-db, 2, 2, 8, 15, 90, 165, 89, 163, 165, 90, 3, 1.87069
228, 1, wb, attraction, a-b-db, 2, 2, 8, 15, 90, 165, 89, 163, 165, 90, 1, 0.418717
228, 1, wb, attraction, a-b-db, 14, 1, 8, 16, 60, 135, 135, 60, 56, 125, 3, 3.11997
228, 1, wb, attraction, a-b-db, 14, 1, 8, 16, 60, 135, 135, 60, 56, 125, 1, 0.337607
228, 1, wb, filler, NA, 999, 999, 8, 17, 116, 142, 142, 151, 93, 104, 3, 0.834076
228, 1, wb, filler, NA, 999, 999, 8, 17, 116, 142, 142, 151, 93, 104, 2, 0.271899
228, 1, wb, attraction, a-b-db, 9, 1, 8, 18, 135, 60, 57, 129, 60, 135, 2, 2.61099
228, 1, wb, attraction, a-b-db, 9, 1, 8, 18, 135, 60, 57, 129, 60, 135, 3, 0.497076
228, 1, wb, attraction, a-b-da, 5, 3, 8, 19, 120, 195, 195, 120, 190, 117, 2, 2.0508
228, 1, wb, attraction, a-b-da, 5, 3, 8, 19, 120, 195, 195, 120, 190, 117, 3, 0.863253
228, 1, wb, catch, NA, 999, 999, 8, 20, 113, 142, 168, 147, 69, 126, 3, 0.994317
228, 1, wb, catch, NA, 999, 999, 8, 20, 113, 142, 168, 147, 69, 126, 2, 0.241253
228, 1, wb, attraction, a-b-da, 5, 1, 8, 21, 60, 135, 135, 60, 132, 58, 1, 5.13314
228, 1, wb, attraction, a-b-da, 5, 1, 8, 21, 60, 135, 135, 60, 132, 58, 3, 0.845457
228, 1, wb, attraction, a-b-da, 2, 1, 8, 22, 135, 60, 134, 59, 60, 135, 3, 2.85732
228, 1, wb, attraction, a-b-da, 2, 1, 8, 22, 135, 60, 134, 59, 60, 135, 1, 0.301025
228, 1, wb, attraction, a-b-da, 2, 2, 8, 23, 90, 165, 165, 90, 163, 89, 1, 4.93473
228, 1, wb, attraction, a-b-da, 2, 2, 8, 23, 90, 165, 165, 90, 163, 89, 3, 0.327277
228, 1, wb, attraction, a-b-db, 5, 3, 8, 24, 117, 190, 120, 195, 195, 120, 1, 2.25584
228, 1, wb, attraction, a-b-db, 5, 3, 8, 24, 117, 190, 120, 195, 195, 120, 3, 0.515647
228, 1, wb, attraction, a-b-da, 14, 3, 8, 25, 195, 120, 181, 111, 120, 195, 2, 2.22884
228, 1, wb, attraction, a-b-da, 14, 3, 8, 25, 195, 120, 181, 111, 120, 195, 1, 1.14624
228, 1, wb, catch, NA, 999, 999, 8, 26, 154, 101, 129, 66, 134, 181, 2, 0.825592
228, 1, wb, catch, NA, 999, 999, 8, 26, 154, 101, 129, 66, 134, 181, 3, 0.25532
228, 1, wb, filler, NA, 999, 999, 8, 27, 137, 177, 105, 190, 157, 87, 3, 2.32657
228, 1, wb, filler, NA, 999, 999, 8, 27, 137, 177, 105, 190, 157, 87, 1, 0.684579
228, 1, wb, attraction, a-b-db, 5, 1, 8, 28, 58, 132, 60, 135, 135, 60, 1, 3.01483
228, 1, wb, attraction, a-b-db, 5, 1, 8, 28, 58, 132, 60, 135, 135, 60, 3, 0.372572
228, 1, wb, attraction, a-b-da, 9, 1, 8, 29, 129, 57, 135, 60, 60, 135, 2, 4.33971
228, 1, wb, attraction, a-b-da, 9, 1, 8, 29, 129, 57, 135, 60, 60, 135, 3, 0.76372
228, 1, wb, filler, NA, 999, 999, 8, 30, 87, 83, 122, 68, 189, 90, 1, 1.61881
228, 1, wb, filler, NA, 999, 999, 8, 30, 87, 83, 122, 68, 189, 90, 3, 0.464841
228, 1, wb, attraction, a-b-db, 5, 2, 8, 31, 165, 90, 88, 161, 90, 165, 1, 1.98791
228, 1, wb, attraction, a-b-db, 5, 2, 8, 31, 165, 90, 88, 161, 90, 165, 2, 0.339367
228, 1, wb, attraction, a-b-db, 9, 2, 8, 32, 90, 165, 165, 90, 86, 157, 3, 1.93242
228, 1, wb, attraction, a-b-db, 9, 2, 8, 32, 90, 165, 165, 90, 86, 157, 2, 1.41318
228, 1, wb, filler, NA, 999, 999, 8, 33, 112, 108, 193, 178, 154, 100, 1, 1.746
228, 1, wb, filler, NA, 999, 999, 8, 33, 112, 108, 193, 178, 154, 100, 2, 0.418723
228, 1, wb, attraction, a-b-db, 14, 2, 8, 34, 165, 90, 90, 165, 83, 153, 3, 2.3439
228, 1, wb, attraction, a-b-db, 14, 2, 8, 34, 165, 90, 90, 165, 83, 153, 1, 0.304515
228, 1, wb, attraction, a-b-db, 14, 3, 8, 35, 120, 195, 195, 120, 111, 181, 3, 4.09839
228, 1, wb, attraction, a-b-db, 14, 3, 8, 35, 120, 195, 195, 120, 111, 181, 2, 0.476363
228, 1, wb, attraction, a-b-da, 5, 2, 8, 36, 161, 88, 90, 165, 165, 90, 1, 4.23092
228, 1, wb, attraction, a-b-da, 5, 2, 8, 36, 161, 88, 90, 165, 165, 90, 2, 0.427408
228, 1, wb, filler, NA, 999, 999, 8, 37, 147, 87, 194, 109, 108, 176, 1, 1.42401
228, 1, wb, filler, NA, 999, 999, 8, 37, 147, 87, 194, 109, 108, 176, 2, 0.293502
