sub_n, computer_n, bw_cond, effect, set, distance, diag, block_n, trial_n, h1, w1, h2, w2, h3, w3, choice, rt 
353, 1, bw, practice, NA, 999, 999, 0, 1, 101, 100, 90, 112, 85, 122, 2, 3.5539
353, 1, bw, practice, NA, 999, 999, 0, 1, 101, 100, 90, 112, 85, 122, 1, 5.54574
353, 1, bw, practice, NA, 999, 999, 0, 2, 100, 137, 73, 93, 64, 128, 1, 3.95646
353, 1, bw, practice, NA, 999, 999, 0, 2, 100, 137, 73, 93, 64, 128, 2, 2.30758
353, 1, bw, practice, NA, 999, 999, 0, 3, 116, 113, 171, 142, 126, 145, 2, 2.37925
353, 1, bw, practice, NA, 999, 999, 0, 3, 116, 113, 171, 142, 126, 145, 1, 2.25796
353, 1, bw, attraction, a-b-da, 14, 2, 1, 1, 153, 83, 90, 165, 165, 90, 2, 3.74299
353, 1, bw, attraction, a-b-da, 14, 2, 1, 1, 153, 83, 90, 165, 165, 90, 1, 2.6711
353, 1, bw, filler, NA, 999, 999, 1, 2, 175, 100, 57, 68, 93, 127, 1, 2.20159
353, 1, bw, filler, NA, 999, 999, 1, 2, 175, 100, 57, 68, 93, 127, 2, 1.5362
353, 1, bw, filler, NA, 999, 999, 1, 3, 142, 138, 88, 83, 187, 87, 1, 4.4003
353, 1, bw, filler, NA, 999, 999, 1, 3, 142, 138, 88, 83, 187, 87, 2, 1.12629
353, 1, bw, attraction, a-b-da, 9, 2, 1, 4, 90, 165, 165, 90, 157, 86, 2, 2.89446
353, 1, bw, attraction, a-b-da, 9, 2, 1, 4, 90, 165, 165, 90, 157, 86, 3, 2.30495
353, 1, bw, attraction, a-b-db, 5, 2, 1, 5, 88, 161, 90, 165, 165, 90, 2, 2.64204
353, 1, bw, attraction, a-b-db, 5, 2, 1, 5, 88, 161, 90, 165, 165, 90, 3, 2.76669
353, 1, bw, attraction, a-b-da, 14, 1, 1, 6, 125, 56, 60, 135, 135, 60, 2, 3.86903
353, 1, bw, attraction, a-b-da, 14, 1, 1, 6, 125, 56, 60, 135, 135, 60, 1, 1.05646
353, 1, bw, filler, NA, 999, 999, 1, 7, 57, 56, 68, 137, 168, 100, 3, 2.40402
353, 1, bw, filler, NA, 999, 999, 1, 7, 57, 56, 68, 137, 168, 100, 1, 1.68269
353, 1, bw, attraction, a-b-db, 14, 2, 1, 8, 165, 90, 90, 165, 83, 153, 2, 4.69268
353, 1, bw, attraction, a-b-db, 14, 2, 1, 8, 165, 90, 90, 165, 83, 153, 3, 3.7185
353, 1, bw, filler, NA, 999, 999, 1, 9, 82, 87, 66, 154, 59, 195, 2, 5.43863
353, 1, bw, filler, NA, 999, 999, 1, 9, 82, 87, 66, 154, 59, 195, 1, 4.30694
353, 1, bw, attraction, a-b-da, 5, 3, 1, 10, 195, 120, 120, 195, 190, 117, 2, 2.9875
353, 1, bw, attraction, a-b-da, 5, 3, 1, 10, 195, 120, 120, 195, 190, 117, 3, 2.12254
353, 1, bw, filler, NA, 999, 999, 1, 11, 186, 57, 104, 112, 151, 156, 3, 1.73926
353, 1, bw, filler, NA, 999, 999, 1, 11, 186, 57, 104, 112, 151, 156, 1, 3.732
353, 1, bw, attraction, a-b-da, 2, 3, 1, 12, 195, 120, 193, 119, 120, 195, 1, 5.37146
353, 1, bw, attraction, a-b-da, 2, 3, 1, 12, 195, 120, 193, 119, 120, 195, 2, 2.54635
353, 1, bw, attraction, a-b-da, 2, 2, 1, 13, 163, 89, 90, 165, 165, 90, 2, 5.68145
353, 1, bw, attraction, a-b-da, 2, 2, 1, 13, 163, 89, 90, 165, 165, 90, 1, 1.73972
353, 1, bw, catch, NA, 999, 999, 1, 14, 95, 100, 110, 145, 178, 137, 3, 1.18781
353, 1, bw, catch, NA, 999, 999, 1, 14, 95, 100, 110, 145, 178, 137, 1, 1.91551
353, 1, bw, attraction, a-b-db, 9, 1, 1, 15, 135, 60, 60, 135, 57, 129, 2, 4.11613
353, 1, bw, attraction, a-b-db, 9, 1, 1, 15, 135, 60, 60, 135, 57, 129, 1, 1.70957
353, 1, bw, attraction, a-b-da, 9, 3, 1, 16, 120, 195, 195, 120, 186, 114, 1, 2.67815
353, 1, bw, attraction, a-b-da, 9, 3, 1, 16, 120, 195, 195, 120, 186, 114, 3, 3.47329
353, 1, bw, attraction, a-b-db, 2, 2, 1, 17, 165, 90, 90, 165, 89, 163, 3, 5.93155
353, 1, bw, attraction, a-b-db, 2, 2, 1, 17, 165, 90, 90, 165, 89, 163, 1, 0.779699
353, 1, bw, attraction, a-b-db, 9, 2, 1, 18, 90, 165, 165, 90, 86, 157, 1, 3.1459
353, 1, bw, attraction, a-b-db, 9, 2, 1, 18, 90, 165, 165, 90, 86, 157, 2, 2.16233
353, 1, bw, attraction, a-b-db, 5, 1, 1, 19, 60, 135, 135, 60, 58, 132, 1, 5.89684
353, 1, bw, attraction, a-b-db, 5, 1, 1, 19, 60, 135, 135, 60, 58, 132, 2, 2.30636
353, 1, bw, filler, NA, 999, 999, 1, 20, 171, 67, 157, 71, 96, 105, 1, 5.85959
353, 1, bw, filler, NA, 999, 999, 1, 20, 171, 67, 157, 71, 96, 105, 3, 0.486378
353, 1, bw, attraction, a-b-db, 14, 1, 1, 21, 135, 60, 56, 125, 60, 135, 3, 4.71282
353, 1, bw, attraction, a-b-db, 14, 1, 1, 21, 135, 60, 56, 125, 60, 135, 1, 2.762
353, 1, bw, attraction, a-b-da, 2, 1, 1, 22, 60, 135, 134, 59, 135, 60, 1, 5.74455
353, 1, bw, attraction, a-b-da, 2, 1, 1, 22, 60, 135, 134, 59, 135, 60, 3, 0.863884
353, 1, bw, filler, NA, 999, 999, 1, 23, 129, 157, 104, 167, 58, 182, 1, 1.84288
353, 1, bw, filler, NA, 999, 999, 1, 23, 129, 157, 104, 167, 58, 182, 3, 1.85564
353, 1, bw, catch, NA, 999, 999, 1, 24, 161, 94, 168, 147, 78, 117, 2, 9.97898
353, 1, bw, catch, NA, 999, 999, 1, 24, 161, 94, 168, 147, 78, 117, 3, 1.32785
353, 1, bw, attraction, a-b-db, 9, 3, 1, 25, 195, 120, 114, 186, 120, 195, 3, 3.78409
353, 1, bw, attraction, a-b-db, 9, 3, 1, 25, 195, 120, 114, 186, 120, 195, 2, 1.143
353, 1, bw, attraction, a-b-db, 2, 3, 1, 26, 120, 195, 119, 193, 195, 120, 2, 6.96659
353, 1, bw, attraction, a-b-db, 2, 3, 1, 26, 120, 195, 119, 193, 195, 120, 1, 0.684799
353, 1, bw, attraction, a-b-db, 2, 1, 1, 27, 60, 135, 59, 134, 135, 60, 2, 5.6392
353, 1, bw, attraction, a-b-db, 2, 1, 1, 27, 60, 135, 59, 134, 135, 60, 3, 1.21157
353, 1, bw, catch, NA, 999, 999, 1, 28, 142, 173, 61, 134, 108, 147, 1, 2.40039
353, 1, bw, catch, NA, 999, 999, 1, 28, 142, 173, 61, 134, 108, 147, 2, 1.223
353, 1, bw, filler, NA, 999, 999, 1, 29, 130, 131, 82, 149, 165, 56, 1, 5.94781
353, 1, bw, filler, NA, 999, 999, 1, 29, 130, 131, 82, 149, 165, 56, 3, 1.61133
353, 1, bw, attraction, a-b-da, 5, 1, 1, 30, 135, 60, 60, 135, 132, 58, 2, 9.07206
353, 1, bw, attraction, a-b-da, 5, 1, 1, 30, 135, 60, 60, 135, 132, 58, 1, 1.90596
353, 1, bw, attraction, a-b-da, 5, 2, 1, 31, 161, 88, 165, 90, 90, 165, 3, 2.69127
353, 1, bw, attraction, a-b-da, 5, 2, 1, 31, 161, 88, 165, 90, 90, 165, 1, 2.36571
353, 1, bw, attraction, a-b-da, 9, 1, 1, 32, 129, 57, 60, 135, 135, 60, 2, 2.46828
353, 1, bw, attraction, a-b-da, 9, 1, 1, 32, 129, 57, 60, 135, 135, 60, 1, 0.728082
353, 1, bw, filler, NA, 999, 999, 1, 33, 110, 83, 121, 117, 170, 146, 3, 2.01651
353, 1, bw, filler, NA, 999, 999, 1, 33, 110, 83, 121, 117, 170, 146, 1, 0.638471
353, 1, bw, filler, NA, 999, 999, 1, 34, 143, 164, 132, 92, 72, 130, 1, 1.83492
353, 1, bw, filler, NA, 999, 999, 1, 34, 143, 164, 132, 92, 72, 130, 3, 1.4244
353, 1, bw, attraction, a-b-db, 5, 3, 1, 35, 120, 195, 117, 190, 195, 120, 2, 4.31647
353, 1, bw, attraction, a-b-db, 5, 3, 1, 35, 120, 195, 117, 190, 195, 120, 3, 0.733695
353, 1, bw, attraction, a-b-da, 14, 3, 1, 36, 181, 111, 195, 120, 120, 195, 2, 2.69413
353, 1, bw, attraction, a-b-da, 14, 3, 1, 36, 181, 111, 195, 120, 120, 195, 1, 1.90457
353, 1, bw, attraction, a-b-db, 14, 3, 1, 37, 111, 181, 120, 195, 195, 120, 2, 3.79393
353, 1, bw, attraction, a-b-db, 14, 3, 1, 37, 111, 181, 120, 195, 195, 120, 1, 1.3681
353, 1, bw, attraction, a-b-da, 5, 1, 2, 1, 132, 58, 135, 60, 60, 135, 3, 2.53494
353, 1, bw, attraction, a-b-da, 5, 1, 2, 1, 132, 58, 135, 60, 60, 135, 1, 0.488084
353, 1, bw, filler, NA, 999, 999, 2, 2, 135, 185, 194, 178, 148, 95, 2, 1.84249
353, 1, bw, filler, NA, 999, 999, 2, 2, 135, 185, 194, 178, 148, 95, 3, 0.543443
353, 1, bw, attraction, a-b-da, 9, 3, 2, 3, 186, 114, 195, 120, 120, 195, 3, 4.69508
353, 1, bw, attraction, a-b-da, 9, 3, 2, 3, 186, 114, 195, 120, 120, 195, 1, 0.704869
353, 1, bw, catch, NA, 999, 999, 2, 4, 149, 106, 158, 157, 117, 78, 2, 4.72262
353, 1, bw, catch, NA, 999, 999, 2, 4, 149, 106, 158, 157, 117, 78, 3, 1.13108
353, 1, bw, attraction, a-b-db, 2, 3, 2, 5, 119, 193, 195, 120, 120, 195, 3, 2.65135
353, 1, bw, attraction, a-b-db, 2, 3, 2, 5, 119, 193, 195, 120, 120, 195, 2, 1.35986
353, 1, bw, attraction, a-b-db, 5, 1, 2, 6, 60, 135, 135, 60, 58, 132, 1, 2.95863
353, 1, bw, attraction, a-b-db, 5, 1, 2, 6, 60, 135, 135, 60, 58, 132, 2, 0.694407
353, 1, bw, attraction, a-b-db, 14, 3, 2, 7, 111, 181, 120, 195, 195, 120, 2, 14.2161
353, 1, bw, attraction, a-b-db, 14, 3, 2, 7, 111, 181, 120, 195, 195, 120, 1, 0.610261
353, 1, bw, attraction, a-b-db, 2, 2, 2, 8, 165, 90, 90, 165, 89, 163, 2, 3.27137
353, 1, bw, attraction, a-b-db, 2, 2, 2, 8, 165, 90, 90, 165, 89, 163, 1, 0.538995
353, 1, bw, attraction, a-b-db, 9, 1, 2, 9, 135, 60, 57, 129, 60, 135, 3, 2.10758
353, 1, bw, attraction, a-b-db, 9, 1, 2, 9, 135, 60, 57, 129, 60, 135, 1, 0.533437
353, 1, bw, filler, NA, 999, 999, 2, 10, 78, 142, 154, 189, 101, 162, 2, 1.67792
353, 1, bw, filler, NA, 999, 999, 2, 10, 78, 142, 154, 189, 101, 162, 1, 1.02539
353, 1, bw, attraction, a-b-db, 9, 3, 2, 11, 195, 120, 120, 195, 114, 186, 2, 8.50157
353, 1, bw, attraction, a-b-db, 9, 3, 2, 11, 195, 120, 120, 195, 114, 186, 3, 3.11032
353, 1, bw, filler, NA, 999, 999, 2, 12, 60, 189, 134, 89, 185, 111, 3, 1.80655
353, 1, bw, filler, NA, 999, 999, 2, 12, 60, 189, 134, 89, 185, 111, 2, 0.724557
353, 1, bw, catch, NA, 999, 999, 2, 13, 120, 75, 184, 131, 109, 146, 2, 1.82104
353, 1, bw, catch, NA, 999, 999, 2, 13, 120, 75, 184, 131, 109, 146, 1, 0.907039
353, 1, bw, filler, NA, 999, 999, 2, 14, 142, 123, 129, 161, 124, 107, 2, 2.62011
353, 1, bw, filler, NA, 999, 999, 2, 14, 142, 123, 129, 161, 124, 107, 3, 0.905957
353, 1, bw, attraction, a-b-da, 14, 2, 2, 15, 153, 83, 90, 165, 165, 90, 2, 6.17962
353, 1, bw, attraction, a-b-da, 14, 2, 2, 15, 153, 83, 90, 165, 165, 90, 1, 0.561604
353, 1, bw, attraction, a-b-db, 5, 2, 2, 16, 165, 90, 90, 165, 88, 161, 2, 2.73684
353, 1, bw, attraction, a-b-db, 5, 2, 2, 16, 165, 90, 90, 165, 88, 161, 1, 1.39386
353, 1, bw, catch, NA, 999, 999, 2, 17, 129, 186, 74, 121, 109, 146, 1, 1.19145
353, 1, bw, catch, NA, 999, 999, 2, 17, 129, 186, 74, 121, 109, 146, 2, 0.878214
353, 1, bw, filler, NA, 999, 999, 2, 18, 115, 111, 104, 91, 73, 111, 1, 1.3766
353, 1, bw, filler, NA, 999, 999, 2, 18, 115, 111, 104, 91, 73, 111, 3, 1.20816
353, 1, bw, attraction, a-b-da, 5, 3, 2, 19, 120, 195, 190, 117, 195, 120, 1, 3.45313
353, 1, bw, attraction, a-b-da, 5, 3, 2, 19, 120, 195, 190, 117, 195, 120, 2, 1.97733
353, 1, bw, filler, NA, 999, 999, 2, 20, 82, 59, 164, 184, 182, 150, 2, 1.78326
353, 1, bw, filler, NA, 999, 999, 2, 20, 82, 59, 164, 184, 182, 150, 1, 0.550662
353, 1, bw, attraction, a-b-db, 9, 2, 2, 21, 165, 90, 90, 165, 86, 157, 2, 1.79847
353, 1, bw, attraction, a-b-db, 9, 2, 2, 21, 165, 90, 90, 165, 86, 157, 3, 1.55732
353, 1, bw, filler, NA, 999, 999, 2, 22, 171, 195, 76, 58, 139, 109, 1, 2.52415
353, 1, bw, filler, NA, 999, 999, 2, 22, 171, 195, 76, 58, 139, 109, 2, 0.781276
353, 1, bw, attraction, a-b-da, 2, 1, 2, 23, 60, 135, 135, 60, 134, 59, 2, 2.27559
353, 1, bw, attraction, a-b-da, 2, 1, 2, 23, 60, 135, 135, 60, 134, 59, 1, 2.09483
353, 1, bw, attraction, a-b-da, 9, 1, 2, 24, 129, 57, 60, 135, 135, 60, 2, 4.05603
353, 1, bw, attraction, a-b-da, 9, 1, 2, 24, 129, 57, 60, 135, 135, 60, 1, 1.62738
353, 1, bw, attraction, a-b-da, 2, 2, 2, 25, 90, 165, 165, 90, 163, 89, 1, 5.06353
353, 1, bw, attraction, a-b-da, 2, 2, 2, 25, 90, 165, 165, 90, 163, 89, 2, 0.986706
353, 1, bw, filler, NA, 999, 999, 2, 26, 119, 74, 151, 97, 85, 154, 2, 3.01687
353, 1, bw, filler, NA, 999, 999, 2, 26, 119, 74, 151, 97, 85, 154, 1, 0.582707
353, 1, bw, filler, NA, 999, 999, 2, 27, 162, 144, 160, 150, 61, 107, 2, 2.38905
353, 1, bw, filler, NA, 999, 999, 2, 27, 162, 144, 160, 150, 61, 107, 3, 0.387559
353, 1, bw, attraction, a-b-db, 14, 1, 2, 28, 56, 125, 135, 60, 60, 135, 3, 3.34612
353, 1, bw, attraction, a-b-db, 14, 1, 2, 28, 56, 125, 135, 60, 60, 135, 1, 0.554416
353, 1, bw, attraction, a-b-da, 14, 3, 2, 29, 195, 120, 120, 195, 181, 111, 2, 5.94619
353, 1, bw, attraction, a-b-da, 14, 3, 2, 29, 195, 120, 120, 195, 181, 111, 3, 0.77748
353, 1, bw, attraction, a-b-da, 14, 1, 2, 30, 125, 56, 60, 135, 135, 60, 2, 3.56797
353, 1, bw, attraction, a-b-da, 14, 1, 2, 30, 125, 56, 60, 135, 135, 60, 1, 0.663449
353, 1, bw, attraction, a-b-db, 5, 3, 2, 31, 195, 120, 117, 190, 120, 195, 1, 4.99456
353, 1, bw, attraction, a-b-db, 5, 3, 2, 31, 195, 120, 117, 190, 120, 195, 2, 1.58436
353, 1, bw, attraction, a-b-da, 2, 3, 2, 32, 120, 195, 195, 120, 193, 119, 2, 6.88643
353, 1, bw, attraction, a-b-da, 2, 3, 2, 32, 120, 195, 195, 120, 193, 119, 3, 0.576159
353, 1, bw, attraction, a-b-da, 9, 2, 2, 33, 157, 86, 165, 90, 90, 165, 3, 2.53468
353, 1, bw, attraction, a-b-da, 9, 2, 2, 33, 157, 86, 165, 90, 90, 165, 1, 0.959875
353, 1, bw, attraction, a-b-da, 5, 2, 2, 34, 90, 165, 161, 88, 165, 90, 1, 4.68672
353, 1, bw, attraction, a-b-da, 5, 2, 2, 34, 90, 165, 161, 88, 165, 90, 2, 0.769225
353, 1, bw, filler, NA, 999, 999, 2, 35, 112, 66, 190, 104, 107, 167, 2, 1.89636
353, 1, bw, filler, NA, 999, 999, 2, 35, 112, 66, 190, 104, 107, 167, 1, 0.995007
353, 1, bw, attraction, a-b-db, 14, 2, 2, 36, 90, 165, 83, 153, 165, 90, 1, 4.11274
353, 1, bw, attraction, a-b-db, 14, 2, 2, 36, 90, 165, 83, 153, 165, 90, 2, 0.778047
353, 1, bw, attraction, a-b-db, 2, 1, 2, 37, 60, 135, 59, 134, 135, 60, 2, 3.51253
353, 1, bw, attraction, a-b-db, 2, 1, 2, 37, 60, 135, 59, 134, 135, 60, 1, 0.513898
353, 1, bw, attraction, a-b-da, 5, 1, 3, 1, 60, 135, 132, 58, 135, 60, 1, 10.491
353, 1, bw, attraction, a-b-da, 5, 1, 3, 1, 60, 135, 132, 58, 135, 60, 2, 0.427026
353, 1, bw, filler, NA, 999, 999, 3, 2, 65, 110, 79, 139, 66, 85, 2, 1.27956
353, 1, bw, filler, NA, 999, 999, 3, 2, 65, 110, 79, 139, 66, 85, 3, 0.763188
353, 1, bw, attraction, a-b-da, 2, 2, 3, 3, 163, 89, 165, 90, 90, 165, 3, 1.91426
353, 1, bw, attraction, a-b-da, 2, 2, 3, 3, 163, 89, 165, 90, 90, 165, 1, 1.30026
353, 1, bw, attraction, a-b-db, 2, 1, 3, 4, 135, 60, 59, 134, 60, 135, 2, 3.00578
353, 1, bw, attraction, a-b-db, 2, 1, 3, 4, 135, 60, 59, 134, 60, 135, 1, 0.651362
353, 1, bw, attraction, a-b-db, 14, 1, 3, 5, 56, 125, 60, 135, 135, 60, 2, 2.03124
353, 1, bw, attraction, a-b-db, 14, 1, 3, 5, 56, 125, 60, 135, 135, 60, 1, 1.43647
353, 1, bw, attraction, a-b-db, 2, 3, 3, 6, 119, 193, 195, 120, 120, 195, 1, 3.75263
353, 1, bw, attraction, a-b-db, 2, 3, 3, 6, 119, 193, 195, 120, 120, 195, 3, 11.9848
353, 1, bw, attraction, a-b-db, 5, 3, 3, 7, 117, 190, 195, 120, 120, 195, 2, 1.08378
353, 1, bw, attraction, a-b-db, 5, 3, 3, 7, 117, 190, 195, 120, 120, 195, 1, 1.03931
353, 1, bw, attraction, a-b-db, 5, 1, 3, 8, 60, 135, 58, 132, 135, 60, 2, 4.93956
353, 1, bw, attraction, a-b-db, 5, 1, 3, 8, 60, 135, 58, 132, 135, 60, 1, 1.10734
353, 1, bw, filler, NA, 999, 999, 3, 9, 125, 157, 115, 169, 192, 64, 2, 2.27628
353, 1, bw, filler, NA, 999, 999, 3, 9, 125, 157, 115, 169, 192, 64, 3, 0.8716
353, 1, bw, attraction, a-b-da, 14, 2, 3, 10, 153, 83, 90, 165, 165, 90, 2, 4.6345
353, 1, bw, attraction, a-b-da, 14, 2, 3, 10, 153, 83, 90, 165, 165, 90, 1, 1.383
353, 1, bw, catch, NA, 999, 999, 3, 11, 158, 97, 77, 118, 181, 134, 3, 1.12535
353, 1, bw, catch, NA, 999, 999, 3, 11, 158, 97, 77, 118, 181, 134, 2, 0.814947
353, 1, bw, attraction, a-b-db, 14, 2, 3, 12, 165, 90, 90, 165, 83, 153, 2, 2.18783
353, 1, bw, attraction, a-b-db, 14, 2, 3, 12, 165, 90, 90, 165, 83, 153, 3, 0.6512
353, 1, bw, filler, NA, 999, 999, 3, 13, 165, 92, 174, 71, 100, 102, 1, 2.69484
353, 1, bw, filler, NA, 999, 999, 3, 13, 165, 92, 174, 71, 100, 102, 2, 3.34534
353, 1, bw, catch, NA, 999, 999, 3, 14, 132, 63, 96, 159, 159, 156, 3, 3.16834
353, 1, bw, catch, NA, 999, 999, 3, 14, 132, 63, 96, 159, 159, 156, 1, 0.871917
353, 1, bw, catch, NA, 999, 999, 3, 15, 139, 176, 160, 95, 114, 81, 1, 1.26701
353, 1, bw, catch, NA, 999, 999, 3, 15, 139, 176, 160, 95, 114, 81, 3, 0.751267
353, 1, bw, attraction, a-b-da, 9, 2, 3, 16, 165, 90, 157, 86, 90, 165, 3, 5.17488
353, 1, bw, attraction, a-b-da, 9, 2, 3, 16, 165, 90, 157, 86, 90, 165, 2, 1.42131
353, 1, bw, filler, NA, 999, 999, 3, 17, 178, 117, 103, 191, 68, 159, 1, 1.56199
353, 1, bw, filler, NA, 999, 999, 3, 17, 178, 117, 103, 191, 68, 159, 3, 0.47429
353, 1, bw, attraction, a-b-da, 2, 3, 3, 18, 195, 120, 120, 195, 193, 119, 1, 2.99669
353, 1, bw, attraction, a-b-da, 2, 3, 3, 18, 195, 120, 120, 195, 193, 119, 3, 1.34713
353, 1, bw, attraction, a-b-da, 14, 3, 3, 19, 181, 111, 120, 195, 195, 120, 3, 2.06661
353, 1, bw, attraction, a-b-da, 14, 3, 3, 19, 181, 111, 120, 195, 195, 120, 1, 0.998592
353, 1, bw, filler, NA, 999, 999, 3, 20, 195, 93, 143, 70, 161, 105, 1, 3.2281
353, 1, bw, filler, NA, 999, 999, 3, 20, 195, 93, 143, 70, 161, 105, 2, 0.489081
353, 1, bw, attraction, a-b-db, 14, 3, 3, 21, 111, 181, 120, 195, 195, 120, 2, 7.60364
353, 1, bw, attraction, a-b-db, 14, 3, 3, 21, 111, 181, 120, 195, 195, 120, 1, 1.09655
353, 1, bw, filler, NA, 999, 999, 3, 22, 101, 65, 89, 175, 123, 71, 2, 1.45812
353, 1, bw, filler, NA, 999, 999, 3, 22, 101, 65, 89, 175, 123, 71, 1, 0.726394
353, 1, bw, attraction, a-b-db, 9, 1, 3, 23, 135, 60, 60, 135, 57, 129, 2, 3.07878
353, 1, bw, attraction, a-b-db, 9, 1, 3, 23, 135, 60, 60, 135, 57, 129, 1, 0.761726
353, 1, bw, filler, NA, 999, 999, 3, 24, 96, 144, 87, 126, 94, 88, 1, 1.52884
353, 1, bw, filler, NA, 999, 999, 3, 24, 96, 144, 87, 126, 94, 88, 3, 0.834223
353, 1, bw, attraction, a-b-db, 5, 2, 3, 25, 165, 90, 88, 161, 90, 165, 3, 3.13467
353, 1, bw, attraction, a-b-db, 5, 2, 3, 25, 165, 90, 88, 161, 90, 165, 1, 0.655561
353, 1, bw, attraction, a-b-da, 14, 1, 3, 26, 60, 135, 125, 56, 135, 60, 1, 2.01126
353, 1, bw, attraction, a-b-da, 14, 1, 3, 26, 60, 135, 125, 56, 135, 60, 2, 0.70533
353, 1, bw, attraction, a-b-da, 9, 3, 3, 27, 120, 195, 186, 114, 195, 120, 3, 2.48312
353, 1, bw, attraction, a-b-da, 9, 3, 3, 27, 120, 195, 186, 114, 195, 120, 2, 0.894425
353, 1, bw, attraction, a-b-db, 9, 2, 3, 28, 165, 90, 90, 165, 86, 157, 2, 2.8399
353, 1, bw, attraction, a-b-db, 9, 2, 3, 28, 165, 90, 90, 165, 86, 157, 1, 0.476287
353, 1, bw, filler, NA, 999, 999, 3, 29, 159, 61, 152, 126, 62, 170, 2, 2.15895
353, 1, bw, filler, NA, 999, 999, 3, 29, 159, 61, 152, 126, 62, 170, 1, 0.51077
353, 1, bw, filler, NA, 999, 999, 3, 30, 129, 73, 128, 85, 65, 158, 2, 1.73584
353, 1, bw, filler, NA, 999, 999, 3, 30, 129, 73, 128, 85, 65, 158, 1, 0.985419
353, 1, bw, filler, NA, 999, 999, 3, 31, 149, 128, 58, 154, 137, 69, 1, 1.62364
353, 1, bw, filler, NA, 999, 999, 3, 31, 149, 128, 58, 154, 137, 69, 2, 1.35716
353, 1, bw, attraction, a-b-da, 5, 2, 3, 32, 90, 165, 165, 90, 161, 88, 1, 4.40396
353, 1, bw, attraction, a-b-da, 5, 2, 3, 32, 90, 165, 165, 90, 161, 88, 2, 2.80989
353, 1, bw, attraction, a-b-da, 9, 1, 3, 33, 129, 57, 60, 135, 135, 60, 2, 1.91033
353, 1, bw, attraction, a-b-da, 9, 1, 3, 33, 129, 57, 60, 135, 135, 60, 1, 0.672379
353, 1, bw, attraction, a-b-da, 2, 1, 3, 34, 60, 135, 135, 60, 134, 59, 1, 4.65939
353, 1, bw, attraction, a-b-da, 2, 1, 3, 34, 60, 135, 135, 60, 134, 59, 2, 0.974518
353, 1, bw, attraction, a-b-da, 5, 3, 3, 35, 120, 195, 195, 120, 190, 117, 1, 5.48484
353, 1, bw, attraction, a-b-da, 5, 3, 3, 35, 120, 195, 195, 120, 190, 117, 3, 1.87111
353, 1, bw, attraction, a-b-db, 2, 2, 3, 36, 165, 90, 90, 165, 89, 163, 2, 4.56982
353, 1, bw, attraction, a-b-db, 2, 2, 3, 36, 165, 90, 90, 165, 89, 163, 1, 0.576978
353, 1, bw, attraction, a-b-db, 9, 3, 3, 37, 114, 186, 120, 195, 195, 120, 2, 5.8155
353, 1, bw, attraction, a-b-db, 9, 3, 3, 37, 114, 186, 120, 195, 195, 120, 1, 0.924231
353, 1, bw, filler, NA, 999, 999, 4, 1, 123, 127, 80, 109, 78, 152, 1, 2.5006
353, 1, bw, filler, NA, 999, 999, 4, 1, 123, 127, 80, 109, 78, 152, 2, 0.383071
353, 1, bw, attraction, a-b-da, 2, 3, 4, 2, 193, 119, 120, 195, 195, 120, 3, 4.96566
353, 1, bw, attraction, a-b-da, 2, 3, 4, 2, 193, 119, 120, 195, 195, 120, 1, 1.44471
353, 1, bw, attraction, a-b-db, 9, 1, 4, 3, 135, 60, 60, 135, 57, 129, 2, 5.01624
353, 1, bw, attraction, a-b-db, 9, 1, 4, 3, 135, 60, 60, 135, 57, 129, 1, 0.629265
353, 1, bw, attraction, a-b-db, 5, 1, 4, 4, 60, 135, 58, 132, 135, 60, 1, 2.00167
353, 1, bw, attraction, a-b-db, 5, 1, 4, 4, 60, 135, 58, 132, 135, 60, 3, 0.904455
353, 1, bw, attraction, a-b-db, 2, 3, 4, 5, 119, 193, 120, 195, 195, 120, 2, 2.32208
353, 1, bw, attraction, a-b-db, 2, 3, 4, 5, 119, 193, 120, 195, 195, 120, 3, 1.57149
353, 1, bw, attraction, a-b-da, 14, 1, 4, 6, 125, 56, 135, 60, 60, 135, 3, 4.42608
353, 1, bw, attraction, a-b-da, 14, 1, 4, 6, 125, 56, 135, 60, 60, 135, 1, 0.806711
353, 1, bw, filler, NA, 999, 999, 4, 7, 192, 146, 173, 114, 62, 100, 1, 1.10825
353, 1, bw, filler, NA, 999, 999, 4, 7, 192, 146, 173, 114, 62, 100, 3, 0.44663
353, 1, bw, filler, NA, 999, 999, 4, 8, 119, 105, 133, 122, 83, 72, 2, 1.50638
353, 1, bw, filler, NA, 999, 999, 4, 8, 119, 105, 133, 122, 83, 72, 3, 0.364494
353, 1, bw, attraction, a-b-db, 9, 2, 4, 9, 86, 157, 90, 165, 165, 90, 2, 2.39568
353, 1, bw, attraction, a-b-db, 9, 2, 4, 9, 86, 157, 90, 165, 165, 90, 1, 0.642367
353, 1, bw, filler, NA, 999, 999, 4, 10, 110, 78, 180, 174, 94, 124, 2, 0.862053
353, 1, bw, filler, NA, 999, 999, 4, 10, 110, 78, 180, 174, 94, 124, 1, 1.83457
353, 1, bw, attraction, a-b-da, 2, 2, 4, 11, 90, 165, 165, 90, 163, 89, 1, 2.79847
353, 1, bw, attraction, a-b-da, 2, 2, 4, 11, 90, 165, 165, 90, 163, 89, 2, 0.652893
353, 1, bw, attraction, a-b-da, 5, 3, 4, 12, 190, 117, 120, 195, 195, 120, 2, 4.27265
353, 1, bw, attraction, a-b-da, 5, 3, 4, 12, 190, 117, 120, 195, 195, 120, 1, 0.539322
353, 1, bw, filler, NA, 999, 999, 4, 13, 117, 110, 169, 124, 183, 161, 3, 1.40373
353, 1, bw, filler, NA, 999, 999, 4, 13, 117, 110, 169, 124, 183, 161, 1, 0.482486
353, 1, bw, filler, NA, 999, 999, 4, 14, 157, 193, 115, 165, 122, 164, 1, 2.42102
353, 1, bw, filler, NA, 999, 999, 4, 14, 157, 193, 115, 165, 122, 164, 2, 0.786284
353, 1, bw, attraction, a-b-da, 14, 2, 4, 15, 165, 90, 153, 83, 90, 165, 3, 2.56859
353, 1, bw, attraction, a-b-da, 14, 2, 4, 15, 165, 90, 153, 83, 90, 165, 2, 0.416425
353, 1, bw, attraction, a-b-db, 9, 3, 4, 16, 120, 195, 195, 120, 114, 186, 1, 7.14156
353, 1, bw, attraction, a-b-db, 9, 3, 4, 16, 120, 195, 195, 120, 114, 186, 2, 0.348721
353, 1, bw, attraction, a-b-da, 2, 1, 4, 17, 134, 59, 60, 135, 135, 60, 2, 2.23646
353, 1, bw, attraction, a-b-da, 2, 1, 4, 17, 134, 59, 60, 135, 135, 60, 3, 0.785749
353, 1, bw, attraction, a-b-db, 14, 1, 4, 18, 135, 60, 60, 135, 56, 125, 2, 5.38422
353, 1, bw, attraction, a-b-db, 14, 1, 4, 18, 135, 60, 60, 135, 56, 125, 1, 0.894417
353, 1, bw, attraction, a-b-db, 2, 1, 4, 19, 59, 134, 135, 60, 60, 135, 3, 2.82411
353, 1, bw, attraction, a-b-db, 2, 1, 4, 19, 59, 134, 135, 60, 60, 135, 2, 0.533163
353, 1, bw, attraction, a-b-db, 2, 2, 4, 20, 165, 90, 89, 163, 90, 165, 3, 4.3337
353, 1, bw, attraction, a-b-db, 2, 2, 4, 20, 165, 90, 89, 163, 90, 165, 1, 1.03027
353, 1, bw, attraction, a-b-da, 5, 2, 4, 21, 90, 165, 165, 90, 161, 88, 1, 3.61064
353, 1, bw, attraction, a-b-da, 5, 2, 4, 21, 90, 165, 165, 90, 161, 88, 2, 0.544108
353, 1, bw, filler, NA, 999, 999, 4, 22, 148, 96, 122, 177, 193, 98, 2, 2.23991
353, 1, bw, filler, NA, 999, 999, 4, 22, 148, 96, 122, 177, 193, 98, 1, 0.38853
353, 1, bw, attraction, a-b-db, 5, 3, 4, 23, 117, 190, 195, 120, 120, 195, 3, 6.21097
353, 1, bw, attraction, a-b-db, 5, 3, 4, 23, 117, 190, 195, 120, 120, 195, 2, 1.29557
353, 1, bw, attraction, a-b-da, 9, 2, 4, 24, 165, 90, 90, 165, 157, 86, 2, 5.19323
353, 1, bw, attraction, a-b-da, 9, 2, 4, 24, 165, 90, 90, 165, 157, 86, 3, 0.550839
353, 1, bw, attraction, a-b-db, 14, 2, 4, 25, 165, 90, 90, 165, 83, 153, 2, 4.08664
353, 1, bw, attraction, a-b-db, 14, 2, 4, 25, 165, 90, 90, 165, 83, 153, 1, 0.569268
353, 1, bw, attraction, a-b-da, 5, 1, 4, 26, 132, 58, 60, 135, 135, 60, 2, 1.65641
353, 1, bw, attraction, a-b-da, 5, 1, 4, 26, 132, 58, 60, 135, 135, 60, 3, 0.484484
353, 1, bw, filler, NA, 999, 999, 4, 27, 131, 194, 189, 131, 125, 61, 1, 1.69509
353, 1, bw, filler, NA, 999, 999, 4, 27, 131, 194, 189, 131, 125, 61, 3, 0.945739
353, 1, bw, filler, NA, 999, 999, 4, 28, 187, 191, 115, 76, 78, 71, 1, 1.40135
353, 1, bw, filler, NA, 999, 999, 4, 28, 187, 191, 115, 76, 78, 71, 3, 0.768313
353, 1, bw, attraction, a-b-db, 5, 2, 4, 29, 88, 161, 90, 165, 165, 90, 2, 4.11931
353, 1, bw, attraction, a-b-db, 5, 2, 4, 29, 88, 161, 90, 165, 165, 90, 3, 0.616751
353, 1, bw, attraction, a-b-da, 14, 3, 4, 30, 120, 195, 181, 111, 195, 120, 1, 2.16582
353, 1, bw, attraction, a-b-da, 14, 3, 4, 30, 120, 195, 181, 111, 195, 120, 2, 0.629653
353, 1, bw, attraction, a-b-da, 9, 1, 4, 31, 135, 60, 60, 135, 129, 57, 2, 2.98613
353, 1, bw, attraction, a-b-da, 9, 1, 4, 31, 135, 60, 60, 135, 129, 57, 3, 0.77715
353, 1, bw, attraction, a-b-da, 9, 3, 4, 32, 195, 120, 120, 195, 186, 114, 2, 2.51152
353, 1, bw, attraction, a-b-da, 9, 3, 4, 32, 195, 120, 120, 195, 186, 114, 3, 0.801501
353, 1, bw, catch, NA, 999, 999, 4, 33, 106, 149, 134, 61, 171, 144, 3, 1.50309
353, 1, bw, catch, NA, 999, 999, 4, 33, 106, 149, 134, 61, 171, 144, 2, 0.43384
353, 1, bw, attraction, a-b-db, 14, 3, 4, 34, 120, 195, 111, 181, 195, 120, 1, 2.37438
353, 1, bw, attraction, a-b-db, 14, 3, 4, 34, 120, 195, 111, 181, 195, 120, 2, 0.669648
353, 1, bw, filler, NA, 999, 999, 4, 35, 90, 126, 61, 60, 111, 139, 3, 1.04073
353, 1, bw, filler, NA, 999, 999, 4, 35, 90, 126, 61, 60, 111, 139, 2, 0.829636
353, 1, bw, catch, NA, 999, 999, 4, 36, 142, 113, 112, 83, 161, 154, 3, 1.21813
353, 1, bw, catch, NA, 999, 999, 4, 36, 142, 113, 112, 83, 161, 154, 2, 0.632272
353, 1, bw, catch, NA, 999, 999, 4, 37, 151, 104, 99, 96, 186, 129, 3, 0.932657
353, 1, bw, catch, NA, 999, 999, 4, 37, 151, 104, 99, 96, 186, 129, 2, 0.886389
353, 1, bw, attraction, a-b-db, 5, 2, 5, 1, 165, 90, 90, 165, 88, 161, 2, 4.91923
353, 1, bw, attraction, a-b-db, 5, 2, 5, 1, 165, 90, 90, 165, 88, 161, 1, 0.968351
353, 1, bw, attraction, a-b-da, 9, 3, 5, 2, 120, 195, 195, 120, 186, 114, 1, 1.9594
353, 1, bw, attraction, a-b-da, 9, 3, 5, 2, 120, 195, 195, 120, 186, 114, 3, 0.50351
353, 1, bw, attraction, a-b-db, 5, 1, 5, 3, 135, 60, 58, 132, 60, 135, 3, 1.66517
353, 1, bw, attraction, a-b-db, 5, 1, 5, 3, 135, 60, 58, 132, 60, 135, 1, 0.573497
353, 1, bw, attraction, a-b-da, 2, 3, 5, 4, 193, 119, 195, 120, 120, 195, 3, 1.47564
353, 1, bw, attraction, a-b-da, 2, 3, 5, 4, 193, 119, 195, 120, 120, 195, 2, 0.727297
353, 1, bw, attraction, a-b-da, 5, 3, 5, 5, 195, 120, 190, 117, 120, 195, 3, 2.49569
353, 1, bw, attraction, a-b-da, 5, 3, 5, 5, 195, 120, 190, 117, 120, 195, 2, 2.69018
353, 1, bw, attraction, a-b-db, 2, 3, 5, 6, 195, 120, 119, 193, 120, 195, 3, 1.40403
353, 1, bw, attraction, a-b-db, 2, 3, 5, 6, 195, 120, 119, 193, 120, 195, 1, 3.72281
353, 1, bw, filler, NA, 999, 999, 5, 7, 101, 91, 125, 98, 143, 101, 3, 2.34693
353, 1, bw, filler, NA, 999, 999, 5, 7, 101, 91, 125, 98, 143, 101, 1, 0.435424
353, 1, bw, attraction, a-b-db, 9, 3, 5, 8, 195, 120, 114, 186, 120, 195, 3, 1.544
353, 1, bw, attraction, a-b-db, 9, 3, 5, 8, 195, 120, 114, 186, 120, 195, 2, 2.16882
353, 1, bw, filler, NA, 999, 999, 5, 9, 185, 90, 168, 179, 106, 170, 2, 1.0634
353, 1, bw, filler, NA, 999, 999, 5, 9, 185, 90, 168, 179, 106, 170, 1, 1.49165
353, 1, bw, attraction, a-b-db, 14, 2, 5, 10, 165, 90, 83, 153, 90, 165, 3, 4.0772
353, 1, bw, attraction, a-b-db, 14, 2, 5, 10, 165, 90, 83, 153, 90, 165, 1, 0.511913
353, 1, bw, filler, NA, 999, 999, 5, 11, 147, 146, 162, 179, 137, 90, 2, 1.13703
353, 1, bw, filler, NA, 999, 999, 5, 11, 147, 146, 162, 179, 137, 90, 3, 1.42657
353, 1, bw, filler, NA, 999, 999, 5, 12, 99, 133, 131, 96, 73, 98, 1, 2.24685
353, 1, bw, filler, NA, 999, 999, 5, 12, 99, 133, 131, 96, 73, 98, 3, 0.43547
353, 1, bw, attraction, a-b-da, 14, 1, 5, 13, 135, 60, 60, 135, 125, 56, 2, 3.04777
353, 1, bw, attraction, a-b-da, 14, 1, 5, 13, 135, 60, 60, 135, 125, 56, 1, 0.460183
353, 1, bw, attraction, a-b-da, 14, 3, 5, 14, 181, 111, 195, 120, 120, 195, 3, 3.1673
353, 1, bw, attraction, a-b-da, 14, 3, 5, 14, 181, 111, 195, 120, 120, 195, 1, 3.47101
353, 1, bw, attraction, a-b-db, 14, 3, 5, 15, 195, 120, 120, 195, 111, 181, 1, 3.40913
353, 1, bw, attraction, a-b-db, 14, 3, 5, 15, 195, 120, 120, 195, 111, 181, 3, 2.23873
353, 1, bw, filler, NA, 999, 999, 5, 16, 57, 143, 72, 151, 166, 72, 2, 1.83467
353, 1, bw, filler, NA, 999, 999, 5, 16, 57, 143, 72, 151, 166, 72, 1, 0.488284
353, 1, bw, attraction, a-b-da, 2, 1, 5, 17, 135, 60, 134, 59, 60, 135, 3, 2.52255
353, 1, bw, attraction, a-b-da, 2, 1, 5, 17, 135, 60, 134, 59, 60, 135, 1, 0.467759
353, 1, bw, attraction, a-b-da, 2, 2, 5, 18, 165, 90, 90, 165, 163, 89, 2, 2.06279
353, 1, bw, attraction, a-b-da, 2, 2, 5, 18, 165, 90, 90, 165, 163, 89, 3, 0.730829
353, 1, bw, attraction, a-b-db, 9, 1, 5, 19, 135, 60, 60, 135, 57, 129, 2, 3.32323
353, 1, bw, attraction, a-b-db, 9, 1, 5, 19, 135, 60, 60, 135, 57, 129, 1, 0.396157
353, 1, bw, attraction, a-b-db, 5, 3, 5, 20, 195, 120, 117, 190, 120, 195, 3, 3.45004
353, 1, bw, attraction, a-b-db, 5, 3, 5, 20, 195, 120, 117, 190, 120, 195, 2, 1.10213
353, 1, bw, attraction, a-b-db, 9, 2, 5, 21, 165, 90, 86, 157, 90, 165, 2, 4.55984
353, 1, bw, attraction, a-b-db, 9, 2, 5, 21, 165, 90, 86, 157, 90, 165, 1, 0.615211
353, 1, bw, attraction, a-b-da, 5, 2, 5, 22, 165, 90, 90, 165, 161, 88, 2, 3.36419
353, 1, bw, attraction, a-b-da, 5, 2, 5, 22, 165, 90, 90, 165, 161, 88, 3, 1.09171
353, 1, bw, filler, NA, 999, 999, 5, 23, 69, 92, 148, 131, 160, 56, 2, 0.925171
353, 1, bw, filler, NA, 999, 999, 5, 23, 69, 92, 148, 131, 160, 56, 1, 0.431054
353, 1, bw, attraction, a-b-da, 5, 1, 5, 24, 135, 60, 132, 58, 60, 135, 3, 1.95543
353, 1, bw, attraction, a-b-da, 5, 1, 5, 24, 135, 60, 132, 58, 60, 135, 2, 0.683417
353, 1, bw, filler, NA, 999, 999, 5, 25, 171, 167, 169, 108, 82, 107, 1, 0.989776
353, 1, bw, filler, NA, 999, 999, 5, 25, 171, 167, 169, 108, 82, 107, 3, 0.556782
353, 1, bw, attraction, a-b-da, 9, 1, 5, 26, 129, 57, 135, 60, 60, 135, 3, 2.21994
353, 1, bw, attraction, a-b-da, 9, 1, 5, 26, 129, 57, 135, 60, 60, 135, 1, 0.69788
353, 1, bw, filler, NA, 999, 999, 5, 27, 177, 184, 77, 155, 106, 169, 1, 1.07559
353, 1, bw, filler, NA, 999, 999, 5, 27, 177, 184, 77, 155, 106, 169, 2, 0.887275
353, 1, bw, attraction, a-b-db, 14, 1, 5, 28, 56, 125, 60, 135, 135, 60, 2, 3.11373
353, 1, bw, attraction, a-b-db, 14, 1, 5, 28, 56, 125, 60, 135, 135, 60, 1, 1.23528
353, 1, bw, filler, NA, 999, 999, 5, 29, 183, 56, 96, 128, 78, 152, 3, 4.27144
353, 1, bw, filler, NA, 999, 999, 5, 29, 183, 56, 96, 128, 78, 152, 1, 2.21084
353, 1, bw, filler, NA, 999, 999, 5, 30, 64, 188, 103, 96, 152, 88, 2, 2.08737
353, 1, bw, filler, NA, 999, 999, 5, 30, 64, 188, 103, 96, 152, 88, 1, 5.01869
353, 1, bw, catch, NA, 999, 999, 5, 31, 155, 100, 145, 170, 78, 117, 2, 2.3664
353, 1, bw, catch, NA, 999, 999, 5, 31, 155, 100, 145, 170, 78, 117, 3, 0.750337
353, 1, bw, attraction, a-b-da, 9, 2, 5, 32, 157, 86, 90, 165, 165, 90, 2, 3.75004
353, 1, bw, attraction, a-b-da, 9, 2, 5, 32, 157, 86, 90, 165, 165, 90, 1, 2.01406
353, 1, bw, attraction, a-b-db, 2, 1, 5, 33, 135, 60, 59, 134, 60, 135, 3, 6.25076
353, 1, bw, attraction, a-b-db, 2, 1, 5, 33, 135, 60, 59, 134, 60, 135, 1, 0.686135
353, 1, bw, attraction, a-b-db, 2, 2, 5, 34, 89, 163, 90, 165, 165, 90, 2, 3.05658
353, 1, bw, attraction, a-b-db, 2, 2, 5, 34, 89, 163, 90, 165, 165, 90, 1, 1.1562
353, 1, bw, catch, NA, 999, 999, 5, 35, 105, 90, 124, 191, 122, 133, 2, 1.90774
353, 1, bw, catch, NA, 999, 999, 5, 35, 105, 90, 124, 191, 122, 133, 1, 0.693818
353, 1, bw, catch, NA, 999, 999, 5, 36, 134, 181, 120, 135, 97, 98, 1, 1.43155
353, 1, bw, catch, NA, 999, 999, 5, 36, 134, 181, 120, 135, 97, 98, 3, 0.893113
353, 1, bw, attraction, a-b-da, 14, 2, 5, 37, 153, 83, 90, 165, 165, 90, 2, 2.71076
353, 1, bw, attraction, a-b-da, 14, 2, 5, 37, 153, 83, 90, 165, 165, 90, 1, 0.864466
353, 1, bw, attraction, a-b-db, 14, 3, 6, 1, 195, 120, 111, 181, 120, 195, 3, 1.7075
353, 1, bw, attraction, a-b-db, 14, 3, 6, 1, 195, 120, 111, 181, 120, 195, 2, 0.821621
353, 1, bw, attraction, a-b-da, 5, 1, 6, 2, 135, 60, 132, 58, 60, 135, 3, 2.05082
353, 1, bw, attraction, a-b-da, 5, 1, 6, 2, 135, 60, 132, 58, 60, 135, 1, 0.431384
353, 1, bw, attraction, a-b-da, 14, 2, 6, 3, 90, 165, 153, 83, 165, 90, 1, 2.93977
353, 1, bw, attraction, a-b-da, 14, 2, 6, 3, 90, 165, 153, 83, 165, 90, 2, 1.79626
353, 1, bw, filler, NA, 999, 999, 6, 4, 191, 125, 62, 167, 147, 133, 1, 2.75365
353, 1, bw, filler, NA, 999, 999, 6, 4, 191, 125, 62, 167, 147, 133, 2, 0.714125
353, 1, bw, attraction, a-b-db, 14, 2, 6, 5, 83, 153, 165, 90, 90, 165, 3, 1.47512
353, 1, bw, attraction, a-b-db, 14, 2, 6, 5, 83, 153, 165, 90, 90, 165, 1, 1.17457
353, 1, bw, attraction, a-b-da, 5, 2, 6, 6, 165, 90, 161, 88, 90, 165, 3, 3.20485
353, 1, bw, attraction, a-b-da, 5, 2, 6, 6, 165, 90, 161, 88, 90, 165, 2, 0.803098
353, 1, bw, attraction, a-b-db, 9, 2, 6, 7, 86, 157, 165, 90, 90, 165, 3, 1.68882
353, 1, bw, attraction, a-b-db, 9, 2, 6, 7, 86, 157, 165, 90, 90, 165, 1, 1.24356
353, 1, bw, attraction, a-b-da, 2, 1, 6, 8, 134, 59, 60, 135, 135, 60, 2, 3.03119
353, 1, bw, attraction, a-b-da, 2, 1, 6, 8, 134, 59, 60, 135, 135, 60, 1, 1.62016
353, 1, bw, attraction, a-b-db, 9, 3, 6, 9, 114, 186, 120, 195, 195, 120, 2, 3.97697
353, 1, bw, attraction, a-b-db, 9, 3, 6, 9, 114, 186, 120, 195, 195, 120, 3, 0.663666
353, 1, bw, filler, NA, 999, 999, 6, 10, 92, 113, 148, 114, 96, 120, 2, 2.3868
353, 1, bw, filler, NA, 999, 999, 6, 10, 92, 113, 148, 114, 96, 120, 1, 0.73794
353, 1, bw, attraction, a-b-db, 2, 2, 6, 11, 165, 90, 89, 163, 90, 165, 2, 3.97034
353, 1, bw, attraction, a-b-db, 2, 2, 6, 11, 165, 90, 89, 163, 90, 165, 1, 0.457734
353, 1, bw, attraction, a-b-db, 9, 1, 6, 12, 60, 135, 57, 129, 135, 60, 1, 1.37297
353, 1, bw, attraction, a-b-db, 9, 1, 6, 12, 60, 135, 57, 129, 135, 60, 3, 0.924445
353, 1, bw, filler, NA, 999, 999, 6, 13, 81, 141, 115, 164, 172, 85, 2, 1.4849
353, 1, bw, filler, NA, 999, 999, 6, 13, 81, 141, 115, 164, 172, 85, 1, 1.84826
353, 1, bw, attraction, a-b-db, 14, 1, 6, 14, 56, 125, 60, 135, 135, 60, 2, 2.57169
353, 1, bw, attraction, a-b-db, 14, 1, 6, 14, 56, 125, 60, 135, 135, 60, 3, 0.474775
353, 1, bw, attraction, a-b-db, 5, 2, 6, 15, 165, 90, 90, 165, 88, 161, 2, 3.54134
353, 1, bw, attraction, a-b-db, 5, 2, 6, 15, 165, 90, 90, 165, 88, 161, 1, 0.477599
353, 1, bw, filler, NA, 999, 999, 6, 16, 103, 88, 187, 97, 189, 175, 3, 1.09597
353, 1, bw, filler, NA, 999, 999, 6, 16, 103, 88, 187, 97, 189, 175, 1, 1.53099
353, 1, bw, catch, NA, 999, 999, 6, 17, 99, 96, 131, 124, 192, 123, 3, 1.91508
353, 1, bw, catch, NA, 999, 999, 6, 17, 99, 96, 131, 124, 192, 123, 1, 1.02908
353, 1, bw, catch, NA, 999, 999, 6, 18, 80, 115, 194, 121, 156, 99, 2, 3.72136
353, 1, bw, catch, NA, 999, 999, 6, 18, 80, 115, 194, 121, 156, 99, 1, 0.746811
353, 1, bw, attraction, a-b-db, 2, 3, 6, 19, 195, 120, 120, 195, 119, 193, 2, 4.37851
353, 1, bw, attraction, a-b-db, 2, 3, 6, 19, 195, 120, 120, 195, 119, 193, 3, 0.84903
353, 1, bw, filler, NA, 999, 999, 6, 20, 163, 96, 98, 175, 71, 62, 2, 2.57278
353, 1, bw, filler, NA, 999, 999, 6, 20, 163, 96, 98, 175, 71, 62, 3, 0.539959
353, 1, bw, filler, NA, 999, 999, 6, 21, 57, 159, 119, 130, 105, 144, 2, 7.81989
353, 1, bw, filler, NA, 999, 999, 6, 21, 57, 159, 119, 130, 105, 144, 1, 0.639846
353, 1, bw, attraction, a-b-db, 2, 1, 6, 22, 135, 60, 60, 135, 59, 134, 3, 3.97233
353, 1, bw, attraction, a-b-db, 2, 1, 6, 22, 135, 60, 60, 135, 59, 134, 1, 0.475006
353, 1, bw, attraction, a-b-da, 14, 1, 6, 23, 135, 60, 60, 135, 125, 56, 2, 1.81356
353, 1, bw, attraction, a-b-da, 14, 1, 6, 23, 135, 60, 60, 135, 125, 56, 3, 0.771663
353, 1, bw, attraction, a-b-da, 9, 2, 6, 24, 157, 86, 90, 165, 165, 90, 2, 3.05061
353, 1, bw, attraction, a-b-da, 9, 2, 6, 24, 157, 86, 90, 165, 165, 90, 1, 0.663054
353, 1, bw, attraction, a-b-db, 5, 3, 6, 25, 117, 190, 120, 195, 195, 120, 2, 1.53818
353, 1, bw, attraction, a-b-db, 5, 3, 6, 25, 117, 190, 120, 195, 195, 120, 1, 1.73895
353, 1, bw, attraction, a-b-db, 5, 1, 6, 26, 60, 135, 58, 132, 135, 60, 1, 3.03493
353, 1, bw, attraction, a-b-db, 5, 1, 6, 26, 60, 135, 58, 132, 135, 60, 3, 0.967988
353, 1, bw, attraction, a-b-da, 2, 3, 6, 27, 193, 119, 120, 195, 195, 120, 2, 3.03905
353, 1, bw, attraction, a-b-da, 2, 3, 6, 27, 193, 119, 120, 195, 195, 120, 1, 1.36333
353, 1, bw, attraction, a-b-da, 14, 3, 6, 28, 181, 111, 120, 195, 195, 120, 2, 2.97019
353, 1, bw, attraction, a-b-da, 14, 3, 6, 28, 181, 111, 120, 195, 195, 120, 3, 0.441928
353, 1, bw, filler, NA, 999, 999, 6, 29, 166, 125, 189, 82, 111, 178, 1, 2.32568
353, 1, bw, filler, NA, 999, 999, 6, 29, 166, 125, 189, 82, 111, 178, 2, 0.358929
353, 1, bw, filler, NA, 999, 999, 6, 30, 162, 181, 160, 151, 168, 167, 1, 4.14211
353, 1, bw, filler, NA, 999, 999, 6, 30, 162, 181, 160, 151, 168, 167, 2, 2.83811
353, 1, bw, filler, NA, 999, 999, 6, 31, 64, 119, 99, 94, 161, 146, 3, 0.817829
353, 1, bw, filler, NA, 999, 999, 6, 31, 64, 119, 99, 94, 161, 146, 1, 0.984275
353, 1, bw, attraction, a-b-da, 5, 3, 6, 32, 120, 195, 195, 120, 190, 117, 1, 4.79846
353, 1, bw, attraction, a-b-da, 5, 3, 6, 32, 120, 195, 195, 120, 190, 117, 3, 1.66029
353, 1, bw, attraction, a-b-da, 9, 1, 6, 33, 129, 57, 60, 135, 135, 60, 2, 1.45505
353, 1, bw, attraction, a-b-da, 9, 1, 6, 33, 129, 57, 60, 135, 135, 60, 1, 0.499281
353, 1, bw, filler, NA, 999, 999, 6, 34, 129, 115, 188, 134, 62, 149, 2, 1.38905
353, 1, bw, filler, NA, 999, 999, 6, 34, 129, 115, 188, 134, 62, 149, 3, 0.475922
353, 1, bw, attraction, a-b-da, 2, 2, 6, 35, 165, 90, 163, 89, 90, 165, 3, 2.06242
353, 1, bw, attraction, a-b-da, 2, 2, 6, 35, 165, 90, 163, 89, 90, 165, 2, 0.450374
353, 1, bw, catch, NA, 999, 999, 6, 36, 187, 128, 108, 147, 93, 102, 1, 1.42214
353, 1, bw, catch, NA, 999, 999, 6, 36, 187, 128, 108, 147, 93, 102, 3, 0.699739
353, 1, bw, attraction, a-b-da, 9, 3, 6, 37, 120, 195, 195, 120, 186, 114, 1, 1.97336
353, 1, bw, attraction, a-b-da, 9, 3, 6, 37, 120, 195, 195, 120, 186, 114, 3, 0.700835
353, 1, bw, attraction, a-b-db, 5, 1, 7, 1, 58, 132, 60, 135, 135, 60, 2, 4.56657
353, 1, bw, attraction, a-b-db, 5, 1, 7, 1, 58, 132, 60, 135, 135, 60, 1, 0.557681
353, 1, bw, attraction, a-b-da, 5, 1, 7, 2, 132, 58, 135, 60, 60, 135, 3, 1.98076
353, 1, bw, attraction, a-b-da, 5, 1, 7, 2, 132, 58, 135, 60, 60, 135, 2, 0.604131
353, 1, bw, filler, NA, 999, 999, 7, 3, 74, 162, 123, 60, 180, 109, 3, 1.88999
353, 1, bw, filler, NA, 999, 999, 7, 3, 74, 162, 123, 60, 180, 109, 2, 0.732671
353, 1, bw, attraction, a-b-db, 14, 2, 7, 4, 90, 165, 83, 153, 165, 90, 1, 4.75702
353, 1, bw, attraction, a-b-db, 14, 2, 7, 4, 90, 165, 83, 153, 165, 90, 2, 1.30813
353, 1, bw, catch, NA, 999, 999, 7, 5, 147, 108, 86, 109, 169, 146, 3, 1.56502
353, 1, bw, catch, NA, 999, 999, 7, 5, 147, 108, 86, 109, 169, 146, 2, 0.597219
353, 1, bw, attraction, a-b-db, 2, 3, 7, 6, 120, 195, 119, 193, 195, 120, 2, 2.35497
353, 1, bw, attraction, a-b-db, 2, 3, 7, 6, 120, 195, 119, 193, 195, 120, 3, 1.61968
353, 1, bw, filler, NA, 999, 999, 7, 7, 174, 80, 87, 94, 58, 132, 1, 2.00027
353, 1, bw, filler, NA, 999, 999, 7, 7, 174, 80, 87, 94, 58, 132, 3, 1.93496
353, 1, bw, attraction, a-b-db, 14, 3, 7, 8, 195, 120, 120, 195, 111, 181, 2, 3.78292
353, 1, bw, attraction, a-b-db, 14, 3, 7, 8, 195, 120, 120, 195, 111, 181, 3, 1.50181
353, 1, bw, attraction, a-b-da, 2, 2, 7, 9, 165, 90, 90, 165, 163, 89, 2, 1.99125
353, 1, bw, attraction, a-b-da, 2, 2, 7, 9, 165, 90, 90, 165, 163, 89, 3, 1.54188
353, 1, bw, attraction, a-b-da, 9, 2, 7, 10, 90, 165, 157, 86, 165, 90, 3, 4.30944
353, 1, bw, attraction, a-b-da, 9, 2, 7, 10, 90, 165, 157, 86, 165, 90, 2, 0.606654
353, 1, bw, attraction, a-b-db, 5, 2, 7, 11, 88, 161, 90, 165, 165, 90, 2, 9.64436
353, 1, bw, attraction, a-b-db, 5, 2, 7, 11, 88, 161, 90, 165, 165, 90, 1, 0.686593
353, 1, bw, attraction, a-b-db, 2, 1, 7, 12, 59, 134, 60, 135, 135, 60, 2, 3.89711
353, 1, bw, attraction, a-b-db, 2, 1, 7, 12, 59, 134, 60, 135, 135, 60, 3, 1.21914
353, 1, bw, attraction, a-b-da, 5, 3, 7, 13, 190, 117, 195, 120, 120, 195, 3, 1.85611
353, 1, bw, attraction, a-b-da, 5, 3, 7, 13, 190, 117, 195, 120, 120, 195, 2, 2.40411
353, 1, bw, filler, NA, 999, 999, 7, 14, 76, 119, 127, 190, 152, 122, 2, 1.19336
353, 1, bw, filler, NA, 999, 999, 7, 14, 76, 119, 127, 190, 152, 122, 1, 0.616159
353, 1, bw, catch, NA, 999, 999, 7, 15, 136, 179, 95, 100, 158, 97, 1, 1.38938
353, 1, bw, catch, NA, 999, 999, 7, 15, 136, 179, 95, 100, 158, 97, 2, 1.14825
353, 1, bw, attraction, a-b-db, 9, 2, 7, 16, 165, 90, 90, 165, 86, 157, 2, 1.87579
353, 1, bw, attraction, a-b-db, 9, 2, 7, 16, 165, 90, 90, 165, 86, 157, 1, 0.495243
353, 1, bw, filler, NA, 999, 999, 7, 17, 179, 94, 143, 81, 97, 127, 1, 2.72896
353, 1, bw, filler, NA, 999, 999, 7, 17, 179, 94, 143, 81, 97, 127, 2, 0.442136
353, 1, bw, filler, NA, 999, 999, 7, 18, 169, 164, 166, 170, 150, 113, 2, 1.51789
353, 1, bw, filler, NA, 999, 999, 7, 18, 169, 164, 166, 170, 150, 113, 3, 0.488024
353, 1, bw, filler, NA, 999, 999, 7, 19, 142, 95, 130, 88, 77, 76, 1, 1.4105
353, 1, bw, filler, NA, 999, 999, 7, 19, 142, 95, 130, 88, 77, 76, 3, 0.824718
353, 1, bw, attraction, a-b-da, 9, 3, 7, 20, 120, 195, 186, 114, 195, 120, 1, 1.6531
353, 1, bw, attraction, a-b-da, 9, 3, 7, 20, 120, 195, 186, 114, 195, 120, 2, 0.689887
353, 1, bw, attraction, a-b-da, 2, 1, 7, 21, 134, 59, 135, 60, 60, 135, 3, 3.14823
353, 1, bw, attraction, a-b-da, 2, 1, 7, 21, 134, 59, 135, 60, 60, 135, 2, 0.844605
353, 1, bw, filler, NA, 999, 999, 7, 22, 136, 117, 107, 145, 85, 103, 1, 4.44027
353, 1, bw, filler, NA, 999, 999, 7, 22, 136, 117, 107, 145, 85, 103, 3, 0.740232
353, 1, bw, attraction, a-b-da, 9, 1, 7, 23, 135, 60, 129, 57, 60, 135, 1, 2.69181
353, 1, bw, attraction, a-b-da, 9, 1, 7, 23, 135, 60, 129, 57, 60, 135, 2, 0.630275
353, 1, bw, attraction, a-b-db, 5, 3, 7, 24, 117, 190, 120, 195, 195, 120, 2, 2.90682
353, 1, bw, attraction, a-b-db, 5, 3, 7, 24, 117, 190, 120, 195, 195, 120, 1, 0.812505
353, 1, bw, attraction, a-b-da, 14, 3, 7, 25, 195, 120, 181, 111, 120, 195, 3, 3.15356
353, 1, bw, attraction, a-b-da, 14, 3, 7, 25, 195, 120, 181, 111, 120, 195, 2, 0.441896
353, 1, bw, attraction, a-b-da, 5, 2, 7, 26, 161, 88, 165, 90, 90, 165, 3, 3.86166
353, 1, bw, attraction, a-b-da, 5, 2, 7, 26, 161, 88, 165, 90, 90, 165, 1, 1.0971
353, 1, bw, attraction, a-b-da, 2, 3, 7, 27, 120, 195, 195, 120, 193, 119, 1, 3.5148
353, 1, bw, attraction, a-b-da, 2, 3, 7, 27, 120, 195, 195, 120, 193, 119, 3, 3.8202
353, 1, bw, filler, NA, 999, 999, 7, 28, 157, 123, 58, 180, 175, 108, 3, 2.20031
353, 1, bw, filler, NA, 999, 999, 7, 28, 157, 123, 58, 180, 175, 108, 2, 0.406877
353, 1, bw, attraction, a-b-db, 9, 1, 7, 29, 57, 129, 135, 60, 60, 135, 1, 3.46
353, 1, bw, attraction, a-b-db, 9, 1, 7, 29, 57, 129, 135, 60, 60, 135, 2, 1.09564
353, 1, bw, attraction, a-b-da, 14, 1, 7, 30, 135, 60, 60, 135, 125, 56, 2, 3.59327
353, 1, bw, attraction, a-b-da, 14, 1, 7, 30, 135, 60, 60, 135, 125, 56, 3, 0.471439
353, 1, bw, attraction, a-b-da, 14, 2, 7, 31, 90, 165, 153, 83, 165, 90, 1, 2.97054
353, 1, bw, attraction, a-b-da, 14, 2, 7, 31, 90, 165, 153, 83, 165, 90, 2, 0.6743
353, 1, bw, attraction, a-b-db, 9, 3, 7, 32, 120, 195, 114, 186, 195, 120, 2, 3.62069
353, 1, bw, attraction, a-b-db, 9, 3, 7, 32, 120, 195, 114, 186, 195, 120, 1, 0.490183
353, 1, bw, filler, NA, 999, 999, 7, 33, 140, 83, 128, 124, 144, 165, 3, 1.19599
353, 1, bw, filler, NA, 999, 999, 7, 33, 140, 83, 128, 124, 144, 165, 1, 0.946919
353, 1, bw, attraction, a-b-db, 2, 2, 7, 34, 89, 163, 165, 90, 90, 165, 1, 6.86642
353, 1, bw, attraction, a-b-db, 2, 2, 7, 34, 89, 163, 165, 90, 90, 165, 2, 0.437045
353, 1, bw, filler, NA, 999, 999, 7, 35, 186, 183, 111, 168, 129, 90, 1, 1.08138
353, 1, bw, filler, NA, 999, 999, 7, 35, 186, 183, 111, 168, 129, 90, 3, 0.637048
353, 1, bw, catch, NA, 999, 999, 7, 36, 119, 136, 103, 92, 175, 140, 3, 1.07348
353, 1, bw, catch, NA, 999, 999, 7, 36, 119, 136, 103, 92, 175, 140, 2, 0.613315
353, 1, bw, attraction, a-b-db, 14, 1, 7, 37, 56, 125, 60, 135, 135, 60, 2, 2.01017
353, 1, bw, attraction, a-b-db, 14, 1, 7, 37, 56, 125, 60, 135, 135, 60, 1, 1.56823
353, 1, bw, attraction, a-b-da, 5, 2, 8, 1, 165, 90, 161, 88, 90, 165, 1, 2.31914
353, 1, bw, attraction, a-b-da, 5, 2, 8, 1, 165, 90, 161, 88, 90, 165, 2, 1.22496
353, 1, bw, filler, NA, 999, 999, 8, 2, 156, 174, 143, 173, 172, 85, 1, 1.01314
353, 1, bw, filler, NA, 999, 999, 8, 2, 156, 174, 143, 173, 172, 85, 3, 1.23555
353, 1, bw, attraction, a-b-db, 2, 2, 8, 3, 89, 163, 90, 165, 165, 90, 2, 1.87165
353, 1, bw, attraction, a-b-db, 2, 2, 8, 3, 89, 163, 90, 165, 165, 90, 3, 0.755766
353, 1, bw, attraction, a-b-db, 9, 3, 8, 4, 120, 195, 114, 186, 195, 120, 1, 2.52351
353, 1, bw, attraction, a-b-db, 9, 3, 8, 4, 120, 195, 114, 186, 195, 120, 2, 0.58866
353, 1, bw, filler, NA, 999, 999, 8, 5, 109, 62, 64, 156, 144, 180, 3, 1.01914
353, 1, bw, filler, NA, 999, 999, 8, 5, 109, 62, 64, 156, 144, 180, 1, 0.369404
353, 1, bw, attraction, a-b-db, 9, 2, 8, 6, 90, 165, 86, 157, 165, 90, 1, 3.51263
353, 1, bw, attraction, a-b-db, 9, 2, 8, 6, 90, 165, 86, 157, 165, 90, 2, 0.506106
353, 1, bw, filler, NA, 999, 999, 8, 7, 61, 87, 146, 161, 81, 59, 2, 1.0279
353, 1, bw, filler, NA, 999, 999, 8, 7, 61, 87, 146, 161, 81, 59, 3, 1.48956
353, 1, bw, attraction, a-b-da, 5, 3, 8, 8, 195, 120, 190, 117, 120, 195, 3, 5.19568
353, 1, bw, attraction, a-b-da, 5, 3, 8, 8, 195, 120, 190, 117, 120, 195, 2, 0.737445
353, 1, bw, attraction, a-b-da, 2, 1, 8, 9, 60, 135, 135, 60, 134, 59, 1, 1.78578
353, 1, bw, attraction, a-b-da, 2, 1, 8, 9, 60, 135, 135, 60, 134, 59, 3, 0.401174
353, 1, bw, attraction, a-b-db, 14, 3, 8, 10, 195, 120, 120, 195, 111, 181, 2, 4.02296
353, 1, bw, attraction, a-b-db, 14, 3, 8, 10, 195, 120, 120, 195, 111, 181, 3, 0.451637
353, 1, bw, attraction, a-b-da, 14, 2, 8, 11, 90, 165, 165, 90, 153, 83, 1, 3.07957
353, 1, bw, attraction, a-b-da, 14, 2, 8, 11, 90, 165, 165, 90, 153, 83, 3, 1.48266
353, 1, bw, attraction, a-b-db, 14, 1, 8, 12, 60, 135, 56, 125, 135, 60, 1, 3.59674
353, 1, bw, attraction, a-b-db, 14, 1, 8, 12, 60, 135, 56, 125, 135, 60, 3, 0.698883
353, 1, bw, attraction, a-b-da, 9, 1, 8, 13, 60, 135, 135, 60, 129, 57, 1, 1.55653
353, 1, bw, attraction, a-b-da, 9, 1, 8, 13, 60, 135, 135, 60, 129, 57, 2, 0.540724
353, 1, bw, attraction, a-b-da, 14, 1, 8, 14, 60, 135, 125, 56, 135, 60, 1, 3.63649
353, 1, bw, attraction, a-b-da, 14, 1, 8, 14, 60, 135, 125, 56, 135, 60, 2, 0.497337
353, 1, bw, filler, NA, 999, 999, 8, 15, 164, 157, 189, 74, 140, 79, 1, 0.955094
353, 1, bw, filler, NA, 999, 999, 8, 15, 164, 157, 189, 74, 140, 79, 3, 0.89159
353, 1, bw, attraction, a-b-da, 14, 3, 8, 16, 195, 120, 120, 195, 181, 111, 2, 2.10107
353, 1, bw, attraction, a-b-da, 14, 3, 8, 16, 195, 120, 120, 195, 181, 111, 3, 0.647723
353, 1, bw, attraction, a-b-db, 14, 2, 8, 17, 165, 90, 90, 165, 83, 153, 2, 2.34747
353, 1, bw, attraction, a-b-db, 14, 2, 8, 17, 165, 90, 90, 165, 83, 153, 3, 0.532089
353, 1, bw, attraction, a-b-db, 2, 1, 8, 18, 60, 135, 135, 60, 59, 134, 1, 3.18058
353, 1, bw, attraction, a-b-db, 2, 1, 8, 18, 60, 135, 135, 60, 59, 134, 2, 0.587528
353, 1, bw, attraction, a-b-da, 9, 2, 8, 19, 157, 86, 90, 165, 165, 90, 2, 2.10605
353, 1, bw, attraction, a-b-da, 9, 2, 8, 19, 157, 86, 90, 165, 165, 90, 1, 0.387916
353, 1, bw, filler, NA, 999, 999, 8, 20, 178, 181, 111, 159, 122, 175, 1, 0.794345
353, 1, bw, filler, NA, 999, 999, 8, 20, 178, 181, 111, 159, 122, 175, 2, 1.26559
353, 1, bw, filler, NA, 999, 999, 8, 21, 145, 137, 71, 124, 101, 115, 1, 1.9964
353, 1, bw, filler, NA, 999, 999, 8, 21, 145, 137, 71, 124, 101, 115, 2, 0.467044
353, 1, bw, filler, NA, 999, 999, 8, 22, 109, 91, 131, 149, 117, 110, 2, 1.51014
353, 1, bw, filler, NA, 999, 999, 8, 22, 109, 91, 131, 149, 117, 110, 1, 0.632263
353, 1, bw, attraction, a-b-da, 2, 2, 8, 23, 163, 89, 165, 90, 90, 165, 3, 2.10073
353, 1, bw, attraction, a-b-da, 2, 2, 8, 23, 163, 89, 165, 90, 90, 165, 2, 1.81549
353, 1, bw, filler, NA, 999, 999, 8, 24, 123, 186, 87, 133, 104, 75, 1, 1.03608
353, 1, bw, filler, NA, 999, 999, 8, 24, 123, 186, 87, 133, 104, 75, 3, 0.889704
353, 1, bw, filler, NA, 999, 999, 8, 25, 91, 164, 83, 137, 189, 175, 3, 2.30814
353, 1, bw, filler, NA, 999, 999, 8, 25, 91, 164, 83, 137, 189, 175, 2, 0.389965
353, 1, bw, attraction, a-b-da, 5, 1, 8, 26, 132, 58, 135, 60, 60, 135, 3, 2.39583
353, 1, bw, attraction, a-b-da, 5, 1, 8, 26, 132, 58, 135, 60, 60, 135, 1, 0.970434
353, 1, bw, attraction, a-b-db, 5, 3, 8, 27, 195, 120, 117, 190, 120, 195, 3, 3.53735
353, 1, bw, attraction, a-b-db, 5, 3, 8, 27, 195, 120, 117, 190, 120, 195, 1, 0.410173
353, 1, bw, catch, NA, 999, 999, 8, 28, 132, 123, 175, 140, 130, 65, 2, 1.08735
353, 1, bw, catch, NA, 999, 999, 8, 28, 132, 123, 175, 140, 130, 65, 3, 0.491011
353, 1, bw, filler, NA, 999, 999, 8, 29, 78, 63, 145, 110, 118, 176, 3, 0.916791
353, 1, bw, filler, NA, 999, 999, 8, 29, 78, 63, 145, 110, 118, 176, 1, 0.655173
353, 1, bw, attraction, a-b-db, 5, 2, 8, 30, 90, 165, 165, 90, 88, 161, 1, 3.00283
353, 1, bw, attraction, a-b-db, 5, 2, 8, 30, 90, 165, 165, 90, 88, 161, 2, 3.61723
353, 1, bw, attraction, a-b-db, 5, 1, 8, 31, 60, 135, 135, 60, 58, 132, 1, 2.03746
353, 1, bw, attraction, a-b-db, 5, 1, 8, 31, 60, 135, 135, 60, 58, 132, 2, 0.954698
353, 1, bw, attraction, a-b-db, 2, 3, 8, 32, 119, 193, 120, 195, 195, 120, 1, 4.64232
353, 1, bw, attraction, a-b-db, 2, 3, 8, 32, 119, 193, 120, 195, 195, 120, 2, 1.05428
353, 1, bw, catch, NA, 999, 999, 8, 33, 91, 164, 140, 175, 86, 109, 2, 1.07391
353, 1, bw, catch, NA, 999, 999, 8, 33, 91, 164, 140, 175, 86, 109, 3, 0.605512
353, 1, bw, catch, NA, 999, 999, 8, 34, 81, 114, 119, 136, 190, 125, 3, 0.971271
353, 1, bw, catch, NA, 999, 999, 8, 34, 81, 114, 119, 136, 190, 125, 1, 0.939605
353, 1, bw, attraction, a-b-da, 2, 3, 8, 35, 120, 195, 193, 119, 195, 120, 1, 2.56381
353, 1, bw, attraction, a-b-da, 2, 3, 8, 35, 120, 195, 193, 119, 195, 120, 2, 0.355636
353, 1, bw, attraction, a-b-da, 9, 3, 8, 36, 186, 114, 195, 120, 120, 195, 3, 4.06764
353, 1, bw, attraction, a-b-da, 9, 3, 8, 36, 186, 114, 195, 120, 120, 195, 1, 0.382918
353, 1, bw, attraction, a-b-db, 9, 1, 8, 37, 57, 129, 135, 60, 60, 135, 3, 1.22143
353, 1, bw, attraction, a-b-db, 9, 1, 8, 37, 57, 129, 135, 60, 60, 135, 2, 0.371046
