sub_n, computer_n, bw_cond, effect, set, distance, diag, block_n, trial_n, h1, w1, h2, w2, h3, w3, choice, rt 
385, 1, bw, practice, NA, 999, 999, 0, 1, 132, 91, 183, 190, 119, 121, 2, 4.12896
385, 1, bw, practice, NA, 999, 999, 0, 1, 132, 91, 183, 190, 119, 121, 1, 5.15375
385, 1, bw, practice, NA, 999, 999, 0, 2, 98, 98, 67, 182, 191, 119, 3, 1.73327
385, 1, bw, practice, NA, 999, 999, 0, 2, 98, 98, 67, 182, 191, 119, 1, 2.53241
385, 1, bw, practice, NA, 999, 999, 0, 3, 162, 156, 194, 178, 161, 167, 2, 2.57865
385, 1, bw, practice, NA, 999, 999, 0, 3, 162, 156, 194, 178, 161, 167, 3, 4.65906
385, 1, bw, filler, NA, 999, 999, 1, 1, 109, 195, 70, 152, 176, 123, 1, 8.68137
385, 1, bw, filler, NA, 999, 999, 1, 1, 109, 195, 70, 152, 176, 123, 2, 1.65058
385, 1, bw, attraction, a-b-da, 5, 1, 1, 2, 135, 60, 132, 58, 60, 135, 3, 2.806
385, 1, bw, attraction, a-b-da, 5, 1, 1, 2, 135, 60, 132, 58, 60, 135, 2, 2.58779
385, 1, bw, attraction, a-b-da, 5, 3, 1, 3, 190, 117, 120, 195, 195, 120, 2, 8.2496
385, 1, bw, attraction, a-b-da, 5, 3, 1, 3, 190, 117, 120, 195, 195, 120, 1, 1.04435
385, 1, bw, attraction, a-b-da, 2, 3, 1, 4, 120, 195, 195, 120, 193, 119, 1, 1.49598
385, 1, bw, attraction, a-b-da, 2, 3, 1, 4, 120, 195, 195, 120, 193, 119, 2, 3.72276
385, 1, bw, catch, NA, 999, 999, 1, 5, 118, 137, 134, 61, 120, 195, 3, 1.08296
385, 1, bw, catch, NA, 999, 999, 1, 5, 118, 137, 134, 61, 120, 195, 2, 2.03055
385, 1, bw, filler, NA, 999, 999, 1, 6, 129, 57, 170, 82, 89, 188, 2, 1.59454
385, 1, bw, filler, NA, 999, 999, 1, 6, 129, 57, 170, 82, 89, 188, 1, 3.87324
385, 1, bw, attraction, a-b-da, 5, 2, 1, 7, 165, 90, 90, 165, 161, 88, 2, 2.35539
385, 1, bw, attraction, a-b-da, 5, 2, 1, 7, 165, 90, 90, 165, 161, 88, 3, 0.467214
385, 1, bw, attraction, a-b-db, 14, 3, 1, 8, 111, 181, 120, 195, 195, 120, 2, 4.99843
385, 1, bw, attraction, a-b-db, 14, 3, 1, 8, 111, 181, 120, 195, 195, 120, 3, 0.748053
385, 1, bw, attraction, a-b-db, 5, 2, 1, 9, 88, 161, 165, 90, 90, 165, 3, 1.85198
385, 1, bw, attraction, a-b-db, 5, 2, 1, 9, 88, 161, 165, 90, 90, 165, 2, 0.67267
385, 1, bw, attraction, a-b-db, 9, 3, 1, 10, 114, 186, 195, 120, 120, 195, 3, 2.42768
385, 1, bw, attraction, a-b-db, 9, 3, 1, 10, 114, 186, 195, 120, 120, 195, 2, 1.22494
385, 1, bw, attraction, a-b-db, 5, 3, 1, 11, 117, 190, 120, 195, 195, 120, 2, 7.47718
385, 1, bw, attraction, a-b-db, 5, 3, 1, 11, 117, 190, 120, 195, 195, 120, 3, 0.774772
385, 1, bw, filler, NA, 999, 999, 1, 12, 62, 76, 105, 153, 166, 147, 3, 1.68525
385, 1, bw, filler, NA, 999, 999, 1, 12, 62, 76, 105, 153, 166, 147, 1, 1.02451
385, 1, bw, filler, NA, 999, 999, 1, 13, 120, 113, 104, 135, 88, 68, 2, 1.72489
385, 1, bw, filler, NA, 999, 999, 1, 13, 120, 113, 104, 135, 88, 68, 3, 0.550292
385, 1, bw, attraction, a-b-da, 9, 3, 1, 14, 195, 120, 120, 195, 186, 114, 2, 4.17394
385, 1, bw, attraction, a-b-da, 9, 3, 1, 14, 195, 120, 120, 195, 186, 114, 3, 0.548627
385, 1, bw, filler, NA, 999, 999, 1, 15, 83, 125, 126, 111, 155, 190, 3, 1.27644
385, 1, bw, filler, NA, 999, 999, 1, 15, 83, 125, 126, 111, 155, 190, 1, 0.808032
385, 1, bw, attraction, a-b-db, 2, 2, 1, 16, 165, 90, 90, 165, 89, 163, 1, 1.86111
385, 1, bw, attraction, a-b-db, 2, 2, 1, 16, 165, 90, 90, 165, 89, 163, 2, 2.10515
385, 1, bw, attraction, a-b-da, 2, 2, 1, 17, 90, 165, 165, 90, 163, 89, 1, 1.63437
385, 1, bw, attraction, a-b-da, 2, 2, 1, 17, 90, 165, 165, 90, 163, 89, 2, 1.00786
385, 1, bw, attraction, a-b-da, 14, 2, 1, 18, 165, 90, 90, 165, 153, 83, 2, 1.33295
385, 1, bw, attraction, a-b-da, 14, 2, 1, 18, 165, 90, 90, 165, 153, 83, 3, 1.69445
385, 1, bw, attraction, a-b-da, 9, 1, 1, 19, 135, 60, 60, 135, 129, 57, 1, 2.42372
385, 1, bw, attraction, a-b-da, 9, 1, 1, 19, 135, 60, 60, 135, 129, 57, 2, 0.773047
385, 1, bw, catch, NA, 999, 999, 1, 20, 98, 157, 96, 99, 162, 153, 3, 0.803974
385, 1, bw, catch, NA, 999, 999, 1, 20, 98, 157, 96, 99, 162, 153, 2, 0.579165
385, 1, bw, filler, NA, 999, 999, 1, 21, 191, 63, 88, 121, 155, 93, 3, 11.9455
385, 1, bw, filler, NA, 999, 999, 1, 21, 191, 63, 88, 121, 155, 93, 2, 1.59911
385, 1, bw, attraction, a-b-db, 14, 2, 1, 22, 165, 90, 83, 153, 90, 165, 1, 1.96458
385, 1, bw, attraction, a-b-db, 14, 2, 1, 22, 165, 90, 83, 153, 90, 165, 2, 0.780546
385, 1, bw, attraction, a-b-db, 9, 2, 1, 23, 90, 165, 165, 90, 86, 157, 2, 1.35488
385, 1, bw, attraction, a-b-db, 9, 2, 1, 23, 90, 165, 165, 90, 86, 157, 3, 2.37983
385, 1, bw, filler, NA, 999, 999, 1, 24, 140, 192, 75, 140, 184, 108, 1, 1.97762
385, 1, bw, filler, NA, 999, 999, 1, 24, 140, 192, 75, 140, 184, 108, 2, 0.505146
385, 1, bw, attraction, a-b-db, 9, 1, 1, 25, 135, 60, 57, 129, 60, 135, 1, 3.78684
385, 1, bw, attraction, a-b-db, 9, 1, 1, 25, 135, 60, 57, 129, 60, 135, 2, 0.977698
385, 1, bw, catch, NA, 999, 999, 1, 26, 133, 62, 172, 143, 102, 153, 2, 1.15994
385, 1, bw, catch, NA, 999, 999, 1, 26, 133, 62, 172, 143, 102, 153, 1, 0.800178
385, 1, bw, filler, NA, 999, 999, 1, 27, 81, 83, 121, 153, 101, 95, 2, 1.06183
385, 1, bw, filler, NA, 999, 999, 1, 27, 81, 83, 121, 153, 101, 95, 1, 1.0982
385, 1, bw, attraction, a-b-da, 14, 3, 1, 28, 120, 195, 181, 111, 195, 120, 1, 2.27588
385, 1, bw, attraction, a-b-da, 14, 3, 1, 28, 120, 195, 181, 111, 195, 120, 2, 0.550967
385, 1, bw, filler, NA, 999, 999, 1, 29, 85, 96, 68, 136, 118, 165, 3, 1.63894
385, 1, bw, filler, NA, 999, 999, 1, 29, 85, 96, 68, 136, 118, 165, 1, 0.883616
385, 1, bw, attraction, a-b-da, 14, 1, 1, 30, 125, 56, 135, 60, 60, 135, 2, 2.12603
385, 1, bw, attraction, a-b-da, 14, 1, 1, 30, 125, 56, 135, 60, 60, 135, 1, 0.67938
385, 1, bw, attraction, a-b-db, 14, 1, 1, 31, 135, 60, 56, 125, 60, 135, 1, 1.93761
385, 1, bw, attraction, a-b-db, 14, 1, 1, 31, 135, 60, 56, 125, 60, 135, 2, 1.73828
385, 1, bw, attraction, a-b-da, 2, 1, 1, 32, 135, 60, 134, 59, 60, 135, 1, 1.08252
385, 1, bw, attraction, a-b-da, 2, 1, 1, 32, 135, 60, 134, 59, 60, 135, 2, 0.782121
385, 1, bw, filler, NA, 999, 999, 1, 33, 187, 162, 152, 147, 158, 166, 1, 1.13239
385, 1, bw, filler, NA, 999, 999, 1, 33, 187, 162, 152, 147, 158, 166, 2, 0.509943
385, 1, bw, attraction, a-b-db, 5, 1, 1, 34, 135, 60, 58, 132, 60, 135, 1, 2.43918
385, 1, bw, attraction, a-b-db, 5, 1, 1, 34, 135, 60, 58, 132, 60, 135, 2, 0.67586
385, 1, bw, attraction, a-b-db, 2, 3, 1, 35, 120, 195, 195, 120, 119, 193, 1, 2.65403
385, 1, bw, attraction, a-b-db, 2, 3, 1, 35, 120, 195, 195, 120, 119, 193, 2, 0.530536
385, 1, bw, attraction, a-b-da, 9, 2, 1, 36, 165, 90, 157, 86, 90, 165, 1, 2.25896
385, 1, bw, attraction, a-b-da, 9, 2, 1, 36, 165, 90, 157, 86, 90, 165, 2, 0.862942
385, 1, bw, attraction, a-b-db, 2, 1, 1, 37, 60, 135, 135, 60, 59, 134, 1, 1.63387
385, 1, bw, attraction, a-b-db, 2, 1, 1, 37, 60, 135, 135, 60, 59, 134, 2, 1.0315
385, 1, bw, attraction, a-b-db, 9, 3, 2, 1, 195, 120, 120, 195, 114, 186, 1, 1.5877
385, 1, bw, attraction, a-b-db, 9, 3, 2, 1, 195, 120, 120, 195, 114, 186, 2, 0.531157
385, 1, bw, filler, NA, 999, 999, 2, 2, 104, 188, 185, 60, 59, 72, 1, 1.21163
385, 1, bw, filler, NA, 999, 999, 2, 2, 104, 188, 185, 60, 59, 72, 3, 0.609868
385, 1, bw, catch, NA, 999, 999, 2, 3, 136, 119, 101, 94, 188, 127, 3, 1.22291
385, 1, bw, catch, NA, 999, 999, 2, 3, 136, 119, 101, 94, 188, 127, 2, 0.908569
385, 1, bw, filler, NA, 999, 999, 2, 4, 144, 117, 120, 184, 96, 80, 2, 1.57367
385, 1, bw, filler, NA, 999, 999, 2, 4, 144, 117, 120, 184, 96, 80, 3, 0.56505
385, 1, bw, attraction, a-b-db, 2, 1, 2, 5, 59, 134, 60, 135, 135, 60, 3, 1.84415
385, 1, bw, attraction, a-b-db, 2, 1, 2, 5, 59, 134, 60, 135, 135, 60, 2, 1.04883
385, 1, bw, attraction, a-b-db, 14, 3, 2, 6, 195, 120, 111, 181, 120, 195, 1, 0.756481
385, 1, bw, attraction, a-b-db, 14, 3, 2, 6, 195, 120, 111, 181, 120, 195, 2, 0.604917
385, 1, bw, attraction, a-b-da, 2, 3, 2, 7, 195, 120, 120, 195, 193, 119, 2, 2.7307
385, 1, bw, attraction, a-b-da, 2, 3, 2, 7, 195, 120, 120, 195, 193, 119, 1, 0.523723
385, 1, bw, filler, NA, 999, 999, 2, 8, 147, 122, 70, 144, 69, 119, 1, 0.956214
385, 1, bw, filler, NA, 999, 999, 2, 8, 147, 122, 70, 144, 69, 119, 3, 0.788552
385, 1, bw, attraction, a-b-da, 9, 2, 2, 9, 90, 165, 165, 90, 157, 86, 1, 1.59497
385, 1, bw, attraction, a-b-da, 9, 2, 2, 9, 90, 165, 165, 90, 157, 86, 2, 0.489662
385, 1, bw, attraction, a-b-db, 5, 2, 2, 10, 88, 161, 165, 90, 90, 165, 2, 1.55617
385, 1, bw, attraction, a-b-db, 5, 2, 2, 10, 88, 161, 165, 90, 90, 165, 1, 1.04432
385, 1, bw, attraction, a-b-db, 2, 3, 2, 11, 120, 195, 195, 120, 119, 193, 1, 2.45597
385, 1, bw, attraction, a-b-db, 2, 3, 2, 11, 120, 195, 195, 120, 119, 193, 2, 2.20383
385, 1, bw, filler, NA, 999, 999, 2, 12, 119, 146, 62, 88, 171, 129, 3, 1.58509
385, 1, bw, filler, NA, 999, 999, 2, 12, 119, 146, 62, 88, 171, 129, 2, 0.55252
385, 1, bw, filler, NA, 999, 999, 2, 13, 82, 98, 168, 89, 67, 64, 2, 3.88827
385, 1, bw, filler, NA, 999, 999, 2, 13, 82, 98, 168, 89, 67, 64, 3, 0.626989
385, 1, bw, attraction, a-b-db, 14, 1, 2, 14, 60, 135, 56, 125, 135, 60, 1, 2.53543
385, 1, bw, attraction, a-b-db, 14, 1, 2, 14, 60, 135, 56, 125, 135, 60, 2, 0.744636
385, 1, bw, filler, NA, 999, 999, 2, 15, 109, 160, 155, 103, 172, 166, 3, 1.02431
385, 1, bw, filler, NA, 999, 999, 2, 15, 109, 160, 155, 103, 172, 166, 2, 0.67002
385, 1, bw, filler, NA, 999, 999, 2, 16, 171, 189, 172, 93, 162, 140, 1, 0.801012
385, 1, bw, filler, NA, 999, 999, 2, 16, 171, 189, 172, 93, 162, 140, 2, 1.00811
385, 1, bw, attraction, a-b-da, 14, 1, 2, 17, 135, 60, 60, 135, 125, 56, 1, 22.9171
385, 1, bw, attraction, a-b-da, 14, 1, 2, 17, 135, 60, 60, 135, 125, 56, 3, 0.776547
385, 1, bw, attraction, a-b-db, 5, 1, 2, 18, 60, 135, 58, 132, 135, 60, 3, 3.42291
385, 1, bw, attraction, a-b-db, 5, 1, 2, 18, 60, 135, 58, 132, 135, 60, 2, 0.979877
385, 1, bw, attraction, a-b-db, 14, 2, 2, 19, 83, 153, 90, 165, 165, 90, 3, 2.32213
385, 1, bw, attraction, a-b-db, 14, 2, 2, 19, 83, 153, 90, 165, 165, 90, 1, 0.435428
385, 1, bw, attraction, a-b-da, 9, 1, 2, 20, 60, 135, 129, 57, 135, 60, 1, 2.48786
385, 1, bw, attraction, a-b-da, 9, 1, 2, 20, 60, 135, 129, 57, 135, 60, 2, 1.46708
385, 1, bw, attraction, a-b-da, 9, 3, 2, 21, 120, 195, 195, 120, 186, 114, 1, 2.38188
385, 1, bw, attraction, a-b-da, 9, 3, 2, 21, 120, 195, 195, 120, 186, 114, 2, 0.605034
385, 1, bw, filler, NA, 999, 999, 2, 22, 128, 141, 92, 76, 101, 82, 1, 1.36294
385, 1, bw, filler, NA, 999, 999, 2, 22, 128, 141, 92, 76, 101, 82, 2, 0.546992
385, 1, bw, attraction, a-b-da, 5, 3, 2, 23, 120, 195, 195, 120, 190, 117, 1, 1.97085
385, 1, bw, attraction, a-b-da, 5, 3, 2, 23, 120, 195, 195, 120, 190, 117, 2, 0.450823
385, 1, bw, attraction, a-b-db, 9, 1, 2, 24, 135, 60, 57, 129, 60, 135, 3, 3.48668
385, 1, bw, attraction, a-b-db, 9, 1, 2, 24, 135, 60, 57, 129, 60, 135, 2, 0.425549
385, 1, bw, attraction, a-b-db, 9, 2, 2, 25, 86, 157, 90, 165, 165, 90, 3, 1.38199
385, 1, bw, attraction, a-b-db, 9, 2, 2, 25, 86, 157, 90, 165, 165, 90, 1, 0.597481
385, 1, bw, filler, NA, 999, 999, 2, 26, 60, 172, 111, 87, 147, 137, 3, 2.38738
385, 1, bw, filler, NA, 999, 999, 2, 26, 60, 172, 111, 87, 147, 137, 2, 4.57051
385, 1, bw, attraction, a-b-da, 2, 2, 2, 27, 90, 165, 165, 90, 163, 89, 2, 5.44033
385, 1, bw, attraction, a-b-da, 2, 2, 2, 27, 90, 165, 165, 90, 163, 89, 1, 0.780044
385, 1, bw, attraction, a-b-da, 14, 3, 2, 28, 181, 111, 120, 195, 195, 120, 2, 4.07453
385, 1, bw, attraction, a-b-da, 14, 3, 2, 28, 181, 111, 120, 195, 195, 120, 1, 0.564999
385, 1, bw, attraction, a-b-db, 5, 3, 2, 29, 120, 195, 117, 190, 195, 120, 1, 4.70021
385, 1, bw, attraction, a-b-db, 5, 3, 2, 29, 120, 195, 117, 190, 195, 120, 2, 1.03006
385, 1, bw, catch, NA, 999, 999, 2, 30, 110, 85, 139, 176, 122, 133, 2, 2.13034
385, 1, bw, catch, NA, 999, 999, 2, 30, 110, 85, 139, 176, 122, 133, 1, 0.579534
385, 1, bw, attraction, a-b-db, 2, 2, 2, 31, 89, 163, 90, 165, 165, 90, 2, 2.32997
385, 1, bw, attraction, a-b-db, 2, 2, 2, 31, 89, 163, 90, 165, 165, 90, 1, 0.643238
385, 1, bw, attraction, a-b-da, 5, 1, 2, 32, 135, 60, 60, 135, 132, 58, 2, 7.64708
385, 1, bw, attraction, a-b-da, 5, 1, 2, 32, 135, 60, 60, 135, 132, 58, 1, 0.91401
385, 1, bw, attraction, a-b-da, 14, 2, 2, 33, 165, 90, 90, 165, 153, 83, 2, 5.61899
385, 1, bw, attraction, a-b-da, 14, 2, 2, 33, 165, 90, 90, 165, 153, 83, 3, 0.999842
385, 1, bw, filler, NA, 999, 999, 2, 34, 91, 101, 126, 81, 183, 114, 3, 1.06938
385, 1, bw, filler, NA, 999, 999, 2, 34, 91, 101, 126, 81, 183, 114, 1, 0.433802
385, 1, bw, catch, NA, 999, 999, 2, 35, 191, 124, 113, 82, 94, 161, 1, 0.910181
385, 1, bw, catch, NA, 999, 999, 2, 35, 191, 124, 113, 82, 94, 161, 2, 0.83251
385, 1, bw, attraction, a-b-da, 2, 1, 2, 36, 134, 59, 60, 135, 135, 60, 2, 1.38103
385, 1, bw, attraction, a-b-da, 2, 1, 2, 36, 134, 59, 60, 135, 135, 60, 1, 0.532425
385, 1, bw, attraction, a-b-da, 5, 2, 2, 37, 165, 90, 90, 165, 161, 88, 2, 1.62095
385, 1, bw, attraction, a-b-da, 5, 2, 2, 37, 165, 90, 90, 165, 161, 88, 1, 0.498948
385, 1, bw, attraction, a-b-db, 2, 1, 3, 1, 135, 60, 60, 135, 59, 134, 1, 1.10078
385, 1, bw, attraction, a-b-db, 2, 1, 3, 1, 135, 60, 60, 135, 59, 134, 2, 0.67175
385, 1, bw, attraction, a-b-db, 5, 2, 3, 2, 88, 161, 90, 165, 165, 90, 3, 1.52282
385, 1, bw, attraction, a-b-db, 5, 2, 3, 2, 88, 161, 90, 165, 165, 90, 2, 0.868363
385, 1, bw, attraction, a-b-db, 2, 2, 3, 3, 89, 163, 90, 165, 165, 90, 3, 0.839373
385, 1, bw, attraction, a-b-db, 2, 2, 3, 3, 89, 163, 90, 165, 165, 90, 1, 0.644301
385, 1, bw, attraction, a-b-da, 14, 2, 3, 4, 153, 83, 90, 165, 165, 90, 2, 2.07214
385, 1, bw, attraction, a-b-da, 14, 2, 3, 4, 153, 83, 90, 165, 165, 90, 1, 0.451464
385, 1, bw, attraction, a-b-db, 14, 3, 3, 5, 111, 181, 120, 195, 195, 120, 3, 5.11937
385, 1, bw, attraction, a-b-db, 14, 3, 3, 5, 111, 181, 120, 195, 195, 120, 1, 1.13637
385, 1, bw, attraction, a-b-da, 2, 2, 3, 6, 163, 89, 90, 165, 165, 90, 2, 6.82462
385, 1, bw, attraction, a-b-da, 2, 2, 3, 6, 163, 89, 90, 165, 165, 90, 1, 1.30044
385, 1, bw, filler, NA, 999, 999, 3, 7, 150, 85, 194, 153, 141, 181, 2, 1.98192
385, 1, bw, filler, NA, 999, 999, 3, 7, 150, 85, 194, 153, 141, 181, 1, 0.821405
385, 1, bw, filler, NA, 999, 999, 3, 8, 117, 161, 135, 67, 119, 123, 1, 2.21031
385, 1, bw, filler, NA, 999, 999, 3, 8, 117, 161, 135, 67, 119, 123, 2, 1.90431
385, 1, bw, filler, NA, 999, 999, 3, 9, 136, 181, 62, 181, 112, 141, 1, 2.22562
385, 1, bw, filler, NA, 999, 999, 3, 9, 136, 181, 62, 181, 112, 141, 2, 0.606931
385, 1, bw, attraction, a-b-db, 2, 3, 3, 10, 195, 120, 120, 195, 119, 193, 3, 1.69988
385, 1, bw, attraction, a-b-db, 2, 3, 3, 10, 195, 120, 120, 195, 119, 193, 1, 0.4706
385, 1, bw, attraction, a-b-db, 14, 1, 3, 11, 135, 60, 60, 135, 56, 125, 2, 1.1538
385, 1, bw, attraction, a-b-db, 14, 1, 3, 11, 135, 60, 60, 135, 56, 125, 1, 0.642735
385, 1, bw, attraction, a-b-da, 14, 1, 3, 12, 135, 60, 60, 135, 125, 56, 1, 3.41449
385, 1, bw, attraction, a-b-da, 14, 1, 3, 12, 135, 60, 60, 135, 125, 56, 3, 1.56413
385, 1, bw, attraction, a-b-db, 9, 1, 3, 13, 57, 129, 135, 60, 60, 135, 3, 25.3309
385, 1, bw, attraction, a-b-db, 9, 1, 3, 13, 57, 129, 135, 60, 60, 135, 1, 1.2849
385, 1, bw, attraction, a-b-db, 5, 3, 3, 14, 117, 190, 120, 195, 195, 120, 2, 3.67921
385, 1, bw, attraction, a-b-db, 5, 3, 3, 14, 117, 190, 120, 195, 195, 120, 3, 0.521979
385, 1, bw, attraction, a-b-da, 9, 1, 3, 15, 129, 57, 135, 60, 60, 135, 3, 1.9711
385, 1, bw, attraction, a-b-da, 9, 1, 3, 15, 129, 57, 135, 60, 60, 135, 1, 0.674392
385, 1, bw, attraction, a-b-da, 9, 3, 3, 16, 195, 120, 120, 195, 186, 114, 2, 2.74081
385, 1, bw, attraction, a-b-da, 9, 3, 3, 16, 195, 120, 120, 195, 186, 114, 1, 0.501313
385, 1, bw, attraction, a-b-da, 2, 1, 3, 17, 60, 135, 135, 60, 134, 59, 1, 2.59914
385, 1, bw, attraction, a-b-da, 2, 1, 3, 17, 60, 135, 135, 60, 134, 59, 2, 0.733635
385, 1, bw, attraction, a-b-da, 9, 2, 3, 18, 157, 86, 165, 90, 90, 165, 2, 1.47802
385, 1, bw, attraction, a-b-da, 9, 2, 3, 18, 157, 86, 165, 90, 90, 165, 1, 0.609389
385, 1, bw, filler, NA, 999, 999, 3, 19, 188, 186, 101, 107, 159, 107, 1, 1.07059
385, 1, bw, filler, NA, 999, 999, 3, 19, 188, 186, 101, 107, 159, 107, 2, 0.594819
385, 1, bw, attraction, a-b-da, 5, 1, 3, 20, 135, 60, 60, 135, 132, 58, 2, 1.08073
385, 1, bw, attraction, a-b-da, 5, 1, 3, 20, 135, 60, 60, 135, 132, 58, 1, 0.684223
385, 1, bw, attraction, a-b-db, 14, 2, 3, 21, 83, 153, 165, 90, 90, 165, 2, 1.19861
385, 1, bw, attraction, a-b-db, 14, 2, 3, 21, 83, 153, 165, 90, 90, 165, 1, 0.629516
385, 1, bw, filler, NA, 999, 999, 3, 22, 123, 176, 160, 116, 105, 77, 1, 1.02593
385, 1, bw, filler, NA, 999, 999, 3, 22, 123, 176, 160, 116, 105, 77, 3, 0.527805
385, 1, bw, catch, NA, 999, 999, 3, 23, 139, 176, 164, 91, 117, 78, 1, 0.936048
385, 1, bw, catch, NA, 999, 999, 3, 23, 139, 176, 164, 91, 117, 78, 3, 0.945792
385, 1, bw, filler, NA, 999, 999, 3, 24, 195, 74, 108, 99, 63, 75, 1, 2.57737
385, 1, bw, filler, NA, 999, 999, 3, 24, 195, 74, 108, 99, 63, 75, 3, 0.880566
385, 1, bw, attraction, a-b-da, 5, 2, 3, 25, 161, 88, 165, 90, 90, 165, 2, 1.21891
385, 1, bw, attraction, a-b-da, 5, 2, 3, 25, 161, 88, 165, 90, 90, 165, 1, 0.617239
385, 1, bw, filler, NA, 999, 999, 3, 26, 60, 166, 179, 171, 95, 70, 2, 0.702274
385, 1, bw, filler, NA, 999, 999, 3, 26, 60, 166, 179, 171, 95, 70, 3, 0.561516
385, 1, bw, attraction, a-b-da, 14, 3, 3, 27, 195, 120, 120, 195, 181, 111, 2, 3.44847
385, 1, bw, attraction, a-b-da, 14, 3, 3, 27, 195, 120, 120, 195, 181, 111, 3, 2.2928
385, 1, bw, filler, NA, 999, 999, 3, 28, 180, 56, 122, 133, 116, 138, 2, 3.1899
385, 1, bw, filler, NA, 999, 999, 3, 28, 180, 56, 122, 133, 116, 138, 1, 4.06019
385, 1, bw, attraction, a-b-db, 5, 1, 3, 29, 135, 60, 58, 132, 60, 135, 1, 2.18235
385, 1, bw, attraction, a-b-db, 5, 1, 3, 29, 135, 60, 58, 132, 60, 135, 2, 0.573475
385, 1, bw, attraction, a-b-db, 9, 3, 3, 30, 114, 186, 120, 195, 195, 120, 3, 1.96401
385, 1, bw, attraction, a-b-db, 9, 3, 3, 30, 114, 186, 120, 195, 195, 120, 1, 0.899904
385, 1, bw, filler, NA, 999, 999, 3, 31, 130, 122, 164, 63, 160, 134, 3, 2.19773
385, 1, bw, filler, NA, 999, 999, 3, 31, 130, 122, 164, 63, 160, 134, 2, 7.1323
385, 1, bw, attraction, a-b-db, 9, 2, 3, 32, 90, 165, 86, 157, 165, 90, 1, 4.65858
385, 1, bw, attraction, a-b-db, 9, 2, 3, 32, 90, 165, 86, 157, 165, 90, 3, 0.60586
385, 1, bw, attraction, a-b-da, 2, 3, 3, 33, 195, 120, 120, 195, 193, 119, 2, 2.85156
385, 1, bw, attraction, a-b-da, 2, 3, 3, 33, 195, 120, 120, 195, 193, 119, 3, 1.03199
385, 1, bw, catch, NA, 999, 999, 3, 34, 112, 143, 142, 173, 128, 67, 2, 1.03624
385, 1, bw, catch, NA, 999, 999, 3, 34, 112, 143, 142, 173, 128, 67, 3, 0.617938
385, 1, bw, catch, NA, 999, 999, 3, 35, 70, 125, 152, 103, 148, 167, 3, 0.82302
385, 1, bw, catch, NA, 999, 999, 3, 35, 70, 125, 152, 103, 148, 167, 1, 0.844673
385, 1, bw, filler, NA, 999, 999, 3, 36, 176, 93, 171, 165, 99, 155, 2, 1.49641
385, 1, bw, filler, NA, 999, 999, 3, 36, 176, 93, 171, 165, 99, 155, 3, 0.499292
385, 1, bw, attraction, a-b-da, 5, 3, 3, 37, 120, 195, 195, 120, 190, 117, 1, 4.48512
385, 1, bw, attraction, a-b-da, 5, 3, 3, 37, 120, 195, 195, 120, 190, 117, 2, 0.743594
385, 1, bw, filler, NA, 999, 999, 4, 1, 143, 148, 191, 92, 89, 96, 1, 1.10324
385, 1, bw, filler, NA, 999, 999, 4, 1, 143, 148, 191, 92, 89, 96, 3, 0.706397
385, 1, bw, attraction, a-b-db, 14, 2, 4, 2, 165, 90, 90, 165, 83, 153, 1, 7.108
385, 1, bw, attraction, a-b-db, 14, 2, 4, 2, 165, 90, 90, 165, 83, 153, 2, 0.396484
385, 1, bw, filler, NA, 999, 999, 4, 3, 81, 92, 118, 77, 165, 73, 3, 1.03417
385, 1, bw, filler, NA, 999, 999, 4, 3, 81, 92, 118, 77, 165, 73, 1, 0.863882
385, 1, bw, attraction, a-b-db, 2, 2, 4, 4, 165, 90, 90, 165, 89, 163, 3, 6.88297
385, 1, bw, attraction, a-b-db, 2, 2, 4, 4, 165, 90, 90, 165, 89, 163, 1, 1.06876
385, 1, bw, attraction, a-b-da, 5, 3, 4, 5, 195, 120, 120, 195, 190, 117, 1, 2.24763
385, 1, bw, attraction, a-b-da, 5, 3, 4, 5, 195, 120, 120, 195, 190, 117, 3, 3.84426
385, 1, bw, filler, NA, 999, 999, 4, 6, 72, 193, 66, 66, 124, 141, 3, 1.35892
385, 1, bw, filler, NA, 999, 999, 4, 6, 72, 193, 66, 66, 124, 141, 2, 0.75921
385, 1, bw, attraction, a-b-da, 9, 1, 4, 7, 135, 60, 129, 57, 60, 135, 3, 2.23027
385, 1, bw, attraction, a-b-da, 9, 1, 4, 7, 135, 60, 129, 57, 60, 135, 2, 0.787468
385, 1, bw, attraction, a-b-da, 2, 1, 4, 8, 134, 59, 135, 60, 60, 135, 1, 0.937924
385, 1, bw, attraction, a-b-da, 2, 1, 4, 8, 134, 59, 135, 60, 60, 135, 2, 0.627512
385, 1, bw, attraction, a-b-db, 9, 2, 4, 9, 90, 165, 86, 157, 165, 90, 3, 1.51989
385, 1, bw, attraction, a-b-db, 9, 2, 4, 9, 90, 165, 86, 157, 165, 90, 2, 0.562196
385, 1, bw, attraction, a-b-db, 2, 3, 4, 10, 119, 193, 195, 120, 120, 195, 3, 0.761307
385, 1, bw, attraction, a-b-db, 2, 3, 4, 10, 119, 193, 195, 120, 120, 195, 2, 0.569681
385, 1, bw, attraction, a-b-db, 2, 1, 4, 11, 59, 134, 60, 135, 135, 60, 3, 1.36069
385, 1, bw, attraction, a-b-db, 2, 1, 4, 11, 59, 134, 60, 135, 135, 60, 1, 0.688915
385, 1, bw, catch, NA, 999, 999, 4, 12, 149, 106, 176, 139, 67, 128, 2, 1.21934
385, 1, bw, catch, NA, 999, 999, 4, 12, 149, 106, 176, 139, 67, 128, 3, 0.705572
385, 1, bw, filler, NA, 999, 999, 4, 13, 172, 99, 96, 114, 184, 166, 3, 0.835458
385, 1, bw, filler, NA, 999, 999, 4, 13, 172, 99, 96, 114, 184, 166, 2, 0.529124
385, 1, bw, attraction, a-b-da, 14, 1, 4, 14, 60, 135, 125, 56, 135, 60, 1, 0.833395
385, 1, bw, attraction, a-b-da, 14, 1, 4, 14, 60, 135, 125, 56, 135, 60, 2, 0.855166
385, 1, bw, filler, NA, 999, 999, 4, 15, 59, 116, 161, 87, 127, 145, 3, 0.738808
385, 1, bw, filler, NA, 999, 999, 4, 15, 59, 116, 161, 87, 127, 145, 1, 0.540029
385, 1, bw, attraction, a-b-db, 5, 2, 4, 16, 90, 165, 165, 90, 88, 161, 2, 0.843837
385, 1, bw, attraction, a-b-db, 5, 2, 4, 16, 90, 165, 165, 90, 88, 161, 3, 1.08075
385, 1, bw, attraction, a-b-da, 14, 3, 4, 17, 195, 120, 181, 111, 120, 195, 3, 3.06716
385, 1, bw, attraction, a-b-da, 14, 3, 4, 17, 195, 120, 181, 111, 120, 195, 2, 0.606736
385, 1, bw, attraction, a-b-db, 5, 1, 4, 18, 60, 135, 58, 132, 135, 60, 1, 4.52386
385, 1, bw, attraction, a-b-db, 5, 1, 4, 18, 60, 135, 58, 132, 135, 60, 2, 0.58839
385, 1, bw, attraction, a-b-da, 5, 1, 4, 19, 135, 60, 132, 58, 60, 135, 3, 4.21076
385, 1, bw, attraction, a-b-da, 5, 1, 4, 19, 135, 60, 132, 58, 60, 135, 2, 1.28805
385, 1, bw, attraction, a-b-db, 9, 1, 4, 20, 60, 135, 57, 129, 135, 60, 2, 1.36235
385, 1, bw, attraction, a-b-db, 9, 1, 4, 20, 60, 135, 57, 129, 135, 60, 3, 0.826599
385, 1, bw, attraction, a-b-da, 9, 3, 4, 21, 186, 114, 120, 195, 195, 120, 1, 1.53489
385, 1, bw, attraction, a-b-da, 9, 3, 4, 21, 186, 114, 120, 195, 195, 120, 2, 0.520324
385, 1, bw, filler, NA, 999, 999, 4, 22, 125, 100, 61, 111, 87, 87, 1, 1.24953
385, 1, bw, filler, NA, 999, 999, 4, 22, 125, 100, 61, 111, 87, 87, 3, 0.478626
385, 1, bw, attraction, a-b-da, 2, 3, 4, 23, 120, 195, 195, 120, 193, 119, 2, 0.816823
385, 1, bw, attraction, a-b-da, 2, 3, 4, 23, 120, 195, 195, 120, 193, 119, 1, 0.423178
385, 1, bw, filler, NA, 999, 999, 4, 24, 103, 75, 67, 187, 102, 92, 2, 0.796379
385, 1, bw, filler, NA, 999, 999, 4, 24, 103, 75, 67, 187, 102, 92, 1, 0.683418
385, 1, bw, attraction, a-b-db, 5, 3, 4, 25, 195, 120, 117, 190, 120, 195, 1, 0.973902
385, 1, bw, attraction, a-b-db, 5, 3, 4, 25, 195, 120, 117, 190, 120, 195, 2, 0.621545
385, 1, bw, filler, NA, 999, 999, 4, 26, 109, 126, 133, 170, 179, 111, 3, 1.02661
385, 1, bw, filler, NA, 999, 999, 4, 26, 109, 126, 133, 170, 179, 111, 2, 0.408232
385, 1, bw, attraction, a-b-da, 2, 2, 4, 27, 163, 89, 165, 90, 90, 165, 1, 0.773399
385, 1, bw, attraction, a-b-da, 2, 2, 4, 27, 163, 89, 165, 90, 90, 165, 2, 0.813178
385, 1, bw, attraction, a-b-da, 9, 2, 4, 28, 165, 90, 157, 86, 90, 165, 3, 1.34624
385, 1, bw, attraction, a-b-da, 9, 2, 4, 28, 165, 90, 157, 86, 90, 165, 2, 0.427113
385, 1, bw, catch, NA, 999, 999, 4, 29, 158, 157, 71, 124, 102, 153, 1, 0.695515
385, 1, bw, catch, NA, 999, 999, 4, 29, 158, 157, 71, 124, 102, 153, 2, 0.650597
385, 1, bw, attraction, a-b-db, 14, 3, 4, 30, 120, 195, 195, 120, 111, 181, 2, 1.12644
385, 1, bw, attraction, a-b-db, 14, 3, 4, 30, 120, 195, 195, 120, 111, 181, 3, 0.503933
385, 1, bw, attraction, a-b-db, 14, 1, 4, 31, 135, 60, 60, 135, 56, 125, 1, 0.8897
385, 1, bw, attraction, a-b-db, 14, 1, 4, 31, 135, 60, 60, 135, 56, 125, 3, 1.13288
385, 1, bw, attraction, a-b-da, 5, 2, 4, 32, 161, 88, 90, 165, 165, 90, 1, 0.701153
385, 1, bw, attraction, a-b-da, 5, 2, 4, 32, 161, 88, 90, 165, 165, 90, 2, 0.680141
385, 1, bw, filler, NA, 999, 999, 4, 33, 132, 99, 115, 69, 168, 138, 3, 0.802526
385, 1, bw, filler, NA, 999, 999, 4, 33, 132, 99, 115, 69, 168, 138, 2, 0.625503
385, 1, bw, catch, NA, 999, 999, 4, 34, 145, 110, 110, 85, 158, 157, 3, 1.25398
385, 1, bw, catch, NA, 999, 999, 4, 34, 145, 110, 110, 85, 158, 157, 2, 0.6109
385, 1, bw, attraction, a-b-db, 9, 3, 4, 35, 114, 186, 195, 120, 120, 195, 2, 1.22401
385, 1, bw, attraction, a-b-db, 9, 3, 4, 35, 114, 186, 195, 120, 120, 195, 3, 0.79754
385, 1, bw, filler, NA, 999, 999, 4, 36, 191, 87, 164, 152, 177, 85, 2, 0.955253
385, 1, bw, filler, NA, 999, 999, 4, 36, 191, 87, 164, 152, 177, 85, 3, 0.571533
385, 1, bw, attraction, a-b-da, 14, 2, 4, 37, 90, 165, 165, 90, 153, 83, 1, 3.19468
385, 1, bw, attraction, a-b-da, 14, 2, 4, 37, 90, 165, 165, 90, 153, 83, 2, 0.425049
385, 1, bw, attraction, a-b-da, 5, 2, 5, 1, 161, 88, 90, 165, 165, 90, 2, 2.6201
385, 1, bw, attraction, a-b-da, 5, 2, 5, 1, 161, 88, 90, 165, 165, 90, 1, 0.722006
385, 1, bw, attraction, a-b-db, 14, 2, 5, 2, 165, 90, 83, 153, 90, 165, 3, 1.20312
385, 1, bw, attraction, a-b-db, 14, 2, 5, 2, 165, 90, 83, 153, 90, 165, 2, 0.337823
385, 1, bw, filler, NA, 999, 999, 5, 3, 101, 76, 56, 74, 131, 148, 3, 0.866363
385, 1, bw, filler, NA, 999, 999, 5, 3, 101, 76, 56, 74, 131, 148, 2, 0.422769
385, 1, bw, attraction, a-b-db, 9, 2, 5, 4, 165, 90, 86, 157, 90, 165, 2, 2.16386
385, 1, bw, attraction, a-b-db, 9, 2, 5, 4, 165, 90, 86, 157, 90, 165, 3, 1.73988
385, 1, bw, attraction, a-b-da, 5, 1, 5, 5, 135, 60, 132, 58, 60, 135, 1, 0.883914
385, 1, bw, attraction, a-b-da, 5, 1, 5, 5, 135, 60, 132, 58, 60, 135, 2, 0.335777
385, 1, bw, catch, NA, 999, 999, 5, 6, 137, 118, 131, 64, 172, 143, 3, 0.632245
385, 1, bw, catch, NA, 999, 999, 5, 6, 137, 118, 131, 64, 172, 143, 2, 0.365958
385, 1, bw, attraction, a-b-db, 5, 3, 5, 7, 195, 120, 117, 190, 120, 195, 1, 0.789232
385, 1, bw, attraction, a-b-db, 5, 3, 5, 7, 195, 120, 117, 190, 120, 195, 2, 0.852119
385, 1, bw, attraction, a-b-da, 14, 1, 5, 8, 60, 135, 135, 60, 125, 56, 1, 2.21578
385, 1, bw, attraction, a-b-da, 14, 1, 5, 8, 60, 135, 135, 60, 125, 56, 2, 0.541742
385, 1, bw, attraction, a-b-db, 5, 1, 5, 9, 58, 132, 135, 60, 60, 135, 3, 1.8617
385, 1, bw, attraction, a-b-db, 5, 1, 5, 9, 58, 132, 135, 60, 60, 135, 2, 0.649538
385, 1, bw, filler, NA, 999, 999, 5, 10, 70, 145, 115, 169, 112, 188, 3, 0.789366
385, 1, bw, filler, NA, 999, 999, 5, 10, 70, 145, 115, 169, 112, 188, 1, 0.644493
385, 1, bw, attraction, a-b-da, 2, 1, 5, 11, 135, 60, 60, 135, 134, 59, 1, 2.41616
385, 1, bw, attraction, a-b-da, 2, 1, 5, 11, 135, 60, 60, 135, 134, 59, 2, 0.437964
385, 1, bw, attraction, a-b-da, 9, 1, 5, 12, 129, 57, 60, 135, 135, 60, 2, 0.722499
385, 1, bw, attraction, a-b-da, 9, 1, 5, 12, 129, 57, 60, 135, 135, 60, 1, 0.596256
385, 1, bw, attraction, a-b-db, 2, 2, 5, 13, 90, 165, 89, 163, 165, 90, 2, 1.86601
385, 1, bw, attraction, a-b-db, 2, 2, 5, 13, 90, 165, 89, 163, 165, 90, 1, 0.470068
385, 1, bw, filler, NA, 999, 999, 5, 14, 121, 121, 114, 135, 156, 101, 2, 1.23311
385, 1, bw, filler, NA, 999, 999, 5, 14, 121, 121, 114, 135, 156, 101, 1, 0.414706
385, 1, bw, filler, NA, 999, 999, 5, 15, 141, 144, 116, 97, 68, 124, 1, 0.803849
385, 1, bw, filler, NA, 999, 999, 5, 15, 141, 144, 116, 97, 68, 124, 3, 1.88296
385, 1, bw, attraction, a-b-db, 14, 1, 5, 16, 60, 135, 135, 60, 56, 125, 1, 3.061
385, 1, bw, attraction, a-b-db, 14, 1, 5, 16, 60, 135, 135, 60, 56, 125, 3, 1.46479
385, 1, bw, catch, NA, 999, 999, 5, 17, 125, 190, 120, 75, 93, 162, 1, 1.08349
385, 1, bw, catch, NA, 999, 999, 5, 17, 125, 190, 120, 75, 93, 162, 2, 0.471091
385, 1, bw, attraction, a-b-da, 5, 3, 5, 18, 120, 195, 195, 120, 190, 117, 1, 3.4982
385, 1, bw, attraction, a-b-da, 5, 3, 5, 18, 120, 195, 195, 120, 190, 117, 3, 0.468606
385, 1, bw, filler, NA, 999, 999, 5, 19, 127, 159, 168, 174, 106, 92, 2, 1.96777
385, 1, bw, filler, NA, 999, 999, 5, 19, 127, 159, 168, 174, 106, 92, 3, 0.439681
385, 1, bw, attraction, a-b-da, 14, 2, 5, 20, 90, 165, 165, 90, 153, 83, 1, 4.47611
385, 1, bw, attraction, a-b-da, 14, 2, 5, 20, 90, 165, 165, 90, 153, 83, 2, 0.438631
385, 1, bw, filler, NA, 999, 999, 5, 21, 106, 119, 163, 119, 160, 141, 3, 1.04314
385, 1, bw, filler, NA, 999, 999, 5, 21, 106, 119, 163, 119, 160, 141, 1, 0.392178
385, 1, bw, attraction, a-b-da, 9, 3, 5, 22, 120, 195, 186, 114, 195, 120, 1, 2.438
385, 1, bw, attraction, a-b-da, 9, 3, 5, 22, 120, 195, 186, 114, 195, 120, 2, 1.19444
385, 1, bw, attraction, a-b-da, 14, 3, 5, 23, 181, 111, 195, 120, 120, 195, 3, 0.880099
385, 1, bw, attraction, a-b-da, 14, 3, 5, 23, 181, 111, 195, 120, 120, 195, 1, 0.571772
385, 1, bw, attraction, a-b-da, 9, 2, 5, 24, 157, 86, 165, 90, 90, 165, 2, 0.666888
385, 1, bw, attraction, a-b-da, 9, 2, 5, 24, 157, 86, 165, 90, 90, 165, 1, 0.53534
385, 1, bw, attraction, a-b-db, 14, 3, 5, 25, 195, 120, 120, 195, 111, 181, 2, 0.983686
385, 1, bw, attraction, a-b-db, 14, 3, 5, 25, 195, 120, 120, 195, 111, 181, 1, 11.0396
385, 1, bw, attraction, a-b-db, 2, 1, 5, 26, 135, 60, 60, 135, 59, 134, 2, 3.23263
385, 1, bw, attraction, a-b-db, 2, 1, 5, 26, 135, 60, 60, 135, 59, 134, 3, 0.565457
385, 1, bw, attraction, a-b-db, 5, 2, 5, 27, 165, 90, 88, 161, 90, 165, 1, 2.58865
385, 1, bw, attraction, a-b-db, 5, 2, 5, 27, 165, 90, 88, 161, 90, 165, 2, 0.475154
385, 1, bw, attraction, a-b-db, 9, 3, 5, 28, 120, 195, 195, 120, 114, 186, 1, 2.84564
385, 1, bw, attraction, a-b-db, 9, 3, 5, 28, 120, 195, 195, 120, 114, 186, 3, 0.882046
385, 1, bw, filler, NA, 999, 999, 5, 29, 117, 93, 115, 95, 74, 68, 2, 0.732331
385, 1, bw, filler, NA, 999, 999, 5, 29, 117, 93, 115, 95, 74, 68, 3, 1.05404
385, 1, bw, attraction, a-b-da, 2, 2, 5, 30, 165, 90, 163, 89, 90, 165, 3, 2.38586
385, 1, bw, attraction, a-b-da, 2, 2, 5, 30, 165, 90, 163, 89, 90, 165, 2, 0.664899
385, 1, bw, catch, NA, 999, 999, 5, 31, 108, 147, 185, 130, 70, 125, 2, 0.683985
385, 1, bw, catch, NA, 999, 999, 5, 31, 108, 147, 185, 130, 70, 125, 3, 0.639845
385, 1, bw, attraction, a-b-db, 9, 1, 5, 32, 135, 60, 60, 135, 57, 129, 2, 4.22822
385, 1, bw, attraction, a-b-db, 9, 1, 5, 32, 135, 60, 60, 135, 57, 129, 3, 0.616913
385, 1, bw, filler, NA, 999, 999, 5, 33, 164, 169, 73, 168, 82, 130, 1, 0.829842
385, 1, bw, filler, NA, 999, 999, 5, 33, 164, 169, 73, 168, 82, 130, 3, 1.17976
385, 1, bw, attraction, a-b-da, 2, 3, 5, 34, 195, 120, 193, 119, 120, 195, 3, 1.68988
385, 1, bw, attraction, a-b-da, 2, 3, 5, 34, 195, 120, 193, 119, 120, 195, 1, 1.98063
385, 1, bw, filler, NA, 999, 999, 5, 35, 161, 82, 86, 161, 164, 92, 2, 2.08257
385, 1, bw, filler, NA, 999, 999, 5, 35, 161, 82, 86, 161, 164, 92, 1, 0.893977
385, 1, bw, attraction, a-b-db, 2, 3, 5, 36, 195, 120, 119, 193, 120, 195, 2, 1.06363
385, 1, bw, attraction, a-b-db, 2, 3, 5, 36, 195, 120, 119, 193, 120, 195, 3, 0.476065
385, 1, bw, filler, NA, 999, 999, 5, 37, 125, 61, 59, 193, 192, 143, 3, 0.782474
385, 1, bw, filler, NA, 999, 999, 5, 37, 125, 61, 59, 193, 192, 143, 1, 0.678106
385, 1, bw, attraction, a-b-da, 2, 3, 6, 1, 195, 120, 120, 195, 193, 119, 2, 1.67257
385, 1, bw, attraction, a-b-da, 2, 3, 6, 1, 195, 120, 120, 195, 193, 119, 3, 0.627954
385, 1, bw, catch, NA, 999, 999, 6, 2, 86, 109, 132, 123, 137, 178, 3, 0.968434
385, 1, bw, catch, NA, 999, 999, 6, 2, 86, 109, 132, 123, 137, 178, 1, 0.648652
385, 1, bw, attraction, a-b-db, 5, 3, 6, 3, 195, 120, 117, 190, 120, 195, 2, 2.24448
385, 1, bw, attraction, a-b-db, 5, 3, 6, 3, 195, 120, 117, 190, 120, 195, 3, 0.425019
385, 1, bw, attraction, a-b-db, 14, 3, 6, 4, 120, 195, 111, 181, 195, 120, 3, 1.30955
385, 1, bw, attraction, a-b-db, 14, 3, 6, 4, 120, 195, 111, 181, 195, 120, 2, 0.623637
385, 1, bw, attraction, a-b-da, 9, 2, 6, 5, 90, 165, 157, 86, 165, 90, 2, 1.86019
385, 1, bw, attraction, a-b-da, 9, 2, 6, 5, 90, 165, 157, 86, 165, 90, 3, 0.45622
385, 1, bw, filler, NA, 999, 999, 6, 6, 59, 155, 108, 135, 156, 142, 3, 0.740005
385, 1, bw, filler, NA, 999, 999, 6, 6, 59, 155, 108, 135, 156, 142, 1, 0.405074
385, 1, bw, filler, NA, 999, 999, 6, 7, 143, 109, 104, 194, 108, 159, 2, 1.24307
385, 1, bw, filler, NA, 999, 999, 6, 7, 143, 109, 104, 194, 108, 159, 3, 0.407738
385, 1, bw, attraction, a-b-da, 14, 3, 6, 8, 120, 195, 181, 111, 195, 120, 3, 1.1491
385, 1, bw, attraction, a-b-da, 14, 3, 6, 8, 120, 195, 181, 111, 195, 120, 2, 0.429867
385, 1, bw, attraction, a-b-db, 14, 1, 6, 9, 60, 135, 135, 60, 56, 125, 2, 1.05032
385, 1, bw, attraction, a-b-db, 14, 1, 6, 9, 60, 135, 135, 60, 56, 125, 3, 2.35946
385, 1, bw, attraction, a-b-db, 2, 1, 6, 10, 60, 135, 135, 60, 59, 134, 1, 2.99001
385, 1, bw, attraction, a-b-db, 2, 1, 6, 10, 60, 135, 135, 60, 59, 134, 3, 2.76428
385, 1, bw, filler, NA, 999, 999, 6, 11, 144, 147, 141, 127, 87, 102, 1, 1.54664
385, 1, bw, filler, NA, 999, 999, 6, 11, 144, 147, 141, 127, 87, 102, 3, 0.555489
385, 1, bw, attraction, a-b-da, 5, 2, 6, 12, 161, 88, 90, 165, 165, 90, 3, 0.851221
385, 1, bw, attraction, a-b-da, 5, 2, 6, 12, 161, 88, 90, 165, 165, 90, 1, 8.20836
385, 1, bw, filler, NA, 999, 999, 6, 13, 84, 85, 70, 121, 151, 125, 3, 1.13176
385, 1, bw, filler, NA, 999, 999, 6, 13, 84, 85, 70, 121, 151, 125, 1, 0.925267
385, 1, bw, attraction, a-b-da, 5, 1, 6, 14, 132, 58, 60, 135, 135, 60, 2, 2.4857
385, 1, bw, attraction, a-b-da, 5, 1, 6, 14, 132, 58, 60, 135, 135, 60, 1, 1.04883
385, 1, bw, attraction, a-b-da, 2, 1, 6, 15, 60, 135, 135, 60, 134, 59, 1, 1.86852
385, 1, bw, attraction, a-b-da, 2, 1, 6, 15, 60, 135, 135, 60, 134, 59, 2, 1.90452
385, 1, bw, filler, NA, 999, 999, 6, 16, 118, 62, 106, 143, 125, 87, 2, 0.745849
385, 1, bw, filler, NA, 999, 999, 6, 16, 118, 62, 106, 143, 125, 87, 1, 0.618911
385, 1, bw, attraction, a-b-da, 14, 1, 6, 17, 60, 135, 135, 60, 125, 56, 1, 0.92798
385, 1, bw, attraction, a-b-da, 14, 1, 6, 17, 60, 135, 135, 60, 125, 56, 2, 0.51378
385, 1, bw, filler, NA, 999, 999, 6, 18, 135, 85, 184, 102, 187, 137, 3, 0.738764
385, 1, bw, filler, NA, 999, 999, 6, 18, 135, 85, 184, 102, 187, 137, 1, 0.61998
385, 1, bw, attraction, a-b-da, 5, 3, 6, 19, 195, 120, 120, 195, 190, 117, 2, 1.24101
385, 1, bw, attraction, a-b-da, 5, 3, 6, 19, 195, 120, 120, 195, 190, 117, 3, 0.477895
385, 1, bw, filler, NA, 999, 999, 6, 20, 116, 106, 79, 176, 191, 77, 3, 0.872305
385, 1, bw, filler, NA, 999, 999, 6, 20, 116, 106, 79, 176, 191, 77, 1, 0.483974
385, 1, bw, attraction, a-b-db, 9, 3, 6, 21, 195, 120, 120, 195, 114, 186, 1, 1.18263
385, 1, bw, attraction, a-b-db, 9, 3, 6, 21, 195, 120, 120, 195, 114, 186, 2, 0.598045
385, 1, bw, attraction, a-b-db, 9, 2, 6, 22, 90, 165, 86, 157, 165, 90, 3, 0.755846
385, 1, bw, attraction, a-b-db, 9, 2, 6, 22, 90, 165, 86, 157, 165, 90, 2, 0.684292
385, 1, bw, attraction, a-b-db, 9, 1, 6, 23, 57, 129, 135, 60, 60, 135, 2, 0.750723
385, 1, bw, attraction, a-b-db, 9, 1, 6, 23, 57, 129, 135, 60, 60, 135, 1, 0.815707
385, 1, bw, attraction, a-b-db, 14, 2, 6, 24, 90, 165, 83, 153, 165, 90, 3, 0.764712
385, 1, bw, attraction, a-b-db, 14, 2, 6, 24, 90, 165, 83, 153, 165, 90, 2, 0.437106
385, 1, bw, filler, NA, 999, 999, 6, 25, 166, 166, 173, 58, 186, 122, 1, 1.00161
385, 1, bw, filler, NA, 999, 999, 6, 25, 166, 166, 173, 58, 186, 122, 2, 0.67274
385, 1, bw, attraction, a-b-da, 14, 2, 6, 26, 90, 165, 153, 83, 165, 90, 3, 0.63576
385, 1, bw, attraction, a-b-da, 14, 2, 6, 26, 90, 165, 153, 83, 165, 90, 2, 0.561548
385, 1, bw, attraction, a-b-db, 5, 2, 6, 27, 90, 165, 165, 90, 88, 161, 1, 1.00063
385, 1, bw, attraction, a-b-db, 5, 2, 6, 27, 90, 165, 165, 90, 88, 161, 2, 0.503509
385, 1, bw, attraction, a-b-da, 9, 3, 6, 28, 195, 120, 186, 114, 120, 195, 3, 0.95335
385, 1, bw, attraction, a-b-da, 9, 3, 6, 28, 195, 120, 186, 114, 120, 195, 2, 0.794347
385, 1, bw, filler, NA, 999, 999, 6, 29, 123, 108, 180, 104, 115, 143, 2, 1.68017
385, 1, bw, filler, NA, 999, 999, 6, 29, 123, 108, 180, 104, 115, 143, 1, 0.995476
385, 1, bw, catch, NA, 999, 999, 6, 30, 149, 106, 87, 108, 186, 129, 3, 1.19323
385, 1, bw, catch, NA, 999, 999, 6, 30, 149, 106, 87, 108, 186, 129, 2, 0.704127
385, 1, bw, attraction, a-b-da, 2, 2, 6, 31, 90, 165, 165, 90, 163, 89, 1, 2.32975
385, 1, bw, attraction, a-b-da, 2, 2, 6, 31, 90, 165, 165, 90, 163, 89, 3, 0.931032
385, 1, bw, attraction, a-b-db, 5, 1, 6, 32, 60, 135, 135, 60, 58, 132, 1, 2.98738
385, 1, bw, attraction, a-b-db, 5, 1, 6, 32, 60, 135, 135, 60, 58, 132, 2, 0.530353
385, 1, bw, attraction, a-b-db, 2, 2, 6, 33, 89, 163, 165, 90, 90, 165, 1, 2.39483
385, 1, bw, attraction, a-b-db, 2, 2, 6, 33, 89, 163, 165, 90, 90, 165, 3, 0.67336
385, 1, bw, attraction, a-b-db, 2, 3, 6, 34, 195, 120, 120, 195, 119, 193, 1, 4.52371
385, 1, bw, attraction, a-b-db, 2, 3, 6, 34, 195, 120, 120, 195, 119, 193, 3, 0.972295
385, 1, bw, filler, NA, 999, 999, 6, 35, 116, 147, 130, 130, 64, 60, 1, 2.27541
385, 1, bw, filler, NA, 999, 999, 6, 35, 116, 147, 130, 130, 64, 60, 3, 1.44657
385, 1, bw, attraction, a-b-da, 9, 1, 6, 36, 60, 135, 129, 57, 135, 60, 1, 2.29005
385, 1, bw, attraction, a-b-da, 9, 1, 6, 36, 60, 135, 129, 57, 135, 60, 2, 0.436637
385, 1, bw, catch, NA, 999, 999, 6, 37, 152, 103, 88, 107, 123, 192, 3, 0.865097
385, 1, bw, catch, NA, 999, 999, 6, 37, 152, 103, 88, 107, 123, 192, 2, 0.373569
385, 1, bw, attraction, a-b-db, 14, 1, 7, 1, 56, 125, 60, 135, 135, 60, 2, 1.15603
385, 1, bw, attraction, a-b-db, 14, 1, 7, 1, 56, 125, 60, 135, 135, 60, 3, 0.412316
385, 1, bw, filler, NA, 999, 999, 7, 2, 180, 188, 173, 109, 148, 184, 3, 0.801555
385, 1, bw, filler, NA, 999, 999, 7, 2, 180, 188, 173, 109, 148, 184, 2, 0.400513
385, 1, bw, attraction, a-b-da, 14, 1, 7, 3, 125, 56, 60, 135, 135, 60, 2, 0.90227
385, 1, bw, attraction, a-b-da, 14, 1, 7, 3, 125, 56, 60, 135, 135, 60, 1, 0.521323
385, 1, bw, filler, NA, 999, 999, 7, 4, 167, 159, 87, 80, 159, 161, 1, 0.946356
385, 1, bw, filler, NA, 999, 999, 7, 4, 167, 159, 87, 80, 159, 161, 2, 0.507386
385, 1, bw, attraction, a-b-da, 2, 1, 7, 5, 60, 135, 135, 60, 134, 59, 1, 2.82857
385, 1, bw, attraction, a-b-da, 2, 1, 7, 5, 60, 135, 135, 60, 134, 59, 3, 0.481615
385, 1, bw, filler, NA, 999, 999, 7, 6, 109, 163, 152, 137, 193, 194, 3, 0.748134
385, 1, bw, filler, NA, 999, 999, 7, 6, 109, 163, 152, 137, 193, 194, 2, 0.365122
385, 1, bw, attraction, a-b-da, 2, 3, 7, 7, 120, 195, 193, 119, 195, 120, 1, 2.42831
385, 1, bw, attraction, a-b-da, 2, 3, 7, 7, 120, 195, 193, 119, 195, 120, 3, 1.08156
385, 1, bw, attraction, a-b-db, 14, 3, 7, 8, 111, 181, 120, 195, 195, 120, 3, 0.899831
385, 1, bw, attraction, a-b-db, 14, 3, 7, 8, 111, 181, 120, 195, 195, 120, 1, 1.2868
385, 1, bw, filler, NA, 999, 999, 7, 9, 56, 156, 123, 108, 178, 152, 3, 1.34497
385, 1, bw, filler, NA, 999, 999, 7, 9, 56, 156, 123, 108, 178, 152, 1, 6.82599
385, 1, bw, attraction, a-b-da, 9, 2, 7, 10, 90, 165, 165, 90, 157, 86, 1, 2.58046
385, 1, bw, attraction, a-b-da, 9, 2, 7, 10, 90, 165, 165, 90, 157, 86, 2, 0.563573
385, 1, bw, attraction, a-b-db, 9, 3, 7, 11, 195, 120, 120, 195, 114, 186, 1, 1.18669
385, 1, bw, attraction, a-b-db, 9, 3, 7, 11, 195, 120, 120, 195, 114, 186, 2, 0.530207
385, 1, bw, catch, NA, 999, 999, 7, 12, 146, 109, 114, 81, 178, 137, 3, 0.626777
385, 1, bw, catch, NA, 999, 999, 7, 12, 146, 109, 114, 81, 178, 137, 2, 0.440583
385, 1, bw, attraction, a-b-db, 9, 1, 7, 13, 135, 60, 60, 135, 57, 129, 1, 0.748271
385, 1, bw, attraction, a-b-db, 9, 1, 7, 13, 135, 60, 60, 135, 57, 129, 3, 0.845378
385, 1, bw, attraction, a-b-da, 2, 2, 7, 14, 163, 89, 90, 165, 165, 90, 2, 1.08908
385, 1, bw, attraction, a-b-da, 2, 2, 7, 14, 163, 89, 90, 165, 165, 90, 1, 0.828022
385, 1, bw, attraction, a-b-da, 14, 3, 7, 15, 195, 120, 120, 195, 181, 111, 2, 0.680306
385, 1, bw, attraction, a-b-da, 14, 3, 7, 15, 195, 120, 120, 195, 181, 111, 3, 0.636132
385, 1, bw, attraction, a-b-db, 9, 2, 7, 16, 90, 165, 165, 90, 86, 157, 2, 0.57645
385, 1, bw, attraction, a-b-db, 9, 2, 7, 16, 90, 165, 165, 90, 86, 157, 3, 0.984269
385, 1, bw, attraction, a-b-da, 5, 3, 7, 17, 190, 117, 120, 195, 195, 120, 1, 0.662701
385, 1, bw, attraction, a-b-da, 5, 3, 7, 17, 190, 117, 120, 195, 195, 120, 2, 0.426978
385, 1, bw, catch, NA, 999, 999, 7, 18, 163, 92, 125, 70, 122, 193, 3, 0.599601
385, 1, bw, catch, NA, 999, 999, 7, 18, 163, 92, 125, 70, 122, 193, 2, 0.726669
385, 1, bw, attraction, a-b-db, 2, 3, 7, 19, 119, 193, 120, 195, 195, 120, 2, 1.19903
385, 1, bw, attraction, a-b-db, 2, 3, 7, 19, 119, 193, 120, 195, 195, 120, 1, 0.397951
385, 1, bw, attraction, a-b-da, 5, 1, 7, 20, 132, 58, 60, 135, 135, 60, 2, 0.803781
385, 1, bw, attraction, a-b-da, 5, 1, 7, 20, 132, 58, 60, 135, 135, 60, 1, 1.25085
385, 1, bw, catch, NA, 999, 999, 7, 21, 128, 187, 66, 129, 103, 152, 1, 1.11839
385, 1, bw, catch, NA, 999, 999, 7, 21, 128, 187, 66, 129, 103, 152, 2, 0.600715
385, 1, bw, filler, NA, 999, 999, 7, 22, 65, 65, 101, 93, 96, 72, 2, 1.06243
385, 1, bw, filler, NA, 999, 999, 7, 22, 65, 65, 101, 93, 96, 72, 1, 0.682773
385, 1, bw, filler, NA, 999, 999, 7, 23, 131, 69, 191, 112, 106, 73, 2, 0.589158
385, 1, bw, filler, NA, 999, 999, 7, 23, 131, 69, 191, 112, 106, 73, 3, 0.628276
385, 1, bw, attraction, a-b-da, 9, 3, 7, 24, 186, 114, 195, 120, 120, 195, 3, 1.90471
385, 1, bw, attraction, a-b-da, 9, 3, 7, 24, 186, 114, 195, 120, 120, 195, 2, 0.394713
385, 1, bw, attraction, a-b-da, 5, 2, 7, 25, 165, 90, 161, 88, 90, 165, 2, 1.11259
385, 1, bw, attraction, a-b-da, 5, 2, 7, 25, 165, 90, 161, 88, 90, 165, 1, 0.418745
385, 1, bw, filler, NA, 999, 999, 7, 26, 90, 177, 60, 116, 120, 166, 3, 0.816097
385, 1, bw, filler, NA, 999, 999, 7, 26, 90, 177, 60, 116, 120, 166, 2, 0.470348
385, 1, bw, attraction, a-b-db, 5, 2, 7, 27, 90, 165, 88, 161, 165, 90, 1, 2.20946
385, 1, bw, attraction, a-b-db, 5, 2, 7, 27, 90, 165, 88, 161, 165, 90, 2, 0.559491
385, 1, bw, filler, NA, 999, 999, 7, 28, 173, 75, 142, 103, 129, 61, 2, 1.08654
385, 1, bw, filler, NA, 999, 999, 7, 28, 173, 75, 142, 103, 129, 61, 3, 0.530288
385, 1, bw, attraction, a-b-db, 5, 3, 7, 29, 117, 190, 195, 120, 120, 195, 3, 1.57061
385, 1, bw, attraction, a-b-db, 5, 3, 7, 29, 117, 190, 195, 120, 120, 195, 2, 1.17875
385, 1, bw, attraction, a-b-db, 14, 2, 7, 30, 83, 153, 165, 90, 90, 165, 1, 1.16896
385, 1, bw, attraction, a-b-db, 14, 2, 7, 30, 83, 153, 165, 90, 90, 165, 2, 0.41725
385, 1, bw, filler, NA, 999, 999, 7, 31, 131, 93, 67, 171, 101, 156, 3, 0.670423
385, 1, bw, filler, NA, 999, 999, 7, 31, 131, 93, 67, 171, 101, 156, 2, 1.03483
385, 1, bw, attraction, a-b-da, 14, 2, 7, 32, 153, 83, 165, 90, 90, 165, 1, 0.839101
385, 1, bw, attraction, a-b-da, 14, 2, 7, 32, 153, 83, 165, 90, 90, 165, 2, 0.41214
385, 1, bw, attraction, a-b-da, 9, 1, 7, 33, 129, 57, 135, 60, 60, 135, 3, 2.18541
385, 1, bw, attraction, a-b-da, 9, 1, 7, 33, 129, 57, 135, 60, 60, 135, 2, 0.45669
385, 1, bw, attraction, a-b-db, 2, 1, 7, 34, 59, 134, 135, 60, 60, 135, 1, 2.29972
385, 1, bw, attraction, a-b-db, 2, 1, 7, 34, 59, 134, 135, 60, 60, 135, 2, 0.614307
385, 1, bw, attraction, a-b-db, 5, 1, 7, 35, 60, 135, 58, 132, 135, 60, 3, 1.0914
385, 1, bw, attraction, a-b-db, 5, 1, 7, 35, 60, 135, 58, 132, 135, 60, 2, 0.550359
385, 1, bw, filler, NA, 999, 999, 7, 36, 169, 130, 152, 112, 181, 66, 1, 1.56613
385, 1, bw, filler, NA, 999, 999, 7, 36, 169, 130, 152, 112, 181, 66, 2, 0.910344
385, 1, bw, attraction, a-b-db, 2, 2, 7, 37, 90, 165, 165, 90, 89, 163, 1, 1.20733
385, 1, bw, attraction, a-b-db, 2, 2, 7, 37, 90, 165, 165, 90, 89, 163, 2, 0.685554
385, 1, bw, attraction, a-b-db, 9, 3, 8, 1, 195, 120, 114, 186, 120, 195, 1, 1.90391
385, 1, bw, attraction, a-b-db, 9, 3, 8, 1, 195, 120, 114, 186, 120, 195, 2, 0.554734
385, 1, bw, attraction, a-b-db, 5, 2, 8, 2, 88, 161, 165, 90, 90, 165, 2, 1.31439
385, 1, bw, attraction, a-b-db, 5, 2, 8, 2, 88, 161, 165, 90, 90, 165, 1, 0.396695
385, 1, bw, attraction, a-b-db, 5, 3, 8, 3, 195, 120, 120, 195, 117, 190, 1, 1.14642
385, 1, bw, attraction, a-b-db, 5, 3, 8, 3, 195, 120, 120, 195, 117, 190, 2, 0.651531
385, 1, bw, filler, NA, 999, 999, 8, 4, 100, 127, 136, 123, 153, 136, 3, 0.927222
385, 1, bw, filler, NA, 999, 999, 8, 4, 100, 127, 136, 123, 153, 136, 1, 0.520864
385, 1, bw, catch, NA, 999, 999, 8, 5, 96, 159, 102, 93, 174, 141, 3, 0.865843
385, 1, bw, catch, NA, 999, 999, 8, 5, 96, 159, 102, 93, 174, 141, 2, 0.678314
385, 1, bw, attraction, a-b-db, 2, 1, 8, 6, 60, 135, 135, 60, 59, 134, 1, 0.872727
385, 1, bw, attraction, a-b-db, 2, 1, 8, 6, 60, 135, 135, 60, 59, 134, 2, 0.700419
385, 1, bw, catch, NA, 999, 999, 8, 7, 166, 149, 105, 150, 90, 105, 1, 0.822204
385, 1, bw, catch, NA, 999, 999, 8, 7, 166, 149, 105, 150, 90, 105, 3, 0.675861
385, 1, bw, filler, NA, 999, 999, 8, 8, 109, 92, 149, 171, 92, 176, 2, 0.782171
385, 1, bw, filler, NA, 999, 999, 8, 8, 109, 92, 149, 171, 92, 176, 1, 0.662133
385, 1, bw, attraction, a-b-db, 14, 3, 8, 9, 195, 120, 120, 195, 111, 181, 2, 3.02499
385, 1, bw, attraction, a-b-db, 14, 3, 8, 9, 195, 120, 120, 195, 111, 181, 3, 0.958053
385, 1, bw, filler, NA, 999, 999, 8, 10, 66, 147, 109, 155, 118, 69, 2, 1.02114
385, 1, bw, filler, NA, 999, 999, 8, 10, 66, 147, 109, 155, 118, 69, 3, 0.938704
385, 1, bw, attraction, a-b-da, 2, 1, 8, 11, 60, 135, 135, 60, 134, 59, 1, 0.779013
385, 1, bw, attraction, a-b-da, 2, 1, 8, 11, 60, 135, 135, 60, 134, 59, 2, 1.41073
385, 1, bw, attraction, a-b-da, 5, 1, 8, 12, 60, 135, 135, 60, 132, 58, 1, 1.3835
385, 1, bw, attraction, a-b-da, 5, 1, 8, 12, 60, 135, 135, 60, 132, 58, 2, 0.43913
385, 1, bw, filler, NA, 999, 999, 8, 13, 120, 126, 67, 182, 166, 167, 3, 0.691639
385, 1, bw, filler, NA, 999, 999, 8, 13, 120, 126, 67, 182, 166, 167, 1, 0.534714
385, 1, bw, attraction, a-b-da, 5, 3, 8, 14, 190, 117, 120, 195, 195, 120, 2, 1.23107
385, 1, bw, attraction, a-b-da, 5, 3, 8, 14, 190, 117, 120, 195, 195, 120, 1, 0.532816
385, 1, bw, attraction, a-b-da, 2, 3, 8, 15, 120, 195, 195, 120, 193, 119, 1, 0.877219
385, 1, bw, attraction, a-b-da, 2, 3, 8, 15, 120, 195, 195, 120, 193, 119, 2, 0.624902
385, 1, bw, attraction, a-b-da, 14, 1, 8, 16, 125, 56, 60, 135, 135, 60, 2, 1.25332
385, 1, bw, attraction, a-b-da, 14, 1, 8, 16, 125, 56, 60, 135, 135, 60, 1, 0.490143
385, 1, bw, filler, NA, 999, 999, 8, 17, 159, 190, 117, 67, 184, 109, 1, 0.811934
385, 1, bw, filler, NA, 999, 999, 8, 17, 159, 190, 117, 67, 184, 109, 2, 0.506325
385, 1, bw, attraction, a-b-da, 9, 3, 8, 18, 186, 114, 195, 120, 120, 195, 2, 0.852257
385, 1, bw, attraction, a-b-da, 9, 3, 8, 18, 186, 114, 195, 120, 120, 195, 1, 0.457142
385, 1, bw, filler, NA, 999, 999, 8, 19, 182, 97, 89, 135, 75, 103, 1, 1.09226
385, 1, bw, filler, NA, 999, 999, 8, 19, 182, 97, 89, 135, 75, 103, 3, 0.647408
385, 1, bw, filler, NA, 999, 999, 8, 20, 113, 171, 88, 151, 136, 139, 3, 1.05902
385, 1, bw, filler, NA, 999, 999, 8, 20, 113, 171, 88, 151, 136, 139, 2, 0.655303
385, 1, bw, filler, NA, 999, 999, 8, 21, 166, 135, 177, 87, 142, 104, 1, 0.971158
385, 1, bw, filler, NA, 999, 999, 8, 21, 166, 135, 177, 87, 142, 104, 3, 0.650722
385, 1, bw, attraction, a-b-da, 9, 1, 8, 22, 60, 135, 135, 60, 129, 57, 1, 1.18252
385, 1, bw, attraction, a-b-da, 9, 1, 8, 22, 60, 135, 135, 60, 129, 57, 3, 0.526108
385, 1, bw, attraction, a-b-db, 2, 2, 8, 23, 165, 90, 90, 165, 89, 163, 2, 1.5665
385, 1, bw, attraction, a-b-db, 2, 2, 8, 23, 165, 90, 90, 165, 89, 163, 1, 0.406613
385, 1, bw, catch, NA, 999, 999, 8, 24, 160, 155, 165, 90, 78, 117, 1, 0.700571
385, 1, bw, catch, NA, 999, 999, 8, 24, 160, 155, 165, 90, 78, 117, 3, 0.447647
385, 1, bw, attraction, a-b-da, 9, 2, 8, 25, 157, 86, 165, 90, 90, 165, 3, 0.851375
385, 1, bw, attraction, a-b-da, 9, 2, 8, 25, 157, 86, 165, 90, 90, 165, 1, 0.472406
385, 1, bw, attraction, a-b-da, 14, 3, 8, 26, 195, 120, 181, 111, 120, 195, 3, 0.78753
385, 1, bw, attraction, a-b-da, 14, 3, 8, 26, 195, 120, 181, 111, 120, 195, 1, 0.690615
385, 1, bw, attraction, a-b-db, 9, 1, 8, 27, 135, 60, 60, 135, 57, 129, 1, 0.756313
385, 1, bw, attraction, a-b-db, 9, 1, 8, 27, 135, 60, 60, 135, 57, 129, 3, 0.420698
385, 1, bw, attraction, a-b-db, 14, 2, 8, 28, 83, 153, 165, 90, 90, 165, 1, 0.618007
385, 1, bw, attraction, a-b-db, 14, 2, 8, 28, 83, 153, 165, 90, 90, 165, 3, 2.68041
385, 1, bw, attraction, a-b-da, 14, 2, 8, 29, 90, 165, 165, 90, 153, 83, 1, 0.562162
385, 1, bw, attraction, a-b-da, 14, 2, 8, 29, 90, 165, 165, 90, 153, 83, 2, 0.61864
385, 1, bw, attraction, a-b-db, 14, 1, 8, 30, 56, 125, 60, 135, 135, 60, 3, 0.887712
385, 1, bw, attraction, a-b-db, 14, 1, 8, 30, 56, 125, 60, 135, 135, 60, 1, 0.443363
385, 1, bw, attraction, a-b-db, 2, 3, 8, 31, 119, 193, 195, 120, 120, 195, 3, 4.82315
385, 1, bw, attraction, a-b-db, 2, 3, 8, 31, 119, 193, 195, 120, 120, 195, 2, 0.763631
385, 1, bw, attraction, a-b-da, 2, 2, 8, 32, 163, 89, 90, 165, 165, 90, 2, 1.74667
385, 1, bw, attraction, a-b-da, 2, 2, 8, 32, 163, 89, 90, 165, 165, 90, 1, 0.563368
385, 1, bw, attraction, a-b-da, 5, 2, 8, 33, 90, 165, 161, 88, 165, 90, 1, 1.50664
385, 1, bw, attraction, a-b-da, 5, 2, 8, 33, 90, 165, 161, 88, 165, 90, 2, 0.356748
385, 1, bw, attraction, a-b-db, 5, 1, 8, 34, 60, 135, 58, 132, 135, 60, 2, 0.780016
385, 1, bw, attraction, a-b-db, 5, 1, 8, 34, 60, 135, 58, 132, 135, 60, 1, 0.555494
385, 1, bw, filler, NA, 999, 999, 8, 35, 131, 163, 167, 181, 181, 185, 3, 0.659349
385, 1, bw, filler, NA, 999, 999, 8, 35, 131, 163, 167, 181, 181, 185, 1, 0.455816
385, 1, bw, attraction, a-b-db, 9, 2, 8, 36, 90, 165, 165, 90, 86, 157, 2, 0.723606
385, 1, bw, attraction, a-b-db, 9, 2, 8, 36, 90, 165, 165, 90, 86, 157, 1, 0.437252
385, 1, bw, filler, NA, 999, 999, 8, 37, 111, 86, 131, 88, 157, 170, 3, 0.489753
385, 1, bw, filler, NA, 999, 999, 8, 37, 111, 86, 131, 88, 157, 170, 1, 0.604914
