sub_n, computer_n, bw_cond, effect, set, distance, diag, block_n, trial_n, h1, w1, h2, w2, h3, w3, choice, rt 
336, 1, wb, practice, NA, 999, 999, 0, 1, 184, 100, 179, 138, 57, 152, 3, 3.23831
336, 1, wb, practice, NA, 999, 999, 0, 1, 184, 100, 179, 138, 57, 152, 2, 1.43585
336, 1, wb, practice, NA, 999, 999, 0, 2, 100, 95, 151, 151, 117, 115, 1, 2.22035
336, 1, wb, practice, NA, 999, 999, 0, 2, 100, 95, 151, 151, 117, 115, 2, 0.855813
336, 1, wb, practice, NA, 999, 999, 0, 3, 83, 178, 134, 161, 177, 163, 1, 2.95275
336, 1, wb, practice, NA, 999, 999, 0, 3, 83, 178, 134, 161, 177, 163, 3, 0.978697
336, 1, wb, attraction, a-b-db, 2, 2, 1, 1, 90, 165, 165, 90, 89, 163, 2, 4.13918
336, 1, wb, attraction, a-b-db, 2, 2, 1, 1, 90, 165, 165, 90, 89, 163, 1, 3.73928
336, 1, wb, attraction, a-b-da, 9, 2, 1, 2, 157, 86, 90, 165, 165, 90, 1, 4.61071
336, 1, wb, attraction, a-b-da, 9, 2, 1, 2, 157, 86, 90, 165, 165, 90, 2, 0.775917
336, 1, wb, attraction, a-b-da, 14, 3, 1, 3, 120, 195, 181, 111, 195, 120, 2, 4.28627
336, 1, wb, attraction, a-b-da, 14, 3, 1, 3, 120, 195, 181, 111, 195, 120, 1, 1.83292
336, 1, wb, catch, NA, 999, 999, 1, 4, 178, 137, 126, 129, 98, 97, 3, 1.413
336, 1, wb, catch, NA, 999, 999, 1, 4, 178, 137, 126, 129, 98, 97, 1, 0.747111
336, 1, wb, attraction, a-b-db, 2, 1, 1, 5, 59, 134, 135, 60, 60, 135, 2, 6.34689
336, 1, wb, attraction, a-b-db, 2, 1, 1, 5, 59, 134, 135, 60, 60, 135, 3, 0.802114
336, 1, wb, attraction, a-b-db, 5, 2, 1, 6, 88, 161, 90, 165, 165, 90, 3, 5.032
336, 1, wb, attraction, a-b-db, 5, 2, 1, 6, 88, 161, 90, 165, 165, 90, 2, 1.27639
336, 1, wb, attraction, a-b-db, 14, 2, 1, 7, 83, 153, 165, 90, 90, 165, 1, 2.80647
336, 1, wb, attraction, a-b-db, 14, 2, 1, 7, 83, 153, 165, 90, 90, 165, 2, 0.756256
336, 1, wb, attraction, a-b-db, 5, 3, 1, 8, 195, 120, 120, 195, 117, 190, 1, 7.84397
336, 1, wb, attraction, a-b-db, 5, 3, 1, 8, 195, 120, 120, 195, 117, 190, 2, 1.27873
336, 1, wb, attraction, a-b-da, 9, 1, 1, 9, 129, 57, 60, 135, 135, 60, 2, 4.50503
336, 1, wb, attraction, a-b-da, 9, 1, 1, 9, 129, 57, 60, 135, 135, 60, 3, 0.58689
336, 1, wb, filler, NA, 999, 999, 1, 10, 60, 147, 154, 81, 119, 125, 1, 3.92933
336, 1, wb, filler, NA, 999, 999, 1, 10, 60, 147, 154, 81, 119, 125, 2, 0.698072
336, 1, wb, filler, NA, 999, 999, 1, 11, 142, 148, 139, 186, 150, 194, 1, 1.28372
336, 1, wb, filler, NA, 999, 999, 1, 11, 142, 148, 139, 186, 150, 194, 3, 1.24739
336, 1, wb, attraction, a-b-db, 5, 1, 1, 12, 135, 60, 58, 132, 60, 135, 2, 4.17893
336, 1, wb, attraction, a-b-db, 5, 1, 1, 12, 135, 60, 58, 132, 60, 135, 1, 1.00162
336, 1, wb, filler, NA, 999, 999, 1, 13, 179, 61, 179, 78, 94, 148, 3, 2.03123
336, 1, wb, filler, NA, 999, 999, 1, 13, 179, 61, 179, 78, 94, 148, 2, 0.692621
336, 1, wb, filler, NA, 999, 999, 1, 14, 195, 85, 183, 170, 159, 141, 1, 1.69433
336, 1, wb, filler, NA, 999, 999, 1, 14, 195, 85, 183, 170, 159, 141, 2, 0.913048
336, 1, wb, attraction, a-b-da, 5, 2, 1, 15, 90, 165, 161, 88, 165, 90, 2, 4.14609
336, 1, wb, attraction, a-b-da, 5, 2, 1, 15, 90, 165, 161, 88, 165, 90, 1, 0.778062
336, 1, wb, catch, NA, 999, 999, 1, 16, 123, 132, 124, 191, 104, 91, 3, 1.16843
336, 1, wb, catch, NA, 999, 999, 1, 16, 123, 132, 124, 191, 104, 91, 2, 0.488667
336, 1, wb, attraction, a-b-db, 9, 3, 1, 17, 120, 195, 114, 186, 195, 120, 2, 1.97914
336, 1, wb, attraction, a-b-db, 9, 3, 1, 17, 120, 195, 114, 186, 195, 120, 3, 2.8505
336, 1, wb, attraction, a-b-da, 2, 1, 1, 18, 135, 60, 60, 135, 134, 59, 3, 4.5335
336, 1, wb, attraction, a-b-da, 2, 1, 1, 18, 135, 60, 60, 135, 134, 59, 2, 2.43821
336, 1, wb, attraction, a-b-db, 14, 1, 1, 19, 60, 135, 56, 125, 135, 60, 2, 2.13794
336, 1, wb, attraction, a-b-db, 14, 1, 1, 19, 60, 135, 56, 125, 135, 60, 3, 0.915356
336, 1, wb, filler, NA, 999, 999, 1, 20, 140, 66, 139, 106, 175, 194, 1, 0.876202
336, 1, wb, filler, NA, 999, 999, 1, 20, 140, 66, 139, 106, 175, 194, 3, 0.431871
336, 1, wb, filler, NA, 999, 999, 1, 21, 147, 113, 93, 76, 77, 185, 2, 0.844461
336, 1, wb, filler, NA, 999, 999, 1, 21, 147, 113, 93, 76, 77, 185, 1, 0.87351
336, 1, wb, attraction, a-b-da, 5, 1, 1, 22, 132, 58, 135, 60, 60, 135, 3, 1.59587
336, 1, wb, attraction, a-b-da, 5, 1, 1, 22, 132, 58, 135, 60, 60, 135, 2, 0.986669
336, 1, wb, attraction, a-b-db, 9, 1, 1, 23, 60, 135, 135, 60, 57, 129, 3, 0.960938
336, 1, wb, attraction, a-b-db, 9, 1, 1, 23, 60, 135, 135, 60, 57, 129, 2, 0.809249
336, 1, wb, attraction, a-b-da, 14, 2, 1, 24, 90, 165, 153, 83, 165, 90, 3, 1.38228
336, 1, wb, attraction, a-b-da, 14, 2, 1, 24, 90, 165, 153, 83, 165, 90, 1, 1.30999
336, 1, wb, attraction, a-b-da, 5, 3, 1, 25, 190, 117, 195, 120, 120, 195, 1, 1.3186
336, 1, wb, attraction, a-b-da, 5, 3, 1, 25, 190, 117, 195, 120, 120, 195, 3, 1.37691
336, 1, wb, attraction, a-b-da, 2, 3, 1, 26, 195, 120, 193, 119, 120, 195, 2, 2.75107
336, 1, wb, attraction, a-b-da, 2, 3, 1, 26, 195, 120, 193, 119, 120, 195, 3, 0.679544
336, 1, wb, filler, NA, 999, 999, 1, 27, 100, 129, 155, 133, 125, 150, 1, 0.88198
336, 1, wb, filler, NA, 999, 999, 1, 27, 100, 129, 155, 133, 125, 150, 2, 0.605643
336, 1, wb, filler, NA, 999, 999, 1, 28, 123, 126, 152, 92, 133, 78, 3, 0.923406
336, 1, wb, filler, NA, 999, 999, 1, 28, 123, 126, 152, 92, 133, 78, 1, 0.413036
336, 1, wb, catch, NA, 999, 999, 1, 29, 148, 167, 90, 105, 96, 159, 2, 0.810145
336, 1, wb, catch, NA, 999, 999, 1, 29, 148, 167, 90, 105, 96, 159, 1, 0.504503
336, 1, wb, filler, NA, 999, 999, 1, 30, 118, 67, 105, 60, 182, 70, 2, 1.64233
336, 1, wb, filler, NA, 999, 999, 1, 30, 118, 67, 105, 60, 182, 70, 3, 0.479145
336, 1, wb, attraction, a-b-da, 9, 3, 1, 31, 120, 195, 195, 120, 186, 114, 3, 3.89764
336, 1, wb, attraction, a-b-da, 9, 3, 1, 31, 120, 195, 195, 120, 186, 114, 2, 1.21968
336, 1, wb, attraction, a-b-db, 2, 3, 1, 32, 120, 195, 195, 120, 119, 193, 2, 3.10474
336, 1, wb, attraction, a-b-db, 2, 3, 1, 32, 120, 195, 195, 120, 119, 193, 1, 0.650272
336, 1, wb, filler, NA, 999, 999, 1, 33, 133, 111, 99, 124, 74, 131, 3, 1.25403
336, 1, wb, filler, NA, 999, 999, 1, 33, 133, 111, 99, 124, 74, 131, 1, 0.994971
336, 1, wb, attraction, a-b-da, 2, 2, 1, 34, 165, 90, 163, 89, 90, 165, 1, 4.58456
336, 1, wb, attraction, a-b-da, 2, 2, 1, 34, 165, 90, 163, 89, 90, 165, 2, 2.10306
336, 1, wb, attraction, a-b-da, 14, 1, 1, 35, 125, 56, 60, 135, 135, 60, 1, 3.06445
336, 1, wb, attraction, a-b-da, 14, 1, 1, 35, 125, 56, 60, 135, 135, 60, 3, 3.90827
336, 1, wb, attraction, a-b-db, 9, 2, 1, 36, 90, 165, 86, 157, 165, 90, 2, 2.74014
336, 1, wb, attraction, a-b-db, 9, 2, 1, 36, 90, 165, 86, 157, 165, 90, 1, 1.03656
336, 1, wb, attraction, a-b-db, 14, 3, 1, 37, 111, 181, 195, 120, 120, 195, 1, 2.24882
336, 1, wb, attraction, a-b-db, 14, 3, 1, 37, 111, 181, 195, 120, 120, 195, 3, 1.68547
336, 1, wb, attraction, a-b-db, 5, 2, 2, 1, 165, 90, 90, 165, 88, 161, 3, 4.93554
336, 1, wb, attraction, a-b-db, 5, 2, 2, 1, 165, 90, 90, 165, 88, 161, 2, 1.01608
336, 1, wb, attraction, a-b-da, 9, 3, 2, 2, 195, 120, 120, 195, 186, 114, 3, 1.28492
336, 1, wb, attraction, a-b-da, 9, 3, 2, 2, 195, 120, 120, 195, 186, 114, 2, 0.936545
336, 1, wb, attraction, a-b-da, 9, 2, 2, 3, 157, 86, 90, 165, 165, 90, 1, 3.36876
336, 1, wb, attraction, a-b-da, 9, 2, 2, 3, 157, 86, 90, 165, 165, 90, 2, 0.704473
336, 1, wb, filler, NA, 999, 999, 2, 4, 125, 127, 176, 131, 144, 178, 1, 1.14614
336, 1, wb, filler, NA, 999, 999, 2, 4, 125, 127, 176, 131, 144, 178, 2, 0.955116
336, 1, wb, attraction, a-b-db, 14, 3, 2, 5, 195, 120, 111, 181, 120, 195, 2, 2.20268
336, 1, wb, attraction, a-b-db, 14, 3, 2, 5, 195, 120, 111, 181, 120, 195, 3, 0.745301
336, 1, wb, filler, NA, 999, 999, 2, 6, 83, 58, 84, 137, 183, 65, 1, 0.985049
336, 1, wb, filler, NA, 999, 999, 2, 6, 83, 58, 84, 137, 183, 65, 2, 1.98477
336, 1, wb, filler, NA, 999, 999, 2, 7, 92, 180, 168, 167, 177, 161, 1, 1.23072
336, 1, wb, filler, NA, 999, 999, 2, 7, 92, 180, 168, 167, 177, 161, 2, 0.70829
336, 1, wb, filler, NA, 999, 999, 2, 8, 108, 69, 94, 165, 72, 163, 1, 1.17341
336, 1, wb, filler, NA, 999, 999, 2, 8, 108, 69, 94, 165, 72, 163, 2, 0.596931
336, 1, wb, filler, NA, 999, 999, 2, 9, 178, 181, 116, 100, 135, 149, 2, 0.970652
336, 1, wb, filler, NA, 999, 999, 2, 9, 178, 181, 116, 100, 135, 149, 1, 0.531105
336, 1, wb, filler, NA, 999, 999, 2, 10, 167, 139, 93, 195, 120, 192, 2, 2.49163
336, 1, wb, filler, NA, 999, 999, 2, 10, 167, 139, 93, 195, 120, 192, 3, 2.93417
336, 1, wb, attraction, a-b-da, 14, 3, 2, 11, 195, 120, 181, 111, 120, 195, 2, 3.59778
336, 1, wb, attraction, a-b-da, 14, 3, 2, 11, 195, 120, 181, 111, 120, 195, 1, 0.603961
336, 1, wb, attraction, a-b-da, 14, 1, 2, 12, 125, 56, 135, 60, 60, 135, 1, 1.66563
336, 1, wb, attraction, a-b-da, 14, 1, 2, 12, 125, 56, 135, 60, 60, 135, 3, 0.9258
336, 1, wb, filler, NA, 999, 999, 2, 13, 120, 174, 109, 56, 91, 152, 2, 0.854045
336, 1, wb, filler, NA, 999, 999, 2, 13, 120, 174, 109, 56, 91, 152, 1, 0.459113
336, 1, wb, attraction, a-b-da, 9, 1, 2, 14, 135, 60, 60, 135, 129, 57, 3, 2.63825
336, 1, wb, attraction, a-b-da, 9, 1, 2, 14, 135, 60, 60, 135, 129, 57, 1, 0.842689
336, 1, wb, attraction, a-b-db, 9, 3, 2, 15, 120, 195, 195, 120, 114, 186, 3, 1.11848
336, 1, wb, attraction, a-b-db, 9, 3, 2, 15, 120, 195, 195, 120, 114, 186, 2, 0.504802
336, 1, wb, catch, NA, 999, 999, 2, 16, 194, 121, 159, 96, 127, 68, 3, 0.690408
336, 1, wb, catch, NA, 999, 999, 2, 16, 194, 121, 159, 96, 127, 68, 1, 0.485543
336, 1, wb, attraction, a-b-db, 9, 2, 2, 17, 90, 165, 86, 157, 165, 90, 2, 1.62407
336, 1, wb, attraction, a-b-db, 9, 2, 2, 17, 90, 165, 86, 157, 165, 90, 1, 0.861454
336, 1, wb, filler, NA, 999, 999, 2, 18, 151, 87, 166, 185, 150, 122, 1, 0.89649
336, 1, wb, filler, NA, 999, 999, 2, 18, 151, 87, 166, 185, 150, 122, 2, 0.395482
336, 1, wb, attraction, a-b-db, 14, 2, 2, 19, 165, 90, 90, 165, 83, 153, 3, 3.43336
336, 1, wb, attraction, a-b-db, 14, 2, 2, 19, 165, 90, 90, 165, 83, 153, 1, 0.758281
336, 1, wb, attraction, a-b-db, 2, 1, 2, 20, 60, 135, 59, 134, 135, 60, 3, 2.09336
336, 1, wb, attraction, a-b-db, 2, 1, 2, 20, 60, 135, 59, 134, 135, 60, 2, 0.655981
336, 1, wb, attraction, a-b-db, 5, 1, 2, 21, 135, 60, 58, 132, 60, 135, 3, 1.5797
336, 1, wb, attraction, a-b-db, 5, 1, 2, 21, 135, 60, 58, 132, 60, 135, 1, 0.699182
336, 1, wb, attraction, a-b-db, 2, 3, 2, 22, 120, 195, 195, 120, 119, 193, 3, 1.7969
336, 1, wb, attraction, a-b-db, 2, 3, 2, 22, 120, 195, 195, 120, 119, 193, 2, 1.4837
336, 1, wb, catch, NA, 999, 999, 2, 23, 155, 100, 187, 128, 135, 60, 3, 0.805789
336, 1, wb, catch, NA, 999, 999, 2, 23, 155, 100, 187, 128, 135, 60, 2, 0.356133
336, 1, wb, attraction, a-b-da, 14, 2, 2, 24, 165, 90, 90, 165, 153, 83, 3, 1.38795
336, 1, wb, attraction, a-b-da, 14, 2, 2, 24, 165, 90, 90, 165, 153, 83, 2, 1.13947
336, 1, wb, attraction, a-b-db, 9, 1, 2, 25, 135, 60, 60, 135, 57, 129, 3, 2.1478
336, 1, wb, attraction, a-b-db, 9, 1, 2, 25, 135, 60, 60, 135, 57, 129, 1, 2.89252
336, 1, wb, attraction, a-b-da, 2, 1, 2, 26, 60, 135, 134, 59, 135, 60, 3, 1.6537
336, 1, wb, attraction, a-b-da, 2, 1, 2, 26, 60, 135, 134, 59, 135, 60, 2, 0.914245
336, 1, wb, attraction, a-b-db, 2, 2, 2, 27, 90, 165, 165, 90, 89, 163, 3, 1.77923
336, 1, wb, attraction, a-b-db, 2, 2, 2, 27, 90, 165, 165, 90, 89, 163, 2, 3.59466
336, 1, wb, attraction, a-b-da, 5, 1, 2, 28, 60, 135, 132, 58, 135, 60, 2, 2.94342
336, 1, wb, attraction, a-b-da, 5, 1, 2, 28, 60, 135, 132, 58, 135, 60, 1, 0.471991
336, 1, wb, attraction, a-b-da, 2, 3, 2, 29, 193, 119, 195, 120, 120, 195, 3, 2.65102
336, 1, wb, attraction, a-b-da, 2, 3, 2, 29, 193, 119, 195, 120, 120, 195, 1, 2.35951
336, 1, wb, filler, NA, 999, 999, 2, 30, 82, 71, 138, 72, 163, 175, 1, 0.717945
336, 1, wb, filler, NA, 999, 999, 2, 30, 82, 71, 138, 72, 163, 175, 3, 0.712523
336, 1, wb, filler, NA, 999, 999, 2, 31, 164, 135, 96, 112, 161, 125, 2, 0.697453
336, 1, wb, filler, NA, 999, 999, 2, 31, 164, 135, 96, 112, 161, 125, 1, 0.892646
336, 1, wb, attraction, a-b-db, 5, 3, 2, 32, 117, 190, 120, 195, 195, 120, 3, 1.89427
336, 1, wb, attraction, a-b-db, 5, 3, 2, 32, 117, 190, 120, 195, 195, 120, 2, 0.400943
336, 1, wb, attraction, a-b-da, 5, 3, 2, 33, 195, 120, 190, 117, 120, 195, 2, 1.55883
336, 1, wb, attraction, a-b-da, 5, 3, 2, 33, 195, 120, 190, 117, 120, 195, 3, 0.374876
336, 1, wb, catch, NA, 999, 999, 2, 34, 91, 164, 185, 130, 104, 91, 3, 0.661539
336, 1, wb, catch, NA, 999, 999, 2, 34, 91, 164, 185, 130, 104, 91, 2, 0.441918
336, 1, wb, attraction, a-b-da, 2, 2, 2, 35, 90, 165, 163, 89, 165, 90, 3, 1.39768
336, 1, wb, attraction, a-b-da, 2, 2, 2, 35, 90, 165, 163, 89, 165, 90, 1, 0.564527
336, 1, wb, attraction, a-b-da, 5, 2, 2, 36, 161, 88, 90, 165, 165, 90, 2, 0.923725
336, 1, wb, attraction, a-b-da, 5, 2, 2, 36, 161, 88, 90, 165, 165, 90, 1, 0.485271
336, 1, wb, attraction, a-b-db, 14, 1, 2, 37, 56, 125, 135, 60, 60, 135, 1, 2.11169
336, 1, wb, attraction, a-b-db, 14, 1, 2, 37, 56, 125, 135, 60, 60, 135, 2, 2.91368
336, 1, wb, attraction, a-b-da, 2, 1, 3, 1, 134, 59, 135, 60, 60, 135, 1, 3.3861
336, 1, wb, attraction, a-b-da, 2, 1, 3, 1, 134, 59, 135, 60, 60, 135, 3, 0.721051
336, 1, wb, filler, NA, 999, 999, 3, 2, 119, 57, 177, 100, 171, 120, 1, 0.713982
336, 1, wb, filler, NA, 999, 999, 3, 2, 119, 57, 177, 100, 171, 120, 2, 3.00448
336, 1, wb, attraction, a-b-da, 9, 3, 3, 3, 186, 114, 120, 195, 195, 120, 2, 1.15347
336, 1, wb, attraction, a-b-da, 9, 3, 3, 3, 186, 114, 120, 195, 195, 120, 3, 0.658361
336, 1, wb, filler, NA, 999, 999, 3, 4, 91, 175, 81, 146, 118, 86, 3, 2.56572
336, 1, wb, filler, NA, 999, 999, 3, 4, 91, 175, 81, 146, 118, 86, 1, 1.17344
336, 1, wb, attraction, a-b-db, 2, 2, 3, 5, 90, 165, 165, 90, 89, 163, 3, 2.77956
336, 1, wb, attraction, a-b-db, 2, 2, 3, 5, 90, 165, 165, 90, 89, 163, 2, 0.570642
336, 1, wb, attraction, a-b-da, 2, 2, 3, 6, 165, 90, 163, 89, 90, 165, 1, 1.85779
336, 1, wb, attraction, a-b-da, 2, 2, 3, 6, 165, 90, 163, 89, 90, 165, 3, 1.03785
336, 1, wb, filler, NA, 999, 999, 3, 7, 96, 144, 135, 79, 186, 158, 1, 2.47405
336, 1, wb, filler, NA, 999, 999, 3, 7, 96, 144, 135, 79, 186, 158, 3, 1.2853
336, 1, wb, filler, NA, 999, 999, 3, 8, 57, 145, 181, 101, 113, 164, 1, 0.623489
336, 1, wb, filler, NA, 999, 999, 3, 8, 57, 145, 181, 101, 113, 164, 2, 1.26128
336, 1, wb, attraction, a-b-da, 5, 1, 3, 9, 60, 135, 135, 60, 132, 58, 3, 1.08829
336, 1, wb, attraction, a-b-da, 5, 1, 3, 9, 60, 135, 135, 60, 132, 58, 2, 0.643162
336, 1, wb, attraction, a-b-db, 5, 2, 3, 10, 165, 90, 88, 161, 90, 165, 3, 0.982873
336, 1, wb, attraction, a-b-db, 5, 2, 3, 10, 165, 90, 88, 161, 90, 165, 2, 0.614596
336, 1, wb, attraction, a-b-da, 5, 2, 3, 11, 161, 88, 90, 165, 165, 90, 3, 0.947578
336, 1, wb, attraction, a-b-da, 5, 2, 3, 11, 161, 88, 90, 165, 165, 90, 2, 0.460735
336, 1, wb, filler, NA, 999, 999, 3, 12, 157, 75, 68, 165, 177, 134, 1, 1.16771
336, 1, wb, filler, NA, 999, 999, 3, 12, 157, 75, 68, 165, 177, 134, 3, 0.488081
336, 1, wb, attraction, a-b-db, 2, 3, 3, 13, 120, 195, 195, 120, 119, 193, 3, 2.42654
336, 1, wb, attraction, a-b-db, 2, 3, 3, 13, 120, 195, 195, 120, 119, 193, 2, 0.39175
336, 1, wb, catch, NA, 999, 999, 3, 14, 112, 83, 123, 192, 102, 153, 1, 1.02955
336, 1, wb, catch, NA, 999, 999, 3, 14, 112, 83, 123, 192, 102, 153, 2, 0.339169
336, 1, wb, filler, NA, 999, 999, 3, 15, 185, 105, 63, 166, 146, 145, 2, 0.907663
336, 1, wb, filler, NA, 999, 999, 3, 15, 185, 105, 63, 166, 146, 145, 3, 0.446117
336, 1, wb, attraction, a-b-da, 2, 3, 3, 16, 120, 195, 193, 119, 195, 120, 3, 0.929822
336, 1, wb, attraction, a-b-da, 2, 3, 3, 16, 120, 195, 193, 119, 195, 120, 1, 0.347663
336, 1, wb, catch, NA, 999, 999, 3, 17, 186, 129, 107, 88, 118, 137, 2, 0.763358
336, 1, wb, catch, NA, 999, 999, 3, 17, 186, 129, 107, 88, 118, 137, 1, 0.363817
336, 1, wb, attraction, a-b-da, 9, 1, 3, 18, 129, 57, 135, 60, 60, 135, 1, 1.187
336, 1, wb, attraction, a-b-da, 9, 1, 3, 18, 129, 57, 135, 60, 60, 135, 3, 0.370519
336, 1, wb, attraction, a-b-db, 5, 3, 3, 19, 120, 195, 117, 190, 195, 120, 3, 1.00177
336, 1, wb, attraction, a-b-db, 5, 3, 3, 19, 120, 195, 117, 190, 195, 120, 2, 0.680702
336, 1, wb, catch, NA, 999, 999, 3, 20, 78, 117, 151, 164, 102, 153, 1, 1.2031
336, 1, wb, catch, NA, 999, 999, 3, 20, 78, 117, 151, 164, 102, 153, 2, 0.402033
336, 1, wb, attraction, a-b-db, 14, 2, 3, 21, 165, 90, 83, 153, 90, 165, 2, 1.02389
336, 1, wb, attraction, a-b-db, 14, 2, 3, 21, 165, 90, 83, 153, 90, 165, 1, 0.421603
336, 1, wb, attraction, a-b-da, 14, 2, 3, 22, 90, 165, 153, 83, 165, 90, 1, 0.994631
336, 1, wb, attraction, a-b-da, 14, 2, 3, 22, 90, 165, 153, 83, 165, 90, 3, 1.00978
336, 1, wb, attraction, a-b-db, 14, 3, 3, 23, 195, 120, 120, 195, 111, 181, 3, 1.5747
336, 1, wb, attraction, a-b-db, 14, 3, 3, 23, 195, 120, 120, 195, 111, 181, 2, 1.51806
336, 1, wb, attraction, a-b-db, 9, 1, 3, 24, 57, 129, 135, 60, 60, 135, 2, 1.46294
336, 1, wb, attraction, a-b-db, 9, 1, 3, 24, 57, 129, 135, 60, 60, 135, 1, 0.435083
336, 1, wb, filler, NA, 999, 999, 3, 25, 149, 116, 77, 56, 107, 152, 2, 0.991528
336, 1, wb, filler, NA, 999, 999, 3, 25, 149, 116, 77, 56, 107, 152, 1, 0.326487
336, 1, wb, filler, NA, 999, 999, 3, 26, 141, 89, 62, 169, 118, 87, 3, 2.04704
336, 1, wb, filler, NA, 999, 999, 3, 26, 141, 89, 62, 169, 118, 87, 1, 0.923765
336, 1, wb, filler, NA, 999, 999, 3, 27, 189, 147, 100, 82, 64, 88, 3, 1.14008
336, 1, wb, filler, NA, 999, 999, 3, 27, 189, 147, 100, 82, 64, 88, 1, 0.556939
336, 1, wb, attraction, a-b-da, 14, 3, 3, 28, 181, 111, 195, 120, 120, 195, 1, 0.956032
336, 1, wb, attraction, a-b-da, 14, 3, 3, 28, 181, 111, 195, 120, 120, 195, 3, 0.38047
336, 1, wb, filler, NA, 999, 999, 3, 29, 57, 60, 151, 160, 90, 139, 1, 0.930825
336, 1, wb, filler, NA, 999, 999, 3, 29, 57, 60, 151, 160, 90, 139, 2, 0.580511
336, 1, wb, attraction, a-b-db, 2, 1, 3, 30, 135, 60, 60, 135, 59, 134, 2, 1.41908
336, 1, wb, attraction, a-b-db, 2, 1, 3, 30, 135, 60, 60, 135, 59, 134, 1, 0.489167
336, 1, wb, attraction, a-b-db, 5, 1, 3, 31, 135, 60, 58, 132, 60, 135, 2, 1.9557
336, 1, wb, attraction, a-b-db, 5, 1, 3, 31, 135, 60, 58, 132, 60, 135, 1, 1.72365
336, 1, wb, attraction, a-b-db, 14, 1, 3, 32, 135, 60, 60, 135, 56, 125, 2, 3.20451
336, 1, wb, attraction, a-b-db, 14, 1, 3, 32, 135, 60, 60, 135, 56, 125, 1, 1.68264
336, 1, wb, attraction, a-b-da, 14, 1, 3, 33, 125, 56, 135, 60, 60, 135, 3, 1.42089
336, 1, wb, attraction, a-b-da, 14, 1, 3, 33, 125, 56, 135, 60, 60, 135, 2, 0.819026
336, 1, wb, attraction, a-b-da, 9, 2, 3, 34, 90, 165, 165, 90, 157, 86, 3, 2.47222
336, 1, wb, attraction, a-b-da, 9, 2, 3, 34, 90, 165, 165, 90, 157, 86, 1, 0.387239
336, 1, wb, attraction, a-b-da, 5, 3, 3, 35, 120, 195, 190, 117, 195, 120, 2, 2.24969
336, 1, wb, attraction, a-b-da, 5, 3, 3, 35, 120, 195, 190, 117, 195, 120, 3, 1.1503
336, 1, wb, attraction, a-b-db, 9, 2, 3, 36, 165, 90, 86, 157, 90, 165, 2, 4.10184
336, 1, wb, attraction, a-b-db, 9, 2, 3, 36, 165, 90, 86, 157, 90, 165, 1, 0.919882
336, 1, wb, attraction, a-b-db, 9, 3, 3, 37, 120, 195, 195, 120, 114, 186, 3, 1.36894
336, 1, wb, attraction, a-b-db, 9, 3, 3, 37, 120, 195, 195, 120, 114, 186, 1, 0.721089
336, 1, wb, attraction, a-b-db, 2, 1, 4, 1, 60, 135, 135, 60, 59, 134, 1, 3.05019
336, 1, wb, attraction, a-b-db, 2, 1, 4, 1, 60, 135, 135, 60, 59, 134, 2, 0.702518
336, 1, wb, attraction, a-b-da, 5, 1, 4, 2, 135, 60, 132, 58, 60, 135, 3, 1.65627
336, 1, wb, attraction, a-b-da, 5, 1, 4, 2, 135, 60, 132, 58, 60, 135, 2, 0.532456
336, 1, wb, filler, NA, 999, 999, 4, 3, 70, 95, 141, 84, 140, 131, 1, 0.748766
336, 1, wb, filler, NA, 999, 999, 4, 3, 70, 95, 141, 84, 140, 131, 3, 0.373958
336, 1, wb, attraction, a-b-da, 9, 1, 4, 4, 129, 57, 60, 135, 135, 60, 2, 0.836388
336, 1, wb, attraction, a-b-da, 9, 1, 4, 4, 129, 57, 60, 135, 135, 60, 3, 1.42621
336, 1, wb, attraction, a-b-db, 2, 2, 4, 5, 90, 165, 165, 90, 89, 163, 3, 1.56624
336, 1, wb, attraction, a-b-db, 2, 2, 4, 5, 90, 165, 165, 90, 89, 163, 2, 0.446515
336, 1, wb, attraction, a-b-db, 5, 3, 4, 6, 120, 195, 195, 120, 117, 190, 1, 3.42617
336, 1, wb, attraction, a-b-db, 5, 3, 4, 6, 120, 195, 195, 120, 117, 190, 2, 0.51126
336, 1, wb, attraction, a-b-db, 5, 2, 4, 7, 88, 161, 165, 90, 90, 165, 1, 1.7362
336, 1, wb, attraction, a-b-db, 5, 2, 4, 7, 88, 161, 165, 90, 90, 165, 2, 0.465761
336, 1, wb, catch, NA, 999, 999, 4, 8, 142, 113, 184, 131, 66, 129, 3, 0.900822
336, 1, wb, catch, NA, 999, 999, 4, 8, 142, 113, 184, 131, 66, 129, 2, 0.648014
336, 1, wb, attraction, a-b-db, 2, 3, 4, 9, 195, 120, 119, 193, 120, 195, 3, 2.32354
336, 1, wb, attraction, a-b-db, 2, 3, 4, 9, 195, 120, 119, 193, 120, 195, 2, 1.10873
336, 1, wb, filler, NA, 999, 999, 4, 10, 189, 69, 88, 64, 191, 81, 2, 0.89373
336, 1, wb, filler, NA, 999, 999, 4, 10, 189, 69, 88, 64, 191, 81, 3, 0.944745
336, 1, wb, catch, NA, 999, 999, 4, 11, 78, 117, 93, 162, 130, 185, 1, 0.632318
336, 1, wb, catch, NA, 999, 999, 4, 11, 78, 117, 93, 162, 130, 185, 3, 0.622293
336, 1, wb, attraction, a-b-db, 9, 2, 4, 12, 86, 157, 90, 165, 165, 90, 1, 4.16318
336, 1, wb, attraction, a-b-db, 9, 2, 4, 12, 86, 157, 90, 165, 165, 90, 2, 0.890624
336, 1, wb, attraction, a-b-da, 2, 3, 4, 13, 195, 120, 193, 119, 120, 195, 2, 3.1002
336, 1, wb, attraction, a-b-da, 2, 3, 4, 13, 195, 120, 193, 119, 120, 195, 1, 5.1906
336, 1, wb, attraction, a-b-db, 5, 1, 4, 14, 60, 135, 58, 132, 135, 60, 3, 1.87564
336, 1, wb, attraction, a-b-db, 5, 1, 4, 14, 60, 135, 58, 132, 135, 60, 2, 3.51895
336, 1, wb, attraction, a-b-da, 2, 2, 4, 15, 90, 165, 165, 90, 163, 89, 3, 48.6392
336, 1, wb, attraction, a-b-da, 2, 2, 4, 15, 90, 165, 165, 90, 163, 89, 2, 0.621889
336, 1, wb, filler, NA, 999, 999, 4, 16, 98, 138, 90, 186, 59, 159, 3, 0.98708
336, 1, wb, filler, NA, 999, 999, 4, 16, 98, 138, 90, 186, 59, 159, 2, 0.562679
336, 1, wb, filler, NA, 999, 999, 4, 17, 78, 130, 74, 173, 67, 81, 3, 1.36978
336, 1, wb, filler, NA, 999, 999, 4, 17, 78, 130, 74, 173, 67, 81, 2, 0.986016
336, 1, wb, attraction, a-b-da, 9, 2, 4, 18, 157, 86, 90, 165, 165, 90, 1, 1.8883
336, 1, wb, attraction, a-b-da, 9, 2, 4, 18, 157, 86, 90, 165, 165, 90, 2, 0.507071
336, 1, wb, attraction, a-b-da, 14, 1, 4, 19, 125, 56, 135, 60, 60, 135, 1, 1.88407
336, 1, wb, attraction, a-b-da, 14, 1, 4, 19, 125, 56, 135, 60, 60, 135, 2, 1.69555
336, 1, wb, catch, NA, 999, 999, 4, 20, 143, 172, 94, 161, 107, 88, 3, 1.23289
336, 1, wb, catch, NA, 999, 999, 4, 20, 143, 172, 94, 161, 107, 88, 1, 0.598622
336, 1, wb, attraction, a-b-da, 9, 3, 4, 21, 195, 120, 186, 114, 120, 195, 1, 3.61232
336, 1, wb, attraction, a-b-da, 9, 3, 4, 21, 195, 120, 186, 114, 120, 195, 3, 0.897729
336, 1, wb, attraction, a-b-da, 5, 2, 4, 22, 90, 165, 165, 90, 161, 88, 3, 3.41141
336, 1, wb, attraction, a-b-da, 5, 2, 4, 22, 90, 165, 165, 90, 161, 88, 1, 0.601023
336, 1, wb, attraction, a-b-da, 14, 3, 4, 23, 120, 195, 195, 120, 181, 111, 3, 1.39878
336, 1, wb, attraction, a-b-da, 14, 3, 4, 23, 120, 195, 195, 120, 181, 111, 1, 2.13359
336, 1, wb, attraction, a-b-db, 14, 2, 4, 24, 90, 165, 165, 90, 83, 153, 2, 2.77368
336, 1, wb, attraction, a-b-db, 14, 2, 4, 24, 90, 165, 165, 90, 83, 153, 1, 0.876644
336, 1, wb, filler, NA, 999, 999, 4, 25, 107, 150, 164, 125, 184, 188, 1, 0.94298
336, 1, wb, filler, NA, 999, 999, 4, 25, 107, 150, 164, 125, 184, 188, 3, 0.439996
336, 1, wb, filler, NA, 999, 999, 4, 26, 74, 107, 57, 85, 192, 75, 2, 0.867853
336, 1, wb, filler, NA, 999, 999, 4, 26, 74, 107, 57, 85, 192, 75, 3, 0.768209
336, 1, wb, attraction, a-b-da, 2, 1, 4, 27, 134, 59, 60, 135, 135, 60, 3, 2.09519
336, 1, wb, attraction, a-b-da, 2, 1, 4, 27, 134, 59, 60, 135, 135, 60, 2, 1.57002
336, 1, wb, filler, NA, 999, 999, 4, 28, 123, 114, 61, 88, 90, 134, 2, 0.752659
336, 1, wb, filler, NA, 999, 999, 4, 28, 123, 114, 61, 88, 90, 134, 1, 0.425731
336, 1, wb, attraction, a-b-da, 5, 3, 4, 29, 120, 195, 195, 120, 190, 117, 3, 1.16624
336, 1, wb, attraction, a-b-da, 5, 3, 4, 29, 120, 195, 195, 120, 190, 117, 2, 0.606524
336, 1, wb, filler, NA, 999, 999, 4, 30, 143, 129, 122, 119, 82, 89, 3, 1.01153
336, 1, wb, filler, NA, 999, 999, 4, 30, 143, 129, 122, 119, 82, 89, 1, 0.521929
336, 1, wb, attraction, a-b-db, 9, 1, 4, 31, 135, 60, 57, 129, 60, 135, 3, 9.571
336, 1, wb, attraction, a-b-db, 9, 1, 4, 31, 135, 60, 57, 129, 60, 135, 1, 0.688663
336, 1, wb, attraction, a-b-db, 9, 3, 4, 32, 114, 186, 120, 195, 195, 120, 3, 7.04324
336, 1, wb, attraction, a-b-db, 9, 3, 4, 32, 114, 186, 120, 195, 195, 120, 2, 0.438108
336, 1, wb, filler, NA, 999, 999, 4, 33, 168, 57, 112, 98, 69, 122, 3, 5.22662
336, 1, wb, filler, NA, 999, 999, 4, 33, 168, 57, 112, 98, 69, 122, 1, 0.59104
336, 1, wb, filler, NA, 999, 999, 4, 34, 59, 130, 103, 130, 103, 181, 1, 1.06871
336, 1, wb, filler, NA, 999, 999, 4, 34, 59, 130, 103, 130, 103, 181, 3, 0.961026
336, 1, wb, attraction, a-b-da, 14, 2, 4, 35, 165, 90, 90, 165, 153, 83, 3, 27.9201
336, 1, wb, attraction, a-b-da, 14, 2, 4, 35, 165, 90, 90, 165, 153, 83, 1, 1.09789
336, 1, wb, attraction, a-b-db, 14, 1, 4, 36, 60, 135, 56, 125, 135, 60, 3, 5.21964
336, 1, wb, attraction, a-b-db, 14, 1, 4, 36, 60, 135, 56, 125, 135, 60, 1, 0.616497
336, 1, wb, attraction, a-b-db, 14, 3, 4, 37, 195, 120, 111, 181, 120, 195, 2, 1.66162
336, 1, wb, attraction, a-b-db, 14, 3, 4, 37, 195, 120, 111, 181, 120, 195, 1, 1.12989
336, 1, wb, attraction, a-b-da, 14, 3, 5, 1, 120, 195, 181, 111, 195, 120, 2, 13.2886
336, 1, wb, attraction, a-b-da, 14, 3, 5, 1, 120, 195, 181, 111, 195, 120, 1, 0.544583
336, 1, wb, filler, NA, 999, 999, 5, 2, 185, 62, 121, 147, 70, 172, 1, 8.99224
336, 1, wb, filler, NA, 999, 999, 5, 2, 185, 62, 121, 147, 70, 172, 2, 0.668717
336, 1, wb, attraction, a-b-da, 5, 1, 5, 3, 132, 58, 135, 60, 60, 135, 2, 6.67971
336, 1, wb, attraction, a-b-da, 5, 1, 5, 3, 132, 58, 135, 60, 60, 135, 3, 0.529612
336, 1, wb, attraction, a-b-da, 2, 1, 5, 4, 135, 60, 60, 135, 134, 59, 3, 1.46603
336, 1, wb, attraction, a-b-da, 2, 1, 5, 4, 135, 60, 60, 135, 134, 59, 1, 1.16634
336, 1, wb, attraction, a-b-da, 9, 3, 5, 5, 186, 114, 195, 120, 120, 195, 1, 2.74118
336, 1, wb, attraction, a-b-da, 9, 3, 5, 5, 186, 114, 195, 120, 120, 195, 3, 0.821698
336, 1, wb, filler, NA, 999, 999, 5, 6, 142, 110, 165, 166, 174, 165, 1, 0.86659
336, 1, wb, filler, NA, 999, 999, 5, 6, 142, 110, 165, 166, 174, 165, 3, 0.855016
336, 1, wb, attraction, a-b-db, 14, 2, 5, 7, 165, 90, 83, 153, 90, 165, 2, 3.82677
336, 1, wb, attraction, a-b-db, 14, 2, 5, 7, 165, 90, 83, 153, 90, 165, 1, 1.19944
336, 1, wb, attraction, a-b-db, 5, 3, 5, 8, 117, 190, 120, 195, 195, 120, 1, 2.88513
336, 1, wb, attraction, a-b-db, 5, 3, 5, 8, 117, 190, 120, 195, 195, 120, 2, 0.712244
336, 1, wb, attraction, a-b-db, 2, 1, 5, 9, 135, 60, 60, 135, 59, 134, 3, 2.24118
336, 1, wb, attraction, a-b-db, 2, 1, 5, 9, 135, 60, 60, 135, 59, 134, 1, 0.917819
336, 1, wb, filler, NA, 999, 999, 5, 10, 112, 125, 134, 91, 97, 57, 3, 0.734793
336, 1, wb, filler, NA, 999, 999, 5, 10, 112, 125, 134, 91, 97, 57, 1, 5.04055
336, 1, wb, filler, NA, 999, 999, 5, 11, 161, 191, 155, 76, 118, 90, 3, 1.02763
336, 1, wb, filler, NA, 999, 999, 5, 11, 161, 191, 155, 76, 118, 90, 1, 0.617262
336, 1, wb, attraction, a-b-da, 9, 2, 5, 12, 165, 90, 157, 86, 90, 165, 2, 2.03825
336, 1, wb, attraction, a-b-da, 9, 2, 5, 12, 165, 90, 157, 86, 90, 165, 3, 0.667601
336, 1, wb, filler, NA, 999, 999, 5, 13, 110, 80, 171, 99, 98, 77, 3, 2.28701
336, 1, wb, filler, NA, 999, 999, 5, 13, 110, 80, 171, 99, 98, 77, 2, 0.577965
336, 1, wb, attraction, a-b-da, 5, 3, 5, 14, 120, 195, 190, 117, 195, 120, 2, 3.3524
336, 1, wb, attraction, a-b-da, 5, 3, 5, 14, 120, 195, 190, 117, 195, 120, 1, 0.968648
336, 1, wb, attraction, a-b-db, 14, 3, 5, 15, 111, 181, 195, 120, 120, 195, 1, 3.43172
336, 1, wb, attraction, a-b-db, 14, 3, 5, 15, 111, 181, 195, 120, 120, 195, 3, 0.748603
336, 1, wb, attraction, a-b-db, 14, 1, 5, 16, 56, 125, 60, 135, 135, 60, 1, 3.78821
336, 1, wb, attraction, a-b-db, 14, 1, 5, 16, 56, 125, 60, 135, 135, 60, 3, 0.811064
336, 1, wb, catch, NA, 999, 999, 5, 17, 125, 190, 87, 108, 96, 159, 2, 0.97609
336, 1, wb, catch, NA, 999, 999, 5, 17, 125, 190, 87, 108, 96, 159, 1, 0.56771
336, 1, wb, attraction, a-b-da, 14, 2, 5, 18, 153, 83, 165, 90, 90, 165, 1, 1.51879
336, 1, wb, attraction, a-b-da, 14, 2, 5, 18, 153, 83, 165, 90, 90, 165, 3, 0.449079
336, 1, wb, attraction, a-b-da, 14, 1, 5, 19, 135, 60, 125, 56, 60, 135, 2, 2.02083
336, 1, wb, attraction, a-b-da, 14, 1, 5, 19, 135, 60, 125, 56, 60, 135, 1, 0.434812
336, 1, wb, attraction, a-b-db, 5, 1, 5, 20, 58, 132, 135, 60, 60, 135, 1, 1.47129
336, 1, wb, attraction, a-b-db, 5, 1, 5, 20, 58, 132, 135, 60, 60, 135, 3, 0.899524
336, 1, wb, attraction, a-b-db, 9, 1, 5, 21, 60, 135, 57, 129, 135, 60, 2, 2.02108
336, 1, wb, attraction, a-b-db, 9, 1, 5, 21, 60, 135, 57, 129, 135, 60, 3, 1.33845
336, 1, wb, filler, NA, 999, 999, 5, 22, 102, 105, 70, 72, 88, 160, 2, 0.658561
336, 1, wb, filler, NA, 999, 999, 5, 22, 102, 105, 70, 72, 88, 160, 3, 1.14308
336, 1, wb, attraction, a-b-db, 2, 2, 5, 23, 165, 90, 89, 163, 90, 165, 3, 1.29462
336, 1, wb, attraction, a-b-db, 2, 2, 5, 23, 165, 90, 89, 163, 90, 165, 1, 0.769524
336, 1, wb, filler, NA, 999, 999, 5, 24, 63, 190, 171, 76, 101, 71, 3, 1.35263
336, 1, wb, filler, NA, 999, 999, 5, 24, 63, 190, 171, 76, 101, 71, 2, 1.93751
336, 1, wb, catch, NA, 999, 999, 5, 25, 146, 109, 155, 160, 91, 104, 3, 1.0095
336, 1, wb, catch, NA, 999, 999, 5, 25, 146, 109, 155, 160, 91, 104, 2, 0.447831
336, 1, wb, attraction, a-b-da, 9, 1, 5, 26, 60, 135, 129, 57, 135, 60, 2, 1.99559
336, 1, wb, attraction, a-b-da, 9, 1, 5, 26, 60, 135, 129, 57, 135, 60, 1, 0.658293
336, 1, wb, attraction, a-b-db, 2, 3, 5, 27, 195, 120, 119, 193, 120, 195, 3, 2.02136
336, 1, wb, attraction, a-b-db, 2, 3, 5, 27, 195, 120, 119, 193, 120, 195, 1, 0.635467
336, 1, wb, attraction, a-b-db, 5, 2, 5, 28, 88, 161, 165, 90, 90, 165, 3, 1.20785
336, 1, wb, attraction, a-b-db, 5, 2, 5, 28, 88, 161, 165, 90, 90, 165, 2, 0.397989
336, 1, wb, filler, NA, 999, 999, 5, 29, 172, 124, 152, 191, 159, 144, 3, 1.22789
336, 1, wb, filler, NA, 999, 999, 5, 29, 172, 124, 152, 191, 159, 144, 2, 0.409609
336, 1, wb, filler, NA, 999, 999, 5, 30, 135, 183, 99, 122, 171, 103, 2, 1.01459
336, 1, wb, filler, NA, 999, 999, 5, 30, 135, 183, 99, 122, 171, 103, 1, 0.628859
336, 1, wb, attraction, a-b-da, 5, 2, 5, 31, 161, 88, 90, 165, 165, 90, 1, 1.6573
336, 1, wb, attraction, a-b-da, 5, 2, 5, 31, 161, 88, 90, 165, 165, 90, 3, 0.5894
336, 1, wb, attraction, a-b-db, 9, 2, 5, 32, 86, 157, 165, 90, 90, 165, 1, 1.32389
336, 1, wb, attraction, a-b-db, 9, 2, 5, 32, 86, 157, 165, 90, 90, 165, 2, 0.38946
336, 1, wb, filler, NA, 999, 999, 5, 33, 139, 83, 141, 136, 92, 138, 3, 0.923994
336, 1, wb, filler, NA, 999, 999, 5, 33, 139, 83, 141, 136, 92, 138, 2, 0.469585
336, 1, wb, attraction, a-b-da, 2, 2, 5, 34, 165, 90, 163, 89, 90, 165, 3, 1.57668
336, 1, wb, attraction, a-b-da, 2, 2, 5, 34, 165, 90, 163, 89, 90, 165, 2, 1.12027
336, 1, wb, attraction, a-b-da, 2, 3, 5, 35, 120, 195, 193, 119, 195, 120, 3, 1.53716
336, 1, wb, attraction, a-b-da, 2, 3, 5, 35, 120, 195, 193, 119, 195, 120, 2, 0.562756
336, 1, wb, catch, NA, 999, 999, 5, 36, 102, 93, 98, 157, 135, 180, 1, 1.60984
336, 1, wb, catch, NA, 999, 999, 5, 36, 102, 93, 98, 157, 135, 180, 3, 0.495878
336, 1, wb, attraction, a-b-db, 9, 3, 5, 37, 114, 186, 120, 195, 195, 120, 1, 1.94567
336, 1, wb, attraction, a-b-db, 9, 3, 5, 37, 114, 186, 120, 195, 195, 120, 2, 0.450337
336, 1, wb, attraction, a-b-da, 2, 3, 6, 1, 195, 120, 193, 119, 120, 195, 3, 2.88615
336, 1, wb, attraction, a-b-da, 2, 3, 6, 1, 195, 120, 193, 119, 120, 195, 1, 0.889333
336, 1, wb, attraction, a-b-da, 5, 2, 6, 2, 90, 165, 161, 88, 165, 90, 2, 1.26752
336, 1, wb, attraction, a-b-da, 5, 2, 6, 2, 90, 165, 161, 88, 165, 90, 3, 0.527766
336, 1, wb, attraction, a-b-db, 14, 1, 6, 3, 60, 135, 135, 60, 56, 125, 3, 2.6483
336, 1, wb, attraction, a-b-db, 14, 1, 6, 3, 60, 135, 135, 60, 56, 125, 2, 0.55685
336, 1, wb, attraction, a-b-da, 5, 3, 6, 4, 190, 117, 120, 195, 195, 120, 3, 1.57181
336, 1, wb, attraction, a-b-da, 5, 3, 6, 4, 190, 117, 120, 195, 195, 120, 2, 0.683344
336, 1, wb, attraction, a-b-da, 5, 1, 6, 5, 135, 60, 132, 58, 60, 135, 3, 2.18974
336, 1, wb, attraction, a-b-da, 5, 1, 6, 5, 135, 60, 132, 58, 60, 135, 1, 0.436324
336, 1, wb, attraction, a-b-db, 2, 1, 6, 6, 59, 134, 60, 135, 135, 60, 2, 2.0248
336, 1, wb, attraction, a-b-db, 2, 1, 6, 6, 59, 134, 60, 135, 135, 60, 3, 0.78212
336, 1, wb, attraction, a-b-db, 2, 2, 6, 7, 89, 163, 165, 90, 90, 165, 3, 2.0125
336, 1, wb, attraction, a-b-db, 2, 2, 6, 7, 89, 163, 165, 90, 90, 165, 1, 0.554497
336, 1, wb, filler, NA, 999, 999, 6, 8, 91, 166, 132, 160, 106, 98, 3, 1.11423
336, 1, wb, filler, NA, 999, 999, 6, 8, 91, 166, 132, 160, 106, 98, 2, 0.604548
336, 1, wb, attraction, a-b-db, 14, 3, 6, 9, 195, 120, 120, 195, 111, 181, 3, 1.61835
336, 1, wb, attraction, a-b-db, 14, 3, 6, 9, 195, 120, 120, 195, 111, 181, 2, 0.464466
336, 1, wb, catch, NA, 999, 999, 6, 10, 153, 162, 113, 142, 107, 88, 3, 0.947588
336, 1, wb, catch, NA, 999, 999, 6, 10, 153, 162, 113, 142, 107, 88, 1, 0.436679
336, 1, wb, attraction, a-b-db, 2, 3, 6, 11, 120, 195, 119, 193, 195, 120, 3, 3.04124
336, 1, wb, attraction, a-b-db, 2, 3, 6, 11, 120, 195, 119, 193, 195, 120, 1, 0.829543
336, 1, wb, filler, NA, 999, 999, 6, 12, 125, 153, 83, 141, 165, 159, 2, 1.26594
336, 1, wb, filler, NA, 999, 999, 6, 12, 125, 153, 83, 141, 165, 159, 3, 0.902079
336, 1, wb, attraction, a-b-db, 14, 2, 6, 13, 90, 165, 83, 153, 165, 90, 2, 1.87981
336, 1, wb, attraction, a-b-db, 14, 2, 6, 13, 90, 165, 83, 153, 165, 90, 3, 0.635209
336, 1, wb, catch, NA, 999, 999, 6, 14, 176, 139, 80, 115, 146, 109, 2, 0.791606
336, 1, wb, catch, NA, 999, 999, 6, 14, 176, 139, 80, 115, 146, 109, 1, 0.446573
336, 1, wb, attraction, a-b-db, 5, 2, 6, 15, 90, 165, 88, 161, 165, 90, 3, 1.90643
336, 1, wb, attraction, a-b-db, 5, 2, 6, 15, 90, 165, 88, 161, 165, 90, 1, 0.3564
336, 1, wb, attraction, a-b-da, 2, 1, 6, 16, 60, 135, 135, 60, 134, 59, 3, 2.41229
336, 1, wb, attraction, a-b-da, 2, 1, 6, 16, 60, 135, 135, 60, 134, 59, 1, 2.49807
336, 1, wb, catch, NA, 999, 999, 6, 17, 64, 131, 165, 90, 184, 131, 1, 0.835346
336, 1, wb, catch, NA, 999, 999, 6, 17, 64, 131, 165, 90, 184, 131, 3, 0.864986
336, 1, wb, attraction, a-b-db, 9, 1, 6, 18, 135, 60, 57, 129, 60, 135, 2, 2.27601
336, 1, wb, attraction, a-b-db, 9, 1, 6, 18, 135, 60, 57, 129, 60, 135, 1, 0.767301
336, 1, wb, attraction, a-b-da, 9, 3, 6, 19, 195, 120, 186, 114, 120, 195, 2, 2.24624
336, 1, wb, attraction, a-b-da, 9, 3, 6, 19, 195, 120, 186, 114, 120, 195, 3, 0.819015
336, 1, wb, attraction, a-b-da, 14, 3, 6, 20, 195, 120, 120, 195, 181, 111, 3, 1.40794
336, 1, wb, attraction, a-b-da, 14, 3, 6, 20, 195, 120, 120, 195, 181, 111, 2, 0.678131
336, 1, wb, attraction, a-b-db, 5, 1, 6, 21, 135, 60, 58, 132, 60, 135, 1, 3.79246
336, 1, wb, attraction, a-b-db, 5, 1, 6, 21, 135, 60, 58, 132, 60, 135, 3, 0.430523
336, 1, wb, attraction, a-b-da, 14, 1, 6, 22, 125, 56, 135, 60, 60, 135, 3, 3.39513
336, 1, wb, attraction, a-b-da, 14, 1, 6, 22, 125, 56, 135, 60, 60, 135, 2, 0.665414
336, 1, wb, filler, NA, 999, 999, 6, 23, 72, 166, 143, 141, 61, 161, 3, 1.61245
336, 1, wb, filler, NA, 999, 999, 6, 23, 72, 166, 143, 141, 61, 161, 2, 0.450527
336, 1, wb, filler, NA, 999, 999, 6, 24, 168, 185, 118, 195, 85, 138, 3, 1.01427
336, 1, wb, filler, NA, 999, 999, 6, 24, 168, 185, 118, 195, 85, 138, 1, 0.636699
336, 1, wb, attraction, a-b-da, 2, 2, 6, 25, 90, 165, 163, 89, 165, 90, 3, 3.29708
336, 1, wb, attraction, a-b-da, 2, 2, 6, 25, 90, 165, 163, 89, 165, 90, 1, 0.915332
336, 1, wb, attraction, a-b-da, 9, 2, 6, 26, 157, 86, 90, 165, 165, 90, 1, 2.41237
336, 1, wb, attraction, a-b-da, 9, 2, 6, 26, 157, 86, 90, 165, 165, 90, 2, 2.15422
336, 1, wb, attraction, a-b-da, 9, 1, 6, 27, 129, 57, 135, 60, 60, 135, 2, 2.10542
336, 1, wb, attraction, a-b-da, 9, 1, 6, 27, 129, 57, 135, 60, 60, 135, 1, 0.611641
336, 1, wb, attraction, a-b-db, 9, 2, 6, 28, 165, 90, 86, 157, 90, 165, 2, 1.38447
336, 1, wb, attraction, a-b-db, 9, 2, 6, 28, 165, 90, 86, 157, 90, 165, 1, 0.880096
336, 1, wb, attraction, a-b-da, 14, 2, 6, 29, 90, 165, 165, 90, 153, 83, 3, 1.42649
336, 1, wb, attraction, a-b-da, 14, 2, 6, 29, 90, 165, 165, 90, 153, 83, 1, 0.647938
336, 1, wb, filler, NA, 999, 999, 6, 30, 166, 119, 59, 66, 138, 122, 2, 0.779813
336, 1, wb, filler, NA, 999, 999, 6, 30, 166, 119, 59, 66, 138, 122, 1, 1.02737
336, 1, wb, attraction, a-b-db, 9, 3, 6, 31, 114, 186, 120, 195, 195, 120, 1, 5.30376
336, 1, wb, attraction, a-b-db, 9, 3, 6, 31, 114, 186, 120, 195, 195, 120, 2, 0.377315
336, 1, wb, attraction, a-b-db, 5, 3, 6, 32, 120, 195, 117, 190, 195, 120, 3, 5.85591
336, 1, wb, attraction, a-b-db, 5, 3, 6, 32, 120, 195, 117, 190, 195, 120, 1, 0.355355
336, 1, wb, filler, NA, 999, 999, 6, 33, 186, 85, 137, 180, 121, 148, 1, 1.89919
336, 1, wb, filler, NA, 999, 999, 6, 33, 186, 85, 137, 180, 121, 148, 2, 0.989913
336, 1, wb, filler, NA, 999, 999, 6, 34, 94, 70, 187, 59, 81, 168, 1, 14.7882
336, 1, wb, filler, NA, 999, 999, 6, 34, 94, 70, 187, 59, 81, 168, 3, 0.46353
336, 1, wb, filler, NA, 999, 999, 6, 35, 131, 67, 143, 143, 109, 110, 1, 1.54656
336, 1, wb, filler, NA, 999, 999, 6, 35, 131, 67, 143, 143, 109, 110, 2, 0.523535
336, 1, wb, filler, NA, 999, 999, 6, 36, 58, 186, 130, 181, 159, 159, 1, 1.4999
336, 1, wb, filler, NA, 999, 999, 6, 36, 58, 186, 130, 181, 159, 159, 3, 0.902796
336, 1, wb, filler, NA, 999, 999, 6, 37, 104, 89, 155, 57, 155, 84, 1, 4.07243
336, 1, wb, filler, NA, 999, 999, 6, 37, 104, 89, 155, 57, 155, 84, 3, 0.37924
336, 1, wb, attraction, a-b-db, 14, 1, 7, 1, 56, 125, 60, 135, 135, 60, 1, 2.00961
336, 1, wb, attraction, a-b-db, 14, 1, 7, 1, 56, 125, 60, 135, 135, 60, 2, 0.447754
336, 1, wb, filler, NA, 999, 999, 7, 2, 57, 120, 105, 186, 95, 131, 1, 1.09941
336, 1, wb, filler, NA, 999, 999, 7, 2, 57, 120, 105, 186, 95, 131, 2, 0.422369
336, 1, wb, catch, NA, 999, 999, 7, 3, 188, 127, 106, 149, 121, 74, 3, 1.09957
336, 1, wb, catch, NA, 999, 999, 7, 3, 188, 127, 106, 149, 121, 74, 1, 0.486554
336, 1, wb, attraction, a-b-db, 9, 3, 7, 4, 114, 186, 195, 120, 120, 195, 1, 3.92101
336, 1, wb, attraction, a-b-db, 9, 3, 7, 4, 114, 186, 195, 120, 120, 195, 2, 0.45034
336, 1, wb, attraction, a-b-da, 5, 3, 7, 5, 190, 117, 120, 195, 195, 120, 1, 40.8541
336, 1, wb, attraction, a-b-da, 5, 3, 7, 5, 190, 117, 120, 195, 195, 120, 2, 0.702885
336, 1, wb, attraction, a-b-db, 9, 1, 7, 6, 60, 135, 135, 60, 57, 129, 2, 2.24846
336, 1, wb, attraction, a-b-db, 9, 1, 7, 6, 60, 135, 135, 60, 57, 129, 1, 0.533084
336, 1, wb, attraction, a-b-db, 2, 3, 7, 7, 119, 193, 120, 195, 195, 120, 3, 3.31746
336, 1, wb, attraction, a-b-db, 2, 3, 7, 7, 119, 193, 120, 195, 195, 120, 2, 0.487082
336, 1, wb, attraction, a-b-da, 14, 3, 7, 8, 120, 195, 181, 111, 195, 120, 2, 1.62558
336, 1, wb, attraction, a-b-da, 14, 3, 7, 8, 120, 195, 181, 111, 195, 120, 1, 0.75122
336, 1, wb, attraction, a-b-db, 14, 2, 7, 9, 83, 153, 165, 90, 90, 165, 1, 1.54269
336, 1, wb, attraction, a-b-db, 14, 2, 7, 9, 83, 153, 165, 90, 90, 165, 2, 0.783517
336, 1, wb, filler, NA, 999, 999, 7, 10, 180, 182, 81, 86, 171, 174, 2, 0.989873
336, 1, wb, filler, NA, 999, 999, 7, 10, 180, 182, 81, 86, 171, 174, 1, 0.516889
336, 1, wb, filler, NA, 999, 999, 7, 11, 102, 185, 179, 182, 163, 96, 3, 0.981956
336, 1, wb, filler, NA, 999, 999, 7, 11, 102, 185, 179, 182, 163, 96, 2, 0.357749
336, 1, wb, attraction, a-b-db, 5, 1, 7, 12, 58, 132, 60, 135, 135, 60, 3, 2.30887
336, 1, wb, attraction, a-b-db, 5, 1, 7, 12, 58, 132, 60, 135, 135, 60, 2, 0.4307
336, 1, wb, attraction, a-b-db, 5, 2, 7, 13, 165, 90, 88, 161, 90, 165, 3, 3.9953
336, 1, wb, attraction, a-b-db, 5, 2, 7, 13, 165, 90, 88, 161, 90, 165, 2, 0.409271
336, 1, wb, filler, NA, 999, 999, 7, 14, 125, 147, 127, 95, 124, 179, 2, 0.94246
336, 1, wb, filler, NA, 999, 999, 7, 14, 125, 147, 127, 95, 124, 179, 3, 0.391406
336, 1, wb, attraction, a-b-db, 9, 2, 7, 15, 86, 157, 90, 165, 165, 90, 2, 1.97332
336, 1, wb, attraction, a-b-db, 9, 2, 7, 15, 86, 157, 90, 165, 165, 90, 3, 0.556597
336, 1, wb, filler, NA, 999, 999, 7, 16, 106, 126, 191, 136, 175, 175, 1, 0.635686
336, 1, wb, filler, NA, 999, 999, 7, 16, 106, 126, 191, 136, 175, 175, 3, 0.38546
336, 1, wb, attraction, a-b-db, 2, 2, 7, 17, 89, 163, 165, 90, 90, 165, 3, 2.52808
336, 1, wb, attraction, a-b-db, 2, 2, 7, 17, 89, 163, 165, 90, 90, 165, 2, 0.289203
336, 1, wb, attraction, a-b-da, 9, 3, 7, 18, 120, 195, 186, 114, 195, 120, 3, 0.923694
336, 1, wb, attraction, a-b-da, 9, 3, 7, 18, 120, 195, 186, 114, 195, 120, 1, 0.381322
336, 1, wb, attraction, a-b-da, 9, 1, 7, 19, 129, 57, 135, 60, 60, 135, 3, 1.25987
336, 1, wb, attraction, a-b-da, 9, 1, 7, 19, 129, 57, 135, 60, 60, 135, 2, 0.912098
336, 1, wb, attraction, a-b-da, 5, 2, 7, 20, 165, 90, 161, 88, 90, 165, 3, 1.98511
336, 1, wb, attraction, a-b-da, 5, 2, 7, 20, 165, 90, 161, 88, 90, 165, 2, 0.392465
336, 1, wb, catch, NA, 999, 999, 7, 21, 171, 144, 100, 155, 100, 95, 3, 0.774243
336, 1, wb, catch, NA, 999, 999, 7, 21, 171, 144, 100, 155, 100, 95, 1, 0.341935
336, 1, wb, filler, NA, 999, 999, 7, 22, 193, 74, 156, 111, 131, 163, 1, 1.03775
336, 1, wb, filler, NA, 999, 999, 7, 22, 193, 74, 156, 111, 131, 163, 3, 0.563517
336, 1, wb, attraction, a-b-da, 2, 3, 7, 23, 193, 119, 195, 120, 120, 195, 3, 2.9546
336, 1, wb, attraction, a-b-da, 2, 3, 7, 23, 193, 119, 195, 120, 120, 195, 2, 0.274909
336, 1, wb, attraction, a-b-da, 14, 2, 7, 24, 165, 90, 90, 165, 153, 83, 3, 2.08556
336, 1, wb, attraction, a-b-da, 14, 2, 7, 24, 165, 90, 90, 165, 153, 83, 2, 0.368895
336, 1, wb, attraction, a-b-db, 5, 3, 7, 25, 117, 190, 195, 120, 120, 195, 3, 1.23207
336, 1, wb, attraction, a-b-db, 5, 3, 7, 25, 117, 190, 195, 120, 120, 195, 2, 0.613542
336, 1, wb, catch, NA, 999, 999, 7, 26, 192, 123, 159, 96, 114, 81, 3, 17.7066
336, 1, wb, catch, NA, 999, 999, 7, 26, 192, 123, 159, 96, 114, 81, 1, 0.61644
336, 1, wb, attraction, a-b-da, 9, 2, 7, 27, 165, 90, 90, 165, 157, 86, 3, 49.4455
336, 1, wb, attraction, a-b-da, 9, 2, 7, 27, 165, 90, 90, 165, 157, 86, 2, 0.916064
336, 1, wb, attraction, a-b-da, 2, 2, 7, 28, 165, 90, 163, 89, 90, 165, 2, 32.6291
336, 1, wb, attraction, a-b-da, 2, 2, 7, 28, 165, 90, 163, 89, 90, 165, 3, 0.513478
336, 1, wb, filler, NA, 999, 999, 7, 29, 92, 85, 121, 132, 188, 154, 1, 0.778518
336, 1, wb, filler, NA, 999, 999, 7, 29, 92, 85, 121, 132, 188, 154, 3, 1.85028
336, 1, wb, filler, NA, 999, 999, 7, 30, 138, 84, 84, 74, 123, 140, 2, 4.67762
336, 1, wb, filler, NA, 999, 999, 7, 30, 138, 84, 84, 74, 123, 140, 3, 0.43217
336, 1, wb, attraction, a-b-da, 14, 1, 7, 31, 125, 56, 135, 60, 60, 135, 1, 1.51664
336, 1, wb, attraction, a-b-da, 14, 1, 7, 31, 125, 56, 135, 60, 60, 135, 3, 0.686798
336, 1, wb, filler, NA, 999, 999, 7, 32, 64, 132, 182, 137, 186, 120, 1, 0.953222
336, 1, wb, filler, NA, 999, 999, 7, 32, 64, 132, 182, 137, 186, 120, 2, 0.4423
336, 1, wb, attraction, a-b-da, 2, 1, 7, 33, 134, 59, 60, 135, 135, 60, 2, 6.5741
336, 1, wb, attraction, a-b-da, 2, 1, 7, 33, 134, 59, 60, 135, 135, 60, 1, 0.49194
336, 1, wb, attraction, a-b-db, 2, 1, 7, 34, 60, 135, 135, 60, 59, 134, 3, 1.58978
336, 1, wb, attraction, a-b-db, 2, 1, 7, 34, 60, 135, 135, 60, 59, 134, 1, 0.524586
336, 1, wb, attraction, a-b-da, 5, 1, 7, 35, 60, 135, 132, 58, 135, 60, 3, 1.30097
336, 1, wb, attraction, a-b-da, 5, 1, 7, 35, 60, 135, 132, 58, 135, 60, 1, 0.775829
336, 1, wb, filler, NA, 999, 999, 7, 36, 153, 180, 161, 162, 120, 89, 3, 0.854282
336, 1, wb, filler, NA, 999, 999, 7, 36, 153, 180, 161, 162, 120, 89, 1, 2.07534
336, 1, wb, attraction, a-b-db, 14, 3, 7, 37, 111, 181, 195, 120, 120, 195, 1, 2.26916
336, 1, wb, attraction, a-b-db, 14, 3, 7, 37, 111, 181, 195, 120, 120, 195, 2, 0.369218
336, 1, wb, attraction, a-b-db, 2, 1, 8, 1, 135, 60, 59, 134, 60, 135, 3, 0.96042
336, 1, wb, attraction, a-b-db, 2, 1, 8, 1, 135, 60, 59, 134, 60, 135, 1, 0.552726
336, 1, wb, attraction, a-b-da, 14, 2, 8, 2, 153, 83, 165, 90, 90, 165, 1, 1.95246
336, 1, wb, attraction, a-b-da, 14, 2, 8, 2, 153, 83, 165, 90, 90, 165, 3, 0.865236
336, 1, wb, attraction, a-b-db, 5, 2, 8, 3, 90, 165, 88, 161, 165, 90, 2, 1.03622
336, 1, wb, attraction, a-b-db, 5, 2, 8, 3, 90, 165, 88, 161, 165, 90, 3, 0.5299
336, 1, wb, filler, NA, 999, 999, 8, 4, 166, 117, 109, 154, 114, 63, 3, 1.6023
336, 1, wb, filler, NA, 999, 999, 8, 4, 166, 117, 109, 154, 114, 63, 1, 0.785062
336, 1, wb, attraction, a-b-da, 5, 1, 8, 5, 132, 58, 60, 135, 135, 60, 2, 1.27938
336, 1, wb, attraction, a-b-da, 5, 1, 8, 5, 132, 58, 60, 135, 135, 60, 1, 0.434936
336, 1, wb, attraction, a-b-db, 14, 1, 8, 6, 135, 60, 60, 135, 56, 125, 3, 0.967501
336, 1, wb, attraction, a-b-db, 14, 1, 8, 6, 135, 60, 60, 135, 56, 125, 1, 0.471753
336, 1, wb, attraction, a-b-da, 9, 3, 8, 7, 120, 195, 195, 120, 186, 114, 3, 0.730894
336, 1, wb, attraction, a-b-da, 9, 3, 8, 7, 120, 195, 195, 120, 186, 114, 2, 0.420725
336, 1, wb, filler, NA, 999, 999, 8, 8, 68, 135, 144, 130, 63, 80, 3, 0.745748
336, 1, wb, filler, NA, 999, 999, 8, 8, 68, 135, 144, 130, 63, 80, 2, 0.29899
336, 1, wb, attraction, a-b-da, 5, 2, 8, 9, 165, 90, 90, 165, 161, 88, 2, 1.06866
336, 1, wb, attraction, a-b-da, 5, 2, 8, 9, 165, 90, 90, 165, 161, 88, 3, 0.657092
336, 1, wb, attraction, a-b-db, 2, 3, 8, 10, 195, 120, 119, 193, 120, 195, 2, 3.78019
336, 1, wb, attraction, a-b-db, 2, 3, 8, 10, 195, 120, 119, 193, 120, 195, 1, 0.442965
336, 1, wb, attraction, a-b-da, 14, 3, 8, 11, 181, 111, 195, 120, 120, 195, 3, 3.67074
336, 1, wb, attraction, a-b-da, 14, 3, 8, 11, 181, 111, 195, 120, 120, 195, 2, 0.450211
336, 1, wb, attraction, a-b-db, 2, 2, 8, 12, 89, 163, 90, 165, 165, 90, 1, 1.51802
336, 1, wb, attraction, a-b-db, 2, 2, 8, 12, 89, 163, 90, 165, 165, 90, 3, 1.19214
336, 1, wb, attraction, a-b-da, 2, 1, 8, 13, 135, 60, 60, 135, 134, 59, 3, 2.06969
336, 1, wb, attraction, a-b-da, 2, 1, 8, 13, 135, 60, 60, 135, 134, 59, 1, 1.8018
336, 1, wb, attraction, a-b-da, 5, 3, 8, 14, 190, 117, 120, 195, 195, 120, 3, 1.1431
336, 1, wb, attraction, a-b-da, 5, 3, 8, 14, 190, 117, 120, 195, 195, 120, 2, 1.20812
336, 1, wb, attraction, a-b-db, 9, 3, 8, 15, 114, 186, 120, 195, 195, 120, 1, 1.39698
336, 1, wb, attraction, a-b-db, 9, 3, 8, 15, 114, 186, 120, 195, 195, 120, 3, 1.05183
336, 1, wb, filler, NA, 999, 999, 8, 16, 167, 130, 98, 144, 160, 124, 2, 0.783439
336, 1, wb, filler, NA, 999, 999, 8, 16, 167, 130, 98, 144, 160, 124, 1, 0.399411
336, 1, wb, attraction, a-b-da, 9, 2, 8, 17, 165, 90, 90, 165, 157, 86, 3, 1.18899
336, 1, wb, attraction, a-b-da, 9, 2, 8, 17, 165, 90, 90, 165, 157, 86, 2, 0.355883
336, 1, wb, attraction, a-b-da, 2, 2, 8, 18, 163, 89, 165, 90, 90, 165, 3, 1.2118
336, 1, wb, attraction, a-b-da, 2, 2, 8, 18, 163, 89, 165, 90, 90, 165, 2, 0.426047
336, 1, wb, filler, NA, 999, 999, 8, 19, 76, 94, 145, 56, 76, 77, 3, 2.09449
336, 1, wb, filler, NA, 999, 999, 8, 19, 76, 94, 145, 56, 76, 77, 2, 0.593159
336, 1, wb, filler, NA, 999, 999, 8, 20, 172, 105, 190, 189, 132, 164, 1, 1.00704
336, 1, wb, filler, NA, 999, 999, 8, 20, 172, 105, 190, 189, 132, 164, 2, 1.46925
336, 1, wb, catch, NA, 999, 999, 8, 21, 109, 146, 149, 166, 78, 117, 3, 0.752068
336, 1, wb, catch, NA, 999, 999, 8, 21, 109, 146, 149, 166, 78, 117, 2, 0.329168
336, 1, wb, filler, NA, 999, 999, 8, 22, 61, 102, 110, 167, 77, 111, 1, 0.769552
336, 1, wb, filler, NA, 999, 999, 8, 22, 61, 102, 110, 167, 77, 111, 2, 0.353978
336, 1, wb, attraction, a-b-db, 14, 2, 8, 23, 90, 165, 83, 153, 165, 90, 2, 1.18583
336, 1, wb, attraction, a-b-db, 14, 2, 8, 23, 90, 165, 83, 153, 165, 90, 3, 0.345441
336, 1, wb, attraction, a-b-da, 9, 1, 8, 24, 135, 60, 129, 57, 60, 135, 2, 1.26547
336, 1, wb, attraction, a-b-da, 9, 1, 8, 24, 135, 60, 129, 57, 60, 135, 3, 0.517497
336, 1, wb, attraction, a-b-db, 5, 3, 8, 25, 120, 195, 195, 120, 117, 190, 3, 0.910655
336, 1, wb, attraction, a-b-db, 5, 3, 8, 25, 120, 195, 195, 120, 117, 190, 2, 0.673155
336, 1, wb, filler, NA, 999, 999, 8, 26, 104, 95, 69, 189, 66, 141, 3, 1.46008
336, 1, wb, filler, NA, 999, 999, 8, 26, 104, 95, 69, 189, 66, 141, 2, 0.888341
336, 1, wb, attraction, a-b-da, 14, 1, 8, 27, 60, 135, 125, 56, 135, 60, 2, 6.88272
336, 1, wb, attraction, a-b-da, 14, 1, 8, 27, 60, 135, 125, 56, 135, 60, 3, 0.884401
336, 1, wb, catch, NA, 999, 999, 8, 28, 177, 138, 142, 113, 117, 78, 3, 0.678717
336, 1, wb, catch, NA, 999, 999, 8, 28, 177, 138, 142, 113, 117, 78, 1, 0.314495
336, 1, wb, filler, NA, 999, 999, 8, 29, 121, 138, 163, 103, 96, 174, 2, 2.21168
336, 1, wb, filler, NA, 999, 999, 8, 29, 121, 138, 163, 103, 96, 174, 3, 0.721617
336, 1, wb, attraction, a-b-db, 9, 2, 8, 30, 90, 165, 165, 90, 86, 157, 3, 1.25068
336, 1, wb, attraction, a-b-db, 9, 2, 8, 30, 90, 165, 165, 90, 86, 157, 2, 0.407614
336, 1, wb, filler, NA, 999, 999, 8, 31, 66, 108, 162, 105, 129, 95, 1, 0.700732
336, 1, wb, filler, NA, 999, 999, 8, 31, 66, 108, 162, 105, 129, 95, 2, 0.567862
336, 1, wb, attraction, a-b-db, 9, 1, 8, 32, 57, 129, 60, 135, 135, 60, 3, 2.07093
336, 1, wb, attraction, a-b-db, 9, 1, 8, 32, 57, 129, 60, 135, 135, 60, 2, 0.458896
336, 1, wb, attraction, a-b-db, 14, 3, 8, 33, 111, 181, 195, 120, 120, 195, 1, 1.44613
336, 1, wb, attraction, a-b-db, 14, 3, 8, 33, 111, 181, 195, 120, 120, 195, 2, 0.354909
336, 1, wb, attraction, a-b-da, 2, 3, 8, 34, 193, 119, 195, 120, 120, 195, 1, 1.8027
336, 1, wb, attraction, a-b-da, 2, 3, 8, 34, 193, 119, 195, 120, 120, 195, 3, 0.441469
336, 1, wb, attraction, a-b-db, 5, 1, 8, 35, 135, 60, 60, 135, 58, 132, 3, 1.45334
336, 1, wb, attraction, a-b-db, 5, 1, 8, 35, 135, 60, 60, 135, 58, 132, 1, 0.610121
336, 1, wb, catch, NA, 999, 999, 8, 36, 93, 162, 179, 136, 120, 75, 3, 0.719271
336, 1, wb, catch, NA, 999, 999, 8, 36, 93, 162, 179, 136, 120, 75, 2, 0.32165
336, 1, wb, filler, NA, 999, 999, 8, 37, 80, 148, 68, 130, 163, 107, 2, 0.730905
336, 1, wb, filler, NA, 999, 999, 8, 37, 80, 148, 68, 130, 163, 107, 3, 0.420574
