sub_n, computer_n, bw_cond, effect, set, distance, diag, block_n, trial_n, h1, w1, h2, w2, h3, w3, choice, rt 
366\, 1, wb, practice, NA, 999, 999, 0, 1, 124, 186, 115, 116, 105, 89, 3, 4.05235
366\, 1, wb, practice, NA, 999, 999, 0, 1, 124, 186, 115, 116, 105, 89, 1, 2.27317
366\, 1, wb, practice, NA, 999, 999, 0, 2, 155, 69, 93, 71, 126, 120, 2, 3.40001
366\, 1, wb, practice, NA, 999, 999, 0, 2, 155, 69, 93, 71, 126, 120, 3, 1.36053
366\, 1, wb, practice, NA, 999, 999, 0, 3, 137, 74, 136, 121, 195, 126, 1, 1.92238
366\, 1, wb, practice, NA, 999, 999, 0, 3, 137, 74, 136, 121, 195, 126, 3, 1.34096
366\, 1, wb, attraction, a-b-da, 9, 1, 1, 1, 60, 135, 135, 60, 129, 57, 3, 5.03537
366\, 1, wb, attraction, a-b-da, 9, 1, 1, 1, 60, 135, 135, 60, 129, 57, 1, 1.47971
366\, 1, wb, attraction, a-b-da, 5, 1, 1, 2, 132, 58, 135, 60, 60, 135, 1, 2.82601
366\, 1, wb, attraction, a-b-da, 5, 1, 1, 2, 132, 58, 135, 60, 60, 135, 3, 1.71895
366\, 1, wb, attraction, a-b-db, 14, 2, 1, 3, 83, 153, 90, 165, 165, 90, 1, 4.96766
366\, 1, wb, attraction, a-b-db, 14, 2, 1, 3, 83, 153, 90, 165, 165, 90, 2, 1.2069
366\, 1, wb, filler, NA, 999, 999, 1, 4, 166, 95, 156, 194, 187, 78, 3, 2.01161
366\, 1, wb, filler, NA, 999, 999, 1, 4, 166, 95, 156, 194, 187, 78, 2, 0.937697
366\, 1, wb, attraction, a-b-da, 14, 2, 1, 5, 90, 165, 165, 90, 153, 83, 3, 2.68205
366\, 1, wb, attraction, a-b-da, 14, 2, 1, 5, 90, 165, 165, 90, 153, 83, 1, 1.09323
366\, 1, wb, filler, NA, 999, 999, 1, 6, 138, 63, 167, 79, 60, 114, 1, 3.01482
366\, 1, wb, filler, NA, 999, 999, 1, 6, 138, 63, 167, 79, 60, 114, 2, 1.23641
366\, 1, wb, filler, NA, 999, 999, 1, 7, 155, 182, 108, 145, 62, 179, 3, 4.18462
366\, 1, wb, filler, NA, 999, 999, 1, 7, 155, 182, 108, 145, 62, 179, 1, 1.14341
366\, 1, wb, catch, NA, 999, 999, 1, 8, 105, 150, 102, 93, 169, 146, 2, 1.73494
366\, 1, wb, catch, NA, 999, 999, 1, 8, 105, 150, 102, 93, 169, 146, 3, 0.880312
366\, 1, wb, filler, NA, 999, 999, 1, 9, 105, 84, 161, 88, 179, 103, 1, 1.28269
366\, 1, wb, filler, NA, 999, 999, 1, 9, 105, 84, 161, 88, 179, 103, 3, 0.814319
366\, 1, wb, attraction, a-b-da, 9, 3, 1, 10, 120, 195, 186, 114, 195, 120, 2, 3.27542
366\, 1, wb, attraction, a-b-da, 9, 3, 1, 10, 120, 195, 186, 114, 195, 120, 1, 0.526221
366\, 1, wb, attraction, a-b-db, 9, 2, 1, 11, 90, 165, 165, 90, 86, 157, 2, 3.51072
366\, 1, wb, attraction, a-b-db, 9, 2, 1, 11, 90, 165, 165, 90, 86, 157, 1, 0.648138
366\, 1, wb, attraction, a-b-da, 5, 3, 1, 12, 190, 117, 120, 195, 195, 120, 1, 4.58799
366\, 1, wb, attraction, a-b-da, 5, 3, 1, 12, 190, 117, 120, 195, 195, 120, 2, 0.81859
366\, 1, wb, attraction, a-b-db, 14, 1, 1, 13, 60, 135, 56, 125, 135, 60, 2, 4.2235
366\, 1, wb, attraction, a-b-db, 14, 1, 1, 13, 60, 135, 56, 125, 135, 60, 1, 1.9081
366\, 1, wb, attraction, a-b-db, 5, 1, 1, 14, 60, 135, 58, 132, 135, 60, 3, 4.30082
366\, 1, wb, attraction, a-b-db, 5, 1, 1, 14, 60, 135, 58, 132, 135, 60, 1, 0.518772
366\, 1, wb, filler, NA, 999, 999, 1, 15, 173, 161, 150, 170, 183, 139, 3, 5.52796
366\, 1, wb, filler, NA, 999, 999, 1, 15, 173, 161, 150, 170, 183, 139, 2, 0.88025
366\, 1, wb, attraction, a-b-da, 2, 3, 1, 16, 120, 195, 193, 119, 195, 120, 2, 3.45054
366\, 1, wb, attraction, a-b-da, 2, 3, 1, 16, 120, 195, 193, 119, 195, 120, 1, 0.462654
366\, 1, wb, attraction, a-b-db, 14, 3, 1, 17, 195, 120, 120, 195, 111, 181, 3, 2.83381
366\, 1, wb, attraction, a-b-db, 14, 3, 1, 17, 195, 120, 120, 195, 111, 181, 2, 0.446934
366\, 1, wb, attraction, a-b-da, 5, 2, 1, 18, 90, 165, 161, 88, 165, 90, 3, 4.69877
366\, 1, wb, attraction, a-b-da, 5, 2, 1, 18, 90, 165, 161, 88, 165, 90, 1, 0.372461
366\, 1, wb, filler, NA, 999, 999, 1, 19, 181, 69, 113, 61, 195, 129, 2, 1.49171
366\, 1, wb, filler, NA, 999, 999, 1, 19, 181, 69, 113, 61, 195, 129, 3, 0.51851
366\, 1, wb, filler, NA, 999, 999, 1, 20, 66, 118, 71, 163, 90, 188, 1, 1.12763
366\, 1, wb, filler, NA, 999, 999, 1, 20, 66, 118, 71, 163, 90, 188, 3, 0.473427
366\, 1, wb, attraction, a-b-da, 2, 2, 1, 21, 165, 90, 90, 165, 163, 89, 1, 4.31576
366\, 1, wb, attraction, a-b-da, 2, 2, 1, 21, 165, 90, 90, 165, 163, 89, 2, 0.349044
366\, 1, wb, catch, NA, 999, 999, 1, 22, 135, 180, 117, 78, 149, 106, 2, 0.99692
366\, 1, wb, catch, NA, 999, 999, 1, 22, 135, 180, 117, 78, 149, 106, 1, 0.339857
366\, 1, wb, catch, NA, 999, 999, 1, 23, 161, 154, 130, 125, 99, 96, 3, 1.13238
366\, 1, wb, catch, NA, 999, 999, 1, 23, 161, 154, 130, 125, 99, 96, 1, 0.430085
366\, 1, wb, attraction, a-b-da, 14, 3, 1, 24, 120, 195, 181, 111, 195, 120, 2, 1.80246
366\, 1, wb, attraction, a-b-da, 14, 3, 1, 24, 120, 195, 181, 111, 195, 120, 1, 0.513218
366\, 1, wb, filler, NA, 999, 999, 1, 25, 115, 108, 177, 118, 123, 94, 1, 1.41034
366\, 1, wb, filler, NA, 999, 999, 1, 25, 115, 108, 177, 118, 123, 94, 2, 0.368502
366\, 1, wb, attraction, a-b-db, 5, 3, 1, 26, 117, 190, 120, 195, 195, 120, 3, 4.93576
366\, 1, wb, attraction, a-b-db, 5, 3, 1, 26, 117, 190, 120, 195, 195, 120, 2, 0.344087
366\, 1, wb, attraction, a-b-db, 5, 2, 1, 27, 165, 90, 88, 161, 90, 165, 1, 3.75998
366\, 1, wb, attraction, a-b-db, 5, 2, 1, 27, 165, 90, 88, 161, 90, 165, 2, 0.999359
366\, 1, wb, attraction, a-b-db, 2, 2, 1, 28, 89, 163, 165, 90, 90, 165, 2, 2.14102
366\, 1, wb, attraction, a-b-db, 2, 2, 1, 28, 89, 163, 165, 90, 90, 165, 3, 0.333681
366\, 1, wb, attraction, a-b-da, 2, 1, 1, 29, 60, 135, 134, 59, 135, 60, 2, 6.40621
366\, 1, wb, attraction, a-b-da, 2, 1, 1, 29, 60, 135, 134, 59, 135, 60, 1, 0.403483
366\, 1, wb, attraction, a-b-db, 9, 1, 1, 30, 135, 60, 57, 129, 60, 135, 1, 3.38535
366\, 1, wb, attraction, a-b-db, 9, 1, 1, 30, 135, 60, 57, 129, 60, 135, 3, 0.760167
366\, 1, wb, attraction, a-b-da, 9, 2, 1, 31, 165, 90, 157, 86, 90, 165, 2, 2.79137
366\, 1, wb, attraction, a-b-da, 9, 2, 1, 31, 165, 90, 157, 86, 90, 165, 3, 0.621721
366\, 1, wb, attraction, a-b-da, 14, 1, 1, 32, 125, 56, 60, 135, 135, 60, 1, 1.86676
366\, 1, wb, attraction, a-b-da, 14, 1, 1, 32, 125, 56, 60, 135, 135, 60, 2, 0.350866
366\, 1, wb, attraction, a-b-db, 2, 3, 1, 33, 119, 193, 120, 195, 195, 120, 3, 4.63071
366\, 1, wb, attraction, a-b-db, 2, 3, 1, 33, 119, 193, 120, 195, 195, 120, 1, 0.563271
366\, 1, wb, attraction, a-b-db, 9, 3, 1, 34, 195, 120, 120, 195, 114, 186, 1, 2.1544
366\, 1, wb, attraction, a-b-db, 9, 3, 1, 34, 195, 120, 120, 195, 114, 186, 2, 0.451075
366\, 1, wb, filler, NA, 999, 999, 1, 35, 78, 195, 57, 105, 177, 139, 2, 0.974771
366\, 1, wb, filler, NA, 999, 999, 1, 35, 78, 195, 57, 105, 177, 139, 3, 0.422342
366\, 1, wb, filler, NA, 999, 999, 1, 36, 126, 159, 178, 112, 133, 143, 3, 2.14768
366\, 1, wb, filler, NA, 999, 999, 1, 36, 126, 159, 178, 112, 133, 143, 2, 0.956288
366\, 1, wb, attraction, a-b-db, 2, 1, 1, 37, 59, 134, 60, 135, 135, 60, 1, 1.65187
366\, 1, wb, attraction, a-b-db, 2, 1, 1, 37, 59, 134, 60, 135, 135, 60, 2, 0.880719
366\, 1, wb, attraction, a-b-db, 2, 1, 2, 1, 135, 60, 59, 134, 60, 135, 1, 2.13103
366\, 1, wb, attraction, a-b-db, 2, 1, 2, 1, 135, 60, 59, 134, 60, 135, 2, 0.988261
366\, 1, wb, filler, NA, 999, 999, 2, 2, 195, 190, 80, 166, 113, 96, 3, 1.02665
366\, 1, wb, filler, NA, 999, 999, 2, 2, 195, 190, 80, 166, 113, 96, 1, 0.368252
366\, 1, wb, catch, NA, 999, 999, 2, 3, 91, 164, 104, 91, 175, 140, 2, 1.16734
366\, 1, wb, catch, NA, 999, 999, 2, 3, 91, 164, 104, 91, 175, 140, 3, 0.415724
366\, 1, wb, filler, NA, 999, 999, 2, 4, 81, 59, 152, 71, 104, 191, 1, 0.740897
366\, 1, wb, filler, NA, 999, 999, 2, 4, 81, 59, 152, 71, 104, 191, 3, 0.533915
366\, 1, wb, filler, NA, 999, 999, 2, 5, 190, 171, 142, 127, 64, 58, 3, 0.70238
366\, 1, wb, filler, NA, 999, 999, 2, 5, 190, 171, 142, 127, 64, 58, 1, 0.39351
366\, 1, wb, attraction, a-b-da, 14, 2, 2, 6, 153, 83, 90, 165, 165, 90, 1, 3.03125
366\, 1, wb, attraction, a-b-da, 14, 2, 2, 6, 153, 83, 90, 165, 165, 90, 2, 0.620233
366\, 1, wb, catch, NA, 999, 999, 2, 7, 119, 136, 117, 78, 184, 131, 2, 2.81735
366\, 1, wb, catch, NA, 999, 999, 2, 7, 119, 136, 117, 78, 184, 131, 3, 0.679235
366\, 1, wb, attraction, a-b-db, 5, 3, 2, 8, 195, 120, 117, 190, 120, 195, 1, 4.06556
366\, 1, wb, attraction, a-b-db, 5, 3, 2, 8, 195, 120, 117, 190, 120, 195, 2, 0.333022
366\, 1, wb, attraction, a-b-da, 5, 1, 2, 9, 135, 60, 60, 135, 132, 58, 2, 2.03738
366\, 1, wb, attraction, a-b-da, 5, 1, 2, 9, 135, 60, 60, 135, 132, 58, 1, 2.65082
366\, 1, wb, attraction, a-b-db, 9, 2, 2, 10, 86, 157, 90, 165, 165, 90, 3, 1.96585
366\, 1, wb, attraction, a-b-db, 9, 2, 2, 10, 86, 157, 90, 165, 165, 90, 2, 0.373795
366\, 1, wb, filler, NA, 999, 999, 2, 11, 125, 88, 140, 115, 143, 158, 1, 0.876303
366\, 1, wb, filler, NA, 999, 999, 2, 11, 125, 88, 140, 115, 143, 158, 3, 0.384033
366\, 1, wb, filler, NA, 999, 999, 2, 12, 97, 89, 59, 109, 114, 139, 2, 1.27845
366\, 1, wb, filler, NA, 999, 999, 2, 12, 97, 89, 59, 109, 114, 139, 3, 0.458113
366\, 1, wb, attraction, a-b-da, 9, 2, 2, 13, 157, 86, 90, 165, 165, 90, 1, 2.53329
366\, 1, wb, attraction, a-b-da, 9, 2, 2, 13, 157, 86, 90, 165, 165, 90, 2, 0.470463
366\, 1, wb, attraction, a-b-db, 9, 3, 2, 14, 114, 186, 120, 195, 195, 120, 1, 2.03356
366\, 1, wb, attraction, a-b-db, 9, 3, 2, 14, 114, 186, 120, 195, 195, 120, 3, 0.398884
366\, 1, wb, attraction, a-b-db, 5, 1, 2, 15, 135, 60, 60, 135, 58, 132, 1, 3.69264
366\, 1, wb, attraction, a-b-db, 5, 1, 2, 15, 135, 60, 60, 135, 58, 132, 2, 0.470752
366\, 1, wb, attraction, a-b-db, 14, 2, 2, 16, 83, 153, 165, 90, 90, 165, 1, 1.77003
366\, 1, wb, attraction, a-b-db, 14, 2, 2, 16, 83, 153, 165, 90, 90, 165, 2, 0.506026
366\, 1, wb, filler, NA, 999, 999, 2, 17, 162, 66, 128, 115, 58, 134, 3, 1.11589
366\, 1, wb, filler, NA, 999, 999, 2, 17, 162, 66, 128, 115, 58, 134, 2, 0.502141
366\, 1, wb, attraction, a-b-da, 9, 1, 2, 18, 135, 60, 60, 135, 129, 57, 3, 2.19188
366\, 1, wb, attraction, a-b-da, 9, 1, 2, 18, 135, 60, 60, 135, 129, 57, 2, 0.470557
366\, 1, wb, attraction, a-b-da, 14, 3, 2, 19, 181, 111, 120, 195, 195, 120, 1, 2.66582
366\, 1, wb, attraction, a-b-da, 14, 3, 2, 19, 181, 111, 120, 195, 195, 120, 2, 0.429609
366\, 1, wb, attraction, a-b-db, 2, 2, 2, 20, 89, 163, 90, 165, 165, 90, 3, 3.61795
366\, 1, wb, attraction, a-b-db, 2, 2, 2, 20, 89, 163, 90, 165, 165, 90, 1, 0.551418
366\, 1, wb, attraction, a-b-db, 14, 3, 2, 21, 195, 120, 120, 195, 111, 181, 1, 2.74323
366\, 1, wb, attraction, a-b-db, 14, 3, 2, 21, 195, 120, 120, 195, 111, 181, 2, 0.407773
366\, 1, wb, attraction, a-b-da, 2, 3, 2, 22, 195, 120, 193, 119, 120, 195, 2, 2.39685
366\, 1, wb, attraction, a-b-da, 2, 3, 2, 22, 195, 120, 193, 119, 120, 195, 3, 0.443409
366\, 1, wb, attraction, a-b-da, 5, 3, 2, 23, 190, 117, 195, 120, 120, 195, 1, 6.51918
366\, 1, wb, attraction, a-b-da, 5, 3, 2, 23, 190, 117, 195, 120, 120, 195, 3, 0.439763
366\, 1, wb, attraction, a-b-da, 2, 1, 2, 24, 134, 59, 60, 135, 135, 60, 3, 1.97222
366\, 1, wb, attraction, a-b-da, 2, 1, 2, 24, 134, 59, 60, 135, 135, 60, 2, 0.675675
366\, 1, wb, attraction, a-b-db, 14, 1, 2, 25, 60, 135, 135, 60, 56, 125, 3, 1.65405
366\, 1, wb, attraction, a-b-db, 14, 1, 2, 25, 60, 135, 135, 60, 56, 125, 1, 0.874805
366\, 1, wb, filler, NA, 999, 999, 2, 26, 83, 70, 141, 170, 82, 78, 1, 0.949107
366\, 1, wb, filler, NA, 999, 999, 2, 26, 83, 70, 141, 170, 82, 78, 2, 0.294085
366\, 1, wb, attraction, a-b-da, 14, 1, 2, 27, 125, 56, 60, 135, 135, 60, 1, 1.30401
366\, 1, wb, attraction, a-b-da, 14, 1, 2, 27, 125, 56, 60, 135, 135, 60, 2, 0.323016
366\, 1, wb, attraction, a-b-da, 2, 2, 2, 28, 90, 165, 165, 90, 163, 89, 3, 2.63625
366\, 1, wb, attraction, a-b-da, 2, 2, 2, 28, 90, 165, 165, 90, 163, 89, 1, 0.377187
366\, 1, wb, attraction, a-b-da, 5, 2, 2, 29, 90, 165, 165, 90, 161, 88, 3, 3.06371
366\, 1, wb, attraction, a-b-da, 5, 2, 2, 29, 90, 165, 165, 90, 161, 88, 1, 0.667472
366\, 1, wb, catch, NA, 999, 999, 2, 30, 121, 194, 117, 78, 113, 142, 2, 0.774388
366\, 1, wb, catch, NA, 999, 999, 2, 30, 121, 194, 117, 78, 113, 142, 1, 0.310113
366\, 1, wb, filler, NA, 999, 999, 2, 31, 162, 151, 103, 74, 170, 119, 2, 0.887349
366\, 1, wb, filler, NA, 999, 999, 2, 31, 162, 151, 103, 74, 170, 119, 1, 0.403079
366\, 1, wb, attraction, a-b-db, 2, 3, 2, 32, 195, 120, 120, 195, 119, 193, 1, 2.1369
366\, 1, wb, attraction, a-b-db, 2, 3, 2, 32, 195, 120, 120, 195, 119, 193, 2, 0.306185
366\, 1, wb, filler, NA, 999, 999, 2, 33, 103, 69, 103, 59, 191, 60, 2, 2.36403
366\, 1, wb, filler, NA, 999, 999, 2, 33, 103, 69, 103, 59, 191, 60, 3, 0.691984
366\, 1, wb, attraction, a-b-da, 9, 3, 2, 34, 195, 120, 120, 195, 186, 114, 3, 3.06976
366\, 1, wb, attraction, a-b-da, 9, 3, 2, 34, 195, 120, 120, 195, 186, 114, 2, 0.393296
366\, 1, wb, attraction, a-b-db, 9, 1, 2, 35, 60, 135, 135, 60, 57, 129, 3, 1.47918
366\, 1, wb, attraction, a-b-db, 9, 1, 2, 35, 60, 135, 135, 60, 57, 129, 1, 1.05869
366\, 1, wb, attraction, a-b-db, 5, 2, 2, 36, 90, 165, 88, 161, 165, 90, 3, 4.03765
366\, 1, wb, attraction, a-b-db, 5, 2, 2, 36, 90, 165, 88, 161, 165, 90, 2, 0.282321
366\, 1, wb, filler, NA, 999, 999, 2, 37, 87, 151, 69, 92, 79, 98, 2, 0.75697
366\, 1, wb, filler, NA, 999, 999, 2, 37, 87, 151, 69, 92, 79, 98, 1, 0.325332
366\, 1, wb, attraction, a-b-db, 5, 3, 3, 1, 117, 190, 195, 120, 120, 195, 1, 4.46182
366\, 1, wb, attraction, a-b-db, 5, 3, 3, 1, 117, 190, 195, 120, 120, 195, 2, 0.305094
366\, 1, wb, attraction, a-b-da, 2, 2, 3, 2, 90, 165, 163, 89, 165, 90, 3, 2.21087
366\, 1, wb, attraction, a-b-da, 2, 2, 3, 2, 90, 165, 163, 89, 165, 90, 2, 0.472806
366\, 1, wb, filler, NA, 999, 999, 3, 3, 139, 146, 188, 133, 83, 140, 3, 0.947901
366\, 1, wb, filler, NA, 999, 999, 3, 3, 139, 146, 188, 133, 83, 140, 2, 0.396882
366\, 1, wb, filler, NA, 999, 999, 3, 4, 171, 172, 133, 57, 184, 173, 2, 0.962804
366\, 1, wb, filler, NA, 999, 999, 3, 4, 171, 172, 133, 57, 184, 173, 3, 0.411138
366\, 1, wb, attraction, a-b-da, 9, 1, 3, 5, 129, 57, 135, 60, 60, 135, 1, 1.71222
366\, 1, wb, attraction, a-b-da, 9, 1, 3, 5, 129, 57, 135, 60, 60, 135, 2, 0.410334
366\, 1, wb, filler, NA, 999, 999, 3, 6, 70, 150, 129, 123, 181, 63, 1, 1.51147
366\, 1, wb, filler, NA, 999, 999, 3, 6, 70, 150, 129, 123, 181, 63, 2, 0.649648
366\, 1, wb, catch, NA, 999, 999, 3, 7, 95, 100, 122, 193, 112, 143, 1, 0.861404
366\, 1, wb, catch, NA, 999, 999, 3, 7, 95, 100, 122, 193, 112, 143, 2, 0.425933
366\, 1, wb, attraction, a-b-da, 2, 1, 3, 8, 135, 60, 134, 59, 60, 135, 1, 1.65439
366\, 1, wb, attraction, a-b-da, 2, 1, 3, 8, 135, 60, 134, 59, 60, 135, 3, 0.419091
366\, 1, wb, attraction, a-b-da, 5, 2, 3, 9, 161, 88, 165, 90, 90, 165, 2, 1.66421
366\, 1, wb, attraction, a-b-da, 5, 2, 3, 9, 161, 88, 165, 90, 90, 165, 3, 0.404392
366\, 1, wb, attraction, a-b-da, 14, 3, 3, 10, 181, 111, 120, 195, 195, 120, 1, 2.27405
366\, 1, wb, attraction, a-b-da, 14, 3, 3, 10, 181, 111, 120, 195, 195, 120, 2, 1.86145
366\, 1, wb, attraction, a-b-db, 2, 3, 3, 11, 120, 195, 195, 120, 119, 193, 2, 5.07211
366\, 1, wb, attraction, a-b-db, 2, 3, 3, 11, 120, 195, 195, 120, 119, 193, 1, 0.459104
366\, 1, wb, filler, NA, 999, 999, 3, 12, 102, 111, 154, 188, 74, 85, 3, 0.806249
366\, 1, wb, filler, NA, 999, 999, 3, 12, 102, 111, 154, 188, 74, 85, 2, 0.276613
366\, 1, wb, attraction, a-b-db, 5, 1, 3, 13, 58, 132, 135, 60, 60, 135, 2, 3.80715
366\, 1, wb, attraction, a-b-db, 5, 1, 3, 13, 58, 132, 135, 60, 60, 135, 3, 0.452614
366\, 1, wb, attraction, a-b-da, 2, 3, 3, 14, 193, 119, 120, 195, 195, 120, 1, 2.84049
366\, 1, wb, attraction, a-b-da, 2, 3, 3, 14, 193, 119, 120, 195, 195, 120, 2, 0.348914
366\, 1, wb, attraction, a-b-db, 2, 2, 3, 15, 90, 165, 165, 90, 89, 163, 1, 3.82086
366\, 1, wb, attraction, a-b-db, 2, 2, 3, 15, 90, 165, 165, 90, 89, 163, 2, 0.330152
366\, 1, wb, catch, NA, 999, 999, 3, 16, 122, 133, 62, 133, 120, 195, 2, 0.882613
366\, 1, wb, catch, NA, 999, 999, 3, 16, 122, 133, 62, 133, 120, 195, 3, 0.302328
366\, 1, wb, filler, NA, 999, 999, 3, 17, 163, 123, 91, 180, 133, 188, 2, 1.68813
366\, 1, wb, filler, NA, 999, 999, 3, 17, 163, 123, 91, 180, 133, 188, 3, 0.387685
366\, 1, wb, attraction, a-b-db, 9, 3, 3, 18, 114, 186, 195, 120, 120, 195, 1, 2.01012
366\, 1, wb, attraction, a-b-db, 9, 3, 3, 18, 114, 186, 195, 120, 120, 195, 3, 0.320105
366\, 1, wb, filler, NA, 999, 999, 3, 19, 192, 69, 160, 161, 115, 72, 3, 0.937401
366\, 1, wb, filler, NA, 999, 999, 3, 19, 192, 69, 160, 161, 115, 72, 2, 0.267066
366\, 1, wb, attraction, a-b-da, 9, 2, 3, 20, 157, 86, 165, 90, 90, 165, 2, 1.43015
366\, 1, wb, attraction, a-b-da, 9, 2, 3, 20, 157, 86, 165, 90, 90, 165, 3, 0.619768
366\, 1, wb, filler, NA, 999, 999, 3, 21, 82, 80, 192, 126, 92, 120, 1, 0.960878
366\, 1, wb, filler, NA, 999, 999, 3, 21, 82, 80, 192, 126, 92, 120, 2, 0.329185
366\, 1, wb, attraction, a-b-db, 9, 2, 3, 22, 165, 90, 90, 165, 86, 157, 1, 3.52161
366\, 1, wb, attraction, a-b-db, 9, 2, 3, 22, 165, 90, 90, 165, 86, 157, 2, 0.290477
366\, 1, wb, attraction, a-b-db, 9, 1, 3, 23, 135, 60, 57, 129, 60, 135, 1, 2.91637
366\, 1, wb, attraction, a-b-db, 9, 1, 3, 23, 135, 60, 57, 129, 60, 135, 3, 0.334032
366\, 1, wb, attraction, a-b-db, 14, 3, 3, 24, 195, 120, 120, 195, 111, 181, 3, 1.37462
366\, 1, wb, attraction, a-b-db, 14, 3, 3, 24, 195, 120, 120, 195, 111, 181, 2, 1.04626
366\, 1, wb, attraction, a-b-db, 5, 2, 3, 25, 165, 90, 90, 165, 88, 161, 1, 2.62573
366\, 1, wb, attraction, a-b-db, 5, 2, 3, 25, 165, 90, 90, 165, 88, 161, 2, 0.750816
366\, 1, wb, attraction, a-b-da, 5, 3, 3, 26, 120, 195, 190, 117, 195, 120, 2, 3.36657
366\, 1, wb, attraction, a-b-da, 5, 3, 3, 26, 120, 195, 190, 117, 195, 120, 1, 0.438194
366\, 1, wb, filler, NA, 999, 999, 3, 27, 188, 173, 103, 194, 85, 145, 3, 0.714685
366\, 1, wb, filler, NA, 999, 999, 3, 27, 188, 173, 103, 194, 85, 145, 1, 0.365077
366\, 1, wb, catch, NA, 999, 999, 3, 28, 95, 160, 145, 170, 97, 98, 3, 0.716208
366\, 1, wb, catch, NA, 999, 999, 3, 28, 95, 160, 145, 170, 97, 98, 2, 0.366739
366\, 1, wb, attraction, a-b-db, 14, 1, 3, 29, 135, 60, 60, 135, 56, 125, 1, 2.54192
366\, 1, wb, attraction, a-b-db, 14, 1, 3, 29, 135, 60, 60, 135, 56, 125, 2, 0.998401
366\, 1, wb, filler, NA, 999, 999, 3, 30, 80, 134, 140, 117, 87, 188, 1, 1.22807
366\, 1, wb, filler, NA, 999, 999, 3, 30, 80, 134, 140, 117, 87, 188, 2, 0.361575
366\, 1, wb, filler, NA, 999, 999, 3, 31, 190, 130, 89, 85, 98, 117, 2, 1.03284
366\, 1, wb, filler, NA, 999, 999, 3, 31, 190, 130, 89, 85, 98, 117, 1, 0.334447
366\, 1, wb, attraction, a-b-db, 14, 2, 3, 32, 83, 153, 90, 165, 165, 90, 1, 2.63087
366\, 1, wb, attraction, a-b-db, 14, 2, 3, 32, 83, 153, 90, 165, 165, 90, 2, 0.300119
366\, 1, wb, attraction, a-b-db, 2, 1, 3, 33, 59, 134, 60, 135, 135, 60, 1, 2.72603
366\, 1, wb, attraction, a-b-db, 2, 1, 3, 33, 59, 134, 60, 135, 135, 60, 3, 0.574946
366\, 1, wb, attraction, a-b-da, 9, 3, 3, 34, 120, 195, 195, 120, 186, 114, 1, 1.97357
366\, 1, wb, attraction, a-b-da, 9, 3, 3, 34, 120, 195, 195, 120, 186, 114, 3, 0.452722
366\, 1, wb, attraction, a-b-da, 14, 1, 3, 35, 135, 60, 60, 135, 125, 56, 3, 1.65672
366\, 1, wb, attraction, a-b-da, 14, 1, 3, 35, 135, 60, 60, 135, 125, 56, 2, 0.468736
366\, 1, wb, attraction, a-b-da, 5, 1, 3, 36, 132, 58, 60, 135, 135, 60, 1, 3.40793
366\, 1, wb, attraction, a-b-da, 5, 1, 3, 36, 132, 58, 60, 135, 135, 60, 2, 0.757304
366\, 1, wb, attraction, a-b-da, 14, 2, 3, 37, 90, 165, 165, 90, 153, 83, 1, 2.2844
366\, 1, wb, attraction, a-b-da, 14, 2, 3, 37, 90, 165, 165, 90, 153, 83, 2, 0.727738
366\, 1, wb, filler, NA, 999, 999, 4, 1, 190, 101, 105, 74, 58, 60, 3, 0.776063
366\, 1, wb, filler, NA, 999, 999, 4, 1, 190, 101, 105, 74, 58, 60, 1, 0.407809
366\, 1, wb, attraction, a-b-da, 14, 3, 4, 2, 181, 111, 195, 120, 120, 195, 1, 1.69287
366\, 1, wb, attraction, a-b-da, 14, 3, 4, 2, 181, 111, 195, 120, 120, 195, 3, 0.399656
366\, 1, wb, filler, NA, 999, 999, 4, 3, 140, 83, 159, 94, 80, 118, 3, 0.765477
366\, 1, wb, filler, NA, 999, 999, 4, 3, 140, 83, 159, 94, 80, 118, 2, 0.429893
366\, 1, wb, filler, NA, 999, 999, 4, 4, 119, 106, 88, 132, 137, 131, 1, 1.69834
366\, 1, wb, filler, NA, 999, 999, 4, 4, 119, 106, 88, 132, 137, 131, 3, 0.3812
366\, 1, wb, filler, NA, 999, 999, 4, 5, 102, 130, 167, 154, 188, 123, 1, 0.715648
366\, 1, wb, filler, NA, 999, 999, 4, 5, 102, 130, 167, 154, 188, 123, 2, 0.654109
366\, 1, wb, attraction, a-b-db, 14, 1, 4, 6, 60, 135, 135, 60, 56, 125, 1, 2.49784
366\, 1, wb, attraction, a-b-db, 14, 1, 4, 6, 60, 135, 135, 60, 56, 125, 3, 0.564371
366\, 1, wb, attraction, a-b-db, 2, 3, 4, 7, 195, 120, 120, 195, 119, 193, 1, 2.48353
366\, 1, wb, attraction, a-b-db, 2, 3, 4, 7, 195, 120, 120, 195, 119, 193, 2, 0.574795
366\, 1, wb, attraction, a-b-da, 9, 2, 4, 8, 157, 86, 165, 90, 90, 165, 3, 2.02107
366\, 1, wb, attraction, a-b-da, 9, 2, 4, 8, 157, 86, 165, 90, 90, 165, 1, 0.571194
366\, 1, wb, attraction, a-b-db, 14, 2, 4, 9, 83, 153, 90, 165, 165, 90, 1, 1.55424
366\, 1, wb, attraction, a-b-db, 14, 2, 4, 9, 83, 153, 90, 165, 165, 90, 2, 1.21105
366\, 1, wb, catch, NA, 999, 999, 4, 10, 127, 128, 160, 155, 95, 100, 3, 0.719852
366\, 1, wb, catch, NA, 999, 999, 4, 10, 127, 128, 160, 155, 95, 100, 2, 0.434366
366\, 1, wb, attraction, a-b-db, 9, 2, 4, 11, 165, 90, 90, 165, 86, 157, 1, 1.34279
366\, 1, wb, attraction, a-b-db, 9, 2, 4, 11, 165, 90, 90, 165, 86, 157, 2, 0.391683
366\, 1, wb, attraction, a-b-db, 2, 1, 4, 12, 59, 134, 135, 60, 60, 135, 1, 1.97368
366\, 1, wb, attraction, a-b-db, 2, 1, 4, 12, 59, 134, 135, 60, 60, 135, 3, 0.556864
366\, 1, wb, attraction, a-b-da, 5, 2, 4, 13, 90, 165, 161, 88, 165, 90, 2, 1.93203
366\, 1, wb, attraction, a-b-da, 5, 2, 4, 13, 90, 165, 161, 88, 165, 90, 1, 0.525269
366\, 1, wb, attraction, a-b-db, 9, 1, 4, 14, 57, 129, 60, 135, 135, 60, 1, 1.24572
366\, 1, wb, attraction, a-b-db, 9, 1, 4, 14, 57, 129, 60, 135, 135, 60, 2, 0.61082
366\, 1, wb, attraction, a-b-da, 5, 1, 4, 15, 135, 60, 60, 135, 132, 58, 1, 1.59174
366\, 1, wb, attraction, a-b-da, 5, 1, 4, 15, 135, 60, 60, 135, 132, 58, 2, 0.558658
366\, 1, wb, filler, NA, 999, 999, 4, 16, 138, 193, 110, 93, 98, 127, 2, 0.981797
366\, 1, wb, filler, NA, 999, 999, 4, 16, 138, 193, 110, 93, 98, 127, 1, 0.581357
366\, 1, wb, attraction, a-b-db, 14, 3, 4, 17, 195, 120, 120, 195, 111, 181, 1, 2.21181
366\, 1, wb, attraction, a-b-db, 14, 3, 4, 17, 195, 120, 120, 195, 111, 181, 2, 0.393764
366\, 1, wb, attraction, a-b-da, 5, 3, 4, 18, 120, 195, 195, 120, 190, 117, 3, 1.60759
366\, 1, wb, attraction, a-b-da, 5, 3, 4, 18, 120, 195, 195, 120, 190, 117, 1, 0.31785
366\, 1, wb, attraction, a-b-db, 5, 1, 4, 19, 58, 132, 60, 135, 135, 60, 1, 1.08676
366\, 1, wb, attraction, a-b-db, 5, 1, 4, 19, 58, 132, 60, 135, 135, 60, 2, 0.570415
366\, 1, wb, filler, NA, 999, 999, 4, 20, 82, 57, 138, 70, 137, 112, 1, 0.721592
366\, 1, wb, filler, NA, 999, 999, 4, 20, 82, 57, 138, 70, 137, 112, 3, 0.403347
366\, 1, wb, attraction, a-b-da, 14, 1, 4, 21, 60, 135, 135, 60, 125, 56, 3, 1.44911
366\, 1, wb, attraction, a-b-da, 14, 1, 4, 21, 60, 135, 135, 60, 125, 56, 1, 0.413925
366\, 1, wb, attraction, a-b-db, 2, 2, 4, 22, 89, 163, 90, 165, 165, 90, 3, 2.73922
366\, 1, wb, attraction, a-b-db, 2, 2, 4, 22, 89, 163, 90, 165, 165, 90, 1, 0.33161
366\, 1, wb, attraction, a-b-da, 9, 1, 4, 23, 60, 135, 129, 57, 135, 60, 2, 1.81213
366\, 1, wb, attraction, a-b-da, 9, 1, 4, 23, 60, 135, 129, 57, 135, 60, 1, 0.578169
366\, 1, wb, attraction, a-b-da, 2, 3, 4, 24, 120, 195, 195, 120, 193, 119, 2, 1.95261
366\, 1, wb, attraction, a-b-da, 2, 3, 4, 24, 120, 195, 195, 120, 193, 119, 1, 0.625302
366\, 1, wb, attraction, a-b-db, 9, 3, 4, 25, 114, 186, 195, 120, 120, 195, 1, 2.11768
366\, 1, wb, attraction, a-b-db, 9, 3, 4, 25, 114, 186, 195, 120, 120, 195, 3, 0.351661
366\, 1, wb, filler, NA, 999, 999, 4, 26, 61, 81, 66, 166, 69, 111, 1, 0.831511
366\, 1, wb, filler, NA, 999, 999, 4, 26, 61, 81, 66, 166, 69, 111, 2, 0.309132
366\, 1, wb, catch, NA, 999, 999, 4, 27, 180, 135, 95, 100, 116, 139, 2, 0.662356
366\, 1, wb, catch, NA, 999, 999, 4, 27, 180, 135, 95, 100, 116, 139, 1, 0.330818
366\, 1, wb, attraction, a-b-da, 9, 3, 4, 28, 120, 195, 195, 120, 186, 114, 3, 2.4755
366\, 1, wb, attraction, a-b-da, 9, 3, 4, 28, 120, 195, 195, 120, 186, 114, 1, 0.43061
366\, 1, wb, filler, NA, 999, 999, 4, 29, 103, 61, 184, 174, 75, 92, 1, 0.90697
366\, 1, wb, filler, NA, 999, 999, 4, 29, 103, 61, 184, 174, 75, 92, 2, 0.285431
366\, 1, wb, attraction, a-b-da, 2, 2, 4, 30, 163, 89, 165, 90, 90, 165, 1, 2.54392
366\, 1, wb, attraction, a-b-da, 2, 2, 4, 30, 163, 89, 165, 90, 90, 165, 3, 0.320462
366\, 1, wb, attraction, a-b-db, 5, 2, 4, 31, 90, 165, 165, 90, 88, 161, 2, 1.81757
366\, 1, wb, attraction, a-b-db, 5, 2, 4, 31, 90, 165, 165, 90, 88, 161, 3, 0.303615
366\, 1, wb, filler, NA, 999, 999, 4, 32, 139, 187, 186, 133, 148, 114, 3, 2.68946
366\, 1, wb, filler, NA, 999, 999, 4, 32, 139, 187, 186, 133, 148, 114, 1, 0.460017
366\, 1, wb, attraction, a-b-db, 5, 3, 4, 33, 117, 190, 195, 120, 120, 195, 3, 3.03908
366\, 1, wb, attraction, a-b-db, 5, 3, 4, 33, 117, 190, 195, 120, 120, 195, 2, 0.299499
366\, 1, wb, attraction, a-b-da, 14, 2, 4, 34, 153, 83, 90, 165, 165, 90, 1, 0.741268
366\, 1, wb, attraction, a-b-da, 14, 2, 4, 34, 153, 83, 90, 165, 165, 90, 2, 0.870383
366\, 1, wb, attraction, a-b-da, 2, 1, 4, 35, 135, 60, 134, 59, 60, 135, 3, 2.20944
366\, 1, wb, attraction, a-b-da, 2, 1, 4, 35, 135, 60, 134, 59, 60, 135, 1, 0.727389
366\, 1, wb, filler, NA, 999, 999, 4, 36, 167, 87, 67, 155, 96, 169, 2, 2.11165
366\, 1, wb, filler, NA, 999, 999, 4, 36, 167, 87, 67, 155, 96, 169, 3, 0.321624
366\, 1, wb, catch, NA, 999, 999, 4, 37, 119, 136, 112, 83, 191, 124, 2, 0.810907
366\, 1, wb, catch, NA, 999, 999, 4, 37, 119, 136, 112, 83, 191, 124, 3, 0.689218
366\, 1, wb, attraction, a-b-db, 2, 3, 5, 1, 120, 195, 119, 193, 195, 120, 3, 3.88161
366\, 1, wb, attraction, a-b-db, 2, 3, 5, 1, 120, 195, 119, 193, 195, 120, 2, 0.32439
366\, 1, wb, attraction, a-b-db, 9, 1, 5, 2, 135, 60, 57, 129, 60, 135, 2, 2.74885
366\, 1, wb, attraction, a-b-db, 9, 1, 5, 2, 135, 60, 57, 129, 60, 135, 3, 1.6213
366\, 1, wb, filler, NA, 999, 999, 5, 3, 145, 125, 191, 140, 116, 60, 3, 1.05805
366\, 1, wb, filler, NA, 999, 999, 5, 3, 145, 125, 191, 140, 116, 60, 2, 0.286327
366\, 1, wb, filler, NA, 999, 999, 5, 4, 94, 86, 105, 175, 84, 134, 1, 0.832917
366\, 1, wb, filler, NA, 999, 999, 5, 4, 94, 86, 105, 175, 84, 134, 2, 0.438553
366\, 1, wb, attraction, a-b-da, 2, 1, 5, 5, 60, 135, 135, 60, 134, 59, 3, 4.49108
366\, 1, wb, attraction, a-b-da, 2, 1, 5, 5, 60, 135, 135, 60, 134, 59, 1, 0.821065
366\, 1, wb, attraction, a-b-da, 5, 2, 5, 6, 90, 165, 165, 90, 161, 88, 3, 1.95401
366\, 1, wb, attraction, a-b-da, 5, 2, 5, 6, 90, 165, 165, 90, 161, 88, 1, 0.666716
366\, 1, wb, attraction, a-b-da, 14, 2, 5, 7, 153, 83, 165, 90, 90, 165, 1, 1.54987
366\, 1, wb, attraction, a-b-da, 14, 2, 5, 7, 153, 83, 165, 90, 90, 165, 3, 0.622706
366\, 1, wb, attraction, a-b-da, 5, 1, 5, 8, 135, 60, 60, 135, 132, 58, 3, 1.81976
366\, 1, wb, attraction, a-b-da, 5, 1, 5, 8, 135, 60, 60, 135, 132, 58, 2, 0.561746
366\, 1, wb, filler, NA, 999, 999, 5, 9, 135, 64, 119, 132, 130, 159, 1, 0.856856
366\, 1, wb, filler, NA, 999, 999, 5, 9, 135, 64, 119, 132, 130, 159, 3, 0.413305
366\, 1, wb, filler, NA, 999, 999, 5, 10, 117, 112, 173, 85, 142, 65, 3, 2.38642
366\, 1, wb, filler, NA, 999, 999, 5, 10, 117, 112, 173, 85, 142, 65, 2, 1.74562
366\, 1, wb, attraction, a-b-db, 5, 1, 5, 11, 60, 135, 58, 132, 135, 60, 3, 1.87298
366\, 1, wb, attraction, a-b-db, 5, 1, 5, 11, 60, 135, 58, 132, 135, 60, 2, 0.404413
366\, 1, wb, attraction, a-b-da, 9, 2, 5, 12, 90, 165, 165, 90, 157, 86, 3, 4.61821
366\, 1, wb, attraction, a-b-da, 9, 2, 5, 12, 90, 165, 165, 90, 157, 86, 1, 0.391436
366\, 1, wb, attraction, a-b-da, 2, 2, 5, 13, 90, 165, 163, 89, 165, 90, 3, 3.63729
366\, 1, wb, attraction, a-b-da, 2, 2, 5, 13, 90, 165, 163, 89, 165, 90, 1, 0.570062
366\, 1, wb, filler, NA, 999, 999, 5, 14, 160, 173, 125, 154, 174, 157, 2, 1.09721
366\, 1, wb, filler, NA, 999, 999, 5, 14, 160, 173, 125, 154, 174, 157, 3, 3.25226
366\, 1, wb, attraction, a-b-db, 14, 3, 5, 15, 120, 195, 111, 181, 195, 120, 3, 3.37499
366\, 1, wb, attraction, a-b-db, 14, 3, 5, 15, 120, 195, 111, 181, 195, 120, 2, 0.39797
366\, 1, wb, attraction, a-b-db, 2, 2, 5, 16, 89, 163, 165, 90, 90, 165, 3, 4.33975
366\, 1, wb, attraction, a-b-db, 2, 2, 5, 16, 89, 163, 165, 90, 90, 165, 2, 0.41178
366\, 1, wb, filler, NA, 999, 999, 5, 17, 64, 93, 140, 61, 115, 168, 1, 0.632853
366\, 1, wb, filler, NA, 999, 999, 5, 17, 64, 93, 140, 61, 115, 168, 3, 0.374584
366\, 1, wb, catch, NA, 999, 999, 5, 18, 157, 158, 138, 117, 124, 71, 3, 0.773183
366\, 1, wb, catch, NA, 999, 999, 5, 18, 157, 158, 138, 117, 124, 71, 1, 0.356803
366\, 1, wb, attraction, a-b-da, 9, 1, 5, 19, 135, 60, 129, 57, 60, 135, 2, 1.22011
366\, 1, wb, attraction, a-b-da, 9, 1, 5, 19, 135, 60, 129, 57, 60, 135, 1, 0.68234
366\, 1, wb, filler, NA, 999, 999, 5, 20, 187, 91, 163, 170, 97, 78, 3, 0.572786
366\, 1, wb, filler, NA, 999, 999, 5, 20, 187, 91, 163, 170, 97, 78, 2, 0.30044
366\, 1, wb, catch, NA, 999, 999, 5, 21, 90, 165, 68, 127, 187, 128, 2, 1.03833
366\, 1, wb, catch, NA, 999, 999, 5, 21, 90, 165, 68, 127, 187, 128, 3, 0.323381
366\, 1, wb, attraction, a-b-db, 14, 2, 5, 22, 165, 90, 90, 165, 83, 153, 1, 5.99574
366\, 1, wb, attraction, a-b-db, 14, 2, 5, 22, 165, 90, 90, 165, 83, 153, 2, 0.76131
366\, 1, wb, attraction, a-b-da, 5, 3, 5, 23, 195, 120, 190, 117, 120, 195, 2, 5.19246
366\, 1, wb, attraction, a-b-da, 5, 3, 5, 23, 195, 120, 190, 117, 120, 195, 3, 0.285975
366\, 1, wb, attraction, a-b-db, 9, 2, 5, 24, 86, 157, 90, 165, 165, 90, 1, 1.30449
366\, 1, wb, attraction, a-b-db, 9, 2, 5, 24, 86, 157, 90, 165, 165, 90, 2, 0.938846
366\, 1, wb, filler, NA, 999, 999, 5, 25, 174, 105, 99, 116, 92, 99, 3, 0.731047
366\, 1, wb, filler, NA, 999, 999, 5, 25, 174, 105, 99, 116, 92, 99, 1, 0.388767
366\, 1, wb, attraction, a-b-da, 9, 3, 5, 26, 120, 195, 195, 120, 186, 114, 3, 1.49925
366\, 1, wb, attraction, a-b-da, 9, 3, 5, 26, 120, 195, 195, 120, 186, 114, 1, 0.406024
366\, 1, wb, catch, NA, 999, 999, 5, 27, 97, 98, 141, 174, 162, 93, 1, 0.819891
366\, 1, wb, catch, NA, 999, 999, 5, 27, 97, 98, 141, 174, 162, 93, 2, 0.386289
366\, 1, wb, attraction, a-b-da, 2, 3, 5, 28, 120, 195, 193, 119, 195, 120, 3, 3.44889
366\, 1, wb, attraction, a-b-da, 2, 3, 5, 28, 120, 195, 193, 119, 195, 120, 1, 0.325093
366\, 1, wb, attraction, a-b-da, 14, 1, 5, 29, 60, 135, 125, 56, 135, 60, 2, 1.62152
366\, 1, wb, attraction, a-b-da, 14, 1, 5, 29, 60, 135, 125, 56, 135, 60, 3, 0.819061
366\, 1, wb, attraction, a-b-db, 14, 1, 5, 30, 60, 135, 56, 125, 135, 60, 2, 1.98402
366\, 1, wb, attraction, a-b-db, 14, 1, 5, 30, 60, 135, 56, 125, 135, 60, 3, 0.647387
366\, 1, wb, attraction, a-b-db, 5, 2, 5, 31, 90, 165, 165, 90, 88, 161, 2, 1.86718
366\, 1, wb, attraction, a-b-db, 5, 2, 5, 31, 90, 165, 165, 90, 88, 161, 1, 0.719167
366\, 1, wb, filler, NA, 999, 999, 5, 32, 87, 177, 189, 103, 159, 152, 1, 1.44817
366\, 1, wb, filler, NA, 999, 999, 5, 32, 87, 177, 189, 103, 159, 152, 3, 0.365065
366\, 1, wb, attraction, a-b-db, 2, 1, 5, 33, 135, 60, 59, 134, 60, 135, 1, 2.41221
366\, 1, wb, attraction, a-b-db, 2, 1, 5, 33, 135, 60, 59, 134, 60, 135, 2, 0.466209
366\, 1, wb, attraction, a-b-db, 9, 3, 5, 34, 195, 120, 120, 195, 114, 186, 3, 1.95732
366\, 1, wb, attraction, a-b-db, 9, 3, 5, 34, 195, 120, 120, 195, 114, 186, 2, 0.413229
366\, 1, wb, attraction, a-b-db, 5, 3, 5, 35, 120, 195, 117, 190, 195, 120, 3, 2.13853
366\, 1, wb, attraction, a-b-db, 5, 3, 5, 35, 120, 195, 117, 190, 195, 120, 1, 0.659217
366\, 1, wb, filler, NA, 999, 999, 5, 36, 109, 86, 189, 150, 182, 126, 1, 0.694089
366\, 1, wb, filler, NA, 999, 999, 5, 36, 109, 86, 189, 150, 182, 126, 2, 0.345157
366\, 1, wb, attraction, a-b-da, 14, 3, 5, 37, 181, 111, 195, 120, 120, 195, 1, 2.04116
366\, 1, wb, attraction, a-b-da, 14, 3, 5, 37, 181, 111, 195, 120, 120, 195, 2, 0.981833
366\, 1, wb, attraction, a-b-db, 2, 3, 6, 1, 195, 120, 119, 193, 120, 195, 1, 1.53997
366\, 1, wb, attraction, a-b-db, 2, 3, 6, 1, 195, 120, 119, 193, 120, 195, 2, 0.484789
366\, 1, wb, attraction, a-b-da, 14, 2, 6, 2, 153, 83, 90, 165, 165, 90, 1, 1.46326
366\, 1, wb, attraction, a-b-da, 14, 2, 6, 2, 153, 83, 90, 165, 165, 90, 2, 2.01947
366\, 1, wb, catch, NA, 999, 999, 6, 3, 132, 183, 77, 118, 140, 115, 2, 0.760119
366\, 1, wb, catch, NA, 999, 999, 6, 3, 132, 183, 77, 118, 140, 115, 1, 0.360565
366\, 1, wb, attraction, a-b-db, 14, 1, 6, 4, 135, 60, 56, 125, 60, 135, 1, 3.57574
366\, 1, wb, attraction, a-b-db, 14, 1, 6, 4, 135, 60, 56, 125, 60, 135, 2, 0.406495
366\, 1, wb, attraction, a-b-da, 5, 2, 6, 5, 90, 165, 161, 88, 165, 90, 2, 6.86039
366\, 1, wb, attraction, a-b-da, 5, 2, 6, 5, 90, 165, 161, 88, 165, 90, 1, 0.326841
366\, 1, wb, attraction, a-b-db, 5, 2, 6, 6, 88, 161, 165, 90, 90, 165, 2, 1.43931
366\, 1, wb, attraction, a-b-db, 5, 2, 6, 6, 88, 161, 165, 90, 90, 165, 3, 0.460201
366\, 1, wb, attraction, a-b-da, 2, 1, 6, 7, 134, 59, 60, 135, 135, 60, 1, 2.18339
366\, 1, wb, attraction, a-b-da, 2, 1, 6, 7, 134, 59, 60, 135, 135, 60, 2, 0.382702
366\, 1, wb, filler, NA, 999, 999, 6, 8, 92, 127, 192, 96, 82, 182, 1, 1.2771
366\, 1, wb, filler, NA, 999, 999, 6, 8, 92, 127, 192, 96, 82, 182, 2, 0.408672
366\, 1, wb, filler, NA, 999, 999, 6, 9, 83, 116, 87, 81, 107, 95, 2, 0.813823
366\, 1, wb, filler, NA, 999, 999, 6, 9, 83, 116, 87, 81, 107, 95, 3, 0.452227
366\, 1, wb, attraction, a-b-da, 2, 2, 6, 10, 165, 90, 90, 165, 163, 89, 3, 3.88809
366\, 1, wb, attraction, a-b-da, 2, 2, 6, 10, 165, 90, 90, 165, 163, 89, 2, 0.506744
366\, 1, wb, catch, NA, 999, 999, 6, 11, 80, 115, 99, 156, 140, 175, 1, 1.02853
366\, 1, wb, catch, NA, 999, 999, 6, 11, 80, 115, 99, 156, 140, 175, 3, 0.466215
366\, 1, wb, filler, NA, 999, 999, 6, 12, 182, 159, 57, 125, 153, 195, 2, 0.669305
366\, 1, wb, filler, NA, 999, 999, 6, 12, 182, 159, 57, 125, 153, 195, 1, 1.1138
366\, 1, wb, filler, NA, 999, 999, 6, 13, 118, 95, 68, 145, 73, 122, 3, 2.02679
366\, 1, wb, filler, NA, 999, 999, 6, 13, 118, 95, 68, 145, 73, 122, 1, 0.432113
366\, 1, wb, attraction, a-b-db, 2, 2, 6, 14, 165, 90, 89, 163, 90, 165, 1, 1.74866
366\, 1, wb, attraction, a-b-db, 2, 2, 6, 14, 165, 90, 89, 163, 90, 165, 3, 0.477273
366\, 1, wb, attraction, a-b-da, 9, 2, 6, 15, 157, 86, 165, 90, 90, 165, 1, 2.41577
366\, 1, wb, attraction, a-b-da, 9, 2, 6, 15, 157, 86, 165, 90, 90, 165, 3, 0.4376
366\, 1, wb, filler, NA, 999, 999, 6, 16, 136, 130, 114, 184, 96, 117, 3, 1.17814
366\, 1, wb, filler, NA, 999, 999, 6, 16, 136, 130, 114, 184, 96, 117, 1, 3.07378
366\, 1, wb, attraction, a-b-db, 5, 1, 6, 17, 60, 135, 135, 60, 58, 132, 1, 2.42808
366\, 1, wb, attraction, a-b-db, 5, 1, 6, 17, 60, 135, 135, 60, 58, 132, 2, 0.793181
366\, 1, wb, filler, NA, 999, 999, 6, 18, 128, 103, 85, 116, 75, 176, 2, 1.431
366\, 1, wb, filler, NA, 999, 999, 6, 18, 128, 103, 85, 116, 75, 176, 1, 0.614725
366\, 1, wb, attraction, a-b-db, 2, 1, 6, 19, 59, 134, 135, 60, 60, 135, 1, 2.8735
366\, 1, wb, attraction, a-b-db, 2, 1, 6, 19, 59, 134, 135, 60, 60, 135, 2, 0.580724
366\, 1, wb, attraction, a-b-da, 14, 1, 6, 20, 135, 60, 125, 56, 60, 135, 2, 1.60297
366\, 1, wb, attraction, a-b-da, 14, 1, 6, 20, 135, 60, 125, 56, 60, 135, 3, 0.545862
366\, 1, wb, attraction, a-b-da, 2, 3, 6, 21, 193, 119, 195, 120, 120, 195, 2, 2.24962
366\, 1, wb, attraction, a-b-da, 2, 3, 6, 21, 193, 119, 195, 120, 120, 195, 3, 0.550254
366\, 1, wb, attraction, a-b-db, 9, 1, 6, 22, 135, 60, 60, 135, 57, 129, 3, 1.48608
366\, 1, wb, attraction, a-b-db, 9, 1, 6, 22, 135, 60, 60, 135, 57, 129, 1, 1.28148
366\, 1, wb, attraction, a-b-db, 9, 2, 6, 23, 86, 157, 165, 90, 90, 165, 1, 2.15578
366\, 1, wb, attraction, a-b-db, 9, 2, 6, 23, 86, 157, 165, 90, 90, 165, 2, 0.40379
366\, 1, wb, attraction, a-b-db, 5, 3, 6, 24, 120, 195, 195, 120, 117, 190, 3, 2.98546
366\, 1, wb, attraction, a-b-db, 5, 3, 6, 24, 120, 195, 195, 120, 117, 190, 2, 0.616507
366\, 1, wb, filler, NA, 999, 999, 6, 25, 178, 131, 169, 73, 152, 120, 2, 0.917617
366\, 1, wb, filler, NA, 999, 999, 6, 25, 178, 131, 169, 73, 152, 120, 1, 0.407901
366\, 1, wb, attraction, a-b-da, 14, 3, 6, 26, 181, 111, 120, 195, 195, 120, 1, 1.82918
366\, 1, wb, attraction, a-b-da, 14, 3, 6, 26, 181, 111, 120, 195, 195, 120, 3, 0.418678
366\, 1, wb, filler, NA, 999, 999, 6, 27, 77, 164, 143, 165, 76, 167, 3, 2.73579
366\, 1, wb, filler, NA, 999, 999, 6, 27, 77, 164, 143, 165, 76, 167, 2, 0.392674
366\, 1, wb, attraction, a-b-db, 9, 3, 6, 28, 114, 186, 120, 195, 195, 120, 1, 1.83864
366\, 1, wb, attraction, a-b-db, 9, 3, 6, 28, 114, 186, 120, 195, 195, 120, 3, 0.899332
366\, 1, wb, attraction, a-b-db, 14, 3, 6, 29, 111, 181, 120, 195, 195, 120, 1, 1.41299
366\, 1, wb, attraction, a-b-db, 14, 3, 6, 29, 111, 181, 120, 195, 195, 120, 3, 0.731221
366\, 1, wb, attraction, a-b-da, 5, 1, 6, 30, 60, 135, 132, 58, 135, 60, 2, 2.89181
366\, 1, wb, attraction, a-b-da, 5, 1, 6, 30, 60, 135, 132, 58, 135, 60, 3, 0.549901
366\, 1, wb, catch, NA, 999, 999, 6, 31, 99, 156, 81, 114, 155, 160, 2, 1.01372
366\, 1, wb, catch, NA, 999, 999, 6, 31, 99, 156, 81, 114, 155, 160, 3, 0.364143
366\, 1, wb, attraction, a-b-db, 14, 2, 6, 32, 83, 153, 90, 165, 165, 90, 1, 2.17935
366\, 1, wb, attraction, a-b-db, 14, 2, 6, 32, 83, 153, 90, 165, 165, 90, 3, 0.570642
366\, 1, wb, filler, NA, 999, 999, 6, 33, 167, 162, 100, 118, 86, 173, 2, 0.841733
366\, 1, wb, filler, NA, 999, 999, 6, 33, 167, 162, 100, 118, 86, 173, 1, 0.342818
366\, 1, wb, attraction, a-b-da, 5, 3, 6, 34, 120, 195, 195, 120, 190, 117, 3, 3.15856
366\, 1, wb, attraction, a-b-da, 5, 3, 6, 34, 120, 195, 195, 120, 190, 117, 2, 0.374068
366\, 1, wb, filler, NA, 999, 999, 6, 35, 123, 121, 104, 178, 144, 64, 3, 0.980652
366\, 1, wb, filler, NA, 999, 999, 6, 35, 123, 121, 104, 178, 144, 64, 2, 0.348241
366\, 1, wb, attraction, a-b-da, 9, 1, 6, 36, 60, 135, 129, 57, 135, 60, 2, 2.95626
366\, 1, wb, attraction, a-b-da, 9, 1, 6, 36, 60, 135, 129, 57, 135, 60, 3, 0.65996
366\, 1, wb, attraction, a-b-da, 9, 3, 6, 37, 186, 114, 120, 195, 195, 120, 1, 2.05491
366\, 1, wb, attraction, a-b-da, 9, 3, 6, 37, 186, 114, 120, 195, 195, 120, 2, 0.37892
366\, 1, wb, attraction, a-b-da, 2, 2, 7, 1, 163, 89, 165, 90, 90, 165, 1, 2.36147
366\, 1, wb, attraction, a-b-da, 2, 2, 7, 1, 163, 89, 165, 90, 90, 165, 2, 0.377235
366\, 1, wb, filler, NA, 999, 999, 7, 2, 135, 174, 105, 99, 161, 113, 2, 0.839907
366\, 1, wb, filler, NA, 999, 999, 7, 2, 135, 174, 105, 99, 161, 113, 1, 0.340763
366\, 1, wb, attraction, a-b-da, 9, 3, 7, 3, 195, 120, 186, 114, 120, 195, 1, 4.18878
366\, 1, wb, attraction, a-b-da, 9, 3, 7, 3, 195, 120, 186, 114, 120, 195, 3, 0.402703
366\, 1, wb, attraction, a-b-db, 5, 2, 7, 4, 165, 90, 88, 161, 90, 165, 3, 2.43254
366\, 1, wb, attraction, a-b-db, 5, 2, 7, 4, 165, 90, 88, 161, 90, 165, 1, 0.797687
366\, 1, wb, catch, NA, 999, 999, 7, 5, 61, 134, 170, 145, 112, 143, 1, 0.731336
366\, 1, wb, catch, NA, 999, 999, 7, 5, 61, 134, 170, 145, 112, 143, 2, 0.325205
366\, 1, wb, attraction, a-b-db, 14, 1, 7, 6, 56, 125, 135, 60, 60, 135, 1, 1.82161
366\, 1, wb, attraction, a-b-db, 14, 1, 7, 6, 56, 125, 135, 60, 60, 135, 2, 0.39513
366\, 1, wb, attraction, a-b-da, 5, 3, 7, 7, 190, 117, 120, 195, 195, 120, 1, 1.59285
366\, 1, wb, attraction, a-b-da, 5, 3, 7, 7, 190, 117, 120, 195, 195, 120, 2, 0.311631
366\, 1, wb, attraction, a-b-da, 9, 1, 7, 8, 60, 135, 129, 57, 135, 60, 3, 2.24891
366\, 1, wb, attraction, a-b-da, 9, 1, 7, 8, 60, 135, 129, 57, 135, 60, 1, 0.733455
366\, 1, wb, attraction, a-b-da, 5, 1, 7, 9, 60, 135, 135, 60, 132, 58, 3, 1.38992
366\, 1, wb, attraction, a-b-da, 5, 1, 7, 9, 60, 135, 135, 60, 132, 58, 1, 0.460871
366\, 1, wb, catch, NA, 999, 999, 7, 10, 89, 106, 153, 102, 154, 161, 1, 1.19973
366\, 1, wb, catch, NA, 999, 999, 7, 10, 89, 106, 153, 102, 154, 161, 3, 0.82269
366\, 1, wb, attraction, a-b-da, 9, 2, 7, 11, 157, 86, 90, 165, 165, 90, 1, 1.81975
366\, 1, wb, attraction, a-b-da, 9, 2, 7, 11, 157, 86, 90, 165, 165, 90, 2, 0.529901
366\, 1, wb, attraction, a-b-da, 5, 2, 7, 12, 161, 88, 165, 90, 90, 165, 1, 1.71435
366\, 1, wb, attraction, a-b-da, 5, 2, 7, 12, 161, 88, 165, 90, 90, 165, 3, 0.348411
366\, 1, wb, attraction, a-b-da, 14, 2, 7, 13, 165, 90, 90, 165, 153, 83, 3, 1.50023
366\, 1, wb, attraction, a-b-da, 14, 2, 7, 13, 165, 90, 90, 165, 153, 83, 2, 0.399121
366\, 1, wb, attraction, a-b-db, 5, 3, 7, 14, 195, 120, 117, 190, 120, 195, 1, 1.87692
366\, 1, wb, attraction, a-b-db, 5, 3, 7, 14, 195, 120, 117, 190, 120, 195, 2, 0.632408
366\, 1, wb, attraction, a-b-da, 14, 1, 7, 15, 135, 60, 60, 135, 125, 56, 3, 1.75662
366\, 1, wb, attraction, a-b-da, 14, 1, 7, 15, 135, 60, 60, 135, 125, 56, 2, 0.476795
366\, 1, wb, attraction, a-b-db, 9, 2, 7, 16, 86, 157, 165, 90, 90, 165, 1, 3.4953
366\, 1, wb, attraction, a-b-db, 9, 2, 7, 16, 86, 157, 165, 90, 90, 165, 3, 0.457461
366\, 1, wb, attraction, a-b-db, 14, 2, 7, 17, 83, 153, 90, 165, 165, 90, 1, 1.40459
366\, 1, wb, attraction, a-b-db, 14, 2, 7, 17, 83, 153, 90, 165, 165, 90, 2, 0.426745
366\, 1, wb, attraction, a-b-da, 2, 1, 7, 18, 135, 60, 134, 59, 60, 135, 1, 2.62328
366\, 1, wb, attraction, a-b-da, 2, 1, 7, 18, 135, 60, 134, 59, 60, 135, 3, 0.428382
366\, 1, wb, filler, NA, 999, 999, 7, 19, 179, 150, 61, 193, 87, 176, 2, 1.16889
366\, 1, wb, filler, NA, 999, 999, 7, 19, 179, 150, 61, 193, 87, 176, 1, 0.657133
366\, 1, wb, attraction, a-b-db, 5, 1, 7, 20, 58, 132, 135, 60, 60, 135, 2, 1.76426
366\, 1, wb, attraction, a-b-db, 5, 1, 7, 20, 58, 132, 135, 60, 60, 135, 3, 0.332315
366\, 1, wb, filler, NA, 999, 999, 7, 21, 119, 129, 83, 177, 123, 151, 1, 7.8048
366\, 1, wb, filler, NA, 999, 999, 7, 21, 119, 129, 83, 177, 123, 151, 3, 0.369611
366\, 1, wb, attraction, a-b-db, 14, 3, 7, 22, 195, 120, 120, 195, 111, 181, 3, 2.47283
366\, 1, wb, attraction, a-b-db, 14, 3, 7, 22, 195, 120, 120, 195, 111, 181, 1, 0.708011
366\, 1, wb, attraction, a-b-db, 9, 3, 7, 23, 120, 195, 195, 120, 114, 186, 1, 1.46115
366\, 1, wb, attraction, a-b-db, 9, 3, 7, 23, 120, 195, 195, 120, 114, 186, 2, 0.337243
366\, 1, wb, filler, NA, 999, 999, 7, 24, 163, 185, 162, 87, 115, 179, 2, 1.40183
366\, 1, wb, filler, NA, 999, 999, 7, 24, 163, 185, 162, 87, 115, 179, 1, 0.336619
366\, 1, wb, catch, NA, 999, 999, 7, 25, 76, 119, 132, 183, 115, 140, 1, 0.793089
366\, 1, wb, catch, NA, 999, 999, 7, 25, 76, 119, 132, 183, 115, 140, 2, 0.328201
366\, 1, wb, attraction, a-b-db, 2, 3, 7, 26, 120, 195, 119, 193, 195, 120, 1, 3.50475
366\, 1, wb, attraction, a-b-db, 2, 3, 7, 26, 120, 195, 119, 193, 195, 120, 3, 0.522261
366\, 1, wb, filler, NA, 999, 999, 7, 27, 56, 182, 144, 64, 81, 105, 3, 2.31538
366\, 1, wb, filler, NA, 999, 999, 7, 27, 56, 182, 144, 64, 81, 105, 2, 0.749402
366\, 1, wb, filler, NA, 999, 999, 7, 28, 127, 85, 58, 137, 170, 123, 2, 1.06104
366\, 1, wb, filler, NA, 999, 999, 7, 28, 127, 85, 58, 137, 170, 123, 3, 0.393372
366\, 1, wb, filler, NA, 999, 999, 7, 29, 147, 141, 67, 172, 109, 82, 3, 0.95115
366\, 1, wb, filler, NA, 999, 999, 7, 29, 147, 141, 67, 172, 109, 82, 1, 0.400156
366\, 1, wb, filler, NA, 999, 999, 7, 30, 115, 56, 110, 81, 118, 63, 1, 0.72613
366\, 1, wb, filler, NA, 999, 999, 7, 30, 115, 56, 110, 81, 118, 63, 2, 0.351609
366\, 1, wb, filler, NA, 999, 999, 7, 31, 124, 176, 103, 59, 139, 150, 2, 0.631467
366\, 1, wb, filler, NA, 999, 999, 7, 31, 124, 176, 103, 59, 139, 150, 1, 0.421229
366\, 1, wb, attraction, a-b-db, 9, 1, 7, 32, 135, 60, 57, 129, 60, 135, 2, 1.83444
366\, 1, wb, attraction, a-b-db, 9, 1, 7, 32, 135, 60, 57, 129, 60, 135, 3, 0.503925
366\, 1, wb, attraction, a-b-da, 2, 3, 7, 33, 193, 119, 120, 195, 195, 120, 1, 1.47359
366\, 1, wb, attraction, a-b-da, 2, 3, 7, 33, 193, 119, 120, 195, 195, 120, 2, 0.549156
366\, 1, wb, attraction, a-b-da, 14, 3, 7, 34, 181, 111, 120, 195, 195, 120, 1, 0.836894
366\, 1, wb, attraction, a-b-da, 14, 3, 7, 34, 181, 111, 120, 195, 195, 120, 2, 0.466709
366\, 1, wb, attraction, a-b-db, 2, 2, 7, 35, 90, 165, 89, 163, 165, 90, 1, 1.92591
366\, 1, wb, attraction, a-b-db, 2, 2, 7, 35, 90, 165, 89, 163, 165, 90, 2, 0.327082
366\, 1, wb, attraction, a-b-db, 2, 1, 7, 36, 59, 134, 60, 135, 135, 60, 1, 3.61559
366\, 1, wb, attraction, a-b-db, 2, 1, 7, 36, 59, 134, 60, 135, 135, 60, 2, 0.605199
366\, 1, wb, filler, NA, 999, 999, 7, 37, 123, 178, 111, 144, 82, 116, 3, 0.898876
366\, 1, wb, filler, NA, 999, 999, 7, 37, 123, 178, 111, 144, 82, 116, 2, 0.437994
366\, 1, wb, filler, NA, 999, 999, 8, 1, 169, 167, 67, 67, 134, 91, 2, 1.25841
366\, 1, wb, filler, NA, 999, 999, 8, 1, 169, 167, 67, 67, 134, 91, 1, 0.430682
366\, 1, wb, filler, NA, 999, 999, 8, 2, 102, 94, 165, 86, 116, 106, 1, 0.819202
366\, 1, wb, filler, NA, 999, 999, 8, 2, 102, 94, 165, 86, 116, 106, 2, 0.929597
366\, 1, wb, attraction, a-b-db, 2, 2, 8, 3, 165, 90, 90, 165, 89, 163, 1, 2.21782
366\, 1, wb, attraction, a-b-db, 2, 2, 8, 3, 165, 90, 90, 165, 89, 163, 3, 0.511725
366\, 1, wb, catch, NA, 999, 999, 8, 4, 95, 160, 129, 186, 95, 100, 3, 0.840918
366\, 1, wb, catch, NA, 999, 999, 8, 4, 95, 160, 129, 186, 95, 100, 2, 0.381886
366\, 1, wb, filler, NA, 999, 999, 8, 5, 186, 140, 101, 111, 157, 65, 3, 1.10041
366\, 1, wb, filler, NA, 999, 999, 8, 5, 186, 140, 101, 111, 157, 65, 1, 0.399468
366\, 1, wb, attraction, a-b-da, 2, 2, 8, 6, 163, 89, 90, 165, 165, 90, 1, 2.16521
366\, 1, wb, attraction, a-b-da, 2, 2, 8, 6, 163, 89, 90, 165, 165, 90, 2, 0.325105
366\, 1, wb, attraction, a-b-db, 9, 2, 8, 7, 165, 90, 90, 165, 86, 157, 1, 2.05363
366\, 1, wb, attraction, a-b-db, 9, 2, 8, 7, 165, 90, 90, 165, 86, 157, 2, 0.39428
366\, 1, wb, attraction, a-b-db, 14, 2, 8, 8, 83, 153, 165, 90, 90, 165, 1, 1.98411
366\, 1, wb, attraction, a-b-db, 14, 2, 8, 8, 83, 153, 165, 90, 90, 165, 3, 0.383545
366\, 1, wb, attraction, a-b-da, 14, 3, 8, 9, 195, 120, 120, 195, 181, 111, 3, 2.26199
366\, 1, wb, attraction, a-b-da, 14, 3, 8, 9, 195, 120, 120, 195, 181, 111, 2, 0.66585
366\, 1, wb, attraction, a-b-da, 9, 3, 8, 10, 120, 195, 186, 114, 195, 120, 2, 2.50099
366\, 1, wb, attraction, a-b-da, 9, 3, 8, 10, 120, 195, 186, 114, 195, 120, 1, 0.791524
366\, 1, wb, attraction, a-b-db, 2, 1, 8, 11, 60, 135, 59, 134, 135, 60, 1, 3.90921
366\, 1, wb, attraction, a-b-db, 2, 1, 8, 11, 60, 135, 59, 134, 135, 60, 2, 0.358643
366\, 1, wb, filler, NA, 999, 999, 8, 12, 88, 117, 116, 135, 118, 114, 1, 0.837772
366\, 1, wb, filler, NA, 999, 999, 8, 12, 88, 117, 116, 135, 118, 114, 2, 0.347719
366\, 1, wb, filler, NA, 999, 999, 8, 13, 189, 57, 77, 192, 182, 129, 1, 0.811432
366\, 1, wb, filler, NA, 999, 999, 8, 13, 189, 57, 77, 192, 182, 129, 3, 0.793765
366\, 1, wb, attraction, a-b-da, 5, 3, 8, 14, 195, 120, 120, 195, 190, 117, 3, 2.06348
366\, 1, wb, attraction, a-b-da, 5, 3, 8, 14, 195, 120, 120, 195, 190, 117, 1, 0.451534
366\, 1, wb, attraction, a-b-da, 5, 1, 8, 15, 60, 135, 135, 60, 132, 58, 3, 2.46319
366\, 1, wb, attraction, a-b-da, 5, 1, 8, 15, 60, 135, 135, 60, 132, 58, 1, 0.483116
366\, 1, wb, attraction, a-b-db, 5, 3, 8, 16, 195, 120, 117, 190, 120, 195, 2, 2.37363
366\, 1, wb, attraction, a-b-db, 5, 3, 8, 16, 195, 120, 117, 190, 120, 195, 3, 0.868774
366\, 1, wb, attraction, a-b-da, 5, 2, 8, 17, 90, 165, 165, 90, 161, 88, 3, 1.38376
366\, 1, wb, attraction, a-b-da, 5, 2, 8, 17, 90, 165, 165, 90, 161, 88, 2, 0.463261
366\, 1, wb, attraction, a-b-da, 2, 1, 8, 18, 60, 135, 134, 59, 135, 60, 3, 2.01051
366\, 1, wb, attraction, a-b-da, 2, 1, 8, 18, 60, 135, 134, 59, 135, 60, 1, 0.488504
366\, 1, wb, attraction, a-b-da, 9, 2, 8, 19, 157, 86, 165, 90, 90, 165, 1, 1.57097
366\, 1, wb, attraction, a-b-da, 9, 2, 8, 19, 157, 86, 165, 90, 90, 165, 3, 0.475009
366\, 1, wb, filler, NA, 999, 999, 8, 20, 145, 168, 110, 175, 59, 75, 3, 0.725528
366\, 1, wb, filler, NA, 999, 999, 8, 20, 145, 168, 110, 175, 59, 75, 1, 0.439334
366\, 1, wb, attraction, a-b-db, 14, 3, 8, 21, 195, 120, 120, 195, 111, 181, 1, 1.93981
366\, 1, wb, attraction, a-b-db, 14, 3, 8, 21, 195, 120, 120, 195, 111, 181, 3, 0.332424
366\, 1, wb, filler, NA, 999, 999, 8, 22, 97, 171, 161, 152, 148, 88, 3, 0.85288
366\, 1, wb, filler, NA, 999, 999, 8, 22, 97, 171, 161, 152, 148, 88, 2, 0.321972
366\, 1, wb, attraction, a-b-da, 14, 1, 8, 23, 135, 60, 125, 56, 60, 135, 2, 1.29121
366\, 1, wb, attraction, a-b-da, 14, 1, 8, 23, 135, 60, 125, 56, 60, 135, 1, 0.34203
366\, 1, wb, attraction, a-b-db, 9, 3, 8, 24, 195, 120, 120, 195, 114, 186, 1, 1.9499
366\, 1, wb, attraction, a-b-db, 9, 3, 8, 24, 195, 120, 120, 195, 114, 186, 2, 0.358627
366\, 1, wb, catch, NA, 999, 999, 8, 25, 103, 92, 178, 137, 108, 147, 1, 0.669718
366\, 1, wb, catch, NA, 999, 999, 8, 25, 103, 92, 178, 137, 108, 147, 2, 0.370213
366\, 1, wb, filler, NA, 999, 999, 8, 26, 102, 99, 81, 193, 132, 134, 1, 1.19339
366\, 1, wb, filler, NA, 999, 999, 8, 26, 102, 99, 81, 193, 132, 134, 3, 0.512305
366\, 1, wb, attraction, a-b-db, 14, 1, 8, 27, 60, 135, 135, 60, 56, 125, 2, 1.23345
366\, 1, wb, attraction, a-b-db, 14, 1, 8, 27, 60, 135, 135, 60, 56, 125, 3, 0.351013
366\, 1, wb, attraction, a-b-db, 9, 1, 8, 28, 60, 135, 135, 60, 57, 129, 2, 1.35888
366\, 1, wb, attraction, a-b-db, 9, 1, 8, 28, 60, 135, 135, 60, 57, 129, 1, 0.327152
366\, 1, wb, filler, NA, 999, 999, 8, 29, 65, 122, 158, 81, 160, 57, 3, 1.63157
366\, 1, wb, filler, NA, 999, 999, 8, 29, 65, 122, 158, 81, 160, 57, 2, 0.341117
366\, 1, wb, attraction, a-b-da, 14, 2, 8, 30, 153, 83, 165, 90, 90, 165, 1, 2.56481
366\, 1, wb, attraction, a-b-da, 14, 2, 8, 30, 153, 83, 165, 90, 90, 165, 3, 0.332644
366\, 1, wb, attraction, a-b-da, 2, 3, 8, 31, 195, 120, 193, 119, 120, 195, 1, 1.55714
366\, 1, wb, attraction, a-b-da, 2, 3, 8, 31, 195, 120, 193, 119, 120, 195, 3, 0.749418
366\, 1, wb, attraction, a-b-db, 5, 1, 8, 32, 135, 60, 60, 135, 58, 132, 1, 1.73309
366\, 1, wb, attraction, a-b-db, 5, 1, 8, 32, 135, 60, 60, 135, 58, 132, 2, 0.430447
366\, 1, wb, attraction, a-b-da, 9, 1, 8, 33, 135, 60, 129, 57, 60, 135, 1, 3.77897
366\, 1, wb, attraction, a-b-da, 9, 1, 8, 33, 135, 60, 129, 57, 60, 135, 3, 0.32987
366\, 1, wb, attraction, a-b-db, 2, 3, 8, 34, 195, 120, 120, 195, 119, 193, 1, 2.42625
366\, 1, wb, attraction, a-b-db, 2, 3, 8, 34, 195, 120, 120, 195, 119, 193, 2, 0.367521
366\, 1, wb, attraction, a-b-db, 5, 2, 8, 35, 165, 90, 90, 165, 88, 161, 1, 1.63071
366\, 1, wb, attraction, a-b-db, 5, 2, 8, 35, 165, 90, 90, 165, 88, 161, 2, 0.332144
366\, 1, wb, catch, NA, 999, 999, 8, 36, 148, 167, 94, 161, 101, 94, 3, 0.836584
366\, 1, wb, catch, NA, 999, 999, 8, 36, 148, 167, 94, 161, 101, 94, 1, 0.33832
366\, 1, wb, filler, NA, 999, 999, 8, 37, 68, 170, 148, 73, 194, 160, 2, 0.730843
366\, 1, wb, filler, NA, 999, 999, 8, 37, 68, 170, 148, 73, 194, 160, 3, 0.308572
