sub_n, computer_n, bw_cond, effect, set, distance, diag, block_n, trial_n, h1, w1, h2, w2, h3, w3, choice, rt 
3, 1, bw, practice, NA, 999, 999, 0, 1, 176, 187, 82, 100, 140, 128, 1, 3.90438
3, 1, bw, practice, NA, 999, 999, 0, 1, 176, 187, 82, 100, 140, 128, 2, 2.22127
3, 1, bw, practice, NA, 999, 999, 0, 2, 150, 70, 191, 129, 77, 190, 2, 2.98862
3, 1, bw, practice, NA, 999, 999, 0, 2, 150, 70, 191, 129, 77, 190, 1, 7.57869
3, 1, bw, practice, NA, 999, 999, 0, 3, 56, 97, 179, 76, 146, 90, 3, 9.37242
3, 1, bw, practice, NA, 999, 999, 0, 3, 56, 97, 179, 76, 146, 90, 1, 1.4347
3, 1, bw, attraction, a-b-da, 2, 1, 1, 1, 60, 135, 135, 60, 134, 59, 1, 28.0906
3, 1, bw, attraction, a-b-da, 2, 1, 1, 1, 60, 135, 135, 60, 134, 59, 3, 1.63802
3, 1, bw, attraction, a-b-db, 14, 1, 1, 2, 60, 135, 135, 60, 56, 125, 1, 5.52261
3, 1, bw, attraction, a-b-db, 14, 1, 1, 2, 60, 135, 135, 60, 56, 125, 3, 3.61885
3, 1, bw, filler, NA, 999, 999, 1, 3, 92, 74, 74, 104, 111, 76, 3, 16.0169
3, 1, bw, filler, NA, 999, 999, 1, 3, 92, 74, 74, 104, 111, 76, 1, 1.09206
3, 1, bw, attraction, a-b-da, 2, 2, 1, 4, 90, 165, 163, 89, 165, 90, 1, 12.2116
3, 1, bw, attraction, a-b-da, 2, 2, 1, 4, 90, 165, 163, 89, 165, 90, 2, 3.71999
3, 1, bw, attraction, a-b-db, 14, 3, 1, 5, 111, 181, 120, 195, 195, 120, 2, 3.52187
3, 1, bw, attraction, a-b-db, 14, 3, 1, 5, 111, 181, 120, 195, 195, 120, 1, 2.40042
3, 1, bw, attraction, a-b-da, 5, 1, 1, 6, 60, 135, 132, 58, 135, 60, 1, 5.08679
3, 1, bw, attraction, a-b-da, 5, 1, 1, 6, 60, 135, 132, 58, 135, 60, 2, 5.76927
3, 1, bw, filler, NA, 999, 999, 1, 7, 90, 186, 141, 134, 77, 133, 2, 14.4866
3, 1, bw, filler, NA, 999, 999, 1, 7, 90, 186, 141, 134, 77, 133, 3, 1.3422
3, 1, bw, filler, NA, 999, 999, 1, 8, 116, 184, 191, 166, 179, 159, 2, 2.39059
3, 1, bw, filler, NA, 999, 999, 1, 8, 116, 184, 191, 166, 179, 159, 1, 1.93356
3, 1, bw, attraction, a-b-da, 2, 3, 1, 9, 120, 195, 195, 120, 193, 119, 1, 17.8308
3, 1, bw, attraction, a-b-da, 2, 3, 1, 9, 120, 195, 195, 120, 193, 119, 3, 1.45256
3, 1, bw, catch, NA, 999, 999, 1, 10, 147, 108, 107, 88, 150, 165, 3, 3.02487
3, 1, bw, catch, NA, 999, 999, 1, 10, 147, 108, 107, 88, 150, 165, 2, 1.62366
3, 1, bw, attraction, a-b-da, 9, 2, 1, 11, 165, 90, 157, 86, 90, 165, 3, 10.0679
3, 1, bw, attraction, a-b-da, 9, 2, 1, 11, 165, 90, 157, 86, 90, 165, 2, 1.51812
3, 1, bw, filler, NA, 999, 999, 1, 12, 90, 70, 116, 191, 183, 70, 2, 1.9761
3, 1, bw, filler, NA, 999, 999, 1, 12, 90, 70, 116, 191, 183, 70, 1, 1.61486
3, 1, bw, attraction, a-b-db, 9, 3, 1, 13, 195, 120, 114, 186, 120, 195, 3, 6.18003
3, 1, bw, attraction, a-b-db, 9, 3, 1, 13, 195, 120, 114, 186, 120, 195, 2, 1.65043
3, 1, bw, attraction, a-b-da, 5, 3, 1, 14, 190, 117, 120, 195, 195, 120, 2, 16.1021
3, 1, bw, attraction, a-b-da, 5, 3, 1, 14, 190, 117, 120, 195, 195, 120, 1, 1.29087
3, 1, bw, attraction, a-b-db, 9, 1, 1, 15, 60, 135, 135, 60, 57, 129, 1, 13.46
3, 1, bw, attraction, a-b-db, 9, 1, 1, 15, 60, 135, 135, 60, 57, 129, 3, 1.11749
3, 1, bw, attraction, a-b-db, 5, 2, 1, 16, 88, 161, 165, 90, 90, 165, 2, 9.71132
3, 1, bw, attraction, a-b-db, 5, 2, 1, 16, 88, 161, 165, 90, 90, 165, 1, 1.9901
3, 1, bw, attraction, a-b-db, 14, 2, 1, 17, 165, 90, 90, 165, 83, 153, 2, 4.4453
3, 1, bw, attraction, a-b-db, 14, 2, 1, 17, 165, 90, 90, 165, 83, 153, 3, 1.14683
3, 1, bw, filler, NA, 999, 999, 1, 18, 88, 182, 173, 173, 70, 64, 2, 2.04212
3, 1, bw, filler, NA, 999, 999, 1, 18, 88, 182, 173, 173, 70, 64, 3, 2.06954
3, 1, bw, catch, NA, 999, 999, 1, 19, 163, 152, 107, 88, 121, 134, 1, 1.64086
3, 1, bw, catch, NA, 999, 999, 1, 19, 163, 152, 107, 88, 121, 134, 2, 1.61655
3, 1, bw, filler, NA, 999, 999, 1, 20, 133, 180, 139, 115, 92, 168, 1, 2.62827
3, 1, bw, filler, NA, 999, 999, 1, 20, 133, 180, 139, 115, 92, 168, 2, 2.64885
3, 1, bw, filler, NA, 999, 999, 1, 21, 136, 130, 78, 116, 195, 60, 1, 2.74121
3, 1, bw, filler, NA, 999, 999, 1, 21, 136, 130, 78, 116, 195, 60, 2, 1.47681
3, 1, bw, attraction, a-b-da, 9, 1, 1, 22, 60, 135, 129, 57, 135, 60, 1, 8.40162
3, 1, bw, attraction, a-b-da, 9, 1, 1, 22, 60, 135, 129, 57, 135, 60, 2, 1.48504
3, 1, bw, attraction, a-b-da, 9, 3, 1, 23, 186, 114, 120, 195, 195, 120, 2, 5.82211
3, 1, bw, attraction, a-b-da, 9, 3, 1, 23, 186, 114, 120, 195, 195, 120, 1, 6.22887
3, 1, bw, filler, NA, 999, 999, 1, 24, 138, 118, 121, 133, 153, 112, 3, 4.0944
3, 1, bw, filler, NA, 999, 999, 1, 24, 138, 118, 121, 133, 153, 112, 2, 5.12802
3, 1, bw, attraction, a-b-db, 2, 2, 1, 25, 165, 90, 90, 165, 89, 163, 1, 7.0106
3, 1, bw, attraction, a-b-db, 2, 2, 1, 25, 165, 90, 90, 165, 89, 163, 3, 1.10301
3, 1, bw, filler, NA, 999, 999, 1, 26, 102, 192, 186, 186, 177, 82, 2, 1.8719
3, 1, bw, filler, NA, 999, 999, 1, 26, 102, 192, 186, 186, 177, 82, 3, 1.77306
3, 1, bw, filler, NA, 999, 999, 1, 27, 80, 149, 89, 72, 155, 133, 3, 4.89747
3, 1, bw, filler, NA, 999, 999, 1, 27, 80, 149, 89, 72, 155, 133, 2, 1.63584
3, 1, bw, attraction, a-b-db, 2, 1, 1, 28, 135, 60, 59, 134, 60, 135, 2, 3.91324
3, 1, bw, attraction, a-b-db, 2, 1, 1, 28, 135, 60, 59, 134, 60, 135, 1, 3.10613
3, 1, bw, attraction, a-b-da, 14, 3, 1, 29, 181, 111, 120, 195, 195, 120, 2, 8.14721
3, 1, bw, attraction, a-b-da, 14, 3, 1, 29, 181, 111, 120, 195, 195, 120, 1, 8.00269
3, 1, bw, attraction, a-b-da, 14, 1, 1, 30, 60, 135, 125, 56, 135, 60, 1, 7.31732
3, 1, bw, attraction, a-b-da, 14, 1, 1, 30, 60, 135, 125, 56, 135, 60, 2, 1.12402
3, 1, bw, attraction, a-b-da, 14, 2, 1, 31, 90, 165, 165, 90, 153, 83, 1, 2.96592
3, 1, bw, attraction, a-b-da, 14, 2, 1, 31, 90, 165, 165, 90, 153, 83, 3, 1.33386
3, 1, bw, catch, NA, 999, 999, 1, 32, 155, 100, 119, 76, 122, 193, 3, 1.75015
3, 1, bw, catch, NA, 999, 999, 1, 32, 155, 100, 119, 76, 122, 193, 2, 1.296
3, 1, bw, attraction, a-b-da, 5, 2, 1, 33, 90, 165, 161, 88, 165, 90, 1, 2.79438
3, 1, bw, attraction, a-b-da, 5, 2, 1, 33, 90, 165, 161, 88, 165, 90, 3, 0.992535
3, 1, bw, attraction, a-b-db, 5, 3, 1, 34, 120, 195, 195, 120, 117, 190, 1, 14.5437
3, 1, bw, attraction, a-b-db, 5, 3, 1, 34, 120, 195, 195, 120, 117, 190, 3, 0.771842
3, 1, bw, attraction, a-b-db, 5, 1, 1, 35, 58, 132, 60, 135, 135, 60, 2, 3.01875
3, 1, bw, attraction, a-b-db, 5, 1, 1, 35, 58, 132, 60, 135, 135, 60, 1, 1.66507
3, 1, bw, attraction, a-b-db, 2, 3, 1, 36, 120, 195, 119, 193, 195, 120, 3, 30.8296
3, 1, bw, attraction, a-b-db, 2, 3, 1, 36, 120, 195, 119, 193, 195, 120, 2, 4.99347
3, 1, bw, attraction, a-b-db, 9, 2, 1, 37, 165, 90, 86, 157, 90, 165, 3, 5.58837
3, 1, bw, attraction, a-b-db, 9, 2, 1, 37, 165, 90, 86, 157, 90, 165, 2, 2.99743
3, 1, bw, filler, NA, 999, 999, 2, 1, 97, 78, 74, 118, 187, 93, 3, 3.10608
3, 1, bw, filler, NA, 999, 999, 2, 1, 97, 78, 74, 118, 187, 93, 1, 1.51451
3, 1, bw, attraction, a-b-db, 9, 1, 2, 2, 60, 135, 57, 129, 135, 60, 3, 10.0532
3, 1, bw, attraction, a-b-db, 9, 1, 2, 2, 60, 135, 57, 129, 135, 60, 2, 1.4024
3, 1, bw, filler, NA, 999, 999, 2, 3, 111, 131, 104, 102, 137, 164, 3, 1.89306
3, 1, bw, filler, NA, 999, 999, 2, 3, 111, 131, 104, 102, 137, 164, 2, 1.75996
3, 1, bw, attraction, a-b-da, 5, 3, 2, 4, 120, 195, 195, 120, 190, 117, 2, 2.05658
3, 1, bw, attraction, a-b-da, 5, 3, 2, 4, 120, 195, 195, 120, 190, 117, 3, 2.27687
3, 1, bw, attraction, a-b-da, 14, 2, 2, 5, 90, 165, 165, 90, 153, 83, 1, 5.09372
3, 1, bw, attraction, a-b-da, 14, 2, 2, 5, 90, 165, 165, 90, 153, 83, 3, 3.08068
3, 1, bw, filler, NA, 999, 999, 2, 6, 141, 125, 70, 187, 99, 125, 1, 8.27601
3, 1, bw, filler, NA, 999, 999, 2, 6, 141, 125, 70, 187, 99, 125, 3, 11.2371
3, 1, bw, filler, NA, 999, 999, 2, 7, 126, 159, 77, 146, 88, 155, 1, 3.62229
3, 1, bw, filler, NA, 999, 999, 2, 7, 126, 159, 77, 146, 88, 155, 2, 1.6283
3, 1, bw, catch, NA, 999, 999, 2, 8, 158, 97, 176, 139, 83, 112, 2, 1.64107
3, 1, bw, catch, NA, 999, 999, 2, 8, 158, 97, 176, 139, 83, 112, 3, 1.15885
3, 1, bw, catch, NA, 999, 999, 2, 9, 175, 140, 108, 147, 91, 104, 1, 2.14263
3, 1, bw, catch, NA, 999, 999, 2, 9, 175, 140, 108, 147, 91, 104, 3, 0.945522
3, 1, bw, attraction, a-b-db, 14, 2, 2, 10, 90, 165, 83, 153, 165, 90, 3, 6.4495
3, 1, bw, attraction, a-b-db, 14, 2, 2, 10, 90, 165, 83, 153, 165, 90, 2, 4.99697
3, 1, bw, attraction, a-b-da, 9, 2, 2, 11, 90, 165, 165, 90, 157, 86, 2, 8.089
3, 1, bw, attraction, a-b-da, 9, 2, 2, 11, 90, 165, 165, 90, 157, 86, 3, 1.12126
3, 1, bw, attraction, a-b-db, 9, 3, 2, 12, 195, 120, 120, 195, 114, 186, 1, 6.68447
3, 1, bw, attraction, a-b-db, 9, 3, 2, 12, 195, 120, 120, 195, 114, 186, 3, 1.57235
3, 1, bw, filler, NA, 999, 999, 2, 13, 114, 165, 60, 86, 86, 102, 1, 1.7068
3, 1, bw, filler, NA, 999, 999, 2, 13, 114, 165, 60, 86, 86, 102, 2, 0.982341
3, 1, bw, attraction, a-b-da, 14, 1, 2, 14, 135, 60, 125, 56, 60, 135, 3, 4.06065
3, 1, bw, attraction, a-b-da, 14, 1, 2, 14, 135, 60, 125, 56, 60, 135, 2, 1.7455
3, 1, bw, attraction, a-b-da, 14, 3, 2, 15, 181, 111, 195, 120, 120, 195, 2, 7.65755
3, 1, bw, attraction, a-b-da, 14, 3, 2, 15, 181, 111, 195, 120, 120, 195, 3, 0.707565
3, 1, bw, filler, NA, 999, 999, 2, 16, 140, 98, 157, 101, 152, 126, 3, 2.638
3, 1, bw, filler, NA, 999, 999, 2, 16, 140, 98, 157, 101, 152, 126, 1, 1.53923
3, 1, bw, filler, NA, 999, 999, 2, 17, 161, 154, 155, 128, 110, 99, 1, 2.06768
3, 1, bw, filler, NA, 999, 999, 2, 17, 161, 154, 155, 128, 110, 99, 3, 1.2865
3, 1, bw, attraction, a-b-db, 5, 1, 2, 18, 60, 135, 135, 60, 58, 132, 2, 6.45093
3, 1, bw, attraction, a-b-db, 5, 1, 2, 18, 60, 135, 135, 60, 58, 132, 1, 2.49021
3, 1, bw, attraction, a-b-db, 2, 3, 2, 19, 119, 193, 120, 195, 195, 120, 3, 1.74114
3, 1, bw, attraction, a-b-db, 2, 3, 2, 19, 119, 193, 120, 195, 195, 120, 1, 8.11926
3, 1, bw, attraction, a-b-da, 2, 1, 2, 20, 60, 135, 135, 60, 134, 59, 1, 5.26238
3, 1, bw, attraction, a-b-da, 2, 1, 2, 20, 60, 135, 135, 60, 134, 59, 2, 2.05754
3, 1, bw, catch, NA, 999, 999, 2, 21, 191, 124, 163, 92, 114, 81, 1, 1.78193
3, 1, bw, catch, NA, 999, 999, 2, 21, 191, 124, 163, 92, 114, 81, 3, 0.933043
3, 1, bw, attraction, a-b-da, 5, 1, 2, 22, 135, 60, 60, 135, 132, 58, 2, 3.31636
3, 1, bw, attraction, a-b-da, 5, 1, 2, 22, 135, 60, 60, 135, 132, 58, 3, 1.34222
3, 1, bw, filler, NA, 999, 999, 2, 23, 144, 131, 187, 99, 156, 181, 3, 3.83961
3, 1, bw, filler, NA, 999, 999, 2, 23, 144, 131, 187, 99, 156, 181, 1, 2.94765
3, 1, bw, filler, NA, 999, 999, 2, 24, 83, 148, 168, 159, 97, 84, 2, 1.70025
3, 1, bw, filler, NA, 999, 999, 2, 24, 83, 148, 168, 159, 97, 84, 3, 1.119
3, 1, bw, attraction, a-b-db, 5, 2, 2, 25, 90, 165, 88, 161, 165, 90, 1, 11.0469
3, 1, bw, attraction, a-b-db, 5, 2, 2, 25, 90, 165, 88, 161, 165, 90, 2, 1.02439
3, 1, bw, attraction, a-b-db, 14, 3, 2, 26, 120, 195, 111, 181, 195, 120, 1, 5.57377
3, 1, bw, attraction, a-b-db, 14, 3, 2, 26, 120, 195, 111, 181, 195, 120, 2, 1.86101
3, 1, bw, attraction, a-b-db, 2, 1, 2, 27, 60, 135, 135, 60, 59, 134, 2, 26.1913
3, 1, bw, attraction, a-b-db, 2, 1, 2, 27, 60, 135, 135, 60, 59, 134, 3, 0.960318
3, 1, bw, attraction, a-b-da, 5, 2, 2, 28, 161, 88, 90, 165, 165, 90, 3, 2.42578
3, 1, bw, attraction, a-b-da, 5, 2, 2, 28, 161, 88, 90, 165, 165, 90, 1, 1.23262
3, 1, bw, attraction, a-b-da, 2, 3, 2, 29, 120, 195, 193, 119, 195, 120, 1, 3.55526
3, 1, bw, attraction, a-b-da, 2, 3, 2, 29, 120, 195, 193, 119, 195, 120, 2, 1.36139
3, 1, bw, attraction, a-b-da, 9, 3, 2, 30, 195, 120, 186, 114, 120, 195, 3, 2.54559
3, 1, bw, attraction, a-b-da, 9, 3, 2, 30, 195, 120, 186, 114, 120, 195, 2, 1.58621
3, 1, bw, attraction, a-b-da, 2, 2, 2, 31, 90, 165, 165, 90, 163, 89, 1, 1.79966
3, 1, bw, attraction, a-b-da, 2, 2, 2, 31, 90, 165, 165, 90, 163, 89, 2, 2.43772
3, 1, bw, attraction, a-b-db, 9, 2, 2, 32, 90, 165, 165, 90, 86, 157, 2, 2.26002
3, 1, bw, attraction, a-b-db, 9, 2, 2, 32, 90, 165, 165, 90, 86, 157, 3, 2.22441
3, 1, bw, attraction, a-b-db, 2, 2, 2, 33, 90, 165, 89, 163, 165, 90, 3, 4.56291
3, 1, bw, attraction, a-b-db, 2, 2, 2, 33, 90, 165, 89, 163, 165, 90, 1, 1.07409
3, 1, bw, attraction, a-b-db, 5, 3, 2, 34, 117, 190, 195, 120, 120, 195, 2, 2.93298
3, 1, bw, attraction, a-b-db, 5, 3, 2, 34, 117, 190, 195, 120, 120, 195, 1, 2.70505
3, 1, bw, attraction, a-b-db, 14, 1, 2, 35, 60, 135, 135, 60, 56, 125, 2, 2.86439
3, 1, bw, attraction, a-b-db, 14, 1, 2, 35, 60, 135, 135, 60, 56, 125, 3, 0.989652
3, 1, bw, filler, NA, 999, 999, 2, 36, 73, 156, 179, 116, 87, 124, 2, 1.34563
3, 1, bw, filler, NA, 999, 999, 2, 36, 73, 156, 179, 116, 87, 124, 3, 10.4521
3, 1, bw, attraction, a-b-da, 9, 1, 2, 37, 60, 135, 135, 60, 129, 57, 1, 2.07676
3, 1, bw, attraction, a-b-da, 9, 1, 2, 37, 60, 135, 135, 60, 129, 57, 3, 1.19231
3, 1, bw, attraction, a-b-da, 14, 1, 3, 1, 60, 135, 135, 60, 125, 56, 1, 1.88813
3, 1, bw, attraction, a-b-da, 14, 1, 3, 1, 60, 135, 135, 60, 125, 56, 3, 0.906616
3, 1, bw, filler, NA, 999, 999, 3, 2, 181, 112, 104, 105, 117, 178, 3, 16.6506
3, 1, bw, filler, NA, 999, 999, 3, 2, 181, 112, 104, 105, 117, 178, 2, 0.940204
3, 1, bw, attraction, a-b-db, 9, 3, 3, 3, 114, 186, 120, 195, 195, 120, 3, 5.50084
3, 1, bw, attraction, a-b-db, 9, 3, 3, 3, 114, 186, 120, 195, 195, 120, 1, 1.02004
3, 1, bw, filler, NA, 999, 999, 3, 4, 141, 83, 133, 85, 81, 131, 3, 9.7641
3, 1, bw, filler, NA, 999, 999, 3, 4, 141, 83, 133, 85, 81, 131, 1, 1.54281
3, 1, bw, attraction, a-b-da, 5, 2, 3, 5, 90, 165, 165, 90, 161, 88, 1, 2.55966
3, 1, bw, attraction, a-b-da, 5, 2, 3, 5, 90, 165, 165, 90, 161, 88, 3, 1.61761
3, 1, bw, attraction, a-b-db, 2, 2, 3, 6, 89, 163, 165, 90, 90, 165, 2, 9.56448
3, 1, bw, attraction, a-b-db, 2, 2, 3, 6, 89, 163, 165, 90, 90, 165, 3, 0.7807
3, 1, bw, attraction, a-b-da, 2, 1, 3, 7, 60, 135, 134, 59, 135, 60, 1, 3.11587
3, 1, bw, attraction, a-b-da, 2, 1, 3, 7, 60, 135, 134, 59, 135, 60, 2, 1.03747
3, 1, bw, filler, NA, 999, 999, 3, 8, 146, 136, 116, 135, 76, 167, 1, 9.27378
3, 1, bw, filler, NA, 999, 999, 3, 8, 146, 136, 116, 135, 76, 167, 3, 1.12175
3, 1, bw, attraction, a-b-db, 5, 3, 3, 9, 120, 195, 117, 190, 195, 120, 3, 13.5878
3, 1, bw, attraction, a-b-db, 5, 3, 3, 9, 120, 195, 117, 190, 195, 120, 1, 0.942053
3, 1, bw, attraction, a-b-da, 2, 2, 3, 10, 163, 89, 90, 165, 165, 90, 2, 2.43098
3, 1, bw, attraction, a-b-da, 2, 2, 3, 10, 163, 89, 90, 165, 165, 90, 3, 0.707129
3, 1, bw, filler, NA, 999, 999, 3, 11, 97, 158, 70, 109, 56, 153, 1, 1.7498
3, 1, bw, filler, NA, 999, 999, 3, 11, 97, 158, 70, 109, 56, 153, 2, 1.40574
3, 1, bw, attraction, a-b-da, 9, 3, 3, 12, 120, 195, 195, 120, 186, 114, 1, 3.61284
3, 1, bw, attraction, a-b-da, 9, 3, 3, 12, 120, 195, 195, 120, 186, 114, 3, 0.729505
3, 1, bw, attraction, a-b-db, 14, 3, 3, 13, 120, 195, 111, 181, 195, 120, 3, 9.85146
3, 1, bw, attraction, a-b-db, 14, 3, 3, 13, 120, 195, 111, 181, 195, 120, 2, 0.701608
3, 1, bw, attraction, a-b-da, 9, 2, 3, 14, 157, 86, 90, 165, 165, 90, 3, 8.60653
3, 1, bw, attraction, a-b-da, 9, 2, 3, 14, 157, 86, 90, 165, 165, 90, 1, 0.883726
3, 1, bw, attraction, a-b-db, 5, 2, 3, 15, 88, 161, 90, 165, 165, 90, 3, 6.2381
3, 1, bw, attraction, a-b-db, 5, 2, 3, 15, 88, 161, 90, 165, 165, 90, 1, 1.25894
3, 1, bw, attraction, a-b-da, 5, 1, 3, 16, 60, 135, 135, 60, 132, 58, 1, 5.07912
3, 1, bw, attraction, a-b-da, 5, 1, 3, 16, 60, 135, 135, 60, 132, 58, 3, 1.27956
3, 1, bw, attraction, a-b-db, 14, 1, 3, 17, 135, 60, 56, 125, 60, 135, 3, 6.28966
3, 1, bw, attraction, a-b-db, 14, 1, 3, 17, 135, 60, 56, 125, 60, 135, 1, 0.701842
3, 1, bw, attraction, a-b-da, 5, 3, 3, 18, 190, 117, 195, 120, 120, 195, 3, 3.81313
3, 1, bw, attraction, a-b-da, 5, 3, 3, 18, 190, 117, 195, 120, 120, 195, 1, 0.898527
3, 1, bw, attraction, a-b-da, 9, 1, 3, 19, 60, 135, 129, 57, 135, 60, 1, 2.78278
3, 1, bw, attraction, a-b-da, 9, 1, 3, 19, 60, 135, 129, 57, 135, 60, 2, 1.40575
3, 1, bw, attraction, a-b-db, 2, 3, 3, 20, 195, 120, 119, 193, 120, 195, 1, 1.85063
3, 1, bw, attraction, a-b-db, 2, 3, 3, 20, 195, 120, 119, 193, 120, 195, 3, 3.67185
3, 1, bw, filler, NA, 999, 999, 3, 21, 154, 123, 133, 83, 60, 163, 1, 2.10489
3, 1, bw, filler, NA, 999, 999, 3, 21, 154, 123, 133, 83, 60, 163, 3, 2.16401
3, 1, bw, catch, NA, 999, 999, 3, 22, 163, 92, 154, 161, 87, 108, 2, 2.6587
3, 1, bw, catch, NA, 999, 999, 3, 22, 163, 92, 154, 161, 87, 108, 3, 0.935691
3, 1, bw, catch, NA, 999, 999, 3, 23, 150, 105, 170, 145, 114, 81, 2, 2.2546
3, 1, bw, catch, NA, 999, 999, 3, 23, 150, 105, 170, 145, 114, 81, 3, 0.74051
3, 1, bw, attraction, a-b-da, 14, 3, 3, 24, 120, 195, 195, 120, 181, 111, 2, 3.3657
3, 1, bw, attraction, a-b-da, 14, 3, 3, 24, 120, 195, 195, 120, 181, 111, 3, 0.763871
3, 1, bw, filler, NA, 999, 999, 3, 25, 185, 140, 118, 190, 59, 190, 1, 1.46155
3, 1, bw, filler, NA, 999, 999, 3, 25, 185, 140, 118, 190, 59, 190, 3, 0.631686
3, 1, bw, filler, NA, 999, 999, 3, 26, 147, 156, 188, 92, 155, 135, 1, 3.87848
3, 1, bw, filler, NA, 999, 999, 3, 26, 147, 156, 188, 92, 155, 135, 2, 1.04842
3, 1, bw, catch, NA, 999, 999, 3, 27, 160, 155, 128, 67, 91, 164, 1, 1.26764
3, 1, bw, catch, NA, 999, 999, 3, 27, 160, 155, 128, 67, 91, 164, 2, 0.720361
3, 1, bw, attraction, a-b-db, 2, 1, 3, 28, 60, 135, 135, 60, 59, 134, 1, 6.48913
3, 1, bw, attraction, a-b-db, 2, 1, 3, 28, 60, 135, 135, 60, 59, 134, 2, 5.85796
3, 1, bw, attraction, a-b-da, 14, 2, 3, 29, 165, 90, 90, 165, 153, 83, 2, 6.06125
3, 1, bw, attraction, a-b-da, 14, 2, 3, 29, 165, 90, 90, 165, 153, 83, 3, 0.577455
3, 1, bw, filler, NA, 999, 999, 3, 30, 129, 156, 98, 58, 62, 82, 1, 1.28015
3, 1, bw, filler, NA, 999, 999, 3, 30, 129, 156, 98, 58, 62, 82, 3, 1.14841
3, 1, bw, attraction, a-b-db, 5, 1, 3, 31, 58, 132, 135, 60, 60, 135, 3, 9.17259
3, 1, bw, attraction, a-b-db, 5, 1, 3, 31, 58, 132, 135, 60, 60, 135, 2, 0.833718
3, 1, bw, attraction, a-b-db, 14, 2, 3, 32, 83, 153, 165, 90, 90, 165, 3, 3.83519
3, 1, bw, attraction, a-b-db, 14, 2, 3, 32, 83, 153, 165, 90, 90, 165, 1, 0.610488
3, 1, bw, filler, NA, 999, 999, 3, 33, 140, 95, 191, 131, 149, 180, 3, 6.88587
3, 1, bw, filler, NA, 999, 999, 3, 33, 140, 95, 191, 131, 149, 180, 1, 0.682448
3, 1, bw, attraction, a-b-da, 2, 3, 3, 34, 195, 120, 120, 195, 193, 119, 2, 3.44309
3, 1, bw, attraction, a-b-da, 2, 3, 3, 34, 195, 120, 120, 195, 193, 119, 1, 1.01692
3, 1, bw, attraction, a-b-db, 9, 1, 3, 35, 60, 135, 135, 60, 57, 129, 1, 6.67706
3, 1, bw, attraction, a-b-db, 9, 1, 3, 35, 60, 135, 135, 60, 57, 129, 2, 0.520527
3, 1, bw, filler, NA, 999, 999, 3, 36, 90, 77, 173, 158, 173, 96, 2, 1.63323
3, 1, bw, filler, NA, 999, 999, 3, 36, 90, 77, 173, 158, 173, 96, 1, 0.671031
3, 1, bw, attraction, a-b-db, 9, 2, 3, 37, 165, 90, 90, 165, 86, 157, 2, 5.35346
3, 1, bw, attraction, a-b-db, 9, 2, 3, 37, 165, 90, 90, 165, 86, 157, 3, 1.49565
3, 1, bw, filler, NA, 999, 999, 4, 1, 107, 90, 131, 124, 103, 70, 2, 1.30123
3, 1, bw, filler, NA, 999, 999, 4, 1, 107, 90, 131, 124, 103, 70, 3, 0.967341
3, 1, bw, attraction, a-b-da, 5, 1, 4, 2, 132, 58, 135, 60, 60, 135, 2, 1.31846
3, 1, bw, attraction, a-b-da, 5, 1, 4, 2, 132, 58, 135, 60, 60, 135, 1, 2.04813
3, 1, bw, attraction, a-b-da, 2, 2, 4, 3, 90, 165, 163, 89, 165, 90, 1, 3.06112
3, 1, bw, attraction, a-b-da, 2, 2, 4, 3, 90, 165, 163, 89, 165, 90, 2, 4.82574
3, 1, bw, attraction, a-b-da, 5, 3, 4, 4, 190, 117, 120, 195, 195, 120, 2, 2.99683
3, 1, bw, attraction, a-b-da, 5, 3, 4, 4, 190, 117, 120, 195, 195, 120, 3, 0.690313
3, 1, bw, attraction, a-b-db, 9, 2, 4, 5, 90, 165, 86, 157, 165, 90, 3, 1.48354
3, 1, bw, attraction, a-b-db, 9, 2, 4, 5, 90, 165, 86, 157, 165, 90, 1, 1.29458
3, 1, bw, attraction, a-b-db, 2, 2, 4, 6, 165, 90, 89, 163, 90, 165, 1, 2.53022
3, 1, bw, attraction, a-b-db, 2, 2, 4, 6, 165, 90, 89, 163, 90, 165, 2, 1.92456
3, 1, bw, catch, NA, 999, 999, 4, 7, 100, 95, 194, 121, 125, 130, 2, 1.78762
3, 1, bw, catch, NA, 999, 999, 4, 7, 100, 95, 194, 121, 125, 130, 1, 0.972672
3, 1, bw, filler, NA, 999, 999, 4, 8, 149, 154, 171, 174, 143, 116, 2, 2.10498
3, 1, bw, filler, NA, 999, 999, 4, 8, 149, 154, 171, 174, 143, 116, 3, 0.731227
3, 1, bw, filler, NA, 999, 999, 4, 9, 105, 78, 151, 140, 79, 145, 2, 1.21241
3, 1, bw, filler, NA, 999, 999, 4, 9, 105, 78, 151, 140, 79, 145, 1, 0.580963
3, 1, bw, attraction, a-b-db, 9, 1, 4, 10, 60, 135, 135, 60, 57, 129, 2, 5.98721
3, 1, bw, attraction, a-b-db, 9, 1, 4, 10, 60, 135, 135, 60, 57, 129, 3, 0.722314
3, 1, bw, filler, NA, 999, 999, 4, 11, 151, 89, 125, 162, 150, 61, 2, 1.60145
3, 1, bw, filler, NA, 999, 999, 4, 11, 151, 89, 125, 162, 150, 61, 3, 0.897051
3, 1, bw, attraction, a-b-db, 14, 3, 4, 12, 111, 181, 195, 120, 120, 195, 2, 6.25886
3, 1, bw, attraction, a-b-db, 14, 3, 4, 12, 111, 181, 195, 120, 120, 195, 1, 0.589386
3, 1, bw, attraction, a-b-da, 14, 2, 4, 13, 153, 83, 90, 165, 165, 90, 2, 1.72437
3, 1, bw, attraction, a-b-da, 14, 2, 4, 13, 153, 83, 90, 165, 165, 90, 1, 0.775994
3, 1, bw, attraction, a-b-db, 5, 3, 4, 14, 195, 120, 120, 195, 117, 190, 1, 1.78986
3, 1, bw, attraction, a-b-db, 5, 3, 4, 14, 195, 120, 120, 195, 117, 190, 3, 1.66232
3, 1, bw, filler, NA, 999, 999, 4, 15, 144, 171, 171, 190, 185, 178, 3, 4.36925
3, 1, bw, filler, NA, 999, 999, 4, 15, 144, 171, 171, 190, 185, 178, 1, 0.992378
3, 1, bw, attraction, a-b-da, 9, 3, 4, 16, 120, 195, 186, 114, 195, 120, 2, 3.7032
3, 1, bw, attraction, a-b-da, 9, 3, 4, 16, 120, 195, 186, 114, 195, 120, 3, 2.90514
3, 1, bw, attraction, a-b-da, 5, 2, 4, 17, 90, 165, 165, 90, 161, 88, 1, 5.44994
3, 1, bw, attraction, a-b-da, 5, 2, 4, 17, 90, 165, 165, 90, 161, 88, 3, 1.59201
3, 1, bw, filler, NA, 999, 999, 4, 18, 104, 167, 111, 106, 185, 186, 3, 1.34755
3, 1, bw, filler, NA, 999, 999, 4, 18, 104, 167, 111, 106, 185, 186, 2, 0.635895
3, 1, bw, catch, NA, 999, 999, 4, 19, 96, 159, 127, 188, 120, 75, 2, 1.61631
3, 1, bw, catch, NA, 999, 999, 4, 19, 96, 159, 127, 188, 120, 75, 3, 1.47072
3, 1, bw, attraction, a-b-db, 9, 3, 4, 20, 195, 120, 114, 186, 120, 195, 1, 1.7442
3, 1, bw, attraction, a-b-db, 9, 3, 4, 20, 195, 120, 114, 186, 120, 195, 2, 1.37844
3, 1, bw, attraction, a-b-db, 2, 3, 4, 21, 195, 120, 120, 195, 119, 193, 1, 7.03359
3, 1, bw, attraction, a-b-db, 2, 3, 4, 21, 195, 120, 120, 195, 119, 193, 3, 0.661405
3, 1, bw, attraction, a-b-da, 14, 1, 4, 22, 60, 135, 125, 56, 135, 60, 1, 1.89665
3, 1, bw, attraction, a-b-da, 14, 1, 4, 22, 60, 135, 125, 56, 135, 60, 2, 1.18022
3, 1, bw, catch, NA, 999, 999, 4, 23, 178, 137, 116, 139, 95, 100, 1, 1.07445
3, 1, bw, catch, NA, 999, 999, 4, 23, 178, 137, 116, 139, 95, 100, 3, 0.694277
3, 1, bw, attraction, a-b-db, 5, 1, 4, 24, 135, 60, 60, 135, 58, 132, 2, 2.0263
3, 1, bw, attraction, a-b-db, 5, 1, 4, 24, 135, 60, 60, 135, 58, 132, 3, 0.983924
3, 1, bw, attraction, a-b-da, 2, 1, 4, 25, 60, 135, 135, 60, 134, 59, 1, 1.58246
3, 1, bw, attraction, a-b-da, 2, 1, 4, 25, 60, 135, 135, 60, 134, 59, 3, 0.989295
3, 1, bw, attraction, a-b-db, 14, 2, 4, 26, 90, 165, 83, 153, 165, 90, 3, 1.98784
3, 1, bw, attraction, a-b-db, 14, 2, 4, 26, 90, 165, 83, 153, 165, 90, 2, 0.698605
3, 1, bw, attraction, a-b-db, 14, 1, 4, 27, 135, 60, 60, 135, 56, 125, 1, 3.99703
3, 1, bw, attraction, a-b-db, 14, 1, 4, 27, 135, 60, 60, 135, 56, 125, 3, 0.674788
3, 1, bw, attraction, a-b-da, 2, 3, 4, 28, 193, 119, 195, 120, 120, 195, 3, 2.87857
3, 1, bw, attraction, a-b-da, 2, 3, 4, 28, 193, 119, 195, 120, 120, 195, 2, 1.17784
3, 1, bw, filler, NA, 999, 999, 4, 29, 65, 113, 76, 128, 125, 133, 3, 1.15893
3, 1, bw, filler, NA, 999, 999, 4, 29, 65, 113, 76, 128, 125, 133, 1, 0.730177
3, 1, bw, attraction, a-b-da, 9, 2, 4, 30, 157, 86, 165, 90, 90, 165, 3, 2.28209
3, 1, bw, attraction, a-b-da, 9, 2, 4, 30, 157, 86, 165, 90, 90, 165, 1, 2.34944
3, 1, bw, filler, NA, 999, 999, 4, 31, 89, 91, 71, 117, 113, 90, 3, 3.04712
3, 1, bw, filler, NA, 999, 999, 4, 31, 89, 91, 71, 117, 113, 90, 1, 0.817709
3, 1, bw, attraction, a-b-da, 9, 1, 4, 32, 60, 135, 135, 60, 129, 57, 1, 3.19275
3, 1, bw, attraction, a-b-da, 9, 1, 4, 32, 60, 135, 135, 60, 129, 57, 3, 2.62903
3, 1, bw, attraction, a-b-da, 14, 3, 4, 33, 120, 195, 195, 120, 181, 111, 1, 3.10703
3, 1, bw, attraction, a-b-da, 14, 3, 4, 33, 120, 195, 195, 120, 181, 111, 3, 0.957399
3, 1, bw, filler, NA, 999, 999, 4, 34, 95, 187, 76, 195, 92, 66, 2, 3.93863
3, 1, bw, filler, NA, 999, 999, 4, 34, 95, 187, 76, 195, 92, 66, 3, 1.48475
3, 1, bw, attraction, a-b-db, 5, 2, 4, 35, 88, 161, 165, 90, 90, 165, 2, 2.7207
3, 1, bw, attraction, a-b-db, 5, 2, 4, 35, 88, 161, 165, 90, 90, 165, 1, 0.584979
3, 1, bw, attraction, a-b-db, 2, 1, 4, 36, 135, 60, 59, 134, 60, 135, 1, 2.03935
3, 1, bw, attraction, a-b-db, 2, 1, 4, 36, 135, 60, 59, 134, 60, 135, 3, 0.819368
3, 1, bw, filler, NA, 999, 999, 4, 37, 155, 191, 142, 190, 57, 59, 1, 2.23512
3, 1, bw, filler, NA, 999, 999, 4, 37, 155, 191, 142, 190, 57, 59, 3, 0.871616
3, 1, bw, catch, NA, 999, 999, 5, 1, 191, 124, 69, 126, 110, 145, 1, 19.6645
3, 1, bw, catch, NA, 999, 999, 5, 1, 191, 124, 69, 126, 110, 145, 2, 0.785053
3, 1, bw, attraction, a-b-da, 14, 2, 5, 2, 165, 90, 153, 83, 90, 165, 3, 3.32634
3, 1, bw, attraction, a-b-da, 14, 2, 5, 2, 165, 90, 153, 83, 90, 165, 2, 0.704918
3, 1, bw, attraction, a-b-db, 5, 3, 5, 3, 195, 120, 117, 190, 120, 195, 1, 3.60132
3, 1, bw, attraction, a-b-db, 5, 3, 5, 3, 195, 120, 117, 190, 120, 195, 3, 1.19922
3, 1, bw, attraction, a-b-db, 9, 3, 5, 4, 120, 195, 114, 186, 195, 120, 3, 5.6954
3, 1, bw, attraction, a-b-db, 9, 3, 5, 4, 120, 195, 114, 186, 195, 120, 2, 1.04732
3, 1, bw, filler, NA, 999, 999, 5, 5, 71, 180, 107, 138, 79, 123, 1, 11.6914
3, 1, bw, filler, NA, 999, 999, 5, 5, 71, 180, 107, 138, 79, 123, 3, 0.574815
3, 1, bw, attraction, a-b-da, 5, 3, 5, 6, 120, 195, 190, 117, 195, 120, 1, 3.72222
3, 1, bw, attraction, a-b-da, 5, 3, 5, 6, 120, 195, 190, 117, 195, 120, 2, 1.56548
3, 1, bw, filler, NA, 999, 999, 5, 7, 148, 138, 107, 156, 175, 88, 1, 3.04509
3, 1, bw, filler, NA, 999, 999, 5, 7, 148, 138, 107, 156, 175, 88, 2, 2.07179
3, 1, bw, filler, NA, 999, 999, 5, 8, 148, 186, 68, 108, 64, 77, 1, 1.49116
3, 1, bw, filler, NA, 999, 999, 5, 8, 148, 186, 68, 108, 64, 77, 3, 0.710605
3, 1, bw, attraction, a-b-da, 2, 2, 5, 9, 165, 90, 90, 165, 163, 89, 2, 2.16772
3, 1, bw, attraction, a-b-da, 2, 2, 5, 9, 165, 90, 90, 165, 163, 89, 3, 0.799681
3, 1, bw, filler, NA, 999, 999, 5, 10, 148, 56, 129, 66, 172, 119, 3, 1.22108
3, 1, bw, filler, NA, 999, 999, 5, 10, 148, 56, 129, 66, 172, 119, 2, 2.86857
3, 1, bw, attraction, a-b-db, 14, 3, 5, 11, 120, 195, 195, 120, 111, 181, 2, 5.18349
3, 1, bw, attraction, a-b-db, 14, 3, 5, 11, 120, 195, 195, 120, 111, 181, 3, 0.748985
3, 1, bw, attraction, a-b-db, 9, 1, 5, 12, 60, 135, 57, 129, 135, 60, 3, 5.78718
3, 1, bw, attraction, a-b-db, 9, 1, 5, 12, 60, 135, 57, 129, 135, 60, 2, 0.636293
3, 1, bw, filler, NA, 999, 999, 5, 13, 95, 109, 154, 105, 185, 59, 2, 1.62312
3, 1, bw, filler, NA, 999, 999, 5, 13, 95, 109, 154, 105, 185, 59, 1, 12.8277
3, 1, bw, filler, NA, 999, 999, 5, 14, 156, 155, 56, 180, 179, 181, 3, 4.57545
3, 1, bw, filler, NA, 999, 999, 5, 14, 156, 155, 56, 180, 179, 181, 1, 0.893885
3, 1, bw, attraction, a-b-da, 9, 3, 5, 15, 195, 120, 120, 195, 186, 114, 2, 11.2323
3, 1, bw, attraction, a-b-da, 9, 3, 5, 15, 195, 120, 120, 195, 186, 114, 3, 0.642293
3, 1, bw, attraction, a-b-da, 14, 1, 5, 16, 125, 56, 135, 60, 60, 135, 3, 2.1993
3, 1, bw, attraction, a-b-da, 14, 1, 5, 16, 125, 56, 135, 60, 60, 135, 1, 0.781034
3, 1, bw, filler, NA, 999, 999, 5, 17, 173, 59, 151, 179, 84, 100, 2, 1.70912
3, 1, bw, filler, NA, 999, 999, 5, 17, 173, 59, 151, 179, 84, 100, 3, 0.885615
3, 1, bw, attraction, a-b-da, 9, 1, 5, 18, 129, 57, 60, 135, 135, 60, 3, 4.81846
3, 1, bw, attraction, a-b-da, 9, 1, 5, 18, 129, 57, 60, 135, 135, 60, 1, 0.568709
3, 1, bw, catch, NA, 999, 999, 5, 19, 162, 93, 128, 187, 61, 134, 2, 1.16705
3, 1, bw, catch, NA, 999, 999, 5, 19, 162, 93, 128, 187, 61, 134, 3, 0.944192
3, 1, bw, filler, NA, 999, 999, 5, 20, 67, 62, 114, 173, 165, 90, 2, 2.53327
3, 1, bw, filler, NA, 999, 999, 5, 20, 67, 62, 114, 173, 165, 90, 1, 1.00661
3, 1, bw, filler, NA, 999, 999, 5, 21, 68, 132, 186, 102, 91, 161, 2, 2.16625
3, 1, bw, filler, NA, 999, 999, 5, 21, 68, 132, 186, 102, 91, 161, 1, 0.661224
3, 1, bw, filler, NA, 999, 999, 5, 22, 65, 181, 69, 72, 161, 72, 1, 1.84295
3, 1, bw, filler, NA, 999, 999, 5, 22, 65, 181, 69, 72, 161, 72, 2, 0.694369
3, 1, bw, attraction, a-b-db, 5, 2, 5, 23, 90, 165, 165, 90, 88, 161, 1, 4.75333
3, 1, bw, attraction, a-b-db, 5, 2, 5, 23, 90, 165, 165, 90, 88, 161, 3, 0.744498
3, 1, bw, attraction, a-b-db, 2, 1, 5, 24, 60, 135, 59, 134, 135, 60, 3, 4.13561
3, 1, bw, attraction, a-b-db, 2, 1, 5, 24, 60, 135, 59, 134, 135, 60, 1, 1.36168
3, 1, bw, attraction, a-b-db, 9, 2, 5, 25, 90, 165, 86, 157, 165, 90, 3, 3.71212
3, 1, bw, attraction, a-b-db, 9, 2, 5, 25, 90, 165, 86, 157, 165, 90, 2, 0.83558
3, 1, bw, attraction, a-b-db, 14, 2, 5, 26, 83, 153, 90, 165, 165, 90, 3, 1.47411
3, 1, bw, attraction, a-b-db, 14, 2, 5, 26, 83, 153, 90, 165, 165, 90, 1, 0.836925
3, 1, bw, attraction, a-b-da, 5, 1, 5, 27, 132, 58, 135, 60, 60, 135, 3, 2.35168
3, 1, bw, attraction, a-b-da, 5, 1, 5, 27, 132, 58, 135, 60, 60, 135, 1, 0.810078
3, 1, bw, catch, NA, 999, 999, 5, 28, 128, 127, 181, 134, 79, 116, 2, 1.27159
3, 1, bw, catch, NA, 999, 999, 5, 28, 128, 127, 181, 134, 79, 116, 3, 0.650994
3, 1, bw, attraction, a-b-db, 2, 3, 5, 29, 120, 195, 119, 193, 195, 120, 3, 5.03025
3, 1, bw, attraction, a-b-db, 2, 3, 5, 29, 120, 195, 119, 193, 195, 120, 2, 1.41883
3, 1, bw, attraction, a-b-da, 5, 2, 5, 30, 90, 165, 161, 88, 165, 90, 1, 3.13597
3, 1, bw, attraction, a-b-da, 5, 2, 5, 30, 90, 165, 161, 88, 165, 90, 3, 0.615658
3, 1, bw, attraction, a-b-da, 9, 2, 5, 31, 165, 90, 157, 86, 90, 165, 3, 1.07184
3, 1, bw, attraction, a-b-da, 9, 2, 5, 31, 165, 90, 157, 86, 90, 165, 1, 0.946952
3, 1, bw, attraction, a-b-da, 2, 3, 5, 32, 195, 120, 193, 119, 120, 195, 3, 1.02689
3, 1, bw, attraction, a-b-da, 2, 3, 5, 32, 195, 120, 193, 119, 120, 195, 1, 0.993803
3, 1, bw, attraction, a-b-db, 14, 1, 5, 33, 60, 135, 56, 125, 135, 60, 1, 1.6306
3, 1, bw, attraction, a-b-db, 14, 1, 5, 33, 60, 135, 56, 125, 135, 60, 2, 4.34015
3, 1, bw, attraction, a-b-db, 2, 2, 5, 34, 89, 163, 90, 165, 165, 90, 3, 2.68396
3, 1, bw, attraction, a-b-db, 2, 2, 5, 34, 89, 163, 90, 165, 165, 90, 1, 0.734383
3, 1, bw, attraction, a-b-da, 2, 1, 5, 35, 60, 135, 134, 59, 135, 60, 1, 2.42434
3, 1, bw, attraction, a-b-da, 2, 1, 5, 35, 60, 135, 134, 59, 135, 60, 3, 0.700664
3, 1, bw, attraction, a-b-da, 14, 3, 5, 36, 195, 120, 181, 111, 120, 195, 1, 20.3509
3, 1, bw, attraction, a-b-da, 14, 3, 5, 36, 195, 120, 181, 111, 120, 195, 2, 0.625701
3, 1, bw, attraction, a-b-db, 5, 1, 5, 37, 135, 60, 58, 132, 60, 135, 1, 4.43896
3, 1, bw, attraction, a-b-db, 5, 1, 5, 37, 135, 60, 58, 132, 60, 135, 2, 0.770453
3, 1, bw, attraction, a-b-db, 9, 1, 6, 1, 135, 60, 57, 129, 60, 135, 1, 1.30666
3, 1, bw, attraction, a-b-db, 9, 1, 6, 1, 135, 60, 57, 129, 60, 135, 3, 0.751127
3, 1, bw, attraction, a-b-da, 2, 1, 6, 2, 135, 60, 134, 59, 60, 135, 3, 2.41288
3, 1, bw, attraction, a-b-da, 2, 1, 6, 2, 135, 60, 134, 59, 60, 135, 1, 0.763633
3, 1, bw, attraction, a-b-db, 5, 1, 6, 3, 60, 135, 58, 132, 135, 60, 3, 1.60947
3, 1, bw, attraction, a-b-db, 5, 1, 6, 3, 60, 135, 58, 132, 135, 60, 1, 1.16131
3, 1, bw, attraction, a-b-da, 14, 2, 6, 4, 165, 90, 153, 83, 90, 165, 3, 3.91347
3, 1, bw, attraction, a-b-da, 14, 2, 6, 4, 165, 90, 153, 83, 90, 165, 2, 0.836959
3, 1, bw, filler, NA, 999, 999, 6, 5, 131, 157, 107, 80, 151, 124, 1, 2.38096
3, 1, bw, filler, NA, 999, 999, 6, 5, 131, 157, 107, 80, 151, 124, 2, 0.557765
3, 1, bw, filler, NA, 999, 999, 6, 6, 158, 84, 94, 80, 90, 93, 1, 1.77319
3, 1, bw, filler, NA, 999, 999, 6, 6, 158, 84, 94, 80, 90, 93, 3, 0.550846
3, 1, bw, filler, NA, 999, 999, 6, 7, 95, 105, 129, 101, 103, 159, 3, 2.61438
3, 1, bw, filler, NA, 999, 999, 6, 7, 95, 105, 129, 101, 103, 159, 1, 0.603168
3, 1, bw, attraction, a-b-db, 14, 2, 6, 8, 165, 90, 90, 165, 83, 153, 2, 1.65785
3, 1, bw, attraction, a-b-db, 14, 2, 6, 8, 165, 90, 90, 165, 83, 153, 3, 1.26323
3, 1, bw, attraction, a-b-da, 5, 3, 6, 9, 120, 195, 190, 117, 195, 120, 1, 1.31302
3, 1, bw, attraction, a-b-da, 5, 3, 6, 9, 120, 195, 190, 117, 195, 120, 2, 1.54768
3, 1, bw, catch, NA, 999, 999, 6, 10, 183, 132, 124, 71, 134, 121, 1, 1.78747
3, 1, bw, catch, NA, 999, 999, 6, 10, 183, 132, 124, 71, 134, 121, 2, 0.54787
3, 1, bw, catch, NA, 999, 999, 6, 11, 91, 164, 94, 101, 192, 123, 3, 1.13945
3, 1, bw, catch, NA, 999, 999, 6, 11, 91, 164, 94, 101, 192, 123, 2, 0.725153
3, 1, bw, filler, NA, 999, 999, 6, 12, 148, 165, 136, 184, 73, 182, 2, 1.31927
3, 1, bw, filler, NA, 999, 999, 6, 12, 148, 165, 136, 184, 73, 182, 3, 0.937054
3, 1, bw, attraction, a-b-db, 14, 1, 6, 13, 135, 60, 60, 135, 56, 125, 2, 2.94637
3, 1, bw, attraction, a-b-db, 14, 1, 6, 13, 135, 60, 60, 135, 56, 125, 3, 1.38447
3, 1, bw, filler, NA, 999, 999, 6, 14, 99, 182, 81, 106, 148, 157, 3, 1.29473
3, 1, bw, filler, NA, 999, 999, 6, 14, 99, 182, 81, 106, 148, 157, 2, 0.699088
3, 1, bw, filler, NA, 999, 999, 6, 15, 72, 141, 102, 173, 141, 143, 3, 8.12464
3, 1, bw, filler, NA, 999, 999, 6, 15, 72, 141, 102, 173, 141, 143, 1, 0.72472
3, 1, bw, attraction, a-b-db, 9, 2, 6, 16, 86, 157, 90, 165, 165, 90, 3, 4.89385
3, 1, bw, attraction, a-b-db, 9, 2, 6, 16, 86, 157, 90, 165, 165, 90, 1, 0.634546
3, 1, bw, attraction, a-b-db, 2, 3, 6, 17, 195, 120, 120, 195, 119, 193, 1, 6.58782
3, 1, bw, attraction, a-b-db, 2, 3, 6, 17, 195, 120, 120, 195, 119, 193, 3, 0.617661
3, 1, bw, filler, NA, 999, 999, 6, 18, 172, 173, 191, 161, 146, 85, 2, 3.81638
3, 1, bw, filler, NA, 999, 999, 6, 18, 172, 173, 191, 161, 146, 85, 3, 1.03653
3, 1, bw, attraction, a-b-da, 9, 3, 6, 19, 186, 114, 195, 120, 120, 195, 2, 4.02486
3, 1, bw, attraction, a-b-da, 9, 3, 6, 19, 186, 114, 195, 120, 120, 195, 3, 0.808005
3, 1, bw, attraction, a-b-db, 2, 2, 6, 20, 165, 90, 89, 163, 90, 165, 1, 4.71492
3, 1, bw, attraction, a-b-db, 2, 2, 6, 20, 165, 90, 89, 163, 90, 165, 3, 0.726701
3, 1, bw, attraction, a-b-db, 5, 3, 6, 21, 117, 190, 120, 195, 195, 120, 3, 2.05293
3, 1, bw, attraction, a-b-db, 5, 3, 6, 21, 117, 190, 120, 195, 195, 120, 1, 0.770789
3, 1, bw, attraction, a-b-da, 14, 1, 6, 22, 135, 60, 125, 56, 60, 135, 3, 2.12961
3, 1, bw, attraction, a-b-da, 14, 1, 6, 22, 135, 60, 125, 56, 60, 135, 2, 0.894036
3, 1, bw, catch, NA, 999, 999, 6, 23, 164, 151, 130, 65, 96, 159, 1, 1.20762
3, 1, bw, catch, NA, 999, 999, 6, 23, 164, 151, 130, 65, 96, 159, 2, 0.731575
3, 1, bw, attraction, a-b-da, 2, 2, 6, 24, 165, 90, 163, 89, 90, 165, 3, 1.8608
3, 1, bw, attraction, a-b-da, 2, 2, 6, 24, 165, 90, 163, 89, 90, 165, 1, 0.834807
3, 1, bw, filler, NA, 999, 999, 6, 25, 149, 88, 85, 129, 168, 99, 3, 1.56017
3, 1, bw, filler, NA, 999, 999, 6, 25, 149, 88, 85, 129, 168, 99, 1, 0.710778
3, 1, bw, filler, NA, 999, 999, 6, 26, 184, 59, 134, 94, 150, 62, 2, 11.8641
3, 1, bw, filler, NA, 999, 999, 6, 26, 184, 59, 134, 94, 150, 62, 3, 0.72955
3, 1, bw, attraction, a-b-db, 5, 2, 6, 27, 165, 90, 90, 165, 88, 161, 2, 8.80337
3, 1, bw, attraction, a-b-db, 5, 2, 6, 27, 165, 90, 90, 165, 88, 161, 3, 0.992353
3, 1, bw, attraction, a-b-da, 9, 2, 6, 28, 90, 165, 165, 90, 157, 86, 1, 3.31755
3, 1, bw, attraction, a-b-da, 9, 2, 6, 28, 90, 165, 165, 90, 157, 86, 3, 0.888134
3, 1, bw, attraction, a-b-da, 9, 1, 6, 29, 129, 57, 135, 60, 60, 135, 3, 4.19361
3, 1, bw, attraction, a-b-da, 9, 1, 6, 29, 129, 57, 135, 60, 60, 135, 1, 0.847398
3, 1, bw, attraction, a-b-da, 5, 1, 6, 30, 60, 135, 132, 58, 135, 60, 1, 7.96702
3, 1, bw, attraction, a-b-da, 5, 1, 6, 30, 60, 135, 132, 58, 135, 60, 3, 0.843647
3, 1, bw, attraction, a-b-da, 2, 3, 6, 31, 120, 195, 193, 119, 195, 120, 1, 1.61604
3, 1, bw, attraction, a-b-da, 2, 3, 6, 31, 120, 195, 193, 119, 195, 120, 3, 1.35703
3, 1, bw, attraction, a-b-db, 14, 3, 6, 32, 120, 195, 195, 120, 111, 181, 1, 6.1493
3, 1, bw, attraction, a-b-db, 14, 3, 6, 32, 120, 195, 195, 120, 111, 181, 3, 0.723857
3, 1, bw, attraction, a-b-db, 9, 3, 6, 33, 120, 195, 195, 120, 114, 186, 2, 11.4952
3, 1, bw, attraction, a-b-db, 9, 3, 6, 33, 120, 195, 195, 120, 114, 186, 3, 0.612761
3, 1, bw, attraction, a-b-db, 2, 1, 6, 34, 60, 135, 135, 60, 59, 134, 2, 4.59727
3, 1, bw, attraction, a-b-db, 2, 1, 6, 34, 60, 135, 135, 60, 59, 134, 3, 0.905849
3, 1, bw, attraction, a-b-da, 5, 2, 6, 35, 165, 90, 90, 165, 161, 88, 2, 10.3318
3, 1, bw, attraction, a-b-da, 5, 2, 6, 35, 165, 90, 90, 165, 161, 88, 3, 0.785719
3, 1, bw, filler, NA, 999, 999, 6, 36, 162, 69, 78, 96, 112, 92, 1, 16.5691
3, 1, bw, filler, NA, 999, 999, 6, 36, 162, 69, 78, 96, 112, 92, 2, 0.794038
3, 1, bw, attraction, a-b-da, 14, 3, 6, 37, 181, 111, 195, 120, 120, 195, 3, 4.10637
3, 1, bw, attraction, a-b-da, 14, 3, 6, 37, 181, 111, 195, 120, 120, 195, 1, 2.09354
3, 1, bw, attraction, a-b-da, 9, 2, 7, 1, 90, 165, 165, 90, 157, 86, 3, 3.69336
3, 1, bw, attraction, a-b-da, 9, 2, 7, 1, 90, 165, 165, 90, 157, 86, 1, 3.83353
3, 1, bw, attraction, a-b-db, 9, 3, 7, 2, 114, 186, 195, 120, 120, 195, 2, 3.38093
3, 1, bw, attraction, a-b-db, 9, 3, 7, 2, 114, 186, 195, 120, 120, 195, 1, 0.621123
3, 1, bw, attraction, a-b-da, 5, 3, 7, 3, 120, 195, 195, 120, 190, 117, 1, 1.46443
3, 1, bw, attraction, a-b-da, 5, 3, 7, 3, 120, 195, 195, 120, 190, 117, 2, 2.64532
3, 1, bw, catch, NA, 999, 999, 7, 4, 131, 64, 161, 154, 107, 148, 2, 1.77703
3, 1, bw, catch, NA, 999, 999, 7, 4, 131, 64, 161, 154, 107, 148, 1, 0.745121
3, 1, bw, filler, NA, 999, 999, 7, 5, 57, 57, 174, 77, 108, 89, 2, 1.55291
3, 1, bw, filler, NA, 999, 999, 7, 5, 57, 57, 174, 77, 108, 89, 1, 0.697926
3, 1, bw, attraction, a-b-db, 14, 3, 7, 6, 111, 181, 195, 120, 120, 195, 3, 1.17148
3, 1, bw, attraction, a-b-db, 14, 3, 7, 6, 111, 181, 195, 120, 120, 195, 1, 1.33303
3, 1, bw, attraction, a-b-da, 5, 1, 7, 7, 60, 135, 135, 60, 132, 58, 1, 2.08361
3, 1, bw, attraction, a-b-da, 5, 1, 7, 7, 60, 135, 135, 60, 132, 58, 3, 2.0646
3, 1, bw, attraction, a-b-da, 2, 2, 7, 8, 165, 90, 163, 89, 90, 165, 3, 2.21066
3, 1, bw, attraction, a-b-da, 2, 2, 7, 8, 165, 90, 163, 89, 90, 165, 2, 1.83249
3, 1, bw, attraction, a-b-da, 2, 3, 7, 9, 193, 119, 195, 120, 120, 195, 3, 4.00699
3, 1, bw, attraction, a-b-da, 2, 3, 7, 9, 193, 119, 195, 120, 120, 195, 1, 0.690249
3, 1, bw, attraction, a-b-da, 14, 1, 7, 10, 135, 60, 60, 135, 125, 56, 1, 4.93293
3, 1, bw, attraction, a-b-da, 14, 1, 7, 10, 135, 60, 60, 135, 125, 56, 3, 0.95031
3, 1, bw, attraction, a-b-db, 2, 1, 7, 11, 60, 135, 135, 60, 59, 134, 2, 1.87092
3, 1, bw, attraction, a-b-db, 2, 1, 7, 11, 60, 135, 135, 60, 59, 134, 3, 3.66656
3, 1, bw, filler, NA, 999, 999, 7, 12, 173, 99, 84, 126, 171, 126, 3, 3.13391
3, 1, bw, filler, NA, 999, 999, 7, 12, 173, 99, 84, 126, 171, 126, 2, 0.805344
3, 1, bw, attraction, a-b-da, 14, 3, 7, 13, 195, 120, 120, 195, 181, 111, 2, 3.01173
3, 1, bw, attraction, a-b-da, 14, 3, 7, 13, 195, 120, 120, 195, 181, 111, 3, 1.13078
3, 1, bw, attraction, a-b-db, 14, 2, 7, 14, 90, 165, 165, 90, 83, 153, 2, 2.28366
3, 1, bw, attraction, a-b-db, 14, 2, 7, 14, 90, 165, 165, 90, 83, 153, 3, 1.45499
3, 1, bw, filler, NA, 999, 999, 7, 15, 179, 82, 131, 160, 177, 170, 3, 1.737
3, 1, bw, filler, NA, 999, 999, 7, 15, 179, 82, 131, 160, 177, 170, 1, 2.12291
3, 1, bw, filler, NA, 999, 999, 7, 16, 95, 82, 121, 186, 70, 127, 2, 1.49887
3, 1, bw, filler, NA, 999, 999, 7, 16, 95, 82, 121, 186, 70, 127, 1, 3.30338
3, 1, bw, attraction, a-b-db, 14, 1, 7, 17, 56, 125, 60, 135, 135, 60, 3, 2.68777
3, 1, bw, attraction, a-b-db, 14, 1, 7, 17, 56, 125, 60, 135, 135, 60, 1, 1.25819
3, 1, bw, attraction, a-b-db, 5, 1, 7, 18, 135, 60, 60, 135, 58, 132, 2, 2.64513
3, 1, bw, attraction, a-b-db, 5, 1, 7, 18, 135, 60, 60, 135, 58, 132, 1, 1.41085
3, 1, bw, filler, NA, 999, 999, 7, 19, 69, 158, 157, 144, 56, 131, 2, 1.31924
3, 1, bw, filler, NA, 999, 999, 7, 19, 69, 158, 157, 144, 56, 131, 3, 0.715975
3, 1, bw, attraction, a-b-db, 9, 2, 7, 20, 165, 90, 90, 165, 86, 157, 2, 4.23468
3, 1, bw, attraction, a-b-db, 9, 2, 7, 20, 165, 90, 90, 165, 86, 157, 3, 1.53458
3, 1, bw, catch, NA, 999, 999, 7, 21, 100, 155, 129, 186, 79, 116, 2, 1.23919
3, 1, bw, catch, NA, 999, 999, 7, 21, 100, 155, 129, 186, 79, 116, 3, 0.685791
3, 1, bw, attraction, a-b-db, 5, 3, 7, 22, 120, 195, 117, 190, 195, 120, 3, 2.48809
3, 1, bw, attraction, a-b-db, 5, 3, 7, 22, 120, 195, 117, 190, 195, 120, 2, 0.620865
3, 1, bw, filler, NA, 999, 999, 7, 23, 192, 84, 111, 170, 160, 173, 3, 1.91974
3, 1, bw, filler, NA, 999, 999, 7, 23, 192, 84, 111, 170, 160, 173, 2, 1.14014
3, 1, bw, filler, NA, 999, 999, 7, 24, 71, 112, 95, 190, 194, 70, 2, 2.33041
3, 1, bw, filler, NA, 999, 999, 7, 24, 71, 112, 95, 190, 194, 70, 1, 0.700245
3, 1, bw, attraction, a-b-db, 2, 2, 7, 25, 90, 165, 89, 163, 165, 90, 3, 2.40626
3, 1, bw, attraction, a-b-db, 2, 2, 7, 25, 90, 165, 89, 163, 165, 90, 2, 0.580697
3, 1, bw, attraction, a-b-da, 14, 2, 7, 26, 165, 90, 153, 83, 90, 165, 1, 2.9488
3, 1, bw, attraction, a-b-da, 14, 2, 7, 26, 165, 90, 153, 83, 90, 165, 2, 1.81276
3, 1, bw, filler, NA, 999, 999, 7, 27, 152, 167, 165, 111, 173, 143, 3, 2.47397
3, 1, bw, filler, NA, 999, 999, 7, 27, 152, 167, 165, 111, 173, 143, 2, 0.998986
3, 1, bw, attraction, a-b-db, 9, 1, 7, 28, 135, 60, 57, 129, 60, 135, 1, 2.79447
3, 1, bw, attraction, a-b-db, 9, 1, 7, 28, 135, 60, 57, 129, 60, 135, 3, 0.66607
3, 1, bw, filler, NA, 999, 999, 7, 29, 160, 101, 138, 140, 178, 114, 3, 1.69157
3, 1, bw, filler, NA, 999, 999, 7, 29, 160, 101, 138, 140, 178, 114, 1, 0.720441
3, 1, bw, attraction, a-b-da, 9, 3, 7, 30, 195, 120, 186, 114, 120, 195, 1, 2.8016
3, 1, bw, attraction, a-b-da, 9, 3, 7, 30, 195, 120, 186, 114, 120, 195, 2, 1.27429
3, 1, bw, attraction, a-b-da, 2, 1, 7, 31, 134, 59, 135, 60, 60, 135, 3, 2.61918
3, 1, bw, attraction, a-b-da, 2, 1, 7, 31, 134, 59, 135, 60, 60, 135, 1, 1.2468
3, 1, bw, catch, NA, 999, 999, 7, 32, 125, 70, 146, 169, 139, 116, 2, 3.61425
3, 1, bw, catch, NA, 999, 999, 7, 32, 125, 70, 146, 169, 139, 116, 1, 1.9932
3, 1, bw, attraction, a-b-da, 5, 2, 7, 33, 90, 165, 161, 88, 165, 90, 1, 3.21799
3, 1, bw, attraction, a-b-da, 5, 2, 7, 33, 90, 165, 161, 88, 165, 90, 2, 2.47981
3, 1, bw, attraction, a-b-db, 2, 3, 7, 34, 119, 193, 120, 195, 195, 120, 2, 11.4883
3, 1, bw, attraction, a-b-db, 2, 3, 7, 34, 119, 193, 120, 195, 195, 120, 1, 1.8267
3, 1, bw, filler, NA, 999, 999, 7, 35, 99, 82, 166, 135, 71, 110, 2, 2.43001
3, 1, bw, filler, NA, 999, 999, 7, 35, 99, 82, 166, 135, 71, 110, 1, 0.858045
3, 1, bw, attraction, a-b-db, 5, 2, 7, 36, 88, 161, 165, 90, 90, 165, 2, 8.91053
3, 1, bw, attraction, a-b-db, 5, 2, 7, 36, 88, 161, 165, 90, 90, 165, 1, 0.702392
3, 1, bw, attraction, a-b-da, 9, 1, 7, 37, 129, 57, 135, 60, 60, 135, 3, 1.87279
3, 1, bw, attraction, a-b-da, 9, 1, 7, 37, 129, 57, 135, 60, 60, 135, 1, 2.60471
3, 1, bw, attraction, a-b-db, 2, 2, 8, 1, 90, 165, 89, 163, 165, 90, 3, 1.31241
3, 1, bw, attraction, a-b-db, 2, 2, 8, 1, 90, 165, 89, 163, 165, 90, 2, 2.21252
3, 1, bw, attraction, a-b-db, 9, 2, 8, 2, 86, 157, 90, 165, 165, 90, 3, 4.73718
3, 1, bw, attraction, a-b-db, 9, 2, 8, 2, 86, 157, 90, 165, 165, 90, 1, 0.874015
3, 1, bw, filler, NA, 999, 999, 8, 3, 181, 156, 117, 160, 159, 115, 1, 2.65424
3, 1, bw, filler, NA, 999, 999, 8, 3, 181, 156, 117, 160, 159, 115, 3, 1.31967
3, 1, bw, catch, NA, 999, 999, 8, 4, 141, 174, 64, 131, 113, 142, 1, 1.2675
3, 1, bw, catch, NA, 999, 999, 8, 4, 141, 174, 64, 131, 113, 142, 2, 0.797886
3, 1, bw, filler, NA, 999, 999, 8, 5, 151, 82, 170, 59, 101, 98, 1, 3.53497
3, 1, bw, filler, NA, 999, 999, 8, 5, 151, 82, 170, 59, 101, 98, 3, 2.94872
3, 1, bw, attraction, a-b-db, 2, 1, 8, 6, 59, 134, 60, 135, 135, 60, 3, 6.63692
3, 1, bw, attraction, a-b-db, 2, 1, 8, 6, 59, 134, 60, 135, 135, 60, 1, 0.729653
3, 1, bw, attraction, a-b-da, 2, 2, 8, 7, 165, 90, 90, 165, 163, 89, 2, 5.43445
3, 1, bw, attraction, a-b-da, 2, 2, 8, 7, 165, 90, 90, 165, 163, 89, 1, 1.71779
3, 1, bw, attraction, a-b-da, 2, 3, 8, 8, 195, 120, 193, 119, 120, 195, 3, 1.6072
3, 1, bw, attraction, a-b-da, 2, 3, 8, 8, 195, 120, 193, 119, 120, 195, 2, 1.47665
3, 1, bw, attraction, a-b-db, 14, 2, 8, 9, 165, 90, 83, 153, 90, 165, 1, 2.2249
3, 1, bw, attraction, a-b-db, 14, 2, 8, 9, 165, 90, 83, 153, 90, 165, 3, 0.67949
3, 1, bw, attraction, a-b-db, 14, 1, 8, 10, 135, 60, 60, 135, 56, 125, 2, 1.89755
3, 1, bw, attraction, a-b-db, 14, 1, 8, 10, 135, 60, 60, 135, 56, 125, 3, 0.516548
3, 1, bw, filler, NA, 999, 999, 8, 11, 88, 90, 145, 104, 194, 146, 3, 1.26149
3, 1, bw, filler, NA, 999, 999, 8, 11, 88, 90, 145, 104, 194, 146, 1, 0.764071
3, 1, bw, filler, NA, 999, 999, 8, 12, 170, 95, 111, 138, 182, 109, 3, 1.69896
3, 1, bw, filler, NA, 999, 999, 8, 12, 170, 95, 111, 138, 182, 109, 1, 0.612965
3, 1, bw, filler, NA, 999, 999, 8, 13, 147, 104, 163, 108, 165, 193, 3, 1.45813
3, 1, bw, filler, NA, 999, 999, 8, 13, 147, 104, 163, 108, 165, 193, 1, 0.583902
3, 1, bw, attraction, a-b-da, 14, 3, 8, 14, 181, 111, 120, 195, 195, 120, 2, 1.82201
3, 1, bw, attraction, a-b-da, 14, 3, 8, 14, 181, 111, 120, 195, 195, 120, 1, 1.12441
3, 1, bw, attraction, a-b-db, 14, 3, 8, 15, 120, 195, 195, 120, 111, 181, 1, 2.41371
3, 1, bw, attraction, a-b-db, 14, 3, 8, 15, 120, 195, 195, 120, 111, 181, 3, 0.761061
3, 1, bw, attraction, a-b-da, 9, 2, 8, 16, 90, 165, 165, 90, 157, 86, 1, 3.01173
3, 1, bw, attraction, a-b-da, 9, 2, 8, 16, 90, 165, 165, 90, 157, 86, 3, 1.13622
3, 1, bw, catch, NA, 999, 999, 8, 17, 169, 146, 91, 104, 148, 107, 1, 1.33521
3, 1, bw, catch, NA, 999, 999, 8, 17, 169, 146, 91, 104, 148, 107, 2, 0.700747
3, 1, bw, filler, NA, 999, 999, 8, 18, 152, 150, 153, 78, 193, 66, 1, 1.42823
3, 1, bw, filler, NA, 999, 999, 8, 18, 152, 150, 153, 78, 193, 66, 2, 1.11458
3, 1, bw, filler, NA, 999, 999, 8, 19, 187, 152, 86, 162, 109, 172, 1, 1.08337
3, 1, bw, filler, NA, 999, 999, 8, 19, 187, 152, 86, 162, 109, 172, 2, 0.680853
3, 1, bw, attraction, a-b-db, 2, 3, 8, 20, 119, 193, 120, 195, 195, 120, 3, 2.38855
3, 1, bw, attraction, a-b-db, 2, 3, 8, 20, 119, 193, 120, 195, 195, 120, 2, 1.34626
3, 1, bw, attraction, a-b-da, 9, 1, 8, 21, 135, 60, 60, 135, 129, 57, 2, 3.09035
3, 1, bw, attraction, a-b-da, 9, 1, 8, 21, 135, 60, 60, 135, 129, 57, 3, 2.27873
3, 1, bw, attraction, a-b-da, 9, 3, 8, 22, 120, 195, 186, 114, 195, 120, 1, 3.3045
3, 1, bw, attraction, a-b-da, 9, 3, 8, 22, 120, 195, 186, 114, 195, 120, 2, 0.74656
3, 1, bw, filler, NA, 999, 999, 8, 23, 155, 163, 135, 82, 131, 89, 1, 1.19405
3, 1, bw, filler, NA, 999, 999, 8, 23, 155, 163, 135, 82, 131, 89, 2, 2.28902
3, 1, bw, attraction, a-b-db, 9, 3, 8, 24, 120, 195, 114, 186, 195, 120, 3, 5.99717
3, 1, bw, attraction, a-b-db, 9, 3, 8, 24, 120, 195, 114, 186, 195, 120, 2, 2.52918
3, 1, bw, catch, NA, 999, 999, 8, 25, 69, 126, 155, 160, 160, 95, 2, 1.71456
3, 1, bw, catch, NA, 999, 999, 8, 25, 69, 126, 155, 160, 160, 95, 1, 0.642702
3, 1, bw, attraction, a-b-db, 9, 1, 8, 26, 60, 135, 135, 60, 57, 129, 1, 4.40055
3, 1, bw, attraction, a-b-db, 9, 1, 8, 26, 60, 135, 135, 60, 57, 129, 3, 0.831425
3, 1, bw, attraction, a-b-da, 14, 1, 8, 27, 135, 60, 60, 135, 125, 56, 2, 2.3224
3, 1, bw, attraction, a-b-da, 14, 1, 8, 27, 135, 60, 60, 135, 125, 56, 3, 0.708766
3, 1, bw, attraction, a-b-da, 14, 2, 8, 28, 165, 90, 90, 165, 153, 83, 2, 1.51877
3, 1, bw, attraction, a-b-da, 14, 2, 8, 28, 165, 90, 90, 165, 153, 83, 3, 0.8886
3, 1, bw, filler, NA, 999, 999, 8, 29, 74, 57, 190, 132, 147, 118, 2, 1.35419
3, 1, bw, filler, NA, 999, 999, 8, 29, 74, 57, 190, 132, 147, 118, 1, 0.844778
3, 1, bw, attraction, a-b-db, 5, 2, 8, 30, 88, 161, 90, 165, 165, 90, 3, 8.0884
3, 1, bw, attraction, a-b-db, 5, 2, 8, 30, 88, 161, 90, 165, 165, 90, 1, 0.896461
3, 1, bw, filler, NA, 999, 999, 8, 31, 191, 171, 114, 178, 91, 183, 1, 2.02167
3, 1, bw, filler, NA, 999, 999, 8, 31, 191, 171, 114, 178, 91, 183, 3, 0.713403
3, 1, bw, attraction, a-b-da, 2, 1, 8, 32, 135, 60, 134, 59, 60, 135, 3, 2.78783
3, 1, bw, attraction, a-b-da, 2, 1, 8, 32, 135, 60, 134, 59, 60, 135, 1, 1.1791
3, 1, bw, attraction, a-b-da, 5, 2, 8, 33, 161, 88, 90, 165, 165, 90, 2, 2.0906
3, 1, bw, attraction, a-b-da, 5, 2, 8, 33, 161, 88, 90, 165, 165, 90, 3, 4.14902
3, 1, bw, attraction, a-b-da, 5, 1, 8, 34, 60, 135, 135, 60, 132, 58, 1, 6.55574
3, 1, bw, attraction, a-b-da, 5, 1, 8, 34, 60, 135, 135, 60, 132, 58, 3, 1.06745
3, 1, bw, attraction, a-b-db, 5, 1, 8, 35, 60, 135, 135, 60, 58, 132, 2, 1.57332
3, 1, bw, attraction, a-b-db, 5, 1, 8, 35, 60, 135, 135, 60, 58, 132, 3, 0.677257
3, 1, bw, attraction, a-b-db, 5, 3, 8, 36, 120, 195, 195, 120, 117, 190, 2, 4.46596
3, 1, bw, attraction, a-b-db, 5, 3, 8, 36, 120, 195, 195, 120, 117, 190, 3, 0.597847
3, 1, bw, attraction, a-b-da, 5, 3, 8, 37, 190, 117, 120, 195, 195, 120, 2, 2.55472
3, 1, bw, attraction, a-b-da, 5, 3, 8, 37, 190, 117, 120, 195, 195, 120, 3, 0.764611
