sub_n, computer_n, bw_cond, effect, set, distance, diag, block_n, trial_n, h1, w1, h2, w2, h3, w3, choice, rt 
381, 1, bw, practice, NA, 999, 999, 0, 1, 79, 60, 163, 77, 188, 102, 3, 2.1249
381, 1, bw, practice, NA, 999, 999, 0, 1, 79, 60, 163, 77, 188, 102, 1, 1.70884
381, 1, bw, practice, NA, 999, 999, 0, 2, 81, 89, 116, 76, 56, 169, 3, 17.284
381, 1, bw, practice, NA, 999, 999, 0, 2, 81, 89, 116, 76, 56, 169, 1, 1.36412
381, 1, bw, practice, NA, 999, 999, 0, 3, 113, 147, 179, 66, 167, 62, 1, 2.36599
381, 1, bw, practice, NA, 999, 999, 0, 3, 113, 147, 179, 66, 167, 62, 3, 2.51746
381, 1, bw, filler, NA, 999, 999, 1, 1, 58, 101, 74, 164, 91, 151, 3, 4.6893
381, 1, bw, filler, NA, 999, 999, 1, 1, 58, 101, 74, 164, 91, 151, 1, 1.05112
381, 1, bw, attraction, a-b-db, 2, 1, 1, 2, 135, 60, 60, 135, 59, 134, 1, 7.71876
381, 1, bw, attraction, a-b-db, 2, 1, 1, 2, 135, 60, 60, 135, 59, 134, 3, 1.64697
381, 1, bw, attraction, a-b-db, 5, 1, 1, 3, 58, 132, 60, 135, 135, 60, 2, 5.17036
381, 1, bw, attraction, a-b-db, 5, 1, 1, 3, 58, 132, 60, 135, 135, 60, 3, 0.833408
381, 1, bw, filler, NA, 999, 999, 1, 4, 183, 70, 104, 61, 185, 97, 3, 1.46172
381, 1, bw, filler, NA, 999, 999, 1, 4, 183, 70, 104, 61, 185, 97, 2, 0.825881
381, 1, bw, catch, NA, 999, 999, 1, 5, 139, 116, 63, 132, 167, 148, 3, 1.40625
381, 1, bw, catch, NA, 999, 999, 1, 5, 139, 116, 63, 132, 167, 148, 2, 0.580571
381, 1, bw, filler, NA, 999, 999, 1, 6, 132, 101, 63, 135, 173, 171, 3, 0.994836
381, 1, bw, filler, NA, 999, 999, 1, 6, 132, 101, 63, 135, 173, 171, 2, 0.64194
381, 1, bw, catch, NA, 999, 999, 1, 7, 140, 115, 120, 195, 127, 68, 2, 1.14956
381, 1, bw, catch, NA, 999, 999, 1, 7, 140, 115, 120, 195, 127, 68, 3, 0.566511
381, 1, bw, attraction, a-b-da, 2, 3, 1, 8, 120, 195, 195, 120, 193, 119, 1, 3.97373
381, 1, bw, attraction, a-b-da, 2, 3, 1, 8, 120, 195, 195, 120, 193, 119, 3, 0.88437
381, 1, bw, filler, NA, 999, 999, 1, 9, 141, 143, 185, 152, 139, 121, 2, 1.4947
381, 1, bw, filler, NA, 999, 999, 1, 9, 141, 143, 185, 152, 139, 121, 3, 0.801479
381, 1, bw, attraction, a-b-db, 2, 2, 1, 10, 89, 163, 165, 90, 90, 165, 3, 4.02334
381, 1, bw, attraction, a-b-db, 2, 2, 1, 10, 89, 163, 165, 90, 90, 165, 2, 1.18799
381, 1, bw, filler, NA, 999, 999, 1, 11, 66, 132, 73, 166, 132, 85, 2, 4.69023
381, 1, bw, filler, NA, 999, 999, 1, 11, 66, 132, 73, 166, 132, 85, 1, 0.692016
381, 1, bw, attraction, a-b-da, 9, 1, 1, 12, 135, 60, 129, 57, 60, 135, 3, 2.52574
381, 1, bw, attraction, a-b-da, 9, 1, 1, 12, 135, 60, 129, 57, 60, 135, 2, 0.998931
381, 1, bw, attraction, a-b-da, 2, 2, 1, 13, 163, 89, 90, 165, 165, 90, 2, 4.00455
381, 1, bw, attraction, a-b-da, 2, 2, 1, 13, 163, 89, 90, 165, 165, 90, 1, 0.602619
381, 1, bw, attraction, a-b-da, 14, 2, 1, 14, 165, 90, 153, 83, 90, 165, 3, 2.91243
381, 1, bw, attraction, a-b-da, 14, 2, 1, 14, 165, 90, 153, 83, 90, 165, 2, 0.610183
381, 1, bw, attraction, a-b-db, 5, 2, 1, 15, 165, 90, 90, 165, 88, 161, 3, 1.79929
381, 1, bw, attraction, a-b-db, 5, 2, 1, 15, 165, 90, 90, 165, 88, 161, 2, 0.614212
381, 1, bw, filler, NA, 999, 999, 1, 16, 90, 183, 57, 179, 156, 172, 3, 0.947049
381, 1, bw, filler, NA, 999, 999, 1, 16, 90, 183, 57, 179, 156, 172, 2, 0.540091
381, 1, bw, attraction, a-b-da, 5, 1, 1, 17, 135, 60, 60, 135, 132, 58, 1, 2.40399
381, 1, bw, attraction, a-b-da, 5, 1, 1, 17, 135, 60, 60, 135, 132, 58, 3, 1.47438
381, 1, bw, attraction, a-b-db, 9, 2, 1, 18, 86, 157, 165, 90, 90, 165, 3, 3.6445
381, 1, bw, attraction, a-b-db, 9, 2, 1, 18, 86, 157, 165, 90, 90, 165, 2, 0.920716
381, 1, bw, attraction, a-b-da, 14, 1, 1, 19, 135, 60, 60, 135, 125, 56, 1, 5.00172
381, 1, bw, attraction, a-b-da, 14, 1, 1, 19, 135, 60, 60, 135, 125, 56, 3, 0.66341
381, 1, bw, filler, NA, 999, 999, 1, 20, 191, 185, 119, 191, 192, 181, 3, 1.40249
381, 1, bw, filler, NA, 999, 999, 1, 20, 191, 185, 119, 191, 192, 181, 2, 0.849424
381, 1, bw, attraction, a-b-db, 14, 3, 1, 21, 120, 195, 111, 181, 195, 120, 3, 1.57306
381, 1, bw, attraction, a-b-db, 14, 3, 1, 21, 120, 195, 111, 181, 195, 120, 2, 0.572513
381, 1, bw, attraction, a-b-da, 9, 3, 1, 22, 186, 114, 195, 120, 120, 195, 3, 1.89162
381, 1, bw, attraction, a-b-da, 9, 3, 1, 22, 186, 114, 195, 120, 120, 195, 1, 0.982349
381, 1, bw, attraction, a-b-db, 5, 3, 1, 23, 117, 190, 120, 195, 195, 120, 2, 2.74066
381, 1, bw, attraction, a-b-db, 5, 3, 1, 23, 117, 190, 120, 195, 195, 120, 3, 0.589123
381, 1, bw, attraction, a-b-da, 5, 2, 1, 24, 165, 90, 161, 88, 90, 165, 3, 1.06746
381, 1, bw, attraction, a-b-da, 5, 2, 1, 24, 165, 90, 161, 88, 90, 165, 2, 1.06379
381, 1, bw, attraction, a-b-db, 14, 1, 1, 25, 60, 135, 56, 125, 135, 60, 3, 3.74674
381, 1, bw, attraction, a-b-db, 14, 1, 1, 25, 60, 135, 56, 125, 135, 60, 2, 0.538951
381, 1, bw, filler, NA, 999, 999, 1, 26, 186, 186, 87, 59, 189, 176, 3, 0.699364
381, 1, bw, filler, NA, 999, 999, 1, 26, 186, 186, 87, 59, 189, 176, 2, 0.566535
381, 1, bw, attraction, a-b-da, 14, 3, 1, 27, 195, 120, 120, 195, 181, 111, 2, 1.02154
381, 1, bw, attraction, a-b-da, 14, 3, 1, 27, 195, 120, 120, 195, 181, 111, 3, 0.459245
381, 1, bw, attraction, a-b-db, 2, 3, 1, 28, 120, 195, 195, 120, 119, 193, 3, 1.03832
381, 1, bw, attraction, a-b-db, 2, 3, 1, 28, 120, 195, 195, 120, 119, 193, 2, 0.40328
381, 1, bw, filler, NA, 999, 999, 1, 29, 58, 100, 190, 173, 81, 148, 2, 0.737024
381, 1, bw, filler, NA, 999, 999, 1, 29, 58, 100, 190, 173, 81, 148, 1, 0.714818
381, 1, bw, attraction, a-b-da, 5, 3, 1, 30, 120, 195, 190, 117, 195, 120, 3, 3.74003
381, 1, bw, attraction, a-b-da, 5, 3, 1, 30, 120, 195, 190, 117, 195, 120, 2, 0.420022
381, 1, bw, attraction, a-b-da, 2, 1, 1, 31, 60, 135, 134, 59, 135, 60, 3, 1.0572
381, 1, bw, attraction, a-b-da, 2, 1, 1, 31, 60, 135, 134, 59, 135, 60, 1, 0.509475
381, 1, bw, catch, NA, 999, 999, 1, 32, 134, 61, 125, 190, 103, 152, 2, 0.934637
381, 1, bw, catch, NA, 999, 999, 1, 32, 134, 61, 125, 190, 103, 152, 1, 0.752233
381, 1, bw, attraction, a-b-db, 9, 3, 1, 33, 120, 195, 114, 186, 195, 120, 2, 1.35198
381, 1, bw, attraction, a-b-db, 9, 3, 1, 33, 120, 195, 114, 186, 195, 120, 3, 0.712874
381, 1, bw, filler, NA, 999, 999, 1, 34, 165, 188, 191, 185, 132, 173, 2, 0.713979
381, 1, bw, filler, NA, 999, 999, 1, 34, 165, 188, 191, 185, 132, 173, 3, 0.572362
381, 1, bw, attraction, a-b-db, 14, 2, 1, 35, 165, 90, 90, 165, 83, 153, 2, 1.4114
381, 1, bw, attraction, a-b-db, 14, 2, 1, 35, 165, 90, 90, 165, 83, 153, 3, 0.561677
381, 1, bw, attraction, a-b-db, 9, 1, 1, 36, 57, 129, 135, 60, 60, 135, 2, 1.00877
381, 1, bw, attraction, a-b-db, 9, 1, 1, 36, 57, 129, 135, 60, 60, 135, 1, 0.599088
381, 1, bw, attraction, a-b-da, 9, 2, 1, 37, 90, 165, 165, 90, 157, 86, 1, 1.50886
381, 1, bw, attraction, a-b-da, 9, 2, 1, 37, 90, 165, 165, 90, 157, 86, 3, 0.47908
381, 1, bw, attraction, a-b-db, 9, 3, 2, 1, 114, 186, 195, 120, 120, 195, 3, 1.51342
381, 1, bw, attraction, a-b-db, 9, 3, 2, 1, 114, 186, 195, 120, 120, 195, 2, 0.443636
381, 1, bw, attraction, a-b-db, 5, 1, 2, 2, 58, 132, 60, 135, 135, 60, 2, 1.47147
381, 1, bw, attraction, a-b-db, 5, 1, 2, 2, 58, 132, 60, 135, 135, 60, 1, 0.467672
381, 1, bw, filler, NA, 999, 999, 2, 3, 80, 95, 69, 180, 120, 134, 3, 1.03069
381, 1, bw, filler, NA, 999, 999, 2, 3, 80, 95, 69, 180, 120, 134, 1, 0.500364
381, 1, bw, attraction, a-b-db, 2, 3, 2, 4, 195, 120, 120, 195, 119, 193, 2, 4.42211
381, 1, bw, attraction, a-b-db, 2, 3, 2, 4, 195, 120, 120, 195, 119, 193, 1, 0.57882
381, 1, bw, attraction, a-b-db, 9, 1, 2, 5, 135, 60, 57, 129, 60, 135, 1, 2.50516
381, 1, bw, attraction, a-b-db, 9, 1, 2, 5, 135, 60, 57, 129, 60, 135, 2, 0.41974
381, 1, bw, attraction, a-b-da, 2, 1, 2, 6, 135, 60, 134, 59, 60, 135, 3, 1.88095
381, 1, bw, attraction, a-b-da, 2, 1, 2, 6, 135, 60, 134, 59, 60, 135, 2, 1.38024
381, 1, bw, attraction, a-b-db, 9, 2, 2, 7, 165, 90, 90, 165, 86, 157, 2, 5.30634
381, 1, bw, attraction, a-b-db, 9, 2, 2, 7, 165, 90, 90, 165, 86, 157, 1, 0.467306
381, 1, bw, filler, NA, 999, 999, 2, 8, 130, 154, 138, 109, 91, 168, 1, 0.886616
381, 1, bw, filler, NA, 999, 999, 2, 8, 130, 154, 138, 109, 91, 168, 2, 0.506211
381, 1, bw, attraction, a-b-da, 9, 2, 2, 9, 157, 86, 165, 90, 90, 165, 3, 0.987928
381, 1, bw, attraction, a-b-da, 9, 2, 2, 9, 157, 86, 165, 90, 90, 165, 1, 0.595595
381, 1, bw, attraction, a-b-db, 2, 1, 2, 10, 59, 134, 135, 60, 60, 135, 3, 0.929466
381, 1, bw, attraction, a-b-db, 2, 1, 2, 10, 59, 134, 135, 60, 60, 135, 2, 0.467143
381, 1, bw, attraction, a-b-db, 2, 2, 2, 11, 90, 165, 165, 90, 89, 163, 2, 0.74227
381, 1, bw, attraction, a-b-db, 2, 2, 2, 11, 90, 165, 165, 90, 89, 163, 1, 2.16733
381, 1, bw, attraction, a-b-db, 5, 3, 2, 12, 117, 190, 195, 120, 120, 195, 3, 1.422
381, 1, bw, attraction, a-b-db, 5, 3, 2, 12, 117, 190, 195, 120, 120, 195, 1, 0.627441
381, 1, bw, attraction, a-b-da, 2, 2, 2, 13, 90, 165, 165, 90, 163, 89, 2, 2.1279
381, 1, bw, attraction, a-b-da, 2, 2, 2, 13, 90, 165, 165, 90, 163, 89, 3, 0.489231
381, 1, bw, attraction, a-b-da, 5, 1, 2, 14, 135, 60, 60, 135, 132, 58, 2, 1.33965
381, 1, bw, attraction, a-b-da, 5, 1, 2, 14, 135, 60, 60, 135, 132, 58, 3, 0.476685
381, 1, bw, attraction, a-b-db, 14, 1, 2, 15, 60, 135, 135, 60, 56, 125, 3, 1.0309
381, 1, bw, attraction, a-b-db, 14, 1, 2, 15, 60, 135, 135, 60, 56, 125, 2, 0.500607
381, 1, bw, attraction, a-b-da, 9, 3, 2, 16, 120, 195, 186, 114, 195, 120, 1, 1.71846
381, 1, bw, attraction, a-b-da, 9, 3, 2, 16, 120, 195, 186, 114, 195, 120, 3, 0.704458
381, 1, bw, attraction, a-b-da, 5, 3, 2, 17, 120, 195, 190, 117, 195, 120, 3, 0.97016
381, 1, bw, attraction, a-b-da, 5, 3, 2, 17, 120, 195, 190, 117, 195, 120, 1, 0.426594
381, 1, bw, filler, NA, 999, 999, 2, 18, 138, 164, 121, 126, 73, 90, 1, 0.775021
381, 1, bw, filler, NA, 999, 999, 2, 18, 138, 164, 121, 126, 73, 90, 3, 0.534893
381, 1, bw, attraction, a-b-da, 5, 2, 2, 19, 161, 88, 90, 165, 165, 90, 2, 1.18312
381, 1, bw, attraction, a-b-da, 5, 2, 2, 19, 161, 88, 90, 165, 165, 90, 1, 0.478897
381, 1, bw, filler, NA, 999, 999, 2, 20, 147, 107, 119, 100, 67, 147, 1, 1.12924
381, 1, bw, filler, NA, 999, 999, 2, 20, 147, 107, 119, 100, 67, 147, 2, 2.35493
381, 1, bw, catch, NA, 999, 999, 2, 21, 129, 66, 191, 124, 157, 98, 2, 0.714186
381, 1, bw, catch, NA, 999, 999, 2, 21, 129, 66, 191, 124, 157, 98, 1, 0.628445
381, 1, bw, filler, NA, 999, 999, 2, 22, 179, 64, 157, 60, 96, 173, 3, 0.912854
381, 1, bw, filler, NA, 999, 999, 2, 22, 179, 64, 157, 60, 96, 173, 2, 0.443261
381, 1, bw, attraction, a-b-db, 14, 2, 2, 23, 165, 90, 90, 165, 83, 153, 1, 1.42305
381, 1, bw, attraction, a-b-db, 14, 2, 2, 23, 165, 90, 90, 165, 83, 153, 3, 0.908652
381, 1, bw, attraction, a-b-db, 14, 3, 2, 24, 111, 181, 195, 120, 120, 195, 3, 1.17359
381, 1, bw, attraction, a-b-db, 14, 3, 2, 24, 111, 181, 195, 120, 120, 195, 1, 0.453123
381, 1, bw, attraction, a-b-da, 14, 1, 2, 25, 60, 135, 125, 56, 135, 60, 3, 1.88904
381, 1, bw, attraction, a-b-da, 14, 1, 2, 25, 60, 135, 125, 56, 135, 60, 1, 0.547713
381, 1, bw, filler, NA, 999, 999, 2, 26, 109, 180, 155, 67, 172, 167, 3, 0.643528
381, 1, bw, filler, NA, 999, 999, 2, 26, 109, 180, 155, 67, 172, 167, 2, 0.584582
381, 1, bw, filler, NA, 999, 999, 2, 27, 125, 175, 187, 111, 92, 157, 2, 1.24696
381, 1, bw, filler, NA, 999, 999, 2, 27, 125, 175, 187, 111, 92, 157, 3, 0.379902
381, 1, bw, filler, NA, 999, 999, 2, 28, 177, 166, 85, 189, 76, 93, 1, 0.666409
381, 1, bw, filler, NA, 999, 999, 2, 28, 177, 166, 85, 189, 76, 93, 3, 0.422923
381, 1, bw, filler, NA, 999, 999, 2, 29, 100, 120, 164, 169, 188, 75, 2, 0.923978
381, 1, bw, filler, NA, 999, 999, 2, 29, 100, 120, 164, 169, 188, 75, 1, 0.773813
381, 1, bw, filler, NA, 999, 999, 2, 30, 74, 139, 174, 166, 162, 162, 2, 2.09214
381, 1, bw, filler, NA, 999, 999, 2, 30, 74, 139, 174, 166, 162, 162, 1, 0.574931
381, 1, bw, catch, NA, 999, 999, 2, 31, 146, 109, 88, 107, 136, 179, 3, 0.717133
381, 1, bw, catch, NA, 999, 999, 2, 31, 146, 109, 88, 107, 136, 179, 2, 0.343631
381, 1, bw, attraction, a-b-db, 5, 2, 2, 32, 88, 161, 90, 165, 165, 90, 2, 1.46341
381, 1, bw, attraction, a-b-db, 5, 2, 2, 32, 88, 161, 90, 165, 165, 90, 3, 0.427475
381, 1, bw, attraction, a-b-da, 9, 1, 2, 33, 135, 60, 129, 57, 60, 135, 1, 1.5521
381, 1, bw, attraction, a-b-da, 9, 1, 2, 33, 135, 60, 129, 57, 60, 135, 2, 0.456841
381, 1, bw, attraction, a-b-da, 14, 3, 2, 34, 120, 195, 195, 120, 181, 111, 2, 2.18003
381, 1, bw, attraction, a-b-da, 14, 3, 2, 34, 120, 195, 195, 120, 181, 111, 3, 1.18729
381, 1, bw, catch, NA, 999, 999, 2, 35, 112, 83, 131, 124, 178, 137, 3, 1.19353
381, 1, bw, catch, NA, 999, 999, 2, 35, 112, 83, 131, 124, 178, 137, 1, 0.792512
381, 1, bw, attraction, a-b-da, 2, 3, 2, 36, 195, 120, 120, 195, 193, 119, 1, 2.95815
381, 1, bw, attraction, a-b-da, 2, 3, 2, 36, 195, 120, 120, 195, 193, 119, 2, 0.437891
381, 1, bw, attraction, a-b-da, 14, 2, 2, 37, 90, 165, 153, 83, 165, 90, 2, 1.19432
381, 1, bw, attraction, a-b-da, 14, 2, 2, 37, 90, 165, 153, 83, 165, 90, 3, 0.361329
381, 1, bw, attraction, a-b-da, 14, 3, 3, 1, 181, 111, 195, 120, 120, 195, 3, 0.856358
381, 1, bw, attraction, a-b-da, 14, 3, 3, 1, 181, 111, 195, 120, 120, 195, 1, 0.364686
381, 1, bw, attraction, a-b-db, 5, 2, 3, 2, 88, 161, 90, 165, 165, 90, 2, 1.12393
381, 1, bw, attraction, a-b-db, 5, 2, 3, 2, 88, 161, 90, 165, 165, 90, 1, 0.389538
381, 1, bw, filler, NA, 999, 999, 3, 3, 192, 140, 100, 79, 91, 192, 1, 0.884112
381, 1, bw, filler, NA, 999, 999, 3, 3, 192, 140, 100, 79, 91, 192, 2, 0.407798
381, 1, bw, catch, NA, 999, 999, 3, 4, 83, 112, 154, 161, 128, 127, 2, 0.732882
381, 1, bw, catch, NA, 999, 999, 3, 4, 83, 112, 154, 161, 128, 127, 1, 0.366601
381, 1, bw, attraction, a-b-da, 5, 2, 3, 5, 161, 88, 90, 165, 165, 90, 3, 0.869842
381, 1, bw, attraction, a-b-da, 5, 2, 3, 5, 161, 88, 90, 165, 165, 90, 1, 0.642257
381, 1, bw, filler, NA, 999, 999, 3, 6, 174, 96, 89, 180, 84, 145, 2, 0.998003
381, 1, bw, filler, NA, 999, 999, 3, 6, 174, 96, 89, 180, 84, 145, 3, 0.420875
381, 1, bw, attraction, a-b-db, 2, 2, 3, 7, 90, 165, 165, 90, 89, 163, 3, 0.746169
381, 1, bw, attraction, a-b-db, 2, 2, 3, 7, 90, 165, 165, 90, 89, 163, 1, 0.459197
381, 1, bw, attraction, a-b-da, 14, 2, 3, 8, 165, 90, 153, 83, 90, 165, 3, 0.95024
381, 1, bw, attraction, a-b-da, 14, 2, 3, 8, 165, 90, 153, 83, 90, 165, 1, 0.639271
381, 1, bw, filler, NA, 999, 999, 3, 9, 164, 64, 181, 74, 95, 184, 3, 1.01164
381, 1, bw, filler, NA, 999, 999, 3, 9, 164, 64, 181, 74, 95, 184, 1, 0.690019
381, 1, bw, catch, NA, 999, 999, 3, 10, 164, 151, 135, 60, 112, 143, 1, 0.843799
381, 1, bw, catch, NA, 999, 999, 3, 10, 164, 151, 135, 60, 112, 143, 2, 0.848883
381, 1, bw, catch, NA, 999, 999, 3, 11, 142, 113, 191, 124, 112, 83, 2, 0.716521
381, 1, bw, catch, NA, 999, 999, 3, 11, 142, 113, 191, 124, 112, 83, 3, 0.438938
381, 1, bw, filler, NA, 999, 999, 3, 12, 129, 135, 91, 82, 128, 176, 3, 1.84337
381, 1, bw, filler, NA, 999, 999, 3, 12, 129, 135, 91, 82, 128, 176, 2, 0.36808
381, 1, bw, attraction, a-b-db, 14, 3, 3, 13, 195, 120, 111, 181, 120, 195, 2, 0.967156
381, 1, bw, attraction, a-b-db, 14, 3, 3, 13, 195, 120, 111, 181, 120, 195, 3, 0.375517
381, 1, bw, filler, NA, 999, 999, 3, 14, 67, 146, 93, 178, 194, 132, 3, 0.670046
381, 1, bw, filler, NA, 999, 999, 3, 14, 67, 146, 93, 178, 194, 132, 1, 0.594517
381, 1, bw, filler, NA, 999, 999, 3, 15, 110, 116, 172, 117, 87, 127, 2, 1.08018
381, 1, bw, filler, NA, 999, 999, 3, 15, 110, 116, 172, 117, 87, 127, 3, 1.37193
381, 1, bw, attraction, a-b-db, 14, 2, 3, 16, 90, 165, 165, 90, 83, 153, 1, 1.28268
381, 1, bw, attraction, a-b-db, 14, 2, 3, 16, 90, 165, 165, 90, 83, 153, 3, 0.894396
381, 1, bw, attraction, a-b-da, 2, 3, 3, 17, 193, 119, 195, 120, 120, 195, 2, 1.03194
381, 1, bw, attraction, a-b-da, 2, 3, 3, 17, 193, 119, 195, 120, 120, 195, 3, 0.397622
381, 1, bw, attraction, a-b-db, 5, 3, 3, 18, 195, 120, 120, 195, 117, 190, 3, 1.01143
381, 1, bw, attraction, a-b-db, 5, 3, 3, 18, 195, 120, 120, 195, 117, 190, 1, 0.857859
381, 1, bw, attraction, a-b-da, 9, 2, 3, 19, 157, 86, 165, 90, 90, 165, 3, 1.18882
381, 1, bw, attraction, a-b-da, 9, 2, 3, 19, 157, 86, 165, 90, 90, 165, 1, 0.571722
381, 1, bw, attraction, a-b-db, 14, 1, 3, 20, 60, 135, 135, 60, 56, 125, 3, 1.56279
381, 1, bw, attraction, a-b-db, 14, 1, 3, 20, 60, 135, 135, 60, 56, 125, 2, 0.643039
381, 1, bw, attraction, a-b-db, 5, 1, 3, 21, 58, 132, 135, 60, 60, 135, 3, 0.718729
381, 1, bw, attraction, a-b-db, 5, 1, 3, 21, 58, 132, 135, 60, 60, 135, 2, 0.457125
381, 1, bw, filler, NA, 999, 999, 3, 22, 79, 174, 169, 139, 189, 184, 3, 0.676226
381, 1, bw, filler, NA, 999, 999, 3, 22, 79, 174, 169, 139, 189, 184, 1, 0.647965
381, 1, bw, attraction, a-b-da, 5, 1, 3, 23, 135, 60, 60, 135, 132, 58, 1, 2.4117
381, 1, bw, attraction, a-b-da, 5, 1, 3, 23, 135, 60, 60, 135, 132, 58, 2, 0.41761
381, 1, bw, attraction, a-b-db, 9, 2, 3, 24, 90, 165, 86, 157, 165, 90, 3, 3.99883
381, 1, bw, attraction, a-b-db, 9, 2, 3, 24, 90, 165, 86, 157, 165, 90, 2, 0.516767
381, 1, bw, attraction, a-b-db, 2, 3, 3, 25, 195, 120, 119, 193, 120, 195, 1, 1.15798
381, 1, bw, attraction, a-b-db, 2, 3, 3, 25, 195, 120, 119, 193, 120, 195, 3, 0.462321
381, 1, bw, attraction, a-b-da, 9, 1, 3, 26, 60, 135, 135, 60, 129, 57, 1, 1.04926
381, 1, bw, attraction, a-b-da, 9, 1, 3, 26, 60, 135, 135, 60, 129, 57, 2, 0.598291
381, 1, bw, attraction, a-b-da, 14, 1, 3, 27, 135, 60, 60, 135, 125, 56, 1, 1.99611
381, 1, bw, attraction, a-b-da, 14, 1, 3, 27, 135, 60, 60, 135, 125, 56, 2, 0.690893
381, 1, bw, attraction, a-b-db, 9, 3, 3, 28, 195, 120, 120, 195, 114, 186, 1, 1.19654
381, 1, bw, attraction, a-b-db, 9, 3, 3, 28, 195, 120, 120, 195, 114, 186, 2, 0.42752
381, 1, bw, attraction, a-b-da, 5, 3, 3, 29, 190, 117, 195, 120, 120, 195, 1, 0.935902
381, 1, bw, attraction, a-b-da, 5, 3, 3, 29, 190, 117, 195, 120, 120, 195, 2, 0.809578
381, 1, bw, attraction, a-b-db, 2, 1, 3, 30, 59, 134, 60, 135, 135, 60, 2, 1.15853
381, 1, bw, attraction, a-b-db, 2, 1, 3, 30, 59, 134, 60, 135, 135, 60, 1, 0.502926
381, 1, bw, attraction, a-b-da, 2, 1, 3, 31, 135, 60, 60, 135, 134, 59, 1, 1.47269
381, 1, bw, attraction, a-b-da, 2, 1, 3, 31, 135, 60, 60, 135, 134, 59, 2, 0.516174
381, 1, bw, attraction, a-b-db, 9, 1, 3, 32, 60, 135, 57, 129, 135, 60, 1, 2.2933
381, 1, bw, attraction, a-b-db, 9, 1, 3, 32, 60, 135, 57, 129, 135, 60, 2, 0.679821
381, 1, bw, attraction, a-b-da, 9, 3, 3, 33, 120, 195, 195, 120, 186, 114, 1, 1.37027
381, 1, bw, attraction, a-b-da, 9, 3, 3, 33, 120, 195, 195, 120, 186, 114, 2, 0.610597
381, 1, bw, attraction, a-b-da, 2, 2, 3, 34, 165, 90, 90, 165, 163, 89, 1, 1.11154
381, 1, bw, attraction, a-b-da, 2, 2, 3, 34, 165, 90, 90, 165, 163, 89, 2, 0.48176
381, 1, bw, filler, NA, 999, 999, 3, 35, 193, 58, 118, 66, 100, 182, 3, 1.76431
381, 1, bw, filler, NA, 999, 999, 3, 35, 193, 58, 118, 66, 100, 182, 2, 0.47642
381, 1, bw, filler, NA, 999, 999, 3, 36, 182, 106, 127, 86, 142, 145, 3, 7.83895
381, 1, bw, filler, NA, 999, 999, 3, 36, 182, 106, 127, 86, 142, 145, 2, 0.498357
381, 1, bw, filler, NA, 999, 999, 3, 37, 124, 93, 134, 192, 104, 111, 2, 1.35621
381, 1, bw, filler, NA, 999, 999, 3, 37, 124, 93, 134, 192, 104, 111, 3, 2.65243
381, 1, bw, attraction, a-b-da, 9, 1, 4, 1, 60, 135, 135, 60, 129, 57, 1, 0.863515
381, 1, bw, attraction, a-b-da, 9, 1, 4, 1, 60, 135, 135, 60, 129, 57, 2, 0.387805
381, 1, bw, filler, NA, 999, 999, 4, 2, 171, 155, 132, 64, 182, 119, 1, 1.2263
381, 1, bw, filler, NA, 999, 999, 4, 2, 171, 155, 132, 64, 182, 119, 2, 0.791888
381, 1, bw, attraction, a-b-db, 5, 3, 4, 3, 120, 195, 117, 190, 195, 120, 2, 1.19774
381, 1, bw, attraction, a-b-db, 5, 3, 4, 3, 120, 195, 117, 190, 195, 120, 3, 0.540637
381, 1, bw, attraction, a-b-da, 9, 2, 4, 4, 157, 86, 165, 90, 90, 165, 1, 1.14839
381, 1, bw, attraction, a-b-da, 9, 2, 4, 4, 157, 86, 165, 90, 90, 165, 2, 0.493229
381, 1, bw, catch, NA, 999, 999, 4, 5, 124, 191, 90, 105, 96, 159, 1, 0.895071
381, 1, bw, catch, NA, 999, 999, 4, 5, 124, 191, 90, 105, 96, 159, 2, 0.450052
381, 1, bw, filler, NA, 999, 999, 4, 6, 66, 79, 184, 78, 190, 85, 2, 0.877901
381, 1, bw, filler, NA, 999, 999, 4, 6, 66, 79, 184, 78, 190, 85, 1, 0.393692
381, 1, bw, filler, NA, 999, 999, 4, 7, 164, 57, 92, 171, 188, 184, 3, 0.719536
381, 1, bw, filler, NA, 999, 999, 4, 7, 164, 57, 92, 171, 188, 184, 1, 0.521911
381, 1, bw, attraction, a-b-da, 2, 3, 4, 8, 195, 120, 193, 119, 120, 195, 1, 0.874908
381, 1, bw, attraction, a-b-da, 2, 3, 4, 8, 195, 120, 193, 119, 120, 195, 2, 0.374737
381, 1, bw, catch, NA, 999, 999, 4, 9, 129, 126, 83, 112, 191, 124, 3, 0.8291
381, 1, bw, catch, NA, 999, 999, 4, 9, 129, 126, 83, 112, 191, 124, 2, 0.914845
381, 1, bw, attraction, a-b-db, 9, 3, 4, 10, 120, 195, 195, 120, 114, 186, 1, 0.82777
381, 1, bw, attraction, a-b-db, 9, 3, 4, 10, 120, 195, 195, 120, 114, 186, 2, 0.401492
381, 1, bw, catch, NA, 999, 999, 4, 11, 190, 125, 160, 95, 64, 131, 1, 0.83145
381, 1, bw, catch, NA, 999, 999, 4, 11, 190, 125, 160, 95, 64, 131, 3, 0.413081
381, 1, bw, attraction, a-b-db, 2, 1, 4, 12, 135, 60, 60, 135, 59, 134, 3, 1.42624
381, 1, bw, attraction, a-b-db, 2, 1, 4, 12, 135, 60, 60, 135, 59, 134, 1, 0.615727
381, 1, bw, attraction, a-b-da, 2, 2, 4, 13, 165, 90, 163, 89, 90, 165, 1, 1.35684
381, 1, bw, attraction, a-b-da, 2, 2, 4, 13, 165, 90, 163, 89, 90, 165, 2, 0.41305
381, 1, bw, attraction, a-b-db, 5, 1, 4, 14, 58, 132, 60, 135, 135, 60, 2, 0.906193
381, 1, bw, attraction, a-b-db, 5, 1, 4, 14, 58, 132, 60, 135, 135, 60, 1, 0.868558
381, 1, bw, attraction, a-b-da, 5, 1, 4, 15, 135, 60, 132, 58, 60, 135, 3, 0.863596
381, 1, bw, attraction, a-b-da, 5, 1, 4, 15, 135, 60, 132, 58, 60, 135, 1, 0.635917
381, 1, bw, filler, NA, 999, 999, 4, 16, 136, 108, 58, 149, 101, 112, 1, 0.872326
381, 1, bw, filler, NA, 999, 999, 4, 16, 136, 108, 58, 149, 101, 112, 2, 0.54013
381, 1, bw, filler, NA, 999, 999, 4, 17, 109, 181, 151, 59, 72, 189, 1, 0.955967
381, 1, bw, filler, NA, 999, 999, 4, 17, 109, 181, 151, 59, 72, 189, 2, 0.436189
381, 1, bw, attraction, a-b-db, 14, 2, 4, 18, 90, 165, 165, 90, 83, 153, 1, 2.70459
381, 1, bw, attraction, a-b-db, 14, 2, 4, 18, 90, 165, 165, 90, 83, 153, 3, 0.923159
381, 1, bw, attraction, a-b-da, 5, 3, 4, 19, 190, 117, 120, 195, 195, 120, 1, 0.804101
381, 1, bw, attraction, a-b-da, 5, 3, 4, 19, 190, 117, 120, 195, 195, 120, 2, 0.339123
381, 1, bw, filler, NA, 999, 999, 4, 20, 113, 120, 95, 173, 81, 171, 2, 3.56366
381, 1, bw, filler, NA, 999, 999, 4, 20, 113, 120, 95, 173, 81, 171, 3, 0.379176
381, 1, bw, attraction, a-b-da, 2, 1, 4, 21, 60, 135, 135, 60, 134, 59, 1, 3.0096
381, 1, bw, attraction, a-b-da, 2, 1, 4, 21, 60, 135, 135, 60, 134, 59, 2, 0.407365
381, 1, bw, attraction, a-b-db, 2, 2, 4, 22, 165, 90, 89, 163, 90, 165, 1, 1.32446
381, 1, bw, attraction, a-b-db, 2, 2, 4, 22, 165, 90, 89, 163, 90, 165, 2, 0.517986
381, 1, bw, filler, NA, 999, 999, 4, 23, 150, 72, 95, 69, 62, 85, 1, 1.2071
381, 1, bw, filler, NA, 999, 999, 4, 23, 150, 72, 95, 69, 62, 85, 3, 0.47744
381, 1, bw, attraction, a-b-da, 5, 2, 4, 24, 165, 90, 161, 88, 90, 165, 1, 0.815871
381, 1, bw, attraction, a-b-da, 5, 2, 4, 24, 165, 90, 161, 88, 90, 165, 2, 0.550226
381, 1, bw, attraction, a-b-db, 2, 3, 4, 25, 120, 195, 119, 193, 195, 120, 1, 0.678144
381, 1, bw, attraction, a-b-db, 2, 3, 4, 25, 120, 195, 119, 193, 195, 120, 2, 0.569762
381, 1, bw, attraction, a-b-da, 14, 1, 4, 26, 60, 135, 135, 60, 125, 56, 1, 0.712927
381, 1, bw, attraction, a-b-da, 14, 1, 4, 26, 60, 135, 135, 60, 125, 56, 2, 0.427377
381, 1, bw, filler, NA, 999, 999, 4, 27, 142, 67, 156, 133, 172, 128, 3, 1.39179
381, 1, bw, filler, NA, 999, 999, 4, 27, 142, 67, 156, 133, 172, 128, 1, 1.15057
381, 1, bw, attraction, a-b-da, 9, 3, 4, 28, 186, 114, 120, 195, 195, 120, 1, 0.918151
381, 1, bw, attraction, a-b-da, 9, 3, 4, 28, 186, 114, 120, 195, 195, 120, 2, 0.368606
381, 1, bw, attraction, a-b-da, 14, 3, 4, 29, 195, 120, 181, 111, 120, 195, 1, 2.54382
381, 1, bw, attraction, a-b-da, 14, 3, 4, 29, 195, 120, 181, 111, 120, 195, 2, 0.576204
381, 1, bw, attraction, a-b-db, 9, 1, 4, 30, 57, 129, 135, 60, 60, 135, 3, 1.65474
381, 1, bw, attraction, a-b-db, 9, 1, 4, 30, 57, 129, 135, 60, 60, 135, 1, 0.947464
381, 1, bw, attraction, a-b-db, 14, 3, 4, 31, 195, 120, 120, 195, 111, 181, 1, 1.80317
381, 1, bw, attraction, a-b-db, 14, 3, 4, 31, 195, 120, 120, 195, 111, 181, 2, 0.481851
381, 1, bw, attraction, a-b-db, 5, 2, 4, 32, 88, 161, 165, 90, 90, 165, 3, 1.46836
381, 1, bw, attraction, a-b-db, 5, 2, 4, 32, 88, 161, 165, 90, 90, 165, 2, 0.440664
381, 1, bw, attraction, a-b-db, 9, 2, 4, 33, 90, 165, 165, 90, 86, 157, 1, 0.7404
381, 1, bw, attraction, a-b-db, 9, 2, 4, 33, 90, 165, 165, 90, 86, 157, 2, 0.4535
381, 1, bw, filler, NA, 999, 999, 4, 34, 163, 187, 63, 195, 97, 108, 1, 0.705181
381, 1, bw, filler, NA, 999, 999, 4, 34, 163, 187, 63, 195, 97, 108, 2, 0.483626
381, 1, bw, attraction, a-b-da, 14, 2, 4, 35, 90, 165, 165, 90, 153, 83, 1, 1.11007
381, 1, bw, attraction, a-b-da, 14, 2, 4, 35, 90, 165, 165, 90, 153, 83, 2, 0.632276
381, 1, bw, attraction, a-b-db, 14, 1, 4, 36, 56, 125, 60, 135, 135, 60, 2, 1.29284
381, 1, bw, attraction, a-b-db, 14, 1, 4, 36, 56, 125, 60, 135, 135, 60, 1, 0.452281
381, 1, bw, filler, NA, 999, 999, 4, 37, 84, 126, 164, 154, 191, 139, 2, 3.52359
381, 1, bw, filler, NA, 999, 999, 4, 37, 84, 126, 164, 154, 191, 139, 1, 0.532287
381, 1, bw, filler, NA, 999, 999, 5, 1, 130, 102, 64, 125, 78, 122, 1, 16.6754
381, 1, bw, filler, NA, 999, 999, 5, 1, 130, 102, 64, 125, 78, 122, 2, 0.714113
381, 1, bw, attraction, a-b-da, 9, 2, 5, 2, 165, 90, 157, 86, 90, 165, 1, 1.23523
381, 1, bw, attraction, a-b-da, 9, 2, 5, 2, 165, 90, 157, 86, 90, 165, 2, 0.512758
381, 1, bw, attraction, a-b-da, 5, 3, 5, 3, 190, 117, 195, 120, 120, 195, 1, 0.825924
381, 1, bw, attraction, a-b-da, 5, 3, 5, 3, 190, 117, 195, 120, 120, 195, 2, 0.375628
381, 1, bw, filler, NA, 999, 999, 5, 4, 132, 181, 108, 137, 167, 164, 3, 1.19012
381, 1, bw, filler, NA, 999, 999, 5, 4, 132, 181, 108, 137, 167, 164, 2, 0.405061
381, 1, bw, attraction, a-b-db, 2, 2, 5, 5, 90, 165, 89, 163, 165, 90, 3, 3.26692
381, 1, bw, attraction, a-b-db, 2, 2, 5, 5, 90, 165, 89, 163, 165, 90, 2, 0.374509
381, 1, bw, attraction, a-b-da, 2, 2, 5, 6, 90, 165, 163, 89, 165, 90, 1, 0.620876
381, 1, bw, attraction, a-b-da, 2, 2, 5, 6, 90, 165, 163, 89, 165, 90, 2, 0.371343
381, 1, bw, attraction, a-b-da, 14, 1, 5, 7, 125, 56, 135, 60, 60, 135, 3, 2.01856
381, 1, bw, attraction, a-b-da, 14, 1, 5, 7, 125, 56, 135, 60, 60, 135, 1, 0.784709
381, 1, bw, attraction, a-b-da, 5, 2, 5, 8, 161, 88, 165, 90, 90, 165, 3, 2.04693
381, 1, bw, attraction, a-b-da, 5, 2, 5, 8, 161, 88, 165, 90, 90, 165, 1, 0.483577
381, 1, bw, filler, NA, 999, 999, 5, 9, 181, 109, 72, 178, 72, 162, 1, 0.838102
381, 1, bw, filler, NA, 999, 999, 5, 9, 181, 109, 72, 178, 72, 162, 2, 0.675192
381, 1, bw, attraction, a-b-da, 14, 3, 5, 10, 181, 111, 195, 120, 120, 195, 3, 1.22958
381, 1, bw, attraction, a-b-da, 14, 3, 5, 10, 181, 111, 195, 120, 120, 195, 1, 0.69909
381, 1, bw, attraction, a-b-db, 14, 2, 5, 11, 83, 153, 90, 165, 165, 90, 2, 1.07686
381, 1, bw, attraction, a-b-db, 14, 2, 5, 11, 83, 153, 90, 165, 165, 90, 3, 0.40048
381, 1, bw, attraction, a-b-da, 2, 1, 5, 12, 134, 59, 135, 60, 60, 135, 3, 0.950261
381, 1, bw, attraction, a-b-da, 2, 1, 5, 12, 134, 59, 135, 60, 60, 135, 2, 0.335241
381, 1, bw, attraction, a-b-db, 14, 1, 5, 13, 56, 125, 135, 60, 60, 135, 1, 1.03981
381, 1, bw, attraction, a-b-db, 14, 1, 5, 13, 56, 125, 135, 60, 60, 135, 2, 0.372846
381, 1, bw, filler, NA, 999, 999, 5, 14, 76, 84, 96, 125, 174, 125, 3, 0.876037
381, 1, bw, filler, NA, 999, 999, 5, 14, 76, 84, 96, 125, 174, 125, 1, 0.367646
381, 1, bw, attraction, a-b-db, 5, 1, 5, 15, 135, 60, 60, 135, 58, 132, 1, 0.694777
381, 1, bw, attraction, a-b-db, 5, 1, 5, 15, 135, 60, 60, 135, 58, 132, 2, 0.337969
381, 1, bw, attraction, a-b-db, 5, 3, 5, 16, 117, 190, 120, 195, 195, 120, 2, 1.89049
381, 1, bw, attraction, a-b-db, 5, 3, 5, 16, 117, 190, 120, 195, 195, 120, 3, 0.493184
381, 1, bw, attraction, a-b-db, 14, 3, 5, 17, 120, 195, 195, 120, 111, 181, 1, 0.902846
381, 1, bw, attraction, a-b-db, 14, 3, 5, 17, 120, 195, 195, 120, 111, 181, 2, 0.321964
381, 1, bw, attraction, a-b-da, 2, 3, 5, 18, 120, 195, 195, 120, 193, 119, 1, 1.27514
381, 1, bw, attraction, a-b-da, 2, 3, 5, 18, 120, 195, 195, 120, 193, 119, 3, 0.3347
381, 1, bw, filler, NA, 999, 999, 5, 19, 101, 100, 131, 150, 142, 89, 2, 0.911283
381, 1, bw, filler, NA, 999, 999, 5, 19, 101, 100, 131, 150, 142, 89, 1, 0.36157
381, 1, bw, attraction, a-b-da, 14, 2, 5, 20, 165, 90, 153, 83, 90, 165, 3, 0.736772
381, 1, bw, attraction, a-b-da, 14, 2, 5, 20, 165, 90, 153, 83, 90, 165, 2, 0.402504
381, 1, bw, attraction, a-b-db, 9, 3, 5, 21, 195, 120, 114, 186, 120, 195, 3, 1.27223
381, 1, bw, attraction, a-b-db, 9, 3, 5, 21, 195, 120, 114, 186, 120, 195, 1, 0.531835
381, 1, bw, filler, NA, 999, 999, 5, 22, 83, 189, 73, 73, 195, 190, 3, 0.6363
381, 1, bw, filler, NA, 999, 999, 5, 22, 83, 189, 73, 73, 195, 190, 2, 0.354025
381, 1, bw, attraction, a-b-da, 5, 1, 5, 23, 60, 135, 132, 58, 135, 60, 1, 1.22598
381, 1, bw, attraction, a-b-da, 5, 1, 5, 23, 60, 135, 132, 58, 135, 60, 2, 0.311603
381, 1, bw, filler, NA, 999, 999, 5, 24, 159, 74, 105, 177, 62, 112, 2, 0.808711
381, 1, bw, filler, NA, 999, 999, 5, 24, 159, 74, 105, 177, 62, 112, 3, 0.551023
381, 1, bw, catch, NA, 999, 999, 5, 25, 128, 127, 86, 109, 169, 146, 3, 0.806774
381, 1, bw, catch, NA, 999, 999, 5, 25, 128, 127, 86, 109, 169, 146, 2, 0.381233
381, 1, bw, attraction, a-b-db, 9, 1, 5, 26, 135, 60, 60, 135, 57, 129, 2, 0.715599
381, 1, bw, attraction, a-b-db, 9, 1, 5, 26, 135, 60, 60, 135, 57, 129, 3, 0.4221
381, 1, bw, attraction, a-b-da, 9, 1, 5, 27, 60, 135, 135, 60, 129, 57, 1, 0.795216
381, 1, bw, attraction, a-b-da, 9, 1, 5, 27, 60, 135, 135, 60, 129, 57, 2, 0.738343
381, 1, bw, filler, NA, 999, 999, 5, 28, 58, 61, 108, 149, 190, 186, 3, 0.522691
381, 1, bw, filler, NA, 999, 999, 5, 28, 58, 61, 108, 149, 190, 186, 1, 0.64464
381, 1, bw, filler, NA, 999, 999, 5, 29, 100, 77, 182, 93, 87, 117, 2, 1.27221
381, 1, bw, filler, NA, 999, 999, 5, 29, 100, 77, 182, 93, 87, 117, 1, 1.12379
381, 1, bw, attraction, a-b-db, 9, 2, 5, 30, 90, 165, 86, 157, 165, 90, 1, 2.02008
381, 1, bw, attraction, a-b-db, 9, 2, 5, 30, 90, 165, 86, 157, 165, 90, 2, 0.577996
381, 1, bw, attraction, a-b-db, 5, 2, 5, 31, 90, 165, 165, 90, 88, 161, 1, 0.832529
381, 1, bw, attraction, a-b-db, 5, 2, 5, 31, 90, 165, 165, 90, 88, 161, 2, 0.798181
381, 1, bw, filler, NA, 999, 999, 5, 32, 83, 153, 56, 146, 143, 134, 3, 0.731869
381, 1, bw, filler, NA, 999, 999, 5, 32, 83, 153, 56, 146, 143, 134, 2, 0.66159
381, 1, bw, attraction, a-b-db, 2, 3, 5, 33, 195, 120, 120, 195, 119, 193, 2, 0.856905
381, 1, bw, attraction, a-b-db, 2, 3, 5, 33, 195, 120, 120, 195, 119, 193, 1, 1.18919
381, 1, bw, catch, NA, 999, 999, 5, 34, 172, 143, 128, 127, 106, 89, 1, 1.05932
381, 1, bw, catch, NA, 999, 999, 5, 34, 172, 143, 128, 127, 106, 89, 3, 0.671577
381, 1, bw, catch, NA, 999, 999, 5, 35, 169, 146, 113, 142, 116, 79, 1, 0.610712
381, 1, bw, catch, NA, 999, 999, 5, 35, 169, 146, 113, 142, 116, 79, 3, 0.737136
381, 1, bw, attraction, a-b-da, 9, 3, 5, 36, 195, 120, 120, 195, 186, 114, 3, 0.929486
381, 1, bw, attraction, a-b-da, 9, 3, 5, 36, 195, 120, 120, 195, 186, 114, 2, 0.387188
381, 1, bw, attraction, a-b-db, 2, 1, 5, 37, 59, 134, 135, 60, 60, 135, 1, 0.737727
381, 1, bw, attraction, a-b-db, 2, 1, 5, 37, 59, 134, 135, 60, 60, 135, 2, 0.48273
381, 1, bw, filler, NA, 999, 999, 6, 1, 138, 71, 68, 122, 103, 153, 3, 1.46917
381, 1, bw, filler, NA, 999, 999, 6, 1, 138, 71, 68, 122, 103, 153, 2, 0.513514
381, 1, bw, attraction, a-b-da, 9, 3, 6, 2, 195, 120, 186, 114, 120, 195, 1, 1.15446
381, 1, bw, attraction, a-b-da, 9, 3, 6, 2, 195, 120, 186, 114, 120, 195, 3, 0.699565
381, 1, bw, attraction, a-b-db, 14, 3, 6, 3, 111, 181, 120, 195, 195, 120, 3, 1.49332
381, 1, bw, attraction, a-b-db, 14, 3, 6, 3, 111, 181, 120, 195, 195, 120, 2, 0.56812
381, 1, bw, filler, NA, 999, 999, 6, 4, 173, 92, 125, 71, 154, 154, 3, 0.823165
381, 1, bw, filler, NA, 999, 999, 6, 4, 173, 92, 125, 71, 154, 154, 2, 0.428952
381, 1, bw, attraction, a-b-db, 9, 2, 6, 5, 90, 165, 86, 157, 165, 90, 1, 0.729425
381, 1, bw, attraction, a-b-db, 9, 2, 6, 5, 90, 165, 86, 157, 165, 90, 3, 0.443196
381, 1, bw, filler, NA, 999, 999, 6, 6, 140, 96, 100, 157, 162, 109, 3, 1.1029
381, 1, bw, filler, NA, 999, 999, 6, 6, 140, 96, 100, 157, 162, 109, 2, 0.409832
381, 1, bw, attraction, a-b-da, 2, 2, 6, 7, 90, 165, 163, 89, 165, 90, 1, 0.919124
381, 1, bw, attraction, a-b-da, 2, 2, 6, 7, 90, 165, 163, 89, 165, 90, 2, 1.97745
381, 1, bw, filler, NA, 999, 999, 6, 8, 153, 192, 83, 106, 187, 68, 1, 1.19938
381, 1, bw, filler, NA, 999, 999, 6, 8, 153, 192, 83, 106, 187, 68, 2, 0.894261
381, 1, bw, attraction, a-b-da, 14, 2, 6, 9, 165, 90, 153, 83, 90, 165, 1, 1.19193
381, 1, bw, attraction, a-b-da, 14, 2, 6, 9, 165, 90, 153, 83, 90, 165, 3, 0.5588
381, 1, bw, filler, NA, 999, 999, 6, 10, 82, 63, 113, 117, 78, 187, 2, 2.96599
381, 1, bw, filler, NA, 999, 999, 6, 10, 82, 63, 113, 117, 78, 187, 1, 0.677844
381, 1, bw, attraction, a-b-da, 14, 3, 6, 11, 181, 111, 120, 195, 195, 120, 2, 1.01612
381, 1, bw, attraction, a-b-da, 14, 3, 6, 11, 181, 111, 120, 195, 195, 120, 1, 1.15032
381, 1, bw, filler, NA, 999, 999, 6, 12, 58, 95, 178, 143, 134, 156, 2, 1.606
381, 1, bw, filler, NA, 999, 999, 6, 12, 58, 95, 178, 143, 134, 156, 1, 0.660053
381, 1, bw, attraction, a-b-db, 14, 1, 6, 13, 56, 125, 135, 60, 60, 135, 1, 1.47119
381, 1, bw, attraction, a-b-db, 14, 1, 6, 13, 56, 125, 135, 60, 60, 135, 2, 0.60342
381, 1, bw, attraction, a-b-db, 5, 3, 6, 14, 195, 120, 117, 190, 120, 195, 2, 1.16907
381, 1, bw, attraction, a-b-db, 5, 3, 6, 14, 195, 120, 117, 190, 120, 195, 1, 0.865434
381, 1, bw, attraction, a-b-db, 9, 1, 6, 15, 60, 135, 57, 129, 135, 60, 1, 1.91644
381, 1, bw, attraction, a-b-db, 9, 1, 6, 15, 60, 135, 57, 129, 135, 60, 3, 0.694443
381, 1, bw, attraction, a-b-db, 2, 3, 6, 16, 119, 193, 195, 120, 120, 195, 1, 1.66419
381, 1, bw, attraction, a-b-db, 2, 3, 6, 16, 119, 193, 195, 120, 120, 195, 2, 0.524307
381, 1, bw, attraction, a-b-da, 2, 1, 6, 17, 135, 60, 60, 135, 134, 59, 2, 1.70871
381, 1, bw, attraction, a-b-da, 2, 1, 6, 17, 135, 60, 60, 135, 134, 59, 1, 0.870868
381, 1, bw, filler, NA, 999, 999, 6, 18, 144, 121, 173, 89, 150, 187, 3, 1.86586
381, 1, bw, filler, NA, 999, 999, 6, 18, 144, 121, 173, 89, 150, 187, 2, 0.709923
381, 1, bw, filler, NA, 999, 999, 6, 19, 141, 177, 129, 149, 121, 104, 1, 0.894932
381, 1, bw, filler, NA, 999, 999, 6, 19, 141, 177, 129, 149, 121, 104, 3, 0.697967
381, 1, bw, catch, NA, 999, 999, 6, 20, 127, 188, 113, 82, 143, 112, 1, 1.2117
381, 1, bw, catch, NA, 999, 999, 6, 20, 127, 188, 113, 82, 143, 112, 2, 0.617962
381, 1, bw, catch, NA, 999, 999, 6, 21, 152, 103, 102, 93, 155, 160, 3, 0.983122
381, 1, bw, catch, NA, 999, 999, 6, 21, 152, 103, 102, 93, 155, 160, 2, 0.478678
381, 1, bw, attraction, a-b-da, 9, 2, 6, 22, 90, 165, 157, 86, 165, 90, 2, 1.97708
381, 1, bw, attraction, a-b-da, 9, 2, 6, 22, 90, 165, 157, 86, 165, 90, 1, 0.448547
381, 1, bw, catch, NA, 999, 999, 6, 23, 157, 98, 100, 95, 189, 126, 3, 0.81228
381, 1, bw, catch, NA, 999, 999, 6, 23, 157, 98, 100, 95, 189, 126, 2, 0.538716
381, 1, bw, filler, NA, 999, 999, 6, 24, 141, 126, 142, 87, 183, 60, 1, 1.17109
381, 1, bw, filler, NA, 999, 999, 6, 24, 141, 126, 142, 87, 183, 60, 3, 2.10686
381, 1, bw, attraction, a-b-db, 5, 1, 6, 25, 58, 132, 60, 135, 135, 60, 1, 1.80409
381, 1, bw, attraction, a-b-db, 5, 1, 6, 25, 58, 132, 60, 135, 135, 60, 3, 0.834859
381, 1, bw, attraction, a-b-da, 9, 1, 6, 26, 60, 135, 129, 57, 135, 60, 2, 1.8551
381, 1, bw, attraction, a-b-da, 9, 1, 6, 26, 60, 135, 129, 57, 135, 60, 1, 0.675146
381, 1, bw, attraction, a-b-da, 5, 2, 6, 27, 90, 165, 165, 90, 161, 88, 2, 1.28557
381, 1, bw, attraction, a-b-da, 5, 2, 6, 27, 90, 165, 165, 90, 161, 88, 1, 0.441085
381, 1, bw, attraction, a-b-db, 2, 1, 6, 28, 59, 134, 60, 135, 135, 60, 2, 1.25307
381, 1, bw, attraction, a-b-db, 2, 1, 6, 28, 59, 134, 60, 135, 135, 60, 3, 0.745905
381, 1, bw, attraction, a-b-da, 5, 1, 6, 29, 132, 58, 60, 135, 135, 60, 2, 0.889498
381, 1, bw, attraction, a-b-da, 5, 1, 6, 29, 132, 58, 60, 135, 135, 60, 1, 0.556661
381, 1, bw, attraction, a-b-db, 2, 2, 6, 30, 89, 163, 90, 165, 165, 90, 2, 0.76366
381, 1, bw, attraction, a-b-db, 2, 2, 6, 30, 89, 163, 90, 165, 165, 90, 3, 0.484076
381, 1, bw, attraction, a-b-db, 9, 3, 6, 31, 114, 186, 195, 120, 120, 195, 1, 2.39065
381, 1, bw, attraction, a-b-db, 9, 3, 6, 31, 114, 186, 195, 120, 120, 195, 2, 0.453197
381, 1, bw, attraction, a-b-da, 14, 1, 6, 32, 135, 60, 60, 135, 125, 56, 1, 1.54497
381, 1, bw, attraction, a-b-da, 14, 1, 6, 32, 135, 60, 60, 135, 125, 56, 2, 0.497799
381, 1, bw, filler, NA, 999, 999, 6, 33, 56, 127, 71, 175, 186, 195, 3, 0.867573
381, 1, bw, filler, NA, 999, 999, 6, 33, 56, 127, 71, 175, 186, 195, 1, 0.551917
381, 1, bw, attraction, a-b-db, 14, 2, 6, 34, 90, 165, 165, 90, 83, 153, 1, 1.09573
381, 1, bw, attraction, a-b-db, 14, 2, 6, 34, 90, 165, 165, 90, 83, 153, 2, 0.418689
381, 1, bw, attraction, a-b-da, 2, 3, 6, 35, 195, 120, 120, 195, 193, 119, 3, 0.951806
381, 1, bw, attraction, a-b-da, 2, 3, 6, 35, 195, 120, 120, 195, 193, 119, 2, 0.344815
381, 1, bw, attraction, a-b-db, 5, 2, 6, 36, 88, 161, 165, 90, 90, 165, 3, 0.864651
381, 1, bw, attraction, a-b-db, 5, 2, 6, 36, 88, 161, 165, 90, 90, 165, 2, 0.716984
381, 1, bw, attraction, a-b-da, 5, 3, 6, 37, 120, 195, 190, 117, 195, 120, 2, 1.46202
381, 1, bw, attraction, a-b-da, 5, 3, 6, 37, 120, 195, 190, 117, 195, 120, 1, 0.850194
381, 1, bw, attraction, a-b-da, 5, 1, 7, 1, 60, 135, 132, 58, 135, 60, 2, 1.22981
381, 1, bw, attraction, a-b-da, 5, 1, 7, 1, 60, 135, 132, 58, 135, 60, 1, 0.379488
381, 1, bw, attraction, a-b-da, 9, 2, 7, 2, 90, 165, 157, 86, 165, 90, 2, 1.49793
381, 1, bw, attraction, a-b-da, 9, 2, 7, 2, 90, 165, 157, 86, 165, 90, 1, 0.500817
381, 1, bw, attraction, a-b-da, 14, 2, 7, 3, 90, 165, 165, 90, 153, 83, 2, 1.34255
381, 1, bw, attraction, a-b-da, 14, 2, 7, 3, 90, 165, 165, 90, 153, 83, 1, 0.535518
381, 1, bw, attraction, a-b-da, 14, 3, 7, 4, 195, 120, 120, 195, 181, 111, 1, 0.855974
381, 1, bw, attraction, a-b-da, 14, 3, 7, 4, 195, 120, 120, 195, 181, 111, 2, 0.420321
381, 1, bw, catch, NA, 999, 999, 7, 5, 110, 145, 64, 131, 180, 135, 3, 1.44945
381, 1, bw, catch, NA, 999, 999, 7, 5, 110, 145, 64, 131, 180, 135, 2, 0.57425
381, 1, bw, attraction, a-b-db, 2, 2, 7, 6, 165, 90, 90, 165, 89, 163, 2, 1.00476
381, 1, bw, attraction, a-b-db, 2, 2, 7, 6, 165, 90, 90, 165, 89, 163, 1, 0.411072
381, 1, bw, attraction, a-b-db, 14, 3, 7, 7, 195, 120, 120, 195, 111, 181, 2, 1.38415
381, 1, bw, attraction, a-b-db, 14, 3, 7, 7, 195, 120, 120, 195, 111, 181, 1, 0.519882
381, 1, bw, attraction, a-b-db, 5, 1, 7, 8, 135, 60, 58, 132, 60, 135, 3, 1.99285
381, 1, bw, attraction, a-b-db, 5, 1, 7, 8, 135, 60, 58, 132, 60, 135, 1, 0.663619
381, 1, bw, attraction, a-b-db, 5, 2, 7, 9, 88, 161, 90, 165, 165, 90, 2, 1.55464
381, 1, bw, attraction, a-b-db, 5, 2, 7, 9, 88, 161, 90, 165, 165, 90, 3, 0.930801
381, 1, bw, attraction, a-b-da, 5, 3, 7, 10, 195, 120, 190, 117, 120, 195, 1, 3.15512
381, 1, bw, attraction, a-b-da, 5, 3, 7, 10, 195, 120, 190, 117, 120, 195, 3, 1.89884
381, 1, bw, filler, NA, 999, 999, 7, 11, 82, 66, 105, 173, 148, 107, 2, 0.756085
381, 1, bw, filler, NA, 999, 999, 7, 11, 82, 66, 105, 173, 148, 107, 1, 0.436578
381, 1, bw, filler, NA, 999, 999, 7, 12, 86, 177, 106, 179, 158, 192, 3, 1.17693
381, 1, bw, filler, NA, 999, 999, 7, 12, 86, 177, 106, 179, 158, 192, 2, 0.416528
381, 1, bw, attraction, a-b-da, 14, 1, 7, 13, 135, 60, 125, 56, 60, 135, 3, 1.28575
381, 1, bw, attraction, a-b-da, 14, 1, 7, 13, 135, 60, 125, 56, 60, 135, 1, 0.945311
381, 1, bw, filler, NA, 999, 999, 7, 14, 97, 141, 139, 98, 192, 108, 3, 1.57704
381, 1, bw, filler, NA, 999, 999, 7, 14, 97, 141, 139, 98, 192, 108, 1, 0.480318
381, 1, bw, attraction, a-b-db, 14, 2, 7, 15, 90, 165, 83, 153, 165, 90, 1, 2.93895
381, 1, bw, attraction, a-b-db, 14, 2, 7, 15, 90, 165, 83, 153, 165, 90, 2, 0.683307
381, 1, bw, attraction, a-b-da, 2, 1, 7, 16, 60, 135, 135, 60, 134, 59, 2, 1.20567
381, 1, bw, attraction, a-b-da, 2, 1, 7, 16, 60, 135, 135, 60, 134, 59, 1, 0.523944
381, 1, bw, attraction, a-b-da, 9, 3, 7, 17, 186, 114, 120, 195, 195, 120, 3, 1.18836
381, 1, bw, attraction, a-b-da, 9, 3, 7, 17, 186, 114, 120, 195, 195, 120, 2, 0.539338
381, 1, bw, attraction, a-b-db, 14, 1, 7, 18, 135, 60, 60, 135, 56, 125, 2, 2.7718
381, 1, bw, attraction, a-b-db, 14, 1, 7, 18, 135, 60, 60, 135, 56, 125, 3, 0.635443
381, 1, bw, attraction, a-b-db, 5, 3, 7, 19, 120, 195, 117, 190, 195, 120, 1, 2.48798
381, 1, bw, attraction, a-b-db, 5, 3, 7, 19, 120, 195, 117, 190, 195, 120, 3, 0.874475
381, 1, bw, filler, NA, 999, 999, 7, 20, 166, 120, 170, 161, 144, 114, 2, 0.892745
381, 1, bw, filler, NA, 999, 999, 7, 20, 166, 120, 170, 161, 144, 114, 3, 0.455805
381, 1, bw, attraction, a-b-db, 2, 1, 7, 21, 60, 135, 135, 60, 59, 134, 1, 0.979733
381, 1, bw, attraction, a-b-db, 2, 1, 7, 21, 60, 135, 135, 60, 59, 134, 2, 0.6193
381, 1, bw, attraction, a-b-da, 2, 2, 7, 22, 163, 89, 90, 165, 165, 90, 2, 1.10426
381, 1, bw, attraction, a-b-da, 2, 2, 7, 22, 163, 89, 90, 165, 165, 90, 3, 0.563386
381, 1, bw, attraction, a-b-db, 9, 3, 7, 23, 195, 120, 114, 186, 120, 195, 3, 1.09045
381, 1, bw, attraction, a-b-db, 9, 3, 7, 23, 195, 120, 114, 186, 120, 195, 1, 0.45337
381, 1, bw, filler, NA, 999, 999, 7, 24, 142, 95, 109, 97, 170, 156, 3, 0.777126
381, 1, bw, filler, NA, 999, 999, 7, 24, 142, 95, 109, 97, 170, 156, 2, 0.656845
381, 1, bw, attraction, a-b-db, 9, 1, 7, 25, 135, 60, 60, 135, 57, 129, 1, 1.32403
381, 1, bw, attraction, a-b-db, 9, 1, 7, 25, 135, 60, 60, 135, 57, 129, 3, 0.701578
381, 1, bw, filler, NA, 999, 999, 7, 26, 72, 180, 179, 172, 105, 141, 2, 0.847193
381, 1, bw, filler, NA, 999, 999, 7, 26, 72, 180, 179, 172, 105, 141, 1, 1.80436
381, 1, bw, catch, NA, 999, 999, 7, 27, 124, 131, 157, 158, 95, 100, 2, 0.801782
381, 1, bw, catch, NA, 999, 999, 7, 27, 124, 131, 157, 158, 95, 100, 3, 0.512791
381, 1, bw, filler, NA, 999, 999, 7, 28, 98, 183, 71, 179, 165, 100, 1, 1.12191
381, 1, bw, filler, NA, 999, 999, 7, 28, 98, 183, 71, 179, 165, 100, 3, 0.483513
381, 1, bw, attraction, a-b-da, 9, 1, 7, 29, 129, 57, 135, 60, 60, 135, 3, 1.07797
381, 1, bw, attraction, a-b-da, 9, 1, 7, 29, 129, 57, 135, 60, 60, 135, 2, 0.529582
381, 1, bw, attraction, a-b-da, 2, 3, 7, 30, 120, 195, 193, 119, 195, 120, 2, 1.434
381, 1, bw, attraction, a-b-da, 2, 3, 7, 30, 120, 195, 193, 119, 195, 120, 1, 0.823586
381, 1, bw, attraction, a-b-da, 5, 2, 7, 31, 165, 90, 90, 165, 161, 88, 1, 2.05192
381, 1, bw, attraction, a-b-da, 5, 2, 7, 31, 165, 90, 90, 165, 161, 88, 2, 0.576592
381, 1, bw, attraction, a-b-db, 2, 3, 7, 32, 195, 120, 120, 195, 119, 193, 2, 1.04701
381, 1, bw, attraction, a-b-db, 2, 3, 7, 32, 195, 120, 120, 195, 119, 193, 1, 0.444006
381, 1, bw, filler, NA, 999, 999, 7, 33, 102, 138, 58, 159, 109, 181, 3, 0.871787
381, 1, bw, filler, NA, 999, 999, 7, 33, 102, 138, 58, 159, 109, 181, 2, 0.435466
381, 1, bw, filler, NA, 999, 999, 7, 34, 191, 141, 142, 192, 83, 176, 2, 1.63199
381, 1, bw, filler, NA, 999, 999, 7, 34, 191, 141, 142, 192, 83, 176, 3, 0.549391
381, 1, bw, filler, NA, 999, 999, 7, 35, 68, 65, 150, 69, 120, 144, 3, 0.80521
381, 1, bw, filler, NA, 999, 999, 7, 35, 68, 65, 150, 69, 120, 144, 1, 0.651601
381, 1, bw, attraction, a-b-db, 9, 2, 7, 36, 165, 90, 90, 165, 86, 157, 2, 1.72732
381, 1, bw, attraction, a-b-db, 9, 2, 7, 36, 165, 90, 90, 165, 86, 157, 1, 0.448771
381, 1, bw, catch, NA, 999, 999, 7, 37, 181, 134, 134, 61, 139, 116, 1, 1.14849
381, 1, bw, catch, NA, 999, 999, 7, 37, 181, 134, 134, 61, 139, 116, 2, 0.573492
381, 1, bw, attraction, a-b-db, 2, 2, 8, 1, 90, 165, 165, 90, 89, 163, 1, 2.13987
381, 1, bw, attraction, a-b-db, 2, 2, 8, 1, 90, 165, 165, 90, 89, 163, 2, 0.396578
381, 1, bw, filler, NA, 999, 999, 8, 2, 131, 102, 191, 151, 185, 98, 2, 0.922292
381, 1, bw, filler, NA, 999, 999, 8, 2, 131, 102, 191, 151, 185, 98, 1, 0.508079
381, 1, bw, attraction, a-b-da, 9, 1, 8, 3, 135, 60, 60, 135, 129, 57, 2, 1.32519
381, 1, bw, attraction, a-b-da, 9, 1, 8, 3, 135, 60, 60, 135, 129, 57, 1, 0.5027
381, 1, bw, attraction, a-b-db, 9, 2, 8, 4, 86, 157, 165, 90, 90, 165, 3, 1.30452
381, 1, bw, attraction, a-b-db, 9, 2, 8, 4, 86, 157, 165, 90, 90, 165, 2, 0.546727
381, 1, bw, filler, NA, 999, 999, 8, 5, 171, 148, 168, 128, 72, 116, 1, 0.738524
381, 1, bw, filler, NA, 999, 999, 8, 5, 171, 148, 168, 128, 72, 116, 3, 0.515604
381, 1, bw, attraction, a-b-db, 14, 3, 8, 6, 195, 120, 120, 195, 111, 181, 3, 0.868797
381, 1, bw, attraction, a-b-db, 14, 3, 8, 6, 195, 120, 120, 195, 111, 181, 1, 0.712993
381, 1, bw, filler, NA, 999, 999, 8, 7, 84, 100, 60, 164, 91, 119, 3, 0.698109
381, 1, bw, filler, NA, 999, 999, 8, 7, 84, 100, 60, 164, 91, 119, 1, 0.6772
381, 1, bw, filler, NA, 999, 999, 8, 8, 60, 104, 187, 161, 122, 72, 2, 0.655696
381, 1, bw, filler, NA, 999, 999, 8, 8, 60, 104, 187, 161, 122, 72, 1, 0.659934
381, 1, bw, attraction, a-b-da, 9, 3, 8, 9, 186, 114, 120, 195, 195, 120, 3, 0.623083
381, 1, bw, attraction, a-b-da, 9, 3, 8, 9, 186, 114, 120, 195, 195, 120, 2, 0.508925
381, 1, bw, filler, NA, 999, 999, 8, 10, 110, 96, 188, 156, 138, 188, 3, 0.758061
381, 1, bw, filler, NA, 999, 999, 8, 10, 110, 96, 188, 156, 138, 188, 1, 0.662433
381, 1, bw, filler, NA, 999, 999, 8, 11, 117, 161, 94, 57, 137, 195, 3, 0.721405
381, 1, bw, filler, NA, 999, 999, 8, 11, 117, 161, 94, 57, 137, 195, 2, 0.483881
381, 1, bw, attraction, a-b-db, 2, 3, 8, 12, 119, 193, 195, 120, 120, 195, 1, 0.918282
381, 1, bw, attraction, a-b-db, 2, 3, 8, 12, 119, 193, 195, 120, 120, 195, 2, 0.408676
381, 1, bw, attraction, a-b-da, 2, 2, 8, 13, 163, 89, 90, 165, 165, 90, 2, 0.733945
381, 1, bw, attraction, a-b-da, 2, 2, 8, 13, 163, 89, 90, 165, 165, 90, 3, 0.463511
381, 1, bw, attraction, a-b-da, 14, 2, 8, 14, 153, 83, 90, 165, 165, 90, 2, 0.738637
381, 1, bw, attraction, a-b-da, 14, 2, 8, 14, 153, 83, 90, 165, 165, 90, 3, 1.1318
381, 1, bw, attraction, a-b-db, 14, 1, 8, 15, 135, 60, 56, 125, 60, 135, 2, 1.05206
381, 1, bw, attraction, a-b-db, 14, 1, 8, 15, 135, 60, 56, 125, 60, 135, 1, 0.553085
381, 1, bw, filler, NA, 999, 999, 8, 16, 169, 193, 121, 164, 66, 151, 1, 1.08881
381, 1, bw, filler, NA, 999, 999, 8, 16, 169, 193, 121, 164, 66, 151, 3, 0.603764
381, 1, bw, attraction, a-b-da, 5, 1, 8, 17, 60, 135, 132, 58, 135, 60, 2, 2.32152
381, 1, bw, attraction, a-b-da, 5, 1, 8, 17, 60, 135, 132, 58, 135, 60, 1, 0.394746
381, 1, bw, catch, NA, 999, 999, 8, 18, 115, 80, 148, 167, 161, 94, 2, 0.67259
381, 1, bw, catch, NA, 999, 999, 8, 18, 115, 80, 148, 167, 161, 94, 1, 0.452222
381, 1, bw, filler, NA, 999, 999, 8, 19, 160, 154, 132, 101, 117, 102, 1, 0.904156
381, 1, bw, filler, NA, 999, 999, 8, 19, 160, 154, 132, 101, 117, 102, 3, 1.32249
381, 1, bw, attraction, a-b-db, 9, 1, 8, 20, 60, 135, 57, 129, 135, 60, 2, 1.90736
381, 1, bw, attraction, a-b-db, 9, 1, 8, 20, 60, 135, 57, 129, 135, 60, 3, 0.613381
381, 1, bw, catch, NA, 999, 999, 8, 21, 150, 165, 91, 164, 119, 76, 1, 0.898466
381, 1, bw, catch, NA, 999, 999, 8, 21, 150, 165, 91, 164, 119, 76, 3, 1.00563
381, 1, bw, attraction, a-b-db, 2, 1, 8, 22, 135, 60, 60, 135, 59, 134, 2, 1.37117
381, 1, bw, attraction, a-b-db, 2, 1, 8, 22, 135, 60, 60, 135, 59, 134, 1, 0.46677
381, 1, bw, attraction, a-b-db, 14, 2, 8, 23, 165, 90, 90, 165, 83, 153, 2, 1.00581
381, 1, bw, attraction, a-b-db, 14, 2, 8, 23, 165, 90, 90, 165, 83, 153, 1, 0.524184
381, 1, bw, attraction, a-b-da, 5, 3, 8, 24, 190, 117, 195, 120, 120, 195, 1, 1.75667
381, 1, bw, attraction, a-b-da, 5, 3, 8, 24, 190, 117, 195, 120, 120, 195, 3, 0.420643
381, 1, bw, attraction, a-b-da, 2, 3, 8, 25, 193, 119, 195, 120, 120, 195, 2, 1.12995
381, 1, bw, attraction, a-b-da, 2, 3, 8, 25, 193, 119, 195, 120, 120, 195, 3, 1.17944
381, 1, bw, filler, NA, 999, 999, 8, 26, 78, 160, 85, 95, 95, 138, 3, 0.841667
381, 1, bw, filler, NA, 999, 999, 8, 26, 78, 160, 85, 95, 95, 138, 2, 0.966727
381, 1, bw, attraction, a-b-da, 14, 1, 8, 27, 135, 60, 125, 56, 60, 135, 2, 1.83767
381, 1, bw, attraction, a-b-da, 14, 1, 8, 27, 135, 60, 125, 56, 60, 135, 3, 0.54705
381, 1, bw, catch, NA, 999, 999, 8, 28, 103, 152, 80, 115, 146, 169, 3, 0.802845
381, 1, bw, catch, NA, 999, 999, 8, 28, 103, 152, 80, 115, 146, 169, 2, 0.553849
381, 1, bw, attraction, a-b-da, 5, 2, 8, 29, 165, 90, 90, 165, 161, 88, 3, 2.44968
381, 1, bw, attraction, a-b-da, 5, 2, 8, 29, 165, 90, 90, 165, 161, 88, 2, 0.4462
381, 1, bw, attraction, a-b-db, 5, 3, 8, 30, 195, 120, 120, 195, 117, 190, 1, 1.95402
381, 1, bw, attraction, a-b-db, 5, 3, 8, 30, 195, 120, 120, 195, 117, 190, 2, 1.31477
381, 1, bw, attraction, a-b-da, 2, 1, 8, 31, 135, 60, 134, 59, 60, 135, 1, 0.875529
381, 1, bw, attraction, a-b-da, 2, 1, 8, 31, 135, 60, 134, 59, 60, 135, 3, 0.711294
381, 1, bw, attraction, a-b-da, 9, 2, 8, 32, 90, 165, 165, 90, 157, 86, 2, 1.00828
381, 1, bw, attraction, a-b-da, 9, 2, 8, 32, 90, 165, 165, 90, 157, 86, 1, 0.422747
381, 1, bw, attraction, a-b-db, 5, 2, 8, 33, 88, 161, 90, 165, 165, 90, 1, 0.955838
381, 1, bw, attraction, a-b-db, 5, 2, 8, 33, 88, 161, 90, 165, 165, 90, 3, 0.460165
381, 1, bw, attraction, a-b-db, 5, 1, 8, 34, 60, 135, 135, 60, 58, 132, 1, 0.871237
381, 1, bw, attraction, a-b-db, 5, 1, 8, 34, 60, 135, 135, 60, 58, 132, 2, 0.571124
381, 1, bw, attraction, a-b-da, 14, 3, 8, 35, 120, 195, 181, 111, 195, 120, 2, 1.21001
381, 1, bw, attraction, a-b-da, 14, 3, 8, 35, 120, 195, 181, 111, 195, 120, 1, 0.512375
381, 1, bw, filler, NA, 999, 999, 8, 36, 142, 81, 109, 140, 153, 193, 3, 0.873475
381, 1, bw, filler, NA, 999, 999, 8, 36, 142, 81, 109, 140, 153, 193, 1, 0.773065
381, 1, bw, attraction, a-b-db, 9, 3, 8, 37, 114, 186, 120, 195, 195, 120, 2, 1.76424
381, 1, bw, attraction, a-b-db, 9, 3, 8, 37, 114, 186, 120, 195, 195, 120, 3, 0.404265
