sub_n, computer_n, bw_cond, effect, set, distance, diag, block_n, trial_n, h1, w1, h2, w2, h3, w3, choice, rt 
363, 1, bw, practice, NA, 999, 999, 0, 1, 73, 186, 151, 97, 182, 62, 1, 6.9523
363, 1, bw, practice, NA, 999, 999, 0, 1, 73, 186, 151, 97, 182, 62, 3, 3.43236
363, 1, bw, practice, NA, 999, 999, 0, 2, 148, 162, 85, 96, 178, 160, 3, 3.92844
363, 1, bw, practice, NA, 999, 999, 0, 2, 148, 162, 85, 96, 178, 160, 2, 2.32792
363, 1, bw, practice, NA, 999, 999, 0, 3, 127, 179, 62, 148, 119, 114, 1, 2.17453
363, 1, bw, practice, NA, 999, 999, 0, 3, 127, 179, 62, 148, 119, 114, 2, 1.69452
363, 1, bw, filler, NA, 999, 999, 1, 1, 96, 184, 92, 189, 118, 136, 1, 3.44771
363, 1, bw, filler, NA, 999, 999, 1, 1, 96, 184, 92, 189, 118, 136, 3, 3.63615
363, 1, bw, attraction, a-b-da, 5, 1, 1, 2, 135, 60, 132, 58, 60, 135, 3, 3.53544
363, 1, bw, attraction, a-b-da, 5, 1, 1, 2, 135, 60, 132, 58, 60, 135, 2, 1.55234
363, 1, bw, catch, NA, 999, 999, 1, 3, 144, 111, 102, 93, 193, 122, 3, 1.41582
363, 1, bw, catch, NA, 999, 999, 1, 3, 144, 111, 102, 93, 193, 122, 2, 1.11787
363, 1, bw, attraction, a-b-da, 14, 3, 1, 4, 120, 195, 195, 120, 181, 111, 1, 5.14298
363, 1, bw, attraction, a-b-da, 14, 3, 1, 4, 120, 195, 195, 120, 181, 111, 3, 1.24654
363, 1, bw, attraction, a-b-db, 5, 3, 1, 5, 120, 195, 117, 190, 195, 120, 1, 2.81015
363, 1, bw, attraction, a-b-db, 5, 3, 1, 5, 120, 195, 117, 190, 195, 120, 3, 1.0879
363, 1, bw, catch, NA, 999, 999, 1, 6, 90, 165, 143, 172, 124, 71, 2, 1.59419
363, 1, bw, catch, NA, 999, 999, 1, 6, 90, 165, 143, 172, 124, 71, 3, 1.16099
363, 1, bw, attraction, a-b-db, 9, 2, 1, 7, 165, 90, 90, 165, 86, 157, 2, 5.95184
363, 1, bw, attraction, a-b-db, 9, 2, 1, 7, 165, 90, 90, 165, 86, 157, 1, 1.84748
363, 1, bw, attraction, a-b-db, 5, 1, 1, 8, 58, 132, 135, 60, 60, 135, 3, 2.83474
363, 1, bw, attraction, a-b-db, 5, 1, 1, 8, 58, 132, 135, 60, 60, 135, 2, 0.743742
363, 1, bw, filler, NA, 999, 999, 1, 9, 81, 158, 119, 172, 92, 184, 2, 2.19158
363, 1, bw, filler, NA, 999, 999, 1, 9, 81, 158, 119, 172, 92, 184, 1, 0.781977
363, 1, bw, attraction, a-b-da, 9, 1, 1, 10, 129, 57, 60, 135, 135, 60, 2, 3.94053
363, 1, bw, attraction, a-b-da, 9, 1, 1, 10, 129, 57, 60, 135, 135, 60, 1, 0.740527
363, 1, bw, attraction, a-b-da, 9, 2, 1, 11, 165, 90, 90, 165, 157, 86, 2, 2.54028
363, 1, bw, attraction, a-b-da, 9, 2, 1, 11, 165, 90, 90, 165, 157, 86, 3, 0.74077
363, 1, bw, catch, NA, 999, 999, 1, 12, 155, 160, 73, 122, 143, 112, 1, 1.26047
363, 1, bw, catch, NA, 999, 999, 1, 12, 155, 160, 73, 122, 143, 112, 2, 1.09678
363, 1, bw, attraction, a-b-db, 9, 1, 1, 13, 57, 129, 60, 135, 135, 60, 2, 4.47432
363, 1, bw, attraction, a-b-db, 9, 1, 1, 13, 57, 129, 60, 135, 135, 60, 3, 0.828876
363, 1, bw, filler, NA, 999, 999, 1, 14, 180, 121, 195, 59, 75, 119, 1, 1.28917
363, 1, bw, filler, NA, 999, 999, 1, 14, 180, 121, 195, 59, 75, 119, 3, 1.27618
363, 1, bw, attraction, a-b-da, 14, 1, 1, 15, 125, 56, 135, 60, 60, 135, 3, 2.91039
363, 1, bw, attraction, a-b-da, 14, 1, 1, 15, 125, 56, 135, 60, 60, 135, 1, 0.919994
363, 1, bw, attraction, a-b-db, 14, 1, 1, 16, 60, 135, 56, 125, 135, 60, 1, 2.54503
363, 1, bw, attraction, a-b-db, 14, 1, 1, 16, 60, 135, 56, 125, 135, 60, 3, 1.41765
363, 1, bw, attraction, a-b-da, 2, 2, 1, 17, 163, 89, 90, 165, 165, 90, 2, 2.69441
363, 1, bw, attraction, a-b-da, 2, 2, 1, 17, 163, 89, 90, 165, 165, 90, 1, 2.13688
363, 1, bw, filler, NA, 999, 999, 1, 18, 112, 144, 76, 172, 169, 168, 3, 1.54483
363, 1, bw, filler, NA, 999, 999, 1, 18, 112, 144, 76, 172, 169, 168, 2, 0.649626
363, 1, bw, attraction, a-b-da, 2, 1, 1, 19, 134, 59, 60, 135, 135, 60, 2, 2.81334
363, 1, bw, attraction, a-b-da, 2, 1, 1, 19, 134, 59, 60, 135, 135, 60, 3, 0.707062
363, 1, bw, attraction, a-b-db, 2, 2, 1, 20, 90, 165, 165, 90, 89, 163, 1, 1.30015
363, 1, bw, attraction, a-b-db, 2, 2, 1, 20, 90, 165, 165, 90, 89, 163, 2, 0.855073
363, 1, bw, filler, NA, 999, 999, 1, 21, 171, 105, 68, 97, 83, 165, 1, 2.35475
363, 1, bw, filler, NA, 999, 999, 1, 21, 171, 105, 68, 97, 83, 165, 2, 0.859313
363, 1, bw, attraction, a-b-db, 5, 2, 1, 22, 88, 161, 165, 90, 90, 165, 1, 4.21426
363, 1, bw, attraction, a-b-db, 5, 2, 1, 22, 88, 161, 165, 90, 90, 165, 2, 0.659678
363, 1, bw, attraction, a-b-db, 2, 3, 1, 23, 195, 120, 119, 193, 120, 195, 1, 4.46265
363, 1, bw, attraction, a-b-db, 2, 3, 1, 23, 195, 120, 119, 193, 120, 195, 2, 0.713908
363, 1, bw, attraction, a-b-db, 2, 1, 1, 24, 135, 60, 59, 134, 60, 135, 3, 2.13902
363, 1, bw, attraction, a-b-db, 2, 1, 1, 24, 135, 60, 59, 134, 60, 135, 1, 0.955625
363, 1, bw, filler, NA, 999, 999, 1, 25, 113, 137, 160, 160, 168, 185, 3, 2.12332
363, 1, bw, filler, NA, 999, 999, 1, 25, 113, 137, 160, 160, 168, 185, 1, 0.70874
363, 1, bw, attraction, a-b-da, 9, 3, 1, 26, 120, 195, 195, 120, 186, 114, 1, 5.45371
363, 1, bw, attraction, a-b-da, 9, 3, 1, 26, 120, 195, 195, 120, 186, 114, 2, 1.3293
363, 1, bw, attraction, a-b-da, 2, 3, 1, 27, 193, 119, 195, 120, 120, 195, 3, 2.44955
363, 1, bw, attraction, a-b-da, 2, 3, 1, 27, 193, 119, 195, 120, 120, 195, 2, 0.685986
363, 1, bw, attraction, a-b-db, 9, 3, 1, 28, 195, 120, 114, 186, 120, 195, 3, 2.76044
363, 1, bw, attraction, a-b-db, 9, 3, 1, 28, 195, 120, 114, 186, 120, 195, 2, 0.536241
363, 1, bw, filler, NA, 999, 999, 1, 29, 94, 152, 72, 158, 118, 137, 3, 2.70464
363, 1, bw, filler, NA, 999, 999, 1, 29, 94, 152, 72, 158, 118, 137, 2, 0.794361
363, 1, bw, attraction, a-b-da, 5, 2, 1, 30, 165, 90, 90, 165, 161, 88, 1, 1.78404
363, 1, bw, attraction, a-b-da, 5, 2, 1, 30, 165, 90, 90, 165, 161, 88, 3, 1.87955
363, 1, bw, filler, NA, 999, 999, 1, 31, 189, 177, 109, 148, 152, 59, 1, 1.0655
363, 1, bw, filler, NA, 999, 999, 1, 31, 189, 177, 109, 148, 152, 59, 3, 0.997806
363, 1, bw, attraction, a-b-db, 14, 3, 1, 32, 111, 181, 195, 120, 120, 195, 3, 1.81942
363, 1, bw, attraction, a-b-db, 14, 3, 1, 32, 111, 181, 195, 120, 120, 195, 1, 2.13751
363, 1, bw, filler, NA, 999, 999, 1, 33, 133, 58, 162, 152, 166, 75, 2, 1.12154
363, 1, bw, filler, NA, 999, 999, 1, 33, 133, 58, 162, 152, 166, 75, 1, 0.531135
363, 1, bw, attraction, a-b-da, 14, 2, 1, 34, 90, 165, 153, 83, 165, 90, 1, 2.35554
363, 1, bw, attraction, a-b-da, 14, 2, 1, 34, 90, 165, 153, 83, 165, 90, 2, 0.659609
363, 1, bw, attraction, a-b-db, 14, 2, 1, 35, 83, 153, 165, 90, 90, 165, 3, 1.85451
363, 1, bw, attraction, a-b-db, 14, 2, 1, 35, 83, 153, 165, 90, 90, 165, 1, 1.27522
363, 1, bw, filler, NA, 999, 999, 1, 36, 178, 146, 182, 102, 61, 195, 1, 1.2535
363, 1, bw, filler, NA, 999, 999, 1, 36, 178, 146, 182, 102, 61, 195, 3, 0.778344
363, 1, bw, attraction, a-b-da, 5, 3, 1, 37, 120, 195, 195, 120, 190, 117, 1, 2.90467
363, 1, bw, attraction, a-b-da, 5, 3, 1, 37, 120, 195, 195, 120, 190, 117, 3, 0.659085
363, 1, bw, attraction, a-b-db, 5, 3, 2, 1, 195, 120, 120, 195, 117, 190, 2, 1.39029
363, 1, bw, attraction, a-b-db, 5, 3, 2, 1, 195, 120, 120, 195, 117, 190, 1, 0.493122
363, 1, bw, attraction, a-b-db, 14, 3, 2, 2, 111, 181, 120, 195, 195, 120, 2, 1.99087
363, 1, bw, attraction, a-b-db, 14, 3, 2, 2, 111, 181, 120, 195, 195, 120, 3, 0.653494
363, 1, bw, attraction, a-b-db, 9, 3, 2, 3, 114, 186, 195, 120, 120, 195, 3, 1.85738
363, 1, bw, attraction, a-b-db, 9, 3, 2, 3, 114, 186, 195, 120, 120, 195, 2, 0.389341
363, 1, bw, attraction, a-b-db, 9, 2, 2, 4, 86, 157, 90, 165, 165, 90, 2, 2.53184
363, 1, bw, attraction, a-b-db, 9, 2, 2, 4, 86, 157, 90, 165, 165, 90, 3, 0.588994
363, 1, bw, attraction, a-b-db, 14, 2, 2, 5, 90, 165, 83, 153, 165, 90, 1, 1.4835
363, 1, bw, attraction, a-b-db, 14, 2, 2, 5, 90, 165, 83, 153, 165, 90, 2, 0.383036
363, 1, bw, attraction, a-b-da, 14, 1, 2, 6, 60, 135, 125, 56, 135, 60, 1, 1.82948
363, 1, bw, attraction, a-b-da, 14, 1, 2, 6, 60, 135, 125, 56, 135, 60, 2, 0.450959
363, 1, bw, filler, NA, 999, 999, 2, 7, 174, 100, 155, 71, 122, 187, 3, 2.0307
363, 1, bw, filler, NA, 999, 999, 2, 7, 174, 100, 155, 71, 122, 187, 2, 0.691999
363, 1, bw, filler, NA, 999, 999, 2, 8, 98, 92, 93, 69, 72, 156, 3, 2.98975
363, 1, bw, filler, NA, 999, 999, 2, 8, 98, 92, 93, 69, 72, 156, 2, 0.54002
363, 1, bw, attraction, a-b-db, 5, 1, 2, 9, 60, 135, 58, 132, 135, 60, 1, 4.93181
363, 1, bw, attraction, a-b-db, 5, 1, 2, 9, 60, 135, 58, 132, 135, 60, 3, 0.652393
363, 1, bw, attraction, a-b-da, 2, 1, 2, 10, 134, 59, 60, 135, 135, 60, 2, 2.04012
363, 1, bw, attraction, a-b-da, 2, 1, 2, 10, 134, 59, 60, 135, 135, 60, 3, 0.788716
363, 1, bw, catch, NA, 999, 999, 2, 11, 105, 150, 155, 160, 121, 74, 2, 2.14709
363, 1, bw, catch, NA, 999, 999, 2, 11, 105, 150, 155, 160, 121, 74, 3, 0.787661
363, 1, bw, attraction, a-b-db, 9, 1, 2, 12, 60, 135, 135, 60, 57, 129, 1, 1.098
363, 1, bw, attraction, a-b-db, 9, 1, 2, 12, 60, 135, 135, 60, 57, 129, 2, 0.677058
363, 1, bw, filler, NA, 999, 999, 2, 13, 151, 158, 106, 71, 113, 108, 1, 0.847378
363, 1, bw, filler, NA, 999, 999, 2, 13, 151, 158, 106, 71, 113, 108, 2, 0.420443
363, 1, bw, filler, NA, 999, 999, 2, 14, 185, 82, 118, 174, 186, 110, 2, 1.05755
363, 1, bw, filler, NA, 999, 999, 2, 14, 185, 82, 118, 174, 186, 110, 1, 1.34214
363, 1, bw, filler, NA, 999, 999, 2, 15, 177, 180, 80, 58, 175, 59, 1, 0.765463
363, 1, bw, filler, NA, 999, 999, 2, 15, 177, 180, 80, 58, 175, 59, 2, 0.701741
363, 1, bw, attraction, a-b-db, 2, 3, 2, 16, 120, 195, 119, 193, 195, 120, 2, 4.99956
363, 1, bw, attraction, a-b-db, 2, 3, 2, 16, 120, 195, 119, 193, 195, 120, 3, 0.893369
363, 1, bw, attraction, a-b-db, 2, 2, 2, 17, 89, 163, 165, 90, 90, 165, 3, 2.67915
363, 1, bw, attraction, a-b-db, 2, 2, 2, 17, 89, 163, 165, 90, 90, 165, 2, 0.498115
363, 1, bw, attraction, a-b-da, 9, 3, 2, 18, 120, 195, 186, 114, 195, 120, 1, 1.6759
363, 1, bw, attraction, a-b-da, 9, 3, 2, 18, 120, 195, 186, 114, 195, 120, 2, 0.367388
363, 1, bw, attraction, a-b-da, 2, 2, 2, 19, 165, 90, 163, 89, 90, 165, 3, 3.31851
363, 1, bw, attraction, a-b-da, 2, 2, 2, 19, 165, 90, 163, 89, 90, 165, 2, 0.592098
363, 1, bw, filler, NA, 999, 999, 2, 20, 134, 104, 119, 149, 125, 179, 3, 1.26987
363, 1, bw, filler, NA, 999, 999, 2, 20, 134, 104, 119, 149, 125, 179, 1, 0.698086
363, 1, bw, attraction, a-b-da, 14, 3, 2, 21, 195, 120, 120, 195, 181, 111, 2, 2.71585
363, 1, bw, attraction, a-b-da, 14, 3, 2, 21, 195, 120, 120, 195, 181, 111, 3, 0.533513
363, 1, bw, attraction, a-b-db, 14, 1, 2, 22, 56, 125, 60, 135, 135, 60, 2, 1.78211
363, 1, bw, attraction, a-b-db, 14, 1, 2, 22, 56, 125, 60, 135, 135, 60, 3, 0.477527
363, 1, bw, attraction, a-b-da, 9, 1, 2, 23, 60, 135, 129, 57, 135, 60, 1, 1.22393
363, 1, bw, attraction, a-b-da, 9, 1, 2, 23, 60, 135, 129, 57, 135, 60, 2, 1.34151
363, 1, bw, attraction, a-b-db, 2, 1, 2, 24, 59, 134, 60, 135, 135, 60, 2, 1.83701
363, 1, bw, attraction, a-b-db, 2, 1, 2, 24, 59, 134, 60, 135, 135, 60, 3, 0.890388
363, 1, bw, catch, NA, 999, 999, 2, 25, 114, 81, 90, 165, 132, 183, 3, 0.900158
363, 1, bw, catch, NA, 999, 999, 2, 25, 114, 81, 90, 165, 132, 183, 1, 0.855148
363, 1, bw, filler, NA, 999, 999, 2, 26, 172, 181, 153, 160, 65, 163, 1, 0.914883
363, 1, bw, filler, NA, 999, 999, 2, 26, 172, 181, 153, 160, 65, 163, 3, 0.645095
363, 1, bw, attraction, a-b-da, 5, 3, 2, 27, 190, 117, 195, 120, 120, 195, 3, 1.88098
363, 1, bw, attraction, a-b-da, 5, 3, 2, 27, 190, 117, 195, 120, 120, 195, 1, 0.604363
363, 1, bw, filler, NA, 999, 999, 2, 28, 67, 192, 73, 168, 110, 94, 2, 2.50613
363, 1, bw, filler, NA, 999, 999, 2, 28, 67, 192, 73, 168, 110, 94, 3, 0.595889
363, 1, bw, filler, NA, 999, 999, 2, 29, 187, 96, 117, 151, 179, 189, 3, 3.03369
363, 1, bw, filler, NA, 999, 999, 2, 29, 187, 96, 117, 151, 179, 189, 2, 0.518743
363, 1, bw, attraction, a-b-da, 14, 2, 2, 30, 153, 83, 90, 165, 165, 90, 3, 1.8638
363, 1, bw, attraction, a-b-da, 14, 2, 2, 30, 153, 83, 90, 165, 165, 90, 1, 0.803793
363, 1, bw, attraction, a-b-da, 5, 2, 2, 31, 161, 88, 90, 165, 165, 90, 3, 3.53751
363, 1, bw, attraction, a-b-da, 5, 2, 2, 31, 161, 88, 90, 165, 165, 90, 1, 0.706306
363, 1, bw, catch, NA, 999, 999, 2, 32, 123, 192, 80, 115, 109, 146, 1, 1.24416
363, 1, bw, catch, NA, 999, 999, 2, 32, 123, 192, 80, 115, 109, 146, 2, 0.464982
363, 1, bw, attraction, a-b-da, 2, 3, 2, 33, 195, 120, 193, 119, 120, 195, 2, 1.92414
363, 1, bw, attraction, a-b-da, 2, 3, 2, 33, 195, 120, 193, 119, 120, 195, 1, 0.429564
363, 1, bw, attraction, a-b-da, 5, 1, 2, 34, 132, 58, 60, 135, 135, 60, 2, 4.09005
363, 1, bw, attraction, a-b-da, 5, 1, 2, 34, 132, 58, 60, 135, 135, 60, 1, 0.644001
363, 1, bw, attraction, a-b-db, 5, 2, 2, 35, 88, 161, 165, 90, 90, 165, 3, 1.38379
363, 1, bw, attraction, a-b-db, 5, 2, 2, 35, 88, 161, 165, 90, 90, 165, 2, 0.591432
363, 1, bw, filler, NA, 999, 999, 2, 36, 136, 176, 66, 145, 160, 89, 1, 0.876997
363, 1, bw, filler, NA, 999, 999, 2, 36, 136, 176, 66, 145, 160, 89, 2, 0.512696
363, 1, bw, attraction, a-b-da, 9, 2, 2, 37, 90, 165, 157, 86, 165, 90, 1, 2.23392
363, 1, bw, attraction, a-b-da, 9, 2, 2, 37, 90, 165, 157, 86, 165, 90, 2, 0.78334
363, 1, bw, catch, NA, 999, 999, 3, 1, 90, 105, 91, 164, 137, 178, 3, 0.965615
363, 1, bw, catch, NA, 999, 999, 3, 1, 90, 105, 91, 164, 137, 178, 1, 1.1979
363, 1, bw, attraction, a-b-db, 5, 1, 3, 2, 58, 132, 60, 135, 135, 60, 1, 2.99545
363, 1, bw, attraction, a-b-db, 5, 1, 3, 2, 58, 132, 60, 135, 135, 60, 2, 0.545826
363, 1, bw, attraction, a-b-da, 5, 1, 3, 3, 60, 135, 135, 60, 132, 58, 2, 16.4895
363, 1, bw, attraction, a-b-da, 5, 1, 3, 3, 60, 135, 135, 60, 132, 58, 3, 1.0724
363, 1, bw, attraction, a-b-da, 14, 3, 3, 4, 195, 120, 120, 195, 181, 111, 2, 1.5074
363, 1, bw, attraction, a-b-da, 14, 3, 3, 4, 195, 120, 120, 195, 181, 111, 3, 0.701426
363, 1, bw, attraction, a-b-da, 5, 3, 3, 5, 190, 117, 195, 120, 120, 195, 3, 1.53519
363, 1, bw, attraction, a-b-da, 5, 3, 3, 5, 190, 117, 195, 120, 120, 195, 1, 0.858463
363, 1, bw, attraction, a-b-da, 2, 1, 3, 6, 134, 59, 135, 60, 60, 135, 2, 3.39564
363, 1, bw, attraction, a-b-da, 2, 1, 3, 6, 134, 59, 135, 60, 60, 135, 1, 1.16997
363, 1, bw, attraction, a-b-db, 14, 2, 3, 7, 165, 90, 83, 153, 90, 165, 3, 1.88088
363, 1, bw, attraction, a-b-db, 14, 2, 3, 7, 165, 90, 83, 153, 90, 165, 2, 0.476398
363, 1, bw, filler, NA, 999, 999, 3, 8, 114, 110, 147, 78, 65, 72, 2, 8.99077
363, 1, bw, filler, NA, 999, 999, 3, 8, 114, 110, 147, 78, 65, 72, 3, 1.03521
363, 1, bw, attraction, a-b-da, 2, 2, 3, 9, 90, 165, 163, 89, 165, 90, 1, 3.15149
363, 1, bw, attraction, a-b-da, 2, 2, 3, 9, 90, 165, 163, 89, 165, 90, 2, 0.495743
363, 1, bw, filler, NA, 999, 999, 3, 10, 134, 174, 62, 191, 89, 100, 1, 1.08956
363, 1, bw, filler, NA, 999, 999, 3, 10, 134, 174, 62, 191, 89, 100, 3, 1.50053
363, 1, bw, filler, NA, 999, 999, 3, 11, 162, 114, 131, 188, 143, 128, 2, 2.47804
363, 1, bw, filler, NA, 999, 999, 3, 11, 162, 114, 131, 188, 143, 128, 1, 1.36929
363, 1, bw, attraction, a-b-db, 5, 2, 3, 12, 165, 90, 90, 165, 88, 161, 3, 2.05626
363, 1, bw, attraction, a-b-db, 5, 2, 3, 12, 165, 90, 90, 165, 88, 161, 1, 0.844114
363, 1, bw, attraction, a-b-da, 9, 1, 3, 13, 60, 135, 135, 60, 129, 57, 1, 1.62376
363, 1, bw, attraction, a-b-da, 9, 1, 3, 13, 60, 135, 135, 60, 129, 57, 2, 0.725242
363, 1, bw, filler, NA, 999, 999, 3, 14, 61, 171, 130, 102, 142, 58, 2, 1.23765
363, 1, bw, filler, NA, 999, 999, 3, 14, 61, 171, 130, 102, 142, 58, 3, 0.762552
363, 1, bw, attraction, a-b-db, 5, 3, 3, 15, 195, 120, 120, 195, 117, 190, 2, 2.45765
363, 1, bw, attraction, a-b-db, 5, 3, 3, 15, 195, 120, 120, 195, 117, 190, 1, 2.08855
363, 1, bw, attraction, a-b-db, 14, 1, 3, 16, 60, 135, 135, 60, 56, 125, 1, 2.56746
363, 1, bw, attraction, a-b-db, 14, 1, 3, 16, 60, 135, 135, 60, 56, 125, 3, 1.05536
363, 1, bw, attraction, a-b-db, 9, 1, 3, 17, 135, 60, 60, 135, 57, 129, 2, 2.37897
363, 1, bw, attraction, a-b-db, 9, 1, 3, 17, 135, 60, 60, 135, 57, 129, 3, 1.5222
363, 1, bw, filler, NA, 999, 999, 3, 18, 174, 158, 94, 100, 105, 78, 1, 0.787045
363, 1, bw, filler, NA, 999, 999, 3, 18, 174, 158, 94, 100, 105, 78, 3, 2.74669
363, 1, bw, attraction, a-b-da, 5, 2, 3, 19, 90, 165, 165, 90, 161, 88, 1, 1.57776
363, 1, bw, attraction, a-b-da, 5, 2, 3, 19, 90, 165, 165, 90, 161, 88, 2, 0.697167
363, 1, bw, attraction, a-b-db, 14, 3, 3, 20, 120, 195, 195, 120, 111, 181, 1, 2.00297
363, 1, bw, attraction, a-b-db, 14, 3, 3, 20, 120, 195, 195, 120, 111, 181, 2, 0.513616
363, 1, bw, filler, NA, 999, 999, 3, 21, 91, 68, 170, 139, 182, 56, 2, 1.45079
363, 1, bw, filler, NA, 999, 999, 3, 21, 91, 68, 170, 139, 182, 56, 1, 0.631452
363, 1, bw, filler, NA, 999, 999, 3, 22, 100, 150, 129, 68, 188, 112, 3, 1.73197
363, 1, bw, filler, NA, 999, 999, 3, 22, 100, 150, 129, 68, 188, 112, 2, 1.65333
363, 1, bw, attraction, a-b-da, 9, 2, 3, 23, 157, 86, 90, 165, 165, 90, 2, 1.57688
363, 1, bw, attraction, a-b-da, 9, 2, 3, 23, 157, 86, 90, 165, 165, 90, 1, 0.752227
363, 1, bw, catch, NA, 999, 999, 3, 24, 154, 161, 110, 85, 91, 164, 1, 1.33602
363, 1, bw, catch, NA, 999, 999, 3, 24, 154, 161, 110, 85, 91, 164, 2, 0.513552
363, 1, bw, attraction, a-b-db, 9, 2, 3, 25, 165, 90, 86, 157, 90, 165, 3, 2.21068
363, 1, bw, attraction, a-b-db, 9, 2, 3, 25, 165, 90, 86, 157, 90, 165, 2, 0.848581
363, 1, bw, attraction, a-b-db, 2, 2, 3, 26, 90, 165, 89, 163, 165, 90, 2, 2.22028
363, 1, bw, attraction, a-b-db, 2, 2, 3, 26, 90, 165, 89, 163, 165, 90, 1, 0.866206
363, 1, bw, catch, NA, 999, 999, 3, 27, 182, 133, 113, 82, 142, 113, 1, 1.9893
363, 1, bw, catch, NA, 999, 999, 3, 27, 182, 133, 113, 82, 142, 113, 2, 1.07601
363, 1, bw, attraction, a-b-da, 14, 2, 3, 28, 153, 83, 90, 165, 165, 90, 2, 2.97413
363, 1, bw, attraction, a-b-da, 14, 2, 3, 28, 153, 83, 90, 165, 165, 90, 1, 0.821252
363, 1, bw, filler, NA, 999, 999, 3, 29, 119, 136, 119, 61, 194, 161, 3, 0.882273
363, 1, bw, filler, NA, 999, 999, 3, 29, 119, 136, 119, 61, 194, 161, 2, 1.04601
363, 1, bw, attraction, a-b-db, 2, 3, 3, 30, 120, 195, 119, 193, 195, 120, 1, 5.36954
363, 1, bw, attraction, a-b-db, 2, 3, 3, 30, 120, 195, 119, 193, 195, 120, 2, 1.08049
363, 1, bw, attraction, a-b-db, 2, 1, 3, 31, 59, 134, 135, 60, 60, 135, 3, 1.73885
363, 1, bw, attraction, a-b-db, 2, 1, 3, 31, 59, 134, 135, 60, 60, 135, 2, 1.0915
363, 1, bw, attraction, a-b-da, 9, 3, 3, 32, 120, 195, 195, 120, 186, 114, 1, 1.6611
363, 1, bw, attraction, a-b-da, 9, 3, 3, 32, 120, 195, 195, 120, 186, 114, 3, 1.78541
363, 1, bw, attraction, a-b-db, 9, 3, 3, 33, 195, 120, 120, 195, 114, 186, 1, 1.08747
363, 1, bw, attraction, a-b-db, 9, 3, 3, 33, 195, 120, 120, 195, 114, 186, 3, 1.07532
363, 1, bw, filler, NA, 999, 999, 3, 34, 72, 66, 116, 171, 72, 159, 2, 1.43731
363, 1, bw, filler, NA, 999, 999, 3, 34, 72, 66, 116, 171, 72, 159, 1, 1.51479
363, 1, bw, attraction, a-b-da, 2, 3, 3, 35, 195, 120, 120, 195, 193, 119, 3, 1.80369
363, 1, bw, attraction, a-b-da, 2, 3, 3, 35, 195, 120, 120, 195, 193, 119, 2, 0.810359
363, 1, bw, attraction, a-b-da, 14, 1, 3, 36, 125, 56, 135, 60, 60, 135, 2, 1.59942
363, 1, bw, attraction, a-b-da, 14, 1, 3, 36, 125, 56, 135, 60, 60, 135, 1, 2.07019
363, 1, bw, filler, NA, 999, 999, 3, 37, 111, 121, 104, 90, 141, 122, 3, 4.56876
363, 1, bw, filler, NA, 999, 999, 3, 37, 111, 121, 104, 90, 141, 122, 2, 1.04
363, 1, bw, filler, NA, 999, 999, 4, 1, 136, 112, 142, 106, 143, 143, 3, 1.65966
363, 1, bw, filler, NA, 999, 999, 4, 1, 136, 112, 142, 106, 143, 143, 1, 1.20768
363, 1, bw, attraction, a-b-da, 5, 1, 4, 2, 135, 60, 60, 135, 132, 58, 2, 2.21262
363, 1, bw, attraction, a-b-da, 5, 1, 4, 2, 135, 60, 60, 135, 132, 58, 1, 0.730583
363, 1, bw, attraction, a-b-da, 2, 1, 4, 3, 60, 135, 134, 59, 135, 60, 1, 2.82692
363, 1, bw, attraction, a-b-da, 2, 1, 4, 3, 60, 135, 134, 59, 135, 60, 2, 0.816043
363, 1, bw, attraction, a-b-da, 9, 3, 4, 4, 186, 114, 195, 120, 120, 195, 3, 2.10912
363, 1, bw, attraction, a-b-da, 9, 3, 4, 4, 186, 114, 195, 120, 120, 195, 1, 0.783004
363, 1, bw, attraction, a-b-da, 5, 3, 4, 5, 190, 117, 195, 120, 120, 195, 3, 1.37349
363, 1, bw, attraction, a-b-da, 5, 3, 4, 5, 190, 117, 195, 120, 120, 195, 1, 0.589005
363, 1, bw, filler, NA, 999, 999, 4, 6, 167, 111, 143, 110, 113, 132, 1, 2.29136
363, 1, bw, filler, NA, 999, 999, 4, 6, 167, 111, 143, 110, 113, 132, 3, 0.653989
363, 1, bw, attraction, a-b-db, 2, 2, 4, 7, 90, 165, 165, 90, 89, 163, 2, 2.28971
363, 1, bw, attraction, a-b-db, 2, 2, 4, 7, 90, 165, 165, 90, 89, 163, 3, 1.24439
363, 1, bw, attraction, a-b-db, 2, 3, 4, 8, 119, 193, 120, 195, 195, 120, 1, 1.40792
363, 1, bw, attraction, a-b-db, 2, 3, 4, 8, 119, 193, 120, 195, 195, 120, 3, 0.694081
363, 1, bw, attraction, a-b-db, 5, 3, 4, 9, 120, 195, 117, 190, 195, 120, 1, 1.22371
363, 1, bw, attraction, a-b-db, 5, 3, 4, 9, 120, 195, 117, 190, 195, 120, 3, 1.06934
363, 1, bw, filler, NA, 999, 999, 4, 10, 174, 121, 170, 182, 129, 116, 2, 1.3043
363, 1, bw, filler, NA, 999, 999, 4, 10, 174, 121, 170, 182, 129, 116, 3, 0.891192
363, 1, bw, attraction, a-b-da, 5, 2, 4, 11, 161, 88, 165, 90, 90, 165, 3, 5.69285
363, 1, bw, attraction, a-b-da, 5, 2, 4, 11, 161, 88, 165, 90, 90, 165, 1, 0.758476
363, 1, bw, attraction, a-b-da, 14, 3, 4, 12, 120, 195, 181, 111, 195, 120, 3, 2.34942
363, 1, bw, attraction, a-b-da, 14, 3, 4, 12, 120, 195, 181, 111, 195, 120, 2, 2.30207
363, 1, bw, attraction, a-b-db, 5, 1, 4, 13, 60, 135, 135, 60, 58, 132, 2, 2.99119
363, 1, bw, attraction, a-b-db, 5, 1, 4, 13, 60, 135, 135, 60, 58, 132, 1, 0.549646
363, 1, bw, attraction, a-b-db, 9, 2, 4, 14, 86, 157, 90, 165, 165, 90, 1, 1.59737
363, 1, bw, attraction, a-b-db, 9, 2, 4, 14, 86, 157, 90, 165, 165, 90, 3, 1.17214
363, 1, bw, attraction, a-b-db, 9, 1, 4, 15, 135, 60, 60, 135, 57, 129, 1, 3.18722
363, 1, bw, attraction, a-b-db, 9, 1, 4, 15, 135, 60, 60, 135, 57, 129, 3, 0.850231
363, 1, bw, attraction, a-b-da, 9, 2, 4, 16, 157, 86, 165, 90, 90, 165, 3, 1.64588
363, 1, bw, attraction, a-b-da, 9, 2, 4, 16, 157, 86, 165, 90, 90, 165, 1, 0.882529
363, 1, bw, catch, NA, 999, 999, 4, 17, 106, 89, 173, 142, 118, 137, 2, 1.67684
363, 1, bw, catch, NA, 999, 999, 4, 17, 106, 89, 173, 142, 118, 137, 1, 1.3843
363, 1, bw, attraction, a-b-da, 2, 3, 4, 18, 193, 119, 120, 195, 195, 120, 1, 3.7586
363, 1, bw, attraction, a-b-da, 2, 3, 4, 18, 193, 119, 120, 195, 195, 120, 3, 0.757947
363, 1, bw, filler, NA, 999, 999, 4, 19, 85, 195, 152, 185, 120, 153, 2, 1.09296
363, 1, bw, filler, NA, 999, 999, 4, 19, 85, 195, 152, 185, 120, 153, 1, 0.752022
363, 1, bw, catch, NA, 999, 999, 4, 20, 119, 136, 123, 72, 150, 165, 3, 0.927645
363, 1, bw, catch, NA, 999, 999, 4, 20, 119, 136, 123, 72, 150, 165, 2, 0.945362
363, 1, bw, attraction, a-b-da, 9, 1, 4, 21, 60, 135, 129, 57, 135, 60, 1, 2.56901
363, 1, bw, attraction, a-b-da, 9, 1, 4, 21, 60, 135, 129, 57, 135, 60, 3, 0.584788
363, 1, bw, filler, NA, 999, 999, 4, 22, 173, 116, 108, 115, 65, 145, 1, 0.887249
363, 1, bw, filler, NA, 999, 999, 4, 22, 173, 116, 108, 115, 65, 145, 3, 0.986917
363, 1, bw, attraction, a-b-db, 14, 1, 4, 23, 135, 60, 60, 135, 56, 125, 2, 2.52132
363, 1, bw, attraction, a-b-db, 14, 1, 4, 23, 135, 60, 60, 135, 56, 125, 3, 1.65845
363, 1, bw, attraction, a-b-da, 2, 2, 4, 24, 163, 89, 90, 165, 165, 90, 2, 1.46926
363, 1, bw, attraction, a-b-da, 2, 2, 4, 24, 163, 89, 90, 165, 165, 90, 1, 1.91344
363, 1, bw, attraction, a-b-db, 14, 2, 4, 25, 83, 153, 90, 165, 165, 90, 2, 1.29014
363, 1, bw, attraction, a-b-db, 14, 2, 4, 25, 83, 153, 90, 165, 165, 90, 1, 0.540861
363, 1, bw, filler, NA, 999, 999, 4, 26, 111, 146, 171, 180, 170, 122, 2, 23.5086
363, 1, bw, filler, NA, 999, 999, 4, 26, 111, 146, 171, 180, 170, 122, 1, 0.680758
363, 1, bw, attraction, a-b-da, 14, 1, 4, 27, 60, 135, 135, 60, 125, 56, 1, 2.25116
363, 1, bw, attraction, a-b-da, 14, 1, 4, 27, 60, 135, 135, 60, 125, 56, 3, 0.727813
363, 1, bw, filler, NA, 999, 999, 4, 28, 98, 86, 95, 115, 106, 163, 3, 0.760231
363, 1, bw, filler, NA, 999, 999, 4, 28, 98, 86, 95, 115, 106, 163, 1, 0.600387
363, 1, bw, catch, NA, 999, 999, 4, 29, 154, 101, 62, 133, 138, 177, 3, 0.910192
363, 1, bw, catch, NA, 999, 999, 4, 29, 154, 101, 62, 133, 138, 177, 2, 1.32867
363, 1, bw, filler, NA, 999, 999, 4, 30, 73, 136, 165, 146, 133, 149, 2, 1.09676
363, 1, bw, filler, NA, 999, 999, 4, 30, 73, 136, 165, 146, 133, 149, 1, 1.03572
363, 1, bw, attraction, a-b-db, 2, 1, 4, 31, 59, 134, 60, 135, 135, 60, 1, 1.60818
363, 1, bw, attraction, a-b-db, 2, 1, 4, 31, 59, 134, 60, 135, 135, 60, 3, 1.11013
363, 1, bw, filler, NA, 999, 999, 4, 32, 117, 127, 165, 179, 121, 179, 2, 1.40706
363, 1, bw, filler, NA, 999, 999, 4, 32, 117, 127, 165, 179, 121, 179, 1, 0.485301
363, 1, bw, attraction, a-b-db, 9, 3, 4, 33, 114, 186, 195, 120, 120, 195, 3, 1.58379
363, 1, bw, attraction, a-b-db, 9, 3, 4, 33, 114, 186, 195, 120, 120, 195, 1, 0.423242
363, 1, bw, attraction, a-b-da, 14, 2, 4, 34, 153, 83, 90, 165, 165, 90, 2, 4.81967
363, 1, bw, attraction, a-b-da, 14, 2, 4, 34, 153, 83, 90, 165, 165, 90, 1, 0.648836
363, 1, bw, attraction, a-b-db, 5, 2, 4, 35, 90, 165, 165, 90, 88, 161, 3, 1.22859
363, 1, bw, attraction, a-b-db, 5, 2, 4, 35, 90, 165, 165, 90, 88, 161, 1, 0.618202
363, 1, bw, filler, NA, 999, 999, 4, 36, 147, 87, 173, 110, 192, 177, 3, 0.935203
363, 1, bw, filler, NA, 999, 999, 4, 36, 147, 87, 173, 110, 192, 177, 1, 0.456858
363, 1, bw, attraction, a-b-db, 14, 3, 4, 37, 120, 195, 195, 120, 111, 181, 2, 1.74809
363, 1, bw, attraction, a-b-db, 14, 3, 4, 37, 120, 195, 195, 120, 111, 181, 3, 0.396836
363, 1, bw, attraction, a-b-db, 9, 3, 5, 1, 114, 186, 120, 195, 195, 120, 2, 15.6172
363, 1, bw, attraction, a-b-db, 9, 3, 5, 1, 114, 186, 120, 195, 195, 120, 1, 0.818998
363, 1, bw, attraction, a-b-db, 9, 1, 5, 2, 57, 129, 60, 135, 135, 60, 2, 2.24012
363, 1, bw, attraction, a-b-db, 9, 1, 5, 2, 57, 129, 60, 135, 135, 60, 1, 1.02062
363, 1, bw, filler, NA, 999, 999, 5, 3, 88, 102, 132, 87, 126, 151, 3, 1.1376
363, 1, bw, filler, NA, 999, 999, 5, 3, 88, 102, 132, 87, 126, 151, 1, 0.706589
363, 1, bw, attraction, a-b-db, 14, 2, 5, 4, 165, 90, 90, 165, 83, 153, 2, 5.69229
363, 1, bw, attraction, a-b-db, 14, 2, 5, 4, 165, 90, 90, 165, 83, 153, 3, 0.493743
363, 1, bw, filler, NA, 999, 999, 5, 5, 154, 59, 174, 175, 186, 57, 2, 0.711621
363, 1, bw, filler, NA, 999, 999, 5, 5, 154, 59, 174, 175, 186, 57, 1, 0.689946
363, 1, bw, filler, NA, 999, 999, 5, 6, 165, 177, 129, 174, 81, 151, 1, 1.10077
363, 1, bw, filler, NA, 999, 999, 5, 6, 165, 177, 129, 174, 81, 151, 3, 0.647437
363, 1, bw, attraction, a-b-da, 9, 3, 5, 7, 186, 114, 120, 195, 195, 120, 3, 1.27508
363, 1, bw, attraction, a-b-da, 9, 3, 5, 7, 186, 114, 120, 195, 195, 120, 1, 0.942683
363, 1, bw, attraction, a-b-da, 14, 3, 5, 8, 195, 120, 181, 111, 120, 195, 3, 3.12634
363, 1, bw, attraction, a-b-da, 14, 3, 5, 8, 195, 120, 181, 111, 120, 195, 2, 0.4553
363, 1, bw, attraction, a-b-da, 14, 2, 5, 9, 153, 83, 165, 90, 90, 165, 3, 1.40327
363, 1, bw, attraction, a-b-da, 14, 2, 5, 9, 153, 83, 165, 90, 90, 165, 1, 0.56997
363, 1, bw, attraction, a-b-da, 9, 1, 5, 10, 129, 57, 135, 60, 60, 135, 3, 1.7132
363, 1, bw, attraction, a-b-da, 9, 1, 5, 10, 129, 57, 135, 60, 60, 135, 1, 0.403138
363, 1, bw, filler, NA, 999, 999, 5, 11, 177, 79, 108, 157, 56, 61, 2, 1.145
363, 1, bw, filler, NA, 999, 999, 5, 11, 177, 79, 108, 157, 56, 61, 1, 0.553918
363, 1, bw, filler, NA, 999, 999, 5, 12, 164, 74, 119, 157, 193, 119, 3, 1.59375
363, 1, bw, filler, NA, 999, 999, 5, 12, 164, 74, 119, 157, 193, 119, 1, 0.656573
363, 1, bw, attraction, a-b-db, 5, 3, 5, 13, 195, 120, 117, 190, 120, 195, 3, 2.21234
363, 1, bw, attraction, a-b-db, 5, 3, 5, 13, 195, 120, 117, 190, 120, 195, 1, 1.24219
363, 1, bw, attraction, a-b-da, 5, 1, 5, 14, 60, 135, 135, 60, 132, 58, 2, 3.95774
363, 1, bw, attraction, a-b-da, 5, 1, 5, 14, 60, 135, 135, 60, 132, 58, 1, 0.421259
363, 1, bw, catch, NA, 999, 999, 5, 15, 165, 90, 76, 119, 142, 173, 3, 1.6823
363, 1, bw, catch, NA, 999, 999, 5, 15, 165, 90, 76, 119, 142, 173, 2, 0.645707
363, 1, bw, attraction, a-b-da, 5, 2, 5, 16, 165, 90, 90, 165, 161, 88, 2, 1.29744
363, 1, bw, attraction, a-b-da, 5, 2, 5, 16, 165, 90, 90, 165, 161, 88, 3, 0.660474
363, 1, bw, filler, NA, 999, 999, 5, 17, 66, 139, 73, 73, 78, 110, 1, 1.43145
363, 1, bw, filler, NA, 999, 999, 5, 17, 66, 139, 73, 73, 78, 110, 2, 0.668954
363, 1, bw, filler, NA, 999, 999, 5, 18, 142, 136, 113, 143, 104, 149, 1, 4.38412
363, 1, bw, filler, NA, 999, 999, 5, 18, 142, 136, 113, 143, 104, 149, 3, 0.49463
363, 1, bw, attraction, a-b-da, 14, 1, 5, 19, 125, 56, 60, 135, 135, 60, 2, 2.51244
363, 1, bw, attraction, a-b-da, 14, 1, 5, 19, 125, 56, 60, 135, 135, 60, 1, 0.58641
363, 1, bw, attraction, a-b-db, 14, 1, 5, 20, 56, 125, 135, 60, 60, 135, 2, 2.96874
363, 1, bw, attraction, a-b-db, 14, 1, 5, 20, 56, 125, 135, 60, 60, 135, 1, 0.664636
363, 1, bw, attraction, a-b-da, 5, 3, 5, 21, 195, 120, 190, 117, 120, 195, 1, 1.5477
363, 1, bw, attraction, a-b-da, 5, 3, 5, 21, 195, 120, 190, 117, 120, 195, 3, 0.580391
363, 1, bw, attraction, a-b-db, 2, 1, 5, 22, 60, 135, 59, 134, 135, 60, 1, 0.954751
363, 1, bw, attraction, a-b-db, 2, 1, 5, 22, 60, 135, 59, 134, 135, 60, 3, 0.907275
363, 1, bw, filler, NA, 999, 999, 5, 23, 65, 137, 57, 61, 192, 92, 3, 0.916157
363, 1, bw, filler, NA, 999, 999, 5, 23, 65, 137, 57, 61, 192, 92, 2, 0.798386
363, 1, bw, attraction, a-b-db, 14, 3, 5, 24, 120, 195, 195, 120, 111, 181, 2, 1.58814
363, 1, bw, attraction, a-b-db, 14, 3, 5, 24, 120, 195, 195, 120, 111, 181, 3, 0.44313
363, 1, bw, catch, NA, 999, 999, 5, 25, 181, 134, 95, 100, 143, 112, 1, 1.1268
363, 1, bw, catch, NA, 999, 999, 5, 25, 181, 134, 95, 100, 143, 112, 2, 0.688428
363, 1, bw, attraction, a-b-db, 5, 2, 5, 26, 165, 90, 90, 165, 88, 161, 1, 2.43475
363, 1, bw, attraction, a-b-db, 5, 2, 5, 26, 165, 90, 90, 165, 88, 161, 3, 0.384101
363, 1, bw, attraction, a-b-da, 2, 1, 5, 27, 135, 60, 60, 135, 134, 59, 2, 1.87053
363, 1, bw, attraction, a-b-da, 2, 1, 5, 27, 135, 60, 60, 135, 134, 59, 3, 0.514528
363, 1, bw, attraction, a-b-db, 5, 1, 5, 28, 58, 132, 60, 135, 135, 60, 3, 1.81963
363, 1, bw, attraction, a-b-db, 5, 1, 5, 28, 58, 132, 60, 135, 135, 60, 1, 0.697793
363, 1, bw, attraction, a-b-da, 2, 3, 5, 29, 120, 195, 193, 119, 195, 120, 1, 1.73144
363, 1, bw, attraction, a-b-da, 2, 3, 5, 29, 120, 195, 193, 119, 195, 120, 2, 0.828908
363, 1, bw, attraction, a-b-da, 2, 2, 5, 30, 163, 89, 165, 90, 90, 165, 3, 2.24127
363, 1, bw, attraction, a-b-da, 2, 2, 5, 30, 163, 89, 165, 90, 90, 165, 1, 0.469835
363, 1, bw, attraction, a-b-db, 2, 3, 5, 31, 120, 195, 195, 120, 119, 193, 1, 1.48895
363, 1, bw, attraction, a-b-db, 2, 3, 5, 31, 120, 195, 195, 120, 119, 193, 3, 0.459813
363, 1, bw, catch, NA, 999, 999, 5, 32, 72, 123, 115, 140, 140, 175, 3, 1.51896
363, 1, bw, catch, NA, 999, 999, 5, 32, 72, 123, 115, 140, 140, 175, 1, 0.737198
363, 1, bw, filler, NA, 999, 999, 5, 33, 104, 182, 160, 153, 76, 129, 2, 0.905533
363, 1, bw, filler, NA, 999, 999, 5, 33, 104, 182, 160, 153, 76, 129, 3, 0.587839
363, 1, bw, attraction, a-b-da, 9, 2, 5, 34, 157, 86, 90, 165, 165, 90, 2, 2.38631
363, 1, bw, attraction, a-b-da, 9, 2, 5, 34, 157, 86, 90, 165, 165, 90, 3, 0.689545
363, 1, bw, attraction, a-b-db, 2, 2, 5, 35, 89, 163, 90, 165, 165, 90, 3, 3.09196
363, 1, bw, attraction, a-b-db, 2, 2, 5, 35, 89, 163, 90, 165, 165, 90, 1, 0.446198
363, 1, bw, filler, NA, 999, 999, 5, 36, 181, 78, 140, 66, 162, 98, 3, 1.05804
363, 1, bw, filler, NA, 999, 999, 5, 36, 181, 78, 140, 66, 162, 98, 2, 0.886308
363, 1, bw, attraction, a-b-db, 9, 2, 5, 37, 165, 90, 90, 165, 86, 157, 2, 1.24871
363, 1, bw, attraction, a-b-db, 9, 2, 5, 37, 165, 90, 90, 165, 86, 157, 3, 0.573629
363, 1, bw, filler, NA, 999, 999, 6, 1, 171, 135, 186, 192, 115, 155, 2, 0.900014
363, 1, bw, filler, NA, 999, 999, 6, 1, 171, 135, 186, 192, 115, 155, 3, 0.767037
363, 1, bw, attraction, a-b-da, 14, 1, 6, 2, 135, 60, 125, 56, 60, 135, 1, 1.27001
363, 1, bw, attraction, a-b-da, 14, 1, 6, 2, 135, 60, 125, 56, 60, 135, 3, 0.986401
363, 1, bw, attraction, a-b-db, 14, 3, 6, 3, 111, 181, 195, 120, 120, 195, 2, 2.50475
363, 1, bw, attraction, a-b-db, 14, 3, 6, 3, 111, 181, 195, 120, 120, 195, 3, 0.483132
363, 1, bw, filler, NA, 999, 999, 6, 4, 93, 64, 121, 117, 148, 138, 3, 0.925639
363, 1, bw, filler, NA, 999, 999, 6, 4, 93, 64, 121, 117, 148, 138, 1, 0.727265
363, 1, bw, attraction, a-b-db, 14, 1, 6, 5, 135, 60, 56, 125, 60, 135, 1, 1.15967
363, 1, bw, attraction, a-b-db, 14, 1, 6, 5, 135, 60, 56, 125, 60, 135, 2, 1.12801
363, 1, bw, attraction, a-b-db, 9, 3, 6, 6, 114, 186, 120, 195, 195, 120, 2, 1.40039
363, 1, bw, attraction, a-b-db, 9, 3, 6, 6, 114, 186, 120, 195, 195, 120, 1, 0.607116
363, 1, bw, attraction, a-b-db, 2, 1, 6, 7, 135, 60, 60, 135, 59, 134, 1, 2.1802
363, 1, bw, attraction, a-b-db, 2, 1, 6, 7, 135, 60, 60, 135, 59, 134, 2, 0.811417
363, 1, bw, catch, NA, 999, 999, 6, 8, 108, 147, 150, 165, 71, 124, 2, 1.61641
363, 1, bw, catch, NA, 999, 999, 6, 8, 108, 147, 150, 165, 71, 124, 3, 0.726724
363, 1, bw, attraction, a-b-da, 5, 2, 6, 9, 90, 165, 165, 90, 161, 88, 1, 2.20703
363, 1, bw, attraction, a-b-da, 5, 2, 6, 9, 90, 165, 165, 90, 161, 88, 2, 1.1009
363, 1, bw, attraction, a-b-db, 5, 2, 6, 10, 165, 90, 88, 161, 90, 165, 1, 2.15054
363, 1, bw, attraction, a-b-db, 5, 2, 6, 10, 165, 90, 88, 161, 90, 165, 3, 0.759145
363, 1, bw, catch, NA, 999, 999, 6, 11, 140, 115, 140, 175, 116, 79, 2, 1.07816
363, 1, bw, catch, NA, 999, 999, 6, 11, 140, 115, 140, 175, 116, 79, 3, 0.713852
363, 1, bw, attraction, a-b-da, 14, 2, 6, 12, 90, 165, 153, 83, 165, 90, 3, 1.72289
363, 1, bw, attraction, a-b-da, 14, 2, 6, 12, 90, 165, 153, 83, 165, 90, 1, 0.548241
363, 1, bw, attraction, a-b-da, 9, 1, 6, 13, 60, 135, 129, 57, 135, 60, 2, 1.30005
363, 1, bw, attraction, a-b-da, 9, 1, 6, 13, 60, 135, 129, 57, 135, 60, 3, 0.58303
363, 1, bw, attraction, a-b-da, 2, 1, 6, 14, 60, 135, 134, 59, 135, 60, 2, 1.84543
363, 1, bw, attraction, a-b-da, 2, 1, 6, 14, 60, 135, 134, 59, 135, 60, 3, 0.562179
363, 1, bw, attraction, a-b-da, 9, 3, 6, 15, 195, 120, 186, 114, 120, 195, 2, 2.59332
363, 1, bw, attraction, a-b-da, 9, 3, 6, 15, 195, 120, 186, 114, 120, 195, 3, 0.615879
363, 1, bw, attraction, a-b-db, 2, 2, 6, 16, 90, 165, 165, 90, 89, 163, 2, 3.10883
363, 1, bw, attraction, a-b-db, 2, 2, 6, 16, 90, 165, 165, 90, 89, 163, 3, 0.790539
363, 1, bw, filler, NA, 999, 999, 6, 17, 68, 79, 101, 69, 67, 176, 3, 2.35619
363, 1, bw, filler, NA, 999, 999, 6, 17, 68, 79, 101, 69, 67, 176, 1, 1.43608
363, 1, bw, attraction, a-b-da, 5, 3, 6, 18, 120, 195, 195, 120, 190, 117, 2, 1.48821
363, 1, bw, attraction, a-b-da, 5, 3, 6, 18, 120, 195, 195, 120, 190, 117, 3, 0.651087
363, 1, bw, filler, NA, 999, 999, 6, 19, 94, 66, 76, 178, 137, 165, 3, 1.03083
363, 1, bw, filler, NA, 999, 999, 6, 19, 94, 66, 76, 178, 137, 165, 1, 0.676478
363, 1, bw, filler, NA, 999, 999, 6, 20, 85, 164, 165, 73, 65, 163, 2, 1.23886
363, 1, bw, filler, NA, 999, 999, 6, 20, 85, 164, 165, 73, 65, 163, 1, 0.579771
363, 1, bw, filler, NA, 999, 999, 6, 21, 118, 160, 114, 84, 84, 63, 1, 0.858221
363, 1, bw, filler, NA, 999, 999, 6, 21, 118, 160, 114, 84, 84, 63, 3, 0.694512
363, 1, bw, attraction, a-b-db, 14, 2, 6, 22, 83, 153, 90, 165, 165, 90, 3, 0.936352
363, 1, bw, attraction, a-b-db, 14, 2, 6, 22, 83, 153, 90, 165, 165, 90, 1, 0.721981
363, 1, bw, attraction, a-b-db, 5, 3, 6, 23, 117, 190, 120, 195, 195, 120, 2, 1.4191
363, 1, bw, attraction, a-b-db, 5, 3, 6, 23, 117, 190, 120, 195, 195, 120, 1, 0.513202
363, 1, bw, attraction, a-b-da, 9, 2, 6, 24, 90, 165, 165, 90, 157, 86, 2, 1.51443
363, 1, bw, attraction, a-b-da, 9, 2, 6, 24, 90, 165, 165, 90, 157, 86, 3, 0.492589
363, 1, bw, attraction, a-b-db, 9, 2, 6, 25, 165, 90, 86, 157, 90, 165, 1, 1.13424
363, 1, bw, attraction, a-b-db, 9, 2, 6, 25, 165, 90, 86, 157, 90, 165, 3, 0.631964
363, 1, bw, attraction, a-b-db, 9, 1, 6, 26, 135, 60, 60, 135, 57, 129, 1, 1.39627
363, 1, bw, attraction, a-b-db, 9, 1, 6, 26, 135, 60, 60, 135, 57, 129, 3, 1.19528
363, 1, bw, filler, NA, 999, 999, 6, 27, 84, 111, 70, 171, 119, 125, 3, 1.04091
363, 1, bw, filler, NA, 999, 999, 6, 27, 84, 111, 70, 171, 119, 125, 1, 0.853691
363, 1, bw, attraction, a-b-da, 14, 3, 6, 28, 120, 195, 181, 111, 195, 120, 3, 3.40148
363, 1, bw, attraction, a-b-da, 14, 3, 6, 28, 120, 195, 181, 111, 195, 120, 1, 0.415629
363, 1, bw, catch, NA, 999, 999, 6, 29, 63, 132, 160, 95, 127, 188, 3, 0.940788
363, 1, bw, catch, NA, 999, 999, 6, 29, 63, 132, 160, 95, 127, 188, 1, 1.16589
363, 1, bw, attraction, a-b-da, 5, 1, 6, 30, 135, 60, 132, 58, 60, 135, 1, 1.74066
363, 1, bw, attraction, a-b-da, 5, 1, 6, 30, 135, 60, 132, 58, 60, 135, 2, 0.81345
363, 1, bw, filler, NA, 999, 999, 6, 31, 77, 145, 68, 140, 117, 98, 3, 1.6186
363, 1, bw, filler, NA, 999, 999, 6, 31, 77, 145, 68, 140, 117, 98, 1, 0.960678
363, 1, bw, attraction, a-b-da, 2, 2, 6, 32, 165, 90, 90, 165, 163, 89, 2, 1.33563
363, 1, bw, attraction, a-b-da, 2, 2, 6, 32, 165, 90, 90, 165, 163, 89, 1, 0.545128
363, 1, bw, filler, NA, 999, 999, 6, 33, 125, 178, 119, 134, 153, 151, 3, 1.36892
363, 1, bw, filler, NA, 999, 999, 6, 33, 125, 178, 119, 134, 153, 151, 2, 0.657245
363, 1, bw, attraction, a-b-da, 2, 3, 6, 34, 120, 195, 193, 119, 195, 120, 3, 2.15627
363, 1, bw, attraction, a-b-da, 2, 3, 6, 34, 120, 195, 193, 119, 195, 120, 1, 0.956268
363, 1, bw, attraction, a-b-db, 2, 3, 6, 35, 120, 195, 119, 193, 195, 120, 3, 2.3798
363, 1, bw, attraction, a-b-db, 2, 3, 6, 35, 120, 195, 119, 193, 195, 120, 2, 0.651057
363, 1, bw, filler, NA, 999, 999, 6, 36, 66, 72, 183, 66, 122, 177, 3, 3.50284
363, 1, bw, filler, NA, 999, 999, 6, 36, 66, 72, 183, 66, 122, 177, 1, 0.704997
363, 1, bw, attraction, a-b-db, 5, 1, 6, 37, 60, 135, 58, 132, 135, 60, 3, 2.04284
363, 1, bw, attraction, a-b-db, 5, 1, 6, 37, 60, 135, 58, 132, 135, 60, 1, 0.8394
363, 1, bw, filler, NA, 999, 999, 7, 1, 93, 144, 74, 185, 114, 104, 2, 2.5958
363, 1, bw, filler, NA, 999, 999, 7, 1, 93, 144, 74, 185, 114, 104, 3, 0.754253
363, 1, bw, attraction, a-b-da, 14, 2, 7, 2, 90, 165, 153, 83, 165, 90, 1, 1.63409
363, 1, bw, attraction, a-b-da, 14, 2, 7, 2, 90, 165, 153, 83, 165, 90, 2, 0.415401
363, 1, bw, attraction, a-b-da, 9, 2, 7, 3, 157, 86, 165, 90, 90, 165, 3, 1.17253
363, 1, bw, attraction, a-b-da, 9, 2, 7, 3, 157, 86, 165, 90, 90, 165, 1, 0.420258
363, 1, bw, catch, NA, 999, 999, 7, 4, 75, 120, 91, 164, 137, 178, 3, 0.873321
363, 1, bw, catch, NA, 999, 999, 7, 4, 75, 120, 91, 164, 137, 178, 1, 0.74913
363, 1, bw, attraction, a-b-da, 14, 1, 7, 5, 125, 56, 60, 135, 135, 60, 2, 1.39681
363, 1, bw, attraction, a-b-da, 14, 1, 7, 5, 125, 56, 60, 135, 135, 60, 1, 0.563579
363, 1, bw, attraction, a-b-db, 9, 1, 7, 6, 57, 129, 135, 60, 60, 135, 2, 1.49078
363, 1, bw, attraction, a-b-db, 9, 1, 7, 6, 57, 129, 135, 60, 60, 135, 1, 0.781675
363, 1, bw, attraction, a-b-db, 9, 2, 7, 7, 86, 157, 165, 90, 90, 165, 2, 1.89985
363, 1, bw, attraction, a-b-db, 9, 2, 7, 7, 86, 157, 165, 90, 90, 165, 1, 0.494544
363, 1, bw, attraction, a-b-da, 9, 1, 7, 8, 60, 135, 129, 57, 135, 60, 2, 2.48045
363, 1, bw, attraction, a-b-da, 9, 1, 7, 8, 60, 135, 129, 57, 135, 60, 1, 0.68365
363, 1, bw, filler, NA, 999, 999, 7, 9, 185, 57, 64, 165, 159, 74, 1, 1.54998
363, 1, bw, filler, NA, 999, 999, 7, 9, 185, 57, 64, 165, 159, 74, 3, 1.1749
363, 1, bw, attraction, a-b-da, 2, 3, 7, 10, 120, 195, 195, 120, 193, 119, 3, 3.38105
363, 1, bw, attraction, a-b-da, 2, 3, 7, 10, 120, 195, 195, 120, 193, 119, 2, 1.0121
363, 1, bw, catch, NA, 999, 999, 7, 11, 134, 121, 191, 124, 115, 80, 2, 0.928969
363, 1, bw, catch, NA, 999, 999, 7, 11, 134, 121, 191, 124, 115, 80, 3, 0.626518
363, 1, bw, attraction, a-b-da, 9, 3, 7, 12, 120, 195, 195, 120, 186, 114, 1, 2.03111
363, 1, bw, attraction, a-b-da, 9, 3, 7, 12, 120, 195, 195, 120, 186, 114, 3, 0.628616
363, 1, bw, filler, NA, 999, 999, 7, 13, 118, 169, 75, 56, 86, 112, 1, 1.00878
363, 1, bw, filler, NA, 999, 999, 7, 13, 118, 169, 75, 56, 86, 112, 2, 0.591053
363, 1, bw, attraction, a-b-db, 14, 2, 7, 14, 165, 90, 90, 165, 83, 153, 1, 2.61287
363, 1, bw, attraction, a-b-db, 14, 2, 7, 14, 165, 90, 90, 165, 83, 153, 3, 0.666706
363, 1, bw, attraction, a-b-da, 2, 2, 7, 15, 90, 165, 165, 90, 163, 89, 1, 3.91774
363, 1, bw, attraction, a-b-da, 2, 2, 7, 15, 90, 165, 165, 90, 163, 89, 2, 0.527188
363, 1, bw, filler, NA, 999, 999, 7, 16, 176, 178, 112, 60, 85, 183, 1, 1.4717
363, 1, bw, filler, NA, 999, 999, 7, 16, 176, 178, 112, 60, 85, 183, 2, 0.731157
363, 1, bw, filler, NA, 999, 999, 7, 17, 106, 99, 103, 174, 153, 142, 3, 1.88358
363, 1, bw, filler, NA, 999, 999, 7, 17, 106, 99, 103, 174, 153, 142, 1, 0.790968
363, 1, bw, attraction, a-b-db, 9, 3, 7, 18, 120, 195, 114, 186, 195, 120, 1, 2.43653
363, 1, bw, attraction, a-b-db, 9, 3, 7, 18, 120, 195, 114, 186, 195, 120, 3, 0.537739
363, 1, bw, filler, NA, 999, 999, 7, 19, 83, 141, 70, 82, 62, 184, 1, 2.3783
363, 1, bw, filler, NA, 999, 999, 7, 19, 83, 141, 70, 82, 62, 184, 2, 0.561413
363, 1, bw, attraction, a-b-da, 5, 1, 7, 20, 60, 135, 135, 60, 132, 58, 2, 2.01652
363, 1, bw, attraction, a-b-da, 5, 1, 7, 20, 60, 135, 135, 60, 132, 58, 3, 1.09461
363, 1, bw, attraction, a-b-db, 5, 1, 7, 21, 58, 132, 135, 60, 60, 135, 2, 2.03223
363, 1, bw, attraction, a-b-db, 5, 1, 7, 21, 58, 132, 135, 60, 60, 135, 1, 0.565558
363, 1, bw, filler, NA, 999, 999, 7, 22, 147, 74, 79, 70, 111, 87, 1, 1.99676
363, 1, bw, filler, NA, 999, 999, 7, 22, 147, 74, 79, 70, 111, 87, 2, 0.795463
363, 1, bw, attraction, a-b-db, 5, 3, 7, 23, 195, 120, 120, 195, 117, 190, 2, 1.65702
363, 1, bw, attraction, a-b-db, 5, 3, 7, 23, 195, 120, 120, 195, 117, 190, 1, 0.757065
363, 1, bw, filler, NA, 999, 999, 7, 24, 149, 76, 189, 76, 81, 169, 3, 1.46836
363, 1, bw, filler, NA, 999, 999, 7, 24, 149, 76, 189, 76, 81, 169, 1, 1.38447
363, 1, bw, attraction, a-b-db, 2, 1, 7, 25, 135, 60, 60, 135, 59, 134, 3, 1.50254
363, 1, bw, attraction, a-b-db, 2, 1, 7, 25, 135, 60, 60, 135, 59, 134, 1, 0.697347
363, 1, bw, attraction, a-b-da, 5, 2, 7, 26, 90, 165, 165, 90, 161, 88, 3, 1.97113
363, 1, bw, attraction, a-b-da, 5, 2, 7, 26, 90, 165, 165, 90, 161, 88, 1, 0.907232
363, 1, bw, attraction, a-b-da, 2, 1, 7, 27, 135, 60, 134, 59, 60, 135, 3, 1.28415
363, 1, bw, attraction, a-b-da, 2, 1, 7, 27, 135, 60, 134, 59, 60, 135, 1, 0.727662
363, 1, bw, attraction, a-b-db, 2, 2, 7, 28, 89, 163, 165, 90, 90, 165, 2, 2.18408
363, 1, bw, attraction, a-b-db, 2, 2, 7, 28, 89, 163, 165, 90, 90, 165, 1, 0.743257
363, 1, bw, attraction, a-b-db, 2, 3, 7, 29, 195, 120, 119, 193, 120, 195, 1, 2.82306
363, 1, bw, attraction, a-b-db, 2, 3, 7, 29, 195, 120, 119, 193, 120, 195, 3, 0.548117
363, 1, bw, attraction, a-b-da, 14, 3, 7, 30, 181, 111, 195, 120, 120, 195, 2, 1.31596
363, 1, bw, attraction, a-b-da, 14, 3, 7, 30, 181, 111, 195, 120, 120, 195, 1, 0.726201
363, 1, bw, catch, NA, 999, 999, 7, 31, 162, 153, 72, 123, 137, 118, 1, 0.798513
363, 1, bw, catch, NA, 999, 999, 7, 31, 162, 153, 72, 123, 137, 118, 2, 0.669611
363, 1, bw, attraction, a-b-db, 14, 3, 7, 32, 111, 181, 195, 120, 120, 195, 2, 1.72861
363, 1, bw, attraction, a-b-db, 14, 3, 7, 32, 111, 181, 195, 120, 120, 195, 3, 0.962167
363, 1, bw, filler, NA, 999, 999, 7, 33, 153, 175, 94, 117, 128, 188, 1, 1.225
363, 1, bw, filler, NA, 999, 999, 7, 33, 153, 175, 94, 117, 128, 188, 2, 1.19063
363, 1, bw, filler, NA, 999, 999, 7, 34, 148, 146, 168, 126, 114, 129, 2, 1.52421
363, 1, bw, filler, NA, 999, 999, 7, 34, 148, 146, 168, 126, 114, 129, 3, 0.837708
363, 1, bw, attraction, a-b-da, 5, 3, 7, 35, 120, 195, 190, 117, 195, 120, 1, 3.69799
363, 1, bw, attraction, a-b-da, 5, 3, 7, 35, 120, 195, 190, 117, 195, 120, 3, 0.508241
363, 1, bw, attraction, a-b-db, 14, 1, 7, 36, 56, 125, 60, 135, 135, 60, 2, 2.59738
363, 1, bw, attraction, a-b-db, 14, 1, 7, 36, 56, 125, 60, 135, 135, 60, 3, 0.627805
363, 1, bw, attraction, a-b-db, 5, 2, 7, 37, 90, 165, 88, 161, 165, 90, 3, 2.50428
363, 1, bw, attraction, a-b-db, 5, 2, 7, 37, 90, 165, 88, 161, 165, 90, 1, 0.594708
363, 1, bw, attraction, a-b-da, 5, 3, 8, 1, 195, 120, 120, 195, 190, 117, 2, 2.24845
363, 1, bw, attraction, a-b-da, 5, 3, 8, 1, 195, 120, 120, 195, 190, 117, 3, 0.437012
363, 1, bw, filler, NA, 999, 999, 8, 2, 159, 184, 103, 183, 57, 116, 1, 0.881518
363, 1, bw, filler, NA, 999, 999, 8, 2, 159, 184, 103, 183, 57, 116, 3, 0.797363
363, 1, bw, filler, NA, 999, 999, 8, 3, 111, 131, 173, 99, 184, 138, 3, 0.77097
363, 1, bw, filler, NA, 999, 999, 8, 3, 111, 131, 173, 99, 184, 138, 1, 0.514652
363, 1, bw, attraction, a-b-db, 14, 1, 8, 4, 135, 60, 56, 125, 60, 135, 3, 2.12384
363, 1, bw, attraction, a-b-db, 14, 1, 8, 4, 135, 60, 56, 125, 60, 135, 2, 0.549098
363, 1, bw, attraction, a-b-db, 14, 3, 8, 5, 195, 120, 111, 181, 120, 195, 1, 1.45287
363, 1, bw, attraction, a-b-db, 14, 3, 8, 5, 195, 120, 111, 181, 120, 195, 2, 0.5618
363, 1, bw, filler, NA, 999, 999, 8, 6, 146, 121, 98, 161, 182, 138, 3, 1.5689
363, 1, bw, filler, NA, 999, 999, 8, 6, 146, 121, 98, 161, 182, 138, 1, 0.544984
363, 1, bw, attraction, a-b-db, 14, 2, 8, 7, 90, 165, 165, 90, 83, 153, 1, 1.56889
363, 1, bw, attraction, a-b-db, 14, 2, 8, 7, 90, 165, 165, 90, 83, 153, 3, 1.19287
363, 1, bw, catch, NA, 999, 999, 8, 8, 127, 128, 122, 193, 112, 83, 2, 0.838404
363, 1, bw, catch, NA, 999, 999, 8, 8, 127, 128, 122, 193, 112, 83, 3, 0.931502
363, 1, bw, filler, NA, 999, 999, 8, 9, 143, 75, 154, 73, 182, 91, 3, 1.17184
363, 1, bw, filler, NA, 999, 999, 8, 9, 143, 75, 154, 73, 182, 91, 1, 0.739573
363, 1, bw, attraction, a-b-da, 14, 2, 8, 10, 165, 90, 153, 83, 90, 165, 1, 1.82782
363, 1, bw, attraction, a-b-da, 14, 2, 8, 10, 165, 90, 153, 83, 90, 165, 2, 0.553136
363, 1, bw, attraction, a-b-db, 5, 3, 8, 11, 195, 120, 120, 195, 117, 190, 2, 1.08102
363, 1, bw, attraction, a-b-db, 5, 3, 8, 11, 195, 120, 120, 195, 117, 190, 3, 0.620737
363, 1, bw, attraction, a-b-da, 9, 2, 8, 12, 90, 165, 157, 86, 165, 90, 3, 1.22579
363, 1, bw, attraction, a-b-da, 9, 2, 8, 12, 90, 165, 157, 86, 165, 90, 2, 1.26326
363, 1, bw, attraction, a-b-da, 2, 3, 8, 13, 195, 120, 193, 119, 120, 195, 3, 1.28215
363, 1, bw, attraction, a-b-da, 2, 3, 8, 13, 195, 120, 193, 119, 120, 195, 1, 0.893696
363, 1, bw, attraction, a-b-db, 2, 1, 8, 14, 135, 60, 60, 135, 59, 134, 2, 2.75144
363, 1, bw, attraction, a-b-db, 2, 1, 8, 14, 135, 60, 60, 135, 59, 134, 1, 0.551954
363, 1, bw, attraction, a-b-da, 9, 1, 8, 15, 129, 57, 60, 135, 135, 60, 2, 2.05567
363, 1, bw, attraction, a-b-da, 9, 1, 8, 15, 129, 57, 60, 135, 135, 60, 3, 0.643538
363, 1, bw, filler, NA, 999, 999, 8, 16, 194, 175, 138, 57, 154, 126, 1, 1.07946
363, 1, bw, filler, NA, 999, 999, 8, 16, 194, 175, 138, 57, 154, 126, 2, 0.827064
363, 1, bw, filler, NA, 999, 999, 8, 17, 128, 176, 108, 107, 74, 146, 1, 1.18329
363, 1, bw, filler, NA, 999, 999, 8, 17, 128, 176, 108, 107, 74, 146, 3, 0.718977
363, 1, bw, attraction, a-b-da, 2, 1, 8, 18, 134, 59, 60, 135, 135, 60, 2, 0.991965
363, 1, bw, attraction, a-b-da, 2, 1, 8, 18, 134, 59, 60, 135, 135, 60, 3, 2.30309
363, 1, bw, catch, NA, 999, 999, 8, 19, 138, 117, 163, 152, 81, 114, 2, 1.20031
363, 1, bw, catch, NA, 999, 999, 8, 19, 138, 117, 163, 152, 81, 114, 3, 0.527133
363, 1, bw, attraction, a-b-db, 5, 1, 8, 20, 135, 60, 60, 135, 58, 132, 3, 1.36758
363, 1, bw, attraction, a-b-db, 5, 1, 8, 20, 135, 60, 60, 135, 58, 132, 2, 0.695853
363, 1, bw, attraction, a-b-da, 9, 3, 8, 21, 195, 120, 120, 195, 186, 114, 2, 1.24957
363, 1, bw, attraction, a-b-da, 9, 3, 8, 21, 195, 120, 120, 195, 186, 114, 3, 0.846462
363, 1, bw, attraction, a-b-db, 9, 1, 8, 22, 57, 129, 135, 60, 60, 135, 3, 3.41013
363, 1, bw, attraction, a-b-db, 9, 1, 8, 22, 57, 129, 135, 60, 60, 135, 2, 0.711784
363, 1, bw, attraction, a-b-db, 2, 2, 8, 23, 89, 163, 90, 165, 165, 90, 2, 3.32872
363, 1, bw, attraction, a-b-db, 2, 2, 8, 23, 89, 163, 90, 165, 165, 90, 3, 0.625651
363, 1, bw, attraction, a-b-da, 5, 2, 8, 24, 165, 90, 161, 88, 90, 165, 3, 1.63812
363, 1, bw, attraction, a-b-da, 5, 2, 8, 24, 165, 90, 161, 88, 90, 165, 2, 0.890872
363, 1, bw, filler, NA, 999, 999, 8, 25, 184, 144, 162, 105, 161, 110, 1, 0.844693
363, 1, bw, filler, NA, 999, 999, 8, 25, 184, 144, 162, 105, 161, 110, 3, 0.969729
363, 1, bw, attraction, a-b-db, 5, 2, 8, 26, 88, 161, 165, 90, 90, 165, 3, 1.92066
363, 1, bw, attraction, a-b-db, 5, 2, 8, 26, 88, 161, 165, 90, 90, 165, 2, 0.674583
363, 1, bw, attraction, a-b-da, 2, 2, 8, 27, 165, 90, 163, 89, 90, 165, 3, 1.23705
363, 1, bw, attraction, a-b-da, 2, 2, 8, 27, 165, 90, 163, 89, 90, 165, 1, 1.19466
363, 1, bw, filler, NA, 999, 999, 8, 28, 105, 82, 101, 98, 123, 97, 3, 2.71223
363, 1, bw, filler, NA, 999, 999, 8, 28, 105, 82, 101, 98, 123, 97, 1, 0.761972
363, 1, bw, catch, NA, 999, 999, 8, 29, 70, 125, 177, 138, 131, 124, 2, 0.985009
363, 1, bw, catch, NA, 999, 999, 8, 29, 70, 125, 177, 138, 131, 124, 1, 0.76063
363, 1, bw, attraction, a-b-db, 9, 3, 8, 30, 195, 120, 114, 186, 120, 195, 1, 1.59963
363, 1, bw, attraction, a-b-db, 9, 3, 8, 30, 195, 120, 114, 186, 120, 195, 3, 1.06254
363, 1, bw, attraction, a-b-da, 5, 1, 8, 31, 132, 58, 135, 60, 60, 135, 2, 1.40155
363, 1, bw, attraction, a-b-da, 5, 1, 8, 31, 132, 58, 135, 60, 60, 135, 3, 0.680357
363, 1, bw, attraction, a-b-da, 14, 3, 8, 32, 181, 111, 195, 120, 120, 195, 2, 1.14683
363, 1, bw, attraction, a-b-da, 14, 3, 8, 32, 181, 111, 195, 120, 120, 195, 1, 0.739719
363, 1, bw, attraction, a-b-db, 2, 3, 8, 33, 120, 195, 119, 193, 195, 120, 2, 1.79607
363, 1, bw, attraction, a-b-db, 2, 3, 8, 33, 120, 195, 119, 193, 195, 120, 1, 0.682683
363, 1, bw, filler, NA, 999, 999, 8, 34, 187, 158, 69, 63, 57, 171, 1, 0.805127
363, 1, bw, filler, NA, 999, 999, 8, 34, 187, 158, 69, 63, 57, 171, 2, 0.827475
363, 1, bw, attraction, a-b-da, 14, 1, 8, 35, 125, 56, 135, 60, 60, 135, 3, 1.85593
363, 1, bw, attraction, a-b-da, 14, 1, 8, 35, 125, 56, 135, 60, 60, 135, 1, 0.732052
363, 1, bw, attraction, a-b-db, 9, 2, 8, 36, 86, 157, 90, 165, 165, 90, 2, 1.14832
363, 1, bw, attraction, a-b-db, 9, 2, 8, 36, 86, 157, 90, 165, 165, 90, 1, 0.82127
363, 1, bw, filler, NA, 999, 999, 8, 37, 148, 130, 86, 118, 113, 90, 1, 0.754306
363, 1, bw, filler, NA, 999, 999, 8, 37, 148, 130, 86, 118, 113, 90, 3, 0.962736
