sub_n, computer_n, bw_cond, effect, set, distance, diag, block_n, trial_n, h1, w1, h2, w2, h3, w3, choice, rt 
372, 1, wb, practice, NA, 999, 999, 0, 1, 58, 118, 82, 173, 99, 67, 3, 22.0222
372, 1, wb, practice, NA, 999, 999, 0, 1, 58, 118, 82, 173, 99, 67, 2, 2.18311
372, 1, wb, practice, NA, 999, 999, 0, 2, 155, 152, 71, 140, 122, 62, 3, 9.10308
372, 1, wb, practice, NA, 999, 999, 0, 2, 155, 152, 71, 140, 122, 62, 1, 2.18637
372, 1, wb, practice, NA, 999, 999, 0, 3, 83, 155, 178, 123, 113, 136, 3, 30.7943
372, 1, wb, practice, NA, 999, 999, 0, 3, 83, 155, 178, 123, 113, 136, 2, 2.96317
372, 1, wb, catch, NA, 999, 999, 1, 1, 105, 150, 127, 68, 124, 191, 2, 4.52755
372, 1, wb, catch, NA, 999, 999, 1, 1, 105, 150, 127, 68, 124, 191, 3, 1.29621
372, 1, wb, attraction, a-b-db, 9, 1, 1, 2, 60, 135, 135, 60, 57, 129, 2, 16.3618
372, 1, wb, attraction, a-b-db, 9, 1, 1, 2, 60, 135, 135, 60, 57, 129, 1, 0.949186
372, 1, wb, filler, NA, 999, 999, 1, 3, 135, 99, 186, 89, 66, 115, 3, 7.26091
372, 1, wb, filler, NA, 999, 999, 1, 3, 135, 99, 186, 89, 66, 115, 2, 8.86333
372, 1, wb, attraction, a-b-db, 14, 1, 1, 4, 56, 125, 135, 60, 60, 135, 2, 29.3437
372, 1, wb, attraction, a-b-db, 14, 1, 1, 4, 56, 125, 135, 60, 60, 135, 3, 0.672528
372, 1, wb, filler, NA, 999, 999, 1, 5, 187, 81, 146, 192, 93, 169, 1, 20.9877
372, 1, wb, filler, NA, 999, 999, 1, 5, 187, 81, 146, 192, 93, 169, 2, 1.0211
372, 1, wb, attraction, a-b-db, 2, 1, 1, 6, 135, 60, 60, 135, 59, 134, 1, 30.4819
372, 1, wb, attraction, a-b-db, 2, 1, 1, 6, 135, 60, 60, 135, 59, 134, 3, 1.52448
372, 1, wb, filler, NA, 999, 999, 1, 7, 142, 133, 165, 71, 110, 138, 2, 15.6526
372, 1, wb, filler, NA, 999, 999, 1, 7, 142, 133, 165, 71, 110, 138, 1, 0.389091
372, 1, wb, attraction, a-b-db, 2, 2, 1, 8, 89, 163, 90, 165, 165, 90, 2, 16.9237
372, 1, wb, attraction, a-b-db, 2, 2, 1, 8, 89, 163, 90, 165, 165, 90, 3, 2.87297
372, 1, wb, filler, NA, 999, 999, 1, 9, 91, 183, 91, 169, 108, 186, 2, 8.26725
372, 1, wb, filler, NA, 999, 999, 1, 9, 91, 183, 91, 169, 108, 186, 3, 1.08532
372, 1, wb, attraction, a-b-da, 2, 2, 1, 10, 90, 165, 165, 90, 163, 89, 2, 17.2236
372, 1, wb, attraction, a-b-da, 2, 2, 1, 10, 90, 165, 165, 90, 163, 89, 3, 0.680756
372, 1, wb, attraction, a-b-db, 5, 2, 1, 11, 165, 90, 90, 165, 88, 161, 3, 3.48326
372, 1, wb, attraction, a-b-db, 5, 2, 1, 11, 165, 90, 90, 165, 88, 161, 1, 7.84606
372, 1, wb, attraction, a-b-da, 2, 1, 1, 12, 135, 60, 60, 135, 134, 59, 1, 34.3355
372, 1, wb, attraction, a-b-da, 2, 1, 1, 12, 135, 60, 60, 135, 134, 59, 2, 1.65501
372, 1, wb, filler, NA, 999, 999, 1, 13, 102, 114, 171, 191, 112, 78, 3, 5.83425
372, 1, wb, filler, NA, 999, 999, 1, 13, 102, 114, 171, 191, 112, 78, 2, 0.614467
372, 1, wb, attraction, a-b-db, 14, 2, 1, 14, 90, 165, 165, 90, 83, 153, 3, 8.42763
372, 1, wb, attraction, a-b-db, 14, 2, 1, 14, 90, 165, 165, 90, 83, 153, 1, 2.16677
372, 1, wb, attraction, a-b-da, 5, 2, 1, 15, 90, 165, 165, 90, 161, 88, 3, 25.3494
372, 1, wb, attraction, a-b-da, 5, 2, 1, 15, 90, 165, 165, 90, 161, 88, 1, 0.89482
372, 1, wb, attraction, a-b-da, 9, 3, 1, 16, 120, 195, 195, 120, 186, 114, 3, 16.7285
372, 1, wb, attraction, a-b-da, 9, 3, 1, 16, 120, 195, 195, 120, 186, 114, 1, 6.61313
372, 1, wb, attraction, a-b-da, 14, 3, 1, 17, 120, 195, 195, 120, 181, 111, 3, 8.50435
372, 1, wb, attraction, a-b-da, 14, 3, 1, 17, 120, 195, 195, 120, 181, 111, 2, 2.28113
372, 1, wb, attraction, a-b-da, 5, 3, 1, 18, 195, 120, 190, 117, 120, 195, 3, 10.611
372, 1, wb, attraction, a-b-da, 5, 3, 1, 18, 195, 120, 190, 117, 120, 195, 1, 1.11032
372, 1, wb, attraction, a-b-db, 9, 2, 1, 19, 86, 157, 165, 90, 90, 165, 1, 17.1352
372, 1, wb, attraction, a-b-db, 9, 2, 1, 19, 86, 157, 165, 90, 90, 165, 3, 0.355812
372, 1, wb, attraction, a-b-db, 14, 3, 1, 20, 195, 120, 120, 195, 111, 181, 3, 23.1797
372, 1, wb, attraction, a-b-db, 14, 3, 1, 20, 195, 120, 120, 195, 111, 181, 1, 7.10054
372, 1, wb, attraction, a-b-db, 9, 3, 1, 21, 114, 186, 195, 120, 120, 195, 2, 6.08411
372, 1, wb, attraction, a-b-db, 9, 3, 1, 21, 114, 186, 195, 120, 120, 195, 3, 6.6302
372, 1, wb, attraction, a-b-da, 9, 2, 1, 22, 157, 86, 165, 90, 90, 165, 1, 5.02479
372, 1, wb, attraction, a-b-da, 9, 2, 1, 22, 157, 86, 165, 90, 90, 165, 3, 0.893293
372, 1, wb, filler, NA, 999, 999, 1, 23, 104, 90, 143, 137, 81, 75, 3, 1.87886
372, 1, wb, filler, NA, 999, 999, 1, 23, 104, 90, 143, 137, 81, 75, 2, 0.298181
372, 1, wb, attraction, a-b-da, 5, 1, 1, 24, 135, 60, 60, 135, 132, 58, 3, 6.77998
372, 1, wb, attraction, a-b-da, 5, 1, 1, 24, 135, 60, 60, 135, 132, 58, 1, 4.54591
372, 1, wb, attraction, a-b-da, 14, 1, 1, 25, 125, 56, 60, 135, 135, 60, 1, 10.3203
372, 1, wb, attraction, a-b-da, 14, 1, 1, 25, 125, 56, 60, 135, 135, 60, 3, 0.69584
372, 1, wb, catch, NA, 999, 999, 1, 26, 130, 185, 152, 103, 133, 62, 3, 4.03357
372, 1, wb, catch, NA, 999, 999, 1, 26, 130, 185, 152, 103, 133, 62, 1, 0.446273
372, 1, wb, attraction, a-b-da, 9, 1, 1, 27, 60, 135, 129, 57, 135, 60, 2, 3.36996
372, 1, wb, attraction, a-b-da, 9, 1, 1, 27, 60, 135, 129, 57, 135, 60, 3, 4.98573
372, 1, wb, filler, NA, 999, 999, 1, 28, 107, 107, 117, 161, 97, 76, 3, 1.99873
372, 1, wb, filler, NA, 999, 999, 1, 28, 107, 107, 117, 161, 97, 76, 2, 1.34137
372, 1, wb, filler, NA, 999, 999, 1, 29, 194, 119, 165, 175, 62, 106, 3, 4.89287
372, 1, wb, filler, NA, 999, 999, 1, 29, 194, 119, 165, 175, 62, 106, 2, 5.99066
372, 1, wb, attraction, a-b-da, 14, 2, 1, 30, 165, 90, 90, 165, 153, 83, 3, 5.04339
372, 1, wb, attraction, a-b-da, 14, 2, 1, 30, 165, 90, 90, 165, 153, 83, 1, 1.5591
372, 1, wb, filler, NA, 999, 999, 1, 31, 185, 157, 88, 162, 72, 56, 3, 2.75799
372, 1, wb, filler, NA, 999, 999, 1, 31, 185, 157, 88, 162, 72, 56, 1, 0.95767
372, 1, wb, attraction, a-b-db, 5, 3, 1, 32, 120, 195, 195, 120, 117, 190, 2, 7.91669
372, 1, wb, attraction, a-b-db, 5, 3, 1, 32, 120, 195, 195, 120, 117, 190, 1, 1.15684
372, 1, wb, attraction, a-b-db, 5, 1, 1, 33, 135, 60, 60, 135, 58, 132, 3, 7.65979
372, 1, wb, attraction, a-b-db, 5, 1, 1, 33, 135, 60, 60, 135, 58, 132, 1, 0.789896
372, 1, wb, catch, NA, 999, 999, 1, 34, 66, 129, 179, 136, 139, 116, 1, 2.86036
372, 1, wb, catch, NA, 999, 999, 1, 34, 66, 129, 179, 136, 139, 116, 2, 0.296042
372, 1, wb, attraction, a-b-da, 2, 3, 1, 35, 120, 195, 195, 120, 193, 119, 2, 15.2661
372, 1, wb, attraction, a-b-da, 2, 3, 1, 35, 120, 195, 195, 120, 193, 119, 1, 0.68976
372, 1, wb, attraction, a-b-db, 2, 3, 1, 36, 119, 193, 195, 120, 120, 195, 1, 4.41217
372, 1, wb, attraction, a-b-db, 2, 3, 1, 36, 119, 193, 195, 120, 120, 195, 3, 0.705583
372, 1, wb, filler, NA, 999, 999, 1, 37, 142, 80, 182, 126, 59, 91, 3, 1.89127
372, 1, wb, filler, NA, 999, 999, 1, 37, 142, 80, 182, 126, 59, 91, 2, 1.23
372, 1, wb, attraction, a-b-da, 2, 1, 2, 1, 135, 60, 134, 59, 60, 135, 3, 7.05818
372, 1, wb, attraction, a-b-da, 2, 1, 2, 1, 135, 60, 134, 59, 60, 135, 1, 0.572656
372, 1, wb, attraction, a-b-db, 2, 2, 2, 2, 89, 163, 90, 165, 165, 90, 2, 4.40389
372, 1, wb, attraction, a-b-db, 2, 2, 2, 2, 89, 163, 90, 165, 165, 90, 3, 1.4978
372, 1, wb, attraction, a-b-da, 9, 1, 2, 3, 60, 135, 129, 57, 135, 60, 2, 4.65905
372, 1, wb, attraction, a-b-da, 9, 1, 2, 3, 60, 135, 129, 57, 135, 60, 3, 24.9745
372, 1, wb, filler, NA, 999, 999, 2, 4, 161, 116, 156, 162, 146, 177, 1, 24.8059
372, 1, wb, filler, NA, 999, 999, 2, 4, 161, 116, 156, 162, 146, 177, 3, 0.605351
372, 1, wb, attraction, a-b-db, 14, 3, 2, 5, 195, 120, 120, 195, 111, 181, 1, 11.507
372, 1, wb, attraction, a-b-db, 14, 3, 2, 5, 195, 120, 120, 195, 111, 181, 2, 2.6988
372, 1, wb, attraction, a-b-da, 9, 3, 2, 6, 195, 120, 186, 114, 120, 195, 2, 13.5079
372, 1, wb, attraction, a-b-da, 9, 3, 2, 6, 195, 120, 186, 114, 120, 195, 3, 4.97904
372, 1, wb, attraction, a-b-da, 5, 3, 2, 7, 195, 120, 120, 195, 190, 117, 3, 6.52806
372, 1, wb, attraction, a-b-da, 5, 3, 2, 7, 195, 120, 120, 195, 190, 117, 2, 0.335927
372, 1, wb, attraction, a-b-da, 5, 1, 2, 8, 132, 58, 60, 135, 135, 60, 1, 32.3444
372, 1, wb, attraction, a-b-da, 5, 1, 2, 8, 132, 58, 60, 135, 135, 60, 2, 0.704319
372, 1, wb, attraction, a-b-da, 14, 3, 2, 9, 195, 120, 120, 195, 181, 111, 3, 3.49797
372, 1, wb, attraction, a-b-da, 14, 3, 2, 9, 195, 120, 120, 195, 181, 111, 1, 27.1804
372, 1, wb, attraction, a-b-da, 14, 1, 2, 10, 125, 56, 135, 60, 60, 135, 1, 5.85901
372, 1, wb, attraction, a-b-da, 14, 1, 2, 10, 125, 56, 135, 60, 60, 135, 2, 5.30184
372, 1, wb, attraction, a-b-db, 5, 1, 2, 11, 135, 60, 58, 132, 60, 135, 2, 17.2223
372, 1, wb, attraction, a-b-db, 5, 1, 2, 11, 135, 60, 58, 132, 60, 135, 1, 1.35948
372, 1, wb, attraction, a-b-db, 2, 1, 2, 12, 135, 60, 60, 135, 59, 134, 1, 11.1982
372, 1, wb, attraction, a-b-db, 2, 1, 2, 12, 135, 60, 60, 135, 59, 134, 2, 1.13007
372, 1, wb, attraction, a-b-da, 2, 3, 2, 13, 120, 195, 193, 119, 195, 120, 2, 15.8264
372, 1, wb, attraction, a-b-da, 2, 3, 2, 13, 120, 195, 193, 119, 195, 120, 3, 5.51526
372, 1, wb, filler, NA, 999, 999, 2, 14, 170, 60, 149, 73, 152, 76, 1, 22.6909
372, 1, wb, filler, NA, 999, 999, 2, 14, 170, 60, 149, 73, 152, 76, 3, 2.22387
372, 1, wb, filler, NA, 999, 999, 2, 15, 195, 125, 136, 101, 146, 156, 2, 4.33176
372, 1, wb, filler, NA, 999, 999, 2, 15, 195, 125, 136, 101, 146, 156, 3, 6.54033
372, 1, wb, attraction, a-b-db, 14, 2, 2, 16, 90, 165, 165, 90, 83, 153, 2, 12.8908
372, 1, wb, attraction, a-b-db, 14, 2, 2, 16, 90, 165, 165, 90, 83, 153, 1, 0.978097
372, 1, wb, attraction, a-b-db, 2, 3, 2, 17, 120, 195, 195, 120, 119, 193, 2, 13.7365
372, 1, wb, attraction, a-b-db, 2, 3, 2, 17, 120, 195, 195, 120, 119, 193, 3, 0.638053
372, 1, wb, filler, NA, 999, 999, 2, 18, 114, 190, 193, 138, 186, 84, 3, 6.49059
372, 1, wb, filler, NA, 999, 999, 2, 18, 114, 190, 193, 138, 186, 84, 2, 1.04379
372, 1, wb, attraction, a-b-da, 9, 2, 2, 19, 90, 165, 157, 86, 165, 90, 2, 5.99141
372, 1, wb, attraction, a-b-da, 9, 2, 2, 19, 90, 165, 157, 86, 165, 90, 3, 0.828855
372, 1, wb, attraction, a-b-da, 2, 2, 2, 20, 163, 89, 90, 165, 165, 90, 1, 12.4332
372, 1, wb, attraction, a-b-da, 2, 2, 2, 20, 163, 89, 90, 165, 165, 90, 2, 4.09936
372, 1, wb, attraction, a-b-db, 14, 1, 2, 21, 56, 125, 60, 135, 135, 60, 1, 12.8359
372, 1, wb, attraction, a-b-db, 14, 1, 2, 21, 56, 125, 60, 135, 135, 60, 2, 3.54995
372, 1, wb, attraction, a-b-db, 5, 3, 2, 22, 195, 120, 120, 195, 117, 190, 1, 5.02081
372, 1, wb, attraction, a-b-db, 5, 3, 2, 22, 195, 120, 120, 195, 117, 190, 2, 8.03399
372, 1, wb, catch, NA, 999, 999, 2, 23, 127, 128, 134, 61, 172, 143, 2, 4.50804
372, 1, wb, catch, NA, 999, 999, 2, 23, 127, 128, 134, 61, 172, 143, 3, 0.557124
372, 1, wb, filler, NA, 999, 999, 2, 24, 91, 120, 146, 168, 129, 82, 1, 15.502
372, 1, wb, filler, NA, 999, 999, 2, 24, 91, 120, 146, 168, 129, 82, 2, 0.354736
372, 1, wb, attraction, a-b-db, 9, 1, 2, 25, 57, 129, 60, 135, 135, 60, 1, 4.41056
372, 1, wb, attraction, a-b-db, 9, 1, 2, 25, 57, 129, 60, 135, 135, 60, 3, 1.89591
372, 1, wb, attraction, a-b-da, 5, 2, 2, 26, 165, 90, 161, 88, 90, 165, 2, 34.0093
372, 1, wb, attraction, a-b-da, 5, 2, 2, 26, 165, 90, 161, 88, 90, 165, 1, 0.669827
372, 1, wb, attraction, a-b-db, 9, 3, 2, 27, 195, 120, 114, 186, 120, 195, 2, 7.43294
372, 1, wb, attraction, a-b-db, 9, 3, 2, 27, 195, 120, 114, 186, 120, 195, 1, 0.500498
372, 1, wb, filler, NA, 999, 999, 2, 28, 110, 67, 151, 115, 166, 85, 1, 1.70226
372, 1, wb, filler, NA, 999, 999, 2, 28, 110, 67, 151, 115, 166, 85, 2, 4.4011
372, 1, wb, filler, NA, 999, 999, 2, 29, 83, 61, 115, 60, 135, 126, 1, 1.72586
372, 1, wb, filler, NA, 999, 999, 2, 29, 83, 61, 115, 60, 135, 126, 3, 0.399055
372, 1, wb, catch, NA, 999, 999, 2, 30, 125, 130, 133, 182, 106, 89, 3, 2.62093
372, 1, wb, catch, NA, 999, 999, 2, 30, 125, 130, 133, 182, 106, 89, 2, 0.63479
372, 1, wb, filler, NA, 999, 999, 2, 31, 180, 82, 194, 172, 165, 140, 1, 5.70326
372, 1, wb, filler, NA, 999, 999, 2, 31, 180, 82, 194, 172, 165, 140, 2, 0.504744
372, 1, wb, attraction, a-b-db, 5, 2, 2, 32, 90, 165, 165, 90, 88, 161, 3, 26.9786
372, 1, wb, attraction, a-b-db, 5, 2, 2, 32, 90, 165, 165, 90, 88, 161, 2, 1.61885
372, 1, wb, catch, NA, 999, 999, 2, 33, 95, 160, 108, 87, 194, 121, 2, 1.36759
372, 1, wb, catch, NA, 999, 999, 2, 33, 95, 160, 108, 87, 194, 121, 3, 0.831854
372, 1, wb, attraction, a-b-db, 9, 2, 2, 34, 165, 90, 86, 157, 90, 165, 3, 4.12409
372, 1, wb, attraction, a-b-db, 9, 2, 2, 34, 165, 90, 86, 157, 90, 165, 1, 1.21273
372, 1, wb, filler, NA, 999, 999, 2, 35, 146, 124, 83, 139, 61, 171, 2, 5.63361
372, 1, wb, filler, NA, 999, 999, 2, 35, 146, 124, 83, 139, 61, 171, 1, 1.66983
372, 1, wb, filler, NA, 999, 999, 2, 36, 131, 160, 68, 155, 127, 116, 3, 6.72862
372, 1, wb, filler, NA, 999, 999, 2, 36, 131, 160, 68, 155, 127, 116, 1, 0.496379
372, 1, wb, attraction, a-b-da, 14, 2, 2, 37, 90, 165, 165, 90, 153, 83, 2, 16.5862
372, 1, wb, attraction, a-b-da, 14, 2, 2, 37, 90, 165, 165, 90, 153, 83, 1, 0.348971
372, 1, wb, catch, NA, 999, 999, 3, 1, 78, 117, 111, 144, 171, 144, 1, 1.13287
372, 1, wb, catch, NA, 999, 999, 3, 1, 78, 117, 111, 144, 171, 144, 3, 0.894503
372, 1, wb, filler, NA, 999, 999, 3, 2, 125, 118, 80, 109, 161, 99, 2, 1.1522
372, 1, wb, filler, NA, 999, 999, 3, 2, 125, 118, 80, 109, 161, 99, 3, 1.32909
372, 1, wb, attraction, a-b-da, 5, 2, 3, 3, 90, 165, 165, 90, 161, 88, 2, 26.1132
372, 1, wb, attraction, a-b-da, 5, 2, 3, 3, 90, 165, 165, 90, 161, 88, 3, 2.5798
372, 1, wb, attraction, a-b-da, 14, 2, 3, 4, 165, 90, 90, 165, 153, 83, 3, 1.90565
372, 1, wb, attraction, a-b-da, 14, 2, 3, 4, 165, 90, 90, 165, 153, 83, 1, 1.2117
372, 1, wb, attraction, a-b-db, 14, 1, 3, 5, 60, 135, 56, 125, 135, 60, 2, 2.66454
372, 1, wb, attraction, a-b-db, 14, 1, 3, 5, 60, 135, 56, 125, 135, 60, 3, 1.37238
372, 1, wb, filler, NA, 999, 999, 3, 6, 138, 180, 103, 130, 109, 108, 3, 1.36311
372, 1, wb, filler, NA, 999, 999, 3, 6, 138, 180, 103, 130, 109, 108, 1, 0.419453
372, 1, wb, filler, NA, 999, 999, 3, 7, 59, 184, 134, 157, 84, 121, 3, 2.20046
372, 1, wb, filler, NA, 999, 999, 3, 7, 59, 184, 134, 157, 84, 121, 2, 1.57511
372, 1, wb, filler, NA, 999, 999, 3, 8, 193, 106, 174, 176, 162, 61, 3, 1.6852
372, 1, wb, filler, NA, 999, 999, 3, 8, 193, 106, 174, 176, 162, 61, 2, 0.408686
372, 1, wb, attraction, a-b-da, 2, 1, 3, 9, 60, 135, 135, 60, 134, 59, 2, 4.39786
372, 1, wb, attraction, a-b-da, 2, 1, 3, 9, 60, 135, 135, 60, 134, 59, 1, 4.18788
372, 1, wb, filler, NA, 999, 999, 3, 10, 81, 56, 150, 181, 90, 160, 1, 1.28903
372, 1, wb, filler, NA, 999, 999, 3, 10, 81, 56, 150, 181, 90, 160, 2, 0.555955
372, 1, wb, attraction, a-b-da, 2, 3, 3, 11, 195, 120, 193, 119, 120, 195, 2, 12.1238
372, 1, wb, attraction, a-b-da, 2, 3, 3, 11, 195, 120, 193, 119, 120, 195, 1, 4.8587
372, 1, wb, attraction, a-b-db, 5, 2, 3, 12, 88, 161, 90, 165, 165, 90, 1, 7.6604
372, 1, wb, attraction, a-b-db, 5, 2, 3, 12, 88, 161, 90, 165, 165, 90, 3, 3.42285
372, 1, wb, attraction, a-b-db, 14, 2, 3, 13, 90, 165, 83, 153, 165, 90, 2, 4.91488
372, 1, wb, attraction, a-b-db, 14, 2, 3, 13, 90, 165, 83, 153, 165, 90, 3, 0.515981
372, 1, wb, attraction, a-b-db, 9, 3, 3, 14, 195, 120, 114, 186, 120, 195, 2, 13.781
372, 1, wb, attraction, a-b-db, 9, 3, 3, 14, 195, 120, 114, 186, 120, 195, 1, 2.36867
372, 1, wb, attraction, a-b-db, 2, 2, 3, 15, 165, 90, 90, 165, 89, 163, 2, 1.2872
372, 1, wb, attraction, a-b-db, 2, 2, 3, 15, 165, 90, 90, 165, 89, 163, 3, 4.35494
372, 1, wb, attraction, a-b-db, 9, 1, 3, 16, 57, 129, 135, 60, 60, 135, 1, 1.98537
372, 1, wb, attraction, a-b-db, 9, 1, 3, 16, 57, 129, 135, 60, 60, 135, 2, 0.992763
372, 1, wb, filler, NA, 999, 999, 3, 17, 88, 139, 163, 104, 182, 175, 1, 1.38237
372, 1, wb, filler, NA, 999, 999, 3, 17, 88, 139, 163, 104, 182, 175, 3, 0.613907
372, 1, wb, attraction, a-b-db, 5, 3, 3, 18, 117, 190, 120, 195, 195, 120, 1, 7.53907
372, 1, wb, attraction, a-b-db, 5, 3, 3, 18, 117, 190, 120, 195, 195, 120, 3, 0.562762
372, 1, wb, catch, NA, 999, 999, 3, 19, 124, 191, 162, 93, 66, 129, 3, 0.657714
372, 1, wb, catch, NA, 999, 999, 3, 19, 124, 191, 162, 93, 66, 129, 1, 0.302217
372, 1, wb, attraction, a-b-db, 2, 1, 3, 20, 59, 134, 60, 135, 135, 60, 2, 8.43205
372, 1, wb, attraction, a-b-db, 2, 1, 3, 20, 59, 134, 60, 135, 135, 60, 3, 0.459325
372, 1, wb, filler, NA, 999, 999, 3, 21, 193, 90, 112, 86, 109, 172, 2, 0.918493
372, 1, wb, filler, NA, 999, 999, 3, 21, 193, 90, 112, 86, 109, 172, 1, 0.424836
372, 1, wb, filler, NA, 999, 999, 3, 22, 115, 136, 121, 168, 137, 134, 1, 0.82129
372, 1, wb, filler, NA, 999, 999, 3, 22, 115, 136, 121, 168, 137, 134, 3, 1.73901
372, 1, wb, attraction, a-b-db, 2, 3, 3, 23, 195, 120, 120, 195, 119, 193, 2, 8.66714
372, 1, wb, attraction, a-b-db, 2, 3, 3, 23, 195, 120, 120, 195, 119, 193, 3, 0.533041
372, 1, wb, attraction, a-b-db, 14, 3, 3, 24, 195, 120, 111, 181, 120, 195, 2, 2.02144
372, 1, wb, attraction, a-b-db, 14, 3, 3, 24, 195, 120, 111, 181, 120, 195, 1, 3.0755
372, 1, wb, attraction, a-b-da, 14, 3, 3, 25, 120, 195, 195, 120, 181, 111, 2, 4.8131
372, 1, wb, attraction, a-b-da, 14, 3, 3, 25, 120, 195, 195, 120, 181, 111, 1, 1.0582
372, 1, wb, catch, NA, 999, 999, 3, 26, 184, 131, 62, 133, 125, 130, 2, 0.797252
372, 1, wb, catch, NA, 999, 999, 3, 26, 184, 131, 62, 133, 125, 130, 1, 0.28423
372, 1, wb, filler, NA, 999, 999, 3, 27, 189, 144, 83, 70, 83, 164, 2, 1.19873
372, 1, wb, filler, NA, 999, 999, 3, 27, 189, 144, 83, 70, 83, 164, 1, 0.245656
372, 1, wb, attraction, a-b-da, 2, 2, 3, 28, 163, 89, 90, 165, 165, 90, 1, 4.71358
372, 1, wb, attraction, a-b-da, 2, 2, 3, 28, 163, 89, 90, 165, 165, 90, 2, 3.48272
372, 1, wb, attraction, a-b-da, 14, 1, 3, 29, 125, 56, 60, 135, 135, 60, 1, 1.36425
372, 1, wb, attraction, a-b-da, 14, 1, 3, 29, 125, 56, 60, 135, 135, 60, 3, 2.98051
372, 1, wb, attraction, a-b-db, 9, 2, 3, 30, 165, 90, 86, 157, 90, 165, 2, 1.09008
372, 1, wb, attraction, a-b-db, 9, 2, 3, 30, 165, 90, 86, 157, 90, 165, 3, 3.23711
372, 1, wb, attraction, a-b-da, 9, 1, 3, 31, 135, 60, 129, 57, 60, 135, 2, 3.98487
372, 1, wb, attraction, a-b-da, 9, 1, 3, 31, 135, 60, 129, 57, 60, 135, 3, 0.375622
372, 1, wb, attraction, a-b-da, 5, 1, 3, 32, 135, 60, 132, 58, 60, 135, 2, 1.88588
372, 1, wb, attraction, a-b-da, 5, 1, 3, 32, 135, 60, 132, 58, 60, 135, 1, 3.32935
372, 1, wb, attraction, a-b-da, 9, 2, 3, 33, 90, 165, 157, 86, 165, 90, 2, 4.75286
372, 1, wb, attraction, a-b-da, 9, 2, 3, 33, 90, 165, 157, 86, 165, 90, 3, 0.408747
372, 1, wb, attraction, a-b-da, 9, 3, 3, 34, 120, 195, 186, 114, 195, 120, 2, 3.83783
372, 1, wb, attraction, a-b-da, 9, 3, 3, 34, 120, 195, 186, 114, 195, 120, 1, 3.30658
372, 1, wb, attraction, a-b-da, 5, 3, 3, 35, 195, 120, 120, 195, 190, 117, 3, 11.9075
372, 1, wb, attraction, a-b-da, 5, 3, 3, 35, 195, 120, 120, 195, 190, 117, 2, 0.979084
372, 1, wb, filler, NA, 999, 999, 3, 36, 165, 179, 178, 149, 120, 70, 3, 1.64944
372, 1, wb, filler, NA, 999, 999, 3, 36, 165, 179, 178, 149, 120, 70, 1, 1.7584
372, 1, wb, attraction, a-b-db, 5, 1, 3, 37, 58, 132, 60, 135, 135, 60, 1, 2.50905
372, 1, wb, attraction, a-b-db, 5, 1, 3, 37, 58, 132, 60, 135, 135, 60, 3, 2.39901
372, 1, wb, attraction, a-b-da, 14, 3, 4, 1, 181, 111, 120, 195, 195, 120, 1, 0.900028
372, 1, wb, attraction, a-b-da, 14, 3, 4, 1, 181, 111, 120, 195, 195, 120, 3, 2.67914
372, 1, wb, attraction, a-b-da, 9, 2, 4, 2, 90, 165, 157, 86, 165, 90, 2, 4.19277
372, 1, wb, attraction, a-b-da, 9, 2, 4, 2, 90, 165, 157, 86, 165, 90, 3, 0.73487
372, 1, wb, attraction, a-b-db, 9, 1, 4, 3, 135, 60, 57, 129, 60, 135, 1, 0.879106
372, 1, wb, attraction, a-b-db, 9, 1, 4, 3, 135, 60, 57, 129, 60, 135, 3, 0.474851
372, 1, wb, filler, NA, 999, 999, 4, 4, 163, 119, 166, 183, 84, 121, 3, 0.845317
372, 1, wb, filler, NA, 999, 999, 4, 4, 163, 119, 166, 183, 84, 121, 2, 0.242413
372, 1, wb, filler, NA, 999, 999, 4, 5, 77, 59, 180, 143, 89, 131, 1, 0.998167
372, 1, wb, filler, NA, 999, 999, 4, 5, 77, 59, 180, 143, 89, 131, 2, 0.365164
372, 1, wb, filler, NA, 999, 999, 4, 6, 110, 141, 120, 123, 93, 57, 3, 0.788413
372, 1, wb, filler, NA, 999, 999, 4, 6, 110, 141, 120, 123, 93, 57, 1, 0.955445
372, 1, wb, attraction, a-b-da, 9, 3, 4, 7, 120, 195, 195, 120, 186, 114, 2, 4.87521
372, 1, wb, attraction, a-b-da, 9, 3, 4, 7, 120, 195, 195, 120, 186, 114, 1, 1.61351
372, 1, wb, attraction, a-b-da, 14, 1, 4, 8, 125, 56, 135, 60, 60, 135, 1, 1.59428
372, 1, wb, attraction, a-b-da, 14, 1, 4, 8, 125, 56, 135, 60, 60, 135, 3, 0.905178
372, 1, wb, filler, NA, 999, 999, 4, 9, 114, 180, 155, 173, 123, 173, 1, 0.746696
372, 1, wb, filler, NA, 999, 999, 4, 9, 114, 180, 155, 173, 123, 173, 3, 1.1158
372, 1, wb, attraction, a-b-da, 14, 2, 4, 10, 90, 165, 165, 90, 153, 83, 3, 1.39686
372, 1, wb, attraction, a-b-da, 14, 2, 4, 10, 90, 165, 165, 90, 153, 83, 1, 2.13167
372, 1, wb, filler, NA, 999, 999, 4, 11, 163, 158, 121, 118, 147, 141, 2, 0.715518
372, 1, wb, filler, NA, 999, 999, 4, 11, 163, 158, 121, 118, 147, 141, 1, 0.38993
372, 1, wb, attraction, a-b-da, 5, 2, 4, 12, 161, 88, 165, 90, 90, 165, 2, 3.56383
372, 1, wb, attraction, a-b-da, 5, 2, 4, 12, 161, 88, 165, 90, 90, 165, 3, 0.555393
372, 1, wb, attraction, a-b-da, 5, 3, 4, 13, 190, 117, 195, 120, 120, 195, 2, 9.76313
372, 1, wb, attraction, a-b-da, 5, 3, 4, 13, 190, 117, 195, 120, 120, 195, 3, 0.528756
372, 1, wb, attraction, a-b-da, 2, 1, 4, 14, 134, 59, 135, 60, 60, 135, 2, 13.7532
372, 1, wb, attraction, a-b-da, 2, 1, 4, 14, 134, 59, 135, 60, 60, 135, 3, 0.222197
372, 1, wb, attraction, a-b-da, 9, 1, 4, 15, 60, 135, 135, 60, 129, 57, 2, 3.28337
372, 1, wb, attraction, a-b-da, 9, 1, 4, 15, 60, 135, 135, 60, 129, 57, 1, 2.31032
372, 1, wb, attraction, a-b-db, 5, 2, 4, 16, 88, 161, 90, 165, 165, 90, 2, 3.08683
372, 1, wb, attraction, a-b-db, 5, 2, 4, 16, 88, 161, 90, 165, 165, 90, 3, 0.473928
372, 1, wb, attraction, a-b-db, 2, 2, 4, 17, 90, 165, 165, 90, 89, 163, 2, 5.70843
372, 1, wb, attraction, a-b-db, 2, 2, 4, 17, 90, 165, 165, 90, 89, 163, 1, 0.533244
372, 1, wb, attraction, a-b-db, 14, 1, 4, 18, 60, 135, 56, 125, 135, 60, 2, 4.38965
372, 1, wb, attraction, a-b-db, 14, 1, 4, 18, 60, 135, 56, 125, 135, 60, 3, 6.17958
372, 1, wb, catch, NA, 999, 999, 4, 19, 147, 108, 148, 167, 108, 87, 3, 1.84023
372, 1, wb, catch, NA, 999, 999, 4, 19, 147, 108, 148, 167, 108, 87, 2, 0.372951
372, 1, wb, filler, NA, 999, 999, 4, 20, 97, 77, 102, 109, 117, 75, 1, 0.972094
372, 1, wb, filler, NA, 999, 999, 4, 20, 97, 77, 102, 109, 117, 75, 3, 0.867758
372, 1, wb, attraction, a-b-db, 9, 3, 4, 21, 114, 186, 120, 195, 195, 120, 1, 0.798711
372, 1, wb, attraction, a-b-db, 9, 3, 4, 21, 114, 186, 120, 195, 195, 120, 2, 4.18199
372, 1, wb, attraction, a-b-db, 9, 2, 4, 22, 90, 165, 86, 157, 165, 90, 2, 1.6112
372, 1, wb, attraction, a-b-db, 9, 2, 4, 22, 90, 165, 86, 157, 165, 90, 3, 4.90521
372, 1, wb, filler, NA, 999, 999, 4, 23, 125, 115, 80, 112, 171, 194, 2, 0.937691
372, 1, wb, filler, NA, 999, 999, 4, 23, 125, 115, 80, 112, 171, 194, 3, 0.275355
372, 1, wb, attraction, a-b-db, 5, 3, 4, 24, 120, 195, 195, 120, 117, 190, 2, 5.7179
372, 1, wb, attraction, a-b-db, 5, 3, 4, 24, 120, 195, 195, 120, 117, 190, 3, 4.15083
372, 1, wb, attraction, a-b-da, 2, 2, 4, 25, 165, 90, 90, 165, 163, 89, 1, 8.39745
372, 1, wb, attraction, a-b-da, 2, 2, 4, 25, 165, 90, 90, 165, 163, 89, 2, 1.29822
372, 1, wb, filler, NA, 999, 999, 4, 26, 61, 167, 69, 136, 70, 72, 3, 1.07568
372, 1, wb, filler, NA, 999, 999, 4, 26, 61, 167, 69, 136, 70, 72, 1, 0.86331
372, 1, wb, attraction, a-b-db, 2, 3, 4, 27, 195, 120, 120, 195, 119, 193, 1, 2.86631
372, 1, wb, attraction, a-b-db, 2, 3, 4, 27, 195, 120, 120, 195, 119, 193, 2, 0.653987
372, 1, wb, attraction, a-b-db, 2, 1, 4, 28, 135, 60, 60, 135, 59, 134, 1, 1.65777
372, 1, wb, attraction, a-b-db, 2, 1, 4, 28, 135, 60, 60, 135, 59, 134, 3, 2.49381
372, 1, wb, filler, NA, 999, 999, 4, 29, 86, 146, 72, 191, 93, 163, 1, 5.74298
372, 1, wb, filler, NA, 999, 999, 4, 29, 86, 146, 72, 191, 93, 163, 3, 2.64662
372, 1, wb, catch, NA, 999, 999, 4, 30, 103, 92, 158, 97, 153, 162, 1, 0.881776
372, 1, wb, catch, NA, 999, 999, 4, 30, 103, 92, 158, 97, 153, 162, 3, 0.373272
372, 1, wb, attraction, a-b-da, 5, 1, 4, 31, 135, 60, 60, 135, 132, 58, 3, 4.94057
372, 1, wb, attraction, a-b-da, 5, 1, 4, 31, 135, 60, 60, 135, 132, 58, 1, 0.868402
372, 1, wb, attraction, a-b-db, 14, 3, 4, 32, 120, 195, 195, 120, 111, 181, 3, 3.68745
372, 1, wb, attraction, a-b-db, 14, 3, 4, 32, 120, 195, 195, 120, 111, 181, 2, 0.442056
372, 1, wb, filler, NA, 999, 999, 4, 33, 75, 104, 144, 87, 93, 187, 1, 0.829842
372, 1, wb, filler, NA, 999, 999, 4, 33, 75, 104, 144, 87, 93, 187, 3, 0.33959
372, 1, wb, attraction, a-b-da, 2, 3, 4, 34, 193, 119, 120, 195, 195, 120, 1, 1.51616
372, 1, wb, attraction, a-b-da, 2, 3, 4, 34, 193, 119, 120, 195, 195, 120, 3, 0.422269
372, 1, wb, catch, NA, 999, 999, 4, 35, 66, 129, 143, 172, 148, 107, 1, 0.867426
372, 1, wb, catch, NA, 999, 999, 4, 35, 66, 129, 143, 172, 148, 107, 2, 0.247822
372, 1, wb, attraction, a-b-db, 14, 2, 4, 36, 83, 153, 90, 165, 165, 90, 1, 4.49171
372, 1, wb, attraction, a-b-db, 14, 2, 4, 36, 83, 153, 90, 165, 165, 90, 2, 2.12553
372, 1, wb, attraction, a-b-db, 5, 1, 4, 37, 135, 60, 60, 135, 58, 132, 3, 5.32569
372, 1, wb, attraction, a-b-db, 5, 1, 4, 37, 135, 60, 60, 135, 58, 132, 1, 1.02985
372, 1, wb, attraction, a-b-db, 9, 1, 5, 1, 135, 60, 60, 135, 57, 129, 1, 18.4647
372, 1, wb, attraction, a-b-db, 9, 1, 5, 1, 135, 60, 60, 135, 57, 129, 2, 1.39169
372, 1, wb, attraction, a-b-da, 5, 1, 5, 2, 132, 58, 135, 60, 60, 135, 1, 5.52512
372, 1, wb, attraction, a-b-da, 5, 1, 5, 2, 132, 58, 135, 60, 60, 135, 3, 2.59735
372, 1, wb, attraction, a-b-db, 5, 2, 5, 3, 88, 161, 165, 90, 90, 165, 2, 7.57049
372, 1, wb, attraction, a-b-db, 5, 2, 5, 3, 88, 161, 165, 90, 90, 165, 3, 1.49684
372, 1, wb, attraction, a-b-da, 2, 1, 5, 4, 134, 59, 60, 135, 135, 60, 3, 2.33824
372, 1, wb, attraction, a-b-da, 2, 1, 5, 4, 134, 59, 60, 135, 135, 60, 2, 0.507472
372, 1, wb, catch, NA, 999, 999, 5, 5, 113, 82, 105, 150, 126, 189, 1, 1.35654
372, 1, wb, catch, NA, 999, 999, 5, 5, 113, 82, 105, 150, 126, 189, 3, 0.996779
372, 1, wb, attraction, a-b-da, 14, 2, 5, 6, 153, 83, 165, 90, 90, 165, 1, 9.53845
372, 1, wb, attraction, a-b-da, 14, 2, 5, 6, 153, 83, 165, 90, 90, 165, 3, 1.88143
372, 1, wb, filler, NA, 999, 999, 5, 7, 67, 91, 95, 172, 119, 179, 1, 1.83543
372, 1, wb, filler, NA, 999, 999, 5, 7, 67, 91, 95, 172, 119, 179, 3, 0.440897
372, 1, wb, filler, NA, 999, 999, 5, 8, 186, 142, 132, 168, 93, 162, 3, 3.77271
372, 1, wb, filler, NA, 999, 999, 5, 8, 186, 142, 132, 168, 93, 162, 1, 5.0515
372, 1, wb, attraction, a-b-da, 14, 1, 5, 9, 125, 56, 135, 60, 60, 135, 1, 3.838
372, 1, wb, attraction, a-b-da, 14, 1, 5, 9, 125, 56, 135, 60, 60, 135, 3, 0.770597
372, 1, wb, attraction, a-b-da, 9, 2, 5, 10, 165, 90, 90, 165, 157, 86, 1, 3.56162
372, 1, wb, attraction, a-b-da, 9, 2, 5, 10, 165, 90, 90, 165, 157, 86, 2, 0.281105
372, 1, wb, attraction, a-b-da, 5, 3, 5, 11, 120, 195, 190, 117, 195, 120, 2, 2.4757
372, 1, wb, attraction, a-b-da, 5, 3, 5, 11, 120, 195, 190, 117, 195, 120, 1, 0.238822
372, 1, wb, attraction, a-b-da, 9, 3, 5, 12, 120, 195, 195, 120, 186, 114, 3, 2.31539
372, 1, wb, attraction, a-b-da, 9, 3, 5, 12, 120, 195, 195, 120, 186, 114, 1, 5.54131
372, 1, wb, attraction, a-b-db, 14, 3, 5, 13, 195, 120, 120, 195, 111, 181, 3, 6.66821
372, 1, wb, attraction, a-b-db, 14, 3, 5, 13, 195, 120, 120, 195, 111, 181, 2, 1.63881
372, 1, wb, attraction, a-b-db, 9, 2, 5, 14, 165, 90, 86, 157, 90, 165, 2, 2.93087
372, 1, wb, attraction, a-b-db, 9, 2, 5, 14, 165, 90, 86, 157, 90, 165, 1, 0.379875
372, 1, wb, filler, NA, 999, 999, 5, 15, 155, 144, 93, 121, 187, 141, 2, 0.714401
372, 1, wb, filler, NA, 999, 999, 5, 15, 155, 144, 93, 121, 187, 141, 3, 0.284927
372, 1, wb, catch, NA, 999, 999, 5, 16, 73, 122, 140, 115, 120, 195, 1, 0.583392
372, 1, wb, catch, NA, 999, 999, 5, 16, 73, 122, 140, 115, 120, 195, 3, 0.287143
372, 1, wb, attraction, a-b-db, 9, 3, 5, 17, 114, 186, 195, 120, 120, 195, 1, 4.37769
372, 1, wb, attraction, a-b-db, 9, 3, 5, 17, 114, 186, 195, 120, 120, 195, 2, 0.600282
372, 1, wb, filler, NA, 999, 999, 5, 18, 120, 86, 183, 56, 87, 62, 3, 0.790017
372, 1, wb, filler, NA, 999, 999, 5, 18, 120, 86, 183, 56, 87, 62, 1, 4.07707
372, 1, wb, catch, NA, 999, 999, 5, 19, 162, 93, 120, 195, 82, 113, 3, 0.95031
372, 1, wb, catch, NA, 999, 999, 5, 19, 162, 93, 120, 195, 82, 113, 2, 0.239462
372, 1, wb, filler, NA, 999, 999, 5, 20, 186, 175, 65, 140, 166, 79, 2, 0.707973
372, 1, wb, filler, NA, 999, 999, 5, 20, 186, 175, 65, 140, 166, 79, 1, 0.254451
372, 1, wb, filler, NA, 999, 999, 5, 21, 109, 180, 57, 109, 139, 123, 2, 0.538213
372, 1, wb, filler, NA, 999, 999, 5, 21, 109, 180, 57, 109, 139, 123, 1, 3.49142
372, 1, wb, attraction, a-b-db, 14, 1, 5, 22, 56, 125, 135, 60, 60, 135, 2, 4.70036
372, 1, wb, attraction, a-b-db, 14, 1, 5, 22, 56, 125, 135, 60, 60, 135, 3, 0.230057
372, 1, wb, attraction, a-b-db, 14, 2, 5, 23, 90, 165, 83, 153, 165, 90, 2, 3.24268
372, 1, wb, attraction, a-b-db, 14, 2, 5, 23, 90, 165, 83, 153, 165, 90, 3, 0.646911
372, 1, wb, attraction, a-b-da, 2, 3, 5, 24, 193, 119, 195, 120, 120, 195, 2, 3.60258
372, 1, wb, attraction, a-b-da, 2, 3, 5, 24, 193, 119, 195, 120, 120, 195, 3, 1.51292
372, 1, wb, attraction, a-b-db, 5, 3, 5, 25, 117, 190, 195, 120, 120, 195, 2, 4.46569
372, 1, wb, attraction, a-b-db, 5, 3, 5, 25, 117, 190, 195, 120, 120, 195, 3, 0.444954
372, 1, wb, filler, NA, 999, 999, 5, 26, 112, 92, 155, 103, 188, 144, 1, 0.696698
372, 1, wb, filler, NA, 999, 999, 5, 26, 112, 92, 155, 103, 188, 144, 3, 0.355791
372, 1, wb, attraction, a-b-da, 9, 1, 5, 27, 129, 57, 60, 135, 135, 60, 2, 3.84358
372, 1, wb, attraction, a-b-da, 9, 1, 5, 27, 129, 57, 60, 135, 135, 60, 1, 1.67181
372, 1, wb, attraction, a-b-db, 5, 1, 5, 28, 60, 135, 58, 132, 135, 60, 1, 1.60249
372, 1, wb, attraction, a-b-db, 5, 1, 5, 28, 60, 135, 58, 132, 135, 60, 3, 0.905232
372, 1, wb, attraction, a-b-da, 5, 2, 5, 29, 161, 88, 90, 165, 165, 90, 1, 7.65088
372, 1, wb, attraction, a-b-da, 5, 2, 5, 29, 161, 88, 90, 165, 165, 90, 2, 0.565888
372, 1, wb, attraction, a-b-db, 2, 1, 5, 30, 135, 60, 59, 134, 60, 135, 1, 20.1648
372, 1, wb, attraction, a-b-db, 2, 1, 5, 30, 135, 60, 59, 134, 60, 135, 3, 0.607251
372, 1, wb, attraction, a-b-da, 2, 2, 5, 31, 165, 90, 90, 165, 163, 89, 3, 5.42842
372, 1, wb, attraction, a-b-da, 2, 2, 5, 31, 165, 90, 90, 165, 163, 89, 2, 3.52063
372, 1, wb, filler, NA, 999, 999, 5, 32, 113, 85, 151, 104, 161, 184, 1, 0.688804
372, 1, wb, filler, NA, 999, 999, 5, 32, 113, 85, 151, 104, 161, 184, 3, 0.195915
372, 1, wb, attraction, a-b-da, 14, 3, 5, 33, 181, 111, 195, 120, 120, 195, 1, 6.80185
372, 1, wb, attraction, a-b-da, 14, 3, 5, 33, 181, 111, 195, 120, 120, 195, 2, 1.73503
372, 1, wb, filler, NA, 999, 999, 5, 34, 113, 68, 191, 176, 160, 133, 1, 0.751085
372, 1, wb, filler, NA, 999, 999, 5, 34, 113, 68, 191, 176, 160, 133, 2, 0.264146
372, 1, wb, filler, NA, 999, 999, 5, 35, 76, 88, 128, 155, 174, 182, 1, 0.707295
372, 1, wb, filler, NA, 999, 999, 5, 35, 76, 88, 128, 155, 174, 182, 3, 0.461758
372, 1, wb, attraction, a-b-db, 2, 3, 5, 36, 119, 193, 120, 195, 195, 120, 1, 2.74477
372, 1, wb, attraction, a-b-db, 2, 3, 5, 36, 119, 193, 120, 195, 195, 120, 3, 3.09726
372, 1, wb, attraction, a-b-db, 2, 2, 5, 37, 90, 165, 165, 90, 89, 163, 2, 4.80221
372, 1, wb, attraction, a-b-db, 2, 2, 5, 37, 90, 165, 165, 90, 89, 163, 1, 0.344083
372, 1, wb, attraction, a-b-da, 14, 3, 6, 1, 195, 120, 120, 195, 181, 111, 3, 1.42384
372, 1, wb, attraction, a-b-da, 14, 3, 6, 1, 195, 120, 120, 195, 181, 111, 1, 6.0455
372, 1, wb, attraction, a-b-da, 2, 1, 6, 2, 60, 135, 134, 59, 135, 60, 2, 2.07152
372, 1, wb, attraction, a-b-da, 2, 1, 6, 2, 60, 135, 134, 59, 135, 60, 3, 3.18754
372, 1, wb, attraction, a-b-da, 9, 3, 6, 3, 186, 114, 120, 195, 195, 120, 1, 5.77702
372, 1, wb, attraction, a-b-da, 9, 3, 6, 3, 186, 114, 120, 195, 195, 120, 2, 4.48726
372, 1, wb, filler, NA, 999, 999, 6, 4, 182, 134, 142, 157, 66, 141, 3, 0.832469
372, 1, wb, filler, NA, 999, 999, 6, 4, 182, 134, 142, 157, 66, 141, 2, 0.694211
372, 1, wb, attraction, a-b-da, 5, 3, 6, 5, 190, 117, 195, 120, 120, 195, 1, 7.85591
372, 1, wb, attraction, a-b-da, 5, 3, 6, 5, 190, 117, 195, 120, 120, 195, 2, 3.49884
372, 1, wb, filler, NA, 999, 999, 6, 6, 83, 122, 103, 89, 77, 164, 2, 1.87562
372, 1, wb, filler, NA, 999, 999, 6, 6, 83, 122, 103, 89, 77, 164, 3, 0.262975
372, 1, wb, attraction, a-b-da, 2, 3, 6, 7, 193, 119, 195, 120, 120, 195, 2, 5.49809
372, 1, wb, attraction, a-b-da, 2, 3, 6, 7, 193, 119, 195, 120, 120, 195, 3, 1.21987
372, 1, wb, attraction, a-b-da, 9, 1, 6, 8, 135, 60, 60, 135, 129, 57, 3, 1.39262
372, 1, wb, attraction, a-b-da, 9, 1, 6, 8, 135, 60, 60, 135, 129, 57, 1, 0.767511
372, 1, wb, attraction, a-b-db, 5, 3, 6, 9, 117, 190, 195, 120, 120, 195, 1, 7.42254
372, 1, wb, attraction, a-b-db, 5, 3, 6, 9, 117, 190, 195, 120, 120, 195, 2, 0.378826
372, 1, wb, attraction, a-b-db, 14, 3, 6, 10, 111, 181, 120, 195, 195, 120, 1, 1.70535
372, 1, wb, attraction, a-b-db, 14, 3, 6, 10, 111, 181, 120, 195, 195, 120, 2, 4.53142
372, 1, wb, attraction, a-b-db, 14, 1, 6, 11, 56, 125, 135, 60, 60, 135, 1, 6.68265
372, 1, wb, attraction, a-b-db, 14, 1, 6, 11, 56, 125, 135, 60, 60, 135, 2, 1.06861
372, 1, wb, filler, NA, 999, 999, 6, 12, 67, 89, 75, 128, 166, 130, 1, 1.53551
372, 1, wb, filler, NA, 999, 999, 6, 12, 67, 89, 75, 128, 166, 130, 3, 1.17714
372, 1, wb, attraction, a-b-da, 2, 2, 6, 13, 163, 89, 90, 165, 165, 90, 1, 4.8872
372, 1, wb, attraction, a-b-da, 2, 2, 6, 13, 163, 89, 90, 165, 165, 90, 3, 4.4897
372, 1, wb, attraction, a-b-db, 2, 1, 6, 14, 135, 60, 60, 135, 59, 134, 3, 7.90699
372, 1, wb, attraction, a-b-db, 2, 1, 6, 14, 135, 60, 60, 135, 59, 134, 1, 2.14699
372, 1, wb, catch, NA, 999, 999, 6, 15, 127, 128, 129, 186, 102, 93, 3, 0.762271
372, 1, wb, catch, NA, 999, 999, 6, 15, 127, 128, 129, 186, 102, 93, 2, 0.322711
372, 1, wb, filler, NA, 999, 999, 6, 16, 146, 64, 85, 148, 174, 138, 1, 4.42792
372, 1, wb, filler, NA, 999, 999, 6, 16, 146, 64, 85, 148, 174, 138, 3, 0.496468
372, 1, wb, attraction, a-b-db, 2, 2, 6, 17, 90, 165, 89, 163, 165, 90, 2, 8.80221
372, 1, wb, attraction, a-b-db, 2, 2, 6, 17, 90, 165, 89, 163, 165, 90, 3, 1.88678
372, 1, wb, attraction, a-b-db, 2, 3, 6, 18, 120, 195, 195, 120, 119, 193, 2, 5.13688
372, 1, wb, attraction, a-b-db, 2, 3, 6, 18, 120, 195, 195, 120, 119, 193, 1, 0.33722
372, 1, wb, catch, NA, 999, 999, 6, 19, 133, 122, 194, 121, 95, 100, 3, 0.753683
372, 1, wb, catch, NA, 999, 999, 6, 19, 133, 122, 194, 121, 95, 100, 2, 0.306753
372, 1, wb, filler, NA, 999, 999, 6, 20, 58, 137, 142, 108, 125, 148, 1, 0.715949
372, 1, wb, filler, NA, 999, 999, 6, 20, 58, 137, 142, 108, 125, 148, 3, 0.382396
372, 1, wb, attraction, a-b-db, 9, 2, 6, 21, 90, 165, 165, 90, 86, 157, 2, 5.021
372, 1, wb, attraction, a-b-db, 9, 2, 6, 21, 90, 165, 165, 90, 86, 157, 1, 1.48204
372, 1, wb, filler, NA, 999, 999, 6, 22, 188, 153, 127, 112, 173, 91, 2, 9.06023
372, 1, wb, filler, NA, 999, 999, 6, 22, 188, 153, 127, 112, 173, 91, 1, 0.413985
372, 1, wb, attraction, a-b-da, 9, 2, 6, 23, 90, 165, 165, 90, 157, 86, 3, 5.467
372, 1, wb, attraction, a-b-da, 9, 2, 6, 23, 90, 165, 165, 90, 157, 86, 1, 2.62206
372, 1, wb, attraction, a-b-db, 14, 2, 6, 24, 83, 153, 90, 165, 165, 90, 1, 1.8264
372, 1, wb, attraction, a-b-db, 14, 2, 6, 24, 83, 153, 90, 165, 165, 90, 3, 0.871838
372, 1, wb, attraction, a-b-db, 5, 2, 6, 25, 165, 90, 88, 161, 90, 165, 1, 4.79482
372, 1, wb, attraction, a-b-db, 5, 2, 6, 25, 165, 90, 88, 161, 90, 165, 3, 0.400694
372, 1, wb, catch, NA, 999, 999, 6, 26, 169, 146, 116, 139, 64, 131, 3, 1.05462
372, 1, wb, catch, NA, 999, 999, 6, 26, 169, 146, 116, 139, 64, 131, 1, 0.683583
372, 1, wb, attraction, a-b-da, 14, 2, 6, 27, 165, 90, 153, 83, 90, 165, 2, 3.86982
372, 1, wb, attraction, a-b-da, 14, 2, 6, 27, 165, 90, 153, 83, 90, 165, 1, 4.33726
372, 1, wb, filler, NA, 999, 999, 6, 28, 189, 190, 188, 101, 61, 112, 3, 0.720459
372, 1, wb, filler, NA, 999, 999, 6, 28, 189, 190, 188, 101, 61, 112, 1, 0.33099
372, 1, wb, filler, NA, 999, 999, 6, 29, 158, 144, 140, 164, 116, 140, 3, 2.47551
372, 1, wb, filler, NA, 999, 999, 6, 29, 158, 144, 140, 164, 116, 140, 2, 9.73475
372, 1, wb, attraction, a-b-da, 5, 1, 6, 30, 132, 58, 60, 135, 135, 60, 1, 2.74023
372, 1, wb, attraction, a-b-da, 5, 1, 6, 30, 132, 58, 60, 135, 135, 60, 2, 2.45278
372, 1, wb, attraction, a-b-db, 5, 1, 6, 31, 60, 135, 135, 60, 58, 132, 2, 3.00799
372, 1, wb, attraction, a-b-db, 5, 1, 6, 31, 60, 135, 135, 60, 58, 132, 1, 1.34164
372, 1, wb, filler, NA, 999, 999, 6, 32, 130, 108, 144, 185, 151, 110, 1, 1.62111
372, 1, wb, filler, NA, 999, 999, 6, 32, 130, 108, 144, 185, 151, 110, 2, 0.339265
372, 1, wb, attraction, a-b-da, 14, 1, 6, 33, 135, 60, 60, 135, 125, 56, 3, 4.73965
372, 1, wb, attraction, a-b-da, 14, 1, 6, 33, 135, 60, 60, 135, 125, 56, 1, 2.46752
372, 1, wb, filler, NA, 999, 999, 6, 34, 188, 195, 91, 145, 115, 89, 3, 0.637968
372, 1, wb, filler, NA, 999, 999, 6, 34, 188, 195, 91, 145, 115, 89, 1, 0.331234
372, 1, wb, attraction, a-b-da, 5, 2, 6, 35, 161, 88, 165, 90, 90, 165, 1, 9.49964
372, 1, wb, attraction, a-b-da, 5, 2, 6, 35, 161, 88, 165, 90, 90, 165, 3, 0.371931
372, 1, wb, attraction, a-b-db, 9, 3, 6, 36, 195, 120, 114, 186, 120, 195, 2, 7.74714
372, 1, wb, attraction, a-b-db, 9, 3, 6, 36, 195, 120, 114, 186, 120, 195, 1, 5.73017
372, 1, wb, attraction, a-b-db, 9, 1, 6, 37, 135, 60, 57, 129, 60, 135, 2, 6.36094
372, 1, wb, attraction, a-b-db, 9, 1, 6, 37, 135, 60, 57, 129, 60, 135, 1, 0.583604
372, 1, wb, filler, NA, 999, 999, 7, 1, 87, 127, 126, 64, 155, 95, 2, 1.34199
372, 1, wb, filler, NA, 999, 999, 7, 1, 87, 127, 126, 64, 155, 95, 3, 0.446856
372, 1, wb, catch, NA, 999, 999, 7, 2, 171, 144, 88, 107, 157, 98, 2, 1.21064
372, 1, wb, catch, NA, 999, 999, 7, 2, 171, 144, 88, 107, 157, 98, 1, 1.01691
372, 1, wb, attraction, a-b-da, 9, 1, 7, 3, 129, 57, 60, 135, 135, 60, 1, 1.81389
372, 1, wb, attraction, a-b-da, 9, 1, 7, 3, 129, 57, 60, 135, 135, 60, 3, 2.308
372, 1, wb, catch, NA, 999, 999, 7, 4, 127, 188, 71, 124, 145, 110, 2, 0.636423
372, 1, wb, catch, NA, 999, 999, 7, 4, 127, 188, 71, 124, 145, 110, 1, 0.322216
372, 1, wb, attraction, a-b-da, 9, 3, 7, 5, 195, 120, 186, 114, 120, 195, 2, 15.4114
372, 1, wb, attraction, a-b-da, 9, 3, 7, 5, 195, 120, 186, 114, 120, 195, 1, 1.06131
372, 1, wb, filler, NA, 999, 999, 7, 6, 64, 79, 146, 181, 138, 152, 1, 0.960109
372, 1, wb, filler, NA, 999, 999, 7, 6, 64, 79, 146, 181, 138, 152, 2, 0.304464
372, 1, wb, attraction, a-b-db, 9, 2, 7, 7, 165, 90, 86, 157, 90, 165, 2, 2.29853
372, 1, wb, attraction, a-b-db, 9, 2, 7, 7, 165, 90, 86, 157, 90, 165, 1, 3.26094
372, 1, wb, attraction, a-b-db, 2, 3, 7, 8, 195, 120, 119, 193, 120, 195, 2, 6.48716
372, 1, wb, attraction, a-b-db, 2, 3, 7, 8, 195, 120, 119, 193, 120, 195, 3, 1.6412
372, 1, wb, filler, NA, 999, 999, 7, 9, 125, 157, 98, 56, 169, 61, 2, 0.708564
372, 1, wb, filler, NA, 999, 999, 7, 9, 125, 157, 98, 56, 169, 61, 1, 0.279038
372, 1, wb, attraction, a-b-da, 14, 2, 7, 10, 165, 90, 153, 83, 90, 165, 2, 6.02565
372, 1, wb, attraction, a-b-da, 14, 2, 7, 10, 165, 90, 153, 83, 90, 165, 3, 1.06968
372, 1, wb, attraction, a-b-da, 2, 3, 7, 11, 120, 195, 193, 119, 195, 120, 2, 3.60871
372, 1, wb, attraction, a-b-da, 2, 3, 7, 11, 120, 195, 193, 119, 195, 120, 3, 0.478052
372, 1, wb, attraction, a-b-db, 14, 3, 7, 12, 120, 195, 111, 181, 195, 120, 2, 2.34447
372, 1, wb, attraction, a-b-db, 14, 3, 7, 12, 120, 195, 111, 181, 195, 120, 3, 2.18509
372, 1, wb, attraction, a-b-db, 9, 1, 7, 13, 57, 129, 60, 135, 135, 60, 1, 2.51913
372, 1, wb, attraction, a-b-db, 9, 1, 7, 13, 57, 129, 60, 135, 135, 60, 3, 0.50486
372, 1, wb, attraction, a-b-db, 9, 3, 7, 14, 195, 120, 120, 195, 114, 186, 2, 2.50667
372, 1, wb, attraction, a-b-db, 9, 3, 7, 14, 195, 120, 120, 195, 114, 186, 1, 0.292538
372, 1, wb, attraction, a-b-da, 2, 1, 7, 15, 60, 135, 135, 60, 134, 59, 1, 1.52656
372, 1, wb, attraction, a-b-da, 2, 1, 7, 15, 60, 135, 135, 60, 134, 59, 3, 0.591885
372, 1, wb, filler, NA, 999, 999, 7, 16, 66, 145, 150, 73, 57, 91, 3, 0.757563
372, 1, wb, filler, NA, 999, 999, 7, 16, 66, 145, 150, 73, 57, 91, 1, 0.310139
372, 1, wb, filler, NA, 999, 999, 7, 17, 60, 153, 89, 189, 177, 174, 1, 0.695101
372, 1, wb, filler, NA, 999, 999, 7, 17, 60, 153, 89, 189, 177, 174, 3, 0.330284
372, 1, wb, attraction, a-b-da, 9, 2, 7, 18, 90, 165, 165, 90, 157, 86, 3, 1.47486
372, 1, wb, attraction, a-b-da, 9, 2, 7, 18, 90, 165, 165, 90, 157, 86, 2, 1.72637
372, 1, wb, attraction, a-b-db, 2, 1, 7, 19, 59, 134, 60, 135, 135, 60, 1, 0.678479
372, 1, wb, attraction, a-b-db, 2, 1, 7, 19, 59, 134, 60, 135, 135, 60, 3, 0.322121
372, 1, wb, filler, NA, 999, 999, 7, 20, 172, 146, 58, 172, 112, 161, 2, 0.571356
372, 1, wb, filler, NA, 999, 999, 7, 20, 172, 146, 58, 172, 112, 161, 1, 0.299189
372, 1, wb, attraction, a-b-da, 5, 2, 7, 21, 90, 165, 165, 90, 161, 88, 3, 0.932999
372, 1, wb, attraction, a-b-da, 5, 2, 7, 21, 90, 165, 165, 90, 161, 88, 1, 0.310682
372, 1, wb, attraction, a-b-db, 5, 1, 7, 22, 60, 135, 135, 60, 58, 132, 2, 1.64778
372, 1, wb, attraction, a-b-db, 5, 1, 7, 22, 60, 135, 135, 60, 58, 132, 1, 0.924593
372, 1, wb, attraction, a-b-db, 14, 2, 7, 23, 83, 153, 90, 165, 165, 90, 1, 0.86097
372, 1, wb, attraction, a-b-db, 14, 2, 7, 23, 83, 153, 90, 165, 165, 90, 3, 0.409281
372, 1, wb, attraction, a-b-db, 14, 1, 7, 24, 56, 125, 135, 60, 60, 135, 2, 3.23049
372, 1, wb, attraction, a-b-db, 14, 1, 7, 24, 56, 125, 135, 60, 60, 135, 3, 0.395365
372, 1, wb, filler, NA, 999, 999, 7, 25, 194, 112, 121, 133, 111, 62, 3, 0.825325
372, 1, wb, filler, NA, 999, 999, 7, 25, 194, 112, 121, 133, 111, 62, 1, 0.390958
372, 1, wb, attraction, a-b-da, 2, 2, 7, 26, 165, 90, 163, 89, 90, 165, 2, 3.27678
372, 1, wb, attraction, a-b-da, 2, 2, 7, 26, 165, 90, 163, 89, 90, 165, 1, 0.887687
372, 1, wb, filler, NA, 999, 999, 7, 27, 97, 105, 191, 171, 134, 69, 1, 1.48211
372, 1, wb, filler, NA, 999, 999, 7, 27, 97, 105, 191, 171, 134, 69, 2, 0.621514
372, 1, wb, attraction, a-b-da, 14, 1, 7, 28, 135, 60, 125, 56, 60, 135, 2, 1.0746
372, 1, wb, attraction, a-b-da, 14, 1, 7, 28, 135, 60, 125, 56, 60, 135, 3, 0.526342
372, 1, wb, catch, NA, 999, 999, 7, 29, 141, 114, 68, 127, 158, 157, 2, 1.31084
372, 1, wb, catch, NA, 999, 999, 7, 29, 141, 114, 68, 127, 158, 157, 3, 0.448921
372, 1, wb, attraction, a-b-db, 5, 2, 7, 30, 90, 165, 88, 161, 165, 90, 1, 0.51665
372, 1, wb, attraction, a-b-db, 5, 2, 7, 30, 90, 165, 88, 161, 165, 90, 3, 0.415235
372, 1, wb, attraction, a-b-da, 5, 3, 7, 31, 120, 195, 190, 117, 195, 120, 2, 5.05235
372, 1, wb, attraction, a-b-da, 5, 3, 7, 31, 120, 195, 190, 117, 195, 120, 3, 1.25622
372, 1, wb, attraction, a-b-da, 5, 1, 7, 32, 132, 58, 60, 135, 135, 60, 1, 0.659752
372, 1, wb, attraction, a-b-da, 5, 1, 7, 32, 132, 58, 60, 135, 135, 60, 3, 0.952191
372, 1, wb, filler, NA, 999, 999, 7, 33, 122, 171, 184, 93, 63, 146, 3, 0.615716
372, 1, wb, filler, NA, 999, 999, 7, 33, 122, 171, 184, 93, 63, 146, 1, 0.286155
372, 1, wb, attraction, a-b-db, 2, 2, 7, 34, 90, 165, 165, 90, 89, 163, 1, 8.24067
372, 1, wb, attraction, a-b-db, 2, 2, 7, 34, 90, 165, 165, 90, 89, 163, 2, 0.323312
372, 1, wb, attraction, a-b-db, 5, 3, 7, 35, 195, 120, 120, 195, 117, 190, 3, 1.47604
372, 1, wb, attraction, a-b-db, 5, 3, 7, 35, 195, 120, 120, 195, 117, 190, 1, 0.4474
372, 1, wb, attraction, a-b-da, 14, 3, 7, 36, 120, 195, 181, 111, 195, 120, 1, 1.11532
372, 1, wb, attraction, a-b-da, 14, 3, 7, 36, 120, 195, 181, 111, 195, 120, 3, 0.405551
372, 1, wb, filler, NA, 999, 999, 7, 37, 139, 160, 144, 124, 189, 123, 2, 2.25936
372, 1, wb, filler, NA, 999, 999, 7, 37, 139, 160, 144, 124, 189, 123, 3, 0.463315
372, 1, wb, attraction, a-b-da, 2, 1, 8, 1, 135, 60, 60, 135, 134, 59, 3, 2.70644
372, 1, wb, attraction, a-b-da, 2, 1, 8, 1, 135, 60, 60, 135, 134, 59, 1, 0.644305
372, 1, wb, filler, NA, 999, 999, 8, 2, 74, 184, 129, 73, 143, 188, 2, 1.09595
372, 1, wb, filler, NA, 999, 999, 8, 2, 74, 184, 129, 73, 143, 188, 3, 0.290943
372, 1, wb, attraction, a-b-db, 5, 2, 8, 3, 165, 90, 88, 161, 90, 165, 3, 2.28487
372, 1, wb, attraction, a-b-db, 5, 2, 8, 3, 165, 90, 88, 161, 90, 165, 1, 1.536
372, 1, wb, filler, NA, 999, 999, 8, 4, 99, 185, 172, 168, 88, 93, 3, 0.648112
372, 1, wb, filler, NA, 999, 999, 8, 4, 99, 185, 172, 168, 88, 93, 2, 0.221245
372, 1, wb, attraction, a-b-db, 9, 1, 8, 5, 57, 129, 60, 135, 135, 60, 1, 0.658495
372, 1, wb, attraction, a-b-db, 9, 1, 8, 5, 57, 129, 60, 135, 135, 60, 2, 1.74287
372, 1, wb, catch, NA, 999, 999, 8, 6, 148, 107, 130, 185, 118, 77, 3, 0.814203
372, 1, wb, catch, NA, 999, 999, 8, 6, 148, 107, 130, 185, 118, 77, 2, 0.324747
372, 1, wb, filler, NA, 999, 999, 8, 7, 58, 153, 130, 155, 86, 101, 1, 0.821158
372, 1, wb, filler, NA, 999, 999, 8, 7, 58, 153, 130, 155, 86, 101, 2, 0.475621
372, 1, wb, attraction, a-b-da, 9, 3, 8, 8, 120, 195, 195, 120, 186, 114, 2, 13.9421
372, 1, wb, attraction, a-b-da, 9, 3, 8, 8, 120, 195, 195, 120, 186, 114, 1, 0.379687
372, 1, wb, attraction, a-b-da, 14, 2, 8, 9, 153, 83, 165, 90, 90, 165, 1, 4.92229
372, 1, wb, attraction, a-b-da, 14, 2, 8, 9, 153, 83, 165, 90, 90, 165, 3, 0.371168
372, 1, wb, attraction, a-b-db, 5, 1, 8, 10, 60, 135, 58, 132, 135, 60, 2, 0.818407
372, 1, wb, attraction, a-b-db, 5, 1, 8, 10, 60, 135, 58, 132, 135, 60, 1, 3.36874
372, 1, wb, attraction, a-b-db, 14, 1, 8, 11, 56, 125, 60, 135, 135, 60, 1, 2.63109
372, 1, wb, attraction, a-b-db, 14, 1, 8, 11, 56, 125, 60, 135, 135, 60, 3, 0.460228
372, 1, wb, attraction, a-b-db, 2, 2, 8, 12, 89, 163, 165, 90, 90, 165, 3, 4.19935
372, 1, wb, attraction, a-b-db, 2, 2, 8, 12, 89, 163, 165, 90, 90, 165, 2, 3.19728
372, 1, wb, attraction, a-b-da, 2, 2, 8, 13, 165, 90, 163, 89, 90, 165, 2, 4.00226
372, 1, wb, attraction, a-b-da, 2, 2, 8, 13, 165, 90, 163, 89, 90, 165, 1, 1.52833
372, 1, wb, catch, NA, 999, 999, 8, 14, 135, 180, 74, 121, 108, 147, 2, 1.0245
372, 1, wb, catch, NA, 999, 999, 8, 14, 135, 180, 74, 121, 108, 147, 1, 0.342104
372, 1, wb, attraction, a-b-da, 5, 3, 8, 15, 120, 195, 190, 117, 195, 120, 2, 3.08596
372, 1, wb, attraction, a-b-da, 5, 3, 8, 15, 120, 195, 190, 117, 195, 120, 3, 2.12088
372, 1, wb, attraction, a-b-da, 14, 3, 8, 16, 195, 120, 181, 111, 120, 195, 2, 1.4335
372, 1, wb, attraction, a-b-da, 14, 3, 8, 16, 195, 120, 181, 111, 120, 195, 3, 0.599068
372, 1, wb, filler, NA, 999, 999, 8, 17, 170, 56, 164, 123, 167, 92, 1, 0.676752
372, 1, wb, filler, NA, 999, 999, 8, 17, 170, 56, 164, 123, 167, 92, 2, 0.29651
372, 1, wb, attraction, a-b-da, 14, 1, 8, 18, 125, 56, 135, 60, 60, 135, 1, 1.30641
372, 1, wb, attraction, a-b-da, 14, 1, 8, 18, 125, 56, 135, 60, 60, 135, 2, 1.37265
372, 1, wb, filler, NA, 999, 999, 8, 19, 98, 144, 61, 194, 192, 112, 1, 6.43555
372, 1, wb, filler, NA, 999, 999, 8, 19, 98, 144, 61, 194, 192, 112, 3, 0.767442
372, 1, wb, attraction, a-b-da, 5, 2, 8, 20, 165, 90, 90, 165, 161, 88, 3, 3.77445
372, 1, wb, attraction, a-b-da, 5, 2, 8, 20, 165, 90, 90, 165, 161, 88, 2, 0.9013
372, 1, wb, filler, NA, 999, 999, 8, 21, 157, 194, 180, 57, 138, 78, 3, 1.6229
372, 1, wb, filler, NA, 999, 999, 8, 21, 157, 194, 180, 57, 138, 78, 1, 0.324351
372, 1, wb, attraction, a-b-db, 5, 3, 8, 22, 117, 190, 195, 120, 120, 195, 1, 1.1809
372, 1, wb, attraction, a-b-db, 5, 3, 8, 22, 117, 190, 195, 120, 120, 195, 2, 0.628483
372, 1, wb, catch, NA, 999, 999, 8, 23, 125, 70, 157, 158, 161, 94, 1, 0.784879
372, 1, wb, catch, NA, 999, 999, 8, 23, 125, 70, 157, 158, 161, 94, 2, 0.296599
372, 1, wb, attraction, a-b-db, 9, 2, 8, 24, 86, 157, 165, 90, 90, 165, 1, 7.35463
372, 1, wb, attraction, a-b-db, 9, 2, 8, 24, 86, 157, 165, 90, 90, 165, 3, 0.249635
372, 1, wb, attraction, a-b-da, 9, 1, 8, 25, 135, 60, 129, 57, 60, 135, 2, 2.50144
372, 1, wb, attraction, a-b-da, 9, 1, 8, 25, 135, 60, 129, 57, 60, 135, 3, 0.591902
372, 1, wb, attraction, a-b-db, 2, 3, 8, 26, 195, 120, 119, 193, 120, 195, 2, 6.7577
372, 1, wb, attraction, a-b-db, 2, 3, 8, 26, 195, 120, 119, 193, 120, 195, 1, 0.324129
372, 1, wb, filler, NA, 999, 999, 8, 27, 110, 97, 71, 170, 129, 136, 1, 1.5007
372, 1, wb, filler, NA, 999, 999, 8, 27, 110, 97, 71, 170, 129, 136, 3, 0.655532
372, 1, wb, attraction, a-b-db, 2, 1, 8, 28, 60, 135, 59, 134, 135, 60, 1, 3.43542
372, 1, wb, attraction, a-b-db, 2, 1, 8, 28, 60, 135, 59, 134, 135, 60, 3, 2.7283
372, 1, wb, attraction, a-b-db, 14, 3, 8, 29, 111, 181, 195, 120, 120, 195, 1, 1.5919
372, 1, wb, attraction, a-b-db, 14, 3, 8, 29, 111, 181, 195, 120, 120, 195, 3, 3.63069
372, 1, wb, attraction, a-b-db, 9, 3, 8, 30, 120, 195, 195, 120, 114, 186, 3, 1.13821
372, 1, wb, attraction, a-b-db, 9, 3, 8, 30, 120, 195, 195, 120, 114, 186, 1, 0.371122
372, 1, wb, filler, NA, 999, 999, 8, 31, 74, 143, 150, 152, 171, 150, 1, 0.618309
372, 1, wb, filler, NA, 999, 999, 8, 31, 74, 143, 150, 152, 171, 150, 3, 0.456864
372, 1, wb, attraction, a-b-db, 14, 2, 8, 32, 83, 153, 90, 165, 165, 90, 1, 0.739842
372, 1, wb, attraction, a-b-db, 14, 2, 8, 32, 83, 153, 90, 165, 165, 90, 3, 0.332998
372, 1, wb, attraction, a-b-da, 5, 1, 8, 33, 132, 58, 60, 135, 135, 60, 1, 2.56547
372, 1, wb, attraction, a-b-da, 5, 1, 8, 33, 132, 58, 60, 135, 135, 60, 3, 1.02134
372, 1, wb, filler, NA, 999, 999, 8, 34, 136, 101, 174, 68, 170, 161, 1, 2.28227
372, 1, wb, filler, NA, 999, 999, 8, 34, 136, 101, 174, 68, 170, 161, 3, 0.469531
372, 1, wb, filler, NA, 999, 999, 8, 35, 135, 79, 166, 149, 115, 159, 1, 1.6487
372, 1, wb, filler, NA, 999, 999, 8, 35, 135, 79, 166, 149, 115, 159, 2, 0.845496
372, 1, wb, attraction, a-b-da, 2, 3, 8, 36, 195, 120, 120, 195, 193, 119, 2, 2.54528
372, 1, wb, attraction, a-b-da, 2, 3, 8, 36, 195, 120, 120, 195, 193, 119, 1, 0.297737
372, 1, wb, attraction, a-b-da, 9, 2, 8, 37, 90, 165, 157, 86, 165, 90, 2, 2.17153
372, 1, wb, attraction, a-b-da, 9, 2, 8, 37, 90, 165, 157, 86, 165, 90, 3, 0.506833
