sub_n, computer_n, bw_cond, effect, set, distance, diag, block_n, trial_n, h1, w1, h2, w2, h3, w3, choice, rt 
359, 1, bw, practice, NA, 999, 999, 0, 1, 112, 184, 193, 130, 142, 188, 3, 10.0666
359, 1, bw, practice, NA, 999, 999, 0, 1, 112, 184, 193, 130, 142, 188, 1, 2.04347
359, 1, bw, practice, NA, 999, 999, 0, 2, 93, 63, 96, 153, 160, 119, 3, 3.7888
359, 1, bw, practice, NA, 999, 999, 0, 2, 93, 63, 96, 153, 160, 119, 1, 1.13118
359, 1, bw, practice, NA, 999, 999, 0, 3, 97, 125, 132, 96, 177, 60, 3, 12.696
359, 1, bw, practice, NA, 999, 999, 0, 3, 97, 125, 132, 96, 177, 60, 2, 0.928036
359, 1, bw, attraction, a-b-da, 9, 1, 1, 1, 135, 60, 60, 135, 129, 57, 1, 7.08427
359, 1, bw, attraction, a-b-da, 9, 1, 1, 1, 135, 60, 60, 135, 129, 57, 3, 0.910067
359, 1, bw, attraction, a-b-db, 9, 3, 1, 2, 114, 186, 195, 120, 120, 195, 3, 3.96701
359, 1, bw, attraction, a-b-db, 9, 3, 1, 2, 114, 186, 195, 120, 120, 195, 1, 0.446488
359, 1, bw, attraction, a-b-da, 14, 1, 1, 3, 135, 60, 60, 135, 125, 56, 2, 9.25817
359, 1, bw, attraction, a-b-da, 14, 1, 1, 3, 135, 60, 60, 135, 125, 56, 3, 1.11596
359, 1, bw, attraction, a-b-db, 5, 1, 1, 4, 58, 132, 60, 135, 135, 60, 3, 13.6609
359, 1, bw, attraction, a-b-db, 5, 1, 1, 4, 58, 132, 60, 135, 135, 60, 1, 1.12528
359, 1, bw, catch, NA, 999, 999, 1, 5, 113, 142, 60, 135, 133, 182, 3, 1.66149
359, 1, bw, catch, NA, 999, 999, 1, 5, 113, 142, 60, 135, 133, 182, 2, 1.37758
359, 1, bw, attraction, a-b-da, 14, 2, 1, 6, 153, 83, 90, 165, 165, 90, 2, 3.60781
359, 1, bw, attraction, a-b-da, 14, 2, 1, 6, 153, 83, 90, 165, 165, 90, 1, 0.621221
359, 1, bw, attraction, a-b-da, 14, 3, 1, 7, 181, 111, 120, 195, 195, 120, 3, 5.69031
359, 1, bw, attraction, a-b-da, 14, 3, 1, 7, 181, 111, 120, 195, 195, 120, 1, 0.987871
359, 1, bw, attraction, a-b-da, 2, 1, 1, 8, 135, 60, 134, 59, 60, 135, 3, 5.02622
359, 1, bw, attraction, a-b-da, 2, 1, 1, 8, 135, 60, 134, 59, 60, 135, 2, 0.56659
359, 1, bw, attraction, a-b-db, 2, 3, 1, 9, 195, 120, 119, 193, 120, 195, 1, 7.39767
359, 1, bw, attraction, a-b-db, 2, 3, 1, 9, 195, 120, 119, 193, 120, 195, 2, 0.962649
359, 1, bw, filler, NA, 999, 999, 1, 10, 101, 173, 102, 90, 176, 118, 3, 2.41764
359, 1, bw, filler, NA, 999, 999, 1, 10, 101, 173, 102, 90, 176, 118, 2, 0.711548
359, 1, bw, catch, NA, 999, 999, 1, 11, 135, 60, 143, 112, 168, 147, 3, 2.25661
359, 1, bw, catch, NA, 999, 999, 1, 11, 135, 60, 143, 112, 168, 147, 1, 0.692905
359, 1, bw, attraction, a-b-db, 5, 3, 1, 12, 117, 190, 195, 120, 120, 195, 2, 8.63016
359, 1, bw, attraction, a-b-db, 5, 3, 1, 12, 117, 190, 195, 120, 120, 195, 1, 0.72956
359, 1, bw, attraction, a-b-da, 5, 1, 1, 13, 135, 60, 60, 135, 132, 58, 2, 8.43397
359, 1, bw, attraction, a-b-da, 5, 1, 1, 13, 135, 60, 60, 135, 132, 58, 3, 0.349228
359, 1, bw, filler, NA, 999, 999, 1, 14, 74, 67, 160, 115, 164, 154, 3, 1.41306
359, 1, bw, filler, NA, 999, 999, 1, 14, 74, 67, 160, 115, 164, 154, 1, 0.659239
359, 1, bw, attraction, a-b-db, 14, 2, 1, 15, 165, 90, 90, 165, 83, 153, 1, 3.3664
359, 1, bw, attraction, a-b-db, 14, 2, 1, 15, 165, 90, 90, 165, 83, 153, 3, 0.429852
359, 1, bw, filler, NA, 999, 999, 1, 16, 124, 83, 162, 94, 80, 131, 2, 2.01836
359, 1, bw, filler, NA, 999, 999, 1, 16, 124, 83, 162, 94, 80, 131, 1, 2.2164
359, 1, bw, attraction, a-b-db, 2, 2, 1, 17, 89, 163, 90, 165, 165, 90, 3, 5.17301
359, 1, bw, attraction, a-b-db, 2, 2, 1, 17, 89, 163, 90, 165, 165, 90, 1, 1.01937
359, 1, bw, attraction, a-b-da, 2, 2, 1, 18, 163, 89, 90, 165, 165, 90, 3, 11.2884
359, 1, bw, attraction, a-b-da, 2, 2, 1, 18, 163, 89, 90, 165, 165, 90, 1, 1.12875
359, 1, bw, filler, NA, 999, 999, 1, 19, 68, 142, 156, 183, 96, 147, 2, 1.10508
359, 1, bw, filler, NA, 999, 999, 1, 19, 68, 142, 156, 183, 96, 147, 1, 0.379237
359, 1, bw, filler, NA, 999, 999, 1, 20, 163, 163, 150, 171, 179, 171, 3, 1.05783
359, 1, bw, filler, NA, 999, 999, 1, 20, 163, 163, 150, 171, 179, 171, 2, 1.17411
359, 1, bw, attraction, a-b-db, 14, 3, 1, 21, 111, 181, 120, 195, 195, 120, 3, 1.66029
359, 1, bw, attraction, a-b-db, 14, 3, 1, 21, 111, 181, 120, 195, 195, 120, 1, 0.504404
359, 1, bw, attraction, a-b-da, 5, 3, 1, 22, 120, 195, 190, 117, 195, 120, 3, 3.88225
359, 1, bw, attraction, a-b-da, 5, 3, 1, 22, 120, 195, 190, 117, 195, 120, 1, 0.316925
359, 1, bw, filler, NA, 999, 999, 1, 23, 74, 118, 63, 185, 177, 110, 3, 1.07012
359, 1, bw, filler, NA, 999, 999, 1, 23, 74, 118, 63, 185, 177, 110, 1, 0.426391
359, 1, bw, attraction, a-b-da, 9, 3, 1, 24, 195, 120, 186, 114, 120, 195, 3, 2.00699
359, 1, bw, attraction, a-b-da, 9, 3, 1, 24, 195, 120, 186, 114, 120, 195, 2, 0.293008
359, 1, bw, filler, NA, 999, 999, 1, 25, 144, 100, 166, 105, 105, 158, 2, 5.25482
359, 1, bw, filler, NA, 999, 999, 1, 25, 144, 100, 166, 105, 105, 158, 1, 0.642427
359, 1, bw, attraction, a-b-db, 2, 1, 1, 26, 135, 60, 60, 135, 59, 134, 3, 2.37424
359, 1, bw, attraction, a-b-db, 2, 1, 1, 26, 135, 60, 60, 135, 59, 134, 2, 3.94943
359, 1, bw, catch, NA, 999, 999, 1, 27, 114, 141, 66, 129, 181, 134, 3, 1.22032
359, 1, bw, catch, NA, 999, 999, 1, 27, 114, 141, 66, 129, 181, 134, 2, 0.314465
359, 1, bw, attraction, a-b-da, 2, 3, 1, 28, 193, 119, 195, 120, 120, 195, 3, 2.70761
359, 1, bw, attraction, a-b-da, 2, 3, 1, 28, 193, 119, 195, 120, 120, 195, 2, 1.68538
359, 1, bw, attraction, a-b-db, 14, 1, 1, 29, 135, 60, 60, 135, 56, 125, 2, 6.77551
359, 1, bw, attraction, a-b-db, 14, 1, 1, 29, 135, 60, 60, 135, 56, 125, 3, 0.669328
359, 1, bw, attraction, a-b-db, 5, 2, 1, 30, 90, 165, 88, 161, 165, 90, 1, 2.43243
359, 1, bw, attraction, a-b-db, 5, 2, 1, 30, 90, 165, 88, 161, 165, 90, 2, 0.261657
359, 1, bw, attraction, a-b-da, 9, 2, 1, 31, 90, 165, 165, 90, 157, 86, 1, 4.44094
359, 1, bw, attraction, a-b-da, 9, 2, 1, 31, 90, 165, 165, 90, 157, 86, 3, 1.21277
359, 1, bw, attraction, a-b-db, 9, 1, 1, 32, 135, 60, 57, 129, 60, 135, 1, 4.18557
359, 1, bw, attraction, a-b-db, 9, 1, 1, 32, 135, 60, 57, 129, 60, 135, 2, 0.552234
359, 1, bw, filler, NA, 999, 999, 1, 33, 134, 148, 121, 110, 147, 186, 3, 0.960116
359, 1, bw, filler, NA, 999, 999, 1, 33, 134, 148, 121, 110, 147, 186, 2, 0.360315
359, 1, bw, filler, NA, 999, 999, 1, 34, 88, 66, 126, 175, 142, 100, 2, 1.47148
359, 1, bw, filler, NA, 999, 999, 1, 34, 88, 66, 126, 175, 142, 100, 1, 0.547038
359, 1, bw, filler, NA, 999, 999, 1, 35, 149, 117, 166, 166, 184, 101, 2, 5.45881
359, 1, bw, filler, NA, 999, 999, 1, 35, 149, 117, 166, 166, 184, 101, 1, 0.701714
359, 1, bw, attraction, a-b-da, 5, 2, 1, 36, 161, 88, 90, 165, 165, 90, 3, 7.8795
359, 1, bw, attraction, a-b-da, 5, 2, 1, 36, 161, 88, 90, 165, 165, 90, 1, 0.504941
359, 1, bw, attraction, a-b-db, 9, 2, 1, 37, 165, 90, 86, 157, 90, 165, 1, 13.0988
359, 1, bw, attraction, a-b-db, 9, 2, 1, 37, 165, 90, 86, 157, 90, 165, 2, 0.377975
359, 1, bw, attraction, a-b-da, 5, 1, 2, 1, 60, 135, 135, 60, 132, 58, 1, 2.67244
359, 1, bw, attraction, a-b-da, 5, 1, 2, 1, 60, 135, 135, 60, 132, 58, 2, 0.675768
359, 1, bw, filler, NA, 999, 999, 2, 2, 72, 170, 56, 84, 67, 61, 1, 1.58195
359, 1, bw, filler, NA, 999, 999, 2, 2, 72, 170, 56, 84, 67, 61, 3, 0.549614
359, 1, bw, attraction, a-b-da, 5, 3, 2, 3, 190, 117, 120, 195, 195, 120, 3, 4.05334
359, 1, bw, attraction, a-b-da, 5, 3, 2, 3, 190, 117, 120, 195, 195, 120, 1, 1.25726
359, 1, bw, catch, NA, 999, 999, 2, 4, 101, 154, 175, 140, 107, 88, 2, 1.02815
359, 1, bw, catch, NA, 999, 999, 2, 4, 101, 154, 175, 140, 107, 88, 3, 0.833808
359, 1, bw, attraction, a-b-da, 2, 1, 2, 5, 135, 60, 60, 135, 134, 59, 1, 5.24618
359, 1, bw, attraction, a-b-da, 2, 1, 2, 5, 135, 60, 60, 135, 134, 59, 3, 0.473861
359, 1, bw, filler, NA, 999, 999, 2, 6, 168, 165, 106, 90, 75, 57, 1, 0.716241
359, 1, bw, filler, NA, 999, 999, 2, 6, 168, 165, 106, 90, 75, 57, 3, 0.606857
359, 1, bw, attraction, a-b-da, 2, 2, 2, 7, 165, 90, 90, 165, 163, 89, 2, 7.22771
359, 1, bw, attraction, a-b-da, 2, 2, 2, 7, 165, 90, 90, 165, 163, 89, 3, 0.319552
359, 1, bw, attraction, a-b-db, 2, 1, 2, 8, 59, 134, 60, 135, 135, 60, 1, 1.88885
359, 1, bw, attraction, a-b-db, 2, 1, 2, 8, 59, 134, 60, 135, 135, 60, 3, 0.53942
359, 1, bw, attraction, a-b-db, 14, 2, 2, 9, 165, 90, 90, 165, 83, 153, 1, 12.9719
359, 1, bw, attraction, a-b-db, 14, 2, 2, 9, 165, 90, 90, 165, 83, 153, 3, 0.89642
359, 1, bw, attraction, a-b-da, 14, 2, 2, 10, 90, 165, 153, 83, 165, 90, 1, 2.09022
359, 1, bw, attraction, a-b-da, 14, 2, 2, 10, 90, 165, 153, 83, 165, 90, 2, 0.28491
359, 1, bw, attraction, a-b-da, 2, 3, 2, 11, 193, 119, 120, 195, 195, 120, 2, 6.42323
359, 1, bw, attraction, a-b-da, 2, 3, 2, 11, 193, 119, 120, 195, 195, 120, 1, 0.475187
359, 1, bw, attraction, a-b-db, 9, 2, 2, 12, 86, 157, 90, 165, 165, 90, 3, 6.95767
359, 1, bw, attraction, a-b-db, 9, 2, 2, 12, 86, 157, 90, 165, 165, 90, 2, 0.284119
359, 1, bw, attraction, a-b-db, 5, 1, 2, 13, 58, 132, 60, 135, 135, 60, 2, 2.06275
359, 1, bw, attraction, a-b-db, 5, 1, 2, 13, 58, 132, 60, 135, 135, 60, 3, 0.586643
359, 1, bw, filler, NA, 999, 999, 2, 14, 168, 143, 71, 85, 86, 78, 1, 0.945201
359, 1, bw, filler, NA, 999, 999, 2, 14, 168, 143, 71, 85, 86, 78, 2, 0.602149
359, 1, bw, attraction, a-b-da, 5, 2, 2, 15, 165, 90, 90, 165, 161, 88, 1, 4.83188
359, 1, bw, attraction, a-b-da, 5, 2, 2, 15, 165, 90, 90, 165, 161, 88, 3, 0.500303
359, 1, bw, attraction, a-b-db, 9, 1, 2, 16, 57, 129, 60, 135, 135, 60, 2, 4.1501
359, 1, bw, attraction, a-b-db, 9, 1, 2, 16, 57, 129, 60, 135, 135, 60, 1, 2.03825
359, 1, bw, filler, NA, 999, 999, 2, 17, 60, 114, 184, 118, 76, 113, 2, 0.930071
359, 1, bw, filler, NA, 999, 999, 2, 17, 60, 114, 184, 118, 76, 113, 1, 0.323853
359, 1, bw, catch, NA, 999, 999, 2, 18, 101, 154, 181, 134, 95, 100, 2, 1.10837
359, 1, bw, catch, NA, 999, 999, 2, 18, 101, 154, 181, 134, 95, 100, 3, 0.534528
359, 1, bw, attraction, a-b-db, 5, 3, 2, 19, 117, 190, 195, 120, 120, 195, 2, 5.43912
359, 1, bw, attraction, a-b-db, 5, 3, 2, 19, 117, 190, 195, 120, 120, 195, 1, 0.427334
359, 1, bw, attraction, a-b-da, 9, 3, 2, 20, 186, 114, 195, 120, 120, 195, 3, 2.84777
359, 1, bw, attraction, a-b-da, 9, 3, 2, 20, 186, 114, 195, 120, 120, 195, 2, 0.612199
359, 1, bw, filler, NA, 999, 999, 2, 21, 63, 173, 67, 134, 155, 114, 3, 10.7294
359, 1, bw, filler, NA, 999, 999, 2, 21, 63, 173, 67, 134, 155, 114, 2, 3.89613
359, 1, bw, attraction, a-b-da, 9, 2, 2, 22, 90, 165, 157, 86, 165, 90, 1, 5.79274
359, 1, bw, attraction, a-b-da, 9, 2, 2, 22, 90, 165, 157, 86, 165, 90, 2, 0.910221
359, 1, bw, attraction, a-b-da, 14, 1, 2, 23, 60, 135, 125, 56, 135, 60, 1, 1.9832
359, 1, bw, attraction, a-b-da, 14, 1, 2, 23, 60, 135, 125, 56, 135, 60, 2, 0.310472
359, 1, bw, attraction, a-b-da, 14, 3, 2, 24, 195, 120, 181, 111, 120, 195, 1, 3.88769
359, 1, bw, attraction, a-b-da, 14, 3, 2, 24, 195, 120, 181, 111, 120, 195, 2, 0.354407
359, 1, bw, attraction, a-b-db, 2, 3, 2, 25, 195, 120, 120, 195, 119, 193, 2, 3.9223
359, 1, bw, attraction, a-b-db, 2, 3, 2, 25, 195, 120, 120, 195, 119, 193, 1, 1.73116
359, 1, bw, catch, NA, 999, 999, 2, 26, 91, 164, 132, 183, 132, 63, 2, 1.50712
359, 1, bw, catch, NA, 999, 999, 2, 26, 91, 164, 132, 183, 132, 63, 3, 0.293275
359, 1, bw, filler, NA, 999, 999, 2, 27, 141, 176, 86, 174, 164, 79, 1, 5.67909
359, 1, bw, filler, NA, 999, 999, 2, 27, 141, 176, 86, 174, 164, 79, 3, 0.721296
359, 1, bw, attraction, a-b-db, 14, 3, 2, 28, 120, 195, 195, 120, 111, 181, 1, 6.81038
359, 1, bw, attraction, a-b-db, 14, 3, 2, 28, 120, 195, 195, 120, 111, 181, 3, 0.446901
359, 1, bw, filler, NA, 999, 999, 2, 29, 170, 132, 155, 171, 191, 81, 2, 1.14889
359, 1, bw, filler, NA, 999, 999, 2, 29, 170, 132, 155, 171, 191, 81, 3, 0.699738
359, 1, bw, filler, NA, 999, 999, 2, 30, 149, 186, 96, 65, 146, 167, 1, 1.00544
359, 1, bw, filler, NA, 999, 999, 2, 30, 149, 186, 96, 65, 146, 167, 2, 0.315598
359, 1, bw, attraction, a-b-db, 2, 2, 2, 31, 90, 165, 89, 163, 165, 90, 3, 8.5648
359, 1, bw, attraction, a-b-db, 2, 2, 2, 31, 90, 165, 89, 163, 165, 90, 2, 0.722818
359, 1, bw, attraction, a-b-da, 9, 1, 2, 32, 135, 60, 129, 57, 60, 135, 3, 8.32375
359, 1, bw, attraction, a-b-da, 9, 1, 2, 32, 135, 60, 129, 57, 60, 135, 2, 0.451121
359, 1, bw, attraction, a-b-db, 9, 3, 2, 33, 114, 186, 195, 120, 120, 195, 2, 15.087
359, 1, bw, attraction, a-b-db, 9, 3, 2, 33, 114, 186, 195, 120, 120, 195, 1, 1.04624
359, 1, bw, attraction, a-b-db, 5, 2, 2, 34, 165, 90, 90, 165, 88, 161, 3, 15.7538
359, 1, bw, attraction, a-b-db, 5, 2, 2, 34, 165, 90, 90, 165, 88, 161, 2, 0.342435
359, 1, bw, filler, NA, 999, 999, 2, 35, 81, 93, 58, 121, 78, 187, 3, 0.966056
359, 1, bw, filler, NA, 999, 999, 2, 35, 81, 93, 58, 121, 78, 187, 1, 0.534343
359, 1, bw, filler, NA, 999, 999, 2, 36, 192, 103, 166, 58, 135, 65, 1, 1.42296
359, 1, bw, filler, NA, 999, 999, 2, 36, 192, 103, 166, 58, 135, 65, 2, 10.6364
359, 1, bw, attraction, a-b-db, 14, 1, 2, 37, 60, 135, 56, 125, 135, 60, 3, 4.60574
359, 1, bw, attraction, a-b-db, 14, 1, 2, 37, 60, 135, 56, 125, 135, 60, 2, 0.506934
359, 1, bw, attraction, a-b-da, 5, 1, 3, 1, 132, 58, 60, 135, 135, 60, 3, 6.89195
359, 1, bw, attraction, a-b-da, 5, 1, 3, 1, 132, 58, 60, 135, 135, 60, 2, 1.95717
359, 1, bw, attraction, a-b-da, 9, 2, 3, 2, 157, 86, 165, 90, 90, 165, 3, 1.83592
359, 1, bw, attraction, a-b-da, 9, 2, 3, 2, 157, 86, 165, 90, 90, 165, 1, 7.93724
359, 1, bw, attraction, a-b-db, 2, 1, 3, 3, 60, 135, 59, 134, 135, 60, 1, 3.36733
359, 1, bw, attraction, a-b-db, 2, 1, 3, 3, 60, 135, 59, 134, 135, 60, 3, 0.73498
359, 1, bw, filler, NA, 999, 999, 3, 4, 183, 86, 150, 114, 167, 156, 3, 1.22325
359, 1, bw, filler, NA, 999, 999, 3, 4, 183, 86, 150, 114, 167, 156, 1, 0.500844
359, 1, bw, attraction, a-b-da, 5, 3, 3, 5, 195, 120, 120, 195, 190, 117, 2, 8.15872
359, 1, bw, attraction, a-b-da, 5, 3, 3, 5, 195, 120, 120, 195, 190, 117, 3, 0.436828
359, 1, bw, filler, NA, 999, 999, 3, 6, 68, 183, 101, 96, 146, 166, 3, 2.17781
359, 1, bw, filler, NA, 999, 999, 3, 6, 68, 183, 101, 96, 146, 166, 2, 5.71255
359, 1, bw, attraction, a-b-db, 14, 2, 3, 7, 83, 153, 90, 165, 165, 90, 2, 8.84814
359, 1, bw, attraction, a-b-db, 14, 2, 3, 7, 83, 153, 90, 165, 165, 90, 1, 0.642609
359, 1, bw, attraction, a-b-db, 5, 1, 3, 8, 135, 60, 58, 132, 60, 135, 3, 6.89434
359, 1, bw, attraction, a-b-db, 5, 1, 3, 8, 135, 60, 58, 132, 60, 135, 2, 0.431448
359, 1, bw, attraction, a-b-da, 5, 2, 3, 9, 161, 88, 165, 90, 90, 165, 3, 8.42796
359, 1, bw, attraction, a-b-da, 5, 2, 3, 9, 161, 88, 165, 90, 90, 165, 2, 0.271317
359, 1, bw, attraction, a-b-db, 2, 2, 3, 10, 89, 163, 165, 90, 90, 165, 3, 1.27446
359, 1, bw, attraction, a-b-db, 2, 2, 3, 10, 89, 163, 165, 90, 90, 165, 2, 0.302036
359, 1, bw, attraction, a-b-db, 14, 1, 3, 11, 56, 125, 60, 135, 135, 60, 3, 2.18392
359, 1, bw, attraction, a-b-db, 14, 1, 3, 11, 56, 125, 60, 135, 135, 60, 1, 0.399174
359, 1, bw, attraction, a-b-da, 2, 2, 3, 12, 163, 89, 165, 90, 90, 165, 1, 8.06911
359, 1, bw, attraction, a-b-da, 2, 2, 3, 12, 163, 89, 165, 90, 90, 165, 2, 0.39912
359, 1, bw, filler, NA, 999, 999, 3, 13, 139, 119, 157, 135, 172, 176, 3, 0.716865
359, 1, bw, filler, NA, 999, 999, 3, 13, 139, 119, 157, 135, 172, 176, 1, 0.271342
359, 1, bw, filler, NA, 999, 999, 3, 14, 127, 190, 166, 92, 153, 67, 1, 1.10644
359, 1, bw, filler, NA, 999, 999, 3, 14, 127, 190, 166, 92, 153, 67, 3, 0.604976
359, 1, bw, attraction, a-b-da, 14, 2, 3, 15, 165, 90, 153, 83, 90, 165, 3, 4.59463
359, 1, bw, attraction, a-b-da, 14, 2, 3, 15, 165, 90, 153, 83, 90, 165, 2, 0.280403
359, 1, bw, attraction, a-b-da, 2, 3, 3, 16, 195, 120, 193, 119, 120, 195, 3, 3.88304
359, 1, bw, attraction, a-b-da, 2, 3, 3, 16, 195, 120, 193, 119, 120, 195, 2, 0.261747
359, 1, bw, attraction, a-b-db, 9, 2, 3, 17, 86, 157, 90, 165, 165, 90, 2, 3.48904
359, 1, bw, attraction, a-b-db, 9, 2, 3, 17, 86, 157, 90, 165, 165, 90, 1, 0.475186
359, 1, bw, attraction, a-b-da, 9, 3, 3, 18, 120, 195, 186, 114, 195, 120, 3, 1.8056
359, 1, bw, attraction, a-b-da, 9, 3, 3, 18, 120, 195, 186, 114, 195, 120, 2, 0.219627
359, 1, bw, attraction, a-b-db, 5, 2, 3, 19, 165, 90, 88, 161, 90, 165, 1, 5.70487
359, 1, bw, attraction, a-b-db, 5, 2, 3, 19, 165, 90, 88, 161, 90, 165, 2, 1.92242
359, 1, bw, attraction, a-b-db, 9, 3, 3, 20, 120, 195, 195, 120, 114, 186, 1, 8.95517
359, 1, bw, attraction, a-b-db, 9, 3, 3, 20, 120, 195, 195, 120, 114, 186, 3, 0.361584
359, 1, bw, catch, NA, 999, 999, 3, 21, 180, 135, 79, 116, 130, 125, 1, 0.888703
359, 1, bw, catch, NA, 999, 999, 3, 21, 180, 135, 79, 116, 130, 125, 2, 0.219754
359, 1, bw, attraction, a-b-db, 14, 3, 3, 22, 111, 181, 120, 195, 195, 120, 3, 3.24107
359, 1, bw, attraction, a-b-db, 14, 3, 3, 22, 111, 181, 120, 195, 195, 120, 1, 0.341372
359, 1, bw, catch, NA, 999, 999, 3, 23, 135, 60, 156, 159, 158, 97, 2, 0.909208
359, 1, bw, catch, NA, 999, 999, 3, 23, 135, 60, 156, 159, 158, 97, 1, 0.351414
359, 1, bw, attraction, a-b-da, 14, 3, 3, 24, 195, 120, 120, 195, 181, 111, 1, 4.0953
359, 1, bw, attraction, a-b-da, 14, 3, 3, 24, 195, 120, 120, 195, 181, 111, 3, 0.345348
359, 1, bw, filler, NA, 999, 999, 3, 25, 162, 174, 165, 123, 112, 195, 1, 1.91318
359, 1, bw, filler, NA, 999, 999, 3, 25, 162, 174, 165, 123, 112, 195, 3, 0.411237
359, 1, bw, filler, NA, 999, 999, 3, 26, 86, 136, 144, 106, 97, 84, 2, 5.14441
359, 1, bw, filler, NA, 999, 999, 3, 26, 86, 136, 144, 106, 97, 84, 3, 0.456051
359, 1, bw, attraction, a-b-db, 2, 3, 3, 27, 119, 193, 195, 120, 120, 195, 1, 2.16382
359, 1, bw, attraction, a-b-db, 2, 3, 3, 27, 119, 193, 195, 120, 120, 195, 3, 0.899839
359, 1, bw, attraction, a-b-da, 14, 1, 3, 28, 135, 60, 60, 135, 125, 56, 1, 7.13339
359, 1, bw, attraction, a-b-da, 14, 1, 3, 28, 135, 60, 60, 135, 125, 56, 3, 0.469182
359, 1, bw, filler, NA, 999, 999, 3, 29, 92, 181, 68, 130, 155, 130, 3, 1.22435
359, 1, bw, filler, NA, 999, 999, 3, 29, 92, 181, 68, 130, 155, 130, 2, 0.333978
359, 1, bw, filler, NA, 999, 999, 3, 30, 128, 166, 168, 58, 166, 144, 3, 1.78257
359, 1, bw, filler, NA, 999, 999, 3, 30, 128, 166, 168, 58, 166, 144, 2, 0.493857
359, 1, bw, catch, NA, 999, 999, 3, 31, 153, 162, 100, 95, 137, 118, 1, 2.08769
359, 1, bw, catch, NA, 999, 999, 3, 31, 153, 162, 100, 95, 137, 118, 2, 0.523007
359, 1, bw, attraction, a-b-db, 5, 3, 3, 32, 195, 120, 120, 195, 117, 190, 1, 9.73201
359, 1, bw, attraction, a-b-db, 5, 3, 3, 32, 195, 120, 120, 195, 117, 190, 3, 0.266939
359, 1, bw, attraction, a-b-db, 9, 1, 3, 33, 57, 129, 60, 135, 135, 60, 3, 4.68616
359, 1, bw, attraction, a-b-db, 9, 1, 3, 33, 57, 129, 60, 135, 135, 60, 1, 0.456854
359, 1, bw, attraction, a-b-da, 2, 1, 3, 34, 135, 60, 60, 135, 134, 59, 2, 6.13987
359, 1, bw, attraction, a-b-da, 2, 1, 3, 34, 135, 60, 60, 135, 134, 59, 3, 0.483189
359, 1, bw, filler, NA, 999, 999, 3, 35, 73, 188, 95, 94, 192, 123, 3, 2.09365
359, 1, bw, filler, NA, 999, 999, 3, 35, 73, 188, 95, 94, 192, 123, 2, 0.256283
359, 1, bw, filler, NA, 999, 999, 3, 36, 89, 127, 160, 113, 177, 170, 3, 0.908205
359, 1, bw, filler, NA, 999, 999, 3, 36, 89, 127, 160, 113, 177, 170, 1, 0.246495
359, 1, bw, attraction, a-b-da, 9, 1, 3, 37, 60, 135, 129, 57, 135, 60, 1, 9.37053
359, 1, bw, attraction, a-b-da, 9, 1, 3, 37, 60, 135, 129, 57, 135, 60, 2, 0.872071
359, 1, bw, filler, NA, 999, 999, 4, 1, 94, 105, 125, 116, 99, 64, 2, 1.29919
359, 1, bw, filler, NA, 999, 999, 4, 1, 94, 105, 125, 116, 99, 64, 3, 0.422063
359, 1, bw, filler, NA, 999, 999, 4, 2, 74, 168, 121, 138, 135, 161, 3, 2.37124
359, 1, bw, filler, NA, 999, 999, 4, 2, 74, 168, 121, 138, 135, 161, 1, 0.65905
359, 1, bw, catch, NA, 999, 999, 4, 3, 61, 134, 141, 174, 148, 107, 2, 1.91017
359, 1, bw, catch, NA, 999, 999, 4, 3, 61, 134, 141, 174, 148, 107, 1, 0.392223
359, 1, bw, attraction, a-b-db, 9, 3, 4, 4, 195, 120, 114, 186, 120, 195, 1, 4.69411
359, 1, bw, attraction, a-b-db, 9, 3, 4, 4, 195, 120, 114, 186, 120, 195, 2, 0.407882
359, 1, bw, catch, NA, 999, 999, 4, 5, 195, 120, 117, 138, 68, 127, 1, 1.38912
359, 1, bw, catch, NA, 999, 999, 4, 5, 195, 120, 117, 138, 68, 127, 3, 0.675959
359, 1, bw, attraction, a-b-da, 14, 1, 4, 6, 135, 60, 60, 135, 125, 56, 1, 3.27829
359, 1, bw, attraction, a-b-da, 14, 1, 4, 6, 135, 60, 60, 135, 125, 56, 3, 0.369311
359, 1, bw, attraction, a-b-da, 5, 1, 4, 7, 132, 58, 135, 60, 60, 135, 1, 3.26438
359, 1, bw, attraction, a-b-da, 5, 1, 4, 7, 132, 58, 135, 60, 60, 135, 2, 1.35601
359, 1, bw, attraction, a-b-db, 9, 1, 4, 8, 60, 135, 57, 129, 135, 60, 1, 5.7635
359, 1, bw, attraction, a-b-db, 9, 1, 4, 8, 60, 135, 57, 129, 135, 60, 2, 0.250327
359, 1, bw, filler, NA, 999, 999, 4, 9, 179, 108, 168, 95, 109, 59, 1, 3.04627
359, 1, bw, filler, NA, 999, 999, 4, 9, 179, 108, 168, 95, 109, 59, 3, 0.554617
359, 1, bw, catch, NA, 999, 999, 4, 10, 161, 154, 130, 65, 132, 123, 1, 1.41833
359, 1, bw, catch, NA, 999, 999, 4, 10, 161, 154, 130, 65, 132, 123, 2, 0.352544
359, 1, bw, attraction, a-b-db, 5, 3, 4, 11, 120, 195, 195, 120, 117, 190, 1, 4.36841
359, 1, bw, attraction, a-b-db, 5, 3, 4, 11, 120, 195, 195, 120, 117, 190, 3, 0.303663
359, 1, bw, filler, NA, 999, 999, 4, 12, 159, 193, 101, 185, 102, 93, 1, 1.3616
359, 1, bw, filler, NA, 999, 999, 4, 12, 159, 193, 101, 185, 102, 93, 3, 0.369729
359, 1, bw, attraction, a-b-db, 2, 2, 4, 13, 89, 163, 90, 165, 165, 90, 3, 8.52086
359, 1, bw, attraction, a-b-db, 2, 2, 4, 13, 89, 163, 90, 165, 165, 90, 1, 1.17689
359, 1, bw, attraction, a-b-db, 5, 2, 4, 14, 165, 90, 88, 161, 90, 165, 3, 7.39909
359, 1, bw, attraction, a-b-db, 5, 2, 4, 14, 165, 90, 88, 161, 90, 165, 2, 0.540051
359, 1, bw, attraction, a-b-db, 14, 3, 4, 15, 195, 120, 120, 195, 111, 181, 1, 3.06788
359, 1, bw, attraction, a-b-db, 14, 3, 4, 15, 195, 120, 120, 195, 111, 181, 3, 0.295544
359, 1, bw, attraction, a-b-db, 2, 1, 4, 16, 59, 134, 135, 60, 60, 135, 1, 8.86537
359, 1, bw, attraction, a-b-db, 2, 1, 4, 16, 59, 134, 135, 60, 60, 135, 2, 0.515245
359, 1, bw, attraction, a-b-da, 14, 2, 4, 17, 153, 83, 165, 90, 90, 165, 3, 5.41243
359, 1, bw, attraction, a-b-da, 14, 2, 4, 17, 153, 83, 165, 90, 90, 165, 1, 0.481358
359, 1, bw, attraction, a-b-da, 9, 2, 4, 18, 157, 86, 165, 90, 90, 165, 3, 11.3477
359, 1, bw, attraction, a-b-da, 9, 2, 4, 18, 157, 86, 165, 90, 90, 165, 2, 0.385529
359, 1, bw, attraction, a-b-db, 14, 2, 4, 19, 83, 153, 165, 90, 90, 165, 3, 2.80808
359, 1, bw, attraction, a-b-db, 14, 2, 4, 19, 83, 153, 165, 90, 90, 165, 1, 0.797922
359, 1, bw, filler, NA, 999, 999, 4, 20, 188, 185, 116, 99, 141, 174, 1, 0.95544
359, 1, bw, filler, NA, 999, 999, 4, 20, 188, 185, 116, 99, 141, 174, 2, 0.243829
359, 1, bw, attraction, a-b-db, 14, 1, 4, 21, 60, 135, 135, 60, 56, 125, 1, 4.15168
359, 1, bw, attraction, a-b-db, 14, 1, 4, 21, 60, 135, 135, 60, 56, 125, 3, 0.415754
359, 1, bw, attraction, a-b-da, 2, 1, 4, 22, 60, 135, 135, 60, 134, 59, 1, 6.09286
359, 1, bw, attraction, a-b-da, 2, 1, 4, 22, 60, 135, 135, 60, 134, 59, 2, 0.518243
359, 1, bw, attraction, a-b-da, 9, 1, 4, 23, 135, 60, 60, 135, 129, 57, 1, 5.84734
359, 1, bw, attraction, a-b-da, 9, 1, 4, 23, 135, 60, 60, 135, 129, 57, 3, 0.946865
359, 1, bw, attraction, a-b-db, 9, 2, 4, 24, 86, 157, 165, 90, 90, 165, 2, 10.1865
359, 1, bw, attraction, a-b-db, 9, 2, 4, 24, 86, 157, 165, 90, 90, 165, 3, 0.287248
359, 1, bw, attraction, a-b-da, 2, 2, 4, 25, 90, 165, 165, 90, 163, 89, 3, 5.57788
359, 1, bw, attraction, a-b-da, 2, 2, 4, 25, 90, 165, 165, 90, 163, 89, 2, 0.288088
359, 1, bw, filler, NA, 999, 999, 4, 26, 123, 166, 161, 188, 151, 185, 2, 3.45849
359, 1, bw, filler, NA, 999, 999, 4, 26, 123, 166, 161, 188, 151, 185, 1, 0.302022
359, 1, bw, attraction, a-b-da, 14, 3, 4, 27, 181, 111, 195, 120, 120, 195, 2, 2.19996
359, 1, bw, attraction, a-b-da, 14, 3, 4, 27, 181, 111, 195, 120, 120, 195, 1, 0.486524
359, 1, bw, attraction, a-b-da, 2, 3, 4, 28, 195, 120, 193, 119, 120, 195, 1, 4.39308
359, 1, bw, attraction, a-b-da, 2, 3, 4, 28, 195, 120, 193, 119, 120, 195, 3, 0.423064
359, 1, bw, filler, NA, 999, 999, 4, 29, 188, 139, 88, 122, 84, 68, 1, 0.747417
359, 1, bw, filler, NA, 999, 999, 4, 29, 188, 139, 88, 122, 84, 68, 3, 0.372472
359, 1, bw, attraction, a-b-da, 5, 3, 4, 30, 120, 195, 195, 120, 190, 117, 1, 4.1157
359, 1, bw, attraction, a-b-da, 5, 3, 4, 30, 120, 195, 195, 120, 190, 117, 2, 0.581021
359, 1, bw, attraction, a-b-da, 5, 2, 4, 31, 90, 165, 161, 88, 165, 90, 1, 3.62762
359, 1, bw, attraction, a-b-da, 5, 2, 4, 31, 90, 165, 161, 88, 165, 90, 3, 0.6403
359, 1, bw, filler, NA, 999, 999, 4, 32, 69, 140, 67, 73, 166, 154, 3, 0.90804
359, 1, bw, filler, NA, 999, 999, 4, 32, 69, 140, 67, 73, 166, 154, 2, 0.254369
359, 1, bw, attraction, a-b-db, 2, 3, 4, 33, 195, 120, 120, 195, 119, 193, 2, 3.07426
359, 1, bw, attraction, a-b-db, 2, 3, 4, 33, 195, 120, 120, 195, 119, 193, 3, 0.549308
359, 1, bw, attraction, a-b-da, 9, 3, 4, 34, 120, 195, 195, 120, 186, 114, 1, 5.18097
359, 1, bw, attraction, a-b-da, 9, 3, 4, 34, 120, 195, 195, 120, 186, 114, 3, 1.03539
359, 1, bw, attraction, a-b-db, 5, 1, 4, 35, 58, 132, 135, 60, 60, 135, 1, 5.24769
359, 1, bw, attraction, a-b-db, 5, 1, 4, 35, 58, 132, 135, 60, 60, 135, 2, 0.411325
359, 1, bw, filler, NA, 999, 999, 4, 36, 68, 108, 109, 75, 80, 182, 3, 1.33644
359, 1, bw, filler, NA, 999, 999, 4, 36, 68, 108, 109, 75, 80, 182, 2, 7.714
359, 1, bw, filler, NA, 999, 999, 4, 37, 100, 96, 137, 122, 81, 183, 2, 1.76083
359, 1, bw, filler, NA, 999, 999, 4, 37, 100, 96, 137, 122, 81, 183, 1, 0.777049
359, 1, bw, attraction, a-b-da, 14, 3, 5, 1, 120, 195, 195, 120, 181, 111, 1, 7.5499
359, 1, bw, attraction, a-b-da, 14, 3, 5, 1, 120, 195, 195, 120, 181, 111, 3, 0.268924
359, 1, bw, attraction, a-b-db, 2, 1, 5, 2, 135, 60, 59, 134, 60, 135, 1, 3.63209
359, 1, bw, attraction, a-b-db, 2, 1, 5, 2, 135, 60, 59, 134, 60, 135, 2, 0.556978
359, 1, bw, attraction, a-b-da, 5, 2, 5, 3, 165, 90, 90, 165, 161, 88, 1, 4.05216
359, 1, bw, attraction, a-b-da, 5, 2, 5, 3, 165, 90, 90, 165, 161, 88, 2, 0.296174
359, 1, bw, attraction, a-b-da, 2, 2, 5, 4, 163, 89, 90, 165, 165, 90, 3, 1.11396
359, 1, bw, attraction, a-b-da, 2, 2, 5, 4, 163, 89, 90, 165, 165, 90, 2, 1.26027
359, 1, bw, attraction, a-b-db, 14, 2, 5, 5, 83, 153, 165, 90, 90, 165, 2, 4.36715
359, 1, bw, attraction, a-b-db, 14, 2, 5, 5, 83, 153, 165, 90, 90, 165, 1, 0.262346
359, 1, bw, attraction, a-b-db, 9, 2, 5, 6, 165, 90, 90, 165, 86, 157, 2, 2.72959
359, 1, bw, attraction, a-b-db, 9, 2, 5, 6, 165, 90, 90, 165, 86, 157, 3, 0.258729
359, 1, bw, filler, NA, 999, 999, 5, 7, 123, 174, 154, 80, 89, 111, 1, 0.885966
359, 1, bw, filler, NA, 999, 999, 5, 7, 123, 174, 154, 80, 89, 111, 3, 0.569588
359, 1, bw, attraction, a-b-da, 14, 2, 5, 8, 165, 90, 90, 165, 153, 83, 2, 4.13671
359, 1, bw, attraction, a-b-da, 14, 2, 5, 8, 165, 90, 90, 165, 153, 83, 3, 0.25741
359, 1, bw, filler, NA, 999, 999, 5, 9, 129, 76, 138, 188, 129, 66, 2, 1.13253
359, 1, bw, filler, NA, 999, 999, 5, 9, 129, 76, 138, 188, 129, 66, 3, 0.526171
359, 1, bw, attraction, a-b-da, 5, 3, 5, 10, 195, 120, 190, 117, 120, 195, 1, 3.60668
359, 1, bw, attraction, a-b-da, 5, 3, 5, 10, 195, 120, 190, 117, 120, 195, 2, 0.236061
359, 1, bw, attraction, a-b-da, 5, 1, 5, 11, 60, 135, 135, 60, 132, 58, 1, 4.32069
359, 1, bw, attraction, a-b-da, 5, 1, 5, 11, 60, 135, 135, 60, 132, 58, 2, 4.51396
359, 1, bw, attraction, a-b-da, 9, 2, 5, 12, 90, 165, 157, 86, 165, 90, 1, 6.36181
359, 1, bw, attraction, a-b-da, 9, 2, 5, 12, 90, 165, 157, 86, 165, 90, 2, 0.184503
359, 1, bw, catch, NA, 999, 999, 5, 13, 115, 80, 142, 113, 192, 123, 3, 1.09506
359, 1, bw, catch, NA, 999, 999, 5, 13, 115, 80, 142, 113, 192, 123, 1, 0.274021
359, 1, bw, filler, NA, 999, 999, 5, 14, 138, 166, 83, 57, 127, 137, 1, 1.04462
359, 1, bw, filler, NA, 999, 999, 5, 14, 138, 166, 83, 57, 127, 137, 2, 0.521523
359, 1, bw, attraction, a-b-db, 14, 1, 5, 15, 60, 135, 135, 60, 56, 125, 1, 3.00261
359, 1, bw, attraction, a-b-db, 14, 1, 5, 15, 60, 135, 135, 60, 56, 125, 3, 0.505007
359, 1, bw, filler, NA, 999, 999, 5, 16, 192, 171, 112, 176, 116, 71, 1, 1.00289
359, 1, bw, filler, NA, 999, 999, 5, 16, 192, 171, 112, 176, 116, 71, 3, 0.425805
359, 1, bw, attraction, a-b-da, 14, 1, 5, 17, 60, 135, 125, 56, 135, 60, 3, 10.1503
359, 1, bw, attraction, a-b-da, 14, 1, 5, 17, 60, 135, 125, 56, 135, 60, 2, 0.732427
359, 1, bw, attraction, a-b-db, 5, 3, 5, 18, 195, 120, 117, 190, 120, 195, 3, 5.07678
359, 1, bw, attraction, a-b-db, 5, 3, 5, 18, 195, 120, 117, 190, 120, 195, 1, 1.05515
359, 1, bw, filler, NA, 999, 999, 5, 19, 175, 101, 195, 95, 72, 95, 2, 1.48272
359, 1, bw, filler, NA, 999, 999, 5, 19, 175, 101, 195, 95, 72, 95, 3, 0.366247
359, 1, bw, attraction, a-b-db, 2, 3, 5, 20, 195, 120, 120, 195, 119, 193, 1, 5.87737
359, 1, bw, attraction, a-b-db, 2, 3, 5, 20, 195, 120, 120, 195, 119, 193, 3, 0.447663
359, 1, bw, filler, NA, 999, 999, 5, 21, 189, 170, 90, 69, 109, 95, 1, 0.899313
359, 1, bw, filler, NA, 999, 999, 5, 21, 189, 170, 90, 69, 109, 95, 2, 0.30233
359, 1, bw, attraction, a-b-db, 5, 1, 5, 22, 135, 60, 58, 132, 60, 135, 1, 6.35222
359, 1, bw, attraction, a-b-db, 5, 1, 5, 22, 135, 60, 58, 132, 60, 135, 2, 0.415623
359, 1, bw, attraction, a-b-db, 2, 2, 5, 23, 90, 165, 89, 163, 165, 90, 1, 2.45272
359, 1, bw, attraction, a-b-db, 2, 2, 5, 23, 90, 165, 89, 163, 165, 90, 2, 0.313212
359, 1, bw, filler, NA, 999, 999, 5, 24, 92, 110, 157, 156, 99, 90, 2, 1.38653
359, 1, bw, filler, NA, 999, 999, 5, 24, 92, 110, 157, 156, 99, 90, 3, 1.05002
359, 1, bw, attraction, a-b-da, 2, 1, 5, 25, 60, 135, 135, 60, 134, 59, 3, 4.06972
359, 1, bw, attraction, a-b-da, 2, 1, 5, 25, 60, 135, 135, 60, 134, 59, 2, 0.320893
359, 1, bw, attraction, a-b-db, 5, 2, 5, 26, 165, 90, 88, 161, 90, 165, 1, 4.59423
359, 1, bw, attraction, a-b-db, 5, 2, 5, 26, 165, 90, 88, 161, 90, 165, 2, 0.608115
359, 1, bw, attraction, a-b-da, 9, 1, 5, 27, 129, 57, 135, 60, 60, 135, 2, 4.29312
359, 1, bw, attraction, a-b-da, 9, 1, 5, 27, 129, 57, 135, 60, 60, 135, 1, 1.34308
359, 1, bw, filler, NA, 999, 999, 5, 28, 172, 72, 167, 139, 153, 95, 2, 1.83058
359, 1, bw, filler, NA, 999, 999, 5, 28, 172, 72, 167, 139, 153, 95, 1, 9.10798
359, 1, bw, attraction, a-b-da, 2, 3, 5, 29, 195, 120, 193, 119, 120, 195, 1, 9.74703
359, 1, bw, attraction, a-b-da, 2, 3, 5, 29, 195, 120, 193, 119, 120, 195, 2, 2.66544
359, 1, bw, attraction, a-b-db, 9, 1, 5, 30, 135, 60, 57, 129, 60, 135, 1, 4.0519
359, 1, bw, attraction, a-b-db, 9, 1, 5, 30, 135, 60, 57, 129, 60, 135, 2, 0.279868
359, 1, bw, filler, NA, 999, 999, 5, 31, 164, 75, 160, 145, 62, 144, 2, 1.67435
359, 1, bw, filler, NA, 999, 999, 5, 31, 164, 75, 160, 145, 62, 144, 3, 0.87773
359, 1, bw, catch, NA, 999, 999, 5, 32, 153, 102, 113, 82, 160, 155, 3, 1.12814
359, 1, bw, catch, NA, 999, 999, 5, 32, 153, 102, 113, 82, 160, 155, 2, 0.345821
359, 1, bw, attraction, a-b-da, 9, 3, 5, 33, 120, 195, 195, 120, 186, 114, 1, 2.28156
359, 1, bw, attraction, a-b-da, 9, 3, 5, 33, 120, 195, 195, 120, 186, 114, 3, 4.589
359, 1, bw, attraction, a-b-db, 9, 3, 5, 34, 120, 195, 195, 120, 114, 186, 1, 6.30606
359, 1, bw, attraction, a-b-db, 9, 3, 5, 34, 120, 195, 195, 120, 114, 186, 3, 1.72273
359, 1, bw, catch, NA, 999, 999, 5, 35, 151, 104, 64, 131, 173, 142, 3, 1.2515
359, 1, bw, catch, NA, 999, 999, 5, 35, 151, 104, 64, 131, 173, 142, 2, 0.256299
359, 1, bw, attraction, a-b-db, 14, 3, 5, 36, 195, 120, 111, 181, 120, 195, 3, 9.49229
359, 1, bw, attraction, a-b-db, 14, 3, 5, 36, 195, 120, 111, 181, 120, 195, 2, 0.292446
359, 1, bw, filler, NA, 999, 999, 5, 37, 116, 138, 79, 117, 121, 91, 1, 1.87037
359, 1, bw, filler, NA, 999, 999, 5, 37, 116, 138, 79, 117, 121, 91, 2, 1.26658
359, 1, bw, filler, NA, 999, 999, 6, 1, 105, 90, 154, 174, 136, 116, 2, 0.78929
359, 1, bw, filler, NA, 999, 999, 6, 1, 105, 90, 154, 174, 136, 116, 1, 0.270698
359, 1, bw, attraction, a-b-db, 14, 2, 6, 2, 83, 153, 165, 90, 90, 165, 3, 3.11159
359, 1, bw, attraction, a-b-db, 14, 2, 6, 2, 83, 153, 165, 90, 90, 165, 1, 0.297376
359, 1, bw, attraction, a-b-db, 5, 2, 6, 3, 88, 161, 90, 165, 165, 90, 2, 6.01905
359, 1, bw, attraction, a-b-db, 5, 2, 6, 3, 88, 161, 90, 165, 165, 90, 1, 0.343903
359, 1, bw, filler, NA, 999, 999, 6, 4, 99, 74, 114, 136, 127, 72, 2, 1.32767
359, 1, bw, filler, NA, 999, 999, 6, 4, 99, 74, 114, 136, 127, 72, 1, 0.377242
359, 1, bw, attraction, a-b-db, 14, 1, 6, 5, 56, 125, 135, 60, 60, 135, 3, 7.02377
359, 1, bw, attraction, a-b-db, 14, 1, 6, 5, 56, 125, 135, 60, 60, 135, 1, 0.347529
359, 1, bw, attraction, a-b-db, 5, 1, 6, 6, 135, 60, 60, 135, 58, 132, 2, 6.67536
359, 1, bw, attraction, a-b-db, 5, 1, 6, 6, 135, 60, 60, 135, 58, 132, 3, 6.33325
359, 1, bw, attraction, a-b-da, 9, 1, 6, 7, 129, 57, 135, 60, 60, 135, 3, 7.83586
359, 1, bw, attraction, a-b-da, 9, 1, 6, 7, 129, 57, 135, 60, 60, 135, 1, 0.527448
359, 1, bw, filler, NA, 999, 999, 6, 8, 63, 62, 150, 118, 119, 169, 3, 2.39201
359, 1, bw, filler, NA, 999, 999, 6, 8, 63, 62, 150, 118, 119, 169, 1, 0.382315
359, 1, bw, filler, NA, 999, 999, 6, 9, 83, 193, 62, 176, 84, 73, 1, 1.4449
359, 1, bw, filler, NA, 999, 999, 6, 9, 83, 193, 62, 176, 84, 73, 3, 0.377726
359, 1, bw, attraction, a-b-db, 2, 1, 6, 10, 60, 135, 135, 60, 59, 134, 1, 16.0242
359, 1, bw, attraction, a-b-db, 2, 1, 6, 10, 60, 135, 135, 60, 59, 134, 2, 0.281902
359, 1, bw, attraction, a-b-da, 14, 2, 6, 11, 153, 83, 90, 165, 165, 90, 3, 3.47642
359, 1, bw, attraction, a-b-da, 14, 2, 6, 11, 153, 83, 90, 165, 165, 90, 1, 1.00727
359, 1, bw, attraction, a-b-da, 5, 1, 6, 12, 135, 60, 60, 135, 132, 58, 2, 5.14837
359, 1, bw, attraction, a-b-da, 5, 1, 6, 12, 135, 60, 60, 135, 132, 58, 3, 0.355903
359, 1, bw, catch, NA, 999, 999, 6, 13, 160, 95, 105, 90, 176, 139, 3, 1.4117
359, 1, bw, catch, NA, 999, 999, 6, 13, 160, 95, 105, 90, 176, 139, 2, 0.562013
359, 1, bw, attraction, a-b-da, 9, 3, 6, 14, 195, 120, 120, 195, 186, 114, 1, 2.02509
359, 1, bw, attraction, a-b-da, 9, 3, 6, 14, 195, 120, 120, 195, 186, 114, 3, 0.542313
359, 1, bw, attraction, a-b-da, 2, 3, 6, 15, 193, 119, 195, 120, 120, 195, 2, 5.19014
359, 1, bw, attraction, a-b-da, 2, 3, 6, 15, 193, 119, 195, 120, 120, 195, 3, 3.13992
359, 1, bw, filler, NA, 999, 999, 6, 16, 165, 60, 106, 153, 150, 157, 3, 2.13943
359, 1, bw, filler, NA, 999, 999, 6, 16, 165, 60, 106, 153, 150, 157, 1, 1.01205
359, 1, bw, attraction, a-b-db, 2, 2, 6, 17, 89, 163, 90, 165, 165, 90, 3, 7.86512
359, 1, bw, attraction, a-b-db, 2, 2, 6, 17, 89, 163, 90, 165, 165, 90, 2, 0.515281
359, 1, bw, filler, NA, 999, 999, 6, 18, 170, 117, 68, 109, 164, 172, 3, 1.37248
359, 1, bw, filler, NA, 999, 999, 6, 18, 170, 117, 68, 109, 164, 172, 2, 0.251861
359, 1, bw, attraction, a-b-da, 9, 2, 6, 19, 157, 86, 165, 90, 90, 165, 2, 16.1598
359, 1, bw, attraction, a-b-da, 9, 2, 6, 19, 157, 86, 165, 90, 90, 165, 1, 0.939345
359, 1, bw, attraction, a-b-db, 2, 3, 6, 20, 120, 195, 119, 193, 195, 120, 1, 8.89165
359, 1, bw, attraction, a-b-db, 2, 3, 6, 20, 120, 195, 119, 193, 195, 120, 2, 0.252153
359, 1, bw, filler, NA, 999, 999, 6, 21, 112, 145, 130, 69, 194, 182, 3, 1.72814
359, 1, bw, filler, NA, 999, 999, 6, 21, 112, 145, 130, 69, 194, 182, 2, 0.305481
359, 1, bw, attraction, a-b-db, 14, 3, 6, 22, 111, 181, 195, 120, 120, 195, 3, 3.06734
359, 1, bw, attraction, a-b-db, 14, 3, 6, 22, 111, 181, 195, 120, 120, 195, 1, 0.286999
359, 1, bw, attraction, a-b-db, 9, 3, 6, 23, 114, 186, 195, 120, 120, 195, 3, 5.12155
359, 1, bw, attraction, a-b-db, 9, 3, 6, 23, 114, 186, 195, 120, 120, 195, 1, 3.01062
359, 1, bw, catch, NA, 999, 999, 6, 24, 90, 165, 92, 103, 175, 140, 3, 1.15899
359, 1, bw, catch, NA, 999, 999, 6, 24, 90, 165, 92, 103, 175, 140, 2, 0.25517
359, 1, bw, attraction, a-b-da, 5, 3, 6, 25, 195, 120, 120, 195, 190, 117, 2, 6.10711
359, 1, bw, attraction, a-b-da, 5, 3, 6, 25, 195, 120, 120, 195, 190, 117, 3, 0.747845
359, 1, bw, attraction, a-b-da, 2, 1, 6, 26, 60, 135, 134, 59, 135, 60, 1, 8.37154
359, 1, bw, attraction, a-b-da, 2, 1, 6, 26, 60, 135, 134, 59, 135, 60, 2, 0.377536
359, 1, bw, attraction, a-b-db, 5, 3, 6, 27, 117, 190, 120, 195, 195, 120, 3, 11.776
359, 1, bw, attraction, a-b-db, 5, 3, 6, 27, 117, 190, 120, 195, 195, 120, 1, 0.380206
359, 1, bw, attraction, a-b-da, 14, 3, 6, 28, 195, 120, 120, 195, 181, 111, 1, 2.67471
359, 1, bw, attraction, a-b-da, 14, 3, 6, 28, 195, 120, 120, 195, 181, 111, 3, 0.453911
359, 1, bw, catch, NA, 999, 999, 6, 29, 99, 156, 71, 124, 123, 192, 3, 1.0978
359, 1, bw, catch, NA, 999, 999, 6, 29, 99, 156, 71, 124, 123, 192, 2, 0.612755
359, 1, bw, filler, NA, 999, 999, 6, 30, 72, 156, 88, 58, 115, 154, 3, 1.09773
359, 1, bw, filler, NA, 999, 999, 6, 30, 72, 156, 88, 58, 115, 154, 2, 0.316754
359, 1, bw, filler, NA, 999, 999, 6, 31, 76, 166, 141, 156, 166, 91, 2, 1.28586
359, 1, bw, filler, NA, 999, 999, 6, 31, 76, 166, 141, 156, 166, 91, 1, 0.313467
359, 1, bw, attraction, a-b-da, 2, 2, 6, 32, 163, 89, 90, 165, 165, 90, 3, 3.94672
359, 1, bw, attraction, a-b-da, 2, 2, 6, 32, 163, 89, 90, 165, 165, 90, 2, 0.242666
359, 1, bw, filler, NA, 999, 999, 6, 33, 86, 94, 113, 177, 79, 162, 2, 1.08653
359, 1, bw, filler, NA, 999, 999, 6, 33, 86, 94, 113, 177, 79, 162, 1, 0.370232
359, 1, bw, attraction, a-b-db, 9, 1, 6, 34, 135, 60, 57, 129, 60, 135, 1, 5.17746
359, 1, bw, attraction, a-b-db, 9, 1, 6, 34, 135, 60, 57, 129, 60, 135, 2, 0.439793
359, 1, bw, attraction, a-b-da, 14, 1, 6, 35, 135, 60, 125, 56, 60, 135, 3, 2.17154
359, 1, bw, attraction, a-b-da, 14, 1, 6, 35, 135, 60, 125, 56, 60, 135, 2, 0.282849
359, 1, bw, attraction, a-b-da, 5, 2, 6, 36, 90, 165, 165, 90, 161, 88, 1, 3.95731
359, 1, bw, attraction, a-b-da, 5, 2, 6, 36, 90, 165, 165, 90, 161, 88, 2, 1.07677
359, 1, bw, attraction, a-b-db, 9, 2, 6, 37, 86, 157, 90, 165, 165, 90, 2, 2.07115
359, 1, bw, attraction, a-b-db, 9, 2, 6, 37, 86, 157, 90, 165, 165, 90, 3, 0.547067
359, 1, bw, filler, NA, 999, 999, 7, 1, 162, 84, 66, 155, 174, 119, 3, 1.51486
359, 1, bw, filler, NA, 999, 999, 7, 1, 162, 84, 66, 155, 174, 119, 2, 0.716988
359, 1, bw, attraction, a-b-db, 5, 2, 7, 2, 165, 90, 88, 161, 90, 165, 3, 4.77407
359, 1, bw, attraction, a-b-db, 5, 2, 7, 2, 165, 90, 88, 161, 90, 165, 2, 0.49249
359, 1, bw, filler, NA, 999, 999, 7, 3, 156, 169, 98, 109, 68, 83, 1, 0.846362
359, 1, bw, filler, NA, 999, 999, 7, 3, 156, 169, 98, 109, 68, 83, 3, 0.451319
359, 1, bw, filler, NA, 999, 999, 7, 4, 153, 99, 143, 171, 161, 157, 2, 2.46311
359, 1, bw, filler, NA, 999, 999, 7, 4, 153, 99, 143, 171, 161, 157, 1, 1.45903
359, 1, bw, attraction, a-b-da, 9, 3, 7, 5, 195, 120, 120, 195, 186, 114, 2, 6.09381
359, 1, bw, attraction, a-b-da, 9, 3, 7, 5, 195, 120, 120, 195, 186, 114, 3, 0.263178
359, 1, bw, attraction, a-b-da, 5, 3, 7, 6, 120, 195, 195, 120, 190, 117, 2, 1.30642
359, 1, bw, attraction, a-b-da, 5, 3, 7, 6, 120, 195, 195, 120, 190, 117, 3, 1.75667
359, 1, bw, attraction, a-b-da, 14, 2, 7, 7, 90, 165, 153, 83, 165, 90, 2, 4.71602
359, 1, bw, attraction, a-b-da, 14, 2, 7, 7, 90, 165, 153, 83, 165, 90, 3, 1.05327
359, 1, bw, attraction, a-b-db, 14, 1, 7, 8, 135, 60, 60, 135, 56, 125, 2, 3.96886
359, 1, bw, attraction, a-b-db, 14, 1, 7, 8, 135, 60, 60, 135, 56, 125, 3, 0.408317
359, 1, bw, attraction, a-b-da, 2, 3, 7, 9, 120, 195, 195, 120, 193, 119, 1, 3.50935
359, 1, bw, attraction, a-b-da, 2, 3, 7, 9, 120, 195, 195, 120, 193, 119, 2, 0.598878
359, 1, bw, attraction, a-b-da, 2, 1, 7, 10, 60, 135, 135, 60, 134, 59, 1, 6.10869
359, 1, bw, attraction, a-b-da, 2, 1, 7, 10, 60, 135, 135, 60, 134, 59, 2, 1.22939
359, 1, bw, attraction, a-b-db, 9, 2, 7, 11, 86, 157, 90, 165, 165, 90, 3, 5.46564
359, 1, bw, attraction, a-b-db, 9, 2, 7, 11, 86, 157, 90, 165, 165, 90, 1, 1.10868
359, 1, bw, attraction, a-b-db, 2, 1, 7, 12, 60, 135, 135, 60, 59, 134, 3, 7.18144
359, 1, bw, attraction, a-b-db, 2, 1, 7, 12, 60, 135, 135, 60, 59, 134, 2, 0.78719
359, 1, bw, attraction, a-b-da, 14, 1, 7, 13, 125, 56, 60, 135, 135, 60, 2, 4.32156
359, 1, bw, attraction, a-b-da, 14, 1, 7, 13, 125, 56, 60, 135, 135, 60, 1, 0.514908
359, 1, bw, attraction, a-b-db, 5, 1, 7, 14, 58, 132, 135, 60, 60, 135, 3, 5.41199
359, 1, bw, attraction, a-b-db, 5, 1, 7, 14, 58, 132, 135, 60, 60, 135, 2, 1.78494
359, 1, bw, attraction, a-b-da, 14, 3, 7, 15, 120, 195, 195, 120, 181, 111, 1, 5.23104
359, 1, bw, attraction, a-b-da, 14, 3, 7, 15, 120, 195, 195, 120, 181, 111, 3, 0.315332
359, 1, bw, attraction, a-b-da, 5, 2, 7, 16, 90, 165, 165, 90, 161, 88, 2, 8.27647
359, 1, bw, attraction, a-b-da, 5, 2, 7, 16, 90, 165, 165, 90, 161, 88, 1, 0.597847
359, 1, bw, attraction, a-b-da, 2, 2, 7, 17, 165, 90, 90, 165, 163, 89, 1, 6.00366
359, 1, bw, attraction, a-b-da, 2, 2, 7, 17, 165, 90, 90, 165, 163, 89, 3, 0.281261
359, 1, bw, catch, NA, 999, 999, 7, 18, 74, 121, 185, 130, 96, 159, 2, 1.13155
359, 1, bw, catch, NA, 999, 999, 7, 18, 74, 121, 185, 130, 96, 159, 1, 0.277172
359, 1, bw, attraction, a-b-da, 9, 1, 7, 19, 129, 57, 60, 135, 135, 60, 3, 8.94379
359, 1, bw, attraction, a-b-da, 9, 1, 7, 19, 129, 57, 60, 135, 135, 60, 1, 1.51827
359, 1, bw, filler, NA, 999, 999, 7, 20, 70, 117, 163, 177, 136, 61, 2, 0.847003
359, 1, bw, filler, NA, 999, 999, 7, 20, 70, 117, 163, 177, 136, 61, 1, 1.9322
359, 1, bw, attraction, a-b-da, 9, 2, 7, 21, 157, 86, 165, 90, 90, 165, 1, 2.91614
359, 1, bw, attraction, a-b-da, 9, 2, 7, 21, 157, 86, 165, 90, 90, 165, 3, 0.373837
359, 1, bw, filler, NA, 999, 999, 7, 22, 94, 72, 133, 154, 161, 57, 2, 0.6763
359, 1, bw, filler, NA, 999, 999, 7, 22, 94, 72, 133, 154, 161, 57, 1, 0.472061
359, 1, bw, filler, NA, 999, 999, 7, 23, 193, 166, 87, 166, 86, 109, 1, 0.91521
359, 1, bw, filler, NA, 999, 999, 7, 23, 193, 166, 87, 166, 86, 109, 3, 0.357589
359, 1, bw, catch, NA, 999, 999, 7, 24, 173, 142, 107, 148, 65, 130, 1, 1.08468
359, 1, bw, catch, NA, 999, 999, 7, 24, 173, 142, 107, 148, 65, 130, 3, 0.44836
359, 1, bw, catch, NA, 999, 999, 7, 25, 69, 126, 119, 136, 152, 163, 3, 0.924212
359, 1, bw, catch, NA, 999, 999, 7, 25, 69, 126, 119, 136, 152, 163, 1, 0.8938
359, 1, bw, attraction, a-b-db, 5, 3, 7, 26, 195, 120, 117, 190, 120, 195, 1, 4.56744
359, 1, bw, attraction, a-b-db, 5, 3, 7, 26, 195, 120, 117, 190, 120, 195, 2, 0.982764
359, 1, bw, attraction, a-b-da, 5, 1, 7, 27, 60, 135, 132, 58, 135, 60, 3, 2.99702
359, 1, bw, attraction, a-b-da, 5, 1, 7, 27, 60, 135, 132, 58, 135, 60, 2, 0.235331
359, 1, bw, filler, NA, 999, 999, 7, 28, 164, 139, 133, 124, 67, 142, 1, 1.0561
359, 1, bw, filler, NA, 999, 999, 7, 28, 164, 139, 133, 124, 67, 142, 3, 0.292283
359, 1, bw, attraction, a-b-db, 14, 3, 7, 29, 111, 181, 120, 195, 195, 120, 3, 4.87809
359, 1, bw, attraction, a-b-db, 14, 3, 7, 29, 111, 181, 120, 195, 195, 120, 1, 0.552613
359, 1, bw, attraction, a-b-db, 2, 2, 7, 30, 89, 163, 90, 165, 165, 90, 2, 4.71242
359, 1, bw, attraction, a-b-db, 2, 2, 7, 30, 89, 163, 90, 165, 165, 90, 3, 0.553431
359, 1, bw, attraction, a-b-db, 9, 3, 7, 31, 120, 195, 114, 186, 195, 120, 1, 3.75325
359, 1, bw, attraction, a-b-db, 9, 3, 7, 31, 120, 195, 114, 186, 195, 120, 2, 0.817339
359, 1, bw, filler, NA, 999, 999, 7, 32, 129, 127, 168, 134, 92, 56, 2, 1.31843
359, 1, bw, filler, NA, 999, 999, 7, 32, 129, 127, 168, 134, 92, 56, 3, 0.360591
359, 1, bw, filler, NA, 999, 999, 7, 33, 141, 78, 118, 119, 177, 171, 3, 2.20776
359, 1, bw, filler, NA, 999, 999, 7, 33, 141, 78, 118, 119, 177, 171, 1, 1.1658
359, 1, bw, attraction, a-b-db, 9, 1, 7, 34, 57, 129, 60, 135, 135, 60, 2, 3.78077
359, 1, bw, attraction, a-b-db, 9, 1, 7, 34, 57, 129, 60, 135, 135, 60, 3, 0.955486
359, 1, bw, attraction, a-b-db, 14, 2, 7, 35, 165, 90, 83, 153, 90, 165, 3, 3.20307
359, 1, bw, attraction, a-b-db, 14, 2, 7, 35, 165, 90, 83, 153, 90, 165, 2, 0.361523
359, 1, bw, attraction, a-b-db, 2, 3, 7, 36, 119, 193, 195, 120, 120, 195, 3, 6.4246
359, 1, bw, attraction, a-b-db, 2, 3, 7, 36, 119, 193, 195, 120, 120, 195, 1, 0.508564
359, 1, bw, filler, NA, 999, 999, 7, 37, 76, 116, 94, 170, 135, 148, 3, 0.869777
359, 1, bw, filler, NA, 999, 999, 7, 37, 76, 116, 94, 170, 135, 148, 1, 0.401982
359, 1, bw, attraction, a-b-da, 14, 3, 8, 1, 120, 195, 195, 120, 181, 111, 3, 3.01583
359, 1, bw, attraction, a-b-da, 14, 3, 8, 1, 120, 195, 195, 120, 181, 111, 2, 0.245516
359, 1, bw, filler, NA, 999, 999, 8, 2, 149, 112, 193, 185, 93, 186, 2, 3.44143
359, 1, bw, filler, NA, 999, 999, 8, 2, 149, 112, 193, 185, 93, 186, 1, 0.357629
359, 1, bw, filler, NA, 999, 999, 8, 3, 171, 106, 124, 86, 154, 156, 3, 5.30889
359, 1, bw, filler, NA, 999, 999, 8, 3, 171, 106, 124, 86, 154, 156, 2, 0.349711
359, 1, bw, attraction, a-b-da, 2, 1, 8, 4, 134, 59, 60, 135, 135, 60, 1, 6.0377
359, 1, bw, attraction, a-b-da, 2, 1, 8, 4, 134, 59, 60, 135, 135, 60, 2, 0.553738
359, 1, bw, attraction, a-b-db, 5, 1, 8, 5, 60, 135, 58, 132, 135, 60, 3, 4.14544
359, 1, bw, attraction, a-b-db, 5, 1, 8, 5, 60, 135, 58, 132, 135, 60, 2, 0.521436
359, 1, bw, attraction, a-b-da, 14, 1, 8, 6, 135, 60, 125, 56, 60, 135, 1, 3.89859
359, 1, bw, attraction, a-b-da, 14, 1, 8, 6, 135, 60, 125, 56, 60, 135, 2, 0.628735
359, 1, bw, attraction, a-b-da, 14, 2, 8, 7, 153, 83, 90, 165, 165, 90, 2, 6.63323
359, 1, bw, attraction, a-b-da, 14, 2, 8, 7, 153, 83, 90, 165, 165, 90, 1, 0.412957
359, 1, bw, attraction, a-b-da, 5, 3, 8, 8, 195, 120, 120, 195, 190, 117, 2, 4.2981
359, 1, bw, attraction, a-b-da, 5, 3, 8, 8, 195, 120, 120, 195, 190, 117, 3, 0.436003
359, 1, bw, attraction, a-b-da, 5, 1, 8, 9, 135, 60, 60, 135, 132, 58, 1, 5.57653
359, 1, bw, attraction, a-b-da, 5, 1, 8, 9, 135, 60, 60, 135, 132, 58, 3, 0.574718
359, 1, bw, attraction, a-b-db, 2, 2, 8, 10, 89, 163, 165, 90, 90, 165, 2, 10.2372
359, 1, bw, attraction, a-b-db, 2, 2, 8, 10, 89, 163, 165, 90, 90, 165, 1, 0.832129
359, 1, bw, attraction, a-b-da, 9, 3, 8, 11, 120, 195, 186, 114, 195, 120, 3, 4.95636
359, 1, bw, attraction, a-b-da, 9, 3, 8, 11, 120, 195, 186, 114, 195, 120, 2, 0.307512
359, 1, bw, filler, NA, 999, 999, 8, 12, 162, 143, 84, 83, 63, 101, 1, 1.25263
359, 1, bw, filler, NA, 999, 999, 8, 12, 162, 143, 84, 83, 63, 101, 2, 1.88959
359, 1, bw, attraction, a-b-da, 9, 2, 8, 13, 90, 165, 157, 86, 165, 90, 3, 5.22753
359, 1, bw, attraction, a-b-da, 9, 2, 8, 13, 90, 165, 157, 86, 165, 90, 2, 0.223942
359, 1, bw, filler, NA, 999, 999, 8, 14, 57, 160, 104, 149, 166, 125, 3, 1.06845
359, 1, bw, filler, NA, 999, 999, 8, 14, 57, 160, 104, 149, 166, 125, 1, 0.432755
359, 1, bw, attraction, a-b-db, 9, 1, 8, 15, 57, 129, 135, 60, 60, 135, 3, 5.62929
359, 1, bw, attraction, a-b-db, 9, 1, 8, 15, 57, 129, 135, 60, 60, 135, 1, 0.281321
359, 1, bw, attraction, a-b-db, 9, 2, 8, 16, 86, 157, 165, 90, 90, 165, 2, 4.67602
359, 1, bw, attraction, a-b-db, 9, 2, 8, 16, 86, 157, 165, 90, 90, 165, 1, 0.270373
359, 1, bw, attraction, a-b-db, 5, 3, 8, 17, 195, 120, 117, 190, 120, 195, 1, 1.36151
359, 1, bw, attraction, a-b-db, 5, 3, 8, 17, 195, 120, 117, 190, 120, 195, 2, 0.849857
359, 1, bw, filler, NA, 999, 999, 8, 18, 194, 77, 175, 176, 120, 149, 2, 2.20566
359, 1, bw, filler, NA, 999, 999, 8, 18, 194, 77, 175, 176, 120, 149, 1, 0.259492
359, 1, bw, catch, NA, 999, 999, 8, 19, 145, 170, 95, 100, 161, 94, 1, 0.998658
359, 1, bw, catch, NA, 999, 999, 8, 19, 145, 170, 95, 100, 161, 94, 2, 0.62973
359, 1, bw, attraction, a-b-db, 14, 3, 8, 20, 111, 181, 195, 120, 120, 195, 3, 10.722
359, 1, bw, attraction, a-b-db, 14, 3, 8, 20, 111, 181, 195, 120, 120, 195, 1, 0.305415
359, 1, bw, filler, NA, 999, 999, 8, 21, 58, 158, 93, 191, 71, 122, 2, 2.88324
359, 1, bw, filler, NA, 999, 999, 8, 21, 58, 158, 93, 191, 71, 122, 3, 3.57426
359, 1, bw, filler, NA, 999, 999, 8, 22, 177, 156, 165, 165, 126, 183, 1, 3.77978
359, 1, bw, filler, NA, 999, 999, 8, 22, 177, 156, 165, 165, 126, 183, 3, 0.37863
359, 1, bw, attraction, a-b-db, 5, 2, 8, 23, 165, 90, 88, 161, 90, 165, 1, 4.13708
359, 1, bw, attraction, a-b-db, 5, 2, 8, 23, 165, 90, 88, 161, 90, 165, 2, 0.585833
359, 1, bw, attraction, a-b-db, 14, 2, 8, 24, 90, 165, 83, 153, 165, 90, 1, 2.28017
359, 1, bw, attraction, a-b-db, 14, 2, 8, 24, 90, 165, 83, 153, 165, 90, 2, 0.299438
359, 1, bw, attraction, a-b-da, 5, 2, 8, 25, 165, 90, 90, 165, 161, 88, 1, 5.24541
359, 1, bw, attraction, a-b-da, 5, 2, 8, 25, 165, 90, 90, 165, 161, 88, 2, 0.288895
359, 1, bw, attraction, a-b-db, 9, 3, 8, 26, 120, 195, 195, 120, 114, 186, 1, 5.44345
359, 1, bw, attraction, a-b-db, 9, 3, 8, 26, 120, 195, 195, 120, 114, 186, 2, 1.19905
359, 1, bw, attraction, a-b-da, 2, 3, 8, 27, 193, 119, 195, 120, 120, 195, 1, 9.65267
359, 1, bw, attraction, a-b-da, 2, 3, 8, 27, 193, 119, 195, 120, 120, 195, 3, 0.254927
359, 1, bw, filler, NA, 999, 999, 8, 28, 164, 180, 186, 153, 126, 86, 1, 7.25071
359, 1, bw, filler, NA, 999, 999, 8, 28, 164, 180, 186, 153, 126, 86, 3, 1.07791
359, 1, bw, attraction, a-b-da, 2, 2, 8, 29, 165, 90, 90, 165, 163, 89, 3, 2.43216
359, 1, bw, attraction, a-b-da, 2, 2, 8, 29, 165, 90, 90, 165, 163, 89, 2, 0.989289
359, 1, bw, attraction, a-b-db, 2, 3, 8, 30, 195, 120, 119, 193, 120, 195, 3, 5.75558
359, 1, bw, attraction, a-b-db, 2, 3, 8, 30, 195, 120, 119, 193, 120, 195, 1, 0.451155
359, 1, bw, attraction, a-b-da, 9, 1, 8, 31, 129, 57, 60, 135, 135, 60, 2, 2.23893
359, 1, bw, attraction, a-b-da, 9, 1, 8, 31, 129, 57, 60, 135, 135, 60, 1, 0.291462
359, 1, bw, catch, NA, 999, 999, 8, 32, 124, 191, 135, 60, 136, 119, 1, 3.98145
359, 1, bw, catch, NA, 999, 999, 8, 32, 124, 191, 135, 60, 136, 119, 2, 0.484067
359, 1, bw, catch, NA, 999, 999, 8, 33, 139, 116, 162, 153, 78, 117, 2, 1.71052
359, 1, bw, catch, NA, 999, 999, 8, 33, 139, 116, 162, 153, 78, 117, 3, 0.328627
359, 1, bw, attraction, a-b-db, 14, 1, 8, 34, 135, 60, 56, 125, 60, 135, 3, 5.07341
359, 1, bw, attraction, a-b-db, 14, 1, 8, 34, 135, 60, 56, 125, 60, 135, 2, 0.923566
359, 1, bw, attraction, a-b-db, 2, 1, 8, 35, 60, 135, 135, 60, 59, 134, 3, 7.07595
359, 1, bw, attraction, a-b-db, 2, 1, 8, 35, 60, 135, 135, 60, 59, 134, 2, 0.301712
359, 1, bw, filler, NA, 999, 999, 8, 36, 112, 62, 190, 104, 164, 74, 2, 7.55146
359, 1, bw, filler, NA, 999, 999, 8, 36, 112, 62, 190, 104, 164, 74, 1, 0.758481
359, 1, bw, filler, NA, 999, 999, 8, 37, 56, 87, 59, 190, 93, 195, 3, 1.39743
359, 1, bw, filler, NA, 999, 999, 8, 37, 56, 87, 59, 190, 93, 195, 1, 0.620327
