sub_n, computer_n, bw_cond, effect, set, distance, diag, block_n, trial_n, h1, w1, h2, w2, h3, w3, choice, rt 
389, 1, bw, practice, NA, 999, 999, 0, 1, 123, 59, 181, 158, 190, 58, 2, 2.65986
389, 1, bw, practice, NA, 999, 999, 0, 1, 123, 59, 181, 158, 190, 58, 1, 2.87393
389, 1, bw, practice, NA, 999, 999, 0, 2, 179, 150, 143, 174, 66, 191, 1, 4.69585
389, 1, bw, practice, NA, 999, 999, 0, 2, 179, 150, 143, 174, 66, 191, 3, 2.13844
389, 1, bw, practice, NA, 999, 999, 0, 3, 189, 127, 175, 178, 138, 104, 2, 2.71978
389, 1, bw, practice, NA, 999, 999, 0, 3, 189, 127, 175, 178, 138, 104, 3, 1.51375
389, 1, bw, catch, NA, 999, 999, 1, 1, 87, 108, 153, 102, 122, 193, 3, 1.80106
389, 1, bw, catch, NA, 999, 999, 1, 1, 87, 108, 153, 102, 122, 193, 1, 1.10369
389, 1, bw, attraction, a-b-db, 9, 1, 1, 2, 135, 60, 60, 135, 57, 129, 1, 5.52123
389, 1, bw, attraction, a-b-db, 9, 1, 1, 2, 135, 60, 60, 135, 57, 129, 3, 1.57018
389, 1, bw, attraction, a-b-db, 5, 3, 1, 3, 117, 190, 120, 195, 195, 120, 2, 5.76093
389, 1, bw, attraction, a-b-db, 5, 3, 1, 3, 117, 190, 120, 195, 195, 120, 1, 2.65581
389, 1, bw, attraction, a-b-db, 14, 1, 1, 4, 60, 135, 56, 125, 135, 60, 3, 7.92291
389, 1, bw, attraction, a-b-db, 14, 1, 1, 4, 60, 135, 56, 125, 135, 60, 2, 1.46719
389, 1, bw, filler, NA, 999, 999, 1, 5, 163, 192, 168, 90, 194, 83, 1, 1.49387
389, 1, bw, filler, NA, 999, 999, 1, 5, 163, 192, 168, 90, 194, 83, 2, 6.11277
389, 1, bw, attraction, a-b-db, 5, 1, 1, 6, 135, 60, 58, 132, 60, 135, 1, 9.76812
389, 1, bw, attraction, a-b-db, 5, 1, 1, 6, 135, 60, 58, 132, 60, 135, 2, 0.333762
389, 1, bw, attraction, a-b-db, 5, 2, 1, 7, 90, 165, 165, 90, 88, 161, 1, 2.50218
389, 1, bw, attraction, a-b-db, 5, 2, 1, 7, 90, 165, 165, 90, 88, 161, 2, 5.55292
389, 1, bw, filler, NA, 999, 999, 1, 8, 66, 119, 190, 169, 56, 164, 2, 1.04688
389, 1, bw, filler, NA, 999, 999, 1, 8, 66, 119, 190, 169, 56, 164, 1, 1.244
389, 1, bw, filler, NA, 999, 999, 1, 9, 185, 125, 108, 119, 138, 121, 1, 2.20748
389, 1, bw, filler, NA, 999, 999, 1, 9, 185, 125, 108, 119, 138, 121, 2, 1.78142
389, 1, bw, attraction, a-b-da, 2, 2, 1, 10, 163, 89, 165, 90, 90, 165, 3, 8.04342
389, 1, bw, attraction, a-b-da, 2, 2, 1, 10, 163, 89, 165, 90, 90, 165, 1, 0.798362
389, 1, bw, attraction, a-b-da, 9, 3, 1, 11, 186, 114, 120, 195, 195, 120, 2, 2.49203
389, 1, bw, attraction, a-b-da, 9, 3, 1, 11, 186, 114, 120, 195, 195, 120, 1, 3.0545
389, 1, bw, filler, NA, 999, 999, 1, 12, 156, 60, 147, 145, 70, 63, 2, 1.01745
389, 1, bw, filler, NA, 999, 999, 1, 12, 156, 60, 147, 145, 70, 63, 3, 1.32782
389, 1, bw, attraction, a-b-da, 14, 3, 1, 13, 181, 111, 120, 195, 195, 120, 3, 7.23998
389, 1, bw, attraction, a-b-da, 14, 3, 1, 13, 181, 111, 120, 195, 195, 120, 1, 0.931125
389, 1, bw, filler, NA, 999, 999, 1, 14, 161, 99, 134, 123, 189, 74, 2, 9.75536
389, 1, bw, filler, NA, 999, 999, 1, 14, 161, 99, 134, 123, 189, 74, 3, 1.26573
389, 1, bw, attraction, a-b-db, 9, 2, 1, 15, 86, 157, 165, 90, 90, 165, 3, 2.03648
389, 1, bw, attraction, a-b-db, 9, 2, 1, 15, 86, 157, 165, 90, 90, 165, 1, 0.337886
389, 1, bw, attraction, a-b-db, 2, 2, 1, 16, 165, 90, 90, 165, 89, 163, 1, 4.3703
389, 1, bw, attraction, a-b-db, 2, 2, 1, 16, 165, 90, 90, 165, 89, 163, 2, 0.40154
389, 1, bw, catch, NA, 999, 999, 1, 17, 135, 180, 120, 75, 97, 158, 1, 1.20746
389, 1, bw, catch, NA, 999, 999, 1, 17, 135, 180, 120, 75, 97, 158, 2, 0.733693
389, 1, bw, filler, NA, 999, 999, 1, 18, 111, 99, 97, 185, 146, 164, 3, 5.87002
389, 1, bw, filler, NA, 999, 999, 1, 18, 111, 99, 97, 185, 146, 164, 1, 1.2808
389, 1, bw, attraction, a-b-db, 2, 1, 1, 19, 135, 60, 60, 135, 59, 134, 1, 12.515
389, 1, bw, attraction, a-b-db, 2, 1, 1, 19, 135, 60, 60, 135, 59, 134, 3, 1.18585
389, 1, bw, attraction, a-b-db, 14, 3, 1, 20, 111, 181, 195, 120, 120, 195, 2, 2.77622
389, 1, bw, attraction, a-b-db, 14, 3, 1, 20, 111, 181, 195, 120, 120, 195, 1, 0.847131
389, 1, bw, attraction, a-b-da, 2, 3, 1, 21, 120, 195, 193, 119, 195, 120, 1, 2.68277
389, 1, bw, attraction, a-b-da, 2, 3, 1, 21, 120, 195, 193, 119, 195, 120, 3, 0.862063
389, 1, bw, attraction, a-b-db, 14, 2, 1, 22, 165, 90, 90, 165, 83, 153, 1, 4.113
389, 1, bw, attraction, a-b-db, 14, 2, 1, 22, 165, 90, 90, 165, 83, 153, 3, 0.818293
389, 1, bw, filler, NA, 999, 999, 1, 23, 149, 136, 145, 115, 142, 95, 1, 1.62338
389, 1, bw, filler, NA, 999, 999, 1, 23, 149, 136, 145, 115, 142, 95, 3, 0.732802
389, 1, bw, attraction, a-b-da, 5, 1, 1, 24, 132, 58, 135, 60, 60, 135, 3, 3.97321
389, 1, bw, attraction, a-b-da, 5, 1, 1, 24, 132, 58, 135, 60, 60, 135, 2, 2.59589
389, 1, bw, attraction, a-b-db, 2, 3, 1, 25, 119, 193, 195, 120, 120, 195, 1, 16.3611
389, 1, bw, attraction, a-b-db, 2, 3, 1, 25, 119, 193, 195, 120, 120, 195, 2, 0.604572
389, 1, bw, attraction, a-b-da, 5, 3, 1, 26, 195, 120, 190, 117, 120, 195, 2, 2.57044
389, 1, bw, attraction, a-b-da, 5, 3, 1, 26, 195, 120, 190, 117, 120, 195, 1, 0.650208
389, 1, bw, attraction, a-b-da, 9, 2, 1, 27, 165, 90, 157, 86, 90, 165, 3, 11.4059
389, 1, bw, attraction, a-b-da, 9, 2, 1, 27, 165, 90, 157, 86, 90, 165, 2, 0.401669
389, 1, bw, attraction, a-b-db, 9, 3, 1, 28, 114, 186, 120, 195, 195, 120, 3, 6.4475
389, 1, bw, attraction, a-b-db, 9, 3, 1, 28, 114, 186, 120, 195, 195, 120, 1, 0.914739
389, 1, bw, attraction, a-b-da, 5, 2, 1, 29, 161, 88, 165, 90, 90, 165, 3, 3.70774
389, 1, bw, attraction, a-b-da, 5, 2, 1, 29, 161, 88, 165, 90, 90, 165, 1, 1.07726
389, 1, bw, filler, NA, 999, 999, 1, 30, 169, 78, 63, 132, 58, 96, 1, 1.70343
389, 1, bw, filler, NA, 999, 999, 1, 30, 169, 78, 63, 132, 58, 96, 3, 0.746442
389, 1, bw, catch, NA, 999, 999, 1, 31, 167, 148, 71, 124, 162, 93, 1, 1.16993
389, 1, bw, catch, NA, 999, 999, 1, 31, 167, 148, 71, 124, 162, 93, 2, 1.05831
389, 1, bw, attraction, a-b-da, 14, 1, 1, 32, 60, 135, 135, 60, 125, 56, 1, 2.19727
389, 1, bw, attraction, a-b-da, 14, 1, 1, 32, 60, 135, 135, 60, 125, 56, 3, 1.31581
389, 1, bw, attraction, a-b-da, 14, 2, 1, 33, 165, 90, 153, 83, 90, 165, 3, 1.86875
389, 1, bw, attraction, a-b-da, 14, 2, 1, 33, 165, 90, 153, 83, 90, 165, 2, 0.728894
389, 1, bw, filler, NA, 999, 999, 1, 34, 98, 57, 173, 170, 138, 177, 2, 1.5691
389, 1, bw, filler, NA, 999, 999, 1, 34, 98, 57, 173, 170, 138, 177, 1, 0.569199
389, 1, bw, attraction, a-b-da, 2, 1, 1, 35, 135, 60, 134, 59, 60, 135, 3, 10.1684
389, 1, bw, attraction, a-b-da, 2, 1, 1, 35, 135, 60, 134, 59, 60, 135, 2, 0.82979
389, 1, bw, filler, NA, 999, 999, 1, 36, 105, 83, 59, 90, 130, 107, 3, 1.05816
389, 1, bw, filler, NA, 999, 999, 1, 36, 105, 83, 59, 90, 130, 107, 2, 0.942519
389, 1, bw, attraction, a-b-da, 9, 1, 1, 37, 60, 135, 135, 60, 129, 57, 1, 9.11012
389, 1, bw, attraction, a-b-da, 9, 1, 1, 37, 60, 135, 135, 60, 129, 57, 3, 1.07805
389, 1, bw, attraction, a-b-da, 5, 3, 2, 1, 190, 117, 195, 120, 120, 195, 2, 21.0163
389, 1, bw, attraction, a-b-da, 5, 3, 2, 1, 190, 117, 195, 120, 120, 195, 3, 2.84837
389, 1, bw, filler, NA, 999, 999, 2, 2, 124, 171, 194, 68, 190, 94, 1, 3.67531
389, 1, bw, filler, NA, 999, 999, 2, 2, 124, 171, 194, 68, 190, 94, 2, 0.534144
389, 1, bw, catch, NA, 999, 999, 2, 3, 133, 182, 75, 120, 150, 105, 1, 2.25454
389, 1, bw, catch, NA, 999, 999, 2, 3, 133, 182, 75, 120, 150, 105, 2, 0.770529
389, 1, bw, attraction, a-b-db, 9, 1, 2, 4, 135, 60, 57, 129, 60, 135, 1, 2.76956
389, 1, bw, attraction, a-b-db, 9, 1, 2, 4, 135, 60, 57, 129, 60, 135, 3, 1.47336
389, 1, bw, filler, NA, 999, 999, 2, 5, 125, 174, 138, 173, 171, 174, 3, 1.30814
389, 1, bw, filler, NA, 999, 999, 2, 5, 125, 174, 138, 173, 171, 174, 1, 0.750368
389, 1, bw, attraction, a-b-da, 9, 3, 2, 6, 195, 120, 120, 195, 186, 114, 1, 7.17408
389, 1, bw, attraction, a-b-da, 9, 3, 2, 6, 195, 120, 120, 195, 186, 114, 3, 0.419818
389, 1, bw, filler, NA, 999, 999, 2, 7, 99, 150, 146, 159, 146, 97, 2, 8.601
389, 1, bw, filler, NA, 999, 999, 2, 7, 99, 150, 146, 159, 146, 97, 3, 2.1896
389, 1, bw, attraction, a-b-da, 14, 1, 2, 8, 125, 56, 135, 60, 60, 135, 3, 1.16353
389, 1, bw, attraction, a-b-da, 14, 1, 2, 8, 125, 56, 135, 60, 60, 135, 1, 0.90792
389, 1, bw, attraction, a-b-da, 2, 3, 2, 9, 193, 119, 195, 120, 120, 195, 2, 2.0047
389, 1, bw, attraction, a-b-da, 2, 3, 2, 9, 193, 119, 195, 120, 120, 195, 1, 1.5395
389, 1, bw, attraction, a-b-db, 2, 1, 2, 10, 59, 134, 60, 135, 135, 60, 3, 14.4836
389, 1, bw, attraction, a-b-db, 2, 1, 2, 10, 59, 134, 60, 135, 135, 60, 1, 0.619081
389, 1, bw, attraction, a-b-da, 5, 1, 2, 11, 60, 135, 132, 58, 135, 60, 3, 1.72809
389, 1, bw, attraction, a-b-da, 5, 1, 2, 11, 60, 135, 132, 58, 135, 60, 1, 0.785534
389, 1, bw, filler, NA, 999, 999, 2, 12, 65, 180, 120, 79, 191, 91, 3, 1.16804
389, 1, bw, filler, NA, 999, 999, 2, 12, 65, 180, 120, 79, 191, 91, 2, 0.864186
389, 1, bw, attraction, a-b-db, 5, 1, 2, 13, 135, 60, 60, 135, 58, 132, 1, 2.90733
389, 1, bw, attraction, a-b-db, 5, 1, 2, 13, 135, 60, 60, 135, 58, 132, 3, 3.08495
389, 1, bw, attraction, a-b-db, 2, 3, 2, 14, 195, 120, 120, 195, 119, 193, 1, 4.7346
389, 1, bw, attraction, a-b-db, 2, 3, 2, 14, 195, 120, 120, 195, 119, 193, 3, 0.559001
389, 1, bw, filler, NA, 999, 999, 2, 15, 157, 168, 122, 117, 117, 159, 1, 1.06208
389, 1, bw, filler, NA, 999, 999, 2, 15, 157, 168, 122, 117, 117, 159, 2, 2.21057
389, 1, bw, attraction, a-b-db, 9, 2, 2, 16, 90, 165, 165, 90, 86, 157, 1, 5.24701
389, 1, bw, attraction, a-b-db, 9, 2, 2, 16, 90, 165, 165, 90, 86, 157, 3, 0.514684
389, 1, bw, attraction, a-b-da, 5, 2, 2, 17, 165, 90, 90, 165, 161, 88, 1, 3.58791
389, 1, bw, attraction, a-b-da, 5, 2, 2, 17, 165, 90, 90, 165, 161, 88, 3, 0.658603
389, 1, bw, attraction, a-b-db, 9, 3, 2, 18, 114, 186, 120, 195, 195, 120, 3, 2.30984
389, 1, bw, attraction, a-b-db, 9, 3, 2, 18, 114, 186, 120, 195, 195, 120, 1, 0.567659
389, 1, bw, attraction, a-b-db, 5, 3, 2, 19, 195, 120, 120, 195, 117, 190, 1, 2.63884
389, 1, bw, attraction, a-b-db, 5, 3, 2, 19, 195, 120, 120, 195, 117, 190, 3, 0.763345
389, 1, bw, filler, NA, 999, 999, 2, 20, 117, 59, 83, 138, 190, 81, 3, 1.05827
389, 1, bw, filler, NA, 999, 999, 2, 20, 117, 59, 83, 138, 190, 81, 1, 0.910581
389, 1, bw, attraction, a-b-db, 14, 2, 2, 21, 165, 90, 90, 165, 83, 153, 1, 1.67962
389, 1, bw, attraction, a-b-db, 14, 2, 2, 21, 165, 90, 90, 165, 83, 153, 3, 0.499106
389, 1, bw, filler, NA, 999, 999, 2, 22, 88, 124, 128, 95, 145, 138, 3, 1.49278
389, 1, bw, filler, NA, 999, 999, 2, 22, 88, 124, 128, 95, 145, 138, 1, 1.36773
389, 1, bw, filler, NA, 999, 999, 2, 23, 171, 107, 185, 82, 113, 60, 1, 2.9826
389, 1, bw, filler, NA, 999, 999, 2, 23, 171, 107, 185, 82, 113, 60, 3, 0.557629
389, 1, bw, attraction, a-b-db, 14, 1, 2, 24, 135, 60, 56, 125, 60, 135, 1, 1.93254
389, 1, bw, attraction, a-b-db, 14, 1, 2, 24, 135, 60, 56, 125, 60, 135, 2, 1.02207
389, 1, bw, attraction, a-b-da, 2, 2, 2, 25, 90, 165, 165, 90, 163, 89, 1, 12.499
389, 1, bw, attraction, a-b-da, 2, 2, 2, 25, 90, 165, 165, 90, 163, 89, 2, 0.634389
389, 1, bw, attraction, a-b-da, 9, 1, 2, 26, 129, 57, 60, 135, 135, 60, 3, 5.07075
389, 1, bw, attraction, a-b-da, 9, 1, 2, 26, 129, 57, 60, 135, 135, 60, 2, 1.30593
389, 1, bw, attraction, a-b-da, 14, 2, 2, 27, 90, 165, 165, 90, 153, 83, 1, 1.84332
389, 1, bw, attraction, a-b-da, 14, 2, 2, 27, 90, 165, 165, 90, 153, 83, 3, 1.50419
389, 1, bw, filler, NA, 999, 999, 2, 28, 61, 100, 181, 103, 185, 164, 3, 0.929592
389, 1, bw, filler, NA, 999, 999, 2, 28, 61, 100, 181, 103, 185, 164, 1, 0.571213
389, 1, bw, attraction, a-b-da, 2, 1, 2, 29, 134, 59, 135, 60, 60, 135, 3, 4.18642
389, 1, bw, attraction, a-b-da, 2, 1, 2, 29, 134, 59, 135, 60, 60, 135, 1, 0.401018
389, 1, bw, attraction, a-b-da, 14, 3, 2, 30, 181, 111, 195, 120, 120, 195, 2, 10.5349
389, 1, bw, attraction, a-b-da, 14, 3, 2, 30, 181, 111, 195, 120, 120, 195, 1, 0.437504
389, 1, bw, attraction, a-b-db, 5, 2, 2, 31, 90, 165, 165, 90, 88, 161, 2, 2.34599
389, 1, bw, attraction, a-b-db, 5, 2, 2, 31, 90, 165, 165, 90, 88, 161, 1, 1.79464
389, 1, bw, attraction, a-b-db, 2, 2, 2, 32, 165, 90, 89, 163, 90, 165, 1, 2.10393
389, 1, bw, attraction, a-b-db, 2, 2, 2, 32, 165, 90, 89, 163, 90, 165, 3, 0.666603
389, 1, bw, attraction, a-b-da, 9, 2, 2, 33, 165, 90, 157, 86, 90, 165, 3, 7.03768
389, 1, bw, attraction, a-b-da, 9, 2, 2, 33, 165, 90, 157, 86, 90, 165, 1, 0.857445
389, 1, bw, attraction, a-b-db, 14, 3, 2, 34, 120, 195, 195, 120, 111, 181, 1, 1.7645
389, 1, bw, attraction, a-b-db, 14, 3, 2, 34, 120, 195, 195, 120, 111, 181, 3, 0.95655
389, 1, bw, catch, NA, 999, 999, 2, 35, 117, 138, 164, 151, 67, 128, 2, 1.21218
389, 1, bw, catch, NA, 999, 999, 2, 35, 117, 138, 164, 151, 67, 128, 3, 0.522454
389, 1, bw, catch, NA, 999, 999, 2, 36, 145, 170, 107, 88, 165, 90, 1, 2.93963
389, 1, bw, catch, NA, 999, 999, 2, 36, 145, 170, 107, 88, 165, 90, 2, 0.908116
389, 1, bw, filler, NA, 999, 999, 2, 37, 152, 63, 138, 99, 121, 165, 3, 1.31696
389, 1, bw, filler, NA, 999, 999, 2, 37, 152, 63, 138, 99, 121, 165, 1, 0.67109
389, 1, bw, attraction, a-b-db, 9, 2, 3, 1, 90, 165, 165, 90, 86, 157, 3, 2.96235
389, 1, bw, attraction, a-b-db, 9, 2, 3, 1, 90, 165, 165, 90, 86, 157, 2, 0.393929
389, 1, bw, filler, NA, 999, 999, 3, 2, 157, 147, 89, 124, 184, 159, 3, 0.927787
389, 1, bw, filler, NA, 999, 999, 3, 2, 157, 147, 89, 124, 184, 159, 2, 1.12161
389, 1, bw, attraction, a-b-da, 9, 3, 3, 3, 186, 114, 195, 120, 120, 195, 3, 3.45842
389, 1, bw, attraction, a-b-da, 9, 3, 3, 3, 186, 114, 195, 120, 120, 195, 2, 1.58197
389, 1, bw, attraction, a-b-db, 5, 1, 3, 4, 58, 132, 60, 135, 135, 60, 3, 8.48414
389, 1, bw, attraction, a-b-db, 5, 1, 3, 4, 58, 132, 60, 135, 135, 60, 1, 1.30141
389, 1, bw, attraction, a-b-da, 14, 2, 3, 5, 165, 90, 153, 83, 90, 165, 1, 2.34284
389, 1, bw, attraction, a-b-da, 14, 2, 3, 5, 165, 90, 153, 83, 90, 165, 2, 0.415448
389, 1, bw, attraction, a-b-da, 5, 3, 3, 6, 195, 120, 190, 117, 120, 195, 1, 8.94057
389, 1, bw, attraction, a-b-da, 5, 3, 3, 6, 195, 120, 190, 117, 120, 195, 2, 0.227119
389, 1, bw, attraction, a-b-db, 14, 1, 3, 7, 135, 60, 60, 135, 56, 125, 2, 3.22369
389, 1, bw, attraction, a-b-db, 14, 1, 3, 7, 135, 60, 60, 135, 56, 125, 1, 0.444713
389, 1, bw, filler, NA, 999, 999, 3, 8, 62, 167, 137, 104, 68, 189, 2, 2.89647
389, 1, bw, filler, NA, 999, 999, 3, 8, 62, 167, 137, 104, 68, 189, 1, 1.43491
389, 1, bw, attraction, a-b-da, 14, 3, 3, 9, 120, 195, 195, 120, 181, 111, 2, 2.52699
389, 1, bw, attraction, a-b-da, 14, 3, 3, 9, 120, 195, 195, 120, 181, 111, 3, 0.432356
389, 1, bw, catch, NA, 999, 999, 3, 10, 124, 131, 72, 123, 195, 120, 3, 6.03662
389, 1, bw, catch, NA, 999, 999, 3, 10, 124, 131, 72, 123, 195, 120, 2, 0.640762
389, 1, bw, attraction, a-b-db, 2, 1, 3, 11, 59, 134, 135, 60, 60, 135, 2, 5.42858
389, 1, bw, attraction, a-b-db, 2, 1, 3, 11, 59, 134, 135, 60, 60, 135, 3, 1.82481
389, 1, bw, filler, NA, 999, 999, 3, 12, 153, 60, 88, 68, 114, 112, 3, 2.69294
389, 1, bw, filler, NA, 999, 999, 3, 12, 153, 60, 88, 68, 114, 112, 2, 0.527206
389, 1, bw, filler, NA, 999, 999, 3, 13, 162, 93, 165, 127, 165, 160, 3, 1.35968
389, 1, bw, filler, NA, 999, 999, 3, 13, 162, 93, 165, 127, 165, 160, 1, 1.024
389, 1, bw, attraction, a-b-da, 9, 1, 3, 14, 129, 57, 135, 60, 60, 135, 3, 6.30032
389, 1, bw, attraction, a-b-da, 9, 1, 3, 14, 129, 57, 135, 60, 60, 135, 1, 1.3656
389, 1, bw, filler, NA, 999, 999, 3, 15, 132, 108, 108, 127, 67, 110, 1, 1.11634
389, 1, bw, filler, NA, 999, 999, 3, 15, 132, 108, 108, 127, 67, 110, 3, 0.486637
389, 1, bw, filler, NA, 999, 999, 3, 16, 61, 93, 102, 56, 86, 159, 3, 0.745079
389, 1, bw, filler, NA, 999, 999, 3, 16, 61, 93, 102, 56, 86, 159, 1, 1.47428
389, 1, bw, catch, NA, 999, 999, 3, 17, 61, 134, 116, 139, 184, 131, 3, 0.708354
389, 1, bw, catch, NA, 999, 999, 3, 17, 61, 134, 116, 139, 184, 131, 1, 0.598745
389, 1, bw, attraction, a-b-da, 2, 2, 3, 18, 165, 90, 90, 165, 163, 89, 3, 1.66051
389, 1, bw, attraction, a-b-da, 2, 2, 3, 18, 165, 90, 90, 165, 163, 89, 2, 0.800721
389, 1, bw, attraction, a-b-da, 2, 1, 3, 19, 135, 60, 134, 59, 60, 135, 1, 2.12643
389, 1, bw, attraction, a-b-da, 2, 1, 3, 19, 135, 60, 134, 59, 60, 135, 2, 1.2957
389, 1, bw, attraction, a-b-da, 2, 3, 3, 20, 120, 195, 193, 119, 195, 120, 1, 11.9772
389, 1, bw, attraction, a-b-da, 2, 3, 3, 20, 120, 195, 193, 119, 195, 120, 2, 0.373434
389, 1, bw, filler, NA, 999, 999, 3, 21, 131, 189, 83, 125, 161, 93, 1, 4.12395
389, 1, bw, filler, NA, 999, 999, 3, 21, 131, 189, 83, 125, 161, 93, 2, 0.460615
389, 1, bw, attraction, a-b-da, 9, 2, 3, 22, 157, 86, 165, 90, 90, 165, 3, 6.7357
389, 1, bw, attraction, a-b-da, 9, 2, 3, 22, 157, 86, 165, 90, 90, 165, 2, 2.92756
389, 1, bw, attraction, a-b-db, 14, 3, 3, 23, 111, 181, 195, 120, 120, 195, 3, 1.9434
389, 1, bw, attraction, a-b-db, 14, 3, 3, 23, 111, 181, 195, 120, 120, 195, 1, 0.896027
389, 1, bw, attraction, a-b-db, 14, 2, 3, 24, 90, 165, 165, 90, 83, 153, 2, 4.08964
389, 1, bw, attraction, a-b-db, 14, 2, 3, 24, 90, 165, 165, 90, 83, 153, 3, 0.683604
389, 1, bw, attraction, a-b-da, 5, 2, 3, 25, 161, 88, 165, 90, 90, 165, 3, 17.894
389, 1, bw, attraction, a-b-da, 5, 2, 3, 25, 161, 88, 165, 90, 90, 165, 1, 0.731789
389, 1, bw, attraction, a-b-db, 5, 3, 3, 26, 117, 190, 120, 195, 195, 120, 2, 2.81226
389, 1, bw, attraction, a-b-db, 5, 3, 3, 26, 117, 190, 120, 195, 195, 120, 1, 0.994002
389, 1, bw, catch, NA, 999, 999, 3, 27, 151, 164, 115, 140, 105, 90, 1, 1.13563
389, 1, bw, catch, NA, 999, 999, 3, 27, 151, 164, 115, 140, 105, 90, 3, 0.729266
389, 1, bw, filler, NA, 999, 999, 3, 28, 109, 82, 100, 124, 103, 115, 3, 1.4576
389, 1, bw, filler, NA, 999, 999, 3, 28, 109, 82, 100, 124, 103, 115, 1, 0.621781
389, 1, bw, attraction, a-b-da, 14, 1, 3, 29, 60, 135, 135, 60, 125, 56, 2, 11.1307
389, 1, bw, attraction, a-b-da, 14, 1, 3, 29, 60, 135, 135, 60, 125, 56, 3, 0.689271
389, 1, bw, attraction, a-b-da, 5, 1, 3, 30, 132, 58, 60, 135, 135, 60, 3, 2.8997
389, 1, bw, attraction, a-b-da, 5, 1, 3, 30, 132, 58, 60, 135, 135, 60, 2, 0.790109
389, 1, bw, attraction, a-b-db, 9, 3, 3, 31, 195, 120, 120, 195, 114, 186, 2, 7.5078
389, 1, bw, attraction, a-b-db, 9, 3, 3, 31, 195, 120, 120, 195, 114, 186, 3, 0.444078
389, 1, bw, attraction, a-b-db, 5, 2, 3, 32, 165, 90, 90, 165, 88, 161, 1, 9.08785
389, 1, bw, attraction, a-b-db, 5, 2, 3, 32, 165, 90, 90, 165, 88, 161, 3, 2.08101
389, 1, bw, attraction, a-b-db, 9, 1, 3, 33, 135, 60, 60, 135, 57, 129, 1, 2.04298
389, 1, bw, attraction, a-b-db, 9, 1, 3, 33, 135, 60, 60, 135, 57, 129, 2, 0.631723
389, 1, bw, attraction, a-b-db, 2, 2, 3, 34, 165, 90, 90, 165, 89, 163, 1, 1.60404
389, 1, bw, attraction, a-b-db, 2, 2, 3, 34, 165, 90, 90, 165, 89, 163, 2, 1.18707
389, 1, bw, filler, NA, 999, 999, 3, 35, 146, 91, 65, 57, 132, 145, 3, 1.02517
389, 1, bw, filler, NA, 999, 999, 3, 35, 146, 91, 65, 57, 132, 145, 2, 0.614768
389, 1, bw, attraction, a-b-db, 2, 3, 3, 36, 120, 195, 195, 120, 119, 193, 2, 3.02793
389, 1, bw, attraction, a-b-db, 2, 3, 3, 36, 120, 195, 195, 120, 119, 193, 3, 0.592796
389, 1, bw, filler, NA, 999, 999, 3, 37, 145, 157, 173, 76, 165, 189, 3, 1.03866
389, 1, bw, filler, NA, 999, 999, 3, 37, 145, 157, 173, 76, 165, 189, 2, 0.603602
389, 1, bw, attraction, a-b-db, 14, 2, 4, 1, 165, 90, 90, 165, 83, 153, 1, 2.18538
389, 1, bw, attraction, a-b-db, 14, 2, 4, 1, 165, 90, 90, 165, 83, 153, 3, 0.456683
389, 1, bw, catch, NA, 999, 999, 4, 2, 127, 68, 152, 163, 149, 106, 2, 0.916395
389, 1, bw, catch, NA, 999, 999, 4, 2, 127, 68, 152, 163, 149, 106, 1, 0.470746
389, 1, bw, filler, NA, 999, 999, 4, 3, 137, 96, 162, 161, 116, 65, 2, 0.665926
389, 1, bw, filler, NA, 999, 999, 4, 3, 137, 96, 162, 161, 116, 65, 3, 0.382412
389, 1, bw, attraction, a-b-db, 5, 3, 4, 4, 117, 190, 195, 120, 120, 195, 2, 3.08489
389, 1, bw, attraction, a-b-db, 5, 3, 4, 4, 117, 190, 195, 120, 120, 195, 1, 0.343885
389, 1, bw, attraction, a-b-da, 14, 1, 4, 5, 60, 135, 135, 60, 125, 56, 2, 2.51968
389, 1, bw, attraction, a-b-da, 14, 1, 4, 5, 60, 135, 135, 60, 125, 56, 1, 0.457573
389, 1, bw, attraction, a-b-da, 9, 3, 4, 6, 120, 195, 195, 120, 186, 114, 1, 6.20469
389, 1, bw, attraction, a-b-da, 9, 3, 4, 6, 120, 195, 195, 120, 186, 114, 3, 0.474022
389, 1, bw, attraction, a-b-db, 2, 1, 4, 7, 60, 135, 59, 134, 135, 60, 3, 7.89249
389, 1, bw, attraction, a-b-db, 2, 1, 4, 7, 60, 135, 59, 134, 135, 60, 2, 1.40536
389, 1, bw, attraction, a-b-da, 2, 1, 4, 8, 135, 60, 60, 135, 134, 59, 1, 1.41097
389, 1, bw, attraction, a-b-da, 2, 1, 4, 8, 135, 60, 60, 135, 134, 59, 2, 1.23297
389, 1, bw, attraction, a-b-db, 14, 1, 4, 9, 56, 125, 135, 60, 60, 135, 3, 4.68533
389, 1, bw, attraction, a-b-db, 14, 1, 4, 9, 56, 125, 135, 60, 60, 135, 1, 0.919804
389, 1, bw, catch, NA, 999, 999, 4, 10, 154, 101, 187, 128, 99, 96, 2, 1.4007
389, 1, bw, catch, NA, 999, 999, 4, 10, 154, 101, 187, 128, 99, 96, 3, 0.591794
389, 1, bw, filler, NA, 999, 999, 4, 11, 78, 119, 171, 123, 176, 186, 3, 1.94951
389, 1, bw, filler, NA, 999, 999, 4, 11, 78, 119, 171, 123, 176, 186, 1, 0.550024
389, 1, bw, filler, NA, 999, 999, 4, 12, 188, 80, 72, 65, 149, 62, 1, 0.917883
389, 1, bw, filler, NA, 999, 999, 4, 12, 188, 80, 72, 65, 149, 62, 2, 1.60033
389, 1, bw, attraction, a-b-db, 2, 2, 4, 13, 90, 165, 89, 163, 165, 90, 3, 1.83764
389, 1, bw, attraction, a-b-db, 2, 2, 4, 13, 90, 165, 89, 163, 165, 90, 1, 0.459071
389, 1, bw, filler, NA, 999, 999, 4, 14, 125, 188, 108, 89, 144, 93, 1, 1.23814
389, 1, bw, filler, NA, 999, 999, 4, 14, 125, 188, 108, 89, 144, 93, 2, 0.483181
389, 1, bw, attraction, a-b-da, 5, 2, 4, 15, 165, 90, 90, 165, 161, 88, 1, 3.26965
389, 1, bw, attraction, a-b-da, 5, 2, 4, 15, 165, 90, 90, 165, 161, 88, 2, 0.417176
389, 1, bw, filler, NA, 999, 999, 4, 16, 193, 132, 189, 102, 80, 147, 1, 1.05437
389, 1, bw, filler, NA, 999, 999, 4, 16, 193, 132, 189, 102, 80, 147, 3, 0.602749
389, 1, bw, attraction, a-b-db, 5, 1, 4, 17, 135, 60, 58, 132, 60, 135, 1, 1.92846
389, 1, bw, attraction, a-b-db, 5, 1, 4, 17, 135, 60, 58, 132, 60, 135, 3, 0.617833
389, 1, bw, attraction, a-b-db, 9, 1, 4, 18, 57, 129, 60, 135, 135, 60, 3, 4.56687
389, 1, bw, attraction, a-b-db, 9, 1, 4, 18, 57, 129, 60, 135, 135, 60, 1, 0.670137
389, 1, bw, attraction, a-b-da, 2, 2, 4, 19, 165, 90, 90, 165, 163, 89, 1, 7.42526
389, 1, bw, attraction, a-b-da, 2, 2, 4, 19, 165, 90, 90, 165, 163, 89, 2, 1.62879
389, 1, bw, attraction, a-b-db, 14, 3, 4, 20, 195, 120, 120, 195, 111, 181, 1, 4.73684
389, 1, bw, attraction, a-b-db, 14, 3, 4, 20, 195, 120, 120, 195, 111, 181, 3, 1.28145
389, 1, bw, attraction, a-b-db, 9, 2, 4, 21, 86, 157, 90, 165, 165, 90, 3, 2.69954
389, 1, bw, attraction, a-b-db, 9, 2, 4, 21, 86, 157, 90, 165, 165, 90, 1, 0.478167
389, 1, bw, filler, NA, 999, 999, 4, 22, 89, 183, 76, 184, 170, 158, 3, 1.43258
389, 1, bw, filler, NA, 999, 999, 4, 22, 89, 183, 76, 184, 170, 158, 1, 0.525967
389, 1, bw, filler, NA, 999, 999, 4, 23, 193, 175, 89, 79, 81, 152, 1, 0.902594
389, 1, bw, filler, NA, 999, 999, 4, 23, 193, 175, 89, 79, 81, 152, 2, 0.665661
389, 1, bw, catch, NA, 999, 999, 4, 24, 173, 142, 122, 73, 101, 154, 1, 1.37271
389, 1, bw, catch, NA, 999, 999, 4, 24, 173, 142, 122, 73, 101, 154, 2, 0.612202
389, 1, bw, filler, NA, 999, 999, 4, 25, 147, 135, 56, 160, 129, 90, 1, 1.28118
389, 1, bw, filler, NA, 999, 999, 4, 25, 147, 135, 56, 160, 129, 90, 2, 1.26091
389, 1, bw, attraction, a-b-da, 14, 3, 4, 26, 181, 111, 195, 120, 120, 195, 3, 1.67175
389, 1, bw, attraction, a-b-da, 14, 3, 4, 26, 181, 111, 195, 120, 120, 195, 1, 1.59517
389, 1, bw, attraction, a-b-da, 9, 2, 4, 27, 157, 86, 90, 165, 165, 90, 3, 1.94462
389, 1, bw, attraction, a-b-da, 9, 2, 4, 27, 157, 86, 90, 165, 165, 90, 1, 0.841184
389, 1, bw, attraction, a-b-da, 5, 1, 4, 28, 60, 135, 132, 58, 135, 60, 3, 1.48506
389, 1, bw, attraction, a-b-da, 5, 1, 4, 28, 60, 135, 132, 58, 135, 60, 1, 0.368448
389, 1, bw, attraction, a-b-db, 9, 3, 4, 29, 120, 195, 114, 186, 195, 120, 3, 2.19162
389, 1, bw, attraction, a-b-db, 9, 3, 4, 29, 120, 195, 114, 186, 195, 120, 1, 0.630228
389, 1, bw, filler, NA, 999, 999, 4, 30, 195, 155, 153, 134, 69, 60, 1, 1.01864
389, 1, bw, filler, NA, 999, 999, 4, 30, 195, 155, 153, 134, 69, 60, 3, 0.41707
389, 1, bw, attraction, a-b-da, 2, 3, 4, 31, 193, 119, 195, 120, 120, 195, 2, 2.69408
389, 1, bw, attraction, a-b-da, 2, 3, 4, 31, 193, 119, 195, 120, 120, 195, 1, 0.432487
389, 1, bw, attraction, a-b-db, 2, 3, 4, 32, 119, 193, 120, 195, 195, 120, 2, 4.47698
389, 1, bw, attraction, a-b-db, 2, 3, 4, 32, 119, 193, 120, 195, 195, 120, 3, 0.327556
389, 1, bw, attraction, a-b-da, 14, 2, 4, 33, 90, 165, 153, 83, 165, 90, 3, 2.64811
389, 1, bw, attraction, a-b-da, 14, 2, 4, 33, 90, 165, 153, 83, 165, 90, 2, 0.372603
389, 1, bw, attraction, a-b-db, 5, 2, 4, 34, 88, 161, 90, 165, 165, 90, 3, 1.54777
389, 1, bw, attraction, a-b-db, 5, 2, 4, 34, 88, 161, 90, 165, 165, 90, 1, 0.404558
389, 1, bw, filler, NA, 999, 999, 4, 35, 124, 73, 112, 137, 191, 72, 3, 0.858577
389, 1, bw, filler, NA, 999, 999, 4, 35, 124, 73, 112, 137, 191, 72, 1, 0.55873
389, 1, bw, attraction, a-b-da, 9, 1, 4, 36, 135, 60, 129, 57, 60, 135, 2, 1.65401
389, 1, bw, attraction, a-b-da, 9, 1, 4, 36, 135, 60, 129, 57, 60, 135, 3, 0.72268
389, 1, bw, attraction, a-b-da, 5, 3, 4, 37, 195, 120, 190, 117, 120, 195, 1, 4.9317
389, 1, bw, attraction, a-b-da, 5, 3, 4, 37, 195, 120, 190, 117, 120, 195, 3, 0.892128
389, 1, bw, filler, NA, 999, 999, 5, 1, 76, 63, 123, 64, 131, 119, 3, 1.89249
389, 1, bw, filler, NA, 999, 999, 5, 1, 76, 63, 123, 64, 131, 119, 1, 1.1031
389, 1, bw, attraction, a-b-da, 5, 3, 5, 2, 190, 117, 195, 120, 120, 195, 3, 4.84873
389, 1, bw, attraction, a-b-da, 5, 3, 5, 2, 190, 117, 195, 120, 120, 195, 2, 0.524532
389, 1, bw, catch, NA, 999, 999, 5, 3, 116, 79, 193, 122, 145, 110, 2, 0.820905
389, 1, bw, catch, NA, 999, 999, 5, 3, 116, 79, 193, 122, 145, 110, 1, 0.499385
389, 1, bw, filler, NA, 999, 999, 5, 4, 160, 74, 142, 132, 176, 178, 3, 0.837208
389, 1, bw, filler, NA, 999, 999, 5, 4, 160, 74, 142, 132, 176, 178, 1, 0.578857
389, 1, bw, attraction, a-b-db, 9, 1, 5, 5, 57, 129, 60, 135, 135, 60, 3, 1.43337
389, 1, bw, attraction, a-b-db, 9, 1, 5, 5, 57, 129, 60, 135, 135, 60, 1, 0.438732
389, 1, bw, attraction, a-b-db, 2, 2, 5, 6, 89, 163, 165, 90, 90, 165, 3, 5.06734
389, 1, bw, attraction, a-b-db, 2, 2, 5, 6, 89, 163, 165, 90, 90, 165, 2, 0.302315
389, 1, bw, attraction, a-b-db, 2, 1, 5, 7, 59, 134, 60, 135, 135, 60, 3, 1.30415
389, 1, bw, attraction, a-b-db, 2, 1, 5, 7, 59, 134, 60, 135, 135, 60, 1, 0.563148
389, 1, bw, attraction, a-b-da, 9, 1, 5, 8, 60, 135, 135, 60, 129, 57, 2, 2.58612
389, 1, bw, attraction, a-b-da, 9, 1, 5, 8, 60, 135, 135, 60, 129, 57, 1, 0.48137
389, 1, bw, filler, NA, 999, 999, 5, 9, 189, 172, 61, 119, 160, 192, 1, 2.30782
389, 1, bw, filler, NA, 999, 999, 5, 9, 189, 172, 61, 119, 160, 192, 2, 0.381726
389, 1, bw, attraction, a-b-da, 9, 3, 5, 10, 120, 195, 195, 120, 186, 114, 1, 1.52424
389, 1, bw, attraction, a-b-da, 9, 3, 5, 10, 120, 195, 195, 120, 186, 114, 2, 3.08575
389, 1, bw, filler, NA, 999, 999, 5, 11, 141, 71, 165, 140, 103, 139, 2, 1.71939
389, 1, bw, filler, NA, 999, 999, 5, 11, 141, 71, 165, 140, 103, 139, 1, 0.34552
389, 1, bw, attraction, a-b-db, 14, 2, 5, 12, 90, 165, 165, 90, 83, 153, 1, 2.76124
389, 1, bw, attraction, a-b-db, 14, 2, 5, 12, 90, 165, 165, 90, 83, 153, 3, 0.769141
389, 1, bw, catch, NA, 999, 999, 5, 13, 151, 104, 86, 109, 138, 177, 3, 1.0801
389, 1, bw, catch, NA, 999, 999, 5, 13, 151, 104, 86, 109, 138, 177, 2, 0.475841
389, 1, bw, attraction, a-b-da, 9, 2, 5, 14, 157, 86, 165, 90, 90, 165, 3, 3.29435
389, 1, bw, attraction, a-b-da, 9, 2, 5, 14, 157, 86, 165, 90, 90, 165, 1, 0.512423
389, 1, bw, filler, NA, 999, 999, 5, 15, 108, 63, 71, 136, 100, 94, 2, 3.40148
389, 1, bw, filler, NA, 999, 999, 5, 15, 108, 63, 71, 136, 100, 94, 1, 0.463806
389, 1, bw, attraction, a-b-da, 14, 1, 5, 16, 125, 56, 60, 135, 135, 60, 3, 2.73898
389, 1, bw, attraction, a-b-da, 14, 1, 5, 16, 125, 56, 60, 135, 135, 60, 1, 0.523435
389, 1, bw, attraction, a-b-db, 14, 3, 5, 17, 120, 195, 195, 120, 111, 181, 2, 1.90782
389, 1, bw, attraction, a-b-db, 14, 3, 5, 17, 120, 195, 195, 120, 111, 181, 3, 0.38988
389, 1, bw, filler, NA, 999, 999, 5, 18, 156, 172, 68, 174, 105, 72, 1, 0.780372
389, 1, bw, filler, NA, 999, 999, 5, 18, 156, 172, 68, 174, 105, 72, 3, 0.428166
389, 1, bw, attraction, a-b-db, 2, 3, 5, 19, 120, 195, 195, 120, 119, 193, 1, 5.88063
389, 1, bw, attraction, a-b-db, 2, 3, 5, 19, 120, 195, 195, 120, 119, 193, 3, 0.706719
389, 1, bw, filler, NA, 999, 999, 5, 20, 105, 74, 57, 174, 106, 118, 3, 1.10851
389, 1, bw, filler, NA, 999, 999, 5, 20, 105, 74, 57, 174, 106, 118, 1, 0.566875
389, 1, bw, attraction, a-b-db, 5, 1, 5, 21, 60, 135, 58, 132, 135, 60, 3, 0.989887
389, 1, bw, attraction, a-b-db, 5, 1, 5, 21, 60, 135, 58, 132, 135, 60, 2, 0.788899
389, 1, bw, attraction, a-b-da, 2, 1, 5, 22, 60, 135, 134, 59, 135, 60, 3, 4.66728
389, 1, bw, attraction, a-b-da, 2, 1, 5, 22, 60, 135, 134, 59, 135, 60, 2, 0.670328
389, 1, bw, attraction, a-b-da, 5, 2, 5, 23, 90, 165, 165, 90, 161, 88, 1, 6.68148
389, 1, bw, attraction, a-b-da, 5, 2, 5, 23, 90, 165, 165, 90, 161, 88, 2, 1.24343
389, 1, bw, filler, NA, 999, 999, 5, 24, 123, 72, 136, 170, 87, 72, 2, 0.895102
389, 1, bw, filler, NA, 999, 999, 5, 24, 123, 72, 136, 170, 87, 72, 3, 0.418115
389, 1, bw, attraction, a-b-da, 2, 2, 5, 25, 90, 165, 163, 89, 165, 90, 1, 1.37507
389, 1, bw, attraction, a-b-da, 2, 2, 5, 25, 90, 165, 163, 89, 165, 90, 2, 0.406582
389, 1, bw, attraction, a-b-db, 9, 2, 5, 26, 165, 90, 90, 165, 86, 157, 1, 4.13982
389, 1, bw, attraction, a-b-db, 9, 2, 5, 26, 165, 90, 90, 165, 86, 157, 2, 0.323719
389, 1, bw, attraction, a-b-db, 5, 2, 5, 27, 88, 161, 165, 90, 90, 165, 3, 1.05227
389, 1, bw, attraction, a-b-db, 5, 2, 5, 27, 88, 161, 165, 90, 90, 165, 2, 0.377213
389, 1, bw, attraction, a-b-db, 14, 1, 5, 28, 56, 125, 135, 60, 60, 135, 3, 1.15175
389, 1, bw, attraction, a-b-db, 14, 1, 5, 28, 56, 125, 135, 60, 60, 135, 1, 0.448754
389, 1, bw, attraction, a-b-da, 14, 2, 5, 29, 90, 165, 165, 90, 153, 83, 2, 2.90853
389, 1, bw, attraction, a-b-da, 14, 2, 5, 29, 90, 165, 165, 90, 153, 83, 1, 0.350183
389, 1, bw, attraction, a-b-da, 2, 3, 5, 30, 120, 195, 195, 120, 193, 119, 3, 4.50207
389, 1, bw, attraction, a-b-da, 2, 3, 5, 30, 120, 195, 195, 120, 193, 119, 1, 0.287921
389, 1, bw, attraction, a-b-da, 14, 3, 5, 31, 120, 195, 181, 111, 195, 120, 3, 1.89057
389, 1, bw, attraction, a-b-da, 14, 3, 5, 31, 120, 195, 181, 111, 195, 120, 1, 0.357255
389, 1, bw, filler, NA, 999, 999, 5, 32, 71, 142, 105, 113, 96, 112, 3, 0.88443
389, 1, bw, filler, NA, 999, 999, 5, 32, 71, 142, 105, 113, 96, 112, 1, 0.360005
389, 1, bw, attraction, a-b-da, 5, 1, 5, 33, 135, 60, 60, 135, 132, 58, 1, 1.79127
389, 1, bw, attraction, a-b-da, 5, 1, 5, 33, 135, 60, 60, 135, 132, 58, 2, 0.309971
389, 1, bw, filler, NA, 999, 999, 5, 34, 60, 171, 192, 155, 87, 173, 2, 1.17515
389, 1, bw, filler, NA, 999, 999, 5, 34, 60, 171, 192, 155, 87, 173, 1, 0.518729
389, 1, bw, attraction, a-b-db, 5, 3, 5, 35, 117, 190, 120, 195, 195, 120, 3, 1.09585
389, 1, bw, attraction, a-b-db, 5, 3, 5, 35, 117, 190, 120, 195, 195, 120, 1, 1.8988
389, 1, bw, catch, NA, 999, 999, 5, 36, 101, 154, 154, 161, 132, 63, 2, 2.9162
389, 1, bw, catch, NA, 999, 999, 5, 36, 101, 154, 154, 161, 132, 63, 3, 0.50195
389, 1, bw, attraction, a-b-db, 9, 3, 5, 37, 120, 195, 114, 186, 195, 120, 3, 2.86377
389, 1, bw, attraction, a-b-db, 9, 3, 5, 37, 120, 195, 114, 186, 195, 120, 2, 0.379385
389, 1, bw, filler, NA, 999, 999, 6, 1, 155, 179, 193, 139, 172, 97, 1, 0.99387
389, 1, bw, filler, NA, 999, 999, 6, 1, 155, 179, 193, 139, 172, 97, 3, 0.368885
389, 1, bw, attraction, a-b-db, 9, 3, 6, 2, 114, 186, 195, 120, 120, 195, 3, 1.408
389, 1, bw, attraction, a-b-db, 9, 3, 6, 2, 114, 186, 195, 120, 120, 195, 1, 0.95021
389, 1, bw, catch, NA, 999, 999, 6, 3, 151, 104, 185, 130, 113, 82, 2, 0.861939
389, 1, bw, catch, NA, 999, 999, 6, 3, 151, 104, 185, 130, 113, 82, 3, 0.282507
389, 1, bw, filler, NA, 999, 999, 6, 4, 183, 86, 176, 145, 99, 141, 2, 2.37282
389, 1, bw, filler, NA, 999, 999, 6, 4, 183, 86, 176, 145, 99, 141, 3, 3.34812
389, 1, bw, attraction, a-b-db, 2, 1, 6, 5, 60, 135, 59, 134, 135, 60, 3, 5.42693
389, 1, bw, attraction, a-b-db, 2, 1, 6, 5, 60, 135, 59, 134, 135, 60, 1, 0.943123
389, 1, bw, attraction, a-b-da, 9, 2, 6, 6, 90, 165, 165, 90, 157, 86, 1, 2.11089
389, 1, bw, attraction, a-b-da, 9, 2, 6, 6, 90, 165, 165, 90, 157, 86, 2, 0.488851
389, 1, bw, attraction, a-b-db, 14, 2, 6, 7, 165, 90, 90, 165, 83, 153, 2, 3.81126
389, 1, bw, attraction, a-b-db, 14, 2, 6, 7, 165, 90, 90, 165, 83, 153, 3, 0.992649
389, 1, bw, filler, NA, 999, 999, 6, 8, 99, 152, 96, 69, 179, 108, 3, 0.838729
389, 1, bw, filler, NA, 999, 999, 6, 8, 99, 152, 96, 69, 179, 108, 2, 0.707457
389, 1, bw, attraction, a-b-db, 2, 2, 6, 9, 90, 165, 165, 90, 89, 163, 2, 3.38848
389, 1, bw, attraction, a-b-db, 2, 2, 6, 9, 90, 165, 165, 90, 89, 163, 3, 1.33937
389, 1, bw, attraction, a-b-db, 9, 1, 6, 10, 135, 60, 57, 129, 60, 135, 1, 1.81965
389, 1, bw, attraction, a-b-db, 9, 1, 6, 10, 135, 60, 57, 129, 60, 135, 2, 0.961584
389, 1, bw, attraction, a-b-db, 5, 2, 6, 11, 165, 90, 88, 161, 90, 165, 1, 2.5446
389, 1, bw, attraction, a-b-db, 5, 2, 6, 11, 165, 90, 88, 161, 90, 165, 2, 0.281089
389, 1, bw, catch, NA, 999, 999, 6, 12, 114, 141, 175, 140, 133, 62, 2, 0.939697
389, 1, bw, catch, NA, 999, 999, 6, 12, 114, 141, 175, 140, 133, 62, 3, 0.420743
389, 1, bw, filler, NA, 999, 999, 6, 13, 192, 73, 157, 73, 104, 172, 3, 1.22586
389, 1, bw, filler, NA, 999, 999, 6, 13, 192, 73, 157, 73, 104, 172, 2, 1.16737
389, 1, bw, attraction, a-b-db, 5, 3, 6, 14, 117, 190, 120, 195, 195, 120, 3, 1.04633
389, 1, bw, attraction, a-b-db, 5, 3, 6, 14, 117, 190, 120, 195, 195, 120, 2, 1.98727
389, 1, bw, filler, NA, 999, 999, 6, 15, 170, 148, 77, 185, 155, 191, 3, 0.809244
389, 1, bw, filler, NA, 999, 999, 6, 15, 170, 148, 77, 185, 155, 191, 2, 0.33568
389, 1, bw, attraction, a-b-db, 9, 2, 6, 16, 165, 90, 86, 157, 90, 165, 1, 2.00819
389, 1, bw, attraction, a-b-db, 9, 2, 6, 16, 165, 90, 86, 157, 90, 165, 2, 0.382154
389, 1, bw, attraction, a-b-da, 5, 3, 6, 17, 120, 195, 195, 120, 190, 117, 3, 1.74872
389, 1, bw, attraction, a-b-da, 5, 3, 6, 17, 120, 195, 195, 120, 190, 117, 2, 0.245485
389, 1, bw, attraction, a-b-da, 5, 1, 6, 18, 132, 58, 60, 135, 135, 60, 2, 1.00124
389, 1, bw, attraction, a-b-da, 5, 1, 6, 18, 132, 58, 60, 135, 135, 60, 1, 0.856292
389, 1, bw, attraction, a-b-da, 14, 1, 6, 19, 135, 60, 125, 56, 60, 135, 1, 2.39598
389, 1, bw, attraction, a-b-da, 14, 1, 6, 19, 135, 60, 125, 56, 60, 135, 2, 0.386437
389, 1, bw, attraction, a-b-da, 2, 1, 6, 20, 134, 59, 135, 60, 60, 135, 1, 4.72898
389, 1, bw, attraction, a-b-da, 2, 1, 6, 20, 134, 59, 135, 60, 60, 135, 2, 0.625518
389, 1, bw, attraction, a-b-da, 14, 3, 6, 21, 120, 195, 181, 111, 195, 120, 3, 1.64593
389, 1, bw, attraction, a-b-da, 14, 3, 6, 21, 120, 195, 181, 111, 195, 120, 2, 0.354654
389, 1, bw, filler, NA, 999, 999, 6, 22, 73, 135, 87, 176, 67, 155, 2, 1.51464
389, 1, bw, filler, NA, 999, 999, 6, 22, 73, 135, 87, 176, 67, 155, 1, 0.604691
389, 1, bw, catch, NA, 999, 999, 6, 23, 174, 141, 123, 72, 123, 132, 1, 0.682413
389, 1, bw, catch, NA, 999, 999, 6, 23, 174, 141, 123, 72, 123, 132, 2, 0.526265
389, 1, bw, filler, NA, 999, 999, 6, 24, 107, 61, 119, 157, 81, 180, 3, 1.15865
389, 1, bw, filler, NA, 999, 999, 6, 24, 107, 61, 119, 157, 81, 180, 1, 0.574914
389, 1, bw, attraction, a-b-db, 2, 3, 6, 25, 120, 195, 195, 120, 119, 193, 1, 3.79735
389, 1, bw, attraction, a-b-db, 2, 3, 6, 25, 120, 195, 195, 120, 119, 193, 2, 0.259597
389, 1, bw, attraction, a-b-da, 9, 1, 6, 26, 135, 60, 60, 135, 129, 57, 1, 1.79854
389, 1, bw, attraction, a-b-da, 9, 1, 6, 26, 135, 60, 60, 135, 129, 57, 2, 0.709569
389, 1, bw, filler, NA, 999, 999, 6, 27, 90, 175, 137, 85, 115, 183, 3, 0.734544
389, 1, bw, filler, NA, 999, 999, 6, 27, 90, 175, 137, 85, 115, 183, 2, 0.472307
389, 1, bw, attraction, a-b-da, 2, 3, 6, 28, 120, 195, 193, 119, 195, 120, 3, 2.81142
389, 1, bw, attraction, a-b-da, 2, 3, 6, 28, 120, 195, 193, 119, 195, 120, 1, 0.305095
389, 1, bw, attraction, a-b-db, 14, 3, 6, 29, 111, 181, 195, 120, 120, 195, 2, 3.51503
389, 1, bw, attraction, a-b-db, 14, 3, 6, 29, 111, 181, 195, 120, 120, 195, 1, 0.404598
389, 1, bw, filler, NA, 999, 999, 6, 30, 188, 104, 101, 123, 173, 94, 1, 0.882279
389, 1, bw, filler, NA, 999, 999, 6, 30, 188, 104, 101, 123, 173, 94, 2, 0.309977
389, 1, bw, attraction, a-b-da, 9, 3, 6, 31, 186, 114, 120, 195, 195, 120, 3, 2.10321
389, 1, bw, attraction, a-b-da, 9, 3, 6, 31, 186, 114, 120, 195, 195, 120, 1, 2.91393
389, 1, bw, attraction, a-b-da, 14, 2, 6, 32, 165, 90, 153, 83, 90, 165, 1, 1.57027
389, 1, bw, attraction, a-b-da, 14, 2, 6, 32, 165, 90, 153, 83, 90, 165, 2, 0.394312
389, 1, bw, attraction, a-b-da, 5, 2, 6, 33, 165, 90, 161, 88, 90, 165, 1, 1.23228
389, 1, bw, attraction, a-b-da, 5, 2, 6, 33, 165, 90, 161, 88, 90, 165, 2, 0.317683
389, 1, bw, attraction, a-b-da, 2, 2, 6, 34, 165, 90, 163, 89, 90, 165, 3, 0.606887
389, 1, bw, attraction, a-b-da, 2, 2, 6, 34, 165, 90, 163, 89, 90, 165, 2, 0.429297
389, 1, bw, attraction, a-b-db, 5, 1, 6, 35, 60, 135, 58, 132, 135, 60, 3, 5.78582
389, 1, bw, attraction, a-b-db, 5, 1, 6, 35, 60, 135, 58, 132, 135, 60, 2, 0.472051
389, 1, bw, attraction, a-b-db, 14, 1, 6, 36, 135, 60, 56, 125, 60, 135, 1, 1.39522
389, 1, bw, attraction, a-b-db, 14, 1, 6, 36, 135, 60, 56, 125, 60, 135, 2, 0.64206
389, 1, bw, filler, NA, 999, 999, 6, 37, 111, 165, 65, 92, 138, 190, 3, 1.00571
389, 1, bw, filler, NA, 999, 999, 6, 37, 111, 165, 65, 92, 138, 190, 2, 0.404094
389, 1, bw, attraction, a-b-da, 9, 3, 7, 1, 120, 195, 186, 114, 195, 120, 3, 3.70598
389, 1, bw, attraction, a-b-da, 9, 3, 7, 1, 120, 195, 186, 114, 195, 120, 2, 0.371392
389, 1, bw, attraction, a-b-da, 9, 1, 7, 2, 135, 60, 60, 135, 129, 57, 1, 1.38666
389, 1, bw, attraction, a-b-da, 9, 1, 7, 2, 135, 60, 60, 135, 129, 57, 2, 0.594049
389, 1, bw, attraction, a-b-db, 9, 3, 7, 3, 114, 186, 195, 120, 120, 195, 3, 0.991915
389, 1, bw, attraction, a-b-db, 9, 3, 7, 3, 114, 186, 195, 120, 120, 195, 1, 0.630749
389, 1, bw, attraction, a-b-db, 14, 3, 7, 4, 120, 195, 111, 181, 195, 120, 3, 1.53136
389, 1, bw, attraction, a-b-db, 14, 3, 7, 4, 120, 195, 111, 181, 195, 120, 1, 0.388705
389, 1, bw, attraction, a-b-db, 2, 1, 7, 5, 135, 60, 60, 135, 59, 134, 1, 2.20337
389, 1, bw, attraction, a-b-db, 2, 1, 7, 5, 135, 60, 60, 135, 59, 134, 2, 0.39397
389, 1, bw, attraction, a-b-da, 5, 2, 7, 6, 90, 165, 165, 90, 161, 88, 3, 4.01569
389, 1, bw, attraction, a-b-da, 5, 2, 7, 6, 90, 165, 165, 90, 161, 88, 1, 0.357106
389, 1, bw, attraction, a-b-da, 9, 2, 7, 7, 90, 165, 157, 86, 165, 90, 3, 4.73222
389, 1, bw, attraction, a-b-da, 9, 2, 7, 7, 90, 165, 157, 86, 165, 90, 1, 1.07677
389, 1, bw, attraction, a-b-db, 14, 2, 7, 8, 83, 153, 90, 165, 165, 90, 2, 3.29507
389, 1, bw, attraction, a-b-db, 14, 2, 7, 8, 83, 153, 90, 165, 165, 90, 1, 0.745207
389, 1, bw, filler, NA, 999, 999, 7, 9, 108, 97, 180, 112, 136, 163, 3, 1.03298
389, 1, bw, filler, NA, 999, 999, 7, 9, 108, 97, 180, 112, 136, 163, 1, 0.838664
389, 1, bw, filler, NA, 999, 999, 7, 10, 104, 138, 80, 168, 122, 167, 3, 1.35499
389, 1, bw, filler, NA, 999, 999, 7, 10, 104, 138, 80, 168, 122, 167, 1, 0.419278
389, 1, bw, filler, NA, 999, 999, 7, 11, 74, 178, 170, 71, 60, 146, 1, 1.71229
389, 1, bw, filler, NA, 999, 999, 7, 11, 74, 178, 170, 71, 60, 146, 3, 0.586506
389, 1, bw, attraction, a-b-da, 2, 3, 7, 12, 195, 120, 193, 119, 120, 195, 3, 3.71296
389, 1, bw, attraction, a-b-da, 2, 3, 7, 12, 195, 120, 193, 119, 120, 195, 2, 0.426394
389, 1, bw, attraction, a-b-db, 9, 1, 7, 13, 135, 60, 60, 135, 57, 129, 1, 3.46284
389, 1, bw, attraction, a-b-db, 9, 1, 7, 13, 135, 60, 60, 135, 57, 129, 3, 0.530419
389, 1, bw, attraction, a-b-db, 5, 1, 7, 14, 60, 135, 135, 60, 58, 132, 1, 3.4028
389, 1, bw, attraction, a-b-db, 5, 1, 7, 14, 60, 135, 135, 60, 58, 132, 2, 0.441031
389, 1, bw, attraction, a-b-da, 2, 1, 7, 15, 60, 135, 135, 60, 134, 59, 1, 1.61287
389, 1, bw, attraction, a-b-da, 2, 1, 7, 15, 60, 135, 135, 60, 134, 59, 2, 0.411057
389, 1, bw, attraction, a-b-db, 2, 2, 7, 16, 89, 163, 165, 90, 90, 165, 3, 3.54423
389, 1, bw, attraction, a-b-db, 2, 2, 7, 16, 89, 163, 165, 90, 90, 165, 2, 0.416302
389, 1, bw, attraction, a-b-da, 2, 2, 7, 17, 163, 89, 90, 165, 165, 90, 3, 1.61353
389, 1, bw, attraction, a-b-da, 2, 2, 7, 17, 163, 89, 90, 165, 165, 90, 2, 0.563595
389, 1, bw, attraction, a-b-db, 9, 2, 7, 18, 165, 90, 86, 157, 90, 165, 1, 2.73085
389, 1, bw, attraction, a-b-db, 9, 2, 7, 18, 165, 90, 86, 157, 90, 165, 2, 0.49179
389, 1, bw, filler, NA, 999, 999, 7, 19, 119, 154, 180, 138, 59, 72, 2, 1.66161
389, 1, bw, filler, NA, 999, 999, 7, 19, 119, 154, 180, 138, 59, 72, 3, 0.473746
389, 1, bw, filler, NA, 999, 999, 7, 20, 130, 124, 82, 95, 154, 158, 3, 0.628321
389, 1, bw, filler, NA, 999, 999, 7, 20, 130, 124, 82, 95, 154, 158, 2, 0.425914
389, 1, bw, attraction, a-b-da, 14, 2, 7, 21, 153, 83, 165, 90, 90, 165, 3, 1.95855
389, 1, bw, attraction, a-b-da, 14, 2, 7, 21, 153, 83, 165, 90, 90, 165, 1, 0.518466
389, 1, bw, attraction, a-b-da, 5, 3, 7, 22, 190, 117, 195, 120, 120, 195, 3, 1.28765
389, 1, bw, attraction, a-b-da, 5, 3, 7, 22, 190, 117, 195, 120, 120, 195, 2, 0.379221
389, 1, bw, filler, NA, 999, 999, 7, 23, 103, 127, 191, 63, 85, 176, 3, 4.85761
389, 1, bw, filler, NA, 999, 999, 7, 23, 103, 127, 191, 63, 85, 176, 1, 5.93277
389, 1, bw, attraction, a-b-db, 2, 3, 7, 24, 120, 195, 119, 193, 195, 120, 1, 6.72351
389, 1, bw, attraction, a-b-db, 2, 3, 7, 24, 120, 195, 119, 193, 195, 120, 3, 0.459335
389, 1, bw, filler, NA, 999, 999, 7, 25, 61, 112, 56, 158, 187, 189, 3, 1.08655
389, 1, bw, filler, NA, 999, 999, 7, 25, 61, 112, 56, 158, 187, 189, 1, 0.554083
389, 1, bw, catch, NA, 999, 999, 7, 26, 130, 185, 70, 125, 91, 164, 1, 1.34587
389, 1, bw, catch, NA, 999, 999, 7, 26, 130, 185, 70, 125, 91, 164, 2, 0.338894
389, 1, bw, attraction, a-b-db, 14, 1, 7, 27, 135, 60, 56, 125, 60, 135, 1, 2.09143
389, 1, bw, attraction, a-b-db, 14, 1, 7, 27, 135, 60, 56, 125, 60, 135, 2, 0.326108
389, 1, bw, catch, NA, 999, 999, 7, 28, 69, 126, 120, 135, 167, 148, 3, 0.622617
389, 1, bw, catch, NA, 999, 999, 7, 28, 69, 126, 120, 135, 167, 148, 1, 0.508214
389, 1, bw, attraction, a-b-da, 14, 1, 7, 29, 135, 60, 60, 135, 125, 56, 3, 1.38932
389, 1, bw, attraction, a-b-da, 14, 1, 7, 29, 135, 60, 60, 135, 125, 56, 2, 0.31619
389, 1, bw, filler, NA, 999, 999, 7, 30, 106, 102, 86, 79, 70, 64, 1, 1.03739
389, 1, bw, filler, NA, 999, 999, 7, 30, 106, 102, 86, 79, 70, 64, 3, 0.474423
389, 1, bw, attraction, a-b-da, 5, 1, 7, 31, 132, 58, 60, 135, 135, 60, 3, 2.23685
389, 1, bw, attraction, a-b-da, 5, 1, 7, 31, 132, 58, 60, 135, 135, 60, 1, 0.506112
389, 1, bw, attraction, a-b-db, 5, 2, 7, 32, 165, 90, 90, 165, 88, 161, 1, 5.62
389, 1, bw, attraction, a-b-db, 5, 2, 7, 32, 165, 90, 90, 165, 88, 161, 2, 2.59289
389, 1, bw, filler, NA, 999, 999, 7, 33, 100, 157, 98, 152, 168, 109, 3, 1.70205
389, 1, bw, filler, NA, 999, 999, 7, 33, 100, 157, 98, 152, 168, 109, 2, 1.56075
389, 1, bw, attraction, a-b-db, 5, 3, 7, 34, 195, 120, 120, 195, 117, 190, 1, 1.22351
389, 1, bw, attraction, a-b-db, 5, 3, 7, 34, 195, 120, 120, 195, 117, 190, 3, 0.397169
389, 1, bw, catch, NA, 999, 999, 7, 35, 193, 122, 91, 104, 112, 143, 1, 1.10693
389, 1, bw, catch, NA, 999, 999, 7, 35, 193, 122, 91, 104, 112, 143, 2, 0.549283
389, 1, bw, attraction, a-b-da, 14, 3, 7, 36, 181, 111, 195, 120, 120, 195, 2, 2.485
389, 1, bw, attraction, a-b-da, 14, 3, 7, 36, 181, 111, 195, 120, 120, 195, 1, 2.25632
389, 1, bw, filler, NA, 999, 999, 7, 37, 93, 61, 179, 183, 86, 61, 2, 0.667418
389, 1, bw, filler, NA, 999, 999, 7, 37, 93, 61, 179, 183, 86, 61, 3, 4.43981
389, 1, bw, attraction, a-b-db, 2, 3, 8, 1, 119, 193, 195, 120, 120, 195, 1, 3.81113
389, 1, bw, attraction, a-b-db, 2, 3, 8, 1, 119, 193, 195, 120, 120, 195, 2, 1.07249
389, 1, bw, attraction, a-b-db, 9, 1, 8, 2, 60, 135, 135, 60, 57, 129, 2, 2.97948
389, 1, bw, attraction, a-b-db, 9, 1, 8, 2, 60, 135, 135, 60, 57, 129, 3, 0.586452
389, 1, bw, attraction, a-b-da, 5, 1, 8, 3, 60, 135, 132, 58, 135, 60, 3, 2.75293
389, 1, bw, attraction, a-b-da, 5, 1, 8, 3, 60, 135, 132, 58, 135, 60, 2, 1.04135
389, 1, bw, attraction, a-b-db, 14, 3, 8, 4, 120, 195, 111, 181, 195, 120, 3, 2.83702
389, 1, bw, attraction, a-b-db, 14, 3, 8, 4, 120, 195, 111, 181, 195, 120, 2, 0.52205
389, 1, bw, attraction, a-b-da, 9, 1, 8, 5, 135, 60, 129, 57, 60, 135, 1, 1.76326
389, 1, bw, attraction, a-b-da, 9, 1, 8, 5, 135, 60, 129, 57, 60, 135, 2, 0.363227
389, 1, bw, filler, NA, 999, 999, 8, 6, 76, 74, 101, 182, 143, 132, 3, 0.834473
389, 1, bw, filler, NA, 999, 999, 8, 6, 76, 74, 101, 182, 143, 132, 1, 0.968186
389, 1, bw, catch, NA, 999, 999, 8, 7, 191, 124, 106, 89, 159, 96, 1, 1.07915
389, 1, bw, catch, NA, 999, 999, 8, 7, 191, 124, 106, 89, 159, 96, 2, 0.322813
389, 1, bw, filler, NA, 999, 999, 8, 8, 90, 137, 76, 188, 84, 121, 2, 1.35603
389, 1, bw, filler, NA, 999, 999, 8, 8, 90, 137, 76, 188, 84, 121, 3, 0.388165
389, 1, bw, attraction, a-b-da, 14, 2, 8, 9, 165, 90, 90, 165, 153, 83, 2, 1.53878
389, 1, bw, attraction, a-b-da, 14, 2, 8, 9, 165, 90, 90, 165, 153, 83, 3, 0.747597
389, 1, bw, attraction, a-b-da, 5, 3, 8, 10, 190, 117, 195, 120, 120, 195, 3, 2.78718
389, 1, bw, attraction, a-b-da, 5, 3, 8, 10, 190, 117, 195, 120, 120, 195, 2, 0.794277
389, 1, bw, attraction, a-b-da, 5, 2, 8, 11, 161, 88, 90, 165, 165, 90, 3, 2.39202
389, 1, bw, attraction, a-b-da, 5, 2, 8, 11, 161, 88, 90, 165, 165, 90, 2, 1.00659
389, 1, bw, filler, NA, 999, 999, 8, 12, 155, 78, 105, 167, 109, 177, 3, 1.86027
389, 1, bw, filler, NA, 999, 999, 8, 12, 155, 78, 105, 167, 109, 177, 1, 0.520235
389, 1, bw, filler, NA, 999, 999, 8, 13, 69, 119, 117, 147, 138, 142, 3, 0.777383
389, 1, bw, filler, NA, 999, 999, 8, 13, 69, 119, 117, 147, 138, 142, 1, 0.841056
389, 1, bw, attraction, a-b-da, 2, 1, 8, 14, 135, 60, 60, 135, 134, 59, 3, 2.12475
389, 1, bw, attraction, a-b-da, 2, 1, 8, 14, 135, 60, 60, 135, 134, 59, 2, 0.534027
389, 1, bw, filler, NA, 999, 999, 8, 15, 61, 115, 175, 182, 177, 171, 3, 0.974437
389, 1, bw, filler, NA, 999, 999, 8, 15, 61, 115, 175, 182, 177, 171, 1, 1.21422
389, 1, bw, attraction, a-b-db, 5, 1, 8, 16, 135, 60, 60, 135, 58, 132, 1, 1.98719
389, 1, bw, attraction, a-b-db, 5, 1, 8, 16, 135, 60, 60, 135, 58, 132, 3, 1.15439
389, 1, bw, filler, NA, 999, 999, 8, 17, 179, 65, 177, 192, 186, 130, 2, 1.18601
389, 1, bw, filler, NA, 999, 999, 8, 17, 179, 65, 177, 192, 186, 130, 1, 0.937563
389, 1, bw, filler, NA, 999, 999, 8, 18, 163, 72, 168, 70, 69, 135, 1, 1.96186
389, 1, bw, filler, NA, 999, 999, 8, 18, 163, 72, 168, 70, 69, 135, 3, 1.49793
389, 1, bw, catch, NA, 999, 999, 8, 19, 147, 168, 102, 153, 92, 103, 1, 0.82744
389, 1, bw, catch, NA, 999, 999, 8, 19, 147, 168, 102, 153, 92, 103, 3, 0.465125
389, 1, bw, attraction, a-b-da, 14, 3, 8, 20, 120, 195, 181, 111, 195, 120, 3, 1.97225
389, 1, bw, attraction, a-b-da, 14, 3, 8, 20, 120, 195, 181, 111, 195, 120, 1, 1.01968
389, 1, bw, attraction, a-b-db, 2, 1, 8, 21, 135, 60, 60, 135, 59, 134, 1, 2.64063
389, 1, bw, attraction, a-b-db, 2, 1, 8, 21, 135, 60, 60, 135, 59, 134, 3, 0.565161
389, 1, bw, attraction, a-b-da, 2, 3, 8, 22, 193, 119, 195, 120, 120, 195, 3, 6.25211
389, 1, bw, attraction, a-b-da, 2, 3, 8, 22, 193, 119, 195, 120, 120, 195, 1, 0.575508
389, 1, bw, attraction, a-b-db, 2, 2, 8, 23, 165, 90, 90, 165, 89, 163, 2, 1.20588
389, 1, bw, attraction, a-b-db, 2, 2, 8, 23, 165, 90, 90, 165, 89, 163, 1, 0.572176
389, 1, bw, attraction, a-b-db, 9, 2, 8, 24, 86, 157, 90, 165, 165, 90, 2, 2.65132
389, 1, bw, attraction, a-b-db, 9, 2, 8, 24, 86, 157, 90, 165, 165, 90, 3, 0.367738
389, 1, bw, filler, NA, 999, 999, 8, 25, 85, 102, 73, 97, 136, 128, 3, 0.910878
389, 1, bw, filler, NA, 999, 999, 8, 25, 85, 102, 73, 97, 136, 128, 2, 0.705275
389, 1, bw, catch, NA, 999, 999, 8, 26, 114, 81, 156, 159, 147, 108, 2, 0.666987
389, 1, bw, catch, NA, 999, 999, 8, 26, 114, 81, 156, 159, 147, 108, 1, 0.38338
389, 1, bw, attraction, a-b-db, 14, 2, 8, 27, 165, 90, 83, 153, 90, 165, 1, 0.910009
389, 1, bw, attraction, a-b-db, 14, 2, 8, 27, 165, 90, 83, 153, 90, 165, 2, 0.360158
389, 1, bw, filler, NA, 999, 999, 8, 28, 144, 178, 161, 114, 137, 179, 1, 1.13548
389, 1, bw, filler, NA, 999, 999, 8, 28, 144, 178, 161, 114, 137, 179, 2, 0.329129
389, 1, bw, attraction, a-b-db, 14, 1, 8, 29, 60, 135, 56, 125, 135, 60, 3, 1.10561
389, 1, bw, attraction, a-b-db, 14, 1, 8, 29, 60, 135, 56, 125, 135, 60, 2, 1.33187
389, 1, bw, attraction, a-b-db, 5, 3, 8, 30, 120, 195, 195, 120, 117, 190, 2, 1.95605
389, 1, bw, attraction, a-b-db, 5, 3, 8, 30, 120, 195, 195, 120, 117, 190, 3, 0.924103
389, 1, bw, attraction, a-b-da, 9, 3, 8, 31, 195, 120, 186, 114, 120, 195, 1, 2.97245
389, 1, bw, attraction, a-b-da, 9, 3, 8, 31, 195, 120, 186, 114, 120, 195, 2, 0.323398
389, 1, bw, attraction, a-b-da, 2, 2, 8, 32, 90, 165, 163, 89, 165, 90, 3, 2.45193
389, 1, bw, attraction, a-b-da, 2, 2, 8, 32, 90, 165, 163, 89, 165, 90, 2, 0.680523
389, 1, bw, filler, NA, 999, 999, 8, 33, 172, 147, 191, 102, 86, 161, 1, 1.28296
389, 1, bw, filler, NA, 999, 999, 8, 33, 172, 147, 191, 102, 86, 161, 3, 0.486448
389, 1, bw, attraction, a-b-da, 9, 2, 8, 34, 90, 165, 165, 90, 157, 86, 1, 4.72889
389, 1, bw, attraction, a-b-da, 9, 2, 8, 34, 90, 165, 165, 90, 157, 86, 3, 0.545349
389, 1, bw, attraction, a-b-db, 9, 3, 8, 35, 195, 120, 120, 195, 114, 186, 2, 2.3452
389, 1, bw, attraction, a-b-db, 9, 3, 8, 35, 195, 120, 120, 195, 114, 186, 1, 0.321668
389, 1, bw, attraction, a-b-da, 14, 1, 8, 36, 125, 56, 135, 60, 60, 135, 2, 2.051
389, 1, bw, attraction, a-b-da, 14, 1, 8, 36, 125, 56, 135, 60, 60, 135, 1, 0.751635
389, 1, bw, attraction, a-b-db, 5, 2, 8, 37, 90, 165, 88, 161, 165, 90, 3, 1.07132
389, 1, bw, attraction, a-b-db, 5, 2, 8, 37, 90, 165, 88, 161, 165, 90, 2, 0.723591
