sub_n, computer_n, bw_cond, effect, set, distance, diag, block_n, trial_n, h1, w1, h2, w2, h3, w3, choice, rt 
37, 1, bw, practice, NA, 999, 999, 0, 1, 161, 143, 105, 180, 97, 156, 1, 7.32055
37, 1, bw, practice, NA, 999, 999, 0, 1, 161, 143, 105, 180, 97, 156, 3, 9.63549
37, 1, bw, practice, NA, 999, 999, 0, 2, 123, 189, 128, 152, 136, 130, 1, 4.52897
37, 1, bw, practice, NA, 999, 999, 0, 2, 123, 189, 128, 152, 136, 130, 3, 3.01892
37, 1, bw, practice, NA, 999, 999, 0, 3, 123, 133, 124, 100, 90, 87, 1, 2.23767
37, 1, bw, practice, NA, 999, 999, 0, 3, 123, 133, 124, 100, 90, 87, 3, 1.68896
37, 1, bw, attraction, a-b-da, 5, 1, 1, 1, 135, 60, 132, 58, 60, 135, 3, 2.21094
37, 1, bw, attraction, a-b-da, 5, 1, 1, 1, 135, 60, 132, 58, 60, 135, 2, 2.93673
37, 1, bw, attraction, a-b-db, 5, 2, 1, 2, 88, 161, 90, 165, 165, 90, 2, 2.50446
37, 1, bw, attraction, a-b-db, 5, 2, 1, 2, 88, 161, 90, 165, 165, 90, 1, 2.69102
37, 1, bw, attraction, a-b-db, 14, 1, 1, 3, 60, 135, 56, 125, 135, 60, 3, 2.8681
37, 1, bw, attraction, a-b-db, 14, 1, 1, 3, 60, 135, 56, 125, 135, 60, 2, 1.43197
37, 1, bw, attraction, a-b-db, 5, 1, 1, 4, 60, 135, 58, 132, 135, 60, 1, 2.26008
37, 1, bw, attraction, a-b-db, 5, 1, 1, 4, 60, 135, 58, 132, 135, 60, 2, 3.06394
37, 1, bw, attraction, a-b-db, 14, 3, 1, 5, 120, 195, 195, 120, 111, 181, 1, 3.91422
37, 1, bw, attraction, a-b-db, 14, 3, 1, 5, 120, 195, 195, 120, 111, 181, 3, 1.51576
37, 1, bw, attraction, a-b-da, 5, 3, 1, 6, 190, 117, 120, 195, 195, 120, 2, 3.55656
37, 1, bw, attraction, a-b-da, 5, 3, 1, 6, 190, 117, 120, 195, 195, 120, 1, 1.00406
37, 1, bw, attraction, a-b-da, 14, 1, 1, 7, 135, 60, 60, 135, 125, 56, 2, 2.52961
37, 1, bw, attraction, a-b-da, 14, 1, 1, 7, 135, 60, 60, 135, 125, 56, 3, 1.82691
37, 1, bw, attraction, a-b-da, 2, 1, 1, 8, 135, 60, 60, 135, 134, 59, 3, 1.8549
37, 1, bw, attraction, a-b-da, 2, 1, 1, 8, 135, 60, 60, 135, 134, 59, 2, 2.60282
37, 1, bw, attraction, a-b-db, 14, 2, 1, 9, 90, 165, 83, 153, 165, 90, 1, 2.00806
37, 1, bw, attraction, a-b-db, 14, 2, 1, 9, 90, 165, 83, 153, 165, 90, 2, 1.15012
37, 1, bw, attraction, a-b-db, 2, 2, 1, 10, 90, 165, 89, 163, 165, 90, 2, 8.9977
37, 1, bw, attraction, a-b-db, 2, 2, 1, 10, 90, 165, 89, 163, 165, 90, 1, 0.84211
37, 1, bw, attraction, a-b-db, 9, 2, 1, 11, 86, 157, 90, 165, 165, 90, 2, 1.30176
37, 1, bw, attraction, a-b-db, 9, 2, 1, 11, 86, 157, 90, 165, 165, 90, 1, 0.504814
37, 1, bw, catch, NA, 999, 999, 1, 12, 102, 93, 119, 136, 167, 148, 3, 2.25852
37, 1, bw, catch, NA, 999, 999, 1, 12, 102, 93, 119, 136, 167, 148, 1, 0.870387
37, 1, bw, attraction, a-b-da, 9, 1, 1, 13, 129, 57, 60, 135, 135, 60, 2, 2.30554
37, 1, bw, attraction, a-b-da, 9, 1, 1, 13, 129, 57, 60, 135, 135, 60, 1, 0.835476
37, 1, bw, filler, NA, 999, 999, 1, 14, 144, 121, 84, 144, 195, 56, 1, 1.06376
37, 1, bw, filler, NA, 999, 999, 1, 14, 144, 121, 84, 144, 195, 56, 2, 1.22798
37, 1, bw, filler, NA, 999, 999, 1, 15, 71, 192, 176, 131, 112, 160, 2, 1.13621
37, 1, bw, filler, NA, 999, 999, 1, 15, 71, 192, 176, 131, 112, 160, 3, 2.19388
37, 1, bw, filler, NA, 999, 999, 1, 16, 154, 134, 72, 76, 192, 159, 3, 1.82308
37, 1, bw, filler, NA, 999, 999, 1, 16, 154, 134, 72, 76, 192, 159, 2, 0.636523
37, 1, bw, attraction, a-b-da, 14, 3, 1, 17, 120, 195, 195, 120, 181, 111, 2, 1.44888
37, 1, bw, attraction, a-b-da, 14, 3, 1, 17, 120, 195, 195, 120, 181, 111, 3, 1.10977
37, 1, bw, catch, NA, 999, 999, 1, 18, 76, 119, 148, 167, 154, 101, 2, 0.606695
37, 1, bw, catch, NA, 999, 999, 1, 18, 76, 119, 148, 167, 154, 101, 1, 0.525152
37, 1, bw, filler, NA, 999, 999, 1, 19, 80, 70, 92, 63, 81, 146, 3, 0.997683
37, 1, bw, filler, NA, 999, 999, 1, 19, 80, 70, 92, 63, 81, 146, 1, 0.908778
37, 1, bw, catch, NA, 999, 999, 1, 20, 139, 116, 129, 66, 169, 146, 3, 0.789527
37, 1, bw, catch, NA, 999, 999, 1, 20, 139, 116, 129, 66, 169, 146, 1, 0.420576
37, 1, bw, attraction, a-b-db, 2, 3, 1, 21, 119, 193, 120, 195, 195, 120, 2, 2.92185
37, 1, bw, attraction, a-b-db, 2, 3, 1, 21, 119, 193, 120, 195, 195, 120, 1, 0.563607
37, 1, bw, attraction, a-b-db, 5, 3, 1, 22, 120, 195, 195, 120, 117, 190, 2, 1.45864
37, 1, bw, attraction, a-b-db, 5, 3, 1, 22, 120, 195, 195, 120, 117, 190, 3, 0.550727
37, 1, bw, filler, NA, 999, 999, 1, 23, 81, 180, 78, 189, 77, 67, 1, 1.49455
37, 1, bw, filler, NA, 999, 999, 1, 23, 81, 180, 78, 189, 77, 67, 3, 0.793391
37, 1, bw, filler, NA, 999, 999, 1, 24, 139, 133, 119, 130, 146, 56, 1, 1.10301
37, 1, bw, filler, NA, 999, 999, 1, 24, 139, 133, 119, 130, 146, 56, 3, 1.03408
37, 1, bw, attraction, a-b-da, 9, 3, 1, 25, 195, 120, 120, 195, 186, 114, 2, 1.48633
37, 1, bw, attraction, a-b-da, 9, 3, 1, 25, 195, 120, 120, 195, 186, 114, 1, 0.473818
37, 1, bw, attraction, a-b-da, 9, 2, 1, 26, 90, 165, 157, 86, 165, 90, 3, 0.828294
37, 1, bw, attraction, a-b-da, 9, 2, 1, 26, 90, 165, 157, 86, 165, 90, 2, 0.842043
37, 1, bw, attraction, a-b-da, 5, 2, 1, 27, 165, 90, 161, 88, 90, 165, 2, 1.37378
37, 1, bw, attraction, a-b-da, 5, 2, 1, 27, 165, 90, 161, 88, 90, 165, 3, 0.421326
37, 1, bw, filler, NA, 999, 999, 1, 28, 172, 107, 56, 176, 72, 89, 1, 0.586318
37, 1, bw, filler, NA, 999, 999, 1, 28, 172, 107, 56, 176, 72, 89, 3, 0.418132
37, 1, bw, attraction, a-b-da, 2, 2, 1, 29, 165, 90, 163, 89, 90, 165, 3, 0.847398
37, 1, bw, attraction, a-b-da, 2, 2, 1, 29, 165, 90, 163, 89, 90, 165, 1, 0.844506
37, 1, bw, attraction, a-b-db, 9, 1, 1, 30, 60, 135, 57, 129, 135, 60, 1, 2.28004
37, 1, bw, attraction, a-b-db, 9, 1, 1, 30, 60, 135, 57, 129, 135, 60, 2, 0.403274
37, 1, bw, attraction, a-b-db, 2, 1, 1, 31, 60, 135, 59, 134, 135, 60, 2, 1.04106
37, 1, bw, attraction, a-b-db, 2, 1, 1, 31, 60, 135, 59, 134, 135, 60, 3, 0.430227
37, 1, bw, filler, NA, 999, 999, 1, 32, 146, 94, 154, 77, 171, 63, 1, 0.930665
37, 1, bw, filler, NA, 999, 999, 1, 32, 146, 94, 154, 77, 171, 63, 3, 1.1643
37, 1, bw, attraction, a-b-db, 9, 3, 1, 33, 195, 120, 114, 186, 120, 195, 1, 1.47515
37, 1, bw, attraction, a-b-db, 9, 3, 1, 33, 195, 120, 114, 186, 120, 195, 2, 0.654617
37, 1, bw, attraction, a-b-da, 2, 3, 1, 34, 120, 195, 193, 119, 195, 120, 1, 1.26638
37, 1, bw, attraction, a-b-da, 2, 3, 1, 34, 120, 195, 193, 119, 195, 120, 3, 0.542691
37, 1, bw, filler, NA, 999, 999, 1, 35, 152, 81, 172, 173, 79, 181, 2, 0.646441
37, 1, bw, filler, NA, 999, 999, 1, 35, 152, 81, 172, 173, 79, 181, 1, 0.33955
37, 1, bw, filler, NA, 999, 999, 1, 36, 68, 186, 140, 173, 97, 57, 2, 0.604078
37, 1, bw, filler, NA, 999, 999, 1, 36, 68, 186, 140, 173, 97, 57, 3, 0.667148
37, 1, bw, attraction, a-b-da, 14, 2, 1, 37, 90, 165, 165, 90, 153, 83, 1, 0.854132
37, 1, bw, attraction, a-b-da, 14, 2, 1, 37, 90, 165, 165, 90, 153, 83, 3, 0.651324
37, 1, bw, attraction, a-b-da, 5, 1, 2, 1, 60, 135, 132, 58, 135, 60, 3, 0.886934
37, 1, bw, attraction, a-b-da, 5, 1, 2, 1, 60, 135, 132, 58, 135, 60, 1, 0.36263
37, 1, bw, attraction, a-b-da, 5, 2, 2, 2, 165, 90, 90, 165, 161, 88, 2, 1.61783
37, 1, bw, attraction, a-b-da, 5, 2, 2, 2, 165, 90, 90, 165, 161, 88, 1, 0.335929
37, 1, bw, catch, NA, 999, 999, 2, 3, 111, 84, 121, 194, 163, 92, 2, 0.536458
37, 1, bw, catch, NA, 999, 999, 2, 3, 111, 84, 121, 194, 163, 92, 1, 0.402428
37, 1, bw, attraction, a-b-da, 14, 3, 2, 4, 195, 120, 120, 195, 181, 111, 1, 0.752253
37, 1, bw, attraction, a-b-da, 14, 3, 2, 4, 195, 120, 120, 195, 181, 111, 3, 0.769252
37, 1, bw, attraction, a-b-db, 14, 3, 2, 5, 111, 181, 120, 195, 195, 120, 2, 0.680228
37, 1, bw, attraction, a-b-db, 14, 3, 2, 5, 111, 181, 120, 195, 195, 120, 1, 0.339965
37, 1, bw, filler, NA, 999, 999, 2, 6, 160, 73, 182, 171, 90, 117, 2, 1.23583
37, 1, bw, filler, NA, 999, 999, 2, 6, 160, 73, 182, 171, 90, 117, 3, 0.329377
37, 1, bw, attraction, a-b-da, 9, 1, 2, 7, 135, 60, 60, 135, 129, 57, 1, 0.873934
37, 1, bw, attraction, a-b-da, 9, 1, 2, 7, 135, 60, 60, 135, 129, 57, 3, 0.50164
37, 1, bw, attraction, a-b-da, 2, 2, 2, 8, 90, 165, 163, 89, 165, 90, 2, 1.50344
37, 1, bw, attraction, a-b-da, 2, 2, 2, 8, 90, 165, 163, 89, 165, 90, 1, 0.418328
37, 1, bw, filler, NA, 999, 999, 2, 9, 144, 115, 148, 183, 103, 66, 2, 0.51141
37, 1, bw, filler, NA, 999, 999, 2, 9, 144, 115, 148, 183, 103, 66, 3, 0.337876
37, 1, bw, attraction, a-b-da, 2, 3, 2, 10, 120, 195, 195, 120, 193, 119, 3, 0.858387
37, 1, bw, attraction, a-b-da, 2, 3, 2, 10, 120, 195, 195, 120, 193, 119, 1, 0.294743
37, 1, bw, attraction, a-b-db, 9, 3, 2, 11, 195, 120, 114, 186, 120, 195, 1, 1.08066
37, 1, bw, attraction, a-b-db, 9, 3, 2, 11, 195, 120, 114, 186, 120, 195, 3, 0.428247
37, 1, bw, attraction, a-b-db, 5, 3, 2, 12, 195, 120, 120, 195, 117, 190, 2, 0.760816
37, 1, bw, attraction, a-b-db, 5, 3, 2, 12, 195, 120, 120, 195, 117, 190, 1, 0.289021
37, 1, bw, catch, NA, 999, 999, 2, 13, 108, 147, 166, 149, 87, 108, 2, 0.507634
37, 1, bw, catch, NA, 999, 999, 2, 13, 108, 147, 166, 149, 87, 108, 3, 0.246157
37, 1, bw, filler, NA, 999, 999, 2, 14, 167, 138, 144, 110, 189, 163, 3, 0.722
37, 1, bw, filler, NA, 999, 999, 2, 14, 167, 138, 144, 110, 189, 163, 2, 0.28375
37, 1, bw, attraction, a-b-da, 5, 3, 2, 15, 195, 120, 120, 195, 190, 117, 2, 0.934294
37, 1, bw, attraction, a-b-da, 5, 3, 2, 15, 195, 120, 120, 195, 190, 117, 1, 0.271934
37, 1, bw, filler, NA, 999, 999, 2, 16, 165, 159, 108, 69, 71, 132, 1, 0.691045
37, 1, bw, filler, NA, 999, 999, 2, 16, 165, 159, 108, 69, 71, 132, 2, 0.350133
37, 1, bw, attraction, a-b-db, 14, 1, 2, 17, 60, 135, 135, 60, 56, 125, 2, 0.822027
37, 1, bw, attraction, a-b-db, 14, 1, 2, 17, 60, 135, 135, 60, 56, 125, 1, 0.283816
37, 1, bw, attraction, a-b-db, 5, 2, 2, 18, 88, 161, 90, 165, 165, 90, 3, 1.85424
37, 1, bw, attraction, a-b-db, 5, 2, 2, 18, 88, 161, 90, 165, 165, 90, 1, 0.690923
37, 1, bw, filler, NA, 999, 999, 2, 19, 99, 175, 125, 124, 186, 175, 3, 0.492726
37, 1, bw, filler, NA, 999, 999, 2, 19, 99, 175, 125, 124, 186, 175, 2, 0.319961
37, 1, bw, attraction, a-b-db, 2, 3, 2, 20, 120, 195, 195, 120, 119, 193, 2, 3.40107
37, 1, bw, attraction, a-b-db, 2, 3, 2, 20, 120, 195, 195, 120, 119, 193, 3, 0.687404
37, 1, bw, attraction, a-b-db, 9, 1, 2, 21, 57, 129, 60, 135, 135, 60, 3, 0.913697
37, 1, bw, attraction, a-b-db, 9, 1, 2, 21, 57, 129, 60, 135, 135, 60, 1, 0.868026
37, 1, bw, filler, NA, 999, 999, 2, 22, 114, 83, 109, 72, 68, 109, 1, 0.743051
37, 1, bw, filler, NA, 999, 999, 2, 22, 114, 83, 109, 72, 68, 109, 2, 1.10411
37, 1, bw, attraction, a-b-da, 9, 2, 2, 23, 90, 165, 165, 90, 157, 86, 1, 1.64986
37, 1, bw, attraction, a-b-da, 9, 2, 2, 23, 90, 165, 165, 90, 157, 86, 3, 0.470495
37, 1, bw, attraction, a-b-db, 14, 2, 2, 24, 90, 165, 165, 90, 83, 153, 2, 0.86563
37, 1, bw, attraction, a-b-db, 14, 2, 2, 24, 90, 165, 165, 90, 83, 153, 1, 0.646022
37, 1, bw, attraction, a-b-db, 2, 1, 2, 25, 135, 60, 60, 135, 59, 134, 1, 0.753772
37, 1, bw, attraction, a-b-db, 2, 1, 2, 25, 135, 60, 60, 135, 59, 134, 2, 0.578964
37, 1, bw, attraction, a-b-da, 14, 2, 2, 26, 153, 83, 165, 90, 90, 165, 3, 1.2493
37, 1, bw, attraction, a-b-da, 14, 2, 2, 26, 153, 83, 165, 90, 90, 165, 1, 1.05421
37, 1, bw, filler, NA, 999, 999, 2, 27, 171, 112, 169, 84, 73, 92, 1, 0.817762
37, 1, bw, filler, NA, 999, 999, 2, 27, 171, 112, 169, 84, 73, 92, 3, 0.744208
37, 1, bw, attraction, a-b-da, 14, 1, 2, 28, 135, 60, 125, 56, 60, 135, 3, 1.04791
37, 1, bw, attraction, a-b-da, 14, 1, 2, 28, 135, 60, 125, 56, 60, 135, 2, 0.468961
37, 1, bw, attraction, a-b-da, 9, 3, 2, 29, 195, 120, 186, 114, 120, 195, 3, 3.5679
37, 1, bw, attraction, a-b-da, 9, 3, 2, 29, 195, 120, 186, 114, 120, 195, 2, 0.775494
37, 1, bw, attraction, a-b-db, 5, 1, 2, 30, 58, 132, 135, 60, 60, 135, 2, 2.0692
37, 1, bw, attraction, a-b-db, 5, 1, 2, 30, 58, 132, 135, 60, 60, 135, 1, 0.817996
37, 1, bw, attraction, a-b-da, 2, 1, 2, 31, 135, 60, 60, 135, 134, 59, 2, 0.895056
37, 1, bw, attraction, a-b-da, 2, 1, 2, 31, 135, 60, 60, 135, 134, 59, 1, 0.809937
37, 1, bw, filler, NA, 999, 999, 2, 32, 134, 124, 94, 177, 95, 60, 2, 0.583025
37, 1, bw, filler, NA, 999, 999, 2, 32, 134, 124, 94, 177, 95, 60, 3, 0.446794
37, 1, bw, attraction, a-b-db, 9, 2, 2, 33, 86, 157, 165, 90, 90, 165, 3, 0.978467
37, 1, bw, attraction, a-b-db, 9, 2, 2, 33, 86, 157, 165, 90, 90, 165, 1, 0.754315
37, 1, bw, filler, NA, 999, 999, 2, 34, 173, 132, 59, 124, 57, 68, 1, 0.737942
37, 1, bw, filler, NA, 999, 999, 2, 34, 173, 132, 59, 124, 57, 68, 3, 0.474959
37, 1, bw, catch, NA, 999, 999, 2, 35, 127, 68, 151, 164, 123, 132, 2, 0.549446
37, 1, bw, catch, NA, 999, 999, 2, 35, 127, 68, 151, 164, 123, 132, 1, 0.470576
37, 1, bw, filler, NA, 999, 999, 2, 36, 65, 76, 57, 134, 190, 59, 3, 0.92977
37, 1, bw, filler, NA, 999, 999, 2, 36, 65, 76, 57, 134, 190, 59, 1, 0.379339
37, 1, bw, attraction, a-b-db, 2, 2, 2, 37, 90, 165, 89, 163, 165, 90, 2, 1.52184
37, 1, bw, attraction, a-b-db, 2, 2, 2, 37, 90, 165, 89, 163, 165, 90, 3, 0.331495
37, 1, bw, attraction, a-b-db, 2, 1, 3, 1, 135, 60, 60, 135, 59, 134, 1, 1.9719
37, 1, bw, attraction, a-b-db, 2, 1, 3, 1, 135, 60, 60, 135, 59, 134, 2, 0.347202
37, 1, bw, filler, NA, 999, 999, 3, 2, 111, 69, 63, 184, 94, 67, 2, 0.795138
37, 1, bw, filler, NA, 999, 999, 3, 2, 111, 69, 63, 184, 94, 67, 3, 0.674205
37, 1, bw, catch, NA, 999, 999, 3, 3, 62, 133, 115, 140, 168, 147, 3, 0.940494
37, 1, bw, catch, NA, 999, 999, 3, 3, 62, 133, 115, 140, 168, 147, 1, 0.397552
37, 1, bw, attraction, a-b-db, 14, 2, 3, 4, 90, 165, 83, 153, 165, 90, 1, 0.803423
37, 1, bw, attraction, a-b-db, 14, 2, 3, 4, 90, 165, 83, 153, 165, 90, 2, 0.746452
37, 1, bw, filler, NA, 999, 999, 3, 5, 88, 171, 64, 168, 178, 102, 1, 0.546172
37, 1, bw, filler, NA, 999, 999, 3, 5, 88, 171, 64, 168, 178, 102, 2, 0.355322
37, 1, bw, attraction, a-b-da, 14, 1, 3, 6, 135, 60, 125, 56, 60, 135, 1, 2.24314
37, 1, bw, attraction, a-b-da, 14, 1, 3, 6, 135, 60, 125, 56, 60, 135, 2, 1.25573
37, 1, bw, attraction, a-b-db, 2, 3, 3, 7, 120, 195, 195, 120, 119, 193, 2, 1.24331
37, 1, bw, attraction, a-b-db, 2, 3, 3, 7, 120, 195, 195, 120, 119, 193, 1, 0.576123
37, 1, bw, attraction, a-b-db, 14, 1, 3, 8, 135, 60, 56, 125, 60, 135, 1, 1.0306
37, 1, bw, attraction, a-b-db, 14, 1, 3, 8, 135, 60, 56, 125, 60, 135, 2, 0.844295
37, 1, bw, attraction, a-b-db, 2, 2, 3, 9, 90, 165, 165, 90, 89, 163, 1, 2.01589
37, 1, bw, attraction, a-b-db, 2, 2, 3, 9, 90, 165, 165, 90, 89, 163, 2, 0.694093
37, 1, bw, filler, NA, 999, 999, 3, 10, 101, 134, 174, 170, 172, 103, 2, 0.767594
37, 1, bw, filler, NA, 999, 999, 3, 10, 101, 134, 174, 170, 172, 103, 1, 0.447976
37, 1, bw, attraction, a-b-db, 5, 1, 3, 11, 135, 60, 58, 132, 60, 135, 1, 1.00379
37, 1, bw, attraction, a-b-db, 5, 1, 3, 11, 135, 60, 58, 132, 60, 135, 3, 0.467028
37, 1, bw, filler, NA, 999, 999, 3, 12, 122, 168, 107, 158, 172, 152, 3, 1.06995
37, 1, bw, filler, NA, 999, 999, 3, 12, 122, 168, 107, 158, 172, 152, 2, 0.595859
37, 1, bw, attraction, a-b-da, 2, 3, 3, 13, 195, 120, 193, 119, 120, 195, 1, 0.943997
37, 1, bw, attraction, a-b-da, 2, 3, 3, 13, 195, 120, 193, 119, 120, 195, 2, 0.881002
37, 1, bw, attraction, a-b-da, 9, 2, 3, 14, 165, 90, 90, 165, 157, 86, 1, 0.747351
37, 1, bw, attraction, a-b-da, 9, 2, 3, 14, 165, 90, 90, 165, 157, 86, 2, 0.516334
37, 1, bw, filler, NA, 999, 999, 3, 15, 99, 155, 167, 95, 171, 168, 3, 1.46153
37, 1, bw, filler, NA, 999, 999, 3, 15, 99, 155, 167, 95, 171, 168, 1, 1.23387
37, 1, bw, filler, NA, 999, 999, 3, 16, 145, 170, 73, 140, 112, 101, 1, 1.16612
37, 1, bw, filler, NA, 999, 999, 3, 16, 145, 170, 73, 140, 112, 101, 3, 0.358353
37, 1, bw, filler, NA, 999, 999, 3, 17, 150, 58, 84, 59, 172, 151, 3, 0.709461
37, 1, bw, filler, NA, 999, 999, 3, 17, 150, 58, 84, 59, 172, 151, 2, 0.335834
37, 1, bw, attraction, a-b-db, 5, 3, 3, 18, 195, 120, 120, 195, 117, 190, 1, 0.584341
37, 1, bw, attraction, a-b-db, 5, 3, 3, 18, 195, 120, 120, 195, 117, 190, 2, 0.304255
37, 1, bw, attraction, a-b-db, 9, 1, 3, 19, 135, 60, 60, 135, 57, 129, 1, 0.489967
37, 1, bw, attraction, a-b-db, 9, 1, 3, 19, 135, 60, 60, 135, 57, 129, 3, 0.325146
37, 1, bw, attraction, a-b-da, 9, 3, 3, 20, 120, 195, 186, 114, 195, 120, 1, 0.429595
37, 1, bw, attraction, a-b-da, 9, 3, 3, 20, 120, 195, 186, 114, 195, 120, 3, 0.707463
37, 1, bw, catch, NA, 999, 999, 3, 21, 134, 181, 100, 95, 145, 110, 1, 0.684471
37, 1, bw, catch, NA, 999, 999, 3, 21, 134, 181, 100, 95, 145, 110, 2, 0.312231
37, 1, bw, catch, NA, 999, 999, 3, 22, 162, 93, 175, 140, 68, 127, 2, 0.833413
37, 1, bw, catch, NA, 999, 999, 3, 22, 162, 93, 175, 140, 68, 127, 3, 0.663138
37, 1, bw, filler, NA, 999, 999, 3, 23, 73, 56, 176, 142, 100, 114, 2, 0.538316
37, 1, bw, filler, NA, 999, 999, 3, 23, 73, 56, 176, 142, 100, 114, 1, 0.355293
37, 1, bw, attraction, a-b-da, 9, 1, 3, 24, 129, 57, 135, 60, 60, 135, 1, 0.883185
37, 1, bw, attraction, a-b-da, 9, 1, 3, 24, 129, 57, 135, 60, 60, 135, 2, 0.311011
37, 1, bw, attraction, a-b-da, 2, 1, 3, 25, 60, 135, 135, 60, 134, 59, 1, 0.504
37, 1, bw, attraction, a-b-da, 2, 1, 3, 25, 60, 135, 135, 60, 134, 59, 2, 0.299263
37, 1, bw, attraction, a-b-da, 5, 3, 3, 26, 120, 195, 195, 120, 190, 117, 1, 0.453079
37, 1, bw, attraction, a-b-da, 5, 3, 3, 26, 120, 195, 195, 120, 190, 117, 3, 0.282324
37, 1, bw, attraction, a-b-da, 14, 2, 3, 27, 153, 83, 165, 90, 90, 165, 1, 0.508869
37, 1, bw, attraction, a-b-da, 14, 2, 3, 27, 153, 83, 165, 90, 90, 165, 2, 0.247393
37, 1, bw, attraction, a-b-db, 9, 3, 3, 28, 120, 195, 114, 186, 195, 120, 1, 2.12333
37, 1, bw, attraction, a-b-db, 9, 3, 3, 28, 120, 195, 114, 186, 195, 120, 2, 0.460541
37, 1, bw, attraction, a-b-db, 14, 3, 3, 29, 120, 195, 111, 181, 195, 120, 1, 1.59158
37, 1, bw, attraction, a-b-db, 14, 3, 3, 29, 120, 195, 111, 181, 195, 120, 3, 1.26243
37, 1, bw, attraction, a-b-da, 5, 1, 3, 30, 135, 60, 60, 135, 132, 58, 2, 1.16925
37, 1, bw, attraction, a-b-da, 5, 1, 3, 30, 135, 60, 60, 135, 132, 58, 1, 0.433456
37, 1, bw, attraction, a-b-db, 5, 2, 3, 31, 165, 90, 88, 161, 90, 165, 1, 0.654039
37, 1, bw, attraction, a-b-db, 5, 2, 3, 31, 165, 90, 88, 161, 90, 165, 2, 0.307047
37, 1, bw, attraction, a-b-da, 2, 2, 3, 32, 90, 165, 163, 89, 165, 90, 1, 0.538828
37, 1, bw, attraction, a-b-da, 2, 2, 3, 32, 90, 165, 163, 89, 165, 90, 2, 0.285471
37, 1, bw, attraction, a-b-db, 9, 2, 3, 33, 165, 90, 90, 165, 86, 157, 1, 0.456001
37, 1, bw, attraction, a-b-db, 9, 2, 3, 33, 165, 90, 90, 165, 86, 157, 3, 0.396417
37, 1, bw, filler, NA, 999, 999, 3, 34, 165, 131, 131, 193, 192, 118, 2, 1.25816
37, 1, bw, filler, NA, 999, 999, 3, 34, 165, 131, 131, 193, 192, 118, 1, 0.342519
37, 1, bw, attraction, a-b-da, 5, 2, 3, 35, 90, 165, 165, 90, 161, 88, 1, 0.622327
37, 1, bw, attraction, a-b-da, 5, 2, 3, 35, 90, 165, 165, 90, 161, 88, 3, 0.684203
37, 1, bw, attraction, a-b-da, 14, 3, 3, 36, 120, 195, 181, 111, 195, 120, 1, 0.510468
37, 1, bw, attraction, a-b-da, 14, 3, 3, 36, 120, 195, 181, 111, 195, 120, 2, 1.68907
37, 1, bw, filler, NA, 999, 999, 3, 37, 131, 86, 97, 162, 114, 185, 3, 0.779047
37, 1, bw, filler, NA, 999, 999, 3, 37, 131, 86, 97, 162, 114, 185, 1, 0.426883
37, 1, bw, catch, NA, 999, 999, 4, 1, 120, 195, 110, 85, 142, 113, 1, 0.591212
37, 1, bw, catch, NA, 999, 999, 4, 1, 120, 195, 110, 85, 142, 113, 2, 0.294366
37, 1, bw, filler, NA, 999, 999, 4, 2, 133, 127, 140, 63, 107, 114, 1, 0.528213
37, 1, bw, filler, NA, 999, 999, 4, 2, 133, 127, 140, 63, 107, 114, 2, 4.058
37, 1, bw, catch, NA, 999, 999, 4, 3, 145, 170, 142, 113, 107, 88, 1, 0.54006
37, 1, bw, catch, NA, 999, 999, 4, 3, 145, 170, 142, 113, 107, 88, 3, 0.469165
37, 1, bw, attraction, a-b-da, 2, 1, 4, 4, 135, 60, 60, 135, 134, 59, 1, 0.576294
37, 1, bw, attraction, a-b-da, 2, 1, 4, 4, 135, 60, 60, 135, 134, 59, 2, 0.384084
37, 1, bw, attraction, a-b-da, 5, 3, 4, 5, 195, 120, 120, 195, 190, 117, 1, 0.478788
37, 1, bw, attraction, a-b-da, 5, 3, 4, 5, 195, 120, 120, 195, 190, 117, 2, 0.39459
37, 1, bw, filler, NA, 999, 999, 4, 6, 170, 57, 147, 129, 110, 74, 2, 0.824224
37, 1, bw, filler, NA, 999, 999, 4, 6, 170, 57, 147, 129, 110, 74, 3, 0.421967
37, 1, bw, attraction, a-b-db, 5, 2, 4, 7, 90, 165, 165, 90, 88, 161, 1, 0.57098
37, 1, bw, attraction, a-b-db, 5, 2, 4, 7, 90, 165, 165, 90, 88, 161, 2, 0.243678
37, 1, bw, attraction, a-b-da, 14, 1, 4, 8, 125, 56, 135, 60, 60, 135, 2, 0.551424
37, 1, bw, attraction, a-b-da, 14, 1, 4, 8, 125, 56, 135, 60, 60, 135, 1, 0.320483
37, 1, bw, attraction, a-b-db, 2, 2, 4, 9, 90, 165, 89, 163, 165, 90, 1, 1.12966
37, 1, bw, attraction, a-b-db, 2, 2, 4, 9, 90, 165, 89, 163, 165, 90, 3, 0.355386
37, 1, bw, filler, NA, 999, 999, 4, 10, 106, 111, 118, 104, 83, 91, 1, 1.69921
37, 1, bw, filler, NA, 999, 999, 4, 10, 106, 111, 118, 104, 83, 91, 3, 0.589969
37, 1, bw, attraction, a-b-db, 9, 1, 4, 11, 60, 135, 135, 60, 57, 129, 2, 0.900424
37, 1, bw, attraction, a-b-db, 9, 1, 4, 11, 60, 135, 135, 60, 57, 129, 1, 0.38345
37, 1, bw, attraction, a-b-db, 5, 1, 4, 12, 60, 135, 58, 132, 135, 60, 3, 1.18982
37, 1, bw, attraction, a-b-db, 5, 1, 4, 12, 60, 135, 58, 132, 135, 60, 2, 0.428899
37, 1, bw, attraction, a-b-db, 9, 2, 4, 13, 86, 157, 165, 90, 90, 165, 2, 0.865357
37, 1, bw, attraction, a-b-db, 9, 2, 4, 13, 86, 157, 165, 90, 90, 165, 1, 0.373698
37, 1, bw, filler, NA, 999, 999, 4, 14, 82, 124, 155, 144, 104, 145, 2, 0.700168
37, 1, bw, filler, NA, 999, 999, 4, 14, 82, 124, 155, 144, 104, 145, 1, 0.351411
37, 1, bw, attraction, a-b-db, 14, 2, 4, 15, 90, 165, 165, 90, 83, 153, 1, 0.967155
37, 1, bw, attraction, a-b-db, 14, 2, 4, 15, 90, 165, 165, 90, 83, 153, 3, 0.335377
37, 1, bw, attraction, a-b-db, 14, 1, 4, 16, 56, 125, 135, 60, 60, 135, 1, 0.816032
37, 1, bw, attraction, a-b-db, 14, 1, 4, 16, 56, 125, 135, 60, 60, 135, 3, 0.318264
37, 1, bw, attraction, a-b-db, 5, 3, 4, 17, 120, 195, 195, 120, 117, 190, 2, 0.543466
37, 1, bw, attraction, a-b-db, 5, 3, 4, 17, 120, 195, 195, 120, 117, 190, 1, 0.376573
37, 1, bw, attraction, a-b-da, 14, 3, 4, 18, 195, 120, 181, 111, 120, 195, 3, 0.727056
37, 1, bw, attraction, a-b-da, 14, 3, 4, 18, 195, 120, 181, 111, 120, 195, 2, 0.544812
37, 1, bw, filler, NA, 999, 999, 4, 19, 59, 159, 131, 111, 191, 182, 3, 1.03267
37, 1, bw, filler, NA, 999, 999, 4, 19, 59, 159, 131, 111, 191, 182, 1, 0.430243
37, 1, bw, filler, NA, 999, 999, 4, 20, 151, 87, 113, 71, 181, 179, 3, 1.31472
37, 1, bw, filler, NA, 999, 999, 4, 20, 151, 87, 113, 71, 181, 179, 2, 0.308994
37, 1, bw, attraction, a-b-da, 5, 2, 4, 21, 165, 90, 90, 165, 161, 88, 1, 0.790274
37, 1, bw, attraction, a-b-da, 5, 2, 4, 21, 165, 90, 90, 165, 161, 88, 3, 0.54929
37, 1, bw, attraction, a-b-db, 2, 3, 4, 22, 119, 193, 195, 120, 120, 195, 1, 1.10108
37, 1, bw, attraction, a-b-db, 2, 3, 4, 22, 119, 193, 195, 120, 120, 195, 2, 0.248066
37, 1, bw, attraction, a-b-da, 9, 2, 4, 23, 157, 86, 165, 90, 90, 165, 3, 0.731889
37, 1, bw, attraction, a-b-da, 9, 2, 4, 23, 157, 86, 165, 90, 90, 165, 2, 0.269654
37, 1, bw, filler, NA, 999, 999, 4, 24, 182, 159, 163, 178, 158, 123, 2, 0.752683
37, 1, bw, filler, NA, 999, 999, 4, 24, 182, 159, 163, 178, 158, 123, 3, 0.33019
37, 1, bw, attraction, a-b-da, 5, 1, 4, 25, 60, 135, 132, 58, 135, 60, 1, 0.538325
37, 1, bw, attraction, a-b-da, 5, 1, 4, 25, 60, 135, 132, 58, 135, 60, 2, 0.235432
37, 1, bw, attraction, a-b-da, 2, 3, 4, 26, 193, 119, 120, 195, 195, 120, 2, 0.568055
37, 1, bw, attraction, a-b-da, 2, 3, 4, 26, 193, 119, 120, 195, 195, 120, 3, 0.296576
37, 1, bw, attraction, a-b-db, 2, 1, 4, 27, 60, 135, 135, 60, 59, 134, 1, 0.666363
37, 1, bw, attraction, a-b-db, 2, 1, 4, 27, 60, 135, 135, 60, 59, 134, 2, 0.294875
37, 1, bw, attraction, a-b-da, 2, 2, 4, 28, 90, 165, 163, 89, 165, 90, 2, 0.904633
37, 1, bw, attraction, a-b-da, 2, 2, 4, 28, 90, 165, 163, 89, 165, 90, 3, 0.298932
37, 1, bw, attraction, a-b-db, 14, 3, 4, 29, 111, 181, 195, 120, 120, 195, 1, 0.452754
37, 1, bw, attraction, a-b-db, 14, 3, 4, 29, 111, 181, 195, 120, 120, 195, 2, 0.233971
37, 1, bw, filler, NA, 999, 999, 4, 30, 143, 182, 192, 131, 141, 99, 2, 0.630569
37, 1, bw, filler, NA, 999, 999, 4, 30, 143, 182, 192, 131, 141, 99, 3, 0.412341
37, 1, bw, attraction, a-b-da, 14, 2, 4, 31, 153, 83, 165, 90, 90, 165, 3, 1.83341
37, 1, bw, attraction, a-b-da, 14, 2, 4, 31, 153, 83, 165, 90, 90, 165, 1, 0.350787
37, 1, bw, attraction, a-b-da, 9, 3, 4, 32, 195, 120, 186, 114, 120, 195, 1, 1.55866
37, 1, bw, attraction, a-b-da, 9, 3, 4, 32, 195, 120, 186, 114, 120, 195, 3, 0.36683
37, 1, bw, attraction, a-b-da, 9, 1, 4, 33, 129, 57, 60, 135, 135, 60, 1, 0.725951
37, 1, bw, attraction, a-b-da, 9, 1, 4, 33, 129, 57, 60, 135, 135, 60, 2, 0.527847
37, 1, bw, attraction, a-b-db, 9, 3, 4, 34, 114, 186, 195, 120, 120, 195, 3, 0.744323
37, 1, bw, attraction, a-b-db, 9, 3, 4, 34, 114, 186, 195, 120, 120, 195, 2, 0.257222
37, 1, bw, catch, NA, 999, 999, 4, 35, 165, 150, 165, 90, 84, 111, 1, 0.580392
37, 1, bw, catch, NA, 999, 999, 4, 35, 165, 150, 165, 90, 84, 111, 3, 0.716325
37, 1, bw, filler, NA, 999, 999, 4, 36, 156, 99, 94, 105, 148, 113, 1, 0.517265
37, 1, bw, filler, NA, 999, 999, 4, 36, 156, 99, 94, 105, 148, 113, 2, 0.375861
37, 1, bw, filler, NA, 999, 999, 4, 37, 61, 111, 185, 131, 192, 113, 2, 0.870232
37, 1, bw, filler, NA, 999, 999, 4, 37, 61, 111, 185, 131, 192, 113, 1, 0.370611
37, 1, bw, attraction, a-b-db, 5, 3, 5, 1, 195, 120, 117, 190, 120, 195, 2, 2.03233
37, 1, bw, attraction, a-b-db, 5, 3, 5, 1, 195, 120, 117, 190, 120, 195, 1, 0.317897
37, 1, bw, catch, NA, 999, 999, 5, 2, 143, 172, 100, 95, 100, 155, 1, 1.71104
37, 1, bw, catch, NA, 999, 999, 5, 2, 143, 172, 100, 95, 100, 155, 2, 0.697033
37, 1, bw, attraction, a-b-db, 14, 1, 5, 3, 60, 135, 135, 60, 56, 125, 2, 0.810762
37, 1, bw, attraction, a-b-db, 14, 1, 5, 3, 60, 135, 135, 60, 56, 125, 3, 0.369118
37, 1, bw, attraction, a-b-db, 2, 3, 5, 4, 120, 195, 195, 120, 119, 193, 2, 0.62426
37, 1, bw, attraction, a-b-db, 2, 3, 5, 4, 120, 195, 195, 120, 119, 193, 3, 0.334104
37, 1, bw, attraction, a-b-da, 5, 1, 5, 5, 132, 58, 135, 60, 60, 135, 1, 0.51067
37, 1, bw, attraction, a-b-da, 5, 1, 5, 5, 132, 58, 135, 60, 60, 135, 3, 0.521178
37, 1, bw, attraction, a-b-da, 2, 3, 5, 6, 193, 119, 195, 120, 120, 195, 2, 0.474093
37, 1, bw, attraction, a-b-da, 2, 3, 5, 6, 193, 119, 195, 120, 120, 195, 1, 0.262064
37, 1, bw, attraction, a-b-da, 2, 1, 5, 7, 134, 59, 135, 60, 60, 135, 1, 0.745169
37, 1, bw, attraction, a-b-da, 2, 1, 5, 7, 134, 59, 135, 60, 60, 135, 2, 0.362253
37, 1, bw, attraction, a-b-db, 9, 3, 5, 8, 120, 195, 195, 120, 114, 186, 2, 1.04141
37, 1, bw, attraction, a-b-db, 9, 3, 5, 8, 120, 195, 195, 120, 114, 186, 3, 0.270367
37, 1, bw, filler, NA, 999, 999, 5, 9, 159, 156, 162, 87, 194, 146, 3, 0.905596
37, 1, bw, filler, NA, 999, 999, 5, 9, 159, 156, 162, 87, 194, 146, 2, 0.339963
37, 1, bw, attraction, a-b-db, 5, 1, 5, 10, 58, 132, 60, 135, 135, 60, 2, 0.699819
37, 1, bw, attraction, a-b-db, 5, 1, 5, 10, 58, 132, 60, 135, 135, 60, 1, 0.278852
37, 1, bw, catch, NA, 999, 999, 5, 11, 126, 129, 91, 104, 153, 162, 3, 0.609324
37, 1, bw, catch, NA, 999, 999, 5, 11, 126, 129, 91, 104, 153, 162, 2, 0.287769
37, 1, bw, attraction, a-b-da, 9, 1, 5, 12, 135, 60, 60, 135, 129, 57, 2, 0.730376
37, 1, bw, attraction, a-b-da, 9, 1, 5, 12, 135, 60, 60, 135, 129, 57, 3, 0.348053
37, 1, bw, filler, NA, 999, 999, 5, 13, 132, 95, 161, 172, 69, 161, 2, 0.507973
37, 1, bw, filler, NA, 999, 999, 5, 13, 132, 95, 161, 172, 69, 161, 1, 0.294833
37, 1, bw, attraction, a-b-da, 14, 3, 5, 14, 120, 195, 181, 111, 195, 120, 3, 1.24032
37, 1, bw, attraction, a-b-da, 14, 3, 5, 14, 120, 195, 181, 111, 195, 120, 2, 0.637167
37, 1, bw, attraction, a-b-da, 5, 3, 5, 15, 195, 120, 190, 117, 120, 195, 3, 7.48152
37, 1, bw, attraction, a-b-da, 5, 3, 5, 15, 195, 120, 190, 117, 120, 195, 2, 0.37919
37, 1, bw, attraction, a-b-da, 14, 1, 5, 16, 125, 56, 135, 60, 60, 135, 2, 0.713745
37, 1, bw, attraction, a-b-da, 14, 1, 5, 16, 125, 56, 135, 60, 60, 135, 1, 0.284158
37, 1, bw, attraction, a-b-db, 5, 2, 5, 17, 88, 161, 90, 165, 165, 90, 2, 0.502683
37, 1, bw, attraction, a-b-db, 5, 2, 5, 17, 88, 161, 90, 165, 165, 90, 3, 0.273771
37, 1, bw, filler, NA, 999, 999, 5, 18, 187, 182, 189, 193, 194, 110, 2, 0.492457
37, 1, bw, filler, NA, 999, 999, 5, 18, 187, 182, 189, 193, 194, 110, 3, 0.271415
37, 1, bw, attraction, a-b-db, 2, 1, 5, 19, 135, 60, 60, 135, 59, 134, 1, 0.878765
37, 1, bw, attraction, a-b-db, 2, 1, 5, 19, 135, 60, 60, 135, 59, 134, 2, 0.358337
37, 1, bw, filler, NA, 999, 999, 5, 20, 159, 134, 132, 69, 159, 68, 1, 0.453558
37, 1, bw, filler, NA, 999, 999, 5, 20, 159, 134, 132, 69, 159, 68, 2, 0.29071
37, 1, bw, catch, NA, 999, 999, 5, 21, 153, 162, 74, 121, 95, 160, 1, 0.412531
37, 1, bw, catch, NA, 999, 999, 5, 21, 153, 162, 74, 121, 95, 160, 2, 0.659126
37, 1, bw, filler, NA, 999, 999, 5, 22, 74, 72, 87, 138, 147, 150, 2, 0.614131
37, 1, bw, filler, NA, 999, 999, 5, 22, 74, 72, 87, 138, 147, 150, 1, 0.332553
37, 1, bw, attraction, a-b-da, 9, 3, 5, 23, 186, 114, 195, 120, 120, 195, 3, 0.853151
37, 1, bw, attraction, a-b-da, 9, 3, 5, 23, 186, 114, 195, 120, 120, 195, 2, 0.354141
37, 1, bw, attraction, a-b-da, 5, 2, 5, 24, 165, 90, 161, 88, 90, 165, 1, 0.513932
37, 1, bw, attraction, a-b-da, 5, 2, 5, 24, 165, 90, 161, 88, 90, 165, 2, 0.260419
37, 1, bw, attraction, a-b-da, 2, 2, 5, 25, 165, 90, 163, 89, 90, 165, 1, 0.407536
37, 1, bw, attraction, a-b-da, 2, 2, 5, 25, 165, 90, 163, 89, 90, 165, 2, 0.246197
37, 1, bw, attraction, a-b-da, 14, 2, 5, 26, 165, 90, 153, 83, 90, 165, 3, 0.377984
37, 1, bw, attraction, a-b-da, 14, 2, 5, 26, 165, 90, 153, 83, 90, 165, 2, 0.281836
37, 1, bw, filler, NA, 999, 999, 5, 27, 183, 137, 102, 162, 63, 123, 2, 1.0283
37, 1, bw, filler, NA, 999, 999, 5, 27, 183, 137, 102, 162, 63, 123, 3, 0.282174
37, 1, bw, attraction, a-b-db, 14, 3, 5, 28, 111, 181, 195, 120, 120, 195, 3, 0.820537
37, 1, bw, attraction, a-b-db, 14, 3, 5, 28, 111, 181, 195, 120, 120, 195, 1, 0.866892
37, 1, bw, attraction, a-b-da, 9, 2, 5, 29, 157, 86, 165, 90, 90, 165, 2, 0.469909
37, 1, bw, attraction, a-b-da, 9, 2, 5, 29, 157, 86, 165, 90, 90, 165, 3, 0.354479
37, 1, bw, filler, NA, 999, 999, 5, 30, 96, 144, 153, 126, 190, 66, 2, 0.842654
37, 1, bw, filler, NA, 999, 999, 5, 30, 96, 144, 153, 126, 190, 66, 3, 2.93549
37, 1, bw, filler, NA, 999, 999, 5, 31, 81, 100, 76, 76, 195, 133, 3, 1.27104
37, 1, bw, filler, NA, 999, 999, 5, 31, 81, 100, 76, 76, 195, 133, 2, 0.354511
37, 1, bw, attraction, a-b-db, 2, 2, 5, 32, 90, 165, 89, 163, 165, 90, 2, 1.01046
37, 1, bw, attraction, a-b-db, 2, 2, 5, 32, 90, 165, 89, 163, 165, 90, 3, 0.632775
37, 1, bw, attraction, a-b-db, 14, 2, 5, 33, 83, 153, 165, 90, 90, 165, 1, 0.613182
37, 1, bw, attraction, a-b-db, 14, 2, 5, 33, 83, 153, 165, 90, 90, 165, 2, 0.883642
37, 1, bw, attraction, a-b-db, 9, 2, 5, 34, 165, 90, 90, 165, 86, 157, 1, 1.64591
37, 1, bw, attraction, a-b-db, 9, 2, 5, 34, 165, 90, 90, 165, 86, 157, 3, 0.490777
37, 1, bw, attraction, a-b-db, 9, 1, 5, 35, 135, 60, 60, 135, 57, 129, 1, 0.75653
37, 1, bw, attraction, a-b-db, 9, 1, 5, 35, 135, 60, 60, 135, 57, 129, 3, 0.604881
37, 1, bw, filler, NA, 999, 999, 5, 36, 100, 170, 73, 166, 159, 91, 1, 0.602639
37, 1, bw, filler, NA, 999, 999, 5, 36, 100, 170, 73, 166, 159, 91, 2, 0.601808
37, 1, bw, filler, NA, 999, 999, 5, 37, 172, 137, 144, 143, 190, 154, 1, 0.43953
37, 1, bw, filler, NA, 999, 999, 5, 37, 172, 137, 144, 143, 190, 154, 3, 0.556751
37, 1, bw, attraction, a-b-da, 2, 3, 6, 1, 120, 195, 193, 119, 195, 120, 2, 0.547709
37, 1, bw, attraction, a-b-da, 2, 3, 6, 1, 120, 195, 193, 119, 195, 120, 3, 0.324944
37, 1, bw, attraction, a-b-da, 2, 1, 6, 2, 134, 59, 60, 135, 135, 60, 1, 0.557387
37, 1, bw, attraction, a-b-da, 2, 1, 6, 2, 134, 59, 60, 135, 135, 60, 2, 0.325821
37, 1, bw, catch, NA, 999, 999, 6, 3, 103, 152, 146, 169, 134, 61, 2, 1.07046
37, 1, bw, catch, NA, 999, 999, 6, 3, 103, 152, 146, 169, 134, 61, 3, 0.546797
37, 1, bw, catch, NA, 999, 999, 6, 4, 118, 77, 124, 191, 91, 164, 2, 0.65038
37, 1, bw, catch, NA, 999, 999, 6, 4, 118, 77, 124, 191, 91, 164, 1, 0.343617
37, 1, bw, attraction, a-b-da, 14, 2, 6, 5, 165, 90, 153, 83, 90, 165, 1, 0.767494
37, 1, bw, attraction, a-b-da, 14, 2, 6, 5, 165, 90, 153, 83, 90, 165, 2, 0.375934
37, 1, bw, catch, NA, 999, 999, 6, 6, 144, 111, 70, 125, 133, 182, 1, 0.606358
37, 1, bw, catch, NA, 999, 999, 6, 6, 144, 111, 70, 125, 133, 182, 2, 0.900845
37, 1, bw, filler, NA, 999, 999, 6, 7, 118, 73, 177, 163, 135, 72, 2, 0.630348
37, 1, bw, filler, NA, 999, 999, 6, 7, 118, 73, 177, 163, 135, 72, 1, 0.356187
37, 1, bw, attraction, a-b-db, 9, 2, 6, 8, 86, 157, 90, 165, 165, 90, 2, 0.628068
37, 1, bw, attraction, a-b-db, 9, 2, 6, 8, 86, 157, 90, 165, 165, 90, 1, 1.2258
37, 1, bw, filler, NA, 999, 999, 6, 9, 81, 68, 65, 58, 149, 80, 3, 0.918007
37, 1, bw, filler, NA, 999, 999, 6, 9, 81, 68, 65, 58, 149, 80, 2, 0.576368
37, 1, bw, attraction, a-b-db, 5, 3, 6, 10, 195, 120, 120, 195, 117, 190, 2, 0.982824
37, 1, bw, attraction, a-b-db, 5, 3, 6, 10, 195, 120, 120, 195, 117, 190, 1, 0.358398
37, 1, bw, filler, NA, 999, 999, 6, 11, 146, 94, 56, 57, 166, 118, 3, 0.69363
37, 1, bw, filler, NA, 999, 999, 6, 11, 146, 94, 56, 57, 166, 118, 2, 0.728766
37, 1, bw, attraction, a-b-db, 5, 1, 6, 12, 135, 60, 58, 132, 60, 135, 2, 0.60116
37, 1, bw, attraction, a-b-db, 5, 1, 6, 12, 135, 60, 58, 132, 60, 135, 3, 1.08832
37, 1, bw, attraction, a-b-da, 9, 3, 6, 13, 186, 114, 195, 120, 120, 195, 3, 1.03445
37, 1, bw, attraction, a-b-da, 9, 3, 6, 13, 186, 114, 195, 120, 120, 195, 2, 0.944131
37, 1, bw, filler, NA, 999, 999, 6, 14, 108, 125, 184, 157, 125, 60, 2, 0.663865
37, 1, bw, filler, NA, 999, 999, 6, 14, 108, 125, 184, 157, 125, 60, 1, 0.444219
37, 1, bw, attraction, a-b-da, 5, 1, 6, 15, 135, 60, 60, 135, 132, 58, 1, 0.821508
37, 1, bw, attraction, a-b-da, 5, 1, 6, 15, 135, 60, 60, 135, 132, 58, 2, 0.693701
37, 1, bw, attraction, a-b-da, 14, 1, 6, 16, 135, 60, 125, 56, 60, 135, 2, 0.895463
37, 1, bw, attraction, a-b-da, 14, 1, 6, 16, 135, 60, 125, 56, 60, 135, 1, 0.858515
37, 1, bw, attraction, a-b-db, 2, 1, 6, 17, 59, 134, 60, 135, 135, 60, 2, 0.517515
37, 1, bw, attraction, a-b-db, 2, 1, 6, 17, 59, 134, 60, 135, 135, 60, 3, 0.351952
37, 1, bw, attraction, a-b-db, 9, 3, 6, 18, 195, 120, 114, 186, 120, 195, 2, 0.863767
37, 1, bw, attraction, a-b-db, 9, 3, 6, 18, 195, 120, 114, 186, 120, 195, 1, 0.308134
37, 1, bw, attraction, a-b-db, 9, 1, 6, 19, 60, 135, 135, 60, 57, 129, 1, 0.837297
37, 1, bw, attraction, a-b-db, 9, 1, 6, 19, 60, 135, 135, 60, 57, 129, 2, 0.266339
37, 1, bw, filler, NA, 999, 999, 6, 20, 107, 126, 77, 94, 192, 131, 3, 1.15753
37, 1, bw, filler, NA, 999, 999, 6, 20, 107, 126, 77, 94, 192, 131, 2, 0.333846
37, 1, bw, filler, NA, 999, 999, 6, 21, 170, 123, 65, 124, 72, 137, 1, 0.630307
37, 1, bw, filler, NA, 999, 999, 6, 21, 170, 123, 65, 124, 72, 137, 2, 0.452066
37, 1, bw, attraction, a-b-da, 5, 3, 6, 22, 120, 195, 195, 120, 190, 117, 2, 0.663963
37, 1, bw, attraction, a-b-da, 5, 3, 6, 22, 120, 195, 195, 120, 190, 117, 3, 0.284452
37, 1, bw, attraction, a-b-db, 14, 1, 6, 23, 60, 135, 56, 125, 135, 60, 1, 0.878915
37, 1, bw, attraction, a-b-db, 14, 1, 6, 23, 60, 135, 56, 125, 135, 60, 2, 0.626655
37, 1, bw, attraction, a-b-db, 14, 2, 6, 24, 165, 90, 83, 153, 90, 165, 2, 0.695019
37, 1, bw, attraction, a-b-db, 14, 2, 6, 24, 165, 90, 83, 153, 90, 165, 1, 0.314032
37, 1, bw, attraction, a-b-db, 14, 3, 6, 25, 120, 195, 195, 120, 111, 181, 1, 1.0514
37, 1, bw, attraction, a-b-db, 14, 3, 6, 25, 120, 195, 195, 120, 111, 181, 3, 0.464321
37, 1, bw, attraction, a-b-db, 5, 2, 6, 26, 88, 161, 165, 90, 90, 165, 2, 4.41946
37, 1, bw, attraction, a-b-db, 5, 2, 6, 26, 88, 161, 165, 90, 90, 165, 1, 1.01671
37, 1, bw, attraction, a-b-da, 9, 2, 6, 27, 165, 90, 90, 165, 157, 86, 1, 1.02162
37, 1, bw, attraction, a-b-da, 9, 2, 6, 27, 165, 90, 90, 165, 157, 86, 3, 0.875293
37, 1, bw, attraction, a-b-da, 9, 1, 6, 28, 129, 57, 135, 60, 60, 135, 2, 1.63751
37, 1, bw, attraction, a-b-da, 9, 1, 6, 28, 129, 57, 135, 60, 60, 135, 1, 0.595756
37, 1, bw, attraction, a-b-da, 14, 3, 6, 29, 195, 120, 120, 195, 181, 111, 1, 0.984804
37, 1, bw, attraction, a-b-da, 14, 3, 6, 29, 195, 120, 120, 195, 181, 111, 3, 0.512595
37, 1, bw, attraction, a-b-db, 2, 3, 6, 30, 195, 120, 120, 195, 119, 193, 1, 0.769654
37, 1, bw, attraction, a-b-db, 2, 3, 6, 30, 195, 120, 120, 195, 119, 193, 2, 0.577971
37, 1, bw, filler, NA, 999, 999, 6, 31, 138, 182, 126, 180, 126, 81, 1, 0.928462
37, 1, bw, filler, NA, 999, 999, 6, 31, 138, 182, 126, 180, 126, 81, 3, 0.498113
37, 1, bw, filler, NA, 999, 999, 6, 32, 172, 77, 110, 88, 98, 91, 1, 0.619867
37, 1, bw, filler, NA, 999, 999, 6, 32, 172, 77, 110, 88, 98, 91, 2, 0.418332
37, 1, bw, filler, NA, 999, 999, 6, 33, 187, 64, 83, 155, 140, 159, 3, 1.29561
37, 1, bw, filler, NA, 999, 999, 6, 33, 187, 64, 83, 155, 140, 159, 1, 0.394462
37, 1, bw, filler, NA, 999, 999, 6, 34, 168, 154, 122, 176, 88, 65, 1, 0.832178
37, 1, bw, filler, NA, 999, 999, 6, 34, 168, 154, 122, 176, 88, 65, 3, 0.709979
37, 1, bw, attraction, a-b-da, 5, 2, 6, 35, 90, 165, 161, 88, 165, 90, 3, 0.95099
37, 1, bw, attraction, a-b-da, 5, 2, 6, 35, 90, 165, 161, 88, 165, 90, 1, 0.664074
37, 1, bw, attraction, a-b-da, 2, 2, 6, 36, 163, 89, 165, 90, 90, 165, 1, 0.859008
37, 1, bw, attraction, a-b-da, 2, 2, 6, 36, 163, 89, 165, 90, 90, 165, 3, 0.399553
37, 1, bw, attraction, a-b-db, 2, 2, 6, 37, 165, 90, 90, 165, 89, 163, 1, 0.541195
37, 1, bw, attraction, a-b-db, 2, 2, 6, 37, 165, 90, 90, 165, 89, 163, 3, 0.478377
37, 1, bw, attraction, a-b-da, 9, 2, 7, 1, 157, 86, 165, 90, 90, 165, 2, 1.11284
37, 1, bw, attraction, a-b-da, 9, 2, 7, 1, 157, 86, 165, 90, 90, 165, 1, 0.355082
37, 1, bw, attraction, a-b-db, 2, 2, 7, 2, 165, 90, 89, 163, 90, 165, 1, 0.754914
37, 1, bw, attraction, a-b-db, 2, 2, 7, 2, 165, 90, 89, 163, 90, 165, 2, 0.323347
37, 1, bw, filler, NA, 999, 999, 7, 3, 95, 170, 106, 141, 193, 76, 3, 0.668201
37, 1, bw, filler, NA, 999, 999, 7, 3, 95, 170, 106, 141, 193, 76, 1, 0.352186
37, 1, bw, attraction, a-b-db, 2, 3, 7, 4, 195, 120, 120, 195, 119, 193, 1, 1.11213
37, 1, bw, attraction, a-b-db, 2, 3, 7, 4, 195, 120, 120, 195, 119, 193, 2, 0.370374
37, 1, bw, catch, NA, 999, 999, 7, 5, 170, 145, 87, 108, 104, 151, 1, 0.713569
37, 1, bw, catch, NA, 999, 999, 7, 5, 170, 145, 87, 108, 104, 151, 2, 0.707976
37, 1, bw, attraction, a-b-db, 14, 2, 7, 6, 83, 153, 165, 90, 90, 165, 2, 0.589025
37, 1, bw, attraction, a-b-db, 14, 2, 7, 6, 83, 153, 165, 90, 90, 165, 1, 0.812157
37, 1, bw, filler, NA, 999, 999, 7, 7, 147, 174, 98, 97, 58, 174, 1, 0.489214
37, 1, bw, filler, NA, 999, 999, 7, 7, 147, 174, 98, 97, 58, 174, 2, 0.340456
37, 1, bw, catch, NA, 999, 999, 7, 8, 62, 133, 193, 122, 108, 147, 2, 0.964208
37, 1, bw, catch, NA, 999, 999, 7, 8, 62, 133, 193, 122, 108, 147, 1, 0.300477
37, 1, bw, catch, NA, 999, 999, 7, 9, 187, 128, 160, 95, 121, 74, 1, 0.950274
37, 1, bw, catch, NA, 999, 999, 7, 9, 187, 128, 160, 95, 121, 74, 3, 0.335338
37, 1, bw, filler, NA, 999, 999, 7, 10, 170, 89, 139, 97, 140, 109, 3, 0.799771
37, 1, bw, filler, NA, 999, 999, 7, 10, 170, 89, 139, 97, 140, 109, 2, 0.518958
37, 1, bw, filler, NA, 999, 999, 7, 11, 58, 146, 110, 122, 180, 123, 3, 0.664091
37, 1, bw, filler, NA, 999, 999, 7, 11, 58, 146, 110, 122, 180, 123, 1, 0.32446
37, 1, bw, attraction, a-b-db, 14, 3, 7, 12, 111, 181, 120, 195, 195, 120, 2, 1.22904
37, 1, bw, attraction, a-b-db, 14, 3, 7, 12, 111, 181, 120, 195, 195, 120, 1, 0.290478
37, 1, bw, attraction, a-b-db, 5, 3, 7, 13, 120, 195, 195, 120, 117, 190, 2, 1.65247
37, 1, bw, attraction, a-b-db, 5, 3, 7, 13, 120, 195, 195, 120, 117, 190, 3, 0.601309
37, 1, bw, filler, NA, 999, 999, 7, 14, 90, 140, 91, 126, 99, 160, 3, 1.37495
37, 1, bw, filler, NA, 999, 999, 7, 14, 90, 140, 91, 126, 99, 160, 2, 0.702452
37, 1, bw, attraction, a-b-da, 2, 1, 7, 15, 134, 59, 135, 60, 60, 135, 2, 0.736147
37, 1, bw, attraction, a-b-da, 2, 1, 7, 15, 134, 59, 135, 60, 60, 135, 1, 0.673977
37, 1, bw, attraction, a-b-da, 2, 3, 7, 16, 195, 120, 193, 119, 120, 195, 3, 1.0605
37, 1, bw, attraction, a-b-da, 2, 3, 7, 16, 195, 120, 193, 119, 120, 195, 1, 0.456598
37, 1, bw, filler, NA, 999, 999, 7, 17, 165, 75, 195, 72, 119, 138, 3, 1.31577
37, 1, bw, filler, NA, 999, 999, 7, 17, 165, 75, 195, 72, 119, 138, 2, 1.83807
37, 1, bw, attraction, a-b-db, 5, 1, 7, 18, 58, 132, 135, 60, 60, 135, 2, 2.03414
37, 1, bw, attraction, a-b-db, 5, 1, 7, 18, 58, 132, 135, 60, 60, 135, 3, 0.375415
37, 1, bw, attraction, a-b-da, 5, 1, 7, 19, 132, 58, 135, 60, 60, 135, 2, 1.58189
37, 1, bw, attraction, a-b-da, 5, 1, 7, 19, 132, 58, 135, 60, 60, 135, 1, 0.398373
37, 1, bw, filler, NA, 999, 999, 7, 20, 142, 112, 180, 93, 85, 136, 2, 1.69916
37, 1, bw, filler, NA, 999, 999, 7, 20, 142, 112, 180, 93, 85, 136, 3, 0.389909
37, 1, bw, attraction, a-b-db, 2, 1, 7, 21, 60, 135, 135, 60, 59, 134, 2, 0.947902
37, 1, bw, attraction, a-b-db, 2, 1, 7, 21, 60, 135, 135, 60, 59, 134, 1, 0.37272
37, 1, bw, attraction, a-b-db, 9, 2, 7, 22, 90, 165, 86, 157, 165, 90, 3, 0.739933
37, 1, bw, attraction, a-b-db, 9, 2, 7, 22, 90, 165, 86, 157, 165, 90, 1, 0.380955
37, 1, bw, attraction, a-b-da, 14, 3, 7, 23, 195, 120, 181, 111, 120, 195, 1, 0.707535
37, 1, bw, attraction, a-b-da, 14, 3, 7, 23, 195, 120, 181, 111, 120, 195, 2, 0.542032
37, 1, bw, filler, NA, 999, 999, 7, 24, 192, 132, 162, 89, 144, 132, 1, 0.733767
37, 1, bw, filler, NA, 999, 999, 7, 24, 192, 132, 162, 89, 144, 132, 2, 0.319462
37, 1, bw, attraction, a-b-db, 9, 1, 7, 25, 135, 60, 60, 135, 57, 129, 2, 0.896615
37, 1, bw, attraction, a-b-db, 9, 1, 7, 25, 135, 60, 60, 135, 57, 129, 1, 0.387604
37, 1, bw, attraction, a-b-da, 14, 1, 7, 26, 125, 56, 60, 135, 135, 60, 2, 0.810205
37, 1, bw, attraction, a-b-da, 14, 1, 7, 26, 125, 56, 60, 135, 135, 60, 3, 0.400522
37, 1, bw, attraction, a-b-db, 9, 3, 7, 27, 114, 186, 120, 195, 195, 120, 3, 0.726345
37, 1, bw, attraction, a-b-db, 9, 3, 7, 27, 114, 186, 120, 195, 195, 120, 1, 0.368105
37, 1, bw, attraction, a-b-da, 14, 2, 7, 28, 165, 90, 90, 165, 153, 83, 1, 0.743216
37, 1, bw, attraction, a-b-da, 14, 2, 7, 28, 165, 90, 90, 165, 153, 83, 3, 0.760374
37, 1, bw, filler, NA, 999, 999, 7, 29, 141, 88, 92, 138, 98, 97, 1, 0.887381
37, 1, bw, filler, NA, 999, 999, 7, 29, 141, 88, 92, 138, 98, 97, 3, 0.435152
37, 1, bw, filler, NA, 999, 999, 7, 30, 70, 172, 181, 189, 133, 169, 2, 0.855532
37, 1, bw, filler, NA, 999, 999, 7, 30, 70, 172, 181, 189, 133, 169, 1, 0.347941
37, 1, bw, attraction, a-b-da, 5, 3, 7, 31, 195, 120, 120, 195, 190, 117, 1, 2.01966
37, 1, bw, attraction, a-b-da, 5, 3, 7, 31, 195, 120, 120, 195, 190, 117, 3, 0.689732
37, 1, bw, attraction, a-b-da, 2, 2, 7, 32, 163, 89, 165, 90, 90, 165, 1, 2.32418
37, 1, bw, attraction, a-b-da, 2, 2, 7, 32, 163, 89, 165, 90, 90, 165, 3, 0.349358
37, 1, bw, attraction, a-b-da, 9, 3, 7, 33, 186, 114, 195, 120, 120, 195, 1, 0.565153
37, 1, bw, attraction, a-b-da, 9, 3, 7, 33, 186, 114, 195, 120, 120, 195, 2, 0.397702
37, 1, bw, attraction, a-b-da, 9, 1, 7, 34, 60, 135, 129, 57, 135, 60, 2, 1.39556
37, 1, bw, attraction, a-b-da, 9, 1, 7, 34, 60, 135, 129, 57, 135, 60, 1, 0.346498
37, 1, bw, attraction, a-b-db, 5, 2, 7, 35, 90, 165, 88, 161, 165, 90, 3, 1.06634
37, 1, bw, attraction, a-b-db, 5, 2, 7, 35, 90, 165, 88, 161, 165, 90, 1, 0.694588
37, 1, bw, attraction, a-b-da, 5, 2, 7, 36, 161, 88, 90, 165, 165, 90, 1, 0.800331
37, 1, bw, attraction, a-b-da, 5, 2, 7, 36, 161, 88, 90, 165, 165, 90, 3, 0.591357
37, 1, bw, attraction, a-b-db, 14, 1, 7, 37, 135, 60, 60, 135, 56, 125, 1, 0.972971
37, 1, bw, attraction, a-b-db, 14, 1, 7, 37, 135, 60, 60, 135, 56, 125, 3, 0.668648
37, 1, bw, catch, NA, 999, 999, 8, 1, 163, 152, 134, 61, 151, 104, 1, 0.895777
37, 1, bw, catch, NA, 999, 999, 8, 1, 163, 152, 134, 61, 151, 104, 2, 0.522914
37, 1, bw, attraction, a-b-db, 14, 2, 8, 2, 83, 153, 90, 165, 165, 90, 2, 1.33988
37, 1, bw, attraction, a-b-db, 14, 2, 8, 2, 83, 153, 90, 165, 165, 90, 1, 0.612973
37, 1, bw, attraction, a-b-db, 5, 1, 8, 3, 60, 135, 58, 132, 135, 60, 1, 0.729898
37, 1, bw, attraction, a-b-db, 5, 1, 8, 3, 60, 135, 58, 132, 135, 60, 3, 0.611674
37, 1, bw, filler, NA, 999, 999, 8, 4, 56, 102, 92, 159, 153, 151, 3, 0.936759
37, 1, bw, filler, NA, 999, 999, 8, 4, 56, 102, 92, 159, 153, 151, 1, 0.418457
37, 1, bw, attraction, a-b-db, 9, 2, 8, 5, 165, 90, 86, 157, 90, 165, 1, 0.791502
37, 1, bw, attraction, a-b-db, 9, 2, 8, 5, 165, 90, 86, 157, 90, 165, 3, 0.406649
37, 1, bw, attraction, a-b-db, 2, 3, 8, 6, 119, 193, 120, 195, 195, 120, 3, 0.907692
37, 1, bw, attraction, a-b-db, 2, 3, 8, 6, 119, 193, 120, 195, 195, 120, 1, 0.374147
37, 1, bw, attraction, a-b-da, 2, 2, 8, 7, 163, 89, 165, 90, 90, 165, 1, 0.812526
37, 1, bw, attraction, a-b-da, 2, 2, 8, 7, 163, 89, 165, 90, 90, 165, 3, 0.443025
37, 1, bw, filler, NA, 999, 999, 8, 8, 137, 79, 80, 193, 140, 165, 2, 0.486762
37, 1, bw, filler, NA, 999, 999, 8, 8, 137, 79, 80, 193, 140, 165, 1, 0.634565
37, 1, bw, filler, NA, 999, 999, 8, 9, 172, 77, 78, 68, 124, 104, 1, 0.831001
37, 1, bw, filler, NA, 999, 999, 8, 9, 172, 77, 78, 68, 124, 104, 2, 0.348674
37, 1, bw, attraction, a-b-da, 2, 3, 8, 10, 195, 120, 120, 195, 193, 119, 2, 0.84466
37, 1, bw, attraction, a-b-da, 2, 3, 8, 10, 195, 120, 120, 195, 193, 119, 1, 0.313563
37, 1, bw, attraction, a-b-da, 14, 2, 8, 11, 90, 165, 165, 90, 153, 83, 2, 0.714971
37, 1, bw, attraction, a-b-da, 14, 2, 8, 11, 90, 165, 165, 90, 153, 83, 1, 0.357172
37, 1, bw, filler, NA, 999, 999, 8, 12, 171, 187, 173, 75, 110, 163, 1, 0.53232
37, 1, bw, filler, NA, 999, 999, 8, 12, 171, 187, 173, 75, 110, 163, 2, 0.326121
37, 1, bw, attraction, a-b-db, 5, 3, 8, 13, 195, 120, 117, 190, 120, 195, 2, 1.09474
37, 1, bw, attraction, a-b-db, 5, 3, 8, 13, 195, 120, 117, 190, 120, 195, 1, 1.89776
37, 1, bw, filler, NA, 999, 999, 8, 14, 73, 115, 67, 104, 118, 93, 3, 3.53895
37, 1, bw, filler, NA, 999, 999, 8, 14, 73, 115, 67, 104, 118, 93, 2, 0.355194
37, 1, bw, attraction, a-b-db, 5, 2, 8, 15, 88, 161, 90, 165, 165, 90, 2, 14.2909
37, 1, bw, attraction, a-b-db, 5, 2, 8, 15, 88, 161, 90, 165, 165, 90, 1, 0.57865
37, 1, bw, attraction, a-b-da, 5, 1, 8, 16, 60, 135, 132, 58, 135, 60, 1, 0.617011
37, 1, bw, attraction, a-b-da, 5, 1, 8, 16, 60, 135, 132, 58, 135, 60, 2, 0.279479
37, 1, bw, attraction, a-b-db, 14, 1, 8, 17, 60, 135, 135, 60, 56, 125, 1, 0.546012
37, 1, bw, attraction, a-b-db, 14, 1, 8, 17, 60, 135, 135, 60, 56, 125, 2, 0.259125
37, 1, bw, attraction, a-b-da, 9, 3, 8, 18, 195, 120, 186, 114, 120, 195, 2, 0.478394
37, 1, bw, attraction, a-b-da, 9, 3, 8, 18, 195, 120, 186, 114, 120, 195, 1, 0.234142
37, 1, bw, attraction, a-b-db, 14, 3, 8, 19, 111, 181, 195, 120, 120, 195, 3, 0.454673
37, 1, bw, attraction, a-b-db, 14, 3, 8, 19, 111, 181, 195, 120, 120, 195, 2, 0.307857
37, 1, bw, filler, NA, 999, 999, 8, 20, 85, 187, 148, 101, 144, 183, 3, 0.468935
37, 1, bw, filler, NA, 999, 999, 8, 20, 85, 187, 148, 101, 144, 183, 2, 0.353416
37, 1, bw, attraction, a-b-da, 5, 3, 8, 21, 195, 120, 190, 117, 120, 195, 1, 0.529266
37, 1, bw, attraction, a-b-da, 5, 3, 8, 21, 195, 120, 190, 117, 120, 195, 2, 0.627223
37, 1, bw, attraction, a-b-da, 9, 1, 8, 22, 135, 60, 60, 135, 129, 57, 2, 35.8075
37, 1, bw, attraction, a-b-da, 9, 1, 8, 22, 135, 60, 60, 135, 129, 57, 3, 0.667625
37, 1, bw, attraction, a-b-da, 2, 1, 8, 23, 134, 59, 60, 135, 135, 60, 1, 0.782751
37, 1, bw, attraction, a-b-da, 2, 1, 8, 23, 134, 59, 60, 135, 135, 60, 2, 0.574537
37, 1, bw, filler, NA, 999, 999, 8, 24, 113, 127, 60, 161, 60, 105, 1, 0.604987
37, 1, bw, filler, NA, 999, 999, 8, 24, 113, 127, 60, 161, 60, 105, 3, 0.323273
37, 1, bw, attraction, a-b-db, 2, 1, 8, 25, 60, 135, 135, 60, 59, 134, 1, 0.837472
37, 1, bw, attraction, a-b-db, 2, 1, 8, 25, 60, 135, 135, 60, 59, 134, 3, 0.664806
37, 1, bw, attraction, a-b-db, 9, 1, 8, 26, 57, 129, 135, 60, 60, 135, 1, 0.460011
37, 1, bw, attraction, a-b-db, 9, 1, 8, 26, 57, 129, 135, 60, 60, 135, 2, 0.280462
37, 1, bw, filler, NA, 999, 999, 8, 27, 192, 172, 86, 169, 170, 72, 1, 0.578906
37, 1, bw, filler, NA, 999, 999, 8, 27, 192, 172, 86, 169, 170, 72, 3, 0.450736
37, 1, bw, attraction, a-b-db, 9, 3, 8, 28, 120, 195, 195, 120, 114, 186, 2, 0.72649
37, 1, bw, attraction, a-b-db, 9, 3, 8, 28, 120, 195, 195, 120, 114, 186, 1, 0.288341
37, 1, bw, catch, NA, 999, 999, 8, 29, 90, 165, 127, 188, 80, 115, 2, 0.482828
37, 1, bw, catch, NA, 999, 999, 8, 29, 90, 165, 127, 188, 80, 115, 3, 0.438754
37, 1, bw, attraction, a-b-da, 5, 2, 8, 30, 165, 90, 90, 165, 161, 88, 1, 0.531018
37, 1, bw, attraction, a-b-da, 5, 2, 8, 30, 165, 90, 90, 165, 161, 88, 3, 0.556931
37, 1, bw, attraction, a-b-db, 2, 2, 8, 31, 165, 90, 89, 163, 90, 165, 1, 0.636021
37, 1, bw, attraction, a-b-db, 2, 2, 8, 31, 165, 90, 89, 163, 90, 165, 2, 0.273771
37, 1, bw, catch, NA, 999, 999, 8, 32, 106, 89, 142, 173, 155, 100, 2, 0.532299
37, 1, bw, catch, NA, 999, 999, 8, 32, 106, 89, 142, 173, 155, 100, 1, 0.278114
37, 1, bw, filler, NA, 999, 999, 8, 33, 148, 108, 143, 178, 178, 152, 2, 0.608595
37, 1, bw, filler, NA, 999, 999, 8, 33, 148, 108, 143, 178, 178, 152, 1, 0.263072
37, 1, bw, filler, NA, 999, 999, 8, 34, 83, 68, 175, 124, 134, 192, 2, 0.466202
37, 1, bw, filler, NA, 999, 999, 8, 34, 83, 68, 175, 124, 134, 192, 1, 0.330306
37, 1, bw, attraction, a-b-da, 14, 3, 8, 35, 181, 111, 120, 195, 195, 120, 2, 0.527333
37, 1, bw, attraction, a-b-da, 14, 3, 8, 35, 181, 111, 120, 195, 195, 120, 3, 0.209159
37, 1, bw, attraction, a-b-da, 14, 1, 8, 36, 135, 60, 60, 135, 125, 56, 1, 0.454329
37, 1, bw, attraction, a-b-da, 14, 1, 8, 36, 135, 60, 60, 135, 125, 56, 2, 0.234864
37, 1, bw, attraction, a-b-da, 9, 2, 8, 37, 90, 165, 165, 90, 157, 86, 2, 0.631331
37, 1, bw, attraction, a-b-da, 9, 2, 8, 37, 90, 165, 165, 90, 157, 86, 1, 0.21313
