sub_n, computer_n, bw_cond, effect, set, distance, diag, block_n, trial_n, h1, w1, h2, w2, h3, w3, choice, rt 
347, 1, bw, practice, NA, 999, 999, 0, 1, 127, 153, 169, 179, 133, 145, 2, 2.76696
347, 1, bw, practice, NA, 999, 999, 0, 1, 127, 153, 169, 179, 133, 145, 1, 3.41306
347, 1, bw, practice, NA, 999, 999, 0, 2, 117, 72, 57, 79, 86, 95, 1, 5.64062
347, 1, bw, practice, NA, 999, 999, 0, 2, 117, 72, 57, 79, 86, 95, 2, 1.59584
347, 1, bw, practice, NA, 999, 999, 0, 3, 172, 112, 131, 85, 155, 132, 3, 4.72721
347, 1, bw, practice, NA, 999, 999, 0, 3, 172, 112, 131, 85, 155, 132, 2, 1.896
347, 1, bw, attraction, a-b-da, 14, 1, 1, 1, 60, 135, 135, 60, 125, 56, 1, 4.30465
347, 1, bw, attraction, a-b-da, 14, 1, 1, 1, 60, 135, 135, 60, 125, 56, 3, 1.25861
347, 1, bw, filler, NA, 999, 999, 1, 2, 124, 195, 60, 186, 67, 116, 1, 1.35748
347, 1, bw, filler, NA, 999, 999, 1, 2, 124, 195, 60, 186, 67, 116, 3, 1.21366
347, 1, bw, attraction, a-b-db, 5, 1, 1, 3, 135, 60, 60, 135, 58, 132, 1, 6.23454
347, 1, bw, attraction, a-b-db, 5, 1, 1, 3, 135, 60, 60, 135, 58, 132, 3, 0.830566
347, 1, bw, attraction, a-b-da, 9, 1, 1, 4, 129, 57, 135, 60, 60, 135, 3, 2.61902
347, 1, bw, attraction, a-b-da, 9, 1, 1, 4, 129, 57, 135, 60, 60, 135, 1, 1.10468
347, 1, bw, catch, NA, 999, 999, 1, 5, 81, 114, 115, 140, 143, 172, 3, 1.29837
347, 1, bw, catch, NA, 999, 999, 1, 5, 81, 114, 115, 140, 143, 172, 1, 0.733234
347, 1, bw, filler, NA, 999, 999, 1, 6, 162, 192, 160, 105, 162, 124, 1, 1.6617
347, 1, bw, filler, NA, 999, 999, 1, 6, 162, 192, 160, 105, 162, 124, 2, 0.72181
347, 1, bw, attraction, a-b-da, 2, 2, 1, 7, 165, 90, 163, 89, 90, 165, 1, 5.54678
347, 1, bw, attraction, a-b-da, 2, 2, 1, 7, 165, 90, 163, 89, 90, 165, 2, 0.762511
347, 1, bw, attraction, a-b-db, 9, 2, 1, 8, 165, 90, 90, 165, 86, 157, 2, 4.14544
347, 1, bw, attraction, a-b-db, 9, 2, 1, 8, 165, 90, 90, 165, 86, 157, 3, 1.5775
347, 1, bw, attraction, a-b-da, 14, 2, 1, 9, 153, 83, 165, 90, 90, 165, 3, 4.22362
347, 1, bw, attraction, a-b-da, 14, 2, 1, 9, 153, 83, 165, 90, 90, 165, 1, 0.964167
347, 1, bw, attraction, a-b-db, 2, 1, 1, 10, 135, 60, 59, 134, 60, 135, 1, 9.13125
347, 1, bw, attraction, a-b-db, 2, 1, 1, 10, 135, 60, 59, 134, 60, 135, 3, 1.05042
347, 1, bw, filler, NA, 999, 999, 1, 11, 103, 131, 102, 111, 70, 122, 1, 2.14198
347, 1, bw, filler, NA, 999, 999, 1, 11, 103, 131, 102, 111, 70, 122, 3, 0.926519
347, 1, bw, filler, NA, 999, 999, 1, 12, 71, 154, 70, 86, 61, 140, 1, 1.98287
347, 1, bw, filler, NA, 999, 999, 1, 12, 71, 154, 70, 86, 61, 140, 2, 0.998188
347, 1, bw, attraction, a-b-db, 5, 2, 1, 13, 88, 161, 90, 165, 165, 90, 2, 6.19585
347, 1, bw, attraction, a-b-db, 5, 2, 1, 13, 88, 161, 90, 165, 165, 90, 1, 0.577339
347, 1, bw, attraction, a-b-da, 2, 1, 1, 14, 60, 135, 135, 60, 134, 59, 1, 4.14368
347, 1, bw, attraction, a-b-da, 2, 1, 1, 14, 60, 135, 135, 60, 134, 59, 3, 1.1836
347, 1, bw, attraction, a-b-da, 5, 1, 1, 15, 132, 58, 135, 60, 60, 135, 3, 6.59
347, 1, bw, attraction, a-b-da, 5, 1, 1, 15, 132, 58, 135, 60, 60, 135, 1, 1.37113
347, 1, bw, filler, NA, 999, 999, 1, 16, 57, 128, 180, 60, 184, 129, 3, 1.12198
347, 1, bw, filler, NA, 999, 999, 1, 16, 57, 128, 180, 60, 184, 129, 1, 0.787724
347, 1, bw, attraction, a-b-db, 5, 3, 1, 17, 195, 120, 120, 195, 117, 190, 2, 3.426
347, 1, bw, attraction, a-b-db, 5, 3, 1, 17, 195, 120, 120, 195, 117, 190, 3, 0.982827
347, 1, bw, attraction, a-b-da, 9, 2, 1, 18, 165, 90, 157, 86, 90, 165, 1, 4.72528
347, 1, bw, attraction, a-b-da, 9, 2, 1, 18, 165, 90, 157, 86, 90, 165, 2, 1.33373
347, 1, bw, attraction, a-b-db, 2, 3, 1, 19, 120, 195, 195, 120, 119, 193, 1, 5.0858
347, 1, bw, attraction, a-b-db, 2, 3, 1, 19, 120, 195, 195, 120, 119, 193, 2, 0.984318
347, 1, bw, filler, NA, 999, 999, 1, 20, 166, 84, 102, 142, 153, 135, 3, 15.5985
347, 1, bw, filler, NA, 999, 999, 1, 20, 166, 84, 102, 142, 153, 135, 1, 1.017
347, 1, bw, catch, NA, 999, 999, 1, 21, 169, 146, 98, 157, 87, 108, 1, 1.42188
347, 1, bw, catch, NA, 999, 999, 1, 21, 169, 146, 98, 157, 87, 108, 3, 0.859427
347, 1, bw, attraction, a-b-db, 14, 3, 1, 22, 111, 181, 120, 195, 195, 120, 2, 1.37446
347, 1, bw, attraction, a-b-db, 14, 3, 1, 22, 111, 181, 120, 195, 195, 120, 1, 1.04597
347, 1, bw, attraction, a-b-da, 5, 2, 1, 23, 161, 88, 90, 165, 165, 90, 2, 4.32963
347, 1, bw, attraction, a-b-da, 5, 2, 1, 23, 161, 88, 90, 165, 165, 90, 1, 0.442319
347, 1, bw, attraction, a-b-db, 14, 2, 1, 24, 83, 153, 90, 165, 165, 90, 2, 2.06204
347, 1, bw, attraction, a-b-db, 14, 2, 1, 24, 83, 153, 90, 165, 165, 90, 1, 0.498005
347, 1, bw, attraction, a-b-db, 14, 1, 1, 25, 135, 60, 60, 135, 56, 125, 2, 5.1
347, 1, bw, attraction, a-b-db, 14, 1, 1, 25, 135, 60, 60, 135, 56, 125, 3, 0.509572
347, 1, bw, attraction, a-b-da, 2, 3, 1, 26, 195, 120, 120, 195, 193, 119, 1, 6.19083
347, 1, bw, attraction, a-b-da, 2, 3, 1, 26, 195, 120, 120, 195, 193, 119, 3, 1.40408
347, 1, bw, catch, NA, 999, 999, 1, 27, 135, 60, 113, 142, 131, 184, 3, 2.06559
347, 1, bw, catch, NA, 999, 999, 1, 27, 135, 60, 113, 142, 131, 184, 1, 1.18952
347, 1, bw, attraction, a-b-da, 14, 3, 1, 28, 195, 120, 181, 111, 120, 195, 3, 5.27591
347, 1, bw, attraction, a-b-da, 14, 3, 1, 28, 195, 120, 181, 111, 120, 195, 2, 1.07807
347, 1, bw, attraction, a-b-da, 5, 3, 1, 29, 190, 117, 120, 195, 195, 120, 3, 4.49639
347, 1, bw, attraction, a-b-da, 5, 3, 1, 29, 190, 117, 120, 195, 195, 120, 1, 0.962336
347, 1, bw, attraction, a-b-da, 9, 3, 1, 30, 186, 114, 120, 195, 195, 120, 2, 9.57727
347, 1, bw, attraction, a-b-da, 9, 3, 1, 30, 186, 114, 120, 195, 195, 120, 1, 0.958222
347, 1, bw, attraction, a-b-db, 9, 1, 1, 31, 135, 60, 60, 135, 57, 129, 2, 21.7092
347, 1, bw, attraction, a-b-db, 9, 1, 1, 31, 135, 60, 60, 135, 57, 129, 1, 0.753753
347, 1, bw, attraction, a-b-db, 2, 2, 1, 32, 90, 165, 165, 90, 89, 163, 3, 6.22547
347, 1, bw, attraction, a-b-db, 2, 2, 1, 32, 90, 165, 165, 90, 89, 163, 1, 0.853487
347, 1, bw, filler, NA, 999, 999, 1, 33, 121, 140, 168, 118, 65, 162, 2, 1.52913
347, 1, bw, filler, NA, 999, 999, 1, 33, 121, 140, 168, 118, 65, 162, 3, 0.754691
347, 1, bw, attraction, a-b-db, 9, 3, 1, 34, 120, 195, 114, 186, 195, 120, 1, 4.7703
347, 1, bw, attraction, a-b-db, 9, 3, 1, 34, 120, 195, 114, 186, 195, 120, 2, 0.809468
347, 1, bw, filler, NA, 999, 999, 1, 35, 100, 80, 148, 78, 153, 193, 3, 1.22247
347, 1, bw, filler, NA, 999, 999, 1, 35, 100, 80, 148, 78, 153, 193, 1, 0.84413
347, 1, bw, filler, NA, 999, 999, 1, 36, 168, 160, 68, 157, 119, 132, 1, 2.92783
347, 1, bw, filler, NA, 999, 999, 1, 36, 168, 160, 68, 157, 119, 132, 2, 2.60101
347, 1, bw, filler, NA, 999, 999, 1, 37, 99, 194, 104, 150, 85, 138, 1, 2.8941
347, 1, bw, filler, NA, 999, 999, 1, 37, 99, 194, 104, 150, 85, 138, 3, 0.760327
347, 1, bw, attraction, a-b-da, 2, 2, 2, 1, 90, 165, 165, 90, 163, 89, 1, 16.1514
347, 1, bw, attraction, a-b-da, 2, 2, 2, 1, 90, 165, 165, 90, 163, 89, 3, 1.00372
347, 1, bw, attraction, a-b-da, 14, 1, 2, 2, 135, 60, 60, 135, 125, 56, 2, 3.7614
347, 1, bw, attraction, a-b-da, 14, 1, 2, 2, 135, 60, 60, 135, 125, 56, 3, 1.07279
347, 1, bw, attraction, a-b-da, 9, 1, 2, 3, 60, 135, 135, 60, 129, 57, 1, 2.20364
347, 1, bw, attraction, a-b-da, 9, 1, 2, 3, 60, 135, 135, 60, 129, 57, 3, 1.28242
347, 1, bw, catch, NA, 999, 999, 2, 4, 124, 131, 99, 96, 192, 123, 3, 1.10851
347, 1, bw, catch, NA, 999, 999, 2, 4, 124, 131, 99, 96, 192, 123, 2, 0.558821
347, 1, bw, attraction, a-b-da, 5, 2, 2, 5, 161, 88, 165, 90, 90, 165, 3, 3.34192
347, 1, bw, attraction, a-b-da, 5, 2, 2, 5, 161, 88, 165, 90, 90, 165, 2, 1.64628
347, 1, bw, filler, NA, 999, 999, 2, 6, 121, 189, 188, 115, 104, 89, 2, 3.26569
347, 1, bw, filler, NA, 999, 999, 2, 6, 121, 189, 188, 115, 104, 89, 3, 0.645219
347, 1, bw, attraction, a-b-da, 14, 2, 2, 7, 153, 83, 90, 165, 165, 90, 2, 7.49704
347, 1, bw, attraction, a-b-da, 14, 2, 2, 7, 153, 83, 90, 165, 165, 90, 1, 1.12185
347, 1, bw, attraction, a-b-db, 2, 3, 2, 8, 195, 120, 120, 195, 119, 193, 2, 3.78681
347, 1, bw, attraction, a-b-db, 2, 3, 2, 8, 195, 120, 120, 195, 119, 193, 1, 3.74566
347, 1, bw, attraction, a-b-da, 9, 2, 2, 9, 90, 165, 165, 90, 157, 86, 1, 3.20041
347, 1, bw, attraction, a-b-da, 9, 2, 2, 9, 90, 165, 165, 90, 157, 86, 3, 0.614727
347, 1, bw, attraction, a-b-db, 5, 3, 2, 10, 195, 120, 120, 195, 117, 190, 2, 2.92397
347, 1, bw, attraction, a-b-db, 5, 3, 2, 10, 195, 120, 120, 195, 117, 190, 1, 0.732884
347, 1, bw, attraction, a-b-db, 9, 2, 2, 11, 90, 165, 86, 157, 165, 90, 1, 1.93331
347, 1, bw, attraction, a-b-db, 9, 2, 2, 11, 90, 165, 86, 157, 165, 90, 2, 1.54278
347, 1, bw, attraction, a-b-db, 14, 2, 2, 12, 83, 153, 165, 90, 90, 165, 3, 2.39812
347, 1, bw, attraction, a-b-db, 14, 2, 2, 12, 83, 153, 165, 90, 90, 165, 1, 0.556612
347, 1, bw, filler, NA, 999, 999, 2, 13, 133, 138, 129, 140, 168, 163, 3, 0.884371
347, 1, bw, filler, NA, 999, 999, 2, 13, 133, 138, 129, 140, 168, 163, 1, 1.73612
347, 1, bw, attraction, a-b-da, 2, 1, 2, 14, 60, 135, 134, 59, 135, 60, 3, 4.21615
347, 1, bw, attraction, a-b-da, 2, 1, 2, 14, 60, 135, 134, 59, 135, 60, 2, 0.533492
347, 1, bw, attraction, a-b-db, 5, 2, 2, 15, 165, 90, 90, 165, 88, 161, 2, 2.4139
347, 1, bw, attraction, a-b-db, 5, 2, 2, 15, 165, 90, 90, 165, 88, 161, 1, 3.68384
347, 1, bw, attraction, a-b-db, 2, 2, 2, 16, 89, 163, 90, 165, 165, 90, 3, 6.47736
347, 1, bw, attraction, a-b-db, 2, 2, 2, 16, 89, 163, 90, 165, 165, 90, 1, 0.647246
347, 1, bw, attraction, a-b-db, 14, 1, 2, 17, 60, 135, 56, 125, 135, 60, 3, 4.72292
347, 1, bw, attraction, a-b-db, 14, 1, 2, 17, 60, 135, 56, 125, 135, 60, 2, 0.539411
347, 1, bw, attraction, a-b-da, 2, 3, 2, 18, 120, 195, 193, 119, 195, 120, 1, 4.98796
347, 1, bw, attraction, a-b-da, 2, 3, 2, 18, 120, 195, 193, 119, 195, 120, 2, 0.690288
347, 1, bw, catch, NA, 999, 999, 2, 19, 182, 133, 107, 148, 105, 90, 1, 4.90801
347, 1, bw, catch, NA, 999, 999, 2, 19, 182, 133, 107, 148, 105, 90, 3, 0.677223
347, 1, bw, attraction, a-b-da, 14, 3, 2, 20, 120, 195, 195, 120, 181, 111, 1, 33.3835
347, 1, bw, attraction, a-b-da, 14, 3, 2, 20, 120, 195, 195, 120, 181, 111, 3, 0.637173
347, 1, bw, attraction, a-b-db, 5, 1, 2, 21, 135, 60, 60, 135, 58, 132, 3, 2.04151
347, 1, bw, attraction, a-b-db, 5, 1, 2, 21, 135, 60, 60, 135, 58, 132, 1, 1.05416
347, 1, bw, filler, NA, 999, 999, 2, 22, 59, 140, 119, 126, 124, 187, 3, 1.0338
347, 1, bw, filler, NA, 999, 999, 2, 22, 59, 140, 119, 126, 124, 187, 1, 0.759496
347, 1, bw, filler, NA, 999, 999, 2, 23, 169, 195, 57, 138, 185, 189, 3, 1.4544
347, 1, bw, filler, NA, 999, 999, 2, 23, 169, 195, 57, 138, 185, 189, 2, 0.683254
347, 1, bw, filler, NA, 999, 999, 2, 24, 150, 166, 102, 90, 82, 140, 1, 1.11773
347, 1, bw, filler, NA, 999, 999, 2, 24, 150, 166, 102, 90, 82, 140, 2, 0.791968
347, 1, bw, attraction, a-b-da, 9, 3, 2, 25, 195, 120, 120, 195, 186, 114, 2, 2.0777
347, 1, bw, attraction, a-b-da, 9, 3, 2, 25, 195, 120, 120, 195, 186, 114, 3, 0.688986
347, 1, bw, filler, NA, 999, 999, 2, 26, 185, 179, 90, 152, 146, 70, 1, 1.19539
347, 1, bw, filler, NA, 999, 999, 2, 26, 185, 179, 90, 152, 146, 70, 3, 2.97053
347, 1, bw, attraction, a-b-db, 2, 1, 2, 27, 59, 134, 135, 60, 60, 135, 3, 2.9207
347, 1, bw, attraction, a-b-db, 2, 1, 2, 27, 59, 134, 135, 60, 60, 135, 2, 1.86643
347, 1, bw, catch, NA, 999, 999, 2, 28, 101, 154, 131, 64, 189, 126, 3, 1.93311
347, 1, bw, catch, NA, 999, 999, 2, 28, 101, 154, 131, 64, 189, 126, 2, 0.822677
347, 1, bw, attraction, a-b-da, 5, 1, 2, 29, 60, 135, 135, 60, 132, 58, 2, 4.21947
347, 1, bw, attraction, a-b-da, 5, 1, 2, 29, 60, 135, 135, 60, 132, 58, 3, 0.82495
347, 1, bw, attraction, a-b-db, 9, 1, 2, 30, 60, 135, 57, 129, 135, 60, 3, 4.61337
347, 1, bw, attraction, a-b-db, 9, 1, 2, 30, 60, 135, 57, 129, 135, 60, 1, 0.81039
347, 1, bw, filler, NA, 999, 999, 2, 31, 173, 139, 72, 160, 65, 174, 1, 1.89548
347, 1, bw, filler, NA, 999, 999, 2, 31, 173, 139, 72, 160, 65, 174, 2, 0.810135
347, 1, bw, filler, NA, 999, 999, 2, 32, 111, 186, 195, 107, 132, 62, 2, 3.66321
347, 1, bw, filler, NA, 999, 999, 2, 32, 111, 186, 195, 107, 132, 62, 3, 0.722602
347, 1, bw, filler, NA, 999, 999, 2, 33, 158, 127, 65, 175, 166, 163, 3, 1.54775
347, 1, bw, filler, NA, 999, 999, 2, 33, 158, 127, 65, 175, 166, 163, 2, 0.988646
347, 1, bw, attraction, a-b-db, 14, 3, 2, 34, 111, 181, 120, 195, 195, 120, 2, 7.05078
347, 1, bw, attraction, a-b-db, 14, 3, 2, 34, 111, 181, 120, 195, 195, 120, 1, 0.845949
347, 1, bw, filler, NA, 999, 999, 2, 35, 185, 120, 125, 131, 100, 187, 1, 2.12154
347, 1, bw, filler, NA, 999, 999, 2, 35, 185, 120, 125, 131, 100, 187, 2, 1.05953
347, 1, bw, attraction, a-b-db, 9, 3, 2, 36, 114, 186, 195, 120, 120, 195, 3, 1.31055
347, 1, bw, attraction, a-b-db, 9, 3, 2, 36, 114, 186, 195, 120, 120, 195, 1, 1.32075
347, 1, bw, attraction, a-b-da, 5, 3, 2, 37, 120, 195, 190, 117, 195, 120, 1, 3.49765
347, 1, bw, attraction, a-b-da, 5, 3, 2, 37, 120, 195, 190, 117, 195, 120, 2, 0.811823
347, 1, bw, filler, NA, 999, 999, 3, 1, 172, 153, 158, 145, 63, 127, 1, 2.37696
347, 1, bw, filler, NA, 999, 999, 3, 1, 172, 153, 158, 145, 63, 127, 3, 0.656183
347, 1, bw, attraction, a-b-da, 9, 2, 3, 2, 157, 86, 90, 165, 165, 90, 3, 4.11583
347, 1, bw, attraction, a-b-da, 9, 2, 3, 2, 157, 86, 90, 165, 165, 90, 1, 0.933289
347, 1, bw, filler, NA, 999, 999, 3, 3, 104, 98, 86, 100, 181, 99, 3, 2.50962
347, 1, bw, filler, NA, 999, 999, 3, 3, 104, 98, 86, 100, 181, 99, 2, 0.735342
347, 1, bw, attraction, a-b-db, 14, 2, 3, 4, 165, 90, 90, 165, 83, 153, 2, 3.63976
347, 1, bw, attraction, a-b-db, 14, 2, 3, 4, 165, 90, 90, 165, 83, 153, 1, 2.49989
347, 1, bw, attraction, a-b-db, 9, 2, 3, 5, 86, 157, 165, 90, 90, 165, 3, 4.47705
347, 1, bw, attraction, a-b-db, 9, 2, 3, 5, 86, 157, 165, 90, 90, 165, 2, 1.73571
347, 1, bw, catch, NA, 999, 999, 3, 6, 113, 82, 93, 162, 134, 181, 3, 2.26374
347, 1, bw, catch, NA, 999, 999, 3, 6, 113, 82, 93, 162, 134, 181, 1, 1.43569
347, 1, bw, attraction, a-b-da, 14, 1, 3, 7, 135, 60, 125, 56, 60, 135, 3, 35.1117
347, 1, bw, attraction, a-b-da, 14, 1, 3, 7, 135, 60, 125, 56, 60, 135, 2, 0.664082
347, 1, bw, attraction, a-b-db, 14, 3, 3, 8, 195, 120, 120, 195, 111, 181, 2, 6.23533
347, 1, bw, attraction, a-b-db, 14, 3, 3, 8, 195, 120, 120, 195, 111, 181, 1, 0.831149
347, 1, bw, attraction, a-b-db, 2, 3, 3, 9, 119, 193, 120, 195, 195, 120, 3, 4.95572
347, 1, bw, attraction, a-b-db, 2, 3, 3, 9, 119, 193, 120, 195, 195, 120, 1, 2.10737
347, 1, bw, attraction, a-b-da, 9, 3, 3, 10, 195, 120, 186, 114, 120, 195, 3, 2.00397
347, 1, bw, attraction, a-b-da, 9, 3, 3, 10, 195, 120, 186, 114, 120, 195, 2, 0.754679
347, 1, bw, attraction, a-b-db, 14, 1, 3, 11, 135, 60, 56, 125, 60, 135, 3, 2.6984
347, 1, bw, attraction, a-b-db, 14, 1, 3, 11, 135, 60, 56, 125, 60, 135, 2, 0.956816
347, 1, bw, filler, NA, 999, 999, 3, 12, 173, 119, 86, 99, 128, 80, 1, 1.17178
347, 1, bw, filler, NA, 999, 999, 3, 12, 173, 119, 86, 99, 128, 80, 2, 0.675423
347, 1, bw, attraction, a-b-da, 14, 3, 3, 13, 120, 195, 181, 111, 195, 120, 3, 8.73375
347, 1, bw, attraction, a-b-da, 14, 3, 3, 13, 120, 195, 181, 111, 195, 120, 2, 0.780997
347, 1, bw, catch, NA, 999, 999, 3, 14, 166, 149, 86, 109, 104, 151, 1, 0.971541
347, 1, bw, catch, NA, 999, 999, 3, 14, 166, 149, 86, 109, 104, 151, 2, 0.563044
347, 1, bw, attraction, a-b-db, 9, 3, 3, 15, 195, 120, 114, 186, 120, 195, 3, 5.96221
347, 1, bw, attraction, a-b-db, 9, 3, 3, 15, 195, 120, 114, 186, 120, 195, 1, 2.60887
347, 1, bw, attraction, a-b-da, 5, 3, 3, 16, 190, 117, 120, 195, 195, 120, 2, 6.5254
347, 1, bw, attraction, a-b-da, 5, 3, 3, 16, 190, 117, 120, 195, 195, 120, 1, 0.821229
347, 1, bw, attraction, a-b-db, 2, 1, 3, 17, 59, 134, 135, 60, 60, 135, 3, 1.85825
347, 1, bw, attraction, a-b-db, 2, 1, 3, 17, 59, 134, 135, 60, 60, 135, 2, 0.646384
347, 1, bw, attraction, a-b-db, 5, 1, 3, 18, 135, 60, 60, 135, 58, 132, 2, 1.9221
347, 1, bw, attraction, a-b-db, 5, 1, 3, 18, 135, 60, 60, 135, 58, 132, 1, 0.579446
347, 1, bw, filler, NA, 999, 999, 3, 19, 113, 84, 101, 153, 65, 160, 2, 1.82588
347, 1, bw, filler, NA, 999, 999, 3, 19, 113, 84, 101, 153, 65, 160, 1, 0.655319
347, 1, bw, filler, NA, 999, 999, 3, 20, 83, 159, 148, 140, 57, 60, 2, 1.36313
347, 1, bw, filler, NA, 999, 999, 3, 20, 83, 159, 148, 140, 57, 60, 3, 0.947356
347, 1, bw, attraction, a-b-da, 2, 1, 3, 21, 60, 135, 135, 60, 134, 59, 1, 2.09898
347, 1, bw, attraction, a-b-da, 2, 1, 3, 21, 60, 135, 135, 60, 134, 59, 2, 0.909588
347, 1, bw, filler, NA, 999, 999, 3, 22, 161, 113, 85, 192, 109, 158, 2, 6.59072
347, 1, bw, filler, NA, 999, 999, 3, 22, 161, 113, 85, 192, 109, 158, 3, 0.611817
347, 1, bw, attraction, a-b-db, 2, 2, 3, 23, 89, 163, 165, 90, 90, 165, 1, 5.08894
347, 1, bw, attraction, a-b-db, 2, 2, 3, 23, 89, 163, 165, 90, 90, 165, 2, 0.747277
347, 1, bw, filler, NA, 999, 999, 3, 24, 109, 124, 147, 70, 71, 67, 1, 1.2909
347, 1, bw, filler, NA, 999, 999, 3, 24, 109, 124, 147, 70, 71, 67, 3, 0.669934
347, 1, bw, attraction, a-b-db, 5, 2, 3, 25, 90, 165, 88, 161, 165, 90, 3, 7.7131
347, 1, bw, attraction, a-b-db, 5, 2, 3, 25, 90, 165, 88, 161, 165, 90, 1, 0.721177
347, 1, bw, attraction, a-b-da, 9, 1, 3, 26, 135, 60, 129, 57, 60, 135, 1, 18.2423
347, 1, bw, attraction, a-b-da, 9, 1, 3, 26, 135, 60, 129, 57, 60, 135, 2, 0.794601
347, 1, bw, attraction, a-b-db, 9, 1, 3, 27, 60, 135, 135, 60, 57, 129, 1, 1.58424
347, 1, bw, attraction, a-b-db, 9, 1, 3, 27, 60, 135, 135, 60, 57, 129, 2, 0.799657
347, 1, bw, attraction, a-b-da, 5, 1, 3, 28, 132, 58, 60, 135, 135, 60, 2, 2.78144
347, 1, bw, attraction, a-b-da, 5, 1, 3, 28, 132, 58, 60, 135, 135, 60, 1, 0.940421
347, 1, bw, attraction, a-b-da, 2, 2, 3, 29, 163, 89, 90, 165, 165, 90, 2, 1.70013
347, 1, bw, attraction, a-b-da, 2, 2, 3, 29, 163, 89, 90, 165, 165, 90, 1, 0.782907
347, 1, bw, attraction, a-b-da, 14, 2, 3, 30, 90, 165, 153, 83, 165, 90, 1, 8.33314
347, 1, bw, attraction, a-b-da, 14, 2, 3, 30, 90, 165, 153, 83, 165, 90, 2, 0.668773
347, 1, bw, catch, NA, 999, 999, 3, 31, 118, 77, 155, 160, 132, 123, 2, 1.27173
347, 1, bw, catch, NA, 999, 999, 3, 31, 118, 77, 155, 160, 132, 123, 1, 1.05128
347, 1, bw, filler, NA, 999, 999, 3, 32, 172, 146, 118, 179, 192, 109, 1, 3.20702
347, 1, bw, filler, NA, 999, 999, 3, 32, 172, 146, 118, 179, 192, 109, 2, 0.652532
347, 1, bw, attraction, a-b-db, 5, 3, 3, 33, 117, 190, 120, 195, 195, 120, 2, 2.79227
347, 1, bw, attraction, a-b-db, 5, 3, 3, 33, 117, 190, 120, 195, 195, 120, 1, 0.638696
347, 1, bw, filler, NA, 999, 999, 3, 34, 138, 136, 148, 91, 80, 96, 1, 1.33908
347, 1, bw, filler, NA, 999, 999, 3, 34, 138, 136, 148, 91, 80, 96, 3, 0.731964
347, 1, bw, attraction, a-b-da, 5, 2, 3, 35, 161, 88, 90, 165, 165, 90, 2, 3.86837
347, 1, bw, attraction, a-b-da, 5, 2, 3, 35, 161, 88, 90, 165, 165, 90, 1, 0.655771
347, 1, bw, attraction, a-b-da, 2, 3, 3, 36, 120, 195, 193, 119, 195, 120, 2, 4.53155
347, 1, bw, attraction, a-b-da, 2, 3, 3, 36, 120, 195, 193, 119, 195, 120, 3, 2.20426
347, 1, bw, filler, NA, 999, 999, 3, 37, 191, 159, 175, 101, 74, 130, 1, 1.0253
347, 1, bw, filler, NA, 999, 999, 3, 37, 191, 159, 175, 101, 74, 130, 3, 0.799101
347, 1, bw, attraction, a-b-da, 5, 2, 4, 1, 90, 165, 161, 88, 165, 90, 1, 4.0447
347, 1, bw, attraction, a-b-da, 5, 2, 4, 1, 90, 165, 161, 88, 165, 90, 2, 0.896761
347, 1, bw, filler, NA, 999, 999, 4, 2, 185, 93, 195, 172, 100, 136, 2, 1.29849
347, 1, bw, filler, NA, 999, 999, 4, 2, 185, 93, 195, 172, 100, 136, 3, 1.2854
347, 1, bw, filler, NA, 999, 999, 4, 3, 116, 66, 156, 137, 106, 141, 2, 1.0875
347, 1, bw, filler, NA, 999, 999, 4, 3, 116, 66, 156, 137, 106, 141, 1, 0.563167
347, 1, bw, attraction, a-b-da, 14, 3, 4, 4, 120, 195, 181, 111, 195, 120, 1, 1.73824
347, 1, bw, attraction, a-b-da, 14, 3, 4, 4, 120, 195, 181, 111, 195, 120, 2, 0.546994
347, 1, bw, catch, NA, 999, 999, 4, 5, 166, 149, 84, 111, 99, 156, 1, 0.962706
347, 1, bw, catch, NA, 999, 999, 4, 5, 166, 149, 84, 111, 99, 156, 2, 0.499103
347, 1, bw, attraction, a-b-db, 14, 1, 4, 6, 135, 60, 56, 125, 60, 135, 1, 1.79689
347, 1, bw, attraction, a-b-db, 14, 1, 4, 6, 135, 60, 56, 125, 60, 135, 2, 0.507608
347, 1, bw, attraction, a-b-db, 2, 1, 4, 7, 60, 135, 59, 134, 135, 60, 2, 2.88471
347, 1, bw, attraction, a-b-db, 2, 1, 4, 7, 60, 135, 59, 134, 135, 60, 1, 0.83191
347, 1, bw, attraction, a-b-db, 9, 2, 4, 8, 165, 90, 86, 157, 90, 165, 2, 2.7963
347, 1, bw, attraction, a-b-db, 9, 2, 4, 8, 165, 90, 86, 157, 90, 165, 1, 0.66653
347, 1, bw, attraction, a-b-db, 2, 2, 4, 9, 90, 165, 89, 163, 165, 90, 2, 2.10168
347, 1, bw, attraction, a-b-db, 2, 2, 4, 9, 90, 165, 89, 163, 165, 90, 3, 0.488439
347, 1, bw, catch, NA, 999, 999, 4, 10, 126, 189, 152, 103, 65, 130, 1, 1.27472
347, 1, bw, catch, NA, 999, 999, 4, 10, 126, 189, 152, 103, 65, 130, 3, 0.758352
347, 1, bw, filler, NA, 999, 999, 4, 11, 154, 109, 65, 171, 69, 82, 1, 1.30135
347, 1, bw, filler, NA, 999, 999, 4, 11, 154, 109, 65, 171, 69, 82, 3, 0.720279
347, 1, bw, attraction, a-b-da, 9, 3, 4, 12, 186, 114, 120, 195, 195, 120, 2, 1.67337
347, 1, bw, attraction, a-b-da, 9, 3, 4, 12, 186, 114, 120, 195, 195, 120, 1, 0.508742
347, 1, bw, attraction, a-b-da, 5, 3, 4, 13, 195, 120, 190, 117, 120, 195, 1, 1.58187
347, 1, bw, attraction, a-b-da, 5, 3, 4, 13, 195, 120, 190, 117, 120, 195, 2, 0.565328
347, 1, bw, attraction, a-b-db, 14, 3, 4, 14, 111, 181, 120, 195, 195, 120, 2, 1.49247
347, 1, bw, attraction, a-b-db, 14, 3, 4, 14, 111, 181, 120, 195, 195, 120, 1, 0.591361
347, 1, bw, attraction, a-b-da, 2, 2, 4, 15, 165, 90, 90, 165, 163, 89, 2, 1.84525
347, 1, bw, attraction, a-b-da, 2, 2, 4, 15, 165, 90, 90, 165, 163, 89, 3, 0.521974
347, 1, bw, attraction, a-b-db, 9, 1, 4, 16, 57, 129, 60, 135, 135, 60, 2, 1.29104
347, 1, bw, attraction, a-b-db, 9, 1, 4, 16, 57, 129, 60, 135, 135, 60, 1, 0.613837
347, 1, bw, attraction, a-b-db, 5, 1, 4, 17, 58, 132, 135, 60, 60, 135, 3, 2.09097
347, 1, bw, attraction, a-b-db, 5, 1, 4, 17, 58, 132, 135, 60, 60, 135, 2, 0.765578
347, 1, bw, attraction, a-b-db, 9, 3, 4, 18, 120, 195, 195, 120, 114, 186, 1, 3.00456
347, 1, bw, attraction, a-b-db, 9, 3, 4, 18, 120, 195, 195, 120, 114, 186, 3, 0.56237
347, 1, bw, attraction, a-b-db, 5, 3, 4, 19, 120, 195, 195, 120, 117, 190, 1, 3.28137
347, 1, bw, attraction, a-b-db, 5, 3, 4, 19, 120, 195, 195, 120, 117, 190, 2, 0.580396
347, 1, bw, catch, NA, 999, 999, 4, 20, 61, 134, 132, 123, 188, 127, 3, 1.41084
347, 1, bw, catch, NA, 999, 999, 4, 20, 61, 134, 132, 123, 188, 127, 1, 0.672884
347, 1, bw, filler, NA, 999, 999, 4, 21, 134, 90, 61, 96, 110, 180, 3, 1.46806
347, 1, bw, filler, NA, 999, 999, 4, 21, 134, 90, 61, 96, 110, 180, 2, 0.61619
347, 1, bw, attraction, a-b-db, 5, 2, 4, 22, 88, 161, 165, 90, 90, 165, 1, 3.10129
347, 1, bw, attraction, a-b-db, 5, 2, 4, 22, 88, 161, 165, 90, 90, 165, 2, 0.543585
347, 1, bw, attraction, a-b-db, 14, 2, 4, 23, 165, 90, 83, 153, 90, 165, 3, 13.9915
347, 1, bw, attraction, a-b-db, 14, 2, 4, 23, 165, 90, 83, 153, 90, 165, 2, 0.482945
347, 1, bw, attraction, a-b-da, 5, 1, 4, 24, 135, 60, 60, 135, 132, 58, 2, 2.78164
347, 1, bw, attraction, a-b-da, 5, 1, 4, 24, 135, 60, 60, 135, 132, 58, 3, 0.756593
347, 1, bw, filler, NA, 999, 999, 4, 25, 58, 116, 126, 95, 95, 135, 3, 1.48424
347, 1, bw, filler, NA, 999, 999, 4, 25, 58, 116, 126, 95, 95, 135, 1, 0.615909
347, 1, bw, filler, NA, 999, 999, 4, 26, 71, 58, 178, 144, 121, 150, 2, 1.07693
347, 1, bw, filler, NA, 999, 999, 4, 26, 71, 58, 178, 144, 121, 150, 1, 0.640633
347, 1, bw, filler, NA, 999, 999, 4, 27, 185, 162, 152, 146, 91, 100, 1, 1.31637
347, 1, bw, filler, NA, 999, 999, 4, 27, 185, 162, 152, 146, 91, 100, 3, 0.84653
347, 1, bw, filler, NA, 999, 999, 4, 28, 157, 104, 123, 132, 109, 127, 1, 3.11419
347, 1, bw, filler, NA, 999, 999, 4, 28, 157, 104, 123, 132, 109, 127, 3, 0.65977
347, 1, bw, attraction, a-b-da, 14, 2, 4, 29, 153, 83, 90, 165, 165, 90, 2, 1.9029
347, 1, bw, attraction, a-b-da, 14, 2, 4, 29, 153, 83, 90, 165, 165, 90, 1, 0.521621
347, 1, bw, attraction, a-b-da, 2, 3, 4, 30, 195, 120, 120, 195, 193, 119, 2, 4.9707
347, 1, bw, attraction, a-b-da, 2, 3, 4, 30, 195, 120, 120, 195, 193, 119, 3, 0.633879
347, 1, bw, attraction, a-b-db, 2, 3, 4, 31, 119, 193, 120, 195, 195, 120, 2, 1.68619
347, 1, bw, attraction, a-b-db, 2, 3, 4, 31, 119, 193, 120, 195, 195, 120, 1, 0.489609
347, 1, bw, attraction, a-b-da, 2, 1, 4, 32, 134, 59, 135, 60, 60, 135, 2, 1.86815
347, 1, bw, attraction, a-b-da, 2, 1, 4, 32, 134, 59, 135, 60, 60, 135, 3, 0.640186
347, 1, bw, attraction, a-b-da, 9, 1, 4, 33, 129, 57, 135, 60, 60, 135, 3, 4.20394
347, 1, bw, attraction, a-b-da, 9, 1, 4, 33, 129, 57, 135, 60, 60, 135, 1, 1.15393
347, 1, bw, attraction, a-b-da, 14, 1, 4, 34, 125, 56, 60, 135, 135, 60, 2, 1.44971
347, 1, bw, attraction, a-b-da, 14, 1, 4, 34, 125, 56, 60, 135, 135, 60, 1, 0.590478
347, 1, bw, filler, NA, 999, 999, 4, 35, 144, 143, 112, 165, 100, 148, 1, 2.83619
347, 1, bw, filler, NA, 999, 999, 4, 35, 144, 143, 112, 165, 100, 148, 3, 0.433145
347, 1, bw, filler, NA, 999, 999, 4, 36, 84, 124, 64, 104, 90, 144, 3, 1.19774
347, 1, bw, filler, NA, 999, 999, 4, 36, 84, 124, 64, 104, 90, 144, 2, 0.412609
347, 1, bw, attraction, a-b-da, 9, 2, 4, 37, 157, 86, 165, 90, 90, 165, 3, 2.4659
347, 1, bw, attraction, a-b-da, 9, 2, 4, 37, 157, 86, 165, 90, 90, 165, 1, 1.21361
347, 1, bw, filler, NA, 999, 999, 5, 1, 158, 176, 184, 159, 81, 87, 2, 2.0252
347, 1, bw, filler, NA, 999, 999, 5, 1, 158, 176, 184, 159, 81, 87, 3, 1.07849
347, 1, bw, attraction, a-b-da, 9, 3, 5, 2, 195, 120, 186, 114, 120, 195, 3, 1.00073
347, 1, bw, attraction, a-b-da, 9, 3, 5, 2, 195, 120, 186, 114, 120, 195, 2, 0.735748
347, 1, bw, filler, NA, 999, 999, 5, 3, 77, 132, 157, 132, 139, 137, 2, 0.968106
347, 1, bw, filler, NA, 999, 999, 5, 3, 77, 132, 157, 132, 139, 137, 1, 0.592528
347, 1, bw, attraction, a-b-db, 9, 2, 5, 4, 90, 165, 165, 90, 86, 157, 1, 1.82225
347, 1, bw, attraction, a-b-db, 9, 2, 5, 4, 90, 165, 165, 90, 86, 157, 3, 0.48367
347, 1, bw, attraction, a-b-db, 5, 3, 5, 5, 195, 120, 120, 195, 117, 190, 2, 2.46212
347, 1, bw, attraction, a-b-db, 5, 3, 5, 5, 195, 120, 120, 195, 117, 190, 3, 0.809968
347, 1, bw, attraction, a-b-db, 9, 3, 5, 6, 195, 120, 120, 195, 114, 186, 2, 1.45497
347, 1, bw, attraction, a-b-db, 9, 3, 5, 6, 195, 120, 120, 195, 114, 186, 3, 0.403351
347, 1, bw, filler, NA, 999, 999, 5, 7, 162, 188, 185, 193, 123, 187, 2, 1.12904
347, 1, bw, filler, NA, 999, 999, 5, 7, 162, 188, 185, 193, 123, 187, 3, 0.482574
347, 1, bw, attraction, a-b-db, 2, 2, 5, 8, 89, 163, 90, 165, 165, 90, 2, 1.30908
347, 1, bw, attraction, a-b-db, 2, 2, 5, 8, 89, 163, 90, 165, 165, 90, 1, 0.535282
347, 1, bw, attraction, a-b-db, 9, 1, 5, 9, 60, 135, 57, 129, 135, 60, 2, 3.70371
347, 1, bw, attraction, a-b-db, 9, 1, 5, 9, 60, 135, 57, 129, 135, 60, 3, 0.609986
347, 1, bw, attraction, a-b-da, 2, 2, 5, 10, 165, 90, 163, 89, 90, 165, 3, 2.74301
347, 1, bw, attraction, a-b-da, 2, 2, 5, 10, 165, 90, 163, 89, 90, 165, 2, 0.439451
347, 1, bw, attraction, a-b-da, 14, 3, 5, 11, 120, 195, 195, 120, 181, 111, 1, 2.41986
347, 1, bw, attraction, a-b-da, 14, 3, 5, 11, 120, 195, 195, 120, 181, 111, 3, 1.19375
347, 1, bw, attraction, a-b-db, 5, 1, 5, 12, 135, 60, 58, 132, 60, 135, 3, 4.47942
347, 1, bw, attraction, a-b-db, 5, 1, 5, 12, 135, 60, 58, 132, 60, 135, 1, 0.849877
347, 1, bw, attraction, a-b-db, 14, 3, 5, 13, 111, 181, 120, 195, 195, 120, 2, 2.37369
347, 1, bw, attraction, a-b-db, 14, 3, 5, 13, 111, 181, 120, 195, 195, 120, 1, 0.796883
347, 1, bw, attraction, a-b-da, 9, 2, 5, 14, 157, 86, 165, 90, 90, 165, 3, 6.01852
347, 1, bw, attraction, a-b-da, 9, 2, 5, 14, 157, 86, 165, 90, 90, 165, 1, 1.6393
347, 1, bw, filler, NA, 999, 999, 5, 15, 151, 93, 71, 112, 111, 60, 1, 2.54743
347, 1, bw, filler, NA, 999, 999, 5, 15, 151, 93, 71, 112, 111, 60, 3, 0.883877
347, 1, bw, attraction, a-b-da, 14, 2, 5, 16, 90, 165, 153, 83, 165, 90, 1, 2.41421
347, 1, bw, attraction, a-b-da, 14, 2, 5, 16, 90, 165, 153, 83, 165, 90, 2, 0.892096
347, 1, bw, attraction, a-b-da, 5, 2, 5, 17, 90, 165, 165, 90, 161, 88, 1, 6.82987
347, 1, bw, attraction, a-b-da, 5, 2, 5, 17, 90, 165, 165, 90, 161, 88, 3, 1.0416
347, 1, bw, attraction, a-b-db, 5, 2, 5, 18, 90, 165, 88, 161, 165, 90, 1, 10.7332
347, 1, bw, attraction, a-b-db, 5, 2, 5, 18, 90, 165, 88, 161, 165, 90, 2, 1.05989
347, 1, bw, attraction, a-b-db, 14, 1, 5, 19, 60, 135, 56, 125, 135, 60, 1, 3.3828
347, 1, bw, attraction, a-b-db, 14, 1, 5, 19, 60, 135, 56, 125, 135, 60, 2, 0.757624
347, 1, bw, filler, NA, 999, 999, 5, 20, 92, 171, 68, 117, 176, 88, 1, 2.41268
347, 1, bw, filler, NA, 999, 999, 5, 20, 92, 171, 68, 117, 176, 88, 2, 0.842724
347, 1, bw, filler, NA, 999, 999, 5, 21, 182, 68, 132, 92, 189, 100, 3, 1.9583
347, 1, bw, filler, NA, 999, 999, 5, 21, 182, 68, 132, 92, 189, 100, 2, 0.630264
347, 1, bw, attraction, a-b-db, 2, 1, 5, 22, 60, 135, 59, 134, 135, 60, 2, 4.35465
347, 1, bw, attraction, a-b-db, 2, 1, 5, 22, 60, 135, 59, 134, 135, 60, 1, 2.12272
347, 1, bw, attraction, a-b-da, 14, 1, 5, 23, 125, 56, 60, 135, 135, 60, 2, 1.36324
347, 1, bw, attraction, a-b-da, 14, 1, 5, 23, 125, 56, 60, 135, 135, 60, 1, 0.843465
347, 1, bw, filler, NA, 999, 999, 5, 24, 92, 185, 64, 117, 118, 80, 1, 0.77517
347, 1, bw, filler, NA, 999, 999, 5, 24, 92, 185, 64, 117, 118, 80, 2, 0.566861
347, 1, bw, filler, NA, 999, 999, 5, 25, 56, 120, 71, 132, 145, 111, 3, 0.957994
347, 1, bw, filler, NA, 999, 999, 5, 25, 56, 120, 71, 132, 145, 111, 1, 0.61434
347, 1, bw, catch, NA, 999, 999, 5, 26, 91, 164, 161, 154, 91, 104, 2, 1.09145
347, 1, bw, catch, NA, 999, 999, 5, 26, 91, 164, 161, 154, 91, 104, 3, 1.99842
347, 1, bw, filler, NA, 999, 999, 5, 27, 188, 131, 120, 95, 194, 71, 1, 2.21972
347, 1, bw, filler, NA, 999, 999, 5, 27, 188, 131, 120, 95, 194, 71, 2, 0.737799
347, 1, bw, attraction, a-b-da, 5, 1, 5, 28, 60, 135, 132, 58, 135, 60, 1, 1.61013
347, 1, bw, attraction, a-b-da, 5, 1, 5, 28, 60, 135, 132, 58, 135, 60, 3, 0.808187
347, 1, bw, catch, NA, 999, 999, 5, 29, 102, 153, 128, 187, 61, 134, 2, 0.86922
347, 1, bw, catch, NA, 999, 999, 5, 29, 102, 153, 128, 187, 61, 134, 3, 0.793613
347, 1, bw, catch, NA, 999, 999, 5, 30, 131, 184, 83, 112, 137, 118, 1, 0.855278
347, 1, bw, catch, NA, 999, 999, 5, 30, 131, 184, 83, 112, 137, 118, 2, 0.763644
347, 1, bw, attraction, a-b-db, 14, 2, 5, 31, 90, 165, 165, 90, 83, 153, 1, 1.66666
347, 1, bw, attraction, a-b-db, 14, 2, 5, 31, 90, 165, 165, 90, 83, 153, 3, 0.830879
347, 1, bw, attraction, a-b-da, 2, 1, 5, 32, 135, 60, 60, 135, 134, 59, 2, 3.57912
347, 1, bw, attraction, a-b-da, 2, 1, 5, 32, 135, 60, 60, 135, 134, 59, 3, 0.978027
347, 1, bw, filler, NA, 999, 999, 5, 33, 58, 70, 58, 102, 185, 194, 3, 1.14433
347, 1, bw, filler, NA, 999, 999, 5, 33, 58, 70, 58, 102, 185, 194, 1, 0.769203
347, 1, bw, attraction, a-b-da, 9, 1, 5, 34, 135, 60, 60, 135, 129, 57, 2, 3.59225
347, 1, bw, attraction, a-b-da, 9, 1, 5, 34, 135, 60, 60, 135, 129, 57, 3, 0.750424
347, 1, bw, attraction, a-b-da, 2, 3, 5, 35, 120, 195, 195, 120, 193, 119, 1, 7.10213
347, 1, bw, attraction, a-b-da, 2, 3, 5, 35, 120, 195, 195, 120, 193, 119, 3, 4.79921
347, 1, bw, attraction, a-b-da, 5, 3, 5, 36, 120, 195, 190, 117, 195, 120, 1, 4.33974
347, 1, bw, attraction, a-b-da, 5, 3, 5, 36, 120, 195, 190, 117, 195, 120, 3, 1.05172
347, 1, bw, attraction, a-b-db, 2, 3, 5, 37, 119, 193, 120, 195, 195, 120, 3, 5.29537
347, 1, bw, attraction, a-b-db, 2, 3, 5, 37, 119, 193, 120, 195, 195, 120, 1, 0.640869
347, 1, bw, filler, NA, 999, 999, 6, 1, 140, 83, 183, 162, 120, 151, 2, 1.26076
347, 1, bw, filler, NA, 999, 999, 6, 1, 140, 83, 183, 162, 120, 151, 1, 0.824864
347, 1, bw, filler, NA, 999, 999, 6, 2, 106, 193, 144, 74, 177, 165, 3, 1.27719
347, 1, bw, filler, NA, 999, 999, 6, 2, 106, 193, 144, 74, 177, 165, 2, 0.600732
347, 1, bw, attraction, a-b-da, 5, 3, 6, 3, 190, 117, 120, 195, 195, 120, 2, 1.99061
347, 1, bw, attraction, a-b-da, 5, 3, 6, 3, 190, 117, 120, 195, 195, 120, 3, 0.669295
347, 1, bw, attraction, a-b-db, 9, 2, 6, 4, 86, 157, 165, 90, 90, 165, 3, 2.24839
347, 1, bw, attraction, a-b-db, 9, 2, 6, 4, 86, 157, 165, 90, 90, 165, 1, 0.788918
347, 1, bw, attraction, a-b-da, 9, 3, 6, 5, 195, 120, 120, 195, 186, 114, 2, 6.41127
347, 1, bw, attraction, a-b-da, 9, 3, 6, 5, 195, 120, 120, 195, 186, 114, 3, 0.895977
347, 1, bw, filler, NA, 999, 999, 6, 6, 179, 104, 73, 58, 98, 96, 1, 1.89752
347, 1, bw, filler, NA, 999, 999, 6, 6, 179, 104, 73, 58, 98, 96, 2, 0.820265
347, 1, bw, attraction, a-b-db, 5, 1, 6, 7, 58, 132, 135, 60, 60, 135, 3, 4.44133
347, 1, bw, attraction, a-b-db, 5, 1, 6, 7, 58, 132, 135, 60, 60, 135, 2, 2.00529
347, 1, bw, attraction, a-b-db, 2, 1, 6, 8, 60, 135, 59, 134, 135, 60, 1, 6.66681
347, 1, bw, attraction, a-b-db, 2, 1, 6, 8, 60, 135, 59, 134, 135, 60, 2, 1.34904
347, 1, bw, catch, NA, 999, 999, 6, 9, 148, 167, 133, 62, 162, 93, 1, 1.02857
347, 1, bw, catch, NA, 999, 999, 6, 9, 148, 167, 133, 62, 162, 93, 2, 0.882308
347, 1, bw, attraction, a-b-db, 14, 2, 6, 10, 83, 153, 90, 165, 165, 90, 2, 2.50068
347, 1, bw, attraction, a-b-db, 14, 2, 6, 10, 83, 153, 90, 165, 165, 90, 1, 1.32715
347, 1, bw, attraction, a-b-da, 14, 1, 6, 11, 135, 60, 125, 56, 60, 135, 3, 9.11144
347, 1, bw, attraction, a-b-da, 14, 1, 6, 11, 135, 60, 125, 56, 60, 135, 2, 0.687055
347, 1, bw, catch, NA, 999, 999, 6, 12, 173, 142, 144, 111, 89, 106, 1, 1.00948
347, 1, bw, catch, NA, 999, 999, 6, 12, 173, 142, 144, 111, 89, 106, 3, 1.02392
347, 1, bw, attraction, a-b-da, 9, 2, 6, 13, 157, 86, 90, 165, 165, 90, 2, 3.50818
347, 1, bw, attraction, a-b-da, 9, 2, 6, 13, 157, 86, 90, 165, 165, 90, 1, 0.589813
347, 1, bw, attraction, a-b-db, 5, 3, 6, 14, 195, 120, 117, 190, 120, 195, 3, 6.28421
347, 1, bw, attraction, a-b-db, 5, 3, 6, 14, 195, 120, 117, 190, 120, 195, 1, 1.84608
347, 1, bw, attraction, a-b-da, 2, 3, 6, 15, 193, 119, 195, 120, 120, 195, 2, 14.6175
347, 1, bw, attraction, a-b-da, 2, 3, 6, 15, 193, 119, 195, 120, 120, 195, 1, 0.803476
347, 1, bw, attraction, a-b-da, 14, 3, 6, 16, 120, 195, 181, 111, 195, 120, 1, 2.46524
347, 1, bw, attraction, a-b-da, 14, 3, 6, 16, 120, 195, 181, 111, 195, 120, 2, 0.44511
347, 1, bw, attraction, a-b-db, 14, 3, 6, 17, 120, 195, 195, 120, 111, 181, 1, 2.01694
347, 1, bw, attraction, a-b-db, 14, 3, 6, 17, 120, 195, 195, 120, 111, 181, 3, 0.702882
347, 1, bw, attraction, a-b-db, 14, 1, 6, 18, 56, 125, 60, 135, 135, 60, 2, 1.62458
347, 1, bw, attraction, a-b-db, 14, 1, 6, 18, 56, 125, 60, 135, 135, 60, 1, 0.630068
347, 1, bw, attraction, a-b-db, 5, 2, 6, 19, 88, 161, 90, 165, 165, 90, 2, 3.91467
347, 1, bw, attraction, a-b-db, 5, 2, 6, 19, 88, 161, 90, 165, 165, 90, 1, 1.18795
347, 1, bw, attraction, a-b-db, 9, 1, 6, 20, 135, 60, 57, 129, 60, 135, 1, 9.49017
347, 1, bw, attraction, a-b-db, 9, 1, 6, 20, 135, 60, 57, 129, 60, 135, 2, 1.16325
347, 1, bw, filler, NA, 999, 999, 6, 21, 170, 74, 193, 108, 142, 115, 2, 1.00213
347, 1, bw, filler, NA, 999, 999, 6, 21, 170, 74, 193, 108, 142, 115, 1, 0.465111
347, 1, bw, attraction, a-b-da, 14, 2, 6, 22, 153, 83, 90, 165, 165, 90, 2, 1.67625
347, 1, bw, attraction, a-b-da, 14, 2, 6, 22, 153, 83, 90, 165, 165, 90, 1, 0.655665
347, 1, bw, attraction, a-b-db, 2, 3, 6, 23, 120, 195, 119, 193, 195, 120, 2, 2.01947
347, 1, bw, attraction, a-b-db, 2, 3, 6, 23, 120, 195, 119, 193, 195, 120, 3, 3.31348
347, 1, bw, attraction, a-b-da, 5, 2, 6, 24, 161, 88, 165, 90, 90, 165, 3, 4.24172
347, 1, bw, attraction, a-b-da, 5, 2, 6, 24, 161, 88, 165, 90, 90, 165, 1, 2.0216
347, 1, bw, filler, NA, 999, 999, 6, 25, 101, 63, 159, 60, 97, 69, 2, 1.79427
347, 1, bw, filler, NA, 999, 999, 6, 25, 101, 63, 159, 60, 97, 69, 1, 1.08112
347, 1, bw, attraction, a-b-da, 9, 1, 6, 26, 129, 57, 135, 60, 60, 135, 2, 2.36337
347, 1, bw, attraction, a-b-da, 9, 1, 6, 26, 129, 57, 135, 60, 60, 135, 1, 0.755332
347, 1, bw, filler, NA, 999, 999, 6, 27, 132, 138, 120, 65, 103, 68, 1, 0.922854
347, 1, bw, filler, NA, 999, 999, 6, 27, 132, 138, 120, 65, 103, 68, 3, 0.900523
347, 1, bw, filler, NA, 999, 999, 6, 28, 187, 87, 170, 119, 106, 113, 2, 1.93427
347, 1, bw, filler, NA, 999, 999, 6, 28, 187, 87, 170, 119, 106, 113, 3, 1.37568
347, 1, bw, filler, NA, 999, 999, 6, 29, 166, 125, 140, 127, 180, 165, 3, 1.17378
347, 1, bw, filler, NA, 999, 999, 6, 29, 166, 125, 140, 127, 180, 165, 2, 0.789381
347, 1, bw, filler, NA, 999, 999, 6, 30, 193, 121, 139, 161, 122, 155, 2, 2.8597
347, 1, bw, filler, NA, 999, 999, 6, 30, 193, 121, 139, 161, 122, 155, 3, 0.50352
347, 1, bw, attraction, a-b-da, 2, 1, 6, 31, 60, 135, 135, 60, 134, 59, 2, 2.02531
347, 1, bw, attraction, a-b-da, 2, 1, 6, 31, 60, 135, 135, 60, 134, 59, 1, 0.742659
347, 1, bw, filler, NA, 999, 999, 6, 32, 56, 160, 126, 75, 124, 105, 3, 1.51033
347, 1, bw, filler, NA, 999, 999, 6, 32, 56, 160, 126, 75, 124, 105, 2, 0.680702
347, 1, bw, attraction, a-b-db, 2, 2, 6, 33, 90, 165, 89, 163, 165, 90, 2, 1.56293
347, 1, bw, attraction, a-b-db, 2, 2, 6, 33, 90, 165, 89, 163, 165, 90, 3, 0.731099
347, 1, bw, attraction, a-b-da, 2, 2, 6, 34, 90, 165, 165, 90, 163, 89, 1, 2.55544
347, 1, bw, attraction, a-b-da, 2, 2, 6, 34, 90, 165, 165, 90, 163, 89, 3, 1.96326
347, 1, bw, attraction, a-b-db, 9, 3, 6, 35, 195, 120, 120, 195, 114, 186, 2, 1.75409
347, 1, bw, attraction, a-b-db, 9, 3, 6, 35, 195, 120, 120, 195, 114, 186, 1, 0.570774
347, 1, bw, catch, NA, 999, 999, 6, 36, 133, 182, 86, 109, 122, 133, 1, 1.00186
347, 1, bw, catch, NA, 999, 999, 6, 36, 133, 182, 86, 109, 122, 133, 2, 0.600853
347, 1, bw, attraction, a-b-da, 5, 1, 6, 37, 135, 60, 60, 135, 132, 58, 2, 2.11062
347, 1, bw, attraction, a-b-da, 5, 1, 6, 37, 135, 60, 60, 135, 132, 58, 3, 0.632493
347, 1, bw, filler, NA, 999, 999, 7, 1, 111, 167, 162, 183, 114, 160, 2, 1.33303
347, 1, bw, filler, NA, 999, 999, 7, 1, 111, 167, 162, 183, 114, 160, 1, 0.558485
347, 1, bw, attraction, a-b-db, 9, 1, 7, 2, 60, 135, 57, 129, 135, 60, 2, 4.66171
347, 1, bw, attraction, a-b-db, 9, 1, 7, 2, 60, 135, 57, 129, 135, 60, 1, 0.800817
347, 1, bw, filler, NA, 999, 999, 7, 3, 138, 145, 150, 155, 160, 130, 2, 1.58244
347, 1, bw, filler, NA, 999, 999, 7, 3, 138, 145, 150, 155, 160, 130, 1, 0.629874
347, 1, bw, attraction, a-b-da, 2, 2, 7, 4, 165, 90, 90, 165, 163, 89, 2, 3.65035
347, 1, bw, attraction, a-b-da, 2, 2, 7, 4, 165, 90, 90, 165, 163, 89, 3, 0.990645
347, 1, bw, attraction, a-b-da, 2, 1, 7, 5, 135, 60, 60, 135, 134, 59, 2, 7.70013
347, 1, bw, attraction, a-b-da, 2, 1, 7, 5, 135, 60, 60, 135, 134, 59, 3, 0.685014
347, 1, bw, attraction, a-b-db, 2, 1, 7, 6, 60, 135, 59, 134, 135, 60, 2, 1.68746
347, 1, bw, attraction, a-b-db, 2, 1, 7, 6, 60, 135, 59, 134, 135, 60, 1, 0.674939
347, 1, bw, attraction, a-b-db, 5, 3, 7, 7, 195, 120, 120, 195, 117, 190, 2, 2.13336
347, 1, bw, attraction, a-b-db, 5, 3, 7, 7, 195, 120, 120, 195, 117, 190, 1, 0.542659
347, 1, bw, attraction, a-b-db, 14, 2, 7, 8, 90, 165, 83, 153, 165, 90, 1, 2.15841
347, 1, bw, attraction, a-b-db, 14, 2, 7, 8, 90, 165, 83, 153, 165, 90, 2, 0.974392
347, 1, bw, filler, NA, 999, 999, 7, 9, 113, 106, 95, 185, 132, 154, 3, 1.06073
347, 1, bw, filler, NA, 999, 999, 7, 9, 113, 106, 95, 185, 132, 154, 1, 0.497041
347, 1, bw, attraction, a-b-da, 9, 1, 7, 10, 60, 135, 129, 57, 135, 60, 1, 3.95468
347, 1, bw, attraction, a-b-da, 9, 1, 7, 10, 60, 135, 129, 57, 135, 60, 2, 1.09089
347, 1, bw, catch, NA, 999, 999, 7, 11, 187, 128, 131, 124, 114, 81, 1, 1.23657
347, 1, bw, catch, NA, 999, 999, 7, 11, 187, 128, 131, 124, 114, 81, 3, 0.553933
347, 1, bw, attraction, a-b-da, 5, 2, 7, 12, 161, 88, 165, 90, 90, 165, 2, 3.44185
347, 1, bw, attraction, a-b-da, 5, 2, 7, 12, 161, 88, 165, 90, 90, 165, 1, 0.821945
347, 1, bw, filler, NA, 999, 999, 7, 13, 80, 168, 130, 120, 134, 138, 3, 1.69105
347, 1, bw, filler, NA, 999, 999, 7, 13, 80, 168, 130, 120, 134, 138, 1, 3.17384
347, 1, bw, attraction, a-b-db, 2, 3, 7, 14, 120, 195, 119, 193, 195, 120, 2, 2.76403
347, 1, bw, attraction, a-b-db, 2, 3, 7, 14, 120, 195, 119, 193, 195, 120, 1, 0.995927
347, 1, bw, attraction, a-b-db, 2, 2, 7, 15, 90, 165, 89, 163, 165, 90, 2, 7.86546
347, 1, bw, attraction, a-b-db, 2, 2, 7, 15, 90, 165, 89, 163, 165, 90, 1, 0.507617
347, 1, bw, filler, NA, 999, 999, 7, 16, 144, 85, 78, 176, 101, 107, 2, 3.34073
347, 1, bw, filler, NA, 999, 999, 7, 16, 144, 85, 78, 176, 101, 107, 1, 0.829067
347, 1, bw, attraction, a-b-da, 9, 2, 7, 17, 165, 90, 90, 165, 157, 86, 2, 2.97735
347, 1, bw, attraction, a-b-da, 9, 2, 7, 17, 165, 90, 90, 165, 157, 86, 3, 1.00857
347, 1, bw, catch, NA, 999, 999, 7, 18, 77, 118, 130, 185, 103, 152, 2, 0.829605
347, 1, bw, catch, NA, 999, 999, 7, 18, 77, 118, 130, 185, 103, 152, 1, 0.835056
347, 1, bw, attraction, a-b-db, 9, 2, 7, 19, 165, 90, 90, 165, 86, 157, 1, 5.43944
347, 1, bw, attraction, a-b-db, 9, 2, 7, 19, 165, 90, 90, 165, 86, 157, 3, 0.739723
347, 1, bw, attraction, a-b-db, 14, 1, 7, 20, 135, 60, 56, 125, 60, 135, 3, 2.98816
347, 1, bw, attraction, a-b-db, 14, 1, 7, 20, 135, 60, 56, 125, 60, 135, 2, 1.18726
347, 1, bw, attraction, a-b-da, 5, 3, 7, 21, 120, 195, 195, 120, 190, 117, 1, 3.51334
347, 1, bw, attraction, a-b-da, 5, 3, 7, 21, 120, 195, 195, 120, 190, 117, 2, 0.635098
347, 1, bw, filler, NA, 999, 999, 7, 22, 127, 156, 70, 127, 70, 172, 1, 1.28739
347, 1, bw, filler, NA, 999, 999, 7, 22, 127, 156, 70, 127, 70, 172, 2, 0.746889
347, 1, bw, attraction, a-b-da, 14, 3, 7, 23, 195, 120, 181, 111, 120, 195, 3, 1.56256
347, 1, bw, attraction, a-b-da, 14, 3, 7, 23, 195, 120, 181, 111, 120, 195, 2, 0.658749
347, 1, bw, attraction, a-b-db, 5, 1, 7, 24, 58, 132, 60, 135, 135, 60, 2, 4.18179
347, 1, bw, attraction, a-b-db, 5, 1, 7, 24, 58, 132, 60, 135, 135, 60, 3, 0.772495
347, 1, bw, attraction, a-b-db, 5, 2, 7, 25, 90, 165, 88, 161, 165, 90, 2, 3.33151
347, 1, bw, attraction, a-b-db, 5, 2, 7, 25, 90, 165, 88, 161, 165, 90, 1, 0.924626
347, 1, bw, filler, NA, 999, 999, 7, 26, 181, 169, 151, 58, 163, 98, 1, 0.948923
347, 1, bw, filler, NA, 999, 999, 7, 26, 181, 169, 151, 58, 163, 98, 2, 0.8379
347, 1, bw, filler, NA, 999, 999, 7, 27, 90, 64, 129, 151, 59, 58, 2, 0.978328
347, 1, bw, filler, NA, 999, 999, 7, 27, 90, 64, 129, 151, 59, 58, 3, 0.865804
347, 1, bw, attraction, a-b-db, 14, 3, 7, 28, 195, 120, 111, 181, 120, 195, 3, 2.78086
347, 1, bw, attraction, a-b-db, 14, 3, 7, 28, 195, 120, 111, 181, 120, 195, 2, 1.788
347, 1, bw, attraction, a-b-da, 9, 3, 7, 29, 186, 114, 120, 195, 195, 120, 2, 1.93803
347, 1, bw, attraction, a-b-da, 9, 3, 7, 29, 186, 114, 120, 195, 195, 120, 1, 0.723354
347, 1, bw, filler, NA, 999, 999, 7, 30, 87, 154, 184, 76, 102, 122, 2, 4.6677
347, 1, bw, filler, NA, 999, 999, 7, 30, 87, 154, 184, 76, 102, 122, 3, 2.15893
347, 1, bw, catch, NA, 999, 999, 7, 31, 91, 164, 65, 130, 143, 172, 3, 1.48547
347, 1, bw, catch, NA, 999, 999, 7, 31, 91, 164, 65, 130, 143, 172, 2, 0.472963
347, 1, bw, attraction, a-b-da, 14, 2, 7, 32, 153, 83, 90, 165, 165, 90, 2, 1.1722
347, 1, bw, attraction, a-b-da, 14, 2, 7, 32, 153, 83, 90, 165, 165, 90, 1, 0.523738
347, 1, bw, attraction, a-b-da, 2, 3, 7, 33, 195, 120, 193, 119, 120, 195, 3, 3.32408
347, 1, bw, attraction, a-b-da, 2, 3, 7, 33, 195, 120, 193, 119, 120, 195, 2, 0.629176
347, 1, bw, filler, NA, 999, 999, 7, 34, 190, 148, 195, 195, 105, 58, 2, 1.16955
347, 1, bw, filler, NA, 999, 999, 7, 34, 190, 148, 195, 195, 105, 58, 3, 0.673894
347, 1, bw, attraction, a-b-da, 14, 1, 7, 35, 125, 56, 60, 135, 135, 60, 2, 2.09239
347, 1, bw, attraction, a-b-da, 14, 1, 7, 35, 125, 56, 60, 135, 135, 60, 1, 0.558926
347, 1, bw, attraction, a-b-da, 5, 1, 7, 36, 135, 60, 60, 135, 132, 58, 2, 2.14997
347, 1, bw, attraction, a-b-da, 5, 1, 7, 36, 135, 60, 60, 135, 132, 58, 1, 0.8947
347, 1, bw, attraction, a-b-db, 9, 3, 7, 37, 114, 186, 195, 120, 120, 195, 3, 2.38432
347, 1, bw, attraction, a-b-db, 9, 3, 7, 37, 114, 186, 195, 120, 120, 195, 1, 0.903492
347, 1, bw, filler, NA, 999, 999, 8, 1, 157, 163, 94, 184, 60, 179, 1, 1.20918
347, 1, bw, filler, NA, 999, 999, 8, 1, 157, 163, 94, 184, 60, 179, 3, 0.575331
347, 1, bw, attraction, a-b-da, 14, 1, 8, 2, 125, 56, 135, 60, 60, 135, 3, 1.9898
347, 1, bw, attraction, a-b-da, 14, 1, 8, 2, 125, 56, 135, 60, 60, 135, 1, 0.596518
347, 1, bw, attraction, a-b-db, 2, 3, 8, 3, 195, 120, 120, 195, 119, 193, 2, 3.73024
347, 1, bw, attraction, a-b-db, 2, 3, 8, 3, 195, 120, 120, 195, 119, 193, 1, 0.659114
347, 1, bw, filler, NA, 999, 999, 8, 4, 151, 191, 173, 168, 111, 127, 1, 1.11017
347, 1, bw, filler, NA, 999, 999, 8, 4, 151, 191, 173, 168, 111, 127, 3, 0.53647
347, 1, bw, attraction, a-b-da, 9, 3, 8, 5, 195, 120, 120, 195, 186, 114, 2, 2.82497
347, 1, bw, attraction, a-b-da, 9, 3, 8, 5, 195, 120, 120, 195, 186, 114, 3, 0.742016
347, 1, bw, attraction, a-b-db, 5, 2, 8, 6, 90, 165, 88, 161, 165, 90, 1, 2.61379
347, 1, bw, attraction, a-b-db, 5, 2, 8, 6, 90, 165, 88, 161, 165, 90, 3, 1.05948
347, 1, bw, attraction, a-b-da, 2, 1, 8, 7, 134, 59, 60, 135, 135, 60, 2, 1.20644
347, 1, bw, attraction, a-b-da, 2, 1, 8, 7, 134, 59, 60, 135, 135, 60, 1, 0.54875
347, 1, bw, attraction, a-b-da, 9, 1, 8, 8, 129, 57, 135, 60, 60, 135, 3, 1.68454
347, 1, bw, attraction, a-b-da, 9, 1, 8, 8, 129, 57, 135, 60, 60, 135, 1, 0.671883
347, 1, bw, attraction, a-b-db, 2, 2, 8, 9, 165, 90, 90, 165, 89, 163, 2, 2.11501
347, 1, bw, attraction, a-b-db, 2, 2, 8, 9, 165, 90, 90, 165, 89, 163, 1, 0.628919
347, 1, bw, attraction, a-b-da, 14, 3, 8, 10, 195, 120, 120, 195, 181, 111, 2, 2.81736
347, 1, bw, attraction, a-b-da, 14, 3, 8, 10, 195, 120, 120, 195, 181, 111, 3, 0.487182
347, 1, bw, filler, NA, 999, 999, 8, 11, 57, 116, 72, 106, 163, 176, 3, 0.817559
347, 1, bw, filler, NA, 999, 999, 8, 11, 57, 116, 72, 106, 163, 176, 1, 0.567976
347, 1, bw, attraction, a-b-da, 14, 2, 8, 12, 165, 90, 153, 83, 90, 165, 1, 2.22306
347, 1, bw, attraction, a-b-da, 14, 2, 8, 12, 165, 90, 153, 83, 90, 165, 2, 0.46833
347, 1, bw, filler, NA, 999, 999, 8, 13, 105, 63, 118, 128, 167, 113, 3, 1.10347
347, 1, bw, filler, NA, 999, 999, 8, 13, 105, 63, 118, 128, 167, 113, 1, 0.562436
347, 1, bw, filler, NA, 999, 999, 8, 14, 167, 175, 120, 102, 177, 76, 1, 1.44955
347, 1, bw, filler, NA, 999, 999, 8, 14, 167, 175, 120, 102, 177, 76, 2, 1.29446
347, 1, bw, attraction, a-b-db, 5, 3, 8, 15, 195, 120, 117, 190, 120, 195, 3, 2.54391
347, 1, bw, attraction, a-b-db, 5, 3, 8, 15, 195, 120, 117, 190, 120, 195, 1, 0.584396
347, 1, bw, attraction, a-b-db, 14, 1, 8, 16, 60, 135, 135, 60, 56, 125, 1, 2.52682
347, 1, bw, attraction, a-b-db, 14, 1, 8, 16, 60, 135, 135, 60, 56, 125, 2, 0.631999
347, 1, bw, catch, NA, 999, 999, 8, 17, 62, 133, 153, 102, 170, 145, 3, 0.828468
347, 1, bw, catch, NA, 999, 999, 8, 17, 62, 133, 153, 102, 170, 145, 1, 0.714228
347, 1, bw, filler, NA, 999, 999, 8, 18, 112, 169, 62, 135, 105, 137, 1, 1.1392
347, 1, bw, filler, NA, 999, 999, 8, 18, 112, 169, 62, 135, 105, 137, 2, 0.780141
347, 1, bw, attraction, a-b-db, 14, 3, 8, 19, 111, 181, 120, 195, 195, 120, 2, 2.49054
347, 1, bw, attraction, a-b-db, 14, 3, 8, 19, 111, 181, 120, 195, 195, 120, 1, 0.629181
347, 1, bw, filler, NA, 999, 999, 8, 20, 107, 144, 161, 185, 186, 114, 2, 1.30547
347, 1, bw, filler, NA, 999, 999, 8, 20, 107, 144, 161, 185, 186, 114, 1, 0.723686
347, 1, bw, attraction, a-b-db, 9, 1, 8, 21, 57, 129, 135, 60, 60, 135, 3, 2.11616
347, 1, bw, attraction, a-b-db, 9, 1, 8, 21, 57, 129, 135, 60, 60, 135, 1, 1.7181
347, 1, bw, attraction, a-b-da, 5, 1, 8, 22, 60, 135, 132, 58, 135, 60, 1, 4.72693
347, 1, bw, attraction, a-b-da, 5, 1, 8, 22, 60, 135, 132, 58, 135, 60, 2, 0.815448
347, 1, bw, attraction, a-b-da, 5, 2, 8, 23, 165, 90, 90, 165, 161, 88, 2, 3.62836
347, 1, bw, attraction, a-b-da, 5, 2, 8, 23, 165, 90, 90, 165, 161, 88, 3, 1.08124
347, 1, bw, attraction, a-b-da, 5, 3, 8, 24, 120, 195, 190, 117, 195, 120, 1, 1.19566
347, 1, bw, attraction, a-b-da, 5, 3, 8, 24, 120, 195, 190, 117, 195, 120, 3, 1.1545
347, 1, bw, attraction, a-b-db, 2, 1, 8, 25, 135, 60, 59, 134, 60, 135, 3, 1.97815
347, 1, bw, attraction, a-b-db, 2, 1, 8, 25, 135, 60, 59, 134, 60, 135, 1, 0.801385
347, 1, bw, attraction, a-b-db, 9, 2, 8, 26, 165, 90, 90, 165, 86, 157, 2, 2.10301
347, 1, bw, attraction, a-b-db, 9, 2, 8, 26, 165, 90, 90, 165, 86, 157, 1, 1.97778
347, 1, bw, filler, NA, 999, 999, 8, 27, 130, 166, 134, 134, 154, 136, 1, 3.00772
347, 1, bw, filler, NA, 999, 999, 8, 27, 130, 166, 134, 134, 154, 136, 2, 0.557366
347, 1, bw, attraction, a-b-db, 14, 2, 8, 28, 83, 153, 90, 165, 165, 90, 2, 4.19642
347, 1, bw, attraction, a-b-db, 14, 2, 8, 28, 83, 153, 90, 165, 165, 90, 3, 3.5545
347, 1, bw, attraction, a-b-da, 9, 2, 8, 29, 90, 165, 165, 90, 157, 86, 1, 1.60128
347, 1, bw, attraction, a-b-da, 9, 2, 8, 29, 90, 165, 165, 90, 157, 86, 3, 0.648064
347, 1, bw, catch, NA, 999, 999, 8, 30, 174, 141, 121, 134, 127, 68, 1, 1.06794
347, 1, bw, catch, NA, 999, 999, 8, 30, 174, 141, 121, 134, 127, 68, 3, 0.792165
347, 1, bw, attraction, a-b-db, 9, 3, 8, 31, 195, 120, 120, 195, 114, 186, 2, 5.37388
347, 1, bw, attraction, a-b-db, 9, 3, 8, 31, 195, 120, 120, 195, 114, 186, 3, 0.612131
347, 1, bw, filler, NA, 999, 999, 8, 32, 183, 86, 97, 187, 177, 83, 2, 2.05733
347, 1, bw, filler, NA, 999, 999, 8, 32, 183, 86, 97, 187, 177, 83, 3, 1.04516
347, 1, bw, catch, NA, 999, 999, 8, 33, 80, 115, 127, 128, 194, 121, 3, 1.24095
347, 1, bw, catch, NA, 999, 999, 8, 33, 80, 115, 127, 128, 194, 121, 1, 0.901644
347, 1, bw, filler, NA, 999, 999, 8, 34, 105, 186, 68, 148, 177, 69, 1, 2.06343
347, 1, bw, filler, NA, 999, 999, 8, 34, 105, 186, 68, 148, 177, 69, 2, 0.595461
347, 1, bw, attraction, a-b-db, 5, 1, 8, 35, 135, 60, 60, 135, 58, 132, 2, 2.56921
347, 1, bw, attraction, a-b-db, 5, 1, 8, 35, 135, 60, 60, 135, 58, 132, 1, 0.656976
347, 1, bw, attraction, a-b-da, 2, 3, 8, 36, 195, 120, 193, 119, 120, 195, 3, 3.63607
347, 1, bw, attraction, a-b-da, 2, 3, 8, 36, 195, 120, 193, 119, 120, 195, 2, 0.624868
347, 1, bw, attraction, a-b-da, 2, 2, 8, 37, 90, 165, 163, 89, 165, 90, 1, 1.5493
347, 1, bw, attraction, a-b-da, 2, 2, 8, 37, 90, 165, 163, 89, 165, 90, 3, 0.598163
