sub_n, computer_n, bw_cond, effect, set, distance, diag, block_n, trial_n, h1, w1, h2, w2, h3, w3, choice, rt 
309, 1, bw, practice, NA, 999, 999, 0, 1, 113, 109, 114, 173, 71, 94, 2, 2.58815
309, 1, bw, practice, NA, 999, 999, 0, 1, 113, 109, 114, 173, 71, 94, 3, 2.59503
309, 1, bw, practice, NA, 999, 999, 0, 2, 101, 195, 144, 114, 98, 163, 1, 2.18757
309, 1, bw, practice, NA, 999, 999, 0, 2, 101, 195, 144, 114, 98, 163, 2, 3.54766
309, 1, bw, practice, NA, 999, 999, 0, 3, 63, 80, 110, 143, 152, 185, 3, 2.21556
309, 1, bw, practice, NA, 999, 999, 0, 3, 63, 80, 110, 143, 152, 185, 1, 1.64583
309, 1, bw, attraction, a-b-da, 14, 2, 1, 1, 165, 90, 90, 165, 153, 83, 1, 7.52724
309, 1, bw, attraction, a-b-da, 14, 2, 1, 1, 165, 90, 90, 165, 153, 83, 3, 1.28691
309, 1, bw, filler, NA, 999, 999, 1, 2, 158, 150, 102, 187, 67, 81, 1, 1.74498
309, 1, bw, filler, NA, 999, 999, 1, 2, 158, 150, 102, 187, 67, 81, 3, 1.08187
309, 1, bw, attraction, a-b-db, 9, 2, 1, 3, 86, 157, 90, 165, 165, 90, 2, 1.92405
309, 1, bw, attraction, a-b-db, 9, 2, 1, 3, 86, 157, 90, 165, 165, 90, 1, 0.941442
309, 1, bw, attraction, a-b-db, 9, 1, 1, 4, 60, 135, 57, 129, 135, 60, 2, 1.92507
309, 1, bw, attraction, a-b-db, 9, 1, 1, 4, 60, 135, 57, 129, 135, 60, 3, 0.694472
309, 1, bw, attraction, a-b-db, 5, 3, 1, 5, 120, 195, 117, 190, 195, 120, 1, 2.00018
309, 1, bw, attraction, a-b-db, 5, 3, 1, 5, 120, 195, 117, 190, 195, 120, 2, 1.09485
309, 1, bw, attraction, a-b-db, 5, 2, 1, 6, 165, 90, 90, 165, 88, 161, 3, 1.66451
309, 1, bw, attraction, a-b-db, 5, 2, 1, 6, 165, 90, 90, 165, 88, 161, 1, 0.644626
309, 1, bw, catch, NA, 999, 999, 1, 7, 162, 93, 183, 132, 126, 69, 2, 0.8563
309, 1, bw, catch, NA, 999, 999, 1, 7, 162, 93, 183, 132, 126, 69, 3, 0.588689
309, 1, bw, filler, NA, 999, 999, 1, 8, 163, 178, 168, 161, 195, 69, 1, 1.46709
309, 1, bw, filler, NA, 999, 999, 1, 8, 163, 178, 168, 161, 195, 69, 3, 0.951341
309, 1, bw, attraction, a-b-da, 5, 1, 1, 9, 135, 60, 132, 58, 60, 135, 2, 1.39896
309, 1, bw, attraction, a-b-da, 5, 1, 1, 9, 135, 60, 132, 58, 60, 135, 3, 0.485856
309, 1, bw, attraction, a-b-da, 5, 3, 1, 10, 195, 120, 190, 117, 120, 195, 3, 1.95221
309, 1, bw, attraction, a-b-da, 5, 3, 1, 10, 195, 120, 190, 117, 120, 195, 2, 0.528958
309, 1, bw, attraction, a-b-da, 2, 3, 1, 11, 120, 195, 193, 119, 195, 120, 3, 1.0254
309, 1, bw, attraction, a-b-da, 2, 3, 1, 11, 120, 195, 193, 119, 195, 120, 2, 0.543068
309, 1, bw, attraction, a-b-da, 9, 2, 1, 12, 90, 165, 165, 90, 157, 86, 2, 1.27881
309, 1, bw, attraction, a-b-da, 9, 2, 1, 12, 90, 165, 165, 90, 157, 86, 3, 0.394395
309, 1, bw, attraction, a-b-db, 9, 3, 1, 13, 114, 186, 120, 195, 195, 120, 1, 1.16825
309, 1, bw, attraction, a-b-db, 9, 3, 1, 13, 114, 186, 120, 195, 195, 120, 3, 0.872669
309, 1, bw, filler, NA, 999, 999, 1, 14, 107, 163, 142, 79, 120, 109, 1, 1.82752
309, 1, bw, filler, NA, 999, 999, 1, 14, 107, 163, 142, 79, 120, 109, 2, 0.720862
309, 1, bw, catch, NA, 999, 999, 1, 15, 109, 146, 109, 86, 194, 121, 3, 1.54593
309, 1, bw, catch, NA, 999, 999, 1, 15, 109, 146, 109, 86, 194, 121, 2, 0.714736
309, 1, bw, catch, NA, 999, 999, 1, 16, 136, 179, 91, 104, 143, 112, 1, 0.811819
309, 1, bw, catch, NA, 999, 999, 1, 16, 136, 179, 91, 104, 143, 112, 2, 0.922267
309, 1, bw, filler, NA, 999, 999, 1, 17, 172, 133, 114, 161, 188, 61, 2, 1.65125
309, 1, bw, filler, NA, 999, 999, 1, 17, 172, 133, 114, 161, 188, 61, 3, 0.424023
309, 1, bw, filler, NA, 999, 999, 1, 18, 182, 195, 140, 123, 75, 95, 1, 0.988544
309, 1, bw, filler, NA, 999, 999, 1, 18, 182, 195, 140, 123, 75, 95, 3, 0.707446
309, 1, bw, attraction, a-b-db, 14, 1, 1, 19, 60, 135, 135, 60, 56, 125, 2, 1.19659
309, 1, bw, attraction, a-b-db, 14, 1, 1, 19, 60, 135, 135, 60, 56, 125, 1, 0.539493
309, 1, bw, attraction, a-b-da, 14, 1, 1, 20, 135, 60, 60, 135, 125, 56, 1, 2.68391
309, 1, bw, attraction, a-b-da, 14, 1, 1, 20, 135, 60, 60, 135, 125, 56, 3, 1.00713
309, 1, bw, attraction, a-b-db, 2, 1, 1, 21, 59, 134, 60, 135, 135, 60, 2, 1.25998
309, 1, bw, attraction, a-b-db, 2, 1, 1, 21, 59, 134, 60, 135, 135, 60, 3, 0.608281
309, 1, bw, attraction, a-b-da, 9, 1, 1, 22, 129, 57, 60, 135, 135, 60, 2, 1.42133
309, 1, bw, attraction, a-b-da, 9, 1, 1, 22, 129, 57, 60, 135, 135, 60, 3, 0.88361
309, 1, bw, attraction, a-b-da, 9, 3, 1, 23, 195, 120, 120, 195, 186, 114, 2, 1.78983
309, 1, bw, attraction, a-b-da, 9, 3, 1, 23, 195, 120, 120, 195, 186, 114, 3, 0.66853
309, 1, bw, attraction, a-b-da, 2, 2, 1, 24, 90, 165, 163, 89, 165, 90, 2, 0.927693
309, 1, bw, attraction, a-b-da, 2, 2, 1, 24, 90, 165, 163, 89, 165, 90, 3, 0.465398
309, 1, bw, filler, NA, 999, 999, 1, 25, 102, 63, 193, 144, 89, 121, 2, 0.98846
309, 1, bw, filler, NA, 999, 999, 1, 25, 102, 63, 193, 144, 89, 121, 1, 0.411509
309, 1, bw, filler, NA, 999, 999, 1, 26, 120, 192, 195, 76, 81, 128, 1, 2.29659
309, 1, bw, filler, NA, 999, 999, 1, 26, 120, 192, 195, 76, 81, 128, 3, 0.339172
309, 1, bw, attraction, a-b-da, 14, 3, 1, 27, 181, 111, 120, 195, 195, 120, 2, 1.13172
309, 1, bw, attraction, a-b-da, 14, 3, 1, 27, 181, 111, 120, 195, 195, 120, 3, 0.565343
309, 1, bw, filler, NA, 999, 999, 1, 28, 82, 169, 143, 180, 182, 90, 2, 0.956414
309, 1, bw, filler, NA, 999, 999, 1, 28, 82, 169, 143, 180, 182, 90, 1, 0.692893
309, 1, bw, attraction, a-b-da, 2, 1, 1, 29, 135, 60, 134, 59, 60, 135, 3, 4.87051
309, 1, bw, attraction, a-b-da, 2, 1, 1, 29, 135, 60, 134, 59, 60, 135, 2, 0.713708
309, 1, bw, filler, NA, 999, 999, 1, 30, 165, 128, 115, 85, 104, 138, 1, 1.06665
309, 1, bw, filler, NA, 999, 999, 1, 30, 165, 128, 115, 85, 104, 138, 2, 0.527057
309, 1, bw, filler, NA, 999, 999, 1, 31, 185, 144, 151, 187, 124, 72, 2, 0.8074
309, 1, bw, filler, NA, 999, 999, 1, 31, 185, 144, 151, 187, 124, 72, 3, 0.645828
309, 1, bw, attraction, a-b-db, 2, 2, 1, 32, 89, 163, 165, 90, 90, 165, 2, 1.52953
309, 1, bw, attraction, a-b-db, 2, 2, 1, 32, 89, 163, 165, 90, 90, 165, 3, 0.739146
309, 1, bw, attraction, a-b-db, 14, 2, 1, 33, 165, 90, 83, 153, 90, 165, 2, 1.79543
309, 1, bw, attraction, a-b-db, 14, 2, 1, 33, 165, 90, 83, 153, 90, 165, 1, 0.754125
309, 1, bw, attraction, a-b-da, 5, 2, 1, 34, 90, 165, 165, 90, 161, 88, 2, 0.929835
309, 1, bw, attraction, a-b-da, 5, 2, 1, 34, 90, 165, 165, 90, 161, 88, 3, 0.579615
309, 1, bw, attraction, a-b-db, 5, 1, 1, 35, 135, 60, 60, 135, 58, 132, 2, 1.13798
309, 1, bw, attraction, a-b-db, 5, 1, 1, 35, 135, 60, 60, 135, 58, 132, 1, 0.603625
309, 1, bw, attraction, a-b-db, 2, 3, 1, 36, 119, 193, 120, 195, 195, 120, 2, 1.4894
309, 1, bw, attraction, a-b-db, 2, 3, 1, 36, 119, 193, 120, 195, 195, 120, 3, 0.716175
309, 1, bw, attraction, a-b-db, 14, 3, 1, 37, 111, 181, 195, 120, 120, 195, 3, 0.933213
309, 1, bw, attraction, a-b-db, 14, 3, 1, 37, 111, 181, 195, 120, 120, 195, 1, 0.534913
309, 1, bw, attraction, a-b-db, 14, 3, 2, 1, 195, 120, 111, 181, 120, 195, 1, 1.05538
309, 1, bw, attraction, a-b-db, 14, 3, 2, 1, 195, 120, 111, 181, 120, 195, 2, 0.691651
309, 1, bw, attraction, a-b-da, 5, 3, 2, 2, 195, 120, 120, 195, 190, 117, 2, 0.925432
309, 1, bw, attraction, a-b-da, 5, 3, 2, 2, 195, 120, 120, 195, 190, 117, 3, 0.487217
309, 1, bw, filler, NA, 999, 999, 2, 3, 168, 116, 57, 96, 156, 172, 3, 1.32575
309, 1, bw, filler, NA, 999, 999, 2, 3, 168, 116, 57, 96, 156, 172, 2, 1.05913
309, 1, bw, attraction, a-b-da, 14, 1, 2, 4, 135, 60, 125, 56, 60, 135, 1, 1.7501
309, 1, bw, attraction, a-b-da, 14, 1, 2, 4, 135, 60, 125, 56, 60, 135, 2, 0.854815
309, 1, bw, attraction, a-b-da, 14, 3, 2, 5, 195, 120, 120, 195, 181, 111, 2, 0.91453
309, 1, bw, attraction, a-b-da, 14, 3, 2, 5, 195, 120, 120, 195, 181, 111, 3, 0.860948
309, 1, bw, attraction, a-b-da, 5, 1, 2, 6, 135, 60, 132, 58, 60, 135, 2, 1.63988
309, 1, bw, attraction, a-b-da, 5, 1, 2, 6, 135, 60, 132, 58, 60, 135, 3, 0.724595
309, 1, bw, attraction, a-b-da, 9, 3, 2, 7, 120, 195, 186, 114, 195, 120, 3, 1.46899
309, 1, bw, attraction, a-b-da, 9, 3, 2, 7, 120, 195, 186, 114, 195, 120, 2, 1.0732
309, 1, bw, filler, NA, 999, 999, 2, 8, 190, 123, 173, 79, 90, 161, 1, 0.892165
309, 1, bw, filler, NA, 999, 999, 2, 8, 190, 123, 173, 79, 90, 161, 2, 0.871254
309, 1, bw, attraction, a-b-da, 2, 2, 2, 9, 163, 89, 90, 165, 165, 90, 3, 1.34627
309, 1, bw, attraction, a-b-da, 2, 2, 2, 9, 163, 89, 90, 165, 165, 90, 2, 0.747135
309, 1, bw, attraction, a-b-db, 9, 3, 2, 10, 195, 120, 120, 195, 114, 186, 2, 2.34676
309, 1, bw, attraction, a-b-db, 9, 3, 2, 10, 195, 120, 120, 195, 114, 186, 1, 0.723285
309, 1, bw, filler, NA, 999, 999, 2, 11, 61, 112, 117, 85, 187, 64, 3, 1.93172
309, 1, bw, filler, NA, 999, 999, 2, 11, 61, 112, 117, 85, 187, 64, 1, 0.933041
309, 1, bw, catch, NA, 999, 999, 2, 12, 77, 118, 94, 161, 182, 133, 3, 1.3495
309, 1, bw, catch, NA, 999, 999, 2, 12, 77, 118, 94, 161, 182, 133, 1, 0.82232
309, 1, bw, attraction, a-b-db, 14, 1, 2, 13, 135, 60, 56, 125, 60, 135, 3, 1.59532
309, 1, bw, attraction, a-b-db, 14, 1, 2, 13, 135, 60, 56, 125, 60, 135, 1, 0.778179
309, 1, bw, filler, NA, 999, 999, 2, 14, 90, 155, 189, 63, 175, 78, 1, 1.10453
309, 1, bw, filler, NA, 999, 999, 2, 14, 90, 155, 189, 63, 175, 78, 3, 1.85873
309, 1, bw, attraction, a-b-db, 2, 3, 2, 15, 120, 195, 195, 120, 119, 193, 3, 1.86141
309, 1, bw, attraction, a-b-db, 2, 3, 2, 15, 120, 195, 195, 120, 119, 193, 2, 0.785535
309, 1, bw, attraction, a-b-da, 9, 2, 2, 16, 90, 165, 165, 90, 157, 86, 2, 1.27186
309, 1, bw, attraction, a-b-da, 9, 2, 2, 16, 90, 165, 165, 90, 157, 86, 3, 0.579459
309, 1, bw, attraction, a-b-da, 5, 2, 2, 17, 165, 90, 161, 88, 90, 165, 3, 1.31386
309, 1, bw, attraction, a-b-da, 5, 2, 2, 17, 165, 90, 161, 88, 90, 165, 1, 0.604124
309, 1, bw, attraction, a-b-db, 9, 1, 2, 18, 135, 60, 60, 135, 57, 129, 2, 1.64187
309, 1, bw, attraction, a-b-db, 9, 1, 2, 18, 135, 60, 60, 135, 57, 129, 1, 0.526602
309, 1, bw, catch, NA, 999, 999, 2, 19, 130, 125, 75, 120, 181, 134, 3, 1.43908
309, 1, bw, catch, NA, 999, 999, 2, 19, 130, 125, 75, 120, 181, 134, 2, 0.659928
309, 1, bw, attraction, a-b-da, 2, 1, 2, 20, 135, 60, 60, 135, 134, 59, 1, 1.81497
309, 1, bw, attraction, a-b-da, 2, 1, 2, 20, 135, 60, 60, 135, 134, 59, 3, 0.677057
309, 1, bw, filler, NA, 999, 999, 2, 21, 79, 184, 137, 142, 165, 131, 3, 1.73547
309, 1, bw, filler, NA, 999, 999, 2, 21, 79, 184, 137, 142, 165, 131, 1, 1.77692
309, 1, bw, filler, NA, 999, 999, 2, 22, 116, 141, 76, 142, 105, 150, 1, 1.83097
309, 1, bw, filler, NA, 999, 999, 2, 22, 116, 141, 76, 142, 105, 150, 2, 0.796333
309, 1, bw, attraction, a-b-db, 5, 2, 2, 23, 90, 165, 88, 161, 165, 90, 1, 1.29799
309, 1, bw, attraction, a-b-db, 5, 2, 2, 23, 90, 165, 88, 161, 165, 90, 3, 0.621019
309, 1, bw, filler, NA, 999, 999, 2, 24, 182, 120, 155, 91, 129, 93, 1, 1.75407
309, 1, bw, filler, NA, 999, 999, 2, 24, 182, 120, 155, 91, 129, 93, 3, 0.65883
309, 1, bw, attraction, a-b-da, 2, 3, 2, 25, 195, 120, 193, 119, 120, 195, 3, 1.14194
309, 1, bw, attraction, a-b-da, 2, 3, 2, 25, 195, 120, 193, 119, 120, 195, 2, 1.27078
309, 1, bw, attraction, a-b-db, 9, 2, 2, 26, 165, 90, 90, 165, 86, 157, 2, 2.04963
309, 1, bw, attraction, a-b-db, 9, 2, 2, 26, 165, 90, 90, 165, 86, 157, 1, 0.662344
309, 1, bw, filler, NA, 999, 999, 2, 27, 143, 189, 137, 164, 161, 71, 1, 1.60137
309, 1, bw, filler, NA, 999, 999, 2, 27, 143, 189, 137, 164, 161, 71, 3, 0.656314
309, 1, bw, attraction, a-b-da, 9, 1, 2, 28, 60, 135, 129, 57, 135, 60, 1, 1.76406
309, 1, bw, attraction, a-b-da, 9, 1, 2, 28, 60, 135, 129, 57, 135, 60, 3, 1.01224
309, 1, bw, attraction, a-b-db, 5, 1, 2, 29, 60, 135, 135, 60, 58, 132, 1, 2.13708
309, 1, bw, attraction, a-b-db, 5, 1, 2, 29, 60, 135, 135, 60, 58, 132, 2, 0.954345
309, 1, bw, attraction, a-b-da, 14, 2, 2, 30, 90, 165, 165, 90, 153, 83, 1, 1.96997
309, 1, bw, attraction, a-b-da, 14, 2, 2, 30, 90, 165, 165, 90, 153, 83, 3, 0.834023
309, 1, bw, filler, NA, 999, 999, 2, 31, 138, 139, 188, 170, 110, 101, 2, 1.51847
309, 1, bw, filler, NA, 999, 999, 2, 31, 138, 139, 188, 170, 110, 101, 3, 0.672518
309, 1, bw, attraction, a-b-db, 5, 3, 2, 32, 117, 190, 195, 120, 120, 195, 1, 3.00359
309, 1, bw, attraction, a-b-db, 5, 3, 2, 32, 117, 190, 195, 120, 120, 195, 3, 1.21802
309, 1, bw, filler, NA, 999, 999, 2, 33, 128, 141, 87, 155, 165, 119, 1, 2.00677
309, 1, bw, filler, NA, 999, 999, 2, 33, 128, 141, 87, 155, 165, 119, 2, 1.7729
309, 1, bw, catch, NA, 999, 999, 2, 34, 155, 160, 87, 108, 90, 165, 1, 0.923636
309, 1, bw, catch, NA, 999, 999, 2, 34, 155, 160, 87, 108, 90, 165, 2, 0.653301
309, 1, bw, attraction, a-b-db, 14, 2, 2, 35, 83, 153, 165, 90, 90, 165, 3, 2.37695
309, 1, bw, attraction, a-b-db, 14, 2, 2, 35, 83, 153, 165, 90, 90, 165, 1, 0.728229
309, 1, bw, attraction, a-b-db, 2, 2, 2, 36, 90, 165, 89, 163, 165, 90, 1, 1.51263
309, 1, bw, attraction, a-b-db, 2, 2, 2, 36, 90, 165, 89, 163, 165, 90, 3, 0.954806
309, 1, bw, attraction, a-b-db, 2, 1, 2, 37, 60, 135, 135, 60, 59, 134, 1, 1.4745
309, 1, bw, attraction, a-b-db, 2, 1, 2, 37, 60, 135, 135, 60, 59, 134, 2, 0.998009
309, 1, bw, attraction, a-b-da, 14, 2, 3, 1, 153, 83, 90, 165, 165, 90, 2, 1.8676
309, 1, bw, attraction, a-b-da, 14, 2, 3, 1, 153, 83, 90, 165, 165, 90, 3, 0.559683
309, 1, bw, attraction, a-b-db, 5, 3, 3, 2, 195, 120, 117, 190, 120, 195, 2, 0.982719
309, 1, bw, attraction, a-b-db, 5, 3, 3, 2, 195, 120, 117, 190, 120, 195, 3, 1.68638
309, 1, bw, filler, NA, 999, 999, 3, 3, 67, 97, 171, 73, 103, 168, 3, 1.31259
309, 1, bw, filler, NA, 999, 999, 3, 3, 67, 97, 171, 73, 103, 168, 1, 1.13867
309, 1, bw, filler, NA, 999, 999, 3, 4, 58, 130, 130, 123, 121, 179, 3, 1.21094
309, 1, bw, filler, NA, 999, 999, 3, 4, 58, 130, 130, 123, 121, 179, 1, 0.465218
309, 1, bw, attraction, a-b-db, 5, 2, 3, 5, 90, 165, 88, 161, 165, 90, 1, 1.71641
309, 1, bw, attraction, a-b-db, 5, 2, 3, 5, 90, 165, 88, 161, 165, 90, 3, 1.75852
309, 1, bw, attraction, a-b-db, 5, 1, 3, 6, 60, 135, 58, 132, 135, 60, 2, 1.77313
309, 1, bw, attraction, a-b-db, 5, 1, 3, 6, 60, 135, 58, 132, 135, 60, 3, 0.508648
309, 1, bw, attraction, a-b-da, 9, 2, 3, 7, 157, 86, 90, 165, 165, 90, 2, 0.661725
309, 1, bw, attraction, a-b-da, 9, 2, 3, 7, 157, 86, 90, 165, 165, 90, 1, 1.1222
309, 1, bw, attraction, a-b-da, 2, 2, 3, 8, 165, 90, 163, 89, 90, 165, 2, 2.80307
309, 1, bw, attraction, a-b-da, 2, 2, 3, 8, 165, 90, 163, 89, 90, 165, 1, 0.721513
309, 1, bw, catch, NA, 999, 999, 3, 9, 117, 78, 150, 165, 136, 119, 2, 1.34656
309, 1, bw, catch, NA, 999, 999, 3, 9, 117, 78, 150, 165, 136, 119, 1, 0.723451
309, 1, bw, attraction, a-b-db, 2, 3, 3, 10, 119, 193, 120, 195, 195, 120, 2, 1.26795
309, 1, bw, attraction, a-b-db, 2, 3, 3, 10, 119, 193, 120, 195, 195, 120, 3, 0.33607
309, 1, bw, filler, NA, 999, 999, 3, 11, 155, 137, 167, 169, 79, 173, 2, 0.672607
309, 1, bw, filler, NA, 999, 999, 3, 11, 155, 137, 167, 169, 79, 173, 1, 0.372446
309, 1, bw, attraction, a-b-db, 14, 1, 3, 12, 56, 125, 135, 60, 60, 135, 2, 0.779417
309, 1, bw, attraction, a-b-db, 14, 1, 3, 12, 56, 125, 135, 60, 60, 135, 3, 0.299229
309, 1, bw, attraction, a-b-db, 9, 3, 3, 13, 114, 186, 120, 195, 195, 120, 2, 1.58103
309, 1, bw, attraction, a-b-db, 9, 3, 3, 13, 114, 186, 120, 195, 195, 120, 3, 0.692542
309, 1, bw, attraction, a-b-da, 9, 1, 3, 14, 135, 60, 129, 57, 60, 135, 1, 1.67828
309, 1, bw, attraction, a-b-da, 9, 1, 3, 14, 135, 60, 129, 57, 60, 135, 2, 0.553885
309, 1, bw, attraction, a-b-db, 9, 1, 3, 15, 60, 135, 135, 60, 57, 129, 1, 1.64948
309, 1, bw, attraction, a-b-db, 9, 1, 3, 15, 60, 135, 135, 60, 57, 129, 2, 1.22225
309, 1, bw, attraction, a-b-db, 9, 2, 3, 16, 165, 90, 86, 157, 90, 165, 3, 2.60314
309, 1, bw, attraction, a-b-db, 9, 2, 3, 16, 165, 90, 86, 157, 90, 165, 2, 0.881646
309, 1, bw, filler, NA, 999, 999, 3, 17, 120, 118, 62, 170, 96, 163, 3, 1.95599
309, 1, bw, filler, NA, 999, 999, 3, 17, 120, 118, 62, 170, 96, 163, 2, 0.764058
309, 1, bw, catch, NA, 999, 999, 3, 18, 152, 163, 101, 154, 85, 110, 1, 1.05104
309, 1, bw, catch, NA, 999, 999, 3, 18, 152, 163, 101, 154, 85, 110, 3, 0.552112
309, 1, bw, attraction, a-b-da, 5, 1, 3, 19, 132, 58, 60, 135, 135, 60, 2, 0.895906
309, 1, bw, attraction, a-b-da, 5, 1, 3, 19, 132, 58, 60, 135, 135, 60, 1, 0.826871
309, 1, bw, filler, NA, 999, 999, 3, 20, 143, 68, 129, 84, 155, 145, 2, 2.74321
309, 1, bw, filler, NA, 999, 999, 3, 20, 143, 68, 129, 84, 155, 145, 1, 5.38367
309, 1, bw, attraction, a-b-da, 2, 3, 3, 21, 195, 120, 120, 195, 193, 119, 2, 2.22862
309, 1, bw, attraction, a-b-da, 2, 3, 3, 21, 195, 120, 120, 195, 193, 119, 3, 0.697966
309, 1, bw, attraction, a-b-da, 5, 2, 3, 22, 90, 165, 165, 90, 161, 88, 2, 1.13954
309, 1, bw, attraction, a-b-da, 5, 2, 3, 22, 90, 165, 165, 90, 161, 88, 3, 0.436482
309, 1, bw, attraction, a-b-da, 14, 3, 3, 23, 181, 111, 120, 195, 195, 120, 2, 0.712931
309, 1, bw, attraction, a-b-da, 14, 3, 3, 23, 181, 111, 120, 195, 195, 120, 1, 0.339465
309, 1, bw, filler, NA, 999, 999, 3, 24, 148, 80, 94, 109, 174, 153, 3, 1.71589
309, 1, bw, filler, NA, 999, 999, 3, 24, 148, 80, 94, 109, 174, 153, 1, 0.798122
309, 1, bw, attraction, a-b-db, 2, 1, 3, 25, 135, 60, 60, 135, 59, 134, 2, 2.57167
309, 1, bw, attraction, a-b-db, 2, 1, 3, 25, 135, 60, 60, 135, 59, 134, 1, 0.651436
309, 1, bw, filler, NA, 999, 999, 3, 26, 114, 102, 117, 59, 177, 92, 3, 0.775336
309, 1, bw, filler, NA, 999, 999, 3, 26, 114, 102, 117, 59, 177, 92, 2, 1.03911
309, 1, bw, attraction, a-b-da, 14, 1, 3, 27, 135, 60, 60, 135, 125, 56, 2, 0.819286
309, 1, bw, attraction, a-b-da, 14, 1, 3, 27, 135, 60, 60, 135, 125, 56, 3, 0.497745
309, 1, bw, catch, NA, 999, 999, 3, 28, 115, 80, 162, 153, 165, 90, 2, 0.579467
309, 1, bw, catch, NA, 999, 999, 3, 28, 115, 80, 162, 153, 165, 90, 1, 1.07532
309, 1, bw, attraction, a-b-db, 2, 2, 3, 29, 90, 165, 89, 163, 165, 90, 3, 2.15759
309, 1, bw, attraction, a-b-db, 2, 2, 3, 29, 90, 165, 89, 163, 165, 90, 1, 1.79753
309, 1, bw, filler, NA, 999, 999, 3, 30, 95, 195, 60, 114, 86, 69, 1, 1.19483
309, 1, bw, filler, NA, 999, 999, 3, 30, 95, 195, 60, 114, 86, 69, 3, 0.513851
309, 1, bw, attraction, a-b-da, 2, 1, 3, 31, 60, 135, 135, 60, 134, 59, 2, 0.746857
309, 1, bw, attraction, a-b-da, 2, 1, 3, 31, 60, 135, 135, 60, 134, 59, 3, 0.876018
309, 1, bw, filler, NA, 999, 999, 3, 32, 68, 83, 81, 105, 173, 64, 3, 1.14236
309, 1, bw, filler, NA, 999, 999, 3, 32, 68, 83, 81, 105, 173, 64, 1, 0.439312
309, 1, bw, attraction, a-b-db, 14, 3, 3, 33, 120, 195, 195, 120, 111, 181, 1, 1.45978
309, 1, bw, attraction, a-b-db, 14, 3, 3, 33, 120, 195, 195, 120, 111, 181, 3, 1.50397
309, 1, bw, attraction, a-b-da, 5, 3, 3, 34, 120, 195, 195, 120, 190, 117, 1, 1.61742
309, 1, bw, attraction, a-b-da, 5, 3, 3, 34, 120, 195, 195, 120, 190, 117, 3, 0.807607
309, 1, bw, attraction, a-b-db, 14, 2, 3, 35, 165, 90, 83, 153, 90, 165, 2, 2.31658
309, 1, bw, attraction, a-b-db, 14, 2, 3, 35, 165, 90, 83, 153, 90, 165, 1, 3.17452
309, 1, bw, filler, NA, 999, 999, 3, 36, 185, 88, 151, 127, 135, 148, 3, 3.03619
309, 1, bw, filler, NA, 999, 999, 3, 36, 185, 88, 151, 127, 135, 148, 2, 1.34518
309, 1, bw, attraction, a-b-da, 9, 3, 3, 37, 186, 114, 195, 120, 120, 195, 2, 1.1127
309, 1, bw, attraction, a-b-da, 9, 3, 3, 37, 186, 114, 195, 120, 120, 195, 3, 0.850944
309, 1, bw, attraction, a-b-da, 2, 2, 4, 1, 163, 89, 90, 165, 165, 90, 1, 1.53451
309, 1, bw, attraction, a-b-da, 2, 2, 4, 1, 163, 89, 90, 165, 165, 90, 3, 0.608127
309, 1, bw, attraction, a-b-da, 14, 2, 4, 2, 153, 83, 90, 165, 165, 90, 2, 0.565186
309, 1, bw, attraction, a-b-da, 14, 2, 4, 2, 153, 83, 90, 165, 165, 90, 3, 0.565696
309, 1, bw, attraction, a-b-da, 2, 1, 4, 3, 135, 60, 134, 59, 60, 135, 1, 0.908724
309, 1, bw, attraction, a-b-da, 2, 1, 4, 3, 135, 60, 134, 59, 60, 135, 2, 0.455105
309, 1, bw, catch, NA, 999, 999, 4, 4, 87, 108, 123, 192, 140, 115, 2, 1.75492
309, 1, bw, catch, NA, 999, 999, 4, 4, 87, 108, 123, 192, 140, 115, 1, 0.738996
309, 1, bw, attraction, a-b-da, 14, 1, 4, 5, 135, 60, 60, 135, 125, 56, 2, 0.731475
309, 1, bw, attraction, a-b-da, 14, 1, 4, 5, 135, 60, 60, 135, 125, 56, 1, 0.629057
309, 1, bw, filler, NA, 999, 999, 4, 6, 166, 127, 98, 116, 143, 149, 1, 1.52953
309, 1, bw, filler, NA, 999, 999, 4, 6, 166, 127, 98, 116, 143, 149, 2, 0.507021
309, 1, bw, attraction, a-b-da, 5, 1, 4, 7, 60, 135, 135, 60, 132, 58, 1, 1.23627
309, 1, bw, attraction, a-b-da, 5, 1, 4, 7, 60, 135, 135, 60, 132, 58, 2, 0.841862
309, 1, bw, attraction, a-b-da, 14, 3, 4, 8, 195, 120, 120, 195, 181, 111, 1, 1.51743
309, 1, bw, attraction, a-b-da, 14, 3, 4, 8, 195, 120, 120, 195, 181, 111, 3, 0.90363
309, 1, bw, filler, NA, 999, 999, 4, 9, 192, 99, 164, 141, 105, 78, 2, 1.72923
309, 1, bw, filler, NA, 999, 999, 4, 9, 192, 99, 164, 141, 105, 78, 3, 0.426681
309, 1, bw, catch, NA, 999, 999, 4, 10, 133, 122, 100, 95, 154, 161, 3, 0.879164
309, 1, bw, catch, NA, 999, 999, 4, 10, 133, 122, 100, 95, 154, 161, 2, 0.738925
309, 1, bw, attraction, a-b-db, 9, 1, 4, 11, 135, 60, 60, 135, 57, 129, 1, 1.08317
309, 1, bw, attraction, a-b-db, 9, 1, 4, 11, 135, 60, 60, 135, 57, 129, 2, 0.550928
309, 1, bw, attraction, a-b-db, 5, 2, 4, 12, 88, 161, 90, 165, 165, 90, 3, 1.3827
309, 1, bw, attraction, a-b-db, 5, 2, 4, 12, 88, 161, 90, 165, 165, 90, 2, 0.622205
309, 1, bw, filler, NA, 999, 999, 4, 13, 114, 115, 145, 115, 193, 147, 3, 1.01931
309, 1, bw, filler, NA, 999, 999, 4, 13, 114, 115, 145, 115, 193, 147, 1, 0.393577
309, 1, bw, attraction, a-b-da, 2, 3, 4, 14, 120, 195, 195, 120, 193, 119, 2, 0.959417
309, 1, bw, attraction, a-b-da, 2, 3, 4, 14, 120, 195, 195, 120, 193, 119, 1, 0.447779
309, 1, bw, attraction, a-b-db, 14, 3, 4, 15, 111, 181, 195, 120, 120, 195, 2, 0.739595
309, 1, bw, attraction, a-b-db, 14, 3, 4, 15, 111, 181, 195, 120, 120, 195, 3, 0.380608
309, 1, bw, filler, NA, 999, 999, 4, 16, 115, 91, 101, 89, 184, 149, 3, 0.971212
309, 1, bw, filler, NA, 999, 999, 4, 16, 115, 91, 101, 89, 184, 149, 2, 1.36349
309, 1, bw, attraction, a-b-da, 5, 2, 4, 17, 90, 165, 165, 90, 161, 88, 3, 0.906385
309, 1, bw, attraction, a-b-da, 5, 2, 4, 17, 90, 165, 165, 90, 161, 88, 2, 0.516784
309, 1, bw, attraction, a-b-db, 5, 3, 4, 18, 195, 120, 117, 190, 120, 195, 3, 1.89376
309, 1, bw, attraction, a-b-db, 5, 3, 4, 18, 195, 120, 117, 190, 120, 195, 1, 0.752492
309, 1, bw, filler, NA, 999, 999, 4, 19, 141, 96, 124, 127, 169, 91, 3, 2.0802
309, 1, bw, filler, NA, 999, 999, 4, 19, 141, 96, 124, 127, 169, 91, 1, 1.07549
309, 1, bw, catch, NA, 999, 999, 4, 20, 98, 97, 158, 157, 150, 105, 2, 1.24579
309, 1, bw, catch, NA, 999, 999, 4, 20, 98, 97, 158, 157, 150, 105, 1, 0.810648
309, 1, bw, filler, NA, 999, 999, 4, 21, 102, 97, 126, 144, 157, 178, 3, 0.887762
309, 1, bw, filler, NA, 999, 999, 4, 21, 102, 97, 126, 144, 157, 178, 1, 0.410825
309, 1, bw, attraction, a-b-db, 2, 1, 4, 22, 60, 135, 135, 60, 59, 134, 3, 0.767901
309, 1, bw, attraction, a-b-db, 2, 1, 4, 22, 60, 135, 135, 60, 59, 134, 2, 1.51227
309, 1, bw, attraction, a-b-da, 9, 1, 4, 23, 129, 57, 60, 135, 135, 60, 3, 0.673049
309, 1, bw, attraction, a-b-da, 9, 1, 4, 23, 129, 57, 60, 135, 135, 60, 1, 1.40499
309, 1, bw, attraction, a-b-da, 9, 2, 4, 24, 90, 165, 165, 90, 157, 86, 1, 1.11443
309, 1, bw, attraction, a-b-da, 9, 2, 4, 24, 90, 165, 165, 90, 157, 86, 3, 0.972733
309, 1, bw, filler, NA, 999, 999, 4, 25, 93, 124, 74, 179, 153, 68, 2, 2.99565
309, 1, bw, filler, NA, 999, 999, 4, 25, 93, 124, 74, 179, 153, 68, 3, 2.72199
309, 1, bw, attraction, a-b-db, 14, 1, 4, 26, 135, 60, 56, 125, 60, 135, 3, 2.63459
309, 1, bw, attraction, a-b-db, 14, 1, 4, 26, 135, 60, 56, 125, 60, 135, 1, 1.03964
309, 1, bw, filler, NA, 999, 999, 4, 27, 139, 70, 68, 75, 187, 82, 3, 1.17186
309, 1, bw, filler, NA, 999, 999, 4, 27, 139, 70, 68, 75, 187, 82, 2, 0.59565
309, 1, bw, attraction, a-b-da, 9, 3, 4, 28, 120, 195, 186, 114, 195, 120, 2, 0.929217
309, 1, bw, attraction, a-b-da, 9, 3, 4, 28, 120, 195, 186, 114, 195, 120, 3, 1.02702
309, 1, bw, attraction, a-b-db, 9, 3, 4, 29, 120, 195, 114, 186, 195, 120, 2, 0.559189
309, 1, bw, attraction, a-b-db, 9, 3, 4, 29, 120, 195, 114, 186, 195, 120, 1, 0.575696
309, 1, bw, attraction, a-b-db, 2, 2, 4, 30, 90, 165, 89, 163, 165, 90, 3, 0.646122
309, 1, bw, attraction, a-b-db, 2, 2, 4, 30, 90, 165, 89, 163, 165, 90, 1, 2.14718
309, 1, bw, attraction, a-b-da, 5, 3, 4, 31, 195, 120, 120, 195, 190, 117, 2, 1.41059
309, 1, bw, attraction, a-b-da, 5, 3, 4, 31, 195, 120, 120, 195, 190, 117, 3, 0.856709
309, 1, bw, attraction, a-b-db, 2, 3, 4, 32, 195, 120, 120, 195, 119, 193, 3, 1.50051
309, 1, bw, attraction, a-b-db, 2, 3, 4, 32, 195, 120, 120, 195, 119, 193, 1, 0.47109
309, 1, bw, filler, NA, 999, 999, 4, 33, 78, 168, 165, 136, 80, 127, 2, 0.922262
309, 1, bw, filler, NA, 999, 999, 4, 33, 78, 168, 165, 136, 80, 127, 3, 1.65996
309, 1, bw, attraction, a-b-db, 9, 2, 4, 34, 86, 157, 165, 90, 90, 165, 3, 1.51876
309, 1, bw, attraction, a-b-db, 9, 2, 4, 34, 86, 157, 165, 90, 90, 165, 2, 0.849093
309, 1, bw, attraction, a-b-db, 5, 1, 4, 35, 58, 132, 60, 135, 135, 60, 2, 1.22055
309, 1, bw, attraction, a-b-db, 5, 1, 4, 35, 58, 132, 60, 135, 135, 60, 3, 0.546826
309, 1, bw, filler, NA, 999, 999, 4, 36, 126, 85, 113, 70, 152, 88, 3, 1.24265
309, 1, bw, filler, NA, 999, 999, 4, 36, 126, 85, 113, 70, 152, 88, 2, 0.599575
309, 1, bw, attraction, a-b-db, 14, 2, 4, 37, 165, 90, 90, 165, 83, 153, 1, 1.1733
309, 1, bw, attraction, a-b-db, 14, 2, 4, 37, 165, 90, 90, 165, 83, 153, 3, 0.764899
309, 1, bw, attraction, a-b-db, 5, 1, 5, 1, 135, 60, 60, 135, 58, 132, 3, 2.49849
309, 1, bw, attraction, a-b-db, 5, 1, 5, 1, 135, 60, 60, 135, 58, 132, 1, 0.677009
309, 1, bw, attraction, a-b-db, 9, 3, 5, 2, 195, 120, 120, 195, 114, 186, 2, 1.3275
309, 1, bw, attraction, a-b-db, 9, 3, 5, 2, 195, 120, 120, 195, 114, 186, 3, 0.369052
309, 1, bw, attraction, a-b-db, 9, 2, 5, 3, 90, 165, 86, 157, 165, 90, 2, 0.944184
309, 1, bw, attraction, a-b-db, 9, 2, 5, 3, 90, 165, 86, 157, 165, 90, 3, 0.321317
309, 1, bw, filler, NA, 999, 999, 5, 4, 156, 183, 143, 169, 189, 75, 2, 0.834402
309, 1, bw, filler, NA, 999, 999, 5, 4, 156, 183, 143, 169, 189, 75, 3, 0.472115
309, 1, bw, attraction, a-b-db, 14, 3, 5, 5, 111, 181, 195, 120, 120, 195, 2, 0.635284
309, 1, bw, attraction, a-b-db, 14, 3, 5, 5, 111, 181, 195, 120, 120, 195, 1, 1.73702
309, 1, bw, attraction, a-b-da, 9, 2, 5, 6, 90, 165, 157, 86, 165, 90, 1, 1.68098
309, 1, bw, attraction, a-b-da, 9, 2, 5, 6, 90, 165, 157, 86, 165, 90, 3, 1.04445
309, 1, bw, filler, NA, 999, 999, 5, 7, 166, 99, 76, 114, 149, 170, 3, 0.672138
309, 1, bw, filler, NA, 999, 999, 5, 7, 166, 99, 76, 114, 149, 170, 2, 0.411837
309, 1, bw, attraction, a-b-db, 2, 3, 5, 8, 195, 120, 119, 193, 120, 195, 1, 2.257
309, 1, bw, attraction, a-b-db, 2, 3, 5, 8, 195, 120, 119, 193, 120, 195, 3, 0.548967
309, 1, bw, attraction, a-b-da, 2, 3, 5, 9, 193, 119, 195, 120, 120, 195, 1, 1.07675
309, 1, bw, attraction, a-b-da, 2, 3, 5, 9, 193, 119, 195, 120, 120, 195, 3, 0.488538
309, 1, bw, attraction, a-b-da, 9, 3, 5, 10, 120, 195, 186, 114, 195, 120, 2, 4.59479
309, 1, bw, attraction, a-b-da, 9, 3, 5, 10, 120, 195, 186, 114, 195, 120, 3, 0.536835
309, 1, bw, filler, NA, 999, 999, 5, 11, 172, 162, 183, 75, 118, 71, 1, 1.33722
309, 1, bw, filler, NA, 999, 999, 5, 11, 172, 162, 183, 75, 118, 71, 3, 0.570699
309, 1, bw, attraction, a-b-db, 2, 1, 5, 12, 60, 135, 59, 134, 135, 60, 2, 4.02578
309, 1, bw, attraction, a-b-db, 2, 1, 5, 12, 60, 135, 59, 134, 135, 60, 3, 0.630578
309, 1, bw, attraction, a-b-da, 2, 1, 5, 13, 135, 60, 60, 135, 134, 59, 2, 1.21095
309, 1, bw, attraction, a-b-da, 2, 1, 5, 13, 135, 60, 60, 135, 134, 59, 1, 0.457221
309, 1, bw, filler, NA, 999, 999, 5, 14, 147, 132, 173, 57, 147, 93, 1, 0.852247
309, 1, bw, filler, NA, 999, 999, 5, 14, 147, 132, 173, 57, 147, 93, 3, 0.497457
309, 1, bw, attraction, a-b-db, 5, 2, 5, 15, 165, 90, 88, 161, 90, 165, 3, 1.05919
309, 1, bw, attraction, a-b-db, 5, 2, 5, 15, 165, 90, 88, 161, 90, 165, 1, 0.583407
309, 1, bw, filler, NA, 999, 999, 5, 16, 141, 164, 148, 78, 188, 186, 3, 0.869905
309, 1, bw, filler, NA, 999, 999, 5, 16, 141, 164, 148, 78, 188, 186, 2, 0.402257
309, 1, bw, attraction, a-b-db, 14, 2, 5, 17, 90, 165, 83, 153, 165, 90, 3, 3.48811
309, 1, bw, attraction, a-b-db, 14, 2, 5, 17, 90, 165, 83, 153, 165, 90, 2, 1.56299
309, 1, bw, catch, NA, 999, 999, 5, 18, 126, 69, 153, 162, 163, 92, 2, 1.17784
309, 1, bw, catch, NA, 999, 999, 5, 18, 126, 69, 153, 162, 163, 92, 1, 0.969361
309, 1, bw, attraction, a-b-db, 9, 1, 5, 19, 60, 135, 135, 60, 57, 129, 3, 0.680375
309, 1, bw, attraction, a-b-db, 9, 1, 5, 19, 60, 135, 135, 60, 57, 129, 2, 0.684235
309, 1, bw, attraction, a-b-da, 14, 1, 5, 20, 135, 60, 60, 135, 125, 56, 2, 0.958605
309, 1, bw, attraction, a-b-da, 14, 1, 5, 20, 135, 60, 60, 135, 125, 56, 3, 0.662848
309, 1, bw, attraction, a-b-da, 5, 2, 5, 21, 161, 88, 90, 165, 165, 90, 1, 1.33787
309, 1, bw, attraction, a-b-da, 5, 2, 5, 21, 161, 88, 90, 165, 165, 90, 2, 0.403503
309, 1, bw, attraction, a-b-db, 2, 2, 5, 22, 165, 90, 90, 165, 89, 163, 2, 3.6253
309, 1, bw, attraction, a-b-db, 2, 2, 5, 22, 165, 90, 90, 165, 89, 163, 1, 1.11014
309, 1, bw, attraction, a-b-db, 14, 1, 5, 23, 60, 135, 56, 125, 135, 60, 2, 0.879037
309, 1, bw, attraction, a-b-db, 14, 1, 5, 23, 60, 135, 56, 125, 135, 60, 3, 0.418693
309, 1, bw, filler, NA, 999, 999, 5, 24, 163, 131, 159, 149, 160, 126, 2, 0.52787
309, 1, bw, filler, NA, 999, 999, 5, 24, 163, 131, 159, 149, 160, 126, 3, 0.457703
309, 1, bw, catch, NA, 999, 999, 5, 25, 147, 168, 98, 157, 135, 60, 1, 1.05274
309, 1, bw, catch, NA, 999, 999, 5, 25, 147, 168, 98, 157, 135, 60, 3, 1.47384
309, 1, bw, attraction, a-b-da, 2, 2, 5, 26, 163, 89, 90, 165, 165, 90, 3, 2.47587
309, 1, bw, attraction, a-b-da, 2, 2, 5, 26, 163, 89, 90, 165, 165, 90, 2, 1.33507
309, 1, bw, attraction, a-b-da, 5, 3, 5, 27, 195, 120, 190, 117, 120, 195, 3, 3.49552
309, 1, bw, attraction, a-b-da, 5, 3, 5, 27, 195, 120, 190, 117, 120, 195, 2, 0.609648
309, 1, bw, attraction, a-b-da, 9, 1, 5, 28, 135, 60, 60, 135, 129, 57, 2, 1.87866
309, 1, bw, attraction, a-b-da, 9, 1, 5, 28, 135, 60, 60, 135, 129, 57, 3, 0.577999
309, 1, bw, filler, NA, 999, 999, 5, 29, 66, 68, 153, 152, 188, 86, 2, 0.632398
309, 1, bw, filler, NA, 999, 999, 5, 29, 66, 68, 153, 152, 188, 86, 1, 0.662273
309, 1, bw, filler, NA, 999, 999, 5, 30, 87, 95, 149, 192, 76, 93, 2, 2.56128
309, 1, bw, filler, NA, 999, 999, 5, 30, 87, 95, 149, 192, 76, 93, 3, 0.489146
309, 1, bw, catch, NA, 999, 999, 5, 31, 98, 157, 193, 122, 111, 84, 2, 1.45156
309, 1, bw, catch, NA, 999, 999, 5, 31, 98, 157, 193, 122, 111, 84, 3, 0.424372
309, 1, bw, filler, NA, 999, 999, 5, 32, 164, 60, 174, 100, 84, 173, 2, 2.26084
309, 1, bw, filler, NA, 999, 999, 5, 32, 164, 60, 174, 100, 84, 173, 1, 0.432778
309, 1, bw, filler, NA, 999, 999, 5, 33, 112, 85, 137, 115, 180, 94, 2, 1.45328
309, 1, bw, filler, NA, 999, 999, 5, 33, 112, 85, 137, 115, 180, 94, 1, 0.674156
309, 1, bw, attraction, a-b-da, 14, 2, 5, 34, 153, 83, 90, 165, 165, 90, 2, 1.43656
309, 1, bw, attraction, a-b-da, 14, 2, 5, 34, 153, 83, 90, 165, 165, 90, 1, 1.4741
309, 1, bw, attraction, a-b-da, 5, 1, 5, 35, 132, 58, 135, 60, 60, 135, 1, 1.54821
309, 1, bw, attraction, a-b-da, 5, 1, 5, 35, 132, 58, 135, 60, 60, 135, 3, 0.781018
309, 1, bw, attraction, a-b-da, 14, 3, 5, 36, 181, 111, 120, 195, 195, 120, 2, 1.68347
309, 1, bw, attraction, a-b-da, 14, 3, 5, 36, 181, 111, 120, 195, 195, 120, 3, 0.534877
309, 1, bw, attraction, a-b-db, 5, 3, 5, 37, 117, 190, 120, 195, 195, 120, 2, 0.783295
309, 1, bw, attraction, a-b-db, 5, 3, 5, 37, 117, 190, 120, 195, 195, 120, 3, 0.614951
309, 1, bw, filler, NA, 999, 999, 6, 1, 186, 159, 93, 74, 80, 148, 1, 1.66806
309, 1, bw, filler, NA, 999, 999, 6, 1, 186, 159, 93, 74, 80, 148, 2, 0.63232
309, 1, bw, attraction, a-b-db, 5, 3, 6, 2, 117, 190, 120, 195, 195, 120, 3, 2.11668
309, 1, bw, attraction, a-b-db, 5, 3, 6, 2, 117, 190, 120, 195, 195, 120, 1, 0.734681
309, 1, bw, attraction, a-b-da, 2, 3, 6, 3, 195, 120, 193, 119, 120, 195, 1, 1.93504
309, 1, bw, attraction, a-b-da, 2, 3, 6, 3, 195, 120, 193, 119, 120, 195, 2, 0.672414
309, 1, bw, attraction, a-b-db, 5, 1, 6, 4, 60, 135, 58, 132, 135, 60, 1, 1.41143
309, 1, bw, attraction, a-b-db, 5, 1, 6, 4, 60, 135, 58, 132, 135, 60, 3, 0.513594
309, 1, bw, filler, NA, 999, 999, 6, 5, 130, 83, 112, 104, 112, 103, 3, 4.23467
309, 1, bw, filler, NA, 999, 999, 6, 5, 130, 83, 112, 104, 112, 103, 1, 0.567398
309, 1, bw, attraction, a-b-da, 5, 3, 6, 6, 195, 120, 190, 117, 120, 195, 2, 1.59858
309, 1, bw, attraction, a-b-da, 5, 3, 6, 6, 195, 120, 190, 117, 120, 195, 3, 0.957281
309, 1, bw, attraction, a-b-da, 5, 2, 6, 7, 161, 88, 90, 165, 165, 90, 2, 0.6602
309, 1, bw, attraction, a-b-da, 5, 2, 6, 7, 161, 88, 90, 165, 165, 90, 1, 0.376661
309, 1, bw, catch, NA, 999, 999, 6, 8, 129, 66, 121, 194, 119, 136, 2, 1.09525
309, 1, bw, catch, NA, 999, 999, 6, 8, 129, 66, 121, 194, 119, 136, 1, 0.578134
309, 1, bw, attraction, a-b-db, 9, 1, 6, 9, 60, 135, 57, 129, 135, 60, 2, 0.680601
309, 1, bw, attraction, a-b-db, 9, 1, 6, 9, 60, 135, 57, 129, 135, 60, 3, 0.324296
309, 1, bw, catch, NA, 999, 999, 6, 10, 114, 81, 178, 137, 114, 141, 2, 0.844918
309, 1, bw, catch, NA, 999, 999, 6, 10, 114, 81, 178, 137, 114, 141, 1, 0.42601
309, 1, bw, attraction, a-b-db, 2, 2, 6, 11, 89, 163, 90, 165, 165, 90, 2, 0.630386
309, 1, bw, attraction, a-b-db, 2, 2, 6, 11, 89, 163, 90, 165, 165, 90, 1, 0.676107
309, 1, bw, filler, NA, 999, 999, 6, 12, 123, 154, 77, 155, 69, 138, 1, 1.55849
309, 1, bw, filler, NA, 999, 999, 6, 12, 123, 154, 77, 155, 69, 138, 3, 0.502806
309, 1, bw, attraction, a-b-da, 14, 3, 6, 13, 195, 120, 120, 195, 181, 111, 2, 0.552546
309, 1, bw, attraction, a-b-da, 14, 3, 6, 13, 195, 120, 120, 195, 181, 111, 3, 0.441676
309, 1, bw, filler, NA, 999, 999, 6, 14, 96, 191, 137, 87, 75, 189, 1, 2.34139
309, 1, bw, filler, NA, 999, 999, 6, 14, 96, 191, 137, 87, 75, 189, 2, 0.477981
309, 1, bw, filler, NA, 999, 999, 6, 15, 166, 169, 144, 115, 93, 179, 1, 1.72051
309, 1, bw, filler, NA, 999, 999, 6, 15, 166, 169, 144, 115, 93, 179, 2, 1.54658
309, 1, bw, attraction, a-b-db, 14, 3, 6, 16, 195, 120, 111, 181, 120, 195, 3, 1.56194
309, 1, bw, attraction, a-b-db, 14, 3, 6, 16, 195, 120, 111, 181, 120, 195, 2, 1.13834
309, 1, bw, attraction, a-b-db, 2, 1, 6, 17, 59, 134, 135, 60, 60, 135, 2, 3.38639
309, 1, bw, attraction, a-b-db, 2, 1, 6, 17, 59, 134, 135, 60, 60, 135, 3, 0.561343
309, 1, bw, attraction, a-b-db, 9, 2, 6, 18, 165, 90, 90, 165, 86, 157, 2, 0.712463
309, 1, bw, attraction, a-b-db, 9, 2, 6, 18, 165, 90, 90, 165, 86, 157, 1, 0.538879
309, 1, bw, attraction, a-b-da, 5, 1, 6, 19, 135, 60, 60, 135, 132, 58, 1, 1.71535
309, 1, bw, attraction, a-b-da, 5, 1, 6, 19, 135, 60, 60, 135, 132, 58, 2, 0.973377
309, 1, bw, attraction, a-b-db, 9, 3, 6, 20, 114, 186, 195, 120, 120, 195, 3, 2.97168
309, 1, bw, attraction, a-b-db, 9, 3, 6, 20, 114, 186, 195, 120, 120, 195, 1, 1.34672
309, 1, bw, attraction, a-b-da, 9, 1, 6, 21, 135, 60, 60, 135, 129, 57, 2, 1.92222
309, 1, bw, attraction, a-b-da, 9, 1, 6, 21, 135, 60, 60, 135, 129, 57, 3, 0.435614
309, 1, bw, filler, NA, 999, 999, 6, 22, 155, 155, 195, 168, 57, 75, 2, 0.960123
309, 1, bw, filler, NA, 999, 999, 6, 22, 155, 155, 195, 168, 57, 75, 3, 1.15251
309, 1, bw, attraction, a-b-da, 9, 2, 6, 23, 165, 90, 157, 86, 90, 165, 1, 2.77608
309, 1, bw, attraction, a-b-da, 9, 2, 6, 23, 165, 90, 157, 86, 90, 165, 3, 0.383195
309, 1, bw, attraction, a-b-db, 14, 2, 6, 24, 90, 165, 83, 153, 165, 90, 2, 1.04564
309, 1, bw, attraction, a-b-db, 14, 2, 6, 24, 90, 165, 83, 153, 165, 90, 3, 2.02658
309, 1, bw, filler, NA, 999, 999, 6, 25, 166, 151, 146, 62, 100, 120, 1, 0.97455
309, 1, bw, filler, NA, 999, 999, 6, 25, 166, 151, 146, 62, 100, 120, 2, 0.582216
309, 1, bw, attraction, a-b-da, 9, 3, 6, 26, 186, 114, 120, 195, 195, 120, 1, 1.38858
309, 1, bw, attraction, a-b-da, 9, 3, 6, 26, 186, 114, 120, 195, 195, 120, 2, 0.315493
309, 1, bw, attraction, a-b-da, 2, 1, 6, 27, 134, 59, 60, 135, 135, 60, 2, 0.924742
309, 1, bw, attraction, a-b-da, 2, 1, 6, 27, 134, 59, 60, 135, 135, 60, 3, 0.358415
309, 1, bw, attraction, a-b-db, 14, 1, 6, 28, 60, 135, 56, 125, 135, 60, 2, 2.03756
309, 1, bw, attraction, a-b-db, 14, 1, 6, 28, 60, 135, 56, 125, 135, 60, 3, 0.634955
309, 1, bw, attraction, a-b-db, 5, 2, 6, 29, 165, 90, 88, 161, 90, 165, 2, 0.735333
309, 1, bw, attraction, a-b-db, 5, 2, 6, 29, 165, 90, 88, 161, 90, 165, 1, 0.457061
309, 1, bw, attraction, a-b-da, 14, 1, 6, 30, 135, 60, 60, 135, 125, 56, 2, 0.540182
309, 1, bw, attraction, a-b-da, 14, 1, 6, 30, 135, 60, 60, 135, 125, 56, 3, 0.725333
309, 1, bw, attraction, a-b-db, 2, 3, 6, 31, 120, 195, 195, 120, 119, 193, 1, 2.06172
309, 1, bw, attraction, a-b-db, 2, 3, 6, 31, 120, 195, 195, 120, 119, 193, 2, 0.521657
309, 1, bw, filler, NA, 999, 999, 6, 32, 103, 168, 155, 158, 100, 73, 2, 1.46679
309, 1, bw, filler, NA, 999, 999, 6, 32, 103, 168, 155, 158, 100, 73, 3, 0.583043
309, 1, bw, filler, NA, 999, 999, 6, 33, 125, 132, 120, 182, 119, 59, 2, 1.35746
309, 1, bw, filler, NA, 999, 999, 6, 33, 125, 132, 120, 182, 119, 59, 3, 1.07777
309, 1, bw, catch, NA, 999, 999, 6, 34, 105, 150, 117, 78, 161, 154, 3, 2.30386
309, 1, bw, catch, NA, 999, 999, 6, 34, 105, 150, 117, 78, 161, 154, 2, 0.906658
309, 1, bw, attraction, a-b-da, 14, 2, 6, 35, 153, 83, 165, 90, 90, 165, 3, 4.1315
309, 1, bw, attraction, a-b-da, 14, 2, 6, 35, 153, 83, 165, 90, 90, 165, 1, 0.716217
309, 1, bw, attraction, a-b-da, 2, 2, 6, 36, 163, 89, 165, 90, 90, 165, 3, 0.61322
309, 1, bw, attraction, a-b-da, 2, 2, 6, 36, 163, 89, 165, 90, 90, 165, 1, 0.499611
309, 1, bw, filler, NA, 999, 999, 6, 37, 87, 99, 99, 87, 59, 70, 2, 1.59747
309, 1, bw, filler, NA, 999, 999, 6, 37, 87, 99, 99, 87, 59, 70, 3, 0.444282
309, 1, bw, attraction, a-b-db, 2, 2, 7, 1, 90, 165, 89, 163, 165, 90, 2, 3.808
309, 1, bw, attraction, a-b-db, 2, 2, 7, 1, 90, 165, 89, 163, 165, 90, 3, 0.413492
309, 1, bw, filler, NA, 999, 999, 7, 2, 167, 85, 167, 92, 170, 138, 3, 0.898629
309, 1, bw, filler, NA, 999, 999, 7, 2, 167, 85, 167, 92, 170, 138, 1, 1.29365
309, 1, bw, attraction, a-b-da, 5, 1, 7, 3, 135, 60, 132, 58, 60, 135, 1, 2.45519
309, 1, bw, attraction, a-b-da, 5, 1, 7, 3, 135, 60, 132, 58, 60, 135, 3, 0.723855
309, 1, bw, attraction, a-b-da, 9, 2, 7, 4, 90, 165, 165, 90, 157, 86, 2, 0.700137
309, 1, bw, attraction, a-b-da, 9, 2, 7, 4, 90, 165, 165, 90, 157, 86, 3, 0.663189
309, 1, bw, attraction, a-b-db, 9, 3, 7, 5, 114, 186, 120, 195, 195, 120, 2, 0.946397
309, 1, bw, attraction, a-b-db, 9, 3, 7, 5, 114, 186, 120, 195, 195, 120, 1, 1.65941
309, 1, bw, filler, NA, 999, 999, 7, 6, 125, 104, 58, 130, 89, 143, 3, 2.11824
309, 1, bw, filler, NA, 999, 999, 7, 6, 125, 104, 58, 130, 89, 143, 2, 2.28804
309, 1, bw, attraction, a-b-da, 14, 3, 7, 7, 181, 111, 120, 195, 195, 120, 2, 0.769951
309, 1, bw, attraction, a-b-da, 14, 3, 7, 7, 181, 111, 120, 195, 195, 120, 3, 0.378377
309, 1, bw, catch, NA, 999, 999, 7, 8, 183, 132, 121, 134, 96, 99, 1, 0.976823
309, 1, bw, catch, NA, 999, 999, 7, 8, 183, 132, 121, 134, 96, 99, 3, 0.624433
309, 1, bw, attraction, a-b-db, 9, 1, 7, 9, 135, 60, 57, 129, 60, 135, 1, 0.892859
309, 1, bw, attraction, a-b-db, 9, 1, 7, 9, 135, 60, 57, 129, 60, 135, 3, 1.70408
309, 1, bw, filler, NA, 999, 999, 7, 10, 88, 92, 173, 170, 57, 176, 2, 0.761313
309, 1, bw, filler, NA, 999, 999, 7, 10, 88, 92, 173, 170, 57, 176, 1, 1.00982
309, 1, bw, attraction, a-b-db, 2, 3, 7, 11, 119, 193, 195, 120, 120, 195, 3, 2.41483
309, 1, bw, attraction, a-b-db, 2, 3, 7, 11, 119, 193, 195, 120, 120, 195, 2, 0.836635
309, 1, bw, attraction, a-b-da, 14, 1, 7, 12, 135, 60, 125, 56, 60, 135, 2, 1.71304
309, 1, bw, attraction, a-b-da, 14, 1, 7, 12, 135, 60, 125, 56, 60, 135, 1, 0.603049
309, 1, bw, attraction, a-b-da, 2, 2, 7, 13, 165, 90, 163, 89, 90, 165, 2, 3.96073
309, 1, bw, attraction, a-b-da, 2, 2, 7, 13, 165, 90, 163, 89, 90, 165, 3, 0.440121
309, 1, bw, filler, NA, 999, 999, 7, 14, 139, 58, 175, 175, 187, 146, 2, 1.47595
309, 1, bw, filler, NA, 999, 999, 7, 14, 139, 58, 175, 175, 187, 146, 1, 1.20749
309, 1, bw, attraction, a-b-da, 5, 3, 7, 15, 195, 120, 120, 195, 190, 117, 2, 1.58054
309, 1, bw, attraction, a-b-da, 5, 3, 7, 15, 195, 120, 120, 195, 190, 117, 3, 0.539816
309, 1, bw, filler, NA, 999, 999, 7, 16, 133, 177, 125, 170, 69, 148, 1, 1.35563
309, 1, bw, filler, NA, 999, 999, 7, 16, 133, 177, 125, 170, 69, 148, 3, 0.419961
309, 1, bw, attraction, a-b-da, 9, 1, 7, 17, 135, 60, 60, 135, 129, 57, 2, 1.00911
309, 1, bw, attraction, a-b-da, 9, 1, 7, 17, 135, 60, 60, 135, 129, 57, 1, 0.423303
309, 1, bw, attraction, a-b-da, 9, 3, 7, 18, 186, 114, 195, 120, 120, 195, 2, 2.3158
309, 1, bw, attraction, a-b-da, 9, 3, 7, 18, 186, 114, 195, 120, 120, 195, 1, 0.325738
309, 1, bw, filler, NA, 999, 999, 7, 19, 98, 67, 129, 164, 71, 84, 2, 0.93431
309, 1, bw, filler, NA, 999, 999, 7, 19, 98, 67, 129, 164, 71, 84, 3, 1.43991
309, 1, bw, filler, NA, 999, 999, 7, 20, 87, 101, 77, 159, 66, 173, 2, 2.524
309, 1, bw, filler, NA, 999, 999, 7, 20, 87, 101, 77, 159, 66, 173, 1, 1.38125
309, 1, bw, filler, NA, 999, 999, 7, 21, 90, 109, 120, 149, 181, 88, 2, 1.38752
309, 1, bw, filler, NA, 999, 999, 7, 21, 90, 109, 120, 149, 181, 88, 1, 0.651081
309, 1, bw, attraction, a-b-db, 14, 1, 7, 22, 135, 60, 60, 135, 56, 125, 1, 2.87073
309, 1, bw, attraction, a-b-db, 14, 1, 7, 22, 135, 60, 60, 135, 56, 125, 3, 0.40248
309, 1, bw, attraction, a-b-da, 2, 3, 7, 23, 193, 119, 120, 195, 195, 120, 2, 0.648416
309, 1, bw, attraction, a-b-da, 2, 3, 7, 23, 193, 119, 120, 195, 195, 120, 3, 0.4054
309, 1, bw, attraction, a-b-da, 5, 2, 7, 24, 161, 88, 165, 90, 90, 165, 3, 2.14731
309, 1, bw, attraction, a-b-da, 5, 2, 7, 24, 161, 88, 165, 90, 90, 165, 1, 0.707905
309, 1, bw, attraction, a-b-db, 14, 3, 7, 25, 111, 181, 120, 195, 195, 120, 2, 1.93288
309, 1, bw, attraction, a-b-db, 14, 3, 7, 25, 111, 181, 120, 195, 195, 120, 3, 0.398354
309, 1, bw, catch, NA, 999, 999, 7, 26, 160, 95, 174, 141, 111, 84, 2, 1.10002
309, 1, bw, catch, NA, 999, 999, 7, 26, 160, 95, 174, 141, 111, 84, 3, 0.639007
309, 1, bw, attraction, a-b-db, 5, 1, 7, 27, 135, 60, 60, 135, 58, 132, 2, 1.77946
309, 1, bw, attraction, a-b-db, 5, 1, 7, 27, 135, 60, 60, 135, 58, 132, 1, 0.73083
309, 1, bw, attraction, a-b-db, 5, 2, 7, 28, 165, 90, 88, 161, 90, 165, 2, 3.77946
309, 1, bw, attraction, a-b-db, 5, 2, 7, 28, 165, 90, 88, 161, 90, 165, 1, 0.69003
309, 1, bw, attraction, a-b-da, 14, 2, 7, 29, 90, 165, 153, 83, 165, 90, 1, 1.74776
309, 1, bw, attraction, a-b-da, 14, 2, 7, 29, 90, 165, 153, 83, 165, 90, 2, 1.5805
309, 1, bw, filler, NA, 999, 999, 7, 30, 135, 88, 88, 104, 188, 109, 3, 1.40258
309, 1, bw, filler, NA, 999, 999, 7, 30, 135, 88, 88, 104, 188, 109, 2, 1.05759
309, 1, bw, attraction, a-b-db, 5, 3, 7, 31, 117, 190, 195, 120, 120, 195, 2, 1.0604
309, 1, bw, attraction, a-b-db, 5, 3, 7, 31, 117, 190, 195, 120, 120, 195, 3, 0.792893
309, 1, bw, catch, NA, 999, 999, 7, 32, 139, 116, 191, 124, 74, 121, 2, 2.22252
309, 1, bw, catch, NA, 999, 999, 7, 32, 139, 116, 191, 124, 74, 121, 3, 0.595775
309, 1, bw, attraction, a-b-da, 2, 1, 7, 33, 135, 60, 60, 135, 134, 59, 2, 0.705512
309, 1, bw, attraction, a-b-da, 2, 1, 7, 33, 135, 60, 60, 135, 134, 59, 3, 0.515887
309, 1, bw, attraction, a-b-db, 2, 1, 7, 34, 60, 135, 59, 134, 135, 60, 1, 1.53304
309, 1, bw, attraction, a-b-db, 2, 1, 7, 34, 60, 135, 59, 134, 135, 60, 2, 0.454564
309, 1, bw, filler, NA, 999, 999, 7, 35, 172, 70, 170, 92, 168, 102, 3, 3.02632
309, 1, bw, filler, NA, 999, 999, 7, 35, 172, 70, 170, 92, 168, 102, 1, 1.77536
309, 1, bw, attraction, a-b-db, 14, 2, 7, 36, 83, 153, 165, 90, 90, 165, 2, 2.3014
309, 1, bw, attraction, a-b-db, 14, 2, 7, 36, 83, 153, 165, 90, 90, 165, 3, 0.743932
309, 1, bw, attraction, a-b-db, 9, 2, 7, 37, 86, 157, 90, 165, 165, 90, 3, 1.39965
309, 1, bw, attraction, a-b-db, 9, 2, 7, 37, 86, 157, 90, 165, 165, 90, 1, 1.35058
309, 1, bw, filler, NA, 999, 999, 8, 1, 57, 140, 87, 120, 139, 102, 3, 2.48609
309, 1, bw, filler, NA, 999, 999, 8, 1, 57, 140, 87, 120, 139, 102, 1, 2.05752
309, 1, bw, attraction, a-b-db, 14, 1, 8, 2, 56, 125, 60, 135, 135, 60, 2, 1.24391
309, 1, bw, attraction, a-b-db, 14, 1, 8, 2, 56, 125, 60, 135, 135, 60, 3, 0.352933
309, 1, bw, catch, NA, 999, 999, 8, 3, 94, 101, 151, 164, 157, 98, 2, 0.640642
309, 1, bw, catch, NA, 999, 999, 8, 3, 94, 101, 151, 164, 157, 98, 1, 0.437785
309, 1, bw, attraction, a-b-db, 9, 1, 8, 4, 60, 135, 135, 60, 57, 129, 1, 1.62135
309, 1, bw, attraction, a-b-db, 9, 1, 8, 4, 60, 135, 135, 60, 57, 129, 3, 0.511837
309, 1, bw, attraction, a-b-db, 14, 2, 8, 5, 83, 153, 90, 165, 165, 90, 2, 0.704744
309, 1, bw, attraction, a-b-db, 14, 2, 8, 5, 83, 153, 90, 165, 165, 90, 3, 1.08316
309, 1, bw, attraction, a-b-da, 5, 2, 8, 6, 165, 90, 90, 165, 161, 88, 2, 1.14147
309, 1, bw, attraction, a-b-da, 5, 2, 8, 6, 165, 90, 90, 165, 161, 88, 3, 0.566408
309, 1, bw, attraction, a-b-db, 2, 2, 8, 7, 89, 163, 90, 165, 165, 90, 2, 0.941664
309, 1, bw, attraction, a-b-db, 2, 2, 8, 7, 89, 163, 90, 165, 165, 90, 3, 0.414593
309, 1, bw, filler, NA, 999, 999, 8, 8, 76, 145, 193, 105, 91, 181, 2, 1.8117
309, 1, bw, filler, NA, 999, 999, 8, 8, 76, 145, 193, 105, 91, 181, 3, 0.41771
309, 1, bw, attraction, a-b-db, 2, 1, 8, 9, 135, 60, 59, 134, 60, 135, 2, 1.79092
309, 1, bw, attraction, a-b-db, 2, 1, 8, 9, 135, 60, 59, 134, 60, 135, 1, 0.373657
309, 1, bw, attraction, a-b-db, 5, 1, 8, 10, 135, 60, 58, 132, 60, 135, 2, 0.692087
309, 1, bw, attraction, a-b-db, 5, 1, 8, 10, 135, 60, 58, 132, 60, 135, 3, 0.399415
309, 1, bw, filler, NA, 999, 999, 8, 11, 150, 167, 116, 184, 132, 64, 1, 1.64505
309, 1, bw, filler, NA, 999, 999, 8, 11, 150, 167, 116, 184, 132, 64, 3, 2.76198
309, 1, bw, filler, NA, 999, 999, 8, 12, 105, 76, 168, 119, 77, 80, 2, 1.44027
309, 1, bw, filler, NA, 999, 999, 8, 12, 105, 76, 168, 119, 77, 80, 3, 1.04513
309, 1, bw, attraction, a-b-da, 14, 2, 8, 13, 90, 165, 165, 90, 153, 83, 2, 0.576777
309, 1, bw, attraction, a-b-da, 14, 2, 8, 13, 90, 165, 165, 90, 153, 83, 3, 0.416644
309, 1, bw, filler, NA, 999, 999, 8, 14, 100, 155, 127, 114, 66, 130, 1, 1.94168
309, 1, bw, filler, NA, 999, 999, 8, 14, 100, 155, 127, 114, 66, 130, 3, 1.03851
309, 1, bw, attraction, a-b-db, 14, 3, 8, 15, 120, 195, 195, 120, 111, 181, 1, 1.78661
309, 1, bw, attraction, a-b-db, 14, 3, 8, 15, 120, 195, 195, 120, 111, 181, 3, 1.37008
309, 1, bw, attraction, a-b-da, 2, 3, 8, 16, 195, 120, 120, 195, 193, 119, 1, 4.21681
309, 1, bw, attraction, a-b-da, 2, 3, 8, 16, 195, 120, 120, 195, 193, 119, 2, 0.88618
309, 1, bw, catch, NA, 999, 999, 8, 17, 78, 117, 148, 167, 110, 145, 2, 1.32858
309, 1, bw, catch, NA, 999, 999, 8, 17, 78, 117, 148, 167, 110, 145, 1, 0.434148
309, 1, bw, attraction, a-b-db, 9, 3, 8, 18, 114, 186, 195, 120, 120, 195, 2, 2.44652
309, 1, bw, attraction, a-b-db, 9, 3, 8, 18, 114, 186, 195, 120, 120, 195, 1, 0.555129
309, 1, bw, filler, NA, 999, 999, 8, 19, 71, 92, 193, 190, 98, 115, 2, 1.01087
309, 1, bw, filler, NA, 999, 999, 8, 19, 71, 92, 193, 190, 98, 115, 1, 0.70518
309, 1, bw, attraction, a-b-da, 5, 3, 8, 20, 195, 120, 190, 117, 120, 195, 2, 4.74697
309, 1, bw, attraction, a-b-da, 5, 3, 8, 20, 195, 120, 190, 117, 120, 195, 1, 0.586784
309, 1, bw, attraction, a-b-da, 9, 1, 8, 21, 60, 135, 129, 57, 135, 60, 1, 1.04922
309, 1, bw, attraction, a-b-da, 9, 1, 8, 21, 60, 135, 129, 57, 135, 60, 2, 1.00633
309, 1, bw, attraction, a-b-da, 9, 2, 8, 22, 157, 86, 165, 90, 90, 165, 3, 1.21974
309, 1, bw, attraction, a-b-da, 9, 2, 8, 22, 157, 86, 165, 90, 90, 165, 1, 0.850021
309, 1, bw, attraction, a-b-db, 9, 2, 8, 23, 86, 157, 90, 165, 165, 90, 2, 0.853743
309, 1, bw, attraction, a-b-db, 9, 2, 8, 23, 86, 157, 90, 165, 165, 90, 3, 0.586781
309, 1, bw, attraction, a-b-da, 9, 3, 8, 24, 186, 114, 195, 120, 120, 195, 3, 1.84933
309, 1, bw, attraction, a-b-da, 9, 3, 8, 24, 186, 114, 195, 120, 120, 195, 1, 0.74999
309, 1, bw, catch, NA, 999, 999, 8, 25, 91, 164, 102, 93, 128, 187, 3, 0.845625
309, 1, bw, catch, NA, 999, 999, 8, 25, 91, 164, 102, 93, 128, 187, 2, 0.506868
309, 1, bw, attraction, a-b-da, 2, 1, 8, 26, 60, 135, 134, 59, 135, 60, 2, 1.11584
309, 1, bw, attraction, a-b-da, 2, 1, 8, 26, 60, 135, 134, 59, 135, 60, 3, 1.02224
309, 1, bw, attraction, a-b-db, 5, 3, 8, 27, 195, 120, 120, 195, 117, 190, 2, 1.27504
309, 1, bw, attraction, a-b-db, 5, 3, 8, 27, 195, 120, 120, 195, 117, 190, 3, 1.49466
309, 1, bw, filler, NA, 999, 999, 8, 28, 116, 135, 100, 57, 178, 107, 3, 1.76017
309, 1, bw, filler, NA, 999, 999, 8, 28, 116, 135, 100, 57, 178, 107, 2, 0.392196
309, 1, bw, attraction, a-b-da, 5, 1, 8, 29, 135, 60, 132, 58, 60, 135, 1, 0.661959
309, 1, bw, attraction, a-b-da, 5, 1, 8, 29, 135, 60, 132, 58, 60, 135, 2, 0.386505
309, 1, bw, filler, NA, 999, 999, 8, 30, 94, 90, 195, 189, 146, 69, 2, 0.569049
309, 1, bw, filler, NA, 999, 999, 8, 30, 94, 90, 195, 189, 146, 69, 1, 0.777365
309, 1, bw, attraction, a-b-da, 2, 2, 8, 31, 165, 90, 90, 165, 163, 89, 1, 1.47973
309, 1, bw, attraction, a-b-da, 2, 2, 8, 31, 165, 90, 90, 165, 163, 89, 2, 0.395263
309, 1, bw, attraction, a-b-db, 5, 2, 8, 32, 165, 90, 90, 165, 88, 161, 3, 1.18502
309, 1, bw, attraction, a-b-db, 5, 2, 8, 32, 165, 90, 90, 165, 88, 161, 2, 0.62466
309, 1, bw, attraction, a-b-db, 2, 3, 8, 33, 195, 120, 119, 193, 120, 195, 1, 3.39718
309, 1, bw, attraction, a-b-db, 2, 3, 8, 33, 195, 120, 119, 193, 120, 195, 2, 0.995387
309, 1, bw, filler, NA, 999, 999, 8, 34, 179, 83, 85, 80, 136, 101, 1, 3.313
309, 1, bw, filler, NA, 999, 999, 8, 34, 179, 83, 85, 80, 136, 101, 2, 0.706604
309, 1, bw, filler, NA, 999, 999, 8, 35, 112, 78, 115, 153, 180, 113, 3, 3.11643
309, 1, bw, filler, NA, 999, 999, 8, 35, 112, 78, 115, 153, 180, 113, 1, 1.04595
309, 1, bw, attraction, a-b-da, 14, 1, 8, 36, 125, 56, 135, 60, 60, 135, 3, 0.825641
309, 1, bw, attraction, a-b-da, 14, 1, 8, 36, 125, 56, 135, 60, 60, 135, 1, 2.73524
309, 1, bw, attraction, a-b-da, 14, 3, 8, 37, 181, 111, 195, 120, 120, 195, 3, 4.27907
309, 1, bw, attraction, a-b-da, 14, 3, 8, 37, 181, 111, 195, 120, 120, 195, 1, 0.785688
