sub_n, computer_n, bw_cond, effect, set, distance, diag, block_n, trial_n, h1, w1, h2, w2, h3, w3, choice, rt 
396, 1, wb, practice, NA, 999, 999, 0, 1, 193, 95, 97, 184, 182, 119, 2, 5.12867
396, 1, wb, practice, NA, 999, 999, 0, 1, 193, 95, 97, 184, 182, 119, 3, 2.65432
396, 1, wb, practice, NA, 999, 999, 0, 2, 73, 117, 162, 85, 148, 63, 1, 4.04603
396, 1, wb, practice, NA, 999, 999, 0, 2, 73, 117, 162, 85, 148, 63, 2, 1.82799
396, 1, wb, practice, NA, 999, 999, 0, 3, 92, 189, 127, 155, 99, 85, 3, 1.86975
396, 1, wb, practice, NA, 999, 999, 0, 3, 92, 189, 127, 155, 99, 85, 1, 2.84583
396, 1, wb, attraction, a-b-db, 2, 2, 1, 1, 165, 90, 90, 165, 89, 163, 3, 5.24451
396, 1, wb, attraction, a-b-db, 2, 2, 1, 1, 165, 90, 90, 165, 89, 163, 1, 0.784179
396, 1, wb, filler, NA, 999, 999, 1, 2, 77, 144, 175, 80, 114, 194, 1, 1.4466
396, 1, wb, filler, NA, 999, 999, 1, 2, 77, 144, 175, 80, 114, 194, 3, 0.507448
396, 1, wb, catch, NA, 999, 999, 1, 3, 150, 165, 105, 90, 143, 112, 2, 1.11668
396, 1, wb, catch, NA, 999, 999, 1, 3, 150, 165, 105, 90, 143, 112, 1, 0.590762
396, 1, wb, attraction, a-b-da, 14, 2, 1, 4, 153, 83, 165, 90, 90, 165, 3, 1.92456
396, 1, wb, attraction, a-b-da, 14, 2, 1, 4, 153, 83, 165, 90, 90, 165, 1, 1.51011
396, 1, wb, filler, NA, 999, 999, 1, 5, 135, 82, 64, 103, 177, 135, 2, 1.05468
396, 1, wb, filler, NA, 999, 999, 1, 5, 135, 82, 64, 103, 177, 135, 3, 0.619708
396, 1, wb, attraction, a-b-db, 14, 2, 1, 6, 165, 90, 83, 153, 90, 165, 2, 1.40083
396, 1, wb, attraction, a-b-db, 14, 2, 1, 6, 165, 90, 83, 153, 90, 165, 1, 0.583697
396, 1, wb, attraction, a-b-da, 2, 2, 1, 7, 163, 89, 90, 165, 165, 90, 1, 2.32608
396, 1, wb, attraction, a-b-da, 2, 2, 1, 7, 163, 89, 90, 165, 165, 90, 3, 0.847412
396, 1, wb, filler, NA, 999, 999, 1, 8, 87, 106, 74, 119, 59, 135, 3, 2.37107
396, 1, wb, filler, NA, 999, 999, 1, 8, 87, 106, 74, 119, 59, 135, 1, 0.531084
396, 1, wb, filler, NA, 999, 999, 1, 9, 179, 57, 86, 156, 190, 125, 1, 1.25138
396, 1, wb, filler, NA, 999, 999, 1, 9, 179, 57, 86, 156, 190, 125, 3, 0.488282
396, 1, wb, filler, NA, 999, 999, 1, 10, 172, 169, 178, 168, 101, 111, 3, 0.970819
396, 1, wb, filler, NA, 999, 999, 1, 10, 172, 169, 178, 168, 101, 111, 1, 1.0911
396, 1, wb, attraction, a-b-da, 14, 3, 1, 11, 181, 111, 195, 120, 120, 195, 3, 1.92471
396, 1, wb, attraction, a-b-da, 14, 3, 1, 11, 181, 111, 195, 120, 120, 195, 2, 0.457724
396, 1, wb, filler, NA, 999, 999, 1, 12, 117, 95, 84, 148, 174, 143, 1, 1.53716
396, 1, wb, filler, NA, 999, 999, 1, 12, 117, 95, 84, 148, 174, 143, 3, 1.1147
396, 1, wb, attraction, a-b-da, 9, 3, 1, 13, 186, 114, 195, 120, 120, 195, 1, 2.09157
396, 1, wb, attraction, a-b-da, 9, 3, 1, 13, 186, 114, 195, 120, 120, 195, 3, 0.478363
396, 1, wb, attraction, a-b-da, 9, 1, 1, 14, 60, 135, 129, 57, 135, 60, 1, 0.896835
396, 1, wb, attraction, a-b-da, 9, 1, 1, 14, 60, 135, 129, 57, 135, 60, 3, 0.555878
396, 1, wb, filler, NA, 999, 999, 1, 15, 178, 73, 91, 190, 87, 94, 3, 1.03546
396, 1, wb, filler, NA, 999, 999, 1, 15, 178, 73, 91, 190, 87, 94, 2, 0.497134
396, 1, wb, catch, NA, 999, 999, 1, 16, 131, 184, 98, 97, 160, 95, 2, 0.938941
396, 1, wb, catch, NA, 999, 999, 1, 16, 131, 184, 98, 97, 160, 95, 1, 0.692044
396, 1, wb, filler, NA, 999, 999, 1, 17, 150, 57, 78, 80, 105, 175, 2, 1.05363
396, 1, wb, filler, NA, 999, 999, 1, 17, 150, 57, 78, 80, 105, 175, 3, 0.498639
396, 1, wb, attraction, a-b-da, 5, 1, 1, 18, 132, 58, 135, 60, 60, 135, 2, 1.48451
396, 1, wb, attraction, a-b-da, 5, 1, 1, 18, 132, 58, 135, 60, 60, 135, 3, 0.463943
396, 1, wb, filler, NA, 999, 999, 1, 19, 150, 96, 135, 95, 194, 159, 2, 1.81123
396, 1, wb, filler, NA, 999, 999, 1, 19, 150, 96, 135, 95, 194, 159, 3, 0.593269
396, 1, wb, attraction, a-b-da, 5, 3, 1, 20, 120, 195, 190, 117, 195, 120, 2, 1.40705
396, 1, wb, attraction, a-b-da, 5, 3, 1, 20, 120, 195, 190, 117, 195, 120, 1, 0.413069
396, 1, wb, attraction, a-b-db, 5, 1, 1, 21, 60, 135, 135, 60, 58, 132, 2, 1.05837
396, 1, wb, attraction, a-b-db, 5, 1, 1, 21, 60, 135, 135, 60, 58, 132, 3, 0.758589
396, 1, wb, attraction, a-b-db, 5, 2, 1, 22, 90, 165, 165, 90, 88, 161, 2, 1.27761
396, 1, wb, attraction, a-b-db, 5, 2, 1, 22, 90, 165, 165, 90, 88, 161, 3, 0.833245
396, 1, wb, attraction, a-b-da, 2, 1, 1, 23, 135, 60, 134, 59, 60, 135, 3, 1.84561
396, 1, wb, attraction, a-b-da, 2, 1, 1, 23, 135, 60, 134, 59, 60, 135, 2, 0.978257
396, 1, wb, attraction, a-b-da, 9, 2, 1, 24, 157, 86, 90, 165, 165, 90, 1, 1.61657
396, 1, wb, attraction, a-b-da, 9, 2, 1, 24, 157, 86, 90, 165, 165, 90, 2, 0.726697
396, 1, wb, attraction, a-b-db, 2, 3, 1, 25, 120, 195, 195, 120, 119, 193, 1, 1.48706
396, 1, wb, attraction, a-b-db, 2, 3, 1, 25, 120, 195, 195, 120, 119, 193, 2, 0.426517
396, 1, wb, catch, NA, 999, 999, 1, 26, 97, 98, 130, 185, 156, 99, 1, 0.86308
396, 1, wb, catch, NA, 999, 999, 1, 26, 97, 98, 130, 185, 156, 99, 2, 0.41151
396, 1, wb, attraction, a-b-db, 14, 3, 1, 27, 120, 195, 111, 181, 195, 120, 1, 0.976688
396, 1, wb, attraction, a-b-db, 14, 3, 1, 27, 120, 195, 111, 181, 195, 120, 3, 0.544297
396, 1, wb, attraction, a-b-db, 2, 1, 1, 28, 60, 135, 135, 60, 59, 134, 2, 0.632035
396, 1, wb, attraction, a-b-db, 2, 1, 1, 28, 60, 135, 135, 60, 59, 134, 1, 0.621743
396, 1, wb, filler, NA, 999, 999, 1, 29, 109, 65, 186, 69, 120, 193, 1, 0.930873
396, 1, wb, filler, NA, 999, 999, 1, 29, 109, 65, 186, 69, 120, 193, 3, 0.388567
396, 1, wb, attraction, a-b-da, 14, 1, 1, 30, 60, 135, 125, 56, 135, 60, 1, 0.555074
396, 1, wb, attraction, a-b-da, 14, 1, 1, 30, 60, 135, 125, 56, 135, 60, 3, 0.34752
396, 1, wb, attraction, a-b-db, 9, 2, 1, 31, 86, 157, 90, 165, 165, 90, 1, 0.507301
396, 1, wb, attraction, a-b-db, 9, 2, 1, 31, 86, 157, 90, 165, 165, 90, 3, 0.341794
396, 1, wb, attraction, a-b-db, 5, 3, 1, 32, 117, 190, 195, 120, 120, 195, 1, 0.485607
396, 1, wb, attraction, a-b-db, 5, 3, 1, 32, 117, 190, 195, 120, 120, 195, 3, 0.297489
396, 1, wb, attraction, a-b-da, 5, 2, 1, 33, 165, 90, 161, 88, 90, 165, 1, 0.531277
396, 1, wb, attraction, a-b-da, 5, 2, 1, 33, 165, 90, 161, 88, 90, 165, 3, 0.301165
396, 1, wb, attraction, a-b-db, 9, 3, 1, 34, 195, 120, 114, 186, 120, 195, 1, 0.406877
396, 1, wb, attraction, a-b-db, 9, 3, 1, 34, 195, 120, 114, 186, 120, 195, 3, 0.373614
396, 1, wb, attraction, a-b-da, 2, 3, 1, 35, 195, 120, 120, 195, 193, 119, 1, 0.596068
396, 1, wb, attraction, a-b-da, 2, 3, 1, 35, 195, 120, 120, 195, 193, 119, 3, 0.635099
396, 1, wb, attraction, a-b-db, 9, 1, 1, 36, 135, 60, 60, 135, 57, 129, 2, 0.663492
396, 1, wb, attraction, a-b-db, 9, 1, 1, 36, 135, 60, 60, 135, 57, 129, 3, 0.475907
396, 1, wb, attraction, a-b-db, 14, 1, 1, 37, 135, 60, 60, 135, 56, 125, 3, 0.718485
396, 1, wb, attraction, a-b-db, 14, 1, 1, 37, 135, 60, 60, 135, 56, 125, 2, 0.400754
396, 1, wb, filler, NA, 999, 999, 2, 1, 65, 120, 165, 194, 195, 65, 1, 1.03068
396, 1, wb, filler, NA, 999, 999, 2, 1, 65, 120, 165, 194, 195, 65, 2, 0.316339
396, 1, wb, attraction, a-b-db, 2, 3, 2, 2, 119, 193, 120, 195, 195, 120, 2, 1.67745
396, 1, wb, attraction, a-b-db, 2, 3, 2, 2, 119, 193, 120, 195, 195, 120, 3, 0.264912
396, 1, wb, catch, NA, 999, 999, 2, 3, 147, 168, 161, 94, 127, 68, 3, 0.756096
396, 1, wb, catch, NA, 999, 999, 2, 3, 147, 168, 161, 94, 127, 68, 1, 0.428474
396, 1, wb, attraction, a-b-db, 9, 3, 2, 4, 120, 195, 195, 120, 114, 186, 3, 1.52106
396, 1, wb, attraction, a-b-db, 9, 3, 2, 4, 120, 195, 195, 120, 114, 186, 1, 0.507169
396, 1, wb, attraction, a-b-db, 2, 2, 2, 5, 89, 163, 90, 165, 165, 90, 1, 0.884245
396, 1, wb, attraction, a-b-db, 2, 2, 2, 5, 89, 163, 90, 165, 165, 90, 3, 0.29596
396, 1, wb, attraction, a-b-da, 14, 3, 2, 6, 195, 120, 120, 195, 181, 111, 1, 0.713869
396, 1, wb, attraction, a-b-da, 14, 3, 2, 6, 195, 120, 120, 195, 181, 111, 2, 0.284239
396, 1, wb, filler, NA, 999, 999, 2, 7, 90, 147, 57, 169, 132, 89, 2, 2.57477
396, 1, wb, filler, NA, 999, 999, 2, 7, 90, 147, 57, 169, 132, 89, 1, 0.365968
396, 1, wb, catch, NA, 999, 999, 2, 8, 188, 127, 87, 108, 151, 104, 2, 0.781022
396, 1, wb, catch, NA, 999, 999, 2, 8, 188, 127, 87, 108, 151, 104, 1, 0.276745
396, 1, wb, attraction, a-b-db, 14, 3, 2, 9, 195, 120, 111, 181, 120, 195, 2, 0.799337
396, 1, wb, attraction, a-b-db, 14, 3, 2, 9, 195, 120, 111, 181, 120, 195, 1, 0.326326
396, 1, wb, attraction, a-b-da, 9, 3, 2, 10, 120, 195, 195, 120, 186, 114, 2, 0.542798
396, 1, wb, attraction, a-b-da, 9, 3, 2, 10, 120, 195, 195, 120, 186, 114, 3, 1.00802
396, 1, wb, filler, NA, 999, 999, 2, 11, 140, 184, 143, 106, 159, 110, 2, 0.684909
396, 1, wb, filler, NA, 999, 999, 2, 11, 140, 184, 143, 106, 159, 110, 1, 0.248846
396, 1, wb, attraction, a-b-da, 5, 1, 2, 12, 135, 60, 60, 135, 132, 58, 1, 1.80465
396, 1, wb, attraction, a-b-da, 5, 1, 2, 12, 135, 60, 60, 135, 132, 58, 2, 0.307307
396, 1, wb, attraction, a-b-da, 5, 2, 2, 13, 161, 88, 90, 165, 165, 90, 1, 1.07652
396, 1, wb, attraction, a-b-da, 5, 2, 2, 13, 161, 88, 90, 165, 165, 90, 2, 0.272169
396, 1, wb, attraction, a-b-da, 2, 2, 2, 14, 163, 89, 90, 165, 165, 90, 1, 1.20335
396, 1, wb, attraction, a-b-da, 2, 2, 2, 14, 163, 89, 90, 165, 165, 90, 2, 0.330204
396, 1, wb, attraction, a-b-da, 2, 1, 2, 15, 134, 59, 60, 135, 135, 60, 2, 0.930712
396, 1, wb, attraction, a-b-da, 2, 1, 2, 15, 134, 59, 60, 135, 135, 60, 3, 0.292448
396, 1, wb, attraction, a-b-db, 14, 1, 2, 16, 56, 125, 60, 135, 135, 60, 2, 0.69426
396, 1, wb, attraction, a-b-db, 14, 1, 2, 16, 56, 125, 60, 135, 135, 60, 1, 0.537546
396, 1, wb, attraction, a-b-da, 5, 3, 2, 17, 190, 117, 195, 120, 120, 195, 2, 0.609855
396, 1, wb, attraction, a-b-da, 5, 3, 2, 17, 190, 117, 195, 120, 120, 195, 1, 0.312319
396, 1, wb, filler, NA, 999, 999, 2, 18, 193, 155, 164, 156, 174, 157, 2, 0.649496
396, 1, wb, filler, NA, 999, 999, 2, 18, 193, 155, 164, 156, 174, 157, 3, 0.262575
396, 1, wb, filler, NA, 999, 999, 2, 19, 177, 92, 127, 167, 93, 138, 3, 4.66579
396, 1, wb, filler, NA, 999, 999, 2, 19, 177, 92, 127, 167, 93, 138, 2, 0.324944
396, 1, wb, filler, NA, 999, 999, 2, 20, 165, 108, 105, 120, 188, 137, 2, 0.989472
396, 1, wb, filler, NA, 999, 999, 2, 20, 165, 108, 105, 120, 188, 137, 3, 0.620404
396, 1, wb, attraction, a-b-da, 14, 1, 2, 21, 60, 135, 125, 56, 135, 60, 2, 0.761544
396, 1, wb, attraction, a-b-da, 14, 1, 2, 21, 60, 135, 125, 56, 135, 60, 3, 0.393973
396, 1, wb, attraction, a-b-db, 9, 2, 2, 22, 86, 157, 165, 90, 90, 165, 2, 0.543969
396, 1, wb, attraction, a-b-db, 9, 2, 2, 22, 86, 157, 165, 90, 90, 165, 3, 0.344906
396, 1, wb, attraction, a-b-db, 2, 1, 2, 23, 135, 60, 59, 134, 60, 135, 2, 0.536678
396, 1, wb, attraction, a-b-db, 2, 1, 2, 23, 135, 60, 59, 134, 60, 135, 3, 0.60246
396, 1, wb, catch, NA, 999, 999, 2, 24, 182, 133, 155, 100, 105, 90, 3, 0.880306
396, 1, wb, catch, NA, 999, 999, 2, 24, 182, 133, 155, 100, 105, 90, 1, 0.355963
396, 1, wb, filler, NA, 999, 999, 2, 25, 120, 164, 107, 169, 76, 145, 3, 0.73189
396, 1, wb, filler, NA, 999, 999, 2, 25, 120, 164, 107, 169, 76, 145, 1, 0.301655
396, 1, wb, attraction, a-b-da, 9, 2, 2, 26, 90, 165, 157, 86, 165, 90, 1, 0.695404
396, 1, wb, attraction, a-b-da, 9, 2, 2, 26, 90, 165, 157, 86, 165, 90, 3, 0.282488
396, 1, wb, filler, NA, 999, 999, 2, 27, 78, 112, 64, 150, 72, 101, 1, 0.517047
396, 1, wb, filler, NA, 999, 999, 2, 27, 78, 112, 64, 150, 72, 101, 3, 0.591502
396, 1, wb, attraction, a-b-db, 9, 1, 2, 28, 135, 60, 57, 129, 60, 135, 3, 0.893371
396, 1, wb, attraction, a-b-db, 9, 1, 2, 28, 135, 60, 57, 129, 60, 135, 1, 0.320319
396, 1, wb, attraction, a-b-db, 5, 1, 2, 29, 58, 132, 60, 135, 135, 60, 2, 0.473505
396, 1, wb, attraction, a-b-db, 5, 1, 2, 29, 58, 132, 60, 135, 135, 60, 3, 0.56532
396, 1, wb, attraction, a-b-da, 9, 1, 2, 30, 129, 57, 135, 60, 60, 135, 2, 0.444394
396, 1, wb, attraction, a-b-da, 9, 1, 2, 30, 129, 57, 135, 60, 60, 135, 1, 0.617569
396, 1, wb, attraction, a-b-da, 14, 2, 2, 31, 165, 90, 90, 165, 153, 83, 2, 0.382595
396, 1, wb, attraction, a-b-da, 14, 2, 2, 31, 165, 90, 90, 165, 153, 83, 3, 0.326483
396, 1, wb, filler, NA, 999, 999, 2, 32, 189, 126, 165, 144, 175, 151, 2, 0.406967
396, 1, wb, filler, NA, 999, 999, 2, 32, 189, 126, 165, 144, 175, 151, 3, 0.277571
396, 1, wb, attraction, a-b-da, 2, 3, 2, 33, 193, 119, 195, 120, 120, 195, 1, 0.592156
396, 1, wb, attraction, a-b-da, 2, 3, 2, 33, 193, 119, 195, 120, 120, 195, 3, 0.343292
396, 1, wb, filler, NA, 999, 999, 2, 34, 80, 72, 88, 58, 85, 87, 2, 0.679009
396, 1, wb, filler, NA, 999, 999, 2, 34, 80, 72, 88, 58, 85, 87, 3, 0.538728
396, 1, wb, attraction, a-b-db, 14, 2, 2, 35, 90, 165, 83, 153, 165, 90, 2, 0.571345
396, 1, wb, attraction, a-b-db, 14, 2, 2, 35, 90, 165, 83, 153, 165, 90, 3, 0.283661
396, 1, wb, attraction, a-b-db, 5, 3, 2, 36, 117, 190, 120, 195, 195, 120, 2, 0.58218
396, 1, wb, attraction, a-b-db, 5, 3, 2, 36, 117, 190, 120, 195, 195, 120, 3, 0.26202
396, 1, wb, attraction, a-b-db, 5, 2, 2, 37, 165, 90, 90, 165, 88, 161, 2, 0.68115
396, 1, wb, attraction, a-b-db, 5, 2, 2, 37, 165, 90, 90, 165, 88, 161, 1, 0.261002
396, 1, wb, attraction, a-b-da, 5, 2, 3, 1, 165, 90, 161, 88, 90, 165, 1, 0.712065
396, 1, wb, attraction, a-b-da, 5, 2, 3, 1, 165, 90, 161, 88, 90, 165, 3, 0.306527
396, 1, wb, attraction, a-b-da, 9, 1, 3, 2, 129, 57, 60, 135, 135, 60, 1, 0.547647
396, 1, wb, attraction, a-b-da, 9, 1, 3, 2, 129, 57, 60, 135, 135, 60, 3, 0.564893
396, 1, wb, filler, NA, 999, 999, 3, 3, 61, 91, 183, 167, 135, 188, 1, 0.787863
396, 1, wb, filler, NA, 999, 999, 3, 3, 61, 91, 183, 167, 135, 188, 2, 0.242989
396, 1, wb, attraction, a-b-db, 2, 2, 3, 4, 90, 165, 165, 90, 89, 163, 3, 1.13488
396, 1, wb, attraction, a-b-db, 2, 2, 3, 4, 90, 165, 165, 90, 89, 163, 2, 0.376491
396, 1, wb, attraction, a-b-db, 9, 1, 3, 5, 60, 135, 57, 129, 135, 60, 1, 1.09503
396, 1, wb, attraction, a-b-db, 9, 1, 3, 5, 60, 135, 57, 129, 135, 60, 3, 0.762052
396, 1, wb, attraction, a-b-db, 5, 3, 3, 6, 117, 190, 195, 120, 120, 195, 1, 1.19302
396, 1, wb, attraction, a-b-db, 5, 3, 3, 6, 117, 190, 195, 120, 120, 195, 2, 0.447933
396, 1, wb, filler, NA, 999, 999, 3, 7, 101, 100, 133, 137, 121, 187, 1, 1.78774
396, 1, wb, filler, NA, 999, 999, 3, 7, 101, 100, 133, 137, 121, 187, 3, 1.53928
396, 1, wb, attraction, a-b-da, 2, 1, 3, 8, 134, 59, 135, 60, 60, 135, 1, 0.915281
396, 1, wb, attraction, a-b-da, 2, 1, 3, 8, 134, 59, 135, 60, 60, 135, 2, 0.373616
396, 1, wb, attraction, a-b-db, 14, 3, 3, 9, 195, 120, 120, 195, 111, 181, 2, 2.38816
396, 1, wb, attraction, a-b-db, 14, 3, 3, 9, 195, 120, 120, 195, 111, 181, 1, 0.451278
396, 1, wb, attraction, a-b-db, 14, 1, 3, 10, 60, 135, 56, 125, 135, 60, 2, 2.15912
396, 1, wb, attraction, a-b-db, 14, 1, 3, 10, 60, 135, 56, 125, 135, 60, 1, 1.40712
396, 1, wb, attraction, a-b-db, 2, 1, 3, 11, 59, 134, 60, 135, 135, 60, 2, 1.44384
396, 1, wb, attraction, a-b-db, 2, 1, 3, 11, 59, 134, 60, 135, 135, 60, 1, 0.352749
396, 1, wb, attraction, a-b-db, 9, 2, 3, 12, 86, 157, 90, 165, 165, 90, 3, 1.53662
396, 1, wb, attraction, a-b-db, 9, 2, 3, 12, 86, 157, 90, 165, 165, 90, 2, 0.434076
396, 1, wb, catch, NA, 999, 999, 3, 13, 74, 121, 176, 139, 161, 94, 1, 0.814595
396, 1, wb, catch, NA, 999, 999, 3, 13, 74, 121, 176, 139, 161, 94, 2, 0.332971
396, 1, wb, attraction, a-b-da, 2, 3, 3, 14, 195, 120, 120, 195, 193, 119, 3, 1.39746
396, 1, wb, attraction, a-b-da, 2, 3, 3, 14, 195, 120, 120, 195, 193, 119, 2, 0.676321
396, 1, wb, filler, NA, 999, 999, 3, 15, 190, 143, 114, 176, 62, 120, 3, 0.990737
396, 1, wb, filler, NA, 999, 999, 3, 15, 190, 143, 114, 176, 62, 120, 1, 0.437653
396, 1, wb, attraction, a-b-db, 2, 3, 3, 16, 119, 193, 195, 120, 120, 195, 1, 1.79415
396, 1, wb, attraction, a-b-db, 2, 3, 3, 16, 119, 193, 195, 120, 120, 195, 3, 0.401
396, 1, wb, attraction, a-b-da, 2, 2, 3, 17, 165, 90, 90, 165, 163, 89, 3, 1.95076
396, 1, wb, attraction, a-b-da, 2, 2, 3, 17, 165, 90, 90, 165, 163, 89, 2, 0.431399
396, 1, wb, attraction, a-b-db, 9, 3, 3, 18, 114, 186, 195, 120, 120, 195, 1, 0.723863
396, 1, wb, attraction, a-b-db, 9, 3, 3, 18, 114, 186, 195, 120, 120, 195, 2, 0.317635
396, 1, wb, filler, NA, 999, 999, 3, 19, 126, 179, 165, 101, 161, 74, 3, 1.0469
396, 1, wb, filler, NA, 999, 999, 3, 19, 126, 179, 165, 101, 161, 74, 1, 0.395831
396, 1, wb, attraction, a-b-da, 14, 3, 3, 20, 181, 111, 120, 195, 195, 120, 1, 2.32178
396, 1, wb, attraction, a-b-da, 14, 3, 3, 20, 181, 111, 120, 195, 195, 120, 3, 0.482959
396, 1, wb, catch, NA, 999, 999, 3, 21, 125, 130, 64, 131, 142, 173, 2, 0.949385
396, 1, wb, catch, NA, 999, 999, 3, 21, 125, 130, 64, 131, 142, 173, 3, 0.35038
396, 1, wb, attraction, a-b-da, 14, 1, 3, 22, 60, 135, 125, 56, 135, 60, 2, 1.99819
396, 1, wb, attraction, a-b-da, 14, 1, 3, 22, 60, 135, 125, 56, 135, 60, 3, 0.54082
396, 1, wb, attraction, a-b-da, 14, 2, 3, 23, 153, 83, 90, 165, 165, 90, 2, 1.60477
396, 1, wb, attraction, a-b-da, 14, 2, 3, 23, 153, 83, 90, 165, 165, 90, 1, 1.44348
396, 1, wb, filler, NA, 999, 999, 3, 24, 121, 175, 160, 160, 142, 170, 1, 1.55898
396, 1, wb, filler, NA, 999, 999, 3, 24, 121, 175, 160, 160, 142, 170, 3, 0.343086
396, 1, wb, attraction, a-b-db, 5, 1, 3, 25, 58, 132, 60, 135, 135, 60, 2, 2.64696
396, 1, wb, attraction, a-b-db, 5, 1, 3, 25, 58, 132, 60, 135, 135, 60, 3, 0.595489
396, 1, wb, filler, NA, 999, 999, 3, 26, 61, 159, 119, 74, 143, 133, 2, 1.38523
396, 1, wb, filler, NA, 999, 999, 3, 26, 61, 159, 119, 74, 143, 133, 3, 0.304707
396, 1, wb, filler, NA, 999, 999, 3, 27, 84, 66, 114, 72, 147, 188, 1, 0.770522
396, 1, wb, filler, NA, 999, 999, 3, 27, 84, 66, 114, 72, 147, 188, 3, 0.29091
396, 1, wb, attraction, a-b-db, 5, 2, 3, 28, 90, 165, 165, 90, 88, 161, 3, 1.62886
396, 1, wb, attraction, a-b-db, 5, 2, 3, 28, 90, 165, 165, 90, 88, 161, 1, 0.282365
396, 1, wb, attraction, a-b-da, 9, 3, 3, 29, 120, 195, 186, 114, 195, 120, 1, 0.820797
396, 1, wb, attraction, a-b-da, 9, 3, 3, 29, 120, 195, 186, 114, 195, 120, 3, 0.291227
396, 1, wb, filler, NA, 999, 999, 3, 30, 117, 128, 71, 98, 71, 135, 2, 1.30906
396, 1, wb, filler, NA, 999, 999, 3, 30, 117, 128, 71, 98, 71, 135, 1, 0.295324
396, 1, wb, attraction, a-b-da, 5, 1, 3, 31, 135, 60, 132, 58, 60, 135, 2, 0.833222
396, 1, wb, attraction, a-b-da, 5, 1, 3, 31, 135, 60, 132, 58, 60, 135, 3, 0.294819
396, 1, wb, attraction, a-b-db, 14, 2, 3, 32, 83, 153, 165, 90, 90, 165, 2, 3.69665
396, 1, wb, attraction, a-b-db, 14, 2, 3, 32, 83, 153, 165, 90, 90, 165, 3, 0.618888
396, 1, wb, filler, NA, 999, 999, 3, 33, 85, 187, 191, 87, 134, 189, 1, 1.22392
396, 1, wb, filler, NA, 999, 999, 3, 33, 85, 187, 191, 87, 134, 189, 3, 0.333481
396, 1, wb, catch, NA, 999, 999, 3, 34, 117, 78, 118, 137, 166, 149, 1, 0.661904
396, 1, wb, catch, NA, 999, 999, 3, 34, 117, 78, 118, 137, 166, 149, 3, 0.27441
396, 1, wb, attraction, a-b-da, 5, 3, 3, 35, 120, 195, 195, 120, 190, 117, 1, 0.596986
396, 1, wb, attraction, a-b-da, 5, 3, 3, 35, 120, 195, 195, 120, 190, 117, 3, 0.324182
396, 1, wb, filler, NA, 999, 999, 3, 36, 159, 101, 107, 136, 66, 186, 3, 0.732541
396, 1, wb, filler, NA, 999, 999, 3, 36, 159, 101, 107, 136, 66, 186, 1, 0.702312
396, 1, wb, attraction, a-b-da, 9, 2, 3, 37, 157, 86, 90, 165, 165, 90, 2, 0.703989
396, 1, wb, attraction, a-b-da, 9, 2, 3, 37, 157, 86, 90, 165, 165, 90, 3, 0.339272
396, 1, wb, attraction, a-b-da, 14, 3, 4, 1, 120, 195, 195, 120, 181, 111, 1, 0.691672
396, 1, wb, attraction, a-b-da, 14, 3, 4, 1, 120, 195, 195, 120, 181, 111, 2, 0.270708
396, 1, wb, attraction, a-b-db, 2, 1, 4, 2, 135, 60, 59, 134, 60, 135, 1, 0.657915
396, 1, wb, attraction, a-b-db, 2, 1, 4, 2, 135, 60, 59, 134, 60, 135, 2, 0.286347
396, 1, wb, filler, NA, 999, 999, 4, 3, 128, 95, 112, 102, 158, 182, 2, 0.816802
396, 1, wb, filler, NA, 999, 999, 4, 3, 128, 95, 112, 102, 158, 182, 3, 0.287243
396, 1, wb, filler, NA, 999, 999, 4, 4, 148, 59, 144, 184, 172, 136, 1, 0.689731
396, 1, wb, filler, NA, 999, 999, 4, 4, 148, 59, 144, 184, 172, 136, 2, 0.436939
396, 1, wb, attraction, a-b-db, 9, 2, 4, 5, 90, 165, 86, 157, 165, 90, 3, 0.985364
396, 1, wb, attraction, a-b-db, 9, 2, 4, 5, 90, 165, 86, 157, 165, 90, 2, 0.305003
396, 1, wb, attraction, a-b-da, 9, 2, 4, 6, 157, 86, 90, 165, 165, 90, 1, 0.826958
396, 1, wb, attraction, a-b-da, 9, 2, 4, 6, 157, 86, 90, 165, 165, 90, 2, 0.256639
396, 1, wb, filler, NA, 999, 999, 4, 7, 144, 166, 92, 139, 177, 165, 2, 0.827752
396, 1, wb, filler, NA, 999, 999, 4, 7, 144, 166, 92, 139, 177, 165, 3, 0.241449
396, 1, wb, attraction, a-b-db, 5, 1, 4, 8, 135, 60, 60, 135, 58, 132, 3, 0.725362
396, 1, wb, attraction, a-b-db, 5, 1, 4, 8, 135, 60, 60, 135, 58, 132, 1, 0.399105
396, 1, wb, attraction, a-b-db, 5, 2, 4, 9, 165, 90, 90, 165, 88, 161, 2, 0.540961
396, 1, wb, attraction, a-b-db, 5, 2, 4, 9, 165, 90, 90, 165, 88, 161, 3, 0.302169
396, 1, wb, attraction, a-b-db, 9, 1, 4, 10, 135, 60, 57, 129, 60, 135, 2, 0.567882
396, 1, wb, attraction, a-b-db, 9, 1, 4, 10, 135, 60, 57, 129, 60, 135, 1, 0.272429
396, 1, wb, attraction, a-b-db, 14, 1, 4, 11, 56, 125, 135, 60, 60, 135, 2, 0.531484
396, 1, wb, attraction, a-b-db, 14, 1, 4, 11, 56, 125, 135, 60, 60, 135, 1, 0.413293
396, 1, wb, filler, NA, 999, 999, 4, 12, 67, 173, 97, 109, 108, 127, 2, 5.52252
396, 1, wb, filler, NA, 999, 999, 4, 12, 67, 173, 97, 109, 108, 127, 3, 0.291412
396, 1, wb, attraction, a-b-da, 9, 1, 4, 13, 60, 135, 135, 60, 129, 57, 2, 0.829209
396, 1, wb, attraction, a-b-da, 9, 1, 4, 13, 60, 135, 135, 60, 129, 57, 3, 0.571048
396, 1, wb, filler, NA, 999, 999, 4, 14, 75, 100, 167, 90, 70, 191, 1, 1.32203
396, 1, wb, filler, NA, 999, 999, 4, 14, 75, 100, 167, 90, 70, 191, 2, 0.611756
396, 1, wb, attraction, a-b-db, 9, 3, 4, 15, 195, 120, 120, 195, 114, 186, 3, 1.38479
396, 1, wb, attraction, a-b-db, 9, 3, 4, 15, 195, 120, 120, 195, 114, 186, 1, 0.688321
396, 1, wb, attraction, a-b-da, 14, 1, 4, 16, 125, 56, 135, 60, 60, 135, 1, 0.962654
396, 1, wb, attraction, a-b-da, 14, 1, 4, 16, 125, 56, 135, 60, 60, 135, 3, 0.362946
396, 1, wb, catch, NA, 999, 999, 4, 17, 153, 162, 127, 68, 118, 137, 2, 1.38614
396, 1, wb, catch, NA, 999, 999, 4, 17, 153, 162, 127, 68, 118, 137, 1, 0.433701
396, 1, wb, attraction, a-b-da, 2, 2, 4, 18, 90, 165, 163, 89, 165, 90, 2, 1.04616
396, 1, wb, attraction, a-b-da, 2, 2, 4, 18, 90, 165, 163, 89, 165, 90, 3, 0.451246
396, 1, wb, attraction, a-b-da, 2, 1, 4, 19, 135, 60, 60, 135, 134, 59, 1, 0.767011
396, 1, wb, attraction, a-b-da, 2, 1, 4, 19, 135, 60, 60, 135, 134, 59, 2, 0.287347
396, 1, wb, attraction, a-b-da, 5, 2, 4, 20, 90, 165, 161, 88, 165, 90, 2, 0.80983
396, 1, wb, attraction, a-b-da, 5, 2, 4, 20, 90, 165, 161, 88, 165, 90, 1, 0.272268
396, 1, wb, attraction, a-b-db, 2, 3, 4, 21, 119, 193, 120, 195, 195, 120, 1, 0.723459
396, 1, wb, attraction, a-b-db, 2, 3, 4, 21, 119, 193, 120, 195, 195, 120, 2, 0.229237
396, 1, wb, attraction, a-b-da, 2, 3, 4, 22, 120, 195, 195, 120, 193, 119, 2, 0.561727
396, 1, wb, attraction, a-b-da, 2, 3, 4, 22, 120, 195, 195, 120, 193, 119, 1, 0.2343
396, 1, wb, filler, NA, 999, 999, 4, 23, 105, 80, 136, 62, 111, 165, 2, 1.1828
396, 1, wb, filler, NA, 999, 999, 4, 23, 105, 80, 136, 62, 111, 165, 3, 0.294398
396, 1, wb, attraction, a-b-da, 5, 1, 4, 24, 132, 58, 135, 60, 60, 135, 2, 4.02426
396, 1, wb, attraction, a-b-da, 5, 1, 4, 24, 132, 58, 135, 60, 60, 135, 3, 0.508858
396, 1, wb, attraction, a-b-db, 14, 2, 4, 25, 165, 90, 83, 153, 90, 165, 2, 0.958069
396, 1, wb, attraction, a-b-db, 14, 2, 4, 25, 165, 90, 83, 153, 90, 165, 1, 0.526327
396, 1, wb, filler, NA, 999, 999, 4, 26, 193, 121, 120, 181, 135, 138, 2, 1.24679
396, 1, wb, filler, NA, 999, 999, 4, 26, 193, 121, 120, 181, 135, 138, 3, 0.43571
396, 1, wb, attraction, a-b-db, 2, 2, 4, 27, 90, 165, 165, 90, 89, 163, 2, 0.832157
396, 1, wb, attraction, a-b-db, 2, 2, 4, 27, 90, 165, 165, 90, 89, 163, 1, 0.325789
396, 1, wb, attraction, a-b-da, 9, 3, 4, 28, 195, 120, 186, 114, 120, 195, 2, 1.00643
396, 1, wb, attraction, a-b-da, 9, 3, 4, 28, 195, 120, 186, 114, 120, 195, 3, 0.252823
396, 1, wb, attraction, a-b-da, 5, 3, 4, 29, 120, 195, 190, 117, 195, 120, 2, 0.608567
396, 1, wb, attraction, a-b-da, 5, 3, 4, 29, 120, 195, 190, 117, 195, 120, 1, 0.255136
396, 1, wb, catch, NA, 999, 999, 4, 30, 152, 103, 69, 126, 152, 163, 2, 0.874944
396, 1, wb, catch, NA, 999, 999, 4, 30, 152, 103, 69, 126, 152, 163, 3, 0.270608
396, 1, wb, catch, NA, 999, 999, 4, 31, 195, 120, 94, 101, 120, 135, 2, 0.857732
396, 1, wb, catch, NA, 999, 999, 4, 31, 195, 120, 94, 101, 120, 135, 1, 0.27819
396, 1, wb, filler, NA, 999, 999, 4, 32, 173, 74, 156, 68, 64, 59, 3, 1.16077
396, 1, wb, filler, NA, 999, 999, 4, 32, 173, 74, 156, 68, 64, 59, 1, 0.280997
396, 1, wb, attraction, a-b-db, 14, 3, 4, 33, 195, 120, 120, 195, 111, 181, 3, 1.11564
396, 1, wb, attraction, a-b-db, 14, 3, 4, 33, 195, 120, 120, 195, 111, 181, 1, 0.557779
396, 1, wb, attraction, a-b-db, 5, 3, 4, 34, 195, 120, 120, 195, 117, 190, 2, 0.532822
396, 1, wb, attraction, a-b-db, 5, 3, 4, 34, 195, 120, 120, 195, 117, 190, 1, 0.326655
396, 1, wb, filler, NA, 999, 999, 4, 35, 86, 103, 159, 167, 133, 195, 1, 0.959184
396, 1, wb, filler, NA, 999, 999, 4, 35, 86, 103, 159, 167, 133, 195, 3, 0.303525
396, 1, wb, attraction, a-b-da, 14, 2, 4, 36, 153, 83, 165, 90, 90, 165, 1, 0.913489
396, 1, wb, attraction, a-b-da, 14, 2, 4, 36, 153, 83, 165, 90, 90, 165, 2, 0.635819
396, 1, wb, filler, NA, 999, 999, 4, 37, 178, 184, 76, 99, 145, 94, 2, 0.592088
396, 1, wb, filler, NA, 999, 999, 4, 37, 178, 184, 76, 99, 145, 94, 1, 0.279278
396, 1, wb, attraction, a-b-da, 9, 1, 5, 1, 129, 57, 135, 60, 60, 135, 1, 3.1844
396, 1, wb, attraction, a-b-da, 9, 1, 5, 1, 129, 57, 135, 60, 60, 135, 3, 0.695506
396, 1, wb, attraction, a-b-da, 5, 2, 5, 2, 161, 88, 165, 90, 90, 165, 1, 2.00912
396, 1, wb, attraction, a-b-da, 5, 2, 5, 2, 161, 88, 165, 90, 90, 165, 2, 0.631084
396, 1, wb, attraction, a-b-db, 5, 2, 5, 3, 88, 161, 165, 90, 90, 165, 1, 1.5235
396, 1, wb, attraction, a-b-db, 5, 2, 5, 3, 88, 161, 165, 90, 90, 165, 3, 0.733136
396, 1, wb, filler, NA, 999, 999, 5, 4, 170, 157, 180, 87, 165, 153, 2, 1.2454
396, 1, wb, filler, NA, 999, 999, 5, 4, 170, 157, 180, 87, 165, 153, 1, 0.786386
396, 1, wb, filler, NA, 999, 999, 5, 5, 189, 69, 103, 164, 74, 81, 3, 0.928843
396, 1, wb, filler, NA, 999, 999, 5, 5, 189, 69, 103, 164, 74, 81, 2, 0.37838
396, 1, wb, filler, NA, 999, 999, 5, 6, 57, 116, 176, 117, 160, 162, 1, 0.656873
396, 1, wb, filler, NA, 999, 999, 5, 6, 57, 116, 176, 117, 160, 162, 3, 0.405232
396, 1, wb, attraction, a-b-db, 9, 1, 5, 7, 57, 129, 135, 60, 60, 135, 2, 1.97108
396, 1, wb, attraction, a-b-db, 9, 1, 5, 7, 57, 129, 135, 60, 60, 135, 1, 0.411157
396, 1, wb, catch, NA, 999, 999, 5, 8, 110, 145, 97, 98, 145, 170, 2, 0.624466
396, 1, wb, catch, NA, 999, 999, 5, 8, 110, 145, 97, 98, 145, 170, 3, 0.262121
396, 1, wb, attraction, a-b-db, 9, 3, 5, 9, 114, 186, 195, 120, 120, 195, 1, 0.657192
396, 1, wb, attraction, a-b-db, 9, 3, 5, 9, 114, 186, 195, 120, 120, 195, 3, 0.301676
396, 1, wb, filler, NA, 999, 999, 5, 10, 135, 194, 84, 193, 93, 137, 3, 0.831613
396, 1, wb, filler, NA, 999, 999, 5, 10, 135, 194, 84, 193, 93, 137, 1, 0.50131
396, 1, wb, filler, NA, 999, 999, 5, 11, 157, 79, 185, 87, 74, 123, 3, 0.703067
396, 1, wb, filler, NA, 999, 999, 5, 11, 157, 79, 185, 87, 74, 123, 2, 0.658113
396, 1, wb, attraction, a-b-da, 2, 2, 5, 12, 90, 165, 163, 89, 165, 90, 1, 0.789175
396, 1, wb, attraction, a-b-da, 2, 2, 5, 12, 90, 165, 163, 89, 165, 90, 3, 0.364628
396, 1, wb, attraction, a-b-da, 14, 3, 5, 13, 195, 120, 120, 195, 181, 111, 2, 0.635493
396, 1, wb, attraction, a-b-da, 14, 3, 5, 13, 195, 120, 120, 195, 181, 111, 1, 0.4252
396, 1, wb, attraction, a-b-da, 5, 3, 5, 14, 120, 195, 190, 117, 195, 120, 2, 1.58174
396, 1, wb, attraction, a-b-da, 5, 3, 5, 14, 120, 195, 190, 117, 195, 120, 1, 0.301186
396, 1, wb, attraction, a-b-db, 2, 1, 5, 15, 59, 134, 60, 135, 135, 60, 3, 1.183
396, 1, wb, attraction, a-b-db, 2, 1, 5, 15, 59, 134, 60, 135, 135, 60, 2, 0.350629
396, 1, wb, attraction, a-b-db, 5, 3, 5, 16, 120, 195, 117, 190, 195, 120, 1, 0.982517
396, 1, wb, attraction, a-b-db, 5, 3, 5, 16, 120, 195, 117, 190, 195, 120, 2, 0.286399
396, 1, wb, attraction, a-b-da, 2, 3, 5, 17, 120, 195, 195, 120, 193, 119, 1, 0.496629
396, 1, wb, attraction, a-b-da, 2, 3, 5, 17, 120, 195, 195, 120, 193, 119, 2, 1.20373
396, 1, wb, filler, NA, 999, 999, 5, 18, 89, 174, 188, 78, 166, 56, 3, 1.07337
396, 1, wb, filler, NA, 999, 999, 5, 18, 89, 174, 188, 78, 166, 56, 1, 0.788962
396, 1, wb, attraction, a-b-da, 14, 1, 5, 19, 135, 60, 60, 135, 125, 56, 3, 0.939369
396, 1, wb, attraction, a-b-da, 14, 1, 5, 19, 135, 60, 60, 135, 125, 56, 2, 0.956318
396, 1, wb, catch, NA, 999, 999, 5, 20, 163, 152, 134, 61, 143, 112, 2, 1.25999
396, 1, wb, catch, NA, 999, 999, 5, 20, 163, 152, 134, 61, 143, 112, 1, 0.368237
396, 1, wb, attraction, a-b-db, 9, 2, 5, 21, 165, 90, 90, 165, 86, 157, 1, 1.39145
396, 1, wb, attraction, a-b-db, 9, 2, 5, 21, 165, 90, 90, 165, 86, 157, 2, 0.35829
396, 1, wb, attraction, a-b-db, 14, 2, 5, 22, 90, 165, 165, 90, 83, 153, 3, 0.797432
396, 1, wb, attraction, a-b-db, 14, 2, 5, 22, 90, 165, 165, 90, 83, 153, 2, 0.580448
396, 1, wb, catch, NA, 999, 999, 5, 23, 124, 71, 138, 177, 141, 114, 1, 0.778923
396, 1, wb, catch, NA, 999, 999, 5, 23, 124, 71, 138, 177, 141, 114, 2, 0.37866
396, 1, wb, filler, NA, 999, 999, 5, 24, 181, 116, 72, 171, 140, 87, 2, 0.769271
396, 1, wb, filler, NA, 999, 999, 5, 24, 181, 116, 72, 171, 140, 87, 1, 0.329532
396, 1, wb, attraction, a-b-da, 9, 2, 5, 25, 165, 90, 90, 165, 157, 86, 1, 1.594
396, 1, wb, attraction, a-b-da, 9, 2, 5, 25, 165, 90, 90, 165, 157, 86, 2, 0.328841
396, 1, wb, attraction, a-b-db, 2, 2, 5, 26, 90, 165, 89, 163, 165, 90, 3, 0.793402
396, 1, wb, attraction, a-b-db, 2, 2, 5, 26, 90, 165, 89, 163, 165, 90, 2, 0.33639
396, 1, wb, attraction, a-b-db, 5, 1, 5, 27, 135, 60, 60, 135, 58, 132, 1, 0.992925
396, 1, wb, attraction, a-b-db, 5, 1, 5, 27, 135, 60, 60, 135, 58, 132, 2, 0.303873
396, 1, wb, attraction, a-b-da, 5, 1, 5, 28, 132, 58, 135, 60, 60, 135, 1, 0.545796
396, 1, wb, attraction, a-b-da, 5, 1, 5, 28, 132, 58, 135, 60, 60, 135, 2, 0.378868
396, 1, wb, attraction, a-b-da, 14, 2, 5, 29, 153, 83, 90, 165, 165, 90, 3, 0.601493
396, 1, wb, attraction, a-b-da, 14, 2, 5, 29, 153, 83, 90, 165, 165, 90, 2, 0.368679
396, 1, wb, attraction, a-b-da, 9, 3, 5, 30, 186, 114, 195, 120, 120, 195, 3, 0.527574
396, 1, wb, attraction, a-b-da, 9, 3, 5, 30, 186, 114, 195, 120, 120, 195, 2, 0.369527
396, 1, wb, attraction, a-b-db, 14, 3, 5, 31, 120, 195, 195, 120, 111, 181, 1, 0.528594
396, 1, wb, attraction, a-b-db, 14, 3, 5, 31, 120, 195, 195, 120, 111, 181, 2, 0.266415
396, 1, wb, attraction, a-b-da, 2, 1, 5, 32, 60, 135, 135, 60, 134, 59, 3, 0.485617
396, 1, wb, attraction, a-b-da, 2, 1, 5, 32, 60, 135, 135, 60, 134, 59, 2, 0.761518
396, 1, wb, filler, NA, 999, 999, 5, 33, 164, 146, 152, 115, 65, 173, 3, 1.04047
396, 1, wb, filler, NA, 999, 999, 5, 33, 164, 146, 152, 115, 65, 173, 1, 0.381501
396, 1, wb, filler, NA, 999, 999, 5, 34, 118, 195, 61, 130, 73, 176, 2, 0.555857
396, 1, wb, filler, NA, 999, 999, 5, 34, 118, 195, 61, 130, 73, 176, 1, 0.328775
396, 1, wb, filler, NA, 999, 999, 5, 35, 99, 188, 157, 106, 172, 136, 2, 0.740905
396, 1, wb, filler, NA, 999, 999, 5, 35, 99, 188, 157, 106, 172, 136, 3, 0.582128
396, 1, wb, attraction, a-b-db, 2, 3, 5, 36, 195, 120, 120, 195, 119, 193, 3, 4.01244
396, 1, wb, attraction, a-b-db, 2, 3, 5, 36, 195, 120, 120, 195, 119, 193, 2, 0.241798
396, 1, wb, attraction, a-b-db, 14, 1, 5, 37, 60, 135, 135, 60, 56, 125, 1, 0.669603
396, 1, wb, attraction, a-b-db, 14, 1, 5, 37, 60, 135, 135, 60, 56, 125, 2, 0.282089
396, 1, wb, attraction, a-b-db, 2, 2, 6, 1, 90, 165, 89, 163, 165, 90, 3, 1.0207
396, 1, wb, attraction, a-b-db, 2, 2, 6, 1, 90, 165, 89, 163, 165, 90, 2, 0.634253
396, 1, wb, attraction, a-b-da, 9, 1, 6, 2, 129, 57, 60, 135, 135, 60, 1, 0.654613
396, 1, wb, attraction, a-b-da, 9, 1, 6, 2, 129, 57, 60, 135, 135, 60, 2, 0.31573
396, 1, wb, attraction, a-b-db, 2, 3, 6, 3, 195, 120, 120, 195, 119, 193, 3, 0.581014
396, 1, wb, attraction, a-b-db, 2, 3, 6, 3, 195, 120, 120, 195, 119, 193, 2, 0.324794
396, 1, wb, filler, NA, 999, 999, 6, 4, 114, 172, 180, 152, 162, 183, 1, 0.885234
396, 1, wb, filler, NA, 999, 999, 6, 4, 114, 172, 180, 152, 162, 183, 3, 0.481081
396, 1, wb, attraction, a-b-da, 14, 3, 6, 5, 195, 120, 181, 111, 120, 195, 2, 0.93142
396, 1, wb, attraction, a-b-da, 14, 3, 6, 5, 195, 120, 181, 111, 120, 195, 3, 0.309109
396, 1, wb, attraction, a-b-da, 5, 3, 6, 6, 190, 117, 120, 195, 195, 120, 2, 0.598285
396, 1, wb, attraction, a-b-da, 5, 3, 6, 6, 190, 117, 120, 195, 195, 120, 1, 0.57338
396, 1, wb, attraction, a-b-db, 2, 1, 6, 7, 59, 134, 135, 60, 60, 135, 2, 0.67581
396, 1, wb, attraction, a-b-db, 2, 1, 6, 7, 59, 134, 135, 60, 60, 135, 1, 0.415504
396, 1, wb, attraction, a-b-da, 9, 2, 6, 8, 90, 165, 157, 86, 165, 90, 2, 0.804715
396, 1, wb, attraction, a-b-da, 9, 2, 6, 8, 90, 165, 157, 86, 165, 90, 3, 0.507072
396, 1, wb, filler, NA, 999, 999, 6, 9, 85, 154, 124, 79, 64, 190, 2, 4.49223
396, 1, wb, filler, NA, 999, 999, 6, 9, 85, 154, 124, 79, 64, 190, 1, 1.91812
396, 1, wb, filler, NA, 999, 999, 6, 10, 192, 134, 100, 95, 65, 186, 2, 1.17485
396, 1, wb, filler, NA, 999, 999, 6, 10, 192, 134, 100, 95, 65, 186, 1, 0.382387
396, 1, wb, attraction, a-b-db, 5, 2, 6, 11, 165, 90, 88, 161, 90, 165, 2, 1.0769
396, 1, wb, attraction, a-b-db, 5, 2, 6, 11, 165, 90, 88, 161, 90, 165, 1, 0.40848
396, 1, wb, attraction, a-b-da, 9, 3, 6, 12, 195, 120, 186, 114, 120, 195, 2, 1.08574
396, 1, wb, attraction, a-b-da, 9, 3, 6, 12, 195, 120, 186, 114, 120, 195, 1, 0.40129
396, 1, wb, catch, NA, 999, 999, 6, 13, 131, 124, 172, 143, 100, 95, 3, 0.831273
396, 1, wb, catch, NA, 999, 999, 6, 13, 131, 124, 172, 143, 100, 95, 2, 0.316818
396, 1, wb, attraction, a-b-da, 5, 1, 6, 14, 132, 58, 135, 60, 60, 135, 3, 0.749998
396, 1, wb, attraction, a-b-da, 5, 1, 6, 14, 132, 58, 135, 60, 60, 135, 2, 0.383172
396, 1, wb, attraction, a-b-db, 14, 1, 6, 15, 56, 125, 135, 60, 60, 135, 1, 0.853607
396, 1, wb, attraction, a-b-db, 14, 1, 6, 15, 56, 125, 135, 60, 60, 135, 2, 0.514618
396, 1, wb, attraction, a-b-db, 9, 1, 6, 16, 57, 129, 60, 135, 135, 60, 3, 0.747754
396, 1, wb, attraction, a-b-db, 9, 1, 6, 16, 57, 129, 60, 135, 135, 60, 2, 0.412806
396, 1, wb, filler, NA, 999, 999, 6, 17, 140, 129, 108, 96, 98, 154, 2, 1.07399
396, 1, wb, filler, NA, 999, 999, 6, 17, 140, 129, 108, 96, 98, 154, 1, 0.293601
396, 1, wb, filler, NA, 999, 999, 6, 18, 154, 161, 191, 107, 58, 56, 3, 0.895519
396, 1, wb, filler, NA, 999, 999, 6, 18, 154, 161, 191, 107, 58, 56, 1, 0.330565
396, 1, wb, attraction, a-b-db, 14, 2, 6, 19, 83, 153, 165, 90, 90, 165, 2, 0.570883
396, 1, wb, attraction, a-b-db, 14, 2, 6, 19, 83, 153, 165, 90, 90, 165, 3, 0.339454
396, 1, wb, attraction, a-b-da, 14, 2, 6, 20, 90, 165, 165, 90, 153, 83, 2, 0.483949
396, 1, wb, attraction, a-b-da, 14, 2, 6, 20, 90, 165, 165, 90, 153, 83, 3, 0.367745
396, 1, wb, attraction, a-b-db, 14, 3, 6, 21, 195, 120, 120, 195, 111, 181, 2, 0.662953
396, 1, wb, attraction, a-b-db, 14, 3, 6, 21, 195, 120, 120, 195, 111, 181, 1, 0.339272
396, 1, wb, attraction, a-b-da, 5, 2, 6, 22, 90, 165, 161, 88, 165, 90, 2, 1.0119
396, 1, wb, attraction, a-b-da, 5, 2, 6, 22, 90, 165, 161, 88, 165, 90, 3, 0.3222
396, 1, wb, filler, NA, 999, 999, 6, 23, 127, 138, 167, 99, 180, 138, 2, 0.427393
396, 1, wb, filler, NA, 999, 999, 6, 23, 127, 138, 167, 99, 180, 138, 3, 0.361167
396, 1, wb, attraction, a-b-db, 5, 1, 6, 24, 135, 60, 58, 132, 60, 135, 2, 0.608392
396, 1, wb, attraction, a-b-db, 5, 1, 6, 24, 135, 60, 58, 132, 60, 135, 1, 0.31076
396, 1, wb, attraction, a-b-da, 2, 3, 6, 25, 120, 195, 195, 120, 193, 119, 2, 0.640007
396, 1, wb, attraction, a-b-da, 2, 3, 6, 25, 120, 195, 195, 120, 193, 119, 1, 0.285082
396, 1, wb, filler, NA, 999, 999, 6, 26, 154, 102, 175, 130, 130, 142, 1, 0.767641
396, 1, wb, filler, NA, 999, 999, 6, 26, 154, 102, 175, 130, 130, 142, 2, 0.280032
396, 1, wb, filler, NA, 999, 999, 6, 27, 126, 171, 129, 138, 117, 140, 2, 0.890546
396, 1, wb, filler, NA, 999, 999, 6, 27, 126, 171, 129, 138, 117, 140, 1, 0.389624
396, 1, wb, attraction, a-b-da, 2, 2, 6, 28, 163, 89, 165, 90, 90, 165, 2, 0.596131
396, 1, wb, attraction, a-b-da, 2, 2, 6, 28, 163, 89, 165, 90, 90, 165, 1, 0.595258
396, 1, wb, filler, NA, 999, 999, 6, 29, 131, 163, 168, 151, 141, 175, 2, 0.504978
396, 1, wb, filler, NA, 999, 999, 6, 29, 131, 163, 168, 151, 141, 175, 1, 0.379379
396, 1, wb, attraction, a-b-db, 9, 2, 6, 30, 165, 90, 86, 157, 90, 165, 1, 0.849939
396, 1, wb, attraction, a-b-db, 9, 2, 6, 30, 165, 90, 86, 157, 90, 165, 2, 0.294975
396, 1, wb, attraction, a-b-db, 5, 3, 6, 31, 195, 120, 120, 195, 117, 190, 2, 0.832721
396, 1, wb, attraction, a-b-db, 5, 3, 6, 31, 195, 120, 120, 195, 117, 190, 1, 0.502548
396, 1, wb, attraction, a-b-da, 2, 1, 6, 32, 135, 60, 60, 135, 134, 59, 2, 0.808272
396, 1, wb, attraction, a-b-da, 2, 1, 6, 32, 135, 60, 60, 135, 134, 59, 3, 0.382612
396, 1, wb, attraction, a-b-db, 9, 3, 6, 33, 195, 120, 114, 186, 120, 195, 2, 1.10114
396, 1, wb, attraction, a-b-db, 9, 3, 6, 33, 195, 120, 114, 186, 120, 195, 3, 0.288137
396, 1, wb, filler, NA, 999, 999, 6, 34, 118, 119, 88, 162, 89, 125, 2, 0.450598
396, 1, wb, filler, NA, 999, 999, 6, 34, 118, 119, 88, 162, 89, 125, 3, 0.687776
396, 1, wb, catch, NA, 999, 999, 6, 35, 181, 134, 135, 120, 124, 71, 3, 0.794159
396, 1, wb, catch, NA, 999, 999, 6, 35, 181, 134, 135, 120, 124, 71, 1, 0.337238
396, 1, wb, attraction, a-b-da, 14, 1, 6, 36, 125, 56, 135, 60, 60, 135, 1, 0.721784
396, 1, wb, attraction, a-b-da, 14, 1, 6, 36, 125, 56, 135, 60, 60, 135, 2, 0.339461
396, 1, wb, catch, NA, 999, 999, 6, 37, 168, 147, 155, 100, 69, 126, 3, 0.660026
396, 1, wb, catch, NA, 999, 999, 6, 37, 168, 147, 155, 100, 69, 126, 1, 0.328545
396, 1, wb, filler, NA, 999, 999, 7, 1, 153, 137, 87, 150, 154, 156, 2, 0.600926
396, 1, wb, filler, NA, 999, 999, 7, 1, 153, 137, 87, 150, 154, 156, 3, 0.328068
396, 1, wb, attraction, a-b-da, 5, 2, 7, 2, 165, 90, 161, 88, 90, 165, 2, 0.656533
396, 1, wb, attraction, a-b-da, 5, 2, 7, 2, 165, 90, 161, 88, 90, 165, 3, 0.301209
396, 1, wb, attraction, a-b-db, 9, 1, 7, 3, 57, 129, 135, 60, 60, 135, 2, 4.31088
396, 1, wb, attraction, a-b-db, 9, 1, 7, 3, 57, 129, 135, 60, 60, 135, 3, 0.472152
396, 1, wb, attraction, a-b-db, 14, 1, 7, 4, 135, 60, 56, 125, 60, 135, 2, 0.691266
396, 1, wb, attraction, a-b-db, 14, 1, 7, 4, 135, 60, 56, 125, 60, 135, 1, 0.598302
396, 1, wb, attraction, a-b-db, 5, 1, 7, 5, 58, 132, 60, 135, 135, 60, 2, 0.692167
396, 1, wb, attraction, a-b-db, 5, 1, 7, 5, 58, 132, 60, 135, 135, 60, 1, 0.343276
396, 1, wb, attraction, a-b-da, 2, 1, 7, 6, 134, 59, 60, 135, 135, 60, 2, 0.919027
396, 1, wb, attraction, a-b-da, 2, 1, 7, 6, 134, 59, 60, 135, 135, 60, 1, 0.433445
396, 1, wb, attraction, a-b-da, 9, 3, 7, 7, 186, 114, 120, 195, 195, 120, 1, 2.78988
396, 1, wb, attraction, a-b-da, 9, 3, 7, 7, 186, 114, 120, 195, 195, 120, 2, 0.372401
396, 1, wb, attraction, a-b-da, 9, 2, 7, 8, 90, 165, 165, 90, 157, 86, 1, 0.603533
396, 1, wb, attraction, a-b-da, 9, 2, 7, 8, 90, 165, 165, 90, 157, 86, 2, 0.562649
396, 1, wb, attraction, a-b-db, 5, 3, 7, 9, 117, 190, 120, 195, 195, 120, 1, 0.609732
396, 1, wb, attraction, a-b-db, 5, 3, 7, 9, 117, 190, 120, 195, 195, 120, 2, 0.232181
396, 1, wb, catch, NA, 999, 999, 7, 10, 137, 118, 171, 144, 129, 66, 3, 0.868779
396, 1, wb, catch, NA, 999, 999, 7, 10, 137, 118, 171, 144, 129, 66, 2, 0.257082
396, 1, wb, attraction, a-b-db, 2, 2, 7, 11, 90, 165, 89, 163, 165, 90, 1, 0.628284
396, 1, wb, attraction, a-b-db, 2, 2, 7, 11, 90, 165, 89, 163, 165, 90, 2, 0.250078
396, 1, wb, catch, NA, 999, 999, 7, 12, 84, 111, 136, 119, 192, 123, 1, 0.757956
396, 1, wb, catch, NA, 999, 999, 7, 12, 84, 111, 136, 119, 192, 123, 3, 0.534377
396, 1, wb, filler, NA, 999, 999, 7, 13, 157, 68, 156, 144, 133, 58, 3, 1.01482
396, 1, wb, filler, NA, 999, 999, 7, 13, 157, 68, 156, 144, 133, 58, 2, 0.365112
396, 1, wb, attraction, a-b-db, 14, 2, 7, 14, 90, 165, 165, 90, 83, 153, 2, 0.652214
396, 1, wb, attraction, a-b-db, 14, 2, 7, 14, 90, 165, 165, 90, 83, 153, 3, 0.233254
396, 1, wb, attraction, a-b-da, 5, 3, 7, 15, 190, 117, 195, 120, 120, 195, 2, 0.533962
396, 1, wb, attraction, a-b-da, 5, 3, 7, 15, 190, 117, 195, 120, 120, 195, 1, 0.25573
396, 1, wb, attraction, a-b-db, 9, 2, 7, 16, 165, 90, 90, 165, 86, 157, 2, 0.451705
396, 1, wb, attraction, a-b-db, 9, 2, 7, 16, 165, 90, 90, 165, 86, 157, 1, 0.272758
396, 1, wb, attraction, a-b-db, 5, 2, 7, 17, 165, 90, 88, 161, 90, 165, 2, 0.323887
396, 1, wb, attraction, a-b-db, 5, 2, 7, 17, 165, 90, 88, 161, 90, 165, 1, 0.653743
396, 1, wb, filler, NA, 999, 999, 7, 18, 166, 184, 131, 79, 126, 113, 2, 1.53753
396, 1, wb, filler, NA, 999, 999, 7, 18, 166, 184, 131, 79, 126, 113, 1, 0.274305
396, 1, wb, attraction, a-b-da, 14, 1, 7, 19, 60, 135, 125, 56, 135, 60, 2, 0.676875
396, 1, wb, attraction, a-b-da, 14, 1, 7, 19, 60, 135, 125, 56, 135, 60, 1, 0.328618
396, 1, wb, filler, NA, 999, 999, 7, 20, 95, 73, 66, 126, 173, 127, 2, 0.793167
396, 1, wb, filler, NA, 999, 999, 7, 20, 95, 73, 66, 126, 173, 127, 3, 0.288162
396, 1, wb, attraction, a-b-da, 5, 1, 7, 21, 135, 60, 132, 58, 60, 135, 2, 0.530794
396, 1, wb, attraction, a-b-da, 5, 1, 7, 21, 135, 60, 132, 58, 60, 135, 3, 0.324459
396, 1, wb, catch, NA, 999, 999, 7, 22, 110, 85, 145, 170, 100, 155, 1, 0.733108
396, 1, wb, catch, NA, 999, 999, 7, 22, 110, 85, 145, 170, 100, 155, 2, 0.222753
396, 1, wb, attraction, a-b-da, 2, 3, 7, 23, 195, 120, 120, 195, 193, 119, 1, 0.643875
396, 1, wb, attraction, a-b-da, 2, 3, 7, 23, 195, 120, 120, 195, 193, 119, 2, 0.608999
396, 1, wb, attraction, a-b-db, 2, 3, 7, 24, 119, 193, 195, 120, 120, 195, 2, 0.558175
396, 1, wb, attraction, a-b-db, 2, 3, 7, 24, 119, 193, 195, 120, 120, 195, 3, 0.270684
396, 1, wb, filler, NA, 999, 999, 7, 25, 129, 166, 172, 123, 178, 161, 2, 0.441874
396, 1, wb, filler, NA, 999, 999, 7, 25, 129, 166, 172, 123, 178, 161, 3, 0.286907
396, 1, wb, attraction, a-b-da, 14, 3, 7, 26, 120, 195, 181, 111, 195, 120, 2, 0.481449
396, 1, wb, attraction, a-b-da, 14, 3, 7, 26, 120, 195, 181, 111, 195, 120, 3, 0.261302
396, 1, wb, attraction, a-b-db, 14, 3, 7, 27, 195, 120, 120, 195, 111, 181, 2, 0.608554
396, 1, wb, attraction, a-b-db, 14, 3, 7, 27, 195, 120, 120, 195, 111, 181, 3, 0.286989
396, 1, wb, filler, NA, 999, 999, 7, 28, 146, 144, 180, 68, 175, 92, 2, 0.63351
396, 1, wb, filler, NA, 999, 999, 7, 28, 146, 144, 180, 68, 175, 92, 1, 0.503301
396, 1, wb, filler, NA, 999, 999, 7, 29, 129, 79, 170, 171, 134, 143, 1, 0.705122
396, 1, wb, filler, NA, 999, 999, 7, 29, 129, 79, 170, 171, 134, 143, 2, 0.547537
396, 1, wb, filler, NA, 999, 999, 7, 30, 158, 125, 192, 157, 86, 113, 3, 0.619137
396, 1, wb, filler, NA, 999, 999, 7, 30, 158, 125, 192, 157, 86, 113, 2, 0.22564
396, 1, wb, attraction, a-b-da, 9, 1, 7, 31, 135, 60, 60, 135, 129, 57, 1, 0.726225
396, 1, wb, attraction, a-b-da, 9, 1, 7, 31, 135, 60, 60, 135, 129, 57, 2, 0.271894
396, 1, wb, attraction, a-b-da, 2, 2, 7, 32, 90, 165, 165, 90, 163, 89, 1, 0.547073
396, 1, wb, attraction, a-b-da, 2, 2, 7, 32, 90, 165, 165, 90, 163, 89, 2, 0.260381
396, 1, wb, filler, NA, 999, 999, 7, 33, 177, 195, 177, 104, 86, 56, 3, 0.663495
396, 1, wb, filler, NA, 999, 999, 7, 33, 177, 195, 177, 104, 86, 56, 2, 0.259855
396, 1, wb, filler, NA, 999, 999, 7, 34, 150, 193, 150, 98, 66, 139, 3, 0.583061
396, 1, wb, filler, NA, 999, 999, 7, 34, 150, 193, 150, 98, 66, 139, 2, 0.24681
396, 1, wb, attraction, a-b-db, 9, 3, 7, 35, 120, 195, 195, 120, 114, 186, 3, 0.578783
396, 1, wb, attraction, a-b-db, 9, 3, 7, 35, 120, 195, 195, 120, 114, 186, 2, 0.314517
396, 1, wb, attraction, a-b-db, 2, 1, 7, 36, 135, 60, 59, 134, 60, 135, 1, 0.603721
396, 1, wb, attraction, a-b-db, 2, 1, 7, 36, 135, 60, 59, 134, 60, 135, 2, 0.258826
396, 1, wb, attraction, a-b-da, 14, 2, 7, 37, 153, 83, 90, 165, 165, 90, 1, 0.494017
396, 1, wb, attraction, a-b-da, 14, 2, 7, 37, 153, 83, 90, 165, 165, 90, 2, 0.273204
396, 1, wb, catch, NA, 999, 999, 8, 1, 122, 193, 141, 114, 116, 79, 3, 0.843775
396, 1, wb, catch, NA, 999, 999, 8, 1, 122, 193, 141, 114, 116, 79, 2, 0.528824
396, 1, wb, filler, NA, 999, 999, 8, 2, 168, 106, 65, 152, 144, 121, 2, 1.24217
396, 1, wb, filler, NA, 999, 999, 8, 2, 168, 106, 65, 152, 144, 121, 3, 0.286074
396, 1, wb, attraction, a-b-da, 2, 1, 8, 3, 135, 60, 134, 59, 60, 135, 2, 0.528531
396, 1, wb, attraction, a-b-da, 2, 1, 8, 3, 135, 60, 134, 59, 60, 135, 3, 0.770444
396, 1, wb, filler, NA, 999, 999, 8, 4, 76, 171, 121, 76, 98, 142, 2, 0.537468
396, 1, wb, filler, NA, 999, 999, 8, 4, 76, 171, 121, 76, 98, 142, 3, 0.331279
396, 1, wb, filler, NA, 999, 999, 8, 5, 151, 149, 135, 163, 66, 165, 3, 0.675795
396, 1, wb, filler, NA, 999, 999, 8, 5, 151, 149, 135, 163, 66, 165, 2, 0.279606
396, 1, wb, attraction, a-b-da, 5, 1, 8, 6, 132, 58, 135, 60, 60, 135, 1, 0.785923
396, 1, wb, attraction, a-b-da, 5, 1, 8, 6, 132, 58, 135, 60, 60, 135, 2, 0.329755
396, 1, wb, filler, NA, 999, 999, 8, 7, 132, 177, 186, 62, 180, 135, 2, 0.658269
396, 1, wb, filler, NA, 999, 999, 8, 7, 132, 177, 186, 62, 180, 135, 3, 0.286692
396, 1, wb, catch, NA, 999, 999, 8, 8, 122, 193, 106, 89, 158, 97, 2, 0.561172
396, 1, wb, catch, NA, 999, 999, 8, 8, 122, 193, 106, 89, 158, 97, 1, 0.305796
396, 1, wb, catch, NA, 999, 999, 8, 9, 128, 67, 129, 186, 157, 98, 1, 0.771609
396, 1, wb, catch, NA, 999, 999, 8, 9, 128, 67, 129, 186, 157, 98, 2, 0.259361
396, 1, wb, attraction, a-b-da, 5, 2, 8, 10, 165, 90, 161, 88, 90, 165, 1, 0.526568
396, 1, wb, attraction, a-b-da, 5, 2, 8, 10, 165, 90, 161, 88, 90, 165, 2, 0.592278
396, 1, wb, filler, NA, 999, 999, 8, 11, 81, 171, 117, 129, 90, 132, 1, 1.67006
396, 1, wb, filler, NA, 999, 999, 8, 11, 81, 171, 117, 129, 90, 132, 2, 0.282142
396, 1, wb, attraction, a-b-da, 14, 2, 8, 12, 153, 83, 90, 165, 165, 90, 2, 0.700701
396, 1, wb, attraction, a-b-da, 14, 2, 8, 12, 153, 83, 90, 165, 165, 90, 1, 0.295795
396, 1, wb, attraction, a-b-db, 9, 2, 8, 13, 90, 165, 86, 157, 165, 90, 2, 0.657696
396, 1, wb, attraction, a-b-db, 9, 2, 8, 13, 90, 165, 86, 157, 165, 90, 1, 0.286078
396, 1, wb, attraction, a-b-da, 5, 3, 8, 14, 195, 120, 190, 117, 120, 195, 2, 0.520572
396, 1, wb, attraction, a-b-da, 5, 3, 8, 14, 195, 120, 190, 117, 120, 195, 1, 0.290365
396, 1, wb, attraction, a-b-da, 9, 1, 8, 15, 129, 57, 135, 60, 60, 135, 2, 0.9322
396, 1, wb, attraction, a-b-da, 9, 1, 8, 15, 129, 57, 135, 60, 60, 135, 1, 0.341896
396, 1, wb, attraction, a-b-db, 14, 3, 8, 16, 195, 120, 120, 195, 111, 181, 2, 0.525742
396, 1, wb, attraction, a-b-db, 14, 3, 8, 16, 195, 120, 120, 195, 111, 181, 1, 0.295635
396, 1, wb, filler, NA, 999, 999, 8, 17, 89, 144, 78, 185, 183, 183, 2, 0.377412
396, 1, wb, filler, NA, 999, 999, 8, 17, 89, 144, 78, 185, 183, 183, 1, 0.353339
396, 1, wb, attraction, a-b-da, 9, 2, 8, 18, 90, 165, 165, 90, 157, 86, 2, 0.601106
396, 1, wb, attraction, a-b-da, 9, 2, 8, 18, 90, 165, 165, 90, 157, 86, 3, 0.304277
396, 1, wb, attraction, a-b-db, 2, 3, 8, 19, 119, 193, 120, 195, 195, 120, 2, 0.690085
396, 1, wb, attraction, a-b-db, 2, 3, 8, 19, 119, 193, 120, 195, 195, 120, 3, 0.32517
396, 1, wb, attraction, a-b-da, 9, 3, 8, 20, 186, 114, 195, 120, 120, 195, 2, 0.501661
396, 1, wb, attraction, a-b-da, 9, 3, 8, 20, 186, 114, 195, 120, 120, 195, 3, 0.352968
396, 1, wb, attraction, a-b-da, 2, 2, 8, 21, 163, 89, 90, 165, 165, 90, 2, 0.504621
396, 1, wb, attraction, a-b-da, 2, 2, 8, 21, 163, 89, 90, 165, 165, 90, 3, 0.451208
396, 1, wb, filler, NA, 999, 999, 8, 22, 189, 189, 58, 119, 117, 151, 2, 0.630975
396, 1, wb, filler, NA, 999, 999, 8, 22, 189, 189, 58, 119, 117, 151, 1, 0.260771
396, 1, wb, attraction, a-b-db, 9, 3, 8, 23, 120, 195, 195, 120, 114, 186, 2, 0.607884
396, 1, wb, attraction, a-b-db, 9, 3, 8, 23, 120, 195, 195, 120, 114, 186, 1, 0.286348
396, 1, wb, attraction, a-b-db, 5, 3, 8, 24, 120, 195, 195, 120, 117, 190, 2, 1.23282
396, 1, wb, attraction, a-b-db, 5, 3, 8, 24, 120, 195, 195, 120, 117, 190, 3, 0.302411
396, 1, wb, filler, NA, 999, 999, 8, 25, 80, 74, 145, 102, 62, 189, 1, 0.776351
396, 1, wb, filler, NA, 999, 999, 8, 25, 80, 74, 145, 102, 62, 189, 2, 0.232072
396, 1, wb, attraction, a-b-db, 5, 2, 8, 26, 90, 165, 165, 90, 88, 161, 1, 0.740561
396, 1, wb, attraction, a-b-db, 5, 2, 8, 26, 90, 165, 165, 90, 88, 161, 2, 0.229654
396, 1, wb, attraction, a-b-db, 2, 1, 8, 27, 135, 60, 59, 134, 60, 135, 1, 0.586031
396, 1, wb, attraction, a-b-db, 2, 1, 8, 27, 135, 60, 59, 134, 60, 135, 2, 0.233906
396, 1, wb, attraction, a-b-db, 14, 2, 8, 28, 83, 153, 90, 165, 165, 90, 1, 0.782459
396, 1, wb, attraction, a-b-db, 14, 2, 8, 28, 83, 153, 90, 165, 165, 90, 2, 0.262269
396, 1, wb, attraction, a-b-da, 14, 3, 8, 29, 181, 111, 120, 195, 195, 120, 1, 0.577484
396, 1, wb, attraction, a-b-da, 14, 3, 8, 29, 181, 111, 120, 195, 195, 120, 2, 0.249314
396, 1, wb, attraction, a-b-da, 2, 3, 8, 30, 195, 120, 193, 119, 120, 195, 2, 0.63722
396, 1, wb, attraction, a-b-da, 2, 3, 8, 30, 195, 120, 193, 119, 120, 195, 1, 0.594917
396, 1, wb, attraction, a-b-db, 2, 2, 8, 31, 89, 163, 165, 90, 90, 165, 2, 0.512725
396, 1, wb, attraction, a-b-db, 2, 2, 8, 31, 89, 163, 165, 90, 90, 165, 1, 0.25113
396, 1, wb, attraction, a-b-db, 14, 1, 8, 32, 60, 135, 56, 125, 135, 60, 2, 0.494984
396, 1, wb, attraction, a-b-db, 14, 1, 8, 32, 60, 135, 56, 125, 135, 60, 1, 0.57811
396, 1, wb, filler, NA, 999, 999, 8, 33, 100, 174, 71, 145, 87, 176, 2, 0.936509
396, 1, wb, filler, NA, 999, 999, 8, 33, 100, 174, 71, 145, 87, 176, 1, 0.306132
396, 1, wb, attraction, a-b-db, 5, 1, 8, 34, 60, 135, 58, 132, 135, 60, 2, 1.32421
396, 1, wb, attraction, a-b-db, 5, 1, 8, 34, 60, 135, 58, 132, 135, 60, 3, 0.357775
396, 1, wb, attraction, a-b-da, 14, 1, 8, 35, 125, 56, 60, 135, 135, 60, 2, 0.70876
396, 1, wb, attraction, a-b-da, 14, 1, 8, 35, 125, 56, 60, 135, 135, 60, 1, 0.343121
396, 1, wb, filler, NA, 999, 999, 8, 36, 127, 111, 70, 130, 135, 128, 2, 0.583048
396, 1, wb, filler, NA, 999, 999, 8, 36, 127, 111, 70, 130, 135, 128, 3, 0.326806
396, 1, wb, attraction, a-b-db, 9, 1, 8, 37, 57, 129, 60, 135, 135, 60, 2, 0.567283
396, 1, wb, attraction, a-b-db, 9, 1, 8, 37, 57, 129, 60, 135, 135, 60, 3, 0.655753
