sub_n, computer_n, bw_cond, effect, set, distance, diag, block_n, trial_n, h1, w1, h2, w2, h3, w3, choice, rt 
370, 1, wb, practice, NA, 999, 999, 0, 1, 185, 171, 105, 137, 84, 144, 3, 7.43036
370, 1, wb, practice, NA, 999, 999, 0, 1, 185, 171, 105, 137, 84, 144, 1, 3.22817
370, 1, wb, practice, NA, 999, 999, 0, 2, 194, 142, 63, 60, 148, 70, 2, 2.8914
370, 1, wb, practice, NA, 999, 999, 0, 2, 194, 142, 63, 60, 148, 70, 1, 1.65276
370, 1, wb, practice, NA, 999, 999, 0, 3, 126, 166, 90, 106, 77, 110, 3, 7.10088
370, 1, wb, practice, NA, 999, 999, 0, 3, 126, 166, 90, 106, 77, 110, 1, 1.24733
370, 1, wb, filler, NA, 999, 999, 1, 1, 138, 62, 174, 172, 156, 134, 1, 2.09446
370, 1, wb, filler, NA, 999, 999, 1, 1, 138, 62, 174, 172, 156, 134, 2, 1.75308
370, 1, wb, filler, NA, 999, 999, 1, 2, 138, 136, 73, 92, 134, 175, 2, 2.16845
370, 1, wb, filler, NA, 999, 999, 1, 2, 138, 136, 73, 92, 134, 175, 3, 1.57644
370, 1, wb, attraction, a-b-db, 2, 1, 1, 3, 59, 134, 135, 60, 60, 135, 2, 9.43048
370, 1, wb, attraction, a-b-db, 2, 1, 1, 3, 59, 134, 135, 60, 60, 135, 3, 1.49764
370, 1, wb, attraction, a-b-db, 5, 1, 1, 4, 135, 60, 58, 132, 60, 135, 3, 10.4831
370, 1, wb, attraction, a-b-db, 5, 1, 1, 4, 135, 60, 58, 132, 60, 135, 1, 2.16384
370, 1, wb, attraction, a-b-db, 5, 3, 1, 5, 195, 120, 117, 190, 120, 195, 2, 4.20234
370, 1, wb, attraction, a-b-db, 5, 3, 1, 5, 195, 120, 117, 190, 120, 195, 1, 1.79238
370, 1, wb, filler, NA, 999, 999, 1, 6, 180, 165, 127, 70, 165, 80, 2, 1.87767
370, 1, wb, filler, NA, 999, 999, 1, 6, 180, 165, 127, 70, 165, 80, 1, 1.52107
370, 1, wb, attraction, a-b-da, 5, 1, 1, 7, 132, 58, 60, 135, 135, 60, 1, 8.56188
370, 1, wb, attraction, a-b-da, 5, 1, 1, 7, 132, 58, 60, 135, 135, 60, 3, 1.51184
370, 1, wb, attraction, a-b-da, 5, 3, 1, 8, 190, 117, 120, 195, 195, 120, 1, 5.12872
370, 1, wb, attraction, a-b-da, 5, 3, 1, 8, 190, 117, 120, 195, 195, 120, 2, 1.09707
370, 1, wb, attraction, a-b-da, 9, 2, 1, 9, 157, 86, 165, 90, 90, 165, 1, 4.53861
370, 1, wb, attraction, a-b-da, 9, 2, 1, 9, 157, 86, 165, 90, 90, 165, 3, 0.947115
370, 1, wb, attraction, a-b-db, 14, 2, 1, 10, 90, 165, 165, 90, 83, 153, 3, 8.30675
370, 1, wb, attraction, a-b-db, 14, 2, 1, 10, 90, 165, 165, 90, 83, 153, 1, 1.85157
370, 1, wb, attraction, a-b-db, 9, 3, 1, 11, 120, 195, 114, 186, 195, 120, 2, 6.10286
370, 1, wb, attraction, a-b-db, 9, 3, 1, 11, 120, 195, 114, 186, 195, 120, 3, 1.98437
370, 1, wb, catch, NA, 999, 999, 1, 12, 126, 69, 135, 120, 176, 139, 1, 1.54225
370, 1, wb, catch, NA, 999, 999, 1, 12, 126, 69, 135, 120, 176, 139, 3, 1.53515
370, 1, wb, filler, NA, 999, 999, 1, 13, 153, 113, 189, 175, 166, 89, 3, 2.20723
370, 1, wb, filler, NA, 999, 999, 1, 13, 153, 113, 189, 175, 166, 89, 2, 0.669208
370, 1, wb, attraction, a-b-da, 2, 3, 1, 14, 193, 119, 195, 120, 120, 195, 2, 15.1762
370, 1, wb, attraction, a-b-da, 2, 3, 1, 14, 193, 119, 195, 120, 120, 195, 1, 1.55551
370, 1, wb, attraction, a-b-da, 14, 3, 1, 15, 195, 120, 181, 111, 120, 195, 2, 2.27499
370, 1, wb, attraction, a-b-da, 14, 3, 1, 15, 195, 120, 181, 111, 120, 195, 3, 2.49438
370, 1, wb, catch, NA, 999, 999, 1, 16, 100, 155, 106, 89, 156, 159, 2, 1.7115
370, 1, wb, catch, NA, 999, 999, 1, 16, 100, 155, 106, 89, 156, 159, 3, 0.673581
370, 1, wb, filler, NA, 999, 999, 1, 17, 90, 75, 185, 62, 143, 177, 1, 1.61978
370, 1, wb, filler, NA, 999, 999, 1, 17, 90, 75, 185, 62, 143, 177, 3, 1.37006
370, 1, wb, attraction, a-b-db, 9, 1, 1, 18, 135, 60, 57, 129, 60, 135, 2, 2.6408
370, 1, wb, attraction, a-b-db, 9, 1, 1, 18, 135, 60, 57, 129, 60, 135, 1, 1.54134
370, 1, wb, attraction, a-b-db, 14, 1, 1, 19, 135, 60, 56, 125, 60, 135, 2, 3.74074
370, 1, wb, attraction, a-b-db, 14, 1, 1, 19, 135, 60, 56, 125, 60, 135, 1, 4.35694
370, 1, wb, attraction, a-b-db, 9, 2, 1, 20, 86, 157, 90, 165, 165, 90, 1, 9.05951
370, 1, wb, attraction, a-b-db, 9, 2, 1, 20, 86, 157, 90, 165, 165, 90, 2, 1.1975
370, 1, wb, attraction, a-b-da, 2, 2, 1, 21, 90, 165, 165, 90, 163, 89, 2, 11.0749
370, 1, wb, attraction, a-b-da, 2, 2, 1, 21, 90, 165, 165, 90, 163, 89, 3, 3.65941
370, 1, wb, attraction, a-b-da, 9, 1, 1, 22, 129, 57, 135, 60, 60, 135, 1, 6.8616
370, 1, wb, attraction, a-b-da, 9, 1, 1, 22, 129, 57, 135, 60, 60, 135, 3, 2.384
370, 1, wb, attraction, a-b-da, 2, 1, 1, 23, 134, 59, 60, 135, 135, 60, 1, 11.5259
370, 1, wb, attraction, a-b-da, 2, 1, 1, 23, 134, 59, 60, 135, 135, 60, 2, 1.04427
370, 1, wb, attraction, a-b-da, 14, 1, 1, 24, 125, 56, 135, 60, 60, 135, 1, 7.19181
370, 1, wb, attraction, a-b-da, 14, 1, 1, 24, 125, 56, 135, 60, 60, 135, 2, 2.34894
370, 1, wb, attraction, a-b-db, 2, 3, 1, 25, 120, 195, 119, 193, 195, 120, 1, 3.50806
370, 1, wb, attraction, a-b-db, 2, 3, 1, 25, 120, 195, 119, 193, 195, 120, 3, 2.54966
370, 1, wb, attraction, a-b-db, 5, 2, 1, 26, 88, 161, 90, 165, 165, 90, 1, 3.13295
370, 1, wb, attraction, a-b-db, 5, 2, 1, 26, 88, 161, 90, 165, 165, 90, 2, 2.58981
370, 1, wb, filler, NA, 999, 999, 1, 27, 128, 176, 185, 135, 155, 131, 3, 5.01164
370, 1, wb, filler, NA, 999, 999, 1, 27, 128, 176, 185, 135, 155, 131, 2, 1.53691
370, 1, wb, attraction, a-b-da, 5, 2, 1, 28, 165, 90, 161, 88, 90, 165, 2, 2.75284
370, 1, wb, attraction, a-b-da, 5, 2, 1, 28, 165, 90, 161, 88, 90, 165, 1, 1.02528
370, 1, wb, filler, NA, 999, 999, 1, 29, 62, 192, 117, 59, 147, 165, 2, 1.31761
370, 1, wb, filler, NA, 999, 999, 1, 29, 62, 192, 117, 59, 147, 165, 3, 1.34384
370, 1, wb, filler, NA, 999, 999, 1, 30, 138, 189, 176, 118, 68, 110, 3, 1.32735
370, 1, wb, filler, NA, 999, 999, 1, 30, 138, 189, 176, 118, 68, 110, 1, 0.808875
370, 1, wb, attraction, a-b-da, 9, 3, 1, 31, 195, 120, 120, 195, 186, 114, 3, 22.2939
370, 1, wb, attraction, a-b-da, 9, 3, 1, 31, 195, 120, 120, 195, 186, 114, 2, 0.802876
370, 1, wb, filler, NA, 999, 999, 1, 32, 119, 115, 178, 162, 121, 175, 1, 1.19272
370, 1, wb, filler, NA, 999, 999, 1, 32, 119, 115, 178, 162, 121, 175, 2, 1.75956
370, 1, wb, attraction, a-b-da, 14, 2, 1, 33, 153, 83, 90, 165, 165, 90, 1, 2.59026
370, 1, wb, attraction, a-b-da, 14, 2, 1, 33, 153, 83, 90, 165, 165, 90, 3, 4.79675
370, 1, wb, attraction, a-b-db, 14, 3, 1, 34, 120, 195, 111, 181, 195, 120, 2, 16.9133
370, 1, wb, attraction, a-b-db, 14, 3, 1, 34, 120, 195, 111, 181, 195, 120, 3, 1.62248
370, 1, wb, filler, NA, 999, 999, 1, 35, 146, 84, 96, 153, 152, 154, 1, 2.56332
370, 1, wb, filler, NA, 999, 999, 1, 35, 146, 84, 96, 153, 152, 154, 3, 0.851117
370, 1, wb, catch, NA, 999, 999, 1, 36, 113, 142, 146, 169, 104, 91, 3, 1.47879
370, 1, wb, catch, NA, 999, 999, 1, 36, 113, 142, 146, 169, 104, 91, 2, 0.834337
370, 1, wb, attraction, a-b-db, 2, 2, 1, 37, 165, 90, 90, 165, 89, 163, 3, 8.36669
370, 1, wb, attraction, a-b-db, 2, 2, 1, 37, 165, 90, 90, 165, 89, 163, 2, 2.12479
370, 1, wb, attraction, a-b-da, 2, 2, 2, 1, 163, 89, 165, 90, 90, 165, 2, 5.42862
370, 1, wb, attraction, a-b-da, 2, 2, 2, 1, 163, 89, 165, 90, 90, 165, 1, 3.04102
370, 1, wb, attraction, a-b-db, 2, 3, 2, 2, 119, 193, 120, 195, 195, 120, 1, 6.97985
370, 1, wb, attraction, a-b-db, 2, 3, 2, 2, 119, 193, 120, 195, 195, 120, 2, 0.633672
370, 1, wb, attraction, a-b-db, 5, 1, 2, 3, 60, 135, 58, 132, 135, 60, 2, 6.04605
370, 1, wb, attraction, a-b-db, 5, 1, 2, 3, 60, 135, 58, 132, 135, 60, 3, 1.0415
370, 1, wb, filler, NA, 999, 999, 2, 4, 152, 175, 142, 122, 80, 143, 3, 5.39708
370, 1, wb, filler, NA, 999, 999, 2, 4, 152, 175, 142, 122, 80, 143, 1, 0.914688
370, 1, wb, filler, NA, 999, 999, 2, 5, 174, 93, 179, 99, 131, 170, 1, 9.45972
370, 1, wb, filler, NA, 999, 999, 2, 5, 174, 93, 179, 99, 131, 170, 3, 1.01337
370, 1, wb, attraction, a-b-db, 9, 2, 2, 6, 86, 157, 90, 165, 165, 90, 1, 9.39451
370, 1, wb, attraction, a-b-db, 9, 2, 2, 6, 86, 157, 90, 165, 165, 90, 2, 1.45472
370, 1, wb, attraction, a-b-da, 14, 2, 2, 7, 153, 83, 165, 90, 90, 165, 1, 4.28238
370, 1, wb, attraction, a-b-da, 14, 2, 2, 7, 153, 83, 165, 90, 90, 165, 3, 0.956846
370, 1, wb, attraction, a-b-da, 14, 3, 2, 8, 181, 111, 120, 195, 195, 120, 1, 5.01182
370, 1, wb, attraction, a-b-da, 14, 3, 2, 8, 181, 111, 120, 195, 195, 120, 2, 0.905031
370, 1, wb, attraction, a-b-db, 2, 2, 2, 9, 89, 163, 90, 165, 165, 90, 1, 8.37863
370, 1, wb, attraction, a-b-db, 2, 2, 2, 9, 89, 163, 90, 165, 165, 90, 3, 2.64011
370, 1, wb, catch, NA, 999, 999, 2, 10, 186, 129, 79, 116, 102, 153, 2, 1.37971
370, 1, wb, catch, NA, 999, 999, 2, 10, 186, 129, 79, 116, 102, 153, 1, 1.16334
370, 1, wb, catch, NA, 999, 999, 2, 11, 118, 137, 115, 80, 121, 194, 2, 5.68225
370, 1, wb, catch, NA, 999, 999, 2, 11, 118, 137, 115, 80, 121, 194, 3, 3.77245
370, 1, wb, attraction, a-b-db, 14, 2, 2, 12, 90, 165, 83, 153, 165, 90, 2, 2.57051
370, 1, wb, attraction, a-b-db, 14, 2, 2, 12, 90, 165, 83, 153, 165, 90, 3, 3.21844
370, 1, wb, filler, NA, 999, 999, 2, 13, 168, 181, 140, 113, 175, 93, 2, 4.63058
370, 1, wb, filler, NA, 999, 999, 2, 13, 168, 181, 140, 113, 175, 93, 1, 1.62717
370, 1, wb, filler, NA, 999, 999, 2, 14, 144, 124, 190, 188, 164, 143, 1, 4.39118
370, 1, wb, filler, NA, 999, 999, 2, 14, 144, 124, 190, 188, 164, 143, 2, 0.869147
370, 1, wb, filler, NA, 999, 999, 2, 15, 103, 64, 118, 194, 105, 195, 1, 1.24017
370, 1, wb, filler, NA, 999, 999, 2, 15, 103, 64, 118, 194, 105, 195, 2, 0.941141
370, 1, wb, attraction, a-b-db, 5, 3, 2, 16, 117, 190, 120, 195, 195, 120, 1, 9.50862
370, 1, wb, attraction, a-b-db, 5, 3, 2, 16, 117, 190, 120, 195, 195, 120, 2, 1.32447
370, 1, wb, filler, NA, 999, 999, 2, 17, 145, 85, 191, 142, 99, 83, 3, 1.8366
370, 1, wb, filler, NA, 999, 999, 2, 17, 145, 85, 191, 142, 99, 83, 2, 0.834078
370, 1, wb, filler, NA, 999, 999, 2, 18, 135, 80, 96, 178, 85, 182, 1, 2.0303
370, 1, wb, filler, NA, 999, 999, 2, 18, 135, 80, 96, 178, 85, 182, 2, 1.09966
370, 1, wb, attraction, a-b-da, 2, 3, 2, 19, 120, 195, 193, 119, 195, 120, 2, 5.44519
370, 1, wb, attraction, a-b-da, 2, 3, 2, 19, 120, 195, 193, 119, 195, 120, 1, 0.70492
370, 1, wb, filler, NA, 999, 999, 2, 20, 123, 175, 122, 83, 75, 129, 2, 2.4026
370, 1, wb, filler, NA, 999, 999, 2, 20, 123, 175, 122, 83, 75, 129, 1, 0.617125
370, 1, wb, attraction, a-b-da, 5, 2, 2, 21, 161, 88, 90, 165, 165, 90, 1, 1.79026
370, 1, wb, attraction, a-b-da, 5, 2, 2, 21, 161, 88, 90, 165, 165, 90, 2, 3.81303
370, 1, wb, attraction, a-b-da, 14, 1, 2, 22, 60, 135, 135, 60, 125, 56, 2, 4.85706
370, 1, wb, attraction, a-b-da, 14, 1, 2, 22, 60, 135, 135, 60, 125, 56, 1, 1.48419
370, 1, wb, attraction, a-b-db, 5, 2, 2, 23, 90, 165, 88, 161, 165, 90, 1, 3.26231
370, 1, wb, attraction, a-b-db, 5, 2, 2, 23, 90, 165, 88, 161, 165, 90, 2, 1.2259
370, 1, wb, attraction, a-b-da, 5, 1, 2, 24, 135, 60, 60, 135, 132, 58, 1, 3.59017
370, 1, wb, attraction, a-b-da, 5, 1, 2, 24, 135, 60, 60, 135, 132, 58, 2, 1.50039
370, 1, wb, filler, NA, 999, 999, 2, 25, 100, 124, 169, 127, 136, 120, 1, 1.30983
370, 1, wb, filler, NA, 999, 999, 2, 25, 100, 124, 169, 127, 136, 120, 2, 0.832056
370, 1, wb, attraction, a-b-db, 9, 3, 2, 26, 120, 195, 114, 186, 195, 120, 2, 2.82047
370, 1, wb, attraction, a-b-db, 9, 3, 2, 26, 120, 195, 114, 186, 195, 120, 1, 1.80209
370, 1, wb, attraction, a-b-da, 9, 2, 2, 27, 157, 86, 165, 90, 90, 165, 1, 2.67951
370, 1, wb, attraction, a-b-da, 9, 2, 2, 27, 157, 86, 165, 90, 90, 165, 2, 0.69863
370, 1, wb, attraction, a-b-db, 14, 3, 2, 28, 195, 120, 120, 195, 111, 181, 3, 2.35647
370, 1, wb, attraction, a-b-db, 14, 3, 2, 28, 195, 120, 120, 195, 111, 181, 2, 1.0203
370, 1, wb, attraction, a-b-da, 2, 1, 2, 29, 135, 60, 60, 135, 134, 59, 2, 4.98527
370, 1, wb, attraction, a-b-da, 2, 1, 2, 29, 135, 60, 60, 135, 134, 59, 1, 0.687715
370, 1, wb, attraction, a-b-da, 9, 3, 2, 30, 195, 120, 120, 195, 186, 114, 3, 3.33809
370, 1, wb, attraction, a-b-da, 9, 3, 2, 30, 195, 120, 120, 195, 186, 114, 2, 1.16296
370, 1, wb, attraction, a-b-da, 9, 1, 2, 31, 60, 135, 135, 60, 129, 57, 1, 2.72191
370, 1, wb, attraction, a-b-da, 9, 1, 2, 31, 60, 135, 135, 60, 129, 57, 2, 0.507047
370, 1, wb, attraction, a-b-db, 9, 1, 2, 32, 135, 60, 57, 129, 60, 135, 2, 3.90006
370, 1, wb, attraction, a-b-db, 9, 1, 2, 32, 135, 60, 57, 129, 60, 135, 1, 0.454185
370, 1, wb, catch, NA, 999, 999, 2, 33, 110, 85, 121, 134, 169, 146, 1, 1.40205
370, 1, wb, catch, NA, 999, 999, 2, 33, 110, 85, 121, 134, 169, 146, 3, 0.736952
370, 1, wb, attraction, a-b-da, 5, 3, 2, 34, 190, 117, 195, 120, 120, 195, 2, 7.0813
370, 1, wb, attraction, a-b-da, 5, 3, 2, 34, 190, 117, 195, 120, 120, 195, 1, 0.44301
370, 1, wb, attraction, a-b-db, 14, 1, 2, 35, 60, 135, 135, 60, 56, 125, 2, 1.13491
370, 1, wb, attraction, a-b-db, 14, 1, 2, 35, 60, 135, 135, 60, 56, 125, 1, 0.728577
370, 1, wb, attraction, a-b-db, 2, 1, 2, 36, 60, 135, 135, 60, 59, 134, 2, 1.85684
370, 1, wb, attraction, a-b-db, 2, 1, 2, 36, 60, 135, 135, 60, 59, 134, 1, 0.684859
370, 1, wb, filler, NA, 999, 999, 2, 37, 66, 160, 82, 94, 73, 141, 2, 1.13532
370, 1, wb, filler, NA, 999, 999, 2, 37, 66, 160, 82, 94, 73, 141, 3, 0.833042
370, 1, wb, filler, NA, 999, 999, 3, 1, 182, 70, 63, 157, 97, 182, 2, 2.22127
370, 1, wb, filler, NA, 999, 999, 3, 1, 182, 70, 63, 157, 97, 182, 3, 0.451165
370, 1, wb, filler, NA, 999, 999, 3, 2, 94, 178, 77, 62, 129, 143, 2, 1.21497
370, 1, wb, filler, NA, 999, 999, 3, 2, 94, 178, 77, 62, 129, 143, 3, 0.8054
370, 1, wb, attraction, a-b-da, 14, 3, 3, 3, 195, 120, 181, 111, 120, 195, 2, 2.19492
370, 1, wb, attraction, a-b-da, 14, 3, 3, 3, 195, 120, 181, 111, 120, 195, 1, 0.47366
370, 1, wb, filler, NA, 999, 999, 3, 4, 161, 109, 163, 67, 130, 194, 2, 1.96401
370, 1, wb, filler, NA, 999, 999, 3, 4, 161, 109, 163, 67, 130, 194, 3, 0.668084
370, 1, wb, catch, NA, 999, 999, 3, 5, 157, 98, 89, 106, 128, 187, 2, 1.69516
370, 1, wb, catch, NA, 999, 999, 3, 5, 157, 98, 89, 106, 128, 187, 3, 0.449898
370, 1, wb, attraction, a-b-da, 5, 1, 3, 6, 60, 135, 135, 60, 132, 58, 2, 2.08575
370, 1, wb, attraction, a-b-da, 5, 1, 3, 6, 60, 135, 135, 60, 132, 58, 3, 0.489028
370, 1, wb, attraction, a-b-da, 14, 2, 3, 7, 90, 165, 165, 90, 153, 83, 3, 1.29149
370, 1, wb, attraction, a-b-da, 14, 2, 3, 7, 90, 165, 165, 90, 153, 83, 2, 0.694384
370, 1, wb, attraction, a-b-da, 5, 2, 3, 8, 161, 88, 165, 90, 90, 165, 2, 2.6961
370, 1, wb, attraction, a-b-da, 5, 2, 3, 8, 161, 88, 165, 90, 90, 165, 3, 0.690581
370, 1, wb, attraction, a-b-da, 14, 1, 3, 9, 60, 135, 125, 56, 135, 60, 1, 3.12426
370, 1, wb, attraction, a-b-da, 14, 1, 3, 9, 60, 135, 125, 56, 135, 60, 3, 0.62141
370, 1, wb, attraction, a-b-da, 9, 2, 3, 10, 165, 90, 90, 165, 157, 86, 1, 4.73845
370, 1, wb, attraction, a-b-da, 9, 2, 3, 10, 165, 90, 90, 165, 157, 86, 2, 0.410981
370, 1, wb, attraction, a-b-da, 9, 3, 3, 11, 195, 120, 120, 195, 186, 114, 1, 1.97593
370, 1, wb, attraction, a-b-da, 9, 3, 3, 11, 195, 120, 120, 195, 186, 114, 2, 0.359304
370, 1, wb, attraction, a-b-db, 9, 1, 3, 12, 60, 135, 57, 129, 135, 60, 2, 1.97454
370, 1, wb, attraction, a-b-db, 9, 1, 3, 12, 60, 135, 57, 129, 135, 60, 3, 0.429901
370, 1, wb, catch, NA, 999, 999, 3, 13, 163, 152, 66, 129, 152, 103, 2, 1.49839
370, 1, wb, catch, NA, 999, 999, 3, 13, 163, 152, 66, 129, 152, 103, 1, 0.381289
370, 1, wb, attraction, a-b-db, 2, 3, 3, 14, 119, 193, 120, 195, 195, 120, 3, 4.69172
370, 1, wb, attraction, a-b-db, 2, 3, 3, 14, 119, 193, 120, 195, 195, 120, 2, 0.365527
370, 1, wb, attraction, a-b-db, 9, 2, 3, 15, 165, 90, 86, 157, 90, 165, 1, 3.95666
370, 1, wb, attraction, a-b-db, 9, 2, 3, 15, 165, 90, 86, 157, 90, 165, 2, 0.996132
370, 1, wb, attraction, a-b-da, 9, 1, 3, 16, 60, 135, 135, 60, 129, 57, 3, 2.68965
370, 1, wb, attraction, a-b-da, 9, 1, 3, 16, 60, 135, 135, 60, 129, 57, 2, 0.420295
370, 1, wb, attraction, a-b-db, 14, 2, 3, 17, 165, 90, 90, 165, 83, 153, 3, 1.82543
370, 1, wb, attraction, a-b-db, 14, 2, 3, 17, 165, 90, 90, 165, 83, 153, 2, 1.12687
370, 1, wb, attraction, a-b-da, 2, 1, 3, 18, 134, 59, 60, 135, 135, 60, 2, 2.22302
370, 1, wb, attraction, a-b-da, 2, 1, 3, 18, 134, 59, 60, 135, 135, 60, 3, 0.580353
370, 1, wb, attraction, a-b-db, 2, 2, 3, 19, 89, 163, 165, 90, 90, 165, 2, 4.34671
370, 1, wb, attraction, a-b-db, 2, 2, 3, 19, 89, 163, 165, 90, 90, 165, 1, 0.31462
370, 1, wb, attraction, a-b-db, 14, 1, 3, 20, 135, 60, 60, 135, 56, 125, 3, 1.99587
370, 1, wb, attraction, a-b-db, 14, 1, 3, 20, 135, 60, 60, 135, 56, 125, 2, 1.01046
370, 1, wb, filler, NA, 999, 999, 3, 21, 159, 123, 95, 75, 130, 92, 2, 1.02353
370, 1, wb, filler, NA, 999, 999, 3, 21, 159, 123, 95, 75, 130, 92, 1, 0.50106
370, 1, wb, attraction, a-b-db, 14, 3, 3, 22, 195, 120, 120, 195, 111, 181, 1, 2.71087
370, 1, wb, attraction, a-b-db, 14, 3, 3, 22, 195, 120, 120, 195, 111, 181, 2, 0.44063
370, 1, wb, attraction, a-b-db, 5, 1, 3, 23, 135, 60, 60, 135, 58, 132, 3, 2.36448
370, 1, wb, attraction, a-b-db, 5, 1, 3, 23, 135, 60, 60, 135, 58, 132, 2, 0.388347
370, 1, wb, attraction, a-b-db, 5, 2, 3, 24, 165, 90, 90, 165, 88, 161, 3, 2.99491
370, 1, wb, attraction, a-b-db, 5, 2, 3, 24, 165, 90, 90, 165, 88, 161, 2, 0.321206
370, 1, wb, filler, NA, 999, 999, 3, 25, 170, 107, 125, 84, 67, 134, 3, 1.33047
370, 1, wb, filler, NA, 999, 999, 3, 25, 170, 107, 125, 84, 67, 134, 1, 0.396099
370, 1, wb, filler, NA, 999, 999, 3, 26, 116, 105, 85, 195, 188, 168, 1, 3.43385
370, 1, wb, filler, NA, 999, 999, 3, 26, 116, 105, 85, 195, 188, 168, 3, 0.782887
370, 1, wb, catch, NA, 999, 999, 3, 27, 166, 149, 124, 131, 85, 110, 3, 1.13312
370, 1, wb, catch, NA, 999, 999, 3, 27, 166, 149, 124, 131, 85, 110, 1, 0.350564
370, 1, wb, attraction, a-b-da, 2, 2, 3, 28, 165, 90, 90, 165, 163, 89, 3, 3.39851
370, 1, wb, attraction, a-b-da, 2, 2, 3, 28, 165, 90, 90, 165, 163, 89, 2, 0.35689
370, 1, wb, attraction, a-b-db, 9, 3, 3, 29, 114, 186, 120, 195, 195, 120, 3, 2.16429
370, 1, wb, attraction, a-b-db, 9, 3, 3, 29, 114, 186, 120, 195, 195, 120, 2, 0.299812
370, 1, wb, filler, NA, 999, 999, 3, 30, 82, 169, 161, 106, 65, 95, 3, 0.645713
370, 1, wb, filler, NA, 999, 999, 3, 30, 82, 169, 161, 106, 65, 95, 2, 0.346893
370, 1, wb, filler, NA, 999, 999, 3, 31, 131, 81, 180, 88, 68, 147, 1, 2.58668
370, 1, wb, filler, NA, 999, 999, 3, 31, 131, 81, 180, 88, 68, 147, 2, 0.489859
370, 1, wb, attraction, a-b-da, 5, 3, 3, 32, 195, 120, 120, 195, 190, 117, 3, 1.75635
370, 1, wb, attraction, a-b-da, 5, 3, 3, 32, 195, 120, 120, 195, 190, 117, 2, 0.388309
370, 1, wb, filler, NA, 999, 999, 3, 33, 123, 137, 117, 68, 190, 79, 2, 0.754874
370, 1, wb, filler, NA, 999, 999, 3, 33, 123, 137, 117, 68, 190, 79, 1, 0.891346
370, 1, wb, attraction, a-b-db, 5, 3, 3, 34, 195, 120, 117, 190, 120, 195, 3, 2.90899
370, 1, wb, attraction, a-b-db, 5, 3, 3, 34, 195, 120, 117, 190, 120, 195, 2, 0.622801
370, 1, wb, attraction, a-b-db, 2, 1, 3, 35, 59, 134, 135, 60, 60, 135, 1, 1.61177
370, 1, wb, attraction, a-b-db, 2, 1, 3, 35, 59, 134, 135, 60, 60, 135, 3, 0.537866
370, 1, wb, filler, NA, 999, 999, 3, 36, 58, 180, 81, 89, 142, 128, 2, 0.818317
370, 1, wb, filler, NA, 999, 999, 3, 36, 58, 180, 81, 89, 142, 128, 3, 0.424633
370, 1, wb, attraction, a-b-da, 2, 3, 3, 37, 195, 120, 120, 195, 193, 119, 3, 3.10923
370, 1, wb, attraction, a-b-da, 2, 3, 3, 37, 195, 120, 120, 195, 193, 119, 2, 0.318774
370, 1, wb, attraction, a-b-da, 5, 2, 4, 1, 165, 90, 161, 88, 90, 165, 2, 2.3362
370, 1, wb, attraction, a-b-da, 5, 2, 4, 1, 165, 90, 161, 88, 90, 165, 1, 0.977345
370, 1, wb, filler, NA, 999, 999, 4, 2, 156, 88, 174, 165, 57, 113, 3, 0.767608
370, 1, wb, filler, NA, 999, 999, 4, 2, 156, 88, 174, 165, 57, 113, 2, 0.424058
370, 1, wb, attraction, a-b-da, 9, 1, 4, 3, 129, 57, 60, 135, 135, 60, 1, 4.6924
370, 1, wb, attraction, a-b-da, 9, 1, 4, 3, 129, 57, 60, 135, 135, 60, 2, 0.382203
370, 1, wb, attraction, a-b-db, 9, 3, 4, 4, 114, 186, 195, 120, 120, 195, 1, 1.91679
370, 1, wb, attraction, a-b-db, 9, 3, 4, 4, 114, 186, 195, 120, 120, 195, 3, 0.974854
370, 1, wb, attraction, a-b-db, 9, 2, 4, 5, 86, 157, 90, 165, 165, 90, 1, 2.11709
370, 1, wb, attraction, a-b-db, 9, 2, 4, 5, 86, 157, 90, 165, 165, 90, 2, 0.599243
370, 1, wb, attraction, a-b-da, 14, 1, 4, 6, 135, 60, 125, 56, 60, 135, 2, 2.15687
370, 1, wb, attraction, a-b-da, 14, 1, 4, 6, 135, 60, 125, 56, 60, 135, 1, 0.460822
370, 1, wb, attraction, a-b-db, 14, 2, 4, 7, 165, 90, 83, 153, 90, 165, 2, 2.016
370, 1, wb, attraction, a-b-db, 14, 2, 4, 7, 165, 90, 83, 153, 90, 165, 1, 0.405984
370, 1, wb, attraction, a-b-da, 2, 1, 4, 8, 60, 135, 134, 59, 135, 60, 2, 3.16385
370, 1, wb, attraction, a-b-da, 2, 1, 4, 8, 60, 135, 134, 59, 135, 60, 3, 0.659565
370, 1, wb, attraction, a-b-da, 5, 1, 4, 9, 132, 58, 135, 60, 60, 135, 3, 3.30248
370, 1, wb, attraction, a-b-da, 5, 1, 4, 9, 132, 58, 135, 60, 60, 135, 2, 0.680863
370, 1, wb, attraction, a-b-da, 2, 3, 4, 10, 193, 119, 195, 120, 120, 195, 1, 1.51518
370, 1, wb, attraction, a-b-da, 2, 3, 4, 10, 193, 119, 195, 120, 120, 195, 2, 0.373302
370, 1, wb, attraction, a-b-da, 14, 2, 4, 11, 153, 83, 90, 165, 165, 90, 1, 1.81196
370, 1, wb, attraction, a-b-da, 14, 2, 4, 11, 153, 83, 90, 165, 165, 90, 2, 0.321949
370, 1, wb, attraction, a-b-db, 2, 1, 4, 12, 60, 135, 135, 60, 59, 134, 1, 2.05912
370, 1, wb, attraction, a-b-db, 2, 1, 4, 12, 60, 135, 135, 60, 59, 134, 2, 0.271025
370, 1, wb, attraction, a-b-da, 5, 3, 4, 13, 190, 117, 195, 120, 120, 195, 1, 3.98628
370, 1, wb, attraction, a-b-da, 5, 3, 4, 13, 190, 117, 195, 120, 120, 195, 2, 0.305048
370, 1, wb, filler, NA, 999, 999, 4, 14, 191, 161, 123, 74, 164, 164, 2, 1.1949
370, 1, wb, filler, NA, 999, 999, 4, 14, 191, 161, 123, 74, 164, 164, 1, 0.30586
370, 1, wb, filler, NA, 999, 999, 4, 15, 134, 106, 116, 142, 156, 88, 3, 5.21966
370, 1, wb, filler, NA, 999, 999, 4, 15, 134, 106, 116, 142, 156, 88, 2, 0.432679
370, 1, wb, filler, NA, 999, 999, 4, 16, 128, 133, 190, 87, 165, 96, 2, 9.60518
370, 1, wb, filler, NA, 999, 999, 4, 16, 128, 133, 190, 87, 165, 96, 1, 0.337583
370, 1, wb, attraction, a-b-db, 2, 2, 4, 17, 89, 163, 165, 90, 90, 165, 2, 2.12193
370, 1, wb, attraction, a-b-db, 2, 2, 4, 17, 89, 163, 165, 90, 90, 165, 3, 0.275203
370, 1, wb, attraction, a-b-db, 2, 3, 4, 18, 120, 195, 119, 193, 195, 120, 1, 2.35768
370, 1, wb, attraction, a-b-db, 2, 3, 4, 18, 120, 195, 119, 193, 195, 120, 3, 0.497649
370, 1, wb, attraction, a-b-da, 9, 2, 4, 19, 165, 90, 90, 165, 157, 86, 3, 2.78345
370, 1, wb, attraction, a-b-da, 9, 2, 4, 19, 165, 90, 90, 165, 157, 86, 1, 1.21453
370, 1, wb, attraction, a-b-da, 2, 2, 4, 20, 163, 89, 90, 165, 165, 90, 3, 6.93151
370, 1, wb, attraction, a-b-da, 2, 2, 4, 20, 163, 89, 90, 165, 165, 90, 2, 0.291254
370, 1, wb, attraction, a-b-db, 14, 1, 4, 21, 60, 135, 135, 60, 56, 125, 3, 1.62923
370, 1, wb, attraction, a-b-db, 14, 1, 4, 21, 60, 135, 135, 60, 56, 125, 1, 0.530578
370, 1, wb, catch, NA, 999, 999, 4, 22, 158, 157, 120, 75, 121, 134, 2, 1.29104
370, 1, wb, catch, NA, 999, 999, 4, 22, 158, 157, 120, 75, 121, 134, 1, 0.237881
370, 1, wb, filler, NA, 999, 999, 4, 23, 79, 122, 112, 128, 147, 121, 1, 1.27437
370, 1, wb, filler, NA, 999, 999, 4, 23, 79, 122, 112, 128, 147, 121, 3, 0.965967
370, 1, wb, filler, NA, 999, 999, 4, 24, 149, 87, 144, 180, 75, 108, 3, 1.14099
370, 1, wb, filler, NA, 999, 999, 4, 24, 149, 87, 144, 180, 75, 108, 2, 0.42192
370, 1, wb, filler, NA, 999, 999, 4, 25, 94, 115, 82, 68, 77, 136, 2, 0.650991
370, 1, wb, filler, NA, 999, 999, 4, 25, 94, 115, 82, 68, 77, 136, 1, 0.888187
370, 1, wb, attraction, a-b-da, 14, 3, 4, 26, 195, 120, 120, 195, 181, 111, 3, 4.79444
370, 1, wb, attraction, a-b-da, 14, 3, 4, 26, 195, 120, 120, 195, 181, 111, 2, 1.01637
370, 1, wb, filler, NA, 999, 999, 4, 27, 194, 116, 162, 126, 184, 85, 3, 1.15735
370, 1, wb, filler, NA, 999, 999, 4, 27, 194, 116, 162, 126, 184, 85, 1, 0.973512
370, 1, wb, filler, NA, 999, 999, 4, 28, 70, 167, 177, 121, 101, 103, 3, 1.39589
370, 1, wb, filler, NA, 999, 999, 4, 28, 70, 167, 177, 121, 101, 103, 2, 0.378725
370, 1, wb, catch, NA, 999, 999, 4, 29, 165, 90, 144, 171, 75, 120, 3, 0.833231
370, 1, wb, catch, NA, 999, 999, 4, 29, 165, 90, 144, 171, 75, 120, 2, 0.302929
370, 1, wb, attraction, a-b-db, 14, 3, 4, 30, 111, 181, 120, 195, 195, 120, 1, 2.83282
370, 1, wb, attraction, a-b-db, 14, 3, 4, 30, 111, 181, 120, 195, 195, 120, 2, 0.501861
370, 1, wb, filler, NA, 999, 999, 4, 31, 131, 120, 179, 97, 190, 179, 1, 1.86359
370, 1, wb, filler, NA, 999, 999, 4, 31, 131, 120, 179, 97, 190, 179, 3, 0.363639
370, 1, wb, attraction, a-b-db, 5, 2, 4, 32, 165, 90, 90, 165, 88, 161, 3, 3.03479
370, 1, wb, attraction, a-b-db, 5, 2, 4, 32, 165, 90, 90, 165, 88, 161, 2, 0.407993
370, 1, wb, attraction, a-b-db, 5, 1, 4, 33, 60, 135, 58, 132, 135, 60, 2, 2.20506
370, 1, wb, attraction, a-b-db, 5, 1, 4, 33, 60, 135, 58, 132, 135, 60, 3, 0.498981
370, 1, wb, attraction, a-b-db, 5, 3, 4, 34, 120, 195, 117, 190, 195, 120, 1, 3.82871
370, 1, wb, attraction, a-b-db, 5, 3, 4, 34, 120, 195, 117, 190, 195, 120, 2, 0.273506
370, 1, wb, attraction, a-b-db, 9, 1, 4, 35, 60, 135, 135, 60, 57, 129, 2, 1.82813
370, 1, wb, attraction, a-b-db, 9, 1, 4, 35, 60, 135, 135, 60, 57, 129, 3, 0.441532
370, 1, wb, catch, NA, 999, 999, 4, 36, 141, 174, 127, 68, 135, 120, 2, 0.709368
370, 1, wb, catch, NA, 999, 999, 4, 36, 141, 174, 127, 68, 135, 120, 1, 0.367691
370, 1, wb, attraction, a-b-da, 9, 3, 4, 37, 186, 114, 120, 195, 195, 120, 1, 2.39088
370, 1, wb, attraction, a-b-da, 9, 3, 4, 37, 186, 114, 120, 195, 195, 120, 2, 0.349441
370, 1, wb, filler, NA, 999, 999, 5, 1, 116, 182, 113, 73, 151, 115, 2, 1.79592
370, 1, wb, filler, NA, 999, 999, 5, 1, 116, 182, 113, 73, 151, 115, 1, 0.394589
370, 1, wb, filler, NA, 999, 999, 5, 2, 143, 106, 70, 170, 67, 60, 3, 0.816426
370, 1, wb, filler, NA, 999, 999, 5, 2, 143, 106, 70, 170, 67, 60, 1, 0.742774
370, 1, wb, filler, NA, 999, 999, 5, 3, 165, 65, 151, 169, 179, 181, 1, 0.638503
370, 1, wb, filler, NA, 999, 999, 5, 3, 165, 65, 151, 169, 179, 181, 3, 0.571725
370, 1, wb, attraction, a-b-da, 5, 3, 5, 4, 195, 120, 120, 195, 190, 117, 3, 2.76272
370, 1, wb, attraction, a-b-da, 5, 3, 5, 4, 195, 120, 120, 195, 190, 117, 2, 0.33867
370, 1, wb, filler, NA, 999, 999, 5, 5, 194, 95, 117, 93, 118, 124, 2, 0.810971
370, 1, wb, filler, NA, 999, 999, 5, 5, 194, 95, 117, 93, 118, 124, 1, 0.481416
370, 1, wb, attraction, a-b-db, 2, 1, 5, 6, 59, 134, 60, 135, 135, 60, 1, 5.77643
370, 1, wb, attraction, a-b-db, 2, 1, 5, 6, 59, 134, 60, 135, 135, 60, 3, 0.538052
370, 1, wb, filler, NA, 999, 999, 5, 7, 160, 127, 188, 159, 156, 167, 1, 0.818479
370, 1, wb, filler, NA, 999, 999, 5, 7, 160, 127, 188, 159, 156, 167, 2, 0.3289
370, 1, wb, attraction, a-b-db, 14, 1, 5, 8, 56, 125, 60, 135, 135, 60, 1, 1.63337
370, 1, wb, attraction, a-b-db, 14, 1, 5, 8, 56, 125, 60, 135, 135, 60, 3, 0.48688
370, 1, wb, attraction, a-b-db, 9, 3, 5, 9, 120, 195, 114, 186, 195, 120, 1, 3.36923
370, 1, wb, attraction, a-b-db, 9, 3, 5, 9, 120, 195, 114, 186, 195, 120, 3, 0.920834
370, 1, wb, attraction, a-b-db, 14, 2, 5, 10, 165, 90, 90, 165, 83, 153, 3, 2.56988
370, 1, wb, attraction, a-b-db, 14, 2, 5, 10, 165, 90, 90, 165, 83, 153, 1, 0.47366
370, 1, wb, attraction, a-b-db, 9, 1, 5, 11, 57, 129, 60, 135, 135, 60, 3, 1.66824
370, 1, wb, attraction, a-b-db, 9, 1, 5, 11, 57, 129, 60, 135, 135, 60, 2, 0.368246
370, 1, wb, filler, NA, 999, 999, 5, 12, 63, 169, 143, 159, 125, 63, 3, 1.2394
370, 1, wb, filler, NA, 999, 999, 5, 12, 63, 169, 143, 159, 125, 63, 2, 0.364377
370, 1, wb, attraction, a-b-da, 2, 3, 5, 13, 120, 195, 195, 120, 193, 119, 3, 2.45949
370, 1, wb, attraction, a-b-da, 2, 3, 5, 13, 120, 195, 195, 120, 193, 119, 2, 0.519404
370, 1, wb, attraction, a-b-db, 5, 1, 5, 14, 60, 135, 135, 60, 58, 132, 2, 1.42465
370, 1, wb, attraction, a-b-db, 5, 1, 5, 14, 60, 135, 135, 60, 58, 132, 1, 0.382057
370, 1, wb, filler, NA, 999, 999, 5, 15, 139, 93, 74, 57, 195, 102, 2, 0.660431
370, 1, wb, filler, NA, 999, 999, 5, 15, 139, 93, 74, 57, 195, 102, 3, 0.352925
370, 1, wb, attraction, a-b-da, 14, 3, 5, 16, 120, 195, 181, 111, 195, 120, 2, 4.129
370, 1, wb, attraction, a-b-da, 14, 3, 5, 16, 120, 195, 181, 111, 195, 120, 3, 0.337477
370, 1, wb, catch, NA, 999, 999, 5, 17, 128, 127, 193, 122, 101, 94, 3, 0.889969
370, 1, wb, catch, NA, 999, 999, 5, 17, 128, 127, 193, 122, 101, 94, 2, 0.412983
370, 1, wb, attraction, a-b-da, 5, 1, 5, 18, 135, 60, 60, 135, 132, 58, 2, 1.29815
370, 1, wb, attraction, a-b-da, 5, 1, 5, 18, 135, 60, 60, 135, 132, 58, 1, 0.332988
370, 1, wb, attraction, a-b-db, 2, 2, 5, 19, 89, 163, 90, 165, 165, 90, 1, 2.42968
370, 1, wb, attraction, a-b-db, 2, 2, 5, 19, 89, 163, 90, 165, 165, 90, 2, 0.330658
370, 1, wb, filler, NA, 999, 999, 5, 20, 163, 76, 160, 157, 133, 78, 3, 0.883394
370, 1, wb, filler, NA, 999, 999, 5, 20, 163, 76, 160, 157, 133, 78, 2, 0.398918
370, 1, wb, catch, NA, 999, 999, 5, 21, 159, 96, 155, 160, 98, 97, 3, 0.660722
370, 1, wb, catch, NA, 999, 999, 5, 21, 159, 96, 155, 160, 98, 97, 2, 0.457165
370, 1, wb, catch, NA, 999, 999, 5, 22, 156, 159, 93, 162, 127, 68, 3, 0.764373
370, 1, wb, catch, NA, 999, 999, 5, 22, 156, 159, 93, 162, 127, 68, 1, 0.396751
370, 1, wb, attraction, a-b-da, 2, 2, 5, 23, 90, 165, 163, 89, 165, 90, 1, 7.02659
370, 1, wb, attraction, a-b-da, 2, 2, 5, 23, 90, 165, 163, 89, 165, 90, 3, 0.350367
370, 1, wb, attraction, a-b-db, 5, 3, 5, 24, 120, 195, 117, 190, 195, 120, 2, 3.37415
370, 1, wb, attraction, a-b-db, 5, 3, 5, 24, 120, 195, 117, 190, 195, 120, 1, 1.03716
370, 1, wb, attraction, a-b-da, 2, 1, 5, 25, 60, 135, 134, 59, 135, 60, 1, 1.43336
370, 1, wb, attraction, a-b-da, 2, 1, 5, 25, 60, 135, 134, 59, 135, 60, 3, 1.09491
370, 1, wb, attraction, a-b-da, 14, 2, 5, 26, 165, 90, 153, 83, 90, 165, 2, 2.11253
370, 1, wb, attraction, a-b-da, 14, 2, 5, 26, 165, 90, 153, 83, 90, 165, 1, 0.58649
370, 1, wb, attraction, a-b-db, 9, 2, 5, 27, 86, 157, 90, 165, 165, 90, 1, 1.92092
370, 1, wb, attraction, a-b-db, 9, 2, 5, 27, 86, 157, 90, 165, 165, 90, 2, 0.530995
370, 1, wb, attraction, a-b-db, 14, 3, 5, 28, 120, 195, 111, 181, 195, 120, 2, 2.61137
370, 1, wb, attraction, a-b-db, 14, 3, 5, 28, 120, 195, 111, 181, 195, 120, 3, 0.641171
370, 1, wb, attraction, a-b-db, 5, 2, 5, 29, 165, 90, 90, 165, 88, 161, 3, 2.75692
370, 1, wb, attraction, a-b-db, 5, 2, 5, 29, 165, 90, 90, 165, 88, 161, 2, 0.340681
370, 1, wb, attraction, a-b-db, 2, 3, 5, 30, 120, 195, 195, 120, 119, 193, 2, 2.64456
370, 1, wb, attraction, a-b-db, 2, 3, 5, 30, 120, 195, 195, 120, 119, 193, 1, 0.273027
370, 1, wb, attraction, a-b-da, 9, 3, 5, 31, 186, 114, 120, 195, 195, 120, 1, 5.00421
370, 1, wb, attraction, a-b-da, 9, 3, 5, 31, 186, 114, 120, 195, 195, 120, 2, 0.297961
370, 1, wb, attraction, a-b-da, 5, 2, 5, 32, 165, 90, 90, 165, 161, 88, 3, 1.99583
370, 1, wb, attraction, a-b-da, 5, 2, 5, 32, 165, 90, 90, 165, 161, 88, 2, 0.338582
370, 1, wb, filler, NA, 999, 999, 5, 33, 132, 144, 123, 149, 189, 66, 3, 1.14702
370, 1, wb, filler, NA, 999, 999, 5, 33, 132, 144, 123, 149, 189, 66, 2, 0.315975
370, 1, wb, attraction, a-b-da, 9, 1, 5, 34, 135, 60, 129, 57, 60, 135, 2, 1.81311
370, 1, wb, attraction, a-b-da, 9, 1, 5, 34, 135, 60, 129, 57, 60, 135, 3, 0.355213
370, 1, wb, filler, NA, 999, 999, 5, 35, 171, 184, 88, 56, 74, 192, 2, 0.531063
370, 1, wb, filler, NA, 999, 999, 5, 35, 171, 184, 88, 56, 74, 192, 1, 0.292841
370, 1, wb, attraction, a-b-da, 14, 1, 5, 36, 60, 135, 135, 60, 125, 56, 3, 1.27873
370, 1, wb, attraction, a-b-da, 14, 1, 5, 36, 60, 135, 135, 60, 125, 56, 2, 0.314341
370, 1, wb, attraction, a-b-da, 9, 2, 5, 37, 157, 86, 165, 90, 90, 165, 2, 4.75546
370, 1, wb, attraction, a-b-da, 9, 2, 5, 37, 157, 86, 165, 90, 90, 165, 1, 0.314532
370, 1, wb, attraction, a-b-db, 2, 1, 6, 1, 59, 134, 135, 60, 60, 135, 2, 1.59573
370, 1, wb, attraction, a-b-db, 2, 1, 6, 1, 59, 134, 135, 60, 60, 135, 3, 0.954517
370, 1, wb, attraction, a-b-da, 2, 1, 6, 2, 135, 60, 60, 135, 134, 59, 1, 2.77025
370, 1, wb, attraction, a-b-da, 2, 1, 6, 2, 135, 60, 60, 135, 134, 59, 2, 0.882153
370, 1, wb, filler, NA, 999, 999, 6, 3, 164, 88, 83, 193, 67, 100, 3, 0.708357
370, 1, wb, filler, NA, 999, 999, 6, 3, 164, 88, 83, 193, 67, 100, 2, 0.630756
370, 1, wb, attraction, a-b-da, 2, 3, 6, 4, 195, 120, 193, 119, 120, 195, 2, 3.41922
370, 1, wb, attraction, a-b-da, 2, 3, 6, 4, 195, 120, 193, 119, 120, 195, 3, 0.424743
370, 1, wb, attraction, a-b-db, 14, 1, 6, 5, 135, 60, 60, 135, 56, 125, 1, 1.96517
370, 1, wb, attraction, a-b-db, 14, 1, 6, 5, 135, 60, 60, 135, 56, 125, 2, 0.573268
370, 1, wb, attraction, a-b-da, 14, 1, 6, 6, 60, 135, 125, 56, 135, 60, 2, 1.73964
370, 1, wb, attraction, a-b-da, 14, 1, 6, 6, 60, 135, 125, 56, 135, 60, 1, 0.372365
370, 1, wb, attraction, a-b-da, 5, 3, 6, 7, 190, 117, 120, 195, 195, 120, 1, 1.81971
370, 1, wb, attraction, a-b-da, 5, 3, 6, 7, 190, 117, 120, 195, 195, 120, 2, 0.433602
370, 1, wb, filler, NA, 999, 999, 6, 8, 79, 177, 141, 112, 109, 125, 3, 3.90218
370, 1, wb, filler, NA, 999, 999, 6, 8, 79, 177, 141, 112, 109, 125, 2, 0.296318
370, 1, wb, catch, NA, 999, 999, 6, 9, 149, 166, 90, 165, 69, 126, 3, 2.08214
370, 1, wb, catch, NA, 999, 999, 6, 9, 149, 166, 90, 165, 69, 126, 1, 0.453415
370, 1, wb, attraction, a-b-db, 5, 3, 6, 10, 195, 120, 117, 190, 120, 195, 2, 2.81719
370, 1, wb, attraction, a-b-db, 5, 3, 6, 10, 195, 120, 117, 190, 120, 195, 3, 0.830911
370, 1, wb, catch, NA, 999, 999, 6, 11, 171, 144, 96, 99, 141, 114, 2, 1.27522
370, 1, wb, catch, NA, 999, 999, 6, 11, 171, 144, 96, 99, 141, 114, 1, 0.33505
370, 1, wb, filler, NA, 999, 999, 6, 12, 57, 128, 105, 144, 112, 60, 1, 1.03934
370, 1, wb, filler, NA, 999, 999, 6, 12, 57, 128, 105, 144, 112, 60, 2, 0.340337
370, 1, wb, filler, NA, 999, 999, 6, 13, 185, 65, 131, 186, 90, 80, 3, 0.996238
370, 1, wb, filler, NA, 999, 999, 6, 13, 185, 65, 131, 186, 90, 80, 2, 0.307338
370, 1, wb, filler, NA, 999, 999, 6, 14, 97, 56, 161, 124, 63, 131, 1, 0.580343
370, 1, wb, filler, NA, 999, 999, 6, 14, 97, 56, 161, 124, 63, 131, 2, 0.55626
370, 1, wb, attraction, a-b-db, 5, 2, 6, 15, 88, 161, 165, 90, 90, 165, 2, 2.95591
370, 1, wb, attraction, a-b-db, 5, 2, 6, 15, 88, 161, 165, 90, 90, 165, 3, 0.73168
370, 1, wb, filler, NA, 999, 999, 6, 16, 86, 69, 64, 171, 154, 69, 1, 0.660009
370, 1, wb, filler, NA, 999, 999, 6, 16, 86, 69, 64, 171, 154, 69, 2, 0.608444
370, 1, wb, attraction, a-b-da, 5, 1, 6, 17, 60, 135, 135, 60, 132, 58, 1, 2.61353
370, 1, wb, attraction, a-b-da, 5, 1, 6, 17, 60, 135, 135, 60, 132, 58, 2, 0.659339
370, 1, wb, filler, NA, 999, 999, 6, 18, 122, 80, 150, 94, 162, 181, 1, 0.598358
370, 1, wb, filler, NA, 999, 999, 6, 18, 122, 80, 150, 94, 162, 181, 3, 0.445596
370, 1, wb, attraction, a-b-da, 9, 2, 6, 19, 165, 90, 157, 86, 90, 165, 2, 3.20147
370, 1, wb, attraction, a-b-da, 9, 2, 6, 19, 165, 90, 157, 86, 90, 165, 3, 0.287659
370, 1, wb, attraction, a-b-da, 5, 2, 6, 20, 165, 90, 161, 88, 90, 165, 2, 2.96221
370, 1, wb, attraction, a-b-da, 5, 2, 6, 20, 165, 90, 161, 88, 90, 165, 1, 0.489852
370, 1, wb, attraction, a-b-da, 9, 3, 6, 21, 120, 195, 186, 114, 195, 120, 2, 4.12366
370, 1, wb, attraction, a-b-da, 9, 3, 6, 21, 120, 195, 186, 114, 195, 120, 3, 0.372313
370, 1, wb, attraction, a-b-da, 2, 2, 6, 22, 163, 89, 90, 165, 165, 90, 3, 4.38758
370, 1, wb, attraction, a-b-da, 2, 2, 6, 22, 163, 89, 90, 165, 165, 90, 2, 0.434227
370, 1, wb, attraction, a-b-db, 14, 3, 6, 23, 195, 120, 111, 181, 120, 195, 2, 5.70263
370, 1, wb, attraction, a-b-db, 14, 3, 6, 23, 195, 120, 111, 181, 120, 195, 1, 0.280065
370, 1, wb, filler, NA, 999, 999, 6, 24, 139, 129, 91, 141, 166, 110, 2, 1.6667
370, 1, wb, filler, NA, 999, 999, 6, 24, 139, 129, 91, 141, 166, 110, 1, 1.09472
370, 1, wb, attraction, a-b-db, 2, 3, 6, 25, 120, 195, 119, 193, 195, 120, 2, 4.00038
370, 1, wb, attraction, a-b-db, 2, 3, 6, 25, 120, 195, 119, 193, 195, 120, 1, 0.294357
370, 1, wb, attraction, a-b-da, 14, 3, 6, 26, 181, 111, 120, 195, 195, 120, 1, 4.7763
370, 1, wb, attraction, a-b-da, 14, 3, 6, 26, 181, 111, 120, 195, 195, 120, 2, 0.270802
370, 1, wb, attraction, a-b-db, 9, 2, 6, 27, 165, 90, 90, 165, 86, 157, 3, 3.61798
370, 1, wb, attraction, a-b-db, 9, 2, 6, 27, 165, 90, 90, 165, 86, 157, 1, 1.10348
370, 1, wb, filler, NA, 999, 999, 6, 28, 153, 99, 78, 105, 173, 161, 2, 0.905062
370, 1, wb, filler, NA, 999, 999, 6, 28, 153, 99, 78, 105, 173, 161, 3, 0.395381
370, 1, wb, filler, NA, 999, 999, 6, 29, 86, 134, 74, 74, 60, 188, 2, 2.27329
370, 1, wb, filler, NA, 999, 999, 6, 29, 86, 134, 74, 74, 60, 188, 1, 1.65253
370, 1, wb, attraction, a-b-da, 9, 1, 6, 30, 60, 135, 129, 57, 135, 60, 1, 2.74392
370, 1, wb, attraction, a-b-da, 9, 1, 6, 30, 60, 135, 129, 57, 135, 60, 3, 0.520309
370, 1, wb, attraction, a-b-db, 9, 3, 6, 31, 195, 120, 120, 195, 114, 186, 3, 1.89744
370, 1, wb, attraction, a-b-db, 9, 3, 6, 31, 195, 120, 120, 195, 114, 186, 1, 0.50009
370, 1, wb, attraction, a-b-db, 9, 1, 6, 32, 135, 60, 57, 129, 60, 135, 2, 2.82997
370, 1, wb, attraction, a-b-db, 9, 1, 6, 32, 135, 60, 57, 129, 60, 135, 1, 0.411013
370, 1, wb, attraction, a-b-da, 14, 2, 6, 33, 90, 165, 165, 90, 153, 83, 3, 3.83224
370, 1, wb, attraction, a-b-da, 14, 2, 6, 33, 90, 165, 165, 90, 153, 83, 2, 0.46903
370, 1, wb, catch, NA, 999, 999, 6, 34, 123, 132, 86, 109, 177, 138, 2, 0.976068
370, 1, wb, catch, NA, 999, 999, 6, 34, 123, 132, 86, 109, 177, 138, 3, 0.303829
370, 1, wb, attraction, a-b-db, 2, 2, 6, 35, 90, 165, 165, 90, 89, 163, 2, 2.19367
370, 1, wb, attraction, a-b-db, 2, 2, 6, 35, 90, 165, 165, 90, 89, 163, 1, 0.336206
370, 1, wb, attraction, a-b-db, 5, 1, 6, 36, 135, 60, 58, 132, 60, 135, 2, 3.44088
370, 1, wb, attraction, a-b-db, 5, 1, 6, 36, 135, 60, 58, 132, 60, 135, 1, 0.308962
370, 1, wb, attraction, a-b-db, 14, 2, 6, 37, 90, 165, 165, 90, 83, 153, 3, 1.93422
370, 1, wb, attraction, a-b-db, 14, 2, 6, 37, 90, 165, 165, 90, 83, 153, 2, 0.471515
370, 1, wb, attraction, a-b-db, 5, 3, 7, 1, 117, 190, 195, 120, 120, 195, 2, 4.23466
370, 1, wb, attraction, a-b-db, 5, 3, 7, 1, 117, 190, 195, 120, 120, 195, 3, 0.695323
370, 1, wb, filler, NA, 999, 999, 7, 2, 161, 69, 136, 87, 113, 184, 2, 2.75301
370, 1, wb, filler, NA, 999, 999, 7, 2, 161, 69, 136, 87, 113, 184, 3, 0.841573
370, 1, wb, attraction, a-b-db, 14, 3, 7, 3, 111, 181, 195, 120, 120, 195, 1, 1.95714
370, 1, wb, attraction, a-b-db, 14, 3, 7, 3, 111, 181, 195, 120, 120, 195, 3, 0.325245
370, 1, wb, filler, NA, 999, 999, 7, 4, 103, 74, 93, 80, 64, 117, 2, 5.95782
370, 1, wb, filler, NA, 999, 999, 7, 4, 103, 74, 93, 80, 64, 117, 1, 0.316448
370, 1, wb, attraction, a-b-da, 5, 2, 7, 5, 161, 88, 90, 165, 165, 90, 3, 2.64559
370, 1, wb, attraction, a-b-da, 5, 2, 7, 5, 161, 88, 90, 165, 165, 90, 2, 0.482061
370, 1, wb, attraction, a-b-db, 5, 2, 7, 6, 90, 165, 165, 90, 88, 161, 2, 5.07672
370, 1, wb, attraction, a-b-db, 5, 2, 7, 6, 90, 165, 165, 90, 88, 161, 1, 0.310912
370, 1, wb, filler, NA, 999, 999, 7, 7, 71, 128, 188, 158, 167, 174, 1, 0.776139
370, 1, wb, filler, NA, 999, 999, 7, 7, 71, 128, 188, 158, 167, 174, 2, 0.24794
370, 1, wb, attraction, a-b-da, 5, 1, 7, 8, 60, 135, 135, 60, 132, 58, 1, 3.8118
370, 1, wb, attraction, a-b-da, 5, 1, 7, 8, 60, 135, 135, 60, 132, 58, 3, 0.873206
370, 1, wb, catch, NA, 999, 999, 7, 9, 131, 64, 143, 172, 159, 96, 1, 0.764117
370, 1, wb, catch, NA, 999, 999, 7, 9, 131, 64, 143, 172, 159, 96, 2, 0.276555
370, 1, wb, attraction, a-b-db, 14, 2, 7, 10, 90, 165, 165, 90, 83, 153, 3, 5.95912
370, 1, wb, attraction, a-b-db, 14, 2, 7, 10, 90, 165, 165, 90, 83, 153, 1, 0.509925
370, 1, wb, attraction, a-b-db, 2, 2, 7, 11, 165, 90, 89, 163, 90, 165, 3, 10.1751
370, 1, wb, attraction, a-b-db, 2, 2, 7, 11, 165, 90, 89, 163, 90, 165, 1, 0.387895
370, 1, wb, attraction, a-b-db, 14, 1, 7, 12, 135, 60, 60, 135, 56, 125, 3, 1.21034
370, 1, wb, attraction, a-b-db, 14, 1, 7, 12, 135, 60, 60, 135, 56, 125, 1, 0.832553
370, 1, wb, attraction, a-b-db, 9, 1, 7, 13, 135, 60, 60, 135, 57, 129, 3, 1.36493
370, 1, wb, attraction, a-b-db, 9, 1, 7, 13, 135, 60, 60, 135, 57, 129, 1, 1.02118
370, 1, wb, attraction, a-b-da, 2, 2, 7, 14, 165, 90, 163, 89, 90, 165, 2, 5.82624
370, 1, wb, attraction, a-b-da, 2, 2, 7, 14, 165, 90, 163, 89, 90, 165, 1, 0.342134
370, 1, wb, attraction, a-b-da, 9, 2, 7, 15, 157, 86, 90, 165, 165, 90, 1, 1.77416
370, 1, wb, attraction, a-b-da, 9, 2, 7, 15, 157, 86, 90, 165, 165, 90, 3, 0.869567
370, 1, wb, attraction, a-b-da, 9, 1, 7, 16, 60, 135, 129, 57, 135, 60, 2, 1.82451
370, 1, wb, attraction, a-b-da, 9, 1, 7, 16, 60, 135, 129, 57, 135, 60, 3, 0.414046
370, 1, wb, catch, NA, 999, 999, 7, 17, 128, 67, 180, 135, 156, 99, 1, 0.810998
370, 1, wb, catch, NA, 999, 999, 7, 17, 128, 67, 180, 135, 156, 99, 2, 0.305466
370, 1, wb, filler, NA, 999, 999, 7, 18, 167, 147, 134, 99, 63, 190, 3, 1.5793
370, 1, wb, filler, NA, 999, 999, 7, 18, 167, 147, 134, 99, 63, 190, 1, 0.538747
370, 1, wb, attraction, a-b-da, 9, 3, 7, 19, 120, 195, 195, 120, 186, 114, 3, 3.3232
370, 1, wb, attraction, a-b-da, 9, 3, 7, 19, 120, 195, 195, 120, 186, 114, 2, 0.300114
370, 1, wb, filler, NA, 999, 999, 7, 20, 159, 79, 113, 134, 79, 144, 3, 4.66995
370, 1, wb, filler, NA, 999, 999, 7, 20, 159, 79, 113, 134, 79, 144, 2, 0.313234
370, 1, wb, attraction, a-b-da, 14, 2, 7, 21, 90, 165, 153, 83, 165, 90, 2, 2.94643
370, 1, wb, attraction, a-b-da, 14, 2, 7, 21, 90, 165, 153, 83, 165, 90, 3, 0.970711
370, 1, wb, filler, NA, 999, 999, 7, 22, 56, 179, 101, 144, 163, 57, 3, 11.4177
370, 1, wb, filler, NA, 999, 999, 7, 22, 56, 179, 101, 144, 163, 57, 1, 0.356684
370, 1, wb, attraction, a-b-db, 2, 1, 7, 23, 135, 60, 60, 135, 59, 134, 2, 8.72401
370, 1, wb, attraction, a-b-db, 2, 1, 7, 23, 135, 60, 60, 135, 59, 134, 1, 0.771101
370, 1, wb, filler, NA, 999, 999, 7, 24, 187, 191, 59, 131, 146, 137, 2, 0.714316
370, 1, wb, filler, NA, 999, 999, 7, 24, 187, 191, 59, 131, 146, 137, 1, 0.380601
370, 1, wb, attraction, a-b-da, 5, 3, 7, 25, 190, 117, 195, 120, 120, 195, 1, 3.14714
370, 1, wb, attraction, a-b-da, 5, 3, 7, 25, 190, 117, 195, 120, 120, 195, 3, 0.811468
370, 1, wb, attraction, a-b-db, 2, 3, 7, 26, 119, 193, 120, 195, 195, 120, 2, 6.35248
370, 1, wb, attraction, a-b-db, 2, 3, 7, 26, 119, 193, 120, 195, 195, 120, 3, 0.287752
370, 1, wb, attraction, a-b-da, 2, 3, 7, 27, 195, 120, 120, 195, 193, 119, 3, 5.35424
370, 1, wb, attraction, a-b-da, 2, 3, 7, 27, 195, 120, 120, 195, 193, 119, 2, 0.281842
370, 1, wb, filler, NA, 999, 999, 7, 28, 194, 195, 147, 188, 104, 62, 3, 0.956387
370, 1, wb, filler, NA, 999, 999, 7, 28, 194, 195, 147, 188, 104, 62, 1, 0.604792
370, 1, wb, catch, NA, 999, 999, 7, 29, 123, 132, 140, 175, 96, 99, 3, 1.45054
370, 1, wb, catch, NA, 999, 999, 7, 29, 123, 132, 140, 175, 96, 99, 2, 0.319369
370, 1, wb, filler, NA, 999, 999, 7, 30, 83, 92, 120, 190, 112, 69, 1, 1.1207
370, 1, wb, filler, NA, 999, 999, 7, 30, 83, 92, 120, 190, 112, 69, 2, 0.346939
370, 1, wb, attraction, a-b-da, 14, 1, 7, 31, 60, 135, 125, 56, 135, 60, 1, 10.8507
370, 1, wb, attraction, a-b-da, 14, 1, 7, 31, 60, 135, 125, 56, 135, 60, 3, 1.44474
370, 1, wb, attraction, a-b-db, 5, 1, 7, 32, 58, 132, 60, 135, 135, 60, 1, 1.55225
370, 1, wb, attraction, a-b-db, 5, 1, 7, 32, 58, 132, 60, 135, 135, 60, 3, 0.496945
370, 1, wb, attraction, a-b-da, 14, 3, 7, 33, 195, 120, 181, 111, 120, 195, 2, 1.94672
370, 1, wb, attraction, a-b-da, 14, 3, 7, 33, 195, 120, 181, 111, 120, 195, 1, 0.467415
370, 1, wb, attraction, a-b-da, 2, 1, 7, 34, 60, 135, 135, 60, 134, 59, 2, 1.71055
370, 1, wb, attraction, a-b-da, 2, 1, 7, 34, 60, 135, 135, 60, 134, 59, 3, 0.424736
370, 1, wb, attraction, a-b-db, 9, 2, 7, 35, 86, 157, 165, 90, 90, 165, 1, 1.81312
370, 1, wb, attraction, a-b-db, 9, 2, 7, 35, 86, 157, 165, 90, 90, 165, 2, 0.299163
370, 1, wb, filler, NA, 999, 999, 7, 36, 124, 146, 93, 128, 112, 191, 2, 1.09309
370, 1, wb, filler, NA, 999, 999, 7, 36, 124, 146, 93, 128, 112, 191, 1, 0.311985
370, 1, wb, attraction, a-b-db, 9, 3, 7, 37, 120, 195, 114, 186, 195, 120, 2, 2.70524
370, 1, wb, attraction, a-b-db, 9, 3, 7, 37, 120, 195, 114, 186, 195, 120, 3, 0.323598
370, 1, wb, attraction, a-b-da, 14, 1, 8, 1, 135, 60, 60, 135, 125, 56, 3, 2.41216
370, 1, wb, attraction, a-b-da, 14, 1, 8, 1, 135, 60, 60, 135, 125, 56, 2, 0.938124
370, 1, wb, filler, NA, 999, 999, 8, 2, 156, 63, 114, 60, 186, 88, 2, 0.890362
370, 1, wb, filler, NA, 999, 999, 8, 2, 156, 63, 114, 60, 186, 88, 3, 0.349415
370, 1, wb, catch, NA, 999, 999, 8, 3, 126, 129, 117, 78, 144, 171, 2, 1.72527
370, 1, wb, catch, NA, 999, 999, 8, 3, 126, 129, 117, 78, 144, 171, 3, 0.294605
370, 1, wb, attraction, a-b-da, 2, 3, 8, 4, 195, 120, 120, 195, 193, 119, 3, 3.36857
370, 1, wb, attraction, a-b-da, 2, 3, 8, 4, 195, 120, 120, 195, 193, 119, 1, 0.464094
370, 1, wb, attraction, a-b-da, 9, 2, 8, 5, 157, 86, 90, 165, 165, 90, 1, 3.18724
370, 1, wb, attraction, a-b-da, 9, 2, 8, 5, 157, 86, 90, 165, 165, 90, 3, 0.418202
370, 1, wb, filler, NA, 999, 999, 8, 6, 182, 166, 86, 106, 131, 180, 2, 0.655342
370, 1, wb, filler, NA, 999, 999, 8, 6, 182, 166, 86, 106, 131, 180, 1, 0.307734
370, 1, wb, attraction, a-b-db, 2, 2, 8, 7, 90, 165, 165, 90, 89, 163, 2, 3.18102
370, 1, wb, attraction, a-b-db, 2, 2, 8, 7, 90, 165, 165, 90, 89, 163, 1, 0.395962
370, 1, wb, filler, NA, 999, 999, 8, 8, 180, 78, 143, 71, 183, 173, 2, 0.785836
370, 1, wb, filler, NA, 999, 999, 8, 8, 180, 78, 143, 71, 183, 173, 3, 0.297478
370, 1, wb, catch, NA, 999, 999, 8, 9, 117, 138, 133, 182, 135, 60, 3, 0.979381
370, 1, wb, catch, NA, 999, 999, 8, 9, 117, 138, 133, 182, 135, 60, 2, 0.274914
370, 1, wb, filler, NA, 999, 999, 8, 10, 79, 110, 166, 162, 183, 58, 1, 0.749549
370, 1, wb, filler, NA, 999, 999, 8, 10, 79, 110, 166, 162, 183, 58, 2, 0.26256
370, 1, wb, attraction, a-b-db, 5, 1, 8, 11, 135, 60, 58, 132, 60, 135, 2, 2.87395
370, 1, wb, attraction, a-b-db, 5, 1, 8, 11, 135, 60, 58, 132, 60, 135, 1, 0.620836
370, 1, wb, attraction, a-b-db, 14, 2, 8, 12, 165, 90, 90, 165, 83, 153, 3, 1.87402
370, 1, wb, attraction, a-b-db, 14, 2, 8, 12, 165, 90, 90, 165, 83, 153, 1, 0.469309
370, 1, wb, attraction, a-b-da, 5, 2, 8, 13, 90, 165, 161, 88, 165, 90, 2, 4.98438
370, 1, wb, attraction, a-b-da, 5, 2, 8, 13, 90, 165, 161, 88, 165, 90, 3, 0.454803
370, 1, wb, attraction, a-b-db, 5, 2, 8, 14, 88, 161, 165, 90, 90, 165, 2, 2.19468
370, 1, wb, attraction, a-b-db, 5, 2, 8, 14, 88, 161, 165, 90, 90, 165, 3, 0.305245
370, 1, wb, attraction, a-b-da, 2, 2, 8, 15, 165, 90, 90, 165, 163, 89, 2, 2.97913
370, 1, wb, attraction, a-b-da, 2, 2, 8, 15, 165, 90, 90, 165, 163, 89, 3, 0.442148
370, 1, wb, attraction, a-b-da, 5, 1, 8, 16, 132, 58, 135, 60, 60, 135, 2, 3.02201
370, 1, wb, attraction, a-b-da, 5, 1, 8, 16, 132, 58, 135, 60, 60, 135, 3, 0.64306
370, 1, wb, attraction, a-b-da, 9, 3, 8, 17, 186, 114, 120, 195, 195, 120, 3, 2.99069
370, 1, wb, attraction, a-b-da, 9, 3, 8, 17, 186, 114, 120, 195, 195, 120, 2, 0.389081
370, 1, wb, attraction, a-b-da, 14, 3, 8, 18, 120, 195, 195, 120, 181, 111, 3, 2.34757
370, 1, wb, attraction, a-b-da, 14, 3, 8, 18, 120, 195, 195, 120, 181, 111, 2, 0.332108
370, 1, wb, filler, NA, 999, 999, 8, 19, 140, 156, 193, 194, 115, 85, 3, 0.772794
370, 1, wb, filler, NA, 999, 999, 8, 19, 140, 156, 193, 194, 115, 85, 2, 0.252429
370, 1, wb, attraction, a-b-db, 9, 1, 8, 20, 60, 135, 135, 60, 57, 129, 2, 1.80836
370, 1, wb, attraction, a-b-db, 9, 1, 8, 20, 60, 135, 135, 60, 57, 129, 3, 0.318344
370, 1, wb, attraction, a-b-db, 2, 3, 8, 21, 120, 195, 195, 120, 119, 193, 2, 1.88749
370, 1, wb, attraction, a-b-db, 2, 3, 8, 21, 120, 195, 195, 120, 119, 193, 3, 0.306858
370, 1, wb, attraction, a-b-db, 14, 1, 8, 22, 60, 135, 56, 125, 135, 60, 2, 3.32448
370, 1, wb, attraction, a-b-db, 14, 1, 8, 22, 60, 135, 56, 125, 135, 60, 3, 0.340971
370, 1, wb, filler, NA, 999, 999, 8, 23, 59, 136, 108, 124, 73, 141, 1, 1.01296
370, 1, wb, filler, NA, 999, 999, 8, 23, 59, 136, 108, 124, 73, 141, 2, 0.291079
370, 1, wb, filler, NA, 999, 999, 8, 24, 116, 103, 138, 67, 85, 56, 3, 0.997047
370, 1, wb, filler, NA, 999, 999, 8, 24, 116, 103, 138, 67, 85, 56, 1, 1.09999
370, 1, wb, attraction, a-b-db, 14, 3, 8, 25, 195, 120, 111, 181, 120, 195, 2, 1.44564
370, 1, wb, attraction, a-b-db, 14, 3, 8, 25, 195, 120, 111, 181, 120, 195, 1, 0.28246
370, 1, wb, attraction, a-b-db, 2, 1, 8, 26, 60, 135, 59, 134, 135, 60, 2, 4.17303
370, 1, wb, attraction, a-b-db, 2, 1, 8, 26, 60, 135, 59, 134, 135, 60, 3, 0.299734
370, 1, wb, attraction, a-b-db, 9, 2, 8, 27, 165, 90, 90, 165, 86, 157, 3, 4.51765
370, 1, wb, attraction, a-b-db, 9, 2, 8, 27, 165, 90, 90, 165, 86, 157, 1, 0.486705
370, 1, wb, attraction, a-b-db, 9, 3, 8, 28, 195, 120, 114, 186, 120, 195, 2, 2.94516
370, 1, wb, attraction, a-b-db, 9, 3, 8, 28, 195, 120, 114, 186, 120, 195, 1, 0.281526
370, 1, wb, attraction, a-b-da, 2, 1, 8, 29, 134, 59, 135, 60, 60, 135, 2, 5.5961
370, 1, wb, attraction, a-b-da, 2, 1, 8, 29, 134, 59, 135, 60, 60, 135, 3, 0.265605
370, 1, wb, filler, NA, 999, 999, 8, 30, 63, 118, 161, 117, 73, 146, 1, 0.868808
370, 1, wb, filler, NA, 999, 999, 8, 30, 63, 118, 161, 117, 73, 146, 2, 0.257163
370, 1, wb, attraction, a-b-da, 9, 1, 8, 31, 60, 135, 129, 57, 135, 60, 2, 4.89246
370, 1, wb, attraction, a-b-da, 9, 1, 8, 31, 60, 135, 129, 57, 135, 60, 3, 0.262325
370, 1, wb, filler, NA, 999, 999, 8, 32, 141, 175, 58, 182, 113, 132, 2, 2.4894
370, 1, wb, filler, NA, 999, 999, 8, 32, 141, 175, 58, 182, 113, 132, 1, 0.619908
370, 1, wb, attraction, a-b-da, 14, 2, 8, 33, 90, 165, 153, 83, 165, 90, 2, 1.78504
370, 1, wb, attraction, a-b-da, 14, 2, 8, 33, 90, 165, 153, 83, 165, 90, 1, 0.34437
370, 1, wb, attraction, a-b-da, 5, 3, 8, 34, 190, 117, 120, 195, 195, 120, 3, 2.63231
370, 1, wb, attraction, a-b-da, 5, 3, 8, 34, 190, 117, 120, 195, 195, 120, 2, 0.829416
370, 1, wb, catch, NA, 999, 999, 8, 35, 78, 117, 124, 191, 93, 162, 1, 0.905767
370, 1, wb, catch, NA, 999, 999, 8, 35, 78, 117, 124, 191, 93, 162, 2, 0.260075
370, 1, wb, attraction, a-b-db, 5, 3, 8, 36, 117, 190, 120, 195, 195, 120, 2, 5.58331
370, 1, wb, attraction, a-b-db, 5, 3, 8, 36, 117, 190, 120, 195, 195, 120, 1, 3.2455
370, 1, wb, filler, NA, 999, 999, 8, 37, 128, 183, 146, 93, 162, 73, 3, 3.37649
370, 1, wb, filler, NA, 999, 999, 8, 37, 128, 183, 146, 93, 162, 73, 1, 0.295396
