sub_n, computer_n, bw_cond, effect, set, distance, diag, block_n, trial_n, h1, w1, h2, w2, h3, w3, choice, rt 
343, 1, bw, practice, NA, 999, 999, 0, 1, 95, 119, 70, 71, 126, 85, 3, 3.49311
343, 1, bw, practice, NA, 999, 999, 0, 1, 95, 119, 70, 71, 126, 85, 2, 2.90265
343, 1, bw, practice, NA, 999, 999, 0, 2, 90, 103, 146, 104, 145, 61, 2, 1.74389
343, 1, bw, practice, NA, 999, 999, 0, 2, 90, 103, 146, 104, 145, 61, 1, 1.67103
343, 1, bw, practice, NA, 999, 999, 0, 3, 82, 185, 130, 127, 70, 125, 1, 2.76796
343, 1, bw, practice, NA, 999, 999, 0, 3, 82, 185, 130, 127, 70, 125, 3, 1.64926
343, 1, bw, attraction, a-b-db, 5, 2, 1, 1, 88, 161, 165, 90, 90, 165, 3, 1.86326
343, 1, bw, attraction, a-b-db, 5, 2, 1, 1, 88, 161, 165, 90, 90, 165, 2, 1.10744
343, 1, bw, attraction, a-b-db, 9, 3, 1, 2, 120, 195, 195, 120, 114, 186, 1, 1.89226
343, 1, bw, attraction, a-b-db, 9, 3, 1, 2, 120, 195, 195, 120, 114, 186, 2, 1.17519
343, 1, bw, filler, NA, 999, 999, 1, 3, 124, 76, 154, 143, 142, 82, 2, 1.80517
343, 1, bw, filler, NA, 999, 999, 1, 3, 124, 76, 154, 143, 142, 82, 1, 1.04321
343, 1, bw, filler, NA, 999, 999, 1, 4, 88, 82, 94, 78, 95, 130, 3, 1.06288
343, 1, bw, filler, NA, 999, 999, 1, 4, 88, 82, 94, 78, 95, 130, 1, 1.15524
343, 1, bw, attraction, a-b-db, 2, 3, 1, 5, 119, 193, 120, 195, 195, 120, 2, 1.74669
343, 1, bw, attraction, a-b-db, 2, 3, 1, 5, 119, 193, 120, 195, 195, 120, 3, 0.995716
343, 1, bw, filler, NA, 999, 999, 1, 6, 160, 67, 61, 65, 191, 188, 3, 0.937088
343, 1, bw, filler, NA, 999, 999, 1, 6, 160, 67, 61, 65, 191, 188, 2, 0.706791
343, 1, bw, attraction, a-b-db, 9, 1, 1, 7, 57, 129, 135, 60, 60, 135, 2, 1.25984
343, 1, bw, attraction, a-b-db, 9, 1, 1, 7, 57, 129, 135, 60, 60, 135, 1, 1.10415
343, 1, bw, filler, NA, 999, 999, 1, 8, 137, 142, 92, 160, 70, 136, 1, 1.12168
343, 1, bw, filler, NA, 999, 999, 1, 8, 137, 142, 92, 160, 70, 136, 3, 0.667305
343, 1, bw, filler, NA, 999, 999, 1, 9, 56, 120, 127, 80, 147, 170, 3, 1.00649
343, 1, bw, filler, NA, 999, 999, 1, 9, 56, 120, 127, 80, 147, 170, 1, 0.740683
343, 1, bw, attraction, a-b-db, 9, 2, 1, 10, 90, 165, 86, 157, 165, 90, 2, 4.42846
343, 1, bw, attraction, a-b-db, 9, 2, 1, 10, 90, 165, 86, 157, 165, 90, 3, 1.073
343, 1, bw, attraction, a-b-db, 2, 2, 1, 11, 89, 163, 165, 90, 90, 165, 2, 1.41202
343, 1, bw, attraction, a-b-db, 2, 2, 1, 11, 89, 163, 165, 90, 90, 165, 1, 0.650113
343, 1, bw, attraction, a-b-da, 14, 3, 1, 12, 195, 120, 181, 111, 120, 195, 3, 1.10991
343, 1, bw, attraction, a-b-da, 14, 3, 1, 12, 195, 120, 181, 111, 120, 195, 2, 0.432301
343, 1, bw, attraction, a-b-da, 2, 2, 1, 13, 163, 89, 90, 165, 165, 90, 2, 1.23677
343, 1, bw, attraction, a-b-da, 2, 2, 1, 13, 163, 89, 90, 165, 165, 90, 1, 1.02622
343, 1, bw, catch, NA, 999, 999, 1, 14, 152, 103, 189, 126, 80, 115, 2, 1.17458
343, 1, bw, catch, NA, 999, 999, 1, 14, 152, 103, 189, 126, 80, 115, 3, 0.894332
343, 1, bw, attraction, a-b-db, 14, 1, 1, 15, 56, 125, 60, 135, 135, 60, 2, 1.27175
343, 1, bw, attraction, a-b-db, 14, 1, 1, 15, 56, 125, 60, 135, 135, 60, 3, 0.83542
343, 1, bw, filler, NA, 999, 999, 1, 16, 162, 79, 136, 129, 148, 87, 2, 1.45581
343, 1, bw, filler, NA, 999, 999, 1, 16, 162, 79, 136, 129, 148, 87, 3, 3.276
343, 1, bw, attraction, a-b-da, 5, 1, 1, 17, 60, 135, 135, 60, 132, 58, 3, 1.58157
343, 1, bw, attraction, a-b-da, 5, 1, 1, 17, 60, 135, 135, 60, 132, 58, 2, 0.437178
343, 1, bw, attraction, a-b-db, 2, 1, 1, 18, 135, 60, 59, 134, 60, 135, 2, 1.08138
343, 1, bw, attraction, a-b-db, 2, 1, 1, 18, 135, 60, 59, 134, 60, 135, 1, 0.477041
343, 1, bw, attraction, a-b-da, 9, 3, 1, 19, 195, 120, 120, 195, 186, 114, 1, 0.855699
343, 1, bw, attraction, a-b-da, 9, 3, 1, 19, 195, 120, 120, 195, 186, 114, 3, 0.707894
343, 1, bw, attraction, a-b-da, 2, 3, 1, 20, 193, 119, 195, 120, 120, 195, 3, 0.885051
343, 1, bw, attraction, a-b-da, 2, 3, 1, 20, 193, 119, 195, 120, 120, 195, 1, 0.720617
343, 1, bw, catch, NA, 999, 999, 1, 21, 159, 96, 140, 175, 61, 134, 2, 0.641701
343, 1, bw, catch, NA, 999, 999, 1, 21, 159, 96, 140, 175, 61, 134, 3, 0.870905
343, 1, bw, attraction, a-b-da, 9, 1, 1, 22, 60, 135, 135, 60, 129, 57, 3, 1.24189
343, 1, bw, attraction, a-b-da, 9, 1, 1, 22, 60, 135, 135, 60, 129, 57, 1, 0.494846
343, 1, bw, attraction, a-b-db, 5, 1, 1, 23, 60, 135, 58, 132, 135, 60, 1, 1.8885
343, 1, bw, attraction, a-b-db, 5, 1, 1, 23, 60, 135, 58, 132, 135, 60, 2, 0.515242
343, 1, bw, attraction, a-b-db, 14, 3, 1, 24, 120, 195, 111, 181, 195, 120, 3, 1.13239
343, 1, bw, attraction, a-b-db, 14, 3, 1, 24, 120, 195, 111, 181, 195, 120, 2, 0.518005
343, 1, bw, attraction, a-b-db, 14, 2, 1, 25, 90, 165, 83, 153, 165, 90, 2, 1.08708
343, 1, bw, attraction, a-b-db, 14, 2, 1, 25, 90, 165, 83, 153, 165, 90, 1, 0.802789
343, 1, bw, attraction, a-b-da, 2, 1, 1, 26, 135, 60, 134, 59, 60, 135, 3, 2.38444
343, 1, bw, attraction, a-b-da, 2, 1, 1, 26, 135, 60, 134, 59, 60, 135, 1, 0.56759
343, 1, bw, attraction, a-b-da, 9, 2, 1, 27, 90, 165, 157, 86, 165, 90, 1, 1.3349
343, 1, bw, attraction, a-b-da, 9, 2, 1, 27, 90, 165, 157, 86, 165, 90, 2, 0.664234
343, 1, bw, filler, NA, 999, 999, 1, 28, 152, 74, 134, 195, 58, 68, 2, 1.42736
343, 1, bw, filler, NA, 999, 999, 1, 28, 152, 74, 134, 195, 58, 68, 3, 0.912982
343, 1, bw, attraction, a-b-da, 5, 2, 1, 29, 165, 90, 161, 88, 90, 165, 3, 1.37797
343, 1, bw, attraction, a-b-da, 5, 2, 1, 29, 165, 90, 161, 88, 90, 165, 2, 0.617464
343, 1, bw, attraction, a-b-db, 5, 3, 1, 30, 117, 190, 120, 195, 195, 120, 2, 1.12652
343, 1, bw, attraction, a-b-db, 5, 3, 1, 30, 117, 190, 120, 195, 195, 120, 3, 0.568174
343, 1, bw, attraction, a-b-da, 14, 2, 1, 31, 153, 83, 165, 90, 90, 165, 2, 1.31922
343, 1, bw, attraction, a-b-da, 14, 2, 1, 31, 153, 83, 165, 90, 90, 165, 1, 0.385471
343, 1, bw, filler, NA, 999, 999, 1, 32, 69, 174, 67, 118, 137, 101, 3, 1.11189
343, 1, bw, filler, NA, 999, 999, 1, 32, 69, 174, 67, 118, 137, 101, 2, 0.370218
343, 1, bw, catch, NA, 999, 999, 1, 33, 99, 156, 169, 146, 88, 107, 2, 1.04138
343, 1, bw, catch, NA, 999, 999, 1, 33, 99, 156, 169, 146, 88, 107, 3, 0.982308
343, 1, bw, attraction, a-b-da, 5, 3, 1, 34, 195, 120, 120, 195, 190, 117, 2, 1.37266
343, 1, bw, attraction, a-b-da, 5, 3, 1, 34, 195, 120, 120, 195, 190, 117, 3, 0.66829
343, 1, bw, filler, NA, 999, 999, 1, 35, 118, 178, 64, 117, 125, 83, 1, 0.719207
343, 1, bw, filler, NA, 999, 999, 1, 35, 118, 178, 64, 117, 125, 83, 2, 0.457669
343, 1, bw, attraction, a-b-da, 14, 1, 1, 36, 125, 56, 60, 135, 135, 60, 2, 0.90877
343, 1, bw, attraction, a-b-da, 14, 1, 1, 36, 125, 56, 60, 135, 135, 60, 1, 0.43925
343, 1, bw, filler, NA, 999, 999, 1, 37, 149, 166, 83, 193, 147, 69, 1, 0.867747
343, 1, bw, filler, NA, 999, 999, 1, 37, 149, 166, 83, 193, 147, 69, 3, 0.784003
343, 1, bw, attraction, a-b-da, 5, 2, 2, 1, 161, 88, 165, 90, 90, 165, 2, 1.18239
343, 1, bw, attraction, a-b-da, 5, 2, 2, 1, 161, 88, 165, 90, 90, 165, 1, 0.477946
343, 1, bw, filler, NA, 999, 999, 2, 2, 71, 168, 114, 138, 171, 62, 2, 0.592484
343, 1, bw, filler, NA, 999, 999, 2, 2, 71, 168, 114, 138, 171, 62, 3, 0.471571
343, 1, bw, attraction, a-b-db, 9, 2, 2, 3, 90, 165, 165, 90, 86, 157, 1, 0.610675
343, 1, bw, attraction, a-b-db, 9, 2, 2, 3, 90, 165, 165, 90, 86, 157, 2, 0.401165
343, 1, bw, catch, NA, 999, 999, 2, 4, 126, 129, 144, 171, 117, 78, 2, 0.671066
343, 1, bw, catch, NA, 999, 999, 2, 4, 126, 129, 144, 171, 117, 78, 3, 0.467431
343, 1, bw, attraction, a-b-da, 14, 1, 2, 5, 125, 56, 135, 60, 60, 135, 2, 1.36654
343, 1, bw, attraction, a-b-da, 14, 1, 2, 5, 125, 56, 135, 60, 60, 135, 1, 0.446882
343, 1, bw, attraction, a-b-db, 2, 3, 2, 6, 195, 120, 119, 193, 120, 195, 3, 1.47462
343, 1, bw, attraction, a-b-db, 2, 3, 2, 6, 195, 120, 119, 193, 120, 195, 1, 0.494068
343, 1, bw, attraction, a-b-da, 5, 3, 2, 7, 195, 120, 120, 195, 190, 117, 1, 1.47184
343, 1, bw, attraction, a-b-da, 5, 3, 2, 7, 195, 120, 120, 195, 190, 117, 2, 0.635435
343, 1, bw, attraction, a-b-db, 14, 2, 2, 8, 90, 165, 165, 90, 83, 153, 2, 1.23982
343, 1, bw, attraction, a-b-db, 14, 2, 2, 8, 90, 165, 165, 90, 83, 153, 3, 0.340705
343, 1, bw, attraction, a-b-da, 2, 3, 2, 9, 120, 195, 195, 120, 193, 119, 1, 0.532637
343, 1, bw, attraction, a-b-da, 2, 3, 2, 9, 120, 195, 195, 120, 193, 119, 3, 0.886312
343, 1, bw, attraction, a-b-db, 2, 2, 2, 10, 165, 90, 90, 165, 89, 163, 2, 1.20869
343, 1, bw, attraction, a-b-db, 2, 2, 2, 10, 165, 90, 90, 165, 89, 163, 1, 0.374939
343, 1, bw, filler, NA, 999, 999, 2, 11, 88, 192, 169, 118, 115, 127, 2, 0.997346
343, 1, bw, filler, NA, 999, 999, 2, 11, 88, 192, 169, 118, 115, 127, 3, 0.508521
343, 1, bw, attraction, a-b-da, 9, 1, 2, 12, 129, 57, 60, 135, 135, 60, 2, 1.53362
343, 1, bw, attraction, a-b-da, 9, 1, 2, 12, 129, 57, 60, 135, 135, 60, 1, 0.543033
343, 1, bw, attraction, a-b-db, 9, 1, 2, 13, 135, 60, 57, 129, 60, 135, 2, 4.31884
343, 1, bw, attraction, a-b-db, 9, 1, 2, 13, 135, 60, 57, 129, 60, 135, 1, 0.464103
343, 1, bw, filler, NA, 999, 999, 2, 14, 129, 132, 84, 109, 120, 90, 1, 1.25918
343, 1, bw, filler, NA, 999, 999, 2, 14, 129, 132, 84, 109, 120, 90, 2, 0.655514
343, 1, bw, filler, NA, 999, 999, 2, 15, 139, 86, 116, 72, 118, 82, 1, 1.89124
343, 1, bw, filler, NA, 999, 999, 2, 15, 139, 86, 116, 72, 118, 82, 2, 1.10999
343, 1, bw, attraction, a-b-db, 14, 1, 2, 16, 56, 125, 60, 135, 135, 60, 3, 1.17495
343, 1, bw, attraction, a-b-db, 14, 1, 2, 16, 56, 125, 60, 135, 135, 60, 1, 0.622418
343, 1, bw, attraction, a-b-da, 2, 2, 2, 17, 90, 165, 163, 89, 165, 90, 1, 1.29158
343, 1, bw, attraction, a-b-da, 2, 2, 2, 17, 90, 165, 163, 89, 165, 90, 3, 1.34248
343, 1, bw, attraction, a-b-da, 5, 1, 2, 18, 60, 135, 132, 58, 135, 60, 1, 1.88602
343, 1, bw, attraction, a-b-da, 5, 1, 2, 18, 60, 135, 132, 58, 135, 60, 2, 0.521357
343, 1, bw, filler, NA, 999, 999, 2, 19, 119, 59, 66, 107, 186, 84, 3, 0.882491
343, 1, bw, filler, NA, 999, 999, 2, 19, 119, 59, 66, 107, 186, 84, 2, 0.622314
343, 1, bw, attraction, a-b-da, 9, 2, 2, 20, 165, 90, 157, 86, 90, 165, 1, 0.691313
343, 1, bw, attraction, a-b-da, 9, 2, 2, 20, 165, 90, 157, 86, 90, 165, 3, 0.558324
343, 1, bw, attraction, a-b-db, 2, 1, 2, 21, 59, 134, 60, 135, 135, 60, 3, 0.749481
343, 1, bw, attraction, a-b-db, 2, 1, 2, 21, 59, 134, 60, 135, 135, 60, 2, 0.42252
343, 1, bw, attraction, a-b-db, 5, 1, 2, 22, 58, 132, 60, 135, 135, 60, 3, 1.26768
343, 1, bw, attraction, a-b-db, 5, 1, 2, 22, 58, 132, 60, 135, 135, 60, 2, 0.559894
343, 1, bw, catch, NA, 999, 999, 2, 23, 125, 130, 104, 91, 128, 187, 3, 0.89505
343, 1, bw, catch, NA, 999, 999, 2, 23, 125, 130, 104, 91, 128, 187, 2, 0.52998
343, 1, bw, attraction, a-b-db, 14, 3, 2, 24, 195, 120, 120, 195, 111, 181, 1, 0.690431
343, 1, bw, attraction, a-b-db, 14, 3, 2, 24, 195, 120, 120, 195, 111, 181, 3, 0.757654
343, 1, bw, filler, NA, 999, 999, 2, 25, 166, 70, 149, 134, 72, 114, 1, 2.42864
343, 1, bw, filler, NA, 999, 999, 2, 25, 166, 70, 149, 134, 72, 114, 3, 0.441818
343, 1, bw, attraction, a-b-da, 14, 2, 2, 26, 90, 165, 153, 83, 165, 90, 1, 0.901586
343, 1, bw, attraction, a-b-da, 14, 2, 2, 26, 90, 165, 153, 83, 165, 90, 3, 0.584674
343, 1, bw, filler, NA, 999, 999, 2, 27, 134, 69, 159, 59, 169, 68, 2, 0.839051
343, 1, bw, filler, NA, 999, 999, 2, 27, 134, 69, 159, 59, 169, 68, 1, 0.652015
343, 1, bw, attraction, a-b-da, 2, 1, 2, 28, 135, 60, 60, 135, 134, 59, 1, 1.97595
343, 1, bw, attraction, a-b-da, 2, 1, 2, 28, 135, 60, 60, 135, 134, 59, 2, 0.303157
343, 1, bw, attraction, a-b-db, 9, 3, 2, 29, 120, 195, 114, 186, 195, 120, 3, 0.785101
343, 1, bw, attraction, a-b-db, 9, 3, 2, 29, 120, 195, 114, 186, 195, 120, 1, 0.480777
343, 1, bw, attraction, a-b-db, 5, 3, 2, 30, 120, 195, 195, 120, 117, 190, 2, 1.14731
343, 1, bw, attraction, a-b-db, 5, 3, 2, 30, 120, 195, 195, 120, 117, 190, 3, 0.308218
343, 1, bw, attraction, a-b-da, 9, 3, 2, 31, 186, 114, 120, 195, 195, 120, 1, 0.50929
343, 1, bw, attraction, a-b-da, 9, 3, 2, 31, 186, 114, 120, 195, 195, 120, 3, 1.26395
343, 1, bw, attraction, a-b-db, 5, 2, 2, 32, 88, 161, 90, 165, 165, 90, 3, 2.57879
343, 1, bw, attraction, a-b-db, 5, 2, 2, 32, 88, 161, 90, 165, 165, 90, 1, 0.705834
343, 1, bw, catch, NA, 999, 999, 2, 33, 100, 95, 167, 148, 101, 154, 2, 1.0596
343, 1, bw, catch, NA, 999, 999, 2, 33, 100, 95, 167, 148, 101, 154, 1, 0.391904
343, 1, bw, attraction, a-b-da, 14, 3, 2, 34, 181, 111, 120, 195, 195, 120, 3, 1.60575
343, 1, bw, attraction, a-b-da, 14, 3, 2, 34, 181, 111, 120, 195, 195, 120, 1, 0.587794
343, 1, bw, filler, NA, 999, 999, 2, 35, 118, 167, 157, 146, 110, 172, 3, 1.52225
343, 1, bw, filler, NA, 999, 999, 2, 35, 118, 167, 157, 146, 110, 172, 1, 0.451889
343, 1, bw, filler, NA, 999, 999, 2, 36, 131, 159, 143, 142, 118, 121, 1, 1.23154
343, 1, bw, filler, NA, 999, 999, 2, 36, 131, 159, 143, 142, 118, 121, 3, 0.661161
343, 1, bw, filler, NA, 999, 999, 2, 37, 96, 130, 169, 95, 171, 144, 3, 0.744172
343, 1, bw, filler, NA, 999, 999, 2, 37, 96, 130, 169, 95, 171, 144, 1, 0.433338
343, 1, bw, attraction, a-b-da, 5, 3, 3, 1, 190, 117, 195, 120, 120, 195, 1, 1.90973
343, 1, bw, attraction, a-b-da, 5, 3, 3, 1, 190, 117, 195, 120, 120, 195, 3, 0.591763
343, 1, bw, attraction, a-b-db, 2, 2, 3, 2, 89, 163, 90, 165, 165, 90, 3, 2.26175
343, 1, bw, attraction, a-b-db, 2, 2, 3, 2, 89, 163, 90, 165, 165, 90, 1, 0.585448
343, 1, bw, attraction, a-b-da, 5, 1, 3, 3, 60, 135, 132, 58, 135, 60, 1, 1.64802
343, 1, bw, attraction, a-b-da, 5, 1, 3, 3, 60, 135, 132, 58, 135, 60, 2, 0.444774
343, 1, bw, attraction, a-b-db, 2, 3, 3, 4, 195, 120, 120, 195, 119, 193, 1, 1.10453
343, 1, bw, attraction, a-b-db, 2, 3, 3, 4, 195, 120, 120, 195, 119, 193, 2, 0.362821
343, 1, bw, attraction, a-b-da, 9, 1, 3, 5, 135, 60, 60, 135, 129, 57, 3, 4.95397
343, 1, bw, attraction, a-b-da, 9, 1, 3, 5, 135, 60, 60, 135, 129, 57, 1, 0.649744
343, 1, bw, attraction, a-b-da, 9, 3, 3, 6, 195, 120, 120, 195, 186, 114, 3, 1.32547
343, 1, bw, attraction, a-b-da, 9, 3, 3, 6, 195, 120, 120, 195, 186, 114, 2, 0.5112
343, 1, bw, filler, NA, 999, 999, 3, 7, 125, 191, 98, 194, 179, 195, 3, 0.85623
343, 1, bw, filler, NA, 999, 999, 3, 7, 125, 191, 98, 194, 179, 195, 2, 0.996523
343, 1, bw, attraction, a-b-da, 2, 1, 3, 8, 134, 59, 60, 135, 135, 60, 2, 1.85017
343, 1, bw, attraction, a-b-da, 2, 1, 3, 8, 134, 59, 60, 135, 135, 60, 1, 1.04691
343, 1, bw, attraction, a-b-db, 14, 2, 3, 9, 165, 90, 90, 165, 83, 153, 1, 1.81064
343, 1, bw, attraction, a-b-db, 14, 2, 3, 9, 165, 90, 90, 165, 83, 153, 3, 0.440589
343, 1, bw, filler, NA, 999, 999, 3, 10, 103, 63, 126, 145, 176, 156, 3, 1.12434
343, 1, bw, filler, NA, 999, 999, 3, 10, 103, 63, 126, 145, 176, 156, 1, 0.693956
343, 1, bw, attraction, a-b-db, 14, 3, 3, 11, 195, 120, 120, 195, 111, 181, 1, 1.61571
343, 1, bw, attraction, a-b-db, 14, 3, 3, 11, 195, 120, 120, 195, 111, 181, 3, 0.733819
343, 1, bw, filler, NA, 999, 999, 3, 12, 190, 107, 81, 66, 190, 163, 3, 6.03018
343, 1, bw, filler, NA, 999, 999, 3, 12, 190, 107, 81, 66, 190, 163, 2, 0.394239
343, 1, bw, catch, NA, 999, 999, 3, 13, 178, 137, 73, 122, 91, 164, 1, 0.816048
343, 1, bw, catch, NA, 999, 999, 3, 13, 178, 137, 73, 122, 91, 164, 2, 0.702492
343, 1, bw, attraction, a-b-db, 5, 1, 3, 14, 60, 135, 58, 132, 135, 60, 3, 1.4563
343, 1, bw, attraction, a-b-db, 5, 1, 3, 14, 60, 135, 58, 132, 135, 60, 2, 0.38842
343, 1, bw, attraction, a-b-db, 9, 2, 3, 15, 86, 157, 165, 90, 90, 165, 1, 1.0349
343, 1, bw, attraction, a-b-db, 9, 2, 3, 15, 86, 157, 165, 90, 90, 165, 2, 0.71251
343, 1, bw, filler, NA, 999, 999, 3, 16, 194, 153, 145, 169, 65, 106, 1, 0.681629
343, 1, bw, filler, NA, 999, 999, 3, 16, 194, 153, 145, 169, 65, 106, 3, 0.613449
343, 1, bw, attraction, a-b-db, 9, 3, 3, 17, 195, 120, 114, 186, 120, 195, 1, 0.994447
343, 1, bw, attraction, a-b-db, 9, 3, 3, 17, 195, 120, 114, 186, 120, 195, 2, 0.329413
343, 1, bw, catch, NA, 999, 999, 3, 18, 163, 92, 149, 166, 87, 108, 2, 1.27386
343, 1, bw, catch, NA, 999, 999, 3, 18, 163, 92, 149, 166, 87, 108, 3, 0.645675
343, 1, bw, attraction, a-b-da, 5, 2, 3, 19, 161, 88, 165, 90, 90, 165, 1, 0.785273
343, 1, bw, attraction, a-b-da, 5, 2, 3, 19, 161, 88, 165, 90, 90, 165, 3, 0.504928
343, 1, bw, attraction, a-b-da, 14, 2, 3, 20, 165, 90, 153, 83, 90, 165, 1, 0.482846
343, 1, bw, attraction, a-b-da, 14, 2, 3, 20, 165, 90, 153, 83, 90, 165, 3, 0.350705
343, 1, bw, catch, NA, 999, 999, 3, 21, 156, 159, 146, 109, 60, 135, 1, 0.622477
343, 1, bw, catch, NA, 999, 999, 3, 21, 156, 159, 146, 109, 60, 135, 3, 0.508315
343, 1, bw, attraction, a-b-db, 5, 3, 3, 22, 120, 195, 195, 120, 117, 190, 2, 1.14132
343, 1, bw, attraction, a-b-db, 5, 3, 3, 22, 120, 195, 195, 120, 117, 190, 3, 0.638295
343, 1, bw, filler, NA, 999, 999, 3, 23, 67, 98, 186, 87, 107, 190, 2, 0.642746
343, 1, bw, filler, NA, 999, 999, 3, 23, 67, 98, 186, 87, 107, 190, 1, 0.559833
343, 1, bw, filler, NA, 999, 999, 3, 24, 94, 101, 143, 154, 168, 113, 3, 0.742969
343, 1, bw, filler, NA, 999, 999, 3, 24, 94, 101, 143, 154, 168, 113, 1, 0.50405
343, 1, bw, attraction, a-b-db, 5, 2, 3, 25, 88, 161, 90, 165, 165, 90, 3, 0.713784
343, 1, bw, attraction, a-b-db, 5, 2, 3, 25, 88, 161, 90, 165, 165, 90, 1, 0.468151
343, 1, bw, attraction, a-b-da, 2, 3, 3, 26, 193, 119, 120, 195, 195, 120, 1, 1.30333
343, 1, bw, attraction, a-b-da, 2, 3, 3, 26, 193, 119, 120, 195, 195, 120, 3, 0.506321
343, 1, bw, attraction, a-b-da, 2, 2, 3, 27, 165, 90, 90, 165, 163, 89, 2, 1.28402
343, 1, bw, attraction, a-b-da, 2, 2, 3, 27, 165, 90, 90, 165, 163, 89, 3, 0.327627
343, 1, bw, filler, NA, 999, 999, 3, 28, 92, 121, 160, 88, 111, 83, 2, 0.896087
343, 1, bw, filler, NA, 999, 999, 3, 28, 92, 121, 160, 88, 111, 83, 3, 0.539094
343, 1, bw, filler, NA, 999, 999, 3, 29, 180, 131, 162, 90, 149, 171, 1, 0.755549
343, 1, bw, filler, NA, 999, 999, 3, 29, 180, 131, 162, 90, 149, 171, 2, 0.363913
343, 1, bw, attraction, a-b-db, 14, 1, 3, 30, 135, 60, 56, 125, 60, 135, 3, 1.38708
343, 1, bw, attraction, a-b-db, 14, 1, 3, 30, 135, 60, 56, 125, 60, 135, 1, 0.402617
343, 1, bw, attraction, a-b-da, 14, 1, 3, 31, 60, 135, 125, 56, 135, 60, 1, 2.0885
343, 1, bw, attraction, a-b-da, 14, 1, 3, 31, 60, 135, 125, 56, 135, 60, 2, 0.507918
343, 1, bw, attraction, a-b-da, 14, 3, 3, 32, 181, 111, 120, 195, 195, 120, 2, 1.10895
343, 1, bw, attraction, a-b-da, 14, 3, 3, 32, 181, 111, 120, 195, 195, 120, 1, 1.55926
343, 1, bw, attraction, a-b-da, 9, 2, 3, 33, 90, 165, 157, 86, 165, 90, 3, 1.57398
343, 1, bw, attraction, a-b-da, 9, 2, 3, 33, 90, 165, 157, 86, 165, 90, 1, 0.46139
343, 1, bw, filler, NA, 999, 999, 3, 34, 171, 84, 145, 165, 186, 143, 3, 0.744573
343, 1, bw, filler, NA, 999, 999, 3, 34, 171, 84, 145, 165, 186, 143, 1, 0.45769
343, 1, bw, filler, NA, 999, 999, 3, 35, 89, 77, 83, 146, 78, 169, 3, 2.14885
343, 1, bw, filler, NA, 999, 999, 3, 35, 89, 77, 83, 146, 78, 169, 1, 0.58144
343, 1, bw, attraction, a-b-db, 9, 1, 3, 36, 60, 135, 135, 60, 57, 129, 3, 1.43591
343, 1, bw, attraction, a-b-db, 9, 1, 3, 36, 60, 135, 135, 60, 57, 129, 1, 0.529399
343, 1, bw, attraction, a-b-db, 2, 1, 3, 37, 60, 135, 135, 60, 59, 134, 3, 0.561757
343, 1, bw, attraction, a-b-db, 2, 1, 3, 37, 60, 135, 135, 60, 59, 134, 2, 0.786294
343, 1, bw, attraction, a-b-da, 2, 2, 4, 1, 90, 165, 163, 89, 165, 90, 1, 0.600563
343, 1, bw, attraction, a-b-da, 2, 2, 4, 1, 90, 165, 163, 89, 165, 90, 3, 0.383774
343, 1, bw, catch, NA, 999, 999, 4, 2, 73, 122, 121, 134, 132, 183, 3, 1.42216
343, 1, bw, catch, NA, 999, 999, 4, 2, 73, 122, 121, 134, 132, 183, 1, 0.347726
343, 1, bw, attraction, a-b-da, 2, 3, 4, 3, 195, 120, 120, 195, 193, 119, 1, 0.915765
343, 1, bw, attraction, a-b-da, 2, 3, 4, 3, 195, 120, 120, 195, 193, 119, 3, 0.430003
343, 1, bw, filler, NA, 999, 999, 4, 4, 144, 173, 81, 105, 83, 124, 1, 0.818547
343, 1, bw, filler, NA, 999, 999, 4, 4, 144, 173, 81, 105, 83, 124, 2, 0.368807
343, 1, bw, filler, NA, 999, 999, 4, 5, 148, 74, 101, 68, 95, 175, 3, 1.08005
343, 1, bw, filler, NA, 999, 999, 4, 5, 148, 74, 101, 68, 95, 175, 2, 0.563645
343, 1, bw, filler, NA, 999, 999, 4, 6, 90, 176, 126, 118, 126, 152, 3, 0.666764
343, 1, bw, filler, NA, 999, 999, 4, 6, 90, 176, 126, 118, 126, 152, 1, 0.319153
343, 1, bw, attraction, a-b-da, 14, 3, 4, 7, 120, 195, 195, 120, 181, 111, 1, 0.816279
343, 1, bw, attraction, a-b-da, 14, 3, 4, 7, 120, 195, 195, 120, 181, 111, 3, 0.566766
343, 1, bw, attraction, a-b-db, 14, 3, 4, 8, 195, 120, 111, 181, 120, 195, 3, 1.02986
343, 1, bw, attraction, a-b-db, 14, 3, 4, 8, 195, 120, 111, 181, 120, 195, 1, 0.73954
343, 1, bw, filler, NA, 999, 999, 4, 9, 73, 150, 69, 123, 148, 145, 3, 0.555906
343, 1, bw, filler, NA, 999, 999, 4, 9, 73, 150, 69, 123, 148, 145, 2, 0.516341
343, 1, bw, attraction, a-b-db, 5, 3, 4, 10, 120, 195, 117, 190, 195, 120, 2, 1.02138
343, 1, bw, attraction, a-b-db, 5, 3, 4, 10, 120, 195, 117, 190, 195, 120, 3, 0.251106
343, 1, bw, attraction, a-b-db, 2, 3, 4, 11, 120, 195, 195, 120, 119, 193, 1, 0.910947
343, 1, bw, attraction, a-b-db, 2, 3, 4, 11, 120, 195, 195, 120, 119, 193, 2, 0.313314
343, 1, bw, attraction, a-b-db, 2, 2, 4, 12, 90, 165, 89, 163, 165, 90, 3, 1.03441
343, 1, bw, attraction, a-b-db, 2, 2, 4, 12, 90, 165, 89, 163, 165, 90, 1, 0.42414
343, 1, bw, attraction, a-b-db, 14, 1, 4, 13, 56, 125, 60, 135, 135, 60, 3, 0.572643
343, 1, bw, attraction, a-b-db, 14, 1, 4, 13, 56, 125, 60, 135, 135, 60, 1, 0.596423
343, 1, bw, attraction, a-b-db, 9, 2, 4, 14, 86, 157, 165, 90, 90, 165, 3, 0.978189
343, 1, bw, attraction, a-b-db, 9, 2, 4, 14, 86, 157, 165, 90, 90, 165, 1, 1.3459
343, 1, bw, attraction, a-b-db, 2, 1, 4, 15, 135, 60, 59, 134, 60, 135, 1, 2.14544
343, 1, bw, attraction, a-b-db, 2, 1, 4, 15, 135, 60, 59, 134, 60, 135, 2, 0.322009
343, 1, bw, attraction, a-b-da, 14, 2, 4, 16, 90, 165, 153, 83, 165, 90, 3, 2.81923
343, 1, bw, attraction, a-b-da, 14, 2, 4, 16, 90, 165, 153, 83, 165, 90, 2, 0.304982
343, 1, bw, attraction, a-b-db, 5, 2, 4, 17, 90, 165, 165, 90, 88, 161, 1, 1.15478
343, 1, bw, attraction, a-b-db, 5, 2, 4, 17, 90, 165, 165, 90, 88, 161, 2, 0.33171
343, 1, bw, attraction, a-b-da, 9, 3, 4, 18, 195, 120, 186, 114, 120, 195, 1, 1.82832
343, 1, bw, attraction, a-b-da, 9, 3, 4, 18, 195, 120, 186, 114, 120, 195, 2, 0.37759
343, 1, bw, filler, NA, 999, 999, 4, 19, 92, 177, 167, 146, 163, 127, 2, 2.46414
343, 1, bw, filler, NA, 999, 999, 4, 19, 92, 177, 167, 146, 163, 127, 1, 0.324021
343, 1, bw, filler, NA, 999, 999, 4, 20, 114, 104, 72, 154, 78, 114, 1, 1.30049
343, 1, bw, filler, NA, 999, 999, 4, 20, 114, 104, 72, 154, 78, 114, 3, 0.847318
343, 1, bw, catch, NA, 999, 999, 4, 21, 136, 179, 89, 106, 119, 136, 1, 2.22706
343, 1, bw, catch, NA, 999, 999, 4, 21, 136, 179, 89, 106, 119, 136, 2, 0.592321
343, 1, bw, attraction, a-b-db, 9, 1, 4, 22, 60, 135, 135, 60, 57, 129, 3, 1.51015
343, 1, bw, attraction, a-b-db, 9, 1, 4, 22, 60, 135, 135, 60, 57, 129, 2, 0.424258
343, 1, bw, filler, NA, 999, 999, 4, 23, 106, 95, 116, 80, 128, 194, 3, 0.764748
343, 1, bw, filler, NA, 999, 999, 4, 23, 106, 95, 116, 80, 128, 194, 1, 0.565105
343, 1, bw, attraction, a-b-da, 2, 1, 4, 24, 60, 135, 134, 59, 135, 60, 3, 0.852201
343, 1, bw, attraction, a-b-da, 2, 1, 4, 24, 60, 135, 134, 59, 135, 60, 1, 0.521285
343, 1, bw, catch, NA, 999, 999, 4, 25, 187, 128, 122, 73, 160, 95, 1, 0.922329
343, 1, bw, catch, NA, 999, 999, 4, 25, 187, 128, 122, 73, 160, 95, 2, 0.572155
343, 1, bw, attraction, a-b-da, 9, 2, 4, 26, 90, 165, 157, 86, 165, 90, 3, 3.78733
343, 1, bw, attraction, a-b-da, 9, 2, 4, 26, 90, 165, 157, 86, 165, 90, 2, 0.409924
343, 1, bw, attraction, a-b-da, 5, 3, 4, 27, 195, 120, 120, 195, 190, 117, 1, 0.815058
343, 1, bw, attraction, a-b-da, 5, 3, 4, 27, 195, 120, 120, 195, 190, 117, 2, 0.349449
343, 1, bw, attraction, a-b-da, 5, 2, 4, 28, 90, 165, 161, 88, 165, 90, 1, 1.18934
343, 1, bw, attraction, a-b-da, 5, 2, 4, 28, 90, 165, 161, 88, 165, 90, 3, 0.540292
343, 1, bw, attraction, a-b-db, 5, 1, 4, 29, 60, 135, 135, 60, 58, 132, 1, 1.05998
343, 1, bw, attraction, a-b-db, 5, 1, 4, 29, 60, 135, 135, 60, 58, 132, 2, 0.360319
343, 1, bw, attraction, a-b-da, 5, 1, 4, 30, 132, 58, 135, 60, 60, 135, 1, 0.455503
343, 1, bw, attraction, a-b-da, 5, 1, 4, 30, 132, 58, 135, 60, 60, 135, 3, 0.356139
343, 1, bw, filler, NA, 999, 999, 4, 31, 189, 107, 147, 130, 70, 89, 2, 0.803817
343, 1, bw, filler, NA, 999, 999, 4, 31, 189, 107, 147, 130, 70, 89, 3, 0.610914
343, 1, bw, filler, NA, 999, 999, 4, 32, 87, 102, 127, 193, 71, 159, 2, 0.896003
343, 1, bw, filler, NA, 999, 999, 4, 32, 87, 102, 127, 193, 71, 159, 1, 1.25906
343, 1, bw, attraction, a-b-da, 14, 1, 4, 33, 125, 56, 60, 135, 135, 60, 3, 1.78201
343, 1, bw, attraction, a-b-da, 14, 1, 4, 33, 125, 56, 60, 135, 135, 60, 1, 0.797305
343, 1, bw, attraction, a-b-db, 9, 3, 4, 34, 195, 120, 114, 186, 120, 195, 1, 1.08301
343, 1, bw, attraction, a-b-db, 9, 3, 4, 34, 195, 120, 114, 186, 120, 195, 3, 0.734611
343, 1, bw, attraction, a-b-db, 14, 2, 4, 35, 165, 90, 90, 165, 83, 153, 2, 0.990961
343, 1, bw, attraction, a-b-db, 14, 2, 4, 35, 165, 90, 90, 165, 83, 153, 1, 0.437989
343, 1, bw, filler, NA, 999, 999, 4, 36, 119, 84, 191, 141, 157, 88, 2, 0.626424
343, 1, bw, filler, NA, 999, 999, 4, 36, 119, 84, 191, 141, 157, 88, 3, 0.600249
343, 1, bw, attraction, a-b-da, 9, 1, 4, 37, 129, 57, 60, 135, 135, 60, 1, 0.741973
343, 1, bw, attraction, a-b-da, 9, 1, 4, 37, 129, 57, 60, 135, 135, 60, 2, 0.343148
343, 1, bw, attraction, a-b-db, 9, 1, 5, 1, 60, 135, 135, 60, 57, 129, 1, 2.10951
343, 1, bw, attraction, a-b-db, 9, 1, 5, 1, 60, 135, 135, 60, 57, 129, 2, 0.871519
343, 1, bw, filler, NA, 999, 999, 5, 2, 105, 156, 136, 158, 68, 189, 2, 2.64251
343, 1, bw, filler, NA, 999, 999, 5, 2, 105, 156, 136, 158, 68, 189, 3, 0.639166
343, 1, bw, filler, NA, 999, 999, 5, 3, 127, 76, 67, 116, 112, 162, 3, 0.867403
343, 1, bw, filler, NA, 999, 999, 5, 3, 127, 76, 67, 116, 112, 162, 2, 0.48786
343, 1, bw, attraction, a-b-da, 5, 2, 5, 4, 165, 90, 161, 88, 90, 165, 2, 0.914159
343, 1, bw, attraction, a-b-da, 5, 2, 5, 4, 165, 90, 161, 88, 90, 165, 3, 0.532689
343, 1, bw, filler, NA, 999, 999, 5, 5, 195, 58, 182, 134, 80, 60, 2, 0.805044
343, 1, bw, filler, NA, 999, 999, 5, 5, 195, 58, 182, 134, 80, 60, 3, 0.523415
343, 1, bw, filler, NA, 999, 999, 5, 6, 162, 72, 146, 101, 186, 166, 3, 0.708543
343, 1, bw, filler, NA, 999, 999, 5, 6, 162, 72, 146, 101, 186, 166, 1, 1.00705
343, 1, bw, catch, NA, 999, 999, 5, 7, 62, 133, 147, 168, 144, 111, 2, 0.963896
343, 1, bw, catch, NA, 999, 999, 5, 7, 62, 133, 147, 168, 144, 111, 1, 0.356336
343, 1, bw, filler, NA, 999, 999, 5, 8, 174, 81, 132, 195, 108, 114, 2, 1.31606
343, 1, bw, filler, NA, 999, 999, 5, 8, 174, 81, 132, 195, 108, 114, 3, 2.09438
343, 1, bw, attraction, a-b-da, 14, 1, 5, 9, 125, 56, 135, 60, 60, 135, 3, 0.767642
343, 1, bw, attraction, a-b-da, 14, 1, 5, 9, 125, 56, 135, 60, 60, 135, 2, 0.631989
343, 1, bw, attraction, a-b-da, 5, 3, 5, 10, 190, 117, 195, 120, 120, 195, 2, 1.07645
343, 1, bw, attraction, a-b-da, 5, 3, 5, 10, 190, 117, 195, 120, 120, 195, 3, 0.320056
343, 1, bw, filler, NA, 999, 999, 5, 11, 57, 163, 80, 102, 158, 146, 3, 0.809202
343, 1, bw, filler, NA, 999, 999, 5, 11, 57, 163, 80, 102, 158, 146, 2, 0.399565
343, 1, bw, attraction, a-b-db, 14, 3, 5, 12, 195, 120, 120, 195, 111, 181, 2, 0.677366
343, 1, bw, attraction, a-b-db, 14, 3, 5, 12, 195, 120, 120, 195, 111, 181, 1, 0.353218
343, 1, bw, attraction, a-b-db, 2, 1, 5, 13, 59, 134, 135, 60, 60, 135, 3, 0.632983
343, 1, bw, attraction, a-b-db, 2, 1, 5, 13, 59, 134, 135, 60, 60, 135, 2, 0.534784
343, 1, bw, attraction, a-b-db, 5, 2, 5, 14, 88, 161, 90, 165, 165, 90, 2, 0.783369
343, 1, bw, attraction, a-b-db, 5, 2, 5, 14, 88, 161, 90, 165, 165, 90, 3, 1.31099
343, 1, bw, attraction, a-b-da, 5, 1, 5, 15, 132, 58, 60, 135, 135, 60, 3, 1.84786
343, 1, bw, attraction, a-b-da, 5, 1, 5, 15, 132, 58, 60, 135, 135, 60, 1, 0.788661
343, 1, bw, attraction, a-b-db, 9, 3, 5, 16, 114, 186, 120, 195, 195, 120, 3, 0.754898
343, 1, bw, attraction, a-b-db, 9, 3, 5, 16, 114, 186, 120, 195, 195, 120, 1, 0.331454
343, 1, bw, attraction, a-b-db, 14, 1, 5, 17, 135, 60, 56, 125, 60, 135, 1, 1.05183
343, 1, bw, attraction, a-b-db, 14, 1, 5, 17, 135, 60, 56, 125, 60, 135, 2, 0.512896
343, 1, bw, filler, NA, 999, 999, 5, 18, 192, 81, 126, 166, 113, 164, 2, 1.16992
343, 1, bw, filler, NA, 999, 999, 5, 18, 192, 81, 126, 166, 113, 164, 1, 0.338163
343, 1, bw, attraction, a-b-db, 5, 3, 5, 19, 120, 195, 195, 120, 117, 190, 1, 1.43469
343, 1, bw, attraction, a-b-db, 5, 3, 5, 19, 120, 195, 195, 120, 117, 190, 2, 0.712209
343, 1, bw, attraction, a-b-da, 2, 3, 5, 20, 193, 119, 120, 195, 195, 120, 3, 1.7933
343, 1, bw, attraction, a-b-da, 2, 3, 5, 20, 193, 119, 120, 195, 195, 120, 1, 0.904132
343, 1, bw, filler, NA, 999, 999, 5, 21, 73, 184, 154, 65, 169, 145, 3, 0.785683
343, 1, bw, filler, NA, 999, 999, 5, 21, 73, 184, 154, 65, 169, 145, 2, 0.689384
343, 1, bw, attraction, a-b-da, 14, 3, 5, 22, 181, 111, 195, 120, 120, 195, 1, 0.819736
343, 1, bw, attraction, a-b-da, 14, 3, 5, 22, 181, 111, 195, 120, 120, 195, 2, 0.29021
343, 1, bw, attraction, a-b-da, 9, 1, 5, 23, 60, 135, 135, 60, 129, 57, 3, 1.18001
343, 1, bw, attraction, a-b-da, 9, 1, 5, 23, 60, 135, 135, 60, 129, 57, 2, 0.507665
343, 1, bw, filler, NA, 999, 999, 5, 24, 136, 97, 112, 147, 110, 181, 3, 0.716763
343, 1, bw, filler, NA, 999, 999, 5, 24, 136, 97, 112, 147, 110, 181, 2, 0.303338
343, 1, bw, filler, NA, 999, 999, 5, 25, 143, 113, 129, 134, 117, 135, 3, 2.56907
343, 1, bw, filler, NA, 999, 999, 5, 25, 143, 113, 129, 134, 117, 135, 2, 0.728863
343, 1, bw, attraction, a-b-db, 14, 2, 5, 26, 90, 165, 83, 153, 165, 90, 1, 1.63331
343, 1, bw, attraction, a-b-db, 14, 2, 5, 26, 90, 165, 83, 153, 165, 90, 3, 0.518787
343, 1, bw, attraction, a-b-db, 5, 1, 5, 27, 135, 60, 58, 132, 60, 135, 3, 2.80789
343, 1, bw, attraction, a-b-db, 5, 1, 5, 27, 135, 60, 58, 132, 60, 135, 1, 1.56564
343, 1, bw, attraction, a-b-da, 9, 2, 5, 28, 165, 90, 90, 165, 157, 86, 1, 1.69245
343, 1, bw, attraction, a-b-da, 9, 2, 5, 28, 165, 90, 90, 165, 157, 86, 2, 1.85529
343, 1, bw, catch, NA, 999, 999, 5, 29, 65, 130, 100, 155, 150, 165, 3, 1.03455
343, 1, bw, catch, NA, 999, 999, 5, 29, 65, 130, 100, 155, 150, 165, 1, 0.632176
343, 1, bw, attraction, a-b-db, 2, 2, 5, 30, 89, 163, 90, 165, 165, 90, 1, 0.932656
343, 1, bw, attraction, a-b-db, 2, 2, 5, 30, 89, 163, 90, 165, 165, 90, 3, 0.614301
343, 1, bw, attraction, a-b-da, 2, 2, 5, 31, 165, 90, 90, 165, 163, 89, 1, 0.875427
343, 1, bw, attraction, a-b-da, 2, 2, 5, 31, 165, 90, 90, 165, 163, 89, 2, 0.479102
343, 1, bw, attraction, a-b-db, 9, 2, 5, 32, 86, 157, 90, 165, 165, 90, 3, 0.849574
343, 1, bw, attraction, a-b-db, 9, 2, 5, 32, 86, 157, 90, 165, 165, 90, 2, 0.374574
343, 1, bw, catch, NA, 999, 999, 5, 33, 180, 135, 110, 145, 61, 134, 1, 0.54108
343, 1, bw, catch, NA, 999, 999, 5, 33, 180, 135, 110, 145, 61, 134, 3, 0.534261
343, 1, bw, attraction, a-b-da, 9, 3, 5, 34, 186, 114, 195, 120, 120, 195, 3, 0.670602
343, 1, bw, attraction, a-b-da, 9, 3, 5, 34, 186, 114, 195, 120, 120, 195, 1, 0.371047
343, 1, bw, attraction, a-b-db, 2, 3, 5, 35, 195, 120, 119, 193, 120, 195, 1, 1.06622
343, 1, bw, attraction, a-b-db, 2, 3, 5, 35, 195, 120, 119, 193, 120, 195, 3, 0.414514
343, 1, bw, attraction, a-b-da, 14, 2, 5, 36, 90, 165, 165, 90, 153, 83, 3, 0.699674
343, 1, bw, attraction, a-b-da, 14, 2, 5, 36, 90, 165, 165, 90, 153, 83, 2, 0.326775
343, 1, bw, attraction, a-b-da, 2, 1, 5, 37, 60, 135, 135, 60, 134, 59, 2, 1.13531
343, 1, bw, attraction, a-b-da, 2, 1, 5, 37, 60, 135, 135, 60, 134, 59, 3, 0.344894
343, 1, bw, catch, NA, 999, 999, 6, 1, 164, 151, 65, 130, 153, 102, 1, 0.53668
343, 1, bw, catch, NA, 999, 999, 6, 1, 164, 151, 65, 130, 153, 102, 2, 0.386614
343, 1, bw, filler, NA, 999, 999, 6, 2, 141, 186, 147, 103, 181, 149, 3, 0.760961
343, 1, bw, filler, NA, 999, 999, 6, 2, 141, 186, 147, 103, 181, 149, 2, 0.36151
343, 1, bw, attraction, a-b-da, 5, 2, 6, 3, 165, 90, 161, 88, 90, 165, 1, 0.584657
343, 1, bw, attraction, a-b-da, 5, 2, 6, 3, 165, 90, 161, 88, 90, 165, 2, 0.344345
343, 1, bw, attraction, a-b-db, 9, 3, 6, 4, 195, 120, 120, 195, 114, 186, 1, 0.568201
343, 1, bw, attraction, a-b-db, 9, 3, 6, 4, 195, 120, 120, 195, 114, 186, 2, 0.336761
343, 1, bw, attraction, a-b-da, 14, 3, 6, 5, 120, 195, 195, 120, 181, 111, 1, 1.2013
343, 1, bw, attraction, a-b-da, 14, 3, 6, 5, 120, 195, 195, 120, 181, 111, 3, 0.392082
343, 1, bw, attraction, a-b-db, 9, 1, 6, 6, 60, 135, 135, 60, 57, 129, 1, 1.22991
343, 1, bw, attraction, a-b-db, 9, 1, 6, 6, 60, 135, 135, 60, 57, 129, 2, 0.363457
343, 1, bw, attraction, a-b-db, 2, 1, 6, 7, 135, 60, 59, 134, 60, 135, 2, 1.06663
343, 1, bw, attraction, a-b-db, 2, 1, 6, 7, 135, 60, 59, 134, 60, 135, 1, 0.606985
343, 1, bw, attraction, a-b-da, 14, 2, 6, 8, 90, 165, 153, 83, 165, 90, 2, 1.044
343, 1, bw, attraction, a-b-da, 14, 2, 6, 8, 90, 165, 153, 83, 165, 90, 1, 0.432997
343, 1, bw, attraction, a-b-da, 9, 3, 6, 9, 120, 195, 186, 114, 195, 120, 1, 1.03744
343, 1, bw, attraction, a-b-da, 9, 3, 6, 9, 120, 195, 186, 114, 195, 120, 2, 0.298576
343, 1, bw, filler, NA, 999, 999, 6, 10, 146, 103, 175, 70, 89, 171, 1, 1.15633
343, 1, bw, filler, NA, 999, 999, 6, 10, 146, 103, 175, 70, 89, 171, 2, 0.356529
343, 1, bw, attraction, a-b-db, 2, 3, 6, 11, 119, 193, 120, 195, 195, 120, 1, 1.52444
343, 1, bw, attraction, a-b-db, 2, 3, 6, 11, 119, 193, 120, 195, 195, 120, 3, 0.557942
343, 1, bw, attraction, a-b-db, 14, 2, 6, 12, 83, 153, 165, 90, 90, 165, 3, 1.92504
343, 1, bw, attraction, a-b-db, 14, 2, 6, 12, 83, 153, 165, 90, 90, 165, 1, 0.286392
343, 1, bw, attraction, a-b-da, 9, 2, 6, 13, 90, 165, 157, 86, 165, 90, 1, 1.11293
343, 1, bw, attraction, a-b-da, 9, 2, 6, 13, 90, 165, 157, 86, 165, 90, 2, 0.371184
343, 1, bw, attraction, a-b-db, 9, 2, 6, 14, 86, 157, 165, 90, 90, 165, 2, 2.4104
343, 1, bw, attraction, a-b-db, 9, 2, 6, 14, 86, 157, 165, 90, 90, 165, 1, 0.328256
343, 1, bw, attraction, a-b-da, 2, 3, 6, 15, 120, 195, 195, 120, 193, 119, 1, 1.36073
343, 1, bw, attraction, a-b-da, 2, 3, 6, 15, 120, 195, 195, 120, 193, 119, 2, 0.280912
343, 1, bw, attraction, a-b-da, 5, 1, 6, 16, 60, 135, 132, 58, 135, 60, 2, 1.13948
343, 1, bw, attraction, a-b-da, 5, 1, 6, 16, 60, 135, 132, 58, 135, 60, 1, 0.596387
343, 1, bw, filler, NA, 999, 999, 6, 17, 131, 150, 173, 144, 128, 193, 3, 1.57021
343, 1, bw, filler, NA, 999, 999, 6, 17, 131, 150, 173, 144, 128, 193, 1, 0.354341
343, 1, bw, attraction, a-b-da, 5, 3, 6, 18, 195, 120, 190, 117, 120, 195, 3, 1.67421
343, 1, bw, attraction, a-b-da, 5, 3, 6, 18, 195, 120, 190, 117, 120, 195, 1, 0.389675
343, 1, bw, filler, NA, 999, 999, 6, 19, 181, 113, 148, 84, 62, 81, 1, 1.11613
343, 1, bw, filler, NA, 999, 999, 6, 19, 181, 113, 148, 84, 62, 81, 3, 0.454418
343, 1, bw, attraction, a-b-db, 14, 1, 6, 20, 56, 125, 135, 60, 60, 135, 3, 2.15421
343, 1, bw, attraction, a-b-db, 14, 1, 6, 20, 56, 125, 135, 60, 60, 135, 1, 0.674905
343, 1, bw, attraction, a-b-db, 5, 3, 6, 21, 120, 195, 195, 120, 117, 190, 1, 1.37332
343, 1, bw, attraction, a-b-db, 5, 3, 6, 21, 120, 195, 195, 120, 117, 190, 2, 0.388753
343, 1, bw, attraction, a-b-da, 2, 1, 6, 22, 134, 59, 60, 135, 135, 60, 2, 1.28331
343, 1, bw, attraction, a-b-da, 2, 1, 6, 22, 134, 59, 60, 135, 135, 60, 1, 1.01495
343, 1, bw, filler, NA, 999, 999, 6, 23, 178, 178, 185, 111, 123, 131, 1, 1.636
343, 1, bw, filler, NA, 999, 999, 6, 23, 178, 178, 185, 111, 123, 131, 3, 0.689301
343, 1, bw, attraction, a-b-da, 2, 2, 6, 24, 165, 90, 163, 89, 90, 165, 1, 4.62768
343, 1, bw, attraction, a-b-da, 2, 2, 6, 24, 165, 90, 163, 89, 90, 165, 2, 0.408179
343, 1, bw, filler, NA, 999, 999, 6, 25, 161, 184, 151, 147, 164, 90, 1, 0.533322
343, 1, bw, filler, NA, 999, 999, 6, 25, 161, 184, 151, 147, 164, 90, 3, 0.879153
343, 1, bw, attraction, a-b-da, 14, 1, 6, 26, 60, 135, 135, 60, 125, 56, 2, 1.09748
343, 1, bw, attraction, a-b-da, 14, 1, 6, 26, 60, 135, 135, 60, 125, 56, 1, 0.436518
343, 1, bw, catch, NA, 999, 999, 6, 27, 63, 132, 172, 143, 159, 96, 2, 0.720958
343, 1, bw, catch, NA, 999, 999, 6, 27, 63, 132, 172, 143, 159, 96, 1, 0.763291
343, 1, bw, catch, NA, 999, 999, 6, 28, 184, 131, 99, 156, 98, 97, 1, 0.80235
343, 1, bw, catch, NA, 999, 999, 6, 28, 184, 131, 99, 156, 98, 97, 3, 0.593512
343, 1, bw, filler, NA, 999, 999, 6, 29, 117, 102, 112, 188, 102, 62, 2, 1.47117
343, 1, bw, filler, NA, 999, 999, 6, 29, 117, 102, 112, 188, 102, 62, 3, 0.587364
343, 1, bw, attraction, a-b-db, 2, 2, 6, 30, 90, 165, 89, 163, 165, 90, 3, 1.3698
343, 1, bw, attraction, a-b-db, 2, 2, 6, 30, 90, 165, 89, 163, 165, 90, 2, 0.706016
343, 1, bw, filler, NA, 999, 999, 6, 31, 154, 120, 111, 134, 65, 67, 1, 0.619777
343, 1, bw, filler, NA, 999, 999, 6, 31, 154, 120, 111, 134, 65, 67, 3, 0.514152
343, 1, bw, attraction, a-b-db, 5, 1, 6, 32, 58, 132, 135, 60, 60, 135, 2, 0.763332
343, 1, bw, attraction, a-b-db, 5, 1, 6, 32, 58, 132, 135, 60, 60, 135, 1, 0.331602
343, 1, bw, attraction, a-b-da, 9, 1, 6, 33, 135, 60, 60, 135, 129, 57, 1, 1.04415
343, 1, bw, attraction, a-b-da, 9, 1, 6, 33, 135, 60, 60, 135, 129, 57, 2, 0.441196
343, 1, bw, attraction, a-b-db, 14, 3, 6, 34, 111, 181, 195, 120, 120, 195, 3, 1.32494
343, 1, bw, attraction, a-b-db, 14, 3, 6, 34, 111, 181, 195, 120, 120, 195, 1, 0.502546
343, 1, bw, attraction, a-b-db, 5, 2, 6, 35, 88, 161, 90, 165, 165, 90, 1, 0.632294
343, 1, bw, attraction, a-b-db, 5, 2, 6, 35, 88, 161, 90, 165, 165, 90, 3, 0.454249
343, 1, bw, filler, NA, 999, 999, 6, 36, 58, 129, 145, 129, 116, 167, 3, 0.921939
343, 1, bw, filler, NA, 999, 999, 6, 36, 58, 129, 145, 129, 116, 167, 1, 0.539614
343, 1, bw, filler, NA, 999, 999, 6, 37, 129, 86, 78, 108, 112, 70, 1, 0.7561
343, 1, bw, filler, NA, 999, 999, 6, 37, 129, 86, 78, 108, 112, 70, 2, 0.380432
343, 1, bw, filler, NA, 999, 999, 7, 1, 107, 128, 177, 152, 65, 129, 2, 0.690835
343, 1, bw, filler, NA, 999, 999, 7, 1, 107, 128, 177, 152, 65, 129, 1, 0.430012
343, 1, bw, filler, NA, 999, 999, 7, 2, 177, 174, 127, 168, 96, 120, 1, 0.722453
343, 1, bw, filler, NA, 999, 999, 7, 2, 177, 174, 127, 168, 96, 120, 2, 0.3802
343, 1, bw, attraction, a-b-db, 14, 3, 7, 3, 195, 120, 111, 181, 120, 195, 3, 0.730738
343, 1, bw, attraction, a-b-db, 14, 3, 7, 3, 195, 120, 111, 181, 120, 195, 1, 0.412551
343, 1, bw, catch, NA, 999, 999, 7, 4, 140, 175, 134, 121, 118, 77, 1, 0.561646
343, 1, bw, catch, NA, 999, 999, 7, 4, 140, 175, 134, 121, 118, 77, 3, 0.458071
343, 1, bw, filler, NA, 999, 999, 7, 5, 131, 122, 61, 182, 154, 63, 1, 0.549197
343, 1, bw, filler, NA, 999, 999, 7, 5, 131, 122, 61, 182, 154, 63, 2, 0.438364
343, 1, bw, filler, NA, 999, 999, 7, 6, 96, 79, 106, 153, 144, 185, 3, 0.706814
343, 1, bw, filler, NA, 999, 999, 7, 6, 96, 79, 106, 153, 144, 185, 1, 0.501376
343, 1, bw, attraction, a-b-da, 14, 1, 7, 7, 125, 56, 135, 60, 60, 135, 1, 0.82316
343, 1, bw, attraction, a-b-da, 14, 1, 7, 7, 125, 56, 135, 60, 60, 135, 3, 0.348728
343, 1, bw, attraction, a-b-da, 5, 2, 7, 8, 161, 88, 90, 165, 165, 90, 1, 0.588534
343, 1, bw, attraction, a-b-da, 5, 2, 7, 8, 161, 88, 90, 165, 165, 90, 2, 0.579674
343, 1, bw, attraction, a-b-db, 9, 1, 7, 9, 135, 60, 60, 135, 57, 129, 3, 1.82626
343, 1, bw, attraction, a-b-db, 9, 1, 7, 9, 135, 60, 60, 135, 57, 129, 1, 0.423496
343, 1, bw, attraction, a-b-db, 9, 3, 7, 10, 195, 120, 114, 186, 120, 195, 1, 1.35596
343, 1, bw, attraction, a-b-db, 9, 3, 7, 10, 195, 120, 114, 186, 120, 195, 2, 0.644156
343, 1, bw, attraction, a-b-da, 2, 2, 7, 11, 165, 90, 90, 165, 163, 89, 3, 1.81594
343, 1, bw, attraction, a-b-da, 2, 2, 7, 11, 165, 90, 90, 165, 163, 89, 2, 0.702
343, 1, bw, attraction, a-b-db, 14, 2, 7, 12, 83, 153, 90, 165, 165, 90, 3, 0.671746
343, 1, bw, attraction, a-b-db, 14, 2, 7, 12, 83, 153, 90, 165, 165, 90, 1, 0.483459
343, 1, bw, filler, NA, 999, 999, 7, 13, 151, 149, 113, 104, 192, 178, 3, 0.605876
343, 1, bw, filler, NA, 999, 999, 7, 13, 151, 149, 113, 104, 192, 178, 2, 0.388361
343, 1, bw, attraction, a-b-da, 5, 1, 7, 14, 132, 58, 60, 135, 135, 60, 3, 1.10687
343, 1, bw, attraction, a-b-da, 5, 1, 7, 14, 132, 58, 60, 135, 135, 60, 1, 0.749136
343, 1, bw, attraction, a-b-da, 5, 3, 7, 15, 120, 195, 190, 117, 195, 120, 3, 0.700986
343, 1, bw, attraction, a-b-da, 5, 3, 7, 15, 120, 195, 190, 117, 195, 120, 2, 0.304017
343, 1, bw, attraction, a-b-db, 2, 2, 7, 16, 165, 90, 89, 163, 90, 165, 3, 0.649869
343, 1, bw, attraction, a-b-db, 2, 2, 7, 16, 165, 90, 89, 163, 90, 165, 1, 0.534909
343, 1, bw, catch, NA, 999, 999, 7, 17, 120, 75, 109, 146, 146, 169, 3, 0.471371
343, 1, bw, catch, NA, 999, 999, 7, 17, 120, 75, 109, 146, 146, 169, 1, 0.499835
343, 1, bw, attraction, a-b-da, 9, 3, 7, 18, 186, 114, 195, 120, 120, 195, 3, 0.501677
343, 1, bw, attraction, a-b-da, 9, 3, 7, 18, 186, 114, 195, 120, 120, 195, 1, 0.496825
343, 1, bw, attraction, a-b-da, 14, 2, 7, 19, 90, 165, 153, 83, 165, 90, 3, 0.38651
343, 1, bw, attraction, a-b-da, 14, 2, 7, 19, 90, 165, 153, 83, 165, 90, 1, 0.514462
343, 1, bw, attraction, a-b-db, 2, 1, 7, 20, 60, 135, 59, 134, 135, 60, 3, 0.46761
343, 1, bw, attraction, a-b-db, 2, 1, 7, 20, 60, 135, 59, 134, 135, 60, 2, 0.680073
343, 1, bw, attraction, a-b-db, 5, 3, 7, 21, 117, 190, 120, 195, 195, 120, 3, 0.674461
343, 1, bw, attraction, a-b-db, 5, 3, 7, 21, 117, 190, 120, 195, 195, 120, 1, 0.414194
343, 1, bw, attraction, a-b-da, 9, 2, 7, 22, 157, 86, 90, 165, 165, 90, 2, 0.803316
343, 1, bw, attraction, a-b-da, 9, 2, 7, 22, 157, 86, 90, 165, 165, 90, 1, 0.338392
343, 1, bw, attraction, a-b-db, 2, 3, 7, 23, 195, 120, 120, 195, 119, 193, 3, 0.906933
343, 1, bw, attraction, a-b-db, 2, 3, 7, 23, 195, 120, 120, 195, 119, 193, 1, 0.349261
343, 1, bw, filler, NA, 999, 999, 7, 24, 117, 107, 131, 105, 58, 137, 2, 0.581173
343, 1, bw, filler, NA, 999, 999, 7, 24, 117, 107, 131, 105, 58, 137, 3, 2.34104
343, 1, bw, attraction, a-b-da, 14, 3, 7, 25, 120, 195, 181, 111, 195, 120, 1, 1.78017
343, 1, bw, attraction, a-b-da, 14, 3, 7, 25, 120, 195, 181, 111, 195, 120, 2, 0.387619
343, 1, bw, attraction, a-b-db, 5, 1, 7, 26, 135, 60, 60, 135, 58, 132, 2, 3.32997
343, 1, bw, attraction, a-b-db, 5, 1, 7, 26, 135, 60, 60, 135, 58, 132, 1, 0.786893
343, 1, bw, attraction, a-b-da, 9, 1, 7, 27, 60, 135, 129, 57, 135, 60, 3, 0.769253
343, 1, bw, attraction, a-b-da, 9, 1, 7, 27, 60, 135, 129, 57, 135, 60, 2, 0.529788
343, 1, bw, catch, NA, 999, 999, 7, 28, 157, 158, 93, 162, 61, 134, 1, 0.674122
343, 1, bw, catch, NA, 999, 999, 7, 28, 157, 158, 93, 162, 61, 134, 3, 0.461873
343, 1, bw, filler, NA, 999, 999, 7, 29, 92, 56, 126, 147, 85, 154, 2, 2.03304
343, 1, bw, filler, NA, 999, 999, 7, 29, 92, 56, 126, 147, 85, 154, 1, 0.622375
343, 1, bw, filler, NA, 999, 999, 7, 30, 133, 80, 156, 194, 72, 178, 2, 0.643528
343, 1, bw, filler, NA, 999, 999, 7, 30, 133, 80, 156, 194, 72, 178, 1, 0.576586
343, 1, bw, attraction, a-b-db, 9, 2, 7, 31, 86, 157, 165, 90, 90, 165, 3, 1.07901
343, 1, bw, attraction, a-b-db, 9, 2, 7, 31, 86, 157, 165, 90, 90, 165, 1, 0.434627
343, 1, bw, attraction, a-b-da, 2, 3, 7, 32, 195, 120, 120, 195, 193, 119, 3, 0.791071
343, 1, bw, attraction, a-b-da, 2, 3, 7, 32, 195, 120, 120, 195, 193, 119, 2, 0.350174
343, 1, bw, attraction, a-b-db, 5, 2, 7, 33, 165, 90, 90, 165, 88, 161, 1, 0.886132
343, 1, bw, attraction, a-b-db, 5, 2, 7, 33, 165, 90, 90, 165, 88, 161, 2, 0.625695
343, 1, bw, filler, NA, 999, 999, 7, 34, 177, 185, 186, 118, 60, 87, 1, 0.518056
343, 1, bw, filler, NA, 999, 999, 7, 34, 177, 185, 186, 118, 60, 87, 3, 0.632663
343, 1, bw, attraction, a-b-db, 14, 1, 7, 35, 135, 60, 60, 135, 56, 125, 3, 1.22902
343, 1, bw, attraction, a-b-db, 14, 1, 7, 35, 135, 60, 60, 135, 56, 125, 1, 0.46658
343, 1, bw, filler, NA, 999, 999, 7, 36, 181, 59, 99, 164, 183, 101, 3, 0.645666
343, 1, bw, filler, NA, 999, 999, 7, 36, 181, 59, 99, 164, 183, 101, 1, 0.858976
343, 1, bw, attraction, a-b-da, 2, 1, 7, 37, 135, 60, 134, 59, 60, 135, 1, 0.781851
343, 1, bw, attraction, a-b-da, 2, 1, 7, 37, 135, 60, 134, 59, 60, 135, 3, 0.453554
343, 1, bw, attraction, a-b-da, 14, 3, 8, 1, 120, 195, 181, 111, 195, 120, 1, 0.601314
343, 1, bw, attraction, a-b-da, 14, 3, 8, 1, 120, 195, 181, 111, 195, 120, 2, 0.416433
343, 1, bw, attraction, a-b-db, 9, 2, 8, 2, 165, 90, 90, 165, 86, 157, 1, 0.669599
343, 1, bw, attraction, a-b-db, 9, 2, 8, 2, 165, 90, 90, 165, 86, 157, 3, 0.578231
343, 1, bw, filler, NA, 999, 999, 8, 3, 118, 64, 57, 147, 157, 114, 3, 0.560447
343, 1, bw, filler, NA, 999, 999, 8, 3, 118, 64, 57, 147, 157, 114, 1, 0.505018
343, 1, bw, attraction, a-b-da, 2, 3, 8, 4, 193, 119, 195, 120, 120, 195, 2, 1.1548
343, 1, bw, attraction, a-b-da, 2, 3, 8, 4, 193, 119, 195, 120, 120, 195, 1, 0.699046
343, 1, bw, attraction, a-b-db, 14, 1, 8, 5, 135, 60, 60, 135, 56, 125, 2, 1.17274
343, 1, bw, attraction, a-b-db, 14, 1, 8, 5, 135, 60, 60, 135, 56, 125, 1, 0.380294
343, 1, bw, attraction, a-b-db, 2, 3, 8, 6, 120, 195, 119, 193, 195, 120, 2, 0.946828
343, 1, bw, attraction, a-b-db, 2, 3, 8, 6, 120, 195, 119, 193, 195, 120, 3, 0.315836
343, 1, bw, attraction, a-b-db, 5, 3, 8, 7, 120, 195, 195, 120, 117, 190, 1, 0.725091
343, 1, bw, attraction, a-b-db, 5, 3, 8, 7, 120, 195, 195, 120, 117, 190, 2, 0.334768
343, 1, bw, catch, NA, 999, 999, 8, 8, 120, 135, 183, 132, 91, 104, 2, 1.40725
343, 1, bw, catch, NA, 999, 999, 8, 8, 120, 135, 183, 132, 91, 104, 3, 0.269526
343, 1, bw, attraction, a-b-db, 9, 1, 8, 9, 60, 135, 57, 129, 135, 60, 1, 0.616567
343, 1, bw, attraction, a-b-db, 9, 1, 8, 9, 60, 135, 57, 129, 135, 60, 2, 0.655125
343, 1, bw, attraction, a-b-db, 5, 1, 8, 10, 135, 60, 58, 132, 60, 135, 1, 0.674869
343, 1, bw, attraction, a-b-db, 5, 1, 8, 10, 135, 60, 58, 132, 60, 135, 2, 0.686608
343, 1, bw, attraction, a-b-da, 14, 1, 8, 11, 60, 135, 135, 60, 125, 56, 1, 0.84904
343, 1, bw, attraction, a-b-da, 14, 1, 8, 11, 60, 135, 135, 60, 125, 56, 3, 0.398137
343, 1, bw, attraction, a-b-db, 14, 3, 8, 12, 195, 120, 120, 195, 111, 181, 3, 1.46786
343, 1, bw, attraction, a-b-db, 14, 3, 8, 12, 195, 120, 120, 195, 111, 181, 1, 0.416025
343, 1, bw, attraction, a-b-db, 9, 3, 8, 13, 195, 120, 120, 195, 114, 186, 1, 0.717149
343, 1, bw, attraction, a-b-db, 9, 3, 8, 13, 195, 120, 120, 195, 114, 186, 2, 0.839513
343, 1, bw, filler, NA, 999, 999, 8, 14, 113, 138, 94, 137, 151, 187, 3, 0.868033
343, 1, bw, filler, NA, 999, 999, 8, 14, 113, 138, 94, 137, 151, 187, 2, 0.37629
343, 1, bw, attraction, a-b-da, 5, 3, 8, 15, 195, 120, 120, 195, 190, 117, 1, 0.486887
343, 1, bw, attraction, a-b-da, 5, 3, 8, 15, 195, 120, 120, 195, 190, 117, 2, 0.658721
343, 1, bw, attraction, a-b-db, 2, 2, 8, 16, 165, 90, 89, 163, 90, 165, 1, 0.805688
343, 1, bw, attraction, a-b-db, 2, 2, 8, 16, 165, 90, 89, 163, 90, 165, 3, 0.412113
343, 1, bw, attraction, a-b-da, 2, 1, 8, 17, 60, 135, 135, 60, 134, 59, 1, 0.697179
343, 1, bw, attraction, a-b-da, 2, 1, 8, 17, 60, 135, 135, 60, 134, 59, 2, 0.364345
343, 1, bw, attraction, a-b-da, 5, 2, 8, 18, 165, 90, 90, 165, 161, 88, 1, 0.531467
343, 1, bw, attraction, a-b-da, 5, 2, 8, 18, 165, 90, 90, 165, 161, 88, 3, 0.677346
343, 1, bw, attraction, a-b-db, 2, 1, 8, 19, 59, 134, 135, 60, 60, 135, 1, 0.663703
343, 1, bw, attraction, a-b-db, 2, 1, 8, 19, 59, 134, 135, 60, 60, 135, 2, 0.50012
343, 1, bw, attraction, a-b-db, 5, 2, 8, 20, 88, 161, 165, 90, 90, 165, 1, 0.397856
343, 1, bw, attraction, a-b-db, 5, 2, 8, 20, 88, 161, 165, 90, 90, 165, 3, 0.333145
343, 1, bw, filler, NA, 999, 999, 8, 21, 159, 160, 130, 123, 177, 142, 3, 0.589595
343, 1, bw, filler, NA, 999, 999, 8, 21, 159, 160, 130, 123, 177, 142, 2, 0.308689
343, 1, bw, filler, NA, 999, 999, 8, 22, 161, 143, 180, 91, 158, 72, 1, 0.34203
343, 1, bw, filler, NA, 999, 999, 8, 22, 161, 143, 180, 91, 158, 72, 3, 0.855038
343, 1, bw, attraction, a-b-da, 9, 2, 8, 23, 157, 86, 165, 90, 90, 165, 2, 1.82674
343, 1, bw, attraction, a-b-da, 9, 2, 8, 23, 157, 86, 165, 90, 90, 165, 1, 0.312235
343, 1, bw, catch, NA, 999, 999, 8, 24, 160, 95, 93, 102, 166, 149, 3, 0.545338
343, 1, bw, catch, NA, 999, 999, 8, 24, 160, 95, 93, 102, 166, 149, 2, 0.298518
343, 1, bw, filler, NA, 999, 999, 8, 25, 130, 173, 192, 186, 106, 167, 2, 0.916296
343, 1, bw, filler, NA, 999, 999, 8, 25, 130, 173, 192, 186, 106, 167, 3, 0.358635
343, 1, bw, attraction, a-b-da, 5, 1, 8, 26, 60, 135, 135, 60, 132, 58, 3, 1.00584
343, 1, bw, attraction, a-b-da, 5, 1, 8, 26, 60, 135, 135, 60, 132, 58, 2, 0.484216
343, 1, bw, attraction, a-b-da, 2, 2, 8, 27, 165, 90, 163, 89, 90, 165, 3, 0.782631
343, 1, bw, attraction, a-b-da, 2, 2, 8, 27, 165, 90, 163, 89, 90, 165, 1, 0.374418
343, 1, bw, attraction, a-b-da, 9, 1, 8, 28, 129, 57, 135, 60, 60, 135, 1, 0.516845
343, 1, bw, attraction, a-b-da, 9, 1, 8, 28, 129, 57, 135, 60, 60, 135, 3, 0.407331
343, 1, bw, attraction, a-b-da, 14, 2, 8, 29, 153, 83, 165, 90, 90, 165, 2, 1.13251
343, 1, bw, attraction, a-b-da, 14, 2, 8, 29, 153, 83, 165, 90, 90, 165, 3, 0.334092
343, 1, bw, catch, NA, 999, 999, 8, 30, 136, 119, 125, 190, 98, 97, 2, 0.774624
343, 1, bw, catch, NA, 999, 999, 8, 30, 136, 119, 125, 190, 98, 97, 3, 0.478355
343, 1, bw, filler, NA, 999, 999, 8, 31, 88, 117, 96, 125, 188, 138, 3, 0.616759
343, 1, bw, filler, NA, 999, 999, 8, 31, 88, 117, 96, 125, 188, 138, 2, 0.319202
343, 1, bw, filler, NA, 999, 999, 8, 32, 167, 119, 88, 99, 180, 64, 1, 0.509473
343, 1, bw, filler, NA, 999, 999, 8, 32, 167, 119, 88, 99, 180, 64, 2, 0.49087
343, 1, bw, filler, NA, 999, 999, 8, 33, 190, 140, 144, 107, 184, 98, 1, 0.676764
343, 1, bw, filler, NA, 999, 999, 8, 33, 190, 140, 144, 107, 184, 98, 2, 0.296426
343, 1, bw, attraction, a-b-da, 9, 3, 8, 34, 195, 120, 186, 114, 120, 195, 3, 0.642288
343, 1, bw, attraction, a-b-da, 9, 3, 8, 34, 195, 120, 186, 114, 120, 195, 2, 0.279333
343, 1, bw, attraction, a-b-db, 14, 2, 8, 35, 165, 90, 83, 153, 90, 165, 1, 0.585946
343, 1, bw, attraction, a-b-db, 14, 2, 8, 35, 165, 90, 83, 153, 90, 165, 3, 0.385864
343, 1, bw, filler, NA, 999, 999, 8, 36, 162, 126, 156, 72, 190, 178, 3, 0.408299
343, 1, bw, filler, NA, 999, 999, 8, 36, 162, 126, 156, 72, 190, 178, 2, 0.510675
343, 1, bw, filler, NA, 999, 999, 8, 37, 127, 103, 144, 160, 108, 145, 2, 0.799827
343, 1, bw, filler, NA, 999, 999, 8, 37, 127, 103, 144, 160, 108, 145, 1, 0.35882
