sub_n, computer_n, bw_cond, effect, set, distance, diag, block_n, trial_n, h1, w1, h2, w2, h3, w3, choice, rt 
329, 1, bw, practice, NA, 999, 999, 0, 1, 127, 102, 93, 185, 123, 119, 2, 3.62868
329, 1, bw, practice, NA, 999, 999, 0, 1, 127, 102, 93, 185, 123, 119, 1, 2.21858
329, 1, bw, practice, NA, 999, 999, 0, 2, 69, 92, 176, 81, 88, 78, 2, 1.70934
329, 1, bw, practice, NA, 999, 999, 0, 2, 69, 92, 176, 81, 88, 78, 1, 1.6554
329, 1, bw, practice, NA, 999, 999, 0, 3, 191, 66, 168, 192, 128, 165, 2, 2.02466
329, 1, bw, practice, NA, 999, 999, 0, 3, 191, 66, 168, 192, 128, 165, 1, 1.92563
329, 1, bw, attraction, a-b-db, 9, 2, 1, 1, 86, 157, 165, 90, 90, 165, 3, 6.02989
329, 1, bw, attraction, a-b-db, 9, 2, 1, 1, 86, 157, 165, 90, 90, 165, 1, 1.22598
329, 1, bw, attraction, a-b-db, 14, 1, 1, 2, 135, 60, 56, 125, 60, 135, 1, 2.34235
329, 1, bw, attraction, a-b-db, 14, 1, 1, 2, 135, 60, 56, 125, 60, 135, 2, 1.45488
329, 1, bw, attraction, a-b-db, 2, 3, 1, 3, 119, 193, 120, 195, 195, 120, 2, 5.90623
329, 1, bw, attraction, a-b-db, 2, 3, 1, 3, 119, 193, 120, 195, 195, 120, 3, 0.675079
329, 1, bw, filler, NA, 999, 999, 1, 4, 68, 140, 78, 73, 88, 153, 3, 1.55747
329, 1, bw, filler, NA, 999, 999, 1, 4, 68, 140, 78, 73, 88, 153, 2, 0.733631
329, 1, bw, attraction, a-b-db, 9, 1, 1, 5, 57, 129, 60, 135, 135, 60, 2, 1.41401
329, 1, bw, attraction, a-b-db, 9, 1, 1, 5, 57, 129, 60, 135, 135, 60, 1, 0.700108
329, 1, bw, attraction, a-b-db, 5, 3, 1, 6, 117, 190, 120, 195, 195, 120, 2, 3.63798
329, 1, bw, attraction, a-b-db, 5, 3, 1, 6, 117, 190, 120, 195, 195, 120, 3, 3.76277
329, 1, bw, attraction, a-b-da, 9, 3, 1, 7, 195, 120, 186, 114, 120, 195, 1, 1.56883
329, 1, bw, attraction, a-b-da, 9, 3, 1, 7, 195, 120, 186, 114, 120, 195, 2, 0.552957
329, 1, bw, attraction, a-b-da, 14, 3, 1, 8, 120, 195, 195, 120, 181, 111, 2, 1.40872
329, 1, bw, attraction, a-b-da, 14, 3, 1, 8, 120, 195, 195, 120, 181, 111, 3, 0.294979
329, 1, bw, filler, NA, 999, 999, 1, 9, 140, 139, 98, 117, 62, 98, 1, 0.816737
329, 1, bw, filler, NA, 999, 999, 1, 9, 140, 139, 98, 117, 62, 98, 3, 0.951318
329, 1, bw, attraction, a-b-da, 5, 2, 1, 10, 161, 88, 165, 90, 90, 165, 3, 2.23092
329, 1, bw, attraction, a-b-da, 5, 2, 1, 10, 161, 88, 165, 90, 90, 165, 1, 0.45213
329, 1, bw, filler, NA, 999, 999, 1, 11, 161, 94, 88, 183, 63, 92, 2, 1.01592
329, 1, bw, filler, NA, 999, 999, 1, 11, 161, 94, 88, 183, 63, 92, 3, 0.670269
329, 1, bw, attraction, a-b-db, 14, 2, 1, 12, 90, 165, 83, 153, 165, 90, 3, 3.16936
329, 1, bw, attraction, a-b-db, 14, 2, 1, 12, 90, 165, 83, 153, 165, 90, 2, 0.552968
329, 1, bw, attraction, a-b-da, 2, 1, 1, 13, 135, 60, 60, 135, 134, 59, 2, 0.928739
329, 1, bw, attraction, a-b-da, 2, 1, 1, 13, 135, 60, 60, 135, 134, 59, 3, 0.594437
329, 1, bw, filler, NA, 999, 999, 1, 14, 188, 69, 146, 76, 173, 158, 3, 1.32011
329, 1, bw, filler, NA, 999, 999, 1, 14, 188, 69, 146, 76, 173, 158, 2, 0.778547
329, 1, bw, attraction, a-b-da, 9, 2, 1, 15, 165, 90, 157, 86, 90, 165, 1, 1.92071
329, 1, bw, attraction, a-b-da, 9, 2, 1, 15, 165, 90, 157, 86, 90, 165, 2, 0.418796
329, 1, bw, attraction, a-b-db, 2, 1, 1, 16, 60, 135, 135, 60, 59, 134, 2, 2.91994
329, 1, bw, attraction, a-b-db, 2, 1, 1, 16, 60, 135, 135, 60, 59, 134, 1, 1.14586
329, 1, bw, catch, NA, 999, 999, 1, 17, 141, 114, 129, 186, 106, 89, 2, 2.23325
329, 1, bw, catch, NA, 999, 999, 1, 17, 141, 114, 129, 186, 106, 89, 3, 0.798546
329, 1, bw, filler, NA, 999, 999, 1, 18, 156, 121, 60, 87, 171, 98, 1, 1.50024
329, 1, bw, filler, NA, 999, 999, 1, 18, 156, 121, 60, 87, 171, 98, 2, 0.543089
329, 1, bw, attraction, a-b-da, 5, 3, 1, 19, 195, 120, 190, 117, 120, 195, 3, 2.41495
329, 1, bw, attraction, a-b-da, 5, 3, 1, 19, 195, 120, 190, 117, 120, 195, 2, 1.8288
329, 1, bw, attraction, a-b-da, 14, 2, 1, 20, 90, 165, 153, 83, 165, 90, 1, 2.07293
329, 1, bw, attraction, a-b-da, 14, 2, 1, 20, 90, 165, 153, 83, 165, 90, 2, 0.412039
329, 1, bw, attraction, a-b-db, 5, 2, 1, 21, 88, 161, 90, 165, 165, 90, 2, 1.56929
329, 1, bw, attraction, a-b-db, 5, 2, 1, 21, 88, 161, 90, 165, 165, 90, 3, 0.601396
329, 1, bw, attraction, a-b-da, 9, 1, 1, 22, 129, 57, 60, 135, 135, 60, 2, 2.84719
329, 1, bw, attraction, a-b-da, 9, 1, 1, 22, 129, 57, 60, 135, 135, 60, 1, 0.45161
329, 1, bw, attraction, a-b-db, 5, 1, 1, 23, 60, 135, 58, 132, 135, 60, 2, 1.51139
329, 1, bw, attraction, a-b-db, 5, 1, 1, 23, 60, 135, 58, 132, 135, 60, 3, 1.61763
329, 1, bw, attraction, a-b-da, 14, 1, 1, 24, 60, 135, 125, 56, 135, 60, 3, 4.07039
329, 1, bw, attraction, a-b-da, 14, 1, 1, 24, 60, 135, 125, 56, 135, 60, 2, 0.561667
329, 1, bw, attraction, a-b-db, 9, 3, 1, 25, 120, 195, 114, 186, 195, 120, 1, 2.2968
329, 1, bw, attraction, a-b-db, 9, 3, 1, 25, 120, 195, 114, 186, 195, 120, 2, 1.37133
329, 1, bw, filler, NA, 999, 999, 1, 26, 85, 175, 184, 152, 153, 140, 2, 1.33028
329, 1, bw, filler, NA, 999, 999, 1, 26, 85, 175, 184, 152, 153, 140, 1, 0.499802
329, 1, bw, attraction, a-b-da, 2, 2, 1, 27, 165, 90, 90, 165, 163, 89, 1, 8.85349
329, 1, bw, attraction, a-b-da, 2, 2, 1, 27, 165, 90, 90, 165, 163, 89, 3, 0.680068
329, 1, bw, attraction, a-b-db, 14, 3, 1, 28, 195, 120, 111, 181, 120, 195, 3, 2.78647
329, 1, bw, attraction, a-b-db, 14, 3, 1, 28, 195, 120, 111, 181, 120, 195, 2, 0.809665
329, 1, bw, filler, NA, 999, 999, 1, 29, 106, 179, 100, 126, 188, 140, 3, 0.886581
329, 1, bw, filler, NA, 999, 999, 1, 29, 106, 179, 100, 126, 188, 140, 2, 0.426484
329, 1, bw, attraction, a-b-db, 2, 2, 1, 30, 89, 163, 165, 90, 90, 165, 2, 2.47879
329, 1, bw, attraction, a-b-db, 2, 2, 1, 30, 89, 163, 165, 90, 90, 165, 1, 1.02597
329, 1, bw, filler, NA, 999, 999, 1, 31, 130, 125, 164, 143, 177, 110, 2, 0.982212
329, 1, bw, filler, NA, 999, 999, 1, 31, 130, 125, 164, 143, 177, 110, 1, 0.677929
329, 1, bw, filler, NA, 999, 999, 1, 32, 136, 125, 180, 69, 126, 73, 1, 1.00034
329, 1, bw, filler, NA, 999, 999, 1, 32, 136, 125, 180, 69, 126, 73, 3, 0.575446
329, 1, bw, filler, NA, 999, 999, 1, 33, 97, 59, 123, 96, 146, 180, 3, 0.90977
329, 1, bw, filler, NA, 999, 999, 1, 33, 97, 59, 123, 96, 146, 180, 1, 0.488056
329, 1, bw, attraction, a-b-da, 2, 3, 1, 34, 195, 120, 193, 119, 120, 195, 1, 6.79461
329, 1, bw, attraction, a-b-da, 2, 3, 1, 34, 195, 120, 193, 119, 120, 195, 2, 1.6238
329, 1, bw, catch, NA, 999, 999, 1, 35, 122, 193, 78, 117, 112, 143, 1, 0.85184
329, 1, bw, catch, NA, 999, 999, 1, 35, 122, 193, 78, 117, 112, 143, 2, 0.34492
329, 1, bw, catch, NA, 999, 999, 1, 36, 158, 97, 129, 66, 180, 135, 3, 1.24874
329, 1, bw, catch, NA, 999, 999, 1, 36, 158, 97, 129, 66, 180, 135, 2, 0.549687
329, 1, bw, attraction, a-b-da, 5, 1, 1, 37, 60, 135, 135, 60, 132, 58, 2, 1.0534
329, 1, bw, attraction, a-b-da, 5, 1, 1, 37, 60, 135, 135, 60, 132, 58, 1, 0.410434
329, 1, bw, attraction, a-b-da, 9, 2, 2, 1, 90, 165, 157, 86, 165, 90, 1, 2.43152
329, 1, bw, attraction, a-b-da, 9, 2, 2, 1, 90, 165, 157, 86, 165, 90, 2, 0.420862
329, 1, bw, attraction, a-b-da, 14, 2, 2, 2, 90, 165, 165, 90, 153, 83, 2, 1.92199
329, 1, bw, attraction, a-b-da, 14, 2, 2, 2, 90, 165, 165, 90, 153, 83, 3, 0.635307
329, 1, bw, filler, NA, 999, 999, 2, 3, 184, 191, 188, 129, 68, 74, 1, 0.631664
329, 1, bw, filler, NA, 999, 999, 2, 3, 184, 191, 188, 129, 68, 74, 3, 0.613473
329, 1, bw, attraction, a-b-db, 14, 3, 2, 4, 120, 195, 195, 120, 111, 181, 1, 1.42657
329, 1, bw, attraction, a-b-db, 14, 3, 2, 4, 120, 195, 195, 120, 111, 181, 3, 0.632103
329, 1, bw, attraction, a-b-db, 2, 2, 2, 5, 165, 90, 90, 165, 89, 163, 2, 1.17256
329, 1, bw, attraction, a-b-db, 2, 2, 2, 5, 165, 90, 90, 165, 89, 163, 3, 1.06801
329, 1, bw, attraction, a-b-da, 2, 3, 2, 6, 193, 119, 120, 195, 195, 120, 1, 2.38305
329, 1, bw, attraction, a-b-da, 2, 3, 2, 6, 193, 119, 120, 195, 195, 120, 3, 1.15828
329, 1, bw, attraction, a-b-da, 2, 1, 2, 7, 134, 59, 60, 135, 135, 60, 2, 2.17331
329, 1, bw, attraction, a-b-da, 2, 1, 2, 7, 134, 59, 60, 135, 135, 60, 1, 0.980496
329, 1, bw, catch, NA, 999, 999, 2, 8, 127, 188, 139, 116, 71, 124, 1, 0.778758
329, 1, bw, catch, NA, 999, 999, 2, 8, 127, 188, 139, 116, 71, 124, 3, 0.442602
329, 1, bw, attraction, a-b-da, 9, 3, 2, 9, 195, 120, 186, 114, 120, 195, 3, 1.78224
329, 1, bw, attraction, a-b-da, 9, 3, 2, 9, 195, 120, 186, 114, 120, 195, 2, 0.94992
329, 1, bw, attraction, a-b-db, 5, 2, 2, 10, 88, 161, 165, 90, 90, 165, 3, 2.80536
329, 1, bw, attraction, a-b-db, 5, 2, 2, 10, 88, 161, 165, 90, 90, 165, 2, 0.547802
329, 1, bw, filler, NA, 999, 999, 2, 11, 181, 180, 159, 161, 139, 98, 1, 0.899531
329, 1, bw, filler, NA, 999, 999, 2, 11, 181, 180, 159, 161, 139, 98, 3, 0.534567
329, 1, bw, filler, NA, 999, 999, 2, 12, 157, 189, 132, 160, 172, 166, 3, 0.838952
329, 1, bw, filler, NA, 999, 999, 2, 12, 157, 189, 132, 160, 172, 166, 2, 0.580064
329, 1, bw, attraction, a-b-db, 9, 1, 2, 13, 57, 129, 135, 60, 60, 135, 3, 3.43453
329, 1, bw, attraction, a-b-db, 9, 1, 2, 13, 57, 129, 135, 60, 60, 135, 1, 0.463316
329, 1, bw, catch, NA, 999, 999, 2, 14, 121, 194, 123, 72, 144, 111, 1, 1.14653
329, 1, bw, catch, NA, 999, 999, 2, 14, 121, 194, 123, 72, 144, 111, 2, 0.61953
329, 1, bw, attraction, a-b-db, 9, 3, 2, 15, 114, 186, 195, 120, 120, 195, 3, 1.72054
329, 1, bw, attraction, a-b-db, 9, 3, 2, 15, 114, 186, 195, 120, 120, 195, 1, 2.5627
329, 1, bw, attraction, a-b-da, 2, 2, 2, 16, 163, 89, 165, 90, 90, 165, 3, 1.00915
329, 1, bw, attraction, a-b-da, 2, 2, 2, 16, 163, 89, 165, 90, 90, 165, 1, 1.99148
329, 1, bw, attraction, a-b-db, 5, 3, 2, 17, 195, 120, 120, 195, 117, 190, 2, 2.06877
329, 1, bw, attraction, a-b-db, 5, 3, 2, 17, 195, 120, 120, 195, 117, 190, 3, 2.90485
329, 1, bw, filler, NA, 999, 999, 2, 18, 129, 169, 100, 155, 57, 60, 1, 0.577838
329, 1, bw, filler, NA, 999, 999, 2, 18, 129, 169, 100, 155, 57, 60, 3, 0.69759
329, 1, bw, attraction, a-b-da, 5, 2, 2, 19, 90, 165, 165, 90, 161, 88, 3, 4.89133
329, 1, bw, attraction, a-b-da, 5, 2, 2, 19, 90, 165, 165, 90, 161, 88, 2, 0.765064
329, 1, bw, attraction, a-b-da, 5, 3, 2, 20, 195, 120, 120, 195, 190, 117, 2, 3.80411
329, 1, bw, attraction, a-b-da, 5, 3, 2, 20, 195, 120, 120, 195, 190, 117, 3, 0.466232
329, 1, bw, attraction, a-b-db, 2, 1, 2, 21, 60, 135, 135, 60, 59, 134, 1, 2.59761
329, 1, bw, attraction, a-b-db, 2, 1, 2, 21, 60, 135, 135, 60, 59, 134, 3, 0.515892
329, 1, bw, attraction, a-b-db, 14, 1, 2, 22, 135, 60, 56, 125, 60, 135, 1, 1.70113
329, 1, bw, attraction, a-b-db, 14, 1, 2, 22, 135, 60, 56, 125, 60, 135, 2, 0.567756
329, 1, bw, attraction, a-b-db, 2, 3, 2, 23, 120, 195, 195, 120, 119, 193, 1, 6.47088
329, 1, bw, attraction, a-b-db, 2, 3, 2, 23, 120, 195, 195, 120, 119, 193, 3, 0.801553
329, 1, bw, filler, NA, 999, 999, 2, 24, 137, 155, 116, 77, 68, 174, 1, 0.623112
329, 1, bw, filler, NA, 999, 999, 2, 24, 137, 155, 116, 77, 68, 174, 2, 0.429086
329, 1, bw, filler, NA, 999, 999, 2, 25, 154, 191, 89, 83, 127, 115, 1, 0.865439
329, 1, bw, filler, NA, 999, 999, 2, 25, 154, 191, 89, 83, 127, 115, 2, 0.461781
329, 1, bw, attraction, a-b-da, 5, 1, 2, 26, 135, 60, 132, 58, 60, 135, 1, 2.95295
329, 1, bw, attraction, a-b-da, 5, 1, 2, 26, 135, 60, 132, 58, 60, 135, 2, 1.96935
329, 1, bw, filler, NA, 999, 999, 2, 27, 65, 156, 170, 97, 117, 79, 2, 1.12801
329, 1, bw, filler, NA, 999, 999, 2, 27, 65, 156, 170, 97, 117, 79, 1, 3.8736
329, 1, bw, attraction, a-b-da, 9, 1, 2, 28, 135, 60, 129, 57, 60, 135, 1, 3.15565
329, 1, bw, attraction, a-b-da, 9, 1, 2, 28, 135, 60, 129, 57, 60, 135, 2, 0.587453
329, 1, bw, filler, NA, 999, 999, 2, 29, 107, 162, 155, 164, 131, 151, 2, 1.61772
329, 1, bw, filler, NA, 999, 999, 2, 29, 107, 162, 155, 164, 131, 151, 1, 0.567893
329, 1, bw, filler, NA, 999, 999, 2, 30, 175, 145, 76, 90, 178, 69, 1, 0.942923
329, 1, bw, filler, NA, 999, 999, 2, 30, 175, 145, 76, 90, 178, 69, 2, 0.44006
329, 1, bw, attraction, a-b-db, 9, 2, 2, 31, 90, 165, 165, 90, 86, 157, 2, 4.05994
329, 1, bw, attraction, a-b-db, 9, 2, 2, 31, 90, 165, 165, 90, 86, 157, 3, 0.655156
329, 1, bw, catch, NA, 999, 999, 2, 32, 121, 134, 75, 120, 181, 134, 3, 0.88297
329, 1, bw, catch, NA, 999, 999, 2, 32, 121, 134, 75, 120, 181, 134, 2, 0.406692
329, 1, bw, attraction, a-b-db, 5, 1, 2, 33, 60, 135, 58, 132, 135, 60, 3, 1.76379
329, 1, bw, attraction, a-b-db, 5, 1, 2, 33, 60, 135, 58, 132, 135, 60, 2, 0.43583
329, 1, bw, filler, NA, 999, 999, 2, 34, 112, 101, 180, 65, 72, 58, 1, 5.4803
329, 1, bw, filler, NA, 999, 999, 2, 34, 112, 101, 180, 65, 72, 58, 3, 0.77868
329, 1, bw, attraction, a-b-da, 14, 3, 2, 35, 195, 120, 120, 195, 181, 111, 1, 2.77689
329, 1, bw, attraction, a-b-da, 14, 3, 2, 35, 195, 120, 120, 195, 181, 111, 3, 0.472049
329, 1, bw, attraction, a-b-db, 14, 2, 2, 36, 165, 90, 90, 165, 83, 153, 1, 1.44311
329, 1, bw, attraction, a-b-db, 14, 2, 2, 36, 165, 90, 90, 165, 83, 153, 3, 0.488035
329, 1, bw, attraction, a-b-da, 14, 1, 2, 37, 60, 135, 135, 60, 125, 56, 2, 1.68256
329, 1, bw, attraction, a-b-da, 14, 1, 2, 37, 60, 135, 135, 60, 125, 56, 3, 0.357892
329, 1, bw, attraction, a-b-db, 2, 1, 3, 1, 59, 134, 135, 60, 60, 135, 2, 1.83709
329, 1, bw, attraction, a-b-db, 2, 1, 3, 1, 59, 134, 135, 60, 60, 135, 1, 0.514459
329, 1, bw, attraction, a-b-da, 2, 3, 3, 2, 195, 120, 193, 119, 120, 195, 3, 1.67559
329, 1, bw, attraction, a-b-da, 2, 3, 3, 2, 195, 120, 193, 119, 120, 195, 2, 1.40698
329, 1, bw, attraction, a-b-db, 2, 3, 3, 3, 195, 120, 120, 195, 119, 193, 3, 3.2359
329, 1, bw, attraction, a-b-db, 2, 3, 3, 3, 195, 120, 120, 195, 119, 193, 2, 1.1368
329, 1, bw, attraction, a-b-da, 2, 1, 3, 4, 60, 135, 135, 60, 134, 59, 3, 1.32907
329, 1, bw, attraction, a-b-da, 2, 1, 3, 4, 60, 135, 135, 60, 134, 59, 1, 0.458649
329, 1, bw, filler, NA, 999, 999, 3, 5, 147, 141, 80, 71, 170, 163, 3, 1.0538
329, 1, bw, filler, NA, 999, 999, 3, 5, 147, 141, 80, 71, 170, 163, 2, 0.306764
329, 1, bw, attraction, a-b-da, 9, 3, 3, 6, 195, 120, 120, 195, 186, 114, 2, 1.25993
329, 1, bw, attraction, a-b-da, 9, 3, 3, 6, 195, 120, 120, 195, 186, 114, 3, 0.360219
329, 1, bw, filler, NA, 999, 999, 3, 7, 111, 176, 125, 119, 76, 136, 1, 0.615396
329, 1, bw, filler, NA, 999, 999, 3, 7, 111, 176, 125, 119, 76, 136, 3, 0.637976
329, 1, bw, filler, NA, 999, 999, 3, 8, 116, 63, 123, 147, 139, 58, 2, 0.546159
329, 1, bw, filler, NA, 999, 999, 3, 8, 116, 63, 123, 147, 139, 58, 1, 0.66739
329, 1, bw, attraction, a-b-db, 5, 3, 3, 9, 117, 190, 195, 120, 120, 195, 3, 2.09436
329, 1, bw, attraction, a-b-db, 5, 3, 3, 9, 117, 190, 195, 120, 120, 195, 2, 0.409105
329, 1, bw, attraction, a-b-db, 9, 3, 3, 10, 195, 120, 120, 195, 114, 186, 2, 1.1504
329, 1, bw, attraction, a-b-db, 9, 3, 3, 10, 195, 120, 120, 195, 114, 186, 3, 0.975099
329, 1, bw, filler, NA, 999, 999, 3, 11, 94, 89, 129, 65, 87, 195, 3, 1.46147
329, 1, bw, filler, NA, 999, 999, 3, 11, 94, 89, 129, 65, 87, 195, 1, 0.577591
329, 1, bw, attraction, a-b-db, 9, 1, 3, 12, 57, 129, 60, 135, 135, 60, 3, 1.32006
329, 1, bw, attraction, a-b-db, 9, 1, 3, 12, 57, 129, 60, 135, 135, 60, 1, 1.16226
329, 1, bw, attraction, a-b-db, 2, 2, 3, 13, 90, 165, 89, 163, 165, 90, 3, 1.96923
329, 1, bw, attraction, a-b-db, 2, 2, 3, 13, 90, 165, 89, 163, 165, 90, 2, 0.47322
329, 1, bw, catch, NA, 999, 999, 3, 14, 123, 192, 93, 162, 122, 73, 1, 0.611771
329, 1, bw, catch, NA, 999, 999, 3, 14, 123, 192, 93, 162, 122, 73, 3, 0.410223
329, 1, bw, attraction, a-b-db, 5, 2, 3, 15, 90, 165, 88, 161, 165, 90, 3, 0.983358
329, 1, bw, attraction, a-b-db, 5, 2, 3, 15, 90, 165, 88, 161, 165, 90, 2, 0.702982
329, 1, bw, filler, NA, 999, 999, 3, 16, 155, 58, 179, 163, 143, 180, 2, 1.38476
329, 1, bw, filler, NA, 999, 999, 3, 16, 155, 58, 179, 163, 143, 180, 1, 0.760226
329, 1, bw, filler, NA, 999, 999, 3, 17, 71, 111, 152, 127, 160, 179, 3, 0.511266
329, 1, bw, filler, NA, 999, 999, 3, 17, 71, 111, 152, 127, 160, 179, 1, 0.497669
329, 1, bw, attraction, a-b-db, 9, 2, 3, 18, 165, 90, 90, 165, 86, 157, 1, 1.65951
329, 1, bw, attraction, a-b-db, 9, 2, 3, 18, 165, 90, 90, 165, 86, 157, 3, 0.335783
329, 1, bw, attraction, a-b-da, 9, 1, 3, 19, 60, 135, 135, 60, 129, 57, 2, 1.90415
329, 1, bw, attraction, a-b-da, 9, 1, 3, 19, 60, 135, 135, 60, 129, 57, 1, 0.722212
329, 1, bw, filler, NA, 999, 999, 3, 20, 100, 193, 56, 128, 178, 140, 3, 1.13927
329, 1, bw, filler, NA, 999, 999, 3, 20, 100, 193, 56, 128, 178, 140, 2, 1.81224
329, 1, bw, attraction, a-b-da, 9, 2, 3, 21, 90, 165, 157, 86, 165, 90, 2, 1.21686
329, 1, bw, attraction, a-b-da, 9, 2, 3, 21, 90, 165, 157, 86, 165, 90, 1, 0.335158
329, 1, bw, attraction, a-b-da, 14, 1, 3, 22, 135, 60, 60, 135, 125, 56, 1, 2.38369
329, 1, bw, attraction, a-b-da, 14, 1, 3, 22, 135, 60, 60, 135, 125, 56, 2, 1.56693
329, 1, bw, attraction, a-b-da, 5, 2, 3, 23, 161, 88, 165, 90, 90, 165, 2, 1.37363
329, 1, bw, attraction, a-b-da, 5, 2, 3, 23, 161, 88, 165, 90, 90, 165, 1, 0.645181
329, 1, bw, catch, NA, 999, 999, 3, 24, 68, 127, 137, 118, 186, 129, 3, 0.528944
329, 1, bw, catch, NA, 999, 999, 3, 24, 68, 127, 137, 118, 186, 129, 1, 0.618841
329, 1, bw, filler, NA, 999, 999, 3, 25, 135, 172, 185, 191, 123, 112, 2, 0.743828
329, 1, bw, filler, NA, 999, 999, 3, 25, 135, 172, 185, 191, 123, 112, 3, 0.297013
329, 1, bw, attraction, a-b-db, 14, 1, 3, 26, 135, 60, 60, 135, 56, 125, 1, 1.05874
329, 1, bw, attraction, a-b-db, 14, 1, 3, 26, 135, 60, 60, 135, 56, 125, 3, 0.407132
329, 1, bw, attraction, a-b-da, 5, 3, 3, 27, 190, 117, 195, 120, 120, 195, 3, 1.68429
329, 1, bw, attraction, a-b-da, 5, 3, 3, 27, 190, 117, 195, 120, 120, 195, 1, 0.983649
329, 1, bw, catch, NA, 999, 999, 3, 28, 128, 67, 141, 174, 108, 147, 2, 0.95791
329, 1, bw, catch, NA, 999, 999, 3, 28, 128, 67, 141, 174, 108, 147, 1, 0.590418
329, 1, bw, filler, NA, 999, 999, 3, 29, 75, 176, 93, 136, 173, 159, 3, 0.836034
329, 1, bw, filler, NA, 999, 999, 3, 29, 75, 176, 93, 136, 173, 159, 2, 3.95395
329, 1, bw, attraction, a-b-db, 14, 2, 3, 30, 165, 90, 90, 165, 83, 153, 1, 0.904523
329, 1, bw, attraction, a-b-db, 14, 2, 3, 30, 165, 90, 90, 165, 83, 153, 3, 0.770817
329, 1, bw, attraction, a-b-da, 14, 3, 3, 31, 195, 120, 181, 111, 120, 195, 1, 1.00991
329, 1, bw, attraction, a-b-da, 14, 3, 3, 31, 195, 120, 181, 111, 120, 195, 2, 0.368181
329, 1, bw, attraction, a-b-da, 5, 1, 3, 32, 132, 58, 60, 135, 135, 60, 3, 1.7034
329, 1, bw, attraction, a-b-da, 5, 1, 3, 32, 132, 58, 60, 135, 135, 60, 1, 1.41812
329, 1, bw, attraction, a-b-da, 14, 2, 3, 33, 165, 90, 90, 165, 153, 83, 2, 2.07896
329, 1, bw, attraction, a-b-da, 14, 2, 3, 33, 165, 90, 90, 165, 153, 83, 3, 0.370293
329, 1, bw, attraction, a-b-db, 5, 1, 3, 34, 135, 60, 58, 132, 60, 135, 1, 2.80941
329, 1, bw, attraction, a-b-db, 5, 1, 3, 34, 135, 60, 58, 132, 60, 135, 2, 0.479316
329, 1, bw, attraction, a-b-db, 14, 3, 3, 35, 111, 181, 195, 120, 120, 195, 3, 1.48177
329, 1, bw, attraction, a-b-db, 14, 3, 3, 35, 111, 181, 195, 120, 120, 195, 1, 1.47716
329, 1, bw, filler, NA, 999, 999, 3, 36, 95, 145, 140, 167, 135, 94, 2, 0.895329
329, 1, bw, filler, NA, 999, 999, 3, 36, 95, 145, 140, 167, 135, 94, 3, 2.73042
329, 1, bw, attraction, a-b-da, 2, 2, 3, 37, 165, 90, 163, 89, 90, 165, 3, 2.49014
329, 1, bw, attraction, a-b-da, 2, 2, 3, 37, 165, 90, 163, 89, 90, 165, 2, 1.3806
329, 1, bw, filler, NA, 999, 999, 4, 1, 100, 129, 189, 161, 111, 150, 2, 0.722821
329, 1, bw, filler, NA, 999, 999, 4, 1, 100, 129, 189, 161, 111, 150, 1, 0.596577
329, 1, bw, filler, NA, 999, 999, 4, 2, 171, 153, 114, 67, 118, 139, 1, 0.858328
329, 1, bw, filler, NA, 999, 999, 4, 2, 171, 153, 114, 67, 118, 139, 2, 0.430651
329, 1, bw, attraction, a-b-db, 5, 1, 4, 3, 60, 135, 135, 60, 58, 132, 2, 1.41921
329, 1, bw, attraction, a-b-db, 5, 1, 4, 3, 60, 135, 135, 60, 58, 132, 3, 0.825416
329, 1, bw, attraction, a-b-da, 2, 2, 4, 4, 90, 165, 165, 90, 163, 89, 1, 3.3577
329, 1, bw, attraction, a-b-da, 2, 2, 4, 4, 90, 165, 165, 90, 163, 89, 3, 1.75729
329, 1, bw, catch, NA, 999, 999, 4, 5, 135, 120, 92, 103, 149, 166, 3, 0.980065
329, 1, bw, catch, NA, 999, 999, 4, 5, 135, 120, 92, 103, 149, 166, 2, 0.379815
329, 1, bw, attraction, a-b-da, 5, 1, 4, 6, 60, 135, 132, 58, 135, 60, 3, 2.26624
329, 1, bw, attraction, a-b-da, 5, 1, 4, 6, 60, 135, 132, 58, 135, 60, 1, 0.598168
329, 1, bw, attraction, a-b-db, 2, 1, 4, 7, 135, 60, 59, 134, 60, 135, 1, 2.31609
329, 1, bw, attraction, a-b-db, 2, 1, 4, 7, 135, 60, 59, 134, 60, 135, 2, 1.46982
329, 1, bw, filler, NA, 999, 999, 4, 8, 147, 126, 190, 156, 161, 109, 2, 0.776664
329, 1, bw, filler, NA, 999, 999, 4, 8, 147, 126, 190, 156, 161, 109, 3, 1.69631
329, 1, bw, filler, NA, 999, 999, 4, 9, 94, 79, 131, 68, 69, 131, 3, 5.87376
329, 1, bw, filler, NA, 999, 999, 4, 9, 94, 79, 131, 68, 69, 131, 1, 0.483851
329, 1, bw, attraction, a-b-da, 5, 3, 4, 10, 190, 117, 120, 195, 195, 120, 2, 2.02229
329, 1, bw, attraction, a-b-da, 5, 3, 4, 10, 190, 117, 120, 195, 195, 120, 1, 0.547665
329, 1, bw, attraction, a-b-db, 5, 3, 4, 11, 195, 120, 120, 195, 117, 190, 2, 1.84362
329, 1, bw, attraction, a-b-db, 5, 3, 4, 11, 195, 120, 120, 195, 117, 190, 3, 0.872191
329, 1, bw, filler, NA, 999, 999, 4, 12, 155, 181, 108, 79, 152, 121, 1, 0.811217
329, 1, bw, filler, NA, 999, 999, 4, 12, 155, 181, 108, 79, 152, 121, 2, 0.329592
329, 1, bw, attraction, a-b-db, 9, 3, 4, 13, 114, 186, 120, 195, 195, 120, 2, 1.38604
329, 1, bw, attraction, a-b-db, 9, 3, 4, 13, 114, 186, 120, 195, 195, 120, 1, 0.433564
329, 1, bw, attraction, a-b-da, 14, 3, 4, 14, 195, 120, 120, 195, 181, 111, 2, 2.68614
329, 1, bw, attraction, a-b-da, 14, 3, 4, 14, 195, 120, 120, 195, 181, 111, 1, 0.313223
329, 1, bw, attraction, a-b-db, 14, 1, 4, 15, 56, 125, 135, 60, 60, 135, 3, 1.51439
329, 1, bw, attraction, a-b-db, 14, 1, 4, 15, 56, 125, 135, 60, 60, 135, 1, 0.364562
329, 1, bw, attraction, a-b-da, 5, 2, 4, 16, 161, 88, 165, 90, 90, 165, 3, 4.80367
329, 1, bw, attraction, a-b-da, 5, 2, 4, 16, 161, 88, 165, 90, 90, 165, 1, 0.457505
329, 1, bw, attraction, a-b-db, 9, 1, 4, 17, 60, 135, 57, 129, 135, 60, 3, 1.72479
329, 1, bw, attraction, a-b-db, 9, 1, 4, 17, 60, 135, 57, 129, 135, 60, 2, 0.454114
329, 1, bw, attraction, a-b-db, 5, 2, 4, 18, 90, 165, 88, 161, 165, 90, 2, 2.46589
329, 1, bw, attraction, a-b-db, 5, 2, 4, 18, 90, 165, 88, 161, 165, 90, 1, 0.821806
329, 1, bw, attraction, a-b-da, 9, 3, 4, 19, 120, 195, 195, 120, 186, 114, 2, 2.50684
329, 1, bw, attraction, a-b-da, 9, 3, 4, 19, 120, 195, 195, 120, 186, 114, 3, 0.700648
329, 1, bw, attraction, a-b-da, 2, 3, 4, 20, 195, 120, 120, 195, 193, 119, 2, 1.20635
329, 1, bw, attraction, a-b-da, 2, 3, 4, 20, 195, 120, 120, 195, 193, 119, 1, 0.468625
329, 1, bw, attraction, a-b-da, 14, 1, 4, 21, 125, 56, 60, 135, 135, 60, 3, 1.33573
329, 1, bw, attraction, a-b-da, 14, 1, 4, 21, 125, 56, 60, 135, 135, 60, 1, 0.945331
329, 1, bw, attraction, a-b-da, 9, 2, 4, 22, 90, 165, 165, 90, 157, 86, 2, 3.28094
329, 1, bw, attraction, a-b-da, 9, 2, 4, 22, 90, 165, 165, 90, 157, 86, 3, 0.323856
329, 1, bw, attraction, a-b-db, 2, 3, 4, 23, 119, 193, 195, 120, 120, 195, 3, 1.94039
329, 1, bw, attraction, a-b-db, 2, 3, 4, 23, 119, 193, 195, 120, 120, 195, 1, 0.7651
329, 1, bw, filler, NA, 999, 999, 4, 24, 135, 123, 58, 105, 84, 140, 1, 0.924065
329, 1, bw, filler, NA, 999, 999, 4, 24, 135, 123, 58, 105, 84, 140, 2, 0.341752
329, 1, bw, attraction, a-b-db, 14, 3, 4, 25, 111, 181, 195, 120, 120, 195, 2, 2.25376
329, 1, bw, attraction, a-b-db, 14, 3, 4, 25, 111, 181, 195, 120, 120, 195, 1, 0.666261
329, 1, bw, attraction, a-b-da, 2, 1, 4, 26, 134, 59, 60, 135, 135, 60, 3, 1.40541
329, 1, bw, attraction, a-b-da, 2, 1, 4, 26, 134, 59, 60, 135, 135, 60, 2, 1.18758
329, 1, bw, filler, NA, 999, 999, 4, 27, 152, 143, 102, 93, 104, 115, 1, 0.737709
329, 1, bw, filler, NA, 999, 999, 4, 27, 152, 143, 102, 93, 104, 115, 2, 0.651489
329, 1, bw, attraction, a-b-db, 14, 2, 4, 28, 165, 90, 90, 165, 83, 153, 2, 1.22324
329, 1, bw, attraction, a-b-db, 14, 2, 4, 28, 165, 90, 90, 165, 83, 153, 3, 0.405048
329, 1, bw, attraction, a-b-da, 14, 2, 4, 29, 153, 83, 165, 90, 90, 165, 2, 3.5147
329, 1, bw, attraction, a-b-da, 14, 2, 4, 29, 153, 83, 165, 90, 90, 165, 1, 0.276329
329, 1, bw, filler, NA, 999, 999, 4, 30, 77, 147, 71, 134, 129, 120, 3, 0.886701
329, 1, bw, filler, NA, 999, 999, 4, 30, 77, 147, 71, 134, 129, 120, 2, 0.490382
329, 1, bw, attraction, a-b-db, 2, 2, 4, 31, 89, 163, 165, 90, 90, 165, 3, 1.9962
329, 1, bw, attraction, a-b-db, 2, 2, 4, 31, 89, 163, 165, 90, 90, 165, 2, 1.07485
329, 1, bw, attraction, a-b-db, 9, 2, 4, 32, 86, 157, 90, 165, 165, 90, 2, 1.5731
329, 1, bw, attraction, a-b-db, 9, 2, 4, 32, 86, 157, 90, 165, 165, 90, 1, 1.09275
329, 1, bw, filler, NA, 999, 999, 4, 33, 59, 63, 103, 99, 98, 195, 3, 0.790251
329, 1, bw, filler, NA, 999, 999, 4, 33, 59, 63, 103, 99, 98, 195, 1, 0.637341
329, 1, bw, filler, NA, 999, 999, 4, 34, 142, 161, 124, 99, 175, 187, 3, 0.905876
329, 1, bw, filler, NA, 999, 999, 4, 34, 142, 161, 124, 99, 175, 187, 2, 0.380087
329, 1, bw, catch, NA, 999, 999, 4, 35, 166, 149, 101, 94, 138, 117, 1, 0.762495
329, 1, bw, catch, NA, 999, 999, 4, 35, 166, 149, 101, 94, 138, 117, 2, 0.931007
329, 1, bw, attraction, a-b-da, 9, 1, 4, 36, 60, 135, 129, 57, 135, 60, 2, 1.53139
329, 1, bw, attraction, a-b-da, 9, 1, 4, 36, 60, 135, 129, 57, 135, 60, 3, 0.844803
329, 1, bw, catch, NA, 999, 999, 4, 37, 99, 96, 145, 110, 124, 191, 3, 1.20856
329, 1, bw, catch, NA, 999, 999, 4, 37, 99, 96, 145, 110, 124, 191, 1, 0.790712
329, 1, bw, filler, NA, 999, 999, 5, 1, 99, 101, 66, 145, 79, 91, 1, 2.85902
329, 1, bw, filler, NA, 999, 999, 5, 1, 99, 101, 66, 145, 79, 91, 3, 0.582931
329, 1, bw, attraction, a-b-da, 5, 3, 5, 2, 190, 117, 120, 195, 195, 120, 2, 1.98927
329, 1, bw, attraction, a-b-da, 5, 3, 5, 2, 190, 117, 120, 195, 195, 120, 1, 0.275804
329, 1, bw, attraction, a-b-db, 9, 3, 5, 3, 120, 195, 195, 120, 114, 186, 1, 2.23839
329, 1, bw, attraction, a-b-db, 9, 3, 5, 3, 120, 195, 195, 120, 114, 186, 3, 0.419013
329, 1, bw, attraction, a-b-da, 9, 1, 5, 4, 129, 57, 60, 135, 135, 60, 3, 1.50415
329, 1, bw, attraction, a-b-da, 9, 1, 5, 4, 129, 57, 60, 135, 135, 60, 2, 0.386965
329, 1, bw, filler, NA, 999, 999, 5, 5, 147, 113, 76, 89, 109, 77, 1, 0.705403
329, 1, bw, filler, NA, 999, 999, 5, 5, 147, 113, 76, 89, 109, 77, 2, 0.611846
329, 1, bw, filler, NA, 999, 999, 5, 6, 100, 172, 60, 182, 76, 111, 1, 1.51304
329, 1, bw, filler, NA, 999, 999, 5, 6, 100, 172, 60, 182, 76, 111, 3, 1.3633
329, 1, bw, attraction, a-b-db, 5, 1, 5, 7, 135, 60, 58, 132, 60, 135, 1, 1.41002
329, 1, bw, attraction, a-b-db, 5, 1, 5, 7, 135, 60, 58, 132, 60, 135, 2, 0.312325
329, 1, bw, attraction, a-b-db, 9, 2, 5, 8, 165, 90, 90, 165, 86, 157, 1, 2.32137
329, 1, bw, attraction, a-b-db, 9, 2, 5, 8, 165, 90, 90, 165, 86, 157, 3, 0.451231
329, 1, bw, catch, NA, 999, 999, 5, 9, 176, 139, 104, 151, 124, 71, 1, 0.775009
329, 1, bw, catch, NA, 999, 999, 5, 9, 176, 139, 104, 151, 124, 71, 3, 0.42279
329, 1, bw, attraction, a-b-db, 5, 2, 5, 10, 90, 165, 88, 161, 165, 90, 3, 1.06793
329, 1, bw, attraction, a-b-db, 5, 2, 5, 10, 90, 165, 88, 161, 165, 90, 2, 0.952307
329, 1, bw, attraction, a-b-db, 14, 3, 5, 11, 120, 195, 111, 181, 195, 120, 3, 1.48791
329, 1, bw, attraction, a-b-db, 14, 3, 5, 11, 120, 195, 111, 181, 195, 120, 2, 0.867443
329, 1, bw, catch, NA, 999, 999, 5, 12, 141, 174, 99, 156, 116, 79, 1, 0.686369
329, 1, bw, catch, NA, 999, 999, 5, 12, 141, 174, 99, 156, 116, 79, 3, 0.682203
329, 1, bw, attraction, a-b-da, 2, 1, 5, 13, 134, 59, 135, 60, 60, 135, 2, 1.24458
329, 1, bw, attraction, a-b-da, 2, 1, 5, 13, 134, 59, 135, 60, 60, 135, 3, 0.281498
329, 1, bw, attraction, a-b-db, 2, 1, 5, 14, 60, 135, 59, 134, 135, 60, 3, 1.54006
329, 1, bw, attraction, a-b-db, 2, 1, 5, 14, 60, 135, 59, 134, 135, 60, 2, 0.668794
329, 1, bw, filler, NA, 999, 999, 5, 15, 76, 107, 195, 84, 118, 146, 2, 4.55185
329, 1, bw, filler, NA, 999, 999, 5, 15, 76, 107, 195, 84, 118, 146, 1, 0.319777
329, 1, bw, filler, NA, 999, 999, 5, 16, 182, 88, 154, 180, 79, 195, 2, 0.608957
329, 1, bw, filler, NA, 999, 999, 5, 16, 182, 88, 154, 180, 79, 195, 3, 1.93545
329, 1, bw, attraction, a-b-db, 9, 1, 5, 17, 60, 135, 135, 60, 57, 129, 2, 1.83157
329, 1, bw, attraction, a-b-db, 9, 1, 5, 17, 60, 135, 135, 60, 57, 129, 3, 0.380835
329, 1, bw, filler, NA, 999, 999, 5, 18, 71, 75, 133, 58, 99, 90, 3, 2.53139
329, 1, bw, filler, NA, 999, 999, 5, 18, 71, 75, 133, 58, 99, 90, 1, 0.404538
329, 1, bw, attraction, a-b-da, 9, 3, 5, 19, 120, 195, 186, 114, 195, 120, 1, 1.85029
329, 1, bw, attraction, a-b-da, 9, 3, 5, 19, 120, 195, 186, 114, 195, 120, 2, 0.479106
329, 1, bw, filler, NA, 999, 999, 5, 20, 80, 71, 181, 135, 182, 186, 3, 1.29756
329, 1, bw, filler, NA, 999, 999, 5, 20, 80, 71, 181, 135, 182, 186, 1, 0.636382
329, 1, bw, filler, NA, 999, 999, 5, 21, 148, 98, 107, 81, 189, 66, 1, 4.7129
329, 1, bw, filler, NA, 999, 999, 5, 21, 148, 98, 107, 81, 189, 66, 2, 0.393923
329, 1, bw, attraction, a-b-da, 5, 2, 5, 22, 165, 90, 90, 165, 161, 88, 1, 1.71977
329, 1, bw, attraction, a-b-da, 5, 2, 5, 22, 165, 90, 90, 165, 161, 88, 3, 0.72187
329, 1, bw, attraction, a-b-db, 2, 3, 5, 23, 120, 195, 195, 120, 119, 193, 1, 2.2669
329, 1, bw, attraction, a-b-db, 2, 3, 5, 23, 120, 195, 195, 120, 119, 193, 3, 0.614814
329, 1, bw, attraction, a-b-db, 14, 2, 5, 24, 90, 165, 83, 153, 165, 90, 1, 3.81204
329, 1, bw, attraction, a-b-db, 14, 2, 5, 24, 90, 165, 83, 153, 165, 90, 2, 0.265437
329, 1, bw, attraction, a-b-da, 14, 1, 5, 25, 135, 60, 125, 56, 60, 135, 1, 1.11657
329, 1, bw, attraction, a-b-da, 14, 1, 5, 25, 135, 60, 125, 56, 60, 135, 2, 0.39888
329, 1, bw, attraction, a-b-da, 9, 2, 5, 26, 90, 165, 165, 90, 157, 86, 2, 2.05278
329, 1, bw, attraction, a-b-da, 9, 2, 5, 26, 90, 165, 165, 90, 157, 86, 1, 0.377399
329, 1, bw, attraction, a-b-da, 5, 1, 5, 27, 132, 58, 60, 135, 135, 60, 1, 0.815801
329, 1, bw, attraction, a-b-da, 5, 1, 5, 27, 132, 58, 60, 135, 135, 60, 2, 0.454394
329, 1, bw, filler, NA, 999, 999, 5, 28, 135, 145, 188, 124, 167, 84, 2, 0.698074
329, 1, bw, filler, NA, 999, 999, 5, 28, 135, 145, 188, 124, 167, 84, 3, 0.861102
329, 1, bw, attraction, a-b-db, 2, 2, 5, 29, 90, 165, 165, 90, 89, 163, 2, 2.50412
329, 1, bw, attraction, a-b-db, 2, 2, 5, 29, 90, 165, 165, 90, 89, 163, 1, 0.438632
329, 1, bw, attraction, a-b-da, 14, 3, 5, 30, 195, 120, 120, 195, 181, 111, 2, 1.63932
329, 1, bw, attraction, a-b-da, 14, 3, 5, 30, 195, 120, 120, 195, 181, 111, 3, 0.44397
329, 1, bw, attraction, a-b-da, 2, 2, 5, 31, 90, 165, 163, 89, 165, 90, 3, 3.11976
329, 1, bw, attraction, a-b-da, 2, 2, 5, 31, 90, 165, 163, 89, 165, 90, 2, 0.345379
329, 1, bw, catch, NA, 999, 999, 5, 32, 178, 137, 64, 131, 156, 99, 1, 0.657175
329, 1, bw, catch, NA, 999, 999, 5, 32, 178, 137, 64, 131, 156, 99, 2, 0.397682
329, 1, bw, attraction, a-b-db, 14, 1, 5, 33, 56, 125, 135, 60, 60, 135, 2, 1.93955
329, 1, bw, attraction, a-b-db, 14, 1, 5, 33, 56, 125, 135, 60, 60, 135, 1, 0.548147
329, 1, bw, filler, NA, 999, 999, 5, 34, 171, 120, 125, 148, 131, 99, 1, 0.947985
329, 1, bw, filler, NA, 999, 999, 5, 34, 171, 120, 125, 148, 131, 99, 3, 0.437061
329, 1, bw, attraction, a-b-da, 14, 2, 5, 35, 165, 90, 153, 83, 90, 165, 1, 0.873458
329, 1, bw, attraction, a-b-da, 14, 2, 5, 35, 165, 90, 153, 83, 90, 165, 2, 0.381164
329, 1, bw, attraction, a-b-da, 2, 3, 5, 36, 195, 120, 193, 119, 120, 195, 3, 2.91568
329, 1, bw, attraction, a-b-da, 2, 3, 5, 36, 195, 120, 193, 119, 120, 195, 2, 0.269395
329, 1, bw, attraction, a-b-db, 5, 3, 5, 37, 195, 120, 120, 195, 117, 190, 2, 1.54458
329, 1, bw, attraction, a-b-db, 5, 3, 5, 37, 195, 120, 120, 195, 117, 190, 3, 0.481401
329, 1, bw, attraction, a-b-da, 9, 2, 6, 1, 90, 165, 157, 86, 165, 90, 1, 1.05192
329, 1, bw, attraction, a-b-da, 9, 2, 6, 1, 90, 165, 157, 86, 165, 90, 2, 0.496874
329, 1, bw, attraction, a-b-db, 5, 1, 6, 2, 58, 132, 135, 60, 60, 135, 2, 1.16259
329, 1, bw, attraction, a-b-db, 5, 1, 6, 2, 58, 132, 135, 60, 60, 135, 1, 0.562806
329, 1, bw, attraction, a-b-da, 9, 3, 6, 3, 186, 114, 120, 195, 195, 120, 3, 0.986012
329, 1, bw, attraction, a-b-da, 9, 3, 6, 3, 186, 114, 120, 195, 195, 120, 1, 1.16976
329, 1, bw, filler, NA, 999, 999, 6, 4, 71, 72, 145, 177, 147, 104, 2, 0.832601
329, 1, bw, filler, NA, 999, 999, 6, 4, 71, 72, 145, 177, 147, 104, 1, 0.390239
329, 1, bw, attraction, a-b-db, 9, 2, 6, 5, 86, 157, 165, 90, 90, 165, 3, 1.53215
329, 1, bw, attraction, a-b-db, 9, 2, 6, 5, 86, 157, 165, 90, 90, 165, 1, 0.765604
329, 1, bw, attraction, a-b-da, 2, 1, 6, 6, 135, 60, 60, 135, 134, 59, 1, 1.89259
329, 1, bw, attraction, a-b-da, 2, 1, 6, 6, 135, 60, 60, 135, 134, 59, 2, 0.855293
329, 1, bw, attraction, a-b-db, 5, 2, 6, 7, 88, 161, 165, 90, 90, 165, 2, 0.906994
329, 1, bw, attraction, a-b-db, 5, 2, 6, 7, 88, 161, 165, 90, 90, 165, 3, 0.813364
329, 1, bw, attraction, a-b-da, 14, 3, 6, 8, 120, 195, 195, 120, 181, 111, 2, 1.79444
329, 1, bw, attraction, a-b-da, 14, 3, 6, 8, 120, 195, 195, 120, 181, 111, 3, 0.353166
329, 1, bw, filler, NA, 999, 999, 6, 9, 151, 76, 175, 93, 58, 106, 2, 0.856939
329, 1, bw, filler, NA, 999, 999, 6, 9, 151, 76, 175, 93, 58, 106, 3, 0.485271
329, 1, bw, attraction, a-b-db, 9, 3, 6, 10, 195, 120, 114, 186, 120, 195, 3, 0.9518
329, 1, bw, attraction, a-b-db, 9, 3, 6, 10, 195, 120, 114, 186, 120, 195, 2, 0.344823
329, 1, bw, filler, NA, 999, 999, 6, 11, 187, 169, 127, 56, 71, 149, 1, 0.584626
329, 1, bw, filler, NA, 999, 999, 6, 11, 187, 169, 127, 56, 71, 149, 2, 0.392457
329, 1, bw, attraction, a-b-da, 5, 1, 6, 12, 60, 135, 135, 60, 132, 58, 2, 1.71841
329, 1, bw, attraction, a-b-da, 5, 1, 6, 12, 60, 135, 135, 60, 132, 58, 1, 0.480397
329, 1, bw, attraction, a-b-db, 2, 3, 6, 13, 119, 193, 195, 120, 120, 195, 2, 2.01895
329, 1, bw, attraction, a-b-db, 2, 3, 6, 13, 119, 193, 195, 120, 120, 195, 3, 0.728843
329, 1, bw, attraction, a-b-db, 2, 1, 6, 14, 60, 135, 135, 60, 59, 134, 2, 1.48125
329, 1, bw, attraction, a-b-db, 2, 1, 6, 14, 60, 135, 135, 60, 59, 134, 3, 0.884884
329, 1, bw, attraction, a-b-db, 14, 1, 6, 15, 56, 125, 60, 135, 135, 60, 3, 1.59905
329, 1, bw, attraction, a-b-db, 14, 1, 6, 15, 56, 125, 60, 135, 135, 60, 1, 0.590033
329, 1, bw, attraction, a-b-da, 14, 2, 6, 16, 153, 83, 165, 90, 90, 165, 2, 1.17168
329, 1, bw, attraction, a-b-da, 14, 2, 6, 16, 153, 83, 165, 90, 90, 165, 1, 0.507191
329, 1, bw, filler, NA, 999, 999, 6, 17, 125, 142, 106, 134, 143, 193, 3, 0.748336
329, 1, bw, filler, NA, 999, 999, 6, 17, 125, 142, 106, 134, 143, 193, 2, 0.429423
329, 1, bw, attraction, a-b-db, 5, 3, 6, 18, 117, 190, 195, 120, 120, 195, 2, 0.793924
329, 1, bw, attraction, a-b-db, 5, 3, 6, 18, 117, 190, 195, 120, 120, 195, 1, 0.336886
329, 1, bw, attraction, a-b-da, 5, 3, 6, 19, 195, 120, 190, 117, 120, 195, 1, 1.5614
329, 1, bw, attraction, a-b-da, 5, 3, 6, 19, 195, 120, 190, 117, 120, 195, 2, 0.673596
329, 1, bw, filler, NA, 999, 999, 6, 20, 103, 98, 158, 68, 80, 164, 3, 2.11601
329, 1, bw, filler, NA, 999, 999, 6, 20, 103, 98, 158, 68, 80, 164, 2, 2.03011
329, 1, bw, attraction, a-b-da, 5, 2, 6, 21, 90, 165, 161, 88, 165, 90, 3, 3.21794
329, 1, bw, attraction, a-b-da, 5, 2, 6, 21, 90, 165, 161, 88, 165, 90, 1, 0.431617
329, 1, bw, attraction, a-b-da, 2, 3, 6, 22, 120, 195, 193, 119, 195, 120, 1, 2.32409
329, 1, bw, attraction, a-b-da, 2, 3, 6, 22, 120, 195, 193, 119, 195, 120, 3, 0.445292
329, 1, bw, attraction, a-b-da, 9, 1, 6, 23, 129, 57, 135, 60, 60, 135, 3, 2.96922
329, 1, bw, attraction, a-b-da, 9, 1, 6, 23, 129, 57, 135, 60, 60, 135, 1, 1.04075
329, 1, bw, filler, NA, 999, 999, 6, 24, 83, 184, 85, 114, 68, 123, 1, 1.10845
329, 1, bw, filler, NA, 999, 999, 6, 24, 83, 184, 85, 114, 68, 123, 3, 1.07882
329, 1, bw, filler, NA, 999, 999, 6, 25, 173, 144, 140, 84, 182, 115, 1, 1.32094
329, 1, bw, filler, NA, 999, 999, 6, 25, 173, 144, 140, 84, 182, 115, 2, 0.490481
329, 1, bw, catch, NA, 999, 999, 6, 26, 171, 144, 101, 94, 115, 140, 1, 0.532289
329, 1, bw, catch, NA, 999, 999, 6, 26, 171, 144, 101, 94, 115, 140, 2, 0.374151
329, 1, bw, attraction, a-b-db, 14, 2, 6, 27, 90, 165, 165, 90, 83, 153, 2, 0.756625
329, 1, bw, attraction, a-b-db, 14, 2, 6, 27, 90, 165, 165, 90, 83, 153, 3, 0.341086
329, 1, bw, attraction, a-b-db, 14, 3, 6, 28, 111, 181, 195, 120, 120, 195, 3, 1.4209
329, 1, bw, attraction, a-b-db, 14, 3, 6, 28, 111, 181, 195, 120, 120, 195, 1, 0.483166
329, 1, bw, catch, NA, 999, 999, 6, 29, 93, 102, 98, 157, 127, 188, 3, 0.73354
329, 1, bw, catch, NA, 999, 999, 6, 29, 93, 102, 98, 157, 127, 188, 1, 0.431285
329, 1, bw, attraction, a-b-db, 2, 2, 6, 30, 90, 165, 89, 163, 165, 90, 3, 3.32382
329, 1, bw, attraction, a-b-db, 2, 2, 6, 30, 90, 165, 89, 163, 165, 90, 2, 0.356634
329, 1, bw, filler, NA, 999, 999, 6, 31, 92, 118, 132, 120, 180, 78, 2, 1.23584
329, 1, bw, filler, NA, 999, 999, 6, 31, 92, 118, 132, 120, 180, 78, 3, 0.713417
329, 1, bw, catch, NA, 999, 999, 6, 32, 150, 105, 149, 166, 75, 120, 2, 0.778528
329, 1, bw, catch, NA, 999, 999, 6, 32, 150, 105, 149, 166, 75, 120, 3, 0.738167
329, 1, bw, filler, NA, 999, 999, 6, 33, 182, 79, 140, 165, 131, 142, 2, 1.63464
329, 1, bw, filler, NA, 999, 999, 6, 33, 182, 79, 140, 165, 131, 142, 1, 2.232
329, 1, bw, filler, NA, 999, 999, 6, 34, 77, 175, 192, 59, 115, 151, 3, 3.55612
329, 1, bw, filler, NA, 999, 999, 6, 34, 77, 175, 192, 59, 115, 151, 2, 0.523536
329, 1, bw, attraction, a-b-db, 9, 1, 6, 35, 135, 60, 57, 129, 60, 135, 1, 3.85992
329, 1, bw, attraction, a-b-db, 9, 1, 6, 35, 135, 60, 57, 129, 60, 135, 2, 0.415447
329, 1, bw, attraction, a-b-da, 14, 1, 6, 36, 60, 135, 125, 56, 135, 60, 3, 1.60454
329, 1, bw, attraction, a-b-da, 14, 1, 6, 36, 60, 135, 125, 56, 135, 60, 2, 0.314694
329, 1, bw, attraction, a-b-da, 2, 2, 6, 37, 165, 90, 163, 89, 90, 165, 3, 1.93994
329, 1, bw, attraction, a-b-da, 2, 2, 6, 37, 165, 90, 163, 89, 90, 165, 2, 0.460518
329, 1, bw, attraction, a-b-db, 14, 3, 7, 1, 111, 181, 120, 195, 195, 120, 2, 3.41581
329, 1, bw, attraction, a-b-db, 14, 3, 7, 1, 111, 181, 120, 195, 195, 120, 3, 0.285203
329, 1, bw, attraction, a-b-db, 5, 2, 7, 2, 88, 161, 90, 165, 165, 90, 2, 2.52771
329, 1, bw, attraction, a-b-db, 5, 2, 7, 2, 88, 161, 90, 165, 165, 90, 1, 0.400983
329, 1, bw, attraction, a-b-da, 2, 1, 7, 3, 60, 135, 135, 60, 134, 59, 2, 1.22269
329, 1, bw, attraction, a-b-da, 2, 1, 7, 3, 60, 135, 135, 60, 134, 59, 1, 0.5163
329, 1, bw, catch, NA, 999, 999, 7, 4, 182, 133, 136, 119, 105, 90, 1, 0.645536
329, 1, bw, catch, NA, 999, 999, 7, 4, 182, 133, 136, 119, 105, 90, 3, 0.434509
329, 1, bw, attraction, a-b-da, 14, 3, 7, 5, 120, 195, 195, 120, 181, 111, 2, 1.72708
329, 1, bw, attraction, a-b-da, 14, 3, 7, 5, 120, 195, 195, 120, 181, 111, 3, 0.208559
329, 1, bw, filler, NA, 999, 999, 7, 6, 71, 156, 64, 185, 142, 189, 3, 0.86978
329, 1, bw, filler, NA, 999, 999, 7, 6, 71, 156, 64, 185, 142, 189, 1, 0.409984
329, 1, bw, attraction, a-b-da, 9, 3, 7, 7, 195, 120, 186, 114, 120, 195, 1, 0.703238
329, 1, bw, attraction, a-b-da, 9, 3, 7, 7, 195, 120, 186, 114, 120, 195, 2, 0.362352
329, 1, bw, attraction, a-b-db, 5, 3, 7, 8, 195, 120, 117, 190, 120, 195, 2, 0.769508
329, 1, bw, attraction, a-b-db, 5, 3, 7, 8, 195, 120, 117, 190, 120, 195, 1, 0.809839
329, 1, bw, attraction, a-b-da, 9, 1, 7, 9, 60, 135, 135, 60, 129, 57, 2, 1.55084
329, 1, bw, attraction, a-b-da, 9, 1, 7, 9, 60, 135, 135, 60, 129, 57, 1, 0.287659
329, 1, bw, attraction, a-b-db, 2, 2, 7, 10, 90, 165, 89, 163, 165, 90, 2, 1.72223
329, 1, bw, attraction, a-b-db, 2, 2, 7, 10, 90, 165, 89, 163, 165, 90, 1, 0.267601
329, 1, bw, attraction, a-b-da, 2, 3, 7, 11, 193, 119, 120, 195, 195, 120, 1, 1.51887
329, 1, bw, attraction, a-b-da, 2, 3, 7, 11, 193, 119, 120, 195, 195, 120, 2, 0.320992
329, 1, bw, catch, NA, 999, 999, 7, 12, 153, 162, 134, 121, 105, 90, 1, 0.45032
329, 1, bw, catch, NA, 999, 999, 7, 12, 153, 162, 134, 121, 105, 90, 3, 0.839406
329, 1, bw, attraction, a-b-da, 5, 3, 7, 13, 190, 117, 195, 120, 120, 195, 2, 0.931839
329, 1, bw, attraction, a-b-da, 5, 3, 7, 13, 190, 117, 195, 120, 120, 195, 1, 0.213338
329, 1, bw, attraction, a-b-da, 5, 1, 7, 14, 132, 58, 135, 60, 60, 135, 2, 0.978507
329, 1, bw, attraction, a-b-da, 5, 1, 7, 14, 132, 58, 135, 60, 60, 135, 3, 0.354193
329, 1, bw, filler, NA, 999, 999, 7, 15, 105, 164, 135, 132, 63, 125, 1, 1.07409
329, 1, bw, filler, NA, 999, 999, 7, 15, 105, 164, 135, 132, 63, 125, 3, 0.421659
329, 1, bw, attraction, a-b-db, 2, 1, 7, 16, 60, 135, 135, 60, 59, 134, 2, 1.3069
329, 1, bw, attraction, a-b-db, 2, 1, 7, 16, 60, 135, 135, 60, 59, 134, 1, 0.269101
329, 1, bw, attraction, a-b-db, 14, 2, 7, 17, 83, 153, 90, 165, 165, 90, 2, 2.19233
329, 1, bw, attraction, a-b-db, 14, 2, 7, 17, 83, 153, 90, 165, 165, 90, 1, 0.53492
329, 1, bw, attraction, a-b-db, 2, 3, 7, 18, 195, 120, 119, 193, 120, 195, 3, 2.33543
329, 1, bw, attraction, a-b-db, 2, 3, 7, 18, 195, 120, 119, 193, 120, 195, 1, 0.464549
329, 1, bw, filler, NA, 999, 999, 7, 19, 102, 158, 170, 94, 89, 102, 1, 2.34763
329, 1, bw, filler, NA, 999, 999, 7, 19, 102, 158, 170, 94, 89, 102, 3, 0.348285
329, 1, bw, filler, NA, 999, 999, 7, 20, 182, 61, 57, 168, 145, 117, 3, 0.820072
329, 1, bw, filler, NA, 999, 999, 7, 20, 182, 61, 57, 168, 145, 117, 2, 0.874494
329, 1, bw, attraction, a-b-da, 14, 1, 7, 21, 135, 60, 60, 135, 125, 56, 2, 0.940813
329, 1, bw, attraction, a-b-da, 14, 1, 7, 21, 135, 60, 60, 135, 125, 56, 3, 0.325809
329, 1, bw, filler, NA, 999, 999, 7, 22, 141, 114, 136, 56, 131, 161, 3, 0.94239
329, 1, bw, filler, NA, 999, 999, 7, 22, 141, 114, 136, 56, 131, 161, 2, 0.399406
329, 1, bw, catch, NA, 999, 999, 7, 23, 132, 63, 154, 101, 154, 161, 3, 0.669145
329, 1, bw, catch, NA, 999, 999, 7, 23, 132, 63, 154, 101, 154, 161, 1, 0.417641
329, 1, bw, attraction, a-b-db, 9, 3, 7, 24, 195, 120, 114, 186, 120, 195, 1, 1.55881
329, 1, bw, attraction, a-b-db, 9, 3, 7, 24, 195, 120, 114, 186, 120, 195, 2, 0.398935
329, 1, bw, attraction, a-b-da, 14, 2, 7, 25, 165, 90, 153, 83, 90, 165, 1, 2.28473
329, 1, bw, attraction, a-b-da, 14, 2, 7, 25, 165, 90, 153, 83, 90, 165, 2, 0.616082
329, 1, bw, filler, NA, 999, 999, 7, 26, 111, 61, 133, 156, 175, 150, 3, 0.9732
329, 1, bw, filler, NA, 999, 999, 7, 26, 111, 61, 133, 156, 175, 150, 1, 0.87668
329, 1, bw, filler, NA, 999, 999, 7, 27, 79, 68, 94, 136, 177, 147, 3, 0.535033
329, 1, bw, filler, NA, 999, 999, 7, 27, 79, 68, 94, 136, 177, 147, 1, 0.432829
329, 1, bw, attraction, a-b-db, 14, 1, 7, 28, 60, 135, 135, 60, 56, 125, 2, 1.32528
329, 1, bw, attraction, a-b-db, 14, 1, 7, 28, 60, 135, 135, 60, 56, 125, 3, 0.358986
329, 1, bw, filler, NA, 999, 999, 7, 29, 164, 142, 159, 58, 164, 98, 1, 0.870029
329, 1, bw, filler, NA, 999, 999, 7, 29, 164, 142, 159, 58, 164, 98, 2, 0.434475
329, 1, bw, attraction, a-b-da, 5, 2, 7, 30, 165, 90, 161, 88, 90, 165, 2, 0.614908
329, 1, bw, attraction, a-b-da, 5, 2, 7, 30, 165, 90, 161, 88, 90, 165, 1, 0.765494
329, 1, bw, attraction, a-b-da, 9, 2, 7, 31, 157, 86, 90, 165, 165, 90, 3, 0.796326
329, 1, bw, attraction, a-b-da, 9, 2, 7, 31, 157, 86, 90, 165, 165, 90, 1, 1.4195
329, 1, bw, filler, NA, 999, 999, 7, 32, 133, 152, 174, 58, 59, 187, 1, 0.648399
329, 1, bw, filler, NA, 999, 999, 7, 32, 133, 152, 174, 58, 59, 187, 3, 1.0214
329, 1, bw, attraction, a-b-da, 2, 2, 7, 33, 90, 165, 163, 89, 165, 90, 1, 0.906315
329, 1, bw, attraction, a-b-da, 2, 2, 7, 33, 90, 165, 163, 89, 165, 90, 2, 0.468683
329, 1, bw, filler, NA, 999, 999, 7, 34, 190, 191, 92, 67, 116, 140, 1, 0.575846
329, 1, bw, filler, NA, 999, 999, 7, 34, 190, 191, 92, 67, 116, 140, 2, 0.471705
329, 1, bw, attraction, a-b-db, 9, 1, 7, 35, 57, 129, 60, 135, 135, 60, 2, 0.706766
329, 1, bw, attraction, a-b-db, 9, 1, 7, 35, 57, 129, 60, 135, 135, 60, 1, 0.357192
329, 1, bw, attraction, a-b-db, 5, 1, 7, 36, 135, 60, 60, 135, 58, 132, 2, 1.10035
329, 1, bw, attraction, a-b-db, 5, 1, 7, 36, 135, 60, 60, 135, 58, 132, 3, 0.335294
329, 1, bw, attraction, a-b-db, 9, 2, 7, 37, 86, 157, 90, 165, 165, 90, 2, 1.07177
329, 1, bw, attraction, a-b-db, 9, 2, 7, 37, 86, 157, 90, 165, 165, 90, 3, 1.10742
329, 1, bw, filler, NA, 999, 999, 8, 1, 140, 121, 193, 175, 102, 127, 2, 0.532324
329, 1, bw, filler, NA, 999, 999, 8, 1, 140, 121, 193, 175, 102, 127, 3, 0.422176
329, 1, bw, filler, NA, 999, 999, 8, 2, 111, 181, 123, 162, 78, 168, 1, 0.571278
329, 1, bw, filler, NA, 999, 999, 8, 2, 111, 181, 123, 162, 78, 168, 3, 0.435758
329, 1, bw, attraction, a-b-da, 14, 2, 8, 3, 165, 90, 90, 165, 153, 83, 2, 1.11226
329, 1, bw, attraction, a-b-da, 14, 2, 8, 3, 165, 90, 90, 165, 153, 83, 3, 0.458642
329, 1, bw, catch, NA, 999, 999, 8, 4, 159, 96, 78, 117, 188, 127, 3, 0.733696
329, 1, bw, catch, NA, 999, 999, 8, 4, 159, 96, 78, 117, 188, 127, 2, 0.35138
329, 1, bw, attraction, a-b-da, 5, 3, 8, 5, 190, 117, 120, 195, 195, 120, 2, 0.63127
329, 1, bw, attraction, a-b-da, 5, 3, 8, 5, 190, 117, 120, 195, 195, 120, 3, 0.453066
329, 1, bw, attraction, a-b-da, 9, 1, 8, 6, 135, 60, 129, 57, 60, 135, 3, 2.03286
329, 1, bw, attraction, a-b-da, 9, 1, 8, 6, 135, 60, 129, 57, 60, 135, 2, 0.286131
329, 1, bw, attraction, a-b-db, 2, 2, 8, 7, 89, 163, 90, 165, 165, 90, 2, 0.856647
329, 1, bw, attraction, a-b-db, 2, 2, 8, 7, 89, 163, 90, 165, 165, 90, 3, 0.59704
329, 1, bw, attraction, a-b-db, 2, 3, 8, 8, 120, 195, 195, 120, 119, 193, 1, 2.02683
329, 1, bw, attraction, a-b-db, 2, 3, 8, 8, 120, 195, 195, 120, 119, 193, 2, 0.800236
329, 1, bw, catch, NA, 999, 999, 8, 9, 105, 90, 153, 102, 160, 155, 3, 1.10984
329, 1, bw, catch, NA, 999, 999, 8, 9, 105, 90, 153, 102, 160, 155, 1, 0.456229
329, 1, bw, attraction, a-b-da, 2, 3, 8, 10, 195, 120, 120, 195, 193, 119, 2, 0.971977
329, 1, bw, attraction, a-b-da, 2, 3, 8, 10, 195, 120, 120, 195, 193, 119, 3, 0.715596
329, 1, bw, filler, NA, 999, 999, 8, 11, 190, 195, 57, 157, 118, 85, 1, 0.60475
329, 1, bw, filler, NA, 999, 999, 8, 11, 190, 195, 57, 157, 118, 85, 2, 0.675707
329, 1, bw, attraction, a-b-db, 9, 2, 8, 12, 90, 165, 165, 90, 86, 157, 1, 1.8381
329, 1, bw, attraction, a-b-db, 9, 2, 8, 12, 90, 165, 165, 90, 86, 157, 2, 0.315527
329, 1, bw, attraction, a-b-da, 5, 2, 8, 13, 161, 88, 165, 90, 90, 165, 1, 0.812876
329, 1, bw, attraction, a-b-da, 5, 2, 8, 13, 161, 88, 165, 90, 90, 165, 2, 0.291213
329, 1, bw, attraction, a-b-db, 5, 1, 8, 14, 60, 135, 135, 60, 58, 132, 2, 0.957089
329, 1, bw, attraction, a-b-db, 5, 1, 8, 14, 60, 135, 135, 60, 58, 132, 1, 0.549383
329, 1, bw, attraction, a-b-db, 9, 1, 8, 15, 60, 135, 57, 129, 135, 60, 3, 1.38919
329, 1, bw, attraction, a-b-db, 9, 1, 8, 15, 60, 135, 57, 129, 135, 60, 2, 0.380118
329, 1, bw, attraction, a-b-da, 5, 1, 8, 16, 135, 60, 132, 58, 60, 135, 1, 0.594472
329, 1, bw, attraction, a-b-da, 5, 1, 8, 16, 135, 60, 132, 58, 60, 135, 2, 0.305617
329, 1, bw, filler, NA, 999, 999, 8, 17, 96, 107, 122, 190, 106, 101, 2, 0.571446
329, 1, bw, filler, NA, 999, 999, 8, 17, 96, 107, 122, 190, 106, 101, 1, 0.30722
329, 1, bw, attraction, a-b-db, 5, 3, 8, 18, 120, 195, 195, 120, 117, 190, 1, 1.21242
329, 1, bw, attraction, a-b-db, 5, 3, 8, 18, 120, 195, 195, 120, 117, 190, 3, 0.770704
329, 1, bw, attraction, a-b-db, 5, 2, 8, 19, 90, 165, 165, 90, 88, 161, 2, 2.3217
329, 1, bw, attraction, a-b-db, 5, 2, 8, 19, 90, 165, 165, 90, 88, 161, 1, 0.691628
329, 1, bw, attraction, a-b-db, 14, 1, 8, 20, 56, 125, 60, 135, 135, 60, 3, 1.33339
329, 1, bw, attraction, a-b-db, 14, 1, 8, 20, 56, 125, 60, 135, 135, 60, 1, 0.374857
329, 1, bw, attraction, a-b-db, 14, 2, 8, 21, 165, 90, 90, 165, 83, 153, 1, 0.821433
329, 1, bw, attraction, a-b-db, 14, 2, 8, 21, 165, 90, 90, 165, 83, 153, 3, 0.795167
329, 1, bw, attraction, a-b-da, 2, 1, 8, 22, 60, 135, 135, 60, 134, 59, 2, 2.70487
329, 1, bw, attraction, a-b-da, 2, 1, 8, 22, 60, 135, 135, 60, 134, 59, 1, 0.514556
329, 1, bw, attraction, a-b-da, 2, 2, 8, 23, 165, 90, 163, 89, 90, 165, 3, 1.83566
329, 1, bw, attraction, a-b-da, 2, 2, 8, 23, 165, 90, 163, 89, 90, 165, 2, 0.705151
329, 1, bw, attraction, a-b-db, 2, 1, 8, 24, 135, 60, 59, 134, 60, 135, 2, 1.3228
329, 1, bw, attraction, a-b-db, 2, 1, 8, 24, 135, 60, 59, 134, 60, 135, 1, 0.332381
329, 1, bw, attraction, a-b-da, 14, 3, 8, 25, 120, 195, 181, 111, 195, 120, 1, 0.652818
329, 1, bw, attraction, a-b-da, 14, 3, 8, 25, 120, 195, 181, 111, 195, 120, 2, 0.306029
329, 1, bw, attraction, a-b-da, 9, 3, 8, 26, 120, 195, 195, 120, 186, 114, 2, 0.731827
329, 1, bw, attraction, a-b-da, 9, 3, 8, 26, 120, 195, 195, 120, 186, 114, 3, 1.10152
329, 1, bw, filler, NA, 999, 999, 8, 27, 125, 108, 66, 166, 116, 106, 1, 0.599139
329, 1, bw, filler, NA, 999, 999, 8, 27, 125, 108, 66, 166, 116, 106, 2, 0.678327
329, 1, bw, attraction, a-b-da, 14, 1, 8, 28, 135, 60, 125, 56, 60, 135, 1, 1.24884
329, 1, bw, attraction, a-b-da, 14, 1, 8, 28, 135, 60, 125, 56, 60, 135, 2, 0.501537
329, 1, bw, filler, NA, 999, 999, 8, 29, 163, 142, 190, 139, 183, 179, 3, 0.6475
329, 1, bw, filler, NA, 999, 999, 8, 29, 163, 142, 190, 139, 183, 179, 1, 0.356548
329, 1, bw, attraction, a-b-db, 9, 3, 8, 30, 195, 120, 114, 186, 120, 195, 3, 1.72368
329, 1, bw, attraction, a-b-db, 9, 3, 8, 30, 195, 120, 114, 186, 120, 195, 2, 0.389093
329, 1, bw, filler, NA, 999, 999, 8, 31, 188, 183, 166, 58, 92, 141, 1, 0.403588
329, 1, bw, filler, NA, 999, 999, 8, 31, 188, 183, 166, 58, 92, 141, 2, 0.37895
329, 1, bw, attraction, a-b-da, 9, 2, 8, 32, 157, 86, 90, 165, 165, 90, 2, 0.833177
329, 1, bw, attraction, a-b-da, 9, 2, 8, 32, 157, 86, 90, 165, 165, 90, 1, 0.302886
329, 1, bw, filler, NA, 999, 999, 8, 33, 169, 93, 112, 182, 105, 131, 2, 0.792757
329, 1, bw, filler, NA, 999, 999, 8, 33, 169, 93, 112, 182, 105, 131, 1, 0.399946
329, 1, bw, filler, NA, 999, 999, 8, 34, 59, 161, 85, 60, 186, 119, 3, 0.781714
329, 1, bw, filler, NA, 999, 999, 8, 34, 59, 161, 85, 60, 186, 119, 2, 0.397444
329, 1, bw, filler, NA, 999, 999, 8, 35, 140, 166, 114, 122, 127, 120, 1, 0.979169
329, 1, bw, filler, NA, 999, 999, 8, 35, 140, 166, 114, 122, 127, 120, 3, 0.546847
329, 1, bw, catch, NA, 999, 999, 8, 36, 143, 172, 101, 94, 133, 122, 1, 0.594745
329, 1, bw, catch, NA, 999, 999, 8, 36, 143, 172, 101, 94, 133, 122, 2, 0.289733
329, 1, bw, attraction, a-b-db, 14, 3, 8, 37, 120, 195, 111, 181, 195, 120, 1, 3.42835
329, 1, bw, attraction, a-b-db, 14, 3, 8, 37, 120, 195, 111, 181, 195, 120, 2, 0.265292
