sub_n, computer_n, bw_cond, effect, set, distance, diag, block_n, trial_n, h1, w1, h2, w2, h3, w3, choice, rt 
30, 1, wb, practice, NA, 999, 999, 0, 1, 70, 153, 170, 170, 170, 145, 1, 2.4402
30, 1, wb, practice, NA, 999, 999, 0, 1, 70, 153, 170, 170, 170, 145, 2, 1.50013
30, 1, wb, practice, NA, 999, 999, 0, 2, 178, 60, 71, 163, 76, 83, 3, 2.27426
30, 1, wb, practice, NA, 999, 999, 0, 2, 178, 60, 71, 163, 76, 83, 2, 1.3194
30, 1, wb, practice, NA, 999, 999, 0, 3, 154, 62, 177, 139, 106, 141, 1, 2.01348
30, 1, wb, practice, NA, 999, 999, 0, 3, 154, 62, 177, 139, 106, 141, 2, 1.0981
30, 1, wb, attraction, a-b-da, 2, 2, 1, 1, 165, 90, 163, 89, 90, 165, 1, 3.503
30, 1, wb, attraction, a-b-da, 2, 2, 1, 1, 165, 90, 163, 89, 90, 165, 2, 2.11308
30, 1, wb, catch, NA, 999, 999, 1, 2, 98, 97, 110, 145, 139, 176, 1, 1.48972
30, 1, wb, catch, NA, 999, 999, 1, 2, 98, 97, 110, 145, 139, 176, 3, 1.36455
30, 1, wb, filler, NA, 999, 999, 1, 3, 182, 148, 142, 93, 174, 72, 3, 2.47534
30, 1, wb, filler, NA, 999, 999, 1, 3, 182, 148, 142, 93, 174, 72, 1, 0.726614
30, 1, wb, attraction, a-b-da, 14, 3, 1, 4, 120, 195, 181, 111, 195, 120, 2, 4.10294
30, 1, wb, attraction, a-b-da, 14, 3, 1, 4, 120, 195, 181, 111, 195, 120, 1, 1.017
30, 1, wb, attraction, a-b-db, 14, 3, 1, 5, 120, 195, 195, 120, 111, 181, 3, 2.23006
30, 1, wb, attraction, a-b-db, 14, 3, 1, 5, 120, 195, 195, 120, 111, 181, 1, 0.819216
30, 1, wb, attraction, a-b-db, 2, 3, 1, 6, 195, 120, 119, 193, 120, 195, 3, 4.92021
30, 1, wb, attraction, a-b-db, 2, 3, 1, 6, 195, 120, 119, 193, 120, 195, 1, 1.9613
30, 1, wb, attraction, a-b-da, 14, 2, 1, 7, 90, 165, 153, 83, 165, 90, 2, 1.99203
30, 1, wb, attraction, a-b-da, 14, 2, 1, 7, 90, 165, 153, 83, 165, 90, 1, 0.886705
30, 1, wb, filler, NA, 999, 999, 1, 8, 178, 119, 151, 169, 57, 108, 3, 1.40108
30, 1, wb, filler, NA, 999, 999, 1, 8, 178, 119, 151, 169, 57, 108, 2, 0.887922
30, 1, wb, filler, NA, 999, 999, 1, 9, 156, 122, 133, 134, 85, 90, 3, 1.56239
30, 1, wb, filler, NA, 999, 999, 1, 9, 156, 122, 133, 134, 85, 90, 1, 0.890332
30, 1, wb, attraction, a-b-db, 14, 2, 1, 10, 90, 165, 83, 153, 165, 90, 2, 2.03599
30, 1, wb, attraction, a-b-db, 14, 2, 1, 10, 90, 165, 83, 153, 165, 90, 1, 1.03341
30, 1, wb, attraction, a-b-da, 9, 3, 1, 11, 195, 120, 120, 195, 186, 114, 3, 2.34162
30, 1, wb, attraction, a-b-da, 9, 3, 1, 11, 195, 120, 120, 195, 186, 114, 2, 1.13425
30, 1, wb, attraction, a-b-db, 2, 1, 1, 12, 60, 135, 59, 134, 135, 60, 2, 3.06254
30, 1, wb, attraction, a-b-db, 2, 1, 1, 12, 60, 135, 59, 134, 135, 60, 1, 1.11415
30, 1, wb, filler, NA, 999, 999, 1, 13, 75, 183, 74, 66, 115, 189, 2, 0.80299
30, 1, wb, filler, NA, 999, 999, 1, 13, 75, 183, 74, 66, 115, 189, 3, 0.570144
30, 1, wb, attraction, a-b-da, 9, 1, 1, 14, 135, 60, 129, 57, 60, 135, 2, 2.60942
30, 1, wb, attraction, a-b-da, 9, 1, 1, 14, 135, 60, 129, 57, 60, 135, 1, 2.67907
30, 1, wb, attraction, a-b-da, 2, 1, 1, 15, 60, 135, 134, 59, 135, 60, 1, 2.38481
30, 1, wb, attraction, a-b-da, 2, 1, 1, 15, 60, 135, 134, 59, 135, 60, 3, 1.14417
30, 1, wb, attraction, a-b-db, 5, 3, 1, 16, 195, 120, 117, 190, 120, 195, 3, 2.79976
30, 1, wb, attraction, a-b-db, 5, 3, 1, 16, 195, 120, 117, 190, 120, 195, 1, 1.0061
30, 1, wb, filler, NA, 999, 999, 1, 17, 142, 80, 89, 194, 161, 66, 1, 1.49166
30, 1, wb, filler, NA, 999, 999, 1, 17, 142, 80, 89, 194, 161, 66, 2, 0.942775
30, 1, wb, attraction, a-b-da, 2, 3, 1, 18, 120, 195, 193, 119, 195, 120, 3, 1.81427
30, 1, wb, attraction, a-b-da, 2, 3, 1, 18, 120, 195, 193, 119, 195, 120, 1, 0.836187
30, 1, wb, filler, NA, 999, 999, 1, 19, 154, 159, 130, 124, 135, 59, 3, 1.28857
30, 1, wb, filler, NA, 999, 999, 1, 19, 154, 159, 130, 124, 135, 59, 1, 0.699719
30, 1, wb, attraction, a-b-db, 2, 2, 1, 20, 165, 90, 90, 165, 89, 163, 2, 1.87725
30, 1, wb, attraction, a-b-db, 2, 2, 1, 20, 165, 90, 90, 165, 89, 163, 1, 1.2566
30, 1, wb, attraction, a-b-db, 5, 1, 1, 21, 60, 135, 58, 132, 135, 60, 2, 2.3961
30, 1, wb, attraction, a-b-db, 5, 1, 1, 21, 60, 135, 58, 132, 135, 60, 3, 0.786775
30, 1, wb, attraction, a-b-da, 5, 3, 1, 22, 195, 120, 190, 117, 120, 195, 2, 2.6252
30, 1, wb, attraction, a-b-da, 5, 3, 1, 22, 195, 120, 190, 117, 120, 195, 1, 1.98223
30, 1, wb, filler, NA, 999, 999, 1, 23, 185, 164, 148, 195, 148, 155, 3, 1.10833
30, 1, wb, filler, NA, 999, 999, 1, 23, 185, 164, 148, 195, 148, 155, 2, 2.87856
30, 1, wb, filler, NA, 999, 999, 1, 24, 122, 83, 185, 176, 77, 121, 3, 1.71247
30, 1, wb, filler, NA, 999, 999, 1, 24, 122, 83, 185, 176, 77, 121, 2, 0.746335
30, 1, wb, filler, NA, 999, 999, 1, 25, 110, 130, 173, 140, 160, 95, 3, 1.81812
30, 1, wb, filler, NA, 999, 999, 1, 25, 110, 130, 173, 140, 160, 95, 2, 0.648078
30, 1, wb, attraction, a-b-da, 5, 1, 1, 26, 135, 60, 60, 135, 132, 58, 3, 1.84393
30, 1, wb, attraction, a-b-da, 5, 1, 1, 26, 135, 60, 60, 135, 132, 58, 2, 0.776603
30, 1, wb, attraction, a-b-da, 14, 1, 1, 27, 60, 135, 135, 60, 125, 56, 3, 2.47101
30, 1, wb, attraction, a-b-da, 14, 1, 1, 27, 60, 135, 135, 60, 125, 56, 1, 0.922818
30, 1, wb, attraction, a-b-db, 9, 2, 1, 28, 90, 165, 86, 157, 165, 90, 3, 3.35589
30, 1, wb, attraction, a-b-db, 9, 2, 1, 28, 90, 165, 86, 157, 165, 90, 1, 0.747404
30, 1, wb, attraction, a-b-da, 5, 2, 1, 29, 90, 165, 165, 90, 161, 88, 3, 1.76305
30, 1, wb, attraction, a-b-da, 5, 2, 1, 29, 90, 165, 165, 90, 161, 88, 1, 0.659253
30, 1, wb, attraction, a-b-db, 9, 1, 1, 30, 60, 135, 135, 60, 57, 129, 3, 1.05431
30, 1, wb, attraction, a-b-db, 9, 1, 1, 30, 60, 135, 135, 60, 57, 129, 1, 0.92331
30, 1, wb, attraction, a-b-db, 5, 2, 1, 31, 88, 161, 165, 90, 90, 165, 1, 2.22016
30, 1, wb, attraction, a-b-db, 5, 2, 1, 31, 88, 161, 165, 90, 90, 165, 3, 0.906284
30, 1, wb, catch, NA, 999, 999, 1, 32, 148, 167, 111, 144, 81, 114, 3, 0.803918
30, 1, wb, catch, NA, 999, 999, 1, 32, 148, 167, 111, 144, 81, 114, 1, 0.554848
30, 1, wb, attraction, a-b-db, 9, 3, 1, 33, 120, 195, 195, 120, 114, 186, 3, 1.12264
30, 1, wb, attraction, a-b-db, 9, 3, 1, 33, 120, 195, 195, 120, 114, 186, 2, 1.07625
30, 1, wb, attraction, a-b-db, 14, 1, 1, 34, 56, 125, 135, 60, 60, 135, 1, 1.07052
30, 1, wb, attraction, a-b-db, 14, 1, 1, 34, 56, 125, 135, 60, 60, 135, 2, 1.28299
30, 1, wb, attraction, a-b-da, 9, 2, 1, 35, 157, 86, 165, 90, 90, 165, 1, 1.64502
30, 1, wb, attraction, a-b-da, 9, 2, 1, 35, 157, 86, 165, 90, 90, 165, 2, 1.18588
30, 1, wb, filler, NA, 999, 999, 1, 36, 116, 130, 140, 134, 74, 73, 3, 0.824176
30, 1, wb, filler, NA, 999, 999, 1, 36, 116, 130, 140, 134, 74, 73, 2, 0.645775
30, 1, wb, catch, NA, 999, 999, 1, 37, 128, 127, 138, 177, 70, 125, 3, 0.825589
30, 1, wb, catch, NA, 999, 999, 1, 37, 128, 127, 138, 177, 70, 125, 2, 0.711303
30, 1, wb, filler, NA, 999, 999, 2, 1, 66, 171, 157, 151, 110, 77, 3, 2.25639
30, 1, wb, filler, NA, 999, 999, 2, 1, 66, 171, 157, 151, 110, 77, 2, 0.54035
30, 1, wb, attraction, a-b-db, 5, 3, 2, 2, 195, 120, 117, 190, 120, 195, 2, 3.20402
30, 1, wb, attraction, a-b-db, 5, 3, 2, 2, 195, 120, 117, 190, 120, 195, 1, 0.746298
30, 1, wb, filler, NA, 999, 999, 2, 3, 128, 87, 141, 130, 89, 177, 1, 1.34602
30, 1, wb, filler, NA, 999, 999, 2, 3, 128, 87, 141, 130, 89, 177, 2, 1.03503
30, 1, wb, attraction, a-b-da, 2, 2, 2, 4, 163, 89, 90, 165, 165, 90, 2, 4.35121
30, 1, wb, attraction, a-b-da, 2, 2, 2, 4, 163, 89, 90, 165, 165, 90, 1, 0.951086
30, 1, wb, filler, NA, 999, 999, 2, 5, 103, 134, 82, 85, 155, 160, 2, 0.742895
30, 1, wb, filler, NA, 999, 999, 2, 5, 103, 134, 82, 85, 155, 160, 3, 0.839875
30, 1, wb, attraction, a-b-db, 2, 3, 2, 6, 119, 193, 120, 195, 195, 120, 2, 6.2275
30, 1, wb, attraction, a-b-db, 2, 3, 2, 6, 119, 193, 120, 195, 195, 120, 1, 1.20759
30, 1, wb, attraction, a-b-db, 5, 2, 2, 7, 165, 90, 88, 161, 90, 165, 3, 2.19649
30, 1, wb, attraction, a-b-db, 5, 2, 2, 7, 165, 90, 88, 161, 90, 165, 1, 0.971143
30, 1, wb, attraction, a-b-db, 14, 1, 2, 8, 56, 125, 60, 135, 135, 60, 1, 1.52203
30, 1, wb, attraction, a-b-db, 14, 1, 2, 8, 56, 125, 60, 135, 135, 60, 3, 1.25972
30, 1, wb, attraction, a-b-da, 14, 3, 2, 9, 181, 111, 120, 195, 195, 120, 3, 2.23046
30, 1, wb, attraction, a-b-da, 14, 3, 2, 9, 181, 111, 120, 195, 195, 120, 1, 1.01178
30, 1, wb, filler, NA, 999, 999, 2, 10, 191, 183, 99, 188, 113, 90, 3, 0.952739
30, 1, wb, filler, NA, 999, 999, 2, 10, 191, 183, 99, 188, 113, 90, 1, 0.49776
30, 1, wb, filler, NA, 999, 999, 2, 11, 129, 122, 173, 100, 144, 164, 1, 1.14739
30, 1, wb, filler, NA, 999, 999, 2, 11, 129, 122, 173, 100, 144, 164, 3, 0.676369
30, 1, wb, attraction, a-b-da, 5, 1, 2, 12, 132, 58, 60, 135, 135, 60, 2, 2.03089
30, 1, wb, attraction, a-b-da, 5, 1, 2, 12, 132, 58, 60, 135, 135, 60, 3, 0.612206
30, 1, wb, attraction, a-b-db, 9, 2, 2, 13, 86, 157, 90, 165, 165, 90, 1, 0.977344
30, 1, wb, attraction, a-b-db, 9, 2, 2, 13, 86, 157, 90, 165, 165, 90, 3, 0.657034
30, 1, wb, filler, NA, 999, 999, 2, 14, 81, 120, 181, 133, 96, 180, 1, 0.819994
30, 1, wb, filler, NA, 999, 999, 2, 14, 81, 120, 181, 133, 96, 180, 2, 0.570436
30, 1, wb, attraction, a-b-db, 2, 1, 2, 15, 135, 60, 59, 134, 60, 135, 2, 1.51357
30, 1, wb, attraction, a-b-db, 2, 1, 2, 15, 135, 60, 59, 134, 60, 135, 1, 0.699822
30, 1, wb, attraction, a-b-da, 5, 2, 2, 16, 165, 90, 90, 165, 161, 88, 2, 1.87739
30, 1, wb, attraction, a-b-da, 5, 2, 2, 16, 165, 90, 90, 165, 161, 88, 3, 0.816706
30, 1, wb, filler, NA, 999, 999, 2, 17, 188, 90, 146, 184, 85, 151, 3, 1.86987
30, 1, wb, filler, NA, 999, 999, 2, 17, 188, 90, 146, 184, 85, 151, 2, 0.753745
30, 1, wb, catch, NA, 999, 999, 2, 18, 71, 124, 163, 92, 155, 160, 1, 0.881476
30, 1, wb, catch, NA, 999, 999, 2, 18, 71, 124, 163, 92, 155, 160, 3, 0.701312
30, 1, wb, catch, NA, 999, 999, 2, 19, 170, 145, 133, 62, 121, 134, 2, 0.99099
30, 1, wb, catch, NA, 999, 999, 2, 19, 170, 145, 133, 62, 121, 134, 1, 0.485918
30, 1, wb, attraction, a-b-da, 2, 1, 2, 20, 134, 59, 135, 60, 60, 135, 3, 1.35241
30, 1, wb, attraction, a-b-da, 2, 1, 2, 20, 134, 59, 135, 60, 60, 135, 2, 1.08939
30, 1, wb, filler, NA, 999, 999, 2, 21, 194, 142, 56, 123, 79, 68, 3, 0.803604
30, 1, wb, filler, NA, 999, 999, 2, 21, 194, 142, 56, 123, 79, 68, 1, 0.562567
30, 1, wb, attraction, a-b-da, 2, 3, 2, 22, 195, 120, 193, 119, 120, 195, 1, 1.39369
30, 1, wb, attraction, a-b-da, 2, 3, 2, 22, 195, 120, 193, 119, 120, 195, 3, 0.704606
30, 1, wb, attraction, a-b-db, 9, 1, 2, 23, 60, 135, 135, 60, 57, 129, 3, 1.44245
30, 1, wb, attraction, a-b-db, 9, 1, 2, 23, 60, 135, 135, 60, 57, 129, 2, 0.575197
30, 1, wb, catch, NA, 999, 999, 2, 24, 149, 166, 144, 111, 64, 131, 3, 0.765544
30, 1, wb, catch, NA, 999, 999, 2, 24, 149, 166, 144, 111, 64, 131, 1, 0.549936
30, 1, wb, attraction, a-b-db, 14, 2, 2, 25, 165, 90, 83, 153, 90, 165, 1, 1.24582
30, 1, wb, attraction, a-b-db, 14, 2, 2, 25, 165, 90, 83, 153, 90, 165, 3, 0.650698
30, 1, wb, attraction, a-b-da, 9, 1, 2, 26, 135, 60, 60, 135, 129, 57, 3, 1.88643
30, 1, wb, attraction, a-b-da, 9, 1, 2, 26, 135, 60, 60, 135, 129, 57, 1, 0.641791
30, 1, wb, filler, NA, 999, 999, 2, 27, 103, 131, 182, 91, 143, 72, 3, 1.36557
30, 1, wb, filler, NA, 999, 999, 2, 27, 103, 131, 182, 91, 143, 72, 2, 0.773791
30, 1, wb, attraction, a-b-db, 14, 3, 2, 28, 120, 195, 195, 120, 111, 181, 3, 0.972074
30, 1, wb, attraction, a-b-db, 14, 3, 2, 28, 120, 195, 195, 120, 111, 181, 1, 0.57182
30, 1, wb, attraction, a-b-da, 9, 2, 2, 29, 165, 90, 90, 165, 157, 86, 3, 1.72291
30, 1, wb, attraction, a-b-da, 9, 2, 2, 29, 165, 90, 90, 165, 157, 86, 2, 0.500269
30, 1, wb, attraction, a-b-da, 5, 3, 2, 30, 195, 120, 190, 117, 120, 195, 2, 8.26213
30, 1, wb, attraction, a-b-da, 5, 3, 2, 30, 195, 120, 190, 117, 120, 195, 3, 0.64833
30, 1, wb, attraction, a-b-da, 14, 1, 2, 31, 125, 56, 135, 60, 60, 135, 1, 0.787867
30, 1, wb, attraction, a-b-da, 14, 1, 2, 31, 125, 56, 135, 60, 60, 135, 3, 0.570945
30, 1, wb, attraction, a-b-da, 9, 3, 2, 32, 195, 120, 186, 114, 120, 195, 2, 1.17005
30, 1, wb, attraction, a-b-da, 9, 3, 2, 32, 195, 120, 186, 114, 120, 195, 3, 0.570378
30, 1, wb, filler, NA, 999, 999, 2, 33, 97, 90, 145, 160, 154, 102, 1, 0.65737
30, 1, wb, filler, NA, 999, 999, 2, 33, 97, 90, 145, 160, 154, 102, 2, 0.541882
30, 1, wb, attraction, a-b-db, 5, 1, 2, 34, 135, 60, 58, 132, 60, 135, 3, 2.22159
30, 1, wb, attraction, a-b-db, 5, 1, 2, 34, 135, 60, 58, 132, 60, 135, 2, 0.667694
30, 1, wb, attraction, a-b-db, 9, 3, 2, 35, 114, 186, 120, 195, 195, 120, 1, 1.82272
30, 1, wb, attraction, a-b-db, 9, 3, 2, 35, 114, 186, 120, 195, 195, 120, 3, 0.892166
30, 1, wb, attraction, a-b-db, 2, 2, 2, 36, 90, 165, 89, 163, 165, 90, 1, 2.16569
30, 1, wb, attraction, a-b-db, 2, 2, 2, 36, 90, 165, 89, 163, 165, 90, 3, 0.94173
30, 1, wb, attraction, a-b-da, 14, 2, 2, 37, 90, 165, 165, 90, 153, 83, 1, 2.22938
30, 1, wb, attraction, a-b-da, 14, 2, 2, 37, 90, 165, 165, 90, 153, 83, 3, 1.28279
30, 1, wb, attraction, a-b-da, 14, 3, 3, 1, 181, 111, 120, 195, 195, 120, 1, 2.1729
30, 1, wb, attraction, a-b-da, 14, 3, 3, 1, 181, 111, 120, 195, 195, 120, 2, 0.556197
30, 1, wb, attraction, a-b-db, 2, 2, 3, 2, 89, 163, 90, 165, 165, 90, 1, 1.40386
30, 1, wb, attraction, a-b-db, 2, 2, 3, 2, 89, 163, 90, 165, 165, 90, 2, 0.962785
30, 1, wb, filler, NA, 999, 999, 3, 3, 128, 61, 174, 151, 154, 88, 1, 1.03379
30, 1, wb, filler, NA, 999, 999, 3, 3, 128, 61, 174, 151, 154, 88, 2, 0.543385
30, 1, wb, attraction, a-b-db, 5, 3, 3, 4, 120, 195, 195, 120, 117, 190, 3, 1.27917
30, 1, wb, attraction, a-b-db, 5, 3, 3, 4, 120, 195, 195, 120, 117, 190, 2, 0.6587
30, 1, wb, catch, NA, 999, 999, 3, 5, 77, 118, 110, 145, 120, 195, 1, 1.42174
30, 1, wb, catch, NA, 999, 999, 3, 5, 77, 118, 110, 145, 120, 195, 3, 1.036
30, 1, wb, attraction, a-b-da, 5, 2, 3, 6, 90, 165, 165, 90, 161, 88, 3, 3.15228
30, 1, wb, attraction, a-b-da, 5, 2, 3, 6, 90, 165, 165, 90, 161, 88, 2, 0.944604
30, 1, wb, attraction, a-b-da, 9, 1, 3, 7, 60, 135, 135, 60, 129, 57, 1, 0.808252
30, 1, wb, attraction, a-b-da, 9, 1, 3, 7, 60, 135, 135, 60, 129, 57, 2, 0.686646
30, 1, wb, attraction, a-b-db, 14, 3, 3, 8, 120, 195, 195, 120, 111, 181, 3, 1.47295
30, 1, wb, attraction, a-b-db, 14, 3, 3, 8, 120, 195, 195, 120, 111, 181, 1, 0.820502
30, 1, wb, filler, NA, 999, 999, 3, 9, 84, 66, 193, 92, 91, 169, 1, 1.20952
30, 1, wb, filler, NA, 999, 999, 3, 9, 84, 66, 193, 92, 91, 169, 2, 0.495836
30, 1, wb, filler, NA, 999, 999, 3, 10, 112, 101, 81, 167, 74, 146, 3, 4.01766
30, 1, wb, filler, NA, 999, 999, 3, 10, 112, 101, 81, 167, 74, 146, 2, 2.50303
30, 1, wb, catch, NA, 999, 999, 3, 11, 181, 134, 106, 89, 119, 136, 2, 0.864266
30, 1, wb, catch, NA, 999, 999, 3, 11, 181, 134, 106, 89, 119, 136, 1, 0.41244
30, 1, wb, filler, NA, 999, 999, 3, 12, 178, 75, 125, 84, 87, 104, 3, 1.16978
30, 1, wb, filler, NA, 999, 999, 3, 12, 178, 75, 125, 84, 87, 104, 1, 1.08188
30, 1, wb, attraction, a-b-db, 14, 2, 3, 13, 90, 165, 83, 153, 165, 90, 2, 1.34012
30, 1, wb, attraction, a-b-db, 14, 2, 3, 13, 90, 165, 83, 153, 165, 90, 3, 0.637072
30, 1, wb, attraction, a-b-db, 9, 3, 3, 14, 195, 120, 114, 186, 120, 195, 2, 4.40144
30, 1, wb, attraction, a-b-db, 9, 3, 3, 14, 195, 120, 114, 186, 120, 195, 1, 0.567416
30, 1, wb, attraction, a-b-da, 14, 1, 3, 15, 135, 60, 60, 135, 125, 56, 2, 1.07853
30, 1, wb, attraction, a-b-da, 14, 1, 3, 15, 135, 60, 60, 135, 125, 56, 1, 0.730095
30, 1, wb, filler, NA, 999, 999, 3, 16, 131, 119, 101, 190, 167, 162, 1, 0.898485
30, 1, wb, filler, NA, 999, 999, 3, 16, 131, 119, 101, 190, 167, 162, 3, 0.717561
30, 1, wb, catch, NA, 999, 999, 3, 17, 165, 150, 163, 92, 61, 134, 3, 1.00654
30, 1, wb, catch, NA, 999, 999, 3, 17, 165, 150, 163, 92, 61, 134, 1, 0.453006
30, 1, wb, attraction, a-b-db, 5, 1, 3, 18, 58, 132, 135, 60, 60, 135, 1, 0.904789
30, 1, wb, attraction, a-b-db, 5, 1, 3, 18, 58, 132, 135, 60, 60, 135, 2, 0.931772
30, 1, wb, attraction, a-b-da, 9, 3, 3, 19, 186, 114, 195, 120, 120, 195, 1, 1.53208
30, 1, wb, attraction, a-b-da, 9, 3, 3, 19, 186, 114, 195, 120, 120, 195, 2, 0.477594
30, 1, wb, attraction, a-b-db, 2, 1, 3, 20, 60, 135, 59, 134, 135, 60, 2, 1.53612
30, 1, wb, attraction, a-b-db, 2, 1, 3, 20, 60, 135, 59, 134, 135, 60, 3, 1.5935
30, 1, wb, filler, NA, 999, 999, 3, 21, 118, 151, 104, 105, 58, 195, 2, 1.05502
30, 1, wb, filler, NA, 999, 999, 3, 21, 118, 151, 104, 105, 58, 195, 1, 0.643456
30, 1, wb, filler, NA, 999, 999, 3, 22, 77, 129, 57, 101, 193, 136, 2, 0.751002
30, 1, wb, filler, NA, 999, 999, 3, 22, 77, 129, 57, 101, 193, 136, 3, 0.720139
30, 1, wb, attraction, a-b-da, 9, 2, 3, 23, 90, 165, 165, 90, 157, 86, 3, 1.6572
30, 1, wb, attraction, a-b-da, 9, 2, 3, 23, 90, 165, 165, 90, 157, 86, 1, 0.501398
30, 1, wb, attraction, a-b-db, 5, 2, 3, 24, 90, 165, 165, 90, 88, 161, 2, 1.12708
30, 1, wb, attraction, a-b-db, 5, 2, 3, 24, 90, 165, 165, 90, 88, 161, 1, 0.592836
30, 1, wb, filler, NA, 999, 999, 3, 25, 117, 175, 94, 134, 176, 193, 2, 0.886553
30, 1, wb, filler, NA, 999, 999, 3, 25, 117, 175, 94, 134, 176, 193, 3, 0.522346
30, 1, wb, attraction, a-b-db, 9, 2, 3, 26, 165, 90, 90, 165, 86, 157, 3, 1.91535
30, 1, wb, attraction, a-b-db, 9, 2, 3, 26, 165, 90, 90, 165, 86, 157, 2, 1.11744
30, 1, wb, attraction, a-b-da, 14, 2, 3, 27, 90, 165, 153, 83, 165, 90, 2, 2.44632
30, 1, wb, attraction, a-b-da, 14, 2, 3, 27, 90, 165, 153, 83, 165, 90, 1, 0.666682
30, 1, wb, filler, NA, 999, 999, 3, 28, 87, 70, 145, 95, 129, 156, 1, 1.14183
30, 1, wb, filler, NA, 999, 999, 3, 28, 87, 70, 145, 95, 129, 156, 3, 0.862784
30, 1, wb, attraction, a-b-db, 2, 3, 3, 29, 195, 120, 119, 193, 120, 195, 3, 1.44972
30, 1, wb, attraction, a-b-db, 2, 3, 3, 29, 195, 120, 119, 193, 120, 195, 1, 0.758886
30, 1, wb, filler, NA, 999, 999, 3, 30, 142, 145, 163, 83, 64, 130, 3, 0.709729
30, 1, wb, filler, NA, 999, 999, 3, 30, 142, 145, 163, 83, 64, 130, 1, 0.56014
30, 1, wb, attraction, a-b-da, 5, 3, 3, 31, 120, 195, 195, 120, 190, 117, 3, 3.1753
30, 1, wb, attraction, a-b-da, 5, 3, 3, 31, 120, 195, 195, 120, 190, 117, 1, 0.798179
30, 1, wb, attraction, a-b-db, 9, 1, 3, 32, 60, 135, 57, 129, 135, 60, 2, 1.31584
30, 1, wb, attraction, a-b-db, 9, 1, 3, 32, 60, 135, 57, 129, 135, 60, 3, 0.830256
30, 1, wb, attraction, a-b-da, 5, 1, 3, 33, 60, 135, 132, 58, 135, 60, 1, 1.93039
30, 1, wb, attraction, a-b-da, 5, 1, 3, 33, 60, 135, 132, 58, 135, 60, 3, 0.915857
30, 1, wb, attraction, a-b-da, 2, 3, 3, 34, 193, 119, 120, 195, 195, 120, 3, 4.59681
30, 1, wb, attraction, a-b-da, 2, 3, 3, 34, 193, 119, 120, 195, 195, 120, 2, 0.658755
30, 1, wb, attraction, a-b-db, 14, 1, 3, 35, 56, 125, 135, 60, 60, 135, 1, 1.41371
30, 1, wb, attraction, a-b-db, 14, 1, 3, 35, 56, 125, 135, 60, 60, 135, 2, 0.739958
30, 1, wb, attraction, a-b-da, 2, 2, 3, 36, 165, 90, 163, 89, 90, 165, 3, 1.61235
30, 1, wb, attraction, a-b-da, 2, 2, 3, 36, 165, 90, 163, 89, 90, 165, 1, 0.75457
30, 1, wb, attraction, a-b-da, 2, 1, 3, 37, 135, 60, 134, 59, 60, 135, 1, 1.69819
30, 1, wb, attraction, a-b-da, 2, 1, 3, 37, 135, 60, 134, 59, 60, 135, 3, 0.669
30, 1, wb, attraction, a-b-db, 2, 2, 4, 1, 90, 165, 89, 163, 165, 90, 3, 2.46395
30, 1, wb, attraction, a-b-db, 2, 2, 4, 1, 90, 165, 89, 163, 165, 90, 2, 0.851879
30, 1, wb, attraction, a-b-db, 14, 1, 4, 2, 60, 135, 135, 60, 56, 125, 3, 2.31957
30, 1, wb, attraction, a-b-db, 14, 1, 4, 2, 60, 135, 135, 60, 56, 125, 2, 0.737473
30, 1, wb, attraction, a-b-da, 2, 3, 4, 3, 195, 120, 120, 195, 193, 119, 3, 1.01797
30, 1, wb, attraction, a-b-da, 2, 3, 4, 3, 195, 120, 120, 195, 193, 119, 2, 1.22414
30, 1, wb, attraction, a-b-db, 14, 3, 4, 4, 195, 120, 111, 181, 120, 195, 3, 1.88448
30, 1, wb, attraction, a-b-db, 14, 3, 4, 4, 195, 120, 111, 181, 120, 195, 1, 0.695839
30, 1, wb, attraction, a-b-da, 5, 1, 4, 5, 60, 135, 135, 60, 132, 58, 1, 3.0095
30, 1, wb, attraction, a-b-da, 5, 1, 4, 5, 60, 135, 135, 60, 132, 58, 3, 0.711324
30, 1, wb, attraction, a-b-da, 14, 1, 4, 6, 125, 56, 135, 60, 60, 135, 3, 1.40041
30, 1, wb, attraction, a-b-da, 14, 1, 4, 6, 125, 56, 135, 60, 60, 135, 2, 0.959111
30, 1, wb, filler, NA, 999, 999, 4, 7, 72, 85, 120, 103, 166, 86, 1, 1.09414
30, 1, wb, filler, NA, 999, 999, 4, 7, 72, 85, 120, 103, 166, 86, 3, 0.553087
30, 1, wb, attraction, a-b-db, 9, 3, 4, 8, 120, 195, 114, 186, 195, 120, 2, 1.56079
30, 1, wb, attraction, a-b-db, 9, 3, 4, 8, 120, 195, 114, 186, 195, 120, 3, 1.29705
30, 1, wb, attraction, a-b-da, 9, 1, 4, 9, 60, 135, 129, 57, 135, 60, 2, 3.06662
30, 1, wb, attraction, a-b-da, 9, 1, 4, 9, 60, 135, 129, 57, 135, 60, 3, 1.21425
30, 1, wb, catch, NA, 999, 999, 4, 10, 100, 95, 141, 174, 165, 90, 1, 1.09102
30, 1, wb, catch, NA, 999, 999, 4, 10, 100, 95, 141, 174, 165, 90, 2, 0.454052
30, 1, wb, attraction, a-b-db, 5, 3, 4, 11, 117, 190, 195, 120, 120, 195, 3, 5.21785
30, 1, wb, attraction, a-b-db, 5, 3, 4, 11, 117, 190, 195, 120, 120, 195, 2, 0.598881
30, 1, wb, attraction, a-b-db, 2, 1, 4, 12, 59, 134, 135, 60, 60, 135, 1, 1.62863
30, 1, wb, attraction, a-b-db, 2, 1, 4, 12, 59, 134, 135, 60, 60, 135, 2, 0.634057
30, 1, wb, attraction, a-b-da, 5, 2, 4, 13, 161, 88, 165, 90, 90, 165, 3, 1.19846
30, 1, wb, attraction, a-b-da, 5, 2, 4, 13, 161, 88, 165, 90, 90, 165, 2, 1.21358
30, 1, wb, attraction, a-b-db, 5, 1, 4, 14, 135, 60, 60, 135, 58, 132, 3, 2.17831
30, 1, wb, attraction, a-b-db, 5, 1, 4, 14, 135, 60, 60, 135, 58, 132, 1, 0.617624
30, 1, wb, filler, NA, 999, 999, 4, 15, 191, 62, 88, 141, 177, 174, 2, 1.27871
30, 1, wb, filler, NA, 999, 999, 4, 15, 191, 62, 88, 141, 177, 174, 3, 0.514373
30, 1, wb, attraction, a-b-da, 5, 3, 4, 16, 120, 195, 195, 120, 190, 117, 3, 2.93958
30, 1, wb, attraction, a-b-da, 5, 3, 4, 16, 120, 195, 195, 120, 190, 117, 1, 0.643848
30, 1, wb, filler, NA, 999, 999, 4, 17, 164, 130, 88, 62, 187, 195, 2, 0.935541
30, 1, wb, filler, NA, 999, 999, 4, 17, 164, 130, 88, 62, 187, 195, 3, 0.465281
30, 1, wb, attraction, a-b-db, 14, 2, 4, 18, 83, 153, 90, 165, 165, 90, 1, 1.1323
30, 1, wb, attraction, a-b-db, 14, 2, 4, 18, 83, 153, 90, 165, 165, 90, 3, 0.677955
30, 1, wb, catch, NA, 999, 999, 4, 19, 180, 135, 129, 66, 129, 126, 2, 0.680365
30, 1, wb, catch, NA, 999, 999, 4, 19, 180, 135, 129, 66, 129, 126, 1, 0.37221
30, 1, wb, attraction, a-b-db, 2, 3, 4, 20, 119, 193, 120, 195, 195, 120, 1, 1.34735
30, 1, wb, attraction, a-b-db, 2, 3, 4, 20, 119, 193, 120, 195, 195, 120, 3, 0.604112
30, 1, wb, attraction, a-b-da, 2, 2, 4, 21, 165, 90, 90, 165, 163, 89, 2, 1.04992
30, 1, wb, attraction, a-b-da, 2, 2, 4, 21, 165, 90, 90, 165, 163, 89, 1, 0.630877
30, 1, wb, filler, NA, 999, 999, 4, 22, 125, 145, 118, 93, 131, 117, 2, 0.955324
30, 1, wb, filler, NA, 999, 999, 4, 22, 125, 145, 118, 93, 131, 117, 1, 0.56374
30, 1, wb, filler, NA, 999, 999, 4, 23, 85, 176, 192, 81, 102, 143, 3, 1.73077
30, 1, wb, filler, NA, 999, 999, 4, 23, 85, 176, 192, 81, 102, 143, 2, 0.588264
30, 1, wb, attraction, a-b-da, 9, 3, 4, 24, 186, 114, 195, 120, 120, 195, 1, 4.03457
30, 1, wb, attraction, a-b-da, 9, 3, 4, 24, 186, 114, 195, 120, 120, 195, 2, 2.41534
30, 1, wb, attraction, a-b-db, 9, 1, 4, 25, 57, 129, 135, 60, 60, 135, 1, 1.34793
30, 1, wb, attraction, a-b-db, 9, 1, 4, 25, 57, 129, 135, 60, 60, 135, 3, 0.556713
30, 1, wb, filler, NA, 999, 999, 4, 26, 66, 159, 74, 193, 148, 142, 1, 1.10055
30, 1, wb, filler, NA, 999, 999, 4, 26, 66, 159, 74, 193, 148, 142, 3, 0.71147
30, 1, wb, attraction, a-b-db, 5, 2, 4, 27, 88, 161, 90, 165, 165, 90, 1, 1.51255
30, 1, wb, attraction, a-b-db, 5, 2, 4, 27, 88, 161, 90, 165, 165, 90, 2, 1.1627
30, 1, wb, catch, NA, 999, 999, 4, 28, 78, 117, 193, 122, 153, 102, 1, 0.801567
30, 1, wb, catch, NA, 999, 999, 4, 28, 78, 117, 193, 122, 153, 102, 2, 0.496629
30, 1, wb, attraction, a-b-db, 9, 2, 4, 29, 165, 90, 90, 165, 86, 157, 3, 1.65839
30, 1, wb, attraction, a-b-db, 9, 2, 4, 29, 165, 90, 90, 165, 86, 157, 1, 3.82255
30, 1, wb, attraction, a-b-da, 2, 1, 4, 30, 135, 60, 134, 59, 60, 135, 3, 1.13061
30, 1, wb, attraction, a-b-da, 2, 1, 4, 30, 135, 60, 134, 59, 60, 135, 1, 1.54042
30, 1, wb, filler, NA, 999, 999, 4, 31, 117, 67, 92, 126, 167, 152, 1, 2.70779
30, 1, wb, filler, NA, 999, 999, 4, 31, 117, 67, 92, 126, 167, 152, 3, 0.549511
30, 1, wb, filler, NA, 999, 999, 4, 32, 145, 125, 159, 175, 59, 99, 3, 1.40528
30, 1, wb, filler, NA, 999, 999, 4, 32, 145, 125, 159, 175, 59, 99, 2, 0.403568
30, 1, wb, attraction, a-b-da, 9, 2, 4, 33, 157, 86, 90, 165, 165, 90, 1, 3.49739
30, 1, wb, attraction, a-b-da, 9, 2, 4, 33, 157, 86, 90, 165, 165, 90, 2, 1.01963
30, 1, wb, attraction, a-b-da, 14, 2, 4, 34, 153, 83, 165, 90, 90, 165, 1, 2.02453
30, 1, wb, attraction, a-b-da, 14, 2, 4, 34, 153, 83, 165, 90, 90, 165, 2, 0.861861
30, 1, wb, filler, NA, 999, 999, 4, 35, 66, 65, 130, 99, 189, 173, 1, 1.0328
30, 1, wb, filler, NA, 999, 999, 4, 35, 66, 65, 130, 99, 189, 173, 3, 0.862535
30, 1, wb, filler, NA, 999, 999, 4, 36, 139, 166, 63, 130, 146, 57, 2, 1.73752
30, 1, wb, filler, NA, 999, 999, 4, 36, 139, 166, 63, 130, 146, 57, 1, 0.674939
30, 1, wb, attraction, a-b-da, 14, 3, 4, 37, 181, 111, 195, 120, 120, 195, 1, 2.00531
30, 1, wb, attraction, a-b-da, 14, 3, 4, 37, 181, 111, 195, 120, 120, 195, 3, 0.691343
30, 1, wb, attraction, a-b-db, 2, 3, 5, 1, 119, 193, 120, 195, 195, 120, 1, 2.61165
30, 1, wb, attraction, a-b-db, 2, 3, 5, 1, 119, 193, 120, 195, 195, 120, 2, 1.00165
30, 1, wb, attraction, a-b-db, 14, 2, 5, 2, 83, 153, 90, 165, 165, 90, 1, 0.951062
30, 1, wb, attraction, a-b-db, 14, 2, 5, 2, 83, 153, 90, 165, 165, 90, 2, 1.83225
30, 1, wb, attraction, a-b-db, 9, 2, 5, 3, 165, 90, 90, 165, 86, 157, 3, 1.23609
30, 1, wb, attraction, a-b-db, 9, 2, 5, 3, 165, 90, 90, 165, 86, 157, 1, 0.593688
30, 1, wb, attraction, a-b-da, 14, 1, 5, 4, 60, 135, 125, 56, 135, 60, 2, 1.23154
30, 1, wb, attraction, a-b-da, 14, 1, 5, 4, 60, 135, 125, 56, 135, 60, 1, 0.621083
30, 1, wb, attraction, a-b-db, 5, 1, 5, 5, 135, 60, 58, 132, 60, 135, 3, 1.37839
30, 1, wb, attraction, a-b-db, 5, 1, 5, 5, 135, 60, 58, 132, 60, 135, 2, 0.497786
30, 1, wb, attraction, a-b-da, 9, 3, 5, 6, 120, 195, 195, 120, 186, 114, 3, 2.17947
30, 1, wb, attraction, a-b-da, 9, 3, 5, 6, 120, 195, 195, 120, 186, 114, 1, 0.426719
30, 1, wb, attraction, a-b-db, 5, 2, 5, 7, 90, 165, 88, 161, 165, 90, 1, 1.71931
30, 1, wb, attraction, a-b-db, 5, 2, 5, 7, 90, 165, 88, 161, 165, 90, 3, 0.577359
30, 1, wb, filler, NA, 999, 999, 5, 8, 161, 175, 132, 66, 192, 181, 2, 0.911858
30, 1, wb, filler, NA, 999, 999, 5, 8, 161, 175, 132, 66, 192, 181, 3, 0.514205
30, 1, wb, catch, NA, 999, 999, 5, 9, 97, 158, 187, 128, 103, 92, 3, 1.01933
30, 1, wb, catch, NA, 999, 999, 5, 9, 97, 158, 187, 128, 103, 92, 2, 0.577607
30, 1, wb, attraction, a-b-db, 5, 3, 5, 10, 195, 120, 117, 190, 120, 195, 2, 1.99205
30, 1, wb, attraction, a-b-db, 5, 3, 5, 10, 195, 120, 117, 190, 120, 195, 1, 0.678719
30, 1, wb, attraction, a-b-db, 9, 3, 5, 11, 195, 120, 120, 195, 114, 186, 3, 1.57711
30, 1, wb, attraction, a-b-db, 9, 3, 5, 11, 195, 120, 120, 195, 114, 186, 1, 0.608594
30, 1, wb, filler, NA, 999, 999, 5, 12, 122, 157, 68, 139, 98, 113, 2, 1.9656
30, 1, wb, filler, NA, 999, 999, 5, 12, 122, 157, 68, 139, 98, 113, 1, 0.565704
30, 1, wb, filler, NA, 999, 999, 5, 13, 60, 142, 107, 64, 85, 83, 2, 3.26882
30, 1, wb, filler, NA, 999, 999, 5, 13, 60, 142, 107, 64, 85, 83, 3, 0.744456
30, 1, wb, attraction, a-b-da, 5, 3, 5, 14, 120, 195, 195, 120, 190, 117, 3, 0.952101
30, 1, wb, attraction, a-b-da, 5, 3, 5, 14, 120, 195, 195, 120, 190, 117, 1, 0.785119
30, 1, wb, attraction, a-b-db, 2, 2, 5, 15, 165, 90, 89, 163, 90, 165, 3, 1.83148
30, 1, wb, attraction, a-b-db, 2, 2, 5, 15, 165, 90, 89, 163, 90, 165, 1, 1.14883
30, 1, wb, attraction, a-b-da, 14, 3, 5, 16, 195, 120, 120, 195, 181, 111, 3, 1.15642
30, 1, wb, attraction, a-b-da, 14, 3, 5, 16, 195, 120, 120, 195, 181, 111, 2, 0.692687
30, 1, wb, filler, NA, 999, 999, 5, 17, 74, 146, 125, 59, 112, 67, 3, 1.27853
30, 1, wb, filler, NA, 999, 999, 5, 17, 74, 146, 125, 59, 112, 67, 1, 0.706045
30, 1, wb, attraction, a-b-da, 5, 1, 5, 18, 132, 58, 135, 60, 60, 135, 3, 1.41974
30, 1, wb, attraction, a-b-da, 5, 1, 5, 18, 132, 58, 135, 60, 60, 135, 2, 0.770097
30, 1, wb, attraction, a-b-da, 2, 2, 5, 19, 163, 89, 90, 165, 165, 90, 2, 3.94506
30, 1, wb, attraction, a-b-da, 2, 2, 5, 19, 163, 89, 90, 165, 165, 90, 1, 2.68117
30, 1, wb, attraction, a-b-db, 2, 1, 5, 20, 135, 60, 60, 135, 59, 134, 2, 1.41079
30, 1, wb, attraction, a-b-db, 2, 1, 5, 20, 135, 60, 60, 135, 59, 134, 1, 0.920974
30, 1, wb, catch, NA, 999, 999, 5, 21, 77, 118, 154, 101, 151, 164, 1, 1.31403
30, 1, wb, catch, NA, 999, 999, 5, 21, 77, 118, 154, 101, 151, 164, 3, 0.572248
30, 1, wb, filler, NA, 999, 999, 5, 22, 166, 193, 132, 62, 179, 106, 2, 1.00341
30, 1, wb, filler, NA, 999, 999, 5, 22, 166, 193, 132, 62, 179, 106, 1, 0.570277
30, 1, wb, attraction, a-b-db, 14, 3, 5, 23, 120, 195, 111, 181, 195, 120, 2, 2.69743
30, 1, wb, attraction, a-b-db, 14, 3, 5, 23, 120, 195, 111, 181, 195, 120, 3, 0.691892
30, 1, wb, attraction, a-b-da, 2, 1, 5, 24, 60, 135, 135, 60, 134, 59, 1, 2.49363
30, 1, wb, attraction, a-b-da, 2, 1, 5, 24, 60, 135, 135, 60, 134, 59, 3, 0.808146
30, 1, wb, attraction, a-b-da, 9, 2, 5, 25, 165, 90, 90, 165, 157, 86, 2, 2.93326
30, 1, wb, attraction, a-b-da, 9, 2, 5, 25, 165, 90, 90, 165, 157, 86, 3, 0.894343
30, 1, wb, catch, NA, 999, 999, 5, 26, 178, 137, 74, 121, 118, 137, 2, 0.864061
30, 1, wb, catch, NA, 999, 999, 5, 26, 178, 137, 74, 121, 118, 137, 1, 0.556283
30, 1, wb, filler, NA, 999, 999, 5, 27, 186, 70, 105, 161, 74, 109, 3, 1.02808
30, 1, wb, filler, NA, 999, 999, 5, 27, 186, 70, 105, 161, 74, 109, 2, 0.569705
30, 1, wb, attraction, a-b-da, 9, 1, 5, 28, 129, 57, 60, 135, 135, 60, 1, 4.1288
30, 1, wb, attraction, a-b-da, 9, 1, 5, 28, 129, 57, 60, 135, 135, 60, 3, 0.641554
30, 1, wb, attraction, a-b-da, 14, 2, 5, 29, 153, 83, 90, 165, 165, 90, 1, 1.80523
30, 1, wb, attraction, a-b-da, 14, 2, 5, 29, 153, 83, 90, 165, 165, 90, 2, 0.499349
30, 1, wb, attraction, a-b-db, 9, 1, 5, 30, 57, 129, 135, 60, 60, 135, 3, 3.26101
30, 1, wb, attraction, a-b-db, 9, 1, 5, 30, 57, 129, 135, 60, 60, 135, 2, 0.680706
30, 1, wb, filler, NA, 999, 999, 5, 31, 105, 184, 140, 114, 134, 147, 2, 2.58718
30, 1, wb, filler, NA, 999, 999, 5, 31, 105, 184, 140, 114, 134, 147, 1, 0.562319
30, 1, wb, attraction, a-b-db, 14, 1, 5, 32, 56, 125, 135, 60, 60, 135, 1, 1.97746
30, 1, wb, attraction, a-b-db, 14, 1, 5, 32, 56, 125, 135, 60, 60, 135, 2, 0.688856
30, 1, wb, filler, NA, 999, 999, 5, 33, 154, 121, 89, 57, 96, 161, 2, 0.811065
30, 1, wb, filler, NA, 999, 999, 5, 33, 154, 121, 89, 57, 96, 161, 1, 0.63344
30, 1, wb, attraction, a-b-da, 2, 3, 5, 34, 195, 120, 120, 195, 193, 119, 3, 2.58993
30, 1, wb, attraction, a-b-da, 2, 3, 5, 34, 195, 120, 120, 195, 193, 119, 2, 0.580341
30, 1, wb, attraction, a-b-da, 5, 2, 5, 35, 90, 165, 161, 88, 165, 90, 2, 2.60285
30, 1, wb, attraction, a-b-da, 5, 2, 5, 35, 90, 165, 161, 88, 165, 90, 1, 0.585307
30, 1, wb, filler, NA, 999, 999, 5, 36, 122, 123, 90, 187, 128, 62, 3, 1.09573
30, 1, wb, filler, NA, 999, 999, 5, 36, 122, 123, 90, 187, 128, 62, 2, 0.746656
30, 1, wb, filler, NA, 999, 999, 5, 37, 68, 170, 113, 133, 66, 163, 3, 1.5064
30, 1, wb, filler, NA, 999, 999, 5, 37, 68, 170, 113, 133, 66, 163, 2, 0.516591
30, 1, wb, filler, NA, 999, 999, 6, 1, 158, 70, 171, 99, 151, 136, 1, 1.74179
30, 1, wb, filler, NA, 999, 999, 6, 1, 158, 70, 171, 99, 151, 136, 2, 0.502411
30, 1, wb, attraction, a-b-da, 5, 1, 6, 2, 135, 60, 60, 135, 132, 58, 2, 2.71222
30, 1, wb, attraction, a-b-da, 5, 1, 6, 2, 135, 60, 60, 135, 132, 58, 1, 0.713988
30, 1, wb, filler, NA, 999, 999, 6, 3, 193, 107, 76, 184, 151, 58, 3, 1.07517
30, 1, wb, filler, NA, 999, 999, 6, 3, 193, 107, 76, 184, 151, 58, 1, 0.670743
30, 1, wb, attraction, a-b-db, 5, 3, 6, 4, 117, 190, 120, 195, 195, 120, 1, 3.80178
30, 1, wb, attraction, a-b-db, 5, 3, 6, 4, 117, 190, 120, 195, 195, 120, 3, 1.23996
30, 1, wb, filler, NA, 999, 999, 6, 5, 170, 71, 115, 149, 165, 165, 1, 1.46011
30, 1, wb, filler, NA, 999, 999, 6, 5, 170, 71, 115, 149, 165, 165, 3, 0.912406
30, 1, wb, attraction, a-b-db, 2, 2, 6, 6, 90, 165, 165, 90, 89, 163, 3, 3.94534
30, 1, wb, attraction, a-b-db, 2, 2, 6, 6, 90, 165, 165, 90, 89, 163, 1, 1.22546
30, 1, wb, catch, NA, 999, 999, 6, 7, 91, 104, 118, 137, 184, 131, 1, 0.901531
30, 1, wb, catch, NA, 999, 999, 6, 7, 91, 104, 118, 137, 184, 131, 3, 0.53667
30, 1, wb, attraction, a-b-da, 9, 2, 6, 8, 157, 86, 165, 90, 90, 165, 3, 3.04904
30, 1, wb, attraction, a-b-da, 9, 2, 6, 8, 157, 86, 165, 90, 90, 165, 2, 1.69347
30, 1, wb, attraction, a-b-db, 14, 2, 6, 9, 165, 90, 83, 153, 90, 165, 2, 1.34284
30, 1, wb, attraction, a-b-db, 14, 2, 6, 9, 165, 90, 83, 153, 90, 165, 1, 0.623696
30, 1, wb, attraction, a-b-da, 5, 2, 6, 10, 161, 88, 165, 90, 90, 165, 1, 2.4761
30, 1, wb, attraction, a-b-da, 5, 2, 6, 10, 161, 88, 165, 90, 90, 165, 2, 1.03138
30, 1, wb, catch, NA, 999, 999, 6, 11, 89, 106, 186, 129, 101, 154, 1, 0.963673
30, 1, wb, catch, NA, 999, 999, 6, 11, 89, 106, 186, 129, 101, 154, 2, 0.443949
30, 1, wb, attraction, a-b-db, 5, 1, 6, 12, 135, 60, 60, 135, 58, 132, 3, 1.67191
30, 1, wb, attraction, a-b-db, 5, 1, 6, 12, 135, 60, 60, 135, 58, 132, 1, 0.627239
30, 1, wb, filler, NA, 999, 999, 6, 13, 66, 64, 75, 114, 174, 147, 1, 0.719587
30, 1, wb, filler, NA, 999, 999, 6, 13, 66, 64, 75, 114, 174, 147, 3, 0.569991
30, 1, wb, filler, NA, 999, 999, 6, 14, 86, 62, 94, 133, 134, 147, 1, 1.01722
30, 1, wb, filler, NA, 999, 999, 6, 14, 86, 62, 94, 133, 134, 147, 3, 0.623597
30, 1, wb, attraction, a-b-db, 9, 1, 6, 15, 135, 60, 57, 129, 60, 135, 3, 1.44388
30, 1, wb, attraction, a-b-db, 9, 1, 6, 15, 135, 60, 57, 129, 60, 135, 1, 0.952745
30, 1, wb, attraction, a-b-da, 5, 3, 6, 16, 120, 195, 190, 117, 195, 120, 1, 2.20844
30, 1, wb, attraction, a-b-da, 5, 3, 6, 16, 120, 195, 190, 117, 195, 120, 2, 0.99836
30, 1, wb, filler, NA, 999, 999, 6, 17, 146, 193, 89, 166, 106, 154, 2, 4.09999
30, 1, wb, filler, NA, 999, 999, 6, 17, 146, 193, 89, 166, 106, 154, 1, 0.485934
30, 1, wb, attraction, a-b-db, 2, 1, 6, 18, 59, 134, 135, 60, 60, 135, 1, 1.37644
30, 1, wb, attraction, a-b-db, 2, 1, 6, 18, 59, 134, 135, 60, 60, 135, 2, 0.72796
30, 1, wb, attraction, a-b-da, 14, 2, 6, 19, 153, 83, 165, 90, 90, 165, 1, 2.98447
30, 1, wb, attraction, a-b-da, 14, 2, 6, 19, 153, 83, 165, 90, 90, 165, 2, 0.831374
30, 1, wb, filler, NA, 999, 999, 6, 20, 119, 126, 165, 115, 154, 160, 1, 0.931777
30, 1, wb, filler, NA, 999, 999, 6, 20, 119, 126, 165, 115, 154, 160, 3, 0.525431
30, 1, wb, attraction, a-b-da, 14, 3, 6, 21, 120, 195, 181, 111, 195, 120, 2, 1.4698
30, 1, wb, attraction, a-b-da, 14, 3, 6, 21, 120, 195, 181, 111, 195, 120, 1, 0.674038
30, 1, wb, attraction, a-b-da, 9, 1, 6, 22, 129, 57, 135, 60, 60, 135, 2, 4.03652
30, 1, wb, attraction, a-b-da, 9, 1, 6, 22, 129, 57, 135, 60, 60, 135, 3, 0.761208
30, 1, wb, filler, NA, 999, 999, 6, 23, 124, 115, 136, 173, 79, 192, 1, 1.08013
30, 1, wb, filler, NA, 999, 999, 6, 23, 124, 115, 136, 173, 79, 192, 2, 0.419852
30, 1, wb, filler, NA, 999, 999, 6, 24, 141, 108, 128, 79, 94, 133, 2, 1.017
30, 1, wb, filler, NA, 999, 999, 6, 24, 141, 108, 128, 79, 94, 133, 1, 0.535304
30, 1, wb, attraction, a-b-da, 2, 1, 6, 25, 60, 135, 134, 59, 135, 60, 1, 3.93578
30, 1, wb, attraction, a-b-da, 2, 1, 6, 25, 60, 135, 134, 59, 135, 60, 3, 0.656654
30, 1, wb, attraction, a-b-db, 2, 3, 6, 26, 195, 120, 120, 195, 119, 193, 3, 1.93965
30, 1, wb, attraction, a-b-db, 2, 3, 6, 26, 195, 120, 120, 195, 119, 193, 1, 0.500308
30, 1, wb, attraction, a-b-db, 14, 1, 6, 27, 60, 135, 135, 60, 56, 125, 3, 1.3661
30, 1, wb, attraction, a-b-db, 14, 1, 6, 27, 60, 135, 135, 60, 56, 125, 2, 1.10226
30, 1, wb, attraction, a-b-da, 2, 3, 6, 28, 193, 119, 120, 195, 195, 120, 1, 4.7359
30, 1, wb, attraction, a-b-da, 2, 3, 6, 28, 193, 119, 120, 195, 195, 120, 2, 0.736408
30, 1, wb, filler, NA, 999, 999, 6, 29, 58, 152, 84, 147, 69, 148, 1, 1.55269
30, 1, wb, filler, NA, 999, 999, 6, 29, 58, 152, 84, 147, 69, 148, 2, 0.801679
30, 1, wb, attraction, a-b-db, 9, 2, 6, 30, 165, 90, 90, 165, 86, 157, 3, 1.5433
30, 1, wb, attraction, a-b-db, 9, 2, 6, 30, 165, 90, 90, 165, 86, 157, 1, 0.752059
30, 1, wb, attraction, a-b-db, 14, 3, 6, 31, 195, 120, 120, 195, 111, 181, 3, 1.31179
30, 1, wb, attraction, a-b-db, 14, 3, 6, 31, 195, 120, 120, 195, 111, 181, 1, 0.53819
30, 1, wb, catch, NA, 999, 999, 6, 32, 154, 161, 91, 104, 134, 121, 2, 0.762568
30, 1, wb, catch, NA, 999, 999, 6, 32, 154, 161, 91, 104, 134, 121, 1, 0.49083
30, 1, wb, attraction, a-b-da, 9, 3, 6, 33, 186, 114, 120, 195, 195, 120, 1, 3.05272
30, 1, wb, attraction, a-b-da, 9, 3, 6, 33, 186, 114, 120, 195, 195, 120, 3, 0.865056
30, 1, wb, attraction, a-b-db, 5, 2, 6, 34, 165, 90, 88, 161, 90, 165, 2, 2.14021
30, 1, wb, attraction, a-b-db, 5, 2, 6, 34, 165, 90, 88, 161, 90, 165, 1, 1.30064
30, 1, wb, attraction, a-b-da, 14, 1, 6, 35, 135, 60, 60, 135, 125, 56, 3, 1.71029
30, 1, wb, attraction, a-b-da, 14, 1, 6, 35, 135, 60, 60, 135, 125, 56, 1, 0.880321
30, 1, wb, attraction, a-b-db, 9, 3, 6, 36, 195, 120, 114, 186, 120, 195, 3, 4.50657
30, 1, wb, attraction, a-b-db, 9, 3, 6, 36, 195, 120, 114, 186, 120, 195, 1, 1.004
30, 1, wb, attraction, a-b-da, 2, 2, 6, 37, 165, 90, 90, 165, 163, 89, 3, 2.42547
30, 1, wb, attraction, a-b-da, 2, 2, 6, 37, 165, 90, 90, 165, 163, 89, 2, 0.702707
30, 1, wb, attraction, a-b-da, 5, 2, 7, 1, 165, 90, 161, 88, 90, 165, 3, 1.1205
30, 1, wb, attraction, a-b-da, 5, 2, 7, 1, 165, 90, 161, 88, 90, 165, 1, 0.53875
30, 1, wb, filler, NA, 999, 999, 7, 2, 65, 115, 192, 180, 94, 124, 1, 0.98741
30, 1, wb, filler, NA, 999, 999, 7, 2, 65, 115, 192, 180, 94, 124, 2, 0.482785
30, 1, wb, attraction, a-b-da, 2, 1, 7, 3, 60, 135, 135, 60, 134, 59, 1, 2.52537
30, 1, wb, attraction, a-b-da, 2, 1, 7, 3, 60, 135, 135, 60, 134, 59, 3, 0.846467
30, 1, wb, attraction, a-b-da, 14, 2, 7, 4, 153, 83, 90, 165, 165, 90, 1, 1.97022
30, 1, wb, attraction, a-b-da, 14, 2, 7, 4, 153, 83, 90, 165, 165, 90, 3, 0.778205
30, 1, wb, attraction, a-b-da, 9, 2, 7, 5, 165, 90, 157, 86, 90, 165, 2, 2.80873
30, 1, wb, attraction, a-b-da, 9, 2, 7, 5, 165, 90, 157, 86, 90, 165, 1, 0.63818
30, 1, wb, attraction, a-b-db, 2, 2, 7, 6, 165, 90, 89, 163, 90, 165, 3, 1.25875
30, 1, wb, attraction, a-b-db, 2, 2, 7, 6, 165, 90, 89, 163, 90, 165, 1, 0.574891
30, 1, wb, attraction, a-b-db, 2, 3, 7, 7, 195, 120, 120, 195, 119, 193, 3, 1.22138
30, 1, wb, attraction, a-b-db, 2, 3, 7, 7, 195, 120, 120, 195, 119, 193, 1, 0.651602
30, 1, wb, attraction, a-b-da, 2, 3, 7, 8, 193, 119, 120, 195, 195, 120, 3, 2.19134
30, 1, wb, attraction, a-b-da, 2, 3, 7, 8, 193, 119, 120, 195, 195, 120, 2, 0.710111
30, 1, wb, attraction, a-b-da, 5, 1, 7, 9, 60, 135, 132, 58, 135, 60, 2, 3.52698
30, 1, wb, attraction, a-b-da, 5, 1, 7, 9, 60, 135, 132, 58, 135, 60, 3, 0.831869
30, 1, wb, filler, NA, 999, 999, 7, 10, 110, 110, 160, 147, 159, 118, 1, 0.804151
30, 1, wb, filler, NA, 999, 999, 7, 10, 110, 110, 160, 147, 159, 118, 2, 0.499253
30, 1, wb, attraction, a-b-da, 14, 3, 7, 11, 195, 120, 120, 195, 181, 111, 3, 1.27713
30, 1, wb, attraction, a-b-da, 14, 3, 7, 11, 195, 120, 120, 195, 181, 111, 2, 0.480749
30, 1, wb, attraction, a-b-db, 14, 3, 7, 12, 120, 195, 195, 120, 111, 181, 3, 0.923101
30, 1, wb, attraction, a-b-db, 14, 3, 7, 12, 120, 195, 195, 120, 111, 181, 1, 0.868739
30, 1, wb, attraction, a-b-db, 5, 3, 7, 13, 117, 190, 120, 195, 195, 120, 1, 1.70376
30, 1, wb, attraction, a-b-db, 5, 3, 7, 13, 117, 190, 120, 195, 195, 120, 3, 0.63453
30, 1, wb, attraction, a-b-db, 5, 1, 7, 14, 58, 132, 60, 135, 135, 60, 2, 1.04694
30, 1, wb, attraction, a-b-db, 5, 1, 7, 14, 58, 132, 60, 135, 135, 60, 3, 0.660036
30, 1, wb, attraction, a-b-db, 5, 2, 7, 15, 165, 90, 88, 161, 90, 165, 2, 1.02307
30, 1, wb, attraction, a-b-db, 5, 2, 7, 15, 165, 90, 88, 161, 90, 165, 1, 0.508742
30, 1, wb, filler, NA, 999, 999, 7, 16, 107, 164, 89, 163, 143, 100, 2, 1.42983
30, 1, wb, filler, NA, 999, 999, 7, 16, 107, 164, 89, 163, 143, 100, 1, 1.18737
30, 1, wb, filler, NA, 999, 999, 7, 17, 151, 183, 158, 98, 133, 84, 3, 1.23358
30, 1, wb, filler, NA, 999, 999, 7, 17, 151, 183, 158, 98, 133, 84, 1, 0.575094
30, 1, wb, attraction, a-b-db, 2, 1, 7, 18, 135, 60, 60, 135, 59, 134, 2, 3.0135
30, 1, wb, attraction, a-b-db, 2, 1, 7, 18, 135, 60, 60, 135, 59, 134, 1, 2.3393
30, 1, wb, attraction, a-b-db, 14, 2, 7, 19, 165, 90, 83, 153, 90, 165, 2, 1.17131
30, 1, wb, attraction, a-b-db, 14, 2, 7, 19, 165, 90, 83, 153, 90, 165, 1, 0.586785
30, 1, wb, filler, NA, 999, 999, 7, 20, 174, 158, 141, 164, 78, 177, 3, 0.873307
30, 1, wb, filler, NA, 999, 999, 7, 20, 174, 158, 141, 164, 78, 177, 1, 0.677324
30, 1, wb, attraction, a-b-da, 5, 3, 7, 21, 190, 117, 120, 195, 195, 120, 1, 5.09528
30, 1, wb, attraction, a-b-da, 5, 3, 7, 21, 190, 117, 120, 195, 195, 120, 2, 0.473084
30, 1, wb, attraction, a-b-da, 9, 1, 7, 22, 60, 135, 129, 57, 135, 60, 2, 3.49211
30, 1, wb, attraction, a-b-da, 9, 1, 7, 22, 60, 135, 129, 57, 135, 60, 3, 0.806337
30, 1, wb, attraction, a-b-da, 2, 2, 7, 23, 90, 165, 165, 90, 163, 89, 3, 6.29201
30, 1, wb, attraction, a-b-da, 2, 2, 7, 23, 90, 165, 165, 90, 163, 89, 1, 0.733378
30, 1, wb, attraction, a-b-db, 9, 2, 7, 24, 86, 157, 90, 165, 165, 90, 1, 1.36582
30, 1, wb, attraction, a-b-db, 9, 2, 7, 24, 86, 157, 90, 165, 165, 90, 2, 1.67009
30, 1, wb, filler, NA, 999, 999, 7, 25, 78, 97, 168, 80, 151, 153, 1, 0.920733
30, 1, wb, filler, NA, 999, 999, 7, 25, 78, 97, 168, 80, 151, 153, 3, 0.475213
30, 1, wb, attraction, a-b-db, 14, 1, 7, 26, 60, 135, 135, 60, 56, 125, 3, 1.33356
30, 1, wb, attraction, a-b-db, 14, 1, 7, 26, 60, 135, 135, 60, 56, 125, 1, 0.839263
30, 1, wb, filler, NA, 999, 999, 7, 27, 62, 139, 139, 161, 126, 73, 3, 1.54749
30, 1, wb, filler, NA, 999, 999, 7, 27, 62, 139, 139, 161, 126, 73, 2, 0.444399
30, 1, wb, catch, NA, 999, 999, 7, 28, 131, 124, 91, 104, 160, 155, 2, 1.14408
30, 1, wb, catch, NA, 999, 999, 7, 28, 131, 124, 91, 104, 160, 155, 3, 0.449186
30, 1, wb, attraction, a-b-da, 14, 1, 7, 29, 125, 56, 60, 135, 135, 60, 1, 3.97283
30, 1, wb, attraction, a-b-da, 14, 1, 7, 29, 125, 56, 60, 135, 135, 60, 3, 0.819618
30, 1, wb, filler, NA, 999, 999, 7, 30, 134, 75, 119, 141, 68, 135, 3, 0.960632
30, 1, wb, filler, NA, 999, 999, 7, 30, 134, 75, 119, 141, 68, 135, 2, 0.648986
30, 1, wb, filler, NA, 999, 999, 7, 31, 154, 177, 135, 173, 132, 164, 3, 2.29268
30, 1, wb, filler, NA, 999, 999, 7, 31, 154, 177, 135, 173, 132, 164, 1, 0.439306
30, 1, wb, catch, NA, 999, 999, 7, 32, 151, 164, 142, 113, 109, 86, 3, 0.915681
30, 1, wb, catch, NA, 999, 999, 7, 32, 151, 164, 142, 113, 109, 86, 1, 0.59005
30, 1, wb, attraction, a-b-db, 9, 1, 7, 33, 135, 60, 57, 129, 60, 135, 2, 3.37983
30, 1, wb, attraction, a-b-db, 9, 1, 7, 33, 135, 60, 57, 129, 60, 135, 1, 0.690705
30, 1, wb, catch, NA, 999, 999, 7, 34, 132, 63, 139, 116, 157, 158, 1, 1.05264
30, 1, wb, catch, NA, 999, 999, 7, 34, 132, 63, 139, 116, 157, 158, 3, 0.857612
30, 1, wb, attraction, a-b-da, 9, 3, 7, 35, 186, 114, 120, 195, 195, 120, 1, 1.23645
30, 1, wb, attraction, a-b-da, 9, 3, 7, 35, 186, 114, 120, 195, 195, 120, 2, 0.698182
30, 1, wb, attraction, a-b-db, 9, 3, 7, 36, 114, 186, 195, 120, 120, 195, 1, 1.17179
30, 1, wb, attraction, a-b-db, 9, 3, 7, 36, 114, 186, 195, 120, 120, 195, 3, 0.595346
30, 1, wb, filler, NA, 999, 999, 7, 37, 192, 112, 152, 150, 169, 176, 1, 1.64107
30, 1, wb, filler, NA, 999, 999, 7, 37, 192, 112, 152, 150, 169, 176, 3, 0.901943
30, 1, wb, attraction, a-b-db, 5, 2, 8, 1, 88, 161, 90, 165, 165, 90, 1, 3.15173
30, 1, wb, attraction, a-b-db, 5, 2, 8, 1, 88, 161, 90, 165, 165, 90, 2, 1.1201
30, 1, wb, attraction, a-b-db, 9, 1, 8, 2, 57, 129, 135, 60, 60, 135, 2, 2.55281
30, 1, wb, attraction, a-b-db, 9, 1, 8, 2, 57, 129, 135, 60, 60, 135, 3, 0.729434
30, 1, wb, attraction, a-b-db, 9, 2, 8, 3, 90, 165, 86, 157, 165, 90, 2, 2.13783
30, 1, wb, attraction, a-b-db, 9, 2, 8, 3, 90, 165, 86, 157, 165, 90, 1, 0.699135
30, 1, wb, attraction, a-b-db, 14, 3, 8, 4, 111, 181, 120, 195, 195, 120, 1, 2.27676
30, 1, wb, attraction, a-b-db, 14, 3, 8, 4, 111, 181, 120, 195, 195, 120, 2, 0.576049
30, 1, wb, filler, NA, 999, 999, 8, 5, 161, 158, 158, 144, 104, 190, 3, 6.4786
30, 1, wb, filler, NA, 999, 999, 8, 5, 161, 158, 158, 144, 104, 190, 1, 0.504442
30, 1, wb, attraction, a-b-da, 2, 3, 8, 6, 195, 120, 120, 195, 193, 119, 1, 2.53011
30, 1, wb, attraction, a-b-da, 2, 3, 8, 6, 195, 120, 120, 195, 193, 119, 3, 0.859374
30, 1, wb, filler, NA, 999, 999, 8, 7, 147, 166, 169, 139, 136, 65, 3, 1.31034
30, 1, wb, filler, NA, 999, 999, 8, 7, 147, 166, 169, 139, 136, 65, 2, 1.82466
30, 1, wb, attraction, a-b-da, 9, 3, 8, 8, 186, 114, 195, 120, 120, 195, 1, 2.25261
30, 1, wb, attraction, a-b-da, 9, 3, 8, 8, 186, 114, 195, 120, 120, 195, 3, 0.83324
30, 1, wb, attraction, a-b-db, 14, 1, 8, 9, 135, 60, 60, 135, 56, 125, 3, 3.66156
30, 1, wb, attraction, a-b-db, 14, 1, 8, 9, 135, 60, 60, 135, 56, 125, 1, 0.745056
30, 1, wb, catch, NA, 999, 999, 8, 10, 147, 168, 117, 138, 102, 93, 3, 0.824747
30, 1, wb, catch, NA, 999, 999, 8, 10, 147, 168, 117, 138, 102, 93, 1, 0.65448
30, 1, wb, attraction, a-b-db, 5, 1, 8, 11, 60, 135, 135, 60, 58, 132, 1, 1.11423
30, 1, wb, attraction, a-b-db, 5, 1, 8, 11, 60, 135, 135, 60, 58, 132, 2, 1.6607
30, 1, wb, attraction, a-b-da, 2, 2, 8, 12, 165, 90, 90, 165, 163, 89, 3, 3.87137
30, 1, wb, attraction, a-b-da, 2, 2, 8, 12, 165, 90, 90, 165, 163, 89, 2, 1.35483
30, 1, wb, attraction, a-b-db, 2, 3, 8, 13, 195, 120, 119, 193, 120, 195, 2, 2.82624
30, 1, wb, attraction, a-b-db, 2, 3, 8, 13, 195, 120, 119, 193, 120, 195, 1, 0.871348
30, 1, wb, filler, NA, 999, 999, 8, 14, 101, 169, 194, 80, 133, 74, 3, 0.714403
30, 1, wb, filler, NA, 999, 999, 8, 14, 101, 169, 194, 80, 133, 74, 1, 0.652722
30, 1, wb, filler, NA, 999, 999, 8, 15, 143, 173, 144, 66, 97, 142, 2, 0.872488
30, 1, wb, filler, NA, 999, 999, 8, 15, 143, 173, 144, 66, 97, 142, 1, 0.492114
30, 1, wb, attraction, a-b-db, 9, 3, 8, 16, 195, 120, 114, 186, 120, 195, 3, 1.23794
30, 1, wb, attraction, a-b-db, 9, 3, 8, 16, 195, 120, 114, 186, 120, 195, 1, 0.723513
30, 1, wb, attraction, a-b-db, 14, 2, 8, 17, 83, 153, 90, 165, 165, 90, 1, 1.21186
30, 1, wb, attraction, a-b-db, 14, 2, 8, 17, 83, 153, 90, 165, 165, 90, 3, 0.674304
30, 1, wb, attraction, a-b-da, 2, 1, 8, 18, 60, 135, 134, 59, 135, 60, 1, 1.51669
30, 1, wb, attraction, a-b-da, 2, 1, 8, 18, 60, 135, 134, 59, 135, 60, 2, 1.51895
30, 1, wb, filler, NA, 999, 999, 8, 19, 91, 154, 161, 74, 184, 138, 1, 3.19955
30, 1, wb, filler, NA, 999, 999, 8, 19, 91, 154, 161, 74, 184, 138, 3, 0.741955
30, 1, wb, attraction, a-b-da, 14, 2, 8, 20, 165, 90, 153, 83, 90, 165, 2, 2.13377
30, 1, wb, attraction, a-b-da, 14, 2, 8, 20, 165, 90, 153, 83, 90, 165, 1, 0.926921
30, 1, wb, attraction, a-b-da, 5, 1, 8, 21, 135, 60, 60, 135, 132, 58, 3, 3.62321
30, 1, wb, attraction, a-b-da, 5, 1, 8, 21, 135, 60, 60, 135, 132, 58, 1, 0.884034
30, 1, wb, attraction, a-b-da, 9, 1, 8, 22, 60, 135, 135, 60, 129, 57, 1, 2.14245
30, 1, wb, attraction, a-b-da, 9, 1, 8, 22, 60, 135, 135, 60, 129, 57, 3, 0.863136
30, 1, wb, attraction, a-b-db, 2, 2, 8, 23, 165, 90, 89, 163, 90, 165, 3, 1.52206
30, 1, wb, attraction, a-b-db, 2, 2, 8, 23, 165, 90, 89, 163, 90, 165, 1, 0.54746
30, 1, wb, attraction, a-b-da, 14, 1, 8, 24, 60, 135, 135, 60, 125, 56, 3, 1.90736
30, 1, wb, attraction, a-b-da, 14, 1, 8, 24, 60, 135, 135, 60, 125, 56, 2, 0.549372
30, 1, wb, attraction, a-b-da, 5, 2, 8, 25, 90, 165, 161, 88, 165, 90, 3, 4.60511
30, 1, wb, attraction, a-b-da, 5, 2, 8, 25, 90, 165, 161, 88, 165, 90, 1, 0.578992
30, 1, wb, filler, NA, 999, 999, 8, 26, 188, 191, 105, 76, 66, 113, 3, 1.15333
30, 1, wb, filler, NA, 999, 999, 8, 26, 188, 191, 105, 76, 66, 113, 1, 0.54635
30, 1, wb, filler, NA, 999, 999, 8, 27, 158, 73, 152, 142, 102, 56, 3, 1.11405
30, 1, wb, filler, NA, 999, 999, 8, 27, 158, 73, 152, 142, 102, 56, 2, 0.588412
30, 1, wb, filler, NA, 999, 999, 8, 28, 146, 144, 84, 193, 66, 116, 3, 0.978826
30, 1, wb, filler, NA, 999, 999, 8, 28, 146, 144, 84, 193, 66, 116, 1, 0.522495
30, 1, wb, catch, NA, 999, 999, 8, 29, 165, 150, 109, 146, 81, 114, 3, 0.611681
30, 1, wb, catch, NA, 999, 999, 8, 29, 165, 150, 109, 146, 81, 114, 1, 0.602041
30, 1, wb, catch, NA, 999, 999, 8, 30, 97, 98, 102, 153, 171, 144, 1, 1.01586
30, 1, wb, catch, NA, 999, 999, 8, 30, 97, 98, 102, 153, 171, 144, 3, 0.622101
30, 1, wb, filler, NA, 999, 999, 8, 31, 116, 107, 149, 93, 155, 88, 1, 4.27522
30, 1, wb, filler, NA, 999, 999, 8, 31, 116, 107, 149, 93, 155, 88, 2, 1.26988
30, 1, wb, attraction, a-b-da, 9, 2, 8, 32, 157, 86, 165, 90, 90, 165, 1, 3.25673
30, 1, wb, attraction, a-b-da, 9, 2, 8, 32, 157, 86, 165, 90, 90, 165, 3, 0.684412
30, 1, wb, attraction, a-b-db, 5, 3, 8, 33, 195, 120, 117, 190, 120, 195, 2, 2.09474
30, 1, wb, attraction, a-b-db, 5, 3, 8, 33, 195, 120, 117, 190, 120, 195, 1, 0.593427
30, 1, wb, filler, NA, 999, 999, 8, 34, 65, 111, 100, 153, 88, 65, 3, 1.09514
30, 1, wb, filler, NA, 999, 999, 8, 34, 65, 111, 100, 153, 88, 65, 2, 0.434149
30, 1, wb, attraction, a-b-db, 2, 1, 8, 35, 59, 134, 60, 135, 135, 60, 1, 2.64657
30, 1, wb, attraction, a-b-db, 2, 1, 8, 35, 59, 134, 60, 135, 135, 60, 3, 0.795164
30, 1, wb, attraction, a-b-da, 14, 3, 8, 36, 120, 195, 195, 120, 181, 111, 3, 1.57696
30, 1, wb, attraction, a-b-da, 14, 3, 8, 36, 120, 195, 195, 120, 181, 111, 1, 0.576288
30, 1, wb, attraction, a-b-da, 5, 3, 8, 37, 195, 120, 120, 195, 190, 117, 3, 1.76671
30, 1, wb, attraction, a-b-da, 5, 3, 8, 37, 195, 120, 120, 195, 190, 117, 2, 0.72677
