sub_n, computer_n, bw_cond, effect, set, distance, diag, block_n, trial_n, h1, w1, h2, w2, h3, w3, choice, rt 
34, 1, wb, practice, NA, 999, 999, 0, 1, 115, 116, 108, 89, 181, 67, 2, 3.96424
34, 1, wb, practice, NA, 999, 999, 0, 1, 115, 116, 108, 89, 181, 67, 1, 6.00177
34, 1, wb, practice, NA, 999, 999, 0, 2, 99, 121, 146, 145, 74, 67, 3, 3.03488
34, 1, wb, practice, NA, 999, 999, 0, 2, 99, 121, 146, 145, 74, 67, 2, 1.15425
34, 1, wb, practice, NA, 999, 999, 0, 3, 70, 97, 128, 126, 135, 134, 1, 1.79942
34, 1, wb, practice, NA, 999, 999, 0, 3, 70, 97, 128, 126, 135, 134, 3, 1.42923
34, 1, wb, attraction, a-b-da, 2, 1, 1, 1, 60, 135, 135, 60, 134, 59, 3, 4.68411
34, 1, wb, attraction, a-b-da, 2, 1, 1, 1, 60, 135, 135, 60, 134, 59, 1, 1.83066
34, 1, wb, catch, NA, 999, 999, 1, 2, 74, 121, 141, 114, 183, 132, 1, 1.45863
34, 1, wb, catch, NA, 999, 999, 1, 2, 74, 121, 141, 114, 183, 132, 3, 0.902774
34, 1, wb, attraction, a-b-db, 5, 1, 1, 3, 60, 135, 58, 132, 135, 60, 3, 2.90456
34, 1, wb, attraction, a-b-db, 5, 1, 1, 3, 60, 135, 58, 132, 135, 60, 1, 2.05895
34, 1, wb, attraction, a-b-db, 2, 1, 1, 4, 59, 134, 60, 135, 135, 60, 1, 5.54949
34, 1, wb, attraction, a-b-db, 2, 1, 1, 4, 59, 134, 60, 135, 135, 60, 3, 1.63722
34, 1, wb, attraction, a-b-db, 14, 2, 1, 5, 90, 165, 165, 90, 83, 153, 3, 3.80918
34, 1, wb, attraction, a-b-db, 14, 2, 1, 5, 90, 165, 165, 90, 83, 153, 2, 2.03872
34, 1, wb, attraction, a-b-db, 9, 2, 1, 6, 90, 165, 165, 90, 86, 157, 2, 6.50678
34, 1, wb, attraction, a-b-db, 9, 2, 1, 6, 90, 165, 165, 90, 86, 157, 3, 1.05133
34, 1, wb, catch, NA, 999, 999, 1, 7, 175, 140, 104, 91, 100, 155, 2, 1.32683
34, 1, wb, catch, NA, 999, 999, 1, 7, 175, 140, 104, 91, 100, 155, 1, 0.688406
34, 1, wb, filler, NA, 999, 999, 1, 8, 126, 192, 176, 95, 163, 81, 3, 1.61882
34, 1, wb, filler, NA, 999, 999, 1, 8, 126, 192, 176, 95, 163, 81, 1, 0.584848
34, 1, wb, filler, NA, 999, 999, 1, 9, 125, 148, 90, 175, 130, 97, 3, 3.94337
34, 1, wb, filler, NA, 999, 999, 1, 9, 125, 148, 90, 175, 130, 97, 1, 0.735463
34, 1, wb, attraction, a-b-da, 9, 3, 1, 10, 186, 114, 120, 195, 195, 120, 1, 4.62391
34, 1, wb, attraction, a-b-da, 9, 3, 1, 10, 186, 114, 120, 195, 195, 120, 3, 1.13237
34, 1, wb, filler, NA, 999, 999, 1, 11, 94, 123, 110, 145, 67, 71, 3, 1.5247
34, 1, wb, filler, NA, 999, 999, 1, 11, 94, 123, 110, 145, 67, 71, 2, 0.782051
34, 1, wb, attraction, a-b-da, 9, 2, 1, 12, 165, 90, 90, 165, 157, 86, 3, 1.71645
34, 1, wb, attraction, a-b-da, 9, 2, 1, 12, 165, 90, 90, 165, 157, 86, 2, 1.63866
34, 1, wb, filler, NA, 999, 999, 1, 13, 56, 151, 128, 92, 118, 144, 1, 2.13871
34, 1, wb, filler, NA, 999, 999, 1, 13, 56, 151, 128, 92, 118, 144, 3, 1.18729
34, 1, wb, attraction, a-b-da, 9, 1, 1, 14, 135, 60, 60, 135, 129, 57, 2, 5.1855
34, 1, wb, attraction, a-b-da, 9, 1, 1, 14, 135, 60, 60, 135, 129, 57, 1, 1.26403
34, 1, wb, filler, NA, 999, 999, 1, 15, 131, 181, 106, 182, 173, 181, 2, 2.03486
34, 1, wb, filler, NA, 999, 999, 1, 15, 131, 181, 106, 182, 173, 181, 3, 0.832078
34, 1, wb, attraction, a-b-da, 5, 3, 1, 16, 190, 117, 195, 120, 120, 195, 2, 2.89243
34, 1, wb, attraction, a-b-da, 5, 3, 1, 16, 190, 117, 195, 120, 120, 195, 3, 0.694984
34, 1, wb, filler, NA, 999, 999, 1, 17, 128, 169, 56, 116, 120, 154, 2, 1.43256
34, 1, wb, filler, NA, 999, 999, 1, 17, 128, 169, 56, 116, 120, 154, 1, 1.03006
34, 1, wb, attraction, a-b-da, 5, 1, 1, 18, 135, 60, 60, 135, 132, 58, 2, 1.77033
34, 1, wb, attraction, a-b-da, 5, 1, 1, 18, 135, 60, 60, 135, 132, 58, 3, 0.578533
34, 1, wb, attraction, a-b-db, 5, 3, 1, 19, 117, 190, 120, 195, 195, 120, 3, 1.45695
34, 1, wb, attraction, a-b-db, 5, 3, 1, 19, 117, 190, 120, 195, 195, 120, 2, 1.88506
34, 1, wb, attraction, a-b-db, 2, 2, 1, 20, 89, 163, 90, 165, 165, 90, 1, 1.55113
34, 1, wb, attraction, a-b-db, 2, 2, 1, 20, 89, 163, 90, 165, 165, 90, 2, 1.36805
34, 1, wb, attraction, a-b-db, 9, 1, 1, 21, 60, 135, 57, 129, 135, 60, 1, 2.11881
34, 1, wb, attraction, a-b-db, 9, 1, 1, 21, 60, 135, 57, 129, 135, 60, 3, 1.28873
34, 1, wb, attraction, a-b-da, 5, 2, 1, 22, 165, 90, 161, 88, 90, 165, 3, 2.28291
34, 1, wb, attraction, a-b-da, 5, 2, 1, 22, 165, 90, 161, 88, 90, 165, 2, 1.20628
34, 1, wb, attraction, a-b-db, 2, 3, 1, 23, 120, 195, 119, 193, 195, 120, 3, 2.19572
34, 1, wb, attraction, a-b-db, 2, 3, 1, 23, 120, 195, 119, 193, 195, 120, 2, 0.866329
34, 1, wb, filler, NA, 999, 999, 1, 24, 115, 122, 185, 142, 138, 73, 3, 1.74141
34, 1, wb, filler, NA, 999, 999, 1, 24, 115, 122, 185, 142, 138, 73, 2, 0.822105
34, 1, wb, attraction, a-b-db, 5, 2, 1, 25, 165, 90, 88, 161, 90, 165, 1, 1.69933
34, 1, wb, attraction, a-b-db, 5, 2, 1, 25, 165, 90, 88, 161, 90, 165, 3, 0.477993
34, 1, wb, attraction, a-b-da, 14, 1, 1, 26, 60, 135, 125, 56, 135, 60, 3, 0.896448
34, 1, wb, attraction, a-b-da, 14, 1, 1, 26, 60, 135, 125, 56, 135, 60, 2, 0.635473
34, 1, wb, attraction, a-b-db, 14, 1, 1, 27, 56, 125, 135, 60, 60, 135, 3, 2.47201
34, 1, wb, attraction, a-b-db, 14, 1, 1, 27, 56, 125, 135, 60, 60, 135, 2, 1.28309
34, 1, wb, filler, NA, 999, 999, 1, 28, 176, 113, 172, 156, 138, 101, 3, 1.48518
34, 1, wb, filler, NA, 999, 999, 1, 28, 176, 113, 172, 156, 138, 101, 2, 0.52072
34, 1, wb, catch, NA, 999, 999, 1, 29, 162, 93, 114, 81, 188, 127, 2, 1.00984
34, 1, wb, catch, NA, 999, 999, 1, 29, 162, 93, 114, 81, 188, 127, 3, 0.488163
34, 1, wb, attraction, a-b-db, 14, 3, 1, 30, 120, 195, 195, 120, 111, 181, 3, 2.07464
34, 1, wb, attraction, a-b-db, 14, 3, 1, 30, 120, 195, 195, 120, 111, 181, 1, 0.525945
34, 1, wb, attraction, a-b-da, 14, 2, 1, 31, 153, 83, 165, 90, 90, 165, 1, 3.0865
34, 1, wb, attraction, a-b-da, 14, 2, 1, 31, 153, 83, 165, 90, 90, 165, 3, 1.40146
34, 1, wb, filler, NA, 999, 999, 1, 32, 98, 62, 114, 118, 116, 92, 1, 1.10297
34, 1, wb, filler, NA, 999, 999, 1, 32, 98, 62, 114, 118, 116, 92, 2, 1.01792
34, 1, wb, filler, NA, 999, 999, 1, 33, 177, 189, 132, 95, 140, 169, 2, 4.22279
34, 1, wb, filler, NA, 999, 999, 1, 33, 177, 189, 132, 95, 140, 169, 1, 1.15554
34, 1, wb, attraction, a-b-da, 14, 3, 1, 34, 181, 111, 120, 195, 195, 120, 1, 1.51516
34, 1, wb, attraction, a-b-da, 14, 3, 1, 34, 181, 111, 120, 195, 195, 120, 3, 0.845331
34, 1, wb, attraction, a-b-db, 9, 3, 1, 35, 195, 120, 120, 195, 114, 186, 3, 2.04893
34, 1, wb, attraction, a-b-db, 9, 3, 1, 35, 195, 120, 120, 195, 114, 186, 2, 1.30165
34, 1, wb, attraction, a-b-da, 2, 2, 1, 36, 163, 89, 165, 90, 90, 165, 2, 3.26325
34, 1, wb, attraction, a-b-da, 2, 2, 1, 36, 163, 89, 165, 90, 90, 165, 3, 0.746786
34, 1, wb, attraction, a-b-da, 2, 3, 1, 37, 120, 195, 195, 120, 193, 119, 3, 3.33845
34, 1, wb, attraction, a-b-da, 2, 3, 1, 37, 120, 195, 195, 120, 193, 119, 1, 0.515479
34, 1, wb, filler, NA, 999, 999, 2, 1, 79, 113, 187, 61, 75, 166, 1, 1.02053
34, 1, wb, filler, NA, 999, 999, 2, 1, 79, 113, 187, 61, 75, 166, 2, 1.00281
34, 1, wb, filler, NA, 999, 999, 2, 2, 129, 74, 144, 118, 79, 77, 3, 1.12849
34, 1, wb, filler, NA, 999, 999, 2, 2, 129, 74, 144, 118, 79, 77, 2, 0.578135
34, 1, wb, attraction, a-b-da, 5, 3, 2, 3, 190, 117, 195, 120, 120, 195, 3, 1.09647
34, 1, wb, attraction, a-b-da, 5, 3, 2, 3, 190, 117, 195, 120, 120, 195, 2, 0.707522
34, 1, wb, attraction, a-b-da, 14, 3, 2, 4, 181, 111, 195, 120, 120, 195, 1, 1.01252
34, 1, wb, attraction, a-b-da, 14, 3, 2, 4, 181, 111, 195, 120, 120, 195, 3, 0.842958
34, 1, wb, attraction, a-b-da, 9, 3, 2, 5, 195, 120, 186, 114, 120, 195, 3, 1.55848
34, 1, wb, attraction, a-b-da, 9, 3, 2, 5, 195, 120, 186, 114, 120, 195, 1, 0.598653
34, 1, wb, attraction, a-b-db, 5, 2, 2, 6, 165, 90, 88, 161, 90, 165, 2, 1.82044
34, 1, wb, attraction, a-b-db, 5, 2, 2, 6, 165, 90, 88, 161, 90, 165, 1, 0.73049
34, 1, wb, filler, NA, 999, 999, 2, 7, 147, 89, 74, 183, 70, 139, 3, 3.31487
34, 1, wb, filler, NA, 999, 999, 2, 7, 147, 89, 74, 183, 70, 139, 2, 0.748512
34, 1, wb, attraction, a-b-da, 2, 2, 2, 8, 90, 165, 163, 89, 165, 90, 3, 2.33215
34, 1, wb, attraction, a-b-da, 2, 2, 2, 8, 90, 165, 163, 89, 165, 90, 1, 0.725493
34, 1, wb, attraction, a-b-da, 2, 3, 2, 9, 195, 120, 120, 195, 193, 119, 2, 2.61402
34, 1, wb, attraction, a-b-da, 2, 3, 2, 9, 195, 120, 120, 195, 193, 119, 3, 0.459646
34, 1, wb, attraction, a-b-da, 5, 1, 2, 10, 132, 58, 60, 135, 135, 60, 3, 2.32689
34, 1, wb, attraction, a-b-da, 5, 1, 2, 10, 132, 58, 60, 135, 135, 60, 2, 1.74398
34, 1, wb, catch, NA, 999, 999, 2, 11, 94, 101, 107, 148, 142, 173, 1, 1.19947
34, 1, wb, catch, NA, 999, 999, 2, 11, 94, 101, 107, 148, 142, 173, 3, 0.590497
34, 1, wb, catch, NA, 999, 999, 2, 12, 95, 100, 159, 156, 135, 120, 1, 0.796204
34, 1, wb, catch, NA, 999, 999, 2, 12, 95, 100, 159, 156, 135, 120, 2, 0.435149
34, 1, wb, filler, NA, 999, 999, 2, 13, 142, 134, 116, 72, 137, 92, 2, 1.08767
34, 1, wb, filler, NA, 999, 999, 2, 13, 142, 134, 116, 72, 137, 92, 1, 0.523353
34, 1, wb, filler, NA, 999, 999, 2, 14, 190, 58, 193, 176, 120, 151, 1, 2.7078
34, 1, wb, filler, NA, 999, 999, 2, 14, 190, 58, 193, 176, 120, 151, 2, 0.413548
34, 1, wb, attraction, a-b-da, 9, 1, 2, 15, 135, 60, 129, 57, 60, 135, 3, 1.45063
34, 1, wb, attraction, a-b-da, 9, 1, 2, 15, 135, 60, 129, 57, 60, 135, 1, 0.519622
34, 1, wb, attraction, a-b-db, 9, 1, 2, 16, 60, 135, 57, 129, 135, 60, 3, 1.14459
34, 1, wb, attraction, a-b-db, 9, 1, 2, 16, 60, 135, 57, 129, 135, 60, 2, 0.833535
34, 1, wb, attraction, a-b-da, 14, 2, 2, 17, 153, 83, 165, 90, 90, 165, 1, 1.27812
34, 1, wb, attraction, a-b-da, 14, 2, 2, 17, 153, 83, 165, 90, 90, 165, 3, 0.545563
34, 1, wb, attraction, a-b-db, 14, 3, 2, 18, 195, 120, 120, 195, 111, 181, 2, 2.19322
34, 1, wb, attraction, a-b-db, 14, 3, 2, 18, 195, 120, 120, 195, 111, 181, 1, 0.935925
34, 1, wb, catch, NA, 999, 999, 2, 19, 133, 62, 178, 137, 95, 160, 1, 1.10428
34, 1, wb, catch, NA, 999, 999, 2, 19, 133, 62, 178, 137, 95, 160, 2, 0.731169
34, 1, wb, attraction, a-b-db, 14, 1, 2, 20, 56, 125, 135, 60, 60, 135, 1, 4.65953
34, 1, wb, attraction, a-b-db, 14, 1, 2, 20, 56, 125, 135, 60, 60, 135, 2, 1.07873
34, 1, wb, attraction, a-b-db, 2, 3, 2, 21, 195, 120, 120, 195, 119, 193, 1, 1.217
34, 1, wb, attraction, a-b-db, 2, 3, 2, 21, 195, 120, 120, 195, 119, 193, 2, 0.85523
34, 1, wb, attraction, a-b-db, 2, 1, 2, 22, 60, 135, 59, 134, 135, 60, 2, 1.21098
34, 1, wb, attraction, a-b-db, 2, 1, 2, 22, 60, 135, 59, 134, 135, 60, 3, 1.24119
34, 1, wb, filler, NA, 999, 999, 2, 23, 133, 173, 92, 107, 140, 181, 2, 0.964765
34, 1, wb, filler, NA, 999, 999, 2, 23, 133, 173, 92, 107, 140, 181, 3, 0.693052
34, 1, wb, attraction, a-b-db, 14, 2, 2, 24, 83, 153, 165, 90, 90, 165, 2, 4.99878
34, 1, wb, attraction, a-b-db, 14, 2, 2, 24, 83, 153, 165, 90, 90, 165, 1, 0.524492
34, 1, wb, attraction, a-b-da, 9, 2, 2, 25, 90, 165, 157, 86, 165, 90, 2, 0.67715
34, 1, wb, attraction, a-b-da, 9, 2, 2, 25, 90, 165, 157, 86, 165, 90, 3, 0.560928
34, 1, wb, filler, NA, 999, 999, 2, 26, 159, 86, 124, 67, 190, 68, 2, 0.823939
34, 1, wb, filler, NA, 999, 999, 2, 26, 159, 86, 124, 67, 190, 68, 1, 0.573522
34, 1, wb, attraction, a-b-db, 2, 2, 2, 27, 89, 163, 90, 165, 165, 90, 1, 1.47594
34, 1, wb, attraction, a-b-db, 2, 2, 2, 27, 89, 163, 90, 165, 165, 90, 3, 0.575463
34, 1, wb, filler, NA, 999, 999, 2, 28, 139, 86, 163, 88, 95, 165, 2, 0.797907
34, 1, wb, filler, NA, 999, 999, 2, 28, 139, 86, 163, 88, 95, 165, 1, 0.573099
34, 1, wb, attraction, a-b-db, 9, 2, 2, 29, 90, 165, 165, 90, 86, 157, 3, 1.16409
34, 1, wb, attraction, a-b-db, 9, 2, 2, 29, 90, 165, 165, 90, 86, 157, 2, 0.508473
34, 1, wb, filler, NA, 999, 999, 2, 30, 102, 149, 182, 90, 139, 118, 1, 4.0295
34, 1, wb, filler, NA, 999, 999, 2, 30, 102, 149, 182, 90, 139, 118, 2, 0.674272
34, 1, wb, attraction, a-b-db, 9, 3, 2, 31, 195, 120, 114, 186, 120, 195, 2, 2.23657
34, 1, wb, attraction, a-b-db, 9, 3, 2, 31, 195, 120, 114, 186, 120, 195, 3, 1.10584
34, 1, wb, attraction, a-b-db, 5, 1, 2, 32, 135, 60, 58, 132, 60, 135, 2, 1.46747
34, 1, wb, attraction, a-b-db, 5, 1, 2, 32, 135, 60, 58, 132, 60, 135, 1, 0.591586
34, 1, wb, attraction, a-b-da, 5, 2, 2, 33, 165, 90, 161, 88, 90, 165, 2, 1.49351
34, 1, wb, attraction, a-b-da, 5, 2, 2, 33, 165, 90, 161, 88, 90, 165, 3, 0.608257
34, 1, wb, attraction, a-b-db, 5, 3, 2, 34, 120, 195, 195, 120, 117, 190, 2, 1.77361
34, 1, wb, attraction, a-b-db, 5, 3, 2, 34, 120, 195, 195, 120, 117, 190, 3, 0.532839
34, 1, wb, attraction, a-b-da, 2, 1, 2, 35, 135, 60, 134, 59, 60, 135, 2, 0.845309
34, 1, wb, attraction, a-b-da, 2, 1, 2, 35, 135, 60, 134, 59, 60, 135, 1, 0.64231
34, 1, wb, attraction, a-b-da, 14, 1, 2, 36, 135, 60, 60, 135, 125, 56, 3, 0.83797
34, 1, wb, attraction, a-b-da, 14, 1, 2, 36, 135, 60, 60, 135, 125, 56, 2, 0.57112
34, 1, wb, filler, NA, 999, 999, 2, 37, 173, 164, 61, 72, 175, 193, 2, 0.866131
34, 1, wb, filler, NA, 999, 999, 2, 37, 173, 164, 61, 72, 175, 193, 3, 2.36651
34, 1, wb, filler, NA, 999, 999, 3, 1, 105, 128, 85, 159, 130, 183, 1, 1.18093
34, 1, wb, filler, NA, 999, 999, 3, 1, 105, 128, 85, 159, 130, 183, 3, 0.756644
34, 1, wb, filler, NA, 999, 999, 3, 2, 171, 66, 139, 107, 158, 124, 1, 2.76431
34, 1, wb, filler, NA, 999, 999, 3, 2, 171, 66, 139, 107, 158, 124, 3, 0.77228
34, 1, wb, attraction, a-b-db, 2, 2, 3, 3, 89, 163, 90, 165, 165, 90, 2, 1.75509
34, 1, wb, attraction, a-b-db, 2, 2, 3, 3, 89, 163, 90, 165, 165, 90, 3, 0.771278
34, 1, wb, attraction, a-b-da, 9, 1, 3, 4, 135, 60, 129, 57, 60, 135, 2, 1.16224
34, 1, wb, attraction, a-b-da, 9, 1, 3, 4, 135, 60, 129, 57, 60, 135, 1, 0.60253
34, 1, wb, filler, NA, 999, 999, 3, 5, 73, 136, 151, 88, 73, 114, 3, 2.31239
34, 1, wb, filler, NA, 999, 999, 3, 5, 73, 136, 151, 88, 73, 114, 2, 0.962226
34, 1, wb, attraction, a-b-db, 14, 3, 3, 6, 195, 120, 111, 181, 120, 195, 3, 1.23335
34, 1, wb, attraction, a-b-db, 14, 3, 3, 6, 195, 120, 111, 181, 120, 195, 1, 0.950757
34, 1, wb, attraction, a-b-da, 14, 3, 3, 7, 120, 195, 195, 120, 181, 111, 3, 1.23851
34, 1, wb, attraction, a-b-da, 14, 3, 3, 7, 120, 195, 195, 120, 181, 111, 2, 0.803303
34, 1, wb, attraction, a-b-db, 9, 2, 3, 8, 90, 165, 165, 90, 86, 157, 2, 1.64894
34, 1, wb, attraction, a-b-db, 9, 2, 3, 8, 90, 165, 165, 90, 86, 157, 3, 0.629802
34, 1, wb, filler, NA, 999, 999, 3, 9, 170, 86, 139, 141, 88, 122, 3, 2.03427
34, 1, wb, filler, NA, 999, 999, 3, 9, 170, 86, 139, 141, 88, 122, 2, 0.519612
34, 1, wb, attraction, a-b-da, 5, 1, 3, 10, 60, 135, 135, 60, 132, 58, 2, 1.33662
34, 1, wb, attraction, a-b-da, 5, 1, 3, 10, 60, 135, 135, 60, 132, 58, 1, 0.602224
34, 1, wb, attraction, a-b-db, 5, 1, 3, 11, 58, 132, 60, 135, 135, 60, 1, 1.06405
34, 1, wb, attraction, a-b-db, 5, 1, 3, 11, 58, 132, 60, 135, 135, 60, 3, 0.460362
34, 1, wb, attraction, a-b-db, 9, 3, 3, 12, 120, 195, 195, 120, 114, 186, 2, 1.08747
34, 1, wb, attraction, a-b-db, 9, 3, 3, 12, 120, 195, 195, 120, 114, 186, 3, 0.515074
34, 1, wb, attraction, a-b-da, 9, 2, 3, 13, 90, 165, 165, 90, 157, 86, 3, 0.876148
34, 1, wb, attraction, a-b-da, 9, 2, 3, 13, 90, 165, 165, 90, 157, 86, 2, 0.655907
34, 1, wb, filler, NA, 999, 999, 3, 14, 159, 76, 71, 69, 111, 107, 2, 0.971643
34, 1, wb, filler, NA, 999, 999, 3, 14, 159, 76, 71, 69, 111, 107, 3, 0.899354
34, 1, wb, attraction, a-b-db, 2, 1, 3, 15, 59, 134, 60, 135, 135, 60, 2, 1.02908
34, 1, wb, attraction, a-b-db, 2, 1, 3, 15, 59, 134, 60, 135, 135, 60, 3, 0.666707
34, 1, wb, attraction, a-b-db, 5, 2, 3, 16, 88, 161, 165, 90, 90, 165, 2, 0.853718
34, 1, wb, attraction, a-b-db, 5, 2, 3, 16, 88, 161, 165, 90, 90, 165, 3, 1.86691
34, 1, wb, attraction, a-b-db, 5, 3, 3, 17, 117, 190, 195, 120, 120, 195, 1, 2.68551
34, 1, wb, attraction, a-b-db, 5, 3, 3, 17, 117, 190, 195, 120, 120, 195, 2, 0.616577
34, 1, wb, attraction, a-b-da, 9, 3, 3, 18, 186, 114, 195, 120, 120, 195, 3, 4.09364
34, 1, wb, attraction, a-b-da, 9, 3, 3, 18, 186, 114, 195, 120, 120, 195, 2, 0.455674
34, 1, wb, attraction, a-b-da, 2, 2, 3, 19, 163, 89, 90, 165, 165, 90, 2, 1.38738
34, 1, wb, attraction, a-b-da, 2, 2, 3, 19, 163, 89, 90, 165, 165, 90, 3, 0.843112
34, 1, wb, catch, NA, 999, 999, 3, 20, 140, 115, 186, 129, 65, 130, 3, 1.19067
34, 1, wb, catch, NA, 999, 999, 3, 20, 140, 115, 186, 129, 65, 130, 2, 0.533608
34, 1, wb, attraction, a-b-da, 14, 2, 3, 21, 90, 165, 165, 90, 153, 83, 2, 0.974127
34, 1, wb, attraction, a-b-da, 14, 2, 3, 21, 90, 165, 165, 90, 153, 83, 1, 0.429848
34, 1, wb, catch, NA, 999, 999, 3, 22, 121, 134, 127, 68, 161, 154, 2, 0.946169
34, 1, wb, catch, NA, 999, 999, 3, 22, 121, 134, 127, 68, 161, 154, 3, 0.707188
34, 1, wb, filler, NA, 999, 999, 3, 23, 63, 56, 70, 76, 64, 162, 1, 1.60441
34, 1, wb, filler, NA, 999, 999, 3, 23, 63, 56, 70, 76, 64, 162, 3, 0.659188
34, 1, wb, attraction, a-b-da, 5, 2, 3, 24, 161, 88, 90, 165, 165, 90, 1, 1.27805
34, 1, wb, attraction, a-b-da, 5, 2, 3, 24, 161, 88, 90, 165, 165, 90, 2, 0.521631
34, 1, wb, catch, NA, 999, 999, 3, 25, 109, 86, 93, 162, 191, 124, 1, 1.05077
34, 1, wb, catch, NA, 999, 999, 3, 25, 109, 86, 93, 162, 191, 124, 3, 0.695834
34, 1, wb, attraction, a-b-da, 5, 3, 3, 26, 190, 117, 195, 120, 120, 195, 2, 1.03349
34, 1, wb, attraction, a-b-da, 5, 3, 3, 26, 190, 117, 195, 120, 120, 195, 3, 0.727197
34, 1, wb, attraction, a-b-db, 14, 1, 3, 27, 56, 125, 60, 135, 135, 60, 1, 1.66361
34, 1, wb, attraction, a-b-db, 14, 1, 3, 27, 56, 125, 60, 135, 135, 60, 3, 1.16372
34, 1, wb, attraction, a-b-da, 14, 1, 3, 28, 60, 135, 135, 60, 125, 56, 3, 1.25056
34, 1, wb, attraction, a-b-da, 14, 1, 3, 28, 60, 135, 135, 60, 125, 56, 2, 0.719536
34, 1, wb, attraction, a-b-db, 2, 3, 3, 29, 120, 195, 195, 120, 119, 193, 3, 1.86453
34, 1, wb, attraction, a-b-db, 2, 3, 3, 29, 120, 195, 195, 120, 119, 193, 1, 0.724724
34, 1, wb, attraction, a-b-db, 14, 2, 3, 30, 165, 90, 83, 153, 90, 165, 1, 1.88508
34, 1, wb, attraction, a-b-db, 14, 2, 3, 30, 165, 90, 83, 153, 90, 165, 3, 1.19243
34, 1, wb, filler, NA, 999, 999, 3, 31, 109, 74, 70, 151, 121, 180, 1, 0.902019
34, 1, wb, filler, NA, 999, 999, 3, 31, 109, 74, 70, 151, 121, 180, 3, 0.489199
34, 1, wb, attraction, a-b-da, 2, 1, 3, 32, 135, 60, 134, 59, 60, 135, 3, 0.915549
34, 1, wb, attraction, a-b-da, 2, 1, 3, 32, 135, 60, 134, 59, 60, 135, 2, 0.517866
34, 1, wb, attraction, a-b-da, 2, 3, 3, 33, 193, 119, 195, 120, 120, 195, 3, 1.09503
34, 1, wb, attraction, a-b-da, 2, 3, 3, 33, 193, 119, 195, 120, 120, 195, 1, 0.665819
34, 1, wb, filler, NA, 999, 999, 3, 34, 76, 172, 154, 194, 118, 150, 1, 0.988937
34, 1, wb, filler, NA, 999, 999, 3, 34, 76, 172, 154, 194, 118, 150, 2, 0.6199
34, 1, wb, filler, NA, 999, 999, 3, 35, 163, 152, 158, 65, 150, 118, 2, 3.31303
34, 1, wb, filler, NA, 999, 999, 3, 35, 163, 152, 158, 65, 150, 118, 1, 0.546605
34, 1, wb, attraction, a-b-db, 9, 1, 3, 36, 57, 129, 60, 135, 135, 60, 2, 1.72244
34, 1, wb, attraction, a-b-db, 9, 1, 3, 36, 57, 129, 60, 135, 135, 60, 3, 0.603848
34, 1, wb, filler, NA, 999, 999, 3, 37, 172, 170, 146, 180, 66, 60, 3, 1.0096
34, 1, wb, filler, NA, 999, 999, 3, 37, 172, 170, 146, 180, 66, 60, 1, 1.09602
34, 1, wb, attraction, a-b-db, 9, 3, 4, 1, 195, 120, 120, 195, 114, 186, 1, 1.01744
34, 1, wb, attraction, a-b-db, 9, 3, 4, 1, 195, 120, 120, 195, 114, 186, 3, 0.479811
34, 1, wb, attraction, a-b-da, 5, 2, 4, 2, 165, 90, 90, 165, 161, 88, 2, 1.1063
34, 1, wb, attraction, a-b-da, 5, 2, 4, 2, 165, 90, 90, 165, 161, 88, 3, 0.628552
34, 1, wb, filler, NA, 999, 999, 4, 3, 137, 57, 97, 125, 89, 162, 1, 1.041
34, 1, wb, filler, NA, 999, 999, 4, 3, 137, 57, 97, 125, 89, 162, 3, 0.550019
34, 1, wb, attraction, a-b-da, 14, 3, 4, 4, 181, 111, 120, 195, 195, 120, 1, 1.67777
34, 1, wb, attraction, a-b-da, 14, 3, 4, 4, 181, 111, 120, 195, 195, 120, 2, 0.47342
34, 1, wb, attraction, a-b-da, 2, 3, 4, 5, 193, 119, 195, 120, 120, 195, 3, 1.0118
34, 1, wb, attraction, a-b-da, 2, 3, 4, 5, 193, 119, 195, 120, 120, 195, 2, 0.48992
34, 1, wb, attraction, a-b-da, 14, 1, 4, 6, 60, 135, 125, 56, 135, 60, 1, 0.875898
34, 1, wb, attraction, a-b-da, 14, 1, 4, 6, 60, 135, 125, 56, 135, 60, 3, 0.791439
34, 1, wb, filler, NA, 999, 999, 4, 7, 191, 61, 132, 79, 98, 191, 2, 1.82912
34, 1, wb, filler, NA, 999, 999, 4, 7, 191, 61, 132, 79, 98, 191, 3, 0.514484
34, 1, wb, attraction, a-b-db, 14, 1, 4, 8, 135, 60, 56, 125, 60, 135, 2, 2.52372
34, 1, wb, attraction, a-b-db, 14, 1, 4, 8, 135, 60, 56, 125, 60, 135, 3, 0.508952
34, 1, wb, catch, NA, 999, 999, 4, 9, 179, 136, 110, 85, 161, 94, 2, 1.24594
34, 1, wb, catch, NA, 999, 999, 4, 9, 179, 136, 110, 85, 161, 94, 1, 0.95485
34, 1, wb, attraction, a-b-da, 14, 2, 4, 10, 90, 165, 153, 83, 165, 90, 2, 1.08251
34, 1, wb, attraction, a-b-da, 14, 2, 4, 10, 90, 165, 153, 83, 165, 90, 3, 1.03814
34, 1, wb, attraction, a-b-da, 9, 3, 4, 11, 186, 114, 120, 195, 195, 120, 1, 0.954447
34, 1, wb, attraction, a-b-da, 9, 3, 4, 11, 186, 114, 120, 195, 195, 120, 3, 1.06691
34, 1, wb, catch, NA, 999, 999, 4, 12, 92, 163, 171, 144, 95, 100, 3, 2.26981
34, 1, wb, catch, NA, 999, 999, 4, 12, 92, 163, 171, 144, 95, 100, 2, 0.92168
34, 1, wb, attraction, a-b-db, 9, 1, 4, 13, 60, 135, 57, 129, 135, 60, 2, 1.08262
34, 1, wb, attraction, a-b-db, 9, 1, 4, 13, 60, 135, 57, 129, 135, 60, 3, 0.462269
34, 1, wb, attraction, a-b-da, 9, 1, 4, 14, 129, 57, 60, 135, 135, 60, 1, 1.04938
34, 1, wb, attraction, a-b-da, 9, 1, 4, 14, 129, 57, 60, 135, 135, 60, 2, 0.518446
34, 1, wb, attraction, a-b-da, 2, 1, 4, 15, 60, 135, 135, 60, 134, 59, 3, 0.855624
34, 1, wb, attraction, a-b-da, 2, 1, 4, 15, 60, 135, 135, 60, 134, 59, 2, 0.515872
34, 1, wb, filler, NA, 999, 999, 4, 16, 84, 109, 110, 156, 192, 145, 1, 0.908986
34, 1, wb, filler, NA, 999, 999, 4, 16, 84, 109, 110, 156, 192, 145, 3, 0.495373
34, 1, wb, attraction, a-b-db, 14, 3, 4, 17, 111, 181, 120, 195, 195, 120, 1, 1.53723
34, 1, wb, attraction, a-b-db, 14, 3, 4, 17, 111, 181, 120, 195, 195, 120, 3, 0.586778
34, 1, wb, attraction, a-b-db, 2, 3, 4, 18, 195, 120, 119, 193, 120, 195, 3, 1.87297
34, 1, wb, attraction, a-b-db, 2, 3, 4, 18, 195, 120, 119, 193, 120, 195, 1, 0.564549
34, 1, wb, catch, NA, 999, 999, 4, 19, 129, 66, 183, 132, 99, 156, 1, 0.947458
34, 1, wb, catch, NA, 999, 999, 4, 19, 129, 66, 183, 132, 99, 156, 2, 0.444509
34, 1, wb, filler, NA, 999, 999, 4, 20, 192, 118, 151, 72, 188, 120, 2, 1.45633
34, 1, wb, filler, NA, 999, 999, 4, 20, 192, 118, 151, 72, 188, 120, 3, 0.548509
34, 1, wb, attraction, a-b-da, 9, 2, 4, 21, 157, 86, 90, 165, 165, 90, 1, 1.17239
34, 1, wb, attraction, a-b-da, 9, 2, 4, 21, 157, 86, 90, 165, 165, 90, 3, 0.531879
34, 1, wb, filler, NA, 999, 999, 4, 22, 72, 166, 183, 122, 92, 122, 3, 1.22834
34, 1, wb, filler, NA, 999, 999, 4, 22, 72, 166, 183, 122, 92, 122, 2, 0.76189
34, 1, wb, filler, NA, 999, 999, 4, 23, 178, 64, 194, 151, 115, 165, 1, 1.20912
34, 1, wb, filler, NA, 999, 999, 4, 23, 178, 64, 194, 151, 115, 165, 2, 0.711265
34, 1, wb, filler, NA, 999, 999, 4, 24, 172, 57, 164, 186, 163, 182, 1, 1.17621
34, 1, wb, filler, NA, 999, 999, 4, 24, 172, 57, 164, 186, 163, 182, 2, 0.631951
34, 1, wb, attraction, a-b-db, 9, 2, 4, 25, 165, 90, 90, 165, 86, 157, 3, 2.54824
34, 1, wb, attraction, a-b-db, 9, 2, 4, 25, 165, 90, 90, 165, 86, 157, 2, 1.24491
34, 1, wb, filler, NA, 999, 999, 4, 26, 82, 152, 58, 176, 172, 171, 2, 2.50437
34, 1, wb, filler, NA, 999, 999, 4, 26, 82, 152, 58, 176, 172, 171, 3, 0.546988
34, 1, wb, attraction, a-b-da, 2, 2, 4, 27, 163, 89, 90, 165, 165, 90, 3, 1.70681
34, 1, wb, attraction, a-b-da, 2, 2, 4, 27, 163, 89, 90, 165, 165, 90, 2, 0.596711
34, 1, wb, attraction, a-b-db, 2, 1, 4, 28, 59, 134, 135, 60, 60, 135, 3, 1.69848
34, 1, wb, attraction, a-b-db, 2, 1, 4, 28, 59, 134, 135, 60, 60, 135, 2, 0.581289
34, 1, wb, attraction, a-b-db, 5, 2, 4, 29, 165, 90, 90, 165, 88, 161, 3, 1.3557
34, 1, wb, attraction, a-b-db, 5, 2, 4, 29, 165, 90, 90, 165, 88, 161, 1, 0.635947
34, 1, wb, attraction, a-b-db, 2, 2, 4, 30, 165, 90, 89, 163, 90, 165, 3, 1.14444
34, 1, wb, attraction, a-b-db, 2, 2, 4, 30, 165, 90, 89, 163, 90, 165, 2, 0.657254
34, 1, wb, filler, NA, 999, 999, 4, 31, 64, 96, 138, 122, 127, 107, 1, 2.10032
34, 1, wb, filler, NA, 999, 999, 4, 31, 64, 96, 138, 122, 127, 107, 2, 0.463037
34, 1, wb, attraction, a-b-db, 14, 2, 4, 32, 83, 153, 90, 165, 165, 90, 3, 0.938132
34, 1, wb, attraction, a-b-db, 14, 2, 4, 32, 83, 153, 90, 165, 165, 90, 1, 0.587919
34, 1, wb, filler, NA, 999, 999, 4, 33, 156, 126, 70, 103, 165, 87, 2, 0.762264
34, 1, wb, filler, NA, 999, 999, 4, 33, 156, 126, 70, 103, 165, 87, 1, 0.642568
34, 1, wb, attraction, a-b-db, 5, 3, 4, 34, 120, 195, 117, 190, 195, 120, 2, 7.02252
34, 1, wb, attraction, a-b-db, 5, 3, 4, 34, 120, 195, 117, 190, 195, 120, 3, 0.53101
34, 1, wb, attraction, a-b-db, 5, 1, 4, 35, 135, 60, 60, 135, 58, 132, 2, 0.683332
34, 1, wb, attraction, a-b-db, 5, 1, 4, 35, 135, 60, 60, 135, 58, 132, 1, 0.53507
34, 1, wb, attraction, a-b-da, 5, 1, 4, 36, 132, 58, 135, 60, 60, 135, 2, 0.847473
34, 1, wb, attraction, a-b-da, 5, 1, 4, 36, 132, 58, 135, 60, 60, 135, 3, 0.620788
34, 1, wb, attraction, a-b-da, 5, 3, 4, 37, 120, 195, 195, 120, 190, 117, 2, 0.673574
34, 1, wb, attraction, a-b-da, 5, 3, 4, 37, 120, 195, 195, 120, 190, 117, 3, 0.653482
34, 1, wb, attraction, a-b-db, 9, 3, 5, 1, 114, 186, 120, 195, 195, 120, 3, 2.80767
34, 1, wb, attraction, a-b-db, 9, 3, 5, 1, 114, 186, 120, 195, 195, 120, 2, 0.701527
34, 1, wb, filler, NA, 999, 999, 5, 2, 157, 177, 158, 66, 136, 145, 2, 0.567241
34, 1, wb, filler, NA, 999, 999, 5, 2, 157, 177, 158, 66, 136, 145, 1, 0.583722
34, 1, wb, attraction, a-b-db, 5, 2, 5, 3, 88, 161, 165, 90, 90, 165, 2, 1.23809
34, 1, wb, attraction, a-b-db, 5, 2, 5, 3, 88, 161, 165, 90, 90, 165, 3, 0.603117
34, 1, wb, attraction, a-b-da, 5, 3, 5, 4, 195, 120, 190, 117, 120, 195, 2, 0.57695
34, 1, wb, attraction, a-b-da, 5, 3, 5, 4, 195, 120, 190, 117, 120, 195, 1, 0.560613
34, 1, wb, attraction, a-b-db, 2, 2, 5, 5, 89, 163, 165, 90, 90, 165, 2, 0.5036
34, 1, wb, attraction, a-b-db, 2, 2, 5, 5, 89, 163, 165, 90, 90, 165, 3, 0.914803
34, 1, wb, filler, NA, 999, 999, 5, 6, 140, 136, 157, 115, 164, 93, 3, 0.97191
34, 1, wb, filler, NA, 999, 999, 5, 6, 140, 136, 157, 115, 164, 93, 1, 0.531489
34, 1, wb, filler, NA, 999, 999, 5, 7, 141, 73, 86, 72, 120, 109, 2, 0.651944
34, 1, wb, filler, NA, 999, 999, 5, 7, 141, 73, 86, 72, 120, 109, 3, 1.65722
34, 1, wb, filler, NA, 999, 999, 5, 8, 176, 102, 56, 79, 158, 148, 2, 0.675732
34, 1, wb, filler, NA, 999, 999, 5, 8, 176, 102, 56, 79, 158, 148, 3, 0.623468
34, 1, wb, filler, NA, 999, 999, 5, 9, 171, 161, 121, 108, 181, 118, 2, 0.972146
34, 1, wb, filler, NA, 999, 999, 5, 9, 171, 161, 121, 108, 181, 118, 1, 0.85965
34, 1, wb, catch, NA, 999, 999, 5, 10, 98, 157, 126, 189, 121, 74, 3, 0.89466
34, 1, wb, catch, NA, 999, 999, 5, 10, 98, 157, 126, 189, 121, 74, 2, 0.545656
34, 1, wb, filler, NA, 999, 999, 5, 11, 94, 126, 101, 185, 159, 72, 1, 1.27335
34, 1, wb, filler, NA, 999, 999, 5, 11, 94, 126, 101, 185, 159, 72, 2, 0.773027
34, 1, wb, attraction, a-b-db, 14, 3, 5, 12, 120, 195, 195, 120, 111, 181, 2, 1.00403
34, 1, wb, attraction, a-b-db, 14, 3, 5, 12, 120, 195, 195, 120, 111, 181, 1, 0.771056
34, 1, wb, attraction, a-b-da, 9, 2, 5, 13, 90, 165, 157, 86, 165, 90, 1, 1.01812
34, 1, wb, attraction, a-b-da, 9, 2, 5, 13, 90, 165, 157, 86, 165, 90, 3, 0.664389
34, 1, wb, attraction, a-b-db, 5, 3, 5, 14, 117, 190, 120, 195, 195, 120, 1, 1.45137
34, 1, wb, attraction, a-b-db, 5, 3, 5, 14, 117, 190, 120, 195, 195, 120, 3, 0.512252
34, 1, wb, attraction, a-b-da, 9, 1, 5, 15, 129, 57, 60, 135, 135, 60, 2, 0.809467
34, 1, wb, attraction, a-b-da, 9, 1, 5, 15, 129, 57, 60, 135, 135, 60, 1, 0.823882
34, 1, wb, filler, NA, 999, 999, 5, 16, 79, 87, 179, 157, 127, 124, 1, 0.724093
34, 1, wb, filler, NA, 999, 999, 5, 16, 79, 87, 179, 157, 127, 124, 2, 0.509852
34, 1, wb, attraction, a-b-db, 14, 1, 5, 17, 56, 125, 135, 60, 60, 135, 2, 0.806987
34, 1, wb, attraction, a-b-db, 14, 1, 5, 17, 56, 125, 135, 60, 60, 135, 3, 0.509427
34, 1, wb, attraction, a-b-db, 9, 1, 5, 18, 60, 135, 135, 60, 57, 129, 2, 0.958582
34, 1, wb, attraction, a-b-db, 9, 1, 5, 18, 60, 135, 135, 60, 57, 129, 3, 0.783015
34, 1, wb, attraction, a-b-db, 2, 1, 5, 19, 135, 60, 59, 134, 60, 135, 2, 0.981286
34, 1, wb, attraction, a-b-db, 2, 1, 5, 19, 135, 60, 59, 134, 60, 135, 3, 0.740905
34, 1, wb, filler, NA, 999, 999, 5, 20, 190, 100, 167, 193, 183, 103, 1, 1.15653
34, 1, wb, filler, NA, 999, 999, 5, 20, 190, 100, 167, 193, 183, 103, 2, 0.428965
34, 1, wb, catch, NA, 999, 999, 5, 21, 107, 148, 183, 132, 128, 67, 3, 1.07335
34, 1, wb, catch, NA, 999, 999, 5, 21, 107, 148, 183, 132, 128, 67, 2, 0.420956
34, 1, wb, attraction, a-b-da, 9, 3, 5, 22, 120, 195, 195, 120, 186, 114, 1, 0.834092
34, 1, wb, attraction, a-b-da, 9, 3, 5, 22, 120, 195, 195, 120, 186, 114, 3, 0.975779
34, 1, wb, attraction, a-b-da, 5, 2, 5, 23, 161, 88, 90, 165, 165, 90, 1, 1.10206
34, 1, wb, attraction, a-b-da, 5, 2, 5, 23, 161, 88, 90, 165, 165, 90, 2, 0.697201
34, 1, wb, attraction, a-b-da, 14, 1, 5, 24, 60, 135, 135, 60, 125, 56, 1, 0.970876
34, 1, wb, attraction, a-b-da, 14, 1, 5, 24, 60, 135, 135, 60, 125, 56, 3, 0.8592
34, 1, wb, attraction, a-b-da, 14, 2, 5, 25, 165, 90, 90, 165, 153, 83, 2, 0.926238
34, 1, wb, attraction, a-b-da, 14, 2, 5, 25, 165, 90, 90, 165, 153, 83, 3, 0.767885
34, 1, wb, attraction, a-b-da, 2, 2, 5, 26, 163, 89, 90, 165, 165, 90, 1, 3.68687
34, 1, wb, attraction, a-b-da, 2, 2, 5, 26, 163, 89, 90, 165, 165, 90, 3, 0.585741
34, 1, wb, filler, NA, 999, 999, 5, 27, 164, 107, 187, 148, 87, 59, 3, 1.0241
34, 1, wb, filler, NA, 999, 999, 5, 27, 164, 107, 187, 148, 87, 59, 2, 0.405714
34, 1, wb, attraction, a-b-da, 5, 1, 5, 28, 132, 58, 135, 60, 60, 135, 1, 1.02765
34, 1, wb, attraction, a-b-da, 5, 1, 5, 28, 132, 58, 135, 60, 60, 135, 2, 0.78526
34, 1, wb, filler, NA, 999, 999, 5, 29, 123, 139, 139, 90, 185, 143, 2, 0.743578
34, 1, wb, filler, NA, 999, 999, 5, 29, 123, 139, 139, 90, 185, 143, 3, 0.936722
34, 1, wb, catch, NA, 999, 999, 5, 30, 113, 82, 130, 185, 128, 127, 1, 0.936996
34, 1, wb, catch, NA, 999, 999, 5, 30, 113, 82, 130, 185, 128, 127, 2, 0.666698
34, 1, wb, attraction, a-b-da, 2, 1, 5, 31, 60, 135, 134, 59, 135, 60, 2, 0.917751
34, 1, wb, attraction, a-b-da, 2, 1, 5, 31, 60, 135, 134, 59, 135, 60, 1, 0.568154
34, 1, wb, attraction, a-b-db, 2, 3, 5, 32, 195, 120, 119, 193, 120, 195, 2, 1.51118
34, 1, wb, attraction, a-b-db, 2, 3, 5, 32, 195, 120, 119, 193, 120, 195, 3, 0.385529
34, 1, wb, attraction, a-b-db, 5, 1, 5, 33, 135, 60, 58, 132, 60, 135, 3, 0.87984
34, 1, wb, attraction, a-b-db, 5, 1, 5, 33, 135, 60, 58, 132, 60, 135, 1, 1.02757
34, 1, wb, attraction, a-b-db, 9, 2, 5, 34, 86, 157, 165, 90, 90, 165, 2, 0.815868
34, 1, wb, attraction, a-b-db, 9, 2, 5, 34, 86, 157, 165, 90, 90, 165, 3, 0.774339
34, 1, wb, attraction, a-b-da, 2, 3, 5, 35, 120, 195, 195, 120, 193, 119, 2, 0.924567
34, 1, wb, attraction, a-b-da, 2, 3, 5, 35, 120, 195, 195, 120, 193, 119, 3, 0.782405
34, 1, wb, attraction, a-b-db, 14, 2, 5, 36, 165, 90, 83, 153, 90, 165, 1, 1.00464
34, 1, wb, attraction, a-b-db, 14, 2, 5, 36, 165, 90, 83, 153, 90, 165, 2, 0.403589
34, 1, wb, attraction, a-b-da, 14, 3, 5, 37, 120, 195, 195, 120, 181, 111, 2, 0.713479
34, 1, wb, attraction, a-b-da, 14, 3, 5, 37, 120, 195, 195, 120, 181, 111, 1, 0.531858
34, 1, wb, filler, NA, 999, 999, 6, 1, 106, 184, 92, 69, 128, 189, 2, 0.73228
34, 1, wb, filler, NA, 999, 999, 6, 1, 106, 184, 92, 69, 128, 189, 3, 0.702166
34, 1, wb, catch, NA, 999, 999, 6, 2, 149, 166, 120, 75, 125, 130, 2, 0.919775
34, 1, wb, catch, NA, 999, 999, 6, 2, 149, 166, 120, 75, 125, 130, 1, 0.474087
34, 1, wb, attraction, a-b-db, 5, 1, 6, 3, 60, 135, 135, 60, 58, 132, 2, 0.972583
34, 1, wb, attraction, a-b-db, 5, 1, 6, 3, 60, 135, 135, 60, 58, 132, 3, 0.524356
34, 1, wb, attraction, a-b-db, 5, 3, 6, 4, 117, 190, 120, 195, 195, 120, 3, 1.06075
34, 1, wb, attraction, a-b-db, 5, 3, 6, 4, 117, 190, 120, 195, 195, 120, 2, 1.28109
34, 1, wb, attraction, a-b-da, 14, 1, 6, 5, 125, 56, 135, 60, 60, 135, 1, 0.835398
34, 1, wb, attraction, a-b-da, 14, 1, 6, 5, 125, 56, 135, 60, 60, 135, 2, 0.440946
34, 1, wb, attraction, a-b-db, 9, 2, 6, 6, 86, 157, 165, 90, 90, 165, 1, 1.30077
34, 1, wb, attraction, a-b-db, 9, 2, 6, 6, 86, 157, 165, 90, 90, 165, 3, 1.35174
34, 1, wb, attraction, a-b-da, 14, 2, 6, 7, 165, 90, 153, 83, 90, 165, 2, 1.2231
34, 1, wb, attraction, a-b-da, 14, 2, 6, 7, 165, 90, 153, 83, 90, 165, 3, 0.508761
34, 1, wb, attraction, a-b-db, 14, 2, 6, 8, 165, 90, 83, 153, 90, 165, 2, 1.28588
34, 1, wb, attraction, a-b-db, 14, 2, 6, 8, 165, 90, 83, 153, 90, 165, 3, 0.697467
34, 1, wb, attraction, a-b-da, 5, 2, 6, 9, 90, 165, 165, 90, 161, 88, 2, 0.635163
34, 1, wb, attraction, a-b-da, 5, 2, 6, 9, 90, 165, 165, 90, 161, 88, 1, 0.904904
34, 1, wb, attraction, a-b-da, 2, 2, 6, 10, 165, 90, 163, 89, 90, 165, 1, 0.826659
34, 1, wb, attraction, a-b-da, 2, 2, 6, 10, 165, 90, 163, 89, 90, 165, 3, 0.400418
34, 1, wb, attraction, a-b-da, 9, 3, 6, 11, 195, 120, 120, 195, 186, 114, 1, 0.782077
34, 1, wb, attraction, a-b-da, 9, 3, 6, 11, 195, 120, 120, 195, 186, 114, 2, 0.525953
34, 1, wb, attraction, a-b-db, 9, 3, 6, 12, 114, 186, 195, 120, 120, 195, 1, 0.9502
34, 1, wb, attraction, a-b-db, 9, 3, 6, 12, 114, 186, 195, 120, 120, 195, 2, 0.415397
34, 1, wb, attraction, a-b-db, 2, 2, 6, 13, 90, 165, 165, 90, 89, 163, 3, 0.908622
34, 1, wb, attraction, a-b-db, 2, 2, 6, 13, 90, 165, 165, 90, 89, 163, 1, 0.902818
34, 1, wb, attraction, a-b-da, 14, 3, 6, 14, 181, 111, 195, 120, 120, 195, 1, 1.56852
34, 1, wb, attraction, a-b-da, 14, 3, 6, 14, 181, 111, 195, 120, 120, 195, 2, 0.480652
34, 1, wb, filler, NA, 999, 999, 6, 15, 78, 87, 142, 179, 83, 126, 1, 1.09104
34, 1, wb, filler, NA, 999, 999, 6, 15, 78, 87, 142, 179, 83, 126, 2, 0.494009
34, 1, wb, filler, NA, 999, 999, 6, 16, 92, 127, 119, 140, 148, 195, 1, 0.839846
34, 1, wb, filler, NA, 999, 999, 6, 16, 92, 127, 119, 140, 148, 195, 3, 0.684833
34, 1, wb, attraction, a-b-da, 2, 3, 6, 17, 120, 195, 193, 119, 195, 120, 2, 0.991338
34, 1, wb, attraction, a-b-da, 2, 3, 6, 17, 120, 195, 193, 119, 195, 120, 3, 0.566243
34, 1, wb, filler, NA, 999, 999, 6, 18, 151, 155, 91, 102, 121, 119, 2, 0.741314
34, 1, wb, filler, NA, 999, 999, 6, 18, 151, 155, 91, 102, 121, 119, 1, 0.542483
34, 1, wb, filler, NA, 999, 999, 6, 19, 171, 153, 91, 185, 60, 60, 3, 0.790282
34, 1, wb, filler, NA, 999, 999, 6, 19, 171, 153, 91, 185, 60, 60, 1, 0.533199
34, 1, wb, filler, NA, 999, 999, 6, 20, 159, 165, 162, 138, 164, 100, 3, 1.59777
34, 1, wb, filler, NA, 999, 999, 6, 20, 159, 165, 162, 138, 164, 100, 1, 0.49254
34, 1, wb, filler, NA, 999, 999, 6, 21, 193, 189, 58, 76, 180, 107, 2, 0.734335
34, 1, wb, filler, NA, 999, 999, 6, 21, 193, 189, 58, 76, 180, 107, 1, 0.656078
34, 1, wb, filler, NA, 999, 999, 6, 22, 189, 159, 82, 146, 148, 183, 2, 0.659778
34, 1, wb, filler, NA, 999, 999, 6, 22, 189, 159, 82, 146, 148, 183, 1, 1.42427
34, 1, wb, attraction, a-b-db, 9, 1, 6, 23, 60, 135, 57, 129, 135, 60, 2, 1.11647
34, 1, wb, attraction, a-b-db, 9, 1, 6, 23, 60, 135, 57, 129, 135, 60, 3, 0.510817
34, 1, wb, catch, NA, 999, 999, 6, 24, 143, 172, 120, 135, 94, 101, 3, 0.783764
34, 1, wb, catch, NA, 999, 999, 6, 24, 143, 172, 120, 135, 94, 101, 1, 0.471691
34, 1, wb, attraction, a-b-da, 9, 1, 6, 25, 135, 60, 129, 57, 60, 135, 2, 0.714733
34, 1, wb, attraction, a-b-da, 9, 1, 6, 25, 135, 60, 129, 57, 60, 135, 1, 0.549057
34, 1, wb, attraction, a-b-db, 14, 3, 6, 26, 120, 195, 195, 120, 111, 181, 3, 1.22888
34, 1, wb, attraction, a-b-db, 14, 3, 6, 26, 120, 195, 195, 120, 111, 181, 2, 0.450485
34, 1, wb, filler, NA, 999, 999, 6, 27, 132, 95, 68, 119, 72, 117, 3, 0.974172
34, 1, wb, filler, NA, 999, 999, 6, 27, 132, 95, 68, 119, 72, 117, 1, 0.653875
34, 1, wb, attraction, a-b-db, 2, 1, 6, 28, 59, 134, 135, 60, 60, 135, 1, 1.0656
34, 1, wb, attraction, a-b-db, 2, 1, 6, 28, 59, 134, 135, 60, 60, 135, 3, 0.789931
34, 1, wb, attraction, a-b-da, 9, 2, 6, 29, 157, 86, 165, 90, 90, 165, 1, 0.804337
34, 1, wb, attraction, a-b-da, 9, 2, 6, 29, 157, 86, 165, 90, 90, 165, 3, 0.842785
34, 1, wb, attraction, a-b-da, 5, 1, 6, 30, 135, 60, 132, 58, 60, 135, 1, 0.622306
34, 1, wb, attraction, a-b-da, 5, 1, 6, 30, 135, 60, 132, 58, 60, 135, 2, 0.516115
34, 1, wb, catch, NA, 999, 999, 6, 31, 105, 150, 80, 115, 137, 178, 2, 0.693229
34, 1, wb, catch, NA, 999, 999, 6, 31, 105, 150, 80, 115, 137, 178, 3, 0.408332
34, 1, wb, attraction, a-b-da, 5, 3, 6, 32, 120, 195, 190, 117, 195, 120, 2, 0.83759
34, 1, wb, attraction, a-b-da, 5, 3, 6, 32, 120, 195, 190, 117, 195, 120, 3, 0.64316
34, 1, wb, attraction, a-b-db, 2, 3, 6, 33, 195, 120, 119, 193, 120, 195, 2, 0.686946
34, 1, wb, attraction, a-b-db, 2, 3, 6, 33, 195, 120, 119, 193, 120, 195, 1, 0.610733
34, 1, wb, attraction, a-b-da, 2, 1, 6, 34, 60, 135, 134, 59, 135, 60, 2, 0.663852
34, 1, wb, attraction, a-b-da, 2, 1, 6, 34, 60, 135, 134, 59, 135, 60, 3, 0.508316
34, 1, wb, filler, NA, 999, 999, 6, 35, 62, 138, 148, 143, 180, 75, 1, 0.637423
34, 1, wb, filler, NA, 999, 999, 6, 35, 62, 138, 148, 143, 180, 75, 2, 0.899096
34, 1, wb, attraction, a-b-db, 5, 2, 6, 36, 165, 90, 88, 161, 90, 165, 1, 1.04475
34, 1, wb, attraction, a-b-db, 5, 2, 6, 36, 165, 90, 88, 161, 90, 165, 3, 0.737717
34, 1, wb, attraction, a-b-db, 14, 1, 6, 37, 56, 125, 60, 135, 135, 60, 1, 1.3461
34, 1, wb, attraction, a-b-db, 14, 1, 6, 37, 56, 125, 60, 135, 135, 60, 3, 0.618993
34, 1, wb, catch, NA, 999, 999, 7, 1, 60, 135, 186, 129, 151, 104, 1, 0.872072
34, 1, wb, catch, NA, 999, 999, 7, 1, 60, 135, 186, 129, 151, 104, 2, 0.587876
34, 1, wb, attraction, a-b-da, 5, 3, 7, 2, 120, 195, 195, 120, 190, 117, 1, 1.00226
34, 1, wb, attraction, a-b-da, 5, 3, 7, 2, 120, 195, 195, 120, 190, 117, 2, 0.569252
34, 1, wb, attraction, a-b-db, 14, 1, 7, 3, 135, 60, 56, 125, 60, 135, 1, 0.92028
34, 1, wb, attraction, a-b-db, 14, 1, 7, 3, 135, 60, 56, 125, 60, 135, 3, 0.730712
34, 1, wb, attraction, a-b-da, 5, 2, 7, 4, 161, 88, 90, 165, 165, 90, 2, 2.29118
34, 1, wb, attraction, a-b-da, 5, 2, 7, 4, 161, 88, 90, 165, 165, 90, 3, 0.677611
34, 1, wb, attraction, a-b-da, 14, 1, 7, 5, 125, 56, 60, 135, 135, 60, 3, 2.07995
34, 1, wb, attraction, a-b-da, 14, 1, 7, 5, 125, 56, 60, 135, 135, 60, 2, 0.507444
34, 1, wb, filler, NA, 999, 999, 7, 6, 130, 73, 137, 129, 182, 82, 1, 0.780473
34, 1, wb, filler, NA, 999, 999, 7, 6, 130, 73, 137, 129, 182, 82, 3, 1.06822
34, 1, wb, filler, NA, 999, 999, 7, 7, 82, 131, 183, 170, 153, 70, 1, 1.91108
34, 1, wb, filler, NA, 999, 999, 7, 7, 82, 131, 183, 170, 153, 70, 2, 0.521358
34, 1, wb, filler, NA, 999, 999, 7, 8, 181, 88, 151, 87, 183, 131, 2, 2.39426
34, 1, wb, filler, NA, 999, 999, 7, 8, 181, 88, 151, 87, 183, 131, 3, 0.536812
34, 1, wb, filler, NA, 999, 999, 7, 9, 83, 182, 148, 64, 73, 130, 3, 1.22533
34, 1, wb, filler, NA, 999, 999, 7, 9, 83, 182, 148, 64, 73, 130, 1, 0.438943
34, 1, wb, filler, NA, 999, 999, 7, 10, 96, 99, 99, 105, 174, 117, 2, 0.9233
34, 1, wb, filler, NA, 999, 999, 7, 10, 96, 99, 99, 105, 174, 117, 3, 0.629079
34, 1, wb, attraction, a-b-db, 5, 2, 7, 11, 88, 161, 165, 90, 90, 165, 3, 1.51353
34, 1, wb, attraction, a-b-db, 5, 2, 7, 11, 88, 161, 165, 90, 90, 165, 2, 0.595729
34, 1, wb, filler, NA, 999, 999, 7, 12, 127, 181, 85, 170, 56, 85, 3, 0.825392
34, 1, wb, filler, NA, 999, 999, 7, 12, 127, 181, 85, 170, 56, 85, 1, 0.431157
34, 1, wb, attraction, a-b-da, 9, 1, 7, 13, 135, 60, 129, 57, 60, 135, 3, 0.691647
34, 1, wb, attraction, a-b-da, 9, 1, 7, 13, 135, 60, 129, 57, 60, 135, 1, 0.838644
34, 1, wb, attraction, a-b-da, 2, 2, 7, 14, 90, 165, 165, 90, 163, 89, 2, 0.691149
34, 1, wb, attraction, a-b-da, 2, 2, 7, 14, 90, 165, 165, 90, 163, 89, 3, 0.638071
34, 1, wb, filler, NA, 999, 999, 7, 15, 152, 141, 132, 155, 65, 159, 3, 1.27455
34, 1, wb, filler, NA, 999, 999, 7, 15, 152, 141, 132, 155, 65, 159, 1, 0.750135
34, 1, wb, attraction, a-b-db, 5, 1, 7, 16, 58, 132, 60, 135, 135, 60, 1, 0.981844
34, 1, wb, attraction, a-b-db, 5, 1, 7, 16, 58, 132, 60, 135, 135, 60, 2, 0.549462
34, 1, wb, filler, NA, 999, 999, 7, 17, 150, 107, 69, 164, 134, 109, 2, 1.28526
34, 1, wb, filler, NA, 999, 999, 7, 17, 150, 107, 69, 164, 134, 109, 1, 1.37681
34, 1, wb, attraction, a-b-da, 5, 1, 7, 18, 60, 135, 135, 60, 132, 58, 2, 1.41505
34, 1, wb, attraction, a-b-da, 5, 1, 7, 18, 60, 135, 135, 60, 132, 58, 3, 1.12521
34, 1, wb, filler, NA, 999, 999, 7, 19, 73, 60, 133, 57, 174, 58, 1, 0.901385
34, 1, wb, filler, NA, 999, 999, 7, 19, 73, 60, 133, 57, 174, 58, 3, 0.736612
34, 1, wb, attraction, a-b-da, 9, 2, 7, 20, 157, 86, 165, 90, 90, 165, 2, 1.2088
34, 1, wb, attraction, a-b-da, 9, 2, 7, 20, 157, 86, 165, 90, 90, 165, 1, 0.40702
34, 1, wb, attraction, a-b-db, 5, 3, 7, 21, 195, 120, 120, 195, 117, 190, 2, 1.21223
34, 1, wb, attraction, a-b-db, 5, 3, 7, 21, 195, 120, 120, 195, 117, 190, 3, 0.690529
34, 1, wb, attraction, a-b-db, 2, 2, 7, 22, 89, 163, 90, 165, 165, 90, 1, 0.868247
34, 1, wb, attraction, a-b-db, 2, 2, 7, 22, 89, 163, 90, 165, 165, 90, 3, 0.456693
34, 1, wb, attraction, a-b-da, 14, 2, 7, 23, 153, 83, 90, 165, 165, 90, 2, 0.667791
34, 1, wb, attraction, a-b-da, 14, 2, 7, 23, 153, 83, 90, 165, 165, 90, 1, 0.504215
34, 1, wb, catch, NA, 999, 999, 7, 24, 115, 80, 160, 95, 142, 173, 1, 1.06593
34, 1, wb, catch, NA, 999, 999, 7, 24, 115, 80, 160, 95, 142, 173, 3, 0.798253
34, 1, wb, attraction, a-b-da, 9, 3, 7, 25, 120, 195, 186, 114, 195, 120, 2, 0.843861
34, 1, wb, attraction, a-b-da, 9, 3, 7, 25, 120, 195, 186, 114, 195, 120, 3, 0.63344
34, 1, wb, attraction, a-b-db, 9, 3, 7, 26, 114, 186, 120, 195, 195, 120, 2, 0.773394
34, 1, wb, attraction, a-b-db, 9, 3, 7, 26, 114, 186, 120, 195, 195, 120, 1, 0.493289
34, 1, wb, attraction, a-b-da, 2, 1, 7, 27, 60, 135, 134, 59, 135, 60, 1, 1.14292
34, 1, wb, attraction, a-b-da, 2, 1, 7, 27, 60, 135, 134, 59, 135, 60, 2, 0.52801
34, 1, wb, attraction, a-b-db, 2, 1, 7, 28, 59, 134, 60, 135, 135, 60, 3, 0.816419
34, 1, wb, attraction, a-b-db, 2, 1, 7, 28, 59, 134, 60, 135, 135, 60, 2, 0.662722
34, 1, wb, filler, NA, 999, 999, 7, 29, 179, 58, 141, 109, 158, 117, 1, 2.24977
34, 1, wb, filler, NA, 999, 999, 7, 29, 179, 58, 141, 109, 158, 117, 3, 0.526406
34, 1, wb, attraction, a-b-da, 14, 3, 7, 30, 181, 111, 120, 195, 195, 120, 3, 2.48689
34, 1, wb, attraction, a-b-da, 14, 3, 7, 30, 181, 111, 120, 195, 195, 120, 2, 0.570101
34, 1, wb, attraction, a-b-da, 2, 3, 7, 31, 120, 195, 193, 119, 195, 120, 1, 0.729191
34, 1, wb, attraction, a-b-da, 2, 3, 7, 31, 120, 195, 193, 119, 195, 120, 2, 0.370869
34, 1, wb, attraction, a-b-db, 2, 3, 7, 32, 195, 120, 119, 193, 120, 195, 2, 0.802074
34, 1, wb, attraction, a-b-db, 2, 3, 7, 32, 195, 120, 119, 193, 120, 195, 1, 0.409163
34, 1, wb, attraction, a-b-db, 9, 2, 7, 33, 165, 90, 90, 165, 86, 157, 2, 0.4942
34, 1, wb, attraction, a-b-db, 9, 2, 7, 33, 165, 90, 90, 165, 86, 157, 3, 0.657317
34, 1, wb, catch, NA, 999, 999, 7, 34, 176, 139, 147, 108, 90, 105, 3, 0.860427
34, 1, wb, catch, NA, 999, 999, 7, 34, 176, 139, 147, 108, 90, 105, 1, 0.384799
34, 1, wb, attraction, a-b-db, 9, 1, 7, 35, 135, 60, 60, 135, 57, 129, 3, 1.56732
34, 1, wb, attraction, a-b-db, 9, 1, 7, 35, 135, 60, 60, 135, 57, 129, 1, 0.943391
34, 1, wb, attraction, a-b-db, 14, 2, 7, 36, 165, 90, 83, 153, 90, 165, 1, 2.14302
34, 1, wb, attraction, a-b-db, 14, 2, 7, 36, 165, 90, 83, 153, 90, 165, 3, 0.375681
34, 1, wb, attraction, a-b-db, 14, 3, 7, 37, 111, 181, 195, 120, 120, 195, 1, 1.04622
34, 1, wb, attraction, a-b-db, 14, 3, 7, 37, 111, 181, 195, 120, 120, 195, 2, 0.28316
34, 1, wb, attraction, a-b-da, 2, 1, 8, 1, 60, 135, 134, 59, 135, 60, 2, 0.68572
34, 1, wb, attraction, a-b-da, 2, 1, 8, 1, 60, 135, 134, 59, 135, 60, 3, 0.433484
34, 1, wb, filler, NA, 999, 999, 8, 2, 170, 122, 130, 162, 97, 143, 3, 1.21393
34, 1, wb, filler, NA, 999, 999, 8, 2, 170, 122, 130, 162, 97, 143, 2, 0.668174
34, 1, wb, filler, NA, 999, 999, 8, 3, 127, 75, 193, 112, 193, 193, 1, 1.3513
34, 1, wb, filler, NA, 999, 999, 8, 3, 127, 75, 193, 112, 193, 193, 3, 0.464242
34, 1, wb, filler, NA, 999, 999, 8, 4, 187, 191, 194, 121, 162, 96, 3, 0.859281
34, 1, wb, filler, NA, 999, 999, 8, 4, 187, 191, 194, 121, 162, 96, 1, 0.615653
34, 1, wb, catch, NA, 999, 999, 8, 5, 134, 61, 145, 170, 135, 120, 1, 0.868807
34, 1, wb, catch, NA, 999, 999, 8, 5, 134, 61, 145, 170, 135, 120, 2, 0.513163
34, 1, wb, attraction, a-b-da, 5, 3, 8, 6, 120, 195, 195, 120, 190, 117, 3, 0.834232
34, 1, wb, attraction, a-b-da, 5, 3, 8, 6, 120, 195, 195, 120, 190, 117, 2, 0.59998
34, 1, wb, catch, NA, 999, 999, 8, 7, 112, 83, 174, 141, 142, 113, 1, 0.853634
34, 1, wb, catch, NA, 999, 999, 8, 7, 112, 83, 174, 141, 142, 113, 2, 0.554671
34, 1, wb, filler, NA, 999, 999, 8, 8, 157, 191, 58, 185, 161, 150, 2, 1.07447
34, 1, wb, filler, NA, 999, 999, 8, 8, 157, 191, 58, 185, 161, 150, 1, 0.526114
34, 1, wb, attraction, a-b-db, 9, 1, 8, 9, 60, 135, 57, 129, 135, 60, 2, 2.29455
34, 1, wb, attraction, a-b-db, 9, 1, 8, 9, 60, 135, 57, 129, 135, 60, 3, 0.641279
34, 1, wb, attraction, a-b-db, 14, 2, 8, 10, 90, 165, 165, 90, 83, 153, 2, 0.876948
34, 1, wb, attraction, a-b-db, 14, 2, 8, 10, 90, 165, 165, 90, 83, 153, 3, 0.48869
34, 1, wb, filler, NA, 999, 999, 8, 11, 131, 126, 142, 145, 119, 122, 3, 1.29099
34, 1, wb, filler, NA, 999, 999, 8, 11, 131, 126, 142, 145, 119, 122, 2, 0.55807
34, 1, wb, attraction, a-b-db, 5, 3, 8, 12, 117, 190, 195, 120, 120, 195, 1, 0.677119
34, 1, wb, attraction, a-b-db, 5, 3, 8, 12, 117, 190, 195, 120, 120, 195, 2, 0.456865
34, 1, wb, attraction, a-b-da, 2, 2, 8, 13, 90, 165, 163, 89, 165, 90, 1, 0.939946
34, 1, wb, attraction, a-b-da, 2, 2, 8, 13, 90, 165, 163, 89, 165, 90, 2, 0.781035
34, 1, wb, filler, NA, 999, 999, 8, 14, 123, 75, 111, 68, 92, 85, 2, 1.74737
34, 1, wb, filler, NA, 999, 999, 8, 14, 123, 75, 111, 68, 92, 85, 1, 0.612088
34, 1, wb, attraction, a-b-da, 2, 3, 8, 15, 120, 195, 195, 120, 193, 119, 2, 1.04917
34, 1, wb, attraction, a-b-da, 2, 3, 8, 15, 120, 195, 195, 120, 193, 119, 3, 0.494209
34, 1, wb, attraction, a-b-da, 9, 1, 8, 16, 135, 60, 60, 135, 129, 57, 3, 1.12801
34, 1, wb, attraction, a-b-da, 9, 1, 8, 16, 135, 60, 60, 135, 129, 57, 2, 0.553678
34, 1, wb, attraction, a-b-db, 14, 3, 8, 17, 111, 181, 195, 120, 120, 195, 2, 0.761305
34, 1, wb, attraction, a-b-db, 14, 3, 8, 17, 111, 181, 195, 120, 120, 195, 1, 0.457716
34, 1, wb, filler, NA, 999, 999, 8, 18, 103, 82, 140, 120, 143, 148, 1, 0.820876
34, 1, wb, filler, NA, 999, 999, 8, 18, 103, 82, 140, 120, 143, 148, 3, 0.56331
34, 1, wb, catch, NA, 999, 999, 8, 19, 165, 90, 160, 155, 83, 112, 3, 1.03438
34, 1, wb, catch, NA, 999, 999, 8, 19, 165, 90, 160, 155, 83, 112, 2, 0.68004
34, 1, wb, attraction, a-b-da, 9, 2, 8, 20, 90, 165, 165, 90, 157, 86, 3, 1.27437
34, 1, wb, attraction, a-b-da, 9, 2, 8, 20, 90, 165, 165, 90, 157, 86, 2, 0.494004
34, 1, wb, attraction, a-b-da, 9, 3, 8, 21, 120, 195, 186, 114, 195, 120, 1, 1.3357
34, 1, wb, attraction, a-b-da, 9, 3, 8, 21, 120, 195, 186, 114, 195, 120, 2, 0.481379
34, 1, wb, attraction, a-b-db, 5, 2, 8, 22, 165, 90, 90, 165, 88, 161, 1, 1.07573
34, 1, wb, attraction, a-b-db, 5, 2, 8, 22, 165, 90, 90, 165, 88, 161, 3, 0.471472
34, 1, wb, attraction, a-b-db, 2, 1, 8, 23, 59, 134, 135, 60, 60, 135, 2, 1.10654
34, 1, wb, attraction, a-b-db, 2, 1, 8, 23, 59, 134, 135, 60, 60, 135, 3, 0.564948
34, 1, wb, attraction, a-b-da, 14, 3, 8, 24, 195, 120, 181, 111, 120, 195, 3, 1.41195
34, 1, wb, attraction, a-b-da, 14, 3, 8, 24, 195, 120, 181, 111, 120, 195, 2, 0.474133
34, 1, wb, attraction, a-b-da, 5, 2, 8, 25, 165, 90, 161, 88, 90, 165, 1, 1.0286
34, 1, wb, attraction, a-b-da, 5, 2, 8, 25, 165, 90, 161, 88, 90, 165, 2, 0.362221
34, 1, wb, attraction, a-b-db, 9, 2, 8, 26, 86, 157, 90, 165, 165, 90, 1, 0.993328
34, 1, wb, attraction, a-b-db, 9, 2, 8, 26, 86, 157, 90, 165, 165, 90, 3, 1.26444
34, 1, wb, attraction, a-b-db, 9, 3, 8, 27, 114, 186, 120, 195, 195, 120, 2, 0.88331
34, 1, wb, attraction, a-b-db, 9, 3, 8, 27, 114, 186, 120, 195, 195, 120, 3, 0.551057
34, 1, wb, filler, NA, 999, 999, 8, 28, 172, 65, 66, 195, 122, 81, 3, 1.00675
34, 1, wb, filler, NA, 999, 999, 8, 28, 172, 65, 66, 195, 122, 81, 2, 0.37308
34, 1, wb, attraction, a-b-da, 5, 1, 8, 29, 132, 58, 60, 135, 135, 60, 3, 0.796202
34, 1, wb, attraction, a-b-da, 5, 1, 8, 29, 132, 58, 60, 135, 135, 60, 2, 0.611444
34, 1, wb, filler, NA, 999, 999, 8, 30, 182, 119, 156, 118, 120, 140, 3, 1.60036
34, 1, wb, filler, NA, 999, 999, 8, 30, 182, 119, 156, 118, 120, 140, 1, 0.743109
34, 1, wb, attraction, a-b-db, 2, 2, 8, 31, 90, 165, 89, 163, 165, 90, 1, 2.07078
34, 1, wb, attraction, a-b-db, 2, 2, 8, 31, 90, 165, 89, 163, 165, 90, 3, 0.674899
34, 1, wb, attraction, a-b-db, 14, 1, 8, 32, 56, 125, 135, 60, 60, 135, 1, 0.677295
34, 1, wb, attraction, a-b-db, 14, 1, 8, 32, 56, 125, 135, 60, 60, 135, 3, 0.449093
34, 1, wb, attraction, a-b-da, 14, 1, 8, 33, 135, 60, 60, 135, 125, 56, 2, 0.8449
34, 1, wb, attraction, a-b-da, 14, 1, 8, 33, 135, 60, 60, 135, 125, 56, 3, 0.482133
34, 1, wb, attraction, a-b-db, 5, 1, 8, 34, 60, 135, 58, 132, 135, 60, 2, 0.820472
34, 1, wb, attraction, a-b-db, 5, 1, 8, 34, 60, 135, 58, 132, 135, 60, 1, 0.610678
34, 1, wb, filler, NA, 999, 999, 8, 35, 75, 94, 172, 118, 149, 87, 1, 0.935789
34, 1, wb, filler, NA, 999, 999, 8, 35, 75, 94, 172, 118, 149, 87, 2, 0.577565
34, 1, wb, attraction, a-b-da, 14, 2, 8, 36, 165, 90, 153, 83, 90, 165, 3, 0.736222
34, 1, wb, attraction, a-b-da, 14, 2, 8, 36, 165, 90, 153, 83, 90, 165, 2, 0.593632
34, 1, wb, attraction, a-b-db, 2, 3, 8, 37, 195, 120, 120, 195, 119, 193, 3, 0.67948
34, 1, wb, attraction, a-b-db, 2, 3, 8, 37, 195, 120, 120, 195, 119, 193, 2, 0.515268
