sub_n, computer_n, bw_cond, effect, set, distance, diag, block_n, trial_n, h1, w1, h2, w2, h3, w3, choice, rt 
321, 1, bw, practice, NA, 999, 999, 0, 1, 60, 189, 91, 103, 130, 175, 3, 4.42694
321, 1, bw, practice, NA, 999, 999, 0, 1, 60, 189, 91, 103, 130, 175, 2, 6.89285
321, 1, bw, practice, NA, 999, 999, 0, 2, 182, 64, 75, 79, 190, 162, 3, 3.17231
321, 1, bw, practice, NA, 999, 999, 0, 2, 182, 64, 75, 79, 190, 162, 2, 2.05903
321, 1, bw, practice, NA, 999, 999, 0, 3, 98, 154, 71, 134, 182, 126, 3, 5.28351
321, 1, bw, practice, NA, 999, 999, 0, 3, 98, 154, 71, 134, 182, 126, 2, 1.33477
321, 1, bw, attraction, a-b-db, 2, 1, 1, 1, 135, 60, 60, 135, 59, 134, 2, 3.28923
321, 1, bw, attraction, a-b-db, 2, 1, 1, 1, 135, 60, 60, 135, 59, 134, 1, 3.17136
321, 1, bw, catch, NA, 999, 999, 1, 2, 137, 178, 123, 72, 111, 144, 1, 1.60972
321, 1, bw, catch, NA, 999, 999, 1, 2, 137, 178, 123, 72, 111, 144, 2, 1.15184
321, 1, bw, attraction, a-b-da, 2, 3, 1, 3, 193, 119, 195, 120, 120, 195, 2, 1.17535
321, 1, bw, attraction, a-b-da, 2, 3, 1, 3, 193, 119, 195, 120, 120, 195, 3, 2.40704
321, 1, bw, attraction, a-b-da, 14, 2, 1, 4, 165, 90, 153, 83, 90, 165, 1, 2.32353
321, 1, bw, attraction, a-b-da, 14, 2, 1, 4, 165, 90, 153, 83, 90, 165, 2, 0.860744
321, 1, bw, attraction, a-b-db, 14, 1, 1, 5, 60, 135, 56, 125, 135, 60, 1, 1.87982
321, 1, bw, attraction, a-b-db, 14, 1, 1, 5, 60, 135, 56, 125, 135, 60, 3, 1.12316
321, 1, bw, attraction, a-b-da, 14, 3, 1, 6, 181, 111, 120, 195, 195, 120, 2, 1.3161
321, 1, bw, attraction, a-b-da, 14, 3, 1, 6, 181, 111, 120, 195, 195, 120, 1, 1.63839
321, 1, bw, attraction, a-b-db, 5, 2, 1, 7, 90, 165, 88, 161, 165, 90, 2, 1.24233
321, 1, bw, attraction, a-b-db, 5, 2, 1, 7, 90, 165, 88, 161, 165, 90, 1, 0.935321
321, 1, bw, attraction, a-b-db, 14, 2, 1, 8, 90, 165, 83, 153, 165, 90, 2, 1.52763
321, 1, bw, attraction, a-b-db, 14, 2, 1, 8, 90, 165, 83, 153, 165, 90, 3, 0.993151
321, 1, bw, filler, NA, 999, 999, 1, 9, 84, 176, 75, 186, 116, 172, 3, 1.19875
321, 1, bw, filler, NA, 999, 999, 1, 9, 84, 176, 75, 186, 116, 172, 2, 0.669685
321, 1, bw, catch, NA, 999, 999, 1, 10, 127, 68, 93, 162, 167, 148, 3, 0.680912
321, 1, bw, catch, NA, 999, 999, 1, 10, 127, 68, 93, 162, 167, 148, 1, 1.02046
321, 1, bw, filler, NA, 999, 999, 1, 11, 156, 128, 145, 115, 93, 135, 1, 1.16142
321, 1, bw, filler, NA, 999, 999, 1, 11, 156, 128, 145, 115, 93, 135, 3, 0.969776
321, 1, bw, filler, NA, 999, 999, 1, 12, 60, 59, 166, 151, 152, 178, 2, 1.03265
321, 1, bw, filler, NA, 999, 999, 1, 12, 60, 59, 166, 151, 152, 178, 1, 0.702385
321, 1, bw, attraction, a-b-da, 2, 2, 1, 13, 90, 165, 165, 90, 163, 89, 2, 1.80012
321, 1, bw, attraction, a-b-da, 2, 2, 1, 13, 90, 165, 165, 90, 163, 89, 1, 2.5989
321, 1, bw, attraction, a-b-da, 14, 1, 1, 14, 60, 135, 125, 56, 135, 60, 1, 3.72398
321, 1, bw, attraction, a-b-da, 14, 1, 1, 14, 60, 135, 125, 56, 135, 60, 2, 0.764781
321, 1, bw, filler, NA, 999, 999, 1, 15, 72, 126, 96, 93, 189, 175, 3, 0.787805
321, 1, bw, filler, NA, 999, 999, 1, 15, 72, 126, 96, 93, 189, 175, 1, 1.0669
321, 1, bw, filler, NA, 999, 999, 1, 16, 101, 85, 188, 122, 57, 129, 2, 1.11775
321, 1, bw, filler, NA, 999, 999, 1, 16, 101, 85, 188, 122, 57, 129, 3, 0.888092
321, 1, bw, attraction, a-b-db, 5, 3, 1, 17, 117, 190, 120, 195, 195, 120, 2, 1.74658
321, 1, bw, attraction, a-b-db, 5, 3, 1, 17, 117, 190, 120, 195, 195, 120, 1, 0.795143
321, 1, bw, catch, NA, 999, 999, 1, 18, 97, 158, 129, 66, 140, 175, 3, 0.832977
321, 1, bw, catch, NA, 999, 999, 1, 18, 97, 158, 129, 66, 140, 175, 2, 0.590561
321, 1, bw, attraction, a-b-db, 14, 3, 1, 19, 111, 181, 120, 195, 195, 120, 3, 1.62029
321, 1, bw, attraction, a-b-db, 14, 3, 1, 19, 111, 181, 120, 195, 195, 120, 1, 0.914433
321, 1, bw, attraction, a-b-db, 9, 1, 1, 20, 135, 60, 57, 129, 60, 135, 1, 1.68346
321, 1, bw, attraction, a-b-db, 9, 1, 1, 20, 135, 60, 57, 129, 60, 135, 2, 0.7829
321, 1, bw, filler, NA, 999, 999, 1, 21, 128, 101, 174, 142, 133, 177, 2, 1.76535
321, 1, bw, filler, NA, 999, 999, 1, 21, 128, 101, 174, 142, 133, 177, 1, 0.64547
321, 1, bw, filler, NA, 999, 999, 1, 22, 195, 174, 173, 90, 59, 188, 1, 1.2011
321, 1, bw, filler, NA, 999, 999, 1, 22, 195, 174, 173, 90, 59, 188, 3, 1.34419
321, 1, bw, filler, NA, 999, 999, 1, 23, 163, 160, 163, 162, 122, 83, 2, 1.97548
321, 1, bw, filler, NA, 999, 999, 1, 23, 163, 160, 163, 162, 122, 83, 3, 0.566952
321, 1, bw, attraction, a-b-da, 2, 1, 1, 24, 134, 59, 60, 135, 135, 60, 1, 1.10995
321, 1, bw, attraction, a-b-da, 2, 1, 1, 24, 134, 59, 60, 135, 135, 60, 2, 0.440328
321, 1, bw, attraction, a-b-da, 5, 2, 1, 25, 90, 165, 161, 88, 165, 90, 1, 1.25212
321, 1, bw, attraction, a-b-da, 5, 2, 1, 25, 90, 165, 161, 88, 165, 90, 2, 0.385068
321, 1, bw, filler, NA, 999, 999, 1, 26, 170, 170, 163, 107, 141, 139, 1, 1.12753
321, 1, bw, filler, NA, 999, 999, 1, 26, 170, 170, 163, 107, 141, 139, 2, 0.673105
321, 1, bw, attraction, a-b-db, 2, 2, 1, 27, 165, 90, 89, 163, 90, 165, 2, 1.44419
321, 1, bw, attraction, a-b-db, 2, 2, 1, 27, 165, 90, 89, 163, 90, 165, 1, 0.673002
321, 1, bw, attraction, a-b-da, 5, 1, 1, 28, 60, 135, 135, 60, 132, 58, 1, 1.59616
321, 1, bw, attraction, a-b-da, 5, 1, 1, 28, 60, 135, 135, 60, 132, 58, 2, 0.827062
321, 1, bw, attraction, a-b-db, 2, 3, 1, 29, 120, 195, 195, 120, 119, 193, 1, 2.79131
321, 1, bw, attraction, a-b-db, 2, 3, 1, 29, 120, 195, 195, 120, 119, 193, 2, 0.701726
321, 1, bw, attraction, a-b-db, 5, 1, 1, 30, 60, 135, 135, 60, 58, 132, 1, 3.66349
321, 1, bw, attraction, a-b-db, 5, 1, 1, 30, 60, 135, 135, 60, 58, 132, 2, 0.747102
321, 1, bw, attraction, a-b-da, 9, 3, 1, 31, 120, 195, 186, 114, 195, 120, 1, 3.50671
321, 1, bw, attraction, a-b-da, 9, 3, 1, 31, 120, 195, 186, 114, 195, 120, 2, 0.508121
321, 1, bw, attraction, a-b-da, 5, 3, 1, 32, 190, 117, 195, 120, 120, 195, 3, 2.3493
321, 1, bw, attraction, a-b-da, 5, 3, 1, 32, 190, 117, 195, 120, 120, 195, 1, 1.39784
321, 1, bw, attraction, a-b-da, 9, 2, 1, 33, 165, 90, 157, 86, 90, 165, 1, 3.31536
321, 1, bw, attraction, a-b-da, 9, 2, 1, 33, 165, 90, 157, 86, 90, 165, 2, 1.52515
321, 1, bw, attraction, a-b-db, 9, 2, 1, 34, 90, 165, 86, 157, 165, 90, 1, 4.3171
321, 1, bw, attraction, a-b-db, 9, 2, 1, 34, 90, 165, 86, 157, 165, 90, 2, 1.36642
321, 1, bw, attraction, a-b-da, 9, 1, 1, 35, 60, 135, 135, 60, 129, 57, 1, 2.42931
321, 1, bw, attraction, a-b-da, 9, 1, 1, 35, 60, 135, 135, 60, 129, 57, 3, 1.20247
321, 1, bw, attraction, a-b-db, 9, 3, 1, 36, 195, 120, 114, 186, 120, 195, 2, 2.42407
321, 1, bw, attraction, a-b-db, 9, 3, 1, 36, 195, 120, 114, 186, 120, 195, 1, 0.613284
321, 1, bw, filler, NA, 999, 999, 1, 37, 141, 180, 143, 192, 97, 186, 2, 1.21843
321, 1, bw, filler, NA, 999, 999, 1, 37, 141, 180, 143, 192, 97, 186, 3, 0.880667
321, 1, bw, filler, NA, 999, 999, 2, 1, 122, 131, 146, 78, 144, 144, 3, 1.63485
321, 1, bw, filler, NA, 999, 999, 2, 1, 122, 131, 146, 78, 144, 144, 2, 0.712326
321, 1, bw, attraction, a-b-da, 9, 1, 2, 2, 129, 57, 60, 135, 135, 60, 2, 1.84942
321, 1, bw, attraction, a-b-da, 9, 1, 2, 2, 129, 57, 60, 135, 135, 60, 3, 0.998191
321, 1, bw, attraction, a-b-da, 2, 2, 2, 3, 90, 165, 163, 89, 165, 90, 1, 0.899756
321, 1, bw, attraction, a-b-da, 2, 2, 2, 3, 90, 165, 163, 89, 165, 90, 2, 0.631001
321, 1, bw, attraction, a-b-da, 2, 3, 2, 4, 120, 195, 195, 120, 193, 119, 1, 0.947233
321, 1, bw, attraction, a-b-da, 2, 3, 2, 4, 120, 195, 195, 120, 193, 119, 2, 1.4042
321, 1, bw, attraction, a-b-da, 2, 1, 2, 5, 134, 59, 135, 60, 60, 135, 2, 1.73781
321, 1, bw, attraction, a-b-da, 2, 1, 2, 5, 134, 59, 135, 60, 60, 135, 1, 1.33136
321, 1, bw, attraction, a-b-db, 2, 1, 2, 6, 60, 135, 135, 60, 59, 134, 2, 1.33939
321, 1, bw, attraction, a-b-db, 2, 1, 2, 6, 60, 135, 135, 60, 59, 134, 1, 0.572293
321, 1, bw, filler, NA, 999, 999, 2, 7, 65, 147, 96, 152, 129, 190, 3, 1.06738
321, 1, bw, filler, NA, 999, 999, 2, 7, 65, 147, 96, 152, 129, 190, 1, 0.919654
321, 1, bw, attraction, a-b-db, 14, 1, 2, 8, 56, 125, 135, 60, 60, 135, 3, 0.760604
321, 1, bw, attraction, a-b-db, 14, 1, 2, 8, 56, 125, 135, 60, 60, 135, 1, 1.40918
321, 1, bw, attraction, a-b-da, 5, 2, 2, 9, 165, 90, 161, 88, 90, 165, 1, 1.26994
321, 1, bw, attraction, a-b-da, 5, 2, 2, 9, 165, 90, 161, 88, 90, 165, 2, 1.05815
321, 1, bw, attraction, a-b-db, 14, 3, 2, 10, 111, 181, 195, 120, 120, 195, 2, 1.40506
321, 1, bw, attraction, a-b-db, 14, 3, 2, 10, 111, 181, 195, 120, 120, 195, 1, 0.739392
321, 1, bw, attraction, a-b-db, 9, 1, 2, 11, 60, 135, 135, 60, 57, 129, 1, 1.39565
321, 1, bw, attraction, a-b-db, 9, 1, 2, 11, 60, 135, 135, 60, 57, 129, 2, 0.938502
321, 1, bw, attraction, a-b-da, 5, 1, 2, 12, 60, 135, 132, 58, 135, 60, 1, 3.1309
321, 1, bw, attraction, a-b-da, 5, 1, 2, 12, 60, 135, 132, 58, 135, 60, 2, 0.939828
321, 1, bw, filler, NA, 999, 999, 2, 13, 181, 101, 86, 62, 165, 90, 1, 0.740246
321, 1, bw, filler, NA, 999, 999, 2, 13, 181, 101, 86, 62, 165, 90, 2, 0.685223
321, 1, bw, attraction, a-b-da, 14, 3, 2, 14, 195, 120, 181, 111, 120, 195, 3, 1.98373
321, 1, bw, attraction, a-b-da, 14, 3, 2, 14, 195, 120, 181, 111, 120, 195, 2, 0.855001
321, 1, bw, attraction, a-b-db, 2, 3, 2, 15, 120, 195, 195, 120, 119, 193, 1, 0.786584
321, 1, bw, attraction, a-b-db, 2, 3, 2, 15, 120, 195, 195, 120, 119, 193, 2, 1.0825
321, 1, bw, filler, NA, 999, 999, 2, 16, 70, 163, 105, 120, 76, 152, 2, 1.80485
321, 1, bw, filler, NA, 999, 999, 2, 16, 70, 163, 105, 120, 76, 152, 3, 1.09076
321, 1, bw, attraction, a-b-db, 9, 3, 2, 17, 114, 186, 195, 120, 120, 195, 2, 1.74035
321, 1, bw, attraction, a-b-db, 9, 3, 2, 17, 114, 186, 195, 120, 120, 195, 3, 1.17316
321, 1, bw, attraction, a-b-da, 14, 2, 2, 18, 165, 90, 153, 83, 90, 165, 3, 2.46015
321, 1, bw, attraction, a-b-da, 14, 2, 2, 18, 165, 90, 153, 83, 90, 165, 2, 0.671839
321, 1, bw, attraction, a-b-da, 5, 3, 2, 19, 120, 195, 190, 117, 195, 120, 1, 0.922884
321, 1, bw, attraction, a-b-da, 5, 3, 2, 19, 120, 195, 190, 117, 195, 120, 3, 0.924614
321, 1, bw, filler, NA, 999, 999, 2, 20, 92, 116, 151, 114, 108, 151, 2, 1.94106
321, 1, bw, filler, NA, 999, 999, 2, 20, 92, 116, 151, 114, 108, 151, 1, 0.573671
321, 1, bw, attraction, a-b-da, 9, 2, 2, 21, 157, 86, 90, 165, 165, 90, 2, 1.4281
321, 1, bw, attraction, a-b-da, 9, 2, 2, 21, 157, 86, 90, 165, 165, 90, 1, 0.92168
321, 1, bw, attraction, a-b-da, 9, 3, 2, 22, 120, 195, 186, 114, 195, 120, 1, 1.38657
321, 1, bw, attraction, a-b-da, 9, 3, 2, 22, 120, 195, 186, 114, 195, 120, 2, 0.506155
321, 1, bw, filler, NA, 999, 999, 2, 23, 114, 163, 117, 138, 70, 106, 1, 0.803945
321, 1, bw, filler, NA, 999, 999, 2, 23, 114, 163, 117, 138, 70, 106, 3, 1.05898
321, 1, bw, attraction, a-b-db, 5, 2, 2, 24, 88, 161, 90, 165, 165, 90, 2, 1.90191
321, 1, bw, attraction, a-b-db, 5, 2, 2, 24, 88, 161, 90, 165, 165, 90, 1, 0.632637
321, 1, bw, filler, NA, 999, 999, 2, 25, 123, 175, 63, 171, 184, 158, 3, 1.69304
321, 1, bw, filler, NA, 999, 999, 2, 25, 123, 175, 63, 171, 184, 158, 2, 0.879852
321, 1, bw, attraction, a-b-db, 5, 3, 2, 26, 117, 190, 120, 195, 195, 120, 2, 3.06614
321, 1, bw, attraction, a-b-db, 5, 3, 2, 26, 117, 190, 120, 195, 195, 120, 1, 1.09379
321, 1, bw, attraction, a-b-db, 2, 2, 2, 27, 90, 165, 165, 90, 89, 163, 1, 1.84744
321, 1, bw, attraction, a-b-db, 2, 2, 2, 27, 90, 165, 165, 90, 89, 163, 2, 1.21222
321, 1, bw, attraction, a-b-db, 5, 1, 2, 28, 60, 135, 58, 132, 135, 60, 3, 1.08114
321, 1, bw, attraction, a-b-db, 5, 1, 2, 28, 60, 135, 58, 132, 135, 60, 2, 1.85285
321, 1, bw, catch, NA, 999, 999, 2, 29, 111, 84, 130, 125, 130, 185, 3, 1.46412
321, 1, bw, catch, NA, 999, 999, 2, 29, 111, 84, 130, 125, 130, 185, 1, 0.692244
321, 1, bw, filler, NA, 999, 999, 2, 30, 59, 128, 87, 127, 103, 173, 3, 0.798034
321, 1, bw, filler, NA, 999, 999, 2, 30, 59, 128, 87, 127, 103, 173, 1, 0.869039
321, 1, bw, catch, NA, 999, 999, 2, 31, 161, 154, 99, 156, 112, 83, 1, 1.03998
321, 1, bw, catch, NA, 999, 999, 2, 31, 161, 154, 99, 156, 112, 83, 3, 0.844982
321, 1, bw, attraction, a-b-db, 9, 2, 2, 32, 86, 157, 165, 90, 90, 165, 2, 1.28064
321, 1, bw, attraction, a-b-db, 9, 2, 2, 32, 86, 157, 165, 90, 90, 165, 1, 0.61224
321, 1, bw, catch, NA, 999, 999, 2, 33, 142, 173, 106, 89, 131, 124, 1, 1.90536
321, 1, bw, catch, NA, 999, 999, 2, 33, 142, 173, 106, 89, 131, 124, 2, 0.675373
321, 1, bw, filler, NA, 999, 999, 2, 34, 117, 164, 139, 144, 193, 165, 3, 0.805711
321, 1, bw, filler, NA, 999, 999, 2, 34, 117, 164, 139, 144, 193, 165, 1, 0.708244
321, 1, bw, attraction, a-b-db, 14, 2, 2, 35, 165, 90, 90, 165, 83, 153, 2, 0.917225
321, 1, bw, attraction, a-b-db, 14, 2, 2, 35, 165, 90, 90, 165, 83, 153, 3, 1.09561
321, 1, bw, attraction, a-b-da, 14, 1, 2, 36, 125, 56, 60, 135, 135, 60, 3, 1.39318
321, 1, bw, attraction, a-b-da, 14, 1, 2, 36, 125, 56, 60, 135, 135, 60, 1, 0.968028
321, 1, bw, filler, NA, 999, 999, 2, 37, 157, 85, 179, 60, 91, 114, 1, 0.966945
321, 1, bw, filler, NA, 999, 999, 2, 37, 157, 85, 179, 60, 91, 114, 2, 1.34328
321, 1, bw, catch, NA, 999, 999, 3, 1, 162, 153, 143, 112, 135, 60, 1, 0.71879
321, 1, bw, catch, NA, 999, 999, 3, 1, 162, 153, 143, 112, 135, 60, 3, 0.569221
321, 1, bw, attraction, a-b-da, 14, 2, 3, 2, 165, 90, 153, 83, 90, 165, 3, 4.77655
321, 1, bw, attraction, a-b-da, 14, 2, 3, 2, 165, 90, 153, 83, 90, 165, 1, 3.16692
321, 1, bw, filler, NA, 999, 999, 3, 3, 103, 193, 183, 181, 63, 95, 2, 1.2211
321, 1, bw, filler, NA, 999, 999, 3, 3, 103, 193, 183, 181, 63, 95, 3, 1.05877
321, 1, bw, catch, NA, 999, 999, 3, 4, 123, 72, 165, 150, 165, 90, 2, 1.15779
321, 1, bw, catch, NA, 999, 999, 3, 4, 123, 72, 165, 150, 165, 90, 1, 1.78192
321, 1, bw, attraction, a-b-db, 14, 2, 3, 5, 90, 165, 83, 153, 165, 90, 2, 2.70802
321, 1, bw, attraction, a-b-db, 14, 2, 3, 5, 90, 165, 83, 153, 165, 90, 1, 0.541887
321, 1, bw, attraction, a-b-da, 5, 2, 3, 6, 161, 88, 90, 165, 165, 90, 2, 0.661545
321, 1, bw, attraction, a-b-da, 5, 2, 3, 6, 161, 88, 90, 165, 165, 90, 1, 0.801952
321, 1, bw, attraction, a-b-db, 2, 3, 3, 7, 195, 120, 120, 195, 119, 193, 2, 1.0638
321, 1, bw, attraction, a-b-db, 2, 3, 3, 7, 195, 120, 120, 195, 119, 193, 3, 0.731962
321, 1, bw, attraction, a-b-db, 9, 3, 3, 8, 114, 186, 195, 120, 120, 195, 2, 1.07649
321, 1, bw, attraction, a-b-db, 9, 3, 3, 8, 114, 186, 195, 120, 120, 195, 1, 0.511971
321, 1, bw, attraction, a-b-da, 9, 2, 3, 9, 90, 165, 157, 86, 165, 90, 1, 1.20108
321, 1, bw, attraction, a-b-da, 9, 2, 3, 9, 90, 165, 157, 86, 165, 90, 2, 0.520167
321, 1, bw, attraction, a-b-db, 14, 1, 3, 10, 56, 125, 135, 60, 60, 135, 2, 1.89727
321, 1, bw, attraction, a-b-db, 14, 1, 3, 10, 56, 125, 135, 60, 60, 135, 1, 0.69205
321, 1, bw, attraction, a-b-db, 9, 1, 3, 11, 57, 129, 135, 60, 60, 135, 2, 0.909658
321, 1, bw, attraction, a-b-db, 9, 1, 3, 11, 57, 129, 135, 60, 60, 135, 1, 1.18401
321, 1, bw, attraction, a-b-da, 14, 1, 3, 12, 60, 135, 125, 56, 135, 60, 1, 0.806174
321, 1, bw, attraction, a-b-da, 14, 1, 3, 12, 60, 135, 125, 56, 135, 60, 2, 0.572645
321, 1, bw, attraction, a-b-da, 2, 2, 3, 13, 165, 90, 163, 89, 90, 165, 2, 1.15582
321, 1, bw, attraction, a-b-da, 2, 2, 3, 13, 165, 90, 163, 89, 90, 165, 1, 1.15595
321, 1, bw, attraction, a-b-da, 5, 1, 3, 14, 135, 60, 132, 58, 60, 135, 3, 1.57955
321, 1, bw, attraction, a-b-da, 5, 1, 3, 14, 135, 60, 132, 58, 60, 135, 2, 0.426984
321, 1, bw, attraction, a-b-db, 2, 1, 3, 15, 59, 134, 135, 60, 60, 135, 3, 1.1195
321, 1, bw, attraction, a-b-db, 2, 1, 3, 15, 59, 134, 135, 60, 60, 135, 1, 1.49785
321, 1, bw, filler, NA, 999, 999, 3, 16, 131, 121, 165, 80, 116, 80, 1, 1.05129
321, 1, bw, filler, NA, 999, 999, 3, 16, 131, 121, 165, 80, 116, 80, 3, 0.816241
321, 1, bw, attraction, a-b-db, 5, 3, 3, 17, 120, 195, 117, 190, 195, 120, 3, 0.925347
321, 1, bw, attraction, a-b-db, 5, 3, 3, 17, 120, 195, 117, 190, 195, 120, 1, 0.734965
321, 1, bw, attraction, a-b-db, 14, 3, 3, 18, 120, 195, 195, 120, 111, 181, 2, 3.31134
321, 1, bw, attraction, a-b-db, 14, 3, 3, 18, 120, 195, 195, 120, 111, 181, 3, 2.00908
321, 1, bw, attraction, a-b-db, 5, 2, 3, 19, 88, 161, 165, 90, 90, 165, 1, 2.26955
321, 1, bw, attraction, a-b-db, 5, 2, 3, 19, 88, 161, 165, 90, 90, 165, 2, 0.977482
321, 1, bw, catch, NA, 999, 999, 3, 20, 96, 159, 81, 114, 175, 140, 3, 0.927841
321, 1, bw, catch, NA, 999, 999, 3, 20, 96, 159, 81, 114, 175, 140, 2, 1.14551
321, 1, bw, filler, NA, 999, 999, 3, 21, 181, 188, 118, 139, 182, 117, 1, 0.945044
321, 1, bw, filler, NA, 999, 999, 3, 21, 181, 188, 118, 139, 182, 117, 2, 0.730092
321, 1, bw, attraction, a-b-da, 2, 3, 3, 22, 120, 195, 195, 120, 193, 119, 2, 0.770457
321, 1, bw, attraction, a-b-da, 2, 3, 3, 22, 120, 195, 195, 120, 193, 119, 1, 0.650213
321, 1, bw, filler, NA, 999, 999, 3, 23, 193, 100, 195, 133, 147, 119, 2, 1.63787
321, 1, bw, filler, NA, 999, 999, 3, 23, 193, 100, 195, 133, 147, 119, 3, 0.739402
321, 1, bw, filler, NA, 999, 999, 3, 24, 162, 168, 87, 72, 145, 71, 1, 0.747745
321, 1, bw, filler, NA, 999, 999, 3, 24, 162, 168, 87, 72, 145, 71, 2, 0.868879
321, 1, bw, filler, NA, 999, 999, 3, 25, 59, 87, 83, 133, 114, 186, 3, 3.69581
321, 1, bw, filler, NA, 999, 999, 3, 25, 59, 87, 83, 133, 114, 186, 1, 2.20993
321, 1, bw, attraction, a-b-db, 2, 2, 3, 26, 165, 90, 89, 163, 90, 165, 2, 1.0146
321, 1, bw, attraction, a-b-db, 2, 2, 3, 26, 165, 90, 89, 163, 90, 165, 1, 0.708894
321, 1, bw, attraction, a-b-da, 5, 3, 3, 27, 195, 120, 120, 195, 190, 117, 2, 1.04589
321, 1, bw, attraction, a-b-da, 5, 3, 3, 27, 195, 120, 120, 195, 190, 117, 3, 0.754899
321, 1, bw, attraction, a-b-da, 2, 1, 3, 28, 60, 135, 135, 60, 134, 59, 1, 0.802697
321, 1, bw, attraction, a-b-da, 2, 1, 3, 28, 60, 135, 135, 60, 134, 59, 2, 0.969669
321, 1, bw, filler, NA, 999, 999, 3, 29, 169, 153, 97, 108, 154, 166, 1, 2.77675
321, 1, bw, filler, NA, 999, 999, 3, 29, 169, 153, 97, 108, 154, 166, 2, 0.639858
321, 1, bw, filler, NA, 999, 999, 3, 30, 79, 92, 154, 122, 113, 177, 3, 1.25225
321, 1, bw, filler, NA, 999, 999, 3, 30, 79, 92, 154, 122, 113, 177, 1, 0.929181
321, 1, bw, attraction, a-b-da, 14, 3, 3, 31, 181, 111, 195, 120, 120, 195, 2, 1.5534
321, 1, bw, attraction, a-b-da, 14, 3, 3, 31, 181, 111, 195, 120, 120, 195, 1, 0.810292
321, 1, bw, filler, NA, 999, 999, 3, 32, 69, 77, 84, 114, 60, 112, 2, 1.0713
321, 1, bw, filler, NA, 999, 999, 3, 32, 69, 77, 84, 114, 60, 112, 1, 0.810918
321, 1, bw, attraction, a-b-da, 9, 3, 3, 33, 120, 195, 195, 120, 186, 114, 2, 1.024
321, 1, bw, attraction, a-b-da, 9, 3, 3, 33, 120, 195, 195, 120, 186, 114, 3, 1.04563
321, 1, bw, attraction, a-b-db, 5, 1, 3, 34, 58, 132, 60, 135, 135, 60, 2, 0.793272
321, 1, bw, attraction, a-b-db, 5, 1, 3, 34, 58, 132, 60, 135, 135, 60, 1, 0.600388
321, 1, bw, attraction, a-b-da, 9, 1, 3, 35, 129, 57, 135, 60, 60, 135, 2, 0.926039
321, 1, bw, attraction, a-b-da, 9, 1, 3, 35, 129, 57, 135, 60, 60, 135, 1, 0.671838
321, 1, bw, filler, NA, 999, 999, 3, 36, 96, 179, 86, 107, 86, 176, 1, 0.842914
321, 1, bw, filler, NA, 999, 999, 3, 36, 96, 179, 86, 107, 86, 176, 2, 0.57588
321, 1, bw, attraction, a-b-db, 9, 2, 3, 37, 86, 157, 165, 90, 90, 165, 2, 0.814285
321, 1, bw, attraction, a-b-db, 9, 2, 3, 37, 86, 157, 165, 90, 90, 165, 1, 0.428691
321, 1, bw, attraction, a-b-db, 2, 1, 4, 1, 60, 135, 135, 60, 59, 134, 2, 2.43301
321, 1, bw, attraction, a-b-db, 2, 1, 4, 1, 60, 135, 135, 60, 59, 134, 1, 0.734336
321, 1, bw, attraction, a-b-da, 9, 3, 4, 2, 195, 120, 186, 114, 120, 195, 3, 1.40669
321, 1, bw, attraction, a-b-da, 9, 3, 4, 2, 195, 120, 186, 114, 120, 195, 2, 0.860915
321, 1, bw, filler, NA, 999, 999, 4, 3, 80, 172, 172, 184, 149, 167, 2, 1.24797
321, 1, bw, filler, NA, 999, 999, 4, 3, 80, 172, 172, 184, 149, 167, 1, 0.668896
321, 1, bw, attraction, a-b-db, 5, 2, 4, 4, 90, 165, 165, 90, 88, 161, 2, 1.92788
321, 1, bw, attraction, a-b-db, 5, 2, 4, 4, 90, 165, 165, 90, 88, 161, 1, 1.64928
321, 1, bw, attraction, a-b-db, 9, 1, 4, 5, 135, 60, 60, 135, 57, 129, 2, 1.70067
321, 1, bw, attraction, a-b-db, 9, 1, 4, 5, 135, 60, 60, 135, 57, 129, 1, 0.703522
321, 1, bw, attraction, a-b-db, 2, 3, 4, 6, 195, 120, 119, 193, 120, 195, 2, 1.52117
321, 1, bw, attraction, a-b-db, 2, 3, 4, 6, 195, 120, 119, 193, 120, 195, 1, 0.683334
321, 1, bw, attraction, a-b-db, 9, 3, 4, 7, 195, 120, 120, 195, 114, 186, 2, 0.965789
321, 1, bw, attraction, a-b-db, 9, 3, 4, 7, 195, 120, 120, 195, 114, 186, 1, 1.76629
321, 1, bw, attraction, a-b-db, 14, 1, 4, 8, 56, 125, 60, 135, 135, 60, 2, 1.38876
321, 1, bw, attraction, a-b-db, 14, 1, 4, 8, 56, 125, 60, 135, 135, 60, 1, 0.947629
321, 1, bw, filler, NA, 999, 999, 4, 9, 59, 144, 187, 96, 145, 92, 2, 0.987386
321, 1, bw, filler, NA, 999, 999, 4, 9, 59, 144, 187, 96, 145, 92, 1, 0.691024
321, 1, bw, filler, NA, 999, 999, 4, 10, 171, 122, 90, 86, 66, 77, 1, 1.23665
321, 1, bw, filler, NA, 999, 999, 4, 10, 171, 122, 90, 86, 66, 77, 3, 0.858263
321, 1, bw, attraction, a-b-db, 5, 1, 4, 11, 135, 60, 60, 135, 58, 132, 2, 0.741255
321, 1, bw, attraction, a-b-db, 5, 1, 4, 11, 135, 60, 60, 135, 58, 132, 1, 0.702322
321, 1, bw, filler, NA, 999, 999, 4, 12, 122, 173, 66, 164, 69, 115, 1, 1.16019
321, 1, bw, filler, NA, 999, 999, 4, 12, 122, 173, 66, 164, 69, 115, 3, 0.872419
321, 1, bw, filler, NA, 999, 999, 4, 13, 163, 82, 170, 140, 165, 125, 2, 0.811492
321, 1, bw, filler, NA, 999, 999, 4, 13, 163, 82, 170, 140, 165, 125, 1, 0.80184
321, 1, bw, catch, NA, 999, 999, 4, 14, 178, 137, 109, 86, 117, 138, 1, 1.18345
321, 1, bw, catch, NA, 999, 999, 4, 14, 178, 137, 109, 86, 117, 138, 2, 0.671061
321, 1, bw, attraction, a-b-db, 9, 2, 4, 15, 90, 165, 86, 157, 165, 90, 2, 1.20217
321, 1, bw, attraction, a-b-db, 9, 2, 4, 15, 90, 165, 86, 157, 165, 90, 1, 0.729068
321, 1, bw, attraction, a-b-da, 5, 1, 4, 16, 60, 135, 132, 58, 135, 60, 2, 1.3055
321, 1, bw, attraction, a-b-da, 5, 1, 4, 16, 60, 135, 132, 58, 135, 60, 1, 0.499693
321, 1, bw, filler, NA, 999, 999, 4, 17, 126, 166, 135, 147, 103, 125, 2, 0.453467
321, 1, bw, filler, NA, 999, 999, 4, 17, 126, 166, 135, 147, 103, 125, 3, 1.45867
321, 1, bw, attraction, a-b-da, 5, 3, 4, 18, 120, 195, 190, 117, 195, 120, 2, 1.46142
321, 1, bw, attraction, a-b-da, 5, 3, 4, 18, 120, 195, 190, 117, 195, 120, 1, 0.6096
321, 1, bw, attraction, a-b-db, 5, 3, 4, 19, 117, 190, 120, 195, 195, 120, 2, 0.814822
321, 1, bw, attraction, a-b-db, 5, 3, 4, 19, 117, 190, 120, 195, 195, 120, 1, 0.893169
321, 1, bw, attraction, a-b-db, 14, 3, 4, 20, 195, 120, 120, 195, 111, 181, 2, 0.726693
321, 1, bw, attraction, a-b-db, 14, 3, 4, 20, 195, 120, 120, 195, 111, 181, 3, 0.752531
321, 1, bw, attraction, a-b-da, 14, 1, 4, 21, 60, 135, 135, 60, 125, 56, 2, 0.600202
321, 1, bw, attraction, a-b-da, 14, 1, 4, 21, 60, 135, 135, 60, 125, 56, 1, 0.655322
321, 1, bw, attraction, a-b-da, 2, 2, 4, 22, 90, 165, 163, 89, 165, 90, 2, 0.611099
321, 1, bw, attraction, a-b-da, 2, 2, 4, 22, 90, 165, 163, 89, 165, 90, 1, 0.65753
321, 1, bw, attraction, a-b-da, 9, 2, 4, 23, 90, 165, 165, 90, 157, 86, 2, 0.54857
321, 1, bw, attraction, a-b-da, 9, 2, 4, 23, 90, 165, 165, 90, 157, 86, 1, 1.16574
321, 1, bw, catch, NA, 999, 999, 4, 24, 139, 176, 155, 100, 85, 110, 2, 0.564617
321, 1, bw, catch, NA, 999, 999, 4, 24, 139, 176, 155, 100, 85, 110, 3, 1.66919
321, 1, bw, attraction, a-b-db, 14, 2, 4, 25, 90, 165, 165, 90, 83, 153, 2, 1.81585
321, 1, bw, attraction, a-b-db, 14, 2, 4, 25, 90, 165, 165, 90, 83, 153, 1, 0.789955
321, 1, bw, filler, NA, 999, 999, 4, 26, 149, 186, 60, 147, 184, 96, 1, 1.81158
321, 1, bw, filler, NA, 999, 999, 4, 26, 149, 186, 60, 147, 184, 96, 2, 0.777647
321, 1, bw, attraction, a-b-db, 2, 2, 4, 27, 165, 90, 89, 163, 90, 165, 2, 0.864098
321, 1, bw, attraction, a-b-db, 2, 2, 4, 27, 165, 90, 89, 163, 90, 165, 1, 0.468473
321, 1, bw, attraction, a-b-da, 14, 3, 4, 28, 181, 111, 195, 120, 120, 195, 2, 0.623584
321, 1, bw, attraction, a-b-da, 14, 3, 4, 28, 181, 111, 195, 120, 120, 195, 1, 0.517258
321, 1, bw, attraction, a-b-da, 5, 2, 4, 29, 90, 165, 165, 90, 161, 88, 2, 0.950429
321, 1, bw, attraction, a-b-da, 5, 2, 4, 29, 90, 165, 165, 90, 161, 88, 1, 0.663487
321, 1, bw, attraction, a-b-da, 2, 1, 4, 30, 60, 135, 134, 59, 135, 60, 2, 0.658537
321, 1, bw, attraction, a-b-da, 2, 1, 4, 30, 60, 135, 134, 59, 135, 60, 1, 0.694926
321, 1, bw, filler, NA, 999, 999, 4, 31, 127, 157, 95, 184, 142, 66, 2, 1.16064
321, 1, bw, filler, NA, 999, 999, 4, 31, 127, 157, 95, 184, 142, 66, 3, 0.831185
321, 1, bw, filler, NA, 999, 999, 4, 32, 180, 120, 119, 169, 166, 141, 2, 0.533331
321, 1, bw, filler, NA, 999, 999, 4, 32, 180, 120, 119, 169, 166, 141, 1, 1.27921
321, 1, bw, attraction, a-b-da, 14, 2, 4, 33, 153, 83, 165, 90, 90, 165, 3, 0.809415
321, 1, bw, attraction, a-b-da, 14, 2, 4, 33, 153, 83, 165, 90, 90, 165, 1, 0.959754
321, 1, bw, filler, NA, 999, 999, 4, 34, 136, 174, 109, 132, 71, 154, 1, 1.0227
321, 1, bw, filler, NA, 999, 999, 4, 34, 136, 174, 109, 132, 71, 154, 3, 0.804364
321, 1, bw, attraction, a-b-da, 2, 3, 4, 35, 193, 119, 120, 195, 195, 120, 3, 1.04198
321, 1, bw, attraction, a-b-da, 2, 3, 4, 35, 193, 119, 120, 195, 195, 120, 1, 0.799019
321, 1, bw, catch, NA, 999, 999, 4, 36, 121, 194, 110, 85, 141, 114, 1, 0.732672
321, 1, bw, catch, NA, 999, 999, 4, 36, 121, 194, 110, 85, 141, 114, 2, 0.78245
321, 1, bw, attraction, a-b-da, 9, 1, 4, 37, 129, 57, 135, 60, 60, 135, 3, 2.10887
321, 1, bw, attraction, a-b-da, 9, 1, 4, 37, 129, 57, 135, 60, 60, 135, 1, 1.20672
321, 1, bw, filler, NA, 999, 999, 5, 1, 69, 104, 160, 126, 166, 156, 2, 1.34628
321, 1, bw, filler, NA, 999, 999, 5, 1, 69, 104, 160, 126, 166, 156, 1, 0.659204
321, 1, bw, attraction, a-b-db, 14, 2, 5, 2, 165, 90, 90, 165, 83, 153, 2, 0.622277
321, 1, bw, attraction, a-b-db, 14, 2, 5, 2, 165, 90, 90, 165, 83, 153, 3, 0.476187
321, 1, bw, filler, NA, 999, 999, 5, 3, 68, 175, 114, 172, 58, 69, 2, 0.606474
321, 1, bw, filler, NA, 999, 999, 5, 3, 68, 175, 114, 172, 58, 69, 3, 0.925017
321, 1, bw, attraction, a-b-db, 2, 3, 5, 4, 120, 195, 195, 120, 119, 193, 2, 0.549186
321, 1, bw, attraction, a-b-db, 2, 3, 5, 4, 120, 195, 195, 120, 119, 193, 1, 0.598319
321, 1, bw, filler, NA, 999, 999, 5, 5, 108, 85, 166, 150, 136, 117, 2, 0.460201
321, 1, bw, filler, NA, 999, 999, 5, 5, 108, 85, 166, 150, 136, 117, 1, 0.552563
321, 1, bw, attraction, a-b-da, 9, 3, 5, 6, 186, 114, 195, 120, 120, 195, 2, 0.44041
321, 1, bw, attraction, a-b-da, 9, 3, 5, 6, 186, 114, 195, 120, 120, 195, 3, 0.557586
321, 1, bw, attraction, a-b-db, 5, 3, 5, 7, 195, 120, 117, 190, 120, 195, 2, 0.54064
321, 1, bw, attraction, a-b-db, 5, 3, 5, 7, 195, 120, 117, 190, 120, 195, 1, 0.557786
321, 1, bw, attraction, a-b-da, 2, 1, 5, 8, 134, 59, 135, 60, 60, 135, 3, 1.02094
321, 1, bw, attraction, a-b-da, 2, 1, 5, 8, 134, 59, 135, 60, 60, 135, 1, 0.683183
321, 1, bw, attraction, a-b-db, 14, 3, 5, 9, 195, 120, 120, 195, 111, 181, 2, 0.341608
321, 1, bw, attraction, a-b-db, 14, 3, 5, 9, 195, 120, 120, 195, 111, 181, 1, 0.430788
321, 1, bw, attraction, a-b-db, 2, 1, 5, 10, 60, 135, 135, 60, 59, 134, 2, 0.875297
321, 1, bw, attraction, a-b-db, 2, 1, 5, 10, 60, 135, 135, 60, 59, 134, 1, 0.407151
321, 1, bw, catch, NA, 999, 999, 5, 11, 147, 168, 125, 70, 90, 165, 1, 1.12408
321, 1, bw, catch, NA, 999, 999, 5, 11, 147, 168, 125, 70, 90, 165, 2, 0.54178
321, 1, bw, filler, NA, 999, 999, 5, 12, 64, 161, 83, 194, 151, 102, 2, 0.87757
321, 1, bw, filler, NA, 999, 999, 5, 12, 64, 161, 83, 194, 151, 102, 1, 0.53725
321, 1, bw, catch, NA, 999, 999, 5, 13, 95, 160, 140, 175, 74, 121, 2, 0.521673
321, 1, bw, catch, NA, 999, 999, 5, 13, 95, 160, 140, 175, 74, 121, 3, 0.579506
321, 1, bw, filler, NA, 999, 999, 5, 14, 170, 175, 86, 165, 153, 80, 1, 0.833899
321, 1, bw, filler, NA, 999, 999, 5, 14, 170, 175, 86, 165, 153, 80, 3, 1.26365
321, 1, bw, attraction, a-b-da, 2, 3, 5, 15, 120, 195, 195, 120, 193, 119, 2, 1.05856
321, 1, bw, attraction, a-b-da, 2, 3, 5, 15, 120, 195, 195, 120, 193, 119, 1, 1.03881
321, 1, bw, attraction, a-b-da, 5, 2, 5, 16, 165, 90, 161, 88, 90, 165, 2, 0.723141
321, 1, bw, attraction, a-b-da, 5, 2, 5, 16, 165, 90, 161, 88, 90, 165, 1, 0.492852
321, 1, bw, filler, NA, 999, 999, 5, 17, 183, 155, 74, 90, 114, 94, 1, 1.04668
321, 1, bw, filler, NA, 999, 999, 5, 17, 183, 155, 74, 90, 114, 94, 2, 0.54764
321, 1, bw, attraction, a-b-db, 9, 1, 5, 18, 60, 135, 57, 129, 135, 60, 3, 2.52345
321, 1, bw, attraction, a-b-db, 9, 1, 5, 18, 60, 135, 57, 129, 135, 60, 2, 0.572555
321, 1, bw, attraction, a-b-db, 5, 1, 5, 19, 60, 135, 58, 132, 135, 60, 3, 5.69964
321, 1, bw, attraction, a-b-db, 5, 1, 5, 19, 60, 135, 58, 132, 135, 60, 2, 0.677198
321, 1, bw, attraction, a-b-da, 14, 2, 5, 20, 165, 90, 90, 165, 153, 83, 2, 1.14355
321, 1, bw, attraction, a-b-da, 14, 2, 5, 20, 165, 90, 90, 165, 153, 83, 3, 0.464674
321, 1, bw, attraction, a-b-db, 14, 1, 5, 21, 60, 135, 135, 60, 56, 125, 2, 1.10765
321, 1, bw, attraction, a-b-db, 14, 1, 5, 21, 60, 135, 135, 60, 56, 125, 1, 0.685913
321, 1, bw, filler, NA, 999, 999, 5, 22, 165, 159, 158, 162, 172, 129, 2, 0.84039
321, 1, bw, filler, NA, 999, 999, 5, 22, 165, 159, 158, 162, 172, 129, 1, 0.501381
321, 1, bw, catch, NA, 999, 999, 5, 23, 122, 193, 130, 125, 127, 68, 2, 0.495169
321, 1, bw, catch, NA, 999, 999, 5, 23, 122, 193, 130, 125, 127, 68, 3, 0.666446
321, 1, bw, attraction, a-b-da, 5, 3, 5, 24, 190, 117, 195, 120, 120, 195, 2, 0.469357
321, 1, bw, attraction, a-b-da, 5, 3, 5, 24, 190, 117, 195, 120, 120, 195, 1, 0.529916
321, 1, bw, attraction, a-b-da, 14, 1, 5, 25, 60, 135, 125, 56, 135, 60, 1, 0.938383
321, 1, bw, attraction, a-b-da, 14, 1, 5, 25, 60, 135, 125, 56, 135, 60, 2, 0.371346
321, 1, bw, attraction, a-b-da, 14, 3, 5, 26, 195, 120, 181, 111, 120, 195, 2, 0.858476
321, 1, bw, attraction, a-b-da, 14, 3, 5, 26, 195, 120, 181, 111, 120, 195, 1, 0.758857
321, 1, bw, attraction, a-b-da, 5, 1, 5, 27, 135, 60, 132, 58, 60, 135, 3, 0.981921
321, 1, bw, attraction, a-b-da, 5, 1, 5, 27, 135, 60, 132, 58, 60, 135, 1, 0.629542
321, 1, bw, attraction, a-b-db, 9, 3, 5, 28, 114, 186, 120, 195, 195, 120, 2, 1.73004
321, 1, bw, attraction, a-b-db, 9, 3, 5, 28, 114, 186, 120, 195, 195, 120, 1, 0.563387
321, 1, bw, attraction, a-b-db, 5, 2, 5, 29, 88, 161, 90, 165, 165, 90, 2, 2.05054
321, 1, bw, attraction, a-b-db, 5, 2, 5, 29, 88, 161, 90, 165, 165, 90, 3, 1.77532
321, 1, bw, attraction, a-b-da, 9, 1, 5, 30, 135, 60, 129, 57, 60, 135, 3, 1.1493
321, 1, bw, attraction, a-b-da, 9, 1, 5, 30, 135, 60, 129, 57, 60, 135, 2, 0.702203
321, 1, bw, attraction, a-b-da, 9, 2, 5, 31, 90, 165, 157, 86, 165, 90, 1, 0.83187
321, 1, bw, attraction, a-b-da, 9, 2, 5, 31, 90, 165, 157, 86, 165, 90, 2, 0.60562
321, 1, bw, filler, NA, 999, 999, 5, 32, 120, 89, 192, 100, 152, 138, 3, 0.971458
321, 1, bw, filler, NA, 999, 999, 5, 32, 120, 89, 192, 100, 152, 138, 1, 0.77192
321, 1, bw, filler, NA, 999, 999, 5, 33, 110, 61, 168, 93, 124, 121, 2, 1.36276
321, 1, bw, filler, NA, 999, 999, 5, 33, 110, 61, 168, 93, 124, 121, 1, 0.570997
321, 1, bw, attraction, a-b-da, 2, 2, 5, 34, 90, 165, 163, 89, 165, 90, 2, 1.19404
321, 1, bw, attraction, a-b-da, 2, 2, 5, 34, 90, 165, 163, 89, 165, 90, 1, 0.577082
321, 1, bw, attraction, a-b-db, 9, 2, 5, 35, 86, 157, 165, 90, 90, 165, 2, 0.663434
321, 1, bw, attraction, a-b-db, 9, 2, 5, 35, 86, 157, 165, 90, 90, 165, 1, 0.523872
321, 1, bw, attraction, a-b-db, 2, 2, 5, 36, 90, 165, 89, 163, 165, 90, 2, 0.540327
321, 1, bw, attraction, a-b-db, 2, 2, 5, 36, 90, 165, 89, 163, 165, 90, 1, 0.589374
321, 1, bw, filler, NA, 999, 999, 5, 37, 119, 75, 93, 192, 111, 137, 3, 1.18785
321, 1, bw, filler, NA, 999, 999, 5, 37, 119, 75, 93, 192, 111, 137, 1, 0.979435
321, 1, bw, attraction, a-b-da, 9, 3, 6, 1, 120, 195, 186, 114, 195, 120, 3, 1.48975
321, 1, bw, attraction, a-b-da, 9, 3, 6, 1, 120, 195, 186, 114, 195, 120, 2, 1.5166
321, 1, bw, attraction, a-b-da, 14, 2, 6, 2, 153, 83, 90, 165, 165, 90, 2, 2.33343
321, 1, bw, attraction, a-b-da, 14, 2, 6, 2, 153, 83, 90, 165, 165, 90, 1, 0.790593
321, 1, bw, attraction, a-b-da, 5, 2, 6, 3, 90, 165, 161, 88, 165, 90, 2, 0.540349
321, 1, bw, attraction, a-b-da, 5, 2, 6, 3, 90, 165, 161, 88, 165, 90, 3, 0.901515
321, 1, bw, filler, NA, 999, 999, 6, 4, 153, 105, 76, 121, 96, 123, 1, 0.93514
321, 1, bw, filler, NA, 999, 999, 6, 4, 153, 105, 76, 121, 96, 123, 2, 0.616843
321, 1, bw, attraction, a-b-da, 9, 1, 6, 5, 60, 135, 135, 60, 129, 57, 2, 1.15799
321, 1, bw, attraction, a-b-da, 9, 1, 6, 5, 60, 135, 135, 60, 129, 57, 1, 1.03823
321, 1, bw, attraction, a-b-da, 14, 3, 6, 6, 181, 111, 195, 120, 120, 195, 2, 0.786495
321, 1, bw, attraction, a-b-da, 14, 3, 6, 6, 181, 111, 195, 120, 120, 195, 1, 0.834231
321, 1, bw, attraction, a-b-da, 14, 1, 6, 7, 135, 60, 125, 56, 60, 135, 3, 2.5106
321, 1, bw, attraction, a-b-da, 14, 1, 6, 7, 135, 60, 125, 56, 60, 135, 2, 0.648436
321, 1, bw, filler, NA, 999, 999, 6, 8, 87, 99, 62, 93, 145, 88, 3, 1.87618
321, 1, bw, filler, NA, 999, 999, 6, 8, 87, 99, 62, 93, 145, 88, 2, 0.615541
321, 1, bw, attraction, a-b-da, 2, 3, 6, 9, 120, 195, 193, 119, 195, 120, 1, 0.93263
321, 1, bw, attraction, a-b-da, 2, 3, 6, 9, 120, 195, 193, 119, 195, 120, 2, 0.446441
321, 1, bw, attraction, a-b-db, 5, 1, 6, 10, 58, 132, 135, 60, 60, 135, 3, 0.826232
321, 1, bw, attraction, a-b-db, 5, 1, 6, 10, 58, 132, 135, 60, 60, 135, 2, 1.00784
321, 1, bw, filler, NA, 999, 999, 6, 11, 150, 87, 162, 153, 146, 104, 2, 1.0527
321, 1, bw, filler, NA, 999, 999, 6, 11, 150, 87, 162, 153, 146, 104, 1, 1.2739
321, 1, bw, attraction, a-b-db, 9, 3, 6, 12, 120, 195, 114, 186, 195, 120, 3, 0.939942
321, 1, bw, attraction, a-b-db, 9, 3, 6, 12, 120, 195, 114, 186, 195, 120, 2, 0.820942
321, 1, bw, attraction, a-b-da, 9, 2, 6, 13, 157, 86, 90, 165, 165, 90, 2, 1.17016
321, 1, bw, attraction, a-b-da, 9, 2, 6, 13, 157, 86, 90, 165, 165, 90, 1, 0.650258
321, 1, bw, filler, NA, 999, 999, 6, 14, 167, 178, 64, 63, 112, 68, 1, 0.918049
321, 1, bw, filler, NA, 999, 999, 6, 14, 167, 178, 64, 63, 112, 68, 2, 0.728412
321, 1, bw, attraction, a-b-db, 9, 2, 6, 15, 86, 157, 90, 165, 165, 90, 2, 1.24074
321, 1, bw, attraction, a-b-db, 9, 2, 6, 15, 86, 157, 90, 165, 165, 90, 1, 0.477635
321, 1, bw, attraction, a-b-db, 14, 3, 6, 16, 111, 181, 195, 120, 120, 195, 2, 0.568253
321, 1, bw, attraction, a-b-db, 14, 3, 6, 16, 111, 181, 195, 120, 120, 195, 1, 0.544611
321, 1, bw, attraction, a-b-db, 2, 1, 6, 17, 60, 135, 59, 134, 135, 60, 2, 0.888309
321, 1, bw, attraction, a-b-db, 2, 1, 6, 17, 60, 135, 59, 134, 135, 60, 1, 0.699318
321, 1, bw, filler, NA, 999, 999, 6, 18, 113, 79, 138, 66, 127, 113, 3, 1.10903
321, 1, bw, filler, NA, 999, 999, 6, 18, 113, 79, 138, 66, 127, 113, 1, 0.727405
321, 1, bw, attraction, a-b-da, 2, 1, 6, 19, 134, 59, 60, 135, 135, 60, 3, 3.27179
321, 1, bw, attraction, a-b-da, 2, 1, 6, 19, 134, 59, 60, 135, 135, 60, 2, 0.803408
321, 1, bw, attraction, a-b-da, 2, 2, 6, 20, 90, 165, 163, 89, 165, 90, 2, 4.06516
321, 1, bw, attraction, a-b-da, 2, 2, 6, 20, 90, 165, 163, 89, 165, 90, 1, 0.612462
321, 1, bw, catch, NA, 999, 999, 6, 21, 135, 60, 121, 134, 169, 146, 3, 0.937599
321, 1, bw, catch, NA, 999, 999, 6, 21, 135, 60, 121, 134, 169, 146, 1, 0.722608
321, 1, bw, attraction, a-b-db, 2, 3, 6, 22, 119, 193, 195, 120, 120, 195, 2, 1.4356
321, 1, bw, attraction, a-b-db, 2, 3, 6, 22, 119, 193, 195, 120, 120, 195, 1, 0.649108
321, 1, bw, attraction, a-b-da, 5, 3, 6, 23, 190, 117, 120, 195, 195, 120, 2, 0.508841
321, 1, bw, attraction, a-b-da, 5, 3, 6, 23, 190, 117, 120, 195, 195, 120, 1, 0.57536
321, 1, bw, attraction, a-b-db, 9, 1, 6, 24, 60, 135, 135, 60, 57, 129, 3, 0.917798
321, 1, bw, attraction, a-b-db, 9, 1, 6, 24, 60, 135, 135, 60, 57, 129, 2, 0.432145
321, 1, bw, attraction, a-b-db, 5, 2, 6, 25, 165, 90, 90, 165, 88, 161, 2, 1.02858
321, 1, bw, attraction, a-b-db, 5, 2, 6, 25, 165, 90, 90, 165, 88, 161, 1, 0.490186
321, 1, bw, filler, NA, 999, 999, 6, 26, 102, 164, 176, 87, 154, 78, 2, 0.612011
321, 1, bw, filler, NA, 999, 999, 6, 26, 102, 164, 176, 87, 154, 78, 3, 2.74651
321, 1, bw, attraction, a-b-db, 14, 1, 6, 27, 60, 135, 135, 60, 56, 125, 2, 2.07353
321, 1, bw, attraction, a-b-db, 14, 1, 6, 27, 60, 135, 135, 60, 56, 125, 1, 0.796849
321, 1, bw, catch, NA, 999, 999, 6, 28, 91, 164, 62, 133, 169, 146, 3, 1.89865
321, 1, bw, catch, NA, 999, 999, 6, 28, 91, 164, 62, 133, 169, 146, 2, 0.829333
321, 1, bw, filler, NA, 999, 999, 6, 29, 111, 157, 163, 77, 107, 110, 1, 0.87365
321, 1, bw, filler, NA, 999, 999, 6, 29, 111, 157, 163, 77, 107, 110, 2, 0.885331
321, 1, bw, filler, NA, 999, 999, 6, 30, 83, 62, 116, 68, 138, 189, 3, 0.567649
321, 1, bw, filler, NA, 999, 999, 6, 30, 83, 62, 116, 68, 138, 189, 1, 0.616249
321, 1, bw, filler, NA, 999, 999, 6, 31, 147, 188, 109, 68, 80, 151, 1, 0.605313
321, 1, bw, filler, NA, 999, 999, 6, 31, 147, 188, 109, 68, 80, 151, 2, 0.579724
321, 1, bw, attraction, a-b-da, 5, 1, 6, 32, 60, 135, 132, 58, 135, 60, 2, 0.914109
321, 1, bw, attraction, a-b-da, 5, 1, 6, 32, 60, 135, 132, 58, 135, 60, 1, 0.812426
321, 1, bw, catch, NA, 999, 999, 6, 33, 137, 118, 166, 149, 111, 84, 2, 0.45756
321, 1, bw, catch, NA, 999, 999, 6, 33, 137, 118, 166, 149, 111, 84, 3, 0.869962
321, 1, bw, filler, NA, 999, 999, 6, 34, 90, 155, 169, 77, 109, 65, 2, 2.20896
321, 1, bw, filler, NA, 999, 999, 6, 34, 90, 155, 169, 77, 109, 65, 3, 0.686872
321, 1, bw, attraction, a-b-db, 14, 2, 6, 35, 165, 90, 83, 153, 90, 165, 2, 0.817366
321, 1, bw, attraction, a-b-db, 14, 2, 6, 35, 165, 90, 83, 153, 90, 165, 1, 0.583697
321, 1, bw, attraction, a-b-db, 5, 3, 6, 36, 117, 190, 195, 120, 120, 195, 2, 0.742182
321, 1, bw, attraction, a-b-db, 5, 3, 6, 36, 117, 190, 195, 120, 120, 195, 1, 0.823196
321, 1, bw, attraction, a-b-db, 2, 2, 6, 37, 90, 165, 89, 163, 165, 90, 2, 2.43626
321, 1, bw, attraction, a-b-db, 2, 2, 6, 37, 90, 165, 89, 163, 165, 90, 1, 0.625501
321, 1, bw, attraction, a-b-db, 14, 3, 7, 1, 120, 195, 111, 181, 195, 120, 2, 0.517812
321, 1, bw, attraction, a-b-db, 14, 3, 7, 1, 120, 195, 111, 181, 195, 120, 1, 1.8243
321, 1, bw, catch, NA, 999, 999, 7, 2, 154, 161, 156, 99, 65, 130, 1, 1.3244
321, 1, bw, catch, NA, 999, 999, 7, 2, 154, 161, 156, 99, 65, 130, 3, 0.909904
321, 1, bw, catch, NA, 999, 999, 7, 3, 119, 136, 188, 127, 127, 68, 2, 0.702928
321, 1, bw, catch, NA, 999, 999, 7, 3, 119, 136, 188, 127, 127, 68, 3, 0.530004
321, 1, bw, attraction, a-b-db, 9, 3, 7, 4, 114, 186, 120, 195, 195, 120, 3, 1.20244
321, 1, bw, attraction, a-b-db, 9, 3, 7, 4, 114, 186, 120, 195, 195, 120, 2, 0.569348
321, 1, bw, attraction, a-b-da, 14, 1, 7, 5, 135, 60, 125, 56, 60, 135, 1, 1.64846
321, 1, bw, attraction, a-b-da, 14, 1, 7, 5, 135, 60, 125, 56, 60, 135, 3, 1.34129
321, 1, bw, attraction, a-b-db, 5, 3, 7, 6, 120, 195, 195, 120, 117, 190, 2, 2.96474
321, 1, bw, attraction, a-b-db, 5, 3, 7, 6, 120, 195, 195, 120, 117, 190, 1, 1.09253
321, 1, bw, filler, NA, 999, 999, 7, 7, 118, 79, 73, 91, 174, 109, 3, 1.50209
321, 1, bw, filler, NA, 999, 999, 7, 7, 118, 79, 73, 91, 174, 109, 2, 0.649062
321, 1, bw, attraction, a-b-da, 14, 2, 7, 8, 153, 83, 165, 90, 90, 165, 3, 1.0287
321, 1, bw, attraction, a-b-da, 14, 2, 7, 8, 153, 83, 165, 90, 90, 165, 1, 0.69032
321, 1, bw, filler, NA, 999, 999, 7, 9, 73, 149, 139, 138, 178, 192, 3, 0.580072
321, 1, bw, filler, NA, 999, 999, 7, 9, 73, 149, 139, 138, 178, 192, 1, 0.667877
321, 1, bw, attraction, a-b-da, 2, 3, 7, 10, 195, 120, 120, 195, 193, 119, 1, 1.15101
321, 1, bw, attraction, a-b-da, 2, 3, 7, 10, 195, 120, 120, 195, 193, 119, 2, 0.687929
321, 1, bw, attraction, a-b-db, 2, 1, 7, 11, 59, 134, 60, 135, 135, 60, 3, 2.44232
321, 1, bw, attraction, a-b-db, 2, 1, 7, 11, 59, 134, 60, 135, 135, 60, 1, 1.38283
321, 1, bw, filler, NA, 999, 999, 7, 12, 82, 188, 135, 180, 182, 78, 2, 1.18104
321, 1, bw, filler, NA, 999, 999, 7, 12, 82, 188, 135, 180, 182, 78, 3, 1.10065
321, 1, bw, attraction, a-b-da, 2, 1, 7, 13, 135, 60, 134, 59, 60, 135, 3, 0.878218
321, 1, bw, attraction, a-b-da, 2, 1, 7, 13, 135, 60, 134, 59, 60, 135, 2, 0.553884
321, 1, bw, attraction, a-b-da, 9, 2, 7, 14, 165, 90, 90, 165, 157, 86, 2, 0.841617
321, 1, bw, attraction, a-b-da, 9, 2, 7, 14, 165, 90, 90, 165, 157, 86, 1, 0.526775
321, 1, bw, filler, NA, 999, 999, 7, 15, 56, 61, 137, 107, 97, 160, 3, 2.13518
321, 1, bw, filler, NA, 999, 999, 7, 15, 56, 61, 137, 107, 97, 160, 1, 0.752493
321, 1, bw, attraction, a-b-db, 2, 2, 7, 16, 90, 165, 89, 163, 165, 90, 3, 2.59227
321, 1, bw, attraction, a-b-db, 2, 2, 7, 16, 90, 165, 89, 163, 165, 90, 2, 0.734563
321, 1, bw, attraction, a-b-db, 5, 2, 7, 17, 90, 165, 88, 161, 165, 90, 2, 0.93503
321, 1, bw, attraction, a-b-db, 5, 2, 7, 17, 90, 165, 88, 161, 165, 90, 3, 0.608785
321, 1, bw, attraction, a-b-da, 5, 3, 7, 18, 120, 195, 195, 120, 190, 117, 2, 0.973815
321, 1, bw, attraction, a-b-da, 5, 3, 7, 18, 120, 195, 195, 120, 190, 117, 1, 0.477421
321, 1, bw, filler, NA, 999, 999, 7, 19, 146, 132, 166, 177, 100, 109, 2, 0.864018
321, 1, bw, filler, NA, 999, 999, 7, 19, 146, 132, 166, 177, 100, 109, 3, 0.516231
321, 1, bw, attraction, a-b-db, 9, 2, 7, 20, 165, 90, 90, 165, 86, 157, 2, 0.669454
321, 1, bw, attraction, a-b-db, 9, 2, 7, 20, 165, 90, 90, 165, 86, 157, 1, 0.633862
321, 1, bw, attraction, a-b-db, 14, 1, 7, 21, 60, 135, 56, 125, 135, 60, 3, 0.926264
321, 1, bw, attraction, a-b-db, 14, 1, 7, 21, 60, 135, 56, 125, 135, 60, 2, 0.535993
321, 1, bw, attraction, a-b-db, 14, 2, 7, 22, 83, 153, 90, 165, 165, 90, 2, 0.872337
321, 1, bw, attraction, a-b-db, 14, 2, 7, 22, 83, 153, 90, 165, 165, 90, 1, 0.652154
321, 1, bw, attraction, a-b-da, 2, 2, 7, 23, 90, 165, 165, 90, 163, 89, 2, 0.81582
321, 1, bw, attraction, a-b-da, 2, 2, 7, 23, 90, 165, 165, 90, 163, 89, 1, 0.694265
321, 1, bw, filler, NA, 999, 999, 7, 24, 185, 94, 171, 194, 100, 118, 2, 1.39986
321, 1, bw, filler, NA, 999, 999, 7, 24, 185, 94, 171, 194, 100, 118, 3, 1.03889
321, 1, bw, attraction, a-b-da, 5, 1, 7, 25, 135, 60, 132, 58, 60, 135, 3, 1.51508
321, 1, bw, attraction, a-b-da, 5, 1, 7, 25, 135, 60, 132, 58, 60, 135, 2, 0.581216
321, 1, bw, attraction, a-b-da, 5, 2, 7, 26, 90, 165, 165, 90, 161, 88, 2, 0.683662
321, 1, bw, attraction, a-b-da, 5, 2, 7, 26, 90, 165, 165, 90, 161, 88, 1, 0.679462
321, 1, bw, filler, NA, 999, 999, 7, 27, 174, 88, 112, 181, 84, 134, 2, 0.874174
321, 1, bw, filler, NA, 999, 999, 7, 27, 174, 88, 112, 181, 84, 134, 3, 0.893546
321, 1, bw, attraction, a-b-db, 9, 1, 7, 28, 57, 129, 135, 60, 60, 135, 3, 2.17525
321, 1, bw, attraction, a-b-db, 9, 1, 7, 28, 57, 129, 135, 60, 60, 135, 2, 0.790466
321, 1, bw, filler, NA, 999, 999, 7, 29, 168, 170, 144, 146, 136, 125, 1, 1.33215
321, 1, bw, filler, NA, 999, 999, 7, 29, 168, 170, 144, 146, 136, 125, 3, 0.869701
321, 1, bw, filler, NA, 999, 999, 7, 30, 58, 180, 143, 165, 104, 182, 2, 1.32868
321, 1, bw, filler, NA, 999, 999, 7, 30, 58, 180, 143, 165, 104, 182, 1, 0.658249
321, 1, bw, filler, NA, 999, 999, 7, 31, 110, 98, 135, 183, 192, 190, 3, 1.04542
321, 1, bw, filler, NA, 999, 999, 7, 31, 110, 98, 135, 183, 192, 190, 1, 0.930305
321, 1, bw, attraction, a-b-da, 9, 3, 7, 32, 186, 114, 120, 195, 195, 120, 2, 1.13056
321, 1, bw, attraction, a-b-da, 9, 3, 7, 32, 186, 114, 120, 195, 195, 120, 1, 0.780242
321, 1, bw, attraction, a-b-db, 5, 1, 7, 33, 60, 135, 135, 60, 58, 132, 3, 2.73065
321, 1, bw, attraction, a-b-db, 5, 1, 7, 33, 60, 135, 135, 60, 58, 132, 2, 0.507749
321, 1, bw, catch, NA, 999, 999, 7, 34, 113, 82, 156, 99, 167, 148, 3, 0.813013
321, 1, bw, catch, NA, 999, 999, 7, 34, 113, 82, 156, 99, 167, 148, 1, 0.763293
321, 1, bw, attraction, a-b-db, 2, 3, 7, 35, 119, 193, 195, 120, 120, 195, 2, 0.570233
321, 1, bw, attraction, a-b-db, 2, 3, 7, 35, 119, 193, 195, 120, 120, 195, 1, 0.570905
321, 1, bw, attraction, a-b-da, 9, 1, 7, 36, 135, 60, 129, 57, 60, 135, 2, 1.53786
321, 1, bw, attraction, a-b-da, 9, 1, 7, 36, 135, 60, 129, 57, 60, 135, 1, 0.707347
321, 1, bw, attraction, a-b-da, 14, 3, 7, 37, 120, 195, 181, 111, 195, 120, 3, 0.764461
321, 1, bw, attraction, a-b-da, 14, 3, 7, 37, 120, 195, 181, 111, 195, 120, 1, 0.716825
321, 1, bw, attraction, a-b-da, 14, 1, 8, 1, 125, 56, 60, 135, 135, 60, 2, 0.789863
321, 1, bw, attraction, a-b-da, 14, 1, 8, 1, 125, 56, 60, 135, 135, 60, 1, 0.916913
321, 1, bw, filler, NA, 999, 999, 8, 2, 62, 112, 116, 116, 187, 182, 3, 0.957961
321, 1, bw, filler, NA, 999, 999, 8, 2, 62, 112, 116, 116, 187, 182, 1, 0.758221
321, 1, bw, catch, NA, 999, 999, 8, 3, 123, 132, 192, 123, 63, 132, 2, 0.741348
321, 1, bw, catch, NA, 999, 999, 8, 3, 123, 132, 192, 123, 63, 132, 3, 0.646344
321, 1, bw, filler, NA, 999, 999, 8, 4, 91, 159, 151, 125, 86, 115, 2, 0.482072
321, 1, bw, filler, NA, 999, 999, 8, 4, 91, 159, 151, 125, 86, 115, 3, 0.669935
321, 1, bw, attraction, a-b-db, 5, 2, 8, 5, 165, 90, 90, 165, 88, 161, 2, 0.576965
321, 1, bw, attraction, a-b-db, 5, 2, 8, 5, 165, 90, 90, 165, 88, 161, 1, 0.544734
321, 1, bw, attraction, a-b-da, 14, 2, 8, 6, 153, 83, 165, 90, 90, 165, 2, 0.672517
321, 1, bw, attraction, a-b-da, 14, 2, 8, 6, 153, 83, 165, 90, 90, 165, 3, 0.548288
321, 1, bw, attraction, a-b-da, 2, 1, 8, 7, 134, 59, 135, 60, 60, 135, 3, 2.17216
321, 1, bw, attraction, a-b-da, 2, 1, 8, 7, 134, 59, 135, 60, 60, 135, 2, 0.691396
321, 1, bw, filler, NA, 999, 999, 8, 8, 66, 87, 175, 113, 67, 84, 2, 0.765095
321, 1, bw, filler, NA, 999, 999, 8, 8, 66, 87, 175, 113, 67, 84, 1, 0.709505
321, 1, bw, attraction, a-b-da, 5, 1, 8, 9, 135, 60, 132, 58, 60, 135, 2, 0.654576
321, 1, bw, attraction, a-b-da, 5, 1, 8, 9, 135, 60, 132, 58, 60, 135, 1, 0.59506
321, 1, bw, attraction, a-b-db, 5, 1, 8, 10, 60, 135, 58, 132, 135, 60, 2, 0.496732
321, 1, bw, attraction, a-b-db, 5, 1, 8, 10, 60, 135, 58, 132, 135, 60, 1, 0.563827
321, 1, bw, attraction, a-b-da, 5, 3, 8, 11, 190, 117, 195, 120, 120, 195, 2, 0.578933
321, 1, bw, attraction, a-b-da, 5, 3, 8, 11, 190, 117, 195, 120, 120, 195, 1, 0.634805
321, 1, bw, attraction, a-b-db, 2, 1, 8, 12, 60, 135, 59, 134, 135, 60, 2, 8.74322
321, 1, bw, attraction, a-b-db, 2, 1, 8, 12, 60, 135, 59, 134, 135, 60, 1, 0.493829
321, 1, bw, filler, NA, 999, 999, 8, 13, 125, 103, 193, 118, 165, 192, 3, 1.50361
321, 1, bw, filler, NA, 999, 999, 8, 13, 125, 103, 193, 118, 165, 192, 1, 0.682402
321, 1, bw, attraction, a-b-da, 5, 2, 8, 14, 161, 88, 90, 165, 165, 90, 2, 0.780724
321, 1, bw, attraction, a-b-da, 5, 2, 8, 14, 161, 88, 90, 165, 165, 90, 1, 0.444462
321, 1, bw, filler, NA, 999, 999, 8, 15, 143, 160, 118, 159, 125, 111, 2, 0.480485
321, 1, bw, filler, NA, 999, 999, 8, 15, 143, 160, 118, 159, 125, 111, 3, 0.740125
321, 1, bw, attraction, a-b-da, 9, 2, 8, 16, 165, 90, 157, 86, 90, 165, 2, 0.515779
321, 1, bw, attraction, a-b-da, 9, 2, 8, 16, 165, 90, 157, 86, 90, 165, 1, 0.430248
321, 1, bw, attraction, a-b-db, 2, 3, 8, 17, 119, 193, 120, 195, 195, 120, 2, 0.466766
321, 1, bw, attraction, a-b-db, 2, 3, 8, 17, 119, 193, 120, 195, 195, 120, 1, 0.871263
321, 1, bw, attraction, a-b-db, 14, 1, 8, 18, 56, 125, 135, 60, 60, 135, 2, 0.690312
321, 1, bw, attraction, a-b-db, 14, 1, 8, 18, 56, 125, 135, 60, 60, 135, 1, 0.773354
321, 1, bw, filler, NA, 999, 999, 8, 19, 99, 154, 90, 57, 80, 153, 1, 0.947817
321, 1, bw, filler, NA, 999, 999, 8, 19, 99, 154, 90, 57, 80, 153, 2, 0.444863
321, 1, bw, filler, NA, 999, 999, 8, 20, 140, 62, 92, 64, 143, 174, 3, 0.520605
321, 1, bw, filler, NA, 999, 999, 8, 20, 140, 62, 92, 64, 143, 174, 2, 0.531115
321, 1, bw, attraction, a-b-da, 9, 3, 8, 21, 186, 114, 195, 120, 120, 195, 2, 0.79552
321, 1, bw, attraction, a-b-da, 9, 3, 8, 21, 186, 114, 195, 120, 120, 195, 1, 0.394554
321, 1, bw, attraction, a-b-db, 5, 3, 8, 22, 195, 120, 117, 190, 120, 195, 3, 5.32833
321, 1, bw, attraction, a-b-db, 5, 3, 8, 22, 195, 120, 117, 190, 120, 195, 2, 0.536614
321, 1, bw, attraction, a-b-da, 9, 1, 8, 23, 60, 135, 135, 60, 129, 57, 3, 2.10513
321, 1, bw, attraction, a-b-da, 9, 1, 8, 23, 60, 135, 135, 60, 129, 57, 2, 1.0911
321, 1, bw, filler, NA, 999, 999, 8, 24, 157, 177, 149, 159, 194, 93, 2, 0.788627
321, 1, bw, filler, NA, 999, 999, 8, 24, 157, 177, 149, 159, 194, 93, 1, 0.49169
321, 1, bw, filler, NA, 999, 999, 8, 25, 116, 160, 186, 169, 86, 176, 2, 1.07747
321, 1, bw, filler, NA, 999, 999, 8, 25, 116, 160, 186, 169, 86, 176, 3, 0.481134
321, 1, bw, attraction, a-b-da, 2, 2, 8, 26, 90, 165, 163, 89, 165, 90, 2, 0.795625
321, 1, bw, attraction, a-b-da, 2, 2, 8, 26, 90, 165, 163, 89, 165, 90, 1, 1.35491
321, 1, bw, attraction, a-b-db, 2, 2, 8, 27, 165, 90, 89, 163, 90, 165, 2, 0.922268
321, 1, bw, attraction, a-b-db, 2, 2, 8, 27, 165, 90, 89, 163, 90, 165, 1, 0.635875
321, 1, bw, attraction, a-b-da, 14, 3, 8, 28, 120, 195, 181, 111, 195, 120, 1, 1.10429
321, 1, bw, attraction, a-b-da, 14, 3, 8, 28, 120, 195, 181, 111, 195, 120, 3, 0.659328
321, 1, bw, filler, NA, 999, 999, 8, 29, 124, 144, 171, 95, 177, 76, 2, 0.510248
321, 1, bw, filler, NA, 999, 999, 8, 29, 124, 144, 171, 95, 177, 76, 3, 0.6008
321, 1, bw, catch, NA, 999, 999, 8, 30, 103, 92, 121, 194, 103, 152, 2, 0.582612
321, 1, bw, catch, NA, 999, 999, 8, 30, 103, 92, 121, 194, 103, 152, 1, 0.654402
321, 1, bw, attraction, a-b-db, 9, 1, 8, 31, 135, 60, 57, 129, 60, 135, 2, 0.594103
321, 1, bw, attraction, a-b-db, 9, 1, 8, 31, 135, 60, 57, 129, 60, 135, 1, 0.513213
321, 1, bw, attraction, a-b-da, 2, 3, 8, 32, 120, 195, 195, 120, 193, 119, 2, 0.538362
321, 1, bw, attraction, a-b-da, 2, 3, 8, 32, 120, 195, 195, 120, 193, 119, 1, 0.571469
321, 1, bw, attraction, a-b-db, 14, 2, 8, 33, 83, 153, 90, 165, 165, 90, 2, 0.530639
321, 1, bw, attraction, a-b-db, 14, 2, 8, 33, 83, 153, 90, 165, 165, 90, 1, 0.708354
321, 1, bw, attraction, a-b-db, 14, 3, 8, 34, 111, 181, 120, 195, 195, 120, 2, 0.421347
321, 1, bw, attraction, a-b-db, 14, 3, 8, 34, 111, 181, 120, 195, 195, 120, 1, 1.49192
321, 1, bw, attraction, a-b-db, 9, 2, 8, 35, 86, 157, 90, 165, 165, 90, 2, 3.39746
321, 1, bw, attraction, a-b-db, 9, 2, 8, 35, 86, 157, 90, 165, 165, 90, 3, 0.739706
321, 1, bw, attraction, a-b-db, 9, 3, 8, 36, 120, 195, 114, 186, 195, 120, 2, 0.532115
321, 1, bw, attraction, a-b-db, 9, 3, 8, 36, 120, 195, 114, 186, 195, 120, 1, 0.701845
321, 1, bw, catch, NA, 999, 999, 8, 37, 179, 136, 111, 144, 124, 71, 1, 1.31156
321, 1, bw, catch, NA, 999, 999, 8, 37, 179, 136, 111, 144, 124, 71, 3, 0.809881
