sub_n, computer_n, bw_cond, effect, set, distance, diag, block_n, trial_n, h1, w1, h2, w2, h3, w3, choice, rt 
313, 1, bw, practice, NA, 999, 999, 0, 1, 144, 93, 59, 151, 90, 151, 1, 6.65929
313, 1, bw, practice, NA, 999, 999, 0, 1, 144, 93, 59, 151, 90, 151, 2, 9.18913
313, 1, bw, practice, NA, 999, 999, 0, 2, 81, 56, 190, 171, 176, 124, 2, 2.10168
313, 1, bw, practice, NA, 999, 999, 0, 2, 81, 56, 190, 171, 176, 124, 1, 2.49443
313, 1, bw, practice, NA, 999, 999, 0, 3, 68, 113, 69, 166, 111, 128, 3, 4.83865
313, 1, bw, practice, NA, 999, 999, 0, 3, 68, 113, 69, 166, 111, 128, 1, 2.2256
313, 1, bw, attraction, a-b-da, 2, 1, 1, 1, 134, 59, 135, 60, 60, 135, 3, 4.46749
313, 1, bw, attraction, a-b-da, 2, 1, 1, 1, 134, 59, 135, 60, 60, 135, 1, 3.9587
313, 1, bw, attraction, a-b-da, 2, 2, 1, 2, 163, 89, 90, 165, 165, 90, 2, 3.79665
313, 1, bw, attraction, a-b-da, 2, 2, 1, 2, 163, 89, 90, 165, 165, 90, 3, 3.05885
313, 1, bw, attraction, a-b-da, 9, 2, 1, 3, 165, 90, 157, 86, 90, 165, 3, 1.97312
313, 1, bw, attraction, a-b-da, 9, 2, 1, 3, 165, 90, 157, 86, 90, 165, 2, 0.98051
313, 1, bw, attraction, a-b-db, 14, 2, 1, 4, 90, 165, 83, 153, 165, 90, 1, 7.36281
313, 1, bw, attraction, a-b-db, 14, 2, 1, 4, 90, 165, 83, 153, 165, 90, 2, 1.84121
313, 1, bw, attraction, a-b-db, 5, 3, 1, 5, 195, 120, 120, 195, 117, 190, 2, 1.41248
313, 1, bw, attraction, a-b-db, 5, 3, 1, 5, 195, 120, 120, 195, 117, 190, 3, 1.23481
313, 1, bw, attraction, a-b-da, 5, 3, 1, 6, 195, 120, 190, 117, 120, 195, 3, 5.63096
313, 1, bw, attraction, a-b-da, 5, 3, 1, 6, 195, 120, 190, 117, 120, 195, 2, 1.83506
313, 1, bw, filler, NA, 999, 999, 1, 7, 112, 112, 148, 98, 151, 92, 2, 2.99112
313, 1, bw, filler, NA, 999, 999, 1, 7, 112, 112, 148, 98, 151, 92, 3, 3.57356
313, 1, bw, attraction, a-b-db, 5, 1, 1, 8, 135, 60, 58, 132, 60, 135, 3, 3.37972
313, 1, bw, attraction, a-b-db, 5, 1, 1, 8, 135, 60, 58, 132, 60, 135, 1, 1.25072
313, 1, bw, filler, NA, 999, 999, 1, 9, 146, 158, 137, 168, 96, 83, 2, 2.04619
313, 1, bw, filler, NA, 999, 999, 1, 9, 146, 158, 137, 168, 96, 83, 3, 1.2189
313, 1, bw, attraction, a-b-da, 2, 3, 1, 10, 120, 195, 195, 120, 193, 119, 1, 2.39976
313, 1, bw, attraction, a-b-da, 2, 3, 1, 10, 120, 195, 195, 120, 193, 119, 3, 1.2783
313, 1, bw, attraction, a-b-da, 14, 2, 1, 11, 153, 83, 165, 90, 90, 165, 3, 3.27249
313, 1, bw, attraction, a-b-da, 14, 2, 1, 11, 153, 83, 165, 90, 90, 165, 1, 0.595368
313, 1, bw, catch, NA, 999, 999, 1, 12, 102, 153, 147, 168, 133, 62, 2, 1.04921
313, 1, bw, catch, NA, 999, 999, 1, 12, 102, 153, 147, 168, 133, 62, 3, 1.03827
313, 1, bw, attraction, a-b-db, 9, 2, 1, 13, 90, 165, 86, 157, 165, 90, 1, 1.89059
313, 1, bw, attraction, a-b-db, 9, 2, 1, 13, 90, 165, 86, 157, 165, 90, 3, 0.861321
313, 1, bw, attraction, a-b-da, 9, 1, 1, 14, 60, 135, 135, 60, 129, 57, 1, 5.03212
313, 1, bw, attraction, a-b-da, 9, 1, 1, 14, 60, 135, 135, 60, 129, 57, 2, 0.484702
313, 1, bw, attraction, a-b-db, 2, 2, 1, 15, 90, 165, 165, 90, 89, 163, 1, 1.67898
313, 1, bw, attraction, a-b-db, 2, 2, 1, 15, 90, 165, 165, 90, 89, 163, 2, 2.54651
313, 1, bw, attraction, a-b-db, 5, 2, 1, 16, 90, 165, 165, 90, 88, 161, 1, 1.16961
313, 1, bw, attraction, a-b-db, 5, 2, 1, 16, 90, 165, 165, 90, 88, 161, 2, 0.753921
313, 1, bw, attraction, a-b-da, 5, 1, 1, 17, 132, 58, 60, 135, 135, 60, 3, 2.56162
313, 1, bw, attraction, a-b-da, 5, 1, 1, 17, 132, 58, 60, 135, 135, 60, 2, 0.817508
313, 1, bw, attraction, a-b-da, 5, 2, 1, 18, 165, 90, 90, 165, 161, 88, 2, 1.87057
313, 1, bw, attraction, a-b-da, 5, 2, 1, 18, 165, 90, 90, 165, 161, 88, 1, 0.626485
313, 1, bw, filler, NA, 999, 999, 1, 19, 88, 188, 151, 129, 59, 156, 2, 1.23893
313, 1, bw, filler, NA, 999, 999, 1, 19, 88, 188, 151, 129, 59, 156, 3, 1.57198
313, 1, bw, attraction, a-b-da, 14, 1, 1, 20, 135, 60, 125, 56, 60, 135, 3, 1.57861
313, 1, bw, attraction, a-b-da, 14, 1, 1, 20, 135, 60, 125, 56, 60, 135, 2, 0.618206
313, 1, bw, attraction, a-b-db, 9, 3, 1, 21, 195, 120, 114, 186, 120, 195, 1, 1.10317
313, 1, bw, attraction, a-b-db, 9, 3, 1, 21, 195, 120, 114, 186, 120, 195, 2, 2.38628
313, 1, bw, attraction, a-b-db, 2, 1, 1, 22, 135, 60, 59, 134, 60, 135, 3, 2.11201
313, 1, bw, attraction, a-b-db, 2, 1, 1, 22, 135, 60, 59, 134, 60, 135, 2, 0.665997
313, 1, bw, catch, NA, 999, 999, 1, 23, 178, 137, 91, 104, 104, 151, 1, 2.2291
313, 1, bw, catch, NA, 999, 999, 1, 23, 178, 137, 91, 104, 104, 151, 2, 0.770342
313, 1, bw, filler, NA, 999, 999, 1, 24, 170, 60, 92, 75, 187, 119, 3, 1.12135
313, 1, bw, filler, NA, 999, 999, 1, 24, 170, 60, 92, 75, 187, 119, 2, 0.674979
313, 1, bw, filler, NA, 999, 999, 1, 25, 78, 62, 192, 61, 151, 155, 3, 0.773369
313, 1, bw, filler, NA, 999, 999, 1, 25, 78, 62, 192, 61, 151, 155, 1, 0.965142
313, 1, bw, filler, NA, 999, 999, 1, 26, 139, 86, 61, 123, 73, 124, 1, 0.932116
313, 1, bw, filler, NA, 999, 999, 1, 26, 139, 86, 61, 123, 73, 124, 2, 3.40574
313, 1, bw, filler, NA, 999, 999, 1, 27, 177, 174, 132, 117, 109, 168, 1, 1.01874
313, 1, bw, filler, NA, 999, 999, 1, 27, 177, 174, 132, 117, 109, 168, 2, 0.608997
313, 1, bw, filler, NA, 999, 999, 1, 28, 88, 127, 149, 104, 172, 171, 3, 0.758032
313, 1, bw, filler, NA, 999, 999, 1, 28, 88, 127, 149, 104, 172, 171, 1, 0.726452
313, 1, bw, attraction, a-b-db, 14, 3, 1, 29, 120, 195, 111, 181, 195, 120, 1, 1.85485
313, 1, bw, attraction, a-b-db, 14, 3, 1, 29, 120, 195, 111, 181, 195, 120, 3, 1.11498
313, 1, bw, attraction, a-b-db, 14, 1, 1, 30, 135, 60, 56, 125, 60, 135, 3, 4.34789
313, 1, bw, attraction, a-b-db, 14, 1, 1, 30, 135, 60, 56, 125, 60, 135, 1, 1.48381
313, 1, bw, attraction, a-b-da, 9, 3, 1, 31, 120, 195, 186, 114, 195, 120, 3, 6.34991
313, 1, bw, attraction, a-b-da, 9, 3, 1, 31, 120, 195, 186, 114, 195, 120, 1, 1.25321
313, 1, bw, filler, NA, 999, 999, 1, 32, 189, 64, 146, 128, 132, 56, 2, 0.872963
313, 1, bw, filler, NA, 999, 999, 1, 32, 189, 64, 146, 128, 132, 56, 3, 0.972483
313, 1, bw, catch, NA, 999, 999, 1, 33, 169, 146, 87, 108, 149, 106, 1, 1.06755
313, 1, bw, catch, NA, 999, 999, 1, 33, 169, 146, 87, 108, 149, 106, 2, 0.447936
313, 1, bw, attraction, a-b-da, 14, 3, 1, 34, 120, 195, 195, 120, 181, 111, 2, 1.00355
313, 1, bw, attraction, a-b-da, 14, 3, 1, 34, 120, 195, 195, 120, 181, 111, 1, 0.538599
313, 1, bw, filler, NA, 999, 999, 1, 35, 187, 154, 86, 58, 160, 138, 1, 1.11503
313, 1, bw, filler, NA, 999, 999, 1, 35, 187, 154, 86, 58, 160, 138, 2, 0.493343
313, 1, bw, attraction, a-b-db, 9, 1, 1, 36, 60, 135, 57, 129, 135, 60, 3, 0.95917
313, 1, bw, attraction, a-b-db, 9, 1, 1, 36, 60, 135, 57, 129, 135, 60, 2, 0.447371
313, 1, bw, attraction, a-b-db, 2, 3, 1, 37, 195, 120, 120, 195, 119, 193, 1, 1.12326
313, 1, bw, attraction, a-b-db, 2, 3, 1, 37, 195, 120, 120, 195, 119, 193, 2, 0.380842
313, 1, bw, attraction, a-b-da, 2, 1, 2, 1, 134, 59, 135, 60, 60, 135, 1, 1.1154
313, 1, bw, attraction, a-b-da, 2, 1, 2, 1, 134, 59, 135, 60, 60, 135, 2, 1.2218
313, 1, bw, filler, NA, 999, 999, 2, 2, 136, 65, 165, 161, 157, 136, 2, 1.00259
313, 1, bw, filler, NA, 999, 999, 2, 2, 136, 65, 165, 161, 157, 136, 1, 0.521503
313, 1, bw, attraction, a-b-da, 9, 1, 2, 3, 60, 135, 129, 57, 135, 60, 1, 0.874662
313, 1, bw, attraction, a-b-da, 9, 1, 2, 3, 60, 135, 129, 57, 135, 60, 2, 1.31852
313, 1, bw, attraction, a-b-db, 5, 1, 2, 4, 58, 132, 60, 135, 135, 60, 2, 1.43116
313, 1, bw, attraction, a-b-db, 5, 1, 2, 4, 58, 132, 60, 135, 135, 60, 1, 0.756669
313, 1, bw, attraction, a-b-da, 2, 2, 2, 5, 165, 90, 90, 165, 163, 89, 3, 2.55638
313, 1, bw, attraction, a-b-da, 2, 2, 2, 5, 165, 90, 90, 165, 163, 89, 2, 0.556218
313, 1, bw, attraction, a-b-da, 5, 2, 2, 6, 165, 90, 90, 165, 161, 88, 1, 1.10012
313, 1, bw, attraction, a-b-da, 5, 2, 2, 6, 165, 90, 90, 165, 161, 88, 2, 0.975111
313, 1, bw, attraction, a-b-db, 5, 2, 2, 7, 88, 161, 165, 90, 90, 165, 3, 0.733289
313, 1, bw, attraction, a-b-db, 5, 2, 2, 7, 88, 161, 165, 90, 90, 165, 2, 2.43108
313, 1, bw, attraction, a-b-db, 5, 3, 2, 8, 195, 120, 117, 190, 120, 195, 2, 3.17108
313, 1, bw, attraction, a-b-db, 5, 3, 2, 8, 195, 120, 117, 190, 120, 195, 1, 0.682544
313, 1, bw, catch, NA, 999, 999, 2, 9, 91, 164, 131, 184, 69, 126, 2, 1.63694
313, 1, bw, catch, NA, 999, 999, 2, 9, 91, 164, 131, 184, 69, 126, 3, 0.778451
313, 1, bw, attraction, a-b-da, 5, 3, 2, 10, 195, 120, 190, 117, 120, 195, 1, 0.808809
313, 1, bw, attraction, a-b-da, 5, 3, 2, 10, 195, 120, 190, 117, 120, 195, 2, 0.57514
313, 1, bw, filler, NA, 999, 999, 2, 11, 107, 183, 82, 160, 136, 180, 3, 1.44559
313, 1, bw, filler, NA, 999, 999, 2, 11, 107, 183, 82, 160, 136, 180, 2, 0.722528
313, 1, bw, attraction, a-b-da, 2, 3, 2, 12, 195, 120, 193, 119, 120, 195, 1, 1.91551
313, 1, bw, attraction, a-b-da, 2, 3, 2, 12, 195, 120, 193, 119, 120, 195, 2, 0.949474
313, 1, bw, filler, NA, 999, 999, 2, 13, 57, 189, 109, 112, 84, 149, 3, 5.17321
313, 1, bw, filler, NA, 999, 999, 2, 13, 57, 189, 109, 112, 84, 149, 1, 0.523557
313, 1, bw, attraction, a-b-da, 14, 1, 2, 14, 135, 60, 125, 56, 60, 135, 3, 4.10002
313, 1, bw, attraction, a-b-da, 14, 1, 2, 14, 135, 60, 125, 56, 60, 135, 2, 3.06207
313, 1, bw, attraction, a-b-db, 14, 1, 2, 15, 56, 125, 60, 135, 135, 60, 2, 0.704329
313, 1, bw, attraction, a-b-db, 14, 1, 2, 15, 56, 125, 60, 135, 135, 60, 3, 1.00361
313, 1, bw, filler, NA, 999, 999, 2, 16, 76, 175, 120, 144, 149, 141, 1, 0.833135
313, 1, bw, filler, NA, 999, 999, 2, 16, 76, 175, 120, 144, 149, 141, 2, 3.83876
313, 1, bw, attraction, a-b-db, 9, 1, 2, 17, 60, 135, 135, 60, 57, 129, 1, 2.43419
313, 1, bw, attraction, a-b-db, 9, 1, 2, 17, 60, 135, 135, 60, 57, 129, 2, 0.807432
313, 1, bw, filler, NA, 999, 999, 2, 18, 117, 189, 58, 170, 189, 71, 1, 1.34036
313, 1, bw, filler, NA, 999, 999, 2, 18, 117, 189, 58, 170, 189, 71, 2, 0.549369
313, 1, bw, catch, NA, 999, 999, 2, 19, 134, 121, 98, 97, 127, 188, 3, 1.02908
313, 1, bw, catch, NA, 999, 999, 2, 19, 134, 121, 98, 97, 127, 188, 2, 0.762809
313, 1, bw, attraction, a-b-db, 14, 2, 2, 20, 165, 90, 90, 165, 83, 153, 1, 1.12167
313, 1, bw, attraction, a-b-db, 14, 2, 2, 20, 165, 90, 90, 165, 83, 153, 2, 0.636115
313, 1, bw, attraction, a-b-da, 14, 3, 2, 21, 195, 120, 120, 195, 181, 111, 2, 3.24048
313, 1, bw, attraction, a-b-da, 14, 3, 2, 21, 195, 120, 120, 195, 181, 111, 3, 0.660825
313, 1, bw, attraction, a-b-db, 9, 3, 2, 22, 120, 195, 195, 120, 114, 186, 2, 2.54385
313, 1, bw, attraction, a-b-db, 9, 3, 2, 22, 120, 195, 195, 120, 114, 186, 3, 0.896308
313, 1, bw, attraction, a-b-db, 14, 3, 2, 23, 111, 181, 195, 120, 120, 195, 2, 1.4819
313, 1, bw, attraction, a-b-db, 14, 3, 2, 23, 111, 181, 195, 120, 120, 195, 1, 1.97354
313, 1, bw, attraction, a-b-db, 2, 2, 2, 24, 90, 165, 165, 90, 89, 163, 1, 3.90016
313, 1, bw, attraction, a-b-db, 2, 2, 2, 24, 90, 165, 165, 90, 89, 163, 3, 0.766229
313, 1, bw, filler, NA, 999, 999, 2, 25, 94, 166, 67, 157, 148, 183, 3, 2.2533
313, 1, bw, filler, NA, 999, 999, 2, 25, 94, 166, 67, 157, 148, 183, 2, 0.770019
313, 1, bw, attraction, a-b-da, 9, 3, 2, 26, 186, 114, 120, 195, 195, 120, 3, 4.89703
313, 1, bw, attraction, a-b-da, 9, 3, 2, 26, 186, 114, 120, 195, 195, 120, 1, 1.57868
313, 1, bw, attraction, a-b-da, 14, 2, 2, 27, 153, 83, 90, 165, 165, 90, 2, 5.52876
313, 1, bw, attraction, a-b-da, 14, 2, 2, 27, 153, 83, 90, 165, 165, 90, 1, 0.921057
313, 1, bw, attraction, a-b-db, 2, 1, 2, 28, 59, 134, 60, 135, 135, 60, 3, 3.88204
313, 1, bw, attraction, a-b-db, 2, 1, 2, 28, 59, 134, 60, 135, 135, 60, 1, 0.780814
313, 1, bw, attraction, a-b-db, 9, 2, 2, 29, 86, 157, 165, 90, 90, 165, 2, 4.5233
313, 1, bw, attraction, a-b-db, 9, 2, 2, 29, 86, 157, 165, 90, 90, 165, 1, 0.811881
313, 1, bw, filler, NA, 999, 999, 2, 30, 64, 76, 186, 166, 142, 102, 2, 0.92079
313, 1, bw, filler, NA, 999, 999, 2, 30, 64, 76, 186, 166, 142, 102, 1, 0.674517
313, 1, bw, filler, NA, 999, 999, 2, 31, 178, 132, 192, 153, 81, 189, 2, 2.37279
313, 1, bw, filler, NA, 999, 999, 2, 31, 178, 132, 192, 153, 81, 189, 3, 0.612103
313, 1, bw, catch, NA, 999, 999, 2, 32, 114, 81, 121, 134, 183, 132, 3, 1.00914
313, 1, bw, catch, NA, 999, 999, 2, 32, 114, 81, 121, 134, 183, 132, 1, 0.687507
313, 1, bw, attraction, a-b-da, 5, 1, 2, 33, 132, 58, 60, 135, 135, 60, 2, 5.28185
313, 1, bw, attraction, a-b-da, 5, 1, 2, 33, 132, 58, 60, 135, 135, 60, 1, 0.468151
313, 1, bw, filler, NA, 999, 999, 2, 34, 135, 158, 59, 66, 131, 160, 1, 4.13534
313, 1, bw, filler, NA, 999, 999, 2, 34, 135, 158, 59, 66, 131, 160, 2, 0.424064
313, 1, bw, attraction, a-b-db, 2, 3, 2, 35, 120, 195, 119, 193, 195, 120, 2, 5.05251
313, 1, bw, attraction, a-b-db, 2, 3, 2, 35, 120, 195, 119, 193, 195, 120, 1, 0.736334
313, 1, bw, filler, NA, 999, 999, 2, 36, 109, 112, 188, 101, 142, 147, 3, 1.80059
313, 1, bw, filler, NA, 999, 999, 2, 36, 109, 112, 188, 101, 142, 147, 1, 1.05534
313, 1, bw, attraction, a-b-da, 9, 2, 2, 37, 157, 86, 165, 90, 90, 165, 3, 4.5309
313, 1, bw, attraction, a-b-da, 9, 2, 2, 37, 157, 86, 165, 90, 90, 165, 1, 0.843556
313, 1, bw, filler, NA, 999, 999, 3, 1, 118, 190, 183, 172, 85, 129, 2, 1.2232
313, 1, bw, filler, NA, 999, 999, 3, 1, 118, 190, 183, 172, 85, 129, 3, 0.564723
313, 1, bw, attraction, a-b-da, 14, 3, 3, 2, 120, 195, 181, 111, 195, 120, 3, 2.92391
313, 1, bw, attraction, a-b-da, 14, 3, 3, 2, 120, 195, 181, 111, 195, 120, 1, 0.484985
313, 1, bw, attraction, a-b-da, 14, 1, 3, 3, 125, 56, 135, 60, 60, 135, 2, 2.47946
313, 1, bw, attraction, a-b-da, 14, 1, 3, 3, 125, 56, 135, 60, 60, 135, 3, 1.4026
313, 1, bw, attraction, a-b-db, 2, 3, 3, 4, 119, 193, 120, 195, 195, 120, 3, 4.28013
313, 1, bw, attraction, a-b-db, 2, 3, 3, 4, 119, 193, 120, 195, 195, 120, 1, 0.522737
313, 1, bw, filler, NA, 999, 999, 3, 5, 143, 95, 124, 124, 97, 70, 2, 0.963869
313, 1, bw, filler, NA, 999, 999, 3, 5, 143, 95, 124, 124, 97, 70, 3, 0.972281
313, 1, bw, attraction, a-b-db, 9, 2, 3, 6, 90, 165, 165, 90, 86, 157, 1, 2.15508
313, 1, bw, attraction, a-b-db, 9, 2, 3, 6, 90, 165, 165, 90, 86, 157, 3, 0.411874
313, 1, bw, filler, NA, 999, 999, 3, 7, 159, 170, 141, 83, 177, 132, 1, 3.67295
313, 1, bw, filler, NA, 999, 999, 3, 7, 159, 170, 141, 83, 177, 132, 2, 1.22776
313, 1, bw, attraction, a-b-da, 5, 1, 3, 8, 135, 60, 60, 135, 132, 58, 1, 3.39999
313, 1, bw, attraction, a-b-da, 5, 1, 3, 8, 135, 60, 60, 135, 132, 58, 2, 0.398311
313, 1, bw, attraction, a-b-db, 9, 3, 3, 9, 195, 120, 114, 186, 120, 195, 1, 4.70804
313, 1, bw, attraction, a-b-db, 9, 3, 3, 9, 195, 120, 114, 186, 120, 195, 2, 0.301357
313, 1, bw, catch, NA, 999, 999, 3, 10, 145, 110, 88, 107, 176, 139, 3, 1.19908
313, 1, bw, catch, NA, 999, 999, 3, 10, 145, 110, 88, 107, 176, 139, 2, 0.429999
313, 1, bw, attraction, a-b-db, 14, 3, 3, 11, 120, 195, 111, 181, 195, 120, 3, 5.25047
313, 1, bw, attraction, a-b-db, 14, 3, 3, 11, 120, 195, 111, 181, 195, 120, 2, 0.942187
313, 1, bw, attraction, a-b-db, 14, 1, 3, 12, 135, 60, 60, 135, 56, 125, 1, 1.97377
313, 1, bw, attraction, a-b-db, 14, 1, 3, 12, 135, 60, 60, 135, 56, 125, 3, 0.845252
313, 1, bw, attraction, a-b-da, 14, 2, 3, 13, 90, 165, 153, 83, 165, 90, 3, 1.8808
313, 1, bw, attraction, a-b-da, 14, 2, 3, 13, 90, 165, 153, 83, 165, 90, 1, 0.932218
313, 1, bw, filler, NA, 999, 999, 3, 14, 131, 61, 103, 192, 111, 84, 2, 0.996526
313, 1, bw, filler, NA, 999, 999, 3, 14, 131, 61, 103, 192, 111, 84, 3, 0.63548
313, 1, bw, catch, NA, 999, 999, 3, 15, 63, 132, 167, 148, 153, 102, 2, 0.720062
313, 1, bw, catch, NA, 999, 999, 3, 15, 63, 132, 167, 148, 153, 102, 1, 0.442274
313, 1, bw, attraction, a-b-da, 9, 3, 3, 16, 186, 114, 120, 195, 195, 120, 2, 1.26207
313, 1, bw, attraction, a-b-da, 9, 3, 3, 16, 186, 114, 120, 195, 195, 120, 1, 1.04239
313, 1, bw, attraction, a-b-db, 5, 3, 3, 17, 117, 190, 120, 195, 195, 120, 3, 2.37408
313, 1, bw, attraction, a-b-db, 5, 3, 3, 17, 117, 190, 120, 195, 195, 120, 1, 0.517148
313, 1, bw, attraction, a-b-db, 9, 1, 3, 18, 57, 129, 60, 135, 135, 60, 3, 10.6864
313, 1, bw, attraction, a-b-db, 9, 1, 3, 18, 57, 129, 60, 135, 135, 60, 1, 0.999058
313, 1, bw, filler, NA, 999, 999, 3, 19, 73, 187, 84, 95, 173, 95, 3, 1.62063
313, 1, bw, filler, NA, 999, 999, 3, 19, 73, 187, 84, 95, 173, 95, 2, 0.546786
313, 1, bw, filler, NA, 999, 999, 3, 20, 107, 122, 106, 141, 195, 68, 2, 0.930504
313, 1, bw, filler, NA, 999, 999, 3, 20, 107, 122, 106, 141, 195, 68, 3, 0.468186
313, 1, bw, attraction, a-b-db, 5, 2, 3, 21, 165, 90, 88, 161, 90, 165, 1, 2.80731
313, 1, bw, attraction, a-b-db, 5, 2, 3, 21, 165, 90, 88, 161, 90, 165, 2, 0.689386
313, 1, bw, filler, NA, 999, 999, 3, 22, 144, 127, 138, 141, 76, 104, 2, 2.17548
313, 1, bw, filler, NA, 999, 999, 3, 22, 144, 127, 138, 141, 76, 104, 3, 0.39081
313, 1, bw, filler, NA, 999, 999, 3, 23, 144, 189, 159, 164, 64, 161, 1, 2.47657
313, 1, bw, filler, NA, 999, 999, 3, 23, 144, 189, 159, 164, 64, 161, 3, 0.792006
313, 1, bw, attraction, a-b-db, 14, 2, 3, 24, 83, 153, 90, 165, 165, 90, 3, 1.54145
313, 1, bw, attraction, a-b-db, 14, 2, 3, 24, 83, 153, 90, 165, 165, 90, 1, 0.446366
313, 1, bw, attraction, a-b-da, 9, 2, 3, 25, 90, 165, 157, 86, 165, 90, 3, 7.21817
313, 1, bw, attraction, a-b-da, 9, 2, 3, 25, 90, 165, 157, 86, 165, 90, 1, 1.1266
313, 1, bw, attraction, a-b-da, 5, 2, 3, 26, 165, 90, 90, 165, 161, 88, 2, 12.4788
313, 1, bw, attraction, a-b-da, 5, 2, 3, 26, 165, 90, 90, 165, 161, 88, 1, 0.822808
313, 1, bw, filler, NA, 999, 999, 3, 27, 103, 93, 158, 117, 81, 88, 2, 0.883754
313, 1, bw, filler, NA, 999, 999, 3, 27, 103, 93, 158, 117, 81, 88, 3, 0.591535
313, 1, bw, attraction, a-b-da, 9, 1, 3, 28, 60, 135, 135, 60, 129, 57, 2, 3.86932
313, 1, bw, attraction, a-b-da, 9, 1, 3, 28, 60, 135, 135, 60, 129, 57, 1, 0.464707
313, 1, bw, attraction, a-b-da, 2, 1, 3, 29, 134, 59, 135, 60, 60, 135, 3, 3.98784
313, 1, bw, attraction, a-b-da, 2, 1, 3, 29, 134, 59, 135, 60, 60, 135, 2, 0.834614
313, 1, bw, catch, NA, 999, 999, 3, 30, 165, 90, 134, 61, 134, 181, 3, 1.07094
313, 1, bw, catch, NA, 999, 999, 3, 30, 165, 90, 134, 61, 134, 181, 2, 0.547296
313, 1, bw, filler, NA, 999, 999, 3, 31, 140, 99, 114, 170, 73, 139, 2, 0.810986
313, 1, bw, filler, NA, 999, 999, 3, 31, 140, 99, 114, 170, 73, 139, 3, 0.409499
313, 1, bw, attraction, a-b-db, 2, 2, 3, 32, 165, 90, 89, 163, 90, 165, 1, 2.87855
313, 1, bw, attraction, a-b-db, 2, 2, 3, 32, 165, 90, 89, 163, 90, 165, 2, 0.649577
313, 1, bw, attraction, a-b-da, 2, 2, 3, 33, 163, 89, 165, 90, 90, 165, 1, 2.85338
313, 1, bw, attraction, a-b-da, 2, 2, 3, 33, 163, 89, 165, 90, 90, 165, 2, 6.09786
313, 1, bw, attraction, a-b-db, 5, 1, 3, 34, 135, 60, 58, 132, 60, 135, 3, 2.0579
313, 1, bw, attraction, a-b-db, 5, 1, 3, 34, 135, 60, 58, 132, 60, 135, 1, 0.749777
313, 1, bw, attraction, a-b-da, 2, 3, 3, 35, 120, 195, 195, 120, 193, 119, 2, 5.76545
313, 1, bw, attraction, a-b-da, 2, 3, 3, 35, 120, 195, 195, 120, 193, 119, 1, 0.94033
313, 1, bw, attraction, a-b-db, 2, 1, 3, 36, 60, 135, 59, 134, 135, 60, 2, 10.0841
313, 1, bw, attraction, a-b-db, 2, 1, 3, 36, 60, 135, 59, 134, 135, 60, 1, 1.5088
313, 1, bw, attraction, a-b-da, 5, 3, 3, 37, 195, 120, 190, 117, 120, 195, 1, 1.34161
313, 1, bw, attraction, a-b-da, 5, 3, 3, 37, 195, 120, 190, 117, 120, 195, 3, 3.79054
313, 1, bw, attraction, a-b-db, 14, 2, 4, 1, 83, 153, 165, 90, 90, 165, 3, 4.13994
313, 1, bw, attraction, a-b-db, 14, 2, 4, 1, 83, 153, 165, 90, 90, 165, 1, 1.17194
313, 1, bw, attraction, a-b-db, 9, 2, 4, 2, 165, 90, 90, 165, 86, 157, 2, 3.05885
313, 1, bw, attraction, a-b-db, 9, 2, 4, 2, 165, 90, 90, 165, 86, 157, 1, 1.2385
313, 1, bw, attraction, a-b-db, 5, 1, 4, 3, 58, 132, 60, 135, 135, 60, 3, 2.75472
313, 1, bw, attraction, a-b-db, 5, 1, 4, 3, 58, 132, 60, 135, 135, 60, 1, 1.13052
313, 1, bw, catch, NA, 999, 999, 4, 4, 160, 155, 114, 81, 125, 130, 1, 1.58678
313, 1, bw, catch, NA, 999, 999, 4, 4, 160, 155, 114, 81, 125, 130, 2, 0.858288
313, 1, bw, filler, NA, 999, 999, 4, 5, 172, 172, 192, 138, 84, 76, 1, 2.69332
313, 1, bw, filler, NA, 999, 999, 4, 5, 172, 172, 192, 138, 84, 76, 3, 0.511762
313, 1, bw, attraction, a-b-db, 9, 1, 4, 6, 135, 60, 60, 135, 57, 129, 1, 4.52882
313, 1, bw, attraction, a-b-db, 9, 1, 4, 6, 135, 60, 60, 135, 57, 129, 2, 1.16145
313, 1, bw, attraction, a-b-da, 2, 2, 4, 7, 163, 89, 165, 90, 90, 165, 1, 4.52845
313, 1, bw, attraction, a-b-da, 2, 2, 4, 7, 163, 89, 165, 90, 90, 165, 3, 0.896891
313, 1, bw, filler, NA, 999, 999, 4, 8, 193, 97, 109, 63, 169, 61, 1, 1.97853
313, 1, bw, filler, NA, 999, 999, 4, 8, 193, 97, 109, 63, 169, 61, 2, 0.377894
313, 1, bw, attraction, a-b-db, 9, 3, 4, 9, 114, 186, 120, 195, 195, 120, 3, 9.1605
313, 1, bw, attraction, a-b-db, 9, 3, 4, 9, 114, 186, 120, 195, 195, 120, 1, 0.630127
313, 1, bw, attraction, a-b-da, 9, 2, 4, 10, 90, 165, 157, 86, 165, 90, 2, 4.69874
313, 1, bw, attraction, a-b-da, 9, 2, 4, 10, 90, 165, 157, 86, 165, 90, 1, 0.508462
313, 1, bw, attraction, a-b-da, 9, 3, 4, 11, 120, 195, 195, 120, 186, 114, 2, 4.25364
313, 1, bw, attraction, a-b-da, 9, 3, 4, 11, 120, 195, 195, 120, 186, 114, 1, 0.609478
313, 1, bw, filler, NA, 999, 999, 4, 12, 145, 127, 167, 124, 87, 175, 2, 2.73469
313, 1, bw, filler, NA, 999, 999, 4, 12, 145, 127, 167, 124, 87, 175, 3, 0.463709
313, 1, bw, attraction, a-b-da, 2, 3, 4, 13, 193, 119, 120, 195, 195, 120, 1, 2.22682
313, 1, bw, attraction, a-b-da, 2, 3, 4, 13, 193, 119, 120, 195, 195, 120, 2, 4.54417
313, 1, bw, attraction, a-b-db, 2, 1, 4, 14, 59, 134, 60, 135, 135, 60, 3, 2.31061
313, 1, bw, attraction, a-b-db, 2, 1, 4, 14, 59, 134, 60, 135, 135, 60, 1, 0.832507
313, 1, bw, attraction, a-b-da, 5, 3, 4, 15, 190, 117, 120, 195, 195, 120, 3, 2.30087
313, 1, bw, attraction, a-b-da, 5, 3, 4, 15, 190, 117, 120, 195, 195, 120, 1, 1.2156
313, 1, bw, catch, NA, 999, 999, 4, 16, 163, 92, 192, 123, 100, 95, 2, 1.17238
313, 1, bw, catch, NA, 999, 999, 4, 16, 163, 92, 192, 123, 100, 95, 3, 0.91599
313, 1, bw, attraction, a-b-db, 14, 3, 4, 17, 195, 120, 120, 195, 111, 181, 2, 6.84504
313, 1, bw, attraction, a-b-db, 14, 3, 4, 17, 195, 120, 120, 195, 111, 181, 3, 0.672284
313, 1, bw, attraction, a-b-da, 14, 1, 4, 18, 125, 56, 60, 135, 135, 60, 3, 1.96329
313, 1, bw, attraction, a-b-da, 14, 1, 4, 18, 125, 56, 60, 135, 135, 60, 1, 0.691335
313, 1, bw, filler, NA, 999, 999, 4, 19, 174, 66, 64, 62, 105, 79, 1, 3.31711
313, 1, bw, filler, NA, 999, 999, 4, 19, 174, 66, 64, 62, 105, 79, 2, 0.678512
313, 1, bw, filler, NA, 999, 999, 4, 20, 102, 73, 88, 175, 69, 186, 2, 3.25706
313, 1, bw, filler, NA, 999, 999, 4, 20, 102, 73, 88, 175, 69, 186, 1, 0.476595
313, 1, bw, filler, NA, 999, 999, 4, 21, 182, 138, 158, 92, 64, 128, 1, 0.983136
313, 1, bw, filler, NA, 999, 999, 4, 21, 182, 138, 158, 92, 64, 128, 3, 0.694727
313, 1, bw, filler, NA, 999, 999, 4, 22, 195, 137, 165, 125, 98, 183, 1, 1.42451
313, 1, bw, filler, NA, 999, 999, 4, 22, 195, 137, 165, 125, 98, 183, 3, 0.846101
313, 1, bw, attraction, a-b-da, 14, 3, 4, 23, 195, 120, 181, 111, 120, 195, 1, 3.58567
313, 1, bw, attraction, a-b-da, 14, 3, 4, 23, 195, 120, 181, 111, 120, 195, 3, 0.672522
313, 1, bw, attraction, a-b-da, 5, 2, 4, 24, 165, 90, 90, 165, 161, 88, 2, 3.05964
313, 1, bw, attraction, a-b-da, 5, 2, 4, 24, 165, 90, 90, 165, 161, 88, 3, 0.463318
313, 1, bw, attraction, a-b-da, 9, 1, 4, 25, 129, 57, 60, 135, 135, 60, 3, 2.73839
313, 1, bw, attraction, a-b-da, 9, 1, 4, 25, 129, 57, 60, 135, 135, 60, 1, 1.57884
313, 1, bw, attraction, a-b-db, 14, 1, 4, 26, 135, 60, 56, 125, 60, 135, 1, 2.28088
313, 1, bw, attraction, a-b-db, 14, 1, 4, 26, 135, 60, 56, 125, 60, 135, 2, 0.572204
313, 1, bw, attraction, a-b-db, 5, 3, 4, 27, 195, 120, 120, 195, 117, 190, 1, 4.73127
313, 1, bw, attraction, a-b-db, 5, 3, 4, 27, 195, 120, 120, 195, 117, 190, 3, 1.66784
313, 1, bw, attraction, a-b-da, 2, 1, 4, 28, 60, 135, 135, 60, 134, 59, 3, 2.79853
313, 1, bw, attraction, a-b-da, 2, 1, 4, 28, 60, 135, 135, 60, 134, 59, 1, 1.15699
313, 1, bw, filler, NA, 999, 999, 4, 29, 189, 168, 127, 88, 167, 155, 1, 1.38786
313, 1, bw, filler, NA, 999, 999, 4, 29, 189, 168, 127, 88, 167, 155, 2, 0.683413
313, 1, bw, attraction, a-b-db, 2, 2, 4, 30, 90, 165, 165, 90, 89, 163, 1, 3.50183
313, 1, bw, attraction, a-b-db, 2, 2, 4, 30, 90, 165, 165, 90, 89, 163, 3, 1.19211
313, 1, bw, attraction, a-b-db, 5, 2, 4, 31, 88, 161, 90, 165, 165, 90, 1, 2.3736
313, 1, bw, attraction, a-b-db, 5, 2, 4, 31, 88, 161, 90, 165, 165, 90, 3, 0.676864
313, 1, bw, attraction, a-b-da, 14, 2, 4, 32, 153, 83, 165, 90, 90, 165, 2, 0.90329
313, 1, bw, attraction, a-b-da, 14, 2, 4, 32, 153, 83, 165, 90, 90, 165, 3, 0.530265
313, 1, bw, filler, NA, 999, 999, 4, 33, 68, 183, 94, 174, 144, 134, 3, 1.34668
313, 1, bw, filler, NA, 999, 999, 4, 33, 68, 183, 94, 174, 144, 134, 1, 0.395632
313, 1, bw, catch, NA, 999, 999, 4, 34, 130, 125, 195, 120, 117, 78, 2, 1.08946
313, 1, bw, catch, NA, 999, 999, 4, 34, 130, 125, 195, 120, 117, 78, 3, 0.484479
313, 1, bw, attraction, a-b-da, 5, 1, 4, 35, 132, 58, 60, 135, 135, 60, 3, 3.54282
313, 1, bw, attraction, a-b-da, 5, 1, 4, 35, 132, 58, 60, 135, 135, 60, 2, 1.04711
313, 1, bw, filler, NA, 999, 999, 4, 36, 144, 171, 182, 65, 92, 78, 1, 1.05864
313, 1, bw, filler, NA, 999, 999, 4, 36, 144, 171, 182, 65, 92, 78, 3, 0.414969
313, 1, bw, attraction, a-b-db, 2, 3, 4, 37, 120, 195, 119, 193, 195, 120, 2, 5.14021
313, 1, bw, attraction, a-b-db, 2, 3, 4, 37, 120, 195, 119, 193, 195, 120, 1, 1.54782
313, 1, bw, filler, NA, 999, 999, 5, 1, 108, 128, 108, 134, 95, 81, 2, 4.35386
313, 1, bw, filler, NA, 999, 999, 5, 1, 108, 128, 108, 134, 95, 81, 3, 0.881876
313, 1, bw, attraction, a-b-db, 9, 3, 5, 2, 120, 195, 114, 186, 195, 120, 3, 2.06815
313, 1, bw, attraction, a-b-db, 9, 3, 5, 2, 120, 195, 114, 186, 195, 120, 2, 2.28014
313, 1, bw, filler, NA, 999, 999, 5, 3, 143, 170, 177, 155, 154, 175, 2, 4.25794
313, 1, bw, filler, NA, 999, 999, 5, 3, 143, 170, 177, 155, 154, 175, 1, 2.28548
313, 1, bw, filler, NA, 999, 999, 5, 4, 150, 108, 59, 136, 67, 112, 1, 2.45523
313, 1, bw, filler, NA, 999, 999, 5, 4, 150, 108, 59, 136, 67, 112, 3, 0.347066
313, 1, bw, attraction, a-b-db, 14, 2, 5, 5, 90, 165, 165, 90, 83, 153, 2, 1.17091
313, 1, bw, attraction, a-b-db, 14, 2, 5, 5, 90, 165, 165, 90, 83, 153, 3, 0.75526
313, 1, bw, attraction, a-b-da, 9, 3, 5, 6, 195, 120, 186, 114, 120, 195, 1, 1.12302
313, 1, bw, attraction, a-b-da, 9, 3, 5, 6, 195, 120, 186, 114, 120, 195, 2, 0.836594
313, 1, bw, catch, NA, 999, 999, 5, 7, 160, 155, 99, 96, 126, 129, 1, 0.825056
313, 1, bw, catch, NA, 999, 999, 5, 7, 160, 155, 99, 96, 126, 129, 2, 0.486665
313, 1, bw, attraction, a-b-da, 5, 1, 5, 8, 60, 135, 132, 58, 135, 60, 3, 3.48906
313, 1, bw, attraction, a-b-da, 5, 1, 5, 8, 60, 135, 132, 58, 135, 60, 1, 0.731246
313, 1, bw, filler, NA, 999, 999, 5, 9, 85, 174, 65, 98, 71, 142, 1, 1.33165
313, 1, bw, filler, NA, 999, 999, 5, 9, 85, 174, 65, 98, 71, 142, 2, 0.381207
313, 1, bw, attraction, a-b-da, 14, 2, 5, 10, 165, 90, 153, 83, 90, 165, 3, 1.75568
313, 1, bw, attraction, a-b-da, 14, 2, 5, 10, 165, 90, 153, 83, 90, 165, 2, 0.667741
313, 1, bw, attraction, a-b-da, 14, 3, 5, 11, 195, 120, 181, 111, 120, 195, 1, 3.67896
313, 1, bw, attraction, a-b-da, 14, 3, 5, 11, 195, 120, 181, 111, 120, 195, 3, 0.905706
313, 1, bw, attraction, a-b-da, 5, 2, 5, 12, 161, 88, 90, 165, 165, 90, 3, 4.9553
313, 1, bw, attraction, a-b-da, 5, 2, 5, 12, 161, 88, 90, 165, 165, 90, 2, 0.451045
313, 1, bw, filler, NA, 999, 999, 5, 13, 172, 57, 95, 165, 182, 172, 3, 1.18289
313, 1, bw, filler, NA, 999, 999, 5, 13, 172, 57, 95, 165, 182, 172, 1, 0.558509
313, 1, bw, attraction, a-b-da, 9, 1, 5, 14, 129, 57, 135, 60, 60, 135, 2, 6.29363
313, 1, bw, attraction, a-b-da, 9, 1, 5, 14, 129, 57, 135, 60, 60, 135, 3, 0.390902
313, 1, bw, attraction, a-b-da, 2, 1, 5, 15, 134, 59, 135, 60, 60, 135, 3, 8.44481
313, 1, bw, attraction, a-b-da, 2, 1, 5, 15, 134, 59, 135, 60, 60, 135, 2, 1.75142
313, 1, bw, attraction, a-b-db, 5, 3, 5, 16, 120, 195, 195, 120, 117, 190, 1, 1.27086
313, 1, bw, attraction, a-b-db, 5, 3, 5, 16, 120, 195, 195, 120, 117, 190, 3, 1.02712
313, 1, bw, attraction, a-b-db, 9, 1, 5, 17, 135, 60, 57, 129, 60, 135, 3, 3.77545
313, 1, bw, attraction, a-b-db, 9, 1, 5, 17, 135, 60, 57, 129, 60, 135, 1, 0.558081
313, 1, bw, attraction, a-b-db, 2, 2, 5, 18, 165, 90, 89, 163, 90, 165, 1, 2.60531
313, 1, bw, attraction, a-b-db, 2, 2, 5, 18, 165, 90, 89, 163, 90, 165, 3, 1.03508
313, 1, bw, catch, NA, 999, 999, 5, 19, 136, 119, 69, 126, 158, 157, 3, 1.52734
313, 1, bw, catch, NA, 999, 999, 5, 19, 136, 119, 69, 126, 158, 157, 2, 0.416917
313, 1, bw, filler, NA, 999, 999, 5, 20, 151, 114, 169, 80, 170, 86, 1, 1.18999
313, 1, bw, filler, NA, 999, 999, 5, 20, 151, 114, 169, 80, 170, 86, 2, 2.61288
313, 1, bw, filler, NA, 999, 999, 5, 21, 155, 157, 191, 189, 118, 190, 2, 11.3853
313, 1, bw, filler, NA, 999, 999, 5, 21, 155, 157, 191, 189, 118, 190, 3, 0.389782
313, 1, bw, attraction, a-b-db, 9, 2, 5, 22, 90, 165, 165, 90, 86, 157, 2, 4.65961
313, 1, bw, attraction, a-b-db, 9, 2, 5, 22, 90, 165, 165, 90, 86, 157, 3, 0.718882
313, 1, bw, filler, NA, 999, 999, 5, 23, 180, 75, 74, 75, 128, 142, 3, 0.919839
313, 1, bw, filler, NA, 999, 999, 5, 23, 180, 75, 74, 75, 128, 142, 2, 1.0182
313, 1, bw, attraction, a-b-db, 2, 1, 5, 24, 135, 60, 60, 135, 59, 134, 2, 4.46321
313, 1, bw, attraction, a-b-db, 2, 1, 5, 24, 135, 60, 60, 135, 59, 134, 1, 0.650452
313, 1, bw, attraction, a-b-da, 14, 1, 5, 25, 60, 135, 135, 60, 125, 56, 1, 2.76615
313, 1, bw, attraction, a-b-da, 14, 1, 5, 25, 60, 135, 135, 60, 125, 56, 3, 1.15793
313, 1, bw, attraction, a-b-db, 14, 3, 5, 26, 111, 181, 120, 195, 195, 120, 2, 3.74895
313, 1, bw, attraction, a-b-db, 14, 3, 5, 26, 111, 181, 120, 195, 195, 120, 1, 0.805006
313, 1, bw, attraction, a-b-db, 14, 1, 5, 27, 56, 125, 60, 135, 135, 60, 2, 2.1387
313, 1, bw, attraction, a-b-db, 14, 1, 5, 27, 56, 125, 60, 135, 135, 60, 3, 0.867325
313, 1, bw, attraction, a-b-db, 2, 3, 5, 28, 119, 193, 195, 120, 120, 195, 1, 2.75828
313, 1, bw, attraction, a-b-db, 2, 3, 5, 28, 119, 193, 195, 120, 120, 195, 3, 0.622104
313, 1, bw, attraction, a-b-da, 2, 3, 5, 29, 120, 195, 195, 120, 193, 119, 2, 3.4751
313, 1, bw, attraction, a-b-da, 2, 3, 5, 29, 120, 195, 195, 120, 193, 119, 3, 0.830036
313, 1, bw, attraction, a-b-db, 5, 2, 5, 30, 90, 165, 165, 90, 88, 161, 1, 3.34645
313, 1, bw, attraction, a-b-db, 5, 2, 5, 30, 90, 165, 165, 90, 88, 161, 3, 0.578752
313, 1, bw, attraction, a-b-da, 2, 2, 5, 31, 165, 90, 90, 165, 163, 89, 1, 2.31307
313, 1, bw, attraction, a-b-da, 2, 2, 5, 31, 165, 90, 90, 165, 163, 89, 2, 0.819063
313, 1, bw, attraction, a-b-db, 5, 1, 5, 32, 60, 135, 135, 60, 58, 132, 2, 3.96802
313, 1, bw, attraction, a-b-db, 5, 1, 5, 32, 60, 135, 135, 60, 58, 132, 3, 0.679461
313, 1, bw, attraction, a-b-da, 9, 2, 5, 33, 157, 86, 90, 165, 165, 90, 2, 5.40183
313, 1, bw, attraction, a-b-da, 9, 2, 5, 33, 157, 86, 90, 165, 165, 90, 3, 1.05547
313, 1, bw, filler, NA, 999, 999, 5, 34, 148, 72, 191, 171, 172, 145, 2, 3.97894
313, 1, bw, filler, NA, 999, 999, 5, 34, 148, 72, 191, 171, 172, 145, 1, 1.19377
313, 1, bw, attraction, a-b-da, 5, 3, 5, 35, 195, 120, 190, 117, 120, 195, 3, 4.18343
313, 1, bw, attraction, a-b-da, 5, 3, 5, 35, 195, 120, 190, 117, 120, 195, 2, 1.37396
313, 1, bw, filler, NA, 999, 999, 5, 36, 146, 130, 162, 76, 194, 76, 1, 0.964243
313, 1, bw, filler, NA, 999, 999, 5, 36, 146, 130, 162, 76, 194, 76, 3, 1.45264
313, 1, bw, catch, NA, 999, 999, 5, 37, 112, 143, 133, 62, 144, 171, 3, 1.31207
313, 1, bw, catch, NA, 999, 999, 5, 37, 112, 143, 133, 62, 144, 171, 2, 0.594302
313, 1, bw, attraction, a-b-db, 14, 1, 6, 1, 60, 135, 56, 125, 135, 60, 1, 3.28013
313, 1, bw, attraction, a-b-db, 14, 1, 6, 1, 60, 135, 56, 125, 135, 60, 3, 1.17898
313, 1, bw, attraction, a-b-da, 14, 3, 6, 2, 181, 111, 120, 195, 195, 120, 2, 5.04118
313, 1, bw, attraction, a-b-da, 14, 3, 6, 2, 181, 111, 120, 195, 195, 120, 1, 0.796953
313, 1, bw, attraction, a-b-db, 14, 2, 6, 3, 90, 165, 165, 90, 83, 153, 1, 2.28269
313, 1, bw, attraction, a-b-db, 14, 2, 6, 3, 90, 165, 165, 90, 83, 153, 3, 0.773975
313, 1, bw, catch, NA, 999, 999, 6, 4, 101, 94, 129, 186, 133, 122, 2, 0.900306
313, 1, bw, catch, NA, 999, 999, 6, 4, 101, 94, 129, 186, 133, 122, 1, 0.69522
313, 1, bw, catch, NA, 999, 999, 6, 5, 147, 168, 115, 140, 126, 69, 1, 0.928983
313, 1, bw, catch, NA, 999, 999, 6, 5, 147, 168, 115, 140, 126, 69, 3, 1.48272
313, 1, bw, catch, NA, 999, 999, 6, 6, 61, 134, 150, 105, 193, 122, 3, 0.988937
313, 1, bw, catch, NA, 999, 999, 6, 6, 61, 134, 150, 105, 193, 122, 1, 0.667798
313, 1, bw, attraction, a-b-da, 2, 3, 6, 7, 195, 120, 120, 195, 193, 119, 1, 5.45485
313, 1, bw, attraction, a-b-da, 2, 3, 6, 7, 195, 120, 120, 195, 193, 119, 2, 0.362432
313, 1, bw, filler, NA, 999, 999, 6, 8, 57, 177, 85, 140, 147, 91, 3, 4.12978
313, 1, bw, filler, NA, 999, 999, 6, 8, 57, 177, 85, 140, 147, 91, 1, 0.69836
313, 1, bw, attraction, a-b-da, 2, 2, 6, 9, 165, 90, 163, 89, 90, 165, 3, 1.26809
313, 1, bw, attraction, a-b-da, 2, 2, 6, 9, 165, 90, 163, 89, 90, 165, 1, 0.688476
313, 1, bw, filler, NA, 999, 999, 6, 10, 125, 177, 104, 116, 132, 195, 3, 2.24267
313, 1, bw, filler, NA, 999, 999, 6, 10, 125, 177, 104, 116, 132, 195, 2, 0.623421
313, 1, bw, filler, NA, 999, 999, 6, 11, 137, 96, 129, 175, 136, 166, 2, 1.81971
313, 1, bw, filler, NA, 999, 999, 6, 11, 137, 96, 129, 175, 136, 166, 1, 0.57786
313, 1, bw, attraction, a-b-da, 14, 2, 6, 12, 165, 90, 90, 165, 153, 83, 1, 5.07227
313, 1, bw, attraction, a-b-da, 14, 2, 6, 12, 165, 90, 90, 165, 153, 83, 3, 0.563293
313, 1, bw, filler, NA, 999, 999, 6, 13, 118, 84, 141, 78, 62, 93, 2, 1.69843
313, 1, bw, filler, NA, 999, 999, 6, 13, 118, 84, 141, 78, 62, 93, 3, 0.501125
313, 1, bw, attraction, a-b-db, 9, 3, 6, 14, 195, 120, 120, 195, 114, 186, 1, 3.10306
313, 1, bw, attraction, a-b-db, 9, 3, 6, 14, 195, 120, 120, 195, 114, 186, 3, 0.937294
313, 1, bw, attraction, a-b-db, 14, 3, 6, 15, 111, 181, 195, 120, 120, 195, 2, 4.56173
313, 1, bw, attraction, a-b-db, 14, 3, 6, 15, 111, 181, 195, 120, 120, 195, 3, 0.88093
313, 1, bw, attraction, a-b-db, 5, 1, 6, 16, 135, 60, 58, 132, 60, 135, 1, 2.20312
313, 1, bw, attraction, a-b-db, 5, 1, 6, 16, 135, 60, 58, 132, 60, 135, 3, 0.705777
313, 1, bw, attraction, a-b-db, 2, 1, 6, 17, 135, 60, 60, 135, 59, 134, 1, 4.57148
313, 1, bw, attraction, a-b-db, 2, 1, 6, 17, 135, 60, 60, 135, 59, 134, 3, 0.578792
313, 1, bw, attraction, a-b-da, 14, 1, 6, 18, 60, 135, 135, 60, 125, 56, 2, 7.25726
313, 1, bw, attraction, a-b-da, 14, 1, 6, 18, 60, 135, 135, 60, 125, 56, 1, 0.36355
313, 1, bw, attraction, a-b-db, 5, 3, 6, 19, 120, 195, 117, 190, 195, 120, 3, 6.2907
313, 1, bw, attraction, a-b-db, 5, 3, 6, 19, 120, 195, 117, 190, 195, 120, 1, 0.444042
313, 1, bw, attraction, a-b-da, 9, 1, 6, 20, 60, 135, 135, 60, 129, 57, 1, 1.17582
313, 1, bw, attraction, a-b-da, 9, 1, 6, 20, 60, 135, 135, 60, 129, 57, 3, 0.447405
313, 1, bw, attraction, a-b-da, 2, 1, 6, 21, 134, 59, 60, 135, 135, 60, 2, 1.65122
313, 1, bw, attraction, a-b-da, 2, 1, 6, 21, 134, 59, 60, 135, 135, 60, 3, 0.631958
313, 1, bw, filler, NA, 999, 999, 6, 22, 140, 92, 159, 100, 92, 184, 3, 2.98043
313, 1, bw, filler, NA, 999, 999, 6, 22, 140, 92, 159, 100, 92, 184, 1, 0.371518
313, 1, bw, attraction, a-b-db, 9, 2, 6, 23, 90, 165, 165, 90, 86, 157, 1, 2.87459
313, 1, bw, attraction, a-b-db, 9, 2, 6, 23, 90, 165, 165, 90, 86, 157, 3, 0.277683
313, 1, bw, filler, NA, 999, 999, 6, 24, 83, 188, 187, 137, 99, 130, 2, 0.704193
313, 1, bw, filler, NA, 999, 999, 6, 24, 83, 188, 187, 137, 99, 130, 3, 0.322643
313, 1, bw, filler, NA, 999, 999, 6, 25, 114, 129, 171, 162, 62, 122, 2, 0.707806
313, 1, bw, filler, NA, 999, 999, 6, 25, 114, 129, 171, 162, 62, 122, 3, 0.822232
313, 1, bw, attraction, a-b-da, 5, 2, 6, 26, 165, 90, 161, 88, 90, 165, 2, 4.53131
313, 1, bw, attraction, a-b-da, 5, 2, 6, 26, 165, 90, 161, 88, 90, 165, 3, 0.475841
313, 1, bw, attraction, a-b-da, 9, 3, 6, 27, 186, 114, 195, 120, 120, 195, 2, 2.89443
313, 1, bw, attraction, a-b-da, 9, 3, 6, 27, 186, 114, 195, 120, 120, 195, 3, 1.35263
313, 1, bw, attraction, a-b-da, 5, 1, 6, 28, 60, 135, 132, 58, 135, 60, 3, 3.49618
313, 1, bw, attraction, a-b-da, 5, 1, 6, 28, 60, 135, 132, 58, 135, 60, 1, 0.71435
313, 1, bw, filler, NA, 999, 999, 6, 29, 76, 63, 143, 136, 64, 59, 2, 0.595379
313, 1, bw, filler, NA, 999, 999, 6, 29, 76, 63, 143, 136, 64, 59, 3, 1.65058
313, 1, bw, filler, NA, 999, 999, 6, 30, 156, 125, 177, 63, 103, 73, 1, 1.54206
313, 1, bw, filler, NA, 999, 999, 6, 30, 156, 125, 177, 63, 103, 73, 3, 0.374823
313, 1, bw, attraction, a-b-da, 5, 3, 6, 31, 195, 120, 190, 117, 120, 195, 3, 2.36527
313, 1, bw, attraction, a-b-da, 5, 3, 6, 31, 195, 120, 190, 117, 120, 195, 1, 0.517145
313, 1, bw, filler, NA, 999, 999, 6, 32, 125, 128, 177, 59, 167, 98, 1, 2.0783
313, 1, bw, filler, NA, 999, 999, 6, 32, 125, 128, 177, 59, 167, 98, 2, 0.513664
313, 1, bw, attraction, a-b-da, 9, 2, 6, 33, 90, 165, 165, 90, 157, 86, 1, 2.34692
313, 1, bw, attraction, a-b-da, 9, 2, 6, 33, 90, 165, 165, 90, 157, 86, 3, 0.587303
313, 1, bw, attraction, a-b-db, 2, 3, 6, 34, 120, 195, 119, 193, 195, 120, 2, 3.01768
313, 1, bw, attraction, a-b-db, 2, 3, 6, 34, 120, 195, 119, 193, 195, 120, 3, 0.511557
313, 1, bw, attraction, a-b-db, 5, 2, 6, 35, 88, 161, 90, 165, 165, 90, 2, 3.20058
313, 1, bw, attraction, a-b-db, 5, 2, 6, 35, 88, 161, 90, 165, 165, 90, 3, 0.486864
313, 1, bw, attraction, a-b-db, 2, 2, 6, 36, 165, 90, 89, 163, 90, 165, 2, 4.83336
313, 1, bw, attraction, a-b-db, 2, 2, 6, 36, 165, 90, 89, 163, 90, 165, 3, 2.98183
313, 1, bw, attraction, a-b-db, 9, 1, 6, 37, 135, 60, 60, 135, 57, 129, 2, 7.29946
313, 1, bw, attraction, a-b-db, 9, 1, 6, 37, 135, 60, 60, 135, 57, 129, 3, 0.364488
313, 1, bw, attraction, a-b-da, 9, 3, 7, 1, 195, 120, 120, 195, 186, 114, 1, 2.01962
313, 1, bw, attraction, a-b-da, 9, 3, 7, 1, 195, 120, 120, 195, 186, 114, 3, 0.425735
313, 1, bw, attraction, a-b-da, 14, 3, 7, 2, 195, 120, 120, 195, 181, 111, 2, 2.29422
313, 1, bw, attraction, a-b-da, 14, 3, 7, 2, 195, 120, 120, 195, 181, 111, 3, 0.328753
313, 1, bw, catch, NA, 999, 999, 7, 3, 151, 164, 114, 81, 154, 101, 1, 0.817178
313, 1, bw, catch, NA, 999, 999, 7, 3, 151, 164, 114, 81, 154, 101, 2, 0.343549
313, 1, bw, attraction, a-b-db, 2, 2, 7, 4, 165, 90, 89, 163, 90, 165, 2, 2.54344
313, 1, bw, attraction, a-b-db, 2, 2, 7, 4, 165, 90, 89, 163, 90, 165, 1, 0.503933
313, 1, bw, attraction, a-b-db, 14, 1, 7, 5, 135, 60, 56, 125, 60, 135, 1, 7.20977
313, 1, bw, attraction, a-b-db, 14, 1, 7, 5, 135, 60, 56, 125, 60, 135, 2, 0.446099
313, 1, bw, attraction, a-b-db, 2, 3, 7, 6, 120, 195, 119, 193, 195, 120, 3, 3.64213
313, 1, bw, attraction, a-b-db, 2, 3, 7, 6, 120, 195, 119, 193, 195, 120, 2, 0.518059
313, 1, bw, attraction, a-b-da, 5, 2, 7, 7, 165, 90, 90, 165, 161, 88, 1, 2.54319
313, 1, bw, attraction, a-b-da, 5, 2, 7, 7, 165, 90, 90, 165, 161, 88, 2, 0.551751
313, 1, bw, attraction, a-b-db, 9, 2, 7, 8, 86, 157, 165, 90, 90, 165, 3, 1.72759
313, 1, bw, attraction, a-b-db, 9, 2, 7, 8, 86, 157, 165, 90, 90, 165, 2, 0.520872
313, 1, bw, filler, NA, 999, 999, 7, 9, 93, 150, 67, 76, 79, 63, 1, 0.922139
313, 1, bw, filler, NA, 999, 999, 7, 9, 93, 150, 67, 76, 79, 63, 3, 2.70782
313, 1, bw, filler, NA, 999, 999, 7, 10, 125, 139, 83, 111, 62, 129, 1, 1.04411
313, 1, bw, filler, NA, 999, 999, 7, 10, 125, 139, 83, 111, 62, 129, 3, 0.985155
313, 1, bw, attraction, a-b-da, 5, 3, 7, 11, 190, 117, 195, 120, 120, 195, 1, 4.76744
313, 1, bw, attraction, a-b-da, 5, 3, 7, 11, 190, 117, 195, 120, 120, 195, 3, 0.374566
313, 1, bw, filler, NA, 999, 999, 7, 12, 84, 103, 137, 61, 137, 154, 3, 1.41308
313, 1, bw, filler, NA, 999, 999, 7, 12, 84, 103, 137, 61, 137, 154, 1, 0.755303
313, 1, bw, filler, NA, 999, 999, 7, 13, 64, 167, 172, 132, 167, 117, 2, 1.34697
313, 1, bw, filler, NA, 999, 999, 7, 13, 64, 167, 172, 132, 167, 117, 1, 1.06788
313, 1, bw, attraction, a-b-da, 9, 2, 7, 14, 90, 165, 165, 90, 157, 86, 1, 5.18284
313, 1, bw, attraction, a-b-da, 9, 2, 7, 14, 90, 165, 165, 90, 157, 86, 3, 0.437302
313, 1, bw, attraction, a-b-da, 5, 1, 7, 15, 60, 135, 135, 60, 132, 58, 1, 3.58564
313, 1, bw, attraction, a-b-da, 5, 1, 7, 15, 60, 135, 135, 60, 132, 58, 3, 2.36853
313, 1, bw, catch, NA, 999, 999, 7, 16, 106, 89, 92, 163, 129, 186, 3, 1.00713
313, 1, bw, catch, NA, 999, 999, 7, 16, 106, 89, 92, 163, 129, 186, 1, 0.477345
313, 1, bw, attraction, a-b-da, 14, 2, 7, 17, 90, 165, 153, 83, 165, 90, 3, 2.79188
313, 1, bw, attraction, a-b-da, 14, 2, 7, 17, 90, 165, 153, 83, 165, 90, 2, 0.60621
313, 1, bw, filler, NA, 999, 999, 7, 18, 162, 113, 194, 62, 94, 162, 1, 1.11603
313, 1, bw, filler, NA, 999, 999, 7, 18, 162, 113, 194, 62, 94, 162, 2, 1.21437
313, 1, bw, attraction, a-b-db, 2, 1, 7, 19, 135, 60, 60, 135, 59, 134, 2, 5.21117
313, 1, bw, attraction, a-b-db, 2, 1, 7, 19, 135, 60, 60, 135, 59, 134, 1, 0.432168
313, 1, bw, attraction, a-b-da, 2, 1, 7, 20, 135, 60, 60, 135, 134, 59, 1, 7.51674
313, 1, bw, attraction, a-b-da, 2, 1, 7, 20, 135, 60, 60, 135, 134, 59, 2, 0.396938
313, 1, bw, filler, NA, 999, 999, 7, 21, 152, 193, 165, 161, 193, 158, 3, 1.41887
313, 1, bw, filler, NA, 999, 999, 7, 21, 152, 193, 165, 161, 193, 158, 2, 1.0651
313, 1, bw, filler, NA, 999, 999, 7, 22, 96, 183, 155, 58, 115, 143, 3, 3.59588
313, 1, bw, filler, NA, 999, 999, 7, 22, 96, 183, 155, 58, 115, 143, 2, 1.47407
313, 1, bw, filler, NA, 999, 999, 7, 23, 175, 94, 72, 185, 163, 71, 2, 1.59627
313, 1, bw, filler, NA, 999, 999, 7, 23, 175, 94, 72, 185, 163, 71, 3, 1.2191
313, 1, bw, attraction, a-b-db, 14, 2, 7, 24, 90, 165, 83, 153, 165, 90, 3, 1.272
313, 1, bw, attraction, a-b-db, 14, 2, 7, 24, 90, 165, 83, 153, 165, 90, 2, 0.523584
313, 1, bw, attraction, a-b-db, 5, 3, 7, 25, 120, 195, 195, 120, 117, 190, 2, 3.94008
313, 1, bw, attraction, a-b-db, 5, 3, 7, 25, 120, 195, 195, 120, 117, 190, 3, 0.308141
313, 1, bw, attraction, a-b-db, 9, 1, 7, 26, 135, 60, 60, 135, 57, 129, 2, 4.72529
313, 1, bw, attraction, a-b-db, 9, 1, 7, 26, 135, 60, 60, 135, 57, 129, 3, 0.317737
313, 1, bw, catch, NA, 999, 999, 7, 27, 104, 151, 113, 82, 173, 142, 3, 1.09496
313, 1, bw, catch, NA, 999, 999, 7, 27, 104, 151, 113, 82, 173, 142, 2, 0.737864
313, 1, bw, attraction, a-b-da, 2, 2, 7, 28, 163, 89, 165, 90, 90, 165, 3, 4.23428
313, 1, bw, attraction, a-b-da, 2, 2, 7, 28, 163, 89, 165, 90, 90, 165, 2, 0.606915
313, 1, bw, attraction, a-b-db, 5, 2, 7, 29, 165, 90, 90, 165, 88, 161, 2, 1.48398
313, 1, bw, attraction, a-b-db, 5, 2, 7, 29, 165, 90, 90, 165, 88, 161, 1, 0.911517
313, 1, bw, attraction, a-b-db, 14, 3, 7, 30, 195, 120, 120, 195, 111, 181, 2, 0.736496
313, 1, bw, attraction, a-b-db, 14, 3, 7, 30, 195, 120, 120, 195, 111, 181, 3, 0.394226
313, 1, bw, attraction, a-b-da, 9, 1, 7, 31, 135, 60, 60, 135, 129, 57, 1, 4.16796
313, 1, bw, attraction, a-b-da, 9, 1, 7, 31, 135, 60, 60, 135, 129, 57, 3, 0.935443
313, 1, bw, filler, NA, 999, 999, 7, 32, 176, 128, 91, 155, 102, 106, 1, 0.935691
313, 1, bw, filler, NA, 999, 999, 7, 32, 176, 128, 91, 155, 102, 106, 3, 0.489375
313, 1, bw, attraction, a-b-da, 14, 1, 7, 33, 60, 135, 135, 60, 125, 56, 2, 3.37184
313, 1, bw, attraction, a-b-da, 14, 1, 7, 33, 60, 135, 135, 60, 125, 56, 1, 0.402865
313, 1, bw, attraction, a-b-db, 9, 3, 7, 34, 195, 120, 114, 186, 120, 195, 1, 6.47263
313, 1, bw, attraction, a-b-db, 9, 3, 7, 34, 195, 120, 114, 186, 120, 195, 3, 1.35525
313, 1, bw, filler, NA, 999, 999, 7, 35, 185, 182, 72, 173, 112, 73, 1, 0.850628
313, 1, bw, filler, NA, 999, 999, 7, 35, 185, 182, 72, 173, 112, 73, 3, 0.447707
313, 1, bw, attraction, a-b-db, 5, 1, 7, 36, 60, 135, 58, 132, 135, 60, 3, 5.04356
313, 1, bw, attraction, a-b-db, 5, 1, 7, 36, 60, 135, 58, 132, 135, 60, 2, 0.991321
313, 1, bw, attraction, a-b-da, 2, 3, 7, 37, 193, 119, 195, 120, 120, 195, 2, 3.72495
313, 1, bw, attraction, a-b-da, 2, 3, 7, 37, 193, 119, 195, 120, 120, 195, 3, 0.293775
313, 1, bw, attraction, a-b-da, 9, 1, 8, 1, 60, 135, 129, 57, 135, 60, 3, 4.96755
313, 1, bw, attraction, a-b-da, 9, 1, 8, 1, 60, 135, 129, 57, 135, 60, 2, 0.502708
313, 1, bw, attraction, a-b-db, 2, 1, 8, 2, 135, 60, 59, 134, 60, 135, 1, 1.27248
313, 1, bw, attraction, a-b-db, 2, 1, 8, 2, 135, 60, 59, 134, 60, 135, 2, 0.940068
313, 1, bw, filler, NA, 999, 999, 8, 3, 150, 142, 72, 88, 80, 113, 1, 1.01232
313, 1, bw, filler, NA, 999, 999, 8, 3, 150, 142, 72, 88, 80, 113, 2, 0.466662
313, 1, bw, catch, NA, 999, 999, 8, 4, 125, 70, 98, 157, 123, 192, 3, 0.989781
313, 1, bw, catch, NA, 999, 999, 8, 4, 125, 70, 98, 157, 123, 192, 1, 0.61278
313, 1, bw, filler, NA, 999, 999, 8, 5, 109, 156, 162, 148, 135, 76, 2, 1.77792
313, 1, bw, filler, NA, 999, 999, 8, 5, 109, 156, 162, 148, 135, 76, 3, 0.593285
313, 1, bw, attraction, a-b-da, 14, 3, 8, 6, 181, 111, 195, 120, 120, 195, 3, 6.55906
313, 1, bw, attraction, a-b-da, 14, 3, 8, 6, 181, 111, 195, 120, 120, 195, 1, 0.797633
313, 1, bw, attraction, a-b-db, 9, 3, 8, 7, 120, 195, 195, 120, 114, 186, 1, 2.70728
313, 1, bw, attraction, a-b-db, 9, 3, 8, 7, 120, 195, 195, 120, 114, 186, 3, 0.525223
313, 1, bw, filler, NA, 999, 999, 8, 8, 173, 144, 153, 148, 69, 151, 2, 1.58152
313, 1, bw, filler, NA, 999, 999, 8, 8, 173, 144, 153, 148, 69, 151, 3, 2.46897
313, 1, bw, attraction, a-b-db, 14, 1, 8, 9, 60, 135, 56, 125, 135, 60, 3, 5.71151
313, 1, bw, attraction, a-b-db, 14, 1, 8, 9, 60, 135, 56, 125, 135, 60, 2, 0.608486
313, 1, bw, catch, NA, 999, 999, 8, 10, 107, 148, 163, 152, 65, 130, 2, 1.48546
313, 1, bw, catch, NA, 999, 999, 8, 10, 107, 148, 163, 152, 65, 130, 3, 0.425006
313, 1, bw, attraction, a-b-da, 2, 3, 8, 11, 120, 195, 195, 120, 193, 119, 1, 8.98156
313, 1, bw, attraction, a-b-da, 2, 3, 8, 11, 120, 195, 195, 120, 193, 119, 3, 0.434597
313, 1, bw, filler, NA, 999, 999, 8, 12, 118, 97, 182, 195, 88, 66, 2, 0.591132
313, 1, bw, filler, NA, 999, 999, 8, 12, 118, 97, 182, 195, 88, 66, 3, 0.414277
313, 1, bw, attraction, a-b-db, 5, 1, 8, 13, 58, 132, 135, 60, 60, 135, 3, 1.46735
313, 1, bw, attraction, a-b-db, 5, 1, 8, 13, 58, 132, 135, 60, 60, 135, 2, 0.631583
313, 1, bw, filler, NA, 999, 999, 8, 14, 109, 135, 176, 164, 145, 159, 2, 0.995978
313, 1, bw, filler, NA, 999, 999, 8, 14, 109, 135, 176, 164, 145, 159, 1, 0.43495
313, 1, bw, attraction, a-b-da, 14, 1, 8, 15, 60, 135, 125, 56, 135, 60, 1, 4.43138
313, 1, bw, attraction, a-b-da, 14, 1, 8, 15, 60, 135, 125, 56, 135, 60, 2, 0.516056
313, 1, bw, attraction, a-b-da, 5, 2, 8, 16, 161, 88, 165, 90, 90, 165, 3, 8.13306
313, 1, bw, attraction, a-b-da, 5, 2, 8, 16, 161, 88, 165, 90, 90, 165, 1, 2.35659
313, 1, bw, attraction, a-b-db, 5, 2, 8, 17, 165, 90, 90, 165, 88, 161, 2, 8.69176
313, 1, bw, attraction, a-b-db, 5, 2, 8, 17, 165, 90, 90, 165, 88, 161, 1, 0.588336
313, 1, bw, attraction, a-b-da, 2, 2, 8, 18, 163, 89, 90, 165, 165, 90, 2, 9.73073
313, 1, bw, attraction, a-b-da, 2, 2, 8, 18, 163, 89, 90, 165, 165, 90, 1, 1.48968
313, 1, bw, catch, NA, 999, 999, 8, 19, 158, 97, 112, 83, 170, 145, 3, 0.779842
313, 1, bw, catch, NA, 999, 999, 8, 19, 158, 97, 112, 83, 170, 145, 2, 0.475614
313, 1, bw, attraction, a-b-db, 14, 2, 8, 20, 83, 153, 90, 165, 165, 90, 2, 1.93405
313, 1, bw, attraction, a-b-db, 14, 2, 8, 20, 83, 153, 90, 165, 165, 90, 3, 2.55945
313, 1, bw, attraction, a-b-da, 2, 1, 8, 21, 60, 135, 134, 59, 135, 60, 3, 3.68589
313, 1, bw, attraction, a-b-da, 2, 1, 8, 21, 60, 135, 134, 59, 135, 60, 1, 0.712694
313, 1, bw, filler, NA, 999, 999, 8, 22, 103, 179, 192, 147, 112, 142, 2, 1.02579
313, 1, bw, filler, NA, 999, 999, 8, 22, 103, 179, 192, 147, 112, 142, 3, 1.45545
313, 1, bw, attraction, a-b-db, 5, 3, 8, 23, 195, 120, 120, 195, 117, 190, 2, 14.811
313, 1, bw, attraction, a-b-db, 5, 3, 8, 23, 195, 120, 120, 195, 117, 190, 3, 0.812921
313, 1, bw, attraction, a-b-db, 9, 2, 8, 24, 165, 90, 90, 165, 86, 157, 2, 4.97807
313, 1, bw, attraction, a-b-db, 9, 2, 8, 24, 165, 90, 90, 165, 86, 157, 1, 1.05637
313, 1, bw, attraction, a-b-db, 9, 1, 8, 25, 135, 60, 57, 129, 60, 135, 3, 3.11595
313, 1, bw, attraction, a-b-db, 9, 1, 8, 25, 135, 60, 57, 129, 60, 135, 2, 0.997594
313, 1, bw, attraction, a-b-da, 14, 2, 8, 26, 153, 83, 90, 165, 165, 90, 2, 0.819343
313, 1, bw, attraction, a-b-da, 14, 2, 8, 26, 153, 83, 90, 165, 165, 90, 1, 1.64974
313, 1, bw, attraction, a-b-db, 14, 3, 8, 27, 120, 195, 195, 120, 111, 181, 2, 2.49314
313, 1, bw, attraction, a-b-db, 14, 3, 8, 27, 120, 195, 195, 120, 111, 181, 3, 0.407625
313, 1, bw, attraction, a-b-db, 2, 3, 8, 28, 120, 195, 195, 120, 119, 193, 2, 4.1007
313, 1, bw, attraction, a-b-db, 2, 3, 8, 28, 120, 195, 195, 120, 119, 193, 3, 0.798813
313, 1, bw, attraction, a-b-da, 5, 3, 8, 29, 190, 117, 120, 195, 195, 120, 3, 6.08439
313, 1, bw, attraction, a-b-da, 5, 3, 8, 29, 190, 117, 120, 195, 195, 120, 1, 0.870471
313, 1, bw, attraction, a-b-da, 9, 3, 8, 30, 120, 195, 195, 120, 186, 114, 1, 3.33756
313, 1, bw, attraction, a-b-da, 9, 3, 8, 30, 120, 195, 195, 120, 186, 114, 3, 1.45858
313, 1, bw, filler, NA, 999, 999, 8, 31, 185, 104, 192, 100, 192, 182, 3, 1.14921
313, 1, bw, filler, NA, 999, 999, 8, 31, 185, 104, 192, 100, 192, 182, 2, 1.29424
313, 1, bw, attraction, a-b-da, 5, 1, 8, 32, 132, 58, 135, 60, 60, 135, 2, 6.04775
313, 1, bw, attraction, a-b-da, 5, 1, 8, 32, 132, 58, 135, 60, 60, 135, 1, 0.683118
313, 1, bw, filler, NA, 999, 999, 8, 33, 129, 119, 147, 168, 148, 110, 2, 0.81355
313, 1, bw, filler, NA, 999, 999, 8, 33, 129, 119, 147, 168, 148, 110, 1, 2.11599
313, 1, bw, filler, NA, 999, 999, 8, 34, 78, 83, 100, 71, 159, 94, 3, 1.14058
313, 1, bw, filler, NA, 999, 999, 8, 34, 78, 83, 100, 71, 159, 94, 1, 1.2216
313, 1, bw, attraction, a-b-db, 2, 2, 8, 35, 165, 90, 89, 163, 90, 165, 1, 10.1385
313, 1, bw, attraction, a-b-db, 2, 2, 8, 35, 165, 90, 89, 163, 90, 165, 2, 0.729416
313, 1, bw, attraction, a-b-da, 9, 2, 8, 36, 90, 165, 165, 90, 157, 86, 2, 10.4417
313, 1, bw, attraction, a-b-da, 9, 2, 8, 36, 90, 165, 165, 90, 157, 86, 3, 0.627728
313, 1, bw, filler, NA, 999, 999, 8, 37, 158, 154, 173, 76, 90, 187, 1, 1.08809
313, 1, bw, filler, NA, 999, 999, 8, 37, 158, 154, 173, 76, 90, 187, 2, 0.555106
