sub_n, computer_n, bw_cond, effect, set, distance, diag, block_n, trial_n, h1, w1, h2, w2, h3, w3, choice, rt 
332, 1, wb, practice, NA, 999, 999, 0, 1, 59, 133, 151, 114, 63, 130, 1, 6.33553
332, 1, wb, practice, NA, 999, 999, 0, 1, 59, 133, 151, 114, 63, 130, 2, 2.94229
332, 1, wb, practice, NA, 999, 999, 0, 2, 130, 113, 148, 114, 93, 148, 3, 2.82025
332, 1, wb, practice, NA, 999, 999, 0, 2, 130, 113, 148, 114, 93, 148, 2, 2.80222
332, 1, wb, practice, NA, 999, 999, 0, 3, 104, 128, 151, 160, 176, 164, 1, 2.18825
332, 1, wb, practice, NA, 999, 999, 0, 3, 104, 128, 151, 160, 176, 164, 3, 2.63482
332, 1, wb, attraction, a-b-da, 2, 2, 1, 1, 90, 165, 163, 89, 165, 90, 2, 2.79927
332, 1, wb, attraction, a-b-da, 2, 2, 1, 1, 90, 165, 163, 89, 165, 90, 1, 5.13381
332, 1, wb, filler, NA, 999, 999, 1, 2, 87, 81, 96, 106, 70, 184, 1, 2.05275
332, 1, wb, filler, NA, 999, 999, 1, 2, 87, 81, 96, 106, 70, 184, 3, 2.52138
332, 1, wb, attraction, a-b-da, 5, 1, 1, 3, 135, 60, 132, 58, 60, 135, 2, 2.97793
332, 1, wb, attraction, a-b-da, 5, 1, 1, 3, 135, 60, 132, 58, 60, 135, 3, 1.74507
332, 1, wb, attraction, a-b-da, 14, 3, 1, 4, 195, 120, 181, 111, 120, 195, 2, 2.34428
332, 1, wb, attraction, a-b-da, 14, 3, 1, 4, 195, 120, 181, 111, 120, 195, 1, 1.16089
332, 1, wb, attraction, a-b-db, 2, 1, 1, 5, 135, 60, 60, 135, 59, 134, 1, 3.15979
332, 1, wb, attraction, a-b-db, 2, 1, 1, 5, 135, 60, 60, 135, 59, 134, 2, 2.94343
332, 1, wb, attraction, a-b-da, 9, 2, 1, 6, 157, 86, 165, 90, 90, 165, 2, 2.83058
332, 1, wb, attraction, a-b-da, 9, 2, 1, 6, 157, 86, 165, 90, 90, 165, 3, 1.31553
332, 1, wb, attraction, a-b-db, 2, 3, 1, 7, 119, 193, 120, 195, 195, 120, 3, 3.5885
332, 1, wb, attraction, a-b-db, 2, 3, 1, 7, 119, 193, 120, 195, 195, 120, 1, 2.01864
332, 1, wb, filler, NA, 999, 999, 1, 8, 75, 92, 159, 56, 61, 187, 1, 1.92735
332, 1, wb, filler, NA, 999, 999, 1, 8, 75, 92, 159, 56, 61, 187, 3, 1.52062
332, 1, wb, filler, NA, 999, 999, 1, 9, 183, 122, 182, 121, 182, 139, 1, 3.06541
332, 1, wb, filler, NA, 999, 999, 1, 9, 183, 122, 182, 121, 182, 139, 3, 1.3333
332, 1, wb, catch, NA, 999, 999, 1, 10, 171, 144, 158, 97, 83, 112, 3, 1.70126
332, 1, wb, catch, NA, 999, 999, 1, 10, 171, 144, 158, 97, 83, 112, 1, 0.736058
332, 1, wb, attraction, a-b-da, 5, 3, 1, 11, 195, 120, 120, 195, 190, 117, 3, 6.27239
332, 1, wb, attraction, a-b-da, 5, 3, 1, 11, 195, 120, 120, 195, 190, 117, 1, 1.57917
332, 1, wb, catch, NA, 999, 999, 1, 12, 126, 69, 138, 177, 124, 131, 1, 1.39327
332, 1, wb, catch, NA, 999, 999, 1, 12, 126, 69, 138, 177, 124, 131, 2, 0.560139
332, 1, wb, attraction, a-b-db, 14, 2, 1, 13, 165, 90, 83, 153, 90, 165, 2, 2.00727
332, 1, wb, attraction, a-b-db, 14, 2, 1, 13, 165, 90, 83, 153, 90, 165, 1, 0.81319
332, 1, wb, filler, NA, 999, 999, 1, 14, 170, 180, 131, 90, 116, 65, 3, 0.946203
332, 1, wb, filler, NA, 999, 999, 1, 14, 170, 180, 131, 90, 116, 65, 1, 0.475218
332, 1, wb, attraction, a-b-da, 2, 1, 1, 15, 60, 135, 135, 60, 134, 59, 3, 3.5738
332, 1, wb, attraction, a-b-da, 2, 1, 1, 15, 60, 135, 135, 60, 134, 59, 2, 1.49258
332, 1, wb, attraction, a-b-db, 14, 1, 1, 16, 60, 135, 56, 125, 135, 60, 2, 1.69414
332, 1, wb, attraction, a-b-db, 14, 1, 1, 16, 60, 135, 56, 125, 135, 60, 3, 0.944959
332, 1, wb, attraction, a-b-db, 9, 2, 1, 17, 90, 165, 86, 157, 165, 90, 2, 5.1365
332, 1, wb, attraction, a-b-db, 9, 2, 1, 17, 90, 165, 86, 157, 165, 90, 1, 0.856845
332, 1, wb, attraction, a-b-da, 14, 2, 1, 18, 90, 165, 153, 83, 165, 90, 2, 2.06784
332, 1, wb, attraction, a-b-da, 14, 2, 1, 18, 90, 165, 153, 83, 165, 90, 1, 2.09592
332, 1, wb, catch, NA, 999, 999, 1, 19, 120, 135, 75, 120, 125, 190, 2, 0.825191
332, 1, wb, catch, NA, 999, 999, 1, 19, 120, 135, 75, 120, 125, 190, 3, 0.726936
332, 1, wb, filler, NA, 999, 999, 1, 20, 118, 120, 169, 73, 69, 142, 3, 2.54316
332, 1, wb, filler, NA, 999, 999, 1, 20, 118, 120, 169, 73, 69, 142, 1, 4.1759
332, 1, wb, filler, NA, 999, 999, 1, 21, 120, 178, 143, 85, 85, 146, 2, 1.71711
332, 1, wb, filler, NA, 999, 999, 1, 21, 120, 178, 143, 85, 85, 146, 1, 0.551137
332, 1, wb, attraction, a-b-db, 2, 2, 1, 22, 90, 165, 165, 90, 89, 163, 2, 2.09499
332, 1, wb, attraction, a-b-db, 2, 2, 1, 22, 90, 165, 165, 90, 89, 163, 1, 0.889519
332, 1, wb, attraction, a-b-da, 9, 1, 1, 23, 129, 57, 60, 135, 135, 60, 2, 4.33997
332, 1, wb, attraction, a-b-da, 9, 1, 1, 23, 129, 57, 60, 135, 135, 60, 3, 2.0519
332, 1, wb, filler, NA, 999, 999, 1, 24, 92, 57, 131, 138, 99, 62, 1, 3.37523
332, 1, wb, filler, NA, 999, 999, 1, 24, 92, 57, 131, 138, 99, 62, 2, 0.838024
332, 1, wb, filler, NA, 999, 999, 1, 25, 99, 136, 94, 100, 71, 158, 2, 1.71436
332, 1, wb, filler, NA, 999, 999, 1, 25, 99, 136, 94, 100, 71, 158, 1, 0.716508
332, 1, wb, attraction, a-b-db, 5, 1, 1, 26, 60, 135, 135, 60, 58, 132, 3, 2.25356
332, 1, wb, attraction, a-b-db, 5, 1, 1, 26, 60, 135, 135, 60, 58, 132, 1, 0.682079
332, 1, wb, attraction, a-b-da, 5, 2, 1, 27, 165, 90, 90, 165, 161, 88, 2, 2.8686
332, 1, wb, attraction, a-b-da, 5, 2, 1, 27, 165, 90, 90, 165, 161, 88, 3, 1.63246
332, 1, wb, attraction, a-b-da, 14, 1, 1, 28, 60, 135, 125, 56, 135, 60, 1, 1.37239
332, 1, wb, attraction, a-b-da, 14, 1, 1, 28, 60, 135, 125, 56, 135, 60, 3, 0.739933
332, 1, wb, attraction, a-b-db, 5, 2, 1, 29, 90, 165, 165, 90, 88, 161, 2, 2.88365
332, 1, wb, attraction, a-b-db, 5, 2, 1, 29, 90, 165, 165, 90, 88, 161, 1, 1.02272
332, 1, wb, attraction, a-b-da, 2, 3, 1, 30, 193, 119, 120, 195, 195, 120, 2, 3.6517
332, 1, wb, attraction, a-b-da, 2, 3, 1, 30, 193, 119, 120, 195, 195, 120, 3, 0.640009
332, 1, wb, attraction, a-b-da, 9, 3, 1, 31, 186, 114, 195, 120, 120, 195, 2, 5.29224
332, 1, wb, attraction, a-b-da, 9, 3, 1, 31, 186, 114, 195, 120, 120, 195, 3, 2.03806
332, 1, wb, attraction, a-b-db, 14, 3, 1, 32, 120, 195, 111, 181, 195, 120, 2, 3.88991
332, 1, wb, attraction, a-b-db, 14, 3, 1, 32, 120, 195, 111, 181, 195, 120, 1, 0.644051
332, 1, wb, attraction, a-b-db, 5, 3, 1, 33, 195, 120, 120, 195, 117, 190, 3, 5.47188
332, 1, wb, attraction, a-b-db, 5, 3, 1, 33, 195, 120, 120, 195, 117, 190, 2, 1.23467
332, 1, wb, filler, NA, 999, 999, 1, 34, 138, 68, 82, 88, 184, 168, 2, 1.66288
332, 1, wb, filler, NA, 999, 999, 1, 34, 138, 68, 82, 88, 184, 168, 3, 0.563056
332, 1, wb, attraction, a-b-db, 9, 1, 1, 35, 57, 129, 60, 135, 135, 60, 1, 7.45006
332, 1, wb, attraction, a-b-db, 9, 1, 1, 35, 57, 129, 60, 135, 135, 60, 3, 1.01324
332, 1, wb, attraction, a-b-db, 9, 3, 1, 36, 120, 195, 114, 186, 195, 120, 2, 5.94607
332, 1, wb, attraction, a-b-db, 9, 3, 1, 36, 120, 195, 114, 186, 195, 120, 1, 1.40953
332, 1, wb, filler, NA, 999, 999, 1, 37, 81, 118, 126, 188, 91, 106, 3, 7.9183
332, 1, wb, filler, NA, 999, 999, 1, 37, 81, 118, 126, 188, 91, 106, 2, 0.574413
332, 1, wb, catch, NA, 999, 999, 2, 1, 140, 175, 109, 146, 127, 68, 3, 1.22093
332, 1, wb, catch, NA, 999, 999, 2, 1, 140, 175, 109, 146, 127, 68, 1, 0.626517
332, 1, wb, attraction, a-b-da, 5, 2, 2, 2, 161, 88, 165, 90, 90, 165, 2, 3.81486
332, 1, wb, attraction, a-b-da, 5, 2, 2, 2, 161, 88, 165, 90, 90, 165, 3, 1.79634
332, 1, wb, catch, NA, 999, 999, 2, 3, 171, 144, 118, 77, 159, 96, 2, 0.937829
332, 1, wb, catch, NA, 999, 999, 2, 3, 171, 144, 118, 77, 159, 96, 1, 0.491517
332, 1, wb, attraction, a-b-da, 2, 3, 2, 4, 195, 120, 193, 119, 120, 195, 2, 2.58119
332, 1, wb, attraction, a-b-da, 2, 3, 2, 4, 195, 120, 193, 119, 120, 195, 3, 0.756363
332, 1, wb, attraction, a-b-db, 2, 1, 2, 5, 59, 134, 135, 60, 60, 135, 2, 2.26807
332, 1, wb, attraction, a-b-db, 2, 1, 2, 5, 59, 134, 135, 60, 60, 135, 3, 0.944003
332, 1, wb, attraction, a-b-da, 2, 2, 2, 6, 165, 90, 163, 89, 90, 165, 1, 1.9356
332, 1, wb, attraction, a-b-da, 2, 2, 2, 6, 165, 90, 163, 89, 90, 165, 3, 0.592999
332, 1, wb, filler, NA, 999, 999, 2, 7, 171, 63, 86, 117, 67, 58, 3, 1.1908
332, 1, wb, filler, NA, 999, 999, 2, 7, 171, 63, 86, 117, 67, 58, 1, 2.75769
332, 1, wb, attraction, a-b-da, 14, 2, 2, 8, 153, 83, 165, 90, 90, 165, 1, 1.43612
332, 1, wb, attraction, a-b-da, 14, 2, 2, 8, 153, 83, 165, 90, 90, 165, 3, 0.865646
332, 1, wb, attraction, a-b-db, 14, 2, 2, 9, 83, 153, 90, 165, 165, 90, 1, 1.22064
332, 1, wb, attraction, a-b-db, 14, 2, 2, 9, 83, 153, 90, 165, 165, 90, 2, 0.690259
332, 1, wb, attraction, a-b-db, 2, 2, 2, 10, 89, 163, 90, 165, 165, 90, 1, 2.81191
332, 1, wb, attraction, a-b-db, 2, 2, 2, 10, 89, 163, 90, 165, 165, 90, 2, 0.745765
332, 1, wb, attraction, a-b-da, 5, 3, 2, 11, 190, 117, 195, 120, 120, 195, 3, 3.62544
332, 1, wb, attraction, a-b-da, 5, 3, 2, 11, 190, 117, 195, 120, 120, 195, 2, 0.830307
332, 1, wb, filler, NA, 999, 999, 2, 12, 109, 125, 135, 127, 58, 73, 3, 1.11478
332, 1, wb, filler, NA, 999, 999, 2, 12, 109, 125, 135, 127, 58, 73, 2, 0.740869
332, 1, wb, attraction, a-b-db, 9, 2, 2, 13, 165, 90, 90, 165, 86, 157, 3, 7.01271
332, 1, wb, attraction, a-b-db, 9, 2, 2, 13, 165, 90, 90, 165, 86, 157, 1, 0.52903
332, 1, wb, filler, NA, 999, 999, 2, 14, 67, 108, 65, 126, 169, 112, 2, 2.5936
332, 1, wb, filler, NA, 999, 999, 2, 14, 67, 108, 65, 126, 169, 112, 3, 1.01599
332, 1, wb, attraction, a-b-db, 5, 2, 2, 15, 88, 161, 90, 165, 165, 90, 3, 1.52502
332, 1, wb, attraction, a-b-db, 5, 2, 2, 15, 88, 161, 90, 165, 165, 90, 2, 0.606496
332, 1, wb, filler, NA, 999, 999, 2, 16, 150, 58, 132, 68, 152, 70, 2, 1.5963
332, 1, wb, filler, NA, 999, 999, 2, 16, 150, 58, 132, 68, 152, 70, 3, 3.70704
332, 1, wb, attraction, a-b-db, 9, 1, 2, 17, 135, 60, 57, 129, 60, 135, 2, 1.81179
332, 1, wb, attraction, a-b-db, 9, 1, 2, 17, 135, 60, 57, 129, 60, 135, 1, 1.44993
332, 1, wb, attraction, a-b-da, 14, 3, 2, 18, 181, 111, 120, 195, 195, 120, 1, 2.27739
332, 1, wb, attraction, a-b-da, 14, 3, 2, 18, 181, 111, 120, 195, 195, 120, 2, 1.62467
332, 1, wb, attraction, a-b-db, 14, 1, 2, 19, 60, 135, 56, 125, 135, 60, 3, 1.2847
332, 1, wb, attraction, a-b-db, 14, 1, 2, 19, 60, 135, 56, 125, 135, 60, 1, 2.02423
332, 1, wb, attraction, a-b-db, 5, 1, 2, 20, 135, 60, 58, 132, 60, 135, 2, 2.27633
332, 1, wb, attraction, a-b-db, 5, 1, 2, 20, 135, 60, 58, 132, 60, 135, 1, 1.17569
332, 1, wb, filler, NA, 999, 999, 2, 21, 81, 67, 166, 183, 172, 164, 1, 1.24572
332, 1, wb, filler, NA, 999, 999, 2, 21, 81, 67, 166, 183, 172, 164, 2, 1.07481
332, 1, wb, filler, NA, 999, 999, 2, 22, 62, 190, 150, 140, 166, 98, 1, 4.55702
332, 1, wb, filler, NA, 999, 999, 2, 22, 62, 190, 150, 140, 166, 98, 2, 0.676139
332, 1, wb, attraction, a-b-da, 14, 1, 2, 23, 60, 135, 135, 60, 125, 56, 3, 2.73469
332, 1, wb, attraction, a-b-da, 14, 1, 2, 23, 60, 135, 135, 60, 125, 56, 1, 0.863739
332, 1, wb, attraction, a-b-db, 5, 3, 2, 24, 195, 120, 117, 190, 120, 195, 2, 6.84266
332, 1, wb, attraction, a-b-db, 5, 3, 2, 24, 195, 120, 117, 190, 120, 195, 3, 1.05391
332, 1, wb, attraction, a-b-da, 2, 1, 2, 25, 134, 59, 60, 135, 135, 60, 2, 0.745559
332, 1, wb, attraction, a-b-da, 2, 1, 2, 25, 134, 59, 60, 135, 135, 60, 1, 0.506624
332, 1, wb, filler, NA, 999, 999, 2, 26, 96, 98, 171, 77, 145, 69, 1, 0.964355
332, 1, wb, filler, NA, 999, 999, 2, 26, 96, 98, 171, 77, 145, 69, 2, 1.08462
332, 1, wb, filler, NA, 999, 999, 2, 27, 115, 68, 69, 167, 132, 120, 1, 0.814922
332, 1, wb, filler, NA, 999, 999, 2, 27, 115, 68, 69, 167, 132, 120, 3, 0.605366
332, 1, wb, attraction, a-b-da, 5, 1, 2, 28, 135, 60, 60, 135, 132, 58, 3, 3.36325
332, 1, wb, attraction, a-b-da, 5, 1, 2, 28, 135, 60, 60, 135, 132, 58, 1, 0.658694
332, 1, wb, attraction, a-b-db, 9, 3, 2, 29, 195, 120, 120, 195, 114, 186, 3, 0.997729
332, 1, wb, attraction, a-b-db, 9, 3, 2, 29, 195, 120, 120, 195, 114, 186, 2, 1.12476
332, 1, wb, filler, NA, 999, 999, 2, 30, 192, 153, 100, 152, 91, 137, 3, 3.61304
332, 1, wb, filler, NA, 999, 999, 2, 30, 192, 153, 100, 152, 91, 137, 1, 0.68268
332, 1, wb, attraction, a-b-da, 9, 1, 2, 31, 135, 60, 129, 57, 60, 135, 3, 1.20492
332, 1, wb, attraction, a-b-da, 9, 1, 2, 31, 135, 60, 129, 57, 60, 135, 1, 0.475157
332, 1, wb, attraction, a-b-db, 2, 3, 2, 32, 120, 195, 195, 120, 119, 193, 1, 1.22959
332, 1, wb, attraction, a-b-db, 2, 3, 2, 32, 120, 195, 195, 120, 119, 193, 3, 0.85128
332, 1, wb, filler, NA, 999, 999, 2, 33, 116, 173, 70, 169, 121, 163, 2, 2.03095
332, 1, wb, filler, NA, 999, 999, 2, 33, 116, 173, 70, 169, 121, 163, 1, 0.564218
332, 1, wb, attraction, a-b-da, 9, 3, 2, 34, 195, 120, 186, 114, 120, 195, 2, 2.36332
332, 1, wb, attraction, a-b-da, 9, 3, 2, 34, 195, 120, 186, 114, 120, 195, 1, 1.53128
332, 1, wb, attraction, a-b-db, 14, 3, 2, 35, 120, 195, 195, 120, 111, 181, 3, 2.57132
332, 1, wb, attraction, a-b-db, 14, 3, 2, 35, 120, 195, 195, 120, 111, 181, 1, 1.64324
332, 1, wb, catch, NA, 999, 999, 2, 36, 101, 154, 121, 194, 76, 119, 3, 0.726662
332, 1, wb, catch, NA, 999, 999, 2, 36, 101, 154, 121, 194, 76, 119, 2, 0.680371
332, 1, wb, attraction, a-b-da, 9, 2, 2, 37, 157, 86, 165, 90, 90, 165, 2, 3.89885
332, 1, wb, attraction, a-b-da, 9, 2, 2, 37, 157, 86, 165, 90, 90, 165, 1, 0.853007
332, 1, wb, attraction, a-b-da, 5, 1, 3, 1, 135, 60, 132, 58, 60, 135, 3, 2.6005
332, 1, wb, attraction, a-b-da, 5, 1, 3, 1, 135, 60, 132, 58, 60, 135, 1, 1.52714
332, 1, wb, attraction, a-b-db, 2, 2, 3, 2, 165, 90, 90, 165, 89, 163, 2, 2.14313
332, 1, wb, attraction, a-b-db, 2, 2, 3, 2, 165, 90, 90, 165, 89, 163, 1, 2.58381
332, 1, wb, catch, NA, 999, 999, 3, 3, 143, 112, 169, 146, 129, 66, 3, 1.10958
332, 1, wb, catch, NA, 999, 999, 3, 3, 143, 112, 169, 146, 129, 66, 2, 0.759837
332, 1, wb, attraction, a-b-da, 14, 3, 3, 4, 120, 195, 181, 111, 195, 120, 2, 1.4869
332, 1, wb, attraction, a-b-da, 14, 3, 3, 4, 120, 195, 181, 111, 195, 120, 1, 0.778512
332, 1, wb, catch, NA, 999, 999, 3, 5, 111, 84, 167, 148, 93, 162, 1, 1.12876
332, 1, wb, catch, NA, 999, 999, 3, 5, 111, 84, 167, 148, 93, 162, 2, 0.586437
332, 1, wb, filler, NA, 999, 999, 3, 6, 147, 189, 58, 117, 88, 61, 3, 1.47289
332, 1, wb, filler, NA, 999, 999, 3, 6, 147, 189, 58, 117, 88, 61, 1, 0.484544
332, 1, wb, attraction, a-b-da, 9, 1, 3, 7, 60, 135, 129, 57, 135, 60, 2, 2.21477
332, 1, wb, attraction, a-b-da, 9, 1, 3, 7, 60, 135, 129, 57, 135, 60, 3, 0.812735
332, 1, wb, attraction, a-b-da, 14, 2, 3, 8, 153, 83, 90, 165, 165, 90, 1, 3.72971
332, 1, wb, attraction, a-b-da, 14, 2, 3, 8, 153, 83, 90, 165, 165, 90, 2, 1.09057
332, 1, wb, attraction, a-b-db, 14, 2, 3, 9, 83, 153, 165, 90, 90, 165, 1, 1.81216
332, 1, wb, attraction, a-b-db, 14, 2, 3, 9, 83, 153, 165, 90, 90, 165, 3, 0.794306
332, 1, wb, filler, NA, 999, 999, 3, 10, 118, 92, 110, 160, 130, 74, 3, 2.07992
332, 1, wb, filler, NA, 999, 999, 3, 10, 118, 92, 110, 160, 130, 74, 2, 0.515233
332, 1, wb, attraction, a-b-da, 2, 1, 3, 11, 60, 135, 134, 59, 135, 60, 2, 1.89247
332, 1, wb, attraction, a-b-da, 2, 1, 3, 11, 60, 135, 134, 59, 135, 60, 3, 1.47927
332, 1, wb, catch, NA, 999, 999, 3, 12, 178, 137, 143, 112, 83, 112, 3, 0.825297
332, 1, wb, catch, NA, 999, 999, 3, 12, 178, 137, 143, 112, 83, 112, 1, 0.470972
332, 1, wb, filler, NA, 999, 999, 3, 13, 81, 160, 152, 153, 141, 96, 1, 0.938059
332, 1, wb, filler, NA, 999, 999, 3, 13, 81, 160, 152, 153, 141, 96, 2, 0.526605
332, 1, wb, attraction, a-b-da, 2, 2, 3, 14, 165, 90, 163, 89, 90, 165, 2, 3.9563
332, 1, wb, attraction, a-b-da, 2, 2, 3, 14, 165, 90, 163, 89, 90, 165, 1, 1.6276
332, 1, wb, attraction, a-b-db, 5, 3, 3, 15, 117, 190, 120, 195, 195, 120, 3, 3.2718
332, 1, wb, attraction, a-b-db, 5, 3, 3, 15, 117, 190, 120, 195, 195, 120, 1, 2.77943
332, 1, wb, attraction, a-b-db, 5, 2, 3, 16, 165, 90, 88, 161, 90, 165, 3, 2.26518
332, 1, wb, attraction, a-b-db, 5, 2, 3, 16, 165, 90, 88, 161, 90, 165, 1, 3.30898
332, 1, wb, filler, NA, 999, 999, 3, 17, 105, 74, 153, 177, 187, 130, 1, 1.60536
332, 1, wb, filler, NA, 999, 999, 3, 17, 105, 74, 153, 177, 187, 130, 2, 3.25942
332, 1, wb, filler, NA, 999, 999, 3, 18, 158, 122, 75, 98, 193, 119, 2, 1.87771
332, 1, wb, filler, NA, 999, 999, 3, 18, 158, 122, 75, 98, 193, 119, 3, 0.609006
332, 1, wb, attraction, a-b-db, 9, 3, 3, 19, 114, 186, 120, 195, 195, 120, 1, 3.69416
332, 1, wb, attraction, a-b-db, 9, 3, 3, 19, 114, 186, 120, 195, 195, 120, 2, 1.28833
332, 1, wb, attraction, a-b-db, 14, 1, 3, 20, 135, 60, 56, 125, 60, 135, 2, 2.18647
332, 1, wb, attraction, a-b-db, 14, 1, 3, 20, 135, 60, 56, 125, 60, 135, 1, 0.729784
332, 1, wb, attraction, a-b-da, 5, 3, 3, 21, 120, 195, 190, 117, 195, 120, 2, 2.90621
332, 1, wb, attraction, a-b-da, 5, 3, 3, 21, 120, 195, 190, 117, 195, 120, 1, 0.899781
332, 1, wb, attraction, a-b-db, 5, 1, 3, 22, 60, 135, 58, 132, 135, 60, 2, 1.92562
332, 1, wb, attraction, a-b-db, 5, 1, 3, 22, 60, 135, 58, 132, 135, 60, 3, 0.895098
332, 1, wb, attraction, a-b-db, 2, 1, 3, 23, 60, 135, 135, 60, 59, 134, 2, 0.944597
332, 1, wb, attraction, a-b-db, 2, 1, 3, 23, 60, 135, 135, 60, 59, 134, 1, 1.10561
332, 1, wb, attraction, a-b-da, 9, 3, 3, 24, 186, 114, 120, 195, 195, 120, 3, 3.37921
332, 1, wb, attraction, a-b-da, 9, 3, 3, 24, 186, 114, 120, 195, 195, 120, 2, 1.87414
332, 1, wb, attraction, a-b-da, 2, 3, 3, 25, 120, 195, 195, 120, 193, 119, 1, 2.15608
332, 1, wb, attraction, a-b-da, 2, 3, 3, 25, 120, 195, 195, 120, 193, 119, 3, 1.53208
332, 1, wb, attraction, a-b-da, 5, 2, 3, 26, 90, 165, 165, 90, 161, 88, 3, 2.33219
332, 1, wb, attraction, a-b-da, 5, 2, 3, 26, 90, 165, 165, 90, 161, 88, 2, 0.885423
332, 1, wb, attraction, a-b-da, 9, 2, 3, 27, 165, 90, 157, 86, 90, 165, 2, 1.43986
332, 1, wb, attraction, a-b-da, 9, 2, 3, 27, 165, 90, 157, 86, 90, 165, 3, 1.2206
332, 1, wb, attraction, a-b-db, 9, 2, 3, 28, 165, 90, 90, 165, 86, 157, 3, 1.91352
332, 1, wb, attraction, a-b-db, 9, 2, 3, 28, 165, 90, 90, 165, 86, 157, 1, 0.803689
332, 1, wb, attraction, a-b-db, 9, 1, 3, 29, 135, 60, 57, 129, 60, 135, 2, 1.22526
332, 1, wb, attraction, a-b-db, 9, 1, 3, 29, 135, 60, 57, 129, 60, 135, 1, 0.726848
332, 1, wb, filler, NA, 999, 999, 3, 30, 185, 126, 174, 125, 91, 98, 3, 0.927206
332, 1, wb, filler, NA, 999, 999, 3, 30, 185, 126, 174, 125, 91, 98, 2, 0.920899
332, 1, wb, filler, NA, 999, 999, 3, 31, 103, 174, 164, 118, 83, 59, 3, 1.20199
332, 1, wb, filler, NA, 999, 999, 3, 31, 103, 174, 164, 118, 83, 59, 2, 1.8889
332, 1, wb, filler, NA, 999, 999, 3, 32, 57, 171, 128, 97, 85, 56, 3, 1.39499
332, 1, wb, filler, NA, 999, 999, 3, 32, 57, 171, 128, 97, 85, 56, 2, 1.2417
332, 1, wb, attraction, a-b-da, 14, 1, 3, 33, 125, 56, 135, 60, 60, 135, 3, 6.52537
332, 1, wb, attraction, a-b-da, 14, 1, 3, 33, 125, 56, 135, 60, 60, 135, 2, 0.845215
332, 1, wb, attraction, a-b-db, 14, 3, 3, 34, 111, 181, 120, 195, 195, 120, 1, 2.51286
332, 1, wb, attraction, a-b-db, 14, 3, 3, 34, 111, 181, 120, 195, 195, 120, 3, 0.6907
332, 1, wb, filler, NA, 999, 999, 3, 35, 88, 147, 69, 190, 153, 80, 1, 1.69254
332, 1, wb, filler, NA, 999, 999, 3, 35, 88, 147, 69, 190, 153, 80, 3, 0.847343
332, 1, wb, attraction, a-b-db, 2, 3, 3, 36, 195, 120, 120, 195, 119, 193, 3, 5.45902
332, 1, wb, attraction, a-b-db, 2, 3, 3, 36, 195, 120, 120, 195, 119, 193, 1, 2.50984
332, 1, wb, filler, NA, 999, 999, 3, 37, 127, 147, 96, 173, 151, 175, 2, 1.84631
332, 1, wb, filler, NA, 999, 999, 3, 37, 127, 147, 96, 173, 151, 175, 3, 0.603177
332, 1, wb, attraction, a-b-db, 5, 1, 4, 1, 135, 60, 58, 132, 60, 135, 3, 1.26492
332, 1, wb, attraction, a-b-db, 5, 1, 4, 1, 135, 60, 58, 132, 60, 135, 1, 0.461053
332, 1, wb, attraction, a-b-da, 14, 3, 4, 2, 195, 120, 181, 111, 120, 195, 2, 2.19218
332, 1, wb, attraction, a-b-da, 14, 3, 4, 2, 195, 120, 181, 111, 120, 195, 1, 0.726822
332, 1, wb, catch, NA, 999, 999, 4, 3, 102, 153, 124, 71, 163, 152, 2, 1.08714
332, 1, wb, catch, NA, 999, 999, 4, 3, 102, 153, 124, 71, 163, 152, 3, 0.738835
332, 1, wb, attraction, a-b-da, 2, 2, 4, 4, 90, 165, 165, 90, 163, 89, 1, 1.41115
332, 1, wb, attraction, a-b-da, 2, 2, 4, 4, 90, 165, 165, 90, 163, 89, 3, 0.761352
332, 1, wb, attraction, a-b-db, 9, 1, 4, 5, 135, 60, 57, 129, 60, 135, 2, 0.968472
332, 1, wb, attraction, a-b-db, 9, 1, 4, 5, 135, 60, 57, 129, 60, 135, 1, 0.592788
332, 1, wb, attraction, a-b-da, 2, 1, 4, 6, 135, 60, 60, 135, 134, 59, 3, 1.24667
332, 1, wb, attraction, a-b-da, 2, 1, 4, 6, 135, 60, 60, 135, 134, 59, 1, 0.69942
332, 1, wb, filler, NA, 999, 999, 4, 7, 95, 64, 81, 161, 168, 166, 1, 1.22121
332, 1, wb, filler, NA, 999, 999, 4, 7, 95, 64, 81, 161, 168, 166, 3, 0.515444
332, 1, wb, attraction, a-b-db, 2, 2, 4, 8, 165, 90, 89, 163, 90, 165, 3, 4.69276
332, 1, wb, attraction, a-b-db, 2, 2, 4, 8, 165, 90, 89, 163, 90, 165, 1, 0.398407
332, 1, wb, attraction, a-b-da, 9, 2, 4, 9, 165, 90, 90, 165, 157, 86, 3, 2.0442
332, 1, wb, attraction, a-b-da, 9, 2, 4, 9, 165, 90, 90, 165, 157, 86, 1, 0.568929
332, 1, wb, filler, NA, 999, 999, 4, 10, 171, 150, 161, 71, 150, 194, 2, 1.79999
332, 1, wb, filler, NA, 999, 999, 4, 10, 171, 150, 161, 71, 150, 194, 3, 2.94277
332, 1, wb, attraction, a-b-da, 14, 1, 4, 11, 125, 56, 135, 60, 60, 135, 3, 1.46982
332, 1, wb, attraction, a-b-da, 14, 1, 4, 11, 125, 56, 135, 60, 60, 135, 2, 0.569921
332, 1, wb, filler, NA, 999, 999, 4, 12, 114, 183, 115, 146, 169, 173, 2, 1.01697
332, 1, wb, filler, NA, 999, 999, 4, 12, 114, 183, 115, 146, 169, 173, 3, 0.407272
332, 1, wb, catch, NA, 999, 999, 4, 13, 168, 147, 141, 114, 107, 88, 3, 1.02856
332, 1, wb, catch, NA, 999, 999, 4, 13, 168, 147, 141, 114, 107, 88, 1, 0.546155
332, 1, wb, attraction, a-b-db, 2, 1, 4, 14, 135, 60, 60, 135, 59, 134, 3, 1.04188
332, 1, wb, attraction, a-b-db, 2, 1, 4, 14, 135, 60, 60, 135, 59, 134, 1, 1.66294
332, 1, wb, attraction, a-b-db, 9, 3, 4, 15, 120, 195, 195, 120, 114, 186, 3, 3.48169
332, 1, wb, attraction, a-b-db, 9, 3, 4, 15, 120, 195, 195, 120, 114, 186, 1, 1.34866
332, 1, wb, filler, NA, 999, 999, 4, 16, 160, 58, 171, 153, 101, 92, 1, 2.96406
332, 1, wb, filler, NA, 999, 999, 4, 16, 160, 58, 171, 153, 101, 92, 2, 0.563809
332, 1, wb, filler, NA, 999, 999, 4, 17, 142, 119, 119, 129, 135, 111, 3, 2.53087
332, 1, wb, filler, NA, 999, 999, 4, 17, 142, 119, 119, 129, 135, 111, 1, 1.66005
332, 1, wb, filler, NA, 999, 999, 4, 18, 165, 169, 88, 119, 187, 97, 2, 1.70285
332, 1, wb, filler, NA, 999, 999, 4, 18, 165, 169, 88, 119, 187, 97, 1, 1.24964
332, 1, wb, catch, NA, 999, 999, 4, 19, 100, 95, 158, 157, 102, 153, 1, 1.24507
332, 1, wb, catch, NA, 999, 999, 4, 19, 100, 95, 158, 157, 102, 153, 2, 0.617996
332, 1, wb, attraction, a-b-db, 14, 3, 4, 20, 111, 181, 195, 120, 120, 195, 1, 2.8951
332, 1, wb, attraction, a-b-db, 14, 3, 4, 20, 111, 181, 195, 120, 120, 195, 3, 1.23353
332, 1, wb, filler, NA, 999, 999, 4, 21, 63, 66, 175, 170, 142, 125, 1, 0.701683
332, 1, wb, filler, NA, 999, 999, 4, 21, 63, 66, 175, 170, 142, 125, 2, 0.78489
332, 1, wb, attraction, a-b-da, 14, 2, 4, 22, 90, 165, 165, 90, 153, 83, 3, 1.39121
332, 1, wb, attraction, a-b-da, 14, 2, 4, 22, 90, 165, 165, 90, 153, 83, 1, 1.69403
332, 1, wb, attraction, a-b-da, 5, 3, 4, 23, 190, 117, 120, 195, 195, 120, 3, 7.91955
332, 1, wb, attraction, a-b-da, 5, 3, 4, 23, 190, 117, 120, 195, 195, 120, 2, 1.31171
332, 1, wb, attraction, a-b-db, 2, 3, 4, 24, 119, 193, 195, 120, 120, 195, 1, 2.56059
332, 1, wb, attraction, a-b-db, 2, 3, 4, 24, 119, 193, 195, 120, 120, 195, 3, 2.17644
332, 1, wb, attraction, a-b-da, 5, 1, 4, 25, 60, 135, 135, 60, 132, 58, 1, 3.27031
332, 1, wb, attraction, a-b-da, 5, 1, 4, 25, 60, 135, 135, 60, 132, 58, 3, 2.40999
332, 1, wb, attraction, a-b-db, 5, 3, 4, 26, 195, 120, 120, 195, 117, 190, 2, 4.59047
332, 1, wb, attraction, a-b-db, 5, 3, 4, 26, 195, 120, 120, 195, 117, 190, 1, 2.34032
332, 1, wb, filler, NA, 999, 999, 4, 27, 162, 85, 170, 114, 184, 76, 1, 1.41218
332, 1, wb, filler, NA, 999, 999, 4, 27, 162, 85, 170, 114, 184, 76, 2, 1.02642
332, 1, wb, attraction, a-b-da, 9, 3, 4, 28, 195, 120, 186, 114, 120, 195, 2, 3.23865
332, 1, wb, attraction, a-b-da, 9, 3, 4, 28, 195, 120, 186, 114, 120, 195, 1, 1.93095
332, 1, wb, attraction, a-b-da, 9, 1, 4, 29, 135, 60, 129, 57, 60, 135, 2, 1.31494
332, 1, wb, attraction, a-b-da, 9, 1, 4, 29, 135, 60, 129, 57, 60, 135, 1, 1.3572
332, 1, wb, attraction, a-b-db, 14, 1, 4, 30, 56, 125, 60, 135, 135, 60, 1, 2.92399
332, 1, wb, attraction, a-b-db, 14, 1, 4, 30, 56, 125, 60, 135, 135, 60, 3, 0.629147
332, 1, wb, attraction, a-b-db, 9, 2, 4, 31, 90, 165, 86, 157, 165, 90, 3, 1.60962
332, 1, wb, attraction, a-b-db, 9, 2, 4, 31, 90, 165, 86, 157, 165, 90, 1, 0.727599
332, 1, wb, attraction, a-b-db, 5, 2, 4, 32, 88, 161, 165, 90, 90, 165, 2, 1.46404
332, 1, wb, attraction, a-b-db, 5, 2, 4, 32, 88, 161, 165, 90, 90, 165, 1, 0.900155
332, 1, wb, attraction, a-b-db, 14, 2, 4, 33, 165, 90, 83, 153, 90, 165, 2, 1.43785
332, 1, wb, attraction, a-b-db, 14, 2, 4, 33, 165, 90, 83, 153, 90, 165, 1, 2.09869
332, 1, wb, filler, NA, 999, 999, 4, 34, 120, 187, 193, 81, 73, 167, 3, 1.81999
332, 1, wb, filler, NA, 999, 999, 4, 34, 120, 187, 193, 81, 73, 167, 1, 0.69013
332, 1, wb, attraction, a-b-da, 2, 3, 4, 35, 120, 195, 195, 120, 193, 119, 2, 3.30774
332, 1, wb, attraction, a-b-da, 2, 3, 4, 35, 120, 195, 195, 120, 193, 119, 1, 0.821355
332, 1, wb, attraction, a-b-da, 5, 2, 4, 36, 165, 90, 161, 88, 90, 165, 2, 2.27446
332, 1, wb, attraction, a-b-da, 5, 2, 4, 36, 165, 90, 161, 88, 90, 165, 1, 1.10172
332, 1, wb, filler, NA, 999, 999, 4, 37, 116, 82, 130, 127, 71, 131, 3, 1.11131
332, 1, wb, filler, NA, 999, 999, 4, 37, 116, 82, 130, 127, 71, 131, 2, 0.425596
332, 1, wb, attraction, a-b-db, 5, 1, 5, 1, 58, 132, 60, 135, 135, 60, 2, 2.13265
332, 1, wb, attraction, a-b-db, 5, 1, 5, 1, 58, 132, 60, 135, 135, 60, 1, 0.845938
332, 1, wb, filler, NA, 999, 999, 5, 2, 105, 61, 184, 190, 160, 127, 1, 1.08964
332, 1, wb, filler, NA, 999, 999, 5, 2, 105, 61, 184, 190, 160, 127, 2, 0.804634
332, 1, wb, filler, NA, 999, 999, 5, 3, 135, 100, 152, 159, 60, 183, 1, 2.86637
332, 1, wb, filler, NA, 999, 999, 5, 3, 135, 100, 152, 159, 60, 183, 2, 0.790128
332, 1, wb, attraction, a-b-da, 2, 2, 5, 4, 165, 90, 90, 165, 163, 89, 2, 1.59577
332, 1, wb, attraction, a-b-da, 2, 2, 5, 4, 165, 90, 90, 165, 163, 89, 1, 0.594586
332, 1, wb, attraction, a-b-db, 14, 1, 5, 5, 56, 125, 135, 60, 60, 135, 1, 1.88835
332, 1, wb, attraction, a-b-db, 14, 1, 5, 5, 56, 125, 135, 60, 60, 135, 3, 0.571737
332, 1, wb, attraction, a-b-db, 9, 1, 5, 6, 135, 60, 57, 129, 60, 135, 2, 2.31486
332, 1, wb, attraction, a-b-db, 9, 1, 5, 6, 135, 60, 57, 129, 60, 135, 1, 0.884695
332, 1, wb, catch, NA, 999, 999, 5, 7, 112, 83, 120, 195, 160, 95, 1, 1.13504
332, 1, wb, catch, NA, 999, 999, 5, 7, 112, 83, 120, 195, 160, 95, 2, 0.37663
332, 1, wb, attraction, a-b-da, 14, 2, 5, 8, 90, 165, 165, 90, 153, 83, 3, 2.12721
332, 1, wb, attraction, a-b-da, 14, 2, 5, 8, 90, 165, 165, 90, 153, 83, 1, 1.22447
332, 1, wb, attraction, a-b-da, 5, 2, 5, 9, 161, 88, 165, 90, 90, 165, 2, 3.10066
332, 1, wb, attraction, a-b-da, 5, 2, 5, 9, 161, 88, 165, 90, 90, 165, 3, 0.423041
332, 1, wb, attraction, a-b-da, 5, 3, 5, 10, 190, 117, 120, 195, 195, 120, 3, 1.89208
332, 1, wb, attraction, a-b-da, 5, 3, 5, 10, 190, 117, 120, 195, 195, 120, 2, 1.58296
332, 1, wb, filler, NA, 999, 999, 5, 11, 85, 133, 100, 71, 93, 98, 2, 2.021
332, 1, wb, filler, NA, 999, 999, 5, 11, 85, 133, 100, 71, 93, 98, 1, 3.01829
332, 1, wb, attraction, a-b-db, 9, 3, 5, 12, 114, 186, 120, 195, 195, 120, 2, 2.19076
332, 1, wb, attraction, a-b-db, 9, 3, 5, 12, 114, 186, 120, 195, 195, 120, 1, 3.05336
332, 1, wb, attraction, a-b-da, 14, 1, 5, 13, 125, 56, 135, 60, 60, 135, 2, 1.65624
332, 1, wb, attraction, a-b-da, 14, 1, 5, 13, 125, 56, 135, 60, 60, 135, 3, 1.07645
332, 1, wb, catch, NA, 999, 999, 5, 14, 101, 94, 159, 156, 121, 134, 1, 0.982682
332, 1, wb, catch, NA, 999, 999, 5, 14, 101, 94, 159, 156, 121, 134, 2, 0.598302
332, 1, wb, attraction, a-b-db, 2, 2, 5, 15, 90, 165, 89, 163, 165, 90, 2, 1.38814
332, 1, wb, attraction, a-b-db, 2, 2, 5, 15, 90, 165, 89, 163, 165, 90, 3, 1.9237
332, 1, wb, attraction, a-b-da, 9, 3, 5, 16, 120, 195, 195, 120, 186, 114, 2, 2.09967
332, 1, wb, attraction, a-b-da, 9, 3, 5, 16, 120, 195, 195, 120, 186, 114, 1, 0.750262
332, 1, wb, filler, NA, 999, 999, 5, 17, 164, 117, 130, 115, 149, 89, 3, 5.57406
332, 1, wb, filler, NA, 999, 999, 5, 17, 164, 117, 130, 115, 149, 89, 1, 0.58828
332, 1, wb, attraction, a-b-db, 5, 3, 5, 18, 117, 190, 195, 120, 120, 195, 2, 1.14659
332, 1, wb, attraction, a-b-db, 5, 3, 5, 18, 117, 190, 195, 120, 120, 195, 3, 0.67566
332, 1, wb, attraction, a-b-db, 5, 2, 5, 19, 165, 90, 90, 165, 88, 161, 2, 2.43003
332, 1, wb, attraction, a-b-db, 5, 2, 5, 19, 165, 90, 90, 165, 88, 161, 1, 0.61131
332, 1, wb, attraction, a-b-db, 2, 3, 5, 20, 119, 193, 120, 195, 195, 120, 2, 2.65635
332, 1, wb, attraction, a-b-db, 2, 3, 5, 20, 119, 193, 120, 195, 195, 120, 3, 1.1081
332, 1, wb, attraction, a-b-da, 9, 2, 5, 21, 157, 86, 165, 90, 90, 165, 2, 2.58913
332, 1, wb, attraction, a-b-da, 9, 2, 5, 21, 157, 86, 165, 90, 90, 165, 3, 0.427485
332, 1, wb, attraction, a-b-db, 2, 1, 5, 22, 135, 60, 60, 135, 59, 134, 2, 0.984037
332, 1, wb, attraction, a-b-db, 2, 1, 5, 22, 135, 60, 60, 135, 59, 134, 1, 2.00771
332, 1, wb, attraction, a-b-da, 9, 1, 5, 23, 129, 57, 135, 60, 60, 135, 3, 1.54027
332, 1, wb, attraction, a-b-da, 9, 1, 5, 23, 129, 57, 135, 60, 60, 135, 1, 1.96516
332, 1, wb, filler, NA, 999, 999, 5, 24, 166, 136, 67, 146, 128, 116, 2, 0.979789
332, 1, wb, filler, NA, 999, 999, 5, 24, 166, 136, 67, 146, 128, 116, 1, 0.443431
332, 1, wb, attraction, a-b-da, 14, 3, 5, 25, 181, 111, 120, 195, 195, 120, 1, 1.63925
332, 1, wb, attraction, a-b-da, 14, 3, 5, 25, 181, 111, 120, 195, 195, 120, 2, 0.412114
332, 1, wb, attraction, a-b-db, 14, 3, 5, 26, 195, 120, 111, 181, 120, 195, 2, 1.78521
332, 1, wb, attraction, a-b-db, 14, 3, 5, 26, 195, 120, 111, 181, 120, 195, 1, 0.520588
332, 1, wb, filler, NA, 999, 999, 5, 27, 100, 127, 143, 74, 84, 162, 2, 1.37771
332, 1, wb, filler, NA, 999, 999, 5, 27, 100, 127, 143, 74, 84, 162, 3, 0.801392
332, 1, wb, filler, NA, 999, 999, 5, 28, 186, 71, 95, 67, 89, 178, 2, 1.11892
332, 1, wb, filler, NA, 999, 999, 5, 28, 186, 71, 95, 67, 89, 178, 3, 0.433187
332, 1, wb, attraction, a-b-da, 5, 1, 5, 29, 132, 58, 60, 135, 135, 60, 2, 1.70176
332, 1, wb, attraction, a-b-da, 5, 1, 5, 29, 132, 58, 60, 135, 135, 60, 1, 0.464527
332, 1, wb, attraction, a-b-da, 2, 1, 5, 30, 134, 59, 135, 60, 60, 135, 2, 2.30767
332, 1, wb, attraction, a-b-da, 2, 1, 5, 30, 134, 59, 135, 60, 60, 135, 1, 0.597658
332, 1, wb, filler, NA, 999, 999, 5, 31, 104, 116, 100, 73, 149, 152, 2, 1.49133
332, 1, wb, filler, NA, 999, 999, 5, 31, 104, 116, 100, 73, 149, 152, 3, 0.510167
332, 1, wb, filler, NA, 999, 999, 5, 32, 101, 106, 129, 59, 193, 142, 2, 2.22328
332, 1, wb, filler, NA, 999, 999, 5, 32, 101, 106, 129, 59, 193, 142, 3, 0.34057
332, 1, wb, attraction, a-b-da, 2, 3, 5, 33, 120, 195, 195, 120, 193, 119, 3, 1.32444
332, 1, wb, attraction, a-b-da, 2, 3, 5, 33, 120, 195, 195, 120, 193, 119, 2, 0.997998
332, 1, wb, filler, NA, 999, 999, 5, 34, 61, 102, 139, 63, 127, 95, 1, 1.13166
332, 1, wb, filler, NA, 999, 999, 5, 34, 61, 102, 139, 63, 127, 95, 3, 0.429214
332, 1, wb, attraction, a-b-db, 9, 2, 5, 35, 165, 90, 90, 165, 86, 157, 3, 1.93771
332, 1, wb, attraction, a-b-db, 9, 2, 5, 35, 165, 90, 90, 165, 86, 157, 1, 1.75438
332, 1, wb, attraction, a-b-db, 14, 2, 5, 36, 165, 90, 83, 153, 90, 165, 2, 1.36972
332, 1, wb, attraction, a-b-db, 14, 2, 5, 36, 165, 90, 83, 153, 90, 165, 1, 2.29811
332, 1, wb, catch, NA, 999, 999, 5, 37, 129, 126, 67, 128, 134, 181, 2, 0.739237
332, 1, wb, catch, NA, 999, 999, 5, 37, 129, 126, 67, 128, 134, 181, 3, 0.436372
332, 1, wb, catch, NA, 999, 999, 6, 1, 124, 191, 128, 67, 150, 105, 2, 1.05669
332, 1, wb, catch, NA, 999, 999, 6, 1, 124, 191, 128, 67, 150, 105, 1, 0.389105
332, 1, wb, filler, NA, 999, 999, 6, 2, 162, 181, 98, 61, 110, 118, 2, 1.12359
332, 1, wb, filler, NA, 999, 999, 6, 2, 162, 181, 98, 61, 110, 118, 1, 0.389169
332, 1, wb, filler, NA, 999, 999, 6, 3, 116, 171, 91, 67, 134, 177, 2, 1.15564
332, 1, wb, filler, NA, 999, 999, 6, 3, 116, 171, 91, 67, 134, 177, 3, 0.467905
332, 1, wb, attraction, a-b-da, 14, 1, 6, 4, 125, 56, 60, 135, 135, 60, 2, 3.49508
332, 1, wb, attraction, a-b-da, 14, 1, 6, 4, 125, 56, 60, 135, 135, 60, 3, 2.36931
332, 1, wb, attraction, a-b-da, 9, 3, 6, 5, 195, 120, 186, 114, 120, 195, 2, 1.73587
332, 1, wb, attraction, a-b-da, 9, 3, 6, 5, 195, 120, 186, 114, 120, 195, 1, 1.96928
332, 1, wb, filler, NA, 999, 999, 6, 6, 102, 180, 92, 84, 78, 113, 2, 0.687861
332, 1, wb, filler, NA, 999, 999, 6, 6, 102, 180, 92, 84, 78, 113, 1, 0.394935
332, 1, wb, attraction, a-b-db, 9, 3, 6, 7, 195, 120, 120, 195, 114, 186, 2, 1.24881
332, 1, wb, attraction, a-b-db, 9, 3, 6, 7, 195, 120, 120, 195, 114, 186, 1, 0.477902
332, 1, wb, filler, NA, 999, 999, 6, 8, 177, 136, 147, 128, 66, 177, 3, 1.20811
332, 1, wb, filler, NA, 999, 999, 6, 8, 177, 136, 147, 128, 66, 177, 1, 0.854564
332, 1, wb, attraction, a-b-da, 2, 2, 6, 9, 165, 90, 163, 89, 90, 165, 2, 3.61816
332, 1, wb, attraction, a-b-da, 2, 2, 6, 9, 165, 90, 163, 89, 90, 165, 1, 0.935595
332, 1, wb, filler, NA, 999, 999, 6, 10, 166, 77, 63, 65, 88, 154, 2, 0.855937
332, 1, wb, filler, NA, 999, 999, 6, 10, 166, 77, 63, 65, 88, 154, 3, 0.380275
332, 1, wb, filler, NA, 999, 999, 6, 11, 70, 114, 77, 96, 68, 192, 2, 3.40281
332, 1, wb, filler, NA, 999, 999, 6, 11, 70, 114, 77, 96, 68, 192, 3, 1.33706
332, 1, wb, filler, NA, 999, 999, 6, 12, 101, 91, 102, 192, 188, 153, 1, 0.721313
332, 1, wb, filler, NA, 999, 999, 6, 12, 101, 91, 102, 192, 188, 153, 3, 0.763702
332, 1, wb, catch, NA, 999, 999, 6, 13, 122, 133, 187, 128, 62, 133, 3, 0.858697
332, 1, wb, catch, NA, 999, 999, 6, 13, 122, 133, 187, 128, 62, 133, 2, 0.535107
332, 1, wb, filler, NA, 999, 999, 6, 14, 189, 88, 185, 128, 62, 148, 3, 1.75955
332, 1, wb, filler, NA, 999, 999, 6, 14, 189, 88, 185, 128, 62, 148, 2, 0.511578
332, 1, wb, attraction, a-b-da, 14, 3, 6, 15, 120, 195, 181, 111, 195, 120, 2, 1.60075
332, 1, wb, attraction, a-b-da, 14, 3, 6, 15, 120, 195, 181, 111, 195, 120, 3, 0.583667
332, 1, wb, attraction, a-b-db, 5, 2, 6, 16, 88, 161, 165, 90, 90, 165, 1, 2.18204
332, 1, wb, attraction, a-b-db, 5, 2, 6, 16, 88, 161, 165, 90, 90, 165, 3, 3.10931
332, 1, wb, attraction, a-b-db, 9, 2, 6, 17, 90, 165, 86, 157, 165, 90, 2, 2.11756
332, 1, wb, attraction, a-b-db, 9, 2, 6, 17, 90, 165, 86, 157, 165, 90, 3, 3.66357
332, 1, wb, attraction, a-b-da, 14, 2, 6, 18, 90, 165, 165, 90, 153, 83, 3, 1.71382
332, 1, wb, attraction, a-b-da, 14, 2, 6, 18, 90, 165, 165, 90, 153, 83, 2, 1.48383
332, 1, wb, attraction, a-b-da, 9, 1, 6, 19, 129, 57, 60, 135, 135, 60, 2, 2.14993
332, 1, wb, attraction, a-b-da, 9, 1, 6, 19, 129, 57, 60, 135, 135, 60, 1, 1.4225
332, 1, wb, attraction, a-b-da, 5, 3, 6, 20, 190, 117, 195, 120, 120, 195, 2, 2.86743
332, 1, wb, attraction, a-b-da, 5, 3, 6, 20, 190, 117, 195, 120, 120, 195, 3, 2.39918
332, 1, wb, attraction, a-b-db, 14, 3, 6, 21, 195, 120, 111, 181, 120, 195, 2, 2.14832
332, 1, wb, attraction, a-b-db, 14, 3, 6, 21, 195, 120, 111, 181, 120, 195, 1, 1.90105
332, 1, wb, attraction, a-b-db, 14, 2, 6, 22, 83, 153, 90, 165, 165, 90, 1, 3.71836
332, 1, wb, attraction, a-b-db, 14, 2, 6, 22, 83, 153, 90, 165, 165, 90, 3, 2.37579
332, 1, wb, filler, NA, 999, 999, 6, 23, 115, 175, 125, 118, 71, 78, 3, 0.925715
332, 1, wb, filler, NA, 999, 999, 6, 23, 115, 175, 125, 118, 71, 78, 1, 0.415264
332, 1, wb, filler, NA, 999, 999, 6, 24, 172, 185, 105, 101, 104, 101, 3, 8.03648
332, 1, wb, filler, NA, 999, 999, 6, 24, 172, 185, 105, 101, 104, 101, 1, 0.960082
332, 1, wb, attraction, a-b-da, 2, 3, 6, 25, 120, 195, 195, 120, 193, 119, 3, 1.11891
332, 1, wb, attraction, a-b-da, 2, 3, 6, 25, 120, 195, 195, 120, 193, 119, 2, 0.401257
332, 1, wb, attraction, a-b-da, 2, 1, 6, 26, 135, 60, 60, 135, 134, 59, 2, 1.87896
332, 1, wb, attraction, a-b-da, 2, 1, 6, 26, 135, 60, 60, 135, 134, 59, 3, 1.06642
332, 1, wb, attraction, a-b-db, 9, 1, 6, 27, 57, 129, 60, 135, 135, 60, 1, 2.22933
332, 1, wb, attraction, a-b-db, 9, 1, 6, 27, 57, 129, 60, 135, 135, 60, 2, 0.690714
332, 1, wb, catch, NA, 999, 999, 6, 28, 125, 70, 103, 152, 125, 190, 1, 0.956319
332, 1, wb, catch, NA, 999, 999, 6, 28, 125, 70, 103, 152, 125, 190, 3, 0.428876
332, 1, wb, attraction, a-b-da, 5, 1, 6, 29, 60, 135, 135, 60, 132, 58, 2, 1.12918
332, 1, wb, attraction, a-b-da, 5, 1, 6, 29, 60, 135, 135, 60, 132, 58, 3, 0.562905
332, 1, wb, attraction, a-b-db, 5, 3, 6, 30, 117, 190, 120, 195, 195, 120, 2, 3.3939
332, 1, wb, attraction, a-b-db, 5, 3, 6, 30, 117, 190, 120, 195, 195, 120, 1, 0.504129
332, 1, wb, attraction, a-b-db, 2, 1, 6, 31, 59, 134, 135, 60, 60, 135, 2, 1.56184
332, 1, wb, attraction, a-b-db, 2, 1, 6, 31, 59, 134, 135, 60, 60, 135, 3, 1.21007
332, 1, wb, attraction, a-b-db, 14, 1, 6, 32, 60, 135, 135, 60, 56, 125, 3, 1.39093
332, 1, wb, attraction, a-b-db, 14, 1, 6, 32, 60, 135, 135, 60, 56, 125, 1, 1.56584
332, 1, wb, attraction, a-b-da, 5, 2, 6, 33, 90, 165, 165, 90, 161, 88, 2, 2.62062
332, 1, wb, attraction, a-b-da, 5, 2, 6, 33, 90, 165, 165, 90, 161, 88, 1, 0.746428
332, 1, wb, attraction, a-b-db, 2, 2, 6, 34, 89, 163, 90, 165, 165, 90, 2, 1.33015
332, 1, wb, attraction, a-b-db, 2, 2, 6, 34, 89, 163, 90, 165, 165, 90, 1, 2.00374
332, 1, wb, attraction, a-b-db, 2, 3, 6, 35, 120, 195, 195, 120, 119, 193, 2, 0.976985
332, 1, wb, attraction, a-b-db, 2, 3, 6, 35, 120, 195, 195, 120, 119, 193, 1, 0.640674
332, 1, wb, attraction, a-b-db, 5, 1, 6, 36, 58, 132, 60, 135, 135, 60, 2, 1.10046
332, 1, wb, attraction, a-b-db, 5, 1, 6, 36, 58, 132, 60, 135, 135, 60, 3, 0.567403
332, 1, wb, attraction, a-b-da, 9, 2, 6, 37, 157, 86, 165, 90, 90, 165, 1, 1.18263
332, 1, wb, attraction, a-b-da, 9, 2, 6, 37, 157, 86, 165, 90, 90, 165, 3, 0.550068
332, 1, wb, attraction, a-b-db, 9, 3, 7, 1, 120, 195, 195, 120, 114, 186, 3, 1.18188
332, 1, wb, attraction, a-b-db, 9, 3, 7, 1, 120, 195, 195, 120, 114, 186, 1, 1.22155
332, 1, wb, attraction, a-b-da, 5, 2, 7, 2, 165, 90, 90, 165, 161, 88, 2, 2.1624
332, 1, wb, attraction, a-b-da, 5, 2, 7, 2, 165, 90, 90, 165, 161, 88, 1, 1.66637
332, 1, wb, attraction, a-b-db, 14, 3, 7, 3, 120, 195, 195, 120, 111, 181, 3, 1.10107
332, 1, wb, attraction, a-b-db, 14, 3, 7, 3, 120, 195, 195, 120, 111, 181, 1, 1.368
332, 1, wb, attraction, a-b-db, 14, 2, 7, 4, 83, 153, 165, 90, 90, 165, 2, 0.950868
332, 1, wb, attraction, a-b-db, 14, 2, 7, 4, 83, 153, 165, 90, 90, 165, 3, 2.11193
332, 1, wb, attraction, a-b-db, 9, 2, 7, 5, 165, 90, 90, 165, 86, 157, 3, 1.02452
332, 1, wb, attraction, a-b-db, 9, 2, 7, 5, 165, 90, 90, 165, 86, 157, 1, 1.01421
332, 1, wb, attraction, a-b-da, 5, 1, 7, 6, 135, 60, 132, 58, 60, 135, 3, 0.755148
332, 1, wb, attraction, a-b-da, 5, 1, 7, 6, 135, 60, 132, 58, 60, 135, 1, 0.755548
332, 1, wb, filler, NA, 999, 999, 7, 7, 99, 130, 86, 172, 91, 175, 1, 1.40323
332, 1, wb, filler, NA, 999, 999, 7, 7, 99, 130, 86, 172, 91, 175, 3, 1.01018
332, 1, wb, attraction, a-b-da, 9, 2, 7, 8, 165, 90, 157, 86, 90, 165, 3, 0.975192
332, 1, wb, attraction, a-b-da, 9, 2, 7, 8, 165, 90, 157, 86, 90, 165, 1, 0.510667
332, 1, wb, attraction, a-b-da, 14, 2, 7, 9, 153, 83, 90, 165, 165, 90, 1, 1.15992
332, 1, wb, attraction, a-b-da, 14, 2, 7, 9, 153, 83, 90, 165, 165, 90, 2, 0.680202
332, 1, wb, catch, NA, 999, 999, 7, 10, 104, 151, 80, 115, 126, 189, 2, 1.57846
332, 1, wb, catch, NA, 999, 999, 7, 10, 104, 151, 80, 115, 126, 189, 3, 0.361962
332, 1, wb, filler, NA, 999, 999, 7, 11, 111, 90, 105, 165, 154, 73, 1, 1.9131
332, 1, wb, filler, NA, 999, 999, 7, 11, 111, 90, 105, 165, 154, 73, 2, 0.547147
332, 1, wb, attraction, a-b-db, 5, 1, 7, 12, 135, 60, 60, 135, 58, 132, 3, 1.85097
332, 1, wb, attraction, a-b-db, 5, 1, 7, 12, 135, 60, 60, 135, 58, 132, 1, 0.599633
332, 1, wb, attraction, a-b-db, 9, 1, 7, 13, 60, 135, 57, 129, 135, 60, 2, 1.70154
332, 1, wb, attraction, a-b-db, 9, 1, 7, 13, 60, 135, 57, 129, 135, 60, 3, 0.856282
332, 1, wb, attraction, a-b-da, 2, 3, 7, 14, 120, 195, 193, 119, 195, 120, 2, 1.57994
332, 1, wb, attraction, a-b-da, 2, 3, 7, 14, 120, 195, 193, 119, 195, 120, 1, 0.43556
332, 1, wb, catch, NA, 999, 999, 7, 15, 100, 95, 162, 153, 130, 125, 1, 0.647868
332, 1, wb, catch, NA, 999, 999, 7, 15, 100, 95, 162, 153, 130, 125, 2, 0.341063
332, 1, wb, attraction, a-b-db, 2, 1, 7, 16, 59, 134, 135, 60, 60, 135, 3, 1.75683
332, 1, wb, attraction, a-b-db, 2, 1, 7, 16, 59, 134, 135, 60, 60, 135, 2, 0.404821
332, 1, wb, filler, NA, 999, 999, 7, 17, 74, 149, 182, 122, 68, 171, 1, 1.39479
332, 1, wb, filler, NA, 999, 999, 7, 17, 74, 149, 182, 122, 68, 171, 2, 0.385563
332, 1, wb, attraction, a-b-da, 14, 1, 7, 18, 125, 56, 135, 60, 60, 135, 3, 1.21606
332, 1, wb, attraction, a-b-da, 14, 1, 7, 18, 125, 56, 135, 60, 60, 135, 2, 1.50233
332, 1, wb, attraction, a-b-da, 9, 3, 7, 19, 186, 114, 195, 120, 120, 195, 2, 1.8239
332, 1, wb, attraction, a-b-da, 9, 3, 7, 19, 186, 114, 195, 120, 120, 195, 3, 0.63721
332, 1, wb, attraction, a-b-da, 14, 3, 7, 20, 195, 120, 120, 195, 181, 111, 3, 1.12172
332, 1, wb, attraction, a-b-da, 14, 3, 7, 20, 195, 120, 120, 195, 181, 111, 1, 0.45922
332, 1, wb, attraction, a-b-da, 9, 1, 7, 21, 135, 60, 60, 135, 129, 57, 3, 0.958311
332, 1, wb, attraction, a-b-da, 9, 1, 7, 21, 135, 60, 60, 135, 129, 57, 1, 0.750692
332, 1, wb, filler, NA, 999, 999, 7, 22, 178, 67, 145, 107, 153, 177, 2, 1.27042
332, 1, wb, filler, NA, 999, 999, 7, 22, 178, 67, 145, 107, 153, 177, 3, 0.378685
332, 1, wb, catch, NA, 999, 999, 7, 23, 168, 147, 127, 68, 112, 143, 2, 1.13714
332, 1, wb, catch, NA, 999, 999, 7, 23, 168, 147, 127, 68, 112, 143, 1, 0.466804
332, 1, wb, attraction, a-b-da, 5, 3, 7, 24, 195, 120, 190, 117, 120, 195, 3, 2.02992
332, 1, wb, attraction, a-b-da, 5, 3, 7, 24, 195, 120, 190, 117, 120, 195, 1, 0.531386
332, 1, wb, filler, NA, 999, 999, 7, 25, 189, 163, 173, 90, 176, 111, 2, 0.835683
332, 1, wb, filler, NA, 999, 999, 7, 25, 189, 163, 173, 90, 176, 111, 1, 0.417537
332, 1, wb, attraction, a-b-db, 2, 2, 7, 26, 165, 90, 90, 165, 89, 163, 2, 1.30258
332, 1, wb, attraction, a-b-db, 2, 2, 7, 26, 165, 90, 90, 165, 89, 163, 3, 1.58551
332, 1, wb, filler, NA, 999, 999, 7, 27, 160, 195, 186, 140, 83, 191, 3, 2.53555
332, 1, wb, filler, NA, 999, 999, 7, 27, 160, 195, 186, 140, 83, 191, 1, 0.520856
332, 1, wb, attraction, a-b-da, 2, 2, 7, 28, 165, 90, 163, 89, 90, 165, 2, 2.48981
332, 1, wb, attraction, a-b-da, 2, 2, 7, 28, 165, 90, 163, 89, 90, 165, 3, 0.588396
332, 1, wb, attraction, a-b-db, 14, 1, 7, 29, 56, 125, 60, 135, 135, 60, 2, 1.3628
332, 1, wb, attraction, a-b-db, 14, 1, 7, 29, 56, 125, 60, 135, 135, 60, 3, 1.23508
332, 1, wb, filler, NA, 999, 999, 7, 30, 82, 57, 93, 173, 97, 173, 1, 0.879181
332, 1, wb, filler, NA, 999, 999, 7, 30, 82, 57, 93, 173, 97, 173, 3, 2.2429
332, 1, wb, filler, NA, 999, 999, 7, 31, 135, 166, 72, 149, 80, 187, 2, 1.07014
332, 1, wb, filler, NA, 999, 999, 7, 31, 135, 166, 72, 149, 80, 187, 1, 0.682461
332, 1, wb, attraction, a-b-db, 2, 3, 7, 32, 195, 120, 120, 195, 119, 193, 3, 4.21285
332, 1, wb, attraction, a-b-db, 2, 3, 7, 32, 195, 120, 120, 195, 119, 193, 2, 1.88232
332, 1, wb, attraction, a-b-db, 5, 3, 7, 33, 195, 120, 117, 190, 120, 195, 3, 1.70031
332, 1, wb, attraction, a-b-db, 5, 3, 7, 33, 195, 120, 117, 190, 120, 195, 1, 2.00712
332, 1, wb, attraction, a-b-db, 5, 2, 7, 34, 165, 90, 90, 165, 88, 161, 1, 1.46765
332, 1, wb, attraction, a-b-db, 5, 2, 7, 34, 165, 90, 90, 165, 88, 161, 2, 2.14391
332, 1, wb, attraction, a-b-da, 2, 1, 7, 35, 60, 135, 134, 59, 135, 60, 2, 2.3511
332, 1, wb, attraction, a-b-da, 2, 1, 7, 35, 60, 135, 134, 59, 135, 60, 3, 1.6237
332, 1, wb, filler, NA, 999, 999, 7, 36, 105, 195, 174, 101, 174, 67, 3, 1.57181
332, 1, wb, filler, NA, 999, 999, 7, 36, 105, 195, 174, 101, 174, 67, 1, 3.35544
332, 1, wb, filler, NA, 999, 999, 7, 37, 126, 150, 63, 173, 149, 82, 2, 1.45817
332, 1, wb, filler, NA, 999, 999, 7, 37, 126, 150, 63, 173, 149, 82, 1, 3.10236
332, 1, wb, attraction, a-b-da, 14, 3, 8, 1, 195, 120, 120, 195, 181, 111, 3, 2.14328
332, 1, wb, attraction, a-b-da, 14, 3, 8, 1, 195, 120, 120, 195, 181, 111, 1, 3.24803
332, 1, wb, filler, NA, 999, 999, 8, 2, 117, 178, 121, 163, 108, 128, 3, 0.938891
332, 1, wb, filler, NA, 999, 999, 8, 2, 117, 178, 121, 163, 108, 128, 2, 0.667871
332, 1, wb, attraction, a-b-da, 9, 1, 8, 3, 129, 57, 135, 60, 60, 135, 2, 2.12697
332, 1, wb, attraction, a-b-da, 9, 1, 8, 3, 129, 57, 135, 60, 60, 135, 3, 0.560295
332, 1, wb, filler, NA, 999, 999, 8, 4, 78, 165, 142, 108, 164, 89, 2, 1.78344
332, 1, wb, filler, NA, 999, 999, 8, 4, 78, 165, 142, 108, 164, 89, 3, 4.27884
332, 1, wb, attraction, a-b-db, 5, 2, 8, 5, 165, 90, 88, 161, 90, 165, 2, 2.40798
332, 1, wb, attraction, a-b-db, 5, 2, 8, 5, 165, 90, 88, 161, 90, 165, 3, 1.38991
332, 1, wb, attraction, a-b-da, 5, 1, 8, 6, 132, 58, 60, 135, 135, 60, 2, 1.67612
332, 1, wb, attraction, a-b-da, 5, 1, 8, 6, 132, 58, 60, 135, 135, 60, 1, 0.847494
332, 1, wb, attraction, a-b-db, 5, 3, 8, 7, 195, 120, 120, 195, 117, 190, 2, 2.54718
332, 1, wb, attraction, a-b-db, 5, 3, 8, 7, 195, 120, 120, 195, 117, 190, 1, 1.61166
332, 1, wb, filler, NA, 999, 999, 8, 8, 90, 134, 123, 68, 164, 160, 2, 0.728633
332, 1, wb, filler, NA, 999, 999, 8, 8, 90, 134, 123, 68, 164, 160, 3, 0.362235
332, 1, wb, filler, NA, 999, 999, 8, 9, 105, 121, 154, 157, 88, 115, 3, 1.32931
332, 1, wb, filler, NA, 999, 999, 8, 9, 105, 121, 154, 157, 88, 115, 2, 0.498929
332, 1, wb, attraction, a-b-db, 9, 2, 8, 10, 86, 157, 165, 90, 90, 165, 2, 2.33275
332, 1, wb, attraction, a-b-db, 9, 2, 8, 10, 86, 157, 165, 90, 90, 165, 1, 1.63
332, 1, wb, attraction, a-b-db, 14, 1, 8, 11, 60, 135, 135, 60, 56, 125, 2, 1.08212
332, 1, wb, attraction, a-b-db, 14, 1, 8, 11, 60, 135, 135, 60, 56, 125, 1, 1.29371
332, 1, wb, catch, NA, 999, 999, 8, 12, 136, 179, 134, 121, 122, 73, 3, 1.45519
332, 1, wb, catch, NA, 999, 999, 8, 12, 136, 179, 134, 121, 122, 73, 1, 0.443366
332, 1, wb, attraction, a-b-db, 9, 3, 8, 13, 120, 195, 114, 186, 195, 120, 2, 1.49518
332, 1, wb, attraction, a-b-db, 9, 3, 8, 13, 120, 195, 114, 186, 195, 120, 1, 1.49006
332, 1, wb, filler, NA, 999, 999, 8, 14, 137, 106, 183, 116, 94, 146, 3, 1.01227
332, 1, wb, filler, NA, 999, 999, 8, 14, 137, 106, 183, 116, 94, 146, 2, 0.442591
332, 1, wb, attraction, a-b-da, 5, 3, 8, 15, 120, 195, 190, 117, 195, 120, 2, 1.26234
332, 1, wb, attraction, a-b-da, 5, 3, 8, 15, 120, 195, 190, 117, 195, 120, 3, 1.29071
332, 1, wb, attraction, a-b-db, 14, 2, 8, 16, 83, 153, 90, 165, 165, 90, 3, 3.34018
332, 1, wb, attraction, a-b-db, 14, 2, 8, 16, 83, 153, 90, 165, 165, 90, 2, 0.476429
332, 1, wb, attraction, a-b-da, 9, 3, 8, 17, 120, 195, 186, 114, 195, 120, 2, 3.01483
332, 1, wb, attraction, a-b-da, 9, 3, 8, 17, 120, 195, 186, 114, 195, 120, 1, 1.19658
332, 1, wb, catch, NA, 999, 999, 8, 18, 140, 175, 66, 129, 138, 117, 2, 0.79406
332, 1, wb, catch, NA, 999, 999, 8, 18, 140, 175, 66, 129, 138, 117, 1, 0.505215
332, 1, wb, filler, NA, 999, 999, 8, 19, 92, 158, 103, 195, 164, 181, 1, 1.06699
332, 1, wb, filler, NA, 999, 999, 8, 19, 92, 158, 103, 195, 164, 181, 3, 0.391346
332, 1, wb, attraction, a-b-da, 2, 1, 8, 20, 60, 135, 134, 59, 135, 60, 2, 6.94901
332, 1, wb, attraction, a-b-da, 2, 1, 8, 20, 60, 135, 134, 59, 135, 60, 1, 0.364285
332, 1, wb, attraction, a-b-da, 5, 2, 8, 21, 165, 90, 90, 165, 161, 88, 2, 3.0033
332, 1, wb, attraction, a-b-da, 5, 2, 8, 21, 165, 90, 90, 165, 161, 88, 1, 0.4817
332, 1, wb, attraction, a-b-da, 14, 1, 8, 22, 125, 56, 60, 135, 135, 60, 1, 4.62824
332, 1, wb, attraction, a-b-da, 14, 1, 8, 22, 125, 56, 60, 135, 135, 60, 3, 0.992926
332, 1, wb, filler, NA, 999, 999, 8, 23, 159, 104, 121, 86, 63, 163, 2, 0.942482
332, 1, wb, filler, NA, 999, 999, 8, 23, 159, 104, 121, 86, 63, 163, 1, 0.503348
332, 1, wb, filler, NA, 999, 999, 8, 24, 104, 107, 127, 126, 170, 102, 1, 1.13719
332, 1, wb, filler, NA, 999, 999, 8, 24, 104, 107, 127, 126, 170, 102, 3, 4.10678
332, 1, wb, attraction, a-b-da, 2, 2, 8, 25, 163, 89, 165, 90, 90, 165, 2, 2.01944
332, 1, wb, attraction, a-b-da, 2, 2, 8, 25, 163, 89, 165, 90, 90, 165, 1, 0.393432
332, 1, wb, attraction, a-b-db, 2, 2, 8, 26, 165, 90, 90, 165, 89, 163, 2, 3.0634
332, 1, wb, attraction, a-b-db, 2, 2, 8, 26, 165, 90, 90, 165, 89, 163, 1, 0.73894
332, 1, wb, attraction, a-b-db, 14, 3, 8, 27, 111, 181, 120, 195, 195, 120, 3, 8.67534
332, 1, wb, attraction, a-b-db, 14, 3, 8, 27, 111, 181, 120, 195, 195, 120, 2, 0.428653
332, 1, wb, attraction, a-b-da, 9, 2, 8, 28, 165, 90, 157, 86, 90, 165, 2, 1.83317
332, 1, wb, attraction, a-b-da, 9, 2, 8, 28, 165, 90, 157, 86, 90, 165, 1, 0.478485
332, 1, wb, attraction, a-b-db, 9, 1, 8, 29, 60, 135, 57, 129, 135, 60, 2, 1.1049
332, 1, wb, attraction, a-b-db, 9, 1, 8, 29, 60, 135, 57, 129, 135, 60, 3, 0.395151
332, 1, wb, attraction, a-b-da, 14, 2, 8, 30, 153, 83, 165, 90, 90, 165, 1, 2.44907
332, 1, wb, attraction, a-b-da, 14, 2, 8, 30, 153, 83, 165, 90, 90, 165, 3, 1.44562
332, 1, wb, attraction, a-b-db, 2, 1, 8, 31, 59, 134, 60, 135, 135, 60, 2, 1.03309
332, 1, wb, attraction, a-b-db, 2, 1, 8, 31, 59, 134, 60, 135, 135, 60, 3, 1.93477
332, 1, wb, filler, NA, 999, 999, 8, 32, 111, 191, 169, 119, 120, 159, 3, 2.28677
332, 1, wb, filler, NA, 999, 999, 8, 32, 111, 191, 169, 119, 120, 159, 1, 2.57809
332, 1, wb, catch, NA, 999, 999, 8, 33, 156, 99, 112, 83, 190, 125, 2, 0.911904
332, 1, wb, catch, NA, 999, 999, 8, 33, 156, 99, 112, 83, 190, 125, 3, 0.874123
332, 1, wb, attraction, a-b-da, 2, 3, 8, 34, 193, 119, 195, 120, 120, 195, 1, 1.4605
332, 1, wb, attraction, a-b-da, 2, 3, 8, 34, 193, 119, 195, 120, 120, 195, 3, 0.528598
332, 1, wb, attraction, a-b-db, 5, 1, 8, 35, 58, 132, 135, 60, 60, 135, 3, 1.36112
332, 1, wb, attraction, a-b-db, 5, 1, 8, 35, 58, 132, 135, 60, 60, 135, 2, 2.84927
332, 1, wb, attraction, a-b-db, 2, 3, 8, 36, 195, 120, 120, 195, 119, 193, 2, 2.09241
332, 1, wb, attraction, a-b-db, 2, 3, 8, 36, 195, 120, 120, 195, 119, 193, 3, 0.487027
332, 1, wb, filler, NA, 999, 999, 8, 37, 144, 142, 141, 146, 183, 76, 3, 3.17755
332, 1, wb, filler, NA, 999, 999, 8, 37, 144, 142, 141, 146, 183, 76, 1, 0.576446
