sub_n, computer_n, bw_cond, effect, set, distance, diag, block_n, trial_n, h1, w1, h2, w2, h3, w3, choice, rt 
325, 1, bw, practice, NA, 999, 999, 0, 1, 148, 150, 103, 192, 115, 140, 1, 23.3436
325, 1, bw, practice, NA, 999, 999, 0, 1, 148, 150, 103, 192, 115, 140, 3, 1.86644
325, 1, bw, practice, NA, 999, 999, 0, 2, 121, 133, 62, 97, 101, 169, 3, 3.14761
325, 1, bw, practice, NA, 999, 999, 0, 2, 121, 133, 62, 97, 101, 169, 2, 1.33106
325, 1, bw, practice, NA, 999, 999, 0, 3, 144, 146, 150, 118, 84, 146, 1, 4.94524
325, 1, bw, practice, NA, 999, 999, 0, 3, 144, 146, 150, 118, 84, 146, 3, 1.1272
325, 1, bw, attraction, a-b-da, 9, 1, 1, 1, 60, 135, 135, 60, 129, 57, 2, 4.86389
325, 1, bw, attraction, a-b-da, 9, 1, 1, 1, 60, 135, 135, 60, 129, 57, 3, 4.49085
325, 1, bw, catch, NA, 999, 999, 1, 2, 117, 78, 127, 128, 192, 123, 3, 1.82814
325, 1, bw, catch, NA, 999, 999, 1, 2, 117, 78, 127, 128, 192, 123, 1, 1.04947
325, 1, bw, catch, NA, 999, 999, 1, 3, 97, 98, 166, 149, 137, 118, 2, 1.33315
325, 1, bw, catch, NA, 999, 999, 1, 3, 97, 98, 166, 149, 137, 118, 1, 0.646726
325, 1, bw, attraction, a-b-db, 5, 3, 1, 4, 120, 195, 117, 190, 195, 120, 1, 2.54647
325, 1, bw, attraction, a-b-db, 5, 3, 1, 4, 120, 195, 117, 190, 195, 120, 2, 1.29903
325, 1, bw, attraction, a-b-db, 5, 1, 1, 5, 58, 132, 60, 135, 135, 60, 2, 4.54847
325, 1, bw, attraction, a-b-db, 5, 1, 1, 5, 58, 132, 60, 135, 135, 60, 1, 1.77231
325, 1, bw, attraction, a-b-db, 2, 1, 1, 6, 135, 60, 60, 135, 59, 134, 2, 6.23505
325, 1, bw, attraction, a-b-db, 2, 1, 1, 6, 135, 60, 60, 135, 59, 134, 3, 0.959123
325, 1, bw, attraction, a-b-db, 14, 3, 1, 7, 111, 181, 120, 195, 195, 120, 2, 2.86201
325, 1, bw, attraction, a-b-db, 14, 3, 1, 7, 111, 181, 120, 195, 195, 120, 1, 1.07374
325, 1, bw, attraction, a-b-da, 5, 3, 1, 8, 190, 117, 195, 120, 120, 195, 3, 4.88414
325, 1, bw, attraction, a-b-da, 5, 3, 1, 8, 190, 117, 195, 120, 120, 195, 2, 1.91064
325, 1, bw, filler, NA, 999, 999, 1, 9, 84, 191, 93, 107, 140, 106, 3, 7.1113
325, 1, bw, filler, NA, 999, 999, 1, 9, 84, 191, 93, 107, 140, 106, 2, 0.511662
325, 1, bw, filler, NA, 999, 999, 1, 10, 178, 139, 174, 148, 164, 98, 2, 1.16863
325, 1, bw, filler, NA, 999, 999, 1, 10, 178, 139, 174, 148, 164, 98, 3, 0.489027
325, 1, bw, filler, NA, 999, 999, 1, 11, 125, 62, 87, 195, 154, 82, 2, 2.46747
325, 1, bw, filler, NA, 999, 999, 1, 11, 125, 62, 87, 195, 154, 82, 1, 0.927284
325, 1, bw, attraction, a-b-db, 14, 1, 1, 12, 56, 125, 60, 135, 135, 60, 3, 4.47959
325, 1, bw, attraction, a-b-db, 14, 1, 1, 12, 56, 125, 60, 135, 135, 60, 1, 0.41818
325, 1, bw, attraction, a-b-da, 9, 2, 1, 13, 165, 90, 157, 86, 90, 165, 1, 3.27139
325, 1, bw, attraction, a-b-da, 9, 2, 1, 13, 165, 90, 157, 86, 90, 165, 2, 0.466998
325, 1, bw, attraction, a-b-da, 9, 3, 1, 14, 186, 114, 120, 195, 195, 120, 2, 3.83816
325, 1, bw, attraction, a-b-da, 9, 3, 1, 14, 186, 114, 120, 195, 195, 120, 1, 0.674908
325, 1, bw, catch, NA, 999, 999, 1, 15, 105, 90, 136, 119, 154, 161, 3, 1.62923
325, 1, bw, catch, NA, 999, 999, 1, 15, 105, 90, 136, 119, 154, 161, 1, 0.818736
325, 1, bw, filler, NA, 999, 999, 1, 16, 96, 194, 146, 181, 115, 139, 2, 0.991731
325, 1, bw, filler, NA, 999, 999, 1, 16, 96, 194, 146, 181, 115, 139, 3, 0.638861
325, 1, bw, attraction, a-b-db, 14, 2, 1, 17, 90, 165, 83, 153, 165, 90, 3, 1.17118
325, 1, bw, attraction, a-b-db, 14, 2, 1, 17, 90, 165, 83, 153, 165, 90, 2, 1.0588
325, 1, bw, attraction, a-b-da, 2, 1, 1, 18, 135, 60, 134, 59, 60, 135, 3, 1.62965
325, 1, bw, attraction, a-b-da, 2, 1, 1, 18, 135, 60, 134, 59, 60, 135, 2, 0.507142
325, 1, bw, attraction, a-b-db, 2, 3, 1, 19, 120, 195, 195, 120, 119, 193, 2, 2.26029
325, 1, bw, attraction, a-b-db, 2, 3, 1, 19, 120, 195, 195, 120, 119, 193, 1, 0.968237
325, 1, bw, attraction, a-b-db, 2, 2, 1, 20, 90, 165, 165, 90, 89, 163, 2, 2.31116
325, 1, bw, attraction, a-b-db, 2, 2, 1, 20, 90, 165, 165, 90, 89, 163, 3, 0.905154
325, 1, bw, filler, NA, 999, 999, 1, 21, 190, 185, 112, 187, 185, 83, 1, 1.19479
325, 1, bw, filler, NA, 999, 999, 1, 21, 190, 185, 112, 187, 185, 83, 3, 2.55372
325, 1, bw, attraction, a-b-da, 5, 2, 1, 22, 90, 165, 165, 90, 161, 88, 1, 5.16884
325, 1, bw, attraction, a-b-da, 5, 2, 1, 22, 90, 165, 165, 90, 161, 88, 3, 0.783815
325, 1, bw, attraction, a-b-da, 2, 3, 1, 23, 120, 195, 195, 120, 193, 119, 1, 3.01428
325, 1, bw, attraction, a-b-da, 2, 3, 1, 23, 120, 195, 195, 120, 193, 119, 3, 1.00393
325, 1, bw, attraction, a-b-da, 14, 1, 1, 24, 60, 135, 135, 60, 125, 56, 1, 2.95375
325, 1, bw, attraction, a-b-da, 14, 1, 1, 24, 60, 135, 135, 60, 125, 56, 3, 0.905943
325, 1, bw, attraction, a-b-da, 14, 2, 1, 25, 153, 83, 90, 165, 165, 90, 3, 1.96357
325, 1, bw, attraction, a-b-da, 14, 2, 1, 25, 153, 83, 90, 165, 165, 90, 1, 0.619627
325, 1, bw, attraction, a-b-da, 5, 1, 1, 26, 132, 58, 135, 60, 60, 135, 2, 1.28872
325, 1, bw, attraction, a-b-da, 5, 1, 1, 26, 132, 58, 135, 60, 60, 135, 3, 2.41964
325, 1, bw, filler, NA, 999, 999, 1, 27, 100, 118, 158, 144, 112, 116, 2, 2.20818
325, 1, bw, filler, NA, 999, 999, 1, 27, 100, 118, 158, 144, 112, 116, 3, 0.510217
325, 1, bw, filler, NA, 999, 999, 1, 28, 110, 172, 178, 110, 72, 75, 1, 1.7192
325, 1, bw, filler, NA, 999, 999, 1, 28, 110, 172, 178, 110, 72, 75, 3, 0.481329
325, 1, bw, attraction, a-b-db, 9, 1, 1, 29, 135, 60, 60, 135, 57, 129, 2, 2.91576
325, 1, bw, attraction, a-b-db, 9, 1, 1, 29, 135, 60, 60, 135, 57, 129, 3, 0.445597
325, 1, bw, attraction, a-b-db, 9, 3, 1, 30, 120, 195, 195, 120, 114, 186, 2, 1.14525
325, 1, bw, attraction, a-b-db, 9, 3, 1, 30, 120, 195, 195, 120, 114, 186, 3, 4.20221
325, 1, bw, attraction, a-b-db, 5, 2, 1, 31, 88, 161, 90, 165, 165, 90, 2, 4.90292
325, 1, bw, attraction, a-b-db, 5, 2, 1, 31, 88, 161, 90, 165, 165, 90, 1, 1.24075
325, 1, bw, filler, NA, 999, 999, 1, 32, 88, 93, 151, 138, 110, 95, 2, 1.22042
325, 1, bw, filler, NA, 999, 999, 1, 32, 88, 93, 151, 138, 110, 95, 1, 1.73045
325, 1, bw, attraction, a-b-da, 2, 2, 1, 33, 163, 89, 165, 90, 90, 165, 1, 2.27459
325, 1, bw, attraction, a-b-da, 2, 2, 1, 33, 163, 89, 165, 90, 90, 165, 2, 0.813802
325, 1, bw, filler, NA, 999, 999, 1, 34, 79, 130, 188, 116, 107, 111, 2, 0.97089
325, 1, bw, filler, NA, 999, 999, 1, 34, 79, 130, 188, 116, 107, 111, 1, 0.98727
325, 1, bw, filler, NA, 999, 999, 1, 35, 163, 133, 132, 86, 171, 103, 1, 2.16947
325, 1, bw, filler, NA, 999, 999, 1, 35, 163, 133, 132, 86, 171, 103, 2, 0.945405
325, 1, bw, attraction, a-b-da, 14, 3, 1, 36, 181, 111, 120, 195, 195, 120, 2, 2.66523
325, 1, bw, attraction, a-b-da, 14, 3, 1, 36, 181, 111, 120, 195, 195, 120, 1, 0.700835
325, 1, bw, attraction, a-b-db, 9, 2, 1, 37, 165, 90, 86, 157, 90, 165, 1, 3.01461
325, 1, bw, attraction, a-b-db, 9, 2, 1, 37, 165, 90, 86, 157, 90, 165, 2, 1.25236
325, 1, bw, filler, NA, 999, 999, 2, 1, 108, 94, 59, 71, 118, 132, 3, 1.03988
325, 1, bw, filler, NA, 999, 999, 2, 1, 108, 94, 59, 71, 118, 132, 2, 0.596899
325, 1, bw, filler, NA, 999, 999, 2, 2, 157, 163, 124, 157, 78, 89, 1, 1.07455
325, 1, bw, filler, NA, 999, 999, 2, 2, 157, 163, 124, 157, 78, 89, 3, 0.462202
325, 1, bw, attraction, a-b-db, 2, 2, 2, 3, 90, 165, 165, 90, 89, 163, 2, 1.33742
325, 1, bw, attraction, a-b-db, 2, 2, 2, 3, 90, 165, 165, 90, 89, 163, 3, 0.610834
325, 1, bw, attraction, a-b-da, 9, 1, 2, 4, 135, 60, 60, 135, 129, 57, 2, 2.63997
325, 1, bw, attraction, a-b-da, 9, 1, 2, 4, 135, 60, 60, 135, 129, 57, 1, 1.25243
325, 1, bw, attraction, a-b-da, 9, 3, 2, 5, 120, 195, 195, 120, 186, 114, 2, 1.13608
325, 1, bw, attraction, a-b-da, 9, 3, 2, 5, 120, 195, 195, 120, 186, 114, 1, 0.945686
325, 1, bw, filler, NA, 999, 999, 2, 6, 110, 134, 86, 116, 115, 77, 1, 4.04129
325, 1, bw, filler, NA, 999, 999, 2, 6, 110, 134, 86, 116, 115, 77, 3, 0.773386
325, 1, bw, filler, NA, 999, 999, 2, 7, 195, 185, 118, 62, 90, 159, 1, 1.47572
325, 1, bw, filler, NA, 999, 999, 2, 7, 195, 185, 118, 62, 90, 159, 2, 0.431222
325, 1, bw, attraction, a-b-db, 2, 1, 2, 8, 59, 134, 60, 135, 135, 60, 2, 2.01973
325, 1, bw, attraction, a-b-db, 2, 1, 2, 8, 59, 134, 60, 135, 135, 60, 3, 0.561681
325, 1, bw, attraction, a-b-db, 5, 3, 2, 9, 195, 120, 120, 195, 117, 190, 2, 2.33673
325, 1, bw, attraction, a-b-db, 5, 3, 2, 9, 195, 120, 120, 195, 117, 190, 3, 0.641999
325, 1, bw, attraction, a-b-da, 5, 3, 2, 10, 190, 117, 120, 195, 195, 120, 2, 1.94173
325, 1, bw, attraction, a-b-da, 5, 3, 2, 10, 190, 117, 120, 195, 195, 120, 1, 1.11051
325, 1, bw, filler, NA, 999, 999, 2, 11, 61, 56, 65, 166, 185, 96, 3, 1.50336
325, 1, bw, filler, NA, 999, 999, 2, 11, 61, 56, 65, 166, 185, 96, 1, 0.834243
325, 1, bw, attraction, a-b-da, 14, 1, 2, 12, 60, 135, 125, 56, 135, 60, 1, 0.982605
325, 1, bw, attraction, a-b-da, 14, 1, 2, 12, 60, 135, 125, 56, 135, 60, 2, 0.654239
325, 1, bw, filler, NA, 999, 999, 2, 13, 148, 156, 183, 122, 193, 108, 1, 2.25
325, 1, bw, filler, NA, 999, 999, 2, 13, 148, 156, 183, 122, 193, 108, 3, 1.46261
325, 1, bw, catch, NA, 999, 999, 2, 14, 146, 169, 95, 100, 165, 90, 1, 0.993433
325, 1, bw, catch, NA, 999, 999, 2, 14, 146, 169, 95, 100, 165, 90, 2, 0.336497
325, 1, bw, attraction, a-b-db, 14, 3, 2, 15, 195, 120, 120, 195, 111, 181, 1, 1.77702
325, 1, bw, attraction, a-b-db, 14, 3, 2, 15, 195, 120, 120, 195, 111, 181, 3, 0.40834
325, 1, bw, attraction, a-b-da, 14, 3, 2, 16, 120, 195, 181, 111, 195, 120, 3, 1.17357
325, 1, bw, attraction, a-b-da, 14, 3, 2, 16, 120, 195, 181, 111, 195, 120, 2, 0.981137
325, 1, bw, attraction, a-b-db, 5, 1, 2, 17, 60, 135, 58, 132, 135, 60, 1, 1.64341
325, 1, bw, attraction, a-b-db, 5, 1, 2, 17, 60, 135, 58, 132, 135, 60, 3, 0.472242
325, 1, bw, attraction, a-b-da, 2, 3, 2, 18, 195, 120, 120, 195, 193, 119, 2, 2.87533
325, 1, bw, attraction, a-b-da, 2, 3, 2, 18, 195, 120, 120, 195, 193, 119, 3, 0.526387
325, 1, bw, catch, NA, 999, 999, 2, 19, 103, 152, 139, 176, 124, 71, 2, 1.05488
325, 1, bw, catch, NA, 999, 999, 2, 19, 103, 152, 139, 176, 124, 71, 3, 0.699762
325, 1, bw, attraction, a-b-da, 9, 2, 2, 20, 90, 165, 157, 86, 165, 90, 2, 1.37364
325, 1, bw, attraction, a-b-da, 9, 2, 2, 20, 90, 165, 157, 86, 165, 90, 3, 0.325018
325, 1, bw, filler, NA, 999, 999, 2, 21, 177, 171, 85, 73, 156, 91, 1, 1.11757
325, 1, bw, filler, NA, 999, 999, 2, 21, 177, 171, 85, 73, 156, 91, 2, 0.471855
325, 1, bw, attraction, a-b-da, 5, 1, 2, 22, 132, 58, 60, 135, 135, 60, 2, 2.09106
325, 1, bw, attraction, a-b-da, 5, 1, 2, 22, 132, 58, 60, 135, 135, 60, 1, 1.38164
325, 1, bw, filler, NA, 999, 999, 2, 23, 82, 104, 84, 164, 90, 174, 2, 1.57981
325, 1, bw, filler, NA, 999, 999, 2, 23, 82, 104, 84, 164, 90, 174, 1, 1.01931
325, 1, bw, attraction, a-b-db, 9, 1, 2, 24, 60, 135, 135, 60, 57, 129, 2, 4.66425
325, 1, bw, attraction, a-b-db, 9, 1, 2, 24, 60, 135, 135, 60, 57, 129, 3, 1.22761
325, 1, bw, attraction, a-b-da, 2, 2, 2, 25, 165, 90, 90, 165, 163, 89, 1, 2.3116
325, 1, bw, attraction, a-b-da, 2, 2, 2, 25, 165, 90, 90, 165, 163, 89, 2, 0.369559
325, 1, bw, attraction, a-b-db, 5, 2, 2, 26, 90, 165, 88, 161, 165, 90, 2, 2.45676
325, 1, bw, attraction, a-b-db, 5, 2, 2, 26, 90, 165, 88, 161, 165, 90, 1, 0.668684
325, 1, bw, attraction, a-b-db, 14, 2, 2, 27, 165, 90, 83, 153, 90, 165, 1, 3.44785
325, 1, bw, attraction, a-b-db, 14, 2, 2, 27, 165, 90, 83, 153, 90, 165, 2, 1.90795
325, 1, bw, attraction, a-b-da, 14, 2, 2, 28, 153, 83, 90, 165, 165, 90, 3, 4.29261
325, 1, bw, attraction, a-b-da, 14, 2, 2, 28, 153, 83, 90, 165, 165, 90, 2, 0.494589
325, 1, bw, attraction, a-b-da, 5, 2, 2, 29, 165, 90, 90, 165, 161, 88, 1, 4.05635
325, 1, bw, attraction, a-b-da, 5, 2, 2, 29, 165, 90, 90, 165, 161, 88, 2, 1.57179
325, 1, bw, attraction, a-b-db, 14, 1, 2, 30, 135, 60, 56, 125, 60, 135, 1, 6.36249
325, 1, bw, attraction, a-b-db, 14, 1, 2, 30, 135, 60, 56, 125, 60, 135, 2, 0.521183
325, 1, bw, attraction, a-b-da, 2, 1, 2, 31, 60, 135, 135, 60, 134, 59, 2, 4.48229
325, 1, bw, attraction, a-b-da, 2, 1, 2, 31, 60, 135, 135, 60, 134, 59, 3, 0.724807
325, 1, bw, attraction, a-b-db, 9, 2, 2, 32, 165, 90, 90, 165, 86, 157, 1, 2.03726
325, 1, bw, attraction, a-b-db, 9, 2, 2, 32, 165, 90, 90, 165, 86, 157, 2, 0.634548
325, 1, bw, filler, NA, 999, 999, 2, 33, 175, 170, 153, 136, 174, 144, 1, 1.04699
325, 1, bw, filler, NA, 999, 999, 2, 33, 175, 170, 153, 136, 174, 144, 2, 2.44394
325, 1, bw, catch, NA, 999, 999, 2, 34, 112, 83, 145, 110, 121, 194, 3, 1.38307
325, 1, bw, catch, NA, 999, 999, 2, 34, 112, 83, 145, 110, 121, 194, 1, 0.582726
325, 1, bw, attraction, a-b-db, 9, 3, 2, 35, 114, 186, 195, 120, 120, 195, 2, 4.25312
325, 1, bw, attraction, a-b-db, 9, 3, 2, 35, 114, 186, 195, 120, 120, 195, 3, 0.345134
325, 1, bw, filler, NA, 999, 999, 2, 36, 170, 111, 122, 189, 152, 170, 2, 1.88105
325, 1, bw, filler, NA, 999, 999, 2, 36, 170, 111, 122, 189, 152, 170, 3, 0.772263
325, 1, bw, attraction, a-b-db, 2, 3, 2, 37, 119, 193, 195, 120, 120, 195, 2, 2.9794
325, 1, bw, attraction, a-b-db, 2, 3, 2, 37, 119, 193, 195, 120, 120, 195, 1, 1.93831
325, 1, bw, filler, NA, 999, 999, 3, 1, 113, 158, 95, 191, 176, 139, 3, 1.4664
325, 1, bw, filler, NA, 999, 999, 3, 1, 113, 158, 95, 191, 176, 139, 1, 0.478489
325, 1, bw, attraction, a-b-da, 2, 3, 3, 2, 195, 120, 193, 119, 120, 195, 2, 2.42495
325, 1, bw, attraction, a-b-da, 2, 3, 3, 2, 195, 120, 193, 119, 120, 195, 3, 0.502259
325, 1, bw, attraction, a-b-da, 14, 2, 3, 3, 153, 83, 165, 90, 90, 165, 1, 4.65597
325, 1, bw, attraction, a-b-da, 14, 2, 3, 3, 153, 83, 165, 90, 90, 165, 3, 0.307182
325, 1, bw, catch, NA, 999, 999, 3, 4, 129, 186, 84, 111, 115, 140, 1, 1.55641
325, 1, bw, catch, NA, 999, 999, 3, 4, 129, 186, 84, 111, 115, 140, 2, 0.508476
325, 1, bw, attraction, a-b-db, 14, 1, 3, 5, 56, 125, 60, 135, 135, 60, 2, 3.39769
325, 1, bw, attraction, a-b-db, 14, 1, 3, 5, 56, 125, 60, 135, 135, 60, 1, 0.539871
325, 1, bw, catch, NA, 999, 999, 3, 6, 107, 148, 188, 127, 102, 93, 2, 2.07564
325, 1, bw, catch, NA, 999, 999, 3, 6, 107, 148, 188, 127, 102, 93, 3, 0.430918
325, 1, bw, attraction, a-b-db, 5, 1, 3, 7, 58, 132, 60, 135, 135, 60, 2, 4.12349
325, 1, bw, attraction, a-b-db, 5, 1, 3, 7, 58, 132, 60, 135, 135, 60, 1, 0.300088
325, 1, bw, attraction, a-b-db, 5, 2, 3, 8, 88, 161, 165, 90, 90, 165, 2, 1.39804
325, 1, bw, attraction, a-b-db, 5, 2, 3, 8, 88, 161, 165, 90, 90, 165, 3, 0.65283
325, 1, bw, filler, NA, 999, 999, 3, 9, 100, 62, 128, 116, 65, 96, 2, 1.76058
325, 1, bw, filler, NA, 999, 999, 3, 9, 100, 62, 128, 116, 65, 96, 3, 1.40866
325, 1, bw, attraction, a-b-da, 9, 1, 3, 10, 135, 60, 60, 135, 129, 57, 2, 4.45347
325, 1, bw, attraction, a-b-da, 9, 1, 3, 10, 135, 60, 60, 135, 129, 57, 1, 1.04944
325, 1, bw, attraction, a-b-db, 14, 3, 3, 11, 195, 120, 120, 195, 111, 181, 1, 3.87705
325, 1, bw, attraction, a-b-db, 14, 3, 3, 11, 195, 120, 120, 195, 111, 181, 3, 0.815945
325, 1, bw, attraction, a-b-db, 2, 1, 3, 12, 135, 60, 59, 134, 60, 135, 1, 6.45276
325, 1, bw, attraction, a-b-db, 2, 1, 3, 12, 135, 60, 59, 134, 60, 135, 2, 0.320071
325, 1, bw, attraction, a-b-db, 14, 2, 3, 13, 90, 165, 83, 153, 165, 90, 1, 7.57728
325, 1, bw, attraction, a-b-db, 14, 2, 3, 13, 90, 165, 83, 153, 165, 90, 2, 0.374929
325, 1, bw, attraction, a-b-da, 14, 1, 3, 14, 125, 56, 135, 60, 60, 135, 1, 4.11733
325, 1, bw, attraction, a-b-da, 14, 1, 3, 14, 125, 56, 135, 60, 60, 135, 3, 0.614739
325, 1, bw, filler, NA, 999, 999, 3, 15, 114, 172, 117, 192, 181, 117, 2, 2.33982
325, 1, bw, filler, NA, 999, 999, 3, 15, 114, 172, 117, 192, 181, 117, 1, 0.644337
325, 1, bw, attraction, a-b-db, 9, 1, 3, 16, 57, 129, 135, 60, 60, 135, 2, 2.90416
325, 1, bw, attraction, a-b-db, 9, 1, 3, 16, 57, 129, 135, 60, 60, 135, 3, 0.730553
325, 1, bw, attraction, a-b-db, 9, 2, 3, 17, 165, 90, 86, 157, 90, 165, 1, 2.05097
325, 1, bw, attraction, a-b-db, 9, 2, 3, 17, 165, 90, 86, 157, 90, 165, 2, 0.719644
325, 1, bw, attraction, a-b-da, 2, 2, 3, 18, 163, 89, 165, 90, 90, 165, 2, 1.35271
325, 1, bw, attraction, a-b-da, 2, 2, 3, 18, 163, 89, 165, 90, 90, 165, 3, 1.26557
325, 1, bw, attraction, a-b-da, 5, 1, 3, 19, 132, 58, 60, 135, 135, 60, 2, 6.84437
325, 1, bw, attraction, a-b-da, 5, 1, 3, 19, 132, 58, 60, 135, 135, 60, 1, 0.951537
325, 1, bw, filler, NA, 999, 999, 3, 20, 94, 164, 149, 137, 72, 176, 2, 1.23928
325, 1, bw, filler, NA, 999, 999, 3, 20, 94, 164, 149, 137, 72, 176, 3, 0.620061
325, 1, bw, attraction, a-b-db, 2, 2, 3, 21, 90, 165, 165, 90, 89, 163, 2, 5.25723
325, 1, bw, attraction, a-b-db, 2, 2, 3, 21, 90, 165, 165, 90, 89, 163, 3, 0.420341
325, 1, bw, attraction, a-b-db, 9, 3, 3, 22, 195, 120, 114, 186, 120, 195, 1, 1.94539
325, 1, bw, attraction, a-b-db, 9, 3, 3, 22, 195, 120, 114, 186, 120, 195, 2, 0.762138
325, 1, bw, attraction, a-b-db, 5, 3, 3, 23, 195, 120, 117, 190, 120, 195, 1, 2.98507
325, 1, bw, attraction, a-b-db, 5, 3, 3, 23, 195, 120, 117, 190, 120, 195, 2, 0.608163
325, 1, bw, attraction, a-b-da, 2, 1, 3, 24, 134, 59, 60, 135, 135, 60, 3, 5.11722
325, 1, bw, attraction, a-b-da, 2, 1, 3, 24, 134, 59, 60, 135, 135, 60, 2, 0.374336
325, 1, bw, filler, NA, 999, 999, 3, 25, 59, 72, 67, 101, 101, 131, 3, 1.47694
325, 1, bw, filler, NA, 999, 999, 3, 25, 59, 72, 67, 101, 101, 131, 1, 1.46424
325, 1, bw, attraction, a-b-da, 14, 3, 3, 26, 195, 120, 181, 111, 120, 195, 1, 2.90701
325, 1, bw, attraction, a-b-da, 14, 3, 3, 26, 195, 120, 181, 111, 120, 195, 2, 1.6688
325, 1, bw, attraction, a-b-db, 2, 3, 3, 27, 120, 195, 119, 193, 195, 120, 2, 6.07163
325, 1, bw, attraction, a-b-db, 2, 3, 3, 27, 120, 195, 119, 193, 195, 120, 1, 0.75428
325, 1, bw, filler, NA, 999, 999, 3, 28, 193, 105, 130, 81, 175, 186, 3, 1.06599
325, 1, bw, filler, NA, 999, 999, 3, 28, 193, 105, 130, 81, 175, 186, 2, 0.582325
325, 1, bw, attraction, a-b-da, 5, 2, 3, 29, 165, 90, 90, 165, 161, 88, 2, 4.43681
325, 1, bw, attraction, a-b-da, 5, 2, 3, 29, 165, 90, 90, 165, 161, 88, 3, 0.433311
325, 1, bw, attraction, a-b-da, 9, 2, 3, 30, 90, 165, 165, 90, 157, 86, 1, 1.93389
325, 1, bw, attraction, a-b-da, 9, 2, 3, 30, 90, 165, 165, 90, 157, 86, 2, 0.319107
325, 1, bw, catch, NA, 999, 999, 3, 31, 117, 78, 183, 132, 162, 93, 2, 0.864392
325, 1, bw, catch, NA, 999, 999, 3, 31, 117, 78, 183, 132, 162, 93, 1, 0.444729
325, 1, bw, filler, NA, 999, 999, 3, 32, 162, 77, 63, 89, 159, 77, 3, 1.09648
325, 1, bw, filler, NA, 999, 999, 3, 32, 162, 77, 63, 89, 159, 77, 2, 0.323426
325, 1, bw, attraction, a-b-da, 9, 3, 3, 33, 195, 120, 186, 114, 120, 195, 3, 2.25996
325, 1, bw, attraction, a-b-da, 9, 3, 3, 33, 195, 120, 186, 114, 120, 195, 2, 0.696029
325, 1, bw, filler, NA, 999, 999, 3, 34, 118, 159, 84, 83, 62, 152, 1, 1.01769
325, 1, bw, filler, NA, 999, 999, 3, 34, 118, 159, 84, 83, 62, 152, 2, 0.336037
325, 1, bw, filler, NA, 999, 999, 3, 35, 171, 129, 154, 60, 163, 85, 1, 0.888514
325, 1, bw, filler, NA, 999, 999, 3, 35, 171, 129, 154, 60, 163, 85, 2, 0.563537
325, 1, bw, filler, NA, 999, 999, 3, 36, 180, 163, 75, 142, 181, 72, 1, 0.938603
325, 1, bw, filler, NA, 999, 999, 3, 36, 180, 163, 75, 142, 181, 72, 2, 0.251579
325, 1, bw, attraction, a-b-da, 5, 3, 3, 37, 190, 117, 195, 120, 120, 195, 2, 1.57542
325, 1, bw, attraction, a-b-da, 5, 3, 3, 37, 190, 117, 195, 120, 120, 195, 1, 0.343013
325, 1, bw, attraction, a-b-da, 14, 3, 4, 1, 120, 195, 195, 120, 181, 111, 1, 1.56673
325, 1, bw, attraction, a-b-da, 14, 3, 4, 1, 120, 195, 195, 120, 181, 111, 2, 0.710872
325, 1, bw, attraction, a-b-da, 9, 1, 4, 2, 135, 60, 60, 135, 129, 57, 2, 2.86404
325, 1, bw, attraction, a-b-da, 9, 1, 4, 2, 135, 60, 60, 135, 129, 57, 1, 0.443686
325, 1, bw, attraction, a-b-db, 14, 1, 4, 3, 60, 135, 56, 125, 135, 60, 2, 3.61557
325, 1, bw, attraction, a-b-db, 14, 1, 4, 3, 60, 135, 56, 125, 135, 60, 3, 6.06107
325, 1, bw, attraction, a-b-da, 5, 2, 4, 4, 90, 165, 161, 88, 165, 90, 2, 2.74253
325, 1, bw, attraction, a-b-da, 5, 2, 4, 4, 90, 165, 161, 88, 165, 90, 1, 2.27886
325, 1, bw, filler, NA, 999, 999, 4, 5, 157, 114, 140, 128, 117, 185, 2, 3.64876
325, 1, bw, filler, NA, 999, 999, 4, 5, 157, 114, 140, 128, 117, 185, 1, 0.564961
325, 1, bw, attraction, a-b-da, 14, 1, 4, 6, 125, 56, 60, 135, 135, 60, 2, 5.18009
325, 1, bw, attraction, a-b-da, 14, 1, 4, 6, 125, 56, 60, 135, 135, 60, 1, 0.690508
325, 1, bw, attraction, a-b-db, 2, 3, 4, 7, 195, 120, 120, 195, 119, 193, 2, 5.4921
325, 1, bw, attraction, a-b-db, 2, 3, 4, 7, 195, 120, 120, 195, 119, 193, 1, 0.525746
325, 1, bw, attraction, a-b-da, 2, 2, 4, 8, 163, 89, 165, 90, 90, 165, 3, 4.70214
325, 1, bw, attraction, a-b-da, 2, 2, 4, 8, 163, 89, 165, 90, 90, 165, 2, 0.432117
325, 1, bw, filler, NA, 999, 999, 4, 9, 151, 67, 128, 169, 110, 180, 2, 1.02049
325, 1, bw, filler, NA, 999, 999, 4, 9, 151, 67, 128, 169, 110, 180, 1, 0.778837
325, 1, bw, catch, NA, 999, 999, 4, 10, 173, 142, 91, 104, 124, 131, 1, 0.809144
325, 1, bw, catch, NA, 999, 999, 4, 10, 173, 142, 91, 104, 124, 131, 2, 0.303551
325, 1, bw, filler, NA, 999, 999, 4, 11, 130, 135, 193, 164, 73, 71, 2, 0.985387
325, 1, bw, filler, NA, 999, 999, 4, 11, 130, 135, 193, 164, 73, 71, 3, 0.737193
325, 1, bw, attraction, a-b-da, 2, 1, 4, 12, 60, 135, 135, 60, 134, 59, 2, 3.63351
325, 1, bw, attraction, a-b-da, 2, 1, 4, 12, 60, 135, 135, 60, 134, 59, 1, 0.606254
325, 1, bw, attraction, a-b-db, 9, 1, 4, 13, 60, 135, 57, 129, 135, 60, 2, 1.90807
325, 1, bw, attraction, a-b-db, 9, 1, 4, 13, 60, 135, 57, 129, 135, 60, 3, 0.494169
325, 1, bw, filler, NA, 999, 999, 4, 14, 153, 65, 180, 167, 163, 149, 2, 1.71995
325, 1, bw, filler, NA, 999, 999, 4, 14, 153, 65, 180, 167, 163, 149, 1, 0.618003
325, 1, bw, filler, NA, 999, 999, 4, 15, 70, 186, 107, 70, 191, 183, 3, 0.967202
325, 1, bw, filler, NA, 999, 999, 4, 15, 70, 186, 107, 70, 191, 183, 2, 0.463349
325, 1, bw, catch, NA, 999, 999, 4, 16, 153, 162, 131, 64, 135, 120, 1, 0.842427
325, 1, bw, catch, NA, 999, 999, 4, 16, 153, 162, 131, 64, 135, 120, 2, 0.655482
325, 1, bw, attraction, a-b-da, 5, 1, 4, 17, 60, 135, 132, 58, 135, 60, 2, 1.83539
325, 1, bw, attraction, a-b-da, 5, 1, 4, 17, 60, 135, 132, 58, 135, 60, 1, 0.616689
325, 1, bw, filler, NA, 999, 999, 4, 18, 112, 103, 60, 184, 192, 162, 3, 0.957864
325, 1, bw, filler, NA, 999, 999, 4, 18, 112, 103, 60, 184, 192, 162, 2, 0.478111
325, 1, bw, attraction, a-b-db, 5, 2, 4, 19, 165, 90, 90, 165, 88, 161, 1, 1.08063
325, 1, bw, attraction, a-b-db, 5, 2, 4, 19, 165, 90, 90, 165, 88, 161, 2, 2.80422
325, 1, bw, attraction, a-b-db, 14, 2, 4, 20, 90, 165, 165, 90, 83, 153, 1, 4.43325
325, 1, bw, attraction, a-b-db, 14, 2, 4, 20, 90, 165, 165, 90, 83, 153, 3, 1.0619
325, 1, bw, attraction, a-b-db, 5, 1, 4, 21, 58, 132, 135, 60, 60, 135, 2, 3.02483
325, 1, bw, attraction, a-b-db, 5, 1, 4, 21, 58, 132, 135, 60, 60, 135, 3, 0.49394
325, 1, bw, attraction, a-b-da, 5, 3, 4, 22, 120, 195, 195, 120, 190, 117, 1, 4.16759
325, 1, bw, attraction, a-b-da, 5, 3, 4, 22, 120, 195, 195, 120, 190, 117, 3, 0.846945
325, 1, bw, attraction, a-b-db, 2, 1, 4, 23, 60, 135, 135, 60, 59, 134, 2, 2.33869
325, 1, bw, attraction, a-b-db, 2, 1, 4, 23, 60, 135, 135, 60, 59, 134, 1, 0.331273
325, 1, bw, attraction, a-b-db, 5, 3, 4, 24, 120, 195, 117, 190, 195, 120, 1, 4.01975
325, 1, bw, attraction, a-b-db, 5, 3, 4, 24, 120, 195, 117, 190, 195, 120, 2, 0.345062
325, 1, bw, attraction, a-b-da, 14, 2, 4, 25, 165, 90, 153, 83, 90, 165, 1, 2.37705
325, 1, bw, attraction, a-b-da, 14, 2, 4, 25, 165, 90, 153, 83, 90, 165, 2, 1.02437
325, 1, bw, attraction, a-b-db, 9, 2, 4, 26, 90, 165, 86, 157, 165, 90, 1, 5.1805
325, 1, bw, attraction, a-b-db, 9, 2, 4, 26, 90, 165, 86, 157, 165, 90, 3, 0.69882
325, 1, bw, attraction, a-b-db, 9, 3, 4, 27, 114, 186, 195, 120, 120, 195, 3, 1.93249
325, 1, bw, attraction, a-b-db, 9, 3, 4, 27, 114, 186, 195, 120, 120, 195, 2, 0.477923
325, 1, bw, attraction, a-b-db, 2, 2, 4, 28, 165, 90, 90, 165, 89, 163, 1, 1.9924
325, 1, bw, attraction, a-b-db, 2, 2, 4, 28, 165, 90, 90, 165, 89, 163, 2, 0.334984
325, 1, bw, filler, NA, 999, 999, 4, 29, 56, 111, 181, 163, 158, 86, 2, 1.00748
325, 1, bw, filler, NA, 999, 999, 4, 29, 56, 111, 181, 163, 158, 86, 1, 0.789801
325, 1, bw, filler, NA, 999, 999, 4, 30, 101, 150, 60, 137, 129, 182, 3, 0.948168
325, 1, bw, filler, NA, 999, 999, 4, 30, 101, 150, 60, 137, 129, 182, 2, 0.589243
325, 1, bw, filler, NA, 999, 999, 4, 31, 109, 92, 110, 116, 191, 115, 3, 3.20362
325, 1, bw, filler, NA, 999, 999, 4, 31, 109, 92, 110, 116, 191, 115, 1, 0.481915
325, 1, bw, attraction, a-b-da, 9, 2, 4, 32, 90, 165, 157, 86, 165, 90, 1, 1.13255
325, 1, bw, attraction, a-b-da, 9, 2, 4, 32, 90, 165, 157, 86, 165, 90, 2, 0.478068
325, 1, bw, catch, NA, 999, 999, 4, 33, 136, 119, 169, 146, 69, 126, 2, 1.25656
325, 1, bw, catch, NA, 999, 999, 4, 33, 136, 119, 169, 146, 69, 126, 3, 0.404925
325, 1, bw, attraction, a-b-da, 2, 3, 4, 34, 193, 119, 120, 195, 195, 120, 2, 2.27466
325, 1, bw, attraction, a-b-da, 2, 3, 4, 34, 193, 119, 120, 195, 195, 120, 1, 0.309883
325, 1, bw, filler, NA, 999, 999, 4, 35, 87, 141, 165, 135, 173, 172, 3, 0.686918
325, 1, bw, filler, NA, 999, 999, 4, 35, 87, 141, 165, 135, 173, 172, 1, 0.930729
325, 1, bw, attraction, a-b-da, 9, 3, 4, 36, 186, 114, 195, 120, 120, 195, 1, 1.34706
325, 1, bw, attraction, a-b-da, 9, 3, 4, 36, 186, 114, 195, 120, 120, 195, 2, 0.299933
325, 1, bw, attraction, a-b-db, 14, 3, 4, 37, 111, 181, 120, 195, 195, 120, 3, 2.31789
325, 1, bw, attraction, a-b-db, 14, 3, 4, 37, 111, 181, 120, 195, 195, 120, 2, 0.399711
325, 1, bw, attraction, a-b-da, 9, 1, 5, 1, 60, 135, 129, 57, 135, 60, 1, 30.6841
325, 1, bw, attraction, a-b-da, 9, 1, 5, 1, 60, 135, 129, 57, 135, 60, 2, 0.430536
325, 1, bw, filler, NA, 999, 999, 5, 2, 67, 107, 182, 149, 148, 163, 2, 1.56316
325, 1, bw, filler, NA, 999, 999, 5, 2, 67, 107, 182, 149, 148, 163, 1, 0.675155
325, 1, bw, filler, NA, 999, 999, 5, 3, 122, 194, 76, 93, 96, 108, 1, 0.94951
325, 1, bw, filler, NA, 999, 999, 5, 3, 122, 194, 76, 93, 96, 108, 2, 0.894549
325, 1, bw, attraction, a-b-da, 5, 2, 5, 4, 165, 90, 90, 165, 161, 88, 2, 1.37624
325, 1, bw, attraction, a-b-da, 5, 2, 5, 4, 165, 90, 90, 165, 161, 88, 1, 0.663738
325, 1, bw, attraction, a-b-da, 9, 2, 5, 5, 157, 86, 165, 90, 90, 165, 1, 1.16289
325, 1, bw, attraction, a-b-da, 9, 2, 5, 5, 157, 86, 165, 90, 90, 165, 2, 0.259196
325, 1, bw, attraction, a-b-db, 5, 3, 5, 6, 195, 120, 117, 190, 120, 195, 1, 3.62231
325, 1, bw, attraction, a-b-db, 5, 3, 5, 6, 195, 120, 117, 190, 120, 195, 2, 0.595172
325, 1, bw, catch, NA, 999, 999, 5, 7, 103, 152, 167, 148, 121, 74, 2, 0.816863
325, 1, bw, catch, NA, 999, 999, 5, 7, 103, 152, 167, 148, 121, 74, 3, 0.487281
325, 1, bw, catch, NA, 999, 999, 5, 8, 102, 153, 101, 94, 169, 146, 3, 1.28171
325, 1, bw, catch, NA, 999, 999, 5, 8, 102, 153, 101, 94, 169, 146, 2, 0.349327
325, 1, bw, attraction, a-b-db, 14, 3, 5, 9, 111, 181, 120, 195, 195, 120, 3, 2.00521
325, 1, bw, attraction, a-b-db, 14, 3, 5, 9, 111, 181, 120, 195, 195, 120, 1, 0.363222
325, 1, bw, filler, NA, 999, 999, 5, 10, 185, 103, 109, 145, 161, 105, 1, 1.77032
325, 1, bw, filler, NA, 999, 999, 5, 10, 185, 103, 109, 145, 161, 105, 2, 0.466388
325, 1, bw, catch, NA, 999, 999, 5, 11, 103, 92, 135, 180, 157, 98, 2, 1.48556
325, 1, bw, catch, NA, 999, 999, 5, 11, 103, 92, 135, 180, 157, 98, 1, 0.441075
325, 1, bw, attraction, a-b-da, 5, 1, 5, 12, 60, 135, 132, 58, 135, 60, 1, 2.6929
325, 1, bw, attraction, a-b-da, 5, 1, 5, 12, 60, 135, 132, 58, 135, 60, 3, 0.567403
325, 1, bw, attraction, a-b-da, 14, 1, 5, 13, 60, 135, 135, 60, 125, 56, 1, 1.60645
325, 1, bw, attraction, a-b-da, 14, 1, 5, 13, 60, 135, 135, 60, 125, 56, 3, 0.292542
325, 1, bw, attraction, a-b-db, 14, 2, 5, 14, 165, 90, 90, 165, 83, 153, 1, 2.53446
325, 1, bw, attraction, a-b-db, 14, 2, 5, 14, 165, 90, 90, 165, 83, 153, 2, 0.471601
325, 1, bw, attraction, a-b-db, 2, 2, 5, 15, 89, 163, 165, 90, 90, 165, 2, 2.08285
325, 1, bw, attraction, a-b-db, 2, 2, 5, 15, 89, 163, 165, 90, 90, 165, 3, 0.398117
325, 1, bw, filler, NA, 999, 999, 5, 16, 166, 72, 189, 163, 148, 128, 2, 0.763831
325, 1, bw, filler, NA, 999, 999, 5, 16, 166, 72, 189, 163, 148, 128, 1, 0.372204
325, 1, bw, attraction, a-b-da, 2, 1, 5, 17, 60, 135, 135, 60, 134, 59, 2, 1.41145
325, 1, bw, attraction, a-b-da, 2, 1, 5, 17, 60, 135, 135, 60, 134, 59, 1, 0.28964
325, 1, bw, attraction, a-b-da, 2, 3, 5, 18, 195, 120, 120, 195, 193, 119, 2, 1.84421
325, 1, bw, attraction, a-b-da, 2, 3, 5, 18, 195, 120, 120, 195, 193, 119, 1, 0.689041
325, 1, bw, attraction, a-b-da, 5, 3, 5, 19, 120, 195, 190, 117, 195, 120, 1, 2.97929
325, 1, bw, attraction, a-b-da, 5, 3, 5, 19, 120, 195, 190, 117, 195, 120, 2, 0.210254
325, 1, bw, attraction, a-b-db, 2, 1, 5, 20, 135, 60, 60, 135, 59, 134, 2, 5.42361
325, 1, bw, attraction, a-b-db, 2, 1, 5, 20, 135, 60, 60, 135, 59, 134, 3, 0.340028
325, 1, bw, attraction, a-b-db, 9, 3, 5, 21, 120, 195, 195, 120, 114, 186, 1, 2.26759
325, 1, bw, attraction, a-b-db, 9, 3, 5, 21, 120, 195, 195, 120, 114, 186, 3, 0.495636
325, 1, bw, filler, NA, 999, 999, 5, 22, 181, 151, 151, 186, 96, 187, 2, 1.56942
325, 1, bw, filler, NA, 999, 999, 5, 22, 181, 151, 151, 186, 96, 187, 3, 0.897531
325, 1, bw, attraction, a-b-db, 9, 1, 5, 23, 60, 135, 57, 129, 135, 60, 1, 3.59532
325, 1, bw, attraction, a-b-db, 9, 1, 5, 23, 60, 135, 57, 129, 135, 60, 2, 0.425304
325, 1, bw, attraction, a-b-da, 9, 3, 5, 24, 120, 195, 186, 114, 195, 120, 1, 4.99784
325, 1, bw, attraction, a-b-da, 9, 3, 5, 24, 120, 195, 186, 114, 195, 120, 3, 0.523514
325, 1, bw, attraction, a-b-da, 14, 3, 5, 25, 195, 120, 181, 111, 120, 195, 1, 3.14803
325, 1, bw, attraction, a-b-da, 14, 3, 5, 25, 195, 120, 181, 111, 120, 195, 3, 0.668335
325, 1, bw, attraction, a-b-db, 14, 1, 5, 26, 56, 125, 135, 60, 60, 135, 2, 4.50342
325, 1, bw, attraction, a-b-db, 14, 1, 5, 26, 56, 125, 135, 60, 60, 135, 1, 0.945323
325, 1, bw, filler, NA, 999, 999, 5, 27, 83, 176, 75, 149, 156, 110, 3, 2.72892
325, 1, bw, filler, NA, 999, 999, 5, 27, 83, 176, 75, 149, 156, 110, 2, 0.546081
325, 1, bw, attraction, a-b-da, 2, 2, 5, 28, 90, 165, 165, 90, 163, 89, 2, 3.10584
325, 1, bw, attraction, a-b-da, 2, 2, 5, 28, 90, 165, 165, 90, 163, 89, 3, 0.66769
325, 1, bw, filler, NA, 999, 999, 5, 29, 112, 179, 191, 127, 65, 144, 2, 0.982589
325, 1, bw, filler, NA, 999, 999, 5, 29, 112, 179, 191, 127, 65, 144, 3, 0.61427
325, 1, bw, attraction, a-b-db, 2, 3, 5, 30, 195, 120, 120, 195, 119, 193, 2, 1.42731
325, 1, bw, attraction, a-b-db, 2, 3, 5, 30, 195, 120, 120, 195, 119, 193, 3, 2.79291
325, 1, bw, attraction, a-b-db, 9, 2, 5, 31, 165, 90, 90, 165, 86, 157, 1, 3.36599
325, 1, bw, attraction, a-b-db, 9, 2, 5, 31, 165, 90, 90, 165, 86, 157, 3, 0.429459
325, 1, bw, attraction, a-b-db, 5, 2, 5, 32, 165, 90, 90, 165, 88, 161, 2, 1.98595
325, 1, bw, attraction, a-b-db, 5, 2, 5, 32, 165, 90, 90, 165, 88, 161, 3, 1.8015
325, 1, bw, filler, NA, 999, 999, 5, 33, 193, 98, 56, 193, 130, 194, 3, 2.09485
325, 1, bw, filler, NA, 999, 999, 5, 33, 193, 98, 56, 193, 130, 194, 2, 0.39342
325, 1, bw, attraction, a-b-db, 5, 1, 5, 34, 135, 60, 60, 135, 58, 132, 1, 2.14314
325, 1, bw, attraction, a-b-db, 5, 1, 5, 34, 135, 60, 60, 135, 58, 132, 2, 0.367818
325, 1, bw, attraction, a-b-da, 14, 2, 5, 35, 165, 90, 90, 165, 153, 83, 1, 4.69493
325, 1, bw, attraction, a-b-da, 14, 2, 5, 35, 165, 90, 90, 165, 153, 83, 2, 0.480815
325, 1, bw, filler, NA, 999, 999, 5, 36, 190, 89, 106, 116, 75, 137, 1, 2.34743
325, 1, bw, filler, NA, 999, 999, 5, 36, 190, 89, 106, 116, 75, 137, 2, 0.811883
325, 1, bw, filler, NA, 999, 999, 5, 37, 154, 123, 134, 136, 130, 141, 2, 4.08888
325, 1, bw, filler, NA, 999, 999, 5, 37, 154, 123, 134, 136, 130, 141, 1, 2.78689
325, 1, bw, filler, NA, 999, 999, 6, 1, 184, 153, 92, 90, 193, 86, 1, 1.43265
325, 1, bw, filler, NA, 999, 999, 6, 1, 184, 153, 92, 90, 193, 86, 2, 0.43818
325, 1, bw, attraction, a-b-da, 14, 1, 6, 2, 60, 135, 135, 60, 125, 56, 2, 1.78667
325, 1, bw, attraction, a-b-da, 14, 1, 6, 2, 60, 135, 135, 60, 125, 56, 3, 0.658236
325, 1, bw, attraction, a-b-db, 5, 1, 6, 3, 58, 132, 135, 60, 60, 135, 1, 2.24516
325, 1, bw, attraction, a-b-db, 5, 1, 6, 3, 58, 132, 135, 60, 60, 135, 2, 0.369688
325, 1, bw, attraction, a-b-db, 2, 2, 6, 4, 90, 165, 165, 90, 89, 163, 2, 1.77688
325, 1, bw, attraction, a-b-db, 2, 2, 6, 4, 90, 165, 165, 90, 89, 163, 1, 0.392328
325, 1, bw, attraction, a-b-db, 14, 1, 6, 5, 135, 60, 56, 125, 60, 135, 2, 3.59011
325, 1, bw, attraction, a-b-db, 14, 1, 6, 5, 135, 60, 56, 125, 60, 135, 1, 0.668281
325, 1, bw, attraction, a-b-db, 9, 2, 6, 6, 165, 90, 90, 165, 86, 157, 1, 1.11938
325, 1, bw, attraction, a-b-db, 9, 2, 6, 6, 165, 90, 90, 165, 86, 157, 3, 1.25784
325, 1, bw, filler, NA, 999, 999, 6, 7, 142, 73, 179, 160, 58, 108, 2, 0.772569
325, 1, bw, filler, NA, 999, 999, 6, 7, 142, 73, 179, 160, 58, 108, 3, 0.508191
325, 1, bw, filler, NA, 999, 999, 6, 8, 130, 70, 155, 184, 165, 173, 2, 1.04543
325, 1, bw, filler, NA, 999, 999, 6, 8, 130, 70, 155, 184, 165, 173, 1, 1.00239
325, 1, bw, attraction, a-b-da, 2, 1, 6, 9, 135, 60, 134, 59, 60, 135, 1, 3.04808
325, 1, bw, attraction, a-b-da, 2, 1, 6, 9, 135, 60, 134, 59, 60, 135, 3, 0.63635
325, 1, bw, catch, NA, 999, 999, 6, 10, 60, 135, 131, 124, 122, 193, 3, 1.17677
325, 1, bw, catch, NA, 999, 999, 6, 10, 60, 135, 131, 124, 122, 193, 1, 0.720456
325, 1, bw, filler, NA, 999, 999, 6, 11, 70, 119, 185, 162, 147, 179, 2, 0.945417
325, 1, bw, filler, NA, 999, 999, 6, 11, 70, 119, 185, 162, 147, 179, 1, 0.506449
325, 1, bw, attraction, a-b-db, 14, 3, 6, 12, 111, 181, 195, 120, 120, 195, 3, 2.75621
325, 1, bw, attraction, a-b-db, 14, 3, 6, 12, 111, 181, 195, 120, 120, 195, 1, 0.564076
325, 1, bw, attraction, a-b-da, 9, 3, 6, 13, 120, 195, 186, 114, 195, 120, 1, 2.23507
325, 1, bw, attraction, a-b-da, 9, 3, 6, 13, 120, 195, 186, 114, 195, 120, 2, 0.296526
325, 1, bw, attraction, a-b-da, 9, 1, 6, 14, 129, 57, 135, 60, 60, 135, 2, 2.13816
325, 1, bw, attraction, a-b-da, 9, 1, 6, 14, 129, 57, 135, 60, 60, 135, 3, 0.866855
325, 1, bw, attraction, a-b-da, 14, 2, 6, 15, 90, 165, 165, 90, 153, 83, 1, 1.03785
325, 1, bw, attraction, a-b-da, 14, 2, 6, 15, 90, 165, 165, 90, 153, 83, 3, 0.691627
325, 1, bw, attraction, a-b-da, 5, 1, 6, 16, 132, 58, 60, 135, 135, 60, 3, 1.58924
325, 1, bw, attraction, a-b-da, 5, 1, 6, 16, 132, 58, 60, 135, 135, 60, 2, 0.42006
325, 1, bw, attraction, a-b-db, 2, 1, 6, 17, 135, 60, 59, 134, 60, 135, 1, 1.20922
325, 1, bw, attraction, a-b-db, 2, 1, 6, 17, 135, 60, 59, 134, 60, 135, 2, 0.511455
325, 1, bw, attraction, a-b-da, 9, 2, 6, 18, 90, 165, 165, 90, 157, 86, 2, 1.08057
325, 1, bw, attraction, a-b-da, 9, 2, 6, 18, 90, 165, 165, 90, 157, 86, 3, 0.716193
325, 1, bw, catch, NA, 999, 999, 6, 19, 79, 116, 174, 141, 110, 145, 2, 1.14127
325, 1, bw, catch, NA, 999, 999, 6, 19, 79, 116, 174, 141, 110, 145, 1, 0.358227
325, 1, bw, attraction, a-b-da, 2, 2, 6, 20, 90, 165, 165, 90, 163, 89, 3, 3.62941
325, 1, bw, attraction, a-b-da, 2, 2, 6, 20, 90, 165, 165, 90, 163, 89, 1, 0.322233
325, 1, bw, attraction, a-b-db, 5, 2, 6, 21, 90, 165, 165, 90, 88, 161, 2, 2.52336
325, 1, bw, attraction, a-b-db, 5, 2, 6, 21, 90, 165, 165, 90, 88, 161, 3, 0.828578
325, 1, bw, attraction, a-b-db, 9, 3, 6, 22, 195, 120, 114, 186, 120, 195, 3, 1.04094
325, 1, bw, attraction, a-b-db, 9, 3, 6, 22, 195, 120, 114, 186, 120, 195, 1, 0.597809
325, 1, bw, filler, NA, 999, 999, 6, 23, 73, 98, 176, 160, 133, 167, 2, 1.20361
325, 1, bw, filler, NA, 999, 999, 6, 23, 73, 98, 176, 160, 133, 167, 1, 0.394578
325, 1, bw, filler, NA, 999, 999, 6, 24, 161, 154, 142, 101, 178, 71, 1, 0.888381
325, 1, bw, filler, NA, 999, 999, 6, 24, 161, 154, 142, 101, 178, 71, 2, 0.387376
325, 1, bw, filler, NA, 999, 999, 6, 25, 76, 69, 137, 96, 106, 65, 2, 1.16193
325, 1, bw, filler, NA, 999, 999, 6, 25, 76, 69, 137, 96, 106, 65, 1, 0.474237
325, 1, bw, attraction, a-b-da, 5, 3, 6, 26, 120, 195, 195, 120, 190, 117, 2, 1.10857
325, 1, bw, attraction, a-b-da, 5, 3, 6, 26, 120, 195, 195, 120, 190, 117, 1, 0.310935
325, 1, bw, attraction, a-b-db, 5, 3, 6, 27, 120, 195, 117, 190, 195, 120, 3, 2.37617
325, 1, bw, attraction, a-b-db, 5, 3, 6, 27, 120, 195, 117, 190, 195, 120, 2, 0.4154
325, 1, bw, catch, NA, 999, 999, 6, 28, 128, 67, 134, 121, 186, 129, 3, 1.16444
325, 1, bw, catch, NA, 999, 999, 6, 28, 128, 67, 134, 121, 186, 129, 1, 0.916832
325, 1, bw, attraction, a-b-db, 2, 3, 6, 29, 119, 193, 195, 120, 120, 195, 2, 2.94172
325, 1, bw, attraction, a-b-db, 2, 3, 6, 29, 119, 193, 195, 120, 120, 195, 1, 0.390184
325, 1, bw, filler, NA, 999, 999, 6, 30, 160, 82, 61, 140, 168, 132, 3, 1.45995
325, 1, bw, filler, NA, 999, 999, 6, 30, 160, 82, 61, 140, 168, 132, 2, 0.448188
325, 1, bw, attraction, a-b-db, 9, 1, 6, 31, 60, 135, 57, 129, 135, 60, 2, 2.39592
325, 1, bw, attraction, a-b-db, 9, 1, 6, 31, 60, 135, 57, 129, 135, 60, 1, 0.426433
325, 1, bw, attraction, a-b-da, 5, 2, 6, 32, 90, 165, 165, 90, 161, 88, 3, 1.50292
325, 1, bw, attraction, a-b-da, 5, 2, 6, 32, 90, 165, 165, 90, 161, 88, 2, 0.5058
325, 1, bw, attraction, a-b-db, 14, 2, 6, 33, 165, 90, 83, 153, 90, 165, 2, 1.47565
325, 1, bw, attraction, a-b-db, 14, 2, 6, 33, 165, 90, 83, 153, 90, 165, 3, 1.21514
325, 1, bw, filler, NA, 999, 999, 6, 34, 151, 140, 153, 183, 63, 90, 2, 1.07597
325, 1, bw, filler, NA, 999, 999, 6, 34, 151, 140, 153, 183, 63, 90, 3, 0.847683
325, 1, bw, attraction, a-b-da, 2, 3, 6, 35, 193, 119, 195, 120, 120, 195, 2, 2.60344
325, 1, bw, attraction, a-b-da, 2, 3, 6, 35, 193, 119, 195, 120, 120, 195, 3, 0.305881
325, 1, bw, attraction, a-b-da, 14, 3, 6, 36, 120, 195, 181, 111, 195, 120, 2, 0.867764
325, 1, bw, attraction, a-b-da, 14, 3, 6, 36, 120, 195, 181, 111, 195, 120, 1, 1.36013
325, 1, bw, filler, NA, 999, 999, 6, 37, 59, 82, 103, 109, 100, 62, 2, 1.09487
325, 1, bw, filler, NA, 999, 999, 6, 37, 59, 82, 103, 109, 100, 62, 1, 0.857897
325, 1, bw, attraction, a-b-da, 14, 2, 7, 1, 90, 165, 165, 90, 153, 83, 1, 1.37282
325, 1, bw, attraction, a-b-da, 14, 2, 7, 1, 90, 165, 165, 90, 153, 83, 3, 1.26839
325, 1, bw, filler, NA, 999, 999, 7, 2, 111, 86, 75, 149, 162, 73, 2, 1.52722
325, 1, bw, filler, NA, 999, 999, 7, 2, 111, 86, 75, 149, 162, 73, 1, 0.680854
325, 1, bw, attraction, a-b-db, 9, 1, 7, 3, 135, 60, 57, 129, 60, 135, 2, 2.39521
325, 1, bw, attraction, a-b-db, 9, 1, 7, 3, 135, 60, 57, 129, 60, 135, 3, 0.585695
325, 1, bw, attraction, a-b-da, 14, 3, 7, 4, 181, 111, 195, 120, 120, 195, 2, 2.34415
325, 1, bw, attraction, a-b-da, 14, 3, 7, 4, 181, 111, 195, 120, 120, 195, 3, 0.640752
325, 1, bw, catch, NA, 999, 999, 7, 5, 131, 124, 171, 144, 67, 128, 2, 0.860402
325, 1, bw, catch, NA, 999, 999, 7, 5, 131, 124, 171, 144, 67, 128, 3, 0.544788
325, 1, bw, attraction, a-b-db, 5, 3, 7, 6, 195, 120, 117, 190, 120, 195, 2, 1.80855
325, 1, bw, attraction, a-b-db, 5, 3, 7, 6, 195, 120, 117, 190, 120, 195, 3, 5.37472
325, 1, bw, filler, NA, 999, 999, 7, 7, 123, 135, 162, 145, 59, 118, 2, 5.34831
325, 1, bw, filler, NA, 999, 999, 7, 7, 123, 135, 162, 145, 59, 118, 3, 1.41992
325, 1, bw, attraction, a-b-db, 9, 2, 7, 8, 90, 165, 86, 157, 165, 90, 2, 0.920732
325, 1, bw, attraction, a-b-db, 9, 2, 7, 8, 90, 165, 86, 157, 165, 90, 1, 0.722978
325, 1, bw, attraction, a-b-da, 14, 1, 7, 9, 135, 60, 125, 56, 60, 135, 2, 2.63612
325, 1, bw, attraction, a-b-da, 14, 1, 7, 9, 135, 60, 125, 56, 60, 135, 1, 0.505444
325, 1, bw, attraction, a-b-da, 5, 1, 7, 10, 60, 135, 135, 60, 132, 58, 2, 1.66716
325, 1, bw, attraction, a-b-da, 5, 1, 7, 10, 60, 135, 135, 60, 132, 58, 3, 0.551263
325, 1, bw, attraction, a-b-db, 2, 1, 7, 11, 135, 60, 60, 135, 59, 134, 2, 0.791025
325, 1, bw, attraction, a-b-db, 2, 1, 7, 11, 135, 60, 60, 135, 59, 134, 1, 0.894001
325, 1, bw, filler, NA, 999, 999, 7, 12, 187, 164, 135, 129, 184, 84, 1, 0.919643
325, 1, bw, filler, NA, 999, 999, 7, 12, 187, 164, 135, 129, 184, 84, 2, 0.306036
325, 1, bw, attraction, a-b-db, 9, 3, 7, 13, 195, 120, 120, 195, 114, 186, 2, 1.62
325, 1, bw, attraction, a-b-db, 9, 3, 7, 13, 195, 120, 120, 195, 114, 186, 3, 0.250136
325, 1, bw, attraction, a-b-db, 14, 2, 7, 14, 83, 153, 90, 165, 165, 90, 3, 2.05404
325, 1, bw, attraction, a-b-db, 14, 2, 7, 14, 83, 153, 90, 165, 165, 90, 2, 0.274506
325, 1, bw, attraction, a-b-db, 2, 2, 7, 15, 165, 90, 89, 163, 90, 165, 1, 5.22907
325, 1, bw, attraction, a-b-db, 2, 2, 7, 15, 165, 90, 89, 163, 90, 165, 3, 0.657448
325, 1, bw, attraction, a-b-db, 2, 3, 7, 16, 195, 120, 120, 195, 119, 193, 1, 2.6925
325, 1, bw, attraction, a-b-db, 2, 3, 7, 16, 195, 120, 120, 195, 119, 193, 2, 0.870945
325, 1, bw, attraction, a-b-da, 2, 3, 7, 17, 195, 120, 120, 195, 193, 119, 2, 3.76208
325, 1, bw, attraction, a-b-da, 2, 3, 7, 17, 195, 120, 120, 195, 193, 119, 3, 0.785414
325, 1, bw, filler, NA, 999, 999, 7, 18, 71, 113, 113, 83, 178, 165, 3, 1.03983
325, 1, bw, filler, NA, 999, 999, 7, 18, 71, 113, 113, 83, 178, 165, 2, 0.580748
325, 1, bw, attraction, a-b-db, 14, 1, 7, 19, 60, 135, 135, 60, 56, 125, 2, 1.68313
325, 1, bw, attraction, a-b-db, 14, 1, 7, 19, 60, 135, 135, 60, 56, 125, 3, 0.598622
325, 1, bw, attraction, a-b-da, 9, 3, 7, 20, 195, 120, 120, 195, 186, 114, 1, 1.78033
325, 1, bw, attraction, a-b-da, 9, 3, 7, 20, 195, 120, 120, 195, 186, 114, 2, 0.411822
325, 1, bw, attraction, a-b-db, 14, 3, 7, 21, 195, 120, 111, 181, 120, 195, 1, 1.32087
325, 1, bw, attraction, a-b-db, 14, 3, 7, 21, 195, 120, 111, 181, 120, 195, 2, 0.315273
325, 1, bw, catch, NA, 999, 999, 7, 22, 157, 98, 178, 137, 114, 81, 2, 2.10845
325, 1, bw, catch, NA, 999, 999, 7, 22, 157, 98, 178, 137, 114, 81, 3, 0.582451
325, 1, bw, filler, NA, 999, 999, 7, 23, 166, 173, 165, 105, 152, 145, 3, 2.52488
325, 1, bw, filler, NA, 999, 999, 7, 23, 166, 173, 165, 105, 152, 145, 2, 0.53404
325, 1, bw, attraction, a-b-da, 5, 3, 7, 24, 190, 117, 120, 195, 195, 120, 2, 6.02237
325, 1, bw, attraction, a-b-da, 5, 3, 7, 24, 190, 117, 120, 195, 195, 120, 3, 0.595131
325, 1, bw, attraction, a-b-db, 5, 1, 7, 25, 58, 132, 135, 60, 60, 135, 2, 2.86497
325, 1, bw, attraction, a-b-db, 5, 1, 7, 25, 58, 132, 135, 60, 60, 135, 3, 0.884664
325, 1, bw, filler, NA, 999, 999, 7, 26, 143, 134, 104, 61, 166, 184, 3, 0.958998
325, 1, bw, filler, NA, 999, 999, 7, 26, 143, 134, 104, 61, 166, 184, 2, 0.551417
325, 1, bw, attraction, a-b-da, 2, 2, 7, 27, 165, 90, 90, 165, 163, 89, 2, 1.4311
325, 1, bw, attraction, a-b-da, 2, 2, 7, 27, 165, 90, 90, 165, 163, 89, 1, 0.412562
325, 1, bw, catch, NA, 999, 999, 7, 28, 118, 137, 131, 64, 194, 121, 3, 1.36195
325, 1, bw, catch, NA, 999, 999, 7, 28, 118, 137, 131, 64, 194, 121, 2, 0.553939
325, 1, bw, filler, NA, 999, 999, 7, 29, 92, 139, 139, 86, 178, 80, 3, 1.35385
325, 1, bw, filler, NA, 999, 999, 7, 29, 92, 139, 139, 86, 178, 80, 2, 0.506667
325, 1, bw, attraction, a-b-da, 9, 1, 7, 30, 129, 57, 135, 60, 60, 135, 1, 1.11574
325, 1, bw, attraction, a-b-da, 9, 1, 7, 30, 129, 57, 135, 60, 60, 135, 2, 0.877966
325, 1, bw, attraction, a-b-db, 5, 2, 7, 31, 165, 90, 90, 165, 88, 161, 1, 1.43235
325, 1, bw, attraction, a-b-db, 5, 2, 7, 31, 165, 90, 90, 165, 88, 161, 3, 0.32588
325, 1, bw, filler, NA, 999, 999, 7, 32, 172, 70, 100, 167, 92, 115, 2, 1.42248
325, 1, bw, filler, NA, 999, 999, 7, 32, 172, 70, 100, 167, 92, 115, 3, 1.06793
325, 1, bw, attraction, a-b-da, 9, 2, 7, 33, 165, 90, 157, 86, 90, 165, 2, 3.11087
325, 1, bw, attraction, a-b-da, 9, 2, 7, 33, 165, 90, 157, 86, 90, 165, 3, 0.496547
325, 1, bw, filler, NA, 999, 999, 7, 34, 141, 175, 56, 178, 80, 107, 1, 1.35428
325, 1, bw, filler, NA, 999, 999, 7, 34, 141, 175, 56, 178, 80, 107, 3, 0.763229
325, 1, bw, filler, NA, 999, 999, 7, 35, 149, 148, 113, 125, 117, 160, 1, 1.07428
325, 1, bw, filler, NA, 999, 999, 7, 35, 149, 148, 113, 125, 117, 160, 3, 0.39795
325, 1, bw, attraction, a-b-da, 5, 2, 7, 36, 90, 165, 165, 90, 161, 88, 1, 2.59565
325, 1, bw, attraction, a-b-da, 5, 2, 7, 36, 90, 165, 165, 90, 161, 88, 2, 0.650194
325, 1, bw, attraction, a-b-da, 2, 1, 7, 37, 134, 59, 60, 135, 135, 60, 2, 1.47784
325, 1, bw, attraction, a-b-da, 2, 1, 7, 37, 134, 59, 60, 135, 135, 60, 1, 0.385461
325, 1, bw, attraction, a-b-db, 9, 2, 8, 1, 86, 157, 165, 90, 90, 165, 3, 1.73598
325, 1, bw, attraction, a-b-db, 9, 2, 8, 1, 86, 157, 165, 90, 90, 165, 2, 0.345482
325, 1, bw, attraction, a-b-da, 2, 3, 8, 2, 195, 120, 193, 119, 120, 195, 2, 1.34523
325, 1, bw, attraction, a-b-da, 2, 3, 8, 2, 195, 120, 193, 119, 120, 195, 3, 0.298093
325, 1, bw, filler, NA, 999, 999, 8, 3, 195, 132, 94, 114, 109, 93, 1, 0.875904
325, 1, bw, filler, NA, 999, 999, 8, 3, 195, 132, 94, 114, 109, 93, 2, 0.367605
325, 1, bw, attraction, a-b-db, 5, 2, 8, 4, 90, 165, 88, 161, 165, 90, 1, 4.54283
325, 1, bw, attraction, a-b-db, 5, 2, 8, 4, 90, 165, 88, 161, 165, 90, 3, 0.406674
325, 1, bw, attraction, a-b-da, 9, 2, 8, 5, 157, 86, 165, 90, 90, 165, 3, 1.17981
325, 1, bw, attraction, a-b-da, 9, 2, 8, 5, 157, 86, 165, 90, 90, 165, 2, 0.339463
325, 1, bw, attraction, a-b-da, 2, 1, 8, 6, 134, 59, 135, 60, 60, 135, 3, 4.23601
325, 1, bw, attraction, a-b-da, 2, 1, 8, 6, 134, 59, 135, 60, 60, 135, 2, 0.664536
325, 1, bw, attraction, a-b-db, 14, 1, 8, 7, 60, 135, 56, 125, 135, 60, 1, 0.995626
325, 1, bw, attraction, a-b-db, 14, 1, 8, 7, 60, 135, 56, 125, 135, 60, 2, 0.314623
325, 1, bw, filler, NA, 999, 999, 8, 8, 161, 157, 153, 178, 189, 80, 2, 1.73176
325, 1, bw, filler, NA, 999, 999, 8, 8, 161, 157, 153, 178, 189, 80, 3, 1.42136
325, 1, bw, attraction, a-b-db, 2, 1, 8, 9, 59, 134, 135, 60, 60, 135, 2, 1.09815
325, 1, bw, attraction, a-b-db, 2, 1, 8, 9, 59, 134, 135, 60, 60, 135, 3, 0.373087
325, 1, bw, attraction, a-b-db, 14, 3, 8, 10, 120, 195, 111, 181, 195, 120, 3, 1.43629
325, 1, bw, attraction, a-b-db, 14, 3, 8, 10, 120, 195, 111, 181, 195, 120, 2, 0.681747
325, 1, bw, filler, NA, 999, 999, 8, 11, 158, 181, 125, 102, 106, 125, 1, 0.772153
325, 1, bw, filler, NA, 999, 999, 8, 11, 158, 181, 125, 102, 106, 125, 2, 0.579884
325, 1, bw, filler, NA, 999, 999, 8, 12, 146, 126, 158, 71, 127, 98, 1, 0.842229
325, 1, bw, filler, NA, 999, 999, 8, 12, 146, 126, 158, 71, 127, 98, 2, 0.527335
325, 1, bw, attraction, a-b-da, 14, 2, 8, 13, 153, 83, 165, 90, 90, 165, 3, 1.01576
325, 1, bw, attraction, a-b-da, 14, 2, 8, 13, 153, 83, 165, 90, 90, 165, 1, 0.486221
325, 1, bw, filler, NA, 999, 999, 8, 14, 75, 73, 79, 88, 192, 149, 3, 0.888656
325, 1, bw, filler, NA, 999, 999, 8, 14, 75, 73, 79, 88, 192, 149, 1, 0.47553
325, 1, bw, attraction, a-b-db, 5, 3, 8, 15, 195, 120, 120, 195, 117, 190, 1, 1.19016
325, 1, bw, attraction, a-b-db, 5, 3, 8, 15, 195, 120, 120, 195, 117, 190, 3, 0.349029
325, 1, bw, attraction, a-b-da, 9, 3, 8, 16, 195, 120, 120, 195, 186, 114, 2, 0.980782
325, 1, bw, attraction, a-b-da, 9, 3, 8, 16, 195, 120, 120, 195, 186, 114, 3, 0.644441
325, 1, bw, attraction, a-b-da, 9, 1, 8, 17, 129, 57, 135, 60, 60, 135, 3, 1.73618
325, 1, bw, attraction, a-b-da, 9, 1, 8, 17, 129, 57, 135, 60, 60, 135, 2, 0.721664
325, 1, bw, attraction, a-b-db, 2, 2, 8, 18, 89, 163, 90, 165, 165, 90, 2, 1.53073
325, 1, bw, attraction, a-b-db, 2, 2, 8, 18, 89, 163, 90, 165, 165, 90, 3, 0.300167
325, 1, bw, catch, NA, 999, 999, 8, 19, 73, 122, 126, 189, 165, 90, 2, 2.20623
325, 1, bw, catch, NA, 999, 999, 8, 19, 73, 122, 126, 189, 165, 90, 1, 0.284008
325, 1, bw, attraction, a-b-db, 14, 2, 8, 20, 83, 153, 90, 165, 165, 90, 2, 2.35054
325, 1, bw, attraction, a-b-db, 14, 2, 8, 20, 83, 153, 90, 165, 165, 90, 1, 0.410853
325, 1, bw, catch, NA, 999, 999, 8, 21, 97, 158, 62, 133, 154, 161, 3, 1.99622
325, 1, bw, catch, NA, 999, 999, 8, 21, 97, 158, 62, 133, 154, 161, 2, 0.362926
325, 1, bw, attraction, a-b-da, 5, 1, 8, 22, 132, 58, 60, 135, 135, 60, 2, 1.68206
325, 1, bw, attraction, a-b-da, 5, 1, 8, 22, 132, 58, 60, 135, 135, 60, 3, 0.525614
325, 1, bw, attraction, a-b-da, 5, 2, 8, 23, 165, 90, 90, 165, 161, 88, 2, 1.10997
325, 1, bw, attraction, a-b-da, 5, 2, 8, 23, 165, 90, 90, 165, 161, 88, 1, 0.544228
325, 1, bw, filler, NA, 999, 999, 8, 24, 132, 183, 123, 61, 96, 131, 1, 0.912001
325, 1, bw, filler, NA, 999, 999, 8, 24, 132, 183, 123, 61, 96, 131, 2, 0.314348
325, 1, bw, attraction, a-b-db, 9, 3, 8, 25, 114, 186, 120, 195, 195, 120, 3, 1.92357
325, 1, bw, attraction, a-b-db, 9, 3, 8, 25, 114, 186, 120, 195, 195, 120, 1, 0.364858
325, 1, bw, filler, NA, 999, 999, 8, 26, 117, 110, 88, 138, 85, 146, 2, 1.15619
325, 1, bw, filler, NA, 999, 999, 8, 26, 117, 110, 88, 138, 85, 146, 3, 0.316344
325, 1, bw, attraction, a-b-db, 9, 1, 8, 27, 60, 135, 57, 129, 135, 60, 3, 0.989499
325, 1, bw, attraction, a-b-db, 9, 1, 8, 27, 60, 135, 57, 129, 135, 60, 2, 0.268484
325, 1, bw, attraction, a-b-da, 2, 2, 8, 28, 163, 89, 90, 165, 165, 90, 2, 1.23977
325, 1, bw, attraction, a-b-da, 2, 2, 8, 28, 163, 89, 90, 165, 165, 90, 1, 0.316705
325, 1, bw, attraction, a-b-db, 5, 1, 8, 29, 58, 132, 135, 60, 60, 135, 2, 0.757949
325, 1, bw, attraction, a-b-db, 5, 1, 8, 29, 58, 132, 135, 60, 60, 135, 1, 0.350254
325, 1, bw, attraction, a-b-da, 14, 3, 8, 30, 120, 195, 181, 111, 195, 120, 3, 0.694026
325, 1, bw, attraction, a-b-da, 14, 3, 8, 30, 120, 195, 181, 111, 195, 120, 2, 0.313159
325, 1, bw, attraction, a-b-db, 2, 3, 8, 31, 119, 193, 195, 120, 120, 195, 2, 1.33045
325, 1, bw, attraction, a-b-db, 2, 3, 8, 31, 119, 193, 195, 120, 120, 195, 3, 0.357316
325, 1, bw, attraction, a-b-da, 14, 1, 8, 32, 135, 60, 60, 135, 125, 56, 2, 0.635015
325, 1, bw, attraction, a-b-da, 14, 1, 8, 32, 135, 60, 60, 135, 125, 56, 3, 0.600887
325, 1, bw, filler, NA, 999, 999, 8, 33, 132, 122, 195, 180, 145, 157, 2, 0.726514
325, 1, bw, filler, NA, 999, 999, 8, 33, 132, 122, 195, 180, 145, 157, 1, 0.304314
325, 1, bw, attraction, a-b-da, 5, 3, 8, 34, 195, 120, 190, 117, 120, 195, 2, 1.25037
325, 1, bw, attraction, a-b-da, 5, 3, 8, 34, 195, 120, 190, 117, 120, 195, 3, 0.439118
325, 1, bw, filler, NA, 999, 999, 8, 35, 119, 83, 146, 157, 140, 78, 2, 1.36359
325, 1, bw, filler, NA, 999, 999, 8, 35, 119, 83, 146, 157, 140, 78, 1, 0.459774
325, 1, bw, catch, NA, 999, 999, 8, 36, 130, 185, 165, 90, 97, 98, 1, 1.14286
325, 1, bw, catch, NA, 999, 999, 8, 36, 130, 185, 165, 90, 97, 98, 3, 0.727854
325, 1, bw, filler, NA, 999, 999, 8, 37, 61, 57, 137, 103, 75, 183, 2, 1.12827
325, 1, bw, filler, NA, 999, 999, 8, 37, 61, 57, 137, 103, 75, 183, 1, 0.401847
