sub_n, computer_n, bw_cond, effect, set, distance, diag, block_n, trial_n, h1, w1, h2, w2, h3, w3, choice, rt 
378, 1, wb, practice, NA, 999, 999, 0, 1, 177, 120, 181, 63, 130, 141, 2, 2.95097
378, 1, wb, practice, NA, 999, 999, 0, 1, 177, 120, 181, 63, 130, 141, 1, 3.00681
378, 1, wb, practice, NA, 999, 999, 0, 2, 124, 142, 76, 182, 159, 123, 2, 10.7757
378, 1, wb, practice, NA, 999, 999, 0, 2, 124, 142, 76, 182, 159, 123, 3, 1.49146
378, 1, wb, practice, NA, 999, 999, 0, 3, 115, 110, 95, 138, 72, 124, 3, 2.2987
378, 1, wb, practice, NA, 999, 999, 0, 3, 115, 110, 95, 138, 72, 124, 2, 2.30194
378, 1, wb, attraction, a-b-da, 5, 3, 1, 1, 120, 195, 195, 120, 190, 117, 2, 5.5885
378, 1, wb, attraction, a-b-da, 5, 3, 1, 1, 120, 195, 195, 120, 190, 117, 1, 2.25073
378, 1, wb, attraction, a-b-da, 9, 1, 1, 2, 129, 57, 60, 135, 135, 60, 1, 3.0379
378, 1, wb, attraction, a-b-da, 9, 1, 1, 2, 129, 57, 60, 135, 135, 60, 2, 4.27505
378, 1, wb, attraction, a-b-db, 14, 3, 1, 3, 120, 195, 195, 120, 111, 181, 3, 2.00444
378, 1, wb, attraction, a-b-db, 14, 3, 1, 3, 120, 195, 195, 120, 111, 181, 1, 1.81893
378, 1, wb, filler, NA, 999, 999, 1, 4, 101, 105, 189, 129, 186, 82, 1, 2.00764
378, 1, wb, filler, NA, 999, 999, 1, 4, 101, 105, 189, 129, 186, 82, 2, 0.853621
378, 1, wb, attraction, a-b-da, 14, 1, 1, 5, 60, 135, 135, 60, 125, 56, 3, 3.82534
378, 1, wb, attraction, a-b-da, 14, 1, 1, 5, 60, 135, 135, 60, 125, 56, 1, 2.91022
378, 1, wb, attraction, a-b-db, 5, 1, 1, 6, 60, 135, 58, 132, 135, 60, 3, 3.53454
378, 1, wb, attraction, a-b-db, 5, 1, 1, 6, 60, 135, 58, 132, 135, 60, 2, 2.31142
378, 1, wb, attraction, a-b-da, 5, 1, 1, 7, 135, 60, 132, 58, 60, 135, 2, 7.42394
378, 1, wb, attraction, a-b-da, 5, 1, 1, 7, 135, 60, 132, 58, 60, 135, 1, 7.2836
378, 1, wb, filler, NA, 999, 999, 1, 8, 172, 117, 124, 112, 187, 109, 2, 1.73993
378, 1, wb, filler, NA, 999, 999, 1, 8, 172, 117, 124, 112, 187, 109, 3, 1.39678
378, 1, wb, attraction, a-b-da, 14, 3, 1, 9, 195, 120, 120, 195, 181, 111, 3, 2.40223
378, 1, wb, attraction, a-b-da, 14, 3, 1, 9, 195, 120, 120, 195, 181, 111, 2, 2.61678
378, 1, wb, attraction, a-b-da, 2, 3, 1, 10, 195, 120, 193, 119, 120, 195, 1, 3.1813
378, 1, wb, attraction, a-b-da, 2, 3, 1, 10, 195, 120, 193, 119, 120, 195, 3, 2.46823
378, 1, wb, attraction, a-b-db, 9, 3, 1, 11, 195, 120, 114, 186, 120, 195, 2, 3.31064
378, 1, wb, attraction, a-b-db, 9, 3, 1, 11, 195, 120, 114, 186, 120, 195, 1, 2.00031
378, 1, wb, attraction, a-b-da, 5, 2, 1, 12, 161, 88, 90, 165, 165, 90, 1, 4.33366
378, 1, wb, attraction, a-b-da, 5, 2, 1, 12, 161, 88, 90, 165, 165, 90, 3, 2.94225
378, 1, wb, attraction, a-b-db, 9, 2, 1, 13, 90, 165, 86, 157, 165, 90, 3, 2.98919
378, 1, wb, attraction, a-b-db, 9, 2, 1, 13, 90, 165, 86, 157, 165, 90, 1, 1.60364
378, 1, wb, filler, NA, 999, 999, 1, 14, 159, 193, 131, 93, 116, 100, 3, 3.1291
378, 1, wb, filler, NA, 999, 999, 1, 14, 159, 193, 131, 93, 116, 100, 1, 0.906101
378, 1, wb, attraction, a-b-da, 9, 3, 1, 15, 186, 114, 120, 195, 195, 120, 1, 4.05164
378, 1, wb, attraction, a-b-da, 9, 3, 1, 15, 186, 114, 120, 195, 195, 120, 2, 2.07182
378, 1, wb, catch, NA, 999, 999, 1, 16, 160, 155, 108, 147, 86, 109, 3, 1.5064
378, 1, wb, catch, NA, 999, 999, 1, 16, 160, 155, 108, 147, 86, 109, 1, 0.972507
378, 1, wb, attraction, a-b-db, 14, 2, 1, 17, 83, 153, 165, 90, 90, 165, 2, 3.54744
378, 1, wb, attraction, a-b-db, 14, 2, 1, 17, 83, 153, 165, 90, 90, 165, 3, 0.93972
378, 1, wb, attraction, a-b-db, 9, 1, 1, 18, 60, 135, 57, 129, 135, 60, 2, 5.18806
378, 1, wb, attraction, a-b-db, 9, 1, 1, 18, 60, 135, 57, 129, 135, 60, 3, 2.21855
378, 1, wb, attraction, a-b-db, 2, 2, 1, 19, 90, 165, 165, 90, 89, 163, 2, 3.69507
378, 1, wb, attraction, a-b-db, 2, 2, 1, 19, 90, 165, 165, 90, 89, 163, 1, 0.625068
378, 1, wb, filler, NA, 999, 999, 1, 20, 133, 71, 186, 90, 150, 187, 1, 1.43753
378, 1, wb, filler, NA, 999, 999, 1, 20, 133, 71, 186, 90, 150, 187, 3, 1.11501
378, 1, wb, attraction, a-b-da, 2, 1, 1, 21, 135, 60, 60, 135, 134, 59, 2, 3.14803
378, 1, wb, attraction, a-b-da, 2, 1, 1, 21, 135, 60, 60, 135, 134, 59, 1, 1.06035
378, 1, wb, attraction, a-b-db, 2, 1, 1, 22, 59, 134, 60, 135, 135, 60, 1, 3.99929
378, 1, wb, attraction, a-b-db, 2, 1, 1, 22, 59, 134, 60, 135, 135, 60, 2, 6.01329
378, 1, wb, filler, NA, 999, 999, 1, 23, 128, 127, 99, 143, 120, 165, 2, 4.28061
378, 1, wb, filler, NA, 999, 999, 1, 23, 128, 127, 99, 143, 120, 165, 3, 1.57939
378, 1, wb, filler, NA, 999, 999, 1, 24, 148, 64, 183, 154, 181, 138, 1, 1.94548
378, 1, wb, filler, NA, 999, 999, 1, 24, 148, 64, 183, 154, 181, 138, 2, 0.90621
378, 1, wb, filler, NA, 999, 999, 1, 25, 126, 104, 66, 143, 156, 192, 2, 1.92384
378, 1, wb, filler, NA, 999, 999, 1, 25, 126, 104, 66, 143, 156, 192, 3, 2.27731
378, 1, wb, attraction, a-b-db, 14, 1, 1, 26, 60, 135, 135, 60, 56, 125, 3, 3.367
378, 1, wb, attraction, a-b-db, 14, 1, 1, 26, 60, 135, 135, 60, 56, 125, 1, 1.51063
378, 1, wb, attraction, a-b-db, 5, 3, 1, 27, 117, 190, 195, 120, 120, 195, 1, 3.6635
378, 1, wb, attraction, a-b-db, 5, 3, 1, 27, 117, 190, 195, 120, 120, 195, 2, 0.714979
378, 1, wb, attraction, a-b-db, 2, 3, 1, 28, 120, 195, 119, 193, 195, 120, 1, 5.09208
378, 1, wb, attraction, a-b-db, 2, 3, 1, 28, 120, 195, 119, 193, 195, 120, 2, 0.86178
378, 1, wb, attraction, a-b-da, 2, 2, 1, 29, 163, 89, 90, 165, 165, 90, 3, 6.64077
378, 1, wb, attraction, a-b-da, 2, 2, 1, 29, 163, 89, 90, 165, 165, 90, 1, 5.98009
378, 1, wb, attraction, a-b-da, 14, 2, 1, 30, 90, 165, 153, 83, 165, 90, 2, 13.5926
378, 1, wb, attraction, a-b-da, 14, 2, 1, 30, 90, 165, 153, 83, 165, 90, 1, 1.53982
378, 1, wb, catch, NA, 999, 999, 1, 31, 141, 114, 161, 154, 93, 102, 3, 1.4599
378, 1, wb, catch, NA, 999, 999, 1, 31, 141, 114, 161, 154, 93, 102, 2, 1.07205
378, 1, wb, filler, NA, 999, 999, 1, 32, 66, 85, 72, 91, 68, 169, 1, 2.11501
378, 1, wb, filler, NA, 999, 999, 1, 32, 66, 85, 72, 91, 68, 169, 3, 0.805137
378, 1, wb, attraction, a-b-db, 5, 2, 1, 33, 165, 90, 90, 165, 88, 161, 3, 2.20267
378, 1, wb, attraction, a-b-db, 5, 2, 1, 33, 165, 90, 90, 165, 88, 161, 1, 1.28933
378, 1, wb, filler, NA, 999, 999, 1, 34, 133, 119, 164, 72, 151, 120, 2, 2.09949
378, 1, wb, filler, NA, 999, 999, 1, 34, 133, 119, 164, 72, 151, 120, 3, 0.822184
378, 1, wb, catch, NA, 999, 999, 1, 35, 120, 75, 95, 160, 120, 195, 1, 1.11522
378, 1, wb, catch, NA, 999, 999, 1, 35, 120, 75, 95, 160, 120, 195, 3, 1.03745
378, 1, wb, filler, NA, 999, 999, 1, 36, 130, 144, 181, 170, 61, 59, 3, 2.24988
378, 1, wb, filler, NA, 999, 999, 1, 36, 130, 144, 181, 170, 61, 59, 2, 0.766409
378, 1, wb, attraction, a-b-da, 9, 2, 1, 37, 165, 90, 157, 86, 90, 165, 2, 4.74941
378, 1, wb, attraction, a-b-da, 9, 2, 1, 37, 165, 90, 157, 86, 90, 165, 1, 0.781346
378, 1, wb, filler, NA, 999, 999, 2, 1, 182, 58, 168, 77, 173, 139, 1, 1.81159
378, 1, wb, filler, NA, 999, 999, 2, 1, 182, 58, 168, 77, 173, 139, 3, 1.02572
378, 1, wb, attraction, a-b-db, 9, 3, 2, 2, 195, 120, 120, 195, 114, 186, 3, 4.56606
378, 1, wb, attraction, a-b-db, 9, 3, 2, 2, 195, 120, 120, 195, 114, 186, 2, 1.52523
378, 1, wb, attraction, a-b-db, 14, 2, 2, 3, 83, 153, 165, 90, 90, 165, 1, 1.38134
378, 1, wb, attraction, a-b-db, 14, 2, 2, 3, 83, 153, 165, 90, 90, 165, 2, 2.87679
378, 1, wb, attraction, a-b-db, 2, 3, 2, 4, 119, 193, 195, 120, 120, 195, 2, 9.29477
378, 1, wb, attraction, a-b-db, 2, 3, 2, 4, 119, 193, 195, 120, 120, 195, 1, 0.83897
378, 1, wb, attraction, a-b-da, 2, 2, 2, 5, 163, 89, 90, 165, 165, 90, 1, 8.65134
378, 1, wb, attraction, a-b-da, 2, 2, 2, 5, 163, 89, 90, 165, 165, 90, 2, 2.1339
378, 1, wb, attraction, a-b-db, 14, 3, 2, 6, 120, 195, 111, 181, 195, 120, 3, 6.45383
378, 1, wb, attraction, a-b-db, 14, 3, 2, 6, 120, 195, 111, 181, 195, 120, 1, 1.50515
378, 1, wb, filler, NA, 999, 999, 2, 7, 88, 130, 114, 162, 86, 91, 3, 1.13062
378, 1, wb, filler, NA, 999, 999, 2, 7, 88, 130, 114, 162, 86, 91, 2, 1.22034
378, 1, wb, attraction, a-b-da, 9, 3, 2, 8, 120, 195, 186, 114, 195, 120, 1, 2.78519
378, 1, wb, attraction, a-b-da, 9, 3, 2, 8, 120, 195, 186, 114, 195, 120, 3, 2.27222
378, 1, wb, filler, NA, 999, 999, 2, 9, 181, 144, 102, 124, 96, 164, 2, 1.84277
378, 1, wb, filler, NA, 999, 999, 2, 9, 181, 144, 102, 124, 96, 164, 1, 1.0235
378, 1, wb, attraction, a-b-db, 5, 2, 2, 10, 88, 161, 165, 90, 90, 165, 1, 2.17977
378, 1, wb, attraction, a-b-db, 5, 2, 2, 10, 88, 161, 165, 90, 90, 165, 2, 1.1313
378, 1, wb, attraction, a-b-db, 2, 1, 2, 11, 59, 134, 135, 60, 60, 135, 2, 4.88339
378, 1, wb, attraction, a-b-db, 2, 1, 2, 11, 59, 134, 135, 60, 60, 135, 3, 2.52575
378, 1, wb, attraction, a-b-db, 5, 3, 2, 12, 195, 120, 120, 195, 117, 190, 3, 1.78964
378, 1, wb, attraction, a-b-db, 5, 3, 2, 12, 195, 120, 120, 195, 117, 190, 1, 0.908305
378, 1, wb, attraction, a-b-da, 2, 3, 2, 13, 195, 120, 193, 119, 120, 195, 1, 9.18939
378, 1, wb, attraction, a-b-da, 2, 3, 2, 13, 195, 120, 193, 119, 120, 195, 3, 0.778384
378, 1, wb, attraction, a-b-da, 9, 2, 2, 14, 157, 86, 90, 165, 165, 90, 1, 1.16883
378, 1, wb, attraction, a-b-da, 9, 2, 2, 14, 157, 86, 90, 165, 165, 90, 2, 2.12914
378, 1, wb, attraction, a-b-db, 5, 1, 2, 15, 60, 135, 58, 132, 135, 60, 3, 7.28104
378, 1, wb, attraction, a-b-db, 5, 1, 2, 15, 60, 135, 58, 132, 135, 60, 2, 1.05893
378, 1, wb, filler, NA, 999, 999, 2, 16, 134, 60, 187, 130, 165, 146, 1, 1.42167
378, 1, wb, filler, NA, 999, 999, 2, 16, 134, 60, 187, 130, 165, 146, 2, 0.947354
378, 1, wb, attraction, a-b-da, 9, 1, 2, 17, 135, 60, 129, 57, 60, 135, 2, 2.95485
378, 1, wb, attraction, a-b-da, 9, 1, 2, 17, 135, 60, 129, 57, 60, 135, 1, 2.70729
378, 1, wb, attraction, a-b-da, 5, 2, 2, 18, 90, 165, 161, 88, 165, 90, 2, 4.46765
378, 1, wb, attraction, a-b-da, 5, 2, 2, 18, 90, 165, 161, 88, 165, 90, 1, 1.2069
378, 1, wb, attraction, a-b-db, 9, 1, 2, 19, 135, 60, 60, 135, 57, 129, 1, 8.41185
378, 1, wb, attraction, a-b-db, 9, 1, 2, 19, 135, 60, 60, 135, 57, 129, 2, 3.31987
378, 1, wb, catch, NA, 999, 999, 2, 20, 184, 131, 65, 130, 91, 164, 2, 1.51214
378, 1, wb, catch, NA, 999, 999, 2, 20, 184, 131, 65, 130, 91, 164, 1, 0.858134
378, 1, wb, filler, NA, 999, 999, 2, 21, 147, 164, 144, 66, 134, 187, 2, 1.62926
378, 1, wb, filler, NA, 999, 999, 2, 21, 147, 164, 144, 66, 134, 187, 1, 0.578692
378, 1, wb, filler, NA, 999, 999, 2, 22, 116, 143, 162, 146, 107, 66, 3, 2.4732
378, 1, wb, filler, NA, 999, 999, 2, 22, 116, 143, 162, 146, 107, 66, 2, 0.668353
378, 1, wb, attraction, a-b-da, 5, 3, 2, 23, 195, 120, 190, 117, 120, 195, 3, 3.71136
378, 1, wb, attraction, a-b-da, 5, 3, 2, 23, 195, 120, 190, 117, 120, 195, 1, 0.480883
378, 1, wb, attraction, a-b-db, 2, 2, 2, 24, 165, 90, 89, 163, 90, 165, 3, 4.11529
378, 1, wb, attraction, a-b-db, 2, 2, 2, 24, 165, 90, 89, 163, 90, 165, 2, 1.13264
378, 1, wb, attraction, a-b-da, 5, 1, 2, 25, 135, 60, 60, 135, 132, 58, 1, 3.81297
378, 1, wb, attraction, a-b-da, 5, 1, 2, 25, 135, 60, 60, 135, 132, 58, 3, 1.82637
378, 1, wb, attraction, a-b-da, 14, 3, 2, 26, 120, 195, 195, 120, 181, 111, 3, 5.39048
378, 1, wb, attraction, a-b-da, 14, 3, 2, 26, 120, 195, 195, 120, 181, 111, 1, 0.940006
378, 1, wb, attraction, a-b-da, 14, 1, 2, 27, 60, 135, 125, 56, 135, 60, 2, 2.50834
378, 1, wb, attraction, a-b-da, 14, 1, 2, 27, 60, 135, 125, 56, 135, 60, 1, 1.61432
378, 1, wb, attraction, a-b-da, 14, 2, 2, 28, 165, 90, 153, 83, 90, 165, 2, 6.47494
378, 1, wb, attraction, a-b-da, 14, 2, 2, 28, 165, 90, 153, 83, 90, 165, 1, 0.828944
378, 1, wb, filler, NA, 999, 999, 2, 29, 186, 125, 148, 97, 72, 159, 3, 1.21731
378, 1, wb, filler, NA, 999, 999, 2, 29, 186, 125, 148, 97, 72, 159, 1, 0.719472
378, 1, wb, catch, NA, 999, 999, 2, 30, 122, 73, 143, 172, 129, 126, 1, 0.95265
378, 1, wb, catch, NA, 999, 999, 2, 30, 122, 73, 143, 172, 129, 126, 2, 0.561566
378, 1, wb, filler, NA, 999, 999, 2, 31, 171, 150, 96, 174, 167, 145, 2, 1.27276
378, 1, wb, filler, NA, 999, 999, 2, 31, 171, 150, 96, 174, 167, 145, 1, 1.23628
378, 1, wb, attraction, a-b-db, 14, 1, 2, 32, 56, 125, 135, 60, 60, 135, 1, 1.65644
378, 1, wb, attraction, a-b-db, 14, 1, 2, 32, 56, 125, 135, 60, 60, 135, 3, 1.98967
378, 1, wb, filler, NA, 999, 999, 2, 33, 116, 164, 111, 105, 101, 88, 3, 0.938551
378, 1, wb, filler, NA, 999, 999, 2, 33, 116, 164, 111, 105, 101, 88, 1, 0.787605
378, 1, wb, catch, NA, 999, 999, 2, 34, 123, 72, 175, 140, 93, 162, 1, 1.10597
378, 1, wb, catch, NA, 999, 999, 2, 34, 123, 72, 175, 140, 93, 162, 2, 0.532271
378, 1, wb, attraction, a-b-da, 2, 1, 2, 35, 135, 60, 60, 135, 134, 59, 3, 6.38077
378, 1, wb, attraction, a-b-da, 2, 1, 2, 35, 135, 60, 60, 135, 134, 59, 2, 0.834715
378, 1, wb, filler, NA, 999, 999, 2, 36, 93, 142, 166, 74, 100, 109, 3, 6.7113
378, 1, wb, filler, NA, 999, 999, 2, 36, 93, 142, 166, 74, 100, 109, 1, 0.599596
378, 1, wb, attraction, a-b-db, 9, 2, 2, 37, 165, 90, 90, 165, 86, 157, 3, 1.87744
378, 1, wb, attraction, a-b-db, 9, 2, 2, 37, 165, 90, 90, 165, 86, 157, 1, 0.744875
378, 1, wb, attraction, a-b-da, 5, 2, 3, 1, 90, 165, 161, 88, 165, 90, 2, 3.96051
378, 1, wb, attraction, a-b-da, 5, 2, 3, 1, 90, 165, 161, 88, 165, 90, 1, 1.11987
378, 1, wb, attraction, a-b-da, 5, 3, 3, 2, 195, 120, 190, 117, 120, 195, 2, 3.89682
378, 1, wb, attraction, a-b-da, 5, 3, 3, 2, 195, 120, 190, 117, 120, 195, 3, 1.75493
378, 1, wb, attraction, a-b-db, 9, 2, 3, 3, 90, 165, 165, 90, 86, 157, 2, 2.13027
378, 1, wb, attraction, a-b-db, 9, 2, 3, 3, 90, 165, 165, 90, 86, 157, 1, 1.02756
378, 1, wb, attraction, a-b-db, 2, 1, 3, 4, 59, 134, 135, 60, 60, 135, 2, 1.19988
378, 1, wb, attraction, a-b-db, 2, 1, 3, 4, 59, 134, 135, 60, 60, 135, 1, 1.72679
378, 1, wb, filler, NA, 999, 999, 3, 5, 146, 114, 77, 78, 117, 60, 2, 1.2709
378, 1, wb, filler, NA, 999, 999, 3, 5, 146, 114, 77, 78, 117, 60, 1, 0.922392
378, 1, wb, attraction, a-b-da, 2, 1, 3, 6, 60, 135, 134, 59, 135, 60, 1, 8.21141
378, 1, wb, attraction, a-b-da, 2, 1, 3, 6, 60, 135, 134, 59, 135, 60, 3, 2.77539
378, 1, wb, attraction, a-b-da, 5, 1, 3, 7, 60, 135, 132, 58, 135, 60, 1, 4.90125
378, 1, wb, attraction, a-b-da, 5, 1, 3, 7, 60, 135, 132, 58, 135, 60, 3, 0.910921
378, 1, wb, attraction, a-b-db, 14, 1, 3, 8, 60, 135, 56, 125, 135, 60, 1, 3.072
378, 1, wb, attraction, a-b-db, 14, 1, 3, 8, 60, 135, 56, 125, 135, 60, 2, 0.831637
378, 1, wb, attraction, a-b-da, 9, 3, 3, 9, 120, 195, 195, 120, 186, 114, 3, 3.09167
378, 1, wb, attraction, a-b-da, 9, 3, 3, 9, 120, 195, 195, 120, 186, 114, 1, 1.1457
378, 1, wb, attraction, a-b-db, 5, 3, 3, 10, 195, 120, 120, 195, 117, 190, 3, 2.36129
378, 1, wb, attraction, a-b-db, 5, 3, 3, 10, 195, 120, 120, 195, 117, 190, 2, 2.38518
378, 1, wb, attraction, a-b-da, 14, 3, 3, 11, 195, 120, 181, 111, 120, 195, 1, 3.29511
378, 1, wb, attraction, a-b-da, 14, 3, 3, 11, 195, 120, 181, 111, 120, 195, 3, 0.617317
378, 1, wb, attraction, a-b-da, 9, 1, 3, 12, 135, 60, 60, 135, 129, 57, 3, 1.72639
378, 1, wb, attraction, a-b-da, 9, 1, 3, 12, 135, 60, 60, 135, 129, 57, 2, 1.8398
378, 1, wb, catch, NA, 999, 999, 3, 13, 111, 84, 153, 102, 156, 159, 1, 1.18791
378, 1, wb, catch, NA, 999, 999, 3, 13, 111, 84, 153, 102, 156, 159, 3, 0.498817
378, 1, wb, catch, NA, 999, 999, 3, 14, 94, 101, 128, 127, 170, 145, 1, 1.34865
378, 1, wb, catch, NA, 999, 999, 3, 14, 94, 101, 128, 127, 170, 145, 3, 0.997571
378, 1, wb, attraction, a-b-db, 5, 2, 3, 15, 88, 161, 165, 90, 90, 165, 1, 3.363
378, 1, wb, attraction, a-b-db, 5, 2, 3, 15, 88, 161, 165, 90, 90, 165, 2, 2.42678
378, 1, wb, filler, NA, 999, 999, 3, 16, 74, 171, 183, 72, 178, 147, 1, 6.79844
378, 1, wb, filler, NA, 999, 999, 3, 16, 74, 171, 183, 72, 178, 147, 3, 0.907959
378, 1, wb, attraction, a-b-db, 9, 1, 3, 17, 57, 129, 135, 60, 60, 135, 1, 5.24475
378, 1, wb, attraction, a-b-db, 9, 1, 3, 17, 57, 129, 135, 60, 60, 135, 2, 1.00836
378, 1, wb, attraction, a-b-da, 14, 1, 3, 18, 135, 60, 60, 135, 125, 56, 3, 6.32534
378, 1, wb, attraction, a-b-da, 14, 1, 3, 18, 135, 60, 60, 135, 125, 56, 1, 1.39737
378, 1, wb, filler, NA, 999, 999, 3, 19, 175, 114, 71, 185, 171, 134, 2, 2.42686
378, 1, wb, filler, NA, 999, 999, 3, 19, 175, 114, 71, 185, 171, 134, 1, 1.44009
378, 1, wb, catch, NA, 999, 999, 3, 20, 142, 173, 138, 117, 121, 74, 3, 0.940144
378, 1, wb, catch, NA, 999, 999, 3, 20, 142, 173, 138, 117, 121, 74, 1, 0.981332
378, 1, wb, attraction, a-b-db, 5, 1, 3, 21, 60, 135, 58, 132, 135, 60, 2, 3.06753
378, 1, wb, attraction, a-b-db, 5, 1, 3, 21, 60, 135, 58, 132, 135, 60, 1, 1.09524
378, 1, wb, attraction, a-b-db, 14, 2, 3, 22, 83, 153, 90, 165, 165, 90, 3, 2.02476
378, 1, wb, attraction, a-b-db, 14, 2, 3, 22, 83, 153, 90, 165, 165, 90, 2, 1.07019
378, 1, wb, filler, NA, 999, 999, 3, 23, 68, 137, 87, 101, 185, 88, 2, 4.03307
378, 1, wb, filler, NA, 999, 999, 3, 23, 68, 137, 87, 101, 185, 88, 3, 0.957749
378, 1, wb, filler, NA, 999, 999, 3, 24, 142, 117, 176, 98, 86, 186, 1, 1.74079
378, 1, wb, filler, NA, 999, 999, 3, 24, 142, 117, 176, 98, 86, 186, 3, 2.1336
378, 1, wb, filler, NA, 999, 999, 3, 25, 160, 97, 81, 97, 84, 100, 2, 2.19739
378, 1, wb, filler, NA, 999, 999, 3, 25, 160, 97, 81, 97, 84, 100, 1, 0.660179
378, 1, wb, attraction, a-b-da, 9, 2, 3, 26, 90, 165, 157, 86, 165, 90, 1, 1.51913
378, 1, wb, attraction, a-b-da, 9, 2, 3, 26, 90, 165, 157, 86, 165, 90, 3, 1.23342
378, 1, wb, filler, NA, 999, 999, 3, 27, 100, 57, 121, 116, 150, 107, 1, 1.22153
378, 1, wb, filler, NA, 999, 999, 3, 27, 100, 57, 121, 116, 150, 107, 3, 1.10719
378, 1, wb, attraction, a-b-da, 2, 3, 3, 28, 193, 119, 120, 195, 195, 120, 3, 2.16424
378, 1, wb, attraction, a-b-da, 2, 3, 3, 28, 193, 119, 120, 195, 195, 120, 2, 1.11603
378, 1, wb, attraction, a-b-da, 2, 2, 3, 29, 90, 165, 163, 89, 165, 90, 1, 2.75693
378, 1, wb, attraction, a-b-da, 2, 2, 3, 29, 90, 165, 163, 89, 165, 90, 2, 1.95672
378, 1, wb, filler, NA, 999, 999, 3, 30, 72, 85, 153, 153, 70, 138, 1, 1.18801
378, 1, wb, filler, NA, 999, 999, 3, 30, 72, 85, 153, 153, 70, 138, 2, 1.1791
378, 1, wb, attraction, a-b-db, 14, 3, 3, 31, 111, 181, 195, 120, 120, 195, 1, 2.20929
378, 1, wb, attraction, a-b-db, 14, 3, 3, 31, 111, 181, 195, 120, 120, 195, 2, 1.12718
378, 1, wb, attraction, a-b-da, 14, 2, 3, 32, 165, 90, 153, 83, 90, 165, 3, 1.50346
378, 1, wb, attraction, a-b-da, 14, 2, 3, 32, 165, 90, 153, 83, 90, 165, 1, 0.826251
378, 1, wb, attraction, a-b-db, 2, 3, 3, 33, 120, 195, 119, 193, 195, 120, 2, 2.47065
378, 1, wb, attraction, a-b-db, 2, 3, 3, 33, 120, 195, 119, 193, 195, 120, 3, 0.562526
378, 1, wb, attraction, a-b-db, 2, 2, 3, 34, 90, 165, 165, 90, 89, 163, 3, 2.35366
378, 1, wb, attraction, a-b-db, 2, 2, 3, 34, 90, 165, 165, 90, 89, 163, 2, 0.666067
378, 1, wb, attraction, a-b-db, 9, 3, 3, 35, 120, 195, 195, 120, 114, 186, 1, 2.33326
378, 1, wb, attraction, a-b-db, 9, 3, 3, 35, 120, 195, 195, 120, 114, 186, 2, 1.30242
378, 1, wb, filler, NA, 999, 999, 3, 36, 121, 86, 187, 120, 97, 163, 1, 0.888087
378, 1, wb, filler, NA, 999, 999, 3, 36, 121, 86, 187, 120, 97, 163, 2, 0.894198
378, 1, wb, filler, NA, 999, 999, 3, 37, 97, 115, 110, 58, 121, 138, 2, 1.33273
378, 1, wb, filler, NA, 999, 999, 3, 37, 97, 115, 110, 58, 121, 138, 3, 0.758326
378, 1, wb, attraction, a-b-db, 9, 2, 4, 1, 90, 165, 86, 157, 165, 90, 1, 2.98931
378, 1, wb, attraction, a-b-db, 9, 2, 4, 1, 90, 165, 86, 157, 165, 90, 3, 1.01189
378, 1, wb, attraction, a-b-db, 2, 3, 4, 2, 120, 195, 119, 193, 195, 120, 1, 0.928553
378, 1, wb, attraction, a-b-db, 2, 3, 4, 2, 120, 195, 119, 193, 195, 120, 3, 2.07426
378, 1, wb, filler, NA, 999, 999, 4, 3, 118, 190, 71, 108, 107, 139, 2, 0.924274
378, 1, wb, filler, NA, 999, 999, 4, 3, 118, 190, 71, 108, 107, 139, 1, 0.709983
378, 1, wb, attraction, a-b-db, 14, 2, 4, 4, 90, 165, 83, 153, 165, 90, 2, 1.71104
378, 1, wb, attraction, a-b-db, 14, 2, 4, 4, 90, 165, 83, 153, 165, 90, 3, 0.649127
378, 1, wb, attraction, a-b-da, 14, 3, 4, 5, 195, 120, 120, 195, 181, 111, 2, 1.70084
378, 1, wb, attraction, a-b-da, 14, 3, 4, 5, 195, 120, 120, 195, 181, 111, 1, 2.67961
378, 1, wb, filler, NA, 999, 999, 4, 6, 110, 192, 83, 183, 114, 177, 3, 1.85745
378, 1, wb, filler, NA, 999, 999, 4, 6, 110, 192, 83, 183, 114, 177, 1, 0.709447
378, 1, wb, filler, NA, 999, 999, 4, 7, 164, 111, 155, 126, 162, 128, 1, 3.58247
378, 1, wb, filler, NA, 999, 999, 4, 7, 164, 111, 155, 126, 162, 128, 3, 0.845289
378, 1, wb, attraction, a-b-db, 2, 1, 4, 8, 135, 60, 59, 134, 60, 135, 3, 1.83308
378, 1, wb, attraction, a-b-db, 2, 1, 4, 8, 135, 60, 59, 134, 60, 135, 1, 0.870462
378, 1, wb, catch, NA, 999, 999, 4, 9, 84, 111, 119, 136, 136, 179, 1, 1.15342
378, 1, wb, catch, NA, 999, 999, 4, 9, 84, 111, 119, 136, 136, 179, 3, 0.602313
378, 1, wb, catch, NA, 999, 999, 4, 10, 100, 95, 146, 169, 146, 109, 1, 1.04823
378, 1, wb, catch, NA, 999, 999, 4, 10, 100, 95, 146, 169, 146, 109, 2, 1.18125
378, 1, wb, attraction, a-b-da, 5, 1, 4, 11, 60, 135, 135, 60, 132, 58, 1, 2.31542
378, 1, wb, attraction, a-b-da, 5, 1, 4, 11, 60, 135, 135, 60, 132, 58, 2, 1.00529
378, 1, wb, attraction, a-b-db, 5, 3, 4, 12, 120, 195, 195, 120, 117, 190, 3, 1.06692
378, 1, wb, attraction, a-b-db, 5, 3, 4, 12, 120, 195, 195, 120, 117, 190, 1, 0.919167
378, 1, wb, attraction, a-b-db, 9, 1, 4, 13, 60, 135, 57, 129, 135, 60, 1, 2.00023
378, 1, wb, attraction, a-b-db, 9, 1, 4, 13, 60, 135, 57, 129, 135, 60, 3, 0.798926
378, 1, wb, attraction, a-b-da, 9, 3, 4, 14, 195, 120, 186, 114, 120, 195, 3, 1.38865
378, 1, wb, attraction, a-b-da, 9, 3, 4, 14, 195, 120, 186, 114, 120, 195, 1, 1.95546
378, 1, wb, attraction, a-b-da, 2, 2, 4, 15, 163, 89, 165, 90, 90, 165, 1, 6.31492
378, 1, wb, attraction, a-b-da, 2, 2, 4, 15, 163, 89, 165, 90, 90, 165, 2, 1.50744
378, 1, wb, attraction, a-b-da, 2, 3, 4, 16, 120, 195, 195, 120, 193, 119, 3, 2.18829
378, 1, wb, attraction, a-b-da, 2, 3, 4, 16, 120, 195, 195, 120, 193, 119, 1, 0.600443
378, 1, wb, filler, NA, 999, 999, 4, 17, 95, 168, 153, 131, 81, 61, 3, 1.44934
378, 1, wb, filler, NA, 999, 999, 4, 17, 95, 168, 153, 131, 81, 61, 2, 0.622151
378, 1, wb, attraction, a-b-da, 14, 2, 4, 18, 165, 90, 90, 165, 153, 83, 3, 2.09128
378, 1, wb, attraction, a-b-da, 14, 2, 4, 18, 165, 90, 90, 165, 153, 83, 2, 1.10184
378, 1, wb, filler, NA, 999, 999, 4, 19, 110, 82, 134, 114, 112, 58, 3, 2.48742
378, 1, wb, filler, NA, 999, 999, 4, 19, 110, 82, 134, 114, 112, 58, 2, 0.618619
378, 1, wb, attraction, a-b-db, 5, 1, 4, 20, 58, 132, 135, 60, 60, 135, 1, 0.887745
378, 1, wb, attraction, a-b-db, 5, 1, 4, 20, 58, 132, 135, 60, 60, 135, 3, 2.41948
378, 1, wb, attraction, a-b-db, 2, 2, 4, 21, 89, 163, 90, 165, 165, 90, 2, 6.44805
378, 1, wb, attraction, a-b-db, 2, 2, 4, 21, 89, 163, 90, 165, 165, 90, 3, 0.835259
378, 1, wb, attraction, a-b-da, 9, 1, 4, 22, 60, 135, 129, 57, 135, 60, 2, 2.04767
378, 1, wb, attraction, a-b-da, 9, 1, 4, 22, 60, 135, 129, 57, 135, 60, 1, 1.33227
378, 1, wb, filler, NA, 999, 999, 4, 23, 150, 112, 186, 87, 177, 120, 2, 1.62052
378, 1, wb, filler, NA, 999, 999, 4, 23, 150, 112, 186, 87, 177, 120, 3, 1.2666
378, 1, wb, filler, NA, 999, 999, 4, 24, 63, 84, 60, 172, 56, 146, 1, 1.01347
378, 1, wb, filler, NA, 999, 999, 4, 24, 63, 84, 60, 172, 56, 146, 2, 0.939885
378, 1, wb, attraction, a-b-da, 5, 3, 4, 25, 120, 195, 190, 117, 195, 120, 1, 2.36406
378, 1, wb, attraction, a-b-da, 5, 3, 4, 25, 120, 195, 190, 117, 195, 120, 3, 1.70815
378, 1, wb, attraction, a-b-da, 14, 1, 4, 26, 125, 56, 135, 60, 60, 135, 3, 2.58083
378, 1, wb, attraction, a-b-da, 14, 1, 4, 26, 125, 56, 135, 60, 60, 135, 1, 0.676098
378, 1, wb, attraction, a-b-da, 9, 2, 4, 27, 90, 165, 157, 86, 165, 90, 2, 2.35827
378, 1, wb, attraction, a-b-da, 9, 2, 4, 27, 90, 165, 157, 86, 165, 90, 1, 0.566237
378, 1, wb, filler, NA, 999, 999, 4, 28, 157, 117, 182, 144, 166, 121, 1, 1.56532
378, 1, wb, filler, NA, 999, 999, 4, 28, 157, 117, 182, 144, 166, 121, 2, 0.685507
378, 1, wb, attraction, a-b-db, 14, 1, 4, 29, 135, 60, 60, 135, 56, 125, 3, 1.48788
378, 1, wb, attraction, a-b-db, 14, 1, 4, 29, 135, 60, 60, 135, 56, 125, 1, 1.46745
378, 1, wb, attraction, a-b-da, 5, 2, 4, 30, 165, 90, 161, 88, 90, 165, 2, 4.01438
378, 1, wb, attraction, a-b-da, 5, 2, 4, 30, 165, 90, 161, 88, 90, 165, 3, 1.38762
378, 1, wb, attraction, a-b-db, 5, 2, 4, 31, 88, 161, 165, 90, 90, 165, 1, 3.06569
378, 1, wb, attraction, a-b-db, 5, 2, 4, 31, 88, 161, 165, 90, 90, 165, 2, 0.757504
378, 1, wb, attraction, a-b-da, 2, 1, 4, 32, 135, 60, 134, 59, 60, 135, 3, 2.23645
378, 1, wb, attraction, a-b-da, 2, 1, 4, 32, 135, 60, 134, 59, 60, 135, 1, 1.60175
378, 1, wb, catch, NA, 999, 999, 4, 33, 94, 161, 98, 97, 152, 163, 2, 1.17514
378, 1, wb, catch, NA, 999, 999, 4, 33, 94, 161, 98, 97, 152, 163, 3, 0.486802
378, 1, wb, filler, NA, 999, 999, 4, 34, 75, 162, 108, 175, 158, 137, 1, 0.993295
378, 1, wb, filler, NA, 999, 999, 4, 34, 75, 162, 108, 175, 158, 137, 3, 1.43234
378, 1, wb, filler, NA, 999, 999, 4, 35, 120, 129, 145, 174, 91, 167, 3, 1.62846
378, 1, wb, filler, NA, 999, 999, 4, 35, 120, 129, 145, 174, 91, 167, 2, 0.62588
378, 1, wb, attraction, a-b-db, 14, 3, 4, 36, 111, 181, 195, 120, 120, 195, 1, 1.67035
378, 1, wb, attraction, a-b-db, 14, 3, 4, 36, 111, 181, 195, 120, 120, 195, 3, 1.72253
378, 1, wb, attraction, a-b-db, 9, 3, 4, 37, 195, 120, 120, 195, 114, 186, 3, 1.61119
378, 1, wb, attraction, a-b-db, 9, 3, 4, 37, 195, 120, 120, 195, 114, 186, 1, 0.793427
378, 1, wb, attraction, a-b-da, 9, 3, 5, 1, 120, 195, 186, 114, 195, 120, 2, 12.5335
378, 1, wb, attraction, a-b-da, 9, 3, 5, 1, 120, 195, 186, 114, 195, 120, 1, 0.835662
378, 1, wb, filler, NA, 999, 999, 5, 2, 58, 124, 106, 76, 73, 101, 2, 2.82405
378, 1, wb, filler, NA, 999, 999, 5, 2, 58, 124, 106, 76, 73, 101, 3, 0.733088
378, 1, wb, filler, NA, 999, 999, 5, 3, 124, 190, 72, 60, 165, 63, 2, 1.03754
378, 1, wb, filler, NA, 999, 999, 5, 3, 124, 190, 72, 60, 165, 63, 1, 0.707219
378, 1, wb, attraction, a-b-db, 9, 2, 5, 4, 86, 157, 90, 165, 165, 90, 1, 2.02026
378, 1, wb, attraction, a-b-db, 9, 2, 5, 4, 86, 157, 90, 165, 165, 90, 2, 1.50632
378, 1, wb, attraction, a-b-da, 5, 1, 5, 5, 135, 60, 132, 58, 60, 135, 2, 2.2277
378, 1, wb, attraction, a-b-da, 5, 1, 5, 5, 135, 60, 132, 58, 60, 135, 3, 1.313
378, 1, wb, attraction, a-b-db, 9, 1, 5, 6, 60, 135, 135, 60, 57, 129, 2, 6.58588
378, 1, wb, attraction, a-b-db, 9, 1, 5, 6, 60, 135, 135, 60, 57, 129, 1, 0.983809
378, 1, wb, attraction, a-b-db, 2, 1, 5, 7, 59, 134, 135, 60, 60, 135, 2, 6.71001
378, 1, wb, attraction, a-b-db, 2, 1, 5, 7, 59, 134, 135, 60, 60, 135, 3, 0.806627
378, 1, wb, attraction, a-b-db, 14, 2, 5, 8, 90, 165, 83, 153, 165, 90, 3, 5.15623
378, 1, wb, attraction, a-b-db, 14, 2, 5, 8, 90, 165, 83, 153, 165, 90, 1, 1.09122
378, 1, wb, attraction, a-b-da, 14, 2, 5, 9, 153, 83, 165, 90, 90, 165, 1, 1.7889
378, 1, wb, attraction, a-b-da, 14, 2, 5, 9, 153, 83, 165, 90, 90, 165, 3, 0.499691
378, 1, wb, attraction, a-b-da, 14, 3, 5, 10, 195, 120, 181, 111, 120, 195, 2, 3.54946
378, 1, wb, attraction, a-b-da, 14, 3, 5, 10, 195, 120, 181, 111, 120, 195, 3, 0.685669
378, 1, wb, filler, NA, 999, 999, 5, 11, 120, 94, 146, 134, 129, 70, 3, 2.28011
378, 1, wb, filler, NA, 999, 999, 5, 11, 120, 94, 146, 134, 129, 70, 2, 0.643345
378, 1, wb, attraction, a-b-da, 2, 1, 5, 12, 60, 135, 135, 60, 134, 59, 2, 4.27909
378, 1, wb, attraction, a-b-da, 2, 1, 5, 12, 60, 135, 135, 60, 134, 59, 1, 1.58566
378, 1, wb, filler, NA, 999, 999, 5, 13, 146, 185, 109, 168, 96, 142, 3, 1.22389
378, 1, wb, filler, NA, 999, 999, 5, 13, 146, 185, 109, 168, 96, 142, 1, 0.68534
378, 1, wb, attraction, a-b-da, 2, 2, 5, 14, 163, 89, 90, 165, 165, 90, 2, 4.27177
378, 1, wb, attraction, a-b-da, 2, 2, 5, 14, 163, 89, 90, 165, 165, 90, 3, 2.33108
378, 1, wb, attraction, a-b-da, 5, 3, 5, 15, 195, 120, 120, 195, 190, 117, 3, 6.595
378, 1, wb, attraction, a-b-da, 5, 3, 5, 15, 195, 120, 120, 195, 190, 117, 1, 1.04021
378, 1, wb, attraction, a-b-da, 2, 3, 5, 16, 120, 195, 193, 119, 195, 120, 3, 1.90785
378, 1, wb, attraction, a-b-da, 2, 3, 5, 16, 120, 195, 193, 119, 195, 120, 1, 0.741839
378, 1, wb, catch, NA, 999, 999, 5, 17, 195, 120, 94, 101, 163, 92, 2, 1.9095
378, 1, wb, catch, NA, 999, 999, 5, 17, 195, 120, 94, 101, 163, 92, 1, 0.823599
378, 1, wb, filler, NA, 999, 999, 5, 18, 137, 107, 145, 105, 89, 185, 1, 1.91593
378, 1, wb, filler, NA, 999, 999, 5, 18, 137, 107, 145, 105, 89, 185, 3, 0.629941
378, 1, wb, attraction, a-b-db, 2, 3, 5, 19, 195, 120, 119, 193, 120, 195, 3, 3.56257
378, 1, wb, attraction, a-b-db, 2, 3, 5, 19, 195, 120, 119, 193, 120, 195, 1, 0.881871
378, 1, wb, attraction, a-b-db, 14, 3, 5, 20, 195, 120, 111, 181, 120, 195, 2, 1.56424
378, 1, wb, attraction, a-b-db, 14, 3, 5, 20, 195, 120, 111, 181, 120, 195, 1, 0.868418
378, 1, wb, attraction, a-b-da, 5, 2, 5, 21, 90, 165, 165, 90, 161, 88, 3, 1.79937
378, 1, wb, attraction, a-b-da, 5, 2, 5, 21, 90, 165, 165, 90, 161, 88, 1, 1.25417
378, 1, wb, filler, NA, 999, 999, 5, 22, 189, 119, 109, 123, 70, 116, 3, 1.17772
378, 1, wb, filler, NA, 999, 999, 5, 22, 189, 119, 109, 123, 70, 116, 1, 0.529364
378, 1, wb, filler, NA, 999, 999, 5, 23, 127, 124, 83, 110, 75, 86, 3, 0.881785
378, 1, wb, filler, NA, 999, 999, 5, 23, 127, 124, 83, 110, 75, 86, 1, 0.869445
378, 1, wb, catch, NA, 999, 999, 5, 24, 134, 181, 94, 101, 99, 156, 2, 0.792487
378, 1, wb, catch, NA, 999, 999, 5, 24, 134, 181, 94, 101, 99, 156, 1, 0.591469
378, 1, wb, filler, NA, 999, 999, 5, 25, 69, 154, 108, 81, 103, 129, 2, 1.57325
378, 1, wb, filler, NA, 999, 999, 5, 25, 69, 154, 108, 81, 103, 129, 3, 0.636909
378, 1, wb, filler, NA, 999, 999, 5, 26, 94, 155, 68, 63, 61, 86, 2, 1.55325
378, 1, wb, filler, NA, 999, 999, 5, 26, 94, 155, 68, 63, 61, 86, 1, 0.785906
378, 1, wb, catch, NA, 999, 999, 5, 27, 169, 146, 97, 158, 115, 80, 3, 1.27239
378, 1, wb, catch, NA, 999, 999, 5, 27, 169, 146, 97, 158, 115, 80, 1, 0.92395
378, 1, wb, attraction, a-b-db, 5, 3, 5, 28, 195, 120, 120, 195, 117, 190, 1, 1.62024
378, 1, wb, attraction, a-b-db, 5, 3, 5, 28, 195, 120, 120, 195, 117, 190, 2, 0.818458
378, 1, wb, attraction, a-b-db, 2, 2, 5, 29, 89, 163, 165, 90, 90, 165, 1, 1.91946
378, 1, wb, attraction, a-b-db, 2, 2, 5, 29, 89, 163, 165, 90, 90, 165, 3, 2.84949
378, 1, wb, attraction, a-b-da, 14, 1, 5, 30, 60, 135, 135, 60, 125, 56, 3, 6.50054
378, 1, wb, attraction, a-b-da, 14, 1, 5, 30, 60, 135, 135, 60, 125, 56, 1, 1.41378
378, 1, wb, attraction, a-b-da, 9, 1, 5, 31, 129, 57, 60, 135, 135, 60, 1, 2.45863
378, 1, wb, attraction, a-b-da, 9, 1, 5, 31, 129, 57, 60, 135, 135, 60, 3, 0.998448
378, 1, wb, attraction, a-b-db, 9, 3, 5, 32, 114, 186, 120, 195, 195, 120, 1, 1.89205
378, 1, wb, attraction, a-b-db, 9, 3, 5, 32, 114, 186, 120, 195, 195, 120, 3, 0.742783
378, 1, wb, filler, NA, 999, 999, 5, 33, 95, 150, 107, 178, 152, 195, 1, 1.67842
378, 1, wb, filler, NA, 999, 999, 5, 33, 95, 150, 107, 178, 152, 195, 3, 0.75406
378, 1, wb, attraction, a-b-db, 5, 1, 5, 34, 58, 132, 60, 135, 135, 60, 1, 7.45764
378, 1, wb, attraction, a-b-db, 5, 1, 5, 34, 58, 132, 60, 135, 135, 60, 3, 0.956019
378, 1, wb, attraction, a-b-db, 14, 1, 5, 35, 60, 135, 56, 125, 135, 60, 2, 3.69165
378, 1, wb, attraction, a-b-db, 14, 1, 5, 35, 60, 135, 56, 125, 135, 60, 1, 0.877845
378, 1, wb, attraction, a-b-da, 9, 2, 5, 36, 165, 90, 90, 165, 157, 86, 3, 1.49614
378, 1, wb, attraction, a-b-da, 9, 2, 5, 36, 165, 90, 90, 165, 157, 86, 2, 1.05098
378, 1, wb, attraction, a-b-db, 5, 2, 5, 37, 88, 161, 90, 165, 165, 90, 1, 3.15059
378, 1, wb, attraction, a-b-db, 5, 2, 5, 37, 88, 161, 90, 165, 165, 90, 2, 0.782808
378, 1, wb, attraction, a-b-da, 5, 2, 6, 1, 161, 88, 90, 165, 165, 90, 1, 4.01327
378, 1, wb, attraction, a-b-da, 5, 2, 6, 1, 161, 88, 90, 165, 165, 90, 2, 1.01077
378, 1, wb, attraction, a-b-db, 14, 2, 6, 2, 83, 153, 165, 90, 90, 165, 1, 1.67167
378, 1, wb, attraction, a-b-db, 14, 2, 6, 2, 83, 153, 165, 90, 90, 165, 3, 0.811156
378, 1, wb, filler, NA, 999, 999, 6, 3, 101, 145, 140, 70, 106, 158, 2, 1.69609
378, 1, wb, filler, NA, 999, 999, 6, 3, 101, 145, 140, 70, 106, 158, 3, 0.770782
378, 1, wb, filler, NA, 999, 999, 6, 4, 105, 71, 101, 58, 154, 150, 2, 1.78584
378, 1, wb, filler, NA, 999, 999, 6, 4, 105, 71, 101, 58, 154, 150, 3, 0.665401
378, 1, wb, attraction, a-b-db, 2, 3, 6, 5, 119, 193, 120, 195, 195, 120, 1, 4.74841
378, 1, wb, attraction, a-b-db, 2, 3, 6, 5, 119, 193, 120, 195, 195, 120, 3, 0.484205
378, 1, wb, filler, NA, 999, 999, 6, 6, 188, 141, 111, 69, 107, 174, 2, 1.15863
378, 1, wb, filler, NA, 999, 999, 6, 6, 188, 141, 111, 69, 107, 174, 1, 0.582899
378, 1, wb, attraction, a-b-da, 5, 1, 6, 7, 132, 58, 135, 60, 60, 135, 2, 4.12531
378, 1, wb, attraction, a-b-da, 5, 1, 6, 7, 132, 58, 135, 60, 60, 135, 3, 1.08618
378, 1, wb, attraction, a-b-db, 9, 2, 6, 8, 165, 90, 90, 165, 86, 157, 3, 5.7364
378, 1, wb, attraction, a-b-db, 9, 2, 6, 8, 165, 90, 90, 165, 86, 157, 1, 0.792552
378, 1, wb, attraction, a-b-da, 14, 2, 6, 9, 165, 90, 153, 83, 90, 165, 2, 3.36618
378, 1, wb, attraction, a-b-da, 14, 2, 6, 9, 165, 90, 153, 83, 90, 165, 3, 0.8058
378, 1, wb, catch, NA, 999, 999, 6, 10, 144, 111, 163, 152, 91, 104, 3, 1.90753
378, 1, wb, catch, NA, 999, 999, 6, 10, 144, 111, 163, 152, 91, 104, 2, 0.781519
378, 1, wb, filler, NA, 999, 999, 6, 11, 68, 127, 72, 91, 117, 63, 2, 1.63585
378, 1, wb, filler, NA, 999, 999, 6, 11, 68, 127, 72, 91, 117, 63, 1, 0.857368
378, 1, wb, attraction, a-b-db, 9, 1, 6, 12, 57, 129, 135, 60, 60, 135, 1, 1.54833
378, 1, wb, attraction, a-b-db, 9, 1, 6, 12, 57, 129, 135, 60, 60, 135, 3, 1.3651
378, 1, wb, filler, NA, 999, 999, 6, 13, 95, 176, 149, 99, 194, 108, 2, 1.92411
378, 1, wb, filler, NA, 999, 999, 6, 13, 95, 176, 149, 99, 194, 108, 3, 0.709425
378, 1, wb, attraction, a-b-da, 2, 3, 6, 14, 193, 119, 120, 195, 195, 120, 1, 3.09442
378, 1, wb, attraction, a-b-da, 2, 3, 6, 14, 193, 119, 120, 195, 195, 120, 2, 0.89688
378, 1, wb, attraction, a-b-da, 14, 1, 6, 15, 135, 60, 125, 56, 60, 135, 2, 1.79437
378, 1, wb, attraction, a-b-da, 14, 1, 6, 15, 135, 60, 125, 56, 60, 135, 3, 0.793145
378, 1, wb, attraction, a-b-da, 9, 3, 6, 16, 186, 114, 120, 195, 195, 120, 1, 5.71094
378, 1, wb, attraction, a-b-da, 9, 3, 6, 16, 186, 114, 120, 195, 195, 120, 2, 1.50374
378, 1, wb, attraction, a-b-db, 14, 1, 6, 17, 135, 60, 60, 135, 56, 125, 3, 5.37719
378, 1, wb, attraction, a-b-db, 14, 1, 6, 17, 135, 60, 60, 135, 56, 125, 1, 1.59951
378, 1, wb, filler, NA, 999, 999, 6, 18, 98, 148, 176, 146, 174, 109, 1, 1.78093
378, 1, wb, filler, NA, 999, 999, 6, 18, 98, 148, 176, 146, 174, 109, 3, 0.612366
378, 1, wb, filler, NA, 999, 999, 6, 19, 128, 157, 187, 186, 172, 112, 3, 1.68941
378, 1, wb, filler, NA, 999, 999, 6, 19, 128, 157, 187, 186, 172, 112, 2, 0.796167
378, 1, wb, attraction, a-b-db, 14, 3, 6, 20, 111, 181, 195, 120, 120, 195, 1, 1.53792
378, 1, wb, attraction, a-b-db, 14, 3, 6, 20, 111, 181, 195, 120, 120, 195, 3, 0.746776
378, 1, wb, attraction, a-b-db, 5, 3, 6, 21, 195, 120, 120, 195, 117, 190, 3, 7.15442
378, 1, wb, attraction, a-b-db, 5, 3, 6, 21, 195, 120, 120, 195, 117, 190, 1, 0.921538
378, 1, wb, attraction, a-b-db, 2, 2, 6, 22, 89, 163, 90, 165, 165, 90, 1, 3.28259
378, 1, wb, attraction, a-b-db, 2, 2, 6, 22, 89, 163, 90, 165, 165, 90, 3, 0.709483
378, 1, wb, attraction, a-b-db, 5, 2, 6, 23, 165, 90, 90, 165, 88, 161, 3, 1.98244
378, 1, wb, attraction, a-b-db, 5, 2, 6, 23, 165, 90, 90, 165, 88, 161, 1, 1.11786
378, 1, wb, catch, NA, 999, 999, 6, 24, 152, 163, 133, 122, 68, 127, 3, 1.19076
378, 1, wb, catch, NA, 999, 999, 6, 24, 152, 163, 133, 122, 68, 127, 1, 0.7177
378, 1, wb, attraction, a-b-db, 2, 1, 6, 25, 59, 134, 60, 135, 135, 60, 1, 2.45477
378, 1, wb, attraction, a-b-db, 2, 1, 6, 25, 59, 134, 60, 135, 135, 60, 3, 2.56327
378, 1, wb, filler, NA, 999, 999, 6, 26, 174, 98, 160, 108, 156, 150, 2, 2.60988
378, 1, wb, filler, NA, 999, 999, 6, 26, 174, 98, 160, 108, 156, 150, 3, 1.04762
378, 1, wb, attraction, a-b-da, 2, 2, 6, 27, 163, 89, 90, 165, 165, 90, 1, 1.38725
378, 1, wb, attraction, a-b-da, 2, 2, 6, 27, 163, 89, 90, 165, 165, 90, 2, 2.45873
378, 1, wb, filler, NA, 999, 999, 6, 28, 187, 166, 134, 102, 88, 171, 2, 1.46131
378, 1, wb, filler, NA, 999, 999, 6, 28, 187, 166, 134, 102, 88, 171, 1, 0.505447
378, 1, wb, attraction, a-b-da, 14, 3, 6, 29, 181, 111, 195, 120, 120, 195, 1, 2.56323
378, 1, wb, attraction, a-b-da, 14, 3, 6, 29, 181, 111, 195, 120, 120, 195, 3, 0.867083
378, 1, wb, attraction, a-b-da, 5, 3, 6, 30, 190, 117, 120, 195, 195, 120, 1, 1.93405
378, 1, wb, attraction, a-b-da, 5, 3, 6, 30, 190, 117, 120, 195, 195, 120, 2, 0.615425
378, 1, wb, attraction, a-b-db, 5, 1, 6, 31, 58, 132, 60, 135, 135, 60, 3, 2.8045
378, 1, wb, attraction, a-b-db, 5, 1, 6, 31, 58, 132, 60, 135, 135, 60, 2, 0.970946
378, 1, wb, attraction, a-b-db, 9, 3, 6, 32, 114, 186, 195, 120, 120, 195, 1, 2.05793
378, 1, wb, attraction, a-b-db, 9, 3, 6, 32, 114, 186, 195, 120, 120, 195, 2, 0.621963
378, 1, wb, attraction, a-b-da, 2, 1, 6, 33, 60, 135, 135, 60, 134, 59, 1, 1.65098
378, 1, wb, attraction, a-b-da, 2, 1, 6, 33, 60, 135, 135, 60, 134, 59, 3, 1.71991
378, 1, wb, catch, NA, 999, 999, 6, 34, 74, 121, 150, 105, 165, 150, 1, 0.928659
378, 1, wb, catch, NA, 999, 999, 6, 34, 74, 121, 150, 105, 165, 150, 3, 0.762248
378, 1, wb, attraction, a-b-da, 9, 1, 6, 35, 135, 60, 129, 57, 60, 135, 2, 3.14544
378, 1, wb, attraction, a-b-da, 9, 1, 6, 35, 135, 60, 129, 57, 60, 135, 3, 0.561574
378, 1, wb, filler, NA, 999, 999, 6, 36, 148, 147, 173, 144, 147, 141, 3, 6.3687
378, 1, wb, filler, NA, 999, 999, 6, 36, 148, 147, 173, 144, 147, 141, 2, 0.615307
378, 1, wb, attraction, a-b-da, 9, 2, 6, 37, 157, 86, 165, 90, 90, 165, 3, 2.10042
378, 1, wb, attraction, a-b-da, 9, 2, 6, 37, 157, 86, 165, 90, 90, 165, 2, 0.919084
378, 1, wb, attraction, a-b-da, 9, 1, 7, 1, 135, 60, 129, 57, 60, 135, 1, 3.00805
378, 1, wb, attraction, a-b-da, 9, 1, 7, 1, 135, 60, 129, 57, 60, 135, 3, 1.3819
378, 1, wb, catch, NA, 999, 999, 7, 2, 91, 164, 126, 69, 140, 175, 2, 1.69198
378, 1, wb, catch, NA, 999, 999, 7, 2, 91, 164, 126, 69, 140, 175, 3, 0.61471
378, 1, wb, attraction, a-b-db, 2, 3, 7, 3, 195, 120, 120, 195, 119, 193, 3, 1.98781
378, 1, wb, attraction, a-b-db, 2, 3, 7, 3, 195, 120, 120, 195, 119, 193, 1, 1.2505
378, 1, wb, attraction, a-b-da, 9, 3, 7, 4, 120, 195, 186, 114, 195, 120, 2, 3.74207
378, 1, wb, attraction, a-b-da, 9, 3, 7, 4, 120, 195, 186, 114, 195, 120, 3, 1.07024
378, 1, wb, attraction, a-b-da, 14, 2, 7, 5, 90, 165, 153, 83, 165, 90, 2, 4.17711
378, 1, wb, attraction, a-b-da, 14, 2, 7, 5, 90, 165, 153, 83, 165, 90, 1, 0.703813
378, 1, wb, attraction, a-b-da, 5, 3, 7, 6, 195, 120, 120, 195, 190, 117, 3, 1.72969
378, 1, wb, attraction, a-b-da, 5, 3, 7, 6, 195, 120, 120, 195, 190, 117, 2, 0.459106
378, 1, wb, attraction, a-b-db, 5, 3, 7, 7, 120, 195, 117, 190, 195, 120, 1, 3.1661
378, 1, wb, attraction, a-b-db, 5, 3, 7, 7, 120, 195, 117, 190, 195, 120, 3, 0.701789
378, 1, wb, filler, NA, 999, 999, 7, 8, 65, 104, 83, 141, 151, 75, 1, 0.807433
378, 1, wb, filler, NA, 999, 999, 7, 8, 65, 104, 83, 141, 151, 75, 2, 1.41387
378, 1, wb, attraction, a-b-da, 5, 1, 7, 9, 60, 135, 132, 58, 135, 60, 2, 31.3946
378, 1, wb, attraction, a-b-da, 5, 1, 7, 9, 60, 135, 132, 58, 135, 60, 1, 0.864834
378, 1, wb, filler, NA, 999, 999, 7, 10, 151, 125, 103, 76, 194, 108, 2, 0.915772
378, 1, wb, filler, NA, 999, 999, 7, 10, 151, 125, 103, 76, 194, 108, 3, 1.44615
378, 1, wb, attraction, a-b-db, 5, 2, 7, 11, 90, 165, 165, 90, 88, 161, 3, 1.52168
378, 1, wb, attraction, a-b-db, 5, 2, 7, 11, 90, 165, 165, 90, 88, 161, 2, 1.18789
378, 1, wb, filler, NA, 999, 999, 7, 12, 109, 67, 63, 161, 170, 166, 1, 1.16203
378, 1, wb, filler, NA, 999, 999, 7, 12, 109, 67, 63, 161, 170, 166, 3, 0.522347
378, 1, wb, attraction, a-b-da, 9, 2, 7, 13, 157, 86, 165, 90, 90, 165, 1, 2.50757
378, 1, wb, attraction, a-b-da, 9, 2, 7, 13, 157, 86, 165, 90, 90, 165, 2, 0.789315
378, 1, wb, attraction, a-b-db, 9, 1, 7, 14, 60, 135, 135, 60, 57, 129, 2, 2.61973
378, 1, wb, attraction, a-b-db, 9, 1, 7, 14, 60, 135, 135, 60, 57, 129, 1, 0.769611
378, 1, wb, filler, NA, 999, 999, 7, 15, 195, 193, 99, 190, 167, 179, 2, 1.4965
378, 1, wb, filler, NA, 999, 999, 7, 15, 195, 193, 99, 190, 167, 179, 1, 0.443487
378, 1, wb, attraction, a-b-db, 14, 1, 7, 16, 56, 125, 60, 135, 135, 60, 1, 1.77513
378, 1, wb, attraction, a-b-db, 14, 1, 7, 16, 56, 125, 60, 135, 135, 60, 3, 1.81454
378, 1, wb, attraction, a-b-db, 14, 2, 7, 17, 90, 165, 83, 153, 165, 90, 2, 2.64332
378, 1, wb, attraction, a-b-db, 14, 2, 7, 17, 90, 165, 83, 153, 165, 90, 1, 2.31981
378, 1, wb, filler, NA, 999, 999, 7, 18, 192, 123, 68, 112, 136, 156, 2, 0.928277
378, 1, wb, filler, NA, 999, 999, 7, 18, 192, 123, 68, 112, 136, 156, 1, 0.601942
378, 1, wb, attraction, a-b-db, 9, 2, 7, 19, 86, 157, 90, 165, 165, 90, 1, 1.79177
378, 1, wb, attraction, a-b-db, 9, 2, 7, 19, 86, 157, 90, 165, 165, 90, 3, 0.638481
378, 1, wb, attraction, a-b-da, 2, 1, 7, 20, 60, 135, 134, 59, 135, 60, 1, 0.954871
378, 1, wb, attraction, a-b-da, 2, 1, 7, 20, 60, 135, 134, 59, 135, 60, 3, 1.23528
378, 1, wb, catch, NA, 999, 999, 7, 21, 133, 62, 148, 167, 115, 140, 1, 0.847472
378, 1, wb, catch, NA, 999, 999, 7, 21, 133, 62, 148, 167, 115, 140, 2, 0.588511
378, 1, wb, filler, NA, 999, 999, 7, 22, 96, 79, 101, 195, 131, 169, 1, 1.11504
378, 1, wb, filler, NA, 999, 999, 7, 22, 96, 79, 101, 195, 131, 169, 2, 0.973328
378, 1, wb, attraction, a-b-da, 2, 3, 7, 23, 193, 119, 195, 120, 120, 195, 3, 1.64429
378, 1, wb, attraction, a-b-da, 2, 3, 7, 23, 193, 119, 195, 120, 120, 195, 1, 0.857006
378, 1, wb, filler, NA, 999, 999, 7, 24, 154, 167, 130, 191, 190, 149, 1, 1.39608
378, 1, wb, filler, NA, 999, 999, 7, 24, 154, 167, 130, 191, 190, 149, 3, 0.562911
378, 1, wb, attraction, a-b-db, 14, 3, 7, 25, 111, 181, 195, 120, 120, 195, 1, 1.87415
378, 1, wb, attraction, a-b-db, 14, 3, 7, 25, 111, 181, 195, 120, 120, 195, 2, 0.477435
378, 1, wb, attraction, a-b-db, 5, 1, 7, 26, 135, 60, 60, 135, 58, 132, 3, 2.6399
378, 1, wb, attraction, a-b-db, 5, 1, 7, 26, 135, 60, 60, 135, 58, 132, 1, 0.772336
378, 1, wb, attraction, a-b-db, 2, 2, 7, 27, 90, 165, 89, 163, 165, 90, 2, 2.94733
378, 1, wb, attraction, a-b-db, 2, 2, 7, 27, 90, 165, 89, 163, 165, 90, 3, 0.811798
378, 1, wb, attraction, a-b-da, 14, 3, 7, 28, 195, 120, 120, 195, 181, 111, 3, 1.72079
378, 1, wb, attraction, a-b-da, 14, 3, 7, 28, 195, 120, 120, 195, 181, 111, 1, 3.81821
378, 1, wb, attraction, a-b-da, 14, 1, 7, 29, 125, 56, 135, 60, 60, 135, 1, 4.35027
378, 1, wb, attraction, a-b-da, 14, 1, 7, 29, 125, 56, 135, 60, 60, 135, 3, 0.77414
378, 1, wb, catch, NA, 999, 999, 7, 30, 127, 128, 89, 106, 150, 165, 2, 1.32466
378, 1, wb, catch, NA, 999, 999, 7, 30, 127, 128, 89, 106, 150, 165, 3, 0.662259
378, 1, wb, filler, NA, 999, 999, 7, 31, 63, 138, 71, 194, 93, 175, 1, 1.08125
378, 1, wb, filler, NA, 999, 999, 7, 31, 63, 138, 71, 194, 93, 175, 3, 0.748818
378, 1, wb, filler, NA, 999, 999, 7, 32, 145, 71, 150, 93, 95, 137, 1, 2.16452
378, 1, wb, filler, NA, 999, 999, 7, 32, 145, 71, 150, 93, 95, 137, 3, 0.892586
378, 1, wb, attraction, a-b-da, 2, 2, 7, 33, 163, 89, 165, 90, 90, 165, 1, 3.71819
378, 1, wb, attraction, a-b-da, 2, 2, 7, 33, 163, 89, 165, 90, 90, 165, 3, 1.12789
378, 1, wb, attraction, a-b-db, 2, 1, 7, 34, 59, 134, 135, 60, 60, 135, 1, 2.18389
378, 1, wb, attraction, a-b-db, 2, 1, 7, 34, 59, 134, 135, 60, 60, 135, 2, 0.919144
378, 1, wb, filler, NA, 999, 999, 7, 35, 159, 185, 75, 81, 127, 190, 2, 0.896357
378, 1, wb, filler, NA, 999, 999, 7, 35, 159, 185, 75, 81, 127, 190, 1, 0.691205
378, 1, wb, attraction, a-b-da, 5, 2, 7, 36, 90, 165, 161, 88, 165, 90, 1, 2.13304
378, 1, wb, attraction, a-b-da, 5, 2, 7, 36, 90, 165, 161, 88, 165, 90, 3, 0.558235
378, 1, wb, attraction, a-b-db, 9, 3, 7, 37, 195, 120, 114, 186, 120, 195, 2, 0.82934
378, 1, wb, attraction, a-b-db, 9, 3, 7, 37, 195, 120, 114, 186, 120, 195, 1, 0.819061
378, 1, wb, attraction, a-b-db, 9, 2, 8, 1, 165, 90, 90, 165, 86, 157, 3, 1.81619
378, 1, wb, attraction, a-b-db, 9, 2, 8, 1, 165, 90, 90, 165, 86, 157, 1, 0.654203
378, 1, wb, attraction, a-b-db, 5, 3, 8, 2, 195, 120, 120, 195, 117, 190, 3, 1.67404
378, 1, wb, attraction, a-b-db, 5, 3, 8, 2, 195, 120, 120, 195, 117, 190, 1, 0.701328
378, 1, wb, filler, NA, 999, 999, 8, 3, 96, 70, 125, 141, 148, 189, 1, 1.34312
378, 1, wb, filler, NA, 999, 999, 8, 3, 96, 70, 125, 141, 148, 189, 3, 0.743965
378, 1, wb, attraction, a-b-db, 5, 2, 8, 4, 165, 90, 90, 165, 88, 161, 3, 1.21563
378, 1, wb, attraction, a-b-db, 5, 2, 8, 4, 165, 90, 90, 165, 88, 161, 1, 1.22197
378, 1, wb, filler, NA, 999, 999, 8, 5, 140, 133, 146, 71, 62, 107, 3, 0.754817
378, 1, wb, filler, NA, 999, 999, 8, 5, 140, 133, 146, 71, 62, 107, 1, 0.82716
378, 1, wb, attraction, a-b-db, 2, 2, 8, 6, 165, 90, 90, 165, 89, 163, 3, 2.08753
378, 1, wb, attraction, a-b-db, 2, 2, 8, 6, 165, 90, 90, 165, 89, 163, 1, 0.818868
378, 1, wb, attraction, a-b-da, 2, 3, 8, 7, 195, 120, 120, 195, 193, 119, 1, 3.37593
378, 1, wb, attraction, a-b-da, 2, 3, 8, 7, 195, 120, 120, 195, 193, 119, 2, 0.74284
378, 1, wb, filler, NA, 999, 999, 8, 8, 56, 86, 158, 182, 100, 188, 1, 1.07047
378, 1, wb, filler, NA, 999, 999, 8, 8, 56, 86, 158, 182, 100, 188, 2, 0.602816
378, 1, wb, attraction, a-b-da, 9, 2, 8, 9, 157, 86, 165, 90, 90, 165, 3, 1.43279
378, 1, wb, attraction, a-b-da, 9, 2, 8, 9, 157, 86, 165, 90, 90, 165, 2, 0.502202
378, 1, wb, attraction, a-b-da, 14, 2, 8, 10, 90, 165, 165, 90, 153, 83, 1, 1.024
378, 1, wb, attraction, a-b-da, 14, 2, 8, 10, 90, 165, 165, 90, 153, 83, 2, 1.49365
378, 1, wb, catch, NA, 999, 999, 8, 11, 128, 187, 142, 113, 108, 87, 3, 0.999064
378, 1, wb, catch, NA, 999, 999, 8, 11, 128, 187, 142, 113, 108, 87, 1, 0.60609
378, 1, wb, filler, NA, 999, 999, 8, 12, 126, 152, 145, 187, 168, 70, 3, 2.52382
378, 1, wb, filler, NA, 999, 999, 8, 12, 126, 152, 145, 187, 168, 70, 2, 0.828988
378, 1, wb, attraction, a-b-da, 9, 1, 8, 13, 60, 135, 135, 60, 129, 57, 3, 2.24932
378, 1, wb, attraction, a-b-da, 9, 1, 8, 13, 60, 135, 135, 60, 129, 57, 2, 0.677953
378, 1, wb, attraction, a-b-db, 9, 1, 8, 14, 60, 135, 57, 129, 135, 60, 1, 2.08032
378, 1, wb, attraction, a-b-db, 9, 1, 8, 14, 60, 135, 57, 129, 135, 60, 2, 0.675707
378, 1, wb, filler, NA, 999, 999, 8, 15, 148, 61, 174, 58, 122, 136, 1, 1.95011
378, 1, wb, filler, NA, 999, 999, 8, 15, 148, 61, 174, 58, 122, 136, 3, 1.06276
378, 1, wb, attraction, a-b-da, 5, 3, 8, 16, 190, 117, 120, 195, 195, 120, 1, 1.68169
378, 1, wb, attraction, a-b-da, 5, 3, 8, 16, 190, 117, 120, 195, 195, 120, 3, 1.97321
378, 1, wb, filler, NA, 999, 999, 8, 17, 103, 83, 61, 103, 156, 115, 2, 1.27585
378, 1, wb, filler, NA, 999, 999, 8, 17, 103, 83, 61, 103, 156, 115, 3, 0.75134
378, 1, wb, attraction, a-b-da, 14, 1, 8, 18, 135, 60, 125, 56, 60, 135, 1, 3.69507
378, 1, wb, attraction, a-b-da, 14, 1, 8, 18, 135, 60, 125, 56, 60, 135, 3, 1.11322
378, 1, wb, attraction, a-b-db, 14, 1, 8, 19, 60, 135, 56, 125, 135, 60, 2, 2.52212
378, 1, wb, attraction, a-b-db, 14, 1, 8, 19, 60, 135, 56, 125, 135, 60, 3, 0.811321
378, 1, wb, attraction, a-b-da, 2, 1, 8, 20, 135, 60, 134, 59, 60, 135, 2, 2.96834
378, 1, wb, attraction, a-b-da, 2, 1, 8, 20, 135, 60, 134, 59, 60, 135, 3, 1.13607
378, 1, wb, attraction, a-b-db, 14, 2, 8, 21, 165, 90, 90, 165, 83, 153, 3, 1.88032
378, 1, wb, attraction, a-b-db, 14, 2, 8, 21, 165, 90, 90, 165, 83, 153, 1, 0.627687
378, 1, wb, filler, NA, 999, 999, 8, 22, 80, 108, 179, 62, 138, 142, 1, 1.33611
378, 1, wb, filler, NA, 999, 999, 8, 22, 80, 108, 179, 62, 138, 142, 3, 0.489609
378, 1, wb, attraction, a-b-db, 9, 3, 8, 23, 114, 186, 120, 195, 195, 120, 2, 2.92411
378, 1, wb, attraction, a-b-db, 9, 3, 8, 23, 114, 186, 120, 195, 195, 120, 3, 0.429342
378, 1, wb, attraction, a-b-db, 2, 1, 8, 24, 135, 60, 59, 134, 60, 135, 2, 3.32967
378, 1, wb, attraction, a-b-db, 2, 1, 8, 24, 135, 60, 59, 134, 60, 135, 3, 1.63459
378, 1, wb, attraction, a-b-db, 2, 3, 8, 25, 119, 193, 120, 195, 195, 120, 1, 3.65469
378, 1, wb, attraction, a-b-db, 2, 3, 8, 25, 119, 193, 120, 195, 195, 120, 3, 1.3223
378, 1, wb, attraction, a-b-da, 5, 1, 8, 26, 132, 58, 60, 135, 135, 60, 1, 2.93906
378, 1, wb, attraction, a-b-da, 5, 1, 8, 26, 132, 58, 60, 135, 135, 60, 2, 0.883526
378, 1, wb, filler, NA, 999, 999, 8, 27, 96, 72, 73, 60, 171, 167, 2, 1.93381
378, 1, wb, filler, NA, 999, 999, 8, 27, 96, 72, 73, 60, 171, 167, 3, 0.391154
378, 1, wb, attraction, a-b-da, 5, 2, 8, 28, 90, 165, 165, 90, 161, 88, 1, 2.09295
378, 1, wb, attraction, a-b-da, 5, 2, 8, 28, 90, 165, 165, 90, 161, 88, 2, 1.39168
378, 1, wb, attraction, a-b-da, 2, 2, 8, 29, 165, 90, 163, 89, 90, 165, 2, 2.42109
378, 1, wb, attraction, a-b-da, 2, 2, 8, 29, 165, 90, 163, 89, 90, 165, 3, 0.579072
378, 1, wb, catch, NA, 999, 999, 8, 30, 183, 132, 138, 117, 103, 92, 3, 1.00948
378, 1, wb, catch, NA, 999, 999, 8, 30, 183, 132, 138, 117, 103, 92, 1, 0.775825
378, 1, wb, attraction, a-b-db, 5, 1, 8, 31, 60, 135, 58, 132, 135, 60, 1, 1.89419
378, 1, wb, attraction, a-b-db, 5, 1, 8, 31, 60, 135, 58, 132, 135, 60, 3, 0.728865
378, 1, wb, attraction, a-b-da, 9, 3, 8, 32, 195, 120, 120, 195, 186, 114, 2, 2.86522
378, 1, wb, attraction, a-b-da, 9, 3, 8, 32, 195, 120, 120, 195, 186, 114, 1, 1.82907
378, 1, wb, filler, NA, 999, 999, 8, 33, 168, 159, 187, 80, 79, 70, 3, 0.784964
378, 1, wb, filler, NA, 999, 999, 8, 33, 168, 159, 187, 80, 79, 70, 1, 0.824748
378, 1, wb, attraction, a-b-da, 14, 3, 8, 34, 195, 120, 181, 111, 120, 195, 2, 4.73328
378, 1, wb, attraction, a-b-da, 14, 3, 8, 34, 195, 120, 181, 111, 120, 195, 1, 0.86158
378, 1, wb, filler, NA, 999, 999, 8, 35, 114, 59, 187, 96, 67, 87, 3, 1.3686
378, 1, wb, filler, NA, 999, 999, 8, 35, 114, 59, 187, 96, 67, 87, 2, 0.800742
378, 1, wb, attraction, a-b-db, 14, 3, 8, 36, 195, 120, 120, 195, 111, 181, 3, 1.96657
378, 1, wb, attraction, a-b-db, 14, 3, 8, 36, 195, 120, 120, 195, 111, 181, 2, 0.678587
378, 1, wb, catch, NA, 999, 999, 8, 37, 131, 64, 154, 161, 122, 133, 1, 1.16094
378, 1, wb, catch, NA, 999, 999, 8, 37, 131, 64, 154, 161, 122, 133, 2, 0.713189
