sub_n, computer_n, bw_cond, effect, set, distance, diag, block_n, trial_n, h1, w1, h2, w2, h3, w3, choice, rt 
350, 1, wb, practice, NA, 999, 999, 0, 1, 63, 138, 106, 99, 157, 138, 1, 6.2721
350, 1, wb, practice, NA, 999, 999, 0, 1, 63, 138, 106, 99, 157, 138, 3, 1.82617
350, 1, wb, practice, NA, 999, 999, 0, 2, 147, 98, 170, 69, 146, 103, 2, 4.46776
350, 1, wb, practice, NA, 999, 999, 0, 2, 147, 98, 170, 69, 146, 103, 3, 1.86311
350, 1, wb, practice, NA, 999, 999, 0, 3, 102, 125, 187, 112, 120, 88, 3, 3.65493
350, 1, wb, practice, NA, 999, 999, 0, 3, 102, 125, 187, 112, 120, 88, 2, 2.49932
350, 1, wb, attraction, a-b-db, 2, 1, 1, 1, 60, 135, 135, 60, 59, 134, 2, 2.23607
350, 1, wb, attraction, a-b-db, 2, 1, 1, 1, 60, 135, 135, 60, 59, 134, 3, 0.5132
350, 1, wb, attraction, a-b-db, 14, 3, 1, 2, 195, 120, 111, 181, 120, 195, 2, 1.93024
350, 1, wb, attraction, a-b-db, 14, 3, 1, 2, 195, 120, 111, 181, 120, 195, 1, 0.931654
350, 1, wb, attraction, a-b-da, 14, 3, 1, 3, 120, 195, 195, 120, 181, 111, 3, 2.24401
350, 1, wb, attraction, a-b-da, 14, 3, 1, 3, 120, 195, 195, 120, 181, 111, 1, 0.648616
350, 1, wb, catch, NA, 999, 999, 1, 4, 138, 177, 119, 136, 64, 131, 3, 1.05229
350, 1, wb, catch, NA, 999, 999, 1, 4, 138, 177, 119, 136, 64, 131, 1, 0.39321
350, 1, wb, filler, NA, 999, 999, 1, 5, 123, 180, 151, 111, 124, 191, 2, 2.71908
350, 1, wb, filler, NA, 999, 999, 1, 5, 123, 180, 151, 111, 124, 191, 3, 0.960825
350, 1, wb, attraction, a-b-da, 5, 3, 1, 6, 190, 117, 195, 120, 120, 195, 2, 4.04794
350, 1, wb, attraction, a-b-da, 5, 3, 1, 6, 190, 117, 195, 120, 120, 195, 1, 1.08399
350, 1, wb, catch, NA, 999, 999, 1, 7, 106, 89, 141, 114, 157, 158, 1, 0.982246
350, 1, wb, catch, NA, 999, 999, 1, 7, 106, 89, 141, 114, 157, 158, 3, 1.1179
350, 1, wb, attraction, a-b-da, 5, 1, 1, 8, 60, 135, 135, 60, 132, 58, 2, 3.79079
350, 1, wb, attraction, a-b-da, 5, 1, 1, 8, 60, 135, 135, 60, 132, 58, 1, 0.48504
350, 1, wb, attraction, a-b-db, 2, 2, 1, 9, 165, 90, 90, 165, 89, 163, 2, 2.59934
350, 1, wb, attraction, a-b-db, 2, 2, 1, 9, 165, 90, 90, 165, 89, 163, 3, 0.717867
350, 1, wb, filler, NA, 999, 999, 1, 10, 164, 189, 92, 60, 87, 166, 2, 0.86286
350, 1, wb, filler, NA, 999, 999, 1, 10, 164, 189, 92, 60, 87, 166, 1, 0.339251
350, 1, wb, attraction, a-b-da, 14, 1, 1, 11, 60, 135, 125, 56, 135, 60, 2, 2.46788
350, 1, wb, attraction, a-b-da, 14, 1, 1, 11, 60, 135, 125, 56, 135, 60, 1, 0.319739
350, 1, wb, attraction, a-b-db, 14, 2, 1, 12, 90, 165, 83, 153, 165, 90, 2, 2.10484
350, 1, wb, attraction, a-b-db, 14, 2, 1, 12, 90, 165, 83, 153, 165, 90, 1, 0.954767
350, 1, wb, attraction, a-b-db, 14, 1, 1, 13, 60, 135, 135, 60, 56, 125, 1, 1.88257
350, 1, wb, attraction, a-b-db, 14, 1, 1, 13, 60, 135, 135, 60, 56, 125, 3, 1.44598
350, 1, wb, attraction, a-b-da, 5, 2, 1, 14, 161, 88, 90, 165, 165, 90, 1, 4.01774
350, 1, wb, attraction, a-b-da, 5, 2, 1, 14, 161, 88, 90, 165, 165, 90, 2, 0.478643
350, 1, wb, attraction, a-b-da, 2, 1, 1, 15, 134, 59, 60, 135, 135, 60, 3, 2.25714
350, 1, wb, attraction, a-b-da, 2, 1, 1, 15, 134, 59, 60, 135, 135, 60, 2, 0.533055
350, 1, wb, filler, NA, 999, 999, 1, 16, 156, 96, 137, 159, 182, 190, 1, 3.36553
350, 1, wb, filler, NA, 999, 999, 1, 16, 156, 96, 137, 159, 182, 190, 3, 0.493144
350, 1, wb, filler, NA, 999, 999, 1, 17, 71, 165, 184, 94, 86, 116, 1, 3.23887
350, 1, wb, filler, NA, 999, 999, 1, 17, 71, 165, 184, 94, 86, 116, 2, 1.08325
350, 1, wb, attraction, a-b-da, 9, 2, 1, 18, 90, 165, 157, 86, 165, 90, 2, 1.51754
350, 1, wb, attraction, a-b-da, 9, 2, 1, 18, 90, 165, 157, 86, 165, 90, 1, 0.575671
350, 1, wb, filler, NA, 999, 999, 1, 19, 193, 183, 125, 112, 174, 106, 2, 4.69411
350, 1, wb, filler, NA, 999, 999, 1, 19, 193, 183, 125, 112, 174, 106, 1, 0.447905
350, 1, wb, attraction, a-b-db, 9, 2, 1, 20, 86, 157, 90, 165, 165, 90, 1, 1.49968
350, 1, wb, attraction, a-b-db, 9, 2, 1, 20, 86, 157, 90, 165, 165, 90, 2, 0.486737
350, 1, wb, filler, NA, 999, 999, 1, 21, 136, 154, 108, 106, 172, 177, 2, 1.12894
350, 1, wb, filler, NA, 999, 999, 1, 21, 136, 154, 108, 106, 172, 177, 3, 0.690692
350, 1, wb, filler, NA, 999, 999, 1, 22, 137, 57, 67, 148, 74, 126, 1, 1.70038
350, 1, wb, filler, NA, 999, 999, 1, 22, 137, 57, 67, 148, 74, 126, 2, 1.16717
350, 1, wb, attraction, a-b-db, 2, 3, 1, 23, 195, 120, 119, 193, 120, 195, 1, 5.8861
350, 1, wb, attraction, a-b-db, 2, 3, 1, 23, 195, 120, 119, 193, 120, 195, 2, 0.720251
350, 1, wb, attraction, a-b-db, 9, 1, 1, 24, 60, 135, 135, 60, 57, 129, 2, 1.08125
350, 1, wb, attraction, a-b-db, 9, 1, 1, 24, 60, 135, 135, 60, 57, 129, 1, 0.268859
350, 1, wb, attraction, a-b-db, 9, 3, 1, 25, 114, 186, 195, 120, 120, 195, 1, 1.79214
350, 1, wb, attraction, a-b-db, 9, 3, 1, 25, 114, 186, 195, 120, 120, 195, 3, 2.54282
350, 1, wb, attraction, a-b-da, 2, 3, 1, 26, 193, 119, 195, 120, 120, 195, 2, 3.76592
350, 1, wb, attraction, a-b-da, 2, 3, 1, 26, 193, 119, 195, 120, 120, 195, 3, 2.10148
350, 1, wb, attraction, a-b-da, 14, 2, 1, 27, 153, 83, 165, 90, 90, 165, 1, 1.4467
350, 1, wb, attraction, a-b-da, 14, 2, 1, 27, 153, 83, 165, 90, 90, 165, 3, 0.51563
350, 1, wb, filler, NA, 999, 999, 1, 28, 163, 178, 124, 189, 78, 135, 3, 0.772745
350, 1, wb, filler, NA, 999, 999, 1, 28, 163, 178, 124, 189, 78, 135, 1, 0.532401
350, 1, wb, filler, NA, 999, 999, 1, 29, 195, 76, 113, 125, 178, 108, 1, 1.41284
350, 1, wb, filler, NA, 999, 999, 1, 29, 195, 76, 113, 125, 178, 108, 3, 1.05908
350, 1, wb, attraction, a-b-da, 9, 3, 1, 30, 195, 120, 186, 114, 120, 195, 2, 4.6061
350, 1, wb, attraction, a-b-da, 9, 3, 1, 30, 195, 120, 186, 114, 120, 195, 3, 0.459178
350, 1, wb, attraction, a-b-da, 2, 2, 1, 31, 165, 90, 90, 165, 163, 89, 2, 1.7823
350, 1, wb, attraction, a-b-da, 2, 2, 1, 31, 165, 90, 90, 165, 163, 89, 1, 0.261716
350, 1, wb, attraction, a-b-db, 5, 1, 1, 32, 60, 135, 58, 132, 135, 60, 2, 1.21691
350, 1, wb, attraction, a-b-db, 5, 1, 1, 32, 60, 135, 58, 132, 135, 60, 1, 0.311162
350, 1, wb, catch, NA, 999, 999, 1, 33, 135, 60, 157, 98, 195, 120, 1, 0.672481
350, 1, wb, catch, NA, 999, 999, 1, 33, 135, 60, 157, 98, 195, 120, 3, 0.332177
350, 1, wb, filler, NA, 999, 999, 1, 34, 194, 107, 190, 144, 143, 141, 1, 1.10856
350, 1, wb, filler, NA, 999, 999, 1, 34, 194, 107, 190, 144, 143, 141, 2, 0.478956
350, 1, wb, attraction, a-b-db, 5, 3, 1, 35, 195, 120, 117, 190, 120, 195, 3, 1.22537
350, 1, wb, attraction, a-b-db, 5, 3, 1, 35, 195, 120, 117, 190, 120, 195, 1, 0.342885
350, 1, wb, attraction, a-b-db, 5, 2, 1, 36, 88, 161, 165, 90, 90, 165, 1, 1.04684
350, 1, wb, attraction, a-b-db, 5, 2, 1, 36, 88, 161, 165, 90, 90, 165, 3, 0.35584
350, 1, wb, attraction, a-b-da, 9, 1, 1, 37, 129, 57, 60, 135, 135, 60, 3, 1.4597
350, 1, wb, attraction, a-b-da, 9, 1, 1, 37, 129, 57, 60, 135, 135, 60, 2, 0.975845
350, 1, wb, filler, NA, 999, 999, 2, 1, 137, 189, 121, 60, 138, 140, 2, 0.750048
350, 1, wb, filler, NA, 999, 999, 2, 1, 137, 189, 121, 60, 138, 140, 1, 0.295077
350, 1, wb, attraction, a-b-db, 2, 2, 2, 2, 165, 90, 89, 163, 90, 165, 1, 1.7095
350, 1, wb, attraction, a-b-db, 2, 2, 2, 2, 165, 90, 89, 163, 90, 165, 3, 0.499217
350, 1, wb, attraction, a-b-db, 5, 3, 2, 3, 120, 195, 117, 190, 195, 120, 3, 2.50087
350, 1, wb, attraction, a-b-db, 5, 3, 2, 3, 120, 195, 117, 190, 195, 120, 1, 0.343384
350, 1, wb, attraction, a-b-da, 2, 2, 2, 4, 165, 90, 163, 89, 90, 165, 2, 0.759204
350, 1, wb, attraction, a-b-da, 2, 2, 2, 4, 165, 90, 163, 89, 90, 165, 1, 0.431611
350, 1, wb, attraction, a-b-da, 2, 1, 2, 5, 135, 60, 60, 135, 134, 59, 1, 0.980085
350, 1, wb, attraction, a-b-da, 2, 1, 2, 5, 135, 60, 60, 135, 134, 59, 3, 0.795779
350, 1, wb, attraction, a-b-da, 5, 2, 2, 6, 90, 165, 165, 90, 161, 88, 2, 1.11357
350, 1, wb, attraction, a-b-da, 5, 2, 2, 6, 90, 165, 165, 90, 161, 88, 1, 0.683784
350, 1, wb, attraction, a-b-da, 2, 3, 2, 7, 195, 120, 193, 119, 120, 195, 1, 1.56618
350, 1, wb, attraction, a-b-da, 2, 3, 2, 7, 195, 120, 193, 119, 120, 195, 3, 1.17444
350, 1, wb, attraction, a-b-db, 14, 2, 2, 8, 165, 90, 83, 153, 90, 165, 1, 1.18854
350, 1, wb, attraction, a-b-db, 14, 2, 2, 8, 165, 90, 83, 153, 90, 165, 3, 0.331477
350, 1, wb, attraction, a-b-db, 5, 1, 2, 9, 58, 132, 135, 60, 60, 135, 3, 1.44404
350, 1, wb, attraction, a-b-db, 5, 1, 2, 9, 58, 132, 135, 60, 60, 135, 1, 0.360895
350, 1, wb, attraction, a-b-db, 14, 1, 2, 10, 135, 60, 56, 125, 60, 135, 2, 1.51204
350, 1, wb, attraction, a-b-db, 14, 1, 2, 10, 135, 60, 56, 125, 60, 135, 1, 0.514174
350, 1, wb, catch, NA, 999, 999, 2, 11, 92, 163, 181, 134, 75, 120, 3, 0.947407
350, 1, wb, catch, NA, 999, 999, 2, 11, 92, 163, 181, 134, 75, 120, 2, 0.284257
350, 1, wb, attraction, a-b-db, 2, 3, 2, 12, 119, 193, 120, 195, 195, 120, 3, 1.49497
350, 1, wb, attraction, a-b-db, 2, 3, 2, 12, 119, 193, 120, 195, 195, 120, 2, 0.633618
350, 1, wb, attraction, a-b-db, 5, 2, 2, 13, 165, 90, 88, 161, 90, 165, 2, 1.15804
350, 1, wb, attraction, a-b-db, 5, 2, 2, 13, 165, 90, 88, 161, 90, 165, 1, 0.382326
350, 1, wb, attraction, a-b-db, 9, 2, 2, 14, 90, 165, 86, 157, 165, 90, 2, 1.7089
350, 1, wb, attraction, a-b-db, 9, 2, 2, 14, 90, 165, 86, 157, 165, 90, 1, 0.638911
350, 1, wb, attraction, a-b-db, 9, 3, 2, 15, 195, 120, 114, 186, 120, 195, 1, 1.9954
350, 1, wb, attraction, a-b-db, 9, 3, 2, 15, 195, 120, 114, 186, 120, 195, 3, 0.330077
350, 1, wb, filler, NA, 999, 999, 2, 16, 85, 117, 189, 109, 191, 60, 1, 3.03468
350, 1, wb, filler, NA, 999, 999, 2, 16, 85, 117, 189, 109, 191, 60, 2, 0.407609
350, 1, wb, filler, NA, 999, 999, 2, 17, 89, 135, 117, 134, 151, 87, 1, 1.70078
350, 1, wb, filler, NA, 999, 999, 2, 17, 89, 135, 117, 134, 151, 87, 2, 0.335574
350, 1, wb, catch, NA, 999, 999, 2, 18, 94, 101, 161, 94, 179, 136, 1, 0.76
350, 1, wb, catch, NA, 999, 999, 2, 18, 94, 101, 161, 94, 179, 136, 3, 0.824428
350, 1, wb, filler, NA, 999, 999, 2, 19, 72, 183, 98, 149, 111, 86, 3, 1.0448
350, 1, wb, filler, NA, 999, 999, 2, 19, 72, 183, 98, 149, 111, 86, 1, 0.321733
350, 1, wb, filler, NA, 999, 999, 2, 20, 125, 184, 57, 140, 169, 151, 2, 0.730934
350, 1, wb, filler, NA, 999, 999, 2, 20, 125, 184, 57, 140, 169, 151, 3, 0.284668
350, 1, wb, attraction, a-b-da, 5, 3, 2, 21, 195, 120, 120, 195, 190, 117, 1, 1.04708
350, 1, wb, attraction, a-b-da, 5, 3, 2, 21, 195, 120, 120, 195, 190, 117, 2, 0.396252
350, 1, wb, attraction, a-b-da, 14, 1, 2, 22, 60, 135, 125, 56, 135, 60, 2, 0.713983
350, 1, wb, attraction, a-b-da, 14, 1, 2, 22, 60, 135, 125, 56, 135, 60, 1, 0.324438
350, 1, wb, filler, NA, 999, 999, 2, 23, 140, 181, 64, 139, 75, 134, 2, 0.516894
350, 1, wb, filler, NA, 999, 999, 2, 23, 140, 181, 64, 139, 75, 134, 3, 0.623472
350, 1, wb, attraction, a-b-db, 2, 1, 2, 24, 60, 135, 135, 60, 59, 134, 2, 0.947812
350, 1, wb, attraction, a-b-db, 2, 1, 2, 24, 60, 135, 135, 60, 59, 134, 1, 0.268793
350, 1, wb, attraction, a-b-db, 14, 3, 2, 25, 195, 120, 120, 195, 111, 181, 3, 1.16002
350, 1, wb, attraction, a-b-db, 14, 3, 2, 25, 195, 120, 120, 195, 111, 181, 1, 1.00827
350, 1, wb, catch, NA, 999, 999, 2, 26, 127, 128, 124, 191, 128, 67, 3, 0.717221
350, 1, wb, catch, NA, 999, 999, 2, 26, 127, 128, 124, 191, 128, 67, 2, 0.423676
350, 1, wb, filler, NA, 999, 999, 2, 27, 79, 191, 134, 136, 82, 66, 3, 0.77213
350, 1, wb, filler, NA, 999, 999, 2, 27, 79, 191, 134, 136, 82, 66, 2, 0.595872
350, 1, wb, filler, NA, 999, 999, 2, 28, 159, 107, 131, 173, 58, 127, 3, 1.25762
350, 1, wb, filler, NA, 999, 999, 2, 28, 159, 107, 131, 173, 58, 127, 2, 0.261784
350, 1, wb, attraction, a-b-da, 9, 1, 2, 29, 60, 135, 129, 57, 135, 60, 1, 1.16912
350, 1, wb, attraction, a-b-da, 9, 1, 2, 29, 60, 135, 129, 57, 135, 60, 2, 0.961309
350, 1, wb, filler, NA, 999, 999, 2, 30, 191, 187, 75, 120, 184, 151, 2, 0.760424
350, 1, wb, filler, NA, 999, 999, 2, 30, 191, 187, 75, 120, 184, 151, 1, 0.272702
350, 1, wb, attraction, a-b-da, 9, 2, 2, 31, 90, 165, 157, 86, 165, 90, 1, 1.48398
350, 1, wb, attraction, a-b-da, 9, 2, 2, 31, 90, 165, 157, 86, 165, 90, 3, 0.423404
350, 1, wb, attraction, a-b-da, 14, 3, 2, 32, 195, 120, 181, 111, 120, 195, 1, 1.37188
350, 1, wb, attraction, a-b-da, 14, 3, 2, 32, 195, 120, 181, 111, 120, 195, 3, 0.363554
350, 1, wb, filler, NA, 999, 999, 2, 33, 65, 108, 189, 120, 66, 131, 1, 0.778548
350, 1, wb, filler, NA, 999, 999, 2, 33, 65, 108, 189, 120, 66, 131, 2, 0.442265
350, 1, wb, attraction, a-b-da, 9, 3, 2, 34, 186, 114, 120, 195, 195, 120, 1, 1.08613
350, 1, wb, attraction, a-b-da, 9, 3, 2, 34, 186, 114, 120, 195, 195, 120, 2, 1.90579
350, 1, wb, attraction, a-b-da, 5, 1, 2, 35, 135, 60, 132, 58, 60, 135, 2, 1.0431
350, 1, wb, attraction, a-b-da, 5, 1, 2, 35, 135, 60, 132, 58, 60, 135, 3, 0.296085
350, 1, wb, attraction, a-b-db, 9, 1, 2, 36, 135, 60, 60, 135, 57, 129, 2, 0.561832
350, 1, wb, attraction, a-b-db, 9, 1, 2, 36, 135, 60, 60, 135, 57, 129, 1, 0.266387
350, 1, wb, attraction, a-b-da, 14, 2, 2, 37, 90, 165, 153, 83, 165, 90, 2, 1.16559
350, 1, wb, attraction, a-b-da, 14, 2, 2, 37, 90, 165, 153, 83, 165, 90, 1, 0.325811
350, 1, wb, catch, NA, 999, 999, 3, 1, 106, 89, 100, 155, 162, 153, 1, 1.03032
350, 1, wb, catch, NA, 999, 999, 3, 1, 106, 89, 100, 155, 162, 153, 3, 0.49197
350, 1, wb, attraction, a-b-db, 2, 2, 3, 2, 165, 90, 89, 163, 90, 165, 2, 3.34977
350, 1, wb, attraction, a-b-db, 2, 2, 3, 2, 165, 90, 89, 163, 90, 165, 1, 0.302034
350, 1, wb, filler, NA, 999, 999, 3, 3, 121, 89, 125, 119, 83, 65, 3, 0.735844
350, 1, wb, filler, NA, 999, 999, 3, 3, 121, 89, 125, 119, 83, 65, 2, 0.281692
350, 1, wb, attraction, a-b-da, 2, 1, 3, 4, 135, 60, 60, 135, 134, 59, 2, 3.57213
350, 1, wb, attraction, a-b-da, 2, 1, 3, 4, 135, 60, 60, 135, 134, 59, 1, 0.595653
350, 1, wb, attraction, a-b-da, 9, 2, 3, 5, 165, 90, 157, 86, 90, 165, 1, 1.92947
350, 1, wb, attraction, a-b-da, 9, 2, 3, 5, 165, 90, 157, 86, 90, 165, 3, 0.322855
350, 1, wb, attraction, a-b-da, 9, 3, 3, 6, 120, 195, 186, 114, 195, 120, 3, 1.724
350, 1, wb, attraction, a-b-da, 9, 3, 3, 6, 120, 195, 186, 114, 195, 120, 1, 0.245412
350, 1, wb, attraction, a-b-db, 2, 1, 3, 7, 60, 135, 135, 60, 59, 134, 2, 1.43327
350, 1, wb, attraction, a-b-db, 2, 1, 3, 7, 60, 135, 135, 60, 59, 134, 3, 0.278778
350, 1, wb, attraction, a-b-db, 2, 3, 3, 8, 195, 120, 119, 193, 120, 195, 1, 2.48147
350, 1, wb, attraction, a-b-db, 2, 3, 3, 8, 195, 120, 119, 193, 120, 195, 2, 0.332574
350, 1, wb, attraction, a-b-db, 14, 2, 3, 9, 165, 90, 90, 165, 83, 153, 3, 3.66912
350, 1, wb, attraction, a-b-db, 14, 2, 3, 9, 165, 90, 90, 165, 83, 153, 1, 0.816577
350, 1, wb, attraction, a-b-db, 5, 2, 3, 10, 90, 165, 165, 90, 88, 161, 1, 2.50155
350, 1, wb, attraction, a-b-db, 5, 2, 3, 10, 90, 165, 165, 90, 88, 161, 3, 0.672073
350, 1, wb, attraction, a-b-da, 2, 3, 3, 11, 195, 120, 193, 119, 120, 195, 2, 2.92311
350, 1, wb, attraction, a-b-da, 2, 3, 3, 11, 195, 120, 193, 119, 120, 195, 3, 0.508325
350, 1, wb, filler, NA, 999, 999, 3, 12, 88, 183, 151, 141, 168, 57, 3, 1.34929
350, 1, wb, filler, NA, 999, 999, 3, 12, 88, 183, 151, 141, 168, 57, 2, 0.334291
350, 1, wb, attraction, a-b-db, 9, 3, 3, 13, 120, 195, 114, 186, 195, 120, 2, 2.31072
350, 1, wb, attraction, a-b-db, 9, 3, 3, 13, 120, 195, 114, 186, 195, 120, 3, 0.296735
350, 1, wb, attraction, a-b-db, 9, 1, 3, 14, 135, 60, 57, 129, 60, 135, 2, 2.04253
350, 1, wb, attraction, a-b-db, 9, 1, 3, 14, 135, 60, 57, 129, 60, 135, 1, 1.51914
350, 1, wb, catch, NA, 999, 999, 3, 15, 98, 97, 166, 149, 146, 109, 1, 0.823957
350, 1, wb, catch, NA, 999, 999, 3, 15, 98, 97, 166, 149, 146, 109, 2, 0.389657
350, 1, wb, attraction, a-b-db, 14, 1, 3, 16, 56, 125, 60, 135, 135, 60, 3, 2.22809
350, 1, wb, attraction, a-b-db, 14, 1, 3, 16, 56, 125, 60, 135, 135, 60, 1, 0.281491
350, 1, wb, attraction, a-b-da, 14, 2, 3, 17, 165, 90, 153, 83, 90, 165, 2, 1.07595
350, 1, wb, attraction, a-b-da, 14, 2, 3, 17, 165, 90, 153, 83, 90, 165, 3, 0.231601
350, 1, wb, filler, NA, 999, 999, 3, 18, 194, 99, 65, 83, 85, 173, 2, 0.644017
350, 1, wb, filler, NA, 999, 999, 3, 18, 194, 99, 65, 83, 85, 173, 1, 0.241295
350, 1, wb, attraction, a-b-da, 2, 2, 3, 19, 163, 89, 165, 90, 90, 165, 1, 1.33323
350, 1, wb, attraction, a-b-da, 2, 2, 3, 19, 163, 89, 165, 90, 90, 165, 3, 0.94261
350, 1, wb, attraction, a-b-da, 5, 3, 3, 20, 195, 120, 120, 195, 190, 117, 1, 1.75825
350, 1, wb, attraction, a-b-da, 5, 3, 3, 20, 195, 120, 120, 195, 190, 117, 2, 1.58244
350, 1, wb, attraction, a-b-db, 5, 1, 3, 21, 60, 135, 58, 132, 135, 60, 1, 1.29244
350, 1, wb, attraction, a-b-db, 5, 1, 3, 21, 60, 135, 58, 132, 135, 60, 3, 0.559384
350, 1, wb, attraction, a-b-da, 14, 1, 3, 22, 60, 135, 135, 60, 125, 56, 3, 1.91853
350, 1, wb, attraction, a-b-da, 14, 1, 3, 22, 60, 135, 135, 60, 125, 56, 1, 0.280535
350, 1, wb, filler, NA, 999, 999, 3, 23, 126, 90, 129, 192, 118, 96, 1, 0.931047
350, 1, wb, filler, NA, 999, 999, 3, 23, 126, 90, 129, 192, 118, 96, 2, 0.340784
350, 1, wb, attraction, a-b-da, 5, 1, 3, 24, 60, 135, 132, 58, 135, 60, 2, 0.908656
350, 1, wb, attraction, a-b-da, 5, 1, 3, 24, 60, 135, 132, 58, 135, 60, 1, 0.351089
350, 1, wb, filler, NA, 999, 999, 3, 25, 162, 119, 179, 164, 104, 168, 3, 0.99879
350, 1, wb, filler, NA, 999, 999, 3, 25, 162, 119, 179, 164, 104, 168, 2, 0.277791
350, 1, wb, attraction, a-b-da, 5, 2, 3, 26, 165, 90, 161, 88, 90, 165, 1, 0.688476
350, 1, wb, attraction, a-b-da, 5, 2, 3, 26, 165, 90, 161, 88, 90, 165, 3, 0.299372
350, 1, wb, filler, NA, 999, 999, 3, 27, 61, 116, 102, 160, 194, 58, 1, 0.621222
350, 1, wb, filler, NA, 999, 999, 3, 27, 61, 116, 102, 160, 194, 58, 2, 0.547712
350, 1, wb, filler, NA, 999, 999, 3, 28, 98, 153, 169, 73, 100, 101, 3, 0.963417
350, 1, wb, filler, NA, 999, 999, 3, 28, 98, 153, 169, 73, 100, 101, 1, 0.347879
350, 1, wb, filler, NA, 999, 999, 3, 29, 64, 84, 112, 148, 69, 155, 1, 0.65969
350, 1, wb, filler, NA, 999, 999, 3, 29, 64, 84, 112, 148, 69, 155, 2, 0.407976
350, 1, wb, attraction, a-b-da, 14, 3, 3, 30, 120, 195, 195, 120, 181, 111, 1, 1.33312
350, 1, wb, attraction, a-b-da, 14, 3, 3, 30, 120, 195, 195, 120, 181, 111, 2, 0.278701
350, 1, wb, attraction, a-b-db, 9, 2, 3, 31, 86, 157, 165, 90, 90, 165, 2, 1.4573
350, 1, wb, attraction, a-b-db, 9, 2, 3, 31, 86, 157, 165, 90, 90, 165, 3, 0.573485
350, 1, wb, attraction, a-b-db, 14, 3, 3, 32, 111, 181, 120, 195, 195, 120, 1, 1.59595
350, 1, wb, attraction, a-b-db, 14, 3, 3, 32, 111, 181, 120, 195, 195, 120, 2, 0.554776
350, 1, wb, catch, NA, 999, 999, 3, 33, 161, 94, 93, 102, 157, 158, 2, 0.810398
350, 1, wb, catch, NA, 999, 999, 3, 33, 161, 94, 93, 102, 157, 158, 3, 0.376879
350, 1, wb, filler, NA, 999, 999, 3, 34, 63, 193, 120, 164, 73, 112, 3, 0.807278
350, 1, wb, filler, NA, 999, 999, 3, 34, 63, 193, 120, 164, 73, 112, 2, 0.925695
350, 1, wb, attraction, a-b-db, 5, 3, 3, 35, 117, 190, 195, 120, 120, 195, 2, 1.62995
350, 1, wb, attraction, a-b-db, 5, 3, 3, 35, 117, 190, 195, 120, 120, 195, 3, 0.275585
350, 1, wb, filler, NA, 999, 999, 3, 36, 58, 101, 100, 125, 171, 182, 1, 0.997937
350, 1, wb, filler, NA, 999, 999, 3, 36, 58, 101, 100, 125, 171, 182, 3, 0.309018
350, 1, wb, attraction, a-b-da, 9, 1, 3, 37, 129, 57, 135, 60, 60, 135, 2, 1.6142
350, 1, wb, attraction, a-b-da, 9, 1, 3, 37, 129, 57, 135, 60, 60, 135, 1, 0.612221
350, 1, wb, filler, NA, 999, 999, 4, 1, 167, 161, 94, 176, 191, 191, 2, 0.601367
350, 1, wb, filler, NA, 999, 999, 4, 1, 167, 161, 94, 176, 191, 191, 3, 0.2726
350, 1, wb, filler, NA, 999, 999, 4, 2, 181, 147, 141, 93, 90, 100, 3, 2.54777
350, 1, wb, filler, NA, 999, 999, 4, 2, 181, 147, 141, 93, 90, 100, 1, 0.548219
350, 1, wb, attraction, a-b-db, 5, 3, 4, 3, 120, 195, 195, 120, 117, 190, 2, 1.46005
350, 1, wb, attraction, a-b-db, 5, 3, 4, 3, 120, 195, 195, 120, 117, 190, 1, 0.304182
350, 1, wb, catch, NA, 999, 999, 4, 4, 164, 91, 182, 133, 110, 85, 3, 0.922039
350, 1, wb, catch, NA, 999, 999, 4, 4, 164, 91, 182, 133, 110, 85, 2, 0.435743
350, 1, wb, attraction, a-b-db, 9, 2, 4, 5, 86, 157, 90, 165, 165, 90, 1, 1.35219
350, 1, wb, attraction, a-b-db, 9, 2, 4, 5, 86, 157, 90, 165, 165, 90, 3, 0.713085
350, 1, wb, attraction, a-b-db, 2, 3, 4, 6, 120, 195, 119, 193, 195, 120, 1, 2.57017
350, 1, wb, attraction, a-b-db, 2, 3, 4, 6, 120, 195, 119, 193, 195, 120, 2, 0.970044
350, 1, wb, attraction, a-b-da, 14, 1, 4, 7, 135, 60, 60, 135, 125, 56, 3, 4.33698
350, 1, wb, attraction, a-b-da, 14, 1, 4, 7, 135, 60, 60, 135, 125, 56, 1, 0.433504
350, 1, wb, attraction, a-b-da, 5, 1, 4, 8, 135, 60, 60, 135, 132, 58, 3, 1.06211
350, 1, wb, attraction, a-b-da, 5, 1, 4, 8, 135, 60, 60, 135, 132, 58, 2, 0.258269
350, 1, wb, filler, NA, 999, 999, 4, 9, 101, 85, 109, 142, 91, 122, 1, 0.565499
350, 1, wb, filler, NA, 999, 999, 4, 9, 101, 85, 109, 142, 91, 122, 2, 0.341987
350, 1, wb, attraction, a-b-da, 9, 3, 4, 10, 120, 195, 186, 114, 195, 120, 1, 0.46974
350, 1, wb, attraction, a-b-da, 9, 3, 4, 10, 120, 195, 186, 114, 195, 120, 3, 0.218267
350, 1, wb, filler, NA, 999, 999, 4, 11, 189, 72, 114, 151, 145, 182, 2, 0.919544
350, 1, wb, filler, NA, 999, 999, 4, 11, 189, 72, 114, 151, 145, 182, 3, 0.241875
350, 1, wb, attraction, a-b-db, 14, 2, 4, 12, 83, 153, 90, 165, 165, 90, 2, 1.24575
350, 1, wb, attraction, a-b-db, 14, 2, 4, 12, 83, 153, 90, 165, 165, 90, 1, 0.202583
350, 1, wb, attraction, a-b-db, 5, 1, 4, 13, 135, 60, 58, 132, 60, 135, 2, 0.528657
350, 1, wb, attraction, a-b-db, 5, 1, 4, 13, 135, 60, 58, 132, 60, 135, 3, 0.226386
350, 1, wb, filler, NA, 999, 999, 4, 14, 184, 169, 101, 159, 135, 102, 1, 1.04688
350, 1, wb, filler, NA, 999, 999, 4, 14, 184, 169, 101, 159, 135, 102, 2, 1.34783
350, 1, wb, attraction, a-b-da, 9, 2, 4, 15, 90, 165, 157, 86, 165, 90, 1, 1.47531
350, 1, wb, attraction, a-b-da, 9, 2, 4, 15, 90, 165, 157, 86, 165, 90, 3, 0.318879
350, 1, wb, filler, NA, 999, 999, 4, 16, 87, 129, 145, 164, 192, 56, 1, 0.624036
350, 1, wb, filler, NA, 999, 999, 4, 16, 87, 129, 145, 164, 192, 56, 2, 0.573832
350, 1, wb, filler, NA, 999, 999, 4, 17, 60, 101, 130, 126, 139, 108, 1, 0.692311
350, 1, wb, filler, NA, 999, 999, 4, 17, 60, 101, 130, 126, 139, 108, 2, 0.807354
350, 1, wb, attraction, a-b-db, 2, 1, 4, 18, 135, 60, 60, 135, 59, 134, 2, 1.23631
350, 1, wb, attraction, a-b-db, 2, 1, 4, 18, 135, 60, 60, 135, 59, 134, 3, 0.330055
350, 1, wb, filler, NA, 999, 999, 4, 19, 69, 162, 97, 160, 118, 147, 1, 0.626475
350, 1, wb, filler, NA, 999, 999, 4, 19, 69, 162, 97, 160, 118, 147, 2, 0.69638
350, 1, wb, attraction, a-b-da, 14, 3, 4, 20, 181, 111, 120, 195, 195, 120, 1, 0.858137
350, 1, wb, attraction, a-b-da, 14, 3, 4, 20, 181, 111, 120, 195, 195, 120, 2, 0.958297
350, 1, wb, catch, NA, 999, 999, 4, 21, 186, 129, 131, 64, 156, 99, 2, 0.709257
350, 1, wb, catch, NA, 999, 999, 4, 21, 186, 129, 131, 64, 156, 99, 1, 0.29569
350, 1, wb, attraction, a-b-db, 14, 1, 4, 22, 60, 135, 135, 60, 56, 125, 2, 0.777534
350, 1, wb, attraction, a-b-db, 14, 1, 4, 22, 60, 135, 135, 60, 56, 125, 1, 1.1454
350, 1, wb, attraction, a-b-da, 5, 3, 4, 23, 195, 120, 120, 195, 190, 117, 3, 1.37704
350, 1, wb, attraction, a-b-da, 5, 3, 4, 23, 195, 120, 120, 195, 190, 117, 2, 0.27251
350, 1, wb, attraction, a-b-da, 14, 2, 4, 24, 165, 90, 90, 165, 153, 83, 3, 2.04366
350, 1, wb, attraction, a-b-da, 14, 2, 4, 24, 165, 90, 90, 165, 153, 83, 2, 0.872241
350, 1, wb, filler, NA, 999, 999, 4, 25, 130, 96, 106, 96, 161, 165, 2, 1.02739
350, 1, wb, filler, NA, 999, 999, 4, 25, 130, 96, 106, 96, 161, 165, 3, 0.257035
350, 1, wb, attraction, a-b-da, 2, 2, 4, 26, 165, 90, 163, 89, 90, 165, 2, 8.81211
350, 1, wb, attraction, a-b-da, 2, 2, 4, 26, 165, 90, 163, 89, 90, 165, 1, 0.656036
350, 1, wb, catch, NA, 999, 999, 4, 27, 165, 150, 104, 91, 147, 108, 2, 0.547858
350, 1, wb, catch, NA, 999, 999, 4, 27, 165, 150, 104, 91, 147, 108, 1, 0.668858
350, 1, wb, attraction, a-b-db, 14, 3, 4, 28, 111, 181, 195, 120, 120, 195, 2, 0.599958
350, 1, wb, attraction, a-b-db, 14, 3, 4, 28, 111, 181, 195, 120, 120, 195, 3, 0.223248
350, 1, wb, attraction, a-b-da, 5, 2, 4, 29, 165, 90, 161, 88, 90, 165, 2, 1.12366
350, 1, wb, attraction, a-b-da, 5, 2, 4, 29, 165, 90, 161, 88, 90, 165, 1, 0.229197
350, 1, wb, attraction, a-b-db, 9, 1, 4, 30, 135, 60, 60, 135, 57, 129, 3, 2.07384
350, 1, wb, attraction, a-b-db, 9, 1, 4, 30, 135, 60, 60, 135, 57, 129, 1, 2.1011
350, 1, wb, attraction, a-b-da, 2, 3, 4, 31, 120, 195, 195, 120, 193, 119, 2, 2.39837
350, 1, wb, attraction, a-b-da, 2, 3, 4, 31, 120, 195, 195, 120, 193, 119, 1, 0.244865
350, 1, wb, attraction, a-b-db, 5, 2, 4, 32, 88, 161, 90, 165, 165, 90, 3, 1.78481
350, 1, wb, attraction, a-b-db, 5, 2, 4, 32, 88, 161, 90, 165, 165, 90, 1, 0.80032
350, 1, wb, attraction, a-b-db, 2, 2, 4, 33, 89, 163, 90, 165, 165, 90, 2, 4.27791
350, 1, wb, attraction, a-b-db, 2, 2, 4, 33, 89, 163, 90, 165, 165, 90, 1, 0.720845
350, 1, wb, attraction, a-b-db, 9, 3, 4, 34, 114, 186, 195, 120, 120, 195, 1, 1.00976
350, 1, wb, attraction, a-b-db, 9, 3, 4, 34, 114, 186, 195, 120, 120, 195, 3, 0.735919
350, 1, wb, filler, NA, 999, 999, 4, 35, 93, 93, 162, 64, 178, 123, 2, 1.05626
350, 1, wb, filler, NA, 999, 999, 4, 35, 93, 93, 162, 64, 178, 123, 3, 0.484591
350, 1, wb, attraction, a-b-da, 9, 1, 4, 36, 129, 57, 60, 135, 135, 60, 1, 0.566988
350, 1, wb, attraction, a-b-da, 9, 1, 4, 36, 129, 57, 60, 135, 135, 60, 2, 0.271496
350, 1, wb, attraction, a-b-da, 2, 1, 4, 37, 134, 59, 60, 135, 135, 60, 2, 1.11468
350, 1, wb, attraction, a-b-da, 2, 1, 4, 37, 134, 59, 60, 135, 135, 60, 1, 0.325209
350, 1, wb, attraction, a-b-da, 2, 1, 5, 1, 135, 60, 134, 59, 60, 135, 2, 8.03611
350, 1, wb, attraction, a-b-da, 2, 1, 5, 1, 135, 60, 134, 59, 60, 135, 1, 0.583631
350, 1, wb, attraction, a-b-da, 9, 2, 5, 2, 90, 165, 165, 90, 157, 86, 3, 2.94204
350, 1, wb, attraction, a-b-da, 9, 2, 5, 2, 90, 165, 165, 90, 157, 86, 1, 0.422409
350, 1, wb, attraction, a-b-db, 14, 3, 5, 3, 120, 195, 195, 120, 111, 181, 3, 0.947774
350, 1, wb, attraction, a-b-db, 14, 3, 5, 3, 120, 195, 195, 120, 111, 181, 1, 0.59668
350, 1, wb, attraction, a-b-da, 2, 2, 5, 4, 165, 90, 163, 89, 90, 165, 2, 0.490398
350, 1, wb, attraction, a-b-da, 2, 2, 5, 4, 165, 90, 163, 89, 90, 165, 3, 0.533564
350, 1, wb, attraction, a-b-db, 9, 3, 5, 5, 114, 186, 120, 195, 195, 120, 3, 0.845962
350, 1, wb, attraction, a-b-db, 9, 3, 5, 5, 114, 186, 120, 195, 195, 120, 1, 0.443035
350, 1, wb, attraction, a-b-da, 9, 3, 5, 6, 195, 120, 120, 195, 186, 114, 1, 1.0628
350, 1, wb, attraction, a-b-da, 9, 3, 5, 6, 195, 120, 120, 195, 186, 114, 2, 0.331106
350, 1, wb, filler, NA, 999, 999, 5, 7, 76, 65, 104, 65, 152, 101, 1, 0.499583
350, 1, wb, filler, NA, 999, 999, 5, 7, 76, 65, 104, 65, 152, 101, 3, 0.49479
350, 1, wb, attraction, a-b-db, 14, 1, 5, 8, 60, 135, 56, 125, 135, 60, 1, 1.17662
350, 1, wb, attraction, a-b-db, 14, 1, 5, 8, 60, 135, 56, 125, 135, 60, 2, 0.776183
350, 1, wb, attraction, a-b-db, 5, 2, 5, 9, 165, 90, 88, 161, 90, 165, 3, 1.35857
350, 1, wb, attraction, a-b-db, 5, 2, 5, 9, 165, 90, 88, 161, 90, 165, 1, 0.255223
350, 1, wb, filler, NA, 999, 999, 5, 10, 158, 152, 86, 91, 166, 75, 2, 0.650714
350, 1, wb, filler, NA, 999, 999, 5, 10, 158, 152, 86, 91, 166, 75, 1, 0.215709
350, 1, wb, filler, NA, 999, 999, 5, 11, 153, 122, 157, 127, 77, 135, 3, 0.77304
350, 1, wb, filler, NA, 999, 999, 5, 11, 153, 122, 157, 127, 77, 135, 2, 0.580733
350, 1, wb, attraction, a-b-db, 2, 1, 5, 12, 60, 135, 59, 134, 135, 60, 2, 1.93909
350, 1, wb, attraction, a-b-db, 2, 1, 5, 12, 60, 135, 59, 134, 135, 60, 1, 1.26779
350, 1, wb, filler, NA, 999, 999, 5, 13, 85, 150, 160, 160, 125, 89, 3, 2.39077
350, 1, wb, filler, NA, 999, 999, 5, 13, 85, 150, 160, 160, 125, 89, 2, 0.277285
350, 1, wb, filler, NA, 999, 999, 5, 14, 58, 149, 66, 94, 61, 93, 3, 0.943828
350, 1, wb, filler, NA, 999, 999, 5, 14, 58, 149, 66, 94, 61, 93, 1, 1.59273
350, 1, wb, catch, NA, 999, 999, 5, 15, 156, 159, 76, 119, 134, 121, 2, 0.782209
350, 1, wb, catch, NA, 999, 999, 5, 15, 156, 159, 76, 119, 134, 121, 1, 0.269849
350, 1, wb, attraction, a-b-db, 2, 3, 5, 16, 195, 120, 120, 195, 119, 193, 3, 1.21705
350, 1, wb, attraction, a-b-db, 2, 3, 5, 16, 195, 120, 120, 195, 119, 193, 2, 0.53554
350, 1, wb, filler, NA, 999, 999, 5, 17, 112, 105, 108, 168, 193, 80, 1, 0.687729
350, 1, wb, filler, NA, 999, 999, 5, 17, 112, 105, 108, 168, 193, 80, 2, 0.338803
350, 1, wb, attraction, a-b-da, 14, 1, 5, 18, 125, 56, 135, 60, 60, 135, 1, 1.0274
350, 1, wb, attraction, a-b-da, 14, 1, 5, 18, 125, 56, 135, 60, 60, 135, 2, 0.328979
350, 1, wb, filler, NA, 999, 999, 5, 19, 128, 98, 71, 136, 92, 158, 2, 1.66556
350, 1, wb, filler, NA, 999, 999, 5, 19, 128, 98, 71, 136, 92, 158, 3, 0.517667
350, 1, wb, filler, NA, 999, 999, 5, 20, 192, 85, 68, 153, 153, 110, 2, 1.39077
350, 1, wb, filler, NA, 999, 999, 5, 20, 192, 85, 68, 153, 153, 110, 3, 0.901679
350, 1, wb, attraction, a-b-db, 5, 1, 5, 21, 135, 60, 58, 132, 60, 135, 2, 1.55133
350, 1, wb, attraction, a-b-db, 5, 1, 5, 21, 135, 60, 58, 132, 60, 135, 1, 0.576144
350, 1, wb, attraction, a-b-db, 5, 3, 5, 22, 195, 120, 120, 195, 117, 190, 1, 5.24669
350, 1, wb, attraction, a-b-db, 5, 3, 5, 22, 195, 120, 120, 195, 117, 190, 3, 1.27426
350, 1, wb, attraction, a-b-da, 14, 2, 5, 23, 153, 83, 165, 90, 90, 165, 1, 1.78842
350, 1, wb, attraction, a-b-da, 14, 2, 5, 23, 153, 83, 165, 90, 90, 165, 3, 0.739177
350, 1, wb, attraction, a-b-da, 5, 3, 5, 24, 190, 117, 195, 120, 120, 195, 1, 1.37953
350, 1, wb, attraction, a-b-da, 5, 3, 5, 24, 190, 117, 195, 120, 120, 195, 3, 1.04321
350, 1, wb, attraction, a-b-da, 5, 2, 5, 25, 161, 88, 165, 90, 90, 165, 1, 0.902709
350, 1, wb, attraction, a-b-da, 5, 2, 5, 25, 161, 88, 165, 90, 90, 165, 3, 0.321742
350, 1, wb, attraction, a-b-da, 14, 3, 5, 26, 181, 111, 120, 195, 195, 120, 2, 1.57093
350, 1, wb, attraction, a-b-da, 14, 3, 5, 26, 181, 111, 120, 195, 195, 120, 1, 0.28303
350, 1, wb, attraction, a-b-da, 9, 1, 5, 27, 129, 57, 60, 135, 135, 60, 1, 2.22955
350, 1, wb, attraction, a-b-da, 9, 1, 5, 27, 129, 57, 60, 135, 135, 60, 3, 1.65093
350, 1, wb, filler, NA, 999, 999, 5, 28, 96, 129, 118, 88, 96, 106, 3, 1.11835
350, 1, wb, filler, NA, 999, 999, 5, 28, 96, 129, 118, 88, 96, 106, 1, 1.38464
350, 1, wb, attraction, a-b-db, 14, 2, 5, 29, 165, 90, 90, 165, 83, 153, 3, 4.02278
350, 1, wb, attraction, a-b-db, 14, 2, 5, 29, 165, 90, 90, 165, 83, 153, 1, 1.90748
350, 1, wb, attraction, a-b-db, 9, 1, 5, 30, 135, 60, 60, 135, 57, 129, 2, 1.02828
350, 1, wb, attraction, a-b-db, 9, 1, 5, 30, 135, 60, 60, 135, 57, 129, 1, 0.441778
350, 1, wb, catch, NA, 999, 999, 5, 31, 153, 102, 181, 134, 77, 118, 3, 0.589585
350, 1, wb, catch, NA, 999, 999, 5, 31, 153, 102, 181, 134, 77, 118, 2, 0.300709
350, 1, wb, attraction, a-b-da, 5, 1, 5, 32, 132, 58, 135, 60, 60, 135, 3, 1.40659
350, 1, wb, attraction, a-b-da, 5, 1, 5, 32, 132, 58, 135, 60, 60, 135, 1, 0.620793
350, 1, wb, attraction, a-b-db, 2, 2, 5, 33, 165, 90, 89, 163, 90, 165, 3, 1.8179
350, 1, wb, attraction, a-b-db, 2, 2, 5, 33, 165, 90, 89, 163, 90, 165, 2, 1.08793
350, 1, wb, attraction, a-b-db, 9, 2, 5, 34, 90, 165, 86, 157, 165, 90, 2, 1.37017
350, 1, wb, attraction, a-b-db, 9, 2, 5, 34, 90, 165, 86, 157, 165, 90, 1, 0.258419
350, 1, wb, attraction, a-b-da, 2, 3, 5, 35, 195, 120, 120, 195, 193, 119, 1, 1.17364
350, 1, wb, attraction, a-b-da, 2, 3, 5, 35, 195, 120, 120, 195, 193, 119, 3, 0.429218
350, 1, wb, catch, NA, 999, 999, 5, 36, 64, 131, 110, 145, 193, 122, 1, 0.60966
350, 1, wb, catch, NA, 999, 999, 5, 36, 64, 131, 110, 145, 193, 122, 3, 0.408177
350, 1, wb, filler, NA, 999, 999, 5, 37, 161, 118, 190, 89, 108, 148, 2, 1.38921
350, 1, wb, filler, NA, 999, 999, 5, 37, 161, 118, 190, 89, 108, 148, 1, 0.70016
350, 1, wb, attraction, a-b-db, 5, 1, 6, 1, 58, 132, 135, 60, 60, 135, 2, 2.14193
350, 1, wb, attraction, a-b-db, 5, 1, 6, 1, 58, 132, 135, 60, 60, 135, 1, 0.31853
350, 1, wb, attraction, a-b-da, 14, 2, 6, 2, 153, 83, 165, 90, 90, 165, 1, 2.79975
350, 1, wb, attraction, a-b-da, 14, 2, 6, 2, 153, 83, 165, 90, 90, 165, 3, 0.350103
350, 1, wb, filler, NA, 999, 999, 6, 3, 126, 111, 129, 117, 67, 175, 2, 1.49396
350, 1, wb, filler, NA, 999, 999, 6, 3, 126, 111, 129, 117, 67, 175, 1, 0.816776
350, 1, wb, attraction, a-b-da, 2, 1, 6, 4, 60, 135, 135, 60, 134, 59, 3, 3.84586
350, 1, wb, attraction, a-b-da, 2, 1, 6, 4, 60, 135, 135, 60, 134, 59, 1, 0.633869
350, 1, wb, attraction, a-b-da, 5, 3, 6, 5, 190, 117, 120, 195, 195, 120, 1, 2.83035
350, 1, wb, attraction, a-b-da, 5, 3, 6, 5, 190, 117, 120, 195, 195, 120, 2, 0.771518
350, 1, wb, attraction, a-b-db, 2, 2, 6, 6, 90, 165, 165, 90, 89, 163, 2, 2.03439
350, 1, wb, attraction, a-b-db, 2, 2, 6, 6, 90, 165, 165, 90, 89, 163, 1, 0.895731
350, 1, wb, filler, NA, 999, 999, 6, 7, 134, 168, 85, 108, 84, 61, 3, 1.52146
350, 1, wb, filler, NA, 999, 999, 6, 7, 134, 168, 85, 108, 84, 61, 1, 0.458912
350, 1, wb, attraction, a-b-db, 14, 3, 6, 8, 120, 195, 195, 120, 111, 181, 3, 4.0381
350, 1, wb, attraction, a-b-db, 14, 3, 6, 8, 120, 195, 195, 120, 111, 181, 2, 0.298759
350, 1, wb, attraction, a-b-da, 14, 1, 6, 9, 60, 135, 125, 56, 135, 60, 2, 0.948557
350, 1, wb, attraction, a-b-da, 14, 1, 6, 9, 60, 135, 125, 56, 135, 60, 1, 0.245711
350, 1, wb, attraction, a-b-da, 9, 3, 6, 10, 186, 114, 195, 120, 120, 195, 1, 0.793502
350, 1, wb, attraction, a-b-da, 9, 3, 6, 10, 186, 114, 195, 120, 120, 195, 3, 0.480688
350, 1, wb, attraction, a-b-db, 14, 1, 6, 11, 60, 135, 135, 60, 56, 125, 3, 1.21902
350, 1, wb, attraction, a-b-db, 14, 1, 6, 11, 60, 135, 135, 60, 56, 125, 1, 0.281347
350, 1, wb, catch, NA, 999, 999, 6, 12, 124, 131, 121, 194, 73, 122, 3, 0.731819
350, 1, wb, catch, NA, 999, 999, 6, 12, 124, 131, 121, 194, 73, 122, 2, 0.557565
350, 1, wb, filler, NA, 999, 999, 6, 13, 58, 114, 174, 83, 147, 139, 1, 0.772668
350, 1, wb, filler, NA, 999, 999, 6, 13, 58, 114, 174, 83, 147, 139, 3, 0.580357
350, 1, wb, attraction, a-b-db, 9, 2, 6, 14, 165, 90, 90, 165, 86, 157, 1, 1.39478
350, 1, wb, attraction, a-b-db, 9, 2, 6, 14, 165, 90, 90, 165, 86, 157, 2, 0.305751
350, 1, wb, attraction, a-b-db, 5, 2, 6, 15, 90, 165, 165, 90, 88, 161, 3, 0.939571
350, 1, wb, attraction, a-b-db, 5, 2, 6, 15, 90, 165, 165, 90, 88, 161, 1, 0.598732
350, 1, wb, attraction, a-b-da, 5, 2, 6, 16, 165, 90, 90, 165, 161, 88, 2, 1.11428
350, 1, wb, attraction, a-b-da, 5, 2, 6, 16, 165, 90, 90, 165, 161, 88, 1, 0.276523
350, 1, wb, filler, NA, 999, 999, 6, 17, 168, 89, 131, 124, 111, 150, 1, 1.45519
350, 1, wb, filler, NA, 999, 999, 6, 17, 168, 89, 131, 124, 111, 150, 3, 0.707298
350, 1, wb, filler, NA, 999, 999, 6, 18, 147, 181, 113, 113, 60, 102, 3, 0.708346
350, 1, wb, filler, NA, 999, 999, 6, 18, 147, 181, 113, 113, 60, 102, 1, 0.278753
350, 1, wb, attraction, a-b-db, 5, 3, 6, 19, 195, 120, 120, 195, 117, 190, 1, 0.737314
350, 1, wb, attraction, a-b-db, 5, 3, 6, 19, 195, 120, 120, 195, 117, 190, 3, 0.323101
350, 1, wb, attraction, a-b-da, 9, 2, 6, 20, 90, 165, 165, 90, 157, 86, 3, 0.79622
350, 1, wb, attraction, a-b-da, 9, 2, 6, 20, 90, 165, 165, 90, 157, 86, 1, 0.443327
350, 1, wb, attraction, a-b-da, 2, 3, 6, 21, 193, 119, 195, 120, 120, 195, 1, 0.671052
350, 1, wb, attraction, a-b-da, 2, 3, 6, 21, 193, 119, 195, 120, 120, 195, 3, 0.379605
350, 1, wb, attraction, a-b-db, 2, 3, 6, 22, 120, 195, 195, 120, 119, 193, 2, 0.69013
350, 1, wb, attraction, a-b-db, 2, 3, 6, 22, 120, 195, 195, 120, 119, 193, 1, 0.237164
350, 1, wb, attraction, a-b-da, 2, 2, 6, 23, 90, 165, 165, 90, 163, 89, 1, 1.60168
350, 1, wb, attraction, a-b-da, 2, 2, 6, 23, 90, 165, 165, 90, 163, 89, 3, 1.03247
350, 1, wb, catch, NA, 999, 999, 6, 24, 193, 122, 61, 134, 96, 159, 2, 0.716751
350, 1, wb, catch, NA, 999, 999, 6, 24, 193, 122, 61, 134, 96, 159, 1, 0.231059
350, 1, wb, attraction, a-b-db, 9, 1, 6, 25, 135, 60, 60, 135, 57, 129, 3, 1.14769
350, 1, wb, attraction, a-b-db, 9, 1, 6, 25, 135, 60, 60, 135, 57, 129, 1, 0.62055
350, 1, wb, catch, NA, 999, 999, 6, 26, 103, 92, 158, 157, 118, 137, 1, 0.561633
350, 1, wb, catch, NA, 999, 999, 6, 26, 103, 92, 158, 157, 118, 137, 2, 0.338115
350, 1, wb, filler, NA, 999, 999, 6, 27, 67, 174, 61, 100, 189, 115, 2, 0.890669
350, 1, wb, filler, NA, 999, 999, 6, 27, 67, 174, 61, 100, 189, 115, 3, 0.549611
350, 1, wb, attraction, a-b-db, 14, 2, 6, 28, 90, 165, 83, 153, 165, 90, 2, 3.02945
350, 1, wb, attraction, a-b-db, 14, 2, 6, 28, 90, 165, 83, 153, 165, 90, 1, 0.434504
350, 1, wb, attraction, a-b-db, 9, 3, 6, 29, 114, 186, 120, 195, 195, 120, 1, 2.23094
350, 1, wb, attraction, a-b-db, 9, 3, 6, 29, 114, 186, 120, 195, 195, 120, 3, 0.340195
350, 1, wb, filler, NA, 999, 999, 6, 30, 61, 123, 127, 193, 174, 140, 1, 0.54804
350, 1, wb, filler, NA, 999, 999, 6, 30, 61, 123, 127, 193, 174, 140, 2, 0.365134
350, 1, wb, attraction, a-b-db, 2, 1, 6, 31, 60, 135, 59, 134, 135, 60, 3, 3.43639
350, 1, wb, attraction, a-b-db, 2, 1, 6, 31, 60, 135, 59, 134, 135, 60, 1, 0.985278
350, 1, wb, filler, NA, 999, 999, 6, 32, 90, 70, 138, 71, 95, 155, 1, 0.77563
350, 1, wb, filler, NA, 999, 999, 6, 32, 90, 70, 138, 71, 95, 155, 3, 0.487238
350, 1, wb, filler, NA, 999, 999, 6, 33, 125, 138, 65, 95, 146, 176, 2, 0.697806
350, 1, wb, filler, NA, 999, 999, 6, 33, 125, 138, 65, 95, 146, 176, 3, 0.508864
350, 1, wb, attraction, a-b-da, 14, 3, 6, 34, 195, 120, 181, 111, 120, 195, 3, 2.02994
350, 1, wb, attraction, a-b-da, 14, 3, 6, 34, 195, 120, 181, 111, 120, 195, 1, 0.51534
350, 1, wb, filler, NA, 999, 999, 6, 35, 81, 136, 174, 132, 107, 77, 3, 0.996494
350, 1, wb, filler, NA, 999, 999, 6, 35, 81, 136, 174, 132, 107, 77, 2, 1.04344
350, 1, wb, attraction, a-b-da, 9, 1, 6, 36, 135, 60, 60, 135, 129, 57, 3, 1.79104
350, 1, wb, attraction, a-b-da, 9, 1, 6, 36, 135, 60, 60, 135, 129, 57, 2, 0.389844
350, 1, wb, attraction, a-b-da, 5, 1, 6, 37, 132, 58, 135, 60, 60, 135, 3, 2.00368
350, 1, wb, attraction, a-b-da, 5, 1, 6, 37, 132, 58, 135, 60, 60, 135, 2, 1.03435
350, 1, wb, attraction, a-b-db, 9, 1, 7, 1, 60, 135, 135, 60, 57, 129, 3, 1.78251
350, 1, wb, attraction, a-b-db, 9, 1, 7, 1, 60, 135, 135, 60, 57, 129, 1, 0.557972
350, 1, wb, attraction, a-b-da, 14, 1, 7, 2, 135, 60, 125, 56, 60, 135, 3, 1.01306
350, 1, wb, attraction, a-b-da, 14, 1, 7, 2, 135, 60, 125, 56, 60, 135, 1, 0.267477
350, 1, wb, attraction, a-b-da, 9, 2, 7, 3, 157, 86, 165, 90, 90, 165, 3, 0.942535
350, 1, wb, attraction, a-b-da, 9, 2, 7, 3, 157, 86, 165, 90, 90, 165, 1, 0.623563
350, 1, wb, filler, NA, 999, 999, 7, 4, 62, 101, 168, 181, 189, 100, 1, 0.531912
350, 1, wb, filler, NA, 999, 999, 7, 4, 62, 101, 168, 181, 189, 100, 2, 0.301866
350, 1, wb, attraction, a-b-db, 14, 3, 7, 5, 195, 120, 120, 195, 111, 181, 1, 1.31158
350, 1, wb, attraction, a-b-db, 14, 3, 7, 5, 195, 120, 120, 195, 111, 181, 2, 0.313852
350, 1, wb, filler, NA, 999, 999, 7, 6, 145, 148, 134, 133, 144, 72, 3, 0.579043
350, 1, wb, filler, NA, 999, 999, 7, 6, 145, 148, 134, 133, 144, 72, 2, 0.322886
350, 1, wb, attraction, a-b-da, 5, 2, 7, 7, 165, 90, 90, 165, 161, 88, 1, 1.35621
350, 1, wb, attraction, a-b-da, 5, 2, 7, 7, 165, 90, 90, 165, 161, 88, 2, 0.308222
350, 1, wb, catch, NA, 999, 999, 7, 8, 120, 75, 179, 136, 132, 123, 1, 0.605351
350, 1, wb, catch, NA, 999, 999, 7, 8, 120, 75, 179, 136, 132, 123, 2, 0.37994
350, 1, wb, attraction, a-b-da, 9, 1, 7, 9, 129, 57, 135, 60, 60, 135, 3, 1.46647
350, 1, wb, attraction, a-b-da, 9, 1, 7, 9, 129, 57, 135, 60, 60, 135, 1, 0.774579
350, 1, wb, filler, NA, 999, 999, 7, 10, 81, 59, 58, 179, 106, 113, 1, 1.44504
350, 1, wb, filler, NA, 999, 999, 7, 10, 81, 59, 58, 179, 106, 113, 3, 0.43374
350, 1, wb, filler, NA, 999, 999, 7, 11, 59, 131, 173, 58, 140, 130, 1, 0.806271
350, 1, wb, filler, NA, 999, 999, 7, 11, 59, 131, 173, 58, 140, 130, 3, 0.540786
350, 1, wb, catch, NA, 999, 999, 7, 12, 96, 159, 174, 141, 73, 122, 3, 0.820411
350, 1, wb, catch, NA, 999, 999, 7, 12, 96, 159, 174, 141, 73, 122, 2, 0.610789
350, 1, wb, filler, NA, 999, 999, 7, 13, 90, 116, 119, 194, 123, 80, 1, 0.815833
350, 1, wb, filler, NA, 999, 999, 7, 13, 90, 116, 119, 194, 123, 80, 2, 0.742222
350, 1, wb, attraction, a-b-da, 2, 2, 7, 14, 163, 89, 90, 165, 165, 90, 3, 1.22995
350, 1, wb, attraction, a-b-da, 2, 2, 7, 14, 163, 89, 90, 165, 165, 90, 2, 0.443564
350, 1, wb, attraction, a-b-db, 5, 2, 7, 15, 165, 90, 90, 165, 88, 161, 1, 0.671301
350, 1, wb, attraction, a-b-db, 5, 2, 7, 15, 165, 90, 90, 165, 88, 161, 2, 0.547748
350, 1, wb, attraction, a-b-db, 2, 3, 7, 16, 195, 120, 119, 193, 120, 195, 1, 0.787544
350, 1, wb, attraction, a-b-db, 2, 3, 7, 16, 195, 120, 119, 193, 120, 195, 3, 0.331226
350, 1, wb, attraction, a-b-da, 2, 3, 7, 17, 195, 120, 120, 195, 193, 119, 1, 0.499764
350, 1, wb, attraction, a-b-da, 2, 3, 7, 17, 195, 120, 120, 195, 193, 119, 2, 0.254904
350, 1, wb, filler, NA, 999, 999, 7, 18, 80, 104, 193, 72, 159, 88, 1, 1.04277
350, 1, wb, filler, NA, 999, 999, 7, 18, 80, 104, 193, 72, 159, 88, 3, 0.431794
350, 1, wb, attraction, a-b-db, 2, 1, 7, 19, 60, 135, 59, 134, 135, 60, 1, 0.57215
350, 1, wb, attraction, a-b-db, 2, 1, 7, 19, 60, 135, 59, 134, 135, 60, 3, 0.876033
350, 1, wb, attraction, a-b-da, 14, 2, 7, 20, 90, 165, 165, 90, 153, 83, 3, 1.12643
350, 1, wb, attraction, a-b-da, 14, 2, 7, 20, 90, 165, 165, 90, 153, 83, 1, 0.312063
350, 1, wb, attraction, a-b-da, 2, 1, 7, 21, 135, 60, 134, 59, 60, 135, 1, 0.985322
350, 1, wb, attraction, a-b-da, 2, 1, 7, 21, 135, 60, 134, 59, 60, 135, 2, 0.32088
350, 1, wb, attraction, a-b-da, 5, 1, 7, 22, 135, 60, 132, 58, 60, 135, 1, 0.610049
350, 1, wb, attraction, a-b-da, 5, 1, 7, 22, 135, 60, 132, 58, 60, 135, 2, 0.288503
350, 1, wb, attraction, a-b-da, 5, 3, 7, 23, 190, 117, 120, 195, 195, 120, 2, 0.86698
350, 1, wb, attraction, a-b-da, 5, 3, 7, 23, 190, 117, 120, 195, 195, 120, 1, 0.311441
350, 1, wb, filler, NA, 999, 999, 7, 24, 125, 110, 76, 85, 88, 195, 2, 0.57652
350, 1, wb, filler, NA, 999, 999, 7, 24, 125, 110, 76, 85, 88, 195, 1, 0.264306
350, 1, wb, filler, NA, 999, 999, 7, 25, 125, 62, 67, 113, 145, 110, 2, 0.627425
350, 1, wb, filler, NA, 999, 999, 7, 25, 125, 62, 67, 113, 145, 110, 3, 0.545242
350, 1, wb, attraction, a-b-db, 9, 3, 7, 26, 114, 186, 120, 195, 195, 120, 1, 0.609185
350, 1, wb, attraction, a-b-db, 9, 3, 7, 26, 114, 186, 120, 195, 195, 120, 2, 0.319496
350, 1, wb, attraction, a-b-db, 5, 1, 7, 27, 135, 60, 60, 135, 58, 132, 3, 0.98461
350, 1, wb, attraction, a-b-db, 5, 1, 7, 27, 135, 60, 60, 135, 58, 132, 2, 0.720477
350, 1, wb, attraction, a-b-db, 5, 3, 7, 28, 195, 120, 120, 195, 117, 190, 1, 1.68136
350, 1, wb, attraction, a-b-db, 5, 3, 7, 28, 195, 120, 120, 195, 117, 190, 3, 0.412804
350, 1, wb, attraction, a-b-da, 14, 3, 7, 29, 120, 195, 181, 111, 195, 120, 1, 0.698016
350, 1, wb, attraction, a-b-da, 14, 3, 7, 29, 120, 195, 181, 111, 195, 120, 2, 0.301099
350, 1, wb, attraction, a-b-db, 9, 2, 7, 30, 90, 165, 86, 157, 165, 90, 2, 0.990886
350, 1, wb, attraction, a-b-db, 9, 2, 7, 30, 90, 165, 86, 157, 165, 90, 1, 0.245917
350, 1, wb, filler, NA, 999, 999, 7, 31, 119, 130, 67, 82, 191, 188, 2, 0.601799
350, 1, wb, filler, NA, 999, 999, 7, 31, 119, 130, 67, 82, 191, 188, 3, 0.256933
350, 1, wb, attraction, a-b-db, 14, 2, 7, 32, 83, 153, 90, 165, 165, 90, 1, 0.812147
350, 1, wb, attraction, a-b-db, 14, 2, 7, 32, 83, 153, 90, 165, 165, 90, 2, 0.306483
350, 1, wb, filler, NA, 999, 999, 7, 33, 190, 117, 114, 136, 125, 72, 2, 1.21969
350, 1, wb, filler, NA, 999, 999, 7, 33, 190, 117, 114, 136, 125, 72, 1, 0.321895
350, 1, wb, attraction, a-b-db, 2, 2, 7, 34, 90, 165, 165, 90, 89, 163, 2, 0.611118
350, 1, wb, attraction, a-b-db, 2, 2, 7, 34, 90, 165, 165, 90, 89, 163, 1, 0.257496
350, 1, wb, attraction, a-b-db, 14, 1, 7, 35, 135, 60, 56, 125, 60, 135, 2, 0.508795
350, 1, wb, attraction, a-b-db, 14, 1, 7, 35, 135, 60, 56, 125, 60, 135, 3, 0.271239
350, 1, wb, catch, NA, 999, 999, 7, 36, 103, 92, 145, 110, 191, 124, 1, 0.546574
350, 1, wb, catch, NA, 999, 999, 7, 36, 103, 92, 145, 110, 191, 124, 2, 0.347525
350, 1, wb, attraction, a-b-da, 9, 3, 7, 37, 120, 195, 186, 114, 195, 120, 1, 0.931429
350, 1, wb, attraction, a-b-da, 9, 3, 7, 37, 120, 195, 186, 114, 195, 120, 3, 0.276996
350, 1, wb, filler, NA, 999, 999, 8, 1, 139, 116, 60, 188, 177, 195, 1, 0.599576
350, 1, wb, filler, NA, 999, 999, 8, 1, 139, 116, 60, 188, 177, 195, 3, 0.246677
350, 1, wb, attraction, a-b-db, 14, 3, 8, 2, 120, 195, 111, 181, 195, 120, 2, 0.618646
350, 1, wb, attraction, a-b-db, 14, 3, 8, 2, 120, 195, 111, 181, 195, 120, 1, 0.224967
350, 1, wb, attraction, a-b-da, 14, 3, 8, 3, 195, 120, 120, 195, 181, 111, 2, 0.869615
350, 1, wb, attraction, a-b-da, 14, 3, 8, 3, 195, 120, 120, 195, 181, 111, 3, 0.641881
350, 1, wb, attraction, a-b-db, 2, 1, 8, 4, 135, 60, 60, 135, 59, 134, 1, 0.749624
350, 1, wb, attraction, a-b-db, 2, 1, 8, 4, 135, 60, 60, 135, 59, 134, 2, 0.23069
350, 1, wb, attraction, a-b-da, 14, 2, 8, 5, 90, 165, 165, 90, 153, 83, 2, 1.07538
350, 1, wb, attraction, a-b-da, 14, 2, 8, 5, 90, 165, 165, 90, 153, 83, 1, 0.190934
350, 1, wb, attraction, a-b-db, 14, 2, 8, 6, 165, 90, 90, 165, 83, 153, 3, 1.43675
350, 1, wb, attraction, a-b-db, 14, 2, 8, 6, 165, 90, 90, 165, 83, 153, 2, 0.258301
350, 1, wb, attraction, a-b-da, 2, 1, 8, 7, 60, 135, 135, 60, 134, 59, 1, 1.56541
350, 1, wb, attraction, a-b-da, 2, 1, 8, 7, 60, 135, 135, 60, 134, 59, 3, 0.317678
350, 1, wb, attraction, a-b-da, 5, 2, 8, 8, 165, 90, 161, 88, 90, 165, 2, 1.70284
350, 1, wb, attraction, a-b-da, 5, 2, 8, 8, 165, 90, 161, 88, 90, 165, 1, 0.225762
350, 1, wb, filler, NA, 999, 999, 8, 9, 88, 193, 81, 99, 71, 116, 2, 0.590088
350, 1, wb, filler, NA, 999, 999, 8, 9, 88, 193, 81, 99, 71, 116, 1, 0.557389
350, 1, wb, catch, NA, 999, 999, 8, 10, 154, 161, 134, 121, 123, 72, 2, 0.82029
350, 1, wb, catch, NA, 999, 999, 8, 10, 154, 161, 134, 121, 123, 72, 1, 0.890721
350, 1, wb, filler, NA, 999, 999, 8, 11, 88, 74, 191, 116, 66, 61, 3, 0.884394
350, 1, wb, filler, NA, 999, 999, 8, 11, 88, 74, 191, 116, 66, 61, 2, 0.976113
350, 1, wb, attraction, a-b-db, 2, 3, 8, 12, 195, 120, 120, 195, 119, 193, 2, 3.83037
350, 1, wb, attraction, a-b-db, 2, 3, 8, 12, 195, 120, 120, 195, 119, 193, 1, 0.227087
350, 1, wb, attraction, a-b-da, 14, 1, 8, 13, 125, 56, 135, 60, 60, 135, 2, 1.72779
350, 1, wb, attraction, a-b-da, 14, 1, 8, 13, 125, 56, 135, 60, 60, 135, 3, 0.193135
350, 1, wb, filler, NA, 999, 999, 8, 14, 68, 134, 119, 97, 112, 175, 1, 3.00707
350, 1, wb, filler, NA, 999, 999, 8, 14, 68, 134, 119, 97, 112, 175, 3, 0.604735
350, 1, wb, filler, NA, 999, 999, 8, 15, 163, 186, 92, 129, 150, 137, 2, 0.962466
350, 1, wb, filler, NA, 999, 999, 8, 15, 163, 186, 92, 129, 150, 137, 1, 0.258795
350, 1, wb, attraction, a-b-da, 5, 1, 8, 16, 132, 58, 135, 60, 60, 135, 3, 1.74999
350, 1, wb, attraction, a-b-da, 5, 1, 8, 16, 132, 58, 135, 60, 60, 135, 2, 0.638723
350, 1, wb, attraction, a-b-db, 14, 1, 8, 17, 135, 60, 56, 125, 60, 135, 1, 1.85117
350, 1, wb, attraction, a-b-db, 14, 1, 8, 17, 135, 60, 56, 125, 60, 135, 3, 0.423909
350, 1, wb, catch, NA, 999, 999, 8, 18, 160, 95, 149, 166, 70, 125, 3, 0.892638
350, 1, wb, catch, NA, 999, 999, 8, 18, 160, 95, 149, 166, 70, 125, 2, 0.575502
350, 1, wb, filler, NA, 999, 999, 8, 19, 160, 140, 92, 77, 122, 130, 2, 0.709855
350, 1, wb, filler, NA, 999, 999, 8, 19, 160, 140, 92, 77, 122, 130, 1, 0.808234
350, 1, wb, attraction, a-b-da, 9, 3, 8, 20, 186, 114, 120, 195, 195, 120, 3, 0.95725
350, 1, wb, attraction, a-b-da, 9, 3, 8, 20, 186, 114, 120, 195, 195, 120, 2, 0.245655
350, 1, wb, attraction, a-b-da, 9, 2, 8, 21, 157, 86, 90, 165, 165, 90, 2, 1.78543
350, 1, wb, attraction, a-b-da, 9, 2, 8, 21, 157, 86, 90, 165, 165, 90, 1, 0.544944
350, 1, wb, catch, NA, 999, 999, 8, 22, 117, 78, 134, 121, 160, 155, 2, 0.696685
350, 1, wb, catch, NA, 999, 999, 8, 22, 117, 78, 134, 121, 160, 155, 3, 0.267698
350, 1, wb, attraction, a-b-db, 5, 3, 8, 23, 195, 120, 120, 195, 117, 190, 1, 0.534905
350, 1, wb, attraction, a-b-db, 5, 3, 8, 23, 195, 120, 120, 195, 117, 190, 2, 0.25677
350, 1, wb, attraction, a-b-da, 2, 2, 8, 24, 165, 90, 90, 165, 163, 89, 1, 0.692034
350, 1, wb, attraction, a-b-da, 2, 2, 8, 24, 165, 90, 90, 165, 163, 89, 2, 0.239027
350, 1, wb, filler, NA, 999, 999, 8, 25, 93, 131, 186, 65, 59, 88, 3, 0.907562
350, 1, wb, filler, NA, 999, 999, 8, 25, 93, 131, 186, 65, 59, 88, 1, 0.277909
350, 1, wb, attraction, a-b-db, 9, 3, 8, 26, 195, 120, 114, 186, 120, 195, 1, 0.688429
350, 1, wb, attraction, a-b-db, 9, 3, 8, 26, 195, 120, 114, 186, 120, 195, 3, 0.339548
350, 1, wb, attraction, a-b-da, 9, 1, 8, 27, 60, 135, 135, 60, 129, 57, 1, 0.548019
350, 1, wb, attraction, a-b-da, 9, 1, 8, 27, 60, 135, 135, 60, 129, 57, 3, 0.277154
350, 1, wb, attraction, a-b-db, 2, 2, 8, 28, 165, 90, 89, 163, 90, 165, 2, 0.567656
350, 1, wb, attraction, a-b-db, 2, 2, 8, 28, 165, 90, 89, 163, 90, 165, 1, 0.272101
350, 1, wb, attraction, a-b-db, 5, 1, 8, 29, 58, 132, 135, 60, 60, 135, 1, 1.70732
350, 1, wb, attraction, a-b-db, 5, 1, 8, 29, 58, 132, 135, 60, 60, 135, 3, 0.309421
350, 1, wb, attraction, a-b-db, 9, 1, 8, 30, 57, 129, 60, 135, 135, 60, 1, 0.942713
350, 1, wb, attraction, a-b-db, 9, 1, 8, 30, 57, 129, 60, 135, 135, 60, 3, 0.399666
350, 1, wb, attraction, a-b-da, 5, 3, 8, 31, 190, 117, 120, 195, 195, 120, 1, 0.941485
350, 1, wb, attraction, a-b-da, 5, 3, 8, 31, 190, 117, 120, 195, 195, 120, 2, 0.262497
350, 1, wb, filler, NA, 999, 999, 8, 32, 92, 93, 110, 170, 122, 161, 1, 0.71369
350, 1, wb, filler, NA, 999, 999, 8, 32, 92, 93, 110, 170, 122, 161, 3, 0.340028
350, 1, wb, attraction, a-b-db, 5, 2, 8, 33, 90, 165, 165, 90, 88, 161, 2, 1.316
350, 1, wb, attraction, a-b-db, 5, 2, 8, 33, 90, 165, 165, 90, 88, 161, 1, 0.550123
350, 1, wb, filler, NA, 999, 999, 8, 34, 129, 131, 151, 78, 126, 89, 2, 0.597962
350, 1, wb, filler, NA, 999, 999, 8, 34, 129, 131, 151, 78, 126, 89, 1, 0.677058
350, 1, wb, filler, NA, 999, 999, 8, 35, 112, 111, 148, 191, 136, 133, 1, 0.559537
350, 1, wb, filler, NA, 999, 999, 8, 35, 112, 111, 148, 191, 136, 133, 2, 0.279892
350, 1, wb, attraction, a-b-db, 9, 2, 8, 36, 90, 165, 86, 157, 165, 90, 3, 0.866391
350, 1, wb, attraction, a-b-db, 9, 2, 8, 36, 90, 165, 86, 157, 165, 90, 2, 0.318757
350, 1, wb, attraction, a-b-da, 2, 3, 8, 37, 195, 120, 193, 119, 120, 195, 1, 0.488019
350, 1, wb, attraction, a-b-da, 2, 3, 8, 37, 195, 120, 193, 119, 120, 195, 2, 0.275136
