sub_n, computer_n, bw_cond, effect, set, distance, diag, block_n, trial_n, h1, w1, h2, w2, h3, w3, choice, rt 
305, 1, bw, practice, NA, 999, 999, 0, 1, 123, 191, 175, 81, 148, 159, 3, 11.3908
305, 1, bw, practice, NA, 999, 999, 0, 1, 123, 191, 175, 81, 148, 159, 2, 2.91299
305, 1, bw, practice, NA, 999, 999, 0, 2, 194, 104, 170, 130, 107, 108, 2, 2.18926
305, 1, bw, practice, NA, 999, 999, 0, 2, 194, 104, 170, 130, 107, 108, 3, 2.45357
305, 1, bw, practice, NA, 999, 999, 0, 3, 66, 165, 182, 116, 59, 67, 2, 1.84429
305, 1, bw, practice, NA, 999, 999, 0, 3, 66, 165, 182, 116, 59, 67, 3, 1.28188
305, 1, bw, attraction, a-b-db, 9, 3, 1, 1, 120, 195, 195, 120, 114, 186, 1, 9.26017
305, 1, bw, attraction, a-b-db, 9, 3, 1, 1, 120, 195, 195, 120, 114, 186, 2, 1.82998
305, 1, bw, catch, NA, 999, 999, 1, 2, 83, 112, 131, 124, 133, 182, 3, 1.16188
305, 1, bw, catch, NA, 999, 999, 1, 2, 83, 112, 131, 124, 133, 182, 1, 0.810181
305, 1, bw, attraction, a-b-da, 14, 3, 1, 3, 120, 195, 195, 120, 181, 111, 1, 6.09514
305, 1, bw, attraction, a-b-da, 14, 3, 1, 3, 120, 195, 195, 120, 181, 111, 3, 0.992499
305, 1, bw, filler, NA, 999, 999, 1, 4, 100, 70, 172, 87, 169, 177, 3, 1.18227
305, 1, bw, filler, NA, 999, 999, 1, 4, 100, 70, 172, 87, 169, 177, 1, 0.58186
305, 1, bw, attraction, a-b-db, 5, 1, 1, 5, 58, 132, 60, 135, 135, 60, 2, 1.67622
305, 1, bw, attraction, a-b-db, 5, 1, 1, 5, 58, 132, 60, 135, 135, 60, 3, 0.671632
305, 1, bw, attraction, a-b-da, 2, 2, 1, 6, 90, 165, 163, 89, 165, 90, 1, 4.3227
305, 1, bw, attraction, a-b-da, 2, 2, 1, 6, 90, 165, 163, 89, 165, 90, 2, 5.76339
305, 1, bw, attraction, a-b-db, 2, 3, 1, 7, 119, 193, 195, 120, 120, 195, 3, 12.8409
305, 1, bw, attraction, a-b-db, 2, 3, 1, 7, 119, 193, 195, 120, 120, 195, 2, 1.05074
305, 1, bw, attraction, a-b-db, 5, 3, 1, 8, 120, 195, 117, 190, 195, 120, 2, 9.82236
305, 1, bw, attraction, a-b-db, 5, 3, 1, 8, 120, 195, 117, 190, 195, 120, 3, 1.08201
305, 1, bw, filler, NA, 999, 999, 1, 9, 107, 79, 187, 183, 59, 180, 2, 0.948189
305, 1, bw, filler, NA, 999, 999, 1, 9, 107, 79, 187, 183, 59, 180, 1, 1.33321
305, 1, bw, attraction, a-b-da, 2, 1, 1, 10, 134, 59, 135, 60, 60, 135, 2, 3.30146
305, 1, bw, attraction, a-b-da, 2, 1, 1, 10, 134, 59, 135, 60, 60, 135, 3, 0.831751
305, 1, bw, filler, NA, 999, 999, 1, 11, 174, 128, 144, 184, 104, 183, 2, 2.46023
305, 1, bw, filler, NA, 999, 999, 1, 11, 174, 128, 144, 184, 104, 183, 1, 0.599889
305, 1, bw, attraction, a-b-da, 9, 1, 1, 12, 129, 57, 60, 135, 135, 60, 2, 2.34177
305, 1, bw, attraction, a-b-da, 9, 1, 1, 12, 129, 57, 60, 135, 135, 60, 1, 1.15029
305, 1, bw, attraction, a-b-db, 5, 2, 1, 13, 90, 165, 165, 90, 88, 161, 1, 2.06186
305, 1, bw, attraction, a-b-db, 5, 2, 1, 13, 90, 165, 165, 90, 88, 161, 2, 1.50583
305, 1, bw, attraction, a-b-db, 2, 2, 1, 14, 165, 90, 89, 163, 90, 165, 2, 2.63536
305, 1, bw, attraction, a-b-db, 2, 2, 1, 14, 165, 90, 89, 163, 90, 165, 1, 0.856636
305, 1, bw, filler, NA, 999, 999, 1, 15, 116, 184, 164, 61, 173, 117, 1, 2.10015
305, 1, bw, filler, NA, 999, 999, 1, 15, 116, 184, 164, 61, 173, 117, 2, 0.566831
305, 1, bw, attraction, a-b-da, 14, 1, 1, 16, 135, 60, 60, 135, 125, 56, 2, 1.5978
305, 1, bw, attraction, a-b-da, 14, 1, 1, 16, 135, 60, 60, 135, 125, 56, 3, 0.876773
305, 1, bw, attraction, a-b-da, 5, 1, 1, 17, 132, 58, 135, 60, 60, 135, 2, 3.66306
305, 1, bw, attraction, a-b-da, 5, 1, 1, 17, 132, 58, 135, 60, 60, 135, 1, 1.07454
305, 1, bw, attraction, a-b-da, 5, 2, 1, 18, 90, 165, 161, 88, 165, 90, 1, 0.812764
305, 1, bw, attraction, a-b-da, 5, 2, 1, 18, 90, 165, 161, 88, 165, 90, 3, 1.02726
305, 1, bw, filler, NA, 999, 999, 1, 19, 103, 184, 183, 151, 80, 146, 2, 1.33559
305, 1, bw, filler, NA, 999, 999, 1, 19, 103, 184, 183, 151, 80, 146, 3, 0.913091
305, 1, bw, attraction, a-b-da, 9, 3, 1, 20, 120, 195, 186, 114, 195, 120, 1, 1.09001
305, 1, bw, attraction, a-b-da, 9, 3, 1, 20, 120, 195, 186, 114, 195, 120, 2, 0.42113
305, 1, bw, attraction, a-b-db, 2, 1, 1, 21, 60, 135, 59, 134, 135, 60, 2, 3.01808
305, 1, bw, attraction, a-b-db, 2, 1, 1, 21, 60, 135, 59, 134, 135, 60, 3, 0.711866
305, 1, bw, attraction, a-b-da, 9, 2, 1, 22, 90, 165, 157, 86, 165, 90, 1, 1.98485
305, 1, bw, attraction, a-b-da, 9, 2, 1, 22, 90, 165, 157, 86, 165, 90, 2, 0.720215
305, 1, bw, catch, NA, 999, 999, 1, 23, 106, 89, 156, 99, 183, 132, 3, 1.44924
305, 1, bw, catch, NA, 999, 999, 1, 23, 106, 89, 156, 99, 183, 132, 1, 0.542119
305, 1, bw, attraction, a-b-db, 9, 2, 1, 24, 165, 90, 86, 157, 90, 165, 2, 4.82986
305, 1, bw, attraction, a-b-db, 9, 2, 1, 24, 165, 90, 86, 157, 90, 165, 1, 1.45032
305, 1, bw, attraction, a-b-db, 14, 3, 1, 25, 111, 181, 195, 120, 120, 195, 3, 9.63793
305, 1, bw, attraction, a-b-db, 14, 3, 1, 25, 111, 181, 195, 120, 120, 195, 1, 0.704866
305, 1, bw, filler, NA, 999, 999, 1, 26, 187, 141, 166, 90, 154, 98, 1, 1.24259
305, 1, bw, filler, NA, 999, 999, 1, 26, 187, 141, 166, 90, 154, 98, 2, 0.615493
305, 1, bw, filler, NA, 999, 999, 1, 27, 189, 73, 180, 104, 146, 112, 2, 2.9166
305, 1, bw, filler, NA, 999, 999, 1, 27, 189, 73, 180, 104, 146, 112, 1, 0.646293
305, 1, bw, attraction, a-b-db, 9, 1, 1, 28, 60, 135, 57, 129, 135, 60, 1, 2.45
305, 1, bw, attraction, a-b-db, 9, 1, 1, 28, 60, 135, 57, 129, 135, 60, 3, 1.05461
305, 1, bw, attraction, a-b-da, 2, 3, 1, 29, 195, 120, 120, 195, 193, 119, 2, 1.86616
305, 1, bw, attraction, a-b-da, 2, 3, 1, 29, 195, 120, 120, 195, 193, 119, 3, 0.750205
305, 1, bw, catch, NA, 999, 999, 1, 30, 104, 91, 138, 117, 154, 161, 3, 1.06194
305, 1, bw, catch, NA, 999, 999, 1, 30, 104, 91, 138, 117, 154, 161, 1, 0.858324
305, 1, bw, filler, NA, 999, 999, 1, 31, 137, 88, 99, 187, 168, 101, 2, 1.41326
305, 1, bw, filler, NA, 999, 999, 1, 31, 137, 88, 99, 187, 168, 101, 1, 0.691473
305, 1, bw, filler, NA, 999, 999, 1, 32, 167, 60, 69, 186, 114, 113, 2, 17.3172
305, 1, bw, filler, NA, 999, 999, 1, 32, 167, 60, 69, 186, 114, 113, 1, 0.594497
305, 1, bw, attraction, a-b-db, 14, 2, 1, 33, 83, 153, 90, 165, 165, 90, 2, 1.17622
305, 1, bw, attraction, a-b-db, 14, 2, 1, 33, 83, 153, 90, 165, 165, 90, 1, 3.08776
305, 1, bw, filler, NA, 999, 999, 1, 34, 106, 151, 178, 195, 174, 150, 2, 0.993447
305, 1, bw, filler, NA, 999, 999, 1, 34, 106, 151, 178, 195, 174, 150, 1, 0.640518
305, 1, bw, attraction, a-b-da, 5, 3, 1, 35, 195, 120, 190, 117, 120, 195, 3, 1.54013
305, 1, bw, attraction, a-b-da, 5, 3, 1, 35, 195, 120, 190, 117, 120, 195, 2, 0.676987
305, 1, bw, attraction, a-b-db, 14, 1, 1, 36, 60, 135, 56, 125, 135, 60, 2, 0.983332
305, 1, bw, attraction, a-b-db, 14, 1, 1, 36, 60, 135, 56, 125, 135, 60, 3, 0.83911
305, 1, bw, attraction, a-b-da, 14, 2, 1, 37, 90, 165, 165, 90, 153, 83, 1, 1.24339
305, 1, bw, attraction, a-b-da, 14, 2, 1, 37, 90, 165, 165, 90, 153, 83, 3, 1.11235
305, 1, bw, attraction, a-b-da, 2, 1, 2, 1, 135, 60, 60, 135, 134, 59, 2, 1.07327
305, 1, bw, attraction, a-b-da, 2, 1, 2, 1, 135, 60, 60, 135, 134, 59, 3, 0.732872
305, 1, bw, filler, NA, 999, 999, 2, 2, 98, 162, 144, 172, 172, 85, 2, 0.909365
305, 1, bw, filler, NA, 999, 999, 2, 2, 98, 162, 144, 172, 172, 85, 3, 0.775667
305, 1, bw, attraction, a-b-da, 5, 3, 2, 3, 195, 120, 190, 117, 120, 195, 2, 1.43803
305, 1, bw, attraction, a-b-da, 5, 3, 2, 3, 195, 120, 190, 117, 120, 195, 1, 0.595454
305, 1, bw, attraction, a-b-da, 14, 1, 2, 4, 60, 135, 135, 60, 125, 56, 2, 1.04923
305, 1, bw, attraction, a-b-da, 14, 1, 2, 4, 60, 135, 135, 60, 125, 56, 3, 0.438243
305, 1, bw, attraction, a-b-da, 5, 1, 2, 5, 132, 58, 135, 60, 60, 135, 2, 3.06671
305, 1, bw, attraction, a-b-da, 5, 1, 2, 5, 132, 58, 135, 60, 60, 135, 1, 0.830391
305, 1, bw, attraction, a-b-db, 2, 2, 2, 6, 90, 165, 165, 90, 89, 163, 3, 1.32274
305, 1, bw, attraction, a-b-db, 2, 2, 2, 6, 90, 165, 165, 90, 89, 163, 2, 0.828308
305, 1, bw, attraction, a-b-db, 5, 2, 2, 7, 90, 165, 165, 90, 88, 161, 1, 1.22464
305, 1, bw, attraction, a-b-db, 5, 2, 2, 7, 90, 165, 165, 90, 88, 161, 2, 0.766194
305, 1, bw, filler, NA, 999, 999, 2, 8, 77, 144, 123, 90, 124, 147, 3, 0.925334
305, 1, bw, filler, NA, 999, 999, 2, 8, 77, 144, 123, 90, 124, 147, 2, 0.486972
305, 1, bw, catch, NA, 999, 999, 2, 9, 177, 138, 82, 113, 154, 101, 1, 1.48938
305, 1, bw, catch, NA, 999, 999, 2, 9, 177, 138, 82, 113, 154, 101, 2, 0.684318
305, 1, bw, attraction, a-b-db, 9, 3, 2, 10, 120, 195, 114, 186, 195, 120, 2, 5.50258
305, 1, bw, attraction, a-b-db, 9, 3, 2, 10, 120, 195, 114, 186, 195, 120, 3, 2.30423
305, 1, bw, attraction, a-b-db, 5, 3, 2, 11, 195, 120, 120, 195, 117, 190, 2, 1.67347
305, 1, bw, attraction, a-b-db, 5, 3, 2, 11, 195, 120, 120, 195, 117, 190, 1, 0.844851
305, 1, bw, filler, NA, 999, 999, 2, 12, 161, 164, 184, 91, 91, 191, 1, 1.81662
305, 1, bw, filler, NA, 999, 999, 2, 12, 161, 164, 184, 91, 91, 191, 2, 0.69456
305, 1, bw, filler, NA, 999, 999, 2, 13, 182, 187, 69, 56, 72, 91, 1, 1.04839
305, 1, bw, filler, NA, 999, 999, 2, 13, 182, 187, 69, 56, 72, 91, 2, 0.573494
305, 1, bw, filler, NA, 999, 999, 2, 14, 168, 176, 76, 130, 149, 106, 1, 1.15574
305, 1, bw, filler, NA, 999, 999, 2, 14, 168, 176, 76, 130, 149, 106, 2, 0.564025
305, 1, bw, filler, NA, 999, 999, 2, 15, 124, 82, 81, 109, 141, 134, 3, 0.843094
305, 1, bw, filler, NA, 999, 999, 2, 15, 124, 82, 81, 109, 141, 134, 2, 2.68025
305, 1, bw, attraction, a-b-da, 14, 3, 2, 16, 181, 111, 195, 120, 120, 195, 3, 2.018
305, 1, bw, attraction, a-b-da, 14, 3, 2, 16, 181, 111, 195, 120, 120, 195, 1, 0.863955
305, 1, bw, attraction, a-b-db, 9, 2, 2, 17, 90, 165, 86, 157, 165, 90, 2, 1.12301
305, 1, bw, attraction, a-b-db, 9, 2, 2, 17, 90, 165, 86, 157, 165, 90, 3, 0.508767
305, 1, bw, filler, NA, 999, 999, 2, 18, 187, 170, 75, 145, 83, 77, 1, 0.893808
305, 1, bw, filler, NA, 999, 999, 2, 18, 187, 170, 75, 145, 83, 77, 3, 0.57685
305, 1, bw, attraction, a-b-db, 2, 3, 2, 19, 119, 193, 195, 120, 120, 195, 3, 2.2153
305, 1, bw, attraction, a-b-db, 2, 3, 2, 19, 119, 193, 195, 120, 120, 195, 2, 0.637118
305, 1, bw, attraction, a-b-da, 9, 3, 2, 20, 186, 114, 120, 195, 195, 120, 2, 2.03354
305, 1, bw, attraction, a-b-da, 9, 3, 2, 20, 186, 114, 120, 195, 195, 120, 1, 0.878973
305, 1, bw, catch, NA, 999, 999, 2, 21, 120, 75, 98, 157, 160, 155, 3, 3.37723
305, 1, bw, catch, NA, 999, 999, 2, 21, 120, 75, 98, 157, 160, 155, 1, 0.968135
305, 1, bw, filler, NA, 999, 999, 2, 22, 148, 61, 58, 95, 63, 73, 1, 1.60722
305, 1, bw, filler, NA, 999, 999, 2, 22, 148, 61, 58, 95, 63, 73, 3, 0.797238
305, 1, bw, attraction, a-b-da, 14, 2, 2, 23, 90, 165, 165, 90, 153, 83, 2, 1.22692
305, 1, bw, attraction, a-b-da, 14, 2, 2, 23, 90, 165, 165, 90, 153, 83, 3, 0.672521
305, 1, bw, attraction, a-b-da, 2, 2, 2, 24, 165, 90, 163, 89, 90, 165, 1, 1.11556
305, 1, bw, attraction, a-b-da, 2, 2, 2, 24, 165, 90, 163, 89, 90, 165, 2, 0.661953
305, 1, bw, filler, NA, 999, 999, 2, 25, 95, 190, 143, 168, 186, 115, 2, 1.60888
305, 1, bw, filler, NA, 999, 999, 2, 25, 95, 190, 143, 168, 186, 115, 3, 0.631045
305, 1, bw, attraction, a-b-da, 2, 3, 2, 26, 193, 119, 120, 195, 195, 120, 2, 0.955386
305, 1, bw, attraction, a-b-da, 2, 3, 2, 26, 193, 119, 120, 195, 195, 120, 1, 0.54775
305, 1, bw, attraction, a-b-db, 14, 1, 2, 27, 56, 125, 135, 60, 60, 135, 3, 1.29175
305, 1, bw, attraction, a-b-db, 14, 1, 2, 27, 56, 125, 135, 60, 60, 135, 2, 0.918523
305, 1, bw, attraction, a-b-da, 9, 1, 2, 28, 135, 60, 129, 57, 60, 135, 3, 2.67151
305, 1, bw, attraction, a-b-da, 9, 1, 2, 28, 135, 60, 129, 57, 60, 135, 2, 0.522558
305, 1, bw, attraction, a-b-db, 9, 1, 2, 29, 135, 60, 60, 135, 57, 129, 2, 1.73171
305, 1, bw, attraction, a-b-db, 9, 1, 2, 29, 135, 60, 60, 135, 57, 129, 3, 0.621156
305, 1, bw, filler, NA, 999, 999, 2, 30, 105, 179, 161, 105, 91, 57, 2, 0.818332
305, 1, bw, filler, NA, 999, 999, 2, 30, 105, 179, 161, 105, 91, 57, 3, 2.56867
305, 1, bw, attraction, a-b-db, 5, 1, 2, 31, 60, 135, 135, 60, 58, 132, 1, 1.2391
305, 1, bw, attraction, a-b-db, 5, 1, 2, 31, 60, 135, 135, 60, 58, 132, 2, 0.65204
305, 1, bw, attraction, a-b-db, 14, 2, 2, 32, 165, 90, 83, 153, 90, 165, 3, 4.76783
305, 1, bw, attraction, a-b-db, 14, 2, 2, 32, 165, 90, 83, 153, 90, 165, 2, 0.502858
305, 1, bw, attraction, a-b-da, 9, 2, 2, 33, 90, 165, 165, 90, 157, 86, 1, 1.80865
305, 1, bw, attraction, a-b-da, 9, 2, 2, 33, 90, 165, 165, 90, 157, 86, 3, 1.04688
305, 1, bw, attraction, a-b-da, 5, 2, 2, 34, 165, 90, 161, 88, 90, 165, 3, 1.8744
305, 1, bw, attraction, a-b-da, 5, 2, 2, 34, 165, 90, 161, 88, 90, 165, 2, 0.517794
305, 1, bw, catch, NA, 999, 999, 2, 35, 184, 131, 124, 71, 138, 117, 1, 0.719007
305, 1, bw, catch, NA, 999, 999, 2, 35, 184, 131, 124, 71, 138, 117, 2, 0.473345
305, 1, bw, attraction, a-b-db, 2, 1, 2, 36, 135, 60, 60, 135, 59, 134, 2, 1.30767
305, 1, bw, attraction, a-b-db, 2, 1, 2, 36, 135, 60, 60, 135, 59, 134, 1, 0.765931
305, 1, bw, attraction, a-b-db, 14, 3, 2, 37, 195, 120, 120, 195, 111, 181, 2, 3.08505
305, 1, bw, attraction, a-b-db, 14, 3, 2, 37, 195, 120, 120, 195, 111, 181, 3, 0.527964
305, 1, bw, attraction, a-b-db, 9, 1, 3, 1, 57, 129, 135, 60, 60, 135, 3, 1.9925
305, 1, bw, attraction, a-b-db, 9, 1, 3, 1, 57, 129, 135, 60, 60, 135, 1, 2.59915
305, 1, bw, attraction, a-b-da, 9, 3, 3, 2, 120, 195, 186, 114, 195, 120, 1, 3.30043
305, 1, bw, attraction, a-b-da, 9, 3, 3, 2, 120, 195, 186, 114, 195, 120, 2, 1.0546
305, 1, bw, filler, NA, 999, 999, 3, 3, 193, 113, 163, 161, 76, 134, 2, 1.17023
305, 1, bw, filler, NA, 999, 999, 3, 3, 193, 113, 163, 161, 76, 134, 3, 0.522489
305, 1, bw, attraction, a-b-db, 9, 3, 3, 4, 195, 120, 114, 186, 120, 195, 2, 8.80363
305, 1, bw, attraction, a-b-db, 9, 3, 3, 4, 195, 120, 114, 186, 120, 195, 1, 0.968141
305, 1, bw, filler, NA, 999, 999, 3, 5, 154, 127, 113, 117, 186, 155, 3, 1.07116
305, 1, bw, filler, NA, 999, 999, 3, 5, 154, 127, 113, 117, 186, 155, 2, 0.506746
305, 1, bw, attraction, a-b-db, 9, 2, 3, 6, 86, 157, 165, 90, 90, 165, 2, 1.09191
305, 1, bw, attraction, a-b-db, 9, 2, 3, 6, 86, 157, 165, 90, 90, 165, 1, 1.40692
305, 1, bw, catch, NA, 999, 999, 3, 7, 126, 69, 107, 148, 148, 167, 3, 0.635597
305, 1, bw, catch, NA, 999, 999, 3, 7, 126, 69, 107, 148, 148, 167, 1, 0.785558
305, 1, bw, attraction, a-b-db, 14, 2, 3, 8, 90, 165, 165, 90, 83, 153, 2, 1.67185
305, 1, bw, attraction, a-b-db, 14, 2, 3, 8, 90, 165, 165, 90, 83, 153, 3, 0.635455
305, 1, bw, attraction, a-b-da, 2, 1, 3, 9, 60, 135, 135, 60, 134, 59, 2, 1.47976
305, 1, bw, attraction, a-b-da, 2, 1, 3, 9, 60, 135, 135, 60, 134, 59, 1, 1.15521
305, 1, bw, attraction, a-b-db, 2, 2, 3, 10, 89, 163, 165, 90, 90, 165, 3, 1.08271
305, 1, bw, attraction, a-b-db, 2, 2, 3, 10, 89, 163, 165, 90, 90, 165, 2, 0.686403
305, 1, bw, attraction, a-b-db, 5, 2, 3, 11, 165, 90, 90, 165, 88, 161, 2, 1.6328
305, 1, bw, attraction, a-b-db, 5, 2, 3, 11, 165, 90, 90, 165, 88, 161, 1, 0.414214
305, 1, bw, attraction, a-b-da, 2, 3, 3, 12, 120, 195, 193, 119, 195, 120, 2, 1.33942
305, 1, bw, attraction, a-b-da, 2, 3, 3, 12, 120, 195, 193, 119, 195, 120, 1, 0.532271
305, 1, bw, filler, NA, 999, 999, 3, 13, 157, 129, 67, 179, 163, 194, 3, 0.692742
305, 1, bw, filler, NA, 999, 999, 3, 13, 157, 129, 67, 179, 163, 194, 2, 0.639859
305, 1, bw, filler, NA, 999, 999, 3, 14, 70, 128, 103, 158, 89, 125, 2, 0.923574
305, 1, bw, filler, NA, 999, 999, 3, 14, 70, 128, 103, 158, 89, 125, 1, 0.565214
305, 1, bw, filler, NA, 999, 999, 3, 15, 125, 131, 116, 148, 178, 83, 2, 3.95631
305, 1, bw, filler, NA, 999, 999, 3, 15, 125, 131, 116, 148, 178, 83, 3, 1.13176
305, 1, bw, filler, NA, 999, 999, 3, 16, 179, 192, 94, 67, 163, 89, 1, 1.04393
305, 1, bw, filler, NA, 999, 999, 3, 16, 179, 192, 94, 67, 163, 89, 2, 0.529024
305, 1, bw, filler, NA, 999, 999, 3, 17, 64, 141, 133, 68, 193, 88, 3, 2.14544
305, 1, bw, filler, NA, 999, 999, 3, 17, 64, 141, 133, 68, 193, 88, 2, 0.954056
305, 1, bw, catch, NA, 999, 999, 3, 18, 175, 140, 128, 127, 129, 66, 1, 0.913793
305, 1, bw, catch, NA, 999, 999, 3, 18, 175, 140, 128, 127, 129, 66, 3, 0.700052
305, 1, bw, attraction, a-b-da, 9, 1, 3, 19, 60, 135, 135, 60, 129, 57, 2, 1.0537
305, 1, bw, attraction, a-b-da, 9, 1, 3, 19, 60, 135, 135, 60, 129, 57, 3, 0.586722
305, 1, bw, attraction, a-b-da, 9, 2, 3, 20, 90, 165, 165, 90, 157, 86, 2, 1.21725
305, 1, bw, attraction, a-b-da, 9, 2, 3, 20, 90, 165, 165, 90, 157, 86, 3, 0.623405
305, 1, bw, attraction, a-b-da, 14, 2, 3, 21, 165, 90, 153, 83, 90, 165, 3, 2.29992
305, 1, bw, attraction, a-b-da, 14, 2, 3, 21, 165, 90, 153, 83, 90, 165, 2, 0.694506
305, 1, bw, attraction, a-b-da, 14, 3, 3, 22, 181, 111, 120, 195, 195, 120, 2, 1.24014
305, 1, bw, attraction, a-b-da, 14, 3, 3, 22, 181, 111, 120, 195, 195, 120, 1, 0.629009
305, 1, bw, attraction, a-b-da, 5, 3, 3, 23, 120, 195, 190, 117, 195, 120, 1, 5.28952
305, 1, bw, attraction, a-b-da, 5, 3, 3, 23, 120, 195, 190, 117, 195, 120, 2, 1.05117
305, 1, bw, catch, NA, 999, 999, 3, 24, 86, 109, 120, 195, 148, 107, 2, 0.990762
305, 1, bw, catch, NA, 999, 999, 3, 24, 86, 109, 120, 195, 148, 107, 1, 0.645797
305, 1, bw, attraction, a-b-db, 2, 3, 3, 25, 195, 120, 119, 193, 120, 195, 2, 4.79364
305, 1, bw, attraction, a-b-db, 2, 3, 3, 25, 195, 120, 119, 193, 120, 195, 3, 2.04729
305, 1, bw, attraction, a-b-db, 14, 3, 3, 26, 195, 120, 120, 195, 111, 181, 2, 1.17059
305, 1, bw, attraction, a-b-db, 14, 3, 3, 26, 195, 120, 120, 195, 111, 181, 3, 0.594881
305, 1, bw, attraction, a-b-da, 5, 1, 3, 27, 135, 60, 60, 135, 132, 58, 2, 1.16869
305, 1, bw, attraction, a-b-da, 5, 1, 3, 27, 135, 60, 60, 135, 132, 58, 1, 0.504978
305, 1, bw, filler, NA, 999, 999, 3, 28, 175, 182, 154, 141, 157, 73, 1, 0.866812
305, 1, bw, filler, NA, 999, 999, 3, 28, 175, 182, 154, 141, 157, 73, 3, 0.495025
305, 1, bw, attraction, a-b-da, 5, 2, 3, 29, 161, 88, 165, 90, 90, 165, 3, 3.76895
305, 1, bw, attraction, a-b-da, 5, 2, 3, 29, 161, 88, 165, 90, 90, 165, 1, 1.12829
305, 1, bw, filler, NA, 999, 999, 3, 30, 129, 98, 99, 115, 67, 86, 2, 1.12854
305, 1, bw, filler, NA, 999, 999, 3, 30, 129, 98, 99, 115, 67, 86, 3, 3.54612
305, 1, bw, attraction, a-b-db, 14, 1, 3, 31, 56, 125, 135, 60, 60, 135, 3, 1.20115
305, 1, bw, attraction, a-b-db, 14, 1, 3, 31, 56, 125, 135, 60, 60, 135, 1, 0.607962
305, 1, bw, attraction, a-b-da, 2, 2, 3, 32, 163, 89, 90, 165, 165, 90, 2, 1.13316
305, 1, bw, attraction, a-b-da, 2, 2, 3, 32, 163, 89, 90, 165, 165, 90, 1, 0.60662
305, 1, bw, filler, NA, 999, 999, 3, 33, 78, 86, 86, 165, 69, 166, 2, 0.819666
305, 1, bw, filler, NA, 999, 999, 3, 33, 78, 86, 86, 165, 69, 166, 1, 0.722144
305, 1, bw, attraction, a-b-db, 5, 3, 3, 34, 195, 120, 120, 195, 117, 190, 2, 5.89924
305, 1, bw, attraction, a-b-db, 5, 3, 3, 34, 195, 120, 120, 195, 117, 190, 3, 0.588713
305, 1, bw, attraction, a-b-db, 2, 1, 3, 35, 59, 134, 135, 60, 60, 135, 2, 0.939055
305, 1, bw, attraction, a-b-db, 2, 1, 3, 35, 59, 134, 135, 60, 60, 135, 1, 1.37229
305, 1, bw, attraction, a-b-db, 5, 1, 3, 36, 58, 132, 135, 60, 60, 135, 2, 1.77092
305, 1, bw, attraction, a-b-db, 5, 1, 3, 36, 58, 132, 135, 60, 60, 135, 1, 0.707086
305, 1, bw, attraction, a-b-da, 14, 1, 3, 37, 60, 135, 125, 56, 135, 60, 2, 1.13207
305, 1, bw, attraction, a-b-da, 14, 1, 3, 37, 60, 135, 125, 56, 135, 60, 1, 0.837693
305, 1, bw, catch, NA, 999, 999, 4, 1, 194, 121, 107, 148, 92, 103, 1, 1.39403
305, 1, bw, catch, NA, 999, 999, 4, 1, 194, 121, 107, 148, 92, 103, 3, 0.841045
305, 1, bw, filler, NA, 999, 999, 4, 2, 79, 127, 169, 111, 181, 66, 2, 1.23657
305, 1, bw, filler, NA, 999, 999, 4, 2, 79, 127, 169, 111, 181, 66, 1, 0.562149
305, 1, bw, filler, NA, 999, 999, 4, 3, 77, 171, 94, 85, 176, 160, 3, 0.761378
305, 1, bw, filler, NA, 999, 999, 4, 3, 77, 171, 94, 85, 176, 160, 2, 0.497606
305, 1, bw, attraction, a-b-db, 9, 3, 4, 4, 195, 120, 120, 195, 114, 186, 2, 1.69157
305, 1, bw, attraction, a-b-db, 9, 3, 4, 4, 195, 120, 120, 195, 114, 186, 1, 0.742279
305, 1, bw, filler, NA, 999, 999, 4, 5, 126, 109, 59, 78, 165, 137, 3, 1.2299
305, 1, bw, filler, NA, 999, 999, 4, 5, 126, 109, 59, 78, 165, 137, 2, 0.779658
305, 1, bw, attraction, a-b-da, 14, 1, 4, 6, 125, 56, 135, 60, 60, 135, 2, 1.40182
305, 1, bw, attraction, a-b-da, 14, 1, 4, 6, 125, 56, 135, 60, 60, 135, 1, 0.728811
305, 1, bw, attraction, a-b-db, 9, 2, 4, 7, 90, 165, 86, 157, 165, 90, 2, 1.64123
305, 1, bw, attraction, a-b-db, 9, 2, 4, 7, 90, 165, 86, 157, 165, 90, 3, 0.517934
305, 1, bw, catch, NA, 999, 999, 4, 8, 178, 137, 164, 91, 111, 84, 1, 1.14304
305, 1, bw, catch, NA, 999, 999, 4, 8, 178, 137, 164, 91, 111, 84, 3, 0.808067
305, 1, bw, catch, NA, 999, 999, 4, 9, 106, 149, 133, 182, 95, 100, 2, 0.676944
305, 1, bw, catch, NA, 999, 999, 4, 9, 106, 149, 133, 182, 95, 100, 3, 0.72082
305, 1, bw, attraction, a-b-da, 5, 3, 4, 10, 120, 195, 190, 117, 195, 120, 3, 1.30585
305, 1, bw, attraction, a-b-da, 5, 3, 4, 10, 120, 195, 190, 117, 195, 120, 1, 0.604137
305, 1, bw, filler, NA, 999, 999, 4, 11, 72, 151, 109, 187, 141, 117, 2, 0.833879
305, 1, bw, filler, NA, 999, 999, 4, 11, 72, 151, 109, 187, 141, 117, 1, 0.79149
305, 1, bw, attraction, a-b-db, 2, 2, 4, 12, 90, 165, 89, 163, 165, 90, 2, 0.837334
305, 1, bw, attraction, a-b-db, 2, 2, 4, 12, 90, 165, 89, 163, 165, 90, 3, 0.698913
305, 1, bw, filler, NA, 999, 999, 4, 13, 56, 144, 192, 58, 102, 73, 2, 1.41262
305, 1, bw, filler, NA, 999, 999, 4, 13, 56, 144, 192, 58, 102, 73, 3, 1.8589
305, 1, bw, attraction, a-b-da, 2, 2, 4, 14, 90, 165, 165, 90, 163, 89, 1, 1.50964
305, 1, bw, attraction, a-b-da, 2, 2, 4, 14, 90, 165, 165, 90, 163, 89, 2, 0.655629
305, 1, bw, attraction, a-b-db, 2, 3, 4, 15, 195, 120, 120, 195, 119, 193, 2, 0.963458
305, 1, bw, attraction, a-b-db, 2, 3, 4, 15, 195, 120, 120, 195, 119, 193, 1, 3.69194
305, 1, bw, attraction, a-b-da, 9, 3, 4, 16, 195, 120, 186, 114, 120, 195, 3, 1.31652
305, 1, bw, attraction, a-b-da, 9, 3, 4, 16, 195, 120, 186, 114, 120, 195, 2, 0.590761
305, 1, bw, filler, NA, 999, 999, 4, 17, 183, 138, 179, 102, 148, 183, 3, 2.14059
305, 1, bw, filler, NA, 999, 999, 4, 17, 183, 138, 179, 102, 148, 183, 2, 0.645224
305, 1, bw, filler, NA, 999, 999, 4, 18, 189, 180, 86, 190, 112, 76, 1, 0.896895
305, 1, bw, filler, NA, 999, 999, 4, 18, 189, 180, 86, 190, 112, 76, 3, 0.611994
305, 1, bw, attraction, a-b-da, 9, 1, 4, 19, 135, 60, 60, 135, 129, 57, 2, 1.08906
305, 1, bw, attraction, a-b-da, 9, 1, 4, 19, 135, 60, 60, 135, 129, 57, 1, 0.659962
305, 1, bw, attraction, a-b-da, 14, 2, 4, 20, 90, 165, 165, 90, 153, 83, 3, 1.25514
305, 1, bw, attraction, a-b-da, 14, 2, 4, 20, 90, 165, 165, 90, 153, 83, 2, 0.531272
305, 1, bw, filler, NA, 999, 999, 4, 21, 72, 153, 72, 114, 61, 111, 1, 2.75581
305, 1, bw, filler, NA, 999, 999, 4, 21, 72, 153, 72, 114, 61, 111, 3, 0.787612
305, 1, bw, attraction, a-b-db, 14, 2, 4, 22, 165, 90, 83, 153, 90, 165, 3, 1.56989
305, 1, bw, attraction, a-b-db, 14, 2, 4, 22, 165, 90, 83, 153, 90, 165, 1, 1.674
305, 1, bw, attraction, a-b-db, 5, 2, 4, 23, 88, 161, 165, 90, 90, 165, 3, 1.26016
305, 1, bw, attraction, a-b-db, 5, 2, 4, 23, 88, 161, 165, 90, 90, 165, 2, 0.584392
305, 1, bw, attraction, a-b-da, 2, 1, 4, 24, 60, 135, 135, 60, 134, 59, 2, 3.64683
305, 1, bw, attraction, a-b-da, 2, 1, 4, 24, 60, 135, 135, 60, 134, 59, 3, 7.52298
305, 1, bw, attraction, a-b-da, 5, 2, 4, 25, 161, 88, 165, 90, 90, 165, 3, 0.92195
305, 1, bw, attraction, a-b-da, 5, 2, 4, 25, 161, 88, 165, 90, 90, 165, 1, 0.539545
305, 1, bw, attraction, a-b-db, 14, 3, 4, 26, 195, 120, 120, 195, 111, 181, 2, 0.780167
305, 1, bw, attraction, a-b-db, 14, 3, 4, 26, 195, 120, 120, 195, 111, 181, 1, 0.763758
305, 1, bw, attraction, a-b-db, 9, 1, 4, 27, 60, 135, 135, 60, 57, 129, 2, 1.01091
305, 1, bw, attraction, a-b-db, 9, 1, 4, 27, 60, 135, 135, 60, 57, 129, 3, 0.617161
305, 1, bw, filler, NA, 999, 999, 4, 28, 161, 164, 93, 140, 168, 124, 1, 1.15817
305, 1, bw, filler, NA, 999, 999, 4, 28, 161, 164, 93, 140, 168, 124, 2, 0.710454
305, 1, bw, attraction, a-b-da, 9, 2, 4, 29, 90, 165, 165, 90, 157, 86, 2, 0.879597
305, 1, bw, attraction, a-b-da, 9, 2, 4, 29, 90, 165, 165, 90, 157, 86, 3, 1.29925
305, 1, bw, attraction, a-b-db, 5, 3, 4, 30, 195, 120, 117, 190, 120, 195, 2, 0.628716
305, 1, bw, attraction, a-b-db, 5, 3, 4, 30, 195, 120, 117, 190, 120, 195, 1, 1.80273
305, 1, bw, attraction, a-b-da, 14, 3, 4, 31, 120, 195, 181, 111, 195, 120, 3, 1.80793
305, 1, bw, attraction, a-b-da, 14, 3, 4, 31, 120, 195, 181, 111, 195, 120, 2, 1.28616
305, 1, bw, attraction, a-b-da, 2, 3, 4, 32, 120, 195, 193, 119, 195, 120, 1, 1.21622
305, 1, bw, attraction, a-b-da, 2, 3, 4, 32, 120, 195, 193, 119, 195, 120, 2, 0.590418
305, 1, bw, attraction, a-b-da, 5, 1, 4, 33, 60, 135, 135, 60, 132, 58, 1, 1.52422
305, 1, bw, attraction, a-b-da, 5, 1, 4, 33, 60, 135, 135, 60, 132, 58, 3, 0.557887
305, 1, bw, attraction, a-b-db, 14, 1, 4, 34, 60, 135, 56, 125, 135, 60, 1, 5.7168
305, 1, bw, attraction, a-b-db, 14, 1, 4, 34, 60, 135, 56, 125, 135, 60, 3, 0.717711
305, 1, bw, attraction, a-b-db, 5, 1, 4, 35, 60, 135, 135, 60, 58, 132, 1, 1.6707
305, 1, bw, attraction, a-b-db, 5, 1, 4, 35, 60, 135, 135, 60, 58, 132, 2, 0.554887
305, 1, bw, filler, NA, 999, 999, 4, 36, 135, 63, 57, 139, 77, 142, 3, 1.02676
305, 1, bw, filler, NA, 999, 999, 4, 36, 135, 63, 57, 139, 77, 142, 2, 0.544242
305, 1, bw, attraction, a-b-db, 2, 1, 4, 37, 59, 134, 135, 60, 60, 135, 3, 1.04804
305, 1, bw, attraction, a-b-db, 2, 1, 4, 37, 59, 134, 135, 60, 60, 135, 2, 0.445142
305, 1, bw, attraction, a-b-db, 9, 2, 5, 1, 165, 90, 90, 165, 86, 157, 2, 2.61544
305, 1, bw, attraction, a-b-db, 9, 2, 5, 1, 165, 90, 90, 165, 86, 157, 1, 0.837208
305, 1, bw, attraction, a-b-da, 5, 1, 5, 2, 135, 60, 132, 58, 60, 135, 3, 0.77764
305, 1, bw, attraction, a-b-da, 5, 1, 5, 2, 135, 60, 132, 58, 60, 135, 2, 0.457254
305, 1, bw, filler, NA, 999, 999, 5, 3, 140, 148, 98, 76, 98, 110, 1, 0.716362
305, 1, bw, filler, NA, 999, 999, 5, 3, 140, 148, 98, 76, 98, 110, 2, 0.694959
305, 1, bw, attraction, a-b-db, 14, 2, 5, 4, 83, 153, 165, 90, 90, 165, 3, 2.45657
305, 1, bw, attraction, a-b-db, 14, 2, 5, 4, 83, 153, 165, 90, 90, 165, 2, 0.412631
305, 1, bw, attraction, a-b-da, 2, 1, 5, 5, 134, 59, 60, 135, 135, 60, 3, 1.04954
305, 1, bw, attraction, a-b-da, 2, 1, 5, 5, 134, 59, 60, 135, 135, 60, 2, 0.526703
305, 1, bw, attraction, a-b-da, 14, 1, 5, 6, 60, 135, 125, 56, 135, 60, 3, 1.14299
305, 1, bw, attraction, a-b-da, 14, 1, 5, 6, 60, 135, 125, 56, 135, 60, 2, 0.583963
305, 1, bw, attraction, a-b-db, 5, 3, 5, 7, 195, 120, 117, 190, 120, 195, 2, 6.25439
305, 1, bw, attraction, a-b-db, 5, 3, 5, 7, 195, 120, 117, 190, 120, 195, 1, 0.497717
305, 1, bw, attraction, a-b-da, 9, 3, 5, 8, 195, 120, 120, 195, 186, 114, 2, 1.11555
305, 1, bw, attraction, a-b-da, 9, 3, 5, 8, 195, 120, 120, 195, 186, 114, 3, 0.925837
305, 1, bw, filler, NA, 999, 999, 5, 9, 130, 142, 189, 115, 121, 57, 2, 1.30216
305, 1, bw, filler, NA, 999, 999, 5, 9, 130, 142, 189, 115, 121, 57, 3, 0.593085
305, 1, bw, attraction, a-b-db, 14, 3, 5, 10, 120, 195, 111, 181, 195, 120, 3, 4.21488
305, 1, bw, attraction, a-b-db, 14, 3, 5, 10, 120, 195, 111, 181, 195, 120, 2, 0.428257
305, 1, bw, catch, NA, 999, 999, 5, 11, 185, 130, 119, 136, 127, 68, 1, 0.920674
305, 1, bw, catch, NA, 999, 999, 5, 11, 185, 130, 119, 136, 127, 68, 3, 0.787096
305, 1, bw, filler, NA, 999, 999, 5, 12, 191, 157, 109, 130, 151, 86, 1, 0.633367
305, 1, bw, filler, NA, 999, 999, 5, 12, 191, 157, 109, 130, 151, 86, 3, 0.727245
305, 1, bw, attraction, a-b-db, 2, 1, 5, 13, 60, 135, 59, 134, 135, 60, 2, 1.26348
305, 1, bw, attraction, a-b-db, 2, 1, 5, 13, 60, 135, 59, 134, 135, 60, 3, 0.595749
305, 1, bw, attraction, a-b-db, 14, 1, 5, 14, 56, 125, 60, 135, 135, 60, 2, 5.15356
305, 1, bw, attraction, a-b-db, 14, 1, 5, 14, 56, 125, 60, 135, 135, 60, 3, 0.769204
305, 1, bw, attraction, a-b-da, 2, 3, 5, 15, 193, 119, 120, 195, 195, 120, 2, 1.18432
305, 1, bw, attraction, a-b-da, 2, 3, 5, 15, 193, 119, 120, 195, 195, 120, 3, 0.735846
305, 1, bw, filler, NA, 999, 999, 5, 16, 137, 121, 93, 128, 83, 117, 1, 0.592212
305, 1, bw, filler, NA, 999, 999, 5, 16, 137, 121, 93, 128, 83, 117, 3, 0.751379
305, 1, bw, attraction, a-b-db, 9, 3, 5, 17, 120, 195, 195, 120, 114, 186, 1, 4.57505
305, 1, bw, attraction, a-b-db, 9, 3, 5, 17, 120, 195, 195, 120, 114, 186, 3, 0.549724
305, 1, bw, attraction, a-b-da, 9, 2, 5, 18, 157, 86, 90, 165, 165, 90, 2, 1.0293
305, 1, bw, attraction, a-b-da, 9, 2, 5, 18, 157, 86, 90, 165, 165, 90, 1, 0.403038
305, 1, bw, attraction, a-b-da, 5, 3, 5, 19, 120, 195, 195, 120, 190, 117, 1, 1.27282
305, 1, bw, attraction, a-b-da, 5, 3, 5, 19, 120, 195, 195, 120, 190, 117, 3, 0.876683
305, 1, bw, attraction, a-b-db, 2, 3, 5, 20, 120, 195, 119, 193, 195, 120, 2, 0.62267
305, 1, bw, attraction, a-b-db, 2, 3, 5, 20, 120, 195, 119, 193, 195, 120, 3, 0.572519
305, 1, bw, attraction, a-b-da, 14, 2, 5, 21, 90, 165, 153, 83, 165, 90, 1, 0.65965
305, 1, bw, attraction, a-b-da, 14, 2, 5, 21, 90, 165, 153, 83, 165, 90, 2, 0.503974
305, 1, bw, attraction, a-b-da, 5, 2, 5, 22, 165, 90, 90, 165, 161, 88, 2, 1.20192
305, 1, bw, attraction, a-b-da, 5, 2, 5, 22, 165, 90, 90, 165, 161, 88, 3, 0.592845
305, 1, bw, attraction, a-b-db, 2, 2, 5, 23, 90, 165, 165, 90, 89, 163, 1, 1.06247
305, 1, bw, attraction, a-b-db, 2, 2, 5, 23, 90, 165, 165, 90, 89, 163, 2, 0.530901
305, 1, bw, catch, NA, 999, 999, 5, 24, 77, 118, 113, 142, 161, 154, 3, 0.819201
305, 1, bw, catch, NA, 999, 999, 5, 24, 77, 118, 113, 142, 161, 154, 1, 0.593614
305, 1, bw, filler, NA, 999, 999, 5, 25, 99, 178, 74, 73, 60, 68, 1, 0.983376
305, 1, bw, filler, NA, 999, 999, 5, 25, 99, 178, 74, 73, 60, 68, 3, 0.615024
305, 1, bw, filler, NA, 999, 999, 5, 26, 88, 173, 102, 192, 93, 191, 2, 0.796104
305, 1, bw, filler, NA, 999, 999, 5, 26, 88, 173, 102, 192, 93, 191, 1, 0.42732
305, 1, bw, attraction, a-b-db, 5, 1, 5, 27, 58, 132, 135, 60, 60, 135, 1, 1.35177
305, 1, bw, attraction, a-b-db, 5, 1, 5, 27, 58, 132, 135, 60, 60, 135, 2, 0.624678
305, 1, bw, attraction, a-b-db, 9, 1, 5, 28, 60, 135, 135, 60, 57, 129, 1, 0.917104
305, 1, bw, attraction, a-b-db, 9, 1, 5, 28, 60, 135, 135, 60, 57, 129, 2, 1.09529
305, 1, bw, filler, NA, 999, 999, 5, 29, 172, 86, 64, 96, 177, 60, 1, 0.697009
305, 1, bw, filler, NA, 999, 999, 5, 29, 172, 86, 64, 96, 177, 60, 2, 0.58014
305, 1, bw, attraction, a-b-da, 2, 2, 5, 30, 163, 89, 90, 165, 165, 90, 2, 0.890395
305, 1, bw, attraction, a-b-da, 2, 2, 5, 30, 163, 89, 90, 165, 165, 90, 1, 0.621406
305, 1, bw, filler, NA, 999, 999, 5, 31, 130, 64, 141, 165, 120, 148, 2, 0.882536
305, 1, bw, filler, NA, 999, 999, 5, 31, 130, 64, 141, 165, 120, 148, 1, 0.566244
305, 1, bw, filler, NA, 999, 999, 5, 32, 94, 65, 67, 175, 63, 75, 2, 0.941364
305, 1, bw, filler, NA, 999, 999, 5, 32, 94, 65, 67, 175, 63, 75, 3, 0.430325
305, 1, bw, catch, NA, 999, 999, 5, 33, 147, 168, 90, 105, 146, 109, 1, 0.626805
305, 1, bw, catch, NA, 999, 999, 5, 33, 147, 168, 90, 105, 146, 109, 2, 0.448738
305, 1, bw, attraction, a-b-da, 14, 3, 5, 34, 195, 120, 181, 111, 120, 195, 2, 0.924334
305, 1, bw, attraction, a-b-da, 14, 3, 5, 34, 195, 120, 181, 111, 120, 195, 1, 1.91845
305, 1, bw, attraction, a-b-da, 9, 1, 5, 35, 60, 135, 129, 57, 135, 60, 1, 2.13479
305, 1, bw, attraction, a-b-da, 9, 1, 5, 35, 60, 135, 129, 57, 135, 60, 2, 0.640126
305, 1, bw, filler, NA, 999, 999, 5, 36, 107, 179, 62, 112, 141, 191, 3, 0.827886
305, 1, bw, filler, NA, 999, 999, 5, 36, 107, 179, 62, 112, 141, 191, 2, 0.649482
305, 1, bw, attraction, a-b-db, 5, 2, 5, 37, 90, 165, 165, 90, 88, 161, 2, 0.797247
305, 1, bw, attraction, a-b-db, 5, 2, 5, 37, 90, 165, 165, 90, 88, 161, 3, 0.644383
305, 1, bw, attraction, a-b-db, 14, 3, 6, 1, 120, 195, 111, 181, 195, 120, 2, 0.896081
305, 1, bw, attraction, a-b-db, 14, 3, 6, 1, 120, 195, 111, 181, 195, 120, 3, 3.85911
305, 1, bw, attraction, a-b-db, 2, 1, 6, 2, 60, 135, 59, 134, 135, 60, 2, 3.28523
305, 1, bw, attraction, a-b-db, 2, 1, 6, 2, 60, 135, 59, 134, 135, 60, 3, 0.536039
305, 1, bw, attraction, a-b-db, 14, 2, 6, 3, 83, 153, 165, 90, 90, 165, 3, 1.11249
305, 1, bw, attraction, a-b-db, 14, 2, 6, 3, 83, 153, 165, 90, 90, 165, 2, 0.482827
305, 1, bw, attraction, a-b-da, 5, 3, 6, 4, 190, 117, 195, 120, 120, 195, 3, 2.90126
305, 1, bw, attraction, a-b-da, 5, 3, 6, 4, 190, 117, 195, 120, 120, 195, 1, 0.735833
305, 1, bw, catch, NA, 999, 999, 6, 5, 189, 126, 165, 90, 127, 68, 1, 0.864058
305, 1, bw, catch, NA, 999, 999, 6, 5, 189, 126, 165, 90, 127, 68, 3, 0.724472
305, 1, bw, filler, NA, 999, 999, 6, 6, 152, 174, 60, 109, 88, 86, 1, 1.06879
305, 1, bw, filler, NA, 999, 999, 6, 6, 152, 174, 60, 109, 88, 86, 2, 0.609287
305, 1, bw, attraction, a-b-da, 9, 2, 6, 7, 165, 90, 90, 165, 157, 86, 2, 1.45427
305, 1, bw, attraction, a-b-da, 9, 2, 6, 7, 165, 90, 90, 165, 157, 86, 1, 0.715146
305, 1, bw, attraction, a-b-db, 2, 2, 6, 8, 90, 165, 165, 90, 89, 163, 1, 5.53224
305, 1, bw, attraction, a-b-db, 2, 2, 6, 8, 90, 165, 165, 90, 89, 163, 2, 0.404327
305, 1, bw, catch, NA, 999, 999, 6, 9, 158, 97, 107, 88, 163, 152, 3, 0.722152
305, 1, bw, catch, NA, 999, 999, 6, 9, 158, 97, 107, 88, 163, 152, 2, 0.555952
305, 1, bw, attraction, a-b-db, 14, 1, 6, 10, 56, 125, 60, 135, 135, 60, 2, 0.97968
305, 1, bw, attraction, a-b-db, 14, 1, 6, 10, 56, 125, 60, 135, 135, 60, 1, 0.603396
305, 1, bw, attraction, a-b-da, 5, 1, 6, 11, 135, 60, 132, 58, 60, 135, 3, 1.46514
305, 1, bw, attraction, a-b-da, 5, 1, 6, 11, 135, 60, 132, 58, 60, 135, 2, 0.573345
305, 1, bw, attraction, a-b-db, 5, 1, 6, 12, 58, 132, 60, 135, 135, 60, 2, 0.859843
305, 1, bw, attraction, a-b-db, 5, 1, 6, 12, 58, 132, 60, 135, 135, 60, 3, 0.576098
305, 1, bw, attraction, a-b-da, 14, 1, 6, 13, 60, 135, 125, 56, 135, 60, 1, 0.894534
305, 1, bw, attraction, a-b-da, 14, 1, 6, 13, 60, 135, 125, 56, 135, 60, 2, 0.505625
305, 1, bw, filler, NA, 999, 999, 6, 14, 117, 168, 114, 193, 95, 75, 2, 0.843315
305, 1, bw, filler, NA, 999, 999, 6, 14, 117, 168, 114, 193, 95, 75, 3, 0.712402
305, 1, bw, filler, NA, 999, 999, 6, 15, 96, 168, 170, 87, 191, 177, 3, 0.953451
305, 1, bw, filler, NA, 999, 999, 6, 15, 96, 168, 170, 87, 191, 177, 2, 0.714478
305, 1, bw, attraction, a-b-da, 9, 1, 6, 16, 129, 57, 135, 60, 60, 135, 1, 1.4116
305, 1, bw, attraction, a-b-da, 9, 1, 6, 16, 129, 57, 135, 60, 60, 135, 2, 0.617712
305, 1, bw, attraction, a-b-db, 5, 2, 6, 17, 90, 165, 165, 90, 88, 161, 2, 0.822795
305, 1, bw, attraction, a-b-db, 5, 2, 6, 17, 90, 165, 165, 90, 88, 161, 1, 0.48452
305, 1, bw, attraction, a-b-da, 2, 1, 6, 18, 135, 60, 134, 59, 60, 135, 3, 1.535
305, 1, bw, attraction, a-b-da, 2, 1, 6, 18, 135, 60, 134, 59, 60, 135, 2, 0.384487
305, 1, bw, filler, NA, 999, 999, 6, 19, 86, 193, 65, 131, 72, 151, 1, 0.846901
305, 1, bw, filler, NA, 999, 999, 6, 19, 86, 193, 65, 131, 72, 151, 2, 0.460111
305, 1, bw, attraction, a-b-db, 5, 3, 6, 20, 120, 195, 117, 190, 195, 120, 2, 9.29515
305, 1, bw, attraction, a-b-db, 5, 3, 6, 20, 120, 195, 117, 190, 195, 120, 3, 0.391543
305, 1, bw, attraction, a-b-da, 5, 2, 6, 21, 165, 90, 90, 165, 161, 88, 2, 0.781474
305, 1, bw, attraction, a-b-da, 5, 2, 6, 21, 165, 90, 90, 165, 161, 88, 3, 0.789143
305, 1, bw, filler, NA, 999, 999, 6, 22, 64, 127, 98, 116, 132, 90, 2, 3.38746
305, 1, bw, filler, NA, 999, 999, 6, 22, 64, 127, 98, 116, 132, 90, 1, 0.514297
305, 1, bw, attraction, a-b-da, 14, 3, 6, 23, 195, 120, 181, 111, 120, 195, 1, 1.30748
305, 1, bw, attraction, a-b-da, 14, 3, 6, 23, 195, 120, 181, 111, 120, 195, 2, 0.46174
305, 1, bw, attraction, a-b-db, 9, 3, 6, 24, 114, 186, 195, 120, 120, 195, 2, 0.872859
305, 1, bw, attraction, a-b-db, 9, 3, 6, 24, 114, 186, 195, 120, 120, 195, 3, 0.51653
305, 1, bw, attraction, a-b-db, 9, 1, 6, 25, 135, 60, 57, 129, 60, 135, 3, 1.06972
305, 1, bw, attraction, a-b-db, 9, 1, 6, 25, 135, 60, 57, 129, 60, 135, 1, 0.697993
305, 1, bw, filler, NA, 999, 999, 6, 26, 151, 77, 129, 141, 71, 101, 2, 1.45965
305, 1, bw, filler, NA, 999, 999, 6, 26, 151, 77, 129, 141, 71, 101, 3, 0.767944
305, 1, bw, attraction, a-b-da, 2, 3, 6, 27, 195, 120, 193, 119, 120, 195, 3, 1.48696
305, 1, bw, attraction, a-b-da, 2, 3, 6, 27, 195, 120, 193, 119, 120, 195, 2, 0.314352
305, 1, bw, attraction, a-b-da, 14, 2, 6, 28, 165, 90, 153, 83, 90, 165, 1, 2.41155
305, 1, bw, attraction, a-b-da, 14, 2, 6, 28, 165, 90, 153, 83, 90, 165, 2, 0.433443
305, 1, bw, attraction, a-b-db, 9, 2, 6, 29, 86, 157, 165, 90, 90, 165, 3, 1.01396
305, 1, bw, attraction, a-b-db, 9, 2, 6, 29, 86, 157, 165, 90, 90, 165, 1, 0.6923
305, 1, bw, filler, NA, 999, 999, 6, 30, 185, 96, 69, 145, 176, 94, 1, 1.24598
305, 1, bw, filler, NA, 999, 999, 6, 30, 185, 96, 69, 145, 176, 94, 2, 0.530848
305, 1, bw, filler, NA, 999, 999, 6, 31, 103, 99, 108, 177, 58, 118, 2, 0.715314
305, 1, bw, filler, NA, 999, 999, 6, 31, 103, 99, 108, 177, 58, 118, 3, 0.685788
305, 1, bw, attraction, a-b-db, 2, 3, 6, 32, 119, 193, 120, 195, 195, 120, 2, 2.3282
305, 1, bw, attraction, a-b-db, 2, 3, 6, 32, 119, 193, 120, 195, 195, 120, 1, 0.601475
305, 1, bw, catch, NA, 999, 999, 6, 33, 118, 137, 92, 103, 187, 128, 3, 0.58318
305, 1, bw, catch, NA, 999, 999, 6, 33, 118, 137, 92, 103, 187, 128, 2, 0.67093
305, 1, bw, attraction, a-b-da, 9, 3, 6, 34, 195, 120, 120, 195, 186, 114, 2, 1.034
305, 1, bw, attraction, a-b-da, 9, 3, 6, 34, 195, 120, 120, 195, 186, 114, 3, 0.583615
305, 1, bw, filler, NA, 999, 999, 6, 35, 184, 73, 114, 57, 137, 149, 3, 0.758223
305, 1, bw, filler, NA, 999, 999, 6, 35, 184, 73, 114, 57, 137, 149, 2, 0.526464
305, 1, bw, attraction, a-b-da, 2, 2, 6, 36, 90, 165, 163, 89, 165, 90, 2, 1.10291
305, 1, bw, attraction, a-b-da, 2, 2, 6, 36, 90, 165, 163, 89, 165, 90, 3, 0.625895
305, 1, bw, filler, NA, 999, 999, 6, 37, 106, 170, 146, 106, 73, 80, 2, 1.05438
305, 1, bw, filler, NA, 999, 999, 6, 37, 106, 170, 146, 106, 73, 80, 3, 0.443298
305, 1, bw, filler, NA, 999, 999, 7, 1, 174, 98, 94, 65, 58, 57, 1, 0.61521
305, 1, bw, filler, NA, 999, 999, 7, 1, 174, 98, 94, 65, 58, 57, 3, 0.58966
305, 1, bw, attraction, a-b-da, 5, 3, 7, 2, 120, 195, 195, 120, 190, 117, 3, 0.892153
305, 1, bw, attraction, a-b-da, 5, 3, 7, 2, 120, 195, 195, 120, 190, 117, 1, 0.638999
305, 1, bw, attraction, a-b-da, 2, 2, 7, 3, 163, 89, 165, 90, 90, 165, 3, 1.54738
305, 1, bw, attraction, a-b-da, 2, 2, 7, 3, 163, 89, 165, 90, 90, 165, 2, 0.444241
305, 1, bw, attraction, a-b-db, 2, 3, 7, 4, 119, 193, 195, 120, 120, 195, 1, 1.85604
305, 1, bw, attraction, a-b-db, 2, 3, 7, 4, 119, 193, 195, 120, 120, 195, 2, 0.524201
305, 1, bw, attraction, a-b-da, 14, 1, 7, 5, 135, 60, 60, 135, 125, 56, 2, 0.900501
305, 1, bw, attraction, a-b-da, 14, 1, 7, 5, 135, 60, 60, 135, 125, 56, 3, 1.09558
305, 1, bw, attraction, a-b-db, 14, 2, 7, 6, 165, 90, 83, 153, 90, 165, 3, 1.58517
305, 1, bw, attraction, a-b-db, 14, 2, 7, 6, 165, 90, 83, 153, 90, 165, 2, 0.464645
305, 1, bw, filler, NA, 999, 999, 7, 7, 186, 128, 189, 134, 176, 78, 2, 0.675715
305, 1, bw, filler, NA, 999, 999, 7, 7, 186, 128, 189, 134, 176, 78, 3, 0.471575
305, 1, bw, attraction, a-b-db, 5, 2, 7, 8, 165, 90, 88, 161, 90, 165, 2, 0.842639
305, 1, bw, attraction, a-b-db, 5, 2, 7, 8, 165, 90, 88, 161, 90, 165, 1, 0.487836
305, 1, bw, filler, NA, 999, 999, 7, 9, 136, 109, 111, 93, 186, 104, 3, 0.642108
305, 1, bw, filler, NA, 999, 999, 7, 9, 136, 109, 111, 93, 186, 104, 2, 0.415228
305, 1, bw, attraction, a-b-da, 9, 2, 7, 10, 157, 86, 90, 165, 165, 90, 2, 0.828415
305, 1, bw, attraction, a-b-da, 9, 2, 7, 10, 157, 86, 90, 165, 165, 90, 1, 0.570091
305, 1, bw, filler, NA, 999, 999, 7, 11, 173, 126, 65, 189, 86, 90, 1, 1.28919
305, 1, bw, filler, NA, 999, 999, 7, 11, 173, 126, 65, 189, 86, 90, 3, 0.636166
305, 1, bw, attraction, a-b-da, 9, 3, 7, 12, 120, 195, 186, 114, 195, 120, 2, 1.17661
305, 1, bw, attraction, a-b-da, 9, 3, 7, 12, 120, 195, 186, 114, 195, 120, 3, 0.432096
305, 1, bw, attraction, a-b-db, 9, 3, 7, 13, 114, 186, 120, 195, 195, 120, 2, 1.1406
305, 1, bw, attraction, a-b-db, 9, 3, 7, 13, 114, 186, 120, 195, 195, 120, 1, 0.405618
305, 1, bw, attraction, a-b-db, 14, 1, 7, 14, 56, 125, 135, 60, 60, 135, 3, 0.963362
305, 1, bw, attraction, a-b-db, 14, 1, 7, 14, 56, 125, 135, 60, 60, 135, 2, 0.451699
305, 1, bw, filler, NA, 999, 999, 7, 15, 109, 76, 174, 104, 162, 190, 3, 1.15951
305, 1, bw, filler, NA, 999, 999, 7, 15, 109, 76, 174, 104, 162, 190, 1, 0.607756
305, 1, bw, filler, NA, 999, 999, 7, 16, 124, 164, 114, 186, 56, 103, 2, 0.75692
305, 1, bw, filler, NA, 999, 999, 7, 16, 124, 164, 114, 186, 56, 103, 3, 0.477273
305, 1, bw, attraction, a-b-da, 5, 2, 7, 17, 165, 90, 161, 88, 90, 165, 2, 0.999704
305, 1, bw, attraction, a-b-da, 5, 2, 7, 17, 165, 90, 161, 88, 90, 165, 3, 0.590752
305, 1, bw, filler, NA, 999, 999, 7, 18, 118, 186, 58, 103, 146, 83, 1, 0.756588
305, 1, bw, filler, NA, 999, 999, 7, 18, 118, 186, 58, 103, 146, 83, 2, 0.548861
305, 1, bw, catch, NA, 999, 999, 7, 19, 125, 70, 121, 134, 124, 191, 3, 0.980772
305, 1, bw, catch, NA, 999, 999, 7, 19, 125, 70, 121, 134, 124, 191, 1, 0.708383
305, 1, bw, attraction, a-b-da, 14, 3, 7, 20, 195, 120, 120, 195, 181, 111, 2, 0.773382
305, 1, bw, attraction, a-b-da, 14, 3, 7, 20, 195, 120, 120, 195, 181, 111, 3, 0.485136
305, 1, bw, filler, NA, 999, 999, 7, 21, 193, 174, 122, 93, 76, 140, 1, 0.847502
305, 1, bw, filler, NA, 999, 999, 7, 21, 193, 174, 122, 93, 76, 140, 2, 0.964631
305, 1, bw, attraction, a-b-da, 5, 1, 7, 22, 135, 60, 132, 58, 60, 135, 3, 0.971741
305, 1, bw, attraction, a-b-da, 5, 1, 7, 22, 135, 60, 132, 58, 60, 135, 2, 0.411319
305, 1, bw, attraction, a-b-db, 2, 1, 7, 23, 59, 134, 135, 60, 60, 135, 1, 1.80045
305, 1, bw, attraction, a-b-db, 2, 1, 7, 23, 59, 134, 135, 60, 60, 135, 2, 0.599249
305, 1, bw, attraction, a-b-db, 2, 2, 7, 24, 90, 165, 89, 163, 165, 90, 2, 0.884909
305, 1, bw, attraction, a-b-db, 2, 2, 7, 24, 90, 165, 89, 163, 165, 90, 3, 0.640557
305, 1, bw, catch, NA, 999, 999, 7, 25, 170, 145, 62, 133, 124, 131, 1, 0.652309
305, 1, bw, catch, NA, 999, 999, 7, 25, 170, 145, 62, 133, 124, 131, 2, 1.05748
305, 1, bw, filler, NA, 999, 999, 7, 26, 96, 124, 167, 165, 172, 102, 2, 0.564339
305, 1, bw, filler, NA, 999, 999, 7, 26, 96, 124, 167, 165, 172, 102, 1, 0.476821
305, 1, bw, attraction, a-b-db, 14, 3, 7, 27, 120, 195, 195, 120, 111, 181, 1, 1.77531
305, 1, bw, attraction, a-b-db, 14, 3, 7, 27, 120, 195, 195, 120, 111, 181, 2, 0.406717
305, 1, bw, attraction, a-b-da, 9, 1, 7, 28, 135, 60, 129, 57, 60, 135, 3, 1.83594
305, 1, bw, attraction, a-b-da, 9, 1, 7, 28, 135, 60, 129, 57, 60, 135, 2, 0.425344
305, 1, bw, catch, NA, 999, 999, 7, 29, 127, 68, 117, 138, 192, 123, 3, 1.81378
305, 1, bw, catch, NA, 999, 999, 7, 29, 127, 68, 117, 138, 192, 123, 1, 0.595828
305, 1, bw, attraction, a-b-db, 9, 1, 7, 30, 57, 129, 60, 135, 135, 60, 2, 0.753515
305, 1, bw, attraction, a-b-db, 9, 1, 7, 30, 57, 129, 60, 135, 135, 60, 3, 0.57085
305, 1, bw, attraction, a-b-db, 5, 3, 7, 31, 195, 120, 120, 195, 117, 190, 2, 0.969748
305, 1, bw, attraction, a-b-db, 5, 3, 7, 31, 195, 120, 120, 195, 117, 190, 1, 0.402172
305, 1, bw, attraction, a-b-db, 5, 1, 7, 32, 60, 135, 135, 60, 58, 132, 3, 0.999874
305, 1, bw, attraction, a-b-db, 5, 1, 7, 32, 60, 135, 135, 60, 58, 132, 1, 0.550834
305, 1, bw, attraction, a-b-da, 14, 2, 7, 33, 153, 83, 165, 90, 90, 165, 2, 0.942629
305, 1, bw, attraction, a-b-da, 14, 2, 7, 33, 153, 83, 165, 90, 90, 165, 1, 0.415741
305, 1, bw, attraction, a-b-da, 2, 1, 7, 34, 60, 135, 135, 60, 134, 59, 1, 6.50094
305, 1, bw, attraction, a-b-da, 2, 1, 7, 34, 60, 135, 135, 60, 134, 59, 2, 0.53407
305, 1, bw, attraction, a-b-da, 2, 3, 7, 35, 120, 195, 195, 120, 193, 119, 1, 0.822658
305, 1, bw, attraction, a-b-da, 2, 3, 7, 35, 120, 195, 195, 120, 193, 119, 3, 0.860201
305, 1, bw, attraction, a-b-db, 9, 2, 7, 36, 165, 90, 90, 165, 86, 157, 2, 0.647236
305, 1, bw, attraction, a-b-db, 9, 2, 7, 36, 165, 90, 90, 165, 86, 157, 1, 0.444381
305, 1, bw, filler, NA, 999, 999, 7, 37, 164, 110, 127, 98, 145, 167, 3, 0.944158
305, 1, bw, filler, NA, 999, 999, 7, 37, 164, 110, 127, 98, 145, 167, 2, 0.377095
305, 1, bw, attraction, a-b-db, 9, 2, 8, 1, 86, 157, 165, 90, 90, 165, 2, 0.96757
305, 1, bw, attraction, a-b-db, 9, 2, 8, 1, 86, 157, 165, 90, 90, 165, 1, 0.34403
305, 1, bw, filler, NA, 999, 999, 8, 2, 161, 88, 67, 147, 71, 163, 3, 2.00806
305, 1, bw, filler, NA, 999, 999, 8, 2, 161, 88, 67, 147, 71, 163, 2, 0.541934
305, 1, bw, attraction, a-b-da, 9, 2, 8, 3, 90, 165, 157, 86, 165, 90, 1, 1.30158
305, 1, bw, attraction, a-b-da, 9, 2, 8, 3, 90, 165, 157, 86, 165, 90, 2, 0.56046
305, 1, bw, attraction, a-b-da, 14, 1, 8, 4, 125, 56, 60, 135, 135, 60, 2, 1.02372
305, 1, bw, attraction, a-b-da, 14, 1, 8, 4, 125, 56, 60, 135, 135, 60, 1, 0.501289
305, 1, bw, attraction, a-b-db, 9, 3, 8, 5, 114, 186, 195, 120, 120, 195, 1, 1.10301
305, 1, bw, attraction, a-b-db, 9, 3, 8, 5, 114, 186, 195, 120, 120, 195, 2, 0.497963
305, 1, bw, filler, NA, 999, 999, 8, 6, 129, 138, 111, 87, 167, 138, 3, 0.755732
305, 1, bw, filler, NA, 999, 999, 8, 6, 129, 138, 111, 87, 167, 138, 2, 0.588117
305, 1, bw, attraction, a-b-db, 5, 1, 8, 7, 135, 60, 58, 132, 60, 135, 2, 1.39459
305, 1, bw, attraction, a-b-db, 5, 1, 8, 7, 135, 60, 58, 132, 60, 135, 1, 0.441461
305, 1, bw, filler, NA, 999, 999, 8, 8, 92, 136, 164, 90, 71, 127, 2, 0.79744
305, 1, bw, filler, NA, 999, 999, 8, 8, 92, 136, 164, 90, 71, 127, 3, 0.348312
305, 1, bw, attraction, a-b-db, 5, 3, 8, 9, 195, 120, 120, 195, 117, 190, 2, 0.724153
305, 1, bw, attraction, a-b-db, 5, 3, 8, 9, 195, 120, 120, 195, 117, 190, 3, 0.669931
305, 1, bw, catch, NA, 999, 999, 8, 10, 145, 110, 118, 77, 173, 142, 3, 0.689164
305, 1, bw, catch, NA, 999, 999, 8, 10, 145, 110, 118, 77, 173, 142, 2, 0.43604
305, 1, bw, attraction, a-b-db, 14, 3, 8, 11, 120, 195, 111, 181, 195, 120, 2, 1.90465
305, 1, bw, attraction, a-b-db, 14, 3, 8, 11, 120, 195, 111, 181, 195, 120, 3, 0.651231
305, 1, bw, catch, NA, 999, 999, 8, 12, 140, 175, 93, 102, 136, 119, 1, 0.582939
305, 1, bw, catch, NA, 999, 999, 8, 12, 140, 175, 93, 102, 136, 119, 2, 0.414765
305, 1, bw, attraction, a-b-db, 2, 1, 8, 13, 59, 134, 60, 135, 135, 60, 2, 0.867978
305, 1, bw, attraction, a-b-db, 2, 1, 8, 13, 59, 134, 60, 135, 135, 60, 3, 0.480344
305, 1, bw, filler, NA, 999, 999, 8, 14, 131, 106, 66, 59, 160, 173, 3, 0.586877
305, 1, bw, filler, NA, 999, 999, 8, 14, 131, 106, 66, 59, 160, 173, 2, 0.746595
305, 1, bw, attraction, a-b-da, 5, 3, 8, 15, 120, 195, 195, 120, 190, 117, 2, 0.834237
305, 1, bw, attraction, a-b-da, 5, 3, 8, 15, 120, 195, 195, 120, 190, 117, 3, 0.504098
305, 1, bw, attraction, a-b-da, 5, 1, 8, 16, 132, 58, 60, 135, 135, 60, 2, 0.745779
305, 1, bw, attraction, a-b-da, 5, 1, 8, 16, 132, 58, 60, 135, 135, 60, 1, 0.762872
305, 1, bw, attraction, a-b-db, 2, 3, 8, 17, 120, 195, 195, 120, 119, 193, 1, 1.07395
305, 1, bw, attraction, a-b-db, 2, 3, 8, 17, 120, 195, 195, 120, 119, 193, 2, 0.589686
305, 1, bw, attraction, a-b-db, 2, 2, 8, 18, 89, 163, 165, 90, 90, 165, 1, 1.10791
305, 1, bw, attraction, a-b-db, 2, 2, 8, 18, 89, 163, 165, 90, 90, 165, 2, 0.502288
305, 1, bw, attraction, a-b-da, 5, 2, 8, 19, 161, 88, 165, 90, 90, 165, 3, 2.40002
305, 1, bw, attraction, a-b-da, 5, 2, 8, 19, 161, 88, 165, 90, 90, 165, 2, 0.406608
305, 1, bw, attraction, a-b-db, 9, 1, 8, 20, 60, 135, 57, 129, 135, 60, 2, 0.915691
305, 1, bw, attraction, a-b-db, 9, 1, 8, 20, 60, 135, 57, 129, 135, 60, 3, 0.502041
305, 1, bw, attraction, a-b-da, 9, 1, 8, 21, 135, 60, 60, 135, 129, 57, 2, 0.848023
305, 1, bw, attraction, a-b-da, 9, 1, 8, 21, 135, 60, 60, 135, 129, 57, 3, 0.476952
305, 1, bw, attraction, a-b-da, 2, 1, 8, 22, 60, 135, 134, 59, 135, 60, 1, 0.711362
305, 1, bw, attraction, a-b-da, 2, 1, 8, 22, 60, 135, 134, 59, 135, 60, 2, 0.561907
305, 1, bw, filler, NA, 999, 999, 8, 23, 179, 194, 167, 129, 127, 145, 1, 0.736838
305, 1, bw, filler, NA, 999, 999, 8, 23, 179, 194, 167, 129, 127, 145, 3, 1.01072
305, 1, bw, filler, NA, 999, 999, 8, 24, 139, 73, 146, 96, 56, 129, 2, 0.631551
305, 1, bw, filler, NA, 999, 999, 8, 24, 139, 73, 146, 96, 56, 129, 3, 0.429347
305, 1, bw, filler, NA, 999, 999, 8, 25, 132, 87, 91, 70, 86, 136, 1, 1.60177
305, 1, bw, filler, NA, 999, 999, 8, 25, 132, 87, 91, 70, 86, 136, 2, 0.5526
305, 1, bw, filler, NA, 999, 999, 8, 26, 153, 144, 158, 140, 121, 183, 1, 4.19243
305, 1, bw, filler, NA, 999, 999, 8, 26, 153, 144, 158, 140, 121, 183, 2, 0.470427
305, 1, bw, catch, NA, 999, 999, 8, 27, 97, 98, 181, 134, 121, 134, 2, 0.721613
305, 1, bw, catch, NA, 999, 999, 8, 27, 97, 98, 181, 134, 121, 134, 1, 0.427357
305, 1, bw, filler, NA, 999, 999, 8, 28, 161, 87, 117, 115, 99, 74, 2, 0.847829
305, 1, bw, filler, NA, 999, 999, 8, 28, 161, 87, 117, 115, 99, 74, 3, 0.580798
305, 1, bw, attraction, a-b-da, 14, 3, 8, 29, 195, 120, 181, 111, 120, 195, 3, 1.36321
305, 1, bw, attraction, a-b-da, 14, 3, 8, 29, 195, 120, 181, 111, 120, 195, 2, 0.363426
305, 1, bw, attraction, a-b-db, 14, 2, 8, 30, 83, 153, 90, 165, 165, 90, 2, 0.874639
305, 1, bw, attraction, a-b-db, 14, 2, 8, 30, 83, 153, 90, 165, 165, 90, 3, 0.486321
305, 1, bw, attraction, a-b-da, 14, 2, 8, 31, 165, 90, 153, 83, 90, 165, 3, 1.02472
305, 1, bw, attraction, a-b-da, 14, 2, 8, 31, 165, 90, 153, 83, 90, 165, 2, 0.326577
305, 1, bw, attraction, a-b-db, 14, 1, 8, 32, 60, 135, 56, 125, 135, 60, 2, 0.950857
305, 1, bw, attraction, a-b-db, 14, 1, 8, 32, 60, 135, 56, 125, 135, 60, 3, 0.495913
305, 1, bw, attraction, a-b-da, 2, 3, 8, 33, 195, 120, 193, 119, 120, 195, 3, 1.08971
305, 1, bw, attraction, a-b-da, 2, 3, 8, 33, 195, 120, 193, 119, 120, 195, 2, 0.340697
305, 1, bw, filler, NA, 999, 999, 8, 34, 116, 60, 91, 89, 191, 59, 3, 3.16453
305, 1, bw, filler, NA, 999, 999, 8, 34, 116, 60, 91, 89, 191, 59, 1, 0.476125
305, 1, bw, attraction, a-b-da, 9, 3, 8, 35, 120, 195, 195, 120, 186, 114, 2, 0.926605
305, 1, bw, attraction, a-b-da, 9, 3, 8, 35, 120, 195, 195, 120, 186, 114, 1, 0.672331
305, 1, bw, attraction, a-b-da, 2, 2, 8, 36, 165, 90, 90, 165, 163, 89, 2, 1.70738
305, 1, bw, attraction, a-b-da, 2, 2, 8, 36, 165, 90, 90, 165, 163, 89, 3, 0.4695
305, 1, bw, attraction, a-b-db, 5, 2, 8, 37, 88, 161, 90, 165, 165, 90, 3, 2.63274
305, 1, bw, attraction, a-b-db, 5, 2, 8, 37, 88, 161, 90, 165, 165, 90, 1, 0.581764
