sub_n, computer_n, bw_cond, effect, set, distance, diag, block_n, trial_n, h1, w1, h2, w2, h3, w3, choice, rt 
392, 1, wb, practice, NA, 999, 999, 0, 1, 103, 123, 173, 133, 162, 104, 1, 7.51696
392, 1, wb, practice, NA, 999, 999, 0, 1, 103, 123, 173, 133, 162, 104, 2, 2.9403
392, 1, wb, practice, NA, 999, 999, 0, 2, 104, 150, 129, 179, 118, 120, 3, 4.32272
392, 1, wb, practice, NA, 999, 999, 0, 2, 104, 150, 129, 179, 118, 120, 2, 1.34867
392, 1, wb, practice, NA, 999, 999, 0, 3, 95, 116, 106, 139, 62, 87, 3, 2.16162
392, 1, wb, practice, NA, 999, 999, 0, 3, 95, 116, 106, 139, 62, 87, 2, 1.22252
392, 1, wb, filler, NA, 999, 999, 1, 1, 109, 190, 158, 102, 192, 152, 2, 4.01827
392, 1, wb, filler, NA, 999, 999, 1, 1, 109, 190, 158, 102, 192, 152, 3, 1.10379
392, 1, wb, attraction, a-b-da, 9, 3, 1, 2, 186, 114, 195, 120, 120, 195, 1, 2.36943
392, 1, wb, attraction, a-b-da, 9, 3, 1, 2, 186, 114, 195, 120, 120, 195, 3, 1.68113
392, 1, wb, filler, NA, 999, 999, 1, 3, 182, 169, 161, 143, 81, 154, 3, 1.4433
392, 1, wb, filler, NA, 999, 999, 1, 3, 182, 169, 161, 143, 81, 154, 1, 1.05624
392, 1, wb, attraction, a-b-da, 5, 1, 1, 4, 60, 135, 135, 60, 132, 58, 3, 6.66777
392, 1, wb, attraction, a-b-da, 5, 1, 1, 4, 60, 135, 135, 60, 132, 58, 1, 0.550327
392, 1, wb, attraction, a-b-db, 14, 2, 1, 5, 165, 90, 90, 165, 83, 153, 3, 2.53408
392, 1, wb, attraction, a-b-db, 14, 2, 1, 5, 165, 90, 90, 165, 83, 153, 1, 1.48717
392, 1, wb, attraction, a-b-db, 2, 1, 1, 6, 60, 135, 59, 134, 135, 60, 2, 1.98546
392, 1, wb, attraction, a-b-db, 2, 1, 1, 6, 60, 135, 59, 134, 135, 60, 3, 1.08873
392, 1, wb, attraction, a-b-da, 14, 1, 1, 7, 125, 56, 60, 135, 135, 60, 1, 4.59504
392, 1, wb, attraction, a-b-da, 14, 1, 1, 7, 125, 56, 60, 135, 135, 60, 2, 3.40086
392, 1, wb, filler, NA, 999, 999, 1, 8, 78, 64, 153, 171, 81, 131, 1, 1.26179
392, 1, wb, filler, NA, 999, 999, 1, 8, 78, 64, 153, 171, 81, 131, 2, 0.770029
392, 1, wb, attraction, a-b-db, 14, 3, 1, 9, 111, 181, 195, 120, 120, 195, 1, 1.28102
392, 1, wb, attraction, a-b-db, 14, 3, 1, 9, 111, 181, 195, 120, 120, 195, 3, 0.700628
392, 1, wb, attraction, a-b-da, 2, 3, 1, 10, 195, 120, 193, 119, 120, 195, 2, 1.69429
392, 1, wb, attraction, a-b-da, 2, 3, 1, 10, 195, 120, 193, 119, 120, 195, 1, 2.52127
392, 1, wb, attraction, a-b-db, 5, 1, 1, 11, 58, 132, 60, 135, 135, 60, 1, 2.80174
392, 1, wb, attraction, a-b-db, 5, 1, 1, 11, 58, 132, 60, 135, 135, 60, 2, 0.783996
392, 1, wb, attraction, a-b-db, 9, 3, 1, 12, 120, 195, 195, 120, 114, 186, 3, 2.27843
392, 1, wb, attraction, a-b-db, 9, 3, 1, 12, 120, 195, 195, 120, 114, 186, 1, 3.47368
392, 1, wb, filler, NA, 999, 999, 1, 13, 167, 126, 78, 58, 105, 139, 2, 1.33186
392, 1, wb, filler, NA, 999, 999, 1, 13, 167, 126, 78, 58, 105, 139, 1, 0.549411
392, 1, wb, catch, NA, 999, 999, 1, 14, 156, 99, 158, 157, 60, 135, 3, 0.949193
392, 1, wb, catch, NA, 999, 999, 1, 14, 156, 99, 158, 157, 60, 135, 2, 0.574199
392, 1, wb, attraction, a-b-da, 9, 2, 1, 15, 157, 86, 165, 90, 90, 165, 1, 2.03661
392, 1, wb, attraction, a-b-da, 9, 2, 1, 15, 157, 86, 165, 90, 90, 165, 2, 1.46588
392, 1, wb, attraction, a-b-db, 5, 2, 1, 16, 88, 161, 165, 90, 90, 165, 2, 3.35684
392, 1, wb, attraction, a-b-db, 5, 2, 1, 16, 88, 161, 165, 90, 90, 165, 1, 1.06044
392, 1, wb, filler, NA, 999, 999, 1, 17, 139, 143, 173, 112, 132, 156, 2, 3.43932
392, 1, wb, filler, NA, 999, 999, 1, 17, 139, 143, 173, 112, 132, 156, 1, 0.507517
392, 1, wb, attraction, a-b-db, 2, 3, 1, 18, 120, 195, 195, 120, 119, 193, 2, 2.93257
392, 1, wb, attraction, a-b-db, 2, 3, 1, 18, 120, 195, 195, 120, 119, 193, 1, 0.629879
392, 1, wb, attraction, a-b-db, 14, 1, 1, 19, 56, 125, 135, 60, 60, 135, 1, 3.24211
392, 1, wb, attraction, a-b-db, 14, 1, 1, 19, 56, 125, 135, 60, 60, 135, 2, 1.0464
392, 1, wb, attraction, a-b-da, 5, 3, 1, 20, 190, 117, 195, 120, 120, 195, 3, 1.28208
392, 1, wb, attraction, a-b-da, 5, 3, 1, 20, 190, 117, 195, 120, 120, 195, 1, 1.1816
392, 1, wb, attraction, a-b-da, 5, 2, 1, 21, 90, 165, 161, 88, 165, 90, 2, 1.64384
392, 1, wb, attraction, a-b-da, 5, 2, 1, 21, 90, 165, 161, 88, 165, 90, 1, 0.664609
392, 1, wb, filler, NA, 999, 999, 1, 22, 187, 163, 185, 137, 90, 130, 3, 0.819665
392, 1, wb, filler, NA, 999, 999, 1, 22, 187, 163, 185, 137, 90, 130, 1, 1.258
392, 1, wb, filler, NA, 999, 999, 1, 23, 95, 56, 146, 133, 147, 57, 1, 1.14885
392, 1, wb, filler, NA, 999, 999, 1, 23, 95, 56, 146, 133, 147, 57, 2, 0.613847
392, 1, wb, attraction, a-b-db, 5, 3, 1, 24, 117, 190, 120, 195, 195, 120, 1, 2.147
392, 1, wb, attraction, a-b-db, 5, 3, 1, 24, 117, 190, 120, 195, 195, 120, 3, 1.22779
392, 1, wb, attraction, a-b-db, 9, 1, 1, 25, 57, 129, 135, 60, 60, 135, 1, 3.50386
392, 1, wb, attraction, a-b-db, 9, 1, 1, 25, 57, 129, 135, 60, 60, 135, 2, 0.458034
392, 1, wb, attraction, a-b-da, 2, 1, 1, 26, 60, 135, 134, 59, 135, 60, 2, 2.0372
392, 1, wb, attraction, a-b-da, 2, 1, 1, 26, 60, 135, 134, 59, 135, 60, 1, 0.834497
392, 1, wb, filler, NA, 999, 999, 1, 27, 66, 148, 177, 57, 189, 97, 1, 2.34298
392, 1, wb, filler, NA, 999, 999, 1, 27, 66, 148, 177, 57, 189, 97, 3, 0.895481
392, 1, wb, attraction, a-b-da, 14, 2, 1, 28, 90, 165, 165, 90, 153, 83, 3, 1.8012
392, 1, wb, attraction, a-b-da, 14, 2, 1, 28, 90, 165, 165, 90, 153, 83, 2, 0.55988
392, 1, wb, catch, NA, 999, 999, 1, 29, 149, 106, 186, 129, 86, 109, 3, 1.01488
392, 1, wb, catch, NA, 999, 999, 1, 29, 149, 106, 186, 129, 86, 109, 2, 0.717334
392, 1, wb, filler, NA, 999, 999, 1, 30, 82, 121, 172, 130, 84, 138, 3, 1.6463
392, 1, wb, filler, NA, 999, 999, 1, 30, 82, 121, 172, 130, 84, 138, 2, 0.763191
392, 1, wb, attraction, a-b-db, 2, 2, 1, 31, 165, 90, 90, 165, 89, 163, 3, 4.57819
392, 1, wb, attraction, a-b-db, 2, 2, 1, 31, 165, 90, 90, 165, 89, 163, 1, 0.768674
392, 1, wb, attraction, a-b-da, 14, 3, 1, 32, 181, 111, 195, 120, 120, 195, 1, 1.9037
392, 1, wb, attraction, a-b-da, 14, 3, 1, 32, 181, 111, 195, 120, 120, 195, 3, 0.730583
392, 1, wb, filler, NA, 999, 999, 1, 33, 159, 169, 76, 97, 116, 182, 2, 0.890854
392, 1, wb, filler, NA, 999, 999, 1, 33, 159, 169, 76, 97, 116, 182, 1, 1.24586
392, 1, wb, attraction, a-b-da, 9, 1, 1, 34, 129, 57, 60, 135, 135, 60, 1, 2.60937
392, 1, wb, attraction, a-b-da, 9, 1, 1, 34, 129, 57, 60, 135, 135, 60, 2, 0.66324
392, 1, wb, attraction, a-b-db, 9, 2, 1, 35, 90, 165, 86, 157, 165, 90, 2, 1.85032
392, 1, wb, attraction, a-b-db, 9, 2, 1, 35, 90, 165, 86, 157, 165, 90, 3, 1.14307
392, 1, wb, catch, NA, 999, 999, 1, 36, 161, 154, 141, 114, 102, 93, 3, 0.88666
392, 1, wb, catch, NA, 999, 999, 1, 36, 161, 154, 141, 114, 102, 93, 1, 0.826341
392, 1, wb, attraction, a-b-da, 2, 2, 1, 37, 163, 89, 90, 165, 165, 90, 1, 4.0307
392, 1, wb, attraction, a-b-da, 2, 2, 1, 37, 163, 89, 90, 165, 165, 90, 2, 0.547429
392, 1, wb, attraction, a-b-da, 5, 1, 2, 1, 135, 60, 60, 135, 132, 58, 3, 1.53916
392, 1, wb, attraction, a-b-da, 5, 1, 2, 1, 135, 60, 60, 135, 132, 58, 2, 0.596086
392, 1, wb, attraction, a-b-da, 9, 2, 2, 2, 157, 86, 90, 165, 165, 90, 1, 3.34578
392, 1, wb, attraction, a-b-da, 9, 2, 2, 2, 157, 86, 90, 165, 165, 90, 2, 0.642035
392, 1, wb, attraction, a-b-da, 2, 3, 2, 3, 195, 120, 193, 119, 120, 195, 2, 5.02177
392, 1, wb, attraction, a-b-da, 2, 3, 2, 3, 195, 120, 193, 119, 120, 195, 3, 0.60279
392, 1, wb, attraction, a-b-db, 2, 3, 2, 4, 120, 195, 119, 193, 195, 120, 1, 2.10452
392, 1, wb, attraction, a-b-db, 2, 3, 2, 4, 120, 195, 119, 193, 195, 120, 3, 2.16254
392, 1, wb, filler, NA, 999, 999, 2, 5, 142, 183, 59, 60, 74, 72, 2, 1.63307
392, 1, wb, filler, NA, 999, 999, 2, 5, 142, 183, 59, 60, 74, 72, 1, 0.990569
392, 1, wb, attraction, a-b-da, 9, 3, 2, 6, 195, 120, 186, 114, 120, 195, 2, 2.22841
392, 1, wb, attraction, a-b-da, 9, 3, 2, 6, 195, 120, 186, 114, 120, 195, 3, 1.36947
392, 1, wb, filler, NA, 999, 999, 2, 7, 123, 136, 97, 102, 175, 76, 2, 1.90435
392, 1, wb, filler, NA, 999, 999, 2, 7, 123, 136, 97, 102, 175, 76, 3, 0.923089
392, 1, wb, attraction, a-b-db, 14, 1, 2, 8, 60, 135, 56, 125, 135, 60, 1, 3.2361
392, 1, wb, attraction, a-b-db, 14, 1, 2, 8, 60, 135, 56, 125, 135, 60, 3, 1.92109
392, 1, wb, attraction, a-b-da, 2, 2, 2, 9, 165, 90, 90, 165, 163, 89, 3, 1.98566
392, 1, wb, attraction, a-b-da, 2, 2, 2, 9, 165, 90, 90, 165, 163, 89, 1, 2.04106
392, 1, wb, attraction, a-b-db, 9, 2, 2, 10, 86, 157, 90, 165, 165, 90, 3, 2.68442
392, 1, wb, attraction, a-b-db, 9, 2, 2, 10, 86, 157, 90, 165, 165, 90, 2, 0.735543
392, 1, wb, attraction, a-b-da, 2, 1, 2, 11, 60, 135, 134, 59, 135, 60, 2, 2.5679
392, 1, wb, attraction, a-b-da, 2, 1, 2, 11, 60, 135, 134, 59, 135, 60, 3, 2.34384
392, 1, wb, filler, NA, 999, 999, 2, 12, 96, 134, 195, 106, 107, 98, 3, 1.67089
392, 1, wb, filler, NA, 999, 999, 2, 12, 96, 134, 195, 106, 107, 98, 2, 0.563029
392, 1, wb, attraction, a-b-da, 14, 1, 2, 13, 60, 135, 125, 56, 135, 60, 3, 1.22605
392, 1, wb, attraction, a-b-da, 14, 1, 2, 13, 60, 135, 125, 56, 135, 60, 1, 2.90379
392, 1, wb, attraction, a-b-da, 14, 2, 2, 14, 153, 83, 165, 90, 90, 165, 1, 1.53677
392, 1, wb, attraction, a-b-da, 14, 2, 2, 14, 153, 83, 165, 90, 90, 165, 2, 0.962339
392, 1, wb, attraction, a-b-da, 5, 2, 2, 15, 161, 88, 165, 90, 90, 165, 1, 1.75344
392, 1, wb, attraction, a-b-da, 5, 2, 2, 15, 161, 88, 165, 90, 90, 165, 3, 0.689955
392, 1, wb, filler, NA, 999, 999, 2, 16, 56, 154, 194, 152, 186, 143, 1, 1.05173
392, 1, wb, filler, NA, 999, 999, 2, 16, 56, 154, 194, 152, 186, 143, 2, 0.680632
392, 1, wb, attraction, a-b-db, 14, 3, 2, 17, 195, 120, 111, 181, 120, 195, 2, 1.66709
392, 1, wb, attraction, a-b-db, 14, 3, 2, 17, 195, 120, 111, 181, 120, 195, 1, 0.999272
392, 1, wb, attraction, a-b-db, 5, 2, 2, 18, 165, 90, 88, 161, 90, 165, 2, 2.49285
392, 1, wb, attraction, a-b-db, 5, 2, 2, 18, 165, 90, 88, 161, 90, 165, 1, 0.6714
392, 1, wb, attraction, a-b-db, 5, 3, 2, 19, 195, 120, 117, 190, 120, 195, 3, 2.14639
392, 1, wb, attraction, a-b-db, 5, 3, 2, 19, 195, 120, 117, 190, 120, 195, 1, 0.803079
392, 1, wb, filler, NA, 999, 999, 2, 20, 122, 142, 134, 70, 160, 109, 2, 1.03276
392, 1, wb, filler, NA, 999, 999, 2, 20, 122, 142, 134, 70, 160, 109, 3, 0.822408
392, 1, wb, attraction, a-b-da, 9, 1, 2, 21, 129, 57, 135, 60, 60, 135, 1, 2.68338
392, 1, wb, attraction, a-b-da, 9, 1, 2, 21, 129, 57, 135, 60, 60, 135, 3, 0.822562
392, 1, wb, attraction, a-b-db, 2, 1, 2, 22, 59, 134, 135, 60, 60, 135, 3, 1.99559
392, 1, wb, attraction, a-b-db, 2, 1, 2, 22, 59, 134, 135, 60, 60, 135, 1, 1.19423
392, 1, wb, catch, NA, 999, 999, 2, 23, 140, 115, 79, 116, 156, 159, 2, 0.951758
392, 1, wb, catch, NA, 999, 999, 2, 23, 140, 115, 79, 116, 156, 159, 3, 0.840822
392, 1, wb, filler, NA, 999, 999, 2, 24, 136, 158, 156, 188, 75, 185, 3, 2.7805
392, 1, wb, filler, NA, 999, 999, 2, 24, 136, 158, 156, 188, 75, 185, 2, 0.675772
392, 1, wb, catch, NA, 999, 999, 2, 25, 92, 163, 95, 100, 176, 139, 2, 1.60609
392, 1, wb, catch, NA, 999, 999, 2, 25, 92, 163, 95, 100, 176, 139, 3, 0.532356
392, 1, wb, filler, NA, 999, 999, 2, 26, 165, 62, 71, 134, 65, 133, 3, 2.91659
392, 1, wb, filler, NA, 999, 999, 2, 26, 165, 62, 71, 134, 65, 133, 1, 0.974321
392, 1, wb, attraction, a-b-db, 5, 1, 2, 27, 58, 132, 135, 60, 60, 135, 1, 2.15659
392, 1, wb, attraction, a-b-db, 5, 1, 2, 27, 58, 132, 135, 60, 60, 135, 2, 1.72466
392, 1, wb, attraction, a-b-db, 9, 1, 2, 28, 135, 60, 60, 135, 57, 129, 3, 1.26062
392, 1, wb, attraction, a-b-db, 9, 1, 2, 28, 135, 60, 60, 135, 57, 129, 1, 0.672952
392, 1, wb, filler, NA, 999, 999, 2, 29, 170, 182, 76, 138, 142, 140, 2, 1.98787
392, 1, wb, filler, NA, 999, 999, 2, 29, 170, 182, 76, 138, 142, 140, 1, 0.715265
392, 1, wb, attraction, a-b-db, 2, 2, 2, 30, 89, 163, 90, 165, 165, 90, 3, 2.70042
392, 1, wb, attraction, a-b-db, 2, 2, 2, 30, 89, 163, 90, 165, 165, 90, 2, 0.823026
392, 1, wb, filler, NA, 999, 999, 2, 31, 113, 180, 101, 104, 171, 81, 2, 2.60388
392, 1, wb, filler, NA, 999, 999, 2, 31, 113, 180, 101, 104, 171, 81, 1, 7.50657
392, 1, wb, attraction, a-b-da, 5, 3, 2, 32, 120, 195, 190, 117, 195, 120, 2, 4.92195
392, 1, wb, attraction, a-b-da, 5, 3, 2, 32, 120, 195, 190, 117, 195, 120, 1, 1.13907
392, 1, wb, attraction, a-b-db, 9, 3, 2, 33, 120, 195, 114, 186, 195, 120, 3, 2.55538
392, 1, wb, attraction, a-b-db, 9, 3, 2, 33, 120, 195, 114, 186, 195, 120, 1, 1.49918
392, 1, wb, attraction, a-b-db, 14, 2, 2, 34, 83, 153, 90, 165, 165, 90, 1, 7.60457
392, 1, wb, attraction, a-b-db, 14, 2, 2, 34, 83, 153, 90, 165, 165, 90, 2, 1.39358
392, 1, wb, catch, NA, 999, 999, 2, 35, 103, 152, 181, 134, 122, 73, 3, 1.72712
392, 1, wb, catch, NA, 999, 999, 2, 35, 103, 152, 181, 134, 122, 73, 2, 1.40848
392, 1, wb, attraction, a-b-da, 14, 3, 2, 36, 195, 120, 181, 111, 120, 195, 2, 1.94934
392, 1, wb, attraction, a-b-da, 14, 3, 2, 36, 195, 120, 181, 111, 120, 195, 1, 1.19012
392, 1, wb, filler, NA, 999, 999, 2, 37, 73, 180, 143, 182, 62, 104, 3, 2.00363
392, 1, wb, filler, NA, 999, 999, 2, 37, 73, 180, 143, 182, 62, 104, 2, 0.5863
392, 1, wb, filler, NA, 999, 999, 3, 1, 152, 177, 155, 122, 70, 115, 3, 1.21668
392, 1, wb, filler, NA, 999, 999, 3, 1, 152, 177, 155, 122, 70, 115, 1, 0.919112
392, 1, wb, attraction, a-b-da, 5, 2, 3, 2, 161, 88, 90, 165, 165, 90, 3, 1.936
392, 1, wb, attraction, a-b-da, 5, 2, 3, 2, 161, 88, 90, 165, 165, 90, 2, 0.513411
392, 1, wb, attraction, a-b-da, 2, 3, 3, 3, 195, 120, 120, 195, 193, 119, 3, 1.14646
392, 1, wb, attraction, a-b-da, 2, 3, 3, 3, 195, 120, 120, 195, 193, 119, 2, 0.987524
392, 1, wb, catch, NA, 999, 999, 3, 4, 165, 90, 128, 67, 129, 186, 2, 1.47376
392, 1, wb, catch, NA, 999, 999, 3, 4, 165, 90, 128, 67, 129, 186, 3, 0.613217
392, 1, wb, attraction, a-b-da, 14, 3, 3, 5, 181, 111, 120, 195, 195, 120, 1, 2.8262
392, 1, wb, attraction, a-b-da, 14, 3, 3, 5, 181, 111, 120, 195, 195, 120, 2, 0.911333
392, 1, wb, attraction, a-b-da, 5, 1, 3, 6, 135, 60, 60, 135, 132, 58, 3, 2.92837
392, 1, wb, attraction, a-b-da, 5, 1, 3, 6, 135, 60, 60, 135, 132, 58, 2, 0.585455
392, 1, wb, attraction, a-b-da, 2, 1, 3, 7, 135, 60, 60, 135, 134, 59, 3, 1.52788
392, 1, wb, attraction, a-b-da, 2, 1, 3, 7, 135, 60, 60, 135, 134, 59, 2, 0.705333
392, 1, wb, attraction, a-b-db, 9, 3, 3, 8, 114, 186, 195, 120, 120, 195, 2, 2.83501
392, 1, wb, attraction, a-b-db, 9, 3, 3, 8, 114, 186, 195, 120, 120, 195, 3, 0.504081
392, 1, wb, attraction, a-b-da, 14, 2, 3, 9, 90, 165, 165, 90, 153, 83, 3, 1.1939
392, 1, wb, attraction, a-b-da, 14, 2, 3, 9, 90, 165, 165, 90, 153, 83, 1, 0.760796
392, 1, wb, catch, NA, 999, 999, 3, 10, 94, 101, 141, 174, 164, 91, 1, 1.12797
392, 1, wb, catch, NA, 999, 999, 3, 10, 94, 101, 141, 174, 164, 91, 2, 0.601447
392, 1, wb, attraction, a-b-da, 14, 1, 3, 11, 125, 56, 60, 135, 135, 60, 3, 1.11929
392, 1, wb, attraction, a-b-da, 14, 1, 3, 11, 125, 56, 60, 135, 135, 60, 1, 0.657546
392, 1, wb, attraction, a-b-db, 5, 3, 3, 12, 117, 190, 120, 195, 195, 120, 3, 2.98065
392, 1, wb, attraction, a-b-db, 5, 3, 3, 12, 117, 190, 120, 195, 195, 120, 2, 0.563677
392, 1, wb, filler, NA, 999, 999, 3, 13, 148, 69, 132, 99, 177, 82, 1, 2.01877
392, 1, wb, filler, NA, 999, 999, 3, 13, 148, 69, 132, 99, 177, 82, 2, 1.23279
392, 1, wb, attraction, a-b-db, 14, 1, 3, 14, 135, 60, 56, 125, 60, 135, 2, 1.62106
392, 1, wb, attraction, a-b-db, 14, 1, 3, 14, 135, 60, 56, 125, 60, 135, 1, 3.92249
392, 1, wb, filler, NA, 999, 999, 3, 15, 140, 152, 68, 78, 163, 111, 2, 1.05045
392, 1, wb, filler, NA, 999, 999, 3, 15, 140, 152, 68, 78, 163, 111, 1, 2.29549
392, 1, wb, attraction, a-b-da, 9, 1, 3, 16, 129, 57, 135, 60, 60, 135, 3, 0.816715
392, 1, wb, attraction, a-b-da, 9, 1, 3, 16, 129, 57, 135, 60, 60, 135, 2, 1.24715
392, 1, wb, filler, NA, 999, 999, 3, 17, 95, 81, 186, 113, 125, 152, 1, 1.81862
392, 1, wb, filler, NA, 999, 999, 3, 17, 95, 81, 186, 113, 125, 152, 2, 0.896902
392, 1, wb, filler, NA, 999, 999, 3, 18, 165, 130, 63, 145, 100, 78, 3, 0.8825
392, 1, wb, filler, NA, 999, 999, 3, 18, 165, 130, 63, 145, 100, 78, 1, 0.590089
392, 1, wb, filler, NA, 999, 999, 3, 19, 131, 188, 121, 119, 157, 173, 2, 4.37192
392, 1, wb, filler, NA, 999, 999, 3, 19, 131, 188, 121, 119, 157, 173, 3, 1.53863
392, 1, wb, filler, NA, 999, 999, 3, 20, 87, 86, 132, 94, 89, 172, 1, 1.00264
392, 1, wb, filler, NA, 999, 999, 3, 20, 87, 86, 132, 94, 89, 172, 3, 1.36964
392, 1, wb, attraction, a-b-da, 9, 2, 3, 21, 165, 90, 90, 165, 157, 86, 3, 2.06448
392, 1, wb, attraction, a-b-da, 9, 2, 3, 21, 165, 90, 90, 165, 157, 86, 2, 1.21255
392, 1, wb, attraction, a-b-db, 2, 3, 3, 22, 195, 120, 120, 195, 119, 193, 3, 1.55338
392, 1, wb, attraction, a-b-db, 2, 3, 3, 22, 195, 120, 120, 195, 119, 193, 1, 0.698158
392, 1, wb, attraction, a-b-db, 14, 3, 3, 23, 195, 120, 120, 195, 111, 181, 3, 1.41204
392, 1, wb, attraction, a-b-db, 14, 3, 3, 23, 195, 120, 120, 195, 111, 181, 2, 0.546079
392, 1, wb, attraction, a-b-da, 9, 3, 3, 24, 195, 120, 186, 114, 120, 195, 3, 1.69787
392, 1, wb, attraction, a-b-da, 9, 3, 3, 24, 195, 120, 186, 114, 120, 195, 1, 0.580725
392, 1, wb, filler, NA, 999, 999, 3, 25, 107, 93, 192, 159, 83, 159, 1, 1.33107
392, 1, wb, filler, NA, 999, 999, 3, 25, 107, 93, 192, 159, 83, 159, 2, 0.628525
392, 1, wb, attraction, a-b-db, 14, 2, 3, 26, 165, 90, 90, 165, 83, 153, 3, 0.904964
392, 1, wb, attraction, a-b-db, 14, 2, 3, 26, 165, 90, 90, 165, 83, 153, 1, 0.811432
392, 1, wb, attraction, a-b-db, 2, 2, 3, 27, 90, 165, 89, 163, 165, 90, 3, 0.744341
392, 1, wb, attraction, a-b-db, 2, 2, 3, 27, 90, 165, 89, 163, 165, 90, 2, 0.825457
392, 1, wb, attraction, a-b-db, 5, 2, 3, 28, 165, 90, 90, 165, 88, 161, 1, 2.18182
392, 1, wb, attraction, a-b-db, 5, 2, 3, 28, 165, 90, 90, 165, 88, 161, 2, 0.757055
392, 1, wb, filler, NA, 999, 999, 3, 29, 84, 109, 158, 64, 114, 134, 2, 1.50017
392, 1, wb, filler, NA, 999, 999, 3, 29, 84, 109, 158, 64, 114, 134, 3, 0.903201
392, 1, wb, attraction, a-b-db, 2, 1, 3, 30, 135, 60, 59, 134, 60, 135, 3, 0.960678
392, 1, wb, attraction, a-b-db, 2, 1, 3, 30, 135, 60, 59, 134, 60, 135, 2, 0.985144
392, 1, wb, attraction, a-b-db, 5, 1, 3, 31, 135, 60, 60, 135, 58, 132, 3, 0.73524
392, 1, wb, attraction, a-b-db, 5, 1, 3, 31, 135, 60, 60, 135, 58, 132, 1, 0.881054
392, 1, wb, attraction, a-b-db, 9, 2, 3, 32, 90, 165, 165, 90, 86, 157, 3, 0.691374
392, 1, wb, attraction, a-b-db, 9, 2, 3, 32, 90, 165, 165, 90, 86, 157, 1, 0.902486
392, 1, wb, attraction, a-b-db, 9, 1, 3, 33, 57, 129, 60, 135, 135, 60, 3, 0.888141
392, 1, wb, attraction, a-b-db, 9, 1, 3, 33, 57, 129, 60, 135, 135, 60, 2, 0.955157
392, 1, wb, attraction, a-b-da, 5, 3, 3, 34, 195, 120, 190, 117, 120, 195, 3, 2.50686
392, 1, wb, attraction, a-b-da, 5, 3, 3, 34, 195, 120, 190, 117, 120, 195, 1, 0.780882
392, 1, wb, attraction, a-b-da, 2, 2, 3, 35, 165, 90, 163, 89, 90, 165, 2, 1.66702
392, 1, wb, attraction, a-b-da, 2, 2, 3, 35, 165, 90, 163, 89, 90, 165, 3, 0.583095
392, 1, wb, catch, NA, 999, 999, 3, 36, 162, 153, 124, 71, 121, 134, 2, 1.15757
392, 1, wb, catch, NA, 999, 999, 3, 36, 162, 153, 124, 71, 121, 134, 1, 0.517764
392, 1, wb, filler, NA, 999, 999, 3, 37, 147, 181, 111, 131, 98, 87, 3, 1.06297
392, 1, wb, filler, NA, 999, 999, 3, 37, 147, 181, 111, 131, 98, 87, 1, 0.947263
392, 1, wb, attraction, a-b-da, 14, 2, 4, 1, 90, 165, 165, 90, 153, 83, 3, 2.06697
392, 1, wb, attraction, a-b-da, 14, 2, 4, 1, 90, 165, 165, 90, 153, 83, 1, 0.678912
392, 1, wb, attraction, a-b-db, 14, 1, 4, 2, 135, 60, 60, 135, 56, 125, 3, 1.51346
392, 1, wb, attraction, a-b-db, 14, 1, 4, 2, 135, 60, 60, 135, 56, 125, 1, 2.23541
392, 1, wb, attraction, a-b-db, 14, 3, 4, 3, 111, 181, 195, 120, 120, 195, 2, 5.30341
392, 1, wb, attraction, a-b-db, 14, 3, 4, 3, 111, 181, 195, 120, 120, 195, 3, 0.753049
392, 1, wb, attraction, a-b-db, 9, 1, 4, 4, 60, 135, 57, 129, 135, 60, 1, 3.60073
392, 1, wb, attraction, a-b-db, 9, 1, 4, 4, 60, 135, 57, 129, 135, 60, 3, 0.614851
392, 1, wb, attraction, a-b-db, 2, 3, 4, 5, 195, 120, 119, 193, 120, 195, 1, 2.23611
392, 1, wb, attraction, a-b-db, 2, 3, 4, 5, 195, 120, 119, 193, 120, 195, 3, 0.705236
392, 1, wb, attraction, a-b-db, 2, 1, 4, 6, 59, 134, 60, 135, 135, 60, 3, 1.10703
392, 1, wb, attraction, a-b-db, 2, 1, 4, 6, 59, 134, 60, 135, 135, 60, 2, 1.18937
392, 1, wb, filler, NA, 999, 999, 4, 7, 167, 151, 104, 69, 186, 100, 2, 1.26754
392, 1, wb, filler, NA, 999, 999, 4, 7, 167, 151, 104, 69, 186, 100, 1, 0.75983
392, 1, wb, filler, NA, 999, 999, 4, 8, 92, 80, 110, 187, 113, 74, 1, 2.31886
392, 1, wb, filler, NA, 999, 999, 4, 8, 92, 80, 110, 187, 113, 74, 2, 0.50476
392, 1, wb, attraction, a-b-da, 9, 1, 4, 9, 135, 60, 129, 57, 60, 135, 2, 2.28247
392, 1, wb, attraction, a-b-da, 9, 1, 4, 9, 135, 60, 129, 57, 60, 135, 1, 1.07775
392, 1, wb, filler, NA, 999, 999, 4, 10, 127, 91, 84, 130, 171, 98, 2, 2.35208
392, 1, wb, filler, NA, 999, 999, 4, 10, 127, 91, 84, 130, 171, 98, 3, 0.720603
392, 1, wb, catch, NA, 999, 999, 4, 11, 81, 114, 109, 146, 194, 121, 1, 0.849778
392, 1, wb, catch, NA, 999, 999, 4, 11, 81, 114, 109, 146, 194, 121, 3, 0.75869
392, 1, wb, attraction, a-b-da, 9, 2, 4, 12, 90, 165, 165, 90, 157, 86, 1, 8.06978
392, 1, wb, attraction, a-b-da, 9, 2, 4, 12, 90, 165, 165, 90, 157, 86, 2, 0.623865
392, 1, wb, attraction, a-b-da, 5, 2, 4, 13, 165, 90, 90, 165, 161, 88, 3, 1.78827
392, 1, wb, attraction, a-b-da, 5, 2, 4, 13, 165, 90, 90, 165, 161, 88, 1, 2.6758
392, 1, wb, attraction, a-b-da, 2, 1, 4, 14, 135, 60, 134, 59, 60, 135, 2, 1.47749
392, 1, wb, attraction, a-b-da, 2, 1, 4, 14, 135, 60, 134, 59, 60, 135, 3, 0.536934
392, 1, wb, attraction, a-b-da, 5, 3, 4, 15, 190, 117, 120, 195, 195, 120, 1, 5.92942
392, 1, wb, attraction, a-b-da, 5, 3, 4, 15, 190, 117, 120, 195, 195, 120, 2, 0.761536
392, 1, wb, attraction, a-b-da, 2, 3, 4, 16, 193, 119, 120, 195, 195, 120, 1, 2.96061
392, 1, wb, attraction, a-b-da, 2, 3, 4, 16, 193, 119, 120, 195, 195, 120, 2, 0.560282
392, 1, wb, filler, NA, 999, 999, 4, 17, 114, 116, 164, 123, 177, 81, 3, 3.83144
392, 1, wb, filler, NA, 999, 999, 4, 17, 114, 116, 164, 123, 177, 81, 2, 1.02817
392, 1, wb, attraction, a-b-da, 2, 2, 4, 18, 165, 90, 90, 165, 163, 89, 2, 2.64845
392, 1, wb, attraction, a-b-da, 2, 2, 4, 18, 165, 90, 90, 165, 163, 89, 1, 0.860994
392, 1, wb, filler, NA, 999, 999, 4, 19, 133, 137, 159, 102, 175, 78, 3, 1.56801
392, 1, wb, filler, NA, 999, 999, 4, 19, 133, 137, 159, 102, 175, 78, 1, 2.10416
392, 1, wb, attraction, a-b-db, 5, 2, 4, 20, 165, 90, 88, 161, 90, 165, 1, 2.12938
392, 1, wb, attraction, a-b-db, 5, 2, 4, 20, 165, 90, 88, 161, 90, 165, 3, 1.05066
392, 1, wb, filler, NA, 999, 999, 4, 21, 110, 60, 137, 129, 185, 116, 1, 1.05429
392, 1, wb, filler, NA, 999, 999, 4, 21, 110, 60, 137, 129, 185, 116, 3, 1.45135
392, 1, wb, filler, NA, 999, 999, 4, 22, 177, 150, 76, 148, 154, 66, 3, 1.0148
392, 1, wb, filler, NA, 999, 999, 4, 22, 177, 150, 76, 148, 154, 66, 1, 0.509125
392, 1, wb, catch, NA, 999, 999, 4, 23, 121, 74, 158, 97, 142, 173, 1, 1.49415
392, 1, wb, catch, NA, 999, 999, 4, 23, 121, 74, 158, 97, 142, 173, 3, 0.753036
392, 1, wb, attraction, a-b-da, 9, 3, 4, 24, 186, 114, 195, 120, 120, 195, 1, 2.88077
392, 1, wb, attraction, a-b-da, 9, 3, 4, 24, 186, 114, 195, 120, 120, 195, 3, 0.715792
392, 1, wb, filler, NA, 999, 999, 4, 25, 116, 183, 123, 72, 63, 62, 3, 1.18084
392, 1, wb, filler, NA, 999, 999, 4, 25, 116, 183, 123, 72, 63, 62, 1, 0.540412
392, 1, wb, attraction, a-b-db, 14, 2, 4, 26, 165, 90, 90, 165, 83, 153, 3, 1.81218
392, 1, wb, attraction, a-b-db, 14, 2, 4, 26, 165, 90, 90, 165, 83, 153, 1, 1.25024
392, 1, wb, attraction, a-b-da, 5, 1, 4, 27, 135, 60, 60, 135, 132, 58, 3, 1.99783
392, 1, wb, attraction, a-b-da, 5, 1, 4, 27, 135, 60, 60, 135, 132, 58, 2, 0.644476
392, 1, wb, filler, NA, 999, 999, 4, 28, 108, 68, 72, 147, 134, 119, 1, 1.5522
392, 1, wb, filler, NA, 999, 999, 4, 28, 108, 68, 72, 147, 134, 119, 3, 0.69708
392, 1, wb, filler, NA, 999, 999, 4, 29, 80, 121, 65, 144, 192, 98, 2, 2.46692
392, 1, wb, filler, NA, 999, 999, 4, 29, 80, 121, 65, 144, 192, 98, 3, 0.926777
392, 1, wb, attraction, a-b-db, 5, 1, 4, 30, 58, 132, 60, 135, 135, 60, 3, 1.375
392, 1, wb, attraction, a-b-db, 5, 1, 4, 30, 58, 132, 60, 135, 135, 60, 1, 0.790603
392, 1, wb, attraction, a-b-db, 9, 3, 4, 31, 114, 186, 195, 120, 120, 195, 3, 0.884218
392, 1, wb, attraction, a-b-db, 9, 3, 4, 31, 114, 186, 195, 120, 120, 195, 2, 0.687989
392, 1, wb, attraction, a-b-db, 5, 3, 4, 32, 117, 190, 195, 120, 120, 195, 3, 1.23432
392, 1, wb, attraction, a-b-db, 5, 3, 4, 32, 117, 190, 195, 120, 120, 195, 1, 0.959917
392, 1, wb, attraction, a-b-da, 14, 1, 4, 33, 125, 56, 135, 60, 60, 135, 3, 0.838895
392, 1, wb, attraction, a-b-da, 14, 1, 4, 33, 125, 56, 135, 60, 60, 135, 2, 0.499916
392, 1, wb, catch, NA, 999, 999, 4, 34, 96, 99, 171, 144, 143, 112, 1, 1.3498
392, 1, wb, catch, NA, 999, 999, 4, 34, 96, 99, 171, 144, 143, 112, 2, 1.2866
392, 1, wb, attraction, a-b-da, 14, 3, 4, 35, 181, 111, 195, 120, 120, 195, 3, 1.37684
392, 1, wb, attraction, a-b-da, 14, 3, 4, 35, 181, 111, 195, 120, 120, 195, 2, 0.552308
392, 1, wb, attraction, a-b-db, 9, 2, 4, 36, 86, 157, 90, 165, 165, 90, 1, 1.42414
392, 1, wb, attraction, a-b-db, 9, 2, 4, 36, 86, 157, 90, 165, 165, 90, 3, 1.98977
392, 1, wb, attraction, a-b-db, 2, 2, 4, 37, 89, 163, 165, 90, 90, 165, 1, 1.05966
392, 1, wb, attraction, a-b-db, 2, 2, 4, 37, 89, 163, 165, 90, 90, 165, 3, 0.928036
392, 1, wb, attraction, a-b-da, 5, 3, 5, 1, 195, 120, 120, 195, 190, 117, 3, 3.09487
392, 1, wb, attraction, a-b-da, 5, 3, 5, 1, 195, 120, 120, 195, 190, 117, 1, 1.46528
392, 1, wb, attraction, a-b-da, 2, 3, 5, 2, 193, 119, 195, 120, 120, 195, 3, 1.14811
392, 1, wb, attraction, a-b-da, 2, 3, 5, 2, 193, 119, 195, 120, 120, 195, 2, 0.396994
392, 1, wb, filler, NA, 999, 999, 5, 3, 61, 57, 71, 130, 93, 58, 1, 1.49881
392, 1, wb, filler, NA, 999, 999, 5, 3, 61, 57, 71, 130, 93, 58, 2, 1.23758
392, 1, wb, catch, NA, 999, 999, 5, 4, 95, 100, 179, 136, 106, 149, 1, 1.15399
392, 1, wb, catch, NA, 999, 999, 5, 4, 95, 100, 179, 136, 106, 149, 2, 0.706943
392, 1, wb, filler, NA, 999, 999, 5, 5, 87, 125, 182, 83, 89, 87, 3, 1.08388
392, 1, wb, filler, NA, 999, 999, 5, 5, 87, 125, 182, 83, 89, 87, 2, 0.719672
392, 1, wb, attraction, a-b-db, 9, 3, 5, 6, 114, 186, 120, 195, 195, 120, 1, 1.44054
392, 1, wb, attraction, a-b-db, 9, 3, 5, 6, 114, 186, 120, 195, 195, 120, 3, 0.909357
392, 1, wb, attraction, a-b-db, 9, 1, 5, 7, 135, 60, 57, 129, 60, 135, 2, 3.70244
392, 1, wb, attraction, a-b-db, 9, 1, 5, 7, 135, 60, 57, 129, 60, 135, 1, 0.856561
392, 1, wb, attraction, a-b-da, 5, 2, 5, 8, 165, 90, 90, 165, 161, 88, 3, 1.73967
392, 1, wb, attraction, a-b-da, 5, 2, 5, 8, 165, 90, 90, 165, 161, 88, 2, 0.668326
392, 1, wb, attraction, a-b-db, 5, 1, 5, 9, 135, 60, 60, 135, 58, 132, 1, 1.66347
392, 1, wb, attraction, a-b-db, 5, 1, 5, 9, 135, 60, 60, 135, 58, 132, 2, 0.763479
392, 1, wb, filler, NA, 999, 999, 5, 10, 163, 144, 67, 56, 108, 166, 2, 2.09853
392, 1, wb, filler, NA, 999, 999, 5, 10, 163, 144, 67, 56, 108, 166, 1, 1.25327
392, 1, wb, attraction, a-b-da, 5, 1, 5, 11, 135, 60, 60, 135, 132, 58, 3, 0.90488
392, 1, wb, attraction, a-b-da, 5, 1, 5, 11, 135, 60, 60, 135, 132, 58, 1, 0.683049
392, 1, wb, filler, NA, 999, 999, 5, 12, 116, 129, 125, 103, 145, 153, 2, 1.18149
392, 1, wb, filler, NA, 999, 999, 5, 12, 116, 129, 125, 103, 145, 153, 3, 0.669235
392, 1, wb, attraction, a-b-db, 2, 2, 5, 13, 89, 163, 165, 90, 90, 165, 2, 1.30419
392, 1, wb, attraction, a-b-db, 2, 2, 5, 13, 89, 163, 165, 90, 90, 165, 3, 0.603054
392, 1, wb, filler, NA, 999, 999, 5, 14, 168, 58, 56, 113, 82, 92, 2, 1.29682
392, 1, wb, filler, NA, 999, 999, 5, 14, 168, 58, 56, 113, 82, 92, 3, 0.811854
392, 1, wb, catch, NA, 999, 999, 5, 15, 123, 72, 122, 193, 141, 114, 1, 2.00078
392, 1, wb, catch, NA, 999, 999, 5, 15, 123, 72, 122, 193, 141, 114, 2, 1.04742
392, 1, wb, attraction, a-b-da, 14, 2, 5, 16, 153, 83, 165, 90, 90, 165, 3, 1.6591
392, 1, wb, attraction, a-b-da, 14, 2, 5, 16, 153, 83, 165, 90, 90, 165, 1, 0.743136
392, 1, wb, attraction, a-b-db, 14, 3, 5, 17, 111, 181, 120, 195, 195, 120, 3, 2.19888
392, 1, wb, attraction, a-b-db, 14, 3, 5, 17, 111, 181, 120, 195, 195, 120, 2, 0.47771
392, 1, wb, attraction, a-b-da, 2, 2, 5, 18, 90, 165, 163, 89, 165, 90, 3, 1.44793
392, 1, wb, attraction, a-b-da, 2, 2, 5, 18, 90, 165, 163, 89, 165, 90, 1, 0.460741
392, 1, wb, attraction, a-b-db, 2, 1, 5, 19, 60, 135, 135, 60, 59, 134, 1, 2.00797
392, 1, wb, attraction, a-b-db, 2, 1, 5, 19, 60, 135, 135, 60, 59, 134, 2, 0.814012
392, 1, wb, attraction, a-b-db, 2, 3, 5, 20, 195, 120, 120, 195, 119, 193, 1, 1.75503
392, 1, wb, attraction, a-b-db, 2, 3, 5, 20, 195, 120, 120, 195, 119, 193, 3, 0.651095
392, 1, wb, attraction, a-b-db, 5, 2, 5, 21, 90, 165, 88, 161, 165, 90, 3, 1.79887
392, 1, wb, attraction, a-b-db, 5, 2, 5, 21, 90, 165, 88, 161, 165, 90, 1, 0.725572
392, 1, wb, filler, NA, 999, 999, 5, 22, 145, 76, 115, 178, 69, 173, 3, 1.37392
392, 1, wb, filler, NA, 999, 999, 5, 22, 145, 76, 115, 178, 69, 173, 2, 0.533478
392, 1, wb, filler, NA, 999, 999, 5, 23, 170, 83, 148, 170, 178, 174, 1, 2.47786
392, 1, wb, filler, NA, 999, 999, 5, 23, 170, 83, 148, 170, 178, 174, 3, 0.793083
392, 1, wb, attraction, a-b-db, 14, 1, 5, 24, 56, 125, 60, 135, 135, 60, 3, 1.84688
392, 1, wb, attraction, a-b-db, 14, 1, 5, 24, 56, 125, 60, 135, 135, 60, 2, 0.491615
392, 1, wb, attraction, a-b-db, 5, 3, 5, 25, 195, 120, 117, 190, 120, 195, 1, 1.52534
392, 1, wb, attraction, a-b-db, 5, 3, 5, 25, 195, 120, 117, 190, 120, 195, 2, 0.662818
392, 1, wb, filler, NA, 999, 999, 5, 26, 141, 90, 89, 142, 142, 167, 2, 1.04992
392, 1, wb, filler, NA, 999, 999, 5, 26, 141, 90, 89, 142, 142, 167, 3, 0.486902
392, 1, wb, filler, NA, 999, 999, 5, 27, 143, 137, 183, 178, 170, 143, 1, 1.44136
392, 1, wb, filler, NA, 999, 999, 5, 27, 143, 137, 183, 178, 170, 143, 2, 0.550178
392, 1, wb, attraction, a-b-da, 2, 1, 5, 28, 60, 135, 135, 60, 134, 59, 3, 1.24594
392, 1, wb, attraction, a-b-da, 2, 1, 5, 28, 60, 135, 135, 60, 134, 59, 1, 0.994812
392, 1, wb, catch, NA, 999, 999, 5, 29, 119, 136, 83, 112, 178, 137, 2, 1.60853
392, 1, wb, catch, NA, 999, 999, 5, 29, 119, 136, 83, 112, 178, 137, 3, 0.742678
392, 1, wb, filler, NA, 999, 999, 5, 30, 135, 108, 94, 171, 167, 131, 1, 1.47826
392, 1, wb, filler, NA, 999, 999, 5, 30, 135, 108, 94, 171, 167, 131, 3, 0.993831
392, 1, wb, attraction, a-b-da, 9, 2, 5, 31, 165, 90, 157, 86, 90, 165, 2, 1.79153
392, 1, wb, attraction, a-b-da, 9, 2, 5, 31, 165, 90, 157, 86, 90, 165, 3, 0.726176
392, 1, wb, attraction, a-b-da, 9, 1, 5, 32, 129, 57, 135, 60, 60, 135, 3, 1.05459
392, 1, wb, attraction, a-b-da, 9, 1, 5, 32, 129, 57, 135, 60, 60, 135, 2, 1.13889
392, 1, wb, attraction, a-b-da, 9, 3, 5, 33, 186, 114, 195, 120, 120, 195, 1, 2.58715
392, 1, wb, attraction, a-b-da, 9, 3, 5, 33, 186, 114, 195, 120, 120, 195, 2, 1.21836
392, 1, wb, attraction, a-b-db, 9, 2, 5, 34, 90, 165, 86, 157, 165, 90, 3, 1.15125
392, 1, wb, attraction, a-b-db, 9, 2, 5, 34, 90, 165, 86, 157, 165, 90, 1, 1.75224
392, 1, wb, attraction, a-b-da, 14, 1, 5, 35, 135, 60, 60, 135, 125, 56, 3, 1.05552
392, 1, wb, attraction, a-b-da, 14, 1, 5, 35, 135, 60, 60, 135, 125, 56, 1, 1.47593
392, 1, wb, attraction, a-b-db, 14, 2, 5, 36, 83, 153, 165, 90, 90, 165, 3, 4.09406
392, 1, wb, attraction, a-b-db, 14, 2, 5, 36, 83, 153, 165, 90, 90, 165, 2, 0.528031
392, 1, wb, attraction, a-b-da, 14, 3, 5, 37, 195, 120, 181, 111, 120, 195, 2, 2.2805
392, 1, wb, attraction, a-b-da, 14, 3, 5, 37, 195, 120, 181, 111, 120, 195, 1, 0.81982
392, 1, wb, attraction, a-b-da, 14, 2, 6, 1, 153, 83, 165, 90, 90, 165, 1, 1.66519
392, 1, wb, attraction, a-b-da, 14, 2, 6, 1, 153, 83, 165, 90, 90, 165, 3, 1.47696
392, 1, wb, attraction, a-b-da, 5, 1, 6, 2, 60, 135, 135, 60, 132, 58, 3, 1.9751
392, 1, wb, attraction, a-b-da, 5, 1, 6, 2, 60, 135, 135, 60, 132, 58, 1, 0.702409
392, 1, wb, filler, NA, 999, 999, 6, 3, 165, 105, 166, 76, 173, 105, 2, 1.22413
392, 1, wb, filler, NA, 999, 999, 6, 3, 165, 105, 166, 76, 173, 105, 3, 0.677715
392, 1, wb, attraction, a-b-db, 9, 2, 6, 4, 165, 90, 86, 157, 90, 165, 3, 1.33609
392, 1, wb, attraction, a-b-db, 9, 2, 6, 4, 165, 90, 86, 157, 90, 165, 1, 0.697592
392, 1, wb, attraction, a-b-da, 5, 3, 6, 5, 120, 195, 195, 120, 190, 117, 2, 2.69944
392, 1, wb, attraction, a-b-da, 5, 3, 6, 5, 120, 195, 195, 120, 190, 117, 3, 0.837897
392, 1, wb, attraction, a-b-db, 14, 2, 6, 6, 90, 165, 165, 90, 83, 153, 2, 1.27421
392, 1, wb, attraction, a-b-db, 14, 2, 6, 6, 90, 165, 165, 90, 83, 153, 3, 0.733936
392, 1, wb, attraction, a-b-db, 5, 3, 6, 7, 120, 195, 117, 190, 195, 120, 3, 3.65413
392, 1, wb, attraction, a-b-db, 5, 3, 6, 7, 120, 195, 117, 190, 195, 120, 1, 1.33842
392, 1, wb, attraction, a-b-da, 9, 3, 6, 8, 195, 120, 120, 195, 186, 114, 3, 1.20258
392, 1, wb, attraction, a-b-da, 9, 3, 6, 8, 195, 120, 120, 195, 186, 114, 2, 1.04161
392, 1, wb, attraction, a-b-db, 5, 2, 6, 9, 88, 161, 165, 90, 90, 165, 2, 5.66112
392, 1, wb, attraction, a-b-db, 5, 2, 6, 9, 88, 161, 165, 90, 90, 165, 3, 0.791911
392, 1, wb, attraction, a-b-da, 14, 1, 6, 10, 125, 56, 60, 135, 135, 60, 1, 1.42155
392, 1, wb, attraction, a-b-da, 14, 1, 6, 10, 125, 56, 60, 135, 135, 60, 3, 1.44385
392, 1, wb, attraction, a-b-da, 9, 1, 6, 11, 129, 57, 60, 135, 135, 60, 1, 2.29531
392, 1, wb, attraction, a-b-da, 9, 1, 6, 11, 129, 57, 60, 135, 135, 60, 2, 0.545923
392, 1, wb, filler, NA, 999, 999, 6, 12, 98, 195, 80, 172, 89, 109, 3, 1.0737
392, 1, wb, filler, NA, 999, 999, 6, 12, 98, 195, 80, 172, 89, 109, 1, 0.677291
392, 1, wb, attraction, a-b-db, 14, 1, 6, 13, 56, 125, 135, 60, 60, 135, 1, 1.96782
392, 1, wb, attraction, a-b-db, 14, 1, 6, 13, 56, 125, 135, 60, 60, 135, 3, 0.799804
392, 1, wb, attraction, a-b-da, 2, 1, 6, 14, 135, 60, 134, 59, 60, 135, 3, 3.14151
392, 1, wb, attraction, a-b-da, 2, 1, 6, 14, 135, 60, 134, 59, 60, 135, 1, 1.36586
392, 1, wb, filler, NA, 999, 999, 6, 15, 162, 123, 131, 95, 185, 68, 3, 3.64467
392, 1, wb, filler, NA, 999, 999, 6, 15, 162, 123, 131, 95, 185, 68, 1, 0.91273
392, 1, wb, filler, NA, 999, 999, 6, 16, 136, 75, 177, 56, 133, 154, 2, 1.56984
392, 1, wb, filler, NA, 999, 999, 6, 16, 136, 75, 177, 56, 133, 154, 3, 0.881897
392, 1, wb, attraction, a-b-db, 2, 3, 6, 17, 119, 193, 195, 120, 120, 195, 2, 3.13227
392, 1, wb, attraction, a-b-db, 2, 3, 6, 17, 119, 193, 195, 120, 120, 195, 3, 0.693286
392, 1, wb, catch, NA, 999, 999, 6, 18, 164, 151, 88, 107, 154, 101, 2, 1.01496
392, 1, wb, catch, NA, 999, 999, 6, 18, 164, 151, 88, 107, 154, 101, 1, 0.541403
392, 1, wb, filler, NA, 999, 999, 6, 19, 146, 56, 88, 134, 72, 81, 3, 0.989075
392, 1, wb, filler, NA, 999, 999, 6, 19, 146, 56, 88, 134, 72, 81, 2, 1.57205
392, 1, wb, attraction, a-b-db, 2, 1, 6, 20, 60, 135, 135, 60, 59, 134, 2, 2.84284
392, 1, wb, attraction, a-b-db, 2, 1, 6, 20, 60, 135, 135, 60, 59, 134, 1, 0.495263
392, 1, wb, filler, NA, 999, 999, 6, 21, 147, 173, 91, 69, 135, 145, 2, 0.928964
392, 1, wb, filler, NA, 999, 999, 6, 21, 147, 173, 91, 69, 135, 145, 1, 0.930744
392, 1, wb, attraction, a-b-db, 9, 3, 6, 22, 120, 195, 195, 120, 114, 186, 3, 2.12324
392, 1, wb, attraction, a-b-db, 9, 3, 6, 22, 120, 195, 195, 120, 114, 186, 2, 0.436252
392, 1, wb, filler, NA, 999, 999, 6, 23, 71, 86, 138, 128, 65, 180, 1, 1.93682
392, 1, wb, filler, NA, 999, 999, 6, 23, 71, 86, 138, 128, 65, 180, 2, 0.530178
392, 1, wb, filler, NA, 999, 999, 6, 24, 137, 70, 78, 110, 72, 172, 2, 3.08273
392, 1, wb, filler, NA, 999, 999, 6, 24, 137, 70, 78, 110, 72, 172, 3, 0.997614
392, 1, wb, filler, NA, 999, 999, 6, 25, 181, 105, 191, 173, 83, 103, 3, 1.21932
392, 1, wb, filler, NA, 999, 999, 6, 25, 181, 105, 191, 173, 83, 103, 2, 1.17753
392, 1, wb, attraction, a-b-da, 5, 2, 6, 26, 90, 165, 161, 88, 165, 90, 3, 3.28788
392, 1, wb, attraction, a-b-da, 5, 2, 6, 26, 90, 165, 161, 88, 165, 90, 1, 0.6667
392, 1, wb, attraction, a-b-da, 14, 3, 6, 27, 120, 195, 195, 120, 181, 111, 3, 1.42189
392, 1, wb, attraction, a-b-da, 14, 3, 6, 27, 120, 195, 195, 120, 181, 111, 1, 0.955525
392, 1, wb, attraction, a-b-da, 2, 2, 6, 28, 163, 89, 165, 90, 90, 165, 2, 1.89092
392, 1, wb, attraction, a-b-da, 2, 2, 6, 28, 163, 89, 165, 90, 90, 165, 3, 0.525591
392, 1, wb, attraction, a-b-da, 2, 3, 6, 29, 195, 120, 120, 195, 193, 119, 1, 2.06204
392, 1, wb, attraction, a-b-da, 2, 3, 6, 29, 195, 120, 120, 195, 193, 119, 2, 0.522147
392, 1, wb, filler, NA, 999, 999, 6, 30, 132, 73, 151, 176, 121, 106, 1, 1.5713
392, 1, wb, filler, NA, 999, 999, 6, 30, 132, 73, 151, 176, 121, 106, 2, 0.642769
392, 1, wb, attraction, a-b-db, 2, 2, 6, 31, 165, 90, 90, 165, 89, 163, 3, 1.57439
392, 1, wb, attraction, a-b-db, 2, 2, 6, 31, 165, 90, 90, 165, 89, 163, 1, 0.709816
392, 1, wb, catch, NA, 999, 999, 6, 32, 61, 134, 183, 132, 104, 151, 1, 1.24702
392, 1, wb, catch, NA, 999, 999, 6, 32, 61, 134, 183, 132, 104, 151, 2, 0.563989
392, 1, wb, catch, NA, 999, 999, 6, 33, 98, 97, 177, 138, 99, 156, 1, 1.82692
392, 1, wb, catch, NA, 999, 999, 6, 33, 98, 97, 177, 138, 99, 156, 2, 0.512383
392, 1, wb, attraction, a-b-da, 9, 2, 6, 34, 165, 90, 157, 86, 90, 165, 2, 1.54553
392, 1, wb, attraction, a-b-da, 9, 2, 6, 34, 165, 90, 157, 86, 90, 165, 1, 0.890422
392, 1, wb, attraction, a-b-db, 9, 1, 6, 35, 57, 129, 60, 135, 135, 60, 3, 1.148
392, 1, wb, attraction, a-b-db, 9, 1, 6, 35, 57, 129, 60, 135, 135, 60, 1, 0.660973
392, 1, wb, attraction, a-b-db, 5, 1, 6, 36, 58, 132, 135, 60, 60, 135, 2, 1.00002
392, 1, wb, attraction, a-b-db, 5, 1, 6, 36, 58, 132, 135, 60, 60, 135, 1, 0.63093
392, 1, wb, attraction, a-b-db, 14, 3, 6, 37, 111, 181, 195, 120, 120, 195, 1, 2.30746
392, 1, wb, attraction, a-b-db, 14, 3, 6, 37, 111, 181, 195, 120, 120, 195, 3, 0.789339
392, 1, wb, attraction, a-b-da, 5, 2, 7, 1, 90, 165, 165, 90, 161, 88, 2, 1.20361
392, 1, wb, attraction, a-b-da, 5, 2, 7, 1, 90, 165, 165, 90, 161, 88, 3, 0.522743
392, 1, wb, attraction, a-b-da, 14, 3, 7, 2, 195, 120, 181, 111, 120, 195, 2, 1.74771
392, 1, wb, attraction, a-b-da, 14, 3, 7, 2, 195, 120, 181, 111, 120, 195, 3, 1.63653
392, 1, wb, attraction, a-b-da, 14, 1, 7, 3, 135, 60, 60, 135, 125, 56, 3, 1.63255
392, 1, wb, attraction, a-b-da, 14, 1, 7, 3, 135, 60, 60, 135, 125, 56, 2, 0.510005
392, 1, wb, filler, NA, 999, 999, 7, 4, 152, 152, 162, 94, 60, 82, 3, 1.78321
392, 1, wb, filler, NA, 999, 999, 7, 4, 152, 152, 162, 94, 60, 82, 1, 0.750764
392, 1, wb, attraction, a-b-da, 5, 3, 7, 5, 190, 117, 195, 120, 120, 195, 2, 1.41425
392, 1, wb, attraction, a-b-da, 5, 3, 7, 5, 190, 117, 195, 120, 120, 195, 3, 0.54051
392, 1, wb, attraction, a-b-db, 14, 3, 7, 6, 111, 181, 120, 195, 195, 120, 1, 1.99623
392, 1, wb, attraction, a-b-db, 14, 3, 7, 6, 111, 181, 120, 195, 195, 120, 3, 0.658963
392, 1, wb, attraction, a-b-db, 9, 3, 7, 7, 114, 186, 120, 195, 195, 120, 1, 1.2542
392, 1, wb, attraction, a-b-db, 9, 3, 7, 7, 114, 186, 120, 195, 195, 120, 2, 0.666264
392, 1, wb, attraction, a-b-da, 9, 3, 7, 8, 120, 195, 195, 120, 186, 114, 3, 1.30932
392, 1, wb, attraction, a-b-da, 9, 3, 7, 8, 120, 195, 195, 120, 186, 114, 1, 0.711561
392, 1, wb, filler, NA, 999, 999, 7, 9, 169, 136, 113, 131, 118, 68, 3, 0.720534
392, 1, wb, filler, NA, 999, 999, 7, 9, 169, 136, 113, 131, 118, 68, 1, 0.738372
392, 1, wb, filler, NA, 999, 999, 7, 10, 160, 164, 62, 167, 189, 96, 2, 1.26672
392, 1, wb, filler, NA, 999, 999, 7, 10, 160, 164, 62, 167, 189, 96, 1, 0.734914
392, 1, wb, filler, NA, 999, 999, 7, 11, 125, 89, 122, 98, 91, 111, 3, 1.01528
392, 1, wb, filler, NA, 999, 999, 7, 11, 125, 89, 122, 98, 91, 111, 1, 1.36569
392, 1, wb, attraction, a-b-db, 5, 3, 7, 12, 195, 120, 120, 195, 117, 190, 3, 1.08452
392, 1, wb, attraction, a-b-db, 5, 3, 7, 12, 195, 120, 120, 195, 117, 190, 1, 1.09643
392, 1, wb, attraction, a-b-da, 2, 1, 7, 13, 135, 60, 134, 59, 60, 135, 2, 1.72182
392, 1, wb, attraction, a-b-da, 2, 1, 7, 13, 135, 60, 134, 59, 60, 135, 3, 0.659218
392, 1, wb, filler, NA, 999, 999, 7, 14, 179, 125, 181, 136, 173, 171, 1, 2.64628
392, 1, wb, filler, NA, 999, 999, 7, 14, 179, 125, 181, 136, 173, 171, 3, 0.674799
392, 1, wb, catch, NA, 999, 999, 7, 15, 161, 94, 172, 143, 99, 96, 3, 1.03715
392, 1, wb, catch, NA, 999, 999, 7, 15, 161, 94, 172, 143, 99, 96, 2, 0.850756
392, 1, wb, filler, NA, 999, 999, 7, 16, 160, 168, 149, 174, 57, 138, 3, 0.918469
392, 1, wb, filler, NA, 999, 999, 7, 16, 160, 168, 149, 174, 57, 138, 1, 0.64886
392, 1, wb, attraction, a-b-db, 5, 1, 7, 17, 135, 60, 60, 135, 58, 132, 1, 1.91662
392, 1, wb, attraction, a-b-db, 5, 1, 7, 17, 135, 60, 60, 135, 58, 132, 2, 0.814723
392, 1, wb, attraction, a-b-da, 2, 3, 7, 18, 195, 120, 120, 195, 193, 119, 3, 1.88367
392, 1, wb, attraction, a-b-da, 2, 3, 7, 18, 195, 120, 120, 195, 193, 119, 2, 0.727013
392, 1, wb, attraction, a-b-da, 2, 2, 7, 19, 163, 89, 90, 165, 165, 90, 1, 2.03136
392, 1, wb, attraction, a-b-da, 2, 2, 7, 19, 163, 89, 90, 165, 165, 90, 3, 0.828884
392, 1, wb, attraction, a-b-db, 14, 1, 7, 20, 135, 60, 56, 125, 60, 135, 1, 2.39304
392, 1, wb, attraction, a-b-db, 14, 1, 7, 20, 135, 60, 56, 125, 60, 135, 3, 0.831636
392, 1, wb, attraction, a-b-da, 14, 2, 7, 21, 165, 90, 153, 83, 90, 165, 3, 2.77998
392, 1, wb, attraction, a-b-da, 14, 2, 7, 21, 165, 90, 153, 83, 90, 165, 1, 0.835135
392, 1, wb, attraction, a-b-db, 2, 1, 7, 22, 60, 135, 59, 134, 135, 60, 3, 1.27951
392, 1, wb, attraction, a-b-db, 2, 1, 7, 22, 60, 135, 59, 134, 135, 60, 2, 0.675102
392, 1, wb, attraction, a-b-db, 9, 1, 7, 23, 57, 129, 60, 135, 135, 60, 3, 1.70153
392, 1, wb, attraction, a-b-db, 9, 1, 7, 23, 57, 129, 60, 135, 135, 60, 2, 1.08024
392, 1, wb, filler, NA, 999, 999, 7, 24, 194, 172, 134, 97, 194, 93, 2, 1.7544
392, 1, wb, filler, NA, 999, 999, 7, 24, 194, 172, 134, 97, 194, 93, 1, 0.54651
392, 1, wb, catch, NA, 999, 999, 7, 25, 62, 133, 138, 177, 141, 114, 1, 1.11437
392, 1, wb, catch, NA, 999, 999, 7, 25, 62, 133, 138, 177, 141, 114, 2, 0.676688
392, 1, wb, filler, NA, 999, 999, 7, 26, 164, 179, 163, 161, 110, 137, 3, 1.01493
392, 1, wb, filler, NA, 999, 999, 7, 26, 164, 179, 163, 161, 110, 137, 1, 0.877276
392, 1, wb, filler, NA, 999, 999, 7, 27, 58, 161, 159, 107, 65, 188, 1, 1.59164
392, 1, wb, filler, NA, 999, 999, 7, 27, 58, 161, 159, 107, 65, 188, 2, 0.990422
392, 1, wb, attraction, a-b-db, 5, 2, 7, 28, 88, 161, 90, 165, 165, 90, 1, 2.97205
392, 1, wb, attraction, a-b-db, 5, 2, 7, 28, 88, 161, 90, 165, 165, 90, 2, 1.89985
392, 1, wb, attraction, a-b-da, 9, 2, 7, 29, 90, 165, 157, 86, 165, 90, 2, 3.18118
392, 1, wb, attraction, a-b-da, 9, 2, 7, 29, 90, 165, 157, 86, 165, 90, 1, 0.492197
392, 1, wb, attraction, a-b-db, 2, 3, 7, 30, 120, 195, 195, 120, 119, 193, 2, 3.66198
392, 1, wb, attraction, a-b-db, 2, 3, 7, 30, 120, 195, 195, 120, 119, 193, 3, 0.83343
392, 1, wb, filler, NA, 999, 999, 7, 31, 132, 62, 130, 149, 72, 59, 3, 1.1658
392, 1, wb, filler, NA, 999, 999, 7, 31, 132, 62, 130, 149, 72, 59, 2, 1.09404
392, 1, wb, attraction, a-b-da, 5, 1, 7, 32, 132, 58, 135, 60, 60, 135, 1, 2.14376
392, 1, wb, attraction, a-b-da, 5, 1, 7, 32, 132, 58, 135, 60, 60, 135, 2, 0.736205
392, 1, wb, catch, NA, 999, 999, 7, 33, 121, 134, 64, 131, 127, 188, 2, 1.28068
392, 1, wb, catch, NA, 999, 999, 7, 33, 121, 134, 64, 131, 127, 188, 3, 0.748299
392, 1, wb, attraction, a-b-db, 9, 2, 7, 34, 165, 90, 90, 165, 86, 157, 3, 1.43601
392, 1, wb, attraction, a-b-db, 9, 2, 7, 34, 165, 90, 90, 165, 86, 157, 2, 1.66546
392, 1, wb, attraction, a-b-db, 14, 2, 7, 35, 90, 165, 83, 153, 165, 90, 3, 1.30822
392, 1, wb, attraction, a-b-db, 14, 2, 7, 35, 90, 165, 83, 153, 165, 90, 1, 1.3184
392, 1, wb, attraction, a-b-da, 9, 1, 7, 36, 60, 135, 129, 57, 135, 60, 2, 2.02333
392, 1, wb, attraction, a-b-da, 9, 1, 7, 36, 60, 135, 129, 57, 135, 60, 1, 0.716645
392, 1, wb, attraction, a-b-db, 2, 2, 7, 37, 90, 165, 89, 163, 165, 90, 2, 2.04576
392, 1, wb, attraction, a-b-db, 2, 2, 7, 37, 90, 165, 89, 163, 165, 90, 1, 0.586324
392, 1, wb, filler, NA, 999, 999, 8, 1, 155, 100, 81, 121, 176, 192, 2, 1.30491
392, 1, wb, filler, NA, 999, 999, 8, 1, 155, 100, 81, 121, 176, 192, 3, 0.794987
392, 1, wb, filler, NA, 999, 999, 8, 2, 167, 144, 110, 125, 84, 95, 3, 1.22481
392, 1, wb, filler, NA, 999, 999, 8, 2, 167, 144, 110, 125, 84, 95, 1, 0.734389
392, 1, wb, attraction, a-b-da, 5, 1, 8, 3, 132, 58, 135, 60, 60, 135, 3, 0.774728
392, 1, wb, attraction, a-b-da, 5, 1, 8, 3, 132, 58, 135, 60, 60, 135, 1, 0.894439
392, 1, wb, attraction, a-b-da, 5, 3, 8, 4, 120, 195, 190, 117, 195, 120, 3, 1.97616
392, 1, wb, attraction, a-b-da, 5, 3, 8, 4, 120, 195, 190, 117, 195, 120, 1, 0.82347
392, 1, wb, attraction, a-b-db, 14, 2, 8, 5, 83, 153, 165, 90, 90, 165, 3, 0.787768
392, 1, wb, attraction, a-b-db, 14, 2, 8, 5, 83, 153, 165, 90, 90, 165, 2, 0.579607
392, 1, wb, catch, NA, 999, 999, 8, 6, 124, 191, 122, 73, 117, 138, 2, 2.28193
392, 1, wb, catch, NA, 999, 999, 8, 6, 124, 191, 122, 73, 117, 138, 1, 0.613177
392, 1, wb, attraction, a-b-da, 2, 3, 8, 7, 120, 195, 195, 120, 193, 119, 1, 2.22645
392, 1, wb, attraction, a-b-da, 2, 3, 8, 7, 120, 195, 195, 120, 193, 119, 3, 0.919559
392, 1, wb, filler, NA, 999, 999, 8, 8, 191, 132, 93, 73, 112, 178, 2, 1.16873
392, 1, wb, filler, NA, 999, 999, 8, 8, 191, 132, 93, 73, 112, 178, 1, 0.800841
392, 1, wb, filler, NA, 999, 999, 8, 9, 116, 108, 174, 118, 124, 89, 2, 1.33463
392, 1, wb, filler, NA, 999, 999, 8, 9, 116, 108, 174, 118, 124, 89, 1, 1.71215
392, 1, wb, attraction, a-b-da, 14, 2, 8, 10, 165, 90, 153, 83, 90, 165, 2, 1.51276
392, 1, wb, attraction, a-b-da, 14, 2, 8, 10, 165, 90, 153, 83, 90, 165, 1, 0.85894
392, 1, wb, attraction, a-b-db, 9, 1, 8, 11, 57, 129, 60, 135, 135, 60, 1, 1.80595
392, 1, wb, attraction, a-b-db, 9, 1, 8, 11, 57, 129, 60, 135, 135, 60, 2, 0.716152
392, 1, wb, filler, NA, 999, 999, 8, 12, 183, 182, 86, 60, 152, 195, 2, 1.06103
392, 1, wb, filler, NA, 999, 999, 8, 12, 183, 182, 86, 60, 152, 195, 1, 1.18545
392, 1, wb, filler, NA, 999, 999, 8, 13, 168, 96, 124, 104, 116, 139, 1, 2.0238
392, 1, wb, filler, NA, 999, 999, 8, 13, 168, 96, 124, 104, 116, 139, 3, 1.46109
392, 1, wb, attraction, a-b-da, 2, 1, 8, 14, 134, 59, 60, 135, 135, 60, 1, 3.13594
392, 1, wb, attraction, a-b-da, 2, 1, 8, 14, 134, 59, 60, 135, 135, 60, 2, 0.600798
392, 1, wb, attraction, a-b-da, 9, 3, 8, 15, 186, 114, 195, 120, 120, 195, 3, 1.95855
392, 1, wb, attraction, a-b-da, 9, 3, 8, 15, 186, 114, 195, 120, 120, 195, 2, 0.638559
392, 1, wb, attraction, a-b-db, 5, 3, 8, 16, 117, 190, 120, 195, 195, 120, 3, 1.91499
392, 1, wb, attraction, a-b-db, 5, 3, 8, 16, 117, 190, 120, 195, 195, 120, 2, 0.852972
392, 1, wb, filler, NA, 999, 999, 8, 17, 131, 184, 115, 78, 70, 191, 2, 1.81676
392, 1, wb, filler, NA, 999, 999, 8, 17, 131, 184, 115, 78, 70, 191, 1, 0.806748
392, 1, wb, attraction, a-b-da, 9, 1, 8, 18, 60, 135, 135, 60, 129, 57, 3, 2.37252
392, 1, wb, attraction, a-b-da, 9, 1, 8, 18, 60, 135, 135, 60, 129, 57, 2, 0.715762
392, 1, wb, filler, NA, 999, 999, 8, 19, 121, 96, 60, 169, 160, 117, 2, 4.14876
392, 1, wb, filler, NA, 999, 999, 8, 19, 121, 96, 60, 169, 160, 117, 3, 1.13273
392, 1, wb, attraction, a-b-da, 14, 1, 8, 20, 135, 60, 125, 56, 60, 135, 2, 2.101
392, 1, wb, attraction, a-b-da, 14, 1, 8, 20, 135, 60, 125, 56, 60, 135, 3, 2.81582
392, 1, wb, filler, NA, 999, 999, 8, 21, 73, 192, 128, 64, 117, 104, 2, 5.26807
392, 1, wb, filler, NA, 999, 999, 8, 21, 73, 192, 128, 64, 117, 104, 1, 0.807014
392, 1, wb, catch, NA, 999, 999, 8, 22, 136, 179, 68, 127, 165, 90, 2, 2.46015
392, 1, wb, catch, NA, 999, 999, 8, 22, 136, 179, 68, 127, 165, 90, 1, 0.639984
392, 1, wb, attraction, a-b-db, 14, 3, 8, 23, 195, 120, 111, 181, 120, 195, 2, 1.83643
392, 1, wb, attraction, a-b-db, 14, 3, 8, 23, 195, 120, 111, 181, 120, 195, 3, 0.561789
392, 1, wb, attraction, a-b-db, 9, 2, 8, 24, 90, 165, 86, 157, 165, 90, 3, 4.9529
392, 1, wb, attraction, a-b-db, 9, 2, 8, 24, 90, 165, 86, 157, 165, 90, 1, 1.36058
392, 1, wb, attraction, a-b-da, 2, 2, 8, 25, 165, 90, 90, 165, 163, 89, 3, 2.94347
392, 1, wb, attraction, a-b-da, 2, 2, 8, 25, 165, 90, 90, 165, 163, 89, 2, 0.783997
392, 1, wb, attraction, a-b-db, 5, 1, 8, 26, 135, 60, 58, 132, 60, 135, 3, 2.43039
392, 1, wb, attraction, a-b-db, 5, 1, 8, 26, 135, 60, 58, 132, 60, 135, 2, 0.699406
392, 1, wb, catch, NA, 999, 999, 8, 27, 175, 140, 78, 117, 139, 116, 2, 1.7491
392, 1, wb, catch, NA, 999, 999, 8, 27, 175, 140, 78, 117, 139, 116, 1, 0.877883
392, 1, wb, attraction, a-b-db, 2, 3, 8, 28, 119, 193, 120, 195, 195, 120, 1, 4.61626
392, 1, wb, attraction, a-b-db, 2, 3, 8, 28, 119, 193, 120, 195, 195, 120, 3, 0.741467
392, 1, wb, filler, NA, 999, 999, 8, 29, 92, 66, 108, 100, 195, 94, 1, 1.1331
392, 1, wb, filler, NA, 999, 999, 8, 29, 92, 66, 108, 100, 195, 94, 3, 0.64674
392, 1, wb, attraction, a-b-db, 2, 2, 8, 30, 90, 165, 89, 163, 165, 90, 3, 2.37872
392, 1, wb, attraction, a-b-db, 2, 2, 8, 30, 90, 165, 89, 163, 165, 90, 1, 0.745796
392, 1, wb, attraction, a-b-db, 5, 2, 8, 31, 90, 165, 165, 90, 88, 161, 1, 2.11342
392, 1, wb, attraction, a-b-db, 5, 2, 8, 31, 90, 165, 165, 90, 88, 161, 2, 0.715447
392, 1, wb, attraction, a-b-db, 9, 3, 8, 32, 195, 120, 120, 195, 114, 186, 3, 6.86848
392, 1, wb, attraction, a-b-db, 9, 3, 8, 32, 195, 120, 120, 195, 114, 186, 1, 0.686964
392, 1, wb, attraction, a-b-da, 5, 2, 8, 33, 161, 88, 165, 90, 90, 165, 3, 2.93737
392, 1, wb, attraction, a-b-da, 5, 2, 8, 33, 161, 88, 165, 90, 90, 165, 1, 1.24257
392, 1, wb, attraction, a-b-db, 2, 1, 8, 34, 60, 135, 135, 60, 59, 134, 3, 6.37396
392, 1, wb, attraction, a-b-db, 2, 1, 8, 34, 60, 135, 135, 60, 59, 134, 2, 1.26002
392, 1, wb, attraction, a-b-da, 9, 2, 8, 35, 165, 90, 157, 86, 90, 165, 3, 2.87886
392, 1, wb, attraction, a-b-da, 9, 2, 8, 35, 165, 90, 157, 86, 90, 165, 1, 0.553892
392, 1, wb, attraction, a-b-da, 14, 3, 8, 36, 195, 120, 120, 195, 181, 111, 3, 1.96975
392, 1, wb, attraction, a-b-da, 14, 3, 8, 36, 195, 120, 120, 195, 181, 111, 1, 0.649795
392, 1, wb, attraction, a-b-db, 14, 1, 8, 37, 135, 60, 60, 135, 56, 125, 3, 2.54945
392, 1, wb, attraction, a-b-db, 14, 1, 8, 37, 135, 60, 60, 135, 56, 125, 1, 0.57405
