sub_n, computer_n, bw_cond, effect, set, distance, diag, block_n, trial_n, h1, w1, h2, w2, h3, w3, choice, rt 
356, 1, wb, practice, NA, 999, 999, 0, 1, 93, 158, 116, 60, 82, 56, 3, 6.97582
356, 1, wb, practice, NA, 999, 999, 0, 1, 93, 158, 116, 60, 82, 56, 1, 2.67159
356, 1, wb, practice, NA, 999, 999, 0, 2, 164, 179, 157, 114, 129, 188, 2, 5.08462
356, 1, wb, practice, NA, 999, 999, 0, 2, 164, 179, 157, 114, 129, 188, 1, 2.57858
356, 1, wb, practice, NA, 999, 999, 0, 3, 100, 171, 92, 107, 120, 186, 2, 3.31551
356, 1, wb, practice, NA, 999, 999, 0, 3, 100, 171, 92, 107, 120, 186, 3, 1.4994
356, 1, wb, attraction, a-b-da, 9, 3, 1, 1, 186, 114, 120, 195, 195, 120, 1, 6.35915
356, 1, wb, attraction, a-b-da, 9, 3, 1, 1, 186, 114, 120, 195, 195, 120, 2, 2.73396
356, 1, wb, attraction, a-b-db, 5, 3, 1, 2, 117, 190, 120, 195, 195, 120, 3, 17.6135
356, 1, wb, attraction, a-b-db, 5, 3, 1, 2, 117, 190, 120, 195, 195, 120, 2, 1.35856
356, 1, wb, attraction, a-b-da, 9, 2, 1, 3, 90, 165, 165, 90, 157, 86, 1, 13.0135
356, 1, wb, attraction, a-b-da, 9, 2, 1, 3, 90, 165, 165, 90, 157, 86, 2, 2.30405
356, 1, wb, attraction, a-b-da, 2, 3, 1, 4, 195, 120, 120, 195, 193, 119, 1, 16.8652
356, 1, wb, attraction, a-b-da, 2, 3, 1, 4, 195, 120, 120, 195, 193, 119, 2, 0.384514
356, 1, wb, attraction, a-b-db, 9, 2, 1, 5, 165, 90, 86, 157, 90, 165, 2, 13.8311
356, 1, wb, attraction, a-b-db, 9, 2, 1, 5, 165, 90, 86, 157, 90, 165, 1, 1.99286
356, 1, wb, catch, NA, 999, 999, 1, 6, 124, 191, 146, 109, 94, 101, 3, 3.73417
356, 1, wb, catch, NA, 999, 999, 1, 6, 124, 191, 146, 109, 94, 101, 1, 1.75083
356, 1, wb, attraction, a-b-da, 14, 1, 1, 7, 125, 56, 135, 60, 60, 135, 1, 31.5343
356, 1, wb, attraction, a-b-da, 14, 1, 1, 7, 125, 56, 135, 60, 60, 135, 2, 0.398333
356, 1, wb, attraction, a-b-db, 2, 1, 1, 8, 135, 60, 59, 134, 60, 135, 1, 9.34813
356, 1, wb, attraction, a-b-db, 2, 1, 1, 8, 135, 60, 59, 134, 60, 135, 2, 1.68272
356, 1, wb, attraction, a-b-da, 5, 2, 1, 9, 161, 88, 90, 165, 165, 90, 1, 15.8366
356, 1, wb, attraction, a-b-da, 5, 2, 1, 9, 161, 88, 90, 165, 165, 90, 2, 0.357674
356, 1, wb, filler, NA, 999, 999, 1, 10, 147, 59, 192, 176, 134, 149, 1, 2.45302
356, 1, wb, filler, NA, 999, 999, 1, 10, 147, 59, 192, 176, 134, 149, 2, 0.369456
356, 1, wb, attraction, a-b-db, 14, 3, 1, 11, 111, 181, 120, 195, 195, 120, 1, 9.39252
356, 1, wb, attraction, a-b-db, 14, 3, 1, 11, 111, 181, 120, 195, 195, 120, 2, 6.66887
356, 1, wb, attraction, a-b-db, 9, 1, 1, 12, 60, 135, 135, 60, 57, 129, 1, 13.4062
356, 1, wb, attraction, a-b-db, 9, 1, 1, 12, 60, 135, 135, 60, 57, 129, 2, 12.5534
356, 1, wb, attraction, a-b-db, 2, 3, 1, 13, 195, 120, 119, 193, 120, 195, 3, 7.02932
356, 1, wb, attraction, a-b-db, 2, 3, 1, 13, 195, 120, 119, 193, 120, 195, 2, 1.17711
356, 1, wb, attraction, a-b-da, 2, 1, 1, 14, 60, 135, 134, 59, 135, 60, 1, 9.71926
356, 1, wb, attraction, a-b-da, 2, 1, 1, 14, 60, 135, 134, 59, 135, 60, 2, 3.93489
356, 1, wb, attraction, a-b-db, 14, 1, 1, 15, 56, 125, 60, 135, 135, 60, 1, 7.71028
356, 1, wb, attraction, a-b-db, 14, 1, 1, 15, 56, 125, 60, 135, 135, 60, 3, 1.36656
356, 1, wb, catch, NA, 999, 999, 1, 16, 68, 127, 194, 121, 128, 127, 1, 0.95731
356, 1, wb, catch, NA, 999, 999, 1, 16, 68, 127, 194, 121, 128, 127, 2, 2.74174
356, 1, wb, attraction, a-b-db, 14, 2, 1, 17, 165, 90, 90, 165, 83, 153, 3, 3.29286
356, 1, wb, attraction, a-b-db, 14, 2, 1, 17, 165, 90, 90, 165, 83, 153, 2, 2.25512
356, 1, wb, attraction, a-b-db, 5, 2, 1, 18, 88, 161, 165, 90, 90, 165, 1, 3.69039
356, 1, wb, attraction, a-b-db, 5, 2, 1, 18, 88, 161, 165, 90, 90, 165, 3, 0.572568
356, 1, wb, attraction, a-b-db, 5, 1, 1, 19, 60, 135, 58, 132, 135, 60, 1, 14.3635
356, 1, wb, attraction, a-b-db, 5, 1, 1, 19, 60, 135, 58, 132, 135, 60, 3, 2.92786
356, 1, wb, attraction, a-b-da, 2, 2, 1, 20, 165, 90, 90, 165, 163, 89, 3, 7.79932
356, 1, wb, attraction, a-b-da, 2, 2, 1, 20, 165, 90, 90, 165, 163, 89, 2, 0.58021
356, 1, wb, filler, NA, 999, 999, 1, 21, 113, 73, 184, 178, 138, 146, 1, 1.72261
356, 1, wb, filler, NA, 999, 999, 1, 21, 113, 73, 184, 178, 138, 146, 2, 0.292036
356, 1, wb, filler, NA, 999, 999, 1, 22, 174, 59, 95, 143, 64, 127, 3, 4.06194
356, 1, wb, filler, NA, 999, 999, 1, 22, 174, 59, 95, 143, 64, 127, 2, 0.745379
356, 1, wb, filler, NA, 999, 999, 1, 23, 98, 184, 184, 56, 128, 180, 2, 12.273
356, 1, wb, filler, NA, 999, 999, 1, 23, 98, 184, 184, 56, 128, 180, 3, 0.385908
356, 1, wb, filler, NA, 999, 999, 1, 24, 135, 195, 117, 184, 87, 183, 3, 9.85636
356, 1, wb, filler, NA, 999, 999, 1, 24, 135, 195, 117, 184, 87, 183, 1, 0.514591
356, 1, wb, filler, NA, 999, 999, 1, 25, 89, 163, 185, 140, 59, 138, 3, 2.42774
356, 1, wb, filler, NA, 999, 999, 1, 25, 89, 163, 185, 140, 59, 138, 2, 0.712905
356, 1, wb, attraction, a-b-da, 14, 2, 1, 26, 90, 165, 165, 90, 153, 83, 3, 6.80196
356, 1, wb, attraction, a-b-da, 14, 2, 1, 26, 90, 165, 165, 90, 153, 83, 1, 2.25511
356, 1, wb, filler, NA, 999, 999, 1, 27, 188, 124, 73, 177, 82, 158, 3, 28.3543
356, 1, wb, filler, NA, 999, 999, 1, 27, 188, 124, 73, 177, 82, 158, 1, 0.762848
356, 1, wb, attraction, a-b-da, 9, 1, 1, 28, 135, 60, 129, 57, 60, 135, 3, 6.38588
356, 1, wb, attraction, a-b-da, 9, 1, 1, 28, 135, 60, 129, 57, 60, 135, 1, 0.399831
356, 1, wb, attraction, a-b-da, 5, 1, 1, 29, 135, 60, 132, 58, 60, 135, 1, 2.6537
356, 1, wb, attraction, a-b-da, 5, 1, 1, 29, 135, 60, 132, 58, 60, 135, 2, 0.330122
356, 1, wb, attraction, a-b-da, 5, 3, 1, 30, 190, 117, 120, 195, 195, 120, 1, 13.6266
356, 1, wb, attraction, a-b-da, 5, 3, 1, 30, 190, 117, 120, 195, 195, 120, 3, 15.5484
356, 1, wb, filler, NA, 999, 999, 1, 31, 84, 191, 185, 80, 95, 67, 3, 1.11949
356, 1, wb, filler, NA, 999, 999, 1, 31, 84, 191, 185, 80, 95, 67, 2, 4.07375
356, 1, wb, filler, NA, 999, 999, 1, 32, 132, 170, 174, 195, 93, 175, 3, 1.91575
356, 1, wb, filler, NA, 999, 999, 1, 32, 132, 170, 174, 195, 93, 175, 2, 0.453732
356, 1, wb, catch, NA, 999, 999, 1, 33, 108, 87, 150, 105, 165, 150, 1, 0.921562
356, 1, wb, catch, NA, 999, 999, 1, 33, 108, 87, 150, 105, 165, 150, 3, 0.779307
356, 1, wb, filler, NA, 999, 999, 1, 34, 143, 189, 99, 160, 118, 85, 3, 1.53756
356, 1, wb, filler, NA, 999, 999, 1, 34, 143, 189, 99, 160, 118, 85, 1, 0.43514
356, 1, wb, attraction, a-b-da, 14, 3, 1, 35, 181, 111, 120, 195, 195, 120, 1, 2.12754
356, 1, wb, attraction, a-b-da, 14, 3, 1, 35, 181, 111, 120, 195, 195, 120, 2, 1.81692
356, 1, wb, attraction, a-b-db, 9, 3, 1, 36, 114, 186, 195, 120, 120, 195, 1, 3.2616
356, 1, wb, attraction, a-b-db, 9, 3, 1, 36, 114, 186, 195, 120, 120, 195, 3, 0.641274
356, 1, wb, attraction, a-b-db, 2, 2, 1, 37, 165, 90, 89, 163, 90, 165, 2, 8.54893
356, 1, wb, attraction, a-b-db, 2, 2, 1, 37, 165, 90, 89, 163, 90, 165, 1, 3.16355
356, 1, wb, attraction, a-b-db, 14, 3, 2, 1, 111, 181, 195, 120, 120, 195, 1, 28.066
356, 1, wb, attraction, a-b-db, 14, 3, 2, 1, 111, 181, 195, 120, 120, 195, 3, 0.26179
356, 1, wb, catch, NA, 999, 999, 2, 2, 122, 133, 110, 85, 151, 164, 2, 0.880898
356, 1, wb, catch, NA, 999, 999, 2, 2, 122, 133, 110, 85, 151, 164, 3, 1.0366
356, 1, wb, attraction, a-b-db, 9, 2, 2, 3, 165, 90, 90, 165, 86, 157, 3, 9.91305
356, 1, wb, attraction, a-b-db, 9, 2, 2, 3, 165, 90, 90, 165, 86, 157, 2, 0.728582
356, 1, wb, filler, NA, 999, 999, 2, 4, 165, 121, 156, 178, 94, 152, 3, 1.15286
356, 1, wb, filler, NA, 999, 999, 2, 4, 165, 121, 156, 178, 94, 152, 2, 0.609807
356, 1, wb, filler, NA, 999, 999, 2, 5, 195, 109, 88, 173, 117, 67, 3, 0.742883
356, 1, wb, filler, NA, 999, 999, 2, 5, 195, 109, 88, 173, 117, 67, 1, 1.28798
356, 1, wb, attraction, a-b-db, 5, 3, 2, 6, 117, 190, 120, 195, 195, 120, 1, 4.49819
356, 1, wb, attraction, a-b-db, 5, 3, 2, 6, 117, 190, 120, 195, 195, 120, 2, 1.4121
356, 1, wb, attraction, a-b-db, 5, 1, 2, 7, 135, 60, 60, 135, 58, 132, 1, 0.70491
356, 1, wb, attraction, a-b-db, 5, 1, 2, 7, 135, 60, 60, 135, 58, 132, 2, 3.58733
356, 1, wb, attraction, a-b-db, 2, 1, 2, 8, 59, 134, 60, 135, 135, 60, 1, 4.60091
356, 1, wb, attraction, a-b-db, 2, 1, 2, 8, 59, 134, 60, 135, 135, 60, 3, 0.486748
356, 1, wb, filler, NA, 999, 999, 2, 9, 112, 135, 79, 172, 159, 119, 1, 5.7212
356, 1, wb, filler, NA, 999, 999, 2, 9, 112, 135, 79, 172, 159, 119, 3, 0.409978
356, 1, wb, attraction, a-b-da, 2, 3, 2, 10, 120, 195, 193, 119, 195, 120, 3, 3.23121
356, 1, wb, attraction, a-b-da, 2, 3, 2, 10, 120, 195, 193, 119, 195, 120, 2, 1.49225
356, 1, wb, filler, NA, 999, 999, 2, 11, 60, 82, 188, 71, 113, 189, 1, 1.1736
356, 1, wb, filler, NA, 999, 999, 2, 11, 60, 82, 188, 71, 113, 189, 3, 0.685234
356, 1, wb, attraction, a-b-db, 14, 2, 2, 12, 165, 90, 83, 153, 90, 165, 2, 6.77556
356, 1, wb, attraction, a-b-db, 14, 2, 2, 12, 165, 90, 83, 153, 90, 165, 1, 0.84544
356, 1, wb, attraction, a-b-da, 9, 2, 2, 13, 90, 165, 165, 90, 157, 86, 3, 6.48113
356, 1, wb, attraction, a-b-da, 9, 2, 2, 13, 90, 165, 165, 90, 157, 86, 1, 0.331049
356, 1, wb, attraction, a-b-da, 2, 1, 2, 14, 135, 60, 134, 59, 60, 135, 3, 5.86753
356, 1, wb, attraction, a-b-da, 2, 1, 2, 14, 135, 60, 134, 59, 60, 135, 1, 0.38234
356, 1, wb, filler, NA, 999, 999, 2, 15, 124, 191, 195, 176, 113, 113, 3, 1.29286
356, 1, wb, filler, NA, 999, 999, 2, 15, 124, 191, 195, 176, 113, 113, 2, 0.239693
356, 1, wb, attraction, a-b-db, 14, 1, 2, 16, 135, 60, 60, 135, 56, 125, 3, 4.79623
356, 1, wb, attraction, a-b-db, 14, 1, 2, 16, 135, 60, 60, 135, 56, 125, 1, 5.89015
356, 1, wb, attraction, a-b-db, 2, 2, 2, 17, 90, 165, 165, 90, 89, 163, 1, 9.11488
356, 1, wb, attraction, a-b-db, 2, 2, 2, 17, 90, 165, 165, 90, 89, 163, 3, 0.474688
356, 1, wb, attraction, a-b-db, 9, 1, 2, 18, 135, 60, 60, 135, 57, 129, 1, 0.877089
356, 1, wb, attraction, a-b-db, 9, 1, 2, 18, 135, 60, 60, 135, 57, 129, 2, 2.43277
356, 1, wb, attraction, a-b-db, 5, 2, 2, 19, 90, 165, 165, 90, 88, 161, 3, 2.11675
356, 1, wb, attraction, a-b-db, 5, 2, 2, 19, 90, 165, 165, 90, 88, 161, 2, 0.910588
356, 1, wb, filler, NA, 999, 999, 2, 20, 146, 190, 134, 146, 65, 127, 3, 0.615589
356, 1, wb, filler, NA, 999, 999, 2, 20, 146, 190, 134, 146, 65, 127, 2, 0.238012
356, 1, wb, attraction, a-b-da, 5, 2, 2, 21, 165, 90, 90, 165, 161, 88, 3, 6.0826
356, 1, wb, attraction, a-b-da, 5, 2, 2, 21, 165, 90, 90, 165, 161, 88, 1, 0.964644
356, 1, wb, attraction, a-b-da, 9, 3, 2, 22, 120, 195, 195, 120, 186, 114, 1, 12.7317
356, 1, wb, attraction, a-b-da, 9, 3, 2, 22, 120, 195, 195, 120, 186, 114, 3, 3.12172
356, 1, wb, filler, NA, 999, 999, 2, 23, 79, 146, 112, 114, 114, 158, 1, 9.88198
356, 1, wb, filler, NA, 999, 999, 2, 23, 79, 146, 112, 114, 114, 158, 3, 1.05881
356, 1, wb, attraction, a-b-da, 14, 2, 2, 24, 153, 83, 90, 165, 165, 90, 1, 8.42973
356, 1, wb, attraction, a-b-da, 14, 2, 2, 24, 153, 83, 90, 165, 165, 90, 2, 1.63321
356, 1, wb, attraction, a-b-da, 5, 3, 2, 25, 195, 120, 120, 195, 190, 117, 1, 4.43726
356, 1, wb, attraction, a-b-da, 5, 3, 2, 25, 195, 120, 120, 195, 190, 117, 2, 0.737795
356, 1, wb, filler, NA, 999, 999, 2, 26, 120, 155, 107, 113, 90, 97, 3, 1.29025
356, 1, wb, filler, NA, 999, 999, 2, 26, 120, 155, 107, 113, 90, 97, 1, 2.03722
356, 1, wb, attraction, a-b-db, 9, 3, 2, 27, 114, 186, 120, 195, 195, 120, 3, 12.8331
356, 1, wb, attraction, a-b-db, 9, 3, 2, 27, 114, 186, 120, 195, 195, 120, 2, 0.362968
356, 1, wb, attraction, a-b-db, 2, 3, 2, 28, 119, 193, 120, 195, 195, 120, 1, 0.522247
356, 1, wb, attraction, a-b-db, 2, 3, 2, 28, 119, 193, 120, 195, 195, 120, 2, 2.48407
356, 1, wb, filler, NA, 999, 999, 2, 29, 81, 156, 90, 115, 95, 190, 2, 1.06979
356, 1, wb, filler, NA, 999, 999, 2, 29, 81, 156, 90, 115, 95, 190, 3, 1.66611
356, 1, wb, attraction, a-b-da, 14, 1, 2, 30, 60, 135, 135, 60, 125, 56, 3, 2.06896
356, 1, wb, attraction, a-b-da, 14, 1, 2, 30, 60, 135, 135, 60, 125, 56, 2, 0.752976
356, 1, wb, attraction, a-b-da, 14, 3, 2, 31, 120, 195, 181, 111, 195, 120, 2, 16.9686
356, 1, wb, attraction, a-b-da, 14, 3, 2, 31, 120, 195, 181, 111, 195, 120, 3, 0.859936
356, 1, wb, attraction, a-b-da, 5, 1, 2, 32, 132, 58, 60, 135, 135, 60, 3, 3.055
356, 1, wb, attraction, a-b-da, 5, 1, 2, 32, 132, 58, 60, 135, 135, 60, 2, 0.795324
356, 1, wb, catch, NA, 999, 999, 2, 33, 159, 96, 193, 122, 102, 93, 3, 0.888983
356, 1, wb, catch, NA, 999, 999, 2, 33, 159, 96, 193, 122, 102, 93, 2, 0.283938
356, 1, wb, attraction, a-b-da, 9, 1, 2, 34, 135, 60, 60, 135, 129, 57, 3, 2.96655
356, 1, wb, attraction, a-b-da, 9, 1, 2, 34, 135, 60, 60, 135, 129, 57, 2, 1.43027
356, 1, wb, catch, NA, 999, 999, 2, 35, 117, 78, 91, 164, 160, 155, 1, 4.47453
356, 1, wb, catch, NA, 999, 999, 2, 35, 117, 78, 91, 164, 160, 155, 3, 0.389081
356, 1, wb, attraction, a-b-da, 2, 2, 2, 36, 163, 89, 165, 90, 90, 165, 2, 6.81152
356, 1, wb, attraction, a-b-da, 2, 2, 2, 36, 163, 89, 165, 90, 90, 165, 3, 0.431921
356, 1, wb, filler, NA, 999, 999, 2, 37, 159, 125, 89, 178, 192, 184, 2, 1.61242
356, 1, wb, filler, NA, 999, 999, 2, 37, 159, 125, 89, 178, 192, 184, 3, 0.746536
356, 1, wb, filler, NA, 999, 999, 3, 1, 82, 150, 113, 161, 171, 87, 1, 0.778252
356, 1, wb, filler, NA, 999, 999, 3, 1, 82, 150, 113, 161, 171, 87, 2, 1.27407
356, 1, wb, attraction, a-b-da, 2, 2, 3, 2, 163, 89, 90, 165, 165, 90, 1, 2.14025
356, 1, wb, attraction, a-b-da, 2, 2, 3, 2, 163, 89, 90, 165, 165, 90, 2, 0.780925
356, 1, wb, attraction, a-b-db, 14, 1, 3, 3, 56, 125, 135, 60, 60, 135, 1, 5.37936
356, 1, wb, attraction, a-b-db, 14, 1, 3, 3, 56, 125, 135, 60, 60, 135, 3, 0.753692
356, 1, wb, catch, NA, 999, 999, 3, 4, 159, 156, 132, 63, 96, 159, 2, 1.72925
356, 1, wb, catch, NA, 999, 999, 3, 4, 159, 156, 132, 63, 96, 159, 1, 0.418643
356, 1, wb, attraction, a-b-db, 2, 2, 3, 5, 90, 165, 89, 163, 165, 90, 2, 15.0478
356, 1, wb, attraction, a-b-db, 2, 2, 3, 5, 90, 165, 89, 163, 165, 90, 3, 0.488359
356, 1, wb, attraction, a-b-db, 2, 3, 3, 6, 120, 195, 195, 120, 119, 193, 3, 6.12293
356, 1, wb, attraction, a-b-db, 2, 3, 3, 6, 120, 195, 195, 120, 119, 193, 2, 0.450909
356, 1, wb, attraction, a-b-db, 9, 2, 3, 7, 90, 165, 86, 157, 165, 90, 1, 3.23067
356, 1, wb, attraction, a-b-db, 9, 2, 3, 7, 90, 165, 86, 157, 165, 90, 3, 0.299772
356, 1, wb, attraction, a-b-db, 14, 2, 3, 8, 165, 90, 90, 165, 83, 153, 3, 2.08558
356, 1, wb, attraction, a-b-db, 14, 2, 3, 8, 165, 90, 90, 165, 83, 153, 1, 0.552867
356, 1, wb, attraction, a-b-da, 5, 3, 3, 9, 190, 117, 195, 120, 120, 195, 1, 3.3927
356, 1, wb, attraction, a-b-da, 5, 3, 3, 9, 190, 117, 195, 120, 120, 195, 3, 0.886975
356, 1, wb, attraction, a-b-da, 14, 3, 3, 10, 120, 195, 195, 120, 181, 111, 3, 6.25728
356, 1, wb, attraction, a-b-da, 14, 3, 3, 10, 120, 195, 195, 120, 181, 111, 2, 4.19603
356, 1, wb, catch, NA, 999, 999, 3, 11, 136, 179, 132, 63, 106, 149, 2, 6.45654
356, 1, wb, catch, NA, 999, 999, 3, 11, 136, 179, 132, 63, 106, 149, 1, 0.275106
356, 1, wb, attraction, a-b-db, 5, 3, 3, 12, 117, 190, 195, 120, 120, 195, 1, 4.46174
356, 1, wb, attraction, a-b-db, 5, 3, 3, 12, 117, 190, 195, 120, 120, 195, 3, 1.87304
356, 1, wb, attraction, a-b-da, 14, 1, 3, 13, 60, 135, 125, 56, 135, 60, 2, 6.85959
356, 1, wb, attraction, a-b-da, 14, 1, 3, 13, 60, 135, 125, 56, 135, 60, 3, 1.79817
356, 1, wb, attraction, a-b-da, 5, 1, 3, 14, 132, 58, 60, 135, 135, 60, 2, 11.8676
356, 1, wb, attraction, a-b-da, 5, 1, 3, 14, 132, 58, 60, 135, 135, 60, 3, 0.908363
356, 1, wb, filler, NA, 999, 999, 3, 15, 179, 131, 86, 142, 148, 176, 2, 4.69341
356, 1, wb, filler, NA, 999, 999, 3, 15, 179, 131, 86, 142, 148, 176, 3, 0.455237
356, 1, wb, filler, NA, 999, 999, 3, 16, 97, 71, 135, 194, 87, 139, 1, 2.931
356, 1, wb, filler, NA, 999, 999, 3, 16, 97, 71, 135, 194, 87, 139, 2, 0.948084
356, 1, wb, attraction, a-b-da, 9, 3, 3, 17, 195, 120, 186, 114, 120, 195, 2, 9.06779
356, 1, wb, attraction, a-b-da, 9, 3, 3, 17, 195, 120, 186, 114, 120, 195, 3, 7.24573
356, 1, wb, attraction, a-b-db, 5, 2, 3, 18, 90, 165, 165, 90, 88, 161, 3, 9.32751
356, 1, wb, attraction, a-b-db, 5, 2, 3, 18, 90, 165, 165, 90, 88, 161, 2, 2.67038
356, 1, wb, filler, NA, 999, 999, 3, 19, 189, 65, 92, 103, 76, 170, 2, 9.27279
356, 1, wb, filler, NA, 999, 999, 3, 19, 189, 65, 92, 103, 76, 170, 1, 1.13859
356, 1, wb, catch, NA, 999, 999, 3, 20, 76, 119, 167, 148, 165, 90, 1, 4.05082
356, 1, wb, catch, NA, 999, 999, 3, 20, 76, 119, 167, 148, 165, 90, 2, 0.398862
356, 1, wb, filler, NA, 999, 999, 3, 21, 170, 89, 116, 78, 56, 71, 3, 0.836609
356, 1, wb, filler, NA, 999, 999, 3, 21, 170, 89, 116, 78, 56, 71, 1, 0.818309
356, 1, wb, attraction, a-b-da, 9, 1, 3, 22, 129, 57, 135, 60, 60, 135, 1, 10.6553
356, 1, wb, attraction, a-b-da, 9, 1, 3, 22, 129, 57, 135, 60, 60, 135, 3, 0.529375
356, 1, wb, filler, NA, 999, 999, 3, 23, 138, 163, 78, 167, 123, 169, 2, 1.33784
356, 1, wb, filler, NA, 999, 999, 3, 23, 138, 163, 78, 167, 123, 169, 3, 0.306694
356, 1, wb, attraction, a-b-da, 9, 2, 3, 24, 157, 86, 165, 90, 90, 165, 1, 0.707864
356, 1, wb, attraction, a-b-da, 9, 2, 3, 24, 157, 86, 165, 90, 90, 165, 3, 1.46228
356, 1, wb, filler, NA, 999, 999, 3, 25, 181, 110, 122, 73, 99, 75, 3, 0.585123
356, 1, wb, filler, NA, 999, 999, 3, 25, 181, 110, 122, 73, 99, 75, 1, 0.424936
356, 1, wb, attraction, a-b-da, 5, 2, 3, 26, 90, 165, 165, 90, 161, 88, 1, 0.933406
356, 1, wb, attraction, a-b-da, 5, 2, 3, 26, 90, 165, 165, 90, 161, 88, 2, 0.582996
356, 1, wb, attraction, a-b-db, 2, 1, 3, 27, 59, 134, 135, 60, 60, 135, 3, 2.2135
356, 1, wb, attraction, a-b-db, 2, 1, 3, 27, 59, 134, 135, 60, 60, 135, 2, 0.675329
356, 1, wb, attraction, a-b-da, 2, 3, 3, 28, 195, 120, 193, 119, 120, 195, 3, 13.5018
356, 1, wb, attraction, a-b-da, 2, 3, 3, 28, 195, 120, 193, 119, 120, 195, 2, 0.348872
356, 1, wb, attraction, a-b-db, 5, 1, 3, 29, 60, 135, 58, 132, 135, 60, 3, 1.60465
356, 1, wb, attraction, a-b-db, 5, 1, 3, 29, 60, 135, 58, 132, 135, 60, 2, 1.84351
356, 1, wb, filler, NA, 999, 999, 3, 30, 179, 163, 183, 168, 120, 142, 1, 0.558917
356, 1, wb, filler, NA, 999, 999, 3, 30, 179, 163, 183, 168, 120, 142, 2, 0.303375
356, 1, wb, filler, NA, 999, 999, 3, 31, 137, 105, 187, 170, 178, 134, 1, 0.705206
356, 1, wb, filler, NA, 999, 999, 3, 31, 137, 105, 187, 170, 178, 134, 2, 0.235559
356, 1, wb, attraction, a-b-da, 2, 1, 3, 32, 135, 60, 134, 59, 60, 135, 3, 2.61621
356, 1, wb, attraction, a-b-da, 2, 1, 3, 32, 135, 60, 134, 59, 60, 135, 1, 0.653968
356, 1, wb, attraction, a-b-da, 14, 2, 3, 33, 165, 90, 90, 165, 153, 83, 3, 4.16185
356, 1, wb, attraction, a-b-da, 14, 2, 3, 33, 165, 90, 90, 165, 153, 83, 2, 0.217033
356, 1, wb, attraction, a-b-db, 9, 3, 3, 34, 114, 186, 195, 120, 120, 195, 1, 3.38223
356, 1, wb, attraction, a-b-db, 9, 3, 3, 34, 114, 186, 195, 120, 120, 195, 3, 0.277098
356, 1, wb, attraction, a-b-db, 9, 1, 3, 35, 57, 129, 60, 135, 135, 60, 2, 2.98367
356, 1, wb, attraction, a-b-db, 9, 1, 3, 35, 57, 129, 60, 135, 135, 60, 3, 0.990745
356, 1, wb, filler, NA, 999, 999, 3, 36, 101, 184, 109, 151, 175, 83, 2, 5.11647
356, 1, wb, filler, NA, 999, 999, 3, 36, 101, 184, 109, 151, 175, 83, 3, 0.30152
356, 1, wb, attraction, a-b-db, 14, 3, 3, 37, 195, 120, 111, 181, 120, 195, 2, 2.43129
356, 1, wb, attraction, a-b-db, 14, 3, 3, 37, 195, 120, 111, 181, 120, 195, 3, 0.228445
356, 1, wb, attraction, a-b-da, 2, 1, 4, 1, 60, 135, 134, 59, 135, 60, 2, 0.63311
356, 1, wb, attraction, a-b-da, 2, 1, 4, 1, 60, 135, 134, 59, 135, 60, 3, 0.526871
356, 1, wb, attraction, a-b-da, 9, 2, 4, 2, 157, 86, 90, 165, 165, 90, 3, 0.551153
356, 1, wb, attraction, a-b-da, 9, 2, 4, 2, 157, 86, 90, 165, 165, 90, 2, 1.29636
356, 1, wb, attraction, a-b-db, 14, 2, 4, 3, 90, 165, 83, 153, 165, 90, 1, 0.537848
356, 1, wb, attraction, a-b-db, 14, 2, 4, 3, 90, 165, 83, 153, 165, 90, 3, 1.75567
356, 1, wb, attraction, a-b-da, 2, 3, 4, 4, 120, 195, 195, 120, 193, 119, 1, 3.77117
356, 1, wb, attraction, a-b-da, 2, 3, 4, 4, 120, 195, 195, 120, 193, 119, 2, 0.258552
356, 1, wb, attraction, a-b-db, 5, 3, 4, 5, 195, 120, 120, 195, 117, 190, 1, 3.0299
356, 1, wb, attraction, a-b-db, 5, 3, 4, 5, 195, 120, 120, 195, 117, 190, 2, 1.95474
356, 1, wb, attraction, a-b-db, 9, 2, 4, 6, 90, 165, 165, 90, 86, 157, 1, 4.77012
356, 1, wb, attraction, a-b-db, 9, 2, 4, 6, 90, 165, 165, 90, 86, 157, 3, 0.633302
356, 1, wb, attraction, a-b-db, 9, 1, 4, 7, 135, 60, 60, 135, 57, 129, 1, 2.38164
356, 1, wb, attraction, a-b-db, 9, 1, 4, 7, 135, 60, 60, 135, 57, 129, 2, 0.820904
356, 1, wb, filler, NA, 999, 999, 4, 8, 90, 111, 63, 135, 91, 80, 3, 3.61803
356, 1, wb, filler, NA, 999, 999, 4, 8, 90, 111, 63, 135, 91, 80, 1, 0.711463
356, 1, wb, attraction, a-b-db, 14, 1, 4, 9, 135, 60, 56, 125, 60, 135, 3, 0.696405
356, 1, wb, attraction, a-b-db, 14, 1, 4, 9, 135, 60, 56, 125, 60, 135, 1, 1.02776
356, 1, wb, filler, NA, 999, 999, 4, 10, 78, 169, 70, 84, 189, 83, 2, 0.807815
356, 1, wb, filler, NA, 999, 999, 4, 10, 78, 169, 70, 84, 189, 83, 3, 1.87027
356, 1, wb, catch, NA, 999, 999, 4, 11, 111, 144, 106, 89, 134, 181, 2, 2.08897
356, 1, wb, catch, NA, 999, 999, 4, 11, 111, 144, 106, 89, 134, 181, 3, 0.251538
356, 1, wb, attraction, a-b-db, 14, 3, 4, 12, 120, 195, 195, 120, 111, 181, 3, 2.43144
356, 1, wb, attraction, a-b-db, 14, 3, 4, 12, 120, 195, 195, 120, 111, 181, 1, 15.1247
356, 1, wb, attraction, a-b-db, 5, 2, 4, 13, 88, 161, 165, 90, 90, 165, 1, 4.50517
356, 1, wb, attraction, a-b-db, 5, 2, 4, 13, 88, 161, 165, 90, 90, 165, 2, 0.755075
356, 1, wb, filler, NA, 999, 999, 4, 14, 172, 97, 192, 130, 70, 141, 3, 2.81089
356, 1, wb, filler, NA, 999, 999, 4, 14, 172, 97, 192, 130, 70, 141, 2, 0.616544
356, 1, wb, filler, NA, 999, 999, 4, 15, 67, 60, 105, 70, 90, 111, 1, 0.84568
356, 1, wb, filler, NA, 999, 999, 4, 15, 67, 60, 105, 70, 90, 111, 3, 1.81082
356, 1, wb, attraction, a-b-db, 2, 3, 4, 16, 195, 120, 119, 193, 120, 195, 2, 8.00754
356, 1, wb, attraction, a-b-db, 2, 3, 4, 16, 195, 120, 119, 193, 120, 195, 1, 1.73959
356, 1, wb, attraction, a-b-da, 2, 2, 4, 17, 165, 90, 90, 165, 163, 89, 2, 2.17968
356, 1, wb, attraction, a-b-da, 2, 2, 4, 17, 165, 90, 90, 165, 163, 89, 1, 10.3549
356, 1, wb, attraction, a-b-db, 2, 1, 4, 18, 135, 60, 59, 134, 60, 135, 2, 15.6316
356, 1, wb, attraction, a-b-db, 2, 1, 4, 18, 135, 60, 59, 134, 60, 135, 1, 0.488674
356, 1, wb, filler, NA, 999, 999, 4, 19, 140, 95, 113, 76, 110, 70, 3, 2.01931
356, 1, wb, filler, NA, 999, 999, 4, 19, 140, 95, 113, 76, 110, 70, 1, 0.689226
356, 1, wb, filler, NA, 999, 999, 4, 20, 126, 99, 91, 83, 57, 150, 2, 1.78763
356, 1, wb, filler, NA, 999, 999, 4, 20, 126, 99, 91, 83, 57, 150, 1, 0.402361
356, 1, wb, filler, NA, 999, 999, 4, 21, 172, 132, 147, 92, 75, 179, 3, 2.08476
356, 1, wb, filler, NA, 999, 999, 4, 21, 172, 132, 147, 92, 75, 179, 1, 0.283362
356, 1, wb, attraction, a-b-da, 5, 1, 4, 22, 132, 58, 135, 60, 60, 135, 3, 1.31808
356, 1, wb, attraction, a-b-da, 5, 1, 4, 22, 132, 58, 135, 60, 60, 135, 2, 0.77619
356, 1, wb, attraction, a-b-da, 9, 3, 4, 23, 186, 114, 195, 120, 120, 195, 1, 3.4866
356, 1, wb, attraction, a-b-da, 9, 3, 4, 23, 186, 114, 195, 120, 120, 195, 3, 0.257969
356, 1, wb, attraction, a-b-da, 14, 3, 4, 24, 195, 120, 120, 195, 181, 111, 3, 4.85271
356, 1, wb, attraction, a-b-da, 14, 3, 4, 24, 195, 120, 120, 195, 181, 111, 1, 2.00046
356, 1, wb, filler, NA, 999, 999, 4, 25, 150, 103, 192, 105, 110, 77, 3, 1.1979
356, 1, wb, filler, NA, 999, 999, 4, 25, 150, 103, 192, 105, 110, 77, 2, 0.684685
356, 1, wb, catch, NA, 999, 999, 4, 26, 156, 159, 120, 135, 114, 81, 3, 1.63107
356, 1, wb, catch, NA, 999, 999, 4, 26, 156, 159, 120, 135, 114, 81, 1, 0.948706
356, 1, wb, catch, NA, 999, 999, 4, 27, 142, 173, 157, 98, 99, 96, 3, 3.86017
356, 1, wb, catch, NA, 999, 999, 4, 27, 142, 173, 157, 98, 99, 96, 1, 0.391692
356, 1, wb, attraction, a-b-da, 5, 2, 4, 28, 161, 88, 90, 165, 165, 90, 1, 3.8455
356, 1, wb, attraction, a-b-da, 5, 2, 4, 28, 161, 88, 90, 165, 165, 90, 3, 3.61754
356, 1, wb, attraction, a-b-db, 2, 2, 4, 29, 165, 90, 89, 163, 90, 165, 3, 2.78176
356, 1, wb, attraction, a-b-db, 2, 2, 4, 29, 165, 90, 89, 163, 90, 165, 2, 0.900904
356, 1, wb, attraction, a-b-da, 5, 3, 4, 30, 120, 195, 190, 117, 195, 120, 2, 3.48652
356, 1, wb, attraction, a-b-da, 5, 3, 4, 30, 120, 195, 190, 117, 195, 120, 3, 2.80138
356, 1, wb, filler, NA, 999, 999, 4, 31, 194, 163, 79, 159, 67, 98, 3, 1.17439
356, 1, wb, filler, NA, 999, 999, 4, 31, 194, 163, 79, 159, 67, 98, 1, 0.310027
356, 1, wb, attraction, a-b-da, 14, 2, 4, 32, 90, 165, 153, 83, 165, 90, 2, 4.33524
356, 1, wb, attraction, a-b-da, 14, 2, 4, 32, 90, 165, 153, 83, 165, 90, 3, 2.96781
356, 1, wb, attraction, a-b-db, 5, 1, 4, 33, 58, 132, 60, 135, 135, 60, 1, 3.11017
356, 1, wb, attraction, a-b-db, 5, 1, 4, 33, 58, 132, 60, 135, 135, 60, 3, 0.567849
356, 1, wb, attraction, a-b-da, 14, 1, 4, 34, 60, 135, 125, 56, 135, 60, 1, 2.72692
356, 1, wb, attraction, a-b-da, 14, 1, 4, 34, 60, 135, 125, 56, 135, 60, 3, 0.576006
356, 1, wb, attraction, a-b-da, 9, 1, 4, 35, 129, 57, 135, 60, 60, 135, 1, 1.97451
356, 1, wb, attraction, a-b-da, 9, 1, 4, 35, 129, 57, 135, 60, 60, 135, 2, 0.837867
356, 1, wb, filler, NA, 999, 999, 4, 36, 81, 85, 183, 155, 195, 96, 1, 0.842127
356, 1, wb, filler, NA, 999, 999, 4, 36, 81, 85, 183, 155, 195, 96, 2, 0.231198
356, 1, wb, attraction, a-b-db, 9, 3, 4, 37, 114, 186, 195, 120, 120, 195, 3, 10.2677
356, 1, wb, attraction, a-b-db, 9, 3, 4, 37, 114, 186, 195, 120, 120, 195, 2, 0.285119
356, 1, wb, filler, NA, 999, 999, 5, 1, 100, 153, 185, 156, 83, 159, 2, 2.57427
356, 1, wb, filler, NA, 999, 999, 5, 1, 100, 153, 185, 156, 83, 159, 3, 2.11754
356, 1, wb, attraction, a-b-db, 14, 2, 5, 2, 165, 90, 83, 153, 90, 165, 1, 2.0461
356, 1, wb, attraction, a-b-db, 14, 2, 5, 2, 165, 90, 83, 153, 90, 165, 3, 0.538856
356, 1, wb, attraction, a-b-da, 2, 1, 5, 3, 134, 59, 60, 135, 135, 60, 2, 1.68321
356, 1, wb, attraction, a-b-da, 2, 1, 5, 3, 134, 59, 60, 135, 135, 60, 3, 0.318726
356, 1, wb, filler, NA, 999, 999, 5, 4, 62, 157, 165, 183, 80, 70, 3, 0.951888
356, 1, wb, filler, NA, 999, 999, 5, 4, 62, 157, 165, 183, 80, 70, 2, 0.24887
356, 1, wb, attraction, a-b-da, 2, 2, 5, 5, 165, 90, 90, 165, 163, 89, 3, 2.14879
356, 1, wb, attraction, a-b-da, 2, 2, 5, 5, 165, 90, 90, 165, 163, 89, 2, 0.288105
356, 1, wb, attraction, a-b-db, 14, 1, 5, 6, 60, 135, 56, 125, 135, 60, 2, 1.67988
356, 1, wb, attraction, a-b-db, 14, 1, 5, 6, 60, 135, 56, 125, 135, 60, 3, 0.59526
356, 1, wb, filler, NA, 999, 999, 5, 7, 181, 192, 195, 66, 117, 65, 3, 2.18508
356, 1, wb, filler, NA, 999, 999, 5, 7, 181, 192, 195, 66, 117, 65, 1, 0.256375
356, 1, wb, attraction, a-b-db, 5, 2, 5, 8, 165, 90, 88, 161, 90, 165, 2, 1.69224
356, 1, wb, attraction, a-b-db, 5, 2, 5, 8, 165, 90, 88, 161, 90, 165, 1, 1.67904
356, 1, wb, filler, NA, 999, 999, 5, 9, 85, 132, 123, 186, 141, 115, 1, 1.08116
356, 1, wb, filler, NA, 999, 999, 5, 9, 85, 132, 123, 186, 141, 115, 2, 0.268789
356, 1, wb, attraction, a-b-db, 5, 1, 5, 10, 60, 135, 58, 132, 135, 60, 2, 5.99993
356, 1, wb, attraction, a-b-db, 5, 1, 5, 10, 60, 135, 58, 132, 135, 60, 3, 0.301391
356, 1, wb, filler, NA, 999, 999, 5, 11, 87, 58, 143, 82, 106, 158, 1, 0.551239
356, 1, wb, filler, NA, 999, 999, 5, 11, 87, 58, 143, 82, 106, 158, 3, 0.600379
356, 1, wb, attraction, a-b-da, 5, 3, 5, 12, 195, 120, 190, 117, 120, 195, 2, 2.06215
356, 1, wb, attraction, a-b-da, 5, 3, 5, 12, 195, 120, 190, 117, 120, 195, 3, 0.226074
356, 1, wb, attraction, a-b-db, 2, 3, 5, 13, 120, 195, 195, 120, 119, 193, 1, 4.15068
356, 1, wb, attraction, a-b-db, 2, 3, 5, 13, 120, 195, 195, 120, 119, 193, 3, 1.95064
356, 1, wb, attraction, a-b-db, 9, 1, 5, 14, 57, 129, 60, 135, 135, 60, 2, 2.62994
356, 1, wb, attraction, a-b-db, 9, 1, 5, 14, 57, 129, 60, 135, 135, 60, 1, 1.57119
356, 1, wb, filler, NA, 999, 999, 5, 15, 166, 122, 64, 185, 84, 93, 3, 0.849913
356, 1, wb, filler, NA, 999, 999, 5, 15, 166, 122, 64, 185, 84, 93, 1, 0.622906
356, 1, wb, attraction, a-b-da, 5, 1, 5, 16, 60, 135, 135, 60, 132, 58, 1, 4.53207
356, 1, wb, attraction, a-b-da, 5, 1, 5, 16, 60, 135, 135, 60, 132, 58, 2, 1.2847
356, 1, wb, attraction, a-b-db, 5, 3, 5, 17, 117, 190, 120, 195, 195, 120, 1, 1.73479
356, 1, wb, attraction, a-b-db, 5, 3, 5, 17, 117, 190, 120, 195, 195, 120, 3, 0.352237
356, 1, wb, attraction, a-b-da, 5, 2, 5, 18, 161, 88, 90, 165, 165, 90, 1, 1.08009
356, 1, wb, attraction, a-b-da, 5, 2, 5, 18, 161, 88, 90, 165, 165, 90, 2, 0.907682
356, 1, wb, attraction, a-b-da, 14, 1, 5, 19, 125, 56, 60, 135, 135, 60, 1, 1.17265
356, 1, wb, attraction, a-b-da, 14, 1, 5, 19, 125, 56, 60, 135, 135, 60, 3, 1.2043
356, 1, wb, attraction, a-b-da, 14, 2, 5, 20, 153, 83, 90, 165, 165, 90, 1, 3.39385
356, 1, wb, attraction, a-b-da, 14, 2, 5, 20, 153, 83, 90, 165, 165, 90, 2, 0.376179
356, 1, wb, filler, NA, 999, 999, 5, 21, 167, 130, 187, 157, 73, 91, 3, 0.846573
356, 1, wb, filler, NA, 999, 999, 5, 21, 167, 130, 187, 157, 73, 91, 2, 0.611565
356, 1, wb, catch, NA, 999, 999, 5, 22, 151, 164, 96, 99, 91, 164, 2, 0.640654
356, 1, wb, catch, NA, 999, 999, 5, 22, 151, 164, 96, 99, 91, 164, 1, 0.773845
356, 1, wb, attraction, a-b-da, 9, 1, 5, 23, 60, 135, 135, 60, 129, 57, 3, 1.78825
356, 1, wb, attraction, a-b-da, 9, 1, 5, 23, 60, 135, 135, 60, 129, 57, 2, 1.01091
356, 1, wb, attraction, a-b-da, 9, 3, 5, 24, 186, 114, 195, 120, 120, 195, 1, 5.25589
356, 1, wb, attraction, a-b-da, 9, 3, 5, 24, 186, 114, 195, 120, 120, 195, 3, 0.92292
356, 1, wb, attraction, a-b-da, 2, 3, 5, 25, 195, 120, 120, 195, 193, 119, 2, 3.62007
356, 1, wb, attraction, a-b-da, 2, 3, 5, 25, 195, 120, 120, 195, 193, 119, 1, 1.78545
356, 1, wb, catch, NA, 999, 999, 5, 26, 148, 107, 174, 141, 99, 96, 3, 0.79144
356, 1, wb, catch, NA, 999, 999, 5, 26, 148, 107, 174, 141, 99, 96, 2, 0.26253
356, 1, wb, attraction, a-b-db, 2, 2, 5, 27, 89, 163, 90, 165, 165, 90, 2, 5.24973
356, 1, wb, attraction, a-b-db, 2, 2, 5, 27, 89, 163, 90, 165, 165, 90, 3, 0.941387
356, 1, wb, attraction, a-b-db, 9, 2, 5, 28, 165, 90, 86, 157, 90, 165, 1, 0.757035
356, 1, wb, attraction, a-b-db, 9, 2, 5, 28, 165, 90, 86, 157, 90, 165, 2, 0.269426
356, 1, wb, filler, NA, 999, 999, 5, 29, 75, 59, 147, 78, 161, 144, 1, 0.608579
356, 1, wb, filler, NA, 999, 999, 5, 29, 75, 59, 147, 78, 161, 144, 3, 0.614974
356, 1, wb, filler, NA, 999, 999, 5, 30, 129, 125, 182, 56, 78, 155, 2, 6.98815
356, 1, wb, filler, NA, 999, 999, 5, 30, 129, 125, 182, 56, 78, 155, 1, 0.577894
356, 1, wb, attraction, a-b-da, 14, 3, 5, 31, 195, 120, 120, 195, 181, 111, 1, 17.4163
356, 1, wb, attraction, a-b-da, 14, 3, 5, 31, 195, 120, 120, 195, 181, 111, 2, 0.257556
356, 1, wb, attraction, a-b-db, 9, 3, 5, 32, 120, 195, 195, 120, 114, 186, 3, 0.924694
356, 1, wb, attraction, a-b-db, 9, 3, 5, 32, 120, 195, 195, 120, 114, 186, 2, 0.214472
356, 1, wb, filler, NA, 999, 999, 5, 33, 85, 141, 57, 141, 136, 150, 2, 0.931637
356, 1, wb, filler, NA, 999, 999, 5, 33, 85, 141, 57, 141, 136, 150, 3, 0.41347
356, 1, wb, attraction, a-b-db, 14, 3, 5, 34, 195, 120, 111, 181, 120, 195, 2, 1.53853
356, 1, wb, attraction, a-b-db, 14, 3, 5, 34, 195, 120, 111, 181, 120, 195, 1, 0.395321
356, 1, wb, catch, NA, 999, 999, 5, 35, 129, 126, 122, 193, 99, 96, 3, 0.801118
356, 1, wb, catch, NA, 999, 999, 5, 35, 129, 126, 122, 193, 99, 96, 2, 0.296087
356, 1, wb, attraction, a-b-da, 9, 2, 5, 36, 90, 165, 165, 90, 157, 86, 1, 1.86601
356, 1, wb, attraction, a-b-da, 9, 2, 5, 36, 90, 165, 165, 90, 157, 86, 2, 1.31804
356, 1, wb, attraction, a-b-db, 2, 1, 5, 37, 59, 134, 135, 60, 60, 135, 1, 5.66296
356, 1, wb, attraction, a-b-db, 2, 1, 5, 37, 59, 134, 135, 60, 60, 135, 3, 0.193885
356, 1, wb, attraction, a-b-da, 5, 1, 6, 1, 135, 60, 132, 58, 60, 135, 3, 2.76772
356, 1, wb, attraction, a-b-da, 5, 1, 6, 1, 135, 60, 132, 58, 60, 135, 1, 1.57554
356, 1, wb, catch, NA, 999, 999, 6, 2, 109, 146, 108, 87, 138, 177, 2, 0.853624
356, 1, wb, catch, NA, 999, 999, 6, 2, 109, 146, 108, 87, 138, 177, 3, 0.578663
356, 1, wb, attraction, a-b-da, 5, 2, 6, 3, 161, 88, 90, 165, 165, 90, 1, 3.84899
356, 1, wb, attraction, a-b-da, 5, 2, 6, 3, 161, 88, 90, 165, 165, 90, 2, 0.925068
356, 1, wb, filler, NA, 999, 999, 6, 4, 105, 172, 181, 78, 108, 155, 1, 1.11752
356, 1, wb, filler, NA, 999, 999, 6, 4, 105, 172, 181, 78, 108, 155, 2, 0.263738
356, 1, wb, attraction, a-b-db, 2, 1, 6, 5, 135, 60, 60, 135, 59, 134, 3, 1.75501
356, 1, wb, attraction, a-b-db, 2, 1, 6, 5, 135, 60, 60, 135, 59, 134, 1, 1.17107
356, 1, wb, attraction, a-b-db, 5, 2, 6, 6, 90, 165, 88, 161, 165, 90, 3, 1.402
356, 1, wb, attraction, a-b-db, 5, 2, 6, 6, 90, 165, 88, 161, 165, 90, 1, 0.896808
356, 1, wb, filler, NA, 999, 999, 6, 7, 57, 56, 186, 168, 70, 87, 1, 0.914481
356, 1, wb, filler, NA, 999, 999, 6, 7, 57, 56, 186, 168, 70, 87, 2, 0.228791
356, 1, wb, filler, NA, 999, 999, 6, 8, 116, 91, 101, 71, 118, 133, 2, 0.545451
356, 1, wb, filler, NA, 999, 999, 6, 8, 116, 91, 101, 71, 118, 133, 3, 1.37864
356, 1, wb, filler, NA, 999, 999, 6, 9, 92, 177, 110, 65, 114, 158, 2, 1.20875
356, 1, wb, filler, NA, 999, 999, 6, 9, 92, 177, 110, 65, 114, 158, 3, 0.206954
356, 1, wb, attraction, a-b-da, 14, 3, 6, 10, 181, 111, 120, 195, 195, 120, 1, 2.77214
356, 1, wb, attraction, a-b-da, 14, 3, 6, 10, 181, 111, 120, 195, 195, 120, 2, 1.90728
356, 1, wb, attraction, a-b-da, 2, 2, 6, 11, 163, 89, 165, 90, 90, 165, 3, 6.34792
356, 1, wb, attraction, a-b-da, 2, 2, 6, 11, 163, 89, 165, 90, 90, 165, 1, 1.68323
356, 1, wb, filler, NA, 999, 999, 6, 12, 135, 107, 109, 178, 190, 160, 1, 1.00526
356, 1, wb, filler, NA, 999, 999, 6, 12, 135, 107, 109, 178, 190, 160, 3, 0.235744
356, 1, wb, attraction, a-b-da, 14, 1, 6, 13, 60, 135, 135, 60, 125, 56, 3, 2.36023
356, 1, wb, attraction, a-b-da, 14, 1, 6, 13, 60, 135, 135, 60, 125, 56, 2, 1.83226
356, 1, wb, attraction, a-b-da, 14, 2, 6, 14, 153, 83, 165, 90, 90, 165, 1, 3.5321
356, 1, wb, attraction, a-b-da, 14, 2, 6, 14, 153, 83, 165, 90, 90, 165, 3, 0.413203
356, 1, wb, attraction, a-b-db, 5, 3, 6, 15, 195, 120, 117, 190, 120, 195, 1, 5.25818
356, 1, wb, attraction, a-b-db, 5, 3, 6, 15, 195, 120, 117, 190, 120, 195, 2, 0.285089
356, 1, wb, attraction, a-b-da, 9, 3, 6, 16, 120, 195, 186, 114, 195, 120, 1, 6.47159
356, 1, wb, attraction, a-b-da, 9, 3, 6, 16, 120, 195, 186, 114, 195, 120, 2, 0.290259
356, 1, wb, attraction, a-b-db, 14, 1, 6, 17, 135, 60, 56, 125, 60, 135, 2, 1.26009
356, 1, wb, attraction, a-b-db, 14, 1, 6, 17, 135, 60, 56, 125, 60, 135, 1, 0.568327
356, 1, wb, filler, NA, 999, 999, 6, 18, 164, 64, 140, 102, 125, 96, 1, 1.91147
356, 1, wb, filler, NA, 999, 999, 6, 18, 164, 64, 140, 102, 125, 96, 2, 0.401584
356, 1, wb, attraction, a-b-da, 5, 3, 6, 19, 120, 195, 190, 117, 195, 120, 1, 1.79136
356, 1, wb, attraction, a-b-da, 5, 3, 6, 19, 120, 195, 190, 117, 195, 120, 3, 0.19013
356, 1, wb, attraction, a-b-db, 14, 3, 6, 20, 120, 195, 111, 181, 195, 120, 1, 2.61186
356, 1, wb, attraction, a-b-db, 14, 3, 6, 20, 120, 195, 111, 181, 195, 120, 3, 0.241771
356, 1, wb, filler, NA, 999, 999, 6, 21, 96, 111, 80, 184, 177, 57, 1, 0.637733
356, 1, wb, filler, NA, 999, 999, 6, 21, 96, 111, 80, 184, 177, 57, 2, 1.12359
356, 1, wb, attraction, a-b-da, 2, 1, 6, 22, 60, 135, 134, 59, 135, 60, 3, 1.74764
356, 1, wb, attraction, a-b-da, 2, 1, 6, 22, 60, 135, 134, 59, 135, 60, 2, 0.796583
356, 1, wb, attraction, a-b-db, 5, 1, 6, 23, 135, 60, 58, 132, 60, 135, 2, 1.41017
356, 1, wb, attraction, a-b-db, 5, 1, 6, 23, 135, 60, 58, 132, 60, 135, 1, 0.968342
356, 1, wb, attraction, a-b-da, 9, 1, 6, 24, 60, 135, 129, 57, 135, 60, 2, 0.983464
356, 1, wb, attraction, a-b-da, 9, 1, 6, 24, 60, 135, 129, 57, 135, 60, 3, 0.70308
356, 1, wb, filler, NA, 999, 999, 6, 25, 105, 177, 63, 146, 79, 87, 3, 0.944748
356, 1, wb, filler, NA, 999, 999, 6, 25, 105, 177, 63, 146, 79, 87, 1, 0.617715
356, 1, wb, attraction, a-b-da, 2, 3, 6, 26, 120, 195, 193, 119, 195, 120, 1, 2.24682
356, 1, wb, attraction, a-b-da, 2, 3, 6, 26, 120, 195, 193, 119, 195, 120, 3, 0.691498
356, 1, wb, attraction, a-b-db, 9, 2, 6, 27, 86, 157, 90, 165, 165, 90, 1, 0.661086
356, 1, wb, attraction, a-b-db, 9, 2, 6, 27, 86, 157, 90, 165, 165, 90, 3, 1.13754
356, 1, wb, attraction, a-b-db, 14, 2, 6, 28, 165, 90, 83, 153, 90, 165, 2, 2.28982
356, 1, wb, attraction, a-b-db, 14, 2, 6, 28, 165, 90, 83, 153, 90, 165, 3, 2.03645
356, 1, wb, attraction, a-b-db, 9, 1, 6, 29, 57, 129, 135, 60, 60, 135, 2, 0.736368
356, 1, wb, attraction, a-b-db, 9, 1, 6, 29, 57, 129, 135, 60, 60, 135, 3, 0.770166
356, 1, wb, filler, NA, 999, 999, 6, 30, 182, 180, 77, 181, 122, 112, 2, 1.8332
356, 1, wb, filler, NA, 999, 999, 6, 30, 182, 180, 77, 181, 122, 112, 1, 0.870585
356, 1, wb, catch, NA, 999, 999, 6, 31, 155, 100, 133, 62, 133, 182, 2, 0.921577
356, 1, wb, catch, NA, 999, 999, 6, 31, 155, 100, 133, 62, 133, 182, 3, 0.779259
356, 1, wb, catch, NA, 999, 999, 6, 32, 136, 179, 99, 156, 114, 81, 3, 0.9297
356, 1, wb, catch, NA, 999, 999, 6, 32, 136, 179, 99, 156, 114, 81, 1, 0.891304
356, 1, wb, attraction, a-b-db, 2, 3, 6, 33, 120, 195, 119, 193, 195, 120, 1, 9.86905
356, 1, wb, attraction, a-b-db, 2, 3, 6, 33, 120, 195, 119, 193, 195, 120, 2, 0.214589
356, 1, wb, attraction, a-b-db, 9, 3, 6, 34, 120, 195, 114, 186, 195, 120, 1, 3.57974
356, 1, wb, attraction, a-b-db, 9, 3, 6, 34, 120, 195, 114, 186, 195, 120, 3, 0.618572
356, 1, wb, attraction, a-b-db, 2, 2, 6, 35, 90, 165, 165, 90, 89, 163, 1, 1.00768
356, 1, wb, attraction, a-b-db, 2, 2, 6, 35, 90, 165, 165, 90, 89, 163, 3, 1.30194
356, 1, wb, filler, NA, 999, 999, 6, 36, 131, 57, 162, 193, 118, 69, 1, 2.71963
356, 1, wb, filler, NA, 999, 999, 6, 36, 131, 57, 162, 193, 118, 69, 2, 0.657436
356, 1, wb, attraction, a-b-da, 9, 2, 6, 37, 90, 165, 165, 90, 157, 86, 1, 3.96439
356, 1, wb, attraction, a-b-da, 9, 2, 6, 37, 90, 165, 165, 90, 157, 86, 2, 0.38778
356, 1, wb, attraction, a-b-da, 14, 2, 7, 1, 90, 165, 153, 83, 165, 90, 1, 1.2342
356, 1, wb, attraction, a-b-da, 14, 2, 7, 1, 90, 165, 153, 83, 165, 90, 3, 0.45595
356, 1, wb, filler, NA, 999, 999, 7, 2, 128, 176, 60, 112, 61, 86, 3, 0.659677
356, 1, wb, filler, NA, 999, 999, 7, 2, 128, 176, 60, 112, 61, 86, 1, 0.296085
356, 1, wb, attraction, a-b-da, 2, 3, 7, 3, 195, 120, 193, 119, 120, 195, 3, 3.40198
356, 1, wb, attraction, a-b-da, 2, 3, 7, 3, 195, 120, 193, 119, 120, 195, 1, 0.896158
356, 1, wb, filler, NA, 999, 999, 7, 4, 143, 98, 73, 169, 165, 73, 2, 2.00184
356, 1, wb, filler, NA, 999, 999, 7, 4, 143, 98, 73, 169, 165, 73, 3, 0.248552
356, 1, wb, attraction, a-b-da, 2, 1, 7, 5, 60, 135, 134, 59, 135, 60, 3, 1.34842
356, 1, wb, attraction, a-b-da, 2, 1, 7, 5, 60, 135, 134, 59, 135, 60, 1, 0.701213
356, 1, wb, filler, NA, 999, 999, 7, 6, 100, 144, 157, 159, 115, 57, 3, 0.775059
356, 1, wb, filler, NA, 999, 999, 7, 6, 100, 144, 157, 159, 115, 57, 2, 0.406709
356, 1, wb, attraction, a-b-db, 9, 1, 7, 7, 60, 135, 135, 60, 57, 129, 2, 2.53191
356, 1, wb, attraction, a-b-db, 9, 1, 7, 7, 60, 135, 135, 60, 57, 129, 3, 0.261103
356, 1, wb, filler, NA, 999, 999, 7, 8, 125, 150, 77, 162, 169, 84, 2, 3.78427
356, 1, wb, filler, NA, 999, 999, 7, 8, 125, 150, 77, 162, 169, 84, 1, 0.230994
356, 1, wb, attraction, a-b-da, 9, 1, 7, 9, 60, 135, 129, 57, 135, 60, 3, 1.61157
356, 1, wb, attraction, a-b-da, 9, 1, 7, 9, 60, 135, 129, 57, 135, 60, 1, 0.305702
356, 1, wb, attraction, a-b-db, 5, 1, 7, 10, 60, 135, 135, 60, 58, 132, 3, 1.15554
356, 1, wb, attraction, a-b-db, 5, 1, 7, 10, 60, 135, 135, 60, 58, 132, 1, 0.843907
356, 1, wb, filler, NA, 999, 999, 7, 11, 144, 109, 65, 191, 131, 172, 1, 2.63161
356, 1, wb, filler, NA, 999, 999, 7, 11, 144, 109, 65, 191, 131, 172, 3, 0.284708
356, 1, wb, attraction, a-b-db, 5, 3, 7, 12, 117, 190, 120, 195, 195, 120, 1, 1.59123
356, 1, wb, attraction, a-b-db, 5, 3, 7, 12, 117, 190, 120, 195, 195, 120, 3, 0.229988
356, 1, wb, filler, NA, 999, 999, 7, 13, 124, 181, 125, 128, 113, 184, 3, 1.41848
356, 1, wb, filler, NA, 999, 999, 7, 13, 124, 181, 125, 128, 113, 184, 2, 0.280723
356, 1, wb, catch, NA, 999, 999, 7, 14, 153, 102, 193, 122, 86, 109, 3, 1.53126
356, 1, wb, catch, NA, 999, 999, 7, 14, 153, 102, 193, 122, 86, 109, 2, 0.236708
356, 1, wb, attraction, a-b-db, 2, 1, 7, 15, 135, 60, 59, 134, 60, 135, 3, 1.95328
356, 1, wb, attraction, a-b-db, 2, 1, 7, 15, 135, 60, 59, 134, 60, 135, 1, 0.674055
356, 1, wb, attraction, a-b-db, 2, 2, 7, 16, 89, 163, 165, 90, 90, 165, 1, 1.87636
356, 1, wb, attraction, a-b-db, 2, 2, 7, 16, 89, 163, 165, 90, 90, 165, 2, 1.11982
356, 1, wb, attraction, a-b-db, 9, 3, 7, 17, 120, 195, 114, 186, 195, 120, 1, 1.76865
356, 1, wb, attraction, a-b-db, 9, 3, 7, 17, 120, 195, 114, 186, 195, 120, 3, 0.280838
356, 1, wb, attraction, a-b-da, 2, 2, 7, 18, 165, 90, 163, 89, 90, 165, 1, 0.723294
356, 1, wb, attraction, a-b-da, 2, 2, 7, 18, 165, 90, 163, 89, 90, 165, 2, 0.260976
356, 1, wb, attraction, a-b-da, 9, 2, 7, 19, 157, 86, 165, 90, 90, 165, 1, 0.744296
356, 1, wb, attraction, a-b-da, 9, 2, 7, 19, 157, 86, 165, 90, 90, 165, 2, 0.217309
356, 1, wb, attraction, a-b-db, 2, 3, 7, 20, 119, 193, 195, 120, 120, 195, 3, 2.28653
356, 1, wb, attraction, a-b-db, 2, 3, 7, 20, 119, 193, 195, 120, 120, 195, 2, 0.353947
356, 1, wb, filler, NA, 999, 999, 7, 21, 87, 172, 62, 128, 86, 173, 2, 1.51375
356, 1, wb, filler, NA, 999, 999, 7, 21, 87, 172, 62, 128, 86, 173, 1, 0.579826
356, 1, wb, attraction, a-b-db, 9, 2, 7, 22, 165, 90, 86, 157, 90, 165, 1, 1.93014
356, 1, wb, attraction, a-b-db, 9, 2, 7, 22, 165, 90, 86, 157, 90, 165, 2, 0.643572
356, 1, wb, attraction, a-b-db, 5, 2, 7, 23, 165, 90, 90, 165, 88, 161, 3, 1.43929
356, 1, wb, attraction, a-b-db, 5, 2, 7, 23, 165, 90, 90, 165, 88, 161, 2, 0.220104
356, 1, wb, attraction, a-b-da, 14, 1, 7, 24, 125, 56, 135, 60, 60, 135, 3, 1.48133
356, 1, wb, attraction, a-b-da, 14, 1, 7, 24, 125, 56, 135, 60, 60, 135, 1, 0.860886
356, 1, wb, attraction, a-b-db, 14, 2, 7, 25, 83, 153, 165, 90, 90, 165, 3, 1.11199
356, 1, wb, attraction, a-b-db, 14, 2, 7, 25, 83, 153, 165, 90, 90, 165, 2, 0.290142
356, 1, wb, catch, NA, 999, 999, 7, 26, 159, 96, 173, 142, 121, 74, 3, 0.524052
356, 1, wb, catch, NA, 999, 999, 7, 26, 159, 96, 173, 142, 121, 74, 2, 0.621846
356, 1, wb, attraction, a-b-db, 14, 3, 7, 27, 195, 120, 120, 195, 111, 181, 3, 1.05889
356, 1, wb, attraction, a-b-db, 14, 3, 7, 27, 195, 120, 120, 195, 111, 181, 2, 0.375223
356, 1, wb, filler, NA, 999, 999, 7, 28, 188, 124, 134, 151, 65, 86, 3, 0.621692
356, 1, wb, filler, NA, 999, 999, 7, 28, 188, 124, 134, 151, 65, 86, 1, 1.38758
356, 1, wb, attraction, a-b-da, 5, 3, 7, 29, 195, 120, 120, 195, 190, 117, 1, 3.88971
356, 1, wb, attraction, a-b-da, 5, 3, 7, 29, 195, 120, 120, 195, 190, 117, 2, 0.275734
356, 1, wb, attraction, a-b-da, 9, 3, 7, 30, 186, 114, 195, 120, 120, 195, 3, 1.08633
356, 1, wb, attraction, a-b-da, 9, 3, 7, 30, 186, 114, 195, 120, 120, 195, 2, 0.51393
356, 1, wb, filler, NA, 999, 999, 7, 31, 157, 120, 60, 61, 181, 67, 2, 0.635153
356, 1, wb, filler, NA, 999, 999, 7, 31, 157, 120, 60, 61, 181, 67, 1, 0.45678
356, 1, wb, attraction, a-b-da, 5, 1, 7, 32, 132, 58, 135, 60, 60, 135, 3, 0.948135
356, 1, wb, attraction, a-b-da, 5, 1, 7, 32, 132, 58, 135, 60, 60, 135, 2, 0.804892
356, 1, wb, filler, NA, 999, 999, 7, 33, 156, 186, 127, 107, 104, 144, 3, 0.570698
356, 1, wb, filler, NA, 999, 999, 7, 33, 156, 186, 127, 107, 104, 144, 2, 0.259013
356, 1, wb, catch, NA, 999, 999, 7, 34, 155, 160, 91, 164, 92, 103, 3, 0.558428
356, 1, wb, catch, NA, 999, 999, 7, 34, 155, 160, 91, 164, 92, 103, 1, 0.270924
356, 1, wb, attraction, a-b-db, 14, 1, 7, 35, 60, 135, 135, 60, 56, 125, 3, 1.08993
356, 1, wb, attraction, a-b-db, 14, 1, 7, 35, 60, 135, 135, 60, 56, 125, 2, 1.53292
356, 1, wb, attraction, a-b-da, 5, 2, 7, 36, 90, 165, 165, 90, 161, 88, 3, 1.59703
356, 1, wb, attraction, a-b-da, 5, 2, 7, 36, 90, 165, 165, 90, 161, 88, 2, 0.211937
356, 1, wb, attraction, a-b-da, 14, 3, 7, 37, 120, 195, 195, 120, 181, 111, 3, 1.26504
356, 1, wb, attraction, a-b-da, 14, 3, 7, 37, 120, 195, 195, 120, 181, 111, 2, 0.237298
356, 1, wb, attraction, a-b-db, 14, 2, 8, 1, 83, 153, 165, 90, 90, 165, 3, 2.23389
356, 1, wb, attraction, a-b-db, 14, 2, 8, 1, 83, 153, 165, 90, 90, 165, 2, 0.847139
356, 1, wb, attraction, a-b-db, 9, 3, 8, 2, 114, 186, 120, 195, 195, 120, 3, 1.58678
356, 1, wb, attraction, a-b-db, 9, 3, 8, 2, 114, 186, 120, 195, 195, 120, 2, 0.250402
356, 1, wb, filler, NA, 999, 999, 8, 3, 187, 126, 123, 147, 175, 184, 3, 0.758231
356, 1, wb, filler, NA, 999, 999, 8, 3, 187, 126, 123, 147, 175, 184, 2, 2.89453
356, 1, wb, catch, NA, 999, 999, 8, 4, 159, 156, 68, 127, 132, 123, 2, 0.935558
356, 1, wb, catch, NA, 999, 999, 8, 4, 159, 156, 68, 127, 132, 123, 1, 0.289388
356, 1, wb, attraction, a-b-da, 9, 1, 8, 5, 129, 57, 135, 60, 60, 135, 1, 0.971759
356, 1, wb, attraction, a-b-da, 9, 1, 8, 5, 129, 57, 135, 60, 60, 135, 2, 0.227503
356, 1, wb, attraction, a-b-db, 9, 1, 8, 6, 57, 129, 135, 60, 60, 135, 1, 0.872041
356, 1, wb, attraction, a-b-db, 9, 1, 8, 6, 57, 129, 135, 60, 60, 135, 2, 0.219665
356, 1, wb, attraction, a-b-da, 5, 1, 8, 7, 132, 58, 135, 60, 60, 135, 3, 1.98492
356, 1, wb, attraction, a-b-da, 5, 1, 8, 7, 132, 58, 135, 60, 60, 135, 2, 0.24826
356, 1, wb, attraction, a-b-da, 2, 2, 8, 8, 163, 89, 90, 165, 165, 90, 1, 1.32406
356, 1, wb, attraction, a-b-da, 2, 2, 8, 8, 163, 89, 90, 165, 165, 90, 2, 0.573822
356, 1, wb, filler, NA, 999, 999, 8, 9, 77, 56, 148, 114, 185, 177, 1, 0.540221
356, 1, wb, filler, NA, 999, 999, 8, 9, 77, 56, 148, 114, 185, 177, 3, 0.397148
356, 1, wb, attraction, a-b-da, 2, 1, 8, 10, 134, 59, 135, 60, 60, 135, 3, 0.699104
356, 1, wb, attraction, a-b-da, 2, 1, 8, 10, 134, 59, 135, 60, 60, 135, 2, 0.566131
356, 1, wb, attraction, a-b-db, 5, 1, 8, 11, 58, 132, 135, 60, 60, 135, 3, 0.805339
356, 1, wb, attraction, a-b-db, 5, 1, 8, 11, 58, 132, 135, 60, 60, 135, 2, 0.531541
356, 1, wb, attraction, a-b-da, 5, 3, 8, 12, 190, 117, 120, 195, 195, 120, 3, 1.51601
356, 1, wb, attraction, a-b-da, 5, 3, 8, 12, 190, 117, 120, 195, 195, 120, 2, 0.726252
356, 1, wb, filler, NA, 999, 999, 8, 13, 89, 147, 96, 191, 101, 90, 3, 0.73461
356, 1, wb, filler, NA, 999, 999, 8, 13, 89, 147, 96, 191, 101, 90, 2, 1.14429
356, 1, wb, filler, NA, 999, 999, 8, 14, 86, 90, 162, 182, 182, 190, 1, 0.631903
356, 1, wb, filler, NA, 999, 999, 8, 14, 86, 90, 162, 182, 182, 190, 3, 0.373853
356, 1, wb, filler, NA, 999, 999, 8, 15, 90, 87, 153, 73, 192, 85, 1, 0.90022
356, 1, wb, filler, NA, 999, 999, 8, 15, 90, 87, 153, 73, 192, 85, 3, 0.439351
356, 1, wb, attraction, a-b-da, 14, 1, 8, 16, 135, 60, 125, 56, 60, 135, 3, 4.38759
356, 1, wb, attraction, a-b-da, 14, 1, 8, 16, 135, 60, 125, 56, 60, 135, 2, 0.24231
356, 1, wb, catch, NA, 999, 999, 8, 17, 118, 137, 96, 99, 142, 173, 2, 0.686132
356, 1, wb, catch, NA, 999, 999, 8, 17, 118, 137, 96, 99, 142, 173, 3, 0.321918
356, 1, wb, attraction, a-b-da, 5, 2, 8, 18, 165, 90, 90, 165, 161, 88, 3, 2.19519
356, 1, wb, attraction, a-b-da, 5, 2, 8, 18, 165, 90, 90, 165, 161, 88, 2, 0.233773
356, 1, wb, attraction, a-b-db, 14, 3, 8, 19, 195, 120, 120, 195, 111, 181, 3, 1.31332
356, 1, wb, attraction, a-b-db, 14, 3, 8, 19, 195, 120, 120, 195, 111, 181, 1, 0.552539
356, 1, wb, attraction, a-b-da, 2, 3, 8, 20, 195, 120, 193, 119, 120, 195, 3, 0.888328
356, 1, wb, attraction, a-b-da, 2, 3, 8, 20, 195, 120, 193, 119, 120, 195, 2, 0.947341
356, 1, wb, attraction, a-b-db, 2, 1, 8, 21, 60, 135, 135, 60, 59, 134, 3, 2.08296
356, 1, wb, attraction, a-b-db, 2, 1, 8, 21, 60, 135, 135, 60, 59, 134, 2, 0.278275
356, 1, wb, attraction, a-b-da, 9, 2, 8, 22, 165, 90, 90, 165, 157, 86, 3, 0.984798
356, 1, wb, attraction, a-b-da, 9, 2, 8, 22, 165, 90, 90, 165, 157, 86, 2, 0.592572
356, 1, wb, attraction, a-b-db, 14, 1, 8, 23, 60, 135, 135, 60, 56, 125, 3, 0.630218
356, 1, wb, attraction, a-b-db, 14, 1, 8, 23, 60, 135, 135, 60, 56, 125, 2, 0.331972
356, 1, wb, attraction, a-b-db, 2, 3, 8, 24, 195, 120, 119, 193, 120, 195, 3, 0.660511
356, 1, wb, attraction, a-b-db, 2, 3, 8, 24, 195, 120, 119, 193, 120, 195, 1, 0.336969
356, 1, wb, attraction, a-b-da, 14, 2, 8, 25, 153, 83, 90, 165, 165, 90, 3, 0.473544
356, 1, wb, attraction, a-b-da, 14, 2, 8, 25, 153, 83, 90, 165, 165, 90, 2, 0.245174
356, 1, wb, filler, NA, 999, 999, 8, 26, 173, 171, 177, 151, 179, 138, 3, 0.993051
356, 1, wb, filler, NA, 999, 999, 8, 26, 173, 171, 177, 151, 179, 138, 1, 0.264089
356, 1, wb, filler, NA, 999, 999, 8, 27, 91, 86, 130, 111, 141, 179, 1, 0.523342
356, 1, wb, filler, NA, 999, 999, 8, 27, 91, 86, 130, 111, 141, 179, 3, 0.309266
356, 1, wb, filler, NA, 999, 999, 8, 28, 181, 96, 106, 65, 166, 130, 2, 0.95839
356, 1, wb, filler, NA, 999, 999, 8, 28, 181, 96, 106, 65, 166, 130, 3, 0.262663
356, 1, wb, attraction, a-b-db, 5, 3, 8, 29, 195, 120, 120, 195, 117, 190, 1, 0.545821
356, 1, wb, attraction, a-b-db, 5, 3, 8, 29, 195, 120, 120, 195, 117, 190, 3, 0.61093
356, 1, wb, catch, NA, 999, 999, 8, 30, 143, 112, 152, 163, 69, 126, 3, 0.584016
356, 1, wb, catch, NA, 999, 999, 8, 30, 143, 112, 152, 163, 69, 126, 2, 0.255942
356, 1, wb, filler, NA, 999, 999, 8, 31, 174, 87, 140, 105, 136, 182, 1, 0.643677
356, 1, wb, filler, NA, 999, 999, 8, 31, 174, 87, 140, 105, 136, 182, 2, 0.280741
356, 1, wb, attraction, a-b-db, 5, 2, 8, 32, 90, 165, 165, 90, 88, 161, 1, 0.739234
356, 1, wb, attraction, a-b-db, 5, 2, 8, 32, 90, 165, 165, 90, 88, 161, 2, 0.292353
356, 1, wb, attraction, a-b-da, 9, 3, 8, 33, 195, 120, 186, 114, 120, 195, 3, 0.486131
356, 1, wb, attraction, a-b-da, 9, 3, 8, 33, 195, 120, 186, 114, 120, 195, 2, 0.609973
356, 1, wb, attraction, a-b-db, 2, 2, 8, 34, 89, 163, 90, 165, 165, 90, 2, 0.615041
356, 1, wb, attraction, a-b-db, 2, 2, 8, 34, 89, 163, 90, 165, 165, 90, 1, 0.933579
356, 1, wb, attraction, a-b-da, 14, 3, 8, 35, 120, 195, 181, 111, 195, 120, 1, 0.733893
356, 1, wb, attraction, a-b-da, 14, 3, 8, 35, 120, 195, 181, 111, 195, 120, 2, 0.27963
356, 1, wb, attraction, a-b-db, 9, 2, 8, 36, 90, 165, 165, 90, 86, 157, 3, 0.570158
356, 1, wb, attraction, a-b-db, 9, 2, 8, 36, 90, 165, 165, 90, 86, 157, 2, 0.682646
356, 1, wb, filler, NA, 999, 999, 8, 37, 123, 66, 63, 163, 102, 74, 3, 0.741037
356, 1, wb, filler, NA, 999, 999, 8, 37, 123, 66, 63, 163, 102, 74, 2, 0.670164
