sub_n, computer_n, bw_cond, effect, set, distance, diag, block_n, trial_n, h1, w1, h2, w2, h3, w3, choice, rt 
301, 1, bw, practice, NA, 999, 999, 0, 1, 166, 95, 155, 168, 146, 130, 2, 2.91714
301, 1, bw, practice, NA, 999, 999, 0, 1, 166, 95, 155, 168, 146, 130, 1, 3.43752
301, 1, bw, practice, NA, 999, 999, 0, 2, 147, 129, 179, 74, 74, 159, 1, 2.54823
301, 1, bw, practice, NA, 999, 999, 0, 2, 147, 129, 179, 74, 74, 159, 3, 1.45433
301, 1, bw, practice, NA, 999, 999, 0, 3, 69, 168, 164, 82, 97, 165, 3, 3.13584
301, 1, bw, practice, NA, 999, 999, 0, 3, 69, 168, 164, 82, 97, 165, 1, 2.39202
301, 1, bw, attraction, a-b-da, 2, 1, 1, 1, 134, 59, 135, 60, 60, 135, 1, 5.03231
301, 1, bw, attraction, a-b-da, 2, 1, 1, 1, 134, 59, 135, 60, 60, 135, 2, 1.04474
301, 1, bw, attraction, a-b-da, 2, 2, 1, 2, 163, 89, 90, 165, 165, 90, 2, 2.32036
301, 1, bw, attraction, a-b-da, 2, 2, 1, 2, 163, 89, 90, 165, 165, 90, 1, 0.698212
301, 1, bw, filler, NA, 999, 999, 1, 3, 64, 95, 58, 158, 110, 181, 3, 0.995917
301, 1, bw, filler, NA, 999, 999, 1, 3, 64, 95, 58, 158, 110, 181, 1, 0.771015
301, 1, bw, attraction, a-b-db, 14, 1, 1, 4, 60, 135, 135, 60, 56, 125, 1, 1.67408
301, 1, bw, attraction, a-b-db, 14, 1, 1, 4, 60, 135, 135, 60, 56, 125, 3, 0.645423
301, 1, bw, filler, NA, 999, 999, 1, 5, 190, 148, 107, 81, 184, 139, 1, 1.19316
301, 1, bw, filler, NA, 999, 999, 1, 5, 190, 148, 107, 81, 184, 139, 2, 0.760081
301, 1, bw, attraction, a-b-db, 5, 1, 1, 6, 60, 135, 58, 132, 135, 60, 2, 2.75117
301, 1, bw, attraction, a-b-db, 5, 1, 1, 6, 60, 135, 58, 132, 135, 60, 1, 0.855597
301, 1, bw, attraction, a-b-db, 5, 2, 1, 7, 88, 161, 165, 90, 90, 165, 2, 1.57916
301, 1, bw, attraction, a-b-db, 5, 2, 1, 7, 88, 161, 165, 90, 90, 165, 3, 0.938771
301, 1, bw, attraction, a-b-da, 2, 3, 1, 8, 193, 119, 120, 195, 195, 120, 1, 3.09102
301, 1, bw, attraction, a-b-da, 2, 3, 1, 8, 193, 119, 120, 195, 195, 120, 3, 0.693506
301, 1, bw, filler, NA, 999, 999, 1, 9, 139, 116, 96, 153, 157, 101, 3, 2.51114
301, 1, bw, filler, NA, 999, 999, 1, 9, 139, 116, 96, 153, 157, 101, 2, 0.904987
301, 1, bw, attraction, a-b-db, 5, 3, 1, 10, 117, 190, 195, 120, 120, 195, 2, 2.76263
301, 1, bw, attraction, a-b-db, 5, 3, 1, 10, 117, 190, 195, 120, 120, 195, 1, 0.522383
301, 1, bw, filler, NA, 999, 999, 1, 11, 135, 174, 155, 169, 149, 175, 2, 1.81148
301, 1, bw, filler, NA, 999, 999, 1, 11, 135, 174, 155, 169, 149, 175, 1, 0.609576
301, 1, bw, filler, NA, 999, 999, 1, 12, 192, 135, 108, 163, 151, 159, 1, 2.47862
301, 1, bw, filler, NA, 999, 999, 1, 12, 192, 135, 108, 163, 151, 159, 2, 0.569808
301, 1, bw, attraction, a-b-db, 2, 2, 1, 13, 90, 165, 89, 163, 165, 90, 1, 4.00901
301, 1, bw, attraction, a-b-db, 2, 2, 1, 13, 90, 165, 89, 163, 165, 90, 3, 1.11837
301, 1, bw, catch, NA, 999, 999, 1, 14, 103, 92, 183, 132, 150, 105, 2, 0.879311
301, 1, bw, catch, NA, 999, 999, 1, 14, 103, 92, 183, 132, 150, 105, 1, 0.707074
301, 1, bw, attraction, a-b-db, 2, 1, 1, 15, 59, 134, 135, 60, 60, 135, 3, 1.91599
301, 1, bw, attraction, a-b-db, 2, 1, 1, 15, 59, 134, 135, 60, 60, 135, 1, 0.638151
301, 1, bw, attraction, a-b-db, 2, 3, 1, 16, 195, 120, 119, 193, 120, 195, 3, 3.5865
301, 1, bw, attraction, a-b-db, 2, 3, 1, 16, 195, 120, 119, 193, 120, 195, 2, 1.14548
301, 1, bw, catch, NA, 999, 999, 1, 17, 173, 142, 101, 154, 60, 135, 1, 0.968879
301, 1, bw, catch, NA, 999, 999, 1, 17, 173, 142, 101, 154, 60, 135, 3, 0.897255
301, 1, bw, attraction, a-b-da, 14, 1, 1, 18, 125, 56, 60, 135, 135, 60, 2, 1.57099
301, 1, bw, attraction, a-b-da, 14, 1, 1, 18, 125, 56, 60, 135, 135, 60, 1, 0.443102
301, 1, bw, attraction, a-b-da, 9, 1, 1, 19, 60, 135, 135, 60, 129, 57, 1, 0.918846
301, 1, bw, attraction, a-b-da, 9, 1, 1, 19, 60, 135, 135, 60, 129, 57, 2, 0.649261
301, 1, bw, filler, NA, 999, 999, 1, 20, 87, 174, 85, 134, 165, 82, 1, 3.64506
301, 1, bw, filler, NA, 999, 999, 1, 20, 87, 174, 85, 134, 165, 82, 2, 0.521166
301, 1, bw, filler, NA, 999, 999, 1, 21, 116, 96, 166, 119, 100, 130, 2, 1.15427
301, 1, bw, filler, NA, 999, 999, 1, 21, 116, 96, 166, 119, 100, 130, 1, 0.731179
301, 1, bw, attraction, a-b-db, 14, 2, 1, 22, 90, 165, 83, 153, 165, 90, 1, 1.37152
301, 1, bw, attraction, a-b-db, 14, 2, 1, 22, 90, 165, 83, 153, 165, 90, 2, 0.44305
301, 1, bw, attraction, a-b-da, 14, 2, 1, 23, 165, 90, 90, 165, 153, 83, 2, 3.03099
301, 1, bw, attraction, a-b-da, 14, 2, 1, 23, 165, 90, 90, 165, 153, 83, 3, 1.43615
301, 1, bw, attraction, a-b-db, 9, 2, 1, 24, 165, 90, 90, 165, 86, 157, 2, 1.03211
301, 1, bw, attraction, a-b-db, 9, 2, 1, 24, 165, 90, 90, 165, 86, 157, 3, 0.63791
301, 1, bw, attraction, a-b-da, 5, 1, 1, 25, 132, 58, 60, 135, 135, 60, 2, 3.56218
301, 1, bw, attraction, a-b-da, 5, 1, 1, 25, 132, 58, 60, 135, 135, 60, 1, 0.945701
301, 1, bw, attraction, a-b-db, 9, 1, 1, 26, 135, 60, 57, 129, 60, 135, 1, 12.6573
301, 1, bw, attraction, a-b-db, 9, 1, 1, 26, 135, 60, 57, 129, 60, 135, 2, 0.522619
301, 1, bw, attraction, a-b-da, 9, 2, 1, 27, 165, 90, 157, 86, 90, 165, 3, 2.80386
301, 1, bw, attraction, a-b-da, 9, 2, 1, 27, 165, 90, 157, 86, 90, 165, 1, 0.522209
301, 1, bw, attraction, a-b-db, 14, 3, 1, 28, 120, 195, 111, 181, 195, 120, 3, 4.96345
301, 1, bw, attraction, a-b-db, 14, 3, 1, 28, 120, 195, 111, 181, 195, 120, 2, 0.586461
301, 1, bw, filler, NA, 999, 999, 1, 29, 85, 124, 185, 108, 125, 69, 2, 0.66493
301, 1, bw, filler, NA, 999, 999, 1, 29, 85, 124, 185, 108, 125, 69, 3, 0.917311
301, 1, bw, attraction, a-b-da, 9, 3, 1, 30, 186, 114, 195, 120, 120, 195, 2, 6.41429
301, 1, bw, attraction, a-b-da, 9, 3, 1, 30, 186, 114, 195, 120, 120, 195, 3, 0.602901
301, 1, bw, attraction, a-b-db, 9, 3, 1, 31, 120, 195, 195, 120, 114, 186, 2, 2.0807
301, 1, bw, attraction, a-b-db, 9, 3, 1, 31, 120, 195, 195, 120, 114, 186, 1, 0.72395
301, 1, bw, attraction, a-b-da, 5, 2, 1, 32, 161, 88, 90, 165, 165, 90, 2, 2.23642
301, 1, bw, attraction, a-b-da, 5, 2, 1, 32, 161, 88, 90, 165, 165, 90, 1, 0.46578
301, 1, bw, filler, NA, 999, 999, 1, 33, 96, 92, 149, 125, 93, 155, 2, 0.484789
301, 1, bw, filler, NA, 999, 999, 1, 33, 96, 92, 149, 125, 93, 155, 1, 0.544649
301, 1, bw, catch, NA, 999, 999, 1, 34, 116, 139, 181, 134, 135, 60, 2, 0.728448
301, 1, bw, catch, NA, 999, 999, 1, 34, 116, 139, 181, 134, 135, 60, 3, 0.698281
301, 1, bw, attraction, a-b-da, 14, 3, 1, 35, 181, 111, 120, 195, 195, 120, 3, 3.15589
301, 1, bw, attraction, a-b-da, 14, 3, 1, 35, 181, 111, 120, 195, 195, 120, 1, 1.08362
301, 1, bw, filler, NA, 999, 999, 1, 36, 80, 92, 164, 125, 97, 87, 2, 0.869846
301, 1, bw, filler, NA, 999, 999, 1, 36, 80, 92, 164, 125, 97, 87, 1, 0.682125
301, 1, bw, attraction, a-b-da, 5, 3, 1, 37, 120, 195, 190, 117, 195, 120, 2, 3.27659
301, 1, bw, attraction, a-b-da, 5, 3, 1, 37, 120, 195, 190, 117, 195, 120, 1, 0.759512
301, 1, bw, attraction, a-b-da, 9, 3, 2, 1, 120, 195, 186, 114, 195, 120, 3, 3.09459
301, 1, bw, attraction, a-b-da, 9, 3, 2, 1, 120, 195, 186, 114, 195, 120, 1, 0.440879
301, 1, bw, attraction, a-b-db, 5, 2, 2, 2, 165, 90, 90, 165, 88, 161, 2, 6.46877
301, 1, bw, attraction, a-b-db, 5, 2, 2, 2, 165, 90, 90, 165, 88, 161, 1, 0.575341
301, 1, bw, attraction, a-b-db, 2, 1, 2, 3, 59, 134, 60, 135, 135, 60, 2, 1.06971
301, 1, bw, attraction, a-b-db, 2, 1, 2, 3, 59, 134, 60, 135, 135, 60, 1, 0.394091
301, 1, bw, attraction, a-b-db, 14, 1, 2, 4, 56, 125, 135, 60, 60, 135, 3, 2.59187
301, 1, bw, attraction, a-b-db, 14, 1, 2, 4, 56, 125, 135, 60, 60, 135, 1, 0.606356
301, 1, bw, attraction, a-b-db, 9, 3, 2, 5, 195, 120, 120, 195, 114, 186, 1, 1.1321
301, 1, bw, attraction, a-b-db, 9, 3, 2, 5, 195, 120, 120, 195, 114, 186, 2, 0.445815
301, 1, bw, attraction, a-b-da, 14, 3, 2, 6, 195, 120, 181, 111, 120, 195, 3, 2.34555
301, 1, bw, attraction, a-b-da, 14, 3, 2, 6, 195, 120, 181, 111, 120, 195, 1, 0.402104
301, 1, bw, attraction, a-b-da, 2, 1, 2, 7, 60, 135, 134, 59, 135, 60, 1, 2.11195
301, 1, bw, attraction, a-b-da, 2, 1, 2, 7, 60, 135, 134, 59, 135, 60, 2, 0.594003
301, 1, bw, filler, NA, 999, 999, 2, 8, 68, 136, 155, 159, 190, 169, 3, 2.13568
301, 1, bw, filler, NA, 999, 999, 2, 8, 68, 136, 155, 159, 190, 169, 1, 0.688903
301, 1, bw, attraction, a-b-db, 5, 3, 2, 9, 195, 120, 117, 190, 120, 195, 3, 1.30742
301, 1, bw, attraction, a-b-db, 5, 3, 2, 9, 195, 120, 117, 190, 120, 195, 1, 0.629579
301, 1, bw, attraction, a-b-db, 14, 3, 2, 10, 195, 120, 111, 181, 120, 195, 3, 3.26596
301, 1, bw, attraction, a-b-db, 14, 3, 2, 10, 195, 120, 111, 181, 120, 195, 1, 0.629626
301, 1, bw, attraction, a-b-db, 5, 1, 2, 11, 58, 132, 60, 135, 135, 60, 2, 3.1301
301, 1, bw, attraction, a-b-db, 5, 1, 2, 11, 58, 132, 60, 135, 135, 60, 1, 0.930948
301, 1, bw, attraction, a-b-da, 5, 1, 2, 12, 132, 58, 60, 135, 135, 60, 2, 0.907206
301, 1, bw, attraction, a-b-da, 5, 1, 2, 12, 132, 58, 60, 135, 135, 60, 1, 0.549616
301, 1, bw, catch, NA, 999, 999, 2, 13, 102, 153, 155, 160, 108, 87, 2, 0.629446
301, 1, bw, catch, NA, 999, 999, 2, 13, 102, 153, 155, 160, 108, 87, 3, 0.467216
301, 1, bw, attraction, a-b-da, 5, 3, 2, 14, 190, 117, 195, 120, 120, 195, 2, 1.83046
301, 1, bw, attraction, a-b-da, 5, 3, 2, 14, 190, 117, 195, 120, 120, 195, 1, 0.427755
301, 1, bw, attraction, a-b-da, 14, 2, 2, 15, 165, 90, 90, 165, 153, 83, 2, 2.49624
301, 1, bw, attraction, a-b-da, 14, 2, 2, 15, 165, 90, 90, 165, 153, 83, 3, 0.466758
301, 1, bw, filler, NA, 999, 999, 2, 16, 71, 86, 151, 146, 65, 192, 2, 0.84599
301, 1, bw, filler, NA, 999, 999, 2, 16, 71, 86, 151, 146, 65, 192, 3, 0.715037
301, 1, bw, filler, NA, 999, 999, 2, 17, 56, 156, 74, 177, 144, 80, 2, 0.971917
301, 1, bw, filler, NA, 999, 999, 2, 17, 56, 156, 74, 177, 144, 80, 1, 0.419586
301, 1, bw, attraction, a-b-db, 2, 2, 2, 18, 165, 90, 90, 165, 89, 163, 2, 1.86488
301, 1, bw, attraction, a-b-db, 2, 2, 2, 18, 165, 90, 90, 165, 89, 163, 3, 0.58893
301, 1, bw, catch, NA, 999, 999, 2, 19, 158, 157, 118, 137, 110, 85, 1, 0.667336
301, 1, bw, catch, NA, 999, 999, 2, 19, 158, 157, 118, 137, 110, 85, 2, 0.591713
301, 1, bw, filler, NA, 999, 999, 2, 20, 187, 140, 92, 120, 141, 163, 3, 0.693489
301, 1, bw, filler, NA, 999, 999, 2, 20, 187, 140, 92, 120, 141, 163, 2, 0.720791
301, 1, bw, filler, NA, 999, 999, 2, 21, 139, 166, 64, 90, 78, 182, 1, 1.33763
301, 1, bw, filler, NA, 999, 999, 2, 21, 139, 166, 64, 90, 78, 182, 2, 1.00313
301, 1, bw, catch, NA, 999, 999, 2, 22, 60, 135, 133, 122, 165, 150, 3, 0.992808
301, 1, bw, catch, NA, 999, 999, 2, 22, 60, 135, 133, 122, 165, 150, 1, 0.679855
301, 1, bw, attraction, a-b-da, 9, 1, 2, 23, 135, 60, 129, 57, 60, 135, 1, 5.14623
301, 1, bw, attraction, a-b-da, 9, 1, 2, 23, 135, 60, 129, 57, 60, 135, 2, 0.498001
301, 1, bw, filler, NA, 999, 999, 2, 24, 57, 182, 71, 69, 84, 98, 1, 1.57169
301, 1, bw, filler, NA, 999, 999, 2, 24, 57, 182, 71, 69, 84, 98, 2, 2.53921
301, 1, bw, attraction, a-b-da, 2, 2, 2, 25, 163, 89, 90, 165, 165, 90, 2, 2.64301
301, 1, bw, attraction, a-b-da, 2, 2, 2, 25, 163, 89, 90, 165, 165, 90, 1, 0.48743
301, 1, bw, filler, NA, 999, 999, 2, 26, 171, 105, 148, 78, 171, 118, 3, 1.16186
301, 1, bw, filler, NA, 999, 999, 2, 26, 171, 105, 148, 78, 171, 118, 2, 0.618181
301, 1, bw, attraction, a-b-da, 9, 2, 2, 27, 165, 90, 157, 86, 90, 165, 3, 2.24722
301, 1, bw, attraction, a-b-da, 9, 2, 2, 27, 165, 90, 157, 86, 90, 165, 2, 0.427883
301, 1, bw, attraction, a-b-db, 9, 1, 2, 28, 60, 135, 135, 60, 57, 129, 1, 0.984348
301, 1, bw, attraction, a-b-db, 9, 1, 2, 28, 60, 135, 135, 60, 57, 129, 2, 0.672024
301, 1, bw, attraction, a-b-db, 14, 2, 2, 29, 165, 90, 83, 153, 90, 165, 3, 1.37104
301, 1, bw, attraction, a-b-db, 14, 2, 2, 29, 165, 90, 83, 153, 90, 165, 2, 0.547316
301, 1, bw, attraction, a-b-db, 9, 2, 2, 30, 90, 165, 165, 90, 86, 157, 2, 3.40307
301, 1, bw, attraction, a-b-db, 9, 2, 2, 30, 90, 165, 165, 90, 86, 157, 1, 0.72129
301, 1, bw, attraction, a-b-db, 2, 3, 2, 31, 195, 120, 120, 195, 119, 193, 3, 2.97842
301, 1, bw, attraction, a-b-db, 2, 3, 2, 31, 195, 120, 120, 195, 119, 193, 1, 0.473384
301, 1, bw, attraction, a-b-da, 5, 2, 2, 32, 90, 165, 161, 88, 165, 90, 3, 2.22786
301, 1, bw, attraction, a-b-da, 5, 2, 2, 32, 90, 165, 161, 88, 165, 90, 1, 0.417166
301, 1, bw, attraction, a-b-da, 14, 1, 2, 33, 135, 60, 125, 56, 60, 135, 1, 1.69428
301, 1, bw, attraction, a-b-da, 14, 1, 2, 33, 135, 60, 125, 56, 60, 135, 2, 0.305025
301, 1, bw, attraction, a-b-da, 2, 3, 2, 34, 193, 119, 120, 195, 195, 120, 3, 3.63494
301, 1, bw, attraction, a-b-da, 2, 3, 2, 34, 193, 119, 120, 195, 195, 120, 1, 3.88773
301, 1, bw, filler, NA, 999, 999, 2, 35, 106, 160, 82, 139, 164, 65, 1, 0.921173
301, 1, bw, filler, NA, 999, 999, 2, 35, 106, 160, 82, 139, 164, 65, 3, 1.0675
301, 1, bw, filler, NA, 999, 999, 2, 36, 69, 141, 105, 182, 80, 74, 2, 0.726512
301, 1, bw, filler, NA, 999, 999, 2, 36, 69, 141, 105, 182, 80, 74, 3, 0.70419
301, 1, bw, filler, NA, 999, 999, 2, 37, 146, 107, 166, 89, 160, 103, 3, 1.97791
301, 1, bw, filler, NA, 999, 999, 2, 37, 146, 107, 166, 89, 160, 103, 1, 0.713254
301, 1, bw, attraction, a-b-db, 9, 2, 3, 1, 90, 165, 165, 90, 86, 157, 3, 2.46633
301, 1, bw, attraction, a-b-db, 9, 2, 3, 1, 90, 165, 165, 90, 86, 157, 1, 0.73423
301, 1, bw, attraction, a-b-db, 2, 3, 3, 2, 195, 120, 120, 195, 119, 193, 2, 3.2946
301, 1, bw, attraction, a-b-db, 2, 3, 3, 2, 195, 120, 120, 195, 119, 193, 1, 0.73684
301, 1, bw, attraction, a-b-db, 14, 3, 3, 3, 111, 181, 195, 120, 120, 195, 3, 1.17738
301, 1, bw, attraction, a-b-db, 14, 3, 3, 3, 111, 181, 195, 120, 120, 195, 1, 0.520969
301, 1, bw, attraction, a-b-da, 9, 1, 3, 4, 60, 135, 135, 60, 129, 57, 2, 1.202
301, 1, bw, attraction, a-b-da, 9, 1, 3, 4, 60, 135, 135, 60, 129, 57, 3, 1.18509
301, 1, bw, filler, NA, 999, 999, 3, 5, 118, 168, 172, 151, 89, 186, 2, 0.839283
301, 1, bw, filler, NA, 999, 999, 3, 5, 118, 168, 172, 151, 89, 186, 3, 0.708188
301, 1, bw, attraction, a-b-da, 2, 1, 3, 6, 60, 135, 135, 60, 134, 59, 2, 1.46117
301, 1, bw, attraction, a-b-da, 2, 1, 3, 6, 60, 135, 135, 60, 134, 59, 3, 0.425369
301, 1, bw, filler, NA, 999, 999, 3, 7, 69, 188, 172, 106, 61, 68, 2, 0.629846
301, 1, bw, filler, NA, 999, 999, 3, 7, 69, 188, 172, 106, 61, 68, 3, 0.73174
301, 1, bw, attraction, a-b-da, 14, 1, 3, 8, 60, 135, 125, 56, 135, 60, 3, 2.78003
301, 1, bw, attraction, a-b-da, 14, 1, 3, 8, 60, 135, 125, 56, 135, 60, 1, 0.52302
301, 1, bw, filler, NA, 999, 999, 3, 9, 120, 155, 194, 157, 106, 155, 2, 2.2523
301, 1, bw, filler, NA, 999, 999, 3, 9, 120, 155, 194, 157, 106, 155, 3, 1.12087
301, 1, bw, attraction, a-b-da, 14, 3, 3, 10, 120, 195, 195, 120, 181, 111, 2, 1.47384
301, 1, bw, attraction, a-b-da, 14, 3, 3, 10, 120, 195, 195, 120, 181, 111, 3, 0.541305
301, 1, bw, attraction, a-b-da, 2, 3, 3, 11, 195, 120, 120, 195, 193, 119, 2, 2.01305
301, 1, bw, attraction, a-b-da, 2, 3, 3, 11, 195, 120, 120, 195, 193, 119, 3, 1.37109
301, 1, bw, filler, NA, 999, 999, 3, 12, 97, 177, 158, 137, 148, 141, 2, 3.12191
301, 1, bw, filler, NA, 999, 999, 3, 12, 97, 177, 158, 137, 148, 141, 1, 0.370903
301, 1, bw, attraction, a-b-db, 2, 2, 3, 13, 89, 163, 90, 165, 165, 90, 2, 2.97012
301, 1, bw, attraction, a-b-db, 2, 2, 3, 13, 89, 163, 90, 165, 165, 90, 3, 0.489889
301, 1, bw, filler, NA, 999, 999, 3, 14, 71, 58, 142, 182, 57, 148, 2, 0.572328
301, 1, bw, filler, NA, 999, 999, 3, 14, 71, 58, 142, 182, 57, 148, 1, 0.572019
301, 1, bw, attraction, a-b-da, 5, 3, 3, 15, 195, 120, 120, 195, 190, 117, 1, 3.11511
301, 1, bw, attraction, a-b-da, 5, 3, 3, 15, 195, 120, 120, 195, 190, 117, 2, 0.356734
301, 1, bw, attraction, a-b-da, 5, 1, 3, 16, 135, 60, 132, 58, 60, 135, 2, 1.2279
301, 1, bw, attraction, a-b-da, 5, 1, 3, 16, 135, 60, 132, 58, 60, 135, 3, 2.12953
301, 1, bw, attraction, a-b-db, 14, 2, 3, 17, 90, 165, 83, 153, 165, 90, 2, 1.67363
301, 1, bw, attraction, a-b-db, 14, 2, 3, 17, 90, 165, 83, 153, 165, 90, 3, 0.53292
301, 1, bw, attraction, a-b-db, 5, 2, 3, 18, 88, 161, 165, 90, 90, 165, 1, 2.54151
301, 1, bw, attraction, a-b-db, 5, 2, 3, 18, 88, 161, 165, 90, 90, 165, 2, 0.333863
301, 1, bw, catch, NA, 999, 999, 3, 19, 119, 76, 166, 149, 150, 105, 2, 0.622381
301, 1, bw, catch, NA, 999, 999, 3, 19, 119, 76, 166, 149, 150, 105, 1, 0.83615
301, 1, bw, attraction, a-b-db, 14, 1, 3, 20, 135, 60, 56, 125, 60, 135, 1, 1.12849
301, 1, bw, attraction, a-b-db, 14, 1, 3, 20, 135, 60, 56, 125, 60, 135, 2, 0.386161
301, 1, bw, filler, NA, 999, 999, 3, 21, 79, 165, 155, 121, 108, 133, 2, 1.24064
301, 1, bw, filler, NA, 999, 999, 3, 21, 79, 165, 155, 121, 108, 133, 3, 0.989566
301, 1, bw, filler, NA, 999, 999, 3, 22, 83, 127, 61, 168, 69, 99, 1, 1.36373
301, 1, bw, filler, NA, 999, 999, 3, 22, 83, 127, 61, 168, 69, 99, 3, 0.844026
301, 1, bw, attraction, a-b-db, 5, 1, 3, 23, 135, 60, 58, 132, 60, 135, 3, 1.81578
301, 1, bw, attraction, a-b-db, 5, 1, 3, 23, 135, 60, 58, 132, 60, 135, 1, 0.861827
301, 1, bw, attraction, a-b-da, 2, 2, 3, 24, 165, 90, 163, 89, 90, 165, 1, 3.37687
301, 1, bw, attraction, a-b-da, 2, 2, 3, 24, 165, 90, 163, 89, 90, 165, 2, 0.447692
301, 1, bw, filler, NA, 999, 999, 3, 25, 169, 140, 104, 169, 75, 90, 1, 0.723655
301, 1, bw, filler, NA, 999, 999, 3, 25, 169, 140, 104, 169, 75, 90, 3, 0.717342
301, 1, bw, filler, NA, 999, 999, 3, 26, 162, 142, 72, 131, 171, 175, 3, 1.49434
301, 1, bw, filler, NA, 999, 999, 3, 26, 162, 142, 72, 131, 171, 175, 1, 0.417175
301, 1, bw, filler, NA, 999, 999, 3, 27, 169, 110, 119, 180, 182, 106, 2, 1.25443
301, 1, bw, filler, NA, 999, 999, 3, 27, 169, 110, 119, 180, 182, 106, 1, 0.370621
301, 1, bw, catch, NA, 999, 999, 3, 28, 159, 156, 61, 134, 165, 90, 1, 0.737723
301, 1, bw, catch, NA, 999, 999, 3, 28, 159, 156, 61, 134, 165, 90, 2, 0.475577
301, 1, bw, catch, NA, 999, 999, 3, 29, 146, 109, 89, 106, 127, 188, 3, 1.77399
301, 1, bw, catch, NA, 999, 999, 3, 29, 146, 109, 89, 106, 127, 188, 2, 0.653327
301, 1, bw, attraction, a-b-db, 5, 3, 3, 30, 195, 120, 120, 195, 117, 190, 1, 3.60911
301, 1, bw, attraction, a-b-db, 5, 3, 3, 30, 195, 120, 120, 195, 117, 190, 3, 0.606548
301, 1, bw, attraction, a-b-da, 9, 2, 3, 31, 157, 86, 90, 165, 165, 90, 3, 1.96429
301, 1, bw, attraction, a-b-da, 9, 2, 3, 31, 157, 86, 90, 165, 165, 90, 1, 0.900381
301, 1, bw, attraction, a-b-da, 5, 2, 3, 32, 165, 90, 90, 165, 161, 88, 1, 2.98198
301, 1, bw, attraction, a-b-da, 5, 2, 3, 32, 165, 90, 90, 165, 161, 88, 3, 0.461054
301, 1, bw, attraction, a-b-da, 14, 2, 3, 33, 165, 90, 90, 165, 153, 83, 1, 0.728178
301, 1, bw, attraction, a-b-da, 14, 2, 3, 33, 165, 90, 90, 165, 153, 83, 3, 0.641911
301, 1, bw, attraction, a-b-db, 9, 1, 3, 34, 57, 129, 135, 60, 60, 135, 3, 1.64573
301, 1, bw, attraction, a-b-db, 9, 1, 3, 34, 57, 129, 135, 60, 60, 135, 1, 0.522527
301, 1, bw, attraction, a-b-db, 2, 1, 3, 35, 135, 60, 59, 134, 60, 135, 1, 1.33163
301, 1, bw, attraction, a-b-db, 2, 1, 3, 35, 135, 60, 59, 134, 60, 135, 3, 0.405137
301, 1, bw, attraction, a-b-da, 9, 3, 3, 36, 195, 120, 186, 114, 120, 195, 2, 7.10706
301, 1, bw, attraction, a-b-da, 9, 3, 3, 36, 195, 120, 186, 114, 120, 195, 1, 0.707355
301, 1, bw, attraction, a-b-db, 9, 3, 3, 37, 120, 195, 195, 120, 114, 186, 3, 2.34849
301, 1, bw, attraction, a-b-db, 9, 3, 3, 37, 120, 195, 195, 120, 114, 186, 2, 0.460972
301, 1, bw, filler, NA, 999, 999, 4, 1, 156, 86, 91, 106, 122, 141, 3, 1.58406
301, 1, bw, filler, NA, 999, 999, 4, 1, 156, 86, 91, 106, 122, 141, 2, 0.663713
301, 1, bw, attraction, a-b-da, 5, 2, 4, 2, 161, 88, 90, 165, 165, 90, 3, 1.77866
301, 1, bw, attraction, a-b-da, 5, 2, 4, 2, 161, 88, 90, 165, 165, 90, 1, 0.730088
301, 1, bw, catch, NA, 999, 999, 4, 3, 127, 128, 102, 93, 152, 163, 3, 0.714558
301, 1, bw, catch, NA, 999, 999, 4, 3, 127, 128, 102, 93, 152, 163, 2, 0.621101
301, 1, bw, filler, NA, 999, 999, 4, 4, 80, 116, 121, 154, 94, 122, 2, 1.69794
301, 1, bw, filler, NA, 999, 999, 4, 4, 80, 116, 121, 154, 94, 122, 1, 0.428738
301, 1, bw, attraction, a-b-da, 2, 2, 4, 5, 165, 90, 163, 89, 90, 165, 1, 0.937258
301, 1, bw, attraction, a-b-da, 2, 2, 4, 5, 165, 90, 163, 89, 90, 165, 2, 0.330978
301, 1, bw, attraction, a-b-da, 9, 3, 4, 6, 120, 195, 195, 120, 186, 114, 2, 3.64344
301, 1, bw, attraction, a-b-da, 9, 3, 4, 6, 120, 195, 195, 120, 186, 114, 1, 0.655579
301, 1, bw, attraction, a-b-da, 5, 3, 4, 7, 190, 117, 195, 120, 120, 195, 2, 2.10737
301, 1, bw, attraction, a-b-da, 5, 3, 4, 7, 190, 117, 195, 120, 120, 195, 1, 0.517333
301, 1, bw, attraction, a-b-db, 2, 2, 4, 8, 165, 90, 90, 165, 89, 163, 2, 0.918464
301, 1, bw, attraction, a-b-db, 2, 2, 4, 8, 165, 90, 90, 165, 89, 163, 3, 0.384801
301, 1, bw, attraction, a-b-db, 5, 2, 4, 9, 88, 161, 165, 90, 90, 165, 2, 0.743284
301, 1, bw, attraction, a-b-db, 5, 2, 4, 9, 88, 161, 165, 90, 90, 165, 3, 0.528379
301, 1, bw, attraction, a-b-db, 9, 2, 4, 10, 165, 90, 86, 157, 90, 165, 1, 2.99297
301, 1, bw, attraction, a-b-db, 9, 2, 4, 10, 165, 90, 86, 157, 90, 165, 2, 0.543104
301, 1, bw, attraction, a-b-db, 9, 1, 4, 11, 57, 129, 60, 135, 135, 60, 2, 1.16695
301, 1, bw, attraction, a-b-db, 9, 1, 4, 11, 57, 129, 60, 135, 135, 60, 1, 0.367208
301, 1, bw, filler, NA, 999, 999, 4, 12, 86, 91, 88, 112, 178, 149, 2, 0.862361
301, 1, bw, filler, NA, 999, 999, 4, 12, 86, 91, 88, 112, 178, 149, 3, 0.850773
301, 1, bw, attraction, a-b-db, 14, 1, 4, 13, 60, 135, 135, 60, 56, 125, 2, 1.55037
301, 1, bw, attraction, a-b-db, 14, 1, 4, 13, 60, 135, 135, 60, 56, 125, 1, 0.32719
301, 1, bw, attraction, a-b-db, 14, 2, 4, 14, 83, 153, 165, 90, 90, 165, 2, 0.927729
301, 1, bw, attraction, a-b-db, 14, 2, 4, 14, 83, 153, 165, 90, 90, 165, 3, 0.553422
301, 1, bw, catch, NA, 999, 999, 4, 15, 134, 61, 188, 127, 114, 141, 2, 0.665284
301, 1, bw, catch, NA, 999, 999, 4, 15, 134, 61, 188, 127, 114, 141, 1, 0.493765
301, 1, bw, attraction, a-b-db, 9, 3, 4, 16, 114, 186, 120, 195, 195, 120, 2, 1.39145
301, 1, bw, attraction, a-b-db, 9, 3, 4, 16, 114, 186, 120, 195, 195, 120, 1, 0.406304
301, 1, bw, filler, NA, 999, 999, 4, 17, 149, 63, 82, 124, 61, 134, 2, 2.60415
301, 1, bw, filler, NA, 999, 999, 4, 17, 149, 63, 82, 124, 61, 134, 1, 1.01866
301, 1, bw, attraction, a-b-da, 5, 1, 4, 18, 132, 58, 135, 60, 60, 135, 3, 1.94366
301, 1, bw, attraction, a-b-da, 5, 1, 4, 18, 132, 58, 135, 60, 60, 135, 1, 0.560271
301, 1, bw, attraction, a-b-da, 9, 1, 4, 19, 60, 135, 135, 60, 129, 57, 1, 1.52742
301, 1, bw, attraction, a-b-da, 9, 1, 4, 19, 60, 135, 135, 60, 129, 57, 2, 0.648824
301, 1, bw, filler, NA, 999, 999, 4, 20, 71, 112, 194, 116, 145, 102, 2, 0.78864
301, 1, bw, filler, NA, 999, 999, 4, 20, 71, 112, 194, 116, 145, 102, 1, 0.715641
301, 1, bw, attraction, a-b-da, 14, 3, 4, 21, 181, 111, 120, 195, 195, 120, 2, 1.68475
301, 1, bw, attraction, a-b-da, 14, 3, 4, 21, 181, 111, 120, 195, 195, 120, 1, 0.640111
301, 1, bw, attraction, a-b-db, 2, 3, 4, 22, 195, 120, 120, 195, 119, 193, 1, 2.6359
301, 1, bw, attraction, a-b-db, 2, 3, 4, 22, 195, 120, 120, 195, 119, 193, 3, 0.433036
301, 1, bw, attraction, a-b-db, 2, 1, 4, 23, 60, 135, 59, 134, 135, 60, 3, 3.20546
301, 1, bw, attraction, a-b-db, 2, 1, 4, 23, 60, 135, 59, 134, 135, 60, 2, 0.363113
301, 1, bw, filler, NA, 999, 999, 4, 24, 163, 85, 92, 65, 128, 128, 3, 1.81039
301, 1, bw, filler, NA, 999, 999, 4, 24, 163, 85, 92, 65, 128, 128, 2, 0.520322
301, 1, bw, filler, NA, 999, 999, 4, 25, 58, 188, 68, 59, 120, 147, 3, 2.62557
301, 1, bw, filler, NA, 999, 999, 4, 25, 58, 188, 68, 59, 120, 147, 2, 0.646736
301, 1, bw, attraction, a-b-da, 9, 2, 4, 26, 157, 86, 90, 165, 165, 90, 2, 2.18648
301, 1, bw, attraction, a-b-da, 9, 2, 4, 26, 157, 86, 90, 165, 165, 90, 1, 0.481632
301, 1, bw, filler, NA, 999, 999, 4, 27, 92, 142, 176, 170, 129, 109, 2, 0.932245
301, 1, bw, filler, NA, 999, 999, 4, 27, 92, 142, 176, 170, 129, 109, 1, 1.9018
301, 1, bw, attraction, a-b-db, 14, 3, 4, 28, 195, 120, 120, 195, 111, 181, 2, 1.21529
301, 1, bw, attraction, a-b-db, 14, 3, 4, 28, 195, 120, 120, 195, 111, 181, 3, 0.621363
301, 1, bw, attraction, a-b-db, 5, 3, 4, 29, 117, 190, 195, 120, 120, 195, 2, 1.74649
301, 1, bw, attraction, a-b-db, 5, 3, 4, 29, 117, 190, 195, 120, 120, 195, 1, 1.01932
301, 1, bw, attraction, a-b-da, 2, 3, 4, 30, 193, 119, 120, 195, 195, 120, 2, 1.68033
301, 1, bw, attraction, a-b-da, 2, 3, 4, 30, 193, 119, 120, 195, 195, 120, 1, 0.363675
301, 1, bw, attraction, a-b-da, 14, 2, 4, 31, 153, 83, 90, 165, 165, 90, 3, 1.91494
301, 1, bw, attraction, a-b-da, 14, 2, 4, 31, 153, 83, 90, 165, 165, 90, 1, 0.892828
301, 1, bw, filler, NA, 999, 999, 4, 32, 65, 108, 170, 126, 155, 157, 3, 1.94262
301, 1, bw, filler, NA, 999, 999, 4, 32, 65, 108, 170, 126, 155, 157, 1, 0.727445
301, 1, bw, attraction, a-b-da, 2, 1, 4, 33, 135, 60, 134, 59, 60, 135, 1, 0.927677
301, 1, bw, attraction, a-b-da, 2, 1, 4, 33, 135, 60, 134, 59, 60, 135, 3, 0.457389
301, 1, bw, attraction, a-b-db, 5, 1, 4, 34, 60, 135, 135, 60, 58, 132, 2, 3.10838
301, 1, bw, attraction, a-b-db, 5, 1, 4, 34, 60, 135, 135, 60, 58, 132, 3, 0.518173
301, 1, bw, attraction, a-b-da, 14, 1, 4, 35, 135, 60, 125, 56, 60, 135, 2, 1.29532
301, 1, bw, attraction, a-b-da, 14, 1, 4, 35, 135, 60, 125, 56, 60, 135, 1, 0.650035
301, 1, bw, filler, NA, 999, 999, 4, 36, 163, 71, 156, 139, 64, 117, 2, 0.605772
301, 1, bw, filler, NA, 999, 999, 4, 36, 163, 71, 156, 139, 64, 117, 3, 0.580326
301, 1, bw, catch, NA, 999, 999, 4, 37, 158, 97, 108, 87, 192, 123, 3, 0.986764
301, 1, bw, catch, NA, 999, 999, 4, 37, 158, 97, 108, 87, 192, 123, 2, 0.522389
301, 1, bw, attraction, a-b-da, 5, 2, 5, 1, 165, 90, 90, 165, 161, 88, 1, 22.7775
301, 1, bw, attraction, a-b-da, 5, 2, 5, 1, 165, 90, 90, 165, 161, 88, 3, 0.739125
301, 1, bw, attraction, a-b-db, 14, 1, 5, 2, 135, 60, 60, 135, 56, 125, 2, 3.41946
301, 1, bw, attraction, a-b-db, 14, 1, 5, 2, 135, 60, 60, 135, 56, 125, 3, 1.51296
301, 1, bw, filler, NA, 999, 999, 5, 3, 174, 107, 106, 61, 77, 129, 1, 1.07368
301, 1, bw, filler, NA, 999, 999, 5, 3, 174, 107, 106, 61, 77, 129, 2, 1.28539
301, 1, bw, catch, NA, 999, 999, 5, 4, 134, 181, 122, 73, 100, 155, 1, 0.751598
301, 1, bw, catch, NA, 999, 999, 5, 4, 134, 181, 122, 73, 100, 155, 2, 1.00065
301, 1, bw, filler, NA, 999, 999, 5, 5, 108, 111, 176, 113, 181, 194, 3, 0.966327
301, 1, bw, filler, NA, 999, 999, 5, 5, 108, 111, 176, 113, 181, 194, 1, 0.718575
301, 1, bw, attraction, a-b-db, 5, 1, 5, 6, 135, 60, 58, 132, 60, 135, 1, 1.95966
301, 1, bw, attraction, a-b-db, 5, 1, 5, 6, 135, 60, 58, 132, 60, 135, 2, 0.583735
301, 1, bw, attraction, a-b-da, 5, 3, 5, 7, 190, 117, 195, 120, 120, 195, 1, 1.44604
301, 1, bw, attraction, a-b-da, 5, 3, 5, 7, 190, 117, 195, 120, 120, 195, 2, 0.531
301, 1, bw, attraction, a-b-db, 2, 1, 5, 8, 59, 134, 135, 60, 60, 135, 1, 0.691426
301, 1, bw, attraction, a-b-db, 2, 1, 5, 8, 59, 134, 135, 60, 60, 135, 2, 0.518487
301, 1, bw, attraction, a-b-da, 2, 3, 5, 9, 195, 120, 193, 119, 120, 195, 1, 2.19159
301, 1, bw, attraction, a-b-da, 2, 3, 5, 9, 195, 120, 193, 119, 120, 195, 3, 0.61436
301, 1, bw, catch, NA, 999, 999, 5, 10, 141, 114, 171, 144, 85, 110, 2, 0.699274
301, 1, bw, catch, NA, 999, 999, 5, 10, 141, 114, 171, 144, 85, 110, 3, 0.750485
301, 1, bw, attraction, a-b-da, 2, 1, 5, 11, 60, 135, 135, 60, 134, 59, 1, 0.718108
301, 1, bw, attraction, a-b-da, 2, 1, 5, 11, 60, 135, 135, 60, 134, 59, 2, 0.5365
301, 1, bw, attraction, a-b-da, 9, 3, 5, 12, 186, 114, 195, 120, 120, 195, 2, 1.13702
301, 1, bw, attraction, a-b-da, 9, 3, 5, 12, 186, 114, 195, 120, 120, 195, 1, 0.346617
301, 1, bw, filler, NA, 999, 999, 5, 13, 160, 65, 182, 128, 111, 105, 2, 0.546446
301, 1, bw, filler, NA, 999, 999, 5, 13, 160, 65, 182, 128, 111, 105, 3, 1.43554
301, 1, bw, filler, NA, 999, 999, 5, 14, 192, 189, 71, 110, 72, 157, 1, 0.807656
301, 1, bw, filler, NA, 999, 999, 5, 14, 192, 189, 71, 110, 72, 157, 2, 0.598262
301, 1, bw, filler, NA, 999, 999, 5, 15, 141, 107, 85, 81, 95, 146, 1, 1.13981
301, 1, bw, filler, NA, 999, 999, 5, 15, 141, 107, 85, 81, 95, 146, 2, 0.460927
301, 1, bw, attraction, a-b-da, 5, 1, 5, 16, 60, 135, 135, 60, 132, 58, 2, 0.783995
301, 1, bw, attraction, a-b-da, 5, 1, 5, 16, 60, 135, 135, 60, 132, 58, 3, 0.591651
301, 1, bw, filler, NA, 999, 999, 5, 17, 148, 120, 65, 161, 68, 149, 1, 1.18945
301, 1, bw, filler, NA, 999, 999, 5, 17, 148, 120, 65, 161, 68, 149, 2, 0.892395
301, 1, bw, attraction, a-b-da, 14, 3, 5, 18, 120, 195, 181, 111, 195, 120, 1, 4.16601
301, 1, bw, attraction, a-b-da, 14, 3, 5, 18, 120, 195, 181, 111, 195, 120, 2, 0.94943
301, 1, bw, attraction, a-b-db, 14, 2, 5, 19, 83, 153, 165, 90, 90, 165, 2, 0.901069
301, 1, bw, attraction, a-b-db, 14, 2, 5, 19, 83, 153, 165, 90, 90, 165, 1, 0.728081
301, 1, bw, attraction, a-b-db, 5, 3, 5, 20, 117, 190, 195, 120, 120, 195, 2, 3.38442
301, 1, bw, attraction, a-b-db, 5, 3, 5, 20, 117, 190, 195, 120, 120, 195, 1, 0.575285
301, 1, bw, attraction, a-b-db, 14, 3, 5, 21, 120, 195, 111, 181, 195, 120, 1, 1.56578
301, 1, bw, attraction, a-b-db, 14, 3, 5, 21, 120, 195, 111, 181, 195, 120, 2, 0.646056
301, 1, bw, attraction, a-b-db, 5, 2, 5, 22, 90, 165, 165, 90, 88, 161, 1, 1.07379
301, 1, bw, attraction, a-b-db, 5, 2, 5, 22, 90, 165, 165, 90, 88, 161, 3, 0.86127
301, 1, bw, filler, NA, 999, 999, 5, 23, 80, 141, 120, 123, 80, 62, 2, 0.806392
301, 1, bw, filler, NA, 999, 999, 5, 23, 80, 141, 120, 123, 80, 62, 3, 0.942663
301, 1, bw, attraction, a-b-da, 9, 2, 5, 24, 165, 90, 157, 86, 90, 165, 2, 1.15833
301, 1, bw, attraction, a-b-da, 9, 2, 5, 24, 165, 90, 157, 86, 90, 165, 3, 0.582623
301, 1, bw, filler, NA, 999, 999, 5, 25, 103, 162, 111, 153, 133, 154, 2, 7.70098
301, 1, bw, filler, NA, 999, 999, 5, 25, 103, 162, 111, 153, 133, 154, 1, 1.1419
301, 1, bw, attraction, a-b-db, 9, 1, 5, 26, 135, 60, 57, 129, 60, 135, 1, 2.61362
301, 1, bw, attraction, a-b-db, 9, 1, 5, 26, 135, 60, 57, 129, 60, 135, 2, 0.451351
301, 1, bw, catch, NA, 999, 999, 5, 27, 181, 134, 124, 131, 68, 127, 1, 0.863155
301, 1, bw, catch, NA, 999, 999, 5, 27, 181, 134, 124, 131, 68, 127, 2, 0.507648
301, 1, bw, attraction, a-b-da, 2, 2, 5, 28, 165, 90, 163, 89, 90, 165, 1, 1.46061
301, 1, bw, attraction, a-b-da, 2, 2, 5, 28, 165, 90, 163, 89, 90, 165, 3, 0.544957
301, 1, bw, attraction, a-b-db, 2, 2, 5, 29, 165, 90, 89, 163, 90, 165, 1, 1.12064
301, 1, bw, attraction, a-b-db, 2, 2, 5, 29, 165, 90, 89, 163, 90, 165, 2, 0.722911
301, 1, bw, attraction, a-b-db, 9, 2, 5, 30, 86, 157, 90, 165, 165, 90, 2, 1.20401
301, 1, bw, attraction, a-b-db, 9, 2, 5, 30, 86, 157, 90, 165, 165, 90, 1, 0.794994
301, 1, bw, attraction, a-b-da, 9, 1, 5, 31, 135, 60, 60, 135, 129, 57, 1, 1.68063
301, 1, bw, attraction, a-b-da, 9, 1, 5, 31, 135, 60, 60, 135, 129, 57, 2, 0.524083
301, 1, bw, attraction, a-b-da, 14, 2, 5, 32, 165, 90, 153, 83, 90, 165, 1, 0.964369
301, 1, bw, attraction, a-b-da, 14, 2, 5, 32, 165, 90, 153, 83, 90, 165, 3, 1.08488
301, 1, bw, attraction, a-b-db, 9, 3, 5, 33, 120, 195, 114, 186, 195, 120, 3, 1.8871
301, 1, bw, attraction, a-b-db, 9, 3, 5, 33, 120, 195, 114, 186, 195, 120, 2, 0.4426
301, 1, bw, filler, NA, 999, 999, 5, 34, 81, 72, 142, 80, 113, 68, 2, 1.05424
301, 1, bw, filler, NA, 999, 999, 5, 34, 81, 72, 142, 80, 113, 68, 1, 0.410542
301, 1, bw, attraction, a-b-db, 2, 3, 5, 35, 195, 120, 120, 195, 119, 193, 1, 1.27974
301, 1, bw, attraction, a-b-db, 2, 3, 5, 35, 195, 120, 120, 195, 119, 193, 2, 0.403238
301, 1, bw, attraction, a-b-da, 14, 1, 5, 36, 125, 56, 60, 135, 135, 60, 1, 2.89718
301, 1, bw, attraction, a-b-da, 14, 1, 5, 36, 125, 56, 60, 135, 135, 60, 2, 0.3635
301, 1, bw, filler, NA, 999, 999, 5, 37, 117, 162, 109, 118, 63, 85, 1, 0.842607
301, 1, bw, filler, NA, 999, 999, 5, 37, 117, 162, 109, 118, 63, 85, 3, 0.583644
301, 1, bw, attraction, a-b-db, 2, 3, 6, 1, 119, 193, 120, 195, 195, 120, 2, 3.14218
301, 1, bw, attraction, a-b-db, 2, 3, 6, 1, 119, 193, 120, 195, 195, 120, 3, 0.774404
301, 1, bw, attraction, a-b-da, 2, 3, 6, 2, 193, 119, 120, 195, 195, 120, 3, 2.02874
301, 1, bw, attraction, a-b-da, 2, 3, 6, 2, 193, 119, 120, 195, 195, 120, 1, 0.834201
301, 1, bw, filler, NA, 999, 999, 6, 3, 185, 125, 125, 90, 184, 96, 1, 1.11846
301, 1, bw, filler, NA, 999, 999, 6, 3, 185, 125, 125, 90, 184, 96, 2, 0.696818
301, 1, bw, attraction, a-b-da, 5, 1, 6, 4, 135, 60, 60, 135, 132, 58, 2, 1.06659
301, 1, bw, attraction, a-b-da, 5, 1, 6, 4, 135, 60, 60, 135, 132, 58, 1, 0.718828
301, 1, bw, catch, NA, 999, 999, 6, 5, 66, 129, 127, 128, 164, 151, 3, 1.13595
301, 1, bw, catch, NA, 999, 999, 6, 5, 66, 129, 127, 128, 164, 151, 1, 0.601552
301, 1, bw, attraction, a-b-db, 9, 2, 6, 6, 90, 165, 86, 157, 165, 90, 2, 0.695209
301, 1, bw, attraction, a-b-db, 9, 2, 6, 6, 90, 165, 86, 157, 165, 90, 1, 1.01038
301, 1, bw, filler, NA, 999, 999, 6, 7, 190, 104, 113, 102, 126, 184, 3, 1.27138
301, 1, bw, filler, NA, 999, 999, 6, 7, 190, 104, 113, 102, 126, 184, 2, 0.603618
301, 1, bw, filler, NA, 999, 999, 6, 8, 72, 67, 131, 162, 139, 170, 3, 1.50539
301, 1, bw, filler, NA, 999, 999, 6, 8, 72, 67, 131, 162, 139, 170, 1, 0.643456
301, 1, bw, attraction, a-b-db, 9, 3, 6, 9, 114, 186, 195, 120, 120, 195, 3, 1.19929
301, 1, bw, attraction, a-b-db, 9, 3, 6, 9, 114, 186, 195, 120, 120, 195, 1, 0.830197
301, 1, bw, attraction, a-b-da, 14, 2, 6, 10, 90, 165, 153, 83, 165, 90, 1, 0.890416
301, 1, bw, attraction, a-b-da, 14, 2, 6, 10, 90, 165, 153, 83, 165, 90, 2, 0.47743
301, 1, bw, attraction, a-b-da, 9, 3, 6, 11, 120, 195, 186, 114, 195, 120, 1, 1.62408
301, 1, bw, attraction, a-b-da, 9, 3, 6, 11, 120, 195, 186, 114, 195, 120, 3, 0.557525
301, 1, bw, filler, NA, 999, 999, 6, 12, 89, 149, 163, 195, 65, 168, 2, 1.02058
301, 1, bw, filler, NA, 999, 999, 6, 12, 89, 149, 163, 195, 65, 168, 3, 0.666931
301, 1, bw, attraction, a-b-da, 14, 1, 6, 13, 135, 60, 60, 135, 125, 56, 2, 1.71793
301, 1, bw, attraction, a-b-da, 14, 1, 6, 13, 135, 60, 60, 135, 125, 56, 3, 0.560071
301, 1, bw, attraction, a-b-da, 9, 1, 6, 14, 135, 60, 129, 57, 60, 135, 1, 1.4791
301, 1, bw, attraction, a-b-da, 9, 1, 6, 14, 135, 60, 129, 57, 60, 135, 2, 0.706714
301, 1, bw, filler, NA, 999, 999, 6, 15, 133, 162, 150, 120, 195, 191, 3, 0.747722
301, 1, bw, filler, NA, 999, 999, 6, 15, 133, 162, 150, 120, 195, 191, 2, 0.876809
301, 1, bw, attraction, a-b-da, 5, 2, 6, 16, 161, 88, 90, 165, 165, 90, 1, 1.63906
301, 1, bw, attraction, a-b-da, 5, 2, 6, 16, 161, 88, 90, 165, 165, 90, 2, 0.547829
301, 1, bw, filler, NA, 999, 999, 6, 17, 153, 145, 184, 79, 61, 98, 1, 1.09957
301, 1, bw, filler, NA, 999, 999, 6, 17, 153, 145, 184, 79, 61, 98, 3, 0.95863
301, 1, bw, attraction, a-b-db, 14, 1, 6, 18, 56, 125, 135, 60, 60, 135, 3, 1.04563
301, 1, bw, attraction, a-b-db, 14, 1, 6, 18, 56, 125, 135, 60, 60, 135, 1, 0.666533
301, 1, bw, attraction, a-b-da, 14, 3, 6, 19, 181, 111, 120, 195, 195, 120, 3, 1.63763
301, 1, bw, attraction, a-b-da, 14, 3, 6, 19, 181, 111, 120, 195, 195, 120, 1, 0.730546
301, 1, bw, attraction, a-b-da, 2, 1, 6, 20, 60, 135, 134, 59, 135, 60, 1, 1.33082
301, 1, bw, attraction, a-b-da, 2, 1, 6, 20, 60, 135, 134, 59, 135, 60, 2, 0.564378
301, 1, bw, catch, NA, 999, 999, 6, 21, 128, 187, 143, 112, 97, 98, 1, 1.0995
301, 1, bw, catch, NA, 999, 999, 6, 21, 128, 187, 143, 112, 97, 98, 3, 0.606463
301, 1, bw, attraction, a-b-da, 9, 2, 6, 22, 157, 86, 90, 165, 165, 90, 3, 1.58814
301, 1, bw, attraction, a-b-da, 9, 2, 6, 22, 157, 86, 90, 165, 165, 90, 2, 1.01959
301, 1, bw, attraction, a-b-db, 2, 1, 6, 23, 60, 135, 59, 134, 135, 60, 3, 2.18467
301, 1, bw, attraction, a-b-db, 2, 1, 6, 23, 60, 135, 59, 134, 135, 60, 1, 0.688011
301, 1, bw, catch, NA, 999, 999, 6, 24, 120, 75, 100, 155, 194, 121, 3, 0.922267
301, 1, bw, catch, NA, 999, 999, 6, 24, 120, 75, 100, 155, 194, 121, 1, 0.619985
301, 1, bw, attraction, a-b-db, 14, 3, 6, 25, 120, 195, 111, 181, 195, 120, 3, 2.36109
301, 1, bw, attraction, a-b-db, 14, 3, 6, 25, 120, 195, 111, 181, 195, 120, 1, 0.520955
301, 1, bw, attraction, a-b-db, 5, 2, 6, 26, 90, 165, 165, 90, 88, 161, 3, 1.77014
301, 1, bw, attraction, a-b-db, 5, 2, 6, 26, 90, 165, 165, 90, 88, 161, 1, 0.482236
301, 1, bw, filler, NA, 999, 999, 6, 27, 78, 101, 74, 123, 71, 164, 3, 1.74867
301, 1, bw, filler, NA, 999, 999, 6, 27, 78, 101, 74, 123, 71, 164, 1, 1.01339
301, 1, bw, attraction, a-b-da, 2, 2, 6, 28, 163, 89, 90, 165, 165, 90, 2, 2.63441
301, 1, bw, attraction, a-b-da, 2, 2, 6, 28, 163, 89, 90, 165, 165, 90, 3, 0.375665
301, 1, bw, attraction, a-b-db, 14, 2, 6, 29, 90, 165, 165, 90, 83, 153, 1, 1.44597
301, 1, bw, attraction, a-b-db, 14, 2, 6, 29, 90, 165, 165, 90, 83, 153, 3, 0.954897
301, 1, bw, filler, NA, 999, 999, 6, 30, 93, 98, 161, 92, 72, 170, 2, 1.66647
301, 1, bw, filler, NA, 999, 999, 6, 30, 93, 98, 161, 92, 72, 170, 1, 0.582769
301, 1, bw, filler, NA, 999, 999, 6, 31, 95, 160, 191, 114, 64, 179, 2, 1.14098
301, 1, bw, filler, NA, 999, 999, 6, 31, 95, 160, 191, 114, 64, 179, 3, 0.838003
301, 1, bw, attraction, a-b-db, 9, 1, 6, 32, 60, 135, 135, 60, 57, 129, 2, 1.30638
301, 1, bw, attraction, a-b-db, 9, 1, 6, 32, 60, 135, 135, 60, 57, 129, 3, 0.636639
301, 1, bw, filler, NA, 999, 999, 6, 33, 187, 107, 148, 174, 180, 173, 3, 1.53701
301, 1, bw, filler, NA, 999, 999, 6, 33, 187, 107, 148, 174, 180, 173, 2, 1.19442
301, 1, bw, attraction, a-b-db, 2, 2, 6, 34, 89, 163, 90, 165, 165, 90, 1, 0.903997
301, 1, bw, attraction, a-b-db, 2, 2, 6, 34, 89, 163, 90, 165, 165, 90, 2, 1.07431
301, 1, bw, attraction, a-b-db, 5, 3, 6, 35, 117, 190, 195, 120, 120, 195, 2, 5.59684
301, 1, bw, attraction, a-b-db, 5, 3, 6, 35, 117, 190, 195, 120, 120, 195, 1, 1.75422
301, 1, bw, attraction, a-b-db, 5, 1, 6, 36, 60, 135, 58, 132, 135, 60, 1, 1.48154
301, 1, bw, attraction, a-b-db, 5, 1, 6, 36, 60, 135, 58, 132, 135, 60, 2, 1.83713
301, 1, bw, attraction, a-b-da, 5, 3, 6, 37, 190, 117, 120, 195, 195, 120, 2, 3.00914
301, 1, bw, attraction, a-b-da, 5, 3, 6, 37, 190, 117, 120, 195, 195, 120, 1, 0.94295
301, 1, bw, filler, NA, 999, 999, 7, 1, 157, 113, 135, 128, 114, 190, 1, 2.26247
301, 1, bw, filler, NA, 999, 999, 7, 1, 157, 113, 135, 128, 114, 190, 2, 1.79446
301, 1, bw, attraction, a-b-da, 9, 1, 7, 2, 129, 57, 135, 60, 60, 135, 1, 14.7998
301, 1, bw, attraction, a-b-da, 9, 1, 7, 2, 129, 57, 135, 60, 60, 135, 3, 0.578513
301, 1, bw, attraction, a-b-db, 14, 1, 7, 3, 60, 135, 135, 60, 56, 125, 1, 0.976874
301, 1, bw, attraction, a-b-db, 14, 1, 7, 3, 60, 135, 135, 60, 56, 125, 2, 0.560549
301, 1, bw, attraction, a-b-da, 14, 2, 7, 4, 165, 90, 153, 83, 90, 165, 1, 0.951793
301, 1, bw, attraction, a-b-da, 14, 2, 7, 4, 165, 90, 153, 83, 90, 165, 2, 0.376682
301, 1, bw, attraction, a-b-db, 2, 2, 7, 5, 89, 163, 165, 90, 90, 165, 1, 1.3832
301, 1, bw, attraction, a-b-db, 2, 2, 7, 5, 89, 163, 165, 90, 90, 165, 2, 0.422742
301, 1, bw, attraction, a-b-da, 2, 3, 7, 6, 193, 119, 195, 120, 120, 195, 2, 0.955934
301, 1, bw, attraction, a-b-da, 2, 3, 7, 6, 193, 119, 195, 120, 120, 195, 3, 0.364324
301, 1, bw, attraction, a-b-db, 14, 2, 7, 7, 90, 165, 165, 90, 83, 153, 1, 0.947413
301, 1, bw, attraction, a-b-db, 14, 2, 7, 7, 90, 165, 165, 90, 83, 153, 3, 0.388531
301, 1, bw, filler, NA, 999, 999, 7, 8, 176, 92, 94, 86, 175, 132, 3, 0.970914
301, 1, bw, filler, NA, 999, 999, 7, 8, 176, 92, 94, 86, 175, 132, 2, 0.819267
301, 1, bw, attraction, a-b-db, 5, 1, 7, 9, 58, 132, 135, 60, 60, 135, 2, 0.968241
301, 1, bw, attraction, a-b-db, 5, 1, 7, 9, 58, 132, 135, 60, 60, 135, 3, 0.864699
301, 1, bw, attraction, a-b-db, 2, 3, 7, 10, 119, 193, 195, 120, 120, 195, 3, 1.5716
301, 1, bw, attraction, a-b-db, 2, 3, 7, 10, 119, 193, 195, 120, 120, 195, 1, 0.483809
301, 1, bw, filler, NA, 999, 999, 7, 11, 106, 109, 160, 142, 173, 93, 2, 0.654204
301, 1, bw, filler, NA, 999, 999, 7, 11, 106, 109, 160, 142, 173, 93, 1, 0.651286
301, 1, bw, attraction, a-b-db, 5, 2, 7, 12, 90, 165, 165, 90, 88, 161, 1, 2.00717
301, 1, bw, attraction, a-b-db, 5, 2, 7, 12, 90, 165, 165, 90, 88, 161, 2, 0.485078
301, 1, bw, attraction, a-b-db, 9, 3, 7, 13, 120, 195, 195, 120, 114, 186, 2, 2.71951
301, 1, bw, attraction, a-b-db, 9, 3, 7, 13, 120, 195, 195, 120, 114, 186, 3, 0.545424
301, 1, bw, attraction, a-b-db, 14, 3, 7, 14, 120, 195, 195, 120, 111, 181, 1, 1.30517
301, 1, bw, attraction, a-b-db, 14, 3, 7, 14, 120, 195, 195, 120, 111, 181, 3, 0.483402
301, 1, bw, attraction, a-b-db, 2, 1, 7, 15, 135, 60, 60, 135, 59, 134, 2, 2.90179
301, 1, bw, attraction, a-b-db, 2, 1, 7, 15, 135, 60, 60, 135, 59, 134, 1, 1.07219
301, 1, bw, attraction, a-b-db, 5, 3, 7, 16, 120, 195, 195, 120, 117, 190, 1, 1.33104
301, 1, bw, attraction, a-b-db, 5, 3, 7, 16, 120, 195, 195, 120, 117, 190, 3, 0.436711
301, 1, bw, attraction, a-b-db, 9, 1, 7, 17, 57, 129, 60, 135, 135, 60, 2, 1.83336
301, 1, bw, attraction, a-b-db, 9, 1, 7, 17, 57, 129, 60, 135, 135, 60, 1, 0.430552
301, 1, bw, attraction, a-b-da, 9, 3, 7, 18, 120, 195, 186, 114, 195, 120, 3, 1.55497
301, 1, bw, attraction, a-b-da, 9, 3, 7, 18, 120, 195, 186, 114, 195, 120, 2, 0.643202
301, 1, bw, attraction, a-b-db, 9, 2, 7, 19, 86, 157, 90, 165, 165, 90, 2, 2.75887
301, 1, bw, attraction, a-b-db, 9, 2, 7, 19, 86, 157, 90, 165, 165, 90, 3, 0.422615
301, 1, bw, attraction, a-b-da, 14, 3, 7, 20, 181, 111, 195, 120, 120, 195, 2, 3.13198
301, 1, bw, attraction, a-b-da, 14, 3, 7, 20, 181, 111, 195, 120, 120, 195, 1, 0.396856
301, 1, bw, filler, NA, 999, 999, 7, 21, 127, 166, 110, 185, 126, 175, 3, 3.49063
301, 1, bw, filler, NA, 999, 999, 7, 21, 127, 166, 110, 185, 126, 175, 2, 0.80479
301, 1, bw, attraction, a-b-da, 5, 2, 7, 22, 161, 88, 90, 165, 165, 90, 2, 5.45862
301, 1, bw, attraction, a-b-da, 5, 2, 7, 22, 161, 88, 90, 165, 165, 90, 1, 0.797445
301, 1, bw, catch, NA, 999, 999, 7, 23, 134, 121, 157, 158, 68, 127, 2, 0.771125
301, 1, bw, catch, NA, 999, 999, 7, 23, 134, 121, 157, 158, 68, 127, 3, 1.64288
301, 1, bw, attraction, a-b-da, 2, 2, 7, 24, 90, 165, 165, 90, 163, 89, 2, 1.82234
301, 1, bw, attraction, a-b-da, 2, 2, 7, 24, 90, 165, 165, 90, 163, 89, 1, 0.547774
301, 1, bw, attraction, a-b-da, 14, 1, 7, 25, 125, 56, 60, 135, 135, 60, 2, 1.61965
301, 1, bw, attraction, a-b-da, 14, 1, 7, 25, 125, 56, 60, 135, 135, 60, 1, 0.601588
301, 1, bw, attraction, a-b-da, 2, 1, 7, 26, 134, 59, 60, 135, 135, 60, 2, 0.81534
301, 1, bw, attraction, a-b-da, 2, 1, 7, 26, 134, 59, 60, 135, 135, 60, 1, 0.837798
301, 1, bw, filler, NA, 999, 999, 7, 27, 146, 184, 117, 71, 156, 101, 1, 0.810099
301, 1, bw, filler, NA, 999, 999, 7, 27, 146, 184, 117, 71, 156, 101, 2, 0.416415
301, 1, bw, filler, NA, 999, 999, 7, 28, 187, 71, 59, 63, 135, 192, 3, 0.621855
301, 1, bw, filler, NA, 999, 999, 7, 28, 187, 71, 59, 63, 135, 192, 2, 0.747547
301, 1, bw, filler, NA, 999, 999, 7, 29, 154, 110, 180, 134, 117, 111, 2, 1.85116
301, 1, bw, filler, NA, 999, 999, 7, 29, 154, 110, 180, 134, 117, 111, 3, 0.50382
301, 1, bw, attraction, a-b-da, 5, 1, 7, 30, 132, 58, 60, 135, 135, 60, 1, 1.88966
301, 1, bw, attraction, a-b-da, 5, 1, 7, 30, 132, 58, 60, 135, 135, 60, 3, 0.660285
301, 1, bw, filler, NA, 999, 999, 7, 31, 111, 71, 111, 165, 186, 135, 3, 1.12738
301, 1, bw, filler, NA, 999, 999, 7, 31, 111, 71, 111, 165, 186, 135, 1, 0.553077
301, 1, bw, catch, NA, 999, 999, 7, 32, 78, 117, 162, 153, 157, 98, 2, 0.680938
301, 1, bw, catch, NA, 999, 999, 7, 32, 78, 117, 162, 153, 157, 98, 1, 0.580606
301, 1, bw, filler, NA, 999, 999, 7, 33, 163, 114, 166, 128, 121, 78, 2, 3.16301
301, 1, bw, filler, NA, 999, 999, 7, 33, 163, 114, 166, 128, 121, 78, 3, 0.586856
301, 1, bw, catch, NA, 999, 999, 7, 34, 188, 127, 119, 76, 100, 155, 1, 0.697085
301, 1, bw, catch, NA, 999, 999, 7, 34, 188, 127, 119, 76, 100, 155, 2, 0.516106
301, 1, bw, attraction, a-b-da, 5, 3, 7, 35, 190, 117, 120, 195, 195, 120, 2, 2.29328
301, 1, bw, attraction, a-b-da, 5, 3, 7, 35, 190, 117, 120, 195, 195, 120, 1, 0.543821
301, 1, bw, attraction, a-b-da, 9, 2, 7, 36, 90, 165, 157, 86, 165, 90, 1, 4.04759
301, 1, bw, attraction, a-b-da, 9, 2, 7, 36, 90, 165, 157, 86, 165, 90, 3, 0.427684
301, 1, bw, filler, NA, 999, 999, 7, 37, 187, 147, 176, 121, 110, 132, 1, 0.792119
301, 1, bw, filler, NA, 999, 999, 7, 37, 187, 147, 176, 121, 110, 132, 2, 0.551187
301, 1, bw, attraction, a-b-db, 9, 1, 8, 1, 57, 129, 60, 135, 135, 60, 2, 1.25499
301, 1, bw, attraction, a-b-db, 9, 1, 8, 1, 57, 129, 60, 135, 135, 60, 3, 0.899223
301, 1, bw, attraction, a-b-db, 14, 1, 8, 2, 135, 60, 56, 125, 60, 135, 2, 0.916797
301, 1, bw, attraction, a-b-db, 14, 1, 8, 2, 135, 60, 56, 125, 60, 135, 1, 0.615272
301, 1, bw, attraction, a-b-da, 14, 3, 8, 3, 195, 120, 181, 111, 120, 195, 1, 1.47627
301, 1, bw, attraction, a-b-da, 14, 3, 8, 3, 195, 120, 181, 111, 120, 195, 2, 0.575839
301, 1, bw, attraction, a-b-da, 5, 2, 8, 4, 165, 90, 161, 88, 90, 165, 2, 0.894303
301, 1, bw, attraction, a-b-da, 5, 2, 8, 4, 165, 90, 161, 88, 90, 165, 1, 0.481348
301, 1, bw, attraction, a-b-db, 2, 3, 8, 5, 119, 193, 195, 120, 120, 195, 2, 1.7957
301, 1, bw, attraction, a-b-db, 2, 3, 8, 5, 119, 193, 195, 120, 120, 195, 1, 0.730495
301, 1, bw, filler, NA, 999, 999, 8, 6, 116, 69, 173, 97, 84, 192, 2, 0.882872
301, 1, bw, filler, NA, 999, 999, 8, 6, 116, 69, 173, 97, 84, 192, 1, 0.726611
301, 1, bw, filler, NA, 999, 999, 8, 7, 158, 118, 58, 158, 189, 58, 1, 0.910946
301, 1, bw, filler, NA, 999, 999, 8, 7, 158, 118, 58, 158, 189, 58, 2, 0.601307
301, 1, bw, catch, NA, 999, 999, 8, 8, 95, 100, 170, 145, 156, 99, 2, 0.903212
301, 1, bw, catch, NA, 999, 999, 8, 8, 95, 100, 170, 145, 156, 99, 1, 0.730187
301, 1, bw, attraction, a-b-da, 5, 1, 8, 9, 60, 135, 135, 60, 132, 58, 2, 1.33845
301, 1, bw, attraction, a-b-da, 5, 1, 8, 9, 60, 135, 135, 60, 132, 58, 3, 0.427469
301, 1, bw, attraction, a-b-da, 14, 1, 8, 10, 60, 135, 135, 60, 125, 56, 2, 0.655848
301, 1, bw, attraction, a-b-da, 14, 1, 8, 10, 60, 135, 135, 60, 125, 56, 3, 0.396271
301, 1, bw, attraction, a-b-da, 5, 3, 8, 11, 190, 117, 120, 195, 195, 120, 2, 2.00204
301, 1, bw, attraction, a-b-da, 5, 3, 8, 11, 190, 117, 120, 195, 195, 120, 3, 0.888863
301, 1, bw, attraction, a-b-da, 9, 1, 8, 12, 129, 57, 60, 135, 135, 60, 3, 3.17915
301, 1, bw, attraction, a-b-da, 9, 1, 8, 12, 129, 57, 60, 135, 135, 60, 1, 1.01807
301, 1, bw, attraction, a-b-db, 14, 2, 8, 13, 90, 165, 165, 90, 83, 153, 2, 1.04709
301, 1, bw, attraction, a-b-db, 14, 2, 8, 13, 90, 165, 165, 90, 83, 153, 1, 0.436113
301, 1, bw, filler, NA, 999, 999, 8, 14, 152, 106, 77, 182, 195, 176, 3, 0.776529
301, 1, bw, filler, NA, 999, 999, 8, 14, 152, 106, 77, 182, 195, 176, 1, 0.712259
301, 1, bw, attraction, a-b-da, 2, 3, 8, 15, 195, 120, 193, 119, 120, 195, 3, 2.20124
301, 1, bw, attraction, a-b-da, 2, 3, 8, 15, 195, 120, 193, 119, 120, 195, 1, 0.671907
301, 1, bw, filler, NA, 999, 999, 8, 16, 137, 157, 106, 118, 103, 65, 1, 0.971
301, 1, bw, filler, NA, 999, 999, 8, 16, 137, 157, 106, 118, 103, 65, 3, 0.715325
301, 1, bw, catch, NA, 999, 999, 8, 17, 98, 157, 131, 184, 133, 62, 2, 0.652322
301, 1, bw, catch, NA, 999, 999, 8, 17, 98, 157, 131, 184, 133, 62, 3, 0.793468
301, 1, bw, attraction, a-b-db, 5, 2, 8, 18, 88, 161, 165, 90, 90, 165, 2, 0.959162
301, 1, bw, attraction, a-b-db, 5, 2, 8, 18, 88, 161, 165, 90, 90, 165, 3, 0.831506
301, 1, bw, filler, NA, 999, 999, 8, 19, 84, 144, 124, 164, 104, 125, 2, 1.13181
301, 1, bw, filler, NA, 999, 999, 8, 19, 84, 144, 124, 164, 104, 125, 1, 0.637454
301, 1, bw, filler, NA, 999, 999, 8, 20, 117, 127, 176, 165, 91, 130, 2, 0.761859
301, 1, bw, filler, NA, 999, 999, 8, 20, 117, 127, 176, 165, 91, 130, 1, 0.658205
301, 1, bw, attraction, a-b-da, 9, 2, 8, 21, 90, 165, 157, 86, 165, 90, 1, 1.30938
301, 1, bw, attraction, a-b-da, 9, 2, 8, 21, 90, 165, 157, 86, 165, 90, 2, 0.503566
301, 1, bw, attraction, a-b-da, 2, 2, 8, 22, 90, 165, 163, 89, 165, 90, 3, 1.11336
301, 1, bw, attraction, a-b-da, 2, 2, 8, 22, 90, 165, 163, 89, 165, 90, 2, 0.531693
301, 1, bw, filler, NA, 999, 999, 8, 23, 104, 106, 117, 64, 106, 166, 3, 2.32415
301, 1, bw, filler, NA, 999, 999, 8, 23, 104, 106, 117, 64, 106, 166, 2, 0.56538
301, 1, bw, attraction, a-b-db, 9, 3, 8, 24, 195, 120, 120, 195, 114, 186, 2, 2.0684
301, 1, bw, attraction, a-b-db, 9, 3, 8, 24, 195, 120, 120, 195, 114, 186, 3, 0.696492
301, 1, bw, attraction, a-b-db, 2, 2, 8, 25, 89, 163, 90, 165, 165, 90, 2, 1.29814
301, 1, bw, attraction, a-b-db, 2, 2, 8, 25, 89, 163, 90, 165, 165, 90, 3, 1.15703
301, 1, bw, filler, NA, 999, 999, 8, 26, 122, 187, 82, 86, 151, 143, 1, 1.73196
301, 1, bw, filler, NA, 999, 999, 8, 26, 122, 187, 82, 86, 151, 143, 2, 0.981345
301, 1, bw, catch, NA, 999, 999, 8, 27, 142, 173, 128, 67, 99, 156, 1, 0.779719
301, 1, bw, catch, NA, 999, 999, 8, 27, 142, 173, 128, 67, 99, 156, 2, 0.507509
301, 1, bw, attraction, a-b-db, 5, 3, 8, 28, 120, 195, 117, 190, 195, 120, 2, 2.06055
301, 1, bw, attraction, a-b-db, 5, 3, 8, 28, 120, 195, 117, 190, 195, 120, 3, 0.472492
301, 1, bw, attraction, a-b-da, 14, 2, 8, 29, 153, 83, 165, 90, 90, 165, 2, 1.57176
301, 1, bw, attraction, a-b-da, 14, 2, 8, 29, 153, 83, 165, 90, 90, 165, 3, 0.875208
301, 1, bw, attraction, a-b-db, 5, 1, 8, 30, 135, 60, 58, 132, 60, 135, 2, 1.27756
301, 1, bw, attraction, a-b-db, 5, 1, 8, 30, 135, 60, 58, 132, 60, 135, 1, 0.561115
301, 1, bw, attraction, a-b-db, 2, 1, 8, 31, 60, 135, 59, 134, 135, 60, 2, 0.888219
301, 1, bw, attraction, a-b-db, 2, 1, 8, 31, 60, 135, 59, 134, 135, 60, 3, 0.907276
301, 1, bw, attraction, a-b-da, 2, 1, 8, 32, 60, 135, 134, 59, 135, 60, 1, 0.732144
301, 1, bw, attraction, a-b-da, 2, 1, 8, 32, 60, 135, 134, 59, 135, 60, 2, 0.597916
301, 1, bw, filler, NA, 999, 999, 8, 33, 73, 146, 67, 150, 180, 119, 3, 0.899708
301, 1, bw, filler, NA, 999, 999, 8, 33, 73, 146, 67, 150, 180, 119, 2, 0.830697
301, 1, bw, attraction, a-b-da, 9, 3, 8, 34, 120, 195, 195, 120, 186, 114, 2, 1.0671
301, 1, bw, attraction, a-b-da, 9, 3, 8, 34, 120, 195, 195, 120, 186, 114, 3, 1.02329
301, 1, bw, attraction, a-b-db, 14, 3, 8, 35, 120, 195, 195, 120, 111, 181, 1, 1.21228
301, 1, bw, attraction, a-b-db, 14, 3, 8, 35, 120, 195, 195, 120, 111, 181, 3, 1.24254
301, 1, bw, attraction, a-b-db, 9, 2, 8, 36, 90, 165, 165, 90, 86, 157, 1, 0.646107
301, 1, bw, attraction, a-b-db, 9, 2, 8, 36, 90, 165, 165, 90, 86, 157, 2, 0.5234
301, 1, bw, filler, NA, 999, 999, 8, 37, 106, 192, 151, 133, 124, 150, 2, 1.29164
301, 1, bw, filler, NA, 999, 999, 8, 37, 106, 192, 151, 133, 124, 150, 3, 0.622583
