sub_n, computer_n, bw_cond, effect, set, distance, diag, block_n, trial_n, h1, w1, h2, w2, h3, w3, choice, rt 
316, 1, wb, practice, NA, 999, 999, 0, 1, 105, 195, 148, 182, 87, 136, 3, 2.00965
316, 1, wb, practice, NA, 999, 999, 0, 1, 105, 195, 148, 182, 87, 136, 2, 1.8884
316, 1, wb, practice, NA, 999, 999, 0, 2, 108, 114, 91, 72, 72, 99, 2, 1.40771
316, 1, wb, practice, NA, 999, 999, 0, 2, 108, 114, 91, 72, 72, 99, 1, 1.19072
316, 1, wb, practice, NA, 999, 999, 0, 3, 111, 114, 77, 171, 127, 143, 1, 2.57096
316, 1, wb, practice, NA, 999, 999, 0, 3, 111, 114, 77, 171, 127, 143, 3, 4.46527
316, 1, wb, catch, NA, 999, 999, 1, 1, 92, 103, 137, 178, 146, 109, 1, 1.89544
316, 1, wb, catch, NA, 999, 999, 1, 1, 92, 103, 137, 178, 146, 109, 2, 1.09018
316, 1, wb, attraction, a-b-db, 9, 3, 1, 2, 120, 195, 195, 120, 114, 186, 1, 0.611851
316, 1, wb, attraction, a-b-db, 9, 3, 1, 2, 120, 195, 195, 120, 114, 186, 2, 0.882231
316, 1, wb, attraction, a-b-da, 14, 1, 1, 3, 125, 56, 135, 60, 60, 135, 2, 0.780677
316, 1, wb, attraction, a-b-da, 14, 1, 1, 3, 125, 56, 135, 60, 60, 135, 3, 5.84441
316, 1, wb, attraction, a-b-da, 2, 1, 1, 4, 60, 135, 135, 60, 134, 59, 2, 0.422439
316, 1, wb, attraction, a-b-da, 2, 1, 1, 4, 60, 135, 135, 60, 134, 59, 3, 3.1323
316, 1, wb, attraction, a-b-db, 9, 2, 1, 5, 90, 165, 165, 90, 86, 157, 2, 0.492035
316, 1, wb, attraction, a-b-db, 9, 2, 1, 5, 90, 165, 165, 90, 86, 157, 3, 3.9191
316, 1, wb, attraction, a-b-db, 5, 3, 1, 6, 117, 190, 120, 195, 195, 120, 2, 0.399256
316, 1, wb, attraction, a-b-db, 5, 3, 1, 6, 117, 190, 120, 195, 195, 120, 3, 4.7903
316, 1, wb, filler, NA, 999, 999, 1, 7, 165, 117, 132, 158, 64, 139, 2, 0.499387
316, 1, wb, filler, NA, 999, 999, 1, 7, 165, 117, 132, 158, 64, 139, 3, 4.77462
316, 1, wb, attraction, a-b-db, 14, 2, 1, 8, 165, 90, 90, 165, 83, 153, 2, 1.21164
316, 1, wb, attraction, a-b-db, 14, 2, 1, 8, 165, 90, 90, 165, 83, 153, 3, 20.2179
316, 1, wb, attraction, a-b-db, 14, 1, 1, 9, 135, 60, 56, 125, 60, 135, 2, 7.72084
316, 1, wb, attraction, a-b-db, 14, 1, 1, 9, 135, 60, 56, 125, 60, 135, 3, 11.1771
316, 1, wb, attraction, a-b-db, 2, 1, 1, 10, 60, 135, 135, 60, 59, 134, 2, 0.844239
316, 1, wb, attraction, a-b-db, 2, 1, 1, 10, 60, 135, 135, 60, 59, 134, 3, 12.7133
316, 1, wb, attraction, a-b-da, 5, 1, 1, 11, 60, 135, 132, 58, 135, 60, 3, 0.406677
316, 1, wb, attraction, a-b-da, 5, 1, 1, 11, 60, 135, 132, 58, 135, 60, 2, 8.53306
316, 1, wb, filler, NA, 999, 999, 1, 12, 108, 142, 172, 135, 178, 164, 2, 0.43493
316, 1, wb, filler, NA, 999, 999, 1, 12, 108, 142, 172, 135, 178, 164, 3, 6.48884
316, 1, wb, catch, NA, 999, 999, 1, 13, 116, 79, 120, 195, 125, 130, 2, 0.577403
316, 1, wb, catch, NA, 999, 999, 1, 13, 116, 79, 120, 195, 125, 130, 3, 8.75333
316, 1, wb, filler, NA, 999, 999, 1, 14, 63, 177, 77, 56, 137, 84, 2, 0.614442
316, 1, wb, filler, NA, 999, 999, 1, 14, 63, 177, 77, 56, 137, 84, 1, 24.8609
316, 1, wb, filler, NA, 999, 999, 1, 15, 141, 162, 99, 114, 144, 73, 2, 0.761139
316, 1, wb, filler, NA, 999, 999, 1, 15, 141, 162, 99, 114, 144, 73, 1, 5.64151
316, 1, wb, attraction, a-b-db, 9, 1, 1, 16, 135, 60, 60, 135, 57, 129, 2, 0.675679
316, 1, wb, attraction, a-b-db, 9, 1, 1, 16, 135, 60, 60, 135, 57, 129, 3, 13.1516
316, 1, wb, filler, NA, 999, 999, 1, 17, 77, 194, 191, 189, 119, 128, 1, 2.75524
316, 1, wb, filler, NA, 999, 999, 1, 17, 77, 194, 191, 189, 119, 128, 2, 17.9157
316, 1, wb, attraction, a-b-da, 5, 3, 1, 18, 190, 117, 120, 195, 195, 120, 2, 10.6714
316, 1, wb, attraction, a-b-da, 5, 3, 1, 18, 190, 117, 120, 195, 195, 120, 3, 95.9926
316, 1, wb, attraction, a-b-da, 5, 2, 1, 19, 90, 165, 165, 90, 161, 88, 2, 0.602004
316, 1, wb, attraction, a-b-da, 5, 2, 1, 19, 90, 165, 165, 90, 161, 88, 3, 0.673083
316, 1, wb, attraction, a-b-db, 2, 2, 1, 20, 89, 163, 165, 90, 90, 165, 2, 0.532158
316, 1, wb, attraction, a-b-db, 2, 2, 1, 20, 89, 163, 165, 90, 90, 165, 1, 0.990007
316, 1, wb, filler, NA, 999, 999, 1, 21, 103, 192, 182, 101, 166, 96, 3, 0.436298
316, 1, wb, filler, NA, 999, 999, 1, 21, 103, 192, 182, 101, 166, 96, 2, 11.4901
316, 1, wb, attraction, a-b-db, 14, 3, 1, 22, 120, 195, 111, 181, 195, 120, 2, 0.849168
316, 1, wb, attraction, a-b-db, 14, 3, 1, 22, 120, 195, 111, 181, 195, 120, 3, 3.53417
316, 1, wb, filler, NA, 999, 999, 1, 23, 115, 177, 77, 56, 168, 105, 2, 0.6936
316, 1, wb, filler, NA, 999, 999, 1, 23, 115, 177, 77, 56, 168, 105, 1, 2.37676
316, 1, wb, attraction, a-b-da, 2, 3, 1, 24, 120, 195, 195, 120, 193, 119, 3, 0.398598
316, 1, wb, attraction, a-b-da, 2, 3, 1, 24, 120, 195, 195, 120, 193, 119, 2, 6.0298
316, 1, wb, attraction, a-b-da, 9, 1, 1, 25, 129, 57, 60, 135, 135, 60, 2, 0.448452
316, 1, wb, attraction, a-b-da, 9, 1, 1, 25, 129, 57, 60, 135, 135, 60, 3, 5.79775
316, 1, wb, attraction, a-b-db, 5, 1, 1, 26, 58, 132, 60, 135, 135, 60, 2, 0.42598
316, 1, wb, attraction, a-b-db, 5, 1, 1, 26, 58, 132, 60, 135, 135, 60, 3, 7.18365
316, 1, wb, filler, NA, 999, 999, 1, 27, 173, 84, 113, 189, 194, 88, 2, 0.281711
316, 1, wb, filler, NA, 999, 999, 1, 27, 173, 84, 113, 189, 194, 88, 3, 0.903913
316, 1, wb, attraction, a-b-da, 9, 2, 1, 28, 157, 86, 90, 165, 165, 90, 1, 0.641515
316, 1, wb, attraction, a-b-da, 9, 2, 1, 28, 157, 86, 90, 165, 165, 90, 2, 0.710731
316, 1, wb, catch, NA, 999, 999, 1, 29, 132, 123, 172, 143, 90, 105, 2, 0.37573
316, 1, wb, catch, NA, 999, 999, 1, 29, 132, 123, 172, 143, 90, 105, 3, 0.607641
316, 1, wb, filler, NA, 999, 999, 1, 30, 160, 115, 152, 61, 92, 158, 2, 0.764604
316, 1, wb, filler, NA, 999, 999, 1, 30, 160, 115, 152, 61, 92, 158, 3, 1.62906
316, 1, wb, attraction, a-b-db, 5, 2, 1, 31, 90, 165, 88, 161, 165, 90, 2, 0.513098
316, 1, wb, attraction, a-b-db, 5, 2, 1, 31, 90, 165, 88, 161, 165, 90, 3, 2.13169
316, 1, wb, attraction, a-b-da, 14, 2, 1, 32, 90, 165, 165, 90, 153, 83, 3, 0.667715
316, 1, wb, attraction, a-b-da, 14, 2, 1, 32, 90, 165, 165, 90, 153, 83, 1, 1.67208
316, 1, wb, attraction, a-b-da, 9, 3, 1, 33, 120, 195, 195, 120, 186, 114, 1, 0.49083
316, 1, wb, attraction, a-b-da, 9, 3, 1, 33, 120, 195, 195, 120, 186, 114, 2, 2.00596
316, 1, wb, attraction, a-b-db, 2, 3, 1, 34, 119, 193, 195, 120, 120, 195, 2, 0.491212
316, 1, wb, attraction, a-b-db, 2, 3, 1, 34, 119, 193, 195, 120, 120, 195, 3, 4.4784
316, 1, wb, attraction, a-b-da, 2, 2, 1, 35, 90, 165, 165, 90, 163, 89, 3, 0.831806
316, 1, wb, attraction, a-b-da, 2, 2, 1, 35, 90, 165, 165, 90, 163, 89, 2, 4.78132
316, 1, wb, attraction, a-b-da, 14, 3, 1, 36, 195, 120, 120, 195, 181, 111, 2, 0.578447
316, 1, wb, attraction, a-b-da, 14, 3, 1, 36, 195, 120, 120, 195, 181, 111, 3, 6.91418
316, 1, wb, filler, NA, 999, 999, 1, 37, 136, 148, 153, 59, 94, 190, 2, 0.937263
316, 1, wb, filler, NA, 999, 999, 1, 37, 136, 148, 153, 59, 94, 190, 3, 6.71436
316, 1, wb, attraction, a-b-db, 2, 3, 2, 1, 120, 195, 119, 193, 195, 120, 2, 0.409506
316, 1, wb, attraction, a-b-db, 2, 3, 2, 1, 120, 195, 119, 193, 195, 120, 3, 4.69609
316, 1, wb, catch, NA, 999, 999, 2, 2, 129, 186, 94, 101, 98, 157, 2, 0.416551
316, 1, wb, catch, NA, 999, 999, 2, 2, 129, 186, 94, 101, 98, 157, 3, 9.23101
316, 1, wb, attraction, a-b-db, 14, 2, 2, 3, 83, 153, 90, 165, 165, 90, 2, 0.85689
316, 1, wb, attraction, a-b-db, 14, 2, 2, 3, 83, 153, 90, 165, 165, 90, 3, 7.35719
316, 1, wb, attraction, a-b-da, 9, 3, 2, 4, 186, 114, 120, 195, 195, 120, 2, 0.666773
316, 1, wb, attraction, a-b-da, 9, 3, 2, 4, 186, 114, 120, 195, 195, 120, 1, 8.93519
316, 1, wb, attraction, a-b-da, 9, 2, 2, 5, 165, 90, 157, 86, 90, 165, 2, 0.828926
316, 1, wb, attraction, a-b-da, 9, 2, 2, 5, 165, 90, 157, 86, 90, 165, 3, 16.7542
316, 1, wb, filler, NA, 999, 999, 2, 6, 127, 77, 80, 174, 184, 86, 2, 0.333394
316, 1, wb, filler, NA, 999, 999, 2, 6, 127, 77, 80, 174, 184, 86, 3, 0.415322
316, 1, wb, filler, NA, 999, 999, 2, 7, 104, 73, 172, 71, 73, 155, 2, 18.6765
316, 1, wb, filler, NA, 999, 999, 2, 7, 104, 73, 172, 71, 73, 155, 3, 6.69122
316, 1, wb, attraction, a-b-db, 9, 1, 2, 8, 60, 135, 135, 60, 57, 129, 2, 3.46772
316, 1, wb, attraction, a-b-db, 9, 1, 2, 8, 60, 135, 135, 60, 57, 129, 3, 20.6154
316, 1, wb, attraction, a-b-da, 14, 1, 2, 9, 60, 135, 135, 60, 125, 56, 1, 4.6782
316, 1, wb, attraction, a-b-da, 14, 1, 2, 9, 60, 135, 135, 60, 125, 56, 2, 2.66483
316, 1, wb, attraction, a-b-da, 14, 3, 2, 10, 120, 195, 181, 111, 195, 120, 2, 6.29907
316, 1, wb, attraction, a-b-da, 14, 3, 2, 10, 120, 195, 181, 111, 195, 120, 3, 0.356374
316, 1, wb, attraction, a-b-db, 9, 2, 2, 11, 86, 157, 90, 165, 165, 90, 3, 2.02038
316, 1, wb, attraction, a-b-db, 9, 2, 2, 11, 86, 157, 90, 165, 165, 90, 2, 0.610255
316, 1, wb, filler, NA, 999, 999, 2, 12, 190, 132, 167, 106, 163, 165, 2, 2.00726
316, 1, wb, filler, NA, 999, 999, 2, 12, 190, 132, 167, 106, 163, 165, 3, 12.7333
316, 1, wb, catch, NA, 999, 999, 2, 13, 192, 123, 84, 111, 124, 131, 2, 7.77798
316, 1, wb, catch, NA, 999, 999, 2, 13, 192, 123, 84, 111, 124, 131, 3, 10.9996
316, 1, wb, filler, NA, 999, 999, 2, 14, 160, 98, 193, 174, 143, 166, 2, 0.609979
316, 1, wb, filler, NA, 999, 999, 2, 14, 160, 98, 193, 174, 143, 166, 1, 2.70448
316, 1, wb, attraction, a-b-db, 14, 3, 2, 15, 195, 120, 111, 181, 120, 195, 2, 1.32155
316, 1, wb, attraction, a-b-db, 14, 3, 2, 15, 195, 120, 111, 181, 120, 195, 3, 2.91518
316, 1, wb, attraction, a-b-da, 14, 2, 2, 16, 153, 83, 165, 90, 90, 165, 2, 0.667436
316, 1, wb, attraction, a-b-da, 14, 2, 2, 16, 153, 83, 165, 90, 90, 165, 3, 4.88795
316, 1, wb, attraction, a-b-db, 5, 2, 2, 17, 90, 165, 88, 161, 165, 90, 2, 0.529044
316, 1, wb, attraction, a-b-db, 5, 2, 2, 17, 90, 165, 88, 161, 165, 90, 1, 4.83478
316, 1, wb, attraction, a-b-da, 2, 3, 2, 18, 193, 119, 120, 195, 195, 120, 3, 0.486076
316, 1, wb, attraction, a-b-da, 2, 3, 2, 18, 193, 119, 120, 195, 195, 120, 2, 3.40179
316, 1, wb, attraction, a-b-db, 2, 1, 2, 19, 59, 134, 60, 135, 135, 60, 2, 0.478584
316, 1, wb, attraction, a-b-db, 2, 1, 2, 19, 59, 134, 60, 135, 135, 60, 3, 3.74649
316, 1, wb, filler, NA, 999, 999, 2, 20, 74, 172, 91, 67, 139, 129, 2, 0.649412
316, 1, wb, filler, NA, 999, 999, 2, 20, 74, 172, 91, 67, 139, 129, 3, 9.4863
316, 1, wb, filler, NA, 999, 999, 2, 21, 156, 111, 60, 148, 184, 71, 3, 1.11802
316, 1, wb, filler, NA, 999, 999, 2, 21, 156, 111, 60, 148, 184, 71, 2, 8.54432
316, 1, wb, attraction, a-b-db, 9, 3, 2, 22, 195, 120, 114, 186, 120, 195, 2, 5.98961
316, 1, wb, attraction, a-b-db, 9, 3, 2, 22, 195, 120, 114, 186, 120, 195, 3, 5.05911
316, 1, wb, catch, NA, 999, 999, 2, 23, 129, 126, 131, 184, 128, 67, 2, 1.00468
316, 1, wb, catch, NA, 999, 999, 2, 23, 129, 126, 131, 184, 128, 67, 3, 4.70771
316, 1, wb, filler, NA, 999, 999, 2, 24, 178, 69, 108, 144, 120, 74, 2, 0.476154
316, 1, wb, filler, NA, 999, 999, 2, 24, 178, 69, 108, 144, 120, 74, 3, 1.87998
316, 1, wb, attraction, a-b-da, 2, 2, 2, 25, 165, 90, 90, 165, 163, 89, 2, 0.506072
316, 1, wb, attraction, a-b-da, 2, 2, 2, 25, 165, 90, 90, 165, 163, 89, 3, 2.2367
316, 1, wb, attraction, a-b-db, 2, 2, 2, 26, 165, 90, 90, 165, 89, 163, 2, 0.56831
316, 1, wb, attraction, a-b-db, 2, 2, 2, 26, 165, 90, 90, 165, 89, 163, 1, 2.76889
316, 1, wb, attraction, a-b-da, 9, 1, 2, 27, 60, 135, 135, 60, 129, 57, 2, 0.815217
316, 1, wb, attraction, a-b-da, 9, 1, 2, 27, 60, 135, 135, 60, 129, 57, 3, 2.94969
316, 1, wb, attraction, a-b-da, 5, 3, 2, 28, 120, 195, 195, 120, 190, 117, 2, 0.7807
316, 1, wb, attraction, a-b-da, 5, 3, 2, 28, 120, 195, 195, 120, 190, 117, 3, 2.28444
316, 1, wb, filler, NA, 999, 999, 2, 29, 186, 78, 68, 184, 161, 67, 3, 1.47039
316, 1, wb, filler, NA, 999, 999, 2, 29, 186, 78, 68, 184, 161, 67, 2, 8.09048
316, 1, wb, filler, NA, 999, 999, 2, 30, 69, 176, 107, 190, 137, 74, 3, 5.07452
316, 1, wb, filler, NA, 999, 999, 2, 30, 69, 176, 107, 190, 137, 74, 2, 7.66096
316, 1, wb, attraction, a-b-da, 5, 1, 2, 31, 135, 60, 60, 135, 132, 58, 3, 4.55786
316, 1, wb, attraction, a-b-da, 5, 1, 2, 31, 135, 60, 60, 135, 132, 58, 2, 7.5732
316, 1, wb, filler, NA, 999, 999, 2, 32, 92, 111, 71, 189, 155, 181, 2, 4.2101
316, 1, wb, filler, NA, 999, 999, 2, 32, 92, 111, 71, 189, 155, 181, 3, 4.96735
316, 1, wb, attraction, a-b-da, 5, 2, 2, 33, 90, 165, 161, 88, 165, 90, 3, 3.36499
316, 1, wb, attraction, a-b-da, 5, 2, 2, 33, 90, 165, 161, 88, 165, 90, 2, 12.7486
316, 1, wb, attraction, a-b-da, 2, 1, 2, 34, 60, 135, 134, 59, 135, 60, 2, 1.12051
316, 1, wb, attraction, a-b-da, 2, 1, 2, 34, 60, 135, 134, 59, 135, 60, 1, 11.7868
316, 1, wb, attraction, a-b-db, 5, 3, 2, 35, 195, 120, 117, 190, 120, 195, 2, 0.429827
316, 1, wb, attraction, a-b-db, 5, 3, 2, 35, 195, 120, 117, 190, 120, 195, 3, 16.5316
316, 1, wb, attraction, a-b-db, 14, 1, 2, 36, 56, 125, 60, 135, 135, 60, 2, 1.17505
316, 1, wb, attraction, a-b-db, 14, 1, 2, 36, 56, 125, 60, 135, 135, 60, 3, 2.50268
316, 1, wb, attraction, a-b-db, 5, 1, 2, 37, 58, 132, 135, 60, 60, 135, 1, 0.895834
316, 1, wb, attraction, a-b-db, 5, 1, 2, 37, 58, 132, 135, 60, 60, 135, 2, 0.66686
316, 1, wb, attraction, a-b-da, 5, 1, 3, 1, 60, 135, 135, 60, 132, 58, 2, 0.717965
316, 1, wb, attraction, a-b-da, 5, 1, 3, 1, 60, 135, 135, 60, 132, 58, 3, 0.592344
316, 1, wb, attraction, a-b-db, 14, 2, 3, 2, 90, 165, 165, 90, 83, 153, 2, 0.486031
316, 1, wb, attraction, a-b-db, 14, 2, 3, 2, 90, 165, 165, 90, 83, 153, 1, 0.513871
316, 1, wb, attraction, a-b-da, 9, 3, 3, 3, 120, 195, 195, 120, 186, 114, 2, 0.426943
316, 1, wb, attraction, a-b-da, 9, 3, 3, 3, 120, 195, 195, 120, 186, 114, 3, 0.416848
316, 1, wb, attraction, a-b-da, 2, 1, 3, 4, 135, 60, 134, 59, 60, 135, 2, 0.821954
316, 1, wb, attraction, a-b-da, 2, 1, 3, 4, 135, 60, 134, 59, 60, 135, 3, 0.603785
316, 1, wb, filler, NA, 999, 999, 3, 5, 138, 142, 85, 164, 144, 117, 2, 0.273492
316, 1, wb, filler, NA, 999, 999, 3, 5, 138, 142, 85, 164, 144, 117, 3, 0.829416
316, 1, wb, filler, NA, 999, 999, 3, 6, 66, 68, 114, 192, 80, 193, 2, 0.313688
316, 1, wb, filler, NA, 999, 999, 3, 6, 66, 68, 114, 192, 80, 193, 1, 0.740231
316, 1, wb, catch, NA, 999, 999, 3, 7, 129, 186, 105, 90, 123, 132, 2, 0.699957
316, 1, wb, catch, NA, 999, 999, 3, 7, 129, 186, 105, 90, 123, 132, 1, 0.543014
316, 1, wb, attraction, a-b-db, 9, 2, 3, 8, 90, 165, 165, 90, 86, 157, 2, 0.350913
316, 1, wb, attraction, a-b-db, 9, 2, 3, 8, 90, 165, 165, 90, 86, 157, 3, 0.335984
316, 1, wb, attraction, a-b-da, 14, 1, 3, 9, 125, 56, 135, 60, 60, 135, 2, 0.38456
316, 1, wb, attraction, a-b-da, 14, 1, 3, 9, 125, 56, 135, 60, 60, 135, 3, 0.536517
316, 1, wb, filler, NA, 999, 999, 3, 10, 101, 173, 150, 117, 125, 192, 2, 0.400801
316, 1, wb, filler, NA, 999, 999, 3, 10, 101, 173, 150, 117, 125, 192, 1, 0.367984
316, 1, wb, filler, NA, 999, 999, 3, 11, 193, 193, 91, 140, 180, 108, 3, 0.287147
316, 1, wb, filler, NA, 999, 999, 3, 11, 193, 193, 91, 140, 180, 108, 2, 0.370335
316, 1, wb, attraction, a-b-da, 9, 1, 3, 12, 135, 60, 129, 57, 60, 135, 2, 0.441535
316, 1, wb, attraction, a-b-da, 9, 1, 3, 12, 135, 60, 129, 57, 60, 135, 3, 0.334784
316, 1, wb, filler, NA, 999, 999, 3, 13, 73, 149, 185, 126, 187, 132, 2, 0.41531
316, 1, wb, filler, NA, 999, 999, 3, 13, 73, 149, 185, 126, 187, 132, 3, 0.357727
316, 1, wb, catch, NA, 999, 999, 3, 14, 131, 64, 101, 154, 184, 131, 2, 0.196874
316, 1, wb, catch, NA, 999, 999, 3, 14, 131, 64, 101, 154, 184, 131, 3, 0.364177
316, 1, wb, filler, NA, 999, 999, 3, 15, 126, 125, 172, 120, 56, 165, 2, 0.41928
316, 1, wb, filler, NA, 999, 999, 3, 15, 126, 125, 172, 120, 56, 165, 1, 0.329767
316, 1, wb, attraction, a-b-db, 9, 3, 3, 16, 120, 195, 114, 186, 195, 120, 3, 0.32233
316, 1, wb, attraction, a-b-db, 9, 3, 3, 16, 120, 195, 114, 186, 195, 120, 2, 0.308246
316, 1, wb, attraction, a-b-db, 5, 1, 3, 17, 135, 60, 58, 132, 60, 135, 3, 0.445324
316, 1, wb, attraction, a-b-db, 5, 1, 3, 17, 135, 60, 58, 132, 60, 135, 2, 0.322562
316, 1, wb, filler, NA, 999, 999, 3, 18, 193, 103, 77, 150, 127, 139, 2, 0.355644
316, 1, wb, filler, NA, 999, 999, 3, 18, 193, 103, 77, 150, 127, 139, 3, 0.436254
316, 1, wb, attraction, a-b-db, 5, 2, 3, 19, 88, 161, 90, 165, 165, 90, 2, 0.488702
316, 1, wb, attraction, a-b-db, 5, 2, 3, 19, 88, 161, 90, 165, 165, 90, 3, 1.21184
316, 1, wb, attraction, a-b-da, 14, 2, 3, 20, 165, 90, 90, 165, 153, 83, 2, 0.456779
316, 1, wb, attraction, a-b-da, 14, 2, 3, 20, 165, 90, 90, 165, 153, 83, 1, 0.549211
316, 1, wb, attraction, a-b-db, 2, 3, 3, 21, 119, 193, 120, 195, 195, 120, 3, 0.388941
316, 1, wb, attraction, a-b-db, 2, 3, 3, 21, 119, 193, 120, 195, 195, 120, 2, 0.61212
316, 1, wb, attraction, a-b-da, 9, 2, 3, 22, 90, 165, 157, 86, 165, 90, 3, 0.473456
316, 1, wb, attraction, a-b-da, 9, 2, 3, 22, 90, 165, 157, 86, 165, 90, 2, 0.341125
316, 1, wb, filler, NA, 999, 999, 3, 23, 76, 60, 89, 117, 62, 64, 3, 0.38898
316, 1, wb, filler, NA, 999, 999, 3, 23, 76, 60, 89, 117, 62, 64, 2, 0.524139
316, 1, wb, attraction, a-b-db, 14, 3, 3, 24, 111, 181, 195, 120, 120, 195, 3, 0.460575
316, 1, wb, attraction, a-b-db, 14, 3, 3, 24, 111, 181, 195, 120, 120, 195, 2, 0.321078
316, 1, wb, attraction, a-b-da, 5, 2, 3, 25, 161, 88, 90, 165, 165, 90, 2, 0.522226
316, 1, wb, attraction, a-b-da, 5, 2, 3, 25, 161, 88, 90, 165, 165, 90, 3, 0.244016
316, 1, wb, attraction, a-b-da, 2, 2, 3, 26, 163, 89, 165, 90, 90, 165, 2, 0.367907
316, 1, wb, attraction, a-b-da, 2, 2, 3, 26, 163, 89, 165, 90, 90, 165, 3, 0.264418
316, 1, wb, attraction, a-b-da, 5, 3, 3, 27, 190, 117, 195, 120, 120, 195, 2, 0.355614
316, 1, wb, attraction, a-b-da, 5, 3, 3, 27, 190, 117, 195, 120, 120, 195, 3, 0.236169
316, 1, wb, filler, NA, 999, 999, 3, 28, 94, 188, 129, 155, 129, 64, 2, 0.448692
316, 1, wb, filler, NA, 999, 999, 3, 28, 94, 188, 129, 155, 129, 64, 3, 0.701877
316, 1, wb, attraction, a-b-db, 14, 1, 3, 29, 135, 60, 56, 125, 60, 135, 2, 0.463705
316, 1, wb, attraction, a-b-db, 14, 1, 3, 29, 135, 60, 56, 125, 60, 135, 3, 0.644089
316, 1, wb, attraction, a-b-db, 2, 2, 3, 30, 90, 165, 165, 90, 89, 163, 2, 0.375823
316, 1, wb, attraction, a-b-db, 2, 2, 3, 30, 90, 165, 165, 90, 89, 163, 3, 0.263673
316, 1, wb, filler, NA, 999, 999, 3, 31, 147, 67, 104, 109, 131, 105, 2, 0.474802
316, 1, wb, filler, NA, 999, 999, 3, 31, 147, 67, 104, 109, 131, 105, 3, 0.334801
316, 1, wb, attraction, a-b-da, 14, 3, 3, 32, 120, 195, 181, 111, 195, 120, 2, 0.423226
316, 1, wb, attraction, a-b-da, 14, 3, 3, 32, 120, 195, 181, 111, 195, 120, 3, 0.533061
316, 1, wb, attraction, a-b-db, 5, 3, 3, 33, 195, 120, 120, 195, 117, 190, 2, 0.421465
316, 1, wb, attraction, a-b-db, 5, 3, 3, 33, 195, 120, 120, 195, 117, 190, 3, 0.283284
316, 1, wb, attraction, a-b-db, 9, 1, 3, 34, 135, 60, 57, 129, 60, 135, 2, 0.253855
316, 1, wb, attraction, a-b-db, 9, 1, 3, 34, 135, 60, 57, 129, 60, 135, 3, 0.467023
316, 1, wb, attraction, a-b-db, 2, 1, 3, 35, 135, 60, 60, 135, 59, 134, 2, 0.414156
316, 1, wb, attraction, a-b-db, 2, 1, 3, 35, 135, 60, 60, 135, 59, 134, 3, 0.364657
316, 1, wb, attraction, a-b-da, 2, 3, 3, 36, 120, 195, 195, 120, 193, 119, 2, 0.371848
316, 1, wb, attraction, a-b-da, 2, 3, 3, 36, 120, 195, 195, 120, 193, 119, 3, 0.275755
316, 1, wb, catch, NA, 999, 999, 3, 37, 164, 151, 101, 94, 94, 161, 2, 0.39029
316, 1, wb, catch, NA, 999, 999, 3, 37, 164, 151, 101, 94, 94, 161, 3, 0.269446
316, 1, wb, filler, NA, 999, 999, 4, 1, 154, 120, 57, 136, 118, 107, 2, 0.368606
316, 1, wb, filler, NA, 999, 999, 4, 1, 154, 120, 57, 136, 118, 107, 1, 0.385292
316, 1, wb, attraction, a-b-db, 2, 2, 4, 2, 89, 163, 165, 90, 90, 165, 2, 0.535611
316, 1, wb, attraction, a-b-db, 2, 2, 4, 2, 89, 163, 165, 90, 90, 165, 3, 0.465497
316, 1, wb, attraction, a-b-db, 14, 3, 4, 3, 120, 195, 195, 120, 111, 181, 2, 0.324603
316, 1, wb, attraction, a-b-db, 14, 3, 4, 3, 120, 195, 195, 120, 111, 181, 1, 0.406418
316, 1, wb, filler, NA, 999, 999, 4, 4, 131, 167, 158, 155, 155, 161, 2, 0.48426
316, 1, wb, filler, NA, 999, 999, 4, 4, 131, 167, 158, 155, 155, 161, 3, 0.456184
316, 1, wb, attraction, a-b-da, 14, 1, 4, 5, 60, 135, 135, 60, 125, 56, 2, 0.627857
316, 1, wb, attraction, a-b-da, 14, 1, 4, 5, 60, 135, 135, 60, 125, 56, 3, 0.529692
316, 1, wb, attraction, a-b-da, 5, 3, 4, 6, 120, 195, 195, 120, 190, 117, 2, 0.554088
316, 1, wb, attraction, a-b-da, 5, 3, 4, 6, 120, 195, 195, 120, 190, 117, 3, 0.522563
316, 1, wb, attraction, a-b-db, 5, 3, 4, 7, 117, 190, 195, 120, 120, 195, 2, 0.379651
316, 1, wb, attraction, a-b-db, 5, 3, 4, 7, 117, 190, 195, 120, 120, 195, 3, 0.619511
316, 1, wb, filler, NA, 999, 999, 4, 8, 154, 180, 178, 155, 180, 164, 2, 0.480578
316, 1, wb, filler, NA, 999, 999, 4, 8, 154, 180, 178, 155, 180, 164, 1, 0.612435
316, 1, wb, catch, NA, 999, 999, 4, 9, 119, 76, 152, 103, 129, 186, 1, 0.953555
316, 1, wb, catch, NA, 999, 999, 4, 9, 119, 76, 152, 103, 129, 186, 3, 0.666462
316, 1, wb, attraction, a-b-db, 9, 2, 4, 10, 86, 157, 90, 165, 165, 90, 1, 0.917503
316, 1, wb, attraction, a-b-db, 9, 2, 4, 10, 86, 157, 90, 165, 165, 90, 3, 0.319904
316, 1, wb, attraction, a-b-db, 14, 1, 4, 11, 135, 60, 56, 125, 60, 135, 2, 0.617245
316, 1, wb, attraction, a-b-db, 14, 1, 4, 11, 135, 60, 56, 125, 60, 135, 1, 0.295587
316, 1, wb, attraction, a-b-da, 5, 1, 4, 12, 60, 135, 132, 58, 135, 60, 2, 0.561518
316, 1, wb, attraction, a-b-da, 5, 1, 4, 12, 60, 135, 132, 58, 135, 60, 3, 0.281915
316, 1, wb, attraction, a-b-db, 2, 1, 4, 13, 59, 134, 60, 135, 135, 60, 2, 0.476299
316, 1, wb, attraction, a-b-db, 2, 1, 4, 13, 59, 134, 60, 135, 135, 60, 3, 0.472149
316, 1, wb, catch, NA, 999, 999, 4, 14, 157, 98, 60, 135, 159, 156, 2, 0.63532
316, 1, wb, catch, NA, 999, 999, 4, 14, 157, 98, 60, 135, 159, 156, 1, 0.601114
316, 1, wb, catch, NA, 999, 999, 4, 15, 125, 70, 155, 160, 114, 141, 2, 0.47086
316, 1, wb, catch, NA, 999, 999, 4, 15, 125, 70, 155, 160, 114, 141, 3, 0.243391
316, 1, wb, attraction, a-b-da, 2, 3, 4, 16, 193, 119, 120, 195, 195, 120, 2, 0.367232
316, 1, wb, attraction, a-b-da, 2, 3, 4, 16, 193, 119, 120, 195, 195, 120, 3, 0.255757
316, 1, wb, attraction, a-b-da, 9, 1, 4, 17, 129, 57, 60, 135, 135, 60, 2, 0.435615
316, 1, wb, attraction, a-b-da, 9, 1, 4, 17, 129, 57, 60, 135, 135, 60, 3, 0.257439
316, 1, wb, filler, NA, 999, 999, 4, 18, 71, 58, 61, 179, 105, 65, 2, 0.404606
316, 1, wb, filler, NA, 999, 999, 4, 18, 71, 58, 61, 179, 105, 65, 1, 0.315811
316, 1, wb, attraction, a-b-db, 2, 3, 4, 19, 119, 193, 120, 195, 195, 120, 3, 0.302755
316, 1, wb, attraction, a-b-db, 2, 3, 4, 19, 119, 193, 120, 195, 195, 120, 2, 0.408296
316, 1, wb, filler, NA, 999, 999, 4, 20, 77, 153, 173, 183, 179, 163, 3, 0.429352
316, 1, wb, filler, NA, 999, 999, 4, 20, 77, 153, 173, 183, 179, 163, 2, 0.195268
316, 1, wb, filler, NA, 999, 999, 4, 21, 151, 148, 192, 81, 138, 90, 3, 0.425086
316, 1, wb, filler, NA, 999, 999, 4, 21, 151, 148, 192, 81, 138, 90, 2, 0.359023
316, 1, wb, attraction, a-b-db, 9, 3, 4, 22, 120, 195, 114, 186, 195, 120, 2, 0.566108
316, 1, wb, attraction, a-b-db, 9, 3, 4, 22, 120, 195, 114, 186, 195, 120, 3, 0.302578
316, 1, wb, attraction, a-b-da, 2, 1, 4, 23, 134, 59, 135, 60, 60, 135, 2, 0.352405
316, 1, wb, attraction, a-b-da, 2, 1, 4, 23, 134, 59, 135, 60, 60, 135, 3, 0.249708
316, 1, wb, attraction, a-b-da, 14, 2, 4, 24, 90, 165, 153, 83, 165, 90, 2, 0.62956
316, 1, wb, attraction, a-b-da, 14, 2, 4, 24, 90, 165, 153, 83, 165, 90, 3, 0.539322
316, 1, wb, attraction, a-b-da, 5, 2, 4, 25, 161, 88, 90, 165, 165, 90, 2, 0.363785
316, 1, wb, attraction, a-b-da, 5, 2, 4, 25, 161, 88, 90, 165, 165, 90, 1, 0.316389
316, 1, wb, attraction, a-b-da, 14, 3, 4, 26, 195, 120, 120, 195, 181, 111, 2, 0.325366
316, 1, wb, attraction, a-b-da, 14, 3, 4, 26, 195, 120, 120, 195, 181, 111, 3, 0.263311
316, 1, wb, attraction, a-b-da, 2, 2, 4, 27, 163, 89, 90, 165, 165, 90, 2, 0.410472
316, 1, wb, attraction, a-b-da, 2, 2, 4, 27, 163, 89, 90, 165, 165, 90, 1, 0.376959
316, 1, wb, filler, NA, 999, 999, 4, 28, 122, 92, 91, 125, 158, 77, 2, 0.383384
316, 1, wb, filler, NA, 999, 999, 4, 28, 122, 92, 91, 125, 158, 77, 1, 0.279262
316, 1, wb, filler, NA, 999, 999, 4, 29, 130, 92, 138, 98, 57, 129, 2, 0.273926
316, 1, wb, filler, NA, 999, 999, 4, 29, 130, 92, 138, 98, 57, 129, 3, 0.229693
316, 1, wb, attraction, a-b-da, 9, 3, 4, 30, 195, 120, 186, 114, 120, 195, 2, 0.402196
316, 1, wb, attraction, a-b-da, 9, 3, 4, 30, 195, 120, 186, 114, 120, 195, 3, 0.249376
316, 1, wb, filler, NA, 999, 999, 4, 31, 118, 149, 112, 134, 101, 77, 2, 0.605249
316, 1, wb, filler, NA, 999, 999, 4, 31, 118, 149, 112, 134, 101, 77, 1, 0.347765
316, 1, wb, attraction, a-b-db, 5, 2, 4, 32, 90, 165, 165, 90, 88, 161, 2, 0.45162
316, 1, wb, attraction, a-b-db, 5, 2, 4, 32, 90, 165, 165, 90, 88, 161, 3, 0.296775
316, 1, wb, attraction, a-b-db, 9, 1, 4, 33, 60, 135, 135, 60, 57, 129, 2, 0.418578
316, 1, wb, attraction, a-b-db, 9, 1, 4, 33, 60, 135, 135, 60, 57, 129, 1, 0.305172
316, 1, wb, attraction, a-b-db, 5, 1, 4, 34, 60, 135, 135, 60, 58, 132, 3, 0.8029
316, 1, wb, attraction, a-b-db, 5, 1, 4, 34, 60, 135, 135, 60, 58, 132, 2, 2.18609
316, 1, wb, attraction, a-b-db, 14, 2, 4, 35, 165, 90, 83, 153, 90, 165, 2, 0.448075
316, 1, wb, attraction, a-b-db, 14, 2, 4, 35, 165, 90, 83, 153, 90, 165, 1, 0.325109
316, 1, wb, filler, NA, 999, 999, 4, 36, 181, 126, 150, 139, 135, 164, 2, 0.381579
316, 1, wb, filler, NA, 999, 999, 4, 36, 181, 126, 150, 139, 135, 164, 3, 0.213487
316, 1, wb, attraction, a-b-da, 9, 2, 4, 37, 90, 165, 157, 86, 165, 90, 2, 0.370702
316, 1, wb, attraction, a-b-da, 9, 2, 4, 37, 90, 165, 157, 86, 165, 90, 3, 0.211355
316, 1, wb, attraction, a-b-db, 2, 1, 5, 1, 135, 60, 59, 134, 60, 135, 2, 1.511
316, 1, wb, attraction, a-b-db, 2, 1, 5, 1, 135, 60, 59, 134, 60, 135, 3, 0.337153
316, 1, wb, catch, NA, 999, 999, 5, 2, 100, 155, 126, 69, 144, 171, 2, 0.505677
316, 1, wb, catch, NA, 999, 999, 5, 2, 100, 155, 126, 69, 144, 171, 3, 0.204222
316, 1, wb, attraction, a-b-db, 5, 3, 5, 3, 195, 120, 117, 190, 120, 195, 2, 0.362071
316, 1, wb, attraction, a-b-db, 5, 3, 5, 3, 195, 120, 117, 190, 120, 195, 3, 0.162606
316, 1, wb, filler, NA, 999, 999, 5, 4, 138, 163, 132, 85, 139, 164, 2, 0.385809
316, 1, wb, filler, NA, 999, 999, 5, 4, 138, 163, 132, 85, 139, 164, 3, 0.26579
316, 1, wb, attraction, a-b-db, 14, 2, 5, 5, 90, 165, 165, 90, 83, 153, 2, 0.364852
316, 1, wb, attraction, a-b-db, 14, 2, 5, 5, 90, 165, 165, 90, 83, 153, 3, 0.173445
316, 1, wb, attraction, a-b-db, 14, 3, 5, 6, 195, 120, 111, 181, 120, 195, 2, 0.411902
316, 1, wb, attraction, a-b-db, 14, 3, 5, 6, 195, 120, 111, 181, 120, 195, 3, 0.202395
316, 1, wb, attraction, a-b-da, 5, 1, 5, 7, 60, 135, 135, 60, 132, 58, 3, 0.728414
316, 1, wb, attraction, a-b-da, 5, 1, 5, 7, 60, 135, 135, 60, 132, 58, 2, 0.578097
316, 1, wb, filler, NA, 999, 999, 5, 8, 136, 155, 74, 102, 143, 131, 3, 0.640377
316, 1, wb, filler, NA, 999, 999, 5, 8, 136, 155, 74, 102, 143, 131, 2, 0.67759
316, 1, wb, filler, NA, 999, 999, 5, 9, 147, 132, 149, 62, 157, 150, 2, 0.368037
316, 1, wb, filler, NA, 999, 999, 5, 9, 147, 132, 149, 62, 157, 150, 3, 0.208561
316, 1, wb, catch, NA, 999, 999, 5, 10, 162, 93, 194, 121, 97, 98, 2, 0.357777
316, 1, wb, catch, NA, 999, 999, 5, 10, 162, 93, 194, 121, 97, 98, 3, 0.230204
316, 1, wb, filler, NA, 999, 999, 5, 11, 178, 164, 139, 163, 141, 169, 2, 0.410764
316, 1, wb, filler, NA, 999, 999, 5, 11, 178, 164, 139, 163, 141, 169, 3, 0.193259
316, 1, wb, attraction, a-b-da, 5, 3, 5, 12, 120, 195, 195, 120, 190, 117, 2, 0.359246
316, 1, wb, attraction, a-b-da, 5, 3, 5, 12, 120, 195, 195, 120, 190, 117, 3, 0.231684
316, 1, wb, filler, NA, 999, 999, 5, 13, 94, 100, 146, 121, 145, 107, 2, 0.276319
316, 1, wb, filler, NA, 999, 999, 5, 13, 94, 100, 146, 121, 145, 107, 3, 0.464251
316, 1, wb, filler, NA, 999, 999, 5, 14, 61, 192, 144, 125, 113, 181, 2, 0.323242
316, 1, wb, filler, NA, 999, 999, 5, 14, 61, 192, 144, 125, 113, 181, 1, 0.549174
316, 1, wb, attraction, a-b-da, 5, 2, 5, 15, 161, 88, 90, 165, 165, 90, 2, 0.356934
316, 1, wb, attraction, a-b-da, 5, 2, 5, 15, 161, 88, 90, 165, 165, 90, 3, 0.26946
316, 1, wb, attraction, a-b-db, 9, 1, 5, 16, 135, 60, 60, 135, 57, 129, 2, 0.256683
316, 1, wb, attraction, a-b-db, 9, 1, 5, 16, 135, 60, 60, 135, 57, 129, 3, 0.749214
316, 1, wb, attraction, a-b-da, 9, 3, 5, 17, 120, 195, 195, 120, 186, 114, 2, 0.3729
316, 1, wb, attraction, a-b-da, 9, 3, 5, 17, 120, 195, 195, 120, 186, 114, 3, 0.268793
316, 1, wb, attraction, a-b-db, 14, 1, 5, 18, 60, 135, 135, 60, 56, 125, 2, 0.416033
316, 1, wb, attraction, a-b-db, 14, 1, 5, 18, 60, 135, 135, 60, 56, 125, 3, 0.342506
316, 1, wb, attraction, a-b-da, 14, 2, 5, 19, 153, 83, 90, 165, 165, 90, 2, 0.238298
316, 1, wb, attraction, a-b-da, 14, 2, 5, 19, 153, 83, 90, 165, 165, 90, 3, 0.427493
316, 1, wb, attraction, a-b-da, 14, 3, 5, 20, 195, 120, 181, 111, 120, 195, 2, 0.399978
316, 1, wb, attraction, a-b-da, 14, 3, 5, 20, 195, 120, 181, 111, 120, 195, 1, 0.271219
316, 1, wb, filler, NA, 999, 999, 5, 21, 185, 149, 143, 109, 62, 188, 2, 0.338358
316, 1, wb, filler, NA, 999, 999, 5, 21, 185, 149, 143, 109, 62, 188, 3, 0.307593
316, 1, wb, filler, NA, 999, 999, 5, 22, 110, 73, 165, 187, 76, 183, 2, 0.372714
316, 1, wb, filler, NA, 999, 999, 5, 22, 110, 73, 165, 187, 76, 183, 3, 0.308702
316, 1, wb, attraction, a-b-da, 9, 1, 5, 23, 129, 57, 135, 60, 60, 135, 2, 0.341851
316, 1, wb, attraction, a-b-da, 9, 1, 5, 23, 129, 57, 135, 60, 60, 135, 3, 0.27096
316, 1, wb, attraction, a-b-db, 5, 2, 5, 24, 165, 90, 88, 161, 90, 165, 2, 0.386174
316, 1, wb, attraction, a-b-db, 5, 2, 5, 24, 165, 90, 88, 161, 90, 165, 3, 0.265989
316, 1, wb, attraction, a-b-da, 14, 1, 5, 25, 60, 135, 125, 56, 135, 60, 2, 0.957178
316, 1, wb, attraction, a-b-da, 14, 1, 5, 25, 60, 135, 125, 56, 135, 60, 3, 0.261511
316, 1, wb, attraction, a-b-da, 9, 2, 5, 26, 90, 165, 165, 90, 157, 86, 2, 0.336769
316, 1, wb, attraction, a-b-da, 9, 2, 5, 26, 90, 165, 165, 90, 157, 86, 3, 0.250629
316, 1, wb, attraction, a-b-db, 2, 2, 5, 27, 90, 165, 89, 163, 165, 90, 2, 0.390455
316, 1, wb, attraction, a-b-db, 2, 2, 5, 27, 90, 165, 89, 163, 165, 90, 3, 0.461739
316, 1, wb, attraction, a-b-db, 2, 3, 5, 28, 120, 195, 195, 120, 119, 193, 2, 0.416766
316, 1, wb, attraction, a-b-db, 2, 3, 5, 28, 120, 195, 195, 120, 119, 193, 3, 0.247374
316, 1, wb, attraction, a-b-db, 9, 3, 5, 29, 120, 195, 114, 186, 195, 120, 2, 0.33908
316, 1, wb, attraction, a-b-db, 9, 3, 5, 29, 120, 195, 114, 186, 195, 120, 3, 0.500359
316, 1, wb, filler, NA, 999, 999, 5, 30, 102, 145, 163, 101, 68, 185, 2, 0.395293
316, 1, wb, filler, NA, 999, 999, 5, 30, 102, 145, 163, 101, 68, 185, 3, 0.381307
316, 1, wb, attraction, a-b-db, 9, 2, 5, 31, 165, 90, 86, 157, 90, 165, 2, 0.403741
316, 1, wb, attraction, a-b-db, 9, 2, 5, 31, 165, 90, 86, 157, 90, 165, 1, 0.499035
316, 1, wb, attraction, a-b-da, 2, 1, 5, 32, 134, 59, 135, 60, 60, 135, 2, 0.46072
316, 1, wb, attraction, a-b-da, 2, 1, 5, 32, 134, 59, 135, 60, 60, 135, 3, 0.249264
316, 1, wb, catch, NA, 999, 999, 5, 33, 91, 164, 101, 94, 159, 156, 2, 0.485131
316, 1, wb, catch, NA, 999, 999, 5, 33, 91, 164, 101, 94, 159, 156, 3, 0.256945
316, 1, wb, filler, NA, 999, 999, 5, 34, 149, 139, 76, 174, 193, 139, 2, 0.420252
316, 1, wb, filler, NA, 999, 999, 5, 34, 149, 139, 76, 174, 193, 139, 3, 0.202639
316, 1, wb, attraction, a-b-db, 5, 1, 5, 35, 60, 135, 135, 60, 58, 132, 2, 0.464532
316, 1, wb, attraction, a-b-db, 5, 1, 5, 35, 60, 135, 135, 60, 58, 132, 3, 0.347094
316, 1, wb, attraction, a-b-da, 2, 3, 5, 36, 120, 195, 193, 119, 195, 120, 2, 0.540836
316, 1, wb, attraction, a-b-da, 2, 3, 5, 36, 120, 195, 193, 119, 195, 120, 3, 0.813981
316, 1, wb, attraction, a-b-da, 2, 2, 5, 37, 165, 90, 163, 89, 90, 165, 3, 1.2113
316, 1, wb, attraction, a-b-da, 2, 2, 5, 37, 165, 90, 163, 89, 90, 165, 2, 0.465288
316, 1, wb, filler, NA, 999, 999, 6, 1, 181, 195, 148, 65, 183, 150, 3, 0.388503
316, 1, wb, filler, NA, 999, 999, 6, 1, 181, 195, 148, 65, 183, 150, 2, 0.331623
316, 1, wb, filler, NA, 999, 999, 6, 2, 169, 166, 74, 93, 58, 161, 3, 0.492262
316, 1, wb, filler, NA, 999, 999, 6, 2, 169, 166, 74, 93, 58, 161, 2, 0.351322
316, 1, wb, attraction, a-b-db, 5, 1, 6, 3, 60, 135, 135, 60, 58, 132, 2, 0.663125
316, 1, wb, attraction, a-b-db, 5, 1, 6, 3, 60, 135, 135, 60, 58, 132, 3, 0.275536
316, 1, wb, filler, NA, 999, 999, 6, 4, 95, 185, 135, 114, 90, 126, 2, 0.357977
316, 1, wb, filler, NA, 999, 999, 6, 4, 95, 185, 135, 114, 90, 126, 3, 0.390524
316, 1, wb, attraction, a-b-db, 2, 1, 6, 5, 59, 134, 60, 135, 135, 60, 2, 0.388334
316, 1, wb, attraction, a-b-db, 2, 1, 6, 5, 59, 134, 60, 135, 135, 60, 3, 0.395542
316, 1, wb, attraction, a-b-db, 2, 3, 6, 6, 119, 193, 120, 195, 195, 120, 2, 0.809329
316, 1, wb, attraction, a-b-db, 2, 3, 6, 6, 119, 193, 120, 195, 195, 120, 3, 0.42372
316, 1, wb, filler, NA, 999, 999, 6, 7, 164, 183, 171, 70, 183, 161, 2, 0.740317
316, 1, wb, filler, NA, 999, 999, 6, 7, 164, 183, 171, 70, 183, 161, 3, 0.301377
316, 1, wb, attraction, a-b-db, 14, 2, 6, 8, 83, 153, 90, 165, 165, 90, 2, 0.279162
316, 1, wb, attraction, a-b-db, 14, 2, 6, 8, 83, 153, 90, 165, 165, 90, 3, 0.403125
316, 1, wb, attraction, a-b-da, 14, 2, 6, 9, 165, 90, 90, 165, 153, 83, 2, 0.272889
316, 1, wb, attraction, a-b-da, 14, 2, 6, 9, 165, 90, 90, 165, 153, 83, 3, 1.05281
316, 1, wb, attraction, a-b-da, 5, 2, 6, 10, 165, 90, 90, 165, 161, 88, 2, 0.368289
316, 1, wb, attraction, a-b-da, 5, 2, 6, 10, 165, 90, 90, 165, 161, 88, 3, 0.441045
316, 1, wb, attraction, a-b-db, 9, 2, 6, 11, 165, 90, 90, 165, 86, 157, 2, 0.412711
316, 1, wb, attraction, a-b-db, 9, 2, 6, 11, 165, 90, 90, 165, 86, 157, 3, 0.875235
316, 1, wb, filler, NA, 999, 999, 6, 12, 146, 166, 109, 172, 99, 126, 2, 0.589594
316, 1, wb, filler, NA, 999, 999, 6, 12, 146, 166, 109, 172, 99, 126, 3, 0.396698
316, 1, wb, filler, NA, 999, 999, 6, 13, 142, 144, 60, 166, 165, 83, 2, 0.650439
316, 1, wb, filler, NA, 999, 999, 6, 13, 142, 144, 60, 166, 165, 83, 3, 0.263547
316, 1, wb, filler, NA, 999, 999, 6, 14, 130, 185, 57, 118, 94, 184, 2, 0.330719
316, 1, wb, filler, NA, 999, 999, 6, 14, 130, 185, 57, 118, 94, 184, 3, 0.356592
316, 1, wb, filler, NA, 999, 999, 6, 15, 125, 105, 139, 143, 168, 83, 2, 0.419863
316, 1, wb, filler, NA, 999, 999, 6, 15, 125, 105, 139, 143, 168, 83, 3, 0.538407
316, 1, wb, attraction, a-b-db, 5, 3, 6, 16, 117, 190, 120, 195, 195, 120, 2, 0.4108
316, 1, wb, attraction, a-b-db, 5, 3, 6, 16, 117, 190, 120, 195, 195, 120, 1, 0.353228
316, 1, wb, catch, NA, 999, 999, 6, 17, 141, 174, 127, 128, 95, 100, 2, 0.465073
316, 1, wb, catch, NA, 999, 999, 6, 17, 141, 174, 127, 128, 95, 100, 3, 0.317551
316, 1, wb, catch, NA, 999, 999, 6, 18, 134, 121, 168, 147, 101, 94, 2, 0.35087
316, 1, wb, catch, NA, 999, 999, 6, 18, 134, 121, 168, 147, 101, 94, 3, 0.600032
316, 1, wb, filler, NA, 999, 999, 6, 19, 115, 144, 128, 114, 138, 68, 2, 0.261725
316, 1, wb, filler, NA, 999, 999, 6, 19, 115, 144, 128, 114, 138, 68, 3, 0.346256
316, 1, wb, filler, NA, 999, 999, 6, 20, 194, 104, 152, 93, 119, 185, 2, 1.02607
316, 1, wb, filler, NA, 999, 999, 6, 20, 194, 104, 152, 93, 119, 185, 3, 0.983813
316, 1, wb, attraction, a-b-da, 9, 2, 6, 21, 157, 86, 90, 165, 165, 90, 2, 1.31816
316, 1, wb, attraction, a-b-da, 9, 2, 6, 21, 157, 86, 90, 165, 165, 90, 3, 1.9524
316, 1, wb, attraction, a-b-da, 2, 3, 6, 22, 120, 195, 195, 120, 193, 119, 2, 0.39984
316, 1, wb, attraction, a-b-da, 2, 3, 6, 22, 120, 195, 195, 120, 193, 119, 3, 0.262883
316, 1, wb, attraction, a-b-da, 2, 1, 6, 23, 135, 60, 60, 135, 134, 59, 2, 0.330073
316, 1, wb, attraction, a-b-da, 2, 1, 6, 23, 135, 60, 60, 135, 134, 59, 3, 0.315872
316, 1, wb, attraction, a-b-da, 5, 3, 6, 24, 195, 120, 190, 117, 120, 195, 2, 0.973127
316, 1, wb, attraction, a-b-da, 5, 3, 6, 24, 195, 120, 190, 117, 120, 195, 3, 0.324731
316, 1, wb, attraction, a-b-da, 9, 1, 6, 25, 129, 57, 135, 60, 60, 135, 2, 0.709367
316, 1, wb, attraction, a-b-da, 9, 1, 6, 25, 129, 57, 135, 60, 60, 135, 3, 0.343678
316, 1, wb, attraction, a-b-db, 14, 3, 6, 26, 120, 195, 195, 120, 111, 181, 2, 1.55948
316, 1, wb, attraction, a-b-db, 14, 3, 6, 26, 120, 195, 195, 120, 111, 181, 3, 0.223736
316, 1, wb, catch, NA, 999, 999, 6, 27, 83, 112, 137, 178, 97, 158, 2, 3.68418
316, 1, wb, catch, NA, 999, 999, 6, 27, 83, 112, 137, 178, 97, 158, 3, 0.262976
316, 1, wb, attraction, a-b-db, 5, 2, 6, 28, 90, 165, 88, 161, 165, 90, 2, 0.570134
316, 1, wb, attraction, a-b-db, 5, 2, 6, 28, 90, 165, 88, 161, 165, 90, 3, 0.394663
316, 1, wb, attraction, a-b-da, 2, 2, 6, 29, 90, 165, 163, 89, 165, 90, 2, 0.432469
316, 1, wb, attraction, a-b-da, 2, 2, 6, 29, 90, 165, 163, 89, 165, 90, 3, 0.446313
316, 1, wb, attraction, a-b-db, 9, 1, 6, 30, 57, 129, 60, 135, 135, 60, 2, 0.378096
316, 1, wb, attraction, a-b-db, 9, 1, 6, 30, 57, 129, 60, 135, 135, 60, 3, 0.97798
316, 1, wb, attraction, a-b-db, 2, 2, 6, 31, 89, 163, 165, 90, 90, 165, 2, 0.296341
316, 1, wb, attraction, a-b-db, 2, 2, 6, 31, 89, 163, 165, 90, 90, 165, 3, 0.243452
316, 1, wb, attraction, a-b-da, 14, 3, 6, 32, 181, 111, 120, 195, 195, 120, 2, 0.383529
316, 1, wb, attraction, a-b-da, 14, 3, 6, 32, 181, 111, 120, 195, 195, 120, 3, 0.239234
316, 1, wb, attraction, a-b-db, 14, 1, 6, 33, 135, 60, 60, 135, 56, 125, 2, 0.411692
316, 1, wb, attraction, a-b-db, 14, 1, 6, 33, 135, 60, 60, 135, 56, 125, 3, 0.538242
316, 1, wb, attraction, a-b-da, 9, 3, 6, 34, 195, 120, 120, 195, 186, 114, 2, 0.394599
316, 1, wb, attraction, a-b-da, 9, 3, 6, 34, 195, 120, 120, 195, 186, 114, 3, 0.281859
316, 1, wb, attraction, a-b-db, 9, 3, 6, 35, 120, 195, 195, 120, 114, 186, 2, 0.460437
316, 1, wb, attraction, a-b-db, 9, 3, 6, 35, 120, 195, 195, 120, 114, 186, 3, 0.296964
316, 1, wb, attraction, a-b-da, 14, 1, 6, 36, 60, 135, 135, 60, 125, 56, 2, 0.36281
316, 1, wb, attraction, a-b-da, 14, 1, 6, 36, 60, 135, 135, 60, 125, 56, 1, 0.331214
316, 1, wb, attraction, a-b-da, 5, 1, 6, 37, 135, 60, 60, 135, 132, 58, 2, 0.419757
316, 1, wb, attraction, a-b-da, 5, 1, 6, 37, 135, 60, 60, 135, 132, 58, 1, 0.402272
316, 1, wb, attraction, a-b-da, 2, 2, 7, 1, 90, 165, 165, 90, 163, 89, 2, 0.448107
316, 1, wb, attraction, a-b-da, 2, 2, 7, 1, 90, 165, 165, 90, 163, 89, 3, 0.245283
316, 1, wb, filler, NA, 999, 999, 7, 2, 145, 163, 193, 168, 190, 148, 2, 0.345058
316, 1, wb, filler, NA, 999, 999, 7, 2, 145, 163, 193, 168, 190, 148, 3, 0.242262
316, 1, wb, filler, NA, 999, 999, 7, 3, 106, 175, 153, 124, 141, 145, 2, 0.406145
316, 1, wb, filler, NA, 999, 999, 7, 3, 106, 175, 153, 124, 141, 145, 3, 0.252666
316, 1, wb, filler, NA, 999, 999, 7, 4, 110, 168, 71, 161, 155, 58, 2, 0.416555
316, 1, wb, filler, NA, 999, 999, 7, 4, 110, 168, 71, 161, 155, 58, 3, 1.05506
316, 1, wb, attraction, a-b-da, 14, 1, 7, 5, 125, 56, 135, 60, 60, 135, 2, 0.522648
316, 1, wb, attraction, a-b-da, 14, 1, 7, 5, 125, 56, 135, 60, 60, 135, 3, 0.340499
316, 1, wb, filler, NA, 999, 999, 7, 6, 92, 113, 156, 158, 186, 67, 2, 0.348333
316, 1, wb, filler, NA, 999, 999, 7, 6, 92, 113, 156, 158, 186, 67, 3, 0.26161
316, 1, wb, catch, NA, 999, 999, 7, 7, 123, 72, 109, 146, 131, 184, 2, 0.368674
316, 1, wb, catch, NA, 999, 999, 7, 7, 123, 72, 109, 146, 131, 184, 3, 0.241206
316, 1, wb, attraction, a-b-db, 14, 3, 7, 8, 111, 181, 120, 195, 195, 120, 2, 0.333204
316, 1, wb, attraction, a-b-db, 14, 3, 7, 8, 111, 181, 120, 195, 195, 120, 3, 0.423031
316, 1, wb, attraction, a-b-da, 2, 1, 7, 9, 135, 60, 134, 59, 60, 135, 2, 0.252128
316, 1, wb, attraction, a-b-da, 2, 1, 7, 9, 135, 60, 134, 59, 60, 135, 3, 0.385442
316, 1, wb, catch, NA, 999, 999, 7, 10, 162, 93, 99, 96, 148, 167, 2, 0.375829
316, 1, wb, catch, NA, 999, 999, 7, 10, 162, 93, 99, 96, 148, 167, 3, 0.279739
316, 1, wb, attraction, a-b-da, 2, 3, 7, 11, 193, 119, 195, 120, 120, 195, 2, 0.194249
316, 1, wb, attraction, a-b-da, 2, 3, 7, 11, 193, 119, 195, 120, 120, 195, 3, 0.337503
316, 1, wb, attraction, a-b-db, 2, 1, 7, 12, 59, 134, 60, 135, 135, 60, 2, 0.249956
316, 1, wb, attraction, a-b-db, 2, 1, 7, 12, 59, 134, 60, 135, 135, 60, 3, 0.367176
316, 1, wb, attraction, a-b-db, 2, 3, 7, 13, 120, 195, 119, 193, 195, 120, 2, 0.366333
316, 1, wb, attraction, a-b-db, 2, 3, 7, 13, 120, 195, 119, 193, 195, 120, 3, 0.41486
316, 1, wb, attraction, a-b-da, 9, 1, 7, 14, 129, 57, 135, 60, 60, 135, 2, 0.435951
316, 1, wb, attraction, a-b-da, 9, 1, 7, 14, 129, 57, 135, 60, 60, 135, 3, 0.345824
316, 1, wb, attraction, a-b-db, 14, 2, 7, 15, 90, 165, 83, 153, 165, 90, 2, 0.401814
316, 1, wb, attraction, a-b-db, 14, 2, 7, 15, 90, 165, 83, 153, 165, 90, 3, 0.392956
316, 1, wb, attraction, a-b-da, 5, 1, 7, 16, 135, 60, 60, 135, 132, 58, 2, 0.742745
316, 1, wb, attraction, a-b-da, 5, 1, 7, 16, 135, 60, 60, 135, 132, 58, 3, 0.94384
316, 1, wb, attraction, a-b-db, 9, 1, 7, 17, 57, 129, 135, 60, 60, 135, 2, 0.375439
316, 1, wb, attraction, a-b-db, 9, 1, 7, 17, 57, 129, 135, 60, 60, 135, 3, 0.27925
316, 1, wb, filler, NA, 999, 999, 7, 18, 191, 99, 156, 159, 141, 92, 2, 0.393844
316, 1, wb, filler, NA, 999, 999, 7, 18, 191, 99, 156, 159, 141, 92, 3, 0.26505
316, 1, wb, attraction, a-b-da, 14, 2, 7, 19, 165, 90, 90, 165, 153, 83, 2, 0.380262
316, 1, wb, attraction, a-b-da, 14, 2, 7, 19, 165, 90, 90, 165, 153, 83, 3, 0.300086
316, 1, wb, filler, NA, 999, 999, 7, 20, 113, 89, 145, 56, 162, 74, 2, 0.309836
316, 1, wb, filler, NA, 999, 999, 7, 20, 113, 89, 145, 56, 162, 74, 3, 0.248482
316, 1, wb, attraction, a-b-da, 5, 2, 7, 21, 90, 165, 161, 88, 165, 90, 2, 0.332235
316, 1, wb, attraction, a-b-da, 5, 2, 7, 21, 90, 165, 161, 88, 165, 90, 3, 0.254232
316, 1, wb, attraction, a-b-da, 14, 3, 7, 22, 195, 120, 120, 195, 181, 111, 2, 0.369952
316, 1, wb, attraction, a-b-da, 14, 3, 7, 22, 195, 120, 120, 195, 181, 111, 3, 0.242506
316, 1, wb, attraction, a-b-db, 14, 1, 7, 23, 60, 135, 135, 60, 56, 125, 2, 0.262364
316, 1, wb, attraction, a-b-db, 14, 1, 7, 23, 60, 135, 135, 60, 56, 125, 3, 0.258999
316, 1, wb, catch, NA, 999, 999, 7, 24, 124, 191, 84, 111, 140, 115, 2, 0.366186
316, 1, wb, catch, NA, 999, 999, 7, 24, 124, 191, 84, 111, 140, 115, 3, 0.214719
316, 1, wb, attraction, a-b-db, 2, 2, 7, 25, 90, 165, 89, 163, 165, 90, 2, 0.347906
316, 1, wb, attraction, a-b-db, 2, 2, 7, 25, 90, 165, 89, 163, 165, 90, 3, 0.293095
316, 1, wb, filler, NA, 999, 999, 7, 26, 159, 195, 90, 184, 116, 191, 2, 0.398941
316, 1, wb, filler, NA, 999, 999, 7, 26, 159, 195, 90, 184, 116, 191, 1, 0.222111
316, 1, wb, filler, NA, 999, 999, 7, 27, 121, 84, 87, 59, 85, 137, 2, 0.859348
316, 1, wb, filler, NA, 999, 999, 7, 27, 121, 84, 87, 59, 85, 137, 3, 0.183631
316, 1, wb, attraction, a-b-db, 5, 1, 7, 28, 58, 132, 60, 135, 135, 60, 2, 1.05435
316, 1, wb, attraction, a-b-db, 5, 1, 7, 28, 58, 132, 60, 135, 135, 60, 3, 0.475215
316, 1, wb, filler, NA, 999, 999, 7, 29, 91, 137, 143, 113, 195, 165, 2, 0.333689
316, 1, wb, filler, NA, 999, 999, 7, 29, 91, 137, 143, 113, 195, 165, 3, 0.231577
316, 1, wb, filler, NA, 999, 999, 7, 30, 82, 144, 126, 141, 86, 136, 2, 0.268084
316, 1, wb, filler, NA, 999, 999, 7, 30, 82, 144, 126, 141, 86, 136, 3, 0.304692
316, 1, wb, attraction, a-b-db, 5, 2, 7, 31, 90, 165, 165, 90, 88, 161, 2, 0.354448
316, 1, wb, attraction, a-b-db, 5, 2, 7, 31, 90, 165, 165, 90, 88, 161, 3, 0.443131
316, 1, wb, attraction, a-b-da, 9, 2, 7, 32, 90, 165, 165, 90, 157, 86, 2, 0.254807
316, 1, wb, attraction, a-b-da, 9, 2, 7, 32, 90, 165, 165, 90, 157, 86, 3, 0.25136
316, 1, wb, attraction, a-b-db, 5, 3, 7, 33, 195, 120, 117, 190, 120, 195, 2, 0.191282
316, 1, wb, attraction, a-b-db, 5, 3, 7, 33, 195, 120, 117, 190, 120, 195, 3, 0.262557
316, 1, wb, attraction, a-b-da, 9, 3, 7, 34, 120, 195, 195, 120, 186, 114, 2, 0.369751
316, 1, wb, attraction, a-b-da, 9, 3, 7, 34, 120, 195, 195, 120, 186, 114, 3, 0.258206
316, 1, wb, attraction, a-b-db, 9, 3, 7, 35, 195, 120, 114, 186, 120, 195, 2, 0.237432
316, 1, wb, attraction, a-b-db, 9, 3, 7, 35, 195, 120, 114, 186, 120, 195, 3, 0.218783
316, 1, wb, attraction, a-b-db, 9, 2, 7, 36, 90, 165, 86, 157, 165, 90, 2, 0.375917
316, 1, wb, attraction, a-b-db, 9, 2, 7, 36, 90, 165, 86, 157, 165, 90, 3, 0.487697
316, 1, wb, attraction, a-b-da, 5, 3, 7, 37, 190, 117, 195, 120, 120, 195, 2, 0.250142
316, 1, wb, attraction, a-b-da, 5, 3, 7, 37, 190, 117, 195, 120, 120, 195, 3, 0.271433
316, 1, wb, attraction, a-b-db, 2, 1, 8, 1, 135, 60, 60, 135, 59, 134, 2, 0.21062
316, 1, wb, attraction, a-b-db, 2, 1, 8, 1, 135, 60, 60, 135, 59, 134, 3, 0.257156
316, 1, wb, filler, NA, 999, 999, 8, 2, 104, 56, 106, 161, 63, 96, 2, 0.372352
316, 1, wb, filler, NA, 999, 999, 8, 2, 104, 56, 106, 161, 63, 96, 1, 0.548197
316, 1, wb, attraction, a-b-db, 9, 1, 8, 3, 60, 135, 135, 60, 57, 129, 3, 0.643958
316, 1, wb, attraction, a-b-db, 9, 1, 8, 3, 60, 135, 135, 60, 57, 129, 2, 0.545186
316, 1, wb, filler, NA, 999, 999, 8, 4, 89, 193, 121, 104, 153, 143, 2, 0.744799
316, 1, wb, filler, NA, 999, 999, 8, 4, 89, 193, 121, 104, 153, 143, 3, 0.241923
316, 1, wb, attraction, a-b-da, 9, 1, 8, 5, 135, 60, 129, 57, 60, 135, 2, 0.397716
316, 1, wb, attraction, a-b-da, 9, 1, 8, 5, 135, 60, 129, 57, 60, 135, 3, 0.252971
316, 1, wb, attraction, a-b-db, 14, 1, 8, 6, 56, 125, 135, 60, 60, 135, 2, 0.336846
316, 1, wb, attraction, a-b-db, 14, 1, 8, 6, 56, 125, 135, 60, 60, 135, 3, 0.250807
316, 1, wb, filler, NA, 999, 999, 8, 7, 97, 190, 77, 96, 110, 165, 2, 0.398618
316, 1, wb, filler, NA, 999, 999, 8, 7, 97, 190, 77, 96, 110, 165, 3, 0.173715
316, 1, wb, catch, NA, 999, 999, 8, 8, 86, 109, 152, 103, 153, 162, 2, 0.404291
316, 1, wb, catch, NA, 999, 999, 8, 8, 86, 109, 152, 103, 153, 162, 3, 0.267532
316, 1, wb, filler, NA, 999, 999, 8, 9, 179, 87, 94, 146, 132, 140, 2, 0.446664
316, 1, wb, filler, NA, 999, 999, 8, 9, 179, 87, 94, 146, 132, 140, 3, 0.291857
316, 1, wb, filler, NA, 999, 999, 8, 10, 190, 159, 103, 110, 177, 122, 2, 0.357678
316, 1, wb, filler, NA, 999, 999, 8, 10, 190, 159, 103, 110, 177, 122, 3, 0.198272
316, 1, wb, attraction, a-b-da, 9, 3, 8, 11, 186, 114, 195, 120, 120, 195, 2, 0.364175
316, 1, wb, attraction, a-b-da, 9, 3, 8, 11, 186, 114, 195, 120, 120, 195, 3, 0.156717
316, 1, wb, attraction, a-b-da, 14, 1, 8, 12, 135, 60, 60, 135, 125, 56, 2, 0.251933
316, 1, wb, attraction, a-b-da, 14, 1, 8, 12, 135, 60, 60, 135, 125, 56, 3, 0.51323
316, 1, wb, attraction, a-b-da, 5, 3, 8, 13, 195, 120, 190, 117, 120, 195, 3, 0.698192
316, 1, wb, attraction, a-b-da, 5, 3, 8, 13, 195, 120, 190, 117, 120, 195, 2, 0.181278
316, 1, wb, attraction, a-b-da, 5, 1, 8, 14, 132, 58, 135, 60, 60, 135, 3, 0.611917
316, 1, wb, attraction, a-b-da, 5, 1, 8, 14, 132, 58, 135, 60, 60, 135, 2, 0.290311
316, 1, wb, attraction, a-b-db, 14, 3, 8, 15, 111, 181, 195, 120, 120, 195, 2, 0.340132
316, 1, wb, attraction, a-b-db, 14, 3, 8, 15, 111, 181, 195, 120, 120, 195, 3, 0.173467
316, 1, wb, attraction, a-b-da, 2, 3, 8, 16, 195, 120, 120, 195, 193, 119, 2, 0.467942
316, 1, wb, attraction, a-b-da, 2, 3, 8, 16, 195, 120, 120, 195, 193, 119, 3, 0.216475
316, 1, wb, attraction, a-b-db, 5, 1, 8, 17, 60, 135, 58, 132, 135, 60, 2, 0.613562
316, 1, wb, attraction, a-b-db, 5, 1, 8, 17, 60, 135, 58, 132, 135, 60, 3, 0.500023
316, 1, wb, attraction, a-b-da, 14, 3, 8, 18, 195, 120, 120, 195, 181, 111, 2, 0.36586
316, 1, wb, attraction, a-b-da, 14, 3, 8, 18, 195, 120, 120, 195, 181, 111, 3, 0.222316
316, 1, wb, attraction, a-b-da, 14, 2, 8, 19, 90, 165, 153, 83, 165, 90, 2, 0.347545
316, 1, wb, attraction, a-b-da, 14, 2, 8, 19, 90, 165, 153, 83, 165, 90, 3, 0.212775
316, 1, wb, catch, NA, 999, 999, 8, 20, 103, 92, 135, 120, 181, 134, 2, 0.545954
316, 1, wb, catch, NA, 999, 999, 8, 20, 103, 92, 135, 120, 181, 134, 3, 0.203105
316, 1, wb, filler, NA, 999, 999, 8, 21, 176, 194, 90, 173, 140, 136, 2, 0.312994
316, 1, wb, filler, NA, 999, 999, 8, 21, 176, 194, 90, 173, 140, 136, 3, 0.395653
316, 1, wb, filler, NA, 999, 999, 8, 22, 132, 74, 183, 147, 181, 99, 2, 0.201274
316, 1, wb, filler, NA, 999, 999, 8, 22, 132, 74, 183, 147, 181, 99, 3, 0.352596
316, 1, wb, attraction, a-b-da, 2, 2, 8, 23, 165, 90, 163, 89, 90, 165, 2, 0.216328
316, 1, wb, attraction, a-b-da, 2, 2, 8, 23, 165, 90, 163, 89, 90, 165, 3, 0.278982
316, 1, wb, attraction, a-b-da, 2, 1, 8, 24, 134, 59, 135, 60, 60, 135, 2, 0.293178
316, 1, wb, attraction, a-b-da, 2, 1, 8, 24, 134, 59, 135, 60, 60, 135, 3, 0.27672
316, 1, wb, attraction, a-b-db, 2, 2, 8, 25, 89, 163, 165, 90, 90, 165, 2, 0.223346
316, 1, wb, attraction, a-b-db, 2, 2, 8, 25, 89, 163, 165, 90, 90, 165, 3, 0.269144
316, 1, wb, attraction, a-b-db, 14, 2, 8, 26, 165, 90, 83, 153, 90, 165, 2, 0.24028
316, 1, wb, attraction, a-b-db, 14, 2, 8, 26, 165, 90, 83, 153, 90, 165, 3, 0.341535
316, 1, wb, catch, NA, 999, 999, 8, 27, 106, 149, 175, 140, 92, 103, 2, 0.709409
316, 1, wb, catch, NA, 999, 999, 8, 27, 106, 149, 175, 140, 92, 103, 3, 0.471798
316, 1, wb, attraction, a-b-da, 5, 2, 8, 28, 165, 90, 161, 88, 90, 165, 2, 0.298923
316, 1, wb, attraction, a-b-da, 5, 2, 8, 28, 165, 90, 161, 88, 90, 165, 3, 0.294132
316, 1, wb, filler, NA, 999, 999, 8, 29, 175, 124, 113, 195, 117, 150, 2, 0.298199
316, 1, wb, filler, NA, 999, 999, 8, 29, 175, 124, 113, 195, 117, 150, 3, 0.347367
316, 1, wb, filler, NA, 999, 999, 8, 30, 161, 120, 156, 192, 74, 168, 2, 0.243062
316, 1, wb, filler, NA, 999, 999, 8, 30, 161, 120, 156, 192, 74, 168, 3, 0.232333
316, 1, wb, attraction, a-b-db, 9, 2, 8, 31, 165, 90, 86, 157, 90, 165, 2, 0.439264
316, 1, wb, attraction, a-b-db, 9, 2, 8, 31, 165, 90, 86, 157, 90, 165, 3, 0.34599
316, 1, wb, filler, NA, 999, 999, 8, 32, 106, 117, 150, 147, 183, 147, 2, 0.273918
316, 1, wb, filler, NA, 999, 999, 8, 32, 106, 117, 150, 147, 183, 147, 3, 0.229687
316, 1, wb, attraction, a-b-db, 5, 2, 8, 33, 88, 161, 90, 165, 165, 90, 2, 0.474212
316, 1, wb, attraction, a-b-db, 5, 2, 8, 33, 88, 161, 90, 165, 165, 90, 3, 0.214096
316, 1, wb, attraction, a-b-db, 9, 3, 8, 34, 114, 186, 195, 120, 120, 195, 2, 0.275242
316, 1, wb, attraction, a-b-db, 9, 3, 8, 34, 114, 186, 195, 120, 120, 195, 3, 0.255148
316, 1, wb, attraction, a-b-db, 2, 3, 8, 35, 120, 195, 119, 193, 195, 120, 2, 0.362985
316, 1, wb, attraction, a-b-db, 2, 3, 8, 35, 120, 195, 119, 193, 195, 120, 3, 0.243467
316, 1, wb, attraction, a-b-db, 5, 3, 8, 36, 120, 195, 117, 190, 195, 120, 2, 0.319366
316, 1, wb, attraction, a-b-db, 5, 3, 8, 36, 120, 195, 117, 190, 195, 120, 3, 0.521917
316, 1, wb, attraction, a-b-da, 9, 2, 8, 37, 90, 165, 165, 90, 157, 86, 2, 0.411054
316, 1, wb, attraction, a-b-da, 9, 2, 8, 37, 90, 165, 165, 90, 157, 86, 3, 0.305605
