sub_n, computer_n, bw_cond, effect, set, distance, diag, block_n, trial_n, h1, w1, h2, w2, h3, w3, choice, rt 
340, 1, wb, practice, NA, 999, 999, 0, 1, 193, 162, 128, 137, 75, 121, 3, 2.218
340, 1, wb, practice, NA, 999, 999, 0, 1, 193, 162, 128, 137, 75, 121, 1, 4.38655
340, 1, wb, practice, NA, 999, 999, 0, 2, 65, 179, 121, 86, 167, 77, 2, 2.56196
340, 1, wb, practice, NA, 999, 999, 0, 2, 65, 179, 121, 86, 167, 77, 1, 2.52391
340, 1, wb, practice, NA, 999, 999, 0, 3, 134, 61, 92, 142, 153, 73, 1, 2.1818
340, 1, wb, practice, NA, 999, 999, 0, 3, 134, 61, 92, 142, 153, 73, 2, 1.14183
340, 1, wb, catch, NA, 999, 999, 1, 1, 89, 106, 141, 174, 148, 107, 1, 1.37825
340, 1, wb, catch, NA, 999, 999, 1, 1, 89, 106, 141, 174, 148, 107, 2, 0.873912
340, 1, wb, attraction, a-b-da, 2, 3, 1, 2, 120, 195, 193, 119, 195, 120, 3, 1.46017
340, 1, wb, attraction, a-b-da, 2, 3, 1, 2, 120, 195, 193, 119, 195, 120, 1, 0.400387
340, 1, wb, attraction, a-b-db, 14, 2, 1, 3, 83, 153, 90, 165, 165, 90, 1, 1.51019
340, 1, wb, attraction, a-b-db, 14, 2, 1, 3, 83, 153, 90, 165, 165, 90, 2, 1.27231
340, 1, wb, attraction, a-b-db, 5, 1, 1, 4, 58, 132, 135, 60, 60, 135, 1, 0.867171
340, 1, wb, attraction, a-b-db, 5, 1, 1, 4, 58, 132, 135, 60, 60, 135, 2, 0.431541
340, 1, wb, attraction, a-b-db, 14, 3, 1, 5, 120, 195, 195, 120, 111, 181, 3, 1.98806
340, 1, wb, attraction, a-b-db, 14, 3, 1, 5, 120, 195, 195, 120, 111, 181, 1, 3.33077
340, 1, wb, attraction, a-b-db, 2, 1, 1, 6, 135, 60, 59, 134, 60, 135, 1, 1.52238
340, 1, wb, attraction, a-b-db, 2, 1, 1, 6, 135, 60, 59, 134, 60, 135, 3, 0.907757
340, 1, wb, attraction, a-b-da, 5, 1, 1, 7, 60, 135, 135, 60, 132, 58, 1, 1.02892
340, 1, wb, attraction, a-b-da, 5, 1, 1, 7, 60, 135, 135, 60, 132, 58, 3, 0.618508
340, 1, wb, attraction, a-b-db, 9, 1, 1, 8, 60, 135, 57, 129, 135, 60, 3, 2.03965
340, 1, wb, attraction, a-b-db, 9, 1, 1, 8, 60, 135, 57, 129, 135, 60, 2, 0.660207
340, 1, wb, attraction, a-b-da, 14, 3, 1, 9, 120, 195, 181, 111, 195, 120, 1, 0.647167
340, 1, wb, attraction, a-b-da, 14, 3, 1, 9, 120, 195, 181, 111, 195, 120, 3, 1.41256
340, 1, wb, attraction, a-b-da, 2, 2, 1, 10, 165, 90, 90, 165, 163, 89, 1, 0.745203
340, 1, wb, attraction, a-b-da, 2, 2, 1, 10, 165, 90, 90, 165, 163, 89, 2, 3.29036
340, 1, wb, attraction, a-b-db, 9, 3, 1, 11, 195, 120, 114, 186, 120, 195, 2, 1.63595
340, 1, wb, attraction, a-b-db, 9, 3, 1, 11, 195, 120, 114, 186, 120, 195, 3, 2.48956
340, 1, wb, filler, NA, 999, 999, 1, 12, 110, 103, 118, 96, 166, 187, 1, 1.67522
340, 1, wb, filler, NA, 999, 999, 1, 12, 110, 103, 118, 96, 166, 187, 3, 0.854579
340, 1, wb, attraction, a-b-da, 5, 2, 1, 13, 165, 90, 161, 88, 90, 165, 1, 1.89022
340, 1, wb, attraction, a-b-da, 5, 2, 1, 13, 165, 90, 161, 88, 90, 165, 3, 1.86895
340, 1, wb, filler, NA, 999, 999, 1, 14, 187, 129, 153, 126, 71, 137, 1, 1.40768
340, 1, wb, filler, NA, 999, 999, 1, 14, 187, 129, 153, 126, 71, 137, 3, 2.78996
340, 1, wb, attraction, a-b-db, 9, 2, 1, 15, 86, 157, 165, 90, 90, 165, 1, 1.79567
340, 1, wb, attraction, a-b-db, 9, 2, 1, 15, 86, 157, 165, 90, 90, 165, 3, 0.7384
340, 1, wb, filler, NA, 999, 999, 1, 16, 107, 68, 82, 94, 128, 77, 1, 1.19475
340, 1, wb, filler, NA, 999, 999, 1, 16, 107, 68, 82, 94, 128, 77, 2, 2.04988
340, 1, wb, attraction, a-b-db, 5, 2, 1, 17, 88, 161, 165, 90, 90, 165, 1, 1.877
340, 1, wb, attraction, a-b-db, 5, 2, 1, 17, 88, 161, 165, 90, 90, 165, 2, 0.840375
340, 1, wb, attraction, a-b-da, 9, 3, 1, 18, 120, 195, 195, 120, 186, 114, 1, 1.10814
340, 1, wb, attraction, a-b-da, 9, 3, 1, 18, 120, 195, 195, 120, 186, 114, 3, 2.18237
340, 1, wb, filler, NA, 999, 999, 1, 19, 70, 191, 176, 184, 172, 99, 1, 1.06825
340, 1, wb, filler, NA, 999, 999, 1, 19, 70, 191, 176, 184, 172, 99, 2, 0.912566
340, 1, wb, filler, NA, 999, 999, 1, 20, 70, 86, 149, 146, 71, 71, 1, 0.849766
340, 1, wb, filler, NA, 999, 999, 1, 20, 70, 86, 149, 146, 71, 71, 2, 1.32658
340, 1, wb, filler, NA, 999, 999, 1, 21, 69, 153, 138, 165, 109, 86, 3, 1.97492
340, 1, wb, filler, NA, 999, 999, 1, 21, 69, 153, 138, 165, 109, 86, 2, 0.382159
340, 1, wb, attraction, a-b-db, 14, 1, 1, 22, 135, 60, 60, 135, 56, 125, 3, 2.44468
340, 1, wb, attraction, a-b-db, 14, 1, 1, 22, 135, 60, 60, 135, 56, 125, 1, 2.3452
340, 1, wb, attraction, a-b-da, 9, 2, 1, 23, 165, 90, 90, 165, 157, 86, 3, 2.15237
340, 1, wb, attraction, a-b-da, 9, 2, 1, 23, 165, 90, 90, 165, 157, 86, 2, 1.18507
340, 1, wb, filler, NA, 999, 999, 1, 24, 139, 193, 134, 86, 163, 140, 2, 2.33524
340, 1, wb, filler, NA, 999, 999, 1, 24, 139, 193, 134, 86, 163, 140, 1, 0.376463
340, 1, wb, catch, NA, 999, 999, 1, 25, 107, 148, 127, 188, 124, 71, 3, 2.36704
340, 1, wb, catch, NA, 999, 999, 1, 25, 107, 148, 127, 188, 124, 71, 2, 0.494894
340, 1, wb, attraction, a-b-db, 5, 3, 1, 26, 195, 120, 120, 195, 117, 190, 1, 3.12066
340, 1, wb, attraction, a-b-db, 5, 3, 1, 26, 195, 120, 120, 195, 117, 190, 2, 0.730434
340, 1, wb, attraction, a-b-db, 2, 2, 1, 27, 89, 163, 165, 90, 90, 165, 1, 5.79475
340, 1, wb, attraction, a-b-db, 2, 2, 1, 27, 89, 163, 165, 90, 90, 165, 2, 1.41624
340, 1, wb, attraction, a-b-da, 2, 1, 1, 28, 134, 59, 135, 60, 60, 135, 3, 2.02911
340, 1, wb, attraction, a-b-da, 2, 1, 1, 28, 134, 59, 135, 60, 60, 135, 2, 0.826506
340, 1, wb, attraction, a-b-da, 14, 1, 1, 29, 135, 60, 125, 56, 60, 135, 2, 2.39881
340, 1, wb, attraction, a-b-da, 14, 1, 1, 29, 135, 60, 125, 56, 60, 135, 1, 0.741237
340, 1, wb, attraction, a-b-da, 9, 1, 1, 30, 129, 57, 135, 60, 60, 135, 1, 2.06897
340, 1, wb, attraction, a-b-da, 9, 1, 1, 30, 129, 57, 135, 60, 60, 135, 3, 0.585136
340, 1, wb, attraction, a-b-da, 14, 2, 1, 31, 90, 165, 165, 90, 153, 83, 1, 1.37553
340, 1, wb, attraction, a-b-da, 14, 2, 1, 31, 90, 165, 165, 90, 153, 83, 3, 0.44708
340, 1, wb, attraction, a-b-db, 2, 3, 1, 32, 195, 120, 120, 195, 119, 193, 1, 2.59478
340, 1, wb, attraction, a-b-db, 2, 3, 1, 32, 195, 120, 120, 195, 119, 193, 2, 0.92924
340, 1, wb, attraction, a-b-da, 5, 3, 1, 33, 195, 120, 120, 195, 190, 117, 3, 1.52184
340, 1, wb, attraction, a-b-da, 5, 3, 1, 33, 195, 120, 120, 195, 190, 117, 2, 0.378973
340, 1, wb, catch, NA, 999, 999, 1, 34, 135, 120, 155, 160, 132, 63, 3, 1.52963
340, 1, wb, catch, NA, 999, 999, 1, 34, 135, 120, 155, 160, 132, 63, 2, 0.475041
340, 1, wb, filler, NA, 999, 999, 1, 35, 192, 93, 134, 85, 194, 88, 3, 1.66156
340, 1, wb, filler, NA, 999, 999, 1, 35, 192, 93, 134, 85, 194, 88, 2, 0.449638
340, 1, wb, filler, NA, 999, 999, 1, 36, 75, 88, 160, 121, 186, 144, 1, 1.03744
340, 1, wb, filler, NA, 999, 999, 1, 36, 75, 88, 160, 121, 186, 144, 3, 0.843197
340, 1, wb, filler, NA, 999, 999, 1, 37, 163, 65, 56, 105, 165, 64, 2, 1.03881
340, 1, wb, filler, NA, 999, 999, 1, 37, 163, 65, 56, 105, 165, 64, 1, 1.27582
340, 1, wb, filler, NA, 999, 999, 2, 1, 111, 61, 98, 164, 106, 154, 1, 1.54191
340, 1, wb, filler, NA, 999, 999, 2, 1, 111, 61, 98, 164, 106, 154, 2, 0.790757
340, 1, wb, attraction, a-b-db, 9, 2, 2, 2, 90, 165, 165, 90, 86, 157, 1, 1.97247
340, 1, wb, attraction, a-b-db, 9, 2, 2, 2, 90, 165, 165, 90, 86, 157, 2, 1.54789
340, 1, wb, filler, NA, 999, 999, 2, 3, 112, 148, 132, 65, 62, 182, 1, 1.83535
340, 1, wb, filler, NA, 999, 999, 2, 3, 112, 148, 132, 65, 62, 182, 2, 0.888711
340, 1, wb, catch, NA, 999, 999, 2, 4, 89, 106, 134, 181, 123, 132, 1, 1.09908
340, 1, wb, catch, NA, 999, 999, 2, 4, 89, 106, 134, 181, 123, 132, 2, 0.798
340, 1, wb, filler, NA, 999, 999, 2, 5, 142, 141, 124, 56, 73, 126, 2, 1.06771
340, 1, wb, filler, NA, 999, 999, 2, 5, 142, 141, 124, 56, 73, 126, 1, 1.16013
340, 1, wb, attraction, a-b-da, 5, 1, 2, 6, 60, 135, 135, 60, 132, 58, 2, 0.886956
340, 1, wb, attraction, a-b-da, 5, 1, 2, 6, 60, 135, 135, 60, 132, 58, 3, 0.570637
340, 1, wb, attraction, a-b-da, 2, 1, 2, 7, 60, 135, 135, 60, 134, 59, 1, 2.20175
340, 1, wb, attraction, a-b-da, 2, 1, 2, 7, 60, 135, 135, 60, 134, 59, 3, 0.952349
340, 1, wb, attraction, a-b-da, 2, 3, 2, 8, 120, 195, 195, 120, 193, 119, 1, 3.28795
340, 1, wb, attraction, a-b-da, 2, 3, 2, 8, 120, 195, 195, 120, 193, 119, 2, 1.29826
340, 1, wb, catch, NA, 999, 999, 2, 9, 68, 127, 171, 144, 120, 135, 1, 1.11579
340, 1, wb, catch, NA, 999, 999, 2, 9, 68, 127, 171, 144, 120, 135, 2, 1.51015
340, 1, wb, attraction, a-b-db, 14, 1, 2, 10, 60, 135, 56, 125, 135, 60, 2, 1.54289
340, 1, wb, attraction, a-b-db, 14, 1, 2, 10, 60, 135, 56, 125, 135, 60, 1, 0.847682
340, 1, wb, catch, NA, 999, 999, 2, 11, 124, 131, 70, 125, 145, 170, 2, 1.6194
340, 1, wb, catch, NA, 999, 999, 2, 11, 124, 131, 70, 125, 145, 170, 1, 0.417539
340, 1, wb, attraction, a-b-db, 5, 2, 2, 12, 165, 90, 90, 165, 88, 161, 1, 1.49469
340, 1, wb, attraction, a-b-db, 5, 2, 2, 12, 165, 90, 90, 165, 88, 161, 2, 1.0096
340, 1, wb, filler, NA, 999, 999, 2, 13, 95, 186, 115, 107, 193, 176, 2, 2.42254
340, 1, wb, filler, NA, 999, 999, 2, 13, 95, 186, 115, 107, 193, 176, 3, 1.18773
340, 1, wb, filler, NA, 999, 999, 2, 14, 90, 84, 133, 119, 154, 102, 1, 0.857925
340, 1, wb, filler, NA, 999, 999, 2, 14, 90, 84, 133, 119, 154, 102, 2, 0.44624
340, 1, wb, attraction, a-b-db, 14, 2, 2, 15, 83, 153, 165, 90, 90, 165, 1, 2.33014
340, 1, wb, attraction, a-b-db, 14, 2, 2, 15, 83, 153, 165, 90, 90, 165, 3, 0.795353
340, 1, wb, attraction, a-b-db, 5, 1, 2, 16, 58, 132, 60, 135, 135, 60, 1, 1.69699
340, 1, wb, attraction, a-b-db, 5, 1, 2, 16, 58, 132, 60, 135, 135, 60, 2, 1.11592
340, 1, wb, attraction, a-b-da, 9, 3, 2, 17, 186, 114, 195, 120, 120, 195, 1, 1.58071
340, 1, wb, attraction, a-b-da, 9, 3, 2, 17, 186, 114, 195, 120, 120, 195, 2, 0.516285
340, 1, wb, attraction, a-b-db, 9, 1, 2, 18, 60, 135, 135, 60, 57, 129, 1, 0.981242
340, 1, wb, attraction, a-b-db, 9, 1, 2, 18, 60, 135, 135, 60, 57, 129, 2, 2.06097
340, 1, wb, filler, NA, 999, 999, 2, 19, 82, 162, 77, 183, 184, 132, 1, 1.59962
340, 1, wb, filler, NA, 999, 999, 2, 19, 82, 162, 77, 183, 184, 132, 3, 0.526482
340, 1, wb, attraction, a-b-db, 2, 2, 2, 20, 89, 163, 90, 165, 165, 90, 3, 1.52689
340, 1, wb, attraction, a-b-db, 2, 2, 2, 20, 89, 163, 90, 165, 165, 90, 2, 0.664468
340, 1, wb, filler, NA, 999, 999, 2, 21, 193, 140, 144, 195, 135, 75, 3, 1.80348
340, 1, wb, filler, NA, 999, 999, 2, 21, 193, 140, 144, 195, 135, 75, 2, 0.30618
340, 1, wb, attraction, a-b-da, 14, 2, 2, 22, 90, 165, 165, 90, 153, 83, 2, 2.82001
340, 1, wb, attraction, a-b-da, 14, 2, 2, 22, 90, 165, 165, 90, 153, 83, 1, 0.321735
340, 1, wb, filler, NA, 999, 999, 2, 23, 125, 178, 99, 157, 135, 134, 1, 2.48298
340, 1, wb, filler, NA, 999, 999, 2, 23, 125, 178, 99, 157, 135, 134, 2, 0.382117
340, 1, wb, attraction, a-b-da, 5, 2, 2, 24, 90, 165, 165, 90, 161, 88, 3, 2.34073
340, 1, wb, attraction, a-b-da, 5, 2, 2, 24, 90, 165, 165, 90, 161, 88, 1, 0.645361
340, 1, wb, attraction, a-b-da, 9, 2, 2, 25, 90, 165, 165, 90, 157, 86, 1, 1.76913
340, 1, wb, attraction, a-b-da, 9, 2, 2, 25, 90, 165, 165, 90, 157, 86, 3, 1.6491
340, 1, wb, attraction, a-b-db, 2, 3, 2, 26, 119, 193, 195, 120, 120, 195, 1, 2.04447
340, 1, wb, attraction, a-b-db, 2, 3, 2, 26, 119, 193, 195, 120, 120, 195, 2, 0.449119
340, 1, wb, attraction, a-b-db, 2, 1, 2, 27, 60, 135, 59, 134, 135, 60, 1, 1.653
340, 1, wb, attraction, a-b-db, 2, 1, 2, 27, 60, 135, 59, 134, 135, 60, 3, 0.897772
340, 1, wb, attraction, a-b-da, 5, 3, 2, 28, 195, 120, 120, 195, 190, 117, 1, 2.13138
340, 1, wb, attraction, a-b-da, 5, 3, 2, 28, 195, 120, 120, 195, 190, 117, 2, 0.692673
340, 1, wb, attraction, a-b-da, 2, 2, 2, 29, 163, 89, 90, 165, 165, 90, 1, 0.67834
340, 1, wb, attraction, a-b-da, 2, 2, 2, 29, 163, 89, 90, 165, 165, 90, 3, 0.954395
340, 1, wb, attraction, a-b-da, 14, 3, 2, 30, 195, 120, 181, 111, 120, 195, 1, 1.23383
340, 1, wb, attraction, a-b-da, 14, 3, 2, 30, 195, 120, 181, 111, 120, 195, 3, 0.479485
340, 1, wb, attraction, a-b-da, 9, 1, 2, 31, 129, 57, 135, 60, 60, 135, 1, 2.02589
340, 1, wb, attraction, a-b-da, 9, 1, 2, 31, 129, 57, 135, 60, 60, 135, 3, 1.54326
340, 1, wb, attraction, a-b-db, 14, 3, 2, 32, 111, 181, 120, 195, 195, 120, 1, 1.29464
340, 1, wb, attraction, a-b-db, 14, 3, 2, 32, 111, 181, 120, 195, 195, 120, 2, 1.43361
340, 1, wb, attraction, a-b-da, 14, 1, 2, 33, 125, 56, 135, 60, 60, 135, 1, 1.18183
340, 1, wb, attraction, a-b-da, 14, 1, 2, 33, 125, 56, 135, 60, 60, 135, 2, 1.13337
340, 1, wb, filler, NA, 999, 999, 2, 34, 79, 150, 67, 167, 65, 125, 1, 1.62169
340, 1, wb, filler, NA, 999, 999, 2, 34, 79, 150, 67, 167, 65, 125, 2, 1.24313
340, 1, wb, attraction, a-b-db, 5, 3, 2, 35, 195, 120, 117, 190, 120, 195, 1, 2.44667
340, 1, wb, attraction, a-b-db, 5, 3, 2, 35, 195, 120, 117, 190, 120, 195, 3, 0.931203
340, 1, wb, filler, NA, 999, 999, 2, 36, 110, 117, 174, 123, 128, 146, 1, 0.747499
340, 1, wb, filler, NA, 999, 999, 2, 36, 110, 117, 174, 123, 128, 146, 2, 0.700732
340, 1, wb, attraction, a-b-db, 9, 3, 2, 37, 114, 186, 120, 195, 195, 120, 3, 1.9664
340, 1, wb, attraction, a-b-db, 9, 3, 2, 37, 114, 186, 120, 195, 195, 120, 2, 1.15828
340, 1, wb, attraction, a-b-db, 9, 2, 3, 1, 86, 157, 90, 165, 165, 90, 1, 1.12528
340, 1, wb, attraction, a-b-db, 9, 2, 3, 1, 86, 157, 90, 165, 165, 90, 3, 0.862874
340, 1, wb, attraction, a-b-db, 5, 2, 3, 2, 88, 161, 165, 90, 90, 165, 1, 1.20986
340, 1, wb, attraction, a-b-db, 5, 2, 3, 2, 88, 161, 165, 90, 90, 165, 3, 0.664147
340, 1, wb, attraction, a-b-da, 9, 1, 3, 3, 135, 60, 60, 135, 129, 57, 3, 2.28322
340, 1, wb, attraction, a-b-da, 9, 1, 3, 3, 135, 60, 60, 135, 129, 57, 1, 0.966446
340, 1, wb, filler, NA, 999, 999, 3, 4, 179, 82, 125, 79, 66, 186, 1, 1.43738
340, 1, wb, filler, NA, 999, 999, 3, 4, 179, 82, 125, 79, 66, 186, 2, 8.7151
340, 1, wb, catch, NA, 999, 999, 3, 5, 91, 104, 174, 141, 116, 139, 1, 0.817475
340, 1, wb, catch, NA, 999, 999, 3, 5, 91, 104, 174, 141, 116, 139, 2, 0.447929
340, 1, wb, filler, NA, 999, 999, 3, 6, 152, 183, 83, 120, 110, 110, 2, 1.17165
340, 1, wb, filler, NA, 999, 999, 3, 6, 152, 183, 83, 120, 110, 110, 1, 0.451255
340, 1, wb, filler, NA, 999, 999, 3, 7, 184, 185, 195, 95, 78, 155, 3, 0.951046
340, 1, wb, filler, NA, 999, 999, 3, 7, 184, 185, 195, 95, 78, 155, 1, 0.400036
340, 1, wb, attraction, a-b-db, 14, 3, 3, 8, 111, 181, 195, 120, 120, 195, 1, 3.69387
340, 1, wb, attraction, a-b-db, 14, 3, 3, 8, 111, 181, 195, 120, 120, 195, 3, 0.328012
340, 1, wb, attraction, a-b-da, 14, 3, 3, 9, 195, 120, 120, 195, 181, 111, 3, 1.61661
340, 1, wb, attraction, a-b-da, 14, 3, 3, 9, 195, 120, 120, 195, 181, 111, 1, 0.414667
340, 1, wb, attraction, a-b-da, 9, 3, 3, 10, 186, 114, 120, 195, 195, 120, 1, 1.57989
340, 1, wb, attraction, a-b-da, 9, 3, 3, 10, 186, 114, 120, 195, 195, 120, 2, 0.339337
340, 1, wb, attraction, a-b-da, 14, 2, 3, 11, 90, 165, 153, 83, 165, 90, 3, 2.38787
340, 1, wb, attraction, a-b-da, 14, 2, 3, 11, 90, 165, 153, 83, 165, 90, 1, 0.491036
340, 1, wb, catch, NA, 999, 999, 3, 12, 73, 122, 116, 139, 151, 164, 1, 0.852845
340, 1, wb, catch, NA, 999, 999, 3, 12, 73, 122, 116, 139, 151, 164, 3, 0.33
340, 1, wb, attraction, a-b-da, 5, 1, 3, 13, 60, 135, 132, 58, 135, 60, 3, 1.02644
340, 1, wb, attraction, a-b-da, 5, 1, 3, 13, 60, 135, 132, 58, 135, 60, 1, 0.368006
340, 1, wb, attraction, a-b-da, 9, 2, 3, 14, 90, 165, 165, 90, 157, 86, 1, 1.98322
340, 1, wb, attraction, a-b-da, 9, 2, 3, 14, 90, 165, 165, 90, 157, 86, 3, 0.646646
340, 1, wb, attraction, a-b-da, 2, 1, 3, 15, 60, 135, 135, 60, 134, 59, 1, 0.810255
340, 1, wb, attraction, a-b-da, 2, 1, 3, 15, 60, 135, 135, 60, 134, 59, 3, 0.688659
340, 1, wb, attraction, a-b-db, 14, 1, 3, 16, 135, 60, 60, 135, 56, 125, 1, 1.53102
340, 1, wb, attraction, a-b-db, 14, 1, 3, 16, 135, 60, 60, 135, 56, 125, 3, 0.788716
340, 1, wb, attraction, a-b-da, 2, 2, 3, 17, 163, 89, 165, 90, 90, 165, 3, 1.73884
340, 1, wb, attraction, a-b-da, 2, 2, 3, 17, 163, 89, 165, 90, 90, 165, 1, 0.491634
340, 1, wb, attraction, a-b-db, 9, 1, 3, 18, 135, 60, 57, 129, 60, 135, 2, 1.40544
340, 1, wb, attraction, a-b-db, 9, 1, 3, 18, 135, 60, 57, 129, 60, 135, 1, 0.819629
340, 1, wb, attraction, a-b-db, 2, 1, 3, 19, 60, 135, 59, 134, 135, 60, 1, 2.12075
340, 1, wb, attraction, a-b-db, 2, 1, 3, 19, 60, 135, 59, 134, 135, 60, 3, 0.402736
340, 1, wb, filler, NA, 999, 999, 3, 20, 69, 75, 121, 80, 56, 93, 1, 0.952453
340, 1, wb, filler, NA, 999, 999, 3, 20, 69, 75, 121, 80, 56, 93, 2, 1.84974
340, 1, wb, attraction, a-b-db, 2, 3, 3, 21, 195, 120, 120, 195, 119, 193, 1, 0.788914
340, 1, wb, attraction, a-b-db, 2, 3, 3, 21, 195, 120, 120, 195, 119, 193, 3, 1.32396
340, 1, wb, attraction, a-b-db, 9, 3, 3, 22, 120, 195, 114, 186, 195, 120, 1, 1.10811
340, 1, wb, attraction, a-b-db, 9, 3, 3, 22, 120, 195, 114, 186, 195, 120, 2, 0.638525
340, 1, wb, filler, NA, 999, 999, 3, 23, 118, 147, 126, 162, 85, 188, 1, 0.770919
340, 1, wb, filler, NA, 999, 999, 3, 23, 118, 147, 126, 162, 85, 188, 2, 1.45124
340, 1, wb, filler, NA, 999, 999, 3, 24, 67, 104, 118, 156, 123, 59, 1, 0.678788
340, 1, wb, filler, NA, 999, 999, 3, 24, 67, 104, 118, 156, 123, 59, 2, 0.810514
340, 1, wb, attraction, a-b-da, 2, 3, 3, 25, 120, 195, 193, 119, 195, 120, 1, 1.25548
340, 1, wb, attraction, a-b-da, 2, 3, 3, 25, 120, 195, 193, 119, 195, 120, 2, 1.53172
340, 1, wb, attraction, a-b-da, 5, 2, 3, 26, 161, 88, 90, 165, 165, 90, 3, 1.77983
340, 1, wb, attraction, a-b-da, 5, 2, 3, 26, 161, 88, 90, 165, 165, 90, 1, 0.507224
340, 1, wb, filler, NA, 999, 999, 3, 27, 154, 138, 62, 182, 132, 135, 3, 1.69245
340, 1, wb, filler, NA, 999, 999, 3, 27, 154, 138, 62, 182, 132, 135, 1, 0.351202
340, 1, wb, attraction, a-b-da, 5, 3, 3, 28, 195, 120, 190, 117, 120, 195, 1, 3.327
340, 1, wb, attraction, a-b-da, 5, 3, 3, 28, 195, 120, 190, 117, 120, 195, 3, 0.351939
340, 1, wb, filler, NA, 999, 999, 3, 29, 155, 182, 176, 127, 130, 163, 2, 3.53589
340, 1, wb, filler, NA, 999, 999, 3, 29, 155, 182, 176, 127, 130, 163, 1, 0.592621
340, 1, wb, attraction, a-b-da, 14, 1, 3, 30, 60, 135, 135, 60, 125, 56, 2, 4.5504
340, 1, wb, attraction, a-b-da, 14, 1, 3, 30, 60, 135, 135, 60, 125, 56, 1, 0.486236
340, 1, wb, catch, NA, 999, 999, 3, 31, 98, 97, 167, 148, 92, 163, 1, 1.48877
340, 1, wb, catch, NA, 999, 999, 3, 31, 98, 97, 167, 148, 92, 163, 2, 0.579547
340, 1, wb, filler, NA, 999, 999, 3, 32, 159, 143, 152, 83, 186, 151, 2, 2.64198
340, 1, wb, filler, NA, 999, 999, 3, 32, 159, 143, 152, 83, 186, 151, 3, 0.478465
340, 1, wb, attraction, a-b-db, 5, 1, 3, 33, 60, 135, 58, 132, 135, 60, 1, 1.78487
340, 1, wb, attraction, a-b-db, 5, 1, 3, 33, 60, 135, 58, 132, 135, 60, 3, 0.768336
340, 1, wb, filler, NA, 999, 999, 3, 34, 168, 124, 173, 60, 180, 131, 2, 1.68735
340, 1, wb, filler, NA, 999, 999, 3, 34, 168, 124, 173, 60, 180, 131, 1, 3.42694
340, 1, wb, attraction, a-b-db, 2, 2, 3, 35, 89, 163, 165, 90, 90, 165, 2, 4.65437
340, 1, wb, attraction, a-b-db, 2, 2, 3, 35, 89, 163, 165, 90, 90, 165, 3, 0.930247
340, 1, wb, attraction, a-b-db, 5, 3, 3, 36, 195, 120, 120, 195, 117, 190, 1, 2.24257
340, 1, wb, attraction, a-b-db, 5, 3, 3, 36, 195, 120, 120, 195, 117, 190, 2, 0.463128
340, 1, wb, attraction, a-b-db, 14, 2, 3, 37, 90, 165, 83, 153, 165, 90, 2, 2.57039
340, 1, wb, attraction, a-b-db, 14, 2, 3, 37, 90, 165, 83, 153, 165, 90, 3, 0.474168
340, 1, wb, catch, NA, 999, 999, 4, 1, 77, 118, 126, 129, 124, 191, 1, 0.916564
340, 1, wb, catch, NA, 999, 999, 4, 1, 77, 118, 126, 129, 124, 191, 3, 0.510992
340, 1, wb, attraction, a-b-da, 14, 2, 4, 2, 90, 165, 153, 83, 165, 90, 2, 4.03214
340, 1, wb, attraction, a-b-da, 14, 2, 4, 2, 90, 165, 153, 83, 165, 90, 1, 0.340715
340, 1, wb, catch, NA, 999, 999, 4, 3, 110, 85, 152, 163, 128, 127, 1, 0.780589
340, 1, wb, catch, NA, 999, 999, 4, 3, 110, 85, 152, 163, 128, 127, 2, 0.340422
340, 1, wb, filler, NA, 999, 999, 4, 4, 77, 150, 60, 179, 95, 157, 1, 1.28413
340, 1, wb, filler, NA, 999, 999, 4, 4, 77, 150, 60, 179, 95, 157, 2, 1.20783
340, 1, wb, attraction, a-b-db, 5, 1, 4, 5, 60, 135, 135, 60, 58, 132, 2, 0.948762
340, 1, wb, attraction, a-b-db, 5, 1, 4, 5, 60, 135, 135, 60, 58, 132, 1, 0.685771
340, 1, wb, filler, NA, 999, 999, 4, 6, 183, 152, 176, 129, 153, 190, 1, 0.91999
340, 1, wb, filler, NA, 999, 999, 4, 6, 183, 152, 176, 129, 153, 190, 2, 2.17843
340, 1, wb, filler, NA, 999, 999, 4, 7, 127, 89, 125, 159, 108, 195, 1, 0.808342
340, 1, wb, filler, NA, 999, 999, 4, 7, 127, 89, 125, 159, 108, 195, 2, 0.614697
340, 1, wb, attraction, a-b-db, 2, 3, 4, 8, 120, 195, 195, 120, 119, 193, 1, 1.52378
340, 1, wb, attraction, a-b-db, 2, 3, 4, 8, 120, 195, 195, 120, 119, 193, 3, 0.741272
340, 1, wb, attraction, a-b-da, 2, 2, 4, 9, 165, 90, 163, 89, 90, 165, 1, 1.36506
340, 1, wb, attraction, a-b-da, 2, 2, 4, 9, 165, 90, 163, 89, 90, 165, 3, 1.38922
340, 1, wb, attraction, a-b-db, 9, 3, 4, 10, 114, 186, 195, 120, 120, 195, 1, 0.851355
340, 1, wb, attraction, a-b-db, 9, 3, 4, 10, 114, 186, 195, 120, 120, 195, 3, 1.24843
340, 1, wb, catch, NA, 999, 999, 4, 11, 91, 104, 169, 146, 154, 101, 1, 1.19594
340, 1, wb, catch, NA, 999, 999, 4, 11, 91, 104, 169, 146, 154, 101, 2, 0.458904
340, 1, wb, attraction, a-b-db, 9, 1, 4, 12, 57, 129, 60, 135, 135, 60, 1, 1.46207
340, 1, wb, attraction, a-b-db, 9, 1, 4, 12, 57, 129, 60, 135, 135, 60, 3, 0.874281
340, 1, wb, attraction, a-b-da, 14, 3, 4, 13, 120, 195, 195, 120, 181, 111, 1, 1.53268
340, 1, wb, attraction, a-b-da, 14, 3, 4, 13, 120, 195, 195, 120, 181, 111, 3, 1.8221
340, 1, wb, attraction, a-b-da, 9, 3, 4, 14, 120, 195, 186, 114, 195, 120, 2, 2.30687
340, 1, wb, attraction, a-b-da, 9, 3, 4, 14, 120, 195, 186, 114, 195, 120, 3, 0.900724
340, 1, wb, filler, NA, 999, 999, 4, 15, 188, 164, 83, 90, 90, 158, 1, 0.806388
340, 1, wb, filler, NA, 999, 999, 4, 15, 188, 164, 83, 90, 90, 158, 2, 0.572746
340, 1, wb, attraction, a-b-db, 2, 1, 4, 16, 135, 60, 60, 135, 59, 134, 2, 1.73193
340, 1, wb, attraction, a-b-db, 2, 1, 4, 16, 135, 60, 60, 135, 59, 134, 1, 0.709256
340, 1, wb, attraction, a-b-da, 5, 3, 4, 17, 120, 195, 190, 117, 195, 120, 1, 1.63034
340, 1, wb, attraction, a-b-da, 5, 3, 4, 17, 120, 195, 190, 117, 195, 120, 3, 0.923769
340, 1, wb, attraction, a-b-db, 9, 2, 4, 18, 165, 90, 90, 165, 86, 157, 2, 1.63608
340, 1, wb, attraction, a-b-db, 9, 2, 4, 18, 165, 90, 90, 165, 86, 157, 3, 0.729538
340, 1, wb, attraction, a-b-db, 14, 3, 4, 19, 120, 195, 195, 120, 111, 181, 1, 1.5619
340, 1, wb, attraction, a-b-db, 14, 3, 4, 19, 120, 195, 195, 120, 111, 181, 3, 0.882182
340, 1, wb, attraction, a-b-da, 2, 3, 4, 20, 193, 119, 195, 120, 120, 195, 1, 1.91647
340, 1, wb, attraction, a-b-da, 2, 3, 4, 20, 193, 119, 195, 120, 120, 195, 2, 0.670547
340, 1, wb, attraction, a-b-da, 14, 1, 4, 21, 60, 135, 125, 56, 135, 60, 1, 1.31365
340, 1, wb, attraction, a-b-da, 14, 1, 4, 21, 60, 135, 125, 56, 135, 60, 2, 1.50785
340, 1, wb, attraction, a-b-db, 5, 2, 4, 22, 90, 165, 88, 161, 165, 90, 1, 1.58857
340, 1, wb, attraction, a-b-db, 5, 2, 4, 22, 90, 165, 88, 161, 165, 90, 2, 1.03544
340, 1, wb, filler, NA, 999, 999, 4, 23, 82, 188, 78, 113, 130, 147, 1, 0.831661
340, 1, wb, filler, NA, 999, 999, 4, 23, 82, 188, 78, 113, 130, 147, 2, 0.469369
340, 1, wb, attraction, a-b-db, 2, 2, 4, 24, 165, 90, 90, 165, 89, 163, 1, 1.55248
340, 1, wb, attraction, a-b-db, 2, 2, 4, 24, 165, 90, 90, 165, 89, 163, 2, 0.521337
340, 1, wb, filler, NA, 999, 999, 4, 25, 91, 64, 63, 63, 104, 178, 2, 1.43444
340, 1, wb, filler, NA, 999, 999, 4, 25, 91, 64, 63, 63, 104, 178, 1, 0.448016
340, 1, wb, filler, NA, 999, 999, 4, 26, 159, 70, 122, 89, 172, 125, 2, 1.77177
340, 1, wb, filler, NA, 999, 999, 4, 26, 159, 70, 122, 89, 172, 125, 3, 1.91528
340, 1, wb, filler, NA, 999, 999, 4, 27, 183, 134, 174, 190, 105, 126, 3, 0.803924
340, 1, wb, filler, NA, 999, 999, 4, 27, 183, 134, 174, 190, 105, 126, 2, 0.52303
340, 1, wb, attraction, a-b-db, 14, 2, 4, 28, 90, 165, 83, 153, 165, 90, 1, 1.09201
340, 1, wb, attraction, a-b-db, 14, 2, 4, 28, 90, 165, 83, 153, 165, 90, 3, 0.839095
340, 1, wb, attraction, a-b-da, 9, 2, 4, 29, 165, 90, 157, 86, 90, 165, 1, 0.819344
340, 1, wb, attraction, a-b-da, 9, 2, 4, 29, 165, 90, 157, 86, 90, 165, 2, 0.713871
340, 1, wb, attraction, a-b-da, 9, 1, 4, 30, 135, 60, 129, 57, 60, 135, 1, 0.930786
340, 1, wb, attraction, a-b-da, 9, 1, 4, 30, 135, 60, 129, 57, 60, 135, 3, 0.988493
340, 1, wb, attraction, a-b-db, 5, 3, 4, 31, 195, 120, 117, 190, 120, 195, 1, 2.13072
340, 1, wb, attraction, a-b-db, 5, 3, 4, 31, 195, 120, 117, 190, 120, 195, 2, 0.340004
340, 1, wb, filler, NA, 999, 999, 4, 32, 168, 91, 73, 131, 101, 100, 3, 2.16458
340, 1, wb, filler, NA, 999, 999, 4, 32, 168, 91, 73, 131, 101, 100, 1, 0.556624
340, 1, wb, attraction, a-b-da, 5, 2, 4, 33, 161, 88, 165, 90, 90, 165, 1, 1.24425
340, 1, wb, attraction, a-b-da, 5, 2, 4, 33, 161, 88, 165, 90, 90, 165, 3, 0.529253
340, 1, wb, attraction, a-b-da, 2, 1, 4, 34, 134, 59, 135, 60, 60, 135, 2, 1.85762
340, 1, wb, attraction, a-b-da, 2, 1, 4, 34, 134, 59, 135, 60, 60, 135, 1, 0.813664
340, 1, wb, attraction, a-b-da, 5, 1, 4, 35, 60, 135, 135, 60, 132, 58, 1, 1.80272
340, 1, wb, attraction, a-b-da, 5, 1, 4, 35, 60, 135, 135, 60, 132, 58, 3, 0.641387
340, 1, wb, attraction, a-b-db, 14, 1, 4, 36, 60, 135, 56, 125, 135, 60, 1, 0.549297
340, 1, wb, attraction, a-b-db, 14, 1, 4, 36, 60, 135, 56, 125, 135, 60, 3, 0.590355
340, 1, wb, filler, NA, 999, 999, 4, 37, 60, 154, 194, 134, 115, 97, 2, 0.892153
340, 1, wb, filler, NA, 999, 999, 4, 37, 60, 154, 194, 134, 115, 97, 1, 0.375216
340, 1, wb, catch, NA, 999, 999, 5, 1, 186, 129, 80, 115, 135, 120, 2, 2.38821
340, 1, wb, catch, NA, 999, 999, 5, 1, 186, 129, 80, 115, 135, 120, 1, 0.547441
340, 1, wb, attraction, a-b-da, 5, 1, 5, 2, 135, 60, 60, 135, 132, 58, 1, 2.33126
340, 1, wb, attraction, a-b-da, 5, 1, 5, 2, 135, 60, 60, 135, 132, 58, 2, 0.500465
340, 1, wb, attraction, a-b-db, 9, 2, 5, 3, 165, 90, 86, 157, 90, 165, 2, 1.55027
340, 1, wb, attraction, a-b-db, 9, 2, 5, 3, 165, 90, 86, 157, 90, 165, 1, 0.471137
340, 1, wb, attraction, a-b-db, 2, 3, 5, 4, 120, 195, 119, 193, 195, 120, 2, 2.10626
340, 1, wb, attraction, a-b-db, 2, 3, 5, 4, 120, 195, 119, 193, 195, 120, 1, 0.324243
340, 1, wb, attraction, a-b-db, 5, 1, 5, 5, 58, 132, 60, 135, 135, 60, 1, 1.13268
340, 1, wb, attraction, a-b-db, 5, 1, 5, 5, 58, 132, 60, 135, 135, 60, 3, 0.934483
340, 1, wb, attraction, a-b-db, 5, 2, 5, 6, 88, 161, 165, 90, 90, 165, 1, 0.702606
340, 1, wb, attraction, a-b-db, 5, 2, 5, 6, 88, 161, 165, 90, 90, 165, 2, 0.433857
340, 1, wb, filler, NA, 999, 999, 5, 7, 172, 70, 174, 109, 79, 118, 3, 1.0863
340, 1, wb, filler, NA, 999, 999, 5, 7, 172, 70, 174, 109, 79, 118, 2, 0.489916
340, 1, wb, attraction, a-b-da, 9, 3, 5, 8, 195, 120, 120, 195, 186, 114, 1, 0.923799
340, 1, wb, attraction, a-b-da, 9, 3, 5, 8, 195, 120, 120, 195, 186, 114, 2, 0.333262
340, 1, wb, attraction, a-b-da, 9, 1, 5, 9, 60, 135, 129, 57, 135, 60, 1, 0.757735
340, 1, wb, attraction, a-b-da, 9, 1, 5, 9, 60, 135, 129, 57, 135, 60, 2, 0.510192
340, 1, wb, attraction, a-b-db, 2, 1, 5, 10, 60, 135, 59, 134, 135, 60, 1, 0.759264
340, 1, wb, attraction, a-b-db, 2, 1, 5, 10, 60, 135, 59, 134, 135, 60, 2, 0.62377
340, 1, wb, attraction, a-b-da, 2, 1, 5, 11, 135, 60, 60, 135, 134, 59, 1, 0.548177
340, 1, wb, attraction, a-b-da, 2, 1, 5, 11, 135, 60, 60, 135, 134, 59, 3, 2.14946
340, 1, wb, attraction, a-b-da, 14, 2, 5, 12, 153, 83, 165, 90, 90, 165, 1, 1.40456
340, 1, wb, attraction, a-b-da, 14, 2, 5, 12, 153, 83, 165, 90, 90, 165, 3, 0.523421
340, 1, wb, attraction, a-b-db, 9, 3, 5, 13, 114, 186, 120, 195, 195, 120, 1, 0.723877
340, 1, wb, attraction, a-b-db, 9, 3, 5, 13, 114, 186, 120, 195, 195, 120, 3, 0.837689
340, 1, wb, filler, NA, 999, 999, 5, 14, 63, 160, 97, 101, 159, 152, 2, 1.24199
340, 1, wb, filler, NA, 999, 999, 5, 14, 63, 160, 97, 101, 159, 152, 3, 0.550917
340, 1, wb, filler, NA, 999, 999, 5, 15, 58, 155, 136, 121, 156, 145, 2, 2.0627
340, 1, wb, filler, NA, 999, 999, 5, 15, 58, 155, 136, 121, 156, 145, 3, 0.522772
340, 1, wb, attraction, a-b-db, 14, 2, 5, 16, 165, 90, 83, 153, 90, 165, 1, 1.82778
340, 1, wb, attraction, a-b-db, 14, 2, 5, 16, 165, 90, 83, 153, 90, 165, 3, 0.529294
340, 1, wb, attraction, a-b-db, 2, 2, 5, 17, 165, 90, 90, 165, 89, 163, 1, 0.729613
340, 1, wb, attraction, a-b-db, 2, 2, 5, 17, 165, 90, 90, 165, 89, 163, 3, 0.475486
340, 1, wb, attraction, a-b-db, 9, 1, 5, 18, 135, 60, 57, 129, 60, 135, 1, 2.00577
340, 1, wb, attraction, a-b-db, 9, 1, 5, 18, 135, 60, 57, 129, 60, 135, 3, 0.459825
340, 1, wb, filler, NA, 999, 999, 5, 19, 173, 128, 126, 113, 68, 59, 3, 1.10297
340, 1, wb, filler, NA, 999, 999, 5, 19, 173, 128, 126, 113, 68, 59, 1, 0.473914
340, 1, wb, attraction, a-b-da, 2, 3, 5, 20, 120, 195, 195, 120, 193, 119, 1, 1.03633
340, 1, wb, attraction, a-b-da, 2, 3, 5, 20, 120, 195, 195, 120, 193, 119, 3, 0.802034
340, 1, wb, filler, NA, 999, 999, 5, 21, 86, 90, 179, 170, 159, 176, 1, 0.735826
340, 1, wb, filler, NA, 999, 999, 5, 21, 86, 90, 179, 170, 159, 176, 2, 1.26549
340, 1, wb, filler, NA, 999, 999, 5, 22, 90, 122, 189, 96, 152, 168, 1, 0.780344
340, 1, wb, filler, NA, 999, 999, 5, 22, 90, 122, 189, 96, 152, 168, 3, 0.420007
340, 1, wb, filler, NA, 999, 999, 5, 23, 60, 121, 133, 67, 93, 172, 1, 0.913151
340, 1, wb, filler, NA, 999, 999, 5, 23, 60, 121, 133, 67, 93, 172, 3, 0.379541
340, 1, wb, catch, NA, 999, 999, 5, 24, 84, 111, 179, 136, 109, 146, 1, 0.7861
340, 1, wb, catch, NA, 999, 999, 5, 24, 84, 111, 179, 136, 109, 146, 2, 0.337792
340, 1, wb, filler, NA, 999, 999, 5, 25, 88, 57, 136, 148, 66, 107, 1, 0.650285
340, 1, wb, filler, NA, 999, 999, 5, 25, 88, 57, 136, 148, 66, 107, 2, 0.463414
340, 1, wb, attraction, a-b-db, 14, 1, 5, 26, 60, 135, 56, 125, 135, 60, 2, 1.42655
340, 1, wb, attraction, a-b-db, 14, 1, 5, 26, 60, 135, 56, 125, 135, 60, 3, 1.05605
340, 1, wb, filler, NA, 999, 999, 5, 27, 171, 132, 194, 148, 177, 192, 1, 3.01171
340, 1, wb, filler, NA, 999, 999, 5, 27, 171, 132, 194, 148, 177, 192, 3, 0.233383
340, 1, wb, attraction, a-b-da, 14, 3, 5, 28, 195, 120, 181, 111, 120, 195, 1, 1.17393
340, 1, wb, attraction, a-b-da, 14, 3, 5, 28, 195, 120, 181, 111, 120, 195, 3, 1.15757
340, 1, wb, attraction, a-b-da, 5, 2, 5, 29, 161, 88, 90, 165, 165, 90, 1, 0.764393
340, 1, wb, attraction, a-b-da, 5, 2, 5, 29, 161, 88, 90, 165, 165, 90, 3, 0.748827
340, 1, wb, attraction, a-b-da, 2, 2, 5, 30, 163, 89, 90, 165, 165, 90, 1, 1.1245
340, 1, wb, attraction, a-b-da, 2, 2, 5, 30, 163, 89, 90, 165, 165, 90, 3, 0.85413
340, 1, wb, attraction, a-b-db, 5, 3, 5, 31, 120, 195, 117, 190, 195, 120, 1, 2.44986
340, 1, wb, attraction, a-b-db, 5, 3, 5, 31, 120, 195, 117, 190, 195, 120, 3, 0.678369
340, 1, wb, attraction, a-b-da, 9, 2, 5, 32, 90, 165, 165, 90, 157, 86, 2, 1.39268
340, 1, wb, attraction, a-b-da, 9, 2, 5, 32, 90, 165, 165, 90, 157, 86, 1, 0.895613
340, 1, wb, catch, NA, 999, 999, 5, 33, 174, 141, 107, 148, 113, 82, 3, 0.857252
340, 1, wb, catch, NA, 999, 999, 5, 33, 174, 141, 107, 148, 113, 82, 1, 0.389596
340, 1, wb, filler, NA, 999, 999, 5, 34, 105, 115, 154, 100, 118, 135, 1, 0.772118
340, 1, wb, filler, NA, 999, 999, 5, 34, 105, 115, 154, 100, 118, 135, 3, 0.451904
340, 1, wb, attraction, a-b-da, 14, 1, 5, 35, 60, 135, 135, 60, 125, 56, 1, 0.663747
340, 1, wb, attraction, a-b-da, 14, 1, 5, 35, 60, 135, 135, 60, 125, 56, 3, 0.980112
340, 1, wb, attraction, a-b-da, 5, 3, 5, 36, 190, 117, 120, 195, 195, 120, 1, 0.658452
340, 1, wb, attraction, a-b-da, 5, 3, 5, 36, 190, 117, 120, 195, 195, 120, 2, 0.902847
340, 1, wb, attraction, a-b-db, 14, 3, 5, 37, 195, 120, 111, 181, 120, 195, 1, 0.800514
340, 1, wb, attraction, a-b-db, 14, 3, 5, 37, 195, 120, 111, 181, 120, 195, 2, 0.703547
340, 1, wb, attraction, a-b-db, 2, 3, 6, 1, 120, 195, 195, 120, 119, 193, 2, 1.40934
340, 1, wb, attraction, a-b-db, 2, 3, 6, 1, 120, 195, 195, 120, 119, 193, 3, 0.463468
340, 1, wb, attraction, a-b-db, 2, 2, 6, 2, 165, 90, 89, 163, 90, 165, 1, 2.18671
340, 1, wb, attraction, a-b-db, 2, 2, 6, 2, 165, 90, 89, 163, 90, 165, 3, 0.729982
340, 1, wb, attraction, a-b-da, 9, 3, 6, 3, 120, 195, 195, 120, 186, 114, 1, 3.8185
340, 1, wb, attraction, a-b-da, 9, 3, 6, 3, 120, 195, 195, 120, 186, 114, 3, 0.399704
340, 1, wb, attraction, a-b-db, 9, 2, 6, 4, 90, 165, 165, 90, 86, 157, 1, 1.13357
340, 1, wb, attraction, a-b-db, 9, 2, 6, 4, 90, 165, 165, 90, 86, 157, 3, 0.423211
340, 1, wb, attraction, a-b-da, 14, 3, 6, 5, 195, 120, 181, 111, 120, 195, 1, 1.26836
340, 1, wb, attraction, a-b-da, 14, 3, 6, 5, 195, 120, 181, 111, 120, 195, 3, 0.832556
340, 1, wb, filler, NA, 999, 999, 6, 6, 146, 174, 64, 115, 126, 136, 2, 1.11691
340, 1, wb, filler, NA, 999, 999, 6, 6, 146, 174, 64, 115, 126, 136, 1, 0.50327
340, 1, wb, attraction, a-b-db, 14, 2, 6, 7, 83, 153, 90, 165, 165, 90, 1, 1.47316
340, 1, wb, attraction, a-b-db, 14, 2, 6, 7, 83, 153, 90, 165, 165, 90, 3, 0.764522
340, 1, wb, attraction, a-b-da, 2, 2, 6, 8, 163, 89, 165, 90, 90, 165, 1, 0.675543
340, 1, wb, attraction, a-b-da, 2, 2, 6, 8, 163, 89, 165, 90, 90, 165, 3, 0.935369
340, 1, wb, filler, NA, 999, 999, 6, 9, 111, 140, 173, 132, 174, 178, 1, 0.583623
340, 1, wb, filler, NA, 999, 999, 6, 9, 111, 140, 173, 132, 174, 178, 3, 0.519411
340, 1, wb, attraction, a-b-db, 5, 1, 6, 10, 58, 132, 60, 135, 135, 60, 1, 1.52067
340, 1, wb, attraction, a-b-db, 5, 1, 6, 10, 58, 132, 60, 135, 135, 60, 3, 0.530863
340, 1, wb, attraction, a-b-db, 2, 1, 6, 11, 59, 134, 60, 135, 135, 60, 1, 0.48313
340, 1, wb, attraction, a-b-db, 2, 1, 6, 11, 59, 134, 60, 135, 135, 60, 3, 0.662918
340, 1, wb, attraction, a-b-da, 2, 1, 6, 12, 135, 60, 134, 59, 60, 135, 1, 0.626004
340, 1, wb, attraction, a-b-da, 2, 1, 6, 12, 135, 60, 134, 59, 60, 135, 3, 0.519882
340, 1, wb, attraction, a-b-db, 14, 3, 6, 13, 120, 195, 195, 120, 111, 181, 3, 2.16896
340, 1, wb, attraction, a-b-db, 14, 3, 6, 13, 120, 195, 195, 120, 111, 181, 1, 0.584896
340, 1, wb, catch, NA, 999, 999, 6, 14, 161, 94, 139, 176, 103, 92, 3, 0.783397
340, 1, wb, catch, NA, 999, 999, 6, 14, 161, 94, 139, 176, 103, 92, 2, 0.623061
340, 1, wb, attraction, a-b-da, 2, 3, 6, 15, 195, 120, 120, 195, 193, 119, 1, 1.58018
340, 1, wb, attraction, a-b-da, 2, 3, 6, 15, 195, 120, 120, 195, 193, 119, 3, 0.419649
340, 1, wb, catch, NA, 999, 999, 6, 16, 150, 165, 143, 112, 75, 120, 3, 0.888745
340, 1, wb, catch, NA, 999, 999, 6, 16, 150, 165, 143, 112, 75, 120, 1, 0.395788
340, 1, wb, filler, NA, 999, 999, 6, 17, 91, 73, 190, 107, 167, 145, 1, 0.801709
340, 1, wb, filler, NA, 999, 999, 6, 17, 91, 73, 190, 107, 167, 145, 3, 0.344658
340, 1, wb, attraction, a-b-da, 14, 1, 6, 18, 135, 60, 60, 135, 125, 56, 1, 0.77649
340, 1, wb, attraction, a-b-da, 14, 1, 6, 18, 135, 60, 60, 135, 125, 56, 3, 0.696334
340, 1, wb, filler, NA, 999, 999, 6, 19, 136, 61, 127, 88, 141, 134, 1, 4.36205
340, 1, wb, filler, NA, 999, 999, 6, 19, 136, 61, 127, 88, 141, 134, 3, 0.529231
340, 1, wb, attraction, a-b-da, 9, 1, 6, 20, 135, 60, 129, 57, 60, 135, 3, 1.06572
340, 1, wb, attraction, a-b-da, 9, 1, 6, 20, 135, 60, 129, 57, 60, 135, 1, 0.877978
340, 1, wb, attraction, a-b-da, 5, 2, 6, 21, 90, 165, 161, 88, 165, 90, 1, 1.48839
340, 1, wb, attraction, a-b-da, 5, 2, 6, 21, 90, 165, 161, 88, 165, 90, 3, 1.43518
340, 1, wb, attraction, a-b-da, 14, 2, 6, 22, 165, 90, 153, 83, 90, 165, 1, 1.43128
340, 1, wb, attraction, a-b-da, 14, 2, 6, 22, 165, 90, 153, 83, 90, 165, 3, 0.332806
340, 1, wb, filler, NA, 999, 999, 6, 23, 102, 160, 155, 184, 153, 108, 3, 1.9974
340, 1, wb, filler, NA, 999, 999, 6, 23, 102, 160, 155, 184, 153, 108, 2, 0.532232
340, 1, wb, attraction, a-b-da, 5, 3, 6, 24, 120, 195, 195, 120, 190, 117, 3, 2.34062
340, 1, wb, attraction, a-b-da, 5, 3, 6, 24, 120, 195, 195, 120, 190, 117, 1, 0.428995
340, 1, wb, filler, NA, 999, 999, 6, 25, 107, 186, 66, 115, 102, 61, 3, 0.849432
340, 1, wb, filler, NA, 999, 999, 6, 25, 107, 186, 66, 115, 102, 61, 1, 0.302555
340, 1, wb, attraction, a-b-db, 9, 3, 6, 26, 114, 186, 195, 120, 120, 195, 1, 1.48036
340, 1, wb, attraction, a-b-db, 9, 3, 6, 26, 114, 186, 195, 120, 120, 195, 3, 0.276112
340, 1, wb, filler, NA, 999, 999, 6, 27, 131, 82, 141, 161, 96, 115, 3, 1.22244
340, 1, wb, filler, NA, 999, 999, 6, 27, 131, 82, 141, 161, 96, 115, 2, 0.71602
340, 1, wb, filler, NA, 999, 999, 6, 28, 60, 112, 86, 170, 119, 71, 1, 0.853059
340, 1, wb, filler, NA, 999, 999, 6, 28, 60, 112, 86, 170, 119, 71, 2, 0.402041
340, 1, wb, attraction, a-b-db, 9, 1, 6, 29, 57, 129, 135, 60, 60, 135, 1, 0.800012
340, 1, wb, attraction, a-b-db, 9, 1, 6, 29, 57, 129, 135, 60, 60, 135, 3, 1.63101
340, 1, wb, catch, NA, 999, 999, 6, 30, 173, 142, 88, 107, 143, 112, 2, 1.68327
340, 1, wb, catch, NA, 999, 999, 6, 30, 173, 142, 88, 107, 143, 112, 1, 0.606632
340, 1, wb, attraction, a-b-db, 5, 2, 6, 31, 88, 161, 90, 165, 165, 90, 1, 1.9796
340, 1, wb, attraction, a-b-db, 5, 2, 6, 31, 88, 161, 90, 165, 165, 90, 3, 0.307056
340, 1, wb, filler, NA, 999, 999, 6, 32, 90, 101, 133, 103, 126, 174, 1, 0.94029
340, 1, wb, filler, NA, 999, 999, 6, 32, 90, 101, 133, 103, 126, 174, 3, 0.317112
340, 1, wb, attraction, a-b-da, 9, 2, 6, 33, 90, 165, 165, 90, 157, 86, 1, 1.55037
340, 1, wb, attraction, a-b-da, 9, 2, 6, 33, 90, 165, 165, 90, 157, 86, 3, 0.687193
340, 1, wb, filler, NA, 999, 999, 6, 34, 96, 116, 194, 194, 101, 159, 1, 1.21761
340, 1, wb, filler, NA, 999, 999, 6, 34, 96, 116, 194, 194, 101, 159, 2, 0.231899
340, 1, wb, attraction, a-b-db, 14, 1, 6, 35, 135, 60, 56, 125, 60, 135, 1, 1.20435
340, 1, wb, attraction, a-b-db, 14, 1, 6, 35, 135, 60, 56, 125, 60, 135, 2, 0.690622
340, 1, wb, attraction, a-b-da, 5, 1, 6, 36, 135, 60, 132, 58, 60, 135, 1, 0.596316
340, 1, wb, attraction, a-b-da, 5, 1, 6, 36, 135, 60, 132, 58, 60, 135, 3, 0.419533
340, 1, wb, attraction, a-b-db, 5, 3, 6, 37, 117, 190, 120, 195, 195, 120, 1, 1.44065
340, 1, wb, attraction, a-b-db, 5, 3, 6, 37, 117, 190, 120, 195, 195, 120, 3, 0.557454
340, 1, wb, attraction, a-b-da, 14, 3, 7, 1, 195, 120, 181, 111, 120, 195, 1, 0.868641
340, 1, wb, attraction, a-b-da, 14, 3, 7, 1, 195, 120, 181, 111, 120, 195, 3, 0.320939
340, 1, wb, filler, NA, 999, 999, 7, 2, 148, 131, 132, 107, 139, 125, 2, 1.29017
340, 1, wb, filler, NA, 999, 999, 7, 2, 148, 131, 132, 107, 139, 125, 1, 0.27702
340, 1, wb, filler, NA, 999, 999, 7, 3, 135, 158, 193, 147, 175, 91, 1, 0.871469
340, 1, wb, filler, NA, 999, 999, 7, 3, 135, 158, 193, 147, 175, 91, 2, 0.235256
340, 1, wb, attraction, a-b-db, 14, 1, 7, 4, 56, 125, 135, 60, 60, 135, 1, 0.927852
340, 1, wb, attraction, a-b-db, 14, 1, 7, 4, 56, 125, 135, 60, 60, 135, 3, 0.545481
340, 1, wb, attraction, a-b-da, 5, 2, 7, 5, 161, 88, 90, 165, 165, 90, 1, 2.04126
340, 1, wb, attraction, a-b-da, 5, 2, 7, 5, 161, 88, 90, 165, 165, 90, 3, 0.213956
340, 1, wb, attraction, a-b-da, 2, 3, 7, 6, 195, 120, 193, 119, 120, 195, 1, 0.675155
340, 1, wb, attraction, a-b-da, 2, 3, 7, 6, 195, 120, 193, 119, 120, 195, 3, 0.598823
340, 1, wb, attraction, a-b-db, 5, 1, 7, 7, 135, 60, 60, 135, 58, 132, 1, 0.724628
340, 1, wb, attraction, a-b-db, 5, 1, 7, 7, 135, 60, 60, 135, 58, 132, 3, 0.318399
340, 1, wb, filler, NA, 999, 999, 7, 8, 102, 135, 95, 149, 57, 153, 1, 0.759538
340, 1, wb, filler, NA, 999, 999, 7, 8, 102, 135, 95, 149, 57, 153, 3, 0.29595
340, 1, wb, attraction, a-b-da, 5, 1, 7, 9, 132, 58, 60, 135, 135, 60, 1, 1.96172
340, 1, wb, attraction, a-b-da, 5, 1, 7, 9, 132, 58, 60, 135, 135, 60, 3, 0.625773
340, 1, wb, filler, NA, 999, 999, 7, 10, 195, 191, 105, 87, 186, 168, 2, 1.07026
340, 1, wb, filler, NA, 999, 999, 7, 10, 195, 191, 105, 87, 186, 168, 1, 0.546624
340, 1, wb, filler, NA, 999, 999, 7, 11, 114, 161, 109, 171, 167, 109, 1, 1.38618
340, 1, wb, filler, NA, 999, 999, 7, 11, 114, 161, 109, 171, 167, 109, 3, 0.313785
340, 1, wb, attraction, a-b-da, 2, 1, 7, 12, 134, 59, 60, 135, 135, 60, 1, 0.723111
340, 1, wb, attraction, a-b-da, 2, 1, 7, 12, 134, 59, 60, 135, 135, 60, 3, 0.308788
340, 1, wb, attraction, a-b-da, 2, 2, 7, 13, 90, 165, 165, 90, 163, 89, 2, 3.23794
340, 1, wb, attraction, a-b-da, 2, 2, 7, 13, 90, 165, 165, 90, 163, 89, 1, 0.266887
340, 1, wb, attraction, a-b-da, 5, 3, 7, 14, 190, 117, 195, 120, 120, 195, 3, 2.09415
340, 1, wb, attraction, a-b-da, 5, 3, 7, 14, 190, 117, 195, 120, 120, 195, 1, 0.224647
340, 1, wb, attraction, a-b-da, 14, 2, 7, 15, 165, 90, 153, 83, 90, 165, 1, 0.629212
340, 1, wb, attraction, a-b-da, 14, 2, 7, 15, 165, 90, 153, 83, 90, 165, 3, 0.531126
340, 1, wb, attraction, a-b-da, 9, 3, 7, 16, 186, 114, 120, 195, 195, 120, 1, 1.45948
340, 1, wb, attraction, a-b-da, 9, 3, 7, 16, 186, 114, 120, 195, 195, 120, 2, 0.191702
340, 1, wb, attraction, a-b-da, 9, 1, 7, 17, 135, 60, 60, 135, 129, 57, 1, 0.725597
340, 1, wb, attraction, a-b-da, 9, 1, 7, 17, 135, 60, 60, 135, 129, 57, 3, 0.599321
340, 1, wb, filler, NA, 999, 999, 7, 18, 138, 117, 81, 108, 107, 162, 2, 0.861079
340, 1, wb, filler, NA, 999, 999, 7, 18, 138, 117, 81, 108, 107, 162, 1, 0.28139
340, 1, wb, catch, NA, 999, 999, 7, 19, 96, 159, 162, 153, 97, 98, 3, 0.939906
340, 1, wb, catch, NA, 999, 999, 7, 19, 96, 159, 162, 153, 97, 98, 1, 0.277111
340, 1, wb, catch, NA, 999, 999, 7, 20, 104, 151, 120, 195, 105, 90, 2, 1.16758
340, 1, wb, catch, NA, 999, 999, 7, 20, 104, 151, 120, 195, 105, 90, 3, 0.519877
340, 1, wb, filler, NA, 999, 999, 7, 21, 133, 125, 145, 194, 101, 119, 3, 1.50487
340, 1, wb, filler, NA, 999, 999, 7, 21, 133, 125, 145, 194, 101, 119, 2, 0.219712
340, 1, wb, attraction, a-b-db, 9, 1, 7, 22, 60, 135, 57, 129, 135, 60, 1, 1.17693
340, 1, wb, attraction, a-b-db, 9, 1, 7, 22, 60, 135, 57, 129, 135, 60, 3, 0.824514
340, 1, wb, attraction, a-b-db, 14, 3, 7, 23, 195, 120, 120, 195, 111, 181, 3, 1.23702
340, 1, wb, attraction, a-b-db, 14, 3, 7, 23, 195, 120, 120, 195, 111, 181, 2, 0.594511
340, 1, wb, attraction, a-b-db, 5, 3, 7, 24, 117, 190, 120, 195, 195, 120, 1, 2.15229
340, 1, wb, attraction, a-b-db, 5, 3, 7, 24, 117, 190, 120, 195, 195, 120, 2, 0.432828
340, 1, wb, attraction, a-b-db, 9, 2, 7, 25, 90, 165, 86, 157, 165, 90, 3, 1.17335
340, 1, wb, attraction, a-b-db, 9, 2, 7, 25, 90, 165, 86, 157, 165, 90, 1, 0.540974
340, 1, wb, filler, NA, 999, 999, 7, 26, 122, 77, 152, 128, 86, 133, 1, 0.852774
340, 1, wb, filler, NA, 999, 999, 7, 26, 122, 77, 152, 128, 86, 133, 3, 0.28175
340, 1, wb, attraction, a-b-db, 14, 2, 7, 27, 165, 90, 90, 165, 83, 153, 1, 0.716159
340, 1, wb, attraction, a-b-db, 14, 2, 7, 27, 165, 90, 90, 165, 83, 153, 3, 0.534694
340, 1, wb, filler, NA, 999, 999, 7, 28, 63, 190, 134, 177, 121, 160, 2, 1.19907
340, 1, wb, filler, NA, 999, 999, 7, 28, 63, 190, 134, 177, 121, 160, 3, 1.35008
340, 1, wb, attraction, a-b-db, 2, 3, 7, 29, 195, 120, 119, 193, 120, 195, 3, 3.10958
340, 1, wb, attraction, a-b-db, 2, 3, 7, 29, 195, 120, 119, 193, 120, 195, 1, 0.5832
340, 1, wb, attraction, a-b-da, 9, 2, 7, 30, 165, 90, 157, 86, 90, 165, 3, 0.821652
340, 1, wb, attraction, a-b-da, 9, 2, 7, 30, 165, 90, 157, 86, 90, 165, 1, 0.63539
340, 1, wb, catch, NA, 999, 999, 7, 31, 141, 114, 74, 121, 135, 180, 2, 0.551768
340, 1, wb, catch, NA, 999, 999, 7, 31, 141, 114, 74, 121, 135, 180, 3, 0.59291
340, 1, wb, attraction, a-b-db, 2, 1, 7, 32, 135, 60, 60, 135, 59, 134, 2, 0.678658
340, 1, wb, attraction, a-b-db, 2, 1, 7, 32, 135, 60, 60, 135, 59, 134, 3, 0.370542
340, 1, wb, attraction, a-b-db, 9, 3, 7, 33, 120, 195, 195, 120, 114, 186, 1, 0.977605
340, 1, wb, attraction, a-b-db, 9, 3, 7, 33, 120, 195, 195, 120, 114, 186, 2, 0.249297
340, 1, wb, attraction, a-b-db, 2, 2, 7, 34, 90, 165, 165, 90, 89, 163, 1, 0.49316
340, 1, wb, attraction, a-b-db, 2, 2, 7, 34, 90, 165, 165, 90, 89, 163, 2, 0.288223
340, 1, wb, attraction, a-b-da, 14, 1, 7, 35, 135, 60, 60, 135, 125, 56, 1, 1.96066
340, 1, wb, attraction, a-b-da, 14, 1, 7, 35, 135, 60, 60, 135, 125, 56, 3, 0.674828
340, 1, wb, filler, NA, 999, 999, 7, 36, 90, 164, 169, 139, 110, 118, 2, 0.901227
340, 1, wb, filler, NA, 999, 999, 7, 36, 90, 164, 169, 139, 110, 118, 1, 1.38429
340, 1, wb, attraction, a-b-db, 5, 2, 7, 37, 88, 161, 90, 165, 165, 90, 1, 1.85452
340, 1, wb, attraction, a-b-db, 5, 2, 7, 37, 88, 161, 90, 165, 165, 90, 3, 0.274541
340, 1, wb, attraction, a-b-db, 9, 2, 8, 1, 86, 157, 165, 90, 90, 165, 1, 1.15703
340, 1, wb, attraction, a-b-db, 9, 2, 8, 1, 86, 157, 165, 90, 90, 165, 3, 0.229277
340, 1, wb, attraction, a-b-db, 14, 3, 8, 2, 120, 195, 195, 120, 111, 181, 2, 1.70586
340, 1, wb, attraction, a-b-db, 14, 3, 8, 2, 120, 195, 195, 120, 111, 181, 1, 0.572011
340, 1, wb, filler, NA, 999, 999, 8, 3, 119, 139, 195, 126, 126, 71, 1, 1.57901
340, 1, wb, filler, NA, 999, 999, 8, 3, 119, 139, 195, 126, 126, 71, 2, 0.266469
340, 1, wb, attraction, a-b-db, 9, 1, 8, 4, 135, 60, 57, 129, 60, 135, 2, 1.5816
340, 1, wb, attraction, a-b-db, 9, 1, 8, 4, 135, 60, 57, 129, 60, 135, 1, 0.301353
340, 1, wb, attraction, a-b-db, 5, 3, 8, 5, 117, 190, 120, 195, 195, 120, 1, 2.29502
340, 1, wb, attraction, a-b-db, 5, 3, 8, 5, 117, 190, 120, 195, 195, 120, 2, 0.281615
340, 1, wb, filler, NA, 999, 999, 8, 6, 74, 123, 110, 125, 131, 99, 1, 1.35616
340, 1, wb, filler, NA, 999, 999, 8, 6, 74, 123, 110, 125, 131, 99, 2, 1.0603
340, 1, wb, attraction, a-b-da, 14, 2, 8, 7, 90, 165, 153, 83, 165, 90, 2, 2.34323
340, 1, wb, attraction, a-b-da, 14, 2, 8, 7, 90, 165, 153, 83, 165, 90, 1, 0.183802
340, 1, wb, attraction, a-b-db, 2, 3, 8, 8, 120, 195, 119, 193, 195, 120, 1, 4.3664
340, 1, wb, attraction, a-b-db, 2, 3, 8, 8, 120, 195, 119, 193, 195, 120, 3, 0.837661
340, 1, wb, catch, NA, 999, 999, 8, 9, 98, 97, 146, 169, 118, 137, 1, 1.31405
340, 1, wb, catch, NA, 999, 999, 8, 9, 98, 97, 146, 169, 118, 137, 2, 0.700292
340, 1, wb, attraction, a-b-db, 14, 1, 8, 10, 60, 135, 135, 60, 56, 125, 1, 1.23001
340, 1, wb, attraction, a-b-db, 14, 1, 8, 10, 60, 135, 135, 60, 56, 125, 3, 0.65159
340, 1, wb, attraction, a-b-db, 2, 1, 8, 11, 60, 135, 135, 60, 59, 134, 3, 2.4511
340, 1, wb, attraction, a-b-db, 2, 1, 8, 11, 60, 135, 135, 60, 59, 134, 1, 0.6358
340, 1, wb, attraction, a-b-db, 14, 2, 8, 12, 165, 90, 90, 165, 83, 153, 1, 2.51241
340, 1, wb, attraction, a-b-db, 14, 2, 8, 12, 165, 90, 90, 165, 83, 153, 2, 0.498268
340, 1, wb, attraction, a-b-da, 5, 1, 8, 13, 60, 135, 132, 58, 135, 60, 3, 1.44388
340, 1, wb, attraction, a-b-da, 5, 1, 8, 13, 60, 135, 132, 58, 135, 60, 1, 0.464781
340, 1, wb, attraction, a-b-da, 9, 3, 8, 14, 120, 195, 186, 114, 195, 120, 2, 2.37987
340, 1, wb, attraction, a-b-da, 9, 3, 8, 14, 120, 195, 186, 114, 195, 120, 1, 0.515071
340, 1, wb, attraction, a-b-da, 5, 2, 8, 15, 90, 165, 165, 90, 161, 88, 2, 0.596208
340, 1, wb, attraction, a-b-da, 5, 2, 8, 15, 90, 165, 165, 90, 161, 88, 1, 0.971452
340, 1, wb, filler, NA, 999, 999, 8, 16, 173, 60, 148, 78, 103, 76, 3, 1.21832
340, 1, wb, filler, NA, 999, 999, 8, 16, 173, 60, 148, 78, 103, 76, 2, 1.18466
340, 1, wb, attraction, a-b-db, 5, 1, 8, 17, 135, 60, 58, 132, 60, 135, 3, 1.42288
340, 1, wb, attraction, a-b-db, 5, 1, 8, 17, 135, 60, 58, 132, 60, 135, 1, 0.372351
340, 1, wb, attraction, a-b-da, 9, 2, 8, 18, 157, 86, 90, 165, 165, 90, 1, 1.16365
340, 1, wb, attraction, a-b-da, 9, 2, 8, 18, 157, 86, 90, 165, 165, 90, 2, 0.555847
340, 1, wb, catch, NA, 999, 999, 8, 19, 136, 119, 172, 143, 65, 130, 3, 0.811674
340, 1, wb, catch, NA, 999, 999, 8, 19, 136, 119, 172, 143, 65, 130, 2, 0.290033
340, 1, wb, catch, NA, 999, 999, 8, 20, 102, 153, 64, 131, 170, 145, 2, 0.971772
340, 1, wb, catch, NA, 999, 999, 8, 20, 102, 153, 64, 131, 170, 145, 3, 0.29952
340, 1, wb, filler, NA, 999, 999, 8, 21, 172, 131, 148, 62, 156, 113, 2, 1.07728
340, 1, wb, filler, NA, 999, 999, 8, 21, 172, 131, 148, 62, 156, 113, 1, 0.560919
340, 1, wb, attraction, a-b-da, 2, 3, 8, 22, 120, 195, 193, 119, 195, 120, 1, 1.21605
340, 1, wb, attraction, a-b-da, 2, 3, 8, 22, 120, 195, 193, 119, 195, 120, 3, 0.334277
340, 1, wb, attraction, a-b-db, 2, 2, 8, 23, 90, 165, 165, 90, 89, 163, 1, 0.558816
340, 1, wb, attraction, a-b-db, 2, 2, 8, 23, 90, 165, 165, 90, 89, 163, 2, 0.239403
340, 1, wb, filler, NA, 999, 999, 8, 24, 191, 123, 147, 151, 194, 86, 1, 0.851763
340, 1, wb, filler, NA, 999, 999, 8, 24, 191, 123, 147, 151, 194, 86, 2, 0.296813
340, 1, wb, attraction, a-b-db, 9, 3, 8, 25, 195, 120, 114, 186, 120, 195, 2, 2.38668
340, 1, wb, attraction, a-b-db, 9, 3, 8, 25, 195, 120, 114, 186, 120, 195, 1, 0.257877
340, 1, wb, attraction, a-b-da, 14, 3, 8, 26, 181, 111, 195, 120, 120, 195, 2, 0.813169
340, 1, wb, attraction, a-b-da, 14, 3, 8, 26, 181, 111, 195, 120, 120, 195, 3, 0.563571
340, 1, wb, filler, NA, 999, 999, 8, 27, 103, 185, 162, 71, 134, 113, 2, 0.618603
340, 1, wb, filler, NA, 999, 999, 8, 27, 103, 185, 162, 71, 134, 113, 3, 0.281076
340, 1, wb, attraction, a-b-da, 2, 1, 8, 28, 135, 60, 134, 59, 60, 135, 1, 1.35555
340, 1, wb, attraction, a-b-da, 2, 1, 8, 28, 135, 60, 134, 59, 60, 135, 3, 0.211702
340, 1, wb, filler, NA, 999, 999, 8, 29, 166, 193, 92, 183, 129, 193, 1, 1.8731
340, 1, wb, filler, NA, 999, 999, 8, 29, 166, 193, 92, 183, 129, 193, 3, 0.236752
340, 1, wb, attraction, a-b-da, 9, 1, 8, 30, 60, 135, 129, 57, 135, 60, 1, 1.14497
340, 1, wb, attraction, a-b-da, 9, 1, 8, 30, 60, 135, 129, 57, 135, 60, 3, 0.993923
340, 1, wb, filler, NA, 999, 999, 8, 31, 191, 163, 122, 175, 69, 175, 1, 0.99959
340, 1, wb, filler, NA, 999, 999, 8, 31, 191, 163, 122, 175, 69, 175, 2, 0.622544
340, 1, wb, filler, NA, 999, 999, 8, 32, 162, 154, 123, 92, 119, 70, 3, 1.09155
340, 1, wb, filler, NA, 999, 999, 8, 32, 162, 154, 123, 92, 119, 70, 1, 0.198504
340, 1, wb, attraction, a-b-da, 14, 1, 8, 33, 125, 56, 60, 135, 135, 60, 3, 1.73242
340, 1, wb, attraction, a-b-da, 14, 1, 8, 33, 125, 56, 60, 135, 135, 60, 1, 1.46189
340, 1, wb, attraction, a-b-db, 5, 2, 8, 34, 165, 90, 90, 165, 88, 161, 1, 2.16868
340, 1, wb, attraction, a-b-db, 5, 2, 8, 34, 165, 90, 90, 165, 88, 161, 2, 0.360602
340, 1, wb, attraction, a-b-da, 5, 3, 8, 35, 190, 117, 195, 120, 120, 195, 3, 2.53587
340, 1, wb, attraction, a-b-da, 5, 3, 8, 35, 190, 117, 195, 120, 120, 195, 2, 0.689004
340, 1, wb, filler, NA, 999, 999, 8, 36, 169, 161, 148, 93, 159, 184, 2, 0.907507
340, 1, wb, filler, NA, 999, 999, 8, 36, 169, 161, 148, 93, 159, 184, 3, 0.389705
340, 1, wb, attraction, a-b-da, 2, 2, 8, 37, 163, 89, 90, 165, 165, 90, 1, 1.35622
340, 1, wb, attraction, a-b-da, 2, 2, 8, 37, 163, 89, 90, 165, 165, 90, 2, 0.244421
