sub_n, computer_n, bw_cond, effect, set, distance, diag, block_n, trial_n, h1, w1, h2, w2, h3, w3, choice, rt 
45, 1, bw, practice, NA, 999, 999, 0, 1, 60, 60, 83, 178, 72, 139, 2, 3.01043
45, 1, bw, practice, NA, 999, 999, 0, 1, 60, 60, 83, 178, 72, 139, 1, 3.12069
45, 1, bw, practice, NA, 999, 999, 0, 2, 135, 71, 100, 80, 184, 93, 3, 3.16668
45, 1, bw, practice, NA, 999, 999, 0, 2, 135, 71, 100, 80, 184, 93, 2, 6.39837
45, 1, bw, practice, NA, 999, 999, 0, 3, 80, 126, 100, 136, 94, 158, 3, 5.12756
45, 1, bw, practice, NA, 999, 999, 0, 3, 80, 126, 100, 136, 94, 158, 1, 2.80838
45, 1, bw, attraction, a-b-db, 5, 1, 1, 1, 60, 135, 135, 60, 58, 132, 1, 6.21562
45, 1, bw, attraction, a-b-db, 5, 1, 1, 1, 60, 135, 135, 60, 58, 132, 3, 3.17226
45, 1, bw, attraction, a-b-db, 14, 3, 1, 2, 195, 120, 111, 181, 120, 195, 1, 11.3226
45, 1, bw, attraction, a-b-db, 14, 3, 1, 2, 195, 120, 111, 181, 120, 195, 2, 1.72161
45, 1, bw, attraction, a-b-db, 9, 1, 1, 3, 57, 129, 60, 135, 135, 60, 3, 5.03446
45, 1, bw, attraction, a-b-db, 9, 1, 1, 3, 57, 129, 60, 135, 135, 60, 1, 1.79876
45, 1, bw, attraction, a-b-da, 14, 2, 1, 4, 165, 90, 153, 83, 90, 165, 1, 7.27613
45, 1, bw, attraction, a-b-da, 14, 2, 1, 4, 165, 90, 153, 83, 90, 165, 2, 0.782004
45, 1, bw, attraction, a-b-da, 5, 1, 1, 5, 132, 58, 60, 135, 135, 60, 3, 9.14023
45, 1, bw, attraction, a-b-da, 5, 1, 1, 5, 132, 58, 60, 135, 135, 60, 1, 1.41945
45, 1, bw, filler, NA, 999, 999, 1, 6, 84, 162, 158, 59, 120, 63, 1, 3.21628
45, 1, bw, filler, NA, 999, 999, 1, 6, 84, 162, 158, 59, 120, 63, 3, 0.949812
45, 1, bw, filler, NA, 999, 999, 1, 7, 113, 117, 179, 191, 170, 68, 2, 2.17351
45, 1, bw, filler, NA, 999, 999, 1, 7, 113, 117, 179, 191, 170, 68, 1, 4.46075
45, 1, bw, filler, NA, 999, 999, 1, 8, 129, 191, 128, 94, 98, 175, 1, 1.74259
45, 1, bw, filler, NA, 999, 999, 1, 8, 129, 191, 128, 94, 98, 175, 2, 1.31142
45, 1, bw, filler, NA, 999, 999, 1, 9, 151, 74, 166, 141, 84, 62, 2, 1.5442
45, 1, bw, filler, NA, 999, 999, 1, 9, 151, 74, 166, 141, 84, 62, 3, 1.00923
45, 1, bw, attraction, a-b-db, 14, 2, 1, 10, 165, 90, 90, 165, 83, 153, 1, 5.11799
45, 1, bw, attraction, a-b-db, 14, 2, 1, 10, 165, 90, 90, 165, 83, 153, 3, 0.775077
45, 1, bw, filler, NA, 999, 999, 1, 11, 64, 183, 83, 113, 94, 116, 1, 7.50951
45, 1, bw, filler, NA, 999, 999, 1, 11, 64, 183, 83, 113, 94, 116, 2, 0.877767
45, 1, bw, filler, NA, 999, 999, 1, 12, 101, 87, 58, 121, 147, 166, 3, 1.48022
45, 1, bw, filler, NA, 999, 999, 1, 12, 101, 87, 58, 121, 147, 166, 2, 3.59557
45, 1, bw, attraction, a-b-db, 9, 2, 1, 13, 165, 90, 86, 157, 90, 165, 1, 11.0644
45, 1, bw, attraction, a-b-db, 9, 2, 1, 13, 165, 90, 86, 157, 90, 165, 2, 0.865593
45, 1, bw, attraction, a-b-db, 5, 3, 1, 14, 120, 195, 117, 190, 195, 120, 3, 28.4767
45, 1, bw, attraction, a-b-db, 5, 3, 1, 14, 120, 195, 117, 190, 195, 120, 2, 1.89644
45, 1, bw, attraction, a-b-db, 2, 2, 1, 15, 165, 90, 89, 163, 90, 165, 1, 8.46579
45, 1, bw, attraction, a-b-db, 2, 2, 1, 15, 165, 90, 89, 163, 90, 165, 2, 0.659711
45, 1, bw, attraction, a-b-db, 5, 2, 1, 16, 165, 90, 90, 165, 88, 161, 1, 7.58276
45, 1, bw, attraction, a-b-db, 5, 2, 1, 16, 165, 90, 90, 165, 88, 161, 3, 1.58843
45, 1, bw, attraction, a-b-db, 2, 3, 1, 17, 195, 120, 120, 195, 119, 193, 1, 15.5624
45, 1, bw, attraction, a-b-db, 2, 3, 1, 17, 195, 120, 120, 195, 119, 193, 3, 0.774255
45, 1, bw, filler, NA, 999, 999, 1, 18, 160, 133, 147, 172, 150, 127, 2, 3.61287
45, 1, bw, filler, NA, 999, 999, 1, 18, 160, 133, 147, 172, 150, 127, 3, 1.55414
45, 1, bw, filler, NA, 999, 999, 1, 19, 172, 81, 120, 103, 177, 72, 1, 4.68977
45, 1, bw, filler, NA, 999, 999, 1, 19, 172, 81, 120, 103, 177, 72, 2, 3.33942
45, 1, bw, attraction, a-b-da, 2, 2, 1, 20, 163, 89, 90, 165, 165, 90, 3, 12.1709
45, 1, bw, attraction, a-b-da, 2, 2, 1, 20, 163, 89, 90, 165, 165, 90, 1, 0.735883
45, 1, bw, attraction, a-b-da, 2, 3, 1, 21, 195, 120, 120, 195, 193, 119, 3, 4.70418
45, 1, bw, attraction, a-b-da, 2, 3, 1, 21, 195, 120, 120, 195, 193, 119, 1, 1.26604
45, 1, bw, attraction, a-b-db, 9, 3, 1, 22, 195, 120, 114, 186, 120, 195, 1, 6.02097
45, 1, bw, attraction, a-b-db, 9, 3, 1, 22, 195, 120, 114, 186, 120, 195, 2, 5.56173
45, 1, bw, attraction, a-b-da, 5, 2, 1, 23, 165, 90, 161, 88, 90, 165, 2, 10.9753
45, 1, bw, attraction, a-b-da, 5, 2, 1, 23, 165, 90, 161, 88, 90, 165, 3, 3.70768
45, 1, bw, catch, NA, 999, 999, 1, 24, 139, 176, 105, 150, 74, 121, 1, 1.33193
45, 1, bw, catch, NA, 999, 999, 1, 24, 139, 176, 105, 150, 74, 121, 3, 1.15752
45, 1, bw, filler, NA, 999, 999, 1, 25, 127, 187, 100, 68, 92, 178, 1, 2.09232
45, 1, bw, filler, NA, 999, 999, 1, 25, 127, 187, 100, 68, 92, 178, 2, 1.30308
45, 1, bw, attraction, a-b-da, 2, 1, 1, 26, 60, 135, 135, 60, 134, 59, 2, 6.4805
45, 1, bw, attraction, a-b-da, 2, 1, 1, 26, 60, 135, 135, 60, 134, 59, 1, 0.874419
45, 1, bw, catch, NA, 999, 999, 1, 27, 130, 65, 151, 104, 153, 162, 3, 1.70088
45, 1, bw, catch, NA, 999, 999, 1, 27, 130, 65, 151, 104, 153, 162, 1, 1.03158
45, 1, bw, attraction, a-b-da, 5, 3, 1, 28, 195, 120, 190, 117, 120, 195, 2, 3.22787
45, 1, bw, attraction, a-b-da, 5, 3, 1, 28, 195, 120, 190, 117, 120, 195, 3, 1.95293
45, 1, bw, catch, NA, 999, 999, 1, 29, 190, 125, 125, 70, 157, 98, 1, 1.56816
45, 1, bw, catch, NA, 999, 999, 1, 29, 190, 125, 125, 70, 157, 98, 2, 0.824308
45, 1, bw, attraction, a-b-da, 9, 2, 1, 30, 90, 165, 157, 86, 165, 90, 1, 10.5967
45, 1, bw, attraction, a-b-da, 9, 2, 1, 30, 90, 165, 157, 86, 165, 90, 3, 1.44076
45, 1, bw, attraction, a-b-da, 9, 1, 1, 31, 135, 60, 129, 57, 60, 135, 1, 3.54816
45, 1, bw, attraction, a-b-da, 9, 1, 1, 31, 135, 60, 129, 57, 60, 135, 3, 1.79657
45, 1, bw, filler, NA, 999, 999, 1, 32, 123, 120, 130, 71, 178, 99, 3, 5.88181
45, 1, bw, filler, NA, 999, 999, 1, 32, 123, 120, 130, 71, 178, 99, 2, 0.651838
45, 1, bw, attraction, a-b-da, 9, 3, 1, 33, 120, 195, 186, 114, 195, 120, 3, 16.8878
45, 1, bw, attraction, a-b-da, 9, 3, 1, 33, 120, 195, 186, 114, 195, 120, 1, 1.88642
45, 1, bw, attraction, a-b-da, 14, 3, 1, 34, 120, 195, 195, 120, 181, 111, 2, 6.24828
45, 1, bw, attraction, a-b-da, 14, 3, 1, 34, 120, 195, 195, 120, 181, 111, 3, 0.6517
45, 1, bw, attraction, a-b-da, 14, 1, 1, 35, 135, 60, 60, 135, 125, 56, 1, 10.8715
45, 1, bw, attraction, a-b-da, 14, 1, 1, 35, 135, 60, 60, 135, 125, 56, 3, 0.944695
45, 1, bw, attraction, a-b-db, 14, 1, 1, 36, 60, 135, 135, 60, 56, 125, 2, 10.1764
45, 1, bw, attraction, a-b-db, 14, 1, 1, 36, 60, 135, 135, 60, 56, 125, 3, 0.565038
45, 1, bw, attraction, a-b-db, 2, 1, 1, 37, 60, 135, 135, 60, 59, 134, 2, 28.8363
45, 1, bw, attraction, a-b-db, 2, 1, 1, 37, 60, 135, 135, 60, 59, 134, 3, 1.04115
45, 1, bw, attraction, a-b-db, 14, 1, 2, 1, 56, 125, 135, 60, 60, 135, 2, 5.26882
45, 1, bw, attraction, a-b-db, 14, 1, 2, 1, 56, 125, 135, 60, 60, 135, 1, 0.711882
45, 1, bw, attraction, a-b-da, 9, 3, 2, 2, 120, 195, 195, 120, 186, 114, 2, 3.10497
45, 1, bw, attraction, a-b-da, 9, 3, 2, 2, 120, 195, 195, 120, 186, 114, 3, 1.89924
45, 1, bw, attraction, a-b-da, 9, 2, 2, 3, 157, 86, 90, 165, 165, 90, 2, 3.51652
45, 1, bw, attraction, a-b-da, 9, 2, 2, 3, 157, 86, 90, 165, 165, 90, 1, 0.966037
45, 1, bw, catch, NA, 999, 999, 2, 4, 132, 123, 61, 134, 167, 148, 3, 1.421
45, 1, bw, catch, NA, 999, 999, 2, 4, 132, 123, 61, 134, 167, 148, 2, 0.96327
45, 1, bw, attraction, a-b-db, 5, 2, 2, 5, 90, 165, 165, 90, 88, 161, 2, 4.69015
45, 1, bw, attraction, a-b-db, 5, 2, 2, 5, 90, 165, 165, 90, 88, 161, 3, 0.580165
45, 1, bw, filler, NA, 999, 999, 2, 6, 193, 163, 183, 166, 79, 175, 2, 2.02652
45, 1, bw, filler, NA, 999, 999, 2, 6, 193, 163, 183, 166, 79, 175, 3, 1.19975
45, 1, bw, attraction, a-b-da, 2, 1, 2, 7, 135, 60, 60, 135, 134, 59, 1, 18.8775
45, 1, bw, attraction, a-b-da, 2, 1, 2, 7, 135, 60, 60, 135, 134, 59, 3, 0.963409
45, 1, bw, filler, NA, 999, 999, 2, 8, 174, 65, 180, 167, 111, 118, 2, 1.13847
45, 1, bw, filler, NA, 999, 999, 2, 8, 174, 65, 180, 167, 111, 118, 3, 6.92347
45, 1, bw, attraction, a-b-da, 5, 2, 2, 9, 165, 90, 90, 165, 161, 88, 2, 11.8265
45, 1, bw, attraction, a-b-da, 5, 2, 2, 9, 165, 90, 90, 165, 161, 88, 3, 0.636737
45, 1, bw, attraction, a-b-db, 9, 1, 2, 10, 60, 135, 57, 129, 135, 60, 1, 3.36927
45, 1, bw, attraction, a-b-db, 9, 1, 2, 10, 60, 135, 57, 129, 135, 60, 2, 2.51281
45, 1, bw, attraction, a-b-da, 14, 1, 2, 11, 60, 135, 135, 60, 125, 56, 2, 7.92149
45, 1, bw, attraction, a-b-da, 14, 1, 2, 11, 60, 135, 135, 60, 125, 56, 3, 1.0974
45, 1, bw, filler, NA, 999, 999, 2, 12, 106, 145, 124, 127, 115, 130, 2, 7.30696
45, 1, bw, filler, NA, 999, 999, 2, 12, 106, 145, 124, 127, 115, 130, 3, 3.82748
45, 1, bw, filler, NA, 999, 999, 2, 13, 170, 158, 108, 169, 168, 181, 3, 2.91894
45, 1, bw, filler, NA, 999, 999, 2, 13, 170, 158, 108, 169, 168, 181, 2, 1.2807
45, 1, bw, attraction, a-b-db, 5, 1, 2, 14, 58, 132, 60, 135, 135, 60, 2, 12.6428
45, 1, bw, attraction, a-b-db, 5, 1, 2, 14, 58, 132, 60, 135, 135, 60, 1, 0.548097
45, 1, bw, filler, NA, 999, 999, 2, 15, 143, 96, 100, 188, 171, 121, 2, 3.20388
45, 1, bw, filler, NA, 999, 999, 2, 15, 143, 96, 100, 188, 171, 121, 1, 0.714121
45, 1, bw, catch, NA, 999, 999, 2, 16, 92, 163, 68, 127, 150, 165, 3, 1.19522
45, 1, bw, catch, NA, 999, 999, 2, 16, 92, 163, 68, 127, 150, 165, 2, 0.81009
45, 1, bw, attraction, a-b-db, 2, 3, 2, 17, 119, 193, 195, 120, 120, 195, 2, 10.3751
45, 1, bw, attraction, a-b-db, 2, 3, 2, 17, 119, 193, 195, 120, 120, 195, 1, 0.595917
45, 1, bw, attraction, a-b-da, 2, 2, 2, 18, 165, 90, 163, 89, 90, 165, 2, 17.5618
45, 1, bw, attraction, a-b-da, 2, 2, 2, 18, 165, 90, 163, 89, 90, 165, 1, 3.74071
45, 1, bw, attraction, a-b-da, 14, 2, 2, 19, 153, 83, 90, 165, 165, 90, 3, 5.86825
45, 1, bw, attraction, a-b-da, 14, 2, 2, 19, 153, 83, 90, 165, 165, 90, 1, 0.718973
45, 1, bw, attraction, a-b-db, 14, 3, 2, 20, 111, 181, 120, 195, 195, 120, 2, 14.6881
45, 1, bw, attraction, a-b-db, 14, 3, 2, 20, 111, 181, 120, 195, 195, 120, 1, 0.495412
45, 1, bw, attraction, a-b-da, 9, 1, 2, 21, 135, 60, 60, 135, 129, 57, 1, 5.0813
45, 1, bw, attraction, a-b-da, 9, 1, 2, 21, 135, 60, 60, 135, 129, 57, 3, 0.627663
45, 1, bw, attraction, a-b-da, 5, 3, 2, 22, 195, 120, 120, 195, 190, 117, 2, 10.3841
45, 1, bw, attraction, a-b-da, 5, 3, 2, 22, 195, 120, 120, 195, 190, 117, 3, 0.724793
45, 1, bw, attraction, a-b-da, 14, 3, 2, 23, 120, 195, 181, 111, 195, 120, 1, 7.31718
45, 1, bw, attraction, a-b-da, 14, 3, 2, 23, 120, 195, 181, 111, 195, 120, 2, 0.757594
45, 1, bw, attraction, a-b-db, 9, 3, 2, 24, 120, 195, 195, 120, 114, 186, 2, 9.26053
45, 1, bw, attraction, a-b-db, 9, 3, 2, 24, 120, 195, 195, 120, 114, 186, 3, 0.862346
45, 1, bw, filler, NA, 999, 999, 2, 25, 141, 191, 150, 97, 187, 154, 3, 5.94529
45, 1, bw, filler, NA, 999, 999, 2, 25, 141, 191, 150, 97, 187, 154, 2, 0.736747
45, 1, bw, attraction, a-b-da, 5, 1, 2, 26, 132, 58, 135, 60, 60, 135, 2, 8.21725
45, 1, bw, attraction, a-b-da, 5, 1, 2, 26, 132, 58, 135, 60, 60, 135, 3, 3.45334
45, 1, bw, attraction, a-b-db, 2, 2, 2, 27, 165, 90, 90, 165, 89, 163, 1, 14.9841
45, 1, bw, attraction, a-b-db, 2, 2, 2, 27, 165, 90, 90, 165, 89, 163, 3, 0.643352
45, 1, bw, attraction, a-b-db, 14, 2, 2, 28, 83, 153, 90, 165, 165, 90, 2, 3.25516
45, 1, bw, attraction, a-b-db, 14, 2, 2, 28, 83, 153, 90, 165, 165, 90, 1, 0.714757
45, 1, bw, filler, NA, 999, 999, 2, 29, 173, 149, 141, 188, 148, 160, 2, 5.51572
45, 1, bw, filler, NA, 999, 999, 2, 29, 173, 149, 141, 188, 148, 160, 3, 0.844865
45, 1, bw, attraction, a-b-db, 2, 1, 2, 30, 60, 135, 59, 134, 135, 60, 1, 2.28045
45, 1, bw, attraction, a-b-db, 2, 1, 2, 30, 60, 135, 59, 134, 135, 60, 3, 1.10767
45, 1, bw, attraction, a-b-da, 2, 3, 2, 31, 195, 120, 193, 119, 120, 195, 2, 5.02861
45, 1, bw, attraction, a-b-da, 2, 3, 2, 31, 195, 120, 193, 119, 120, 195, 1, 0.841077
45, 1, bw, catch, NA, 999, 999, 2, 32, 155, 160, 144, 111, 133, 62, 1, 1.02061
45, 1, bw, catch, NA, 999, 999, 2, 32, 155, 160, 144, 111, 133, 62, 3, 0.858951
45, 1, bw, filler, NA, 999, 999, 2, 33, 150, 66, 142, 77, 61, 66, 2, 2.68594
45, 1, bw, filler, NA, 999, 999, 2, 33, 150, 66, 142, 77, 61, 66, 3, 0.617189
45, 1, bw, filler, NA, 999, 999, 2, 34, 159, 84, 189, 104, 157, 94, 2, 1.59023
45, 1, bw, filler, NA, 999, 999, 2, 34, 159, 84, 189, 104, 157, 94, 1, 0.884957
45, 1, bw, filler, NA, 999, 999, 2, 35, 99, 181, 74, 93, 178, 117, 3, 2.03148
45, 1, bw, filler, NA, 999, 999, 2, 35, 99, 181, 74, 93, 178, 117, 2, 0.548832
45, 1, bw, attraction, a-b-db, 9, 2, 2, 36, 165, 90, 86, 157, 90, 165, 1, 6.74847
45, 1, bw, attraction, a-b-db, 9, 2, 2, 36, 165, 90, 86, 157, 90, 165, 2, 0.683635
45, 1, bw, attraction, a-b-db, 5, 3, 2, 37, 120, 195, 195, 120, 117, 190, 2, 8.04605
45, 1, bw, attraction, a-b-db, 5, 3, 2, 37, 120, 195, 195, 120, 117, 190, 3, 0.560777
45, 1, bw, filler, NA, 999, 999, 3, 1, 169, 135, 79, 99, 163, 107, 1, 1.22385
45, 1, bw, filler, NA, 999, 999, 3, 1, 169, 135, 79, 99, 163, 107, 2, 0.645465
45, 1, bw, filler, NA, 999, 999, 3, 2, 132, 67, 101, 107, 128, 138, 3, 2.07319
45, 1, bw, filler, NA, 999, 999, 3, 2, 132, 67, 101, 107, 128, 138, 1, 2.54057
45, 1, bw, attraction, a-b-db, 9, 3, 3, 3, 120, 195, 195, 120, 114, 186, 1, 10.6917
45, 1, bw, attraction, a-b-db, 9, 3, 3, 3, 120, 195, 195, 120, 114, 186, 3, 0.539756
45, 1, bw, attraction, a-b-db, 14, 3, 3, 4, 120, 195, 195, 120, 111, 181, 2, 2.72419
45, 1, bw, attraction, a-b-db, 14, 3, 3, 4, 120, 195, 195, 120, 111, 181, 3, 0.677264
45, 1, bw, filler, NA, 999, 999, 3, 5, 117, 183, 127, 166, 144, 174, 3, 1.88785
45, 1, bw, filler, NA, 999, 999, 3, 5, 117, 183, 127, 166, 144, 174, 2, 2.01906
45, 1, bw, attraction, a-b-da, 9, 2, 3, 6, 90, 165, 165, 90, 157, 86, 2, 11.4396
45, 1, bw, attraction, a-b-da, 9, 2, 3, 6, 90, 165, 165, 90, 157, 86, 3, 0.506061
45, 1, bw, attraction, a-b-da, 2, 2, 3, 7, 165, 90, 90, 165, 163, 89, 1, 152.204
45, 1, bw, attraction, a-b-da, 2, 2, 3, 7, 165, 90, 90, 165, 163, 89, 3, 0.484978
45, 1, bw, attraction, a-b-db, 14, 2, 3, 8, 165, 90, 83, 153, 90, 165, 1, 4.37536
45, 1, bw, attraction, a-b-db, 14, 2, 3, 8, 165, 90, 83, 153, 90, 165, 2, 0.462102
45, 1, bw, attraction, a-b-db, 9, 1, 3, 9, 57, 129, 60, 135, 135, 60, 3, 4.64119
45, 1, bw, attraction, a-b-db, 9, 1, 3, 9, 57, 129, 60, 135, 135, 60, 1, 0.932966
45, 1, bw, attraction, a-b-da, 9, 1, 3, 10, 129, 57, 135, 60, 60, 135, 2, 2.46926
45, 1, bw, attraction, a-b-da, 9, 1, 3, 10, 129, 57, 135, 60, 60, 135, 3, 0.633146
45, 1, bw, filler, NA, 999, 999, 3, 11, 152, 85, 112, 60, 96, 67, 1, 1.39753
45, 1, bw, filler, NA, 999, 999, 3, 11, 152, 85, 112, 60, 96, 67, 3, 0.67659
45, 1, bw, filler, NA, 999, 999, 3, 12, 173, 160, 192, 114, 121, 141, 1, 12.8789
45, 1, bw, filler, NA, 999, 999, 3, 12, 173, 160, 192, 114, 121, 141, 3, 0.654785
45, 1, bw, attraction, a-b-da, 2, 1, 3, 13, 134, 59, 135, 60, 60, 135, 2, 3.52259
45, 1, bw, attraction, a-b-da, 2, 1, 3, 13, 134, 59, 135, 60, 60, 135, 1, 3.77951
45, 1, bw, attraction, a-b-db, 5, 3, 3, 14, 195, 120, 120, 195, 117, 190, 1, 9.80878
45, 1, bw, attraction, a-b-db, 5, 3, 3, 14, 195, 120, 120, 195, 117, 190, 3, 0.500374
45, 1, bw, attraction, a-b-db, 5, 2, 3, 15, 90, 165, 88, 161, 165, 90, 1, 1.51814
45, 1, bw, attraction, a-b-db, 5, 2, 3, 15, 90, 165, 88, 161, 165, 90, 3, 3.34443
45, 1, bw, attraction, a-b-da, 14, 1, 3, 16, 125, 56, 60, 135, 135, 60, 3, 3.77531
45, 1, bw, attraction, a-b-da, 14, 1, 3, 16, 125, 56, 60, 135, 135, 60, 1, 1.00614
45, 1, bw, catch, NA, 999, 999, 3, 17, 128, 127, 124, 71, 172, 143, 3, 1.85169
45, 1, bw, catch, NA, 999, 999, 3, 17, 128, 127, 124, 71, 172, 143, 2, 1.16045
45, 1, bw, attraction, a-b-da, 5, 1, 3, 18, 132, 58, 60, 135, 135, 60, 3, 19.6313
45, 1, bw, attraction, a-b-da, 5, 1, 3, 18, 132, 58, 60, 135, 135, 60, 1, 0.839286
45, 1, bw, attraction, a-b-da, 14, 2, 3, 19, 153, 83, 90, 165, 165, 90, 2, 3.50758
45, 1, bw, attraction, a-b-da, 14, 2, 3, 19, 153, 83, 90, 165, 165, 90, 1, 0.605075
45, 1, bw, filler, NA, 999, 999, 3, 20, 67, 144, 119, 145, 81, 171, 2, 5.38681
45, 1, bw, filler, NA, 999, 999, 3, 20, 67, 144, 119, 145, 81, 171, 1, 0.58507
45, 1, bw, attraction, a-b-da, 9, 3, 3, 21, 120, 195, 195, 120, 186, 114, 2, 3.16749
45, 1, bw, attraction, a-b-da, 9, 3, 3, 21, 120, 195, 195, 120, 186, 114, 3, 0.751325
45, 1, bw, attraction, a-b-db, 5, 1, 3, 22, 135, 60, 60, 135, 58, 132, 1, 5.30282
45, 1, bw, attraction, a-b-db, 5, 1, 3, 22, 135, 60, 60, 135, 58, 132, 3, 0.608546
45, 1, bw, attraction, a-b-db, 2, 2, 3, 23, 165, 90, 90, 165, 89, 163, 1, 11.8536
45, 1, bw, attraction, a-b-db, 2, 2, 3, 23, 165, 90, 90, 165, 89, 163, 3, 0.679187
45, 1, bw, attraction, a-b-da, 14, 3, 3, 24, 195, 120, 120, 195, 181, 111, 2, 4.76175
45, 1, bw, attraction, a-b-da, 14, 3, 3, 24, 195, 120, 120, 195, 181, 111, 3, 1.08086
45, 1, bw, attraction, a-b-da, 5, 2, 3, 25, 165, 90, 161, 88, 90, 165, 2, 5.25906
45, 1, bw, attraction, a-b-da, 5, 2, 3, 25, 165, 90, 161, 88, 90, 165, 3, 2.83008
45, 1, bw, attraction, a-b-da, 2, 3, 3, 26, 193, 119, 120, 195, 195, 120, 2, 9.75384
45, 1, bw, attraction, a-b-da, 2, 3, 3, 26, 193, 119, 120, 195, 195, 120, 3, 3.4561
45, 1, bw, filler, NA, 999, 999, 3, 27, 175, 162, 169, 179, 80, 76, 2, 2.25891
45, 1, bw, filler, NA, 999, 999, 3, 27, 175, 162, 169, 179, 80, 76, 3, 0.638804
45, 1, bw, filler, NA, 999, 999, 3, 28, 189, 144, 57, 124, 159, 151, 1, 1.1712
45, 1, bw, filler, NA, 999, 999, 3, 28, 189, 144, 57, 124, 159, 151, 2, 0.643662
45, 1, bw, attraction, a-b-db, 2, 3, 3, 29, 120, 195, 195, 120, 119, 193, 2, 3.24722
45, 1, bw, attraction, a-b-db, 2, 3, 3, 29, 120, 195, 195, 120, 119, 193, 1, 0.803604
45, 1, bw, filler, NA, 999, 999, 3, 30, 80, 65, 180, 67, 138, 81, 2, 1.57722
45, 1, bw, filler, NA, 999, 999, 3, 30, 80, 65, 180, 67, 138, 81, 1, 0.776758
45, 1, bw, catch, NA, 999, 999, 3, 31, 190, 125, 146, 109, 115, 80, 1, 3.50308
45, 1, bw, catch, NA, 999, 999, 3, 31, 190, 125, 146, 109, 115, 80, 3, 0.937394
45, 1, bw, filler, NA, 999, 999, 3, 32, 110, 181, 170, 178, 185, 191, 3, 4.48174
45, 1, bw, filler, NA, 999, 999, 3, 32, 110, 181, 170, 178, 185, 191, 1, 0.628206
45, 1, bw, attraction, a-b-db, 2, 1, 3, 33, 135, 60, 60, 135, 59, 134, 1, 3.24056
45, 1, bw, attraction, a-b-db, 2, 1, 3, 33, 135, 60, 60, 135, 59, 134, 3, 0.868974
45, 1, bw, attraction, a-b-db, 14, 1, 3, 34, 56, 125, 60, 135, 135, 60, 2, 2.15991
45, 1, bw, attraction, a-b-db, 14, 1, 3, 34, 56, 125, 60, 135, 135, 60, 1, 3.18398
45, 1, bw, catch, NA, 999, 999, 3, 35, 163, 92, 137, 178, 80, 115, 2, 1.26146
45, 1, bw, catch, NA, 999, 999, 3, 35, 163, 92, 137, 178, 80, 115, 3, 0.841679
45, 1, bw, attraction, a-b-da, 5, 3, 3, 36, 120, 195, 195, 120, 190, 117, 2, 11.2614
45, 1, bw, attraction, a-b-da, 5, 3, 3, 36, 120, 195, 195, 120, 190, 117, 3, 2.87059
45, 1, bw, attraction, a-b-db, 9, 2, 3, 37, 90, 165, 165, 90, 86, 157, 2, 12.9849
45, 1, bw, attraction, a-b-db, 9, 2, 3, 37, 90, 165, 165, 90, 86, 157, 3, 0.660805
45, 1, bw, filler, NA, 999, 999, 4, 1, 147, 57, 155, 195, 94, 161, 2, 1.15193
45, 1, bw, filler, NA, 999, 999, 4, 1, 147, 57, 155, 195, 94, 161, 1, 1.80881
45, 1, bw, attraction, a-b-da, 14, 3, 4, 2, 120, 195, 195, 120, 181, 111, 2, 4.9335
45, 1, bw, attraction, a-b-da, 14, 3, 4, 2, 120, 195, 195, 120, 181, 111, 3, 0.629944
45, 1, bw, catch, NA, 999, 999, 4, 3, 79, 116, 116, 139, 146, 169, 3, 1.14642
45, 1, bw, catch, NA, 999, 999, 4, 3, 79, 116, 116, 139, 146, 169, 1, 0.79538
45, 1, bw, attraction, a-b-db, 2, 1, 4, 4, 59, 134, 135, 60, 60, 135, 2, 3.56911
45, 1, bw, attraction, a-b-db, 2, 1, 4, 4, 59, 134, 135, 60, 60, 135, 3, 3.68848
45, 1, bw, filler, NA, 999, 999, 4, 5, 71, 151, 141, 195, 122, 138, 2, 0.921974
45, 1, bw, filler, NA, 999, 999, 4, 5, 71, 151, 141, 195, 122, 138, 1, 0.699733
45, 1, bw, attraction, a-b-da, 2, 2, 4, 6, 90, 165, 163, 89, 165, 90, 1, 9.64544
45, 1, bw, attraction, a-b-da, 2, 2, 4, 6, 90, 165, 163, 89, 165, 90, 3, 0.983652
45, 1, bw, filler, NA, 999, 999, 4, 7, 133, 123, 63, 173, 192, 130, 3, 1.16592
45, 1, bw, filler, NA, 999, 999, 4, 7, 133, 123, 63, 173, 192, 130, 2, 2.46223
45, 1, bw, attraction, a-b-db, 5, 2, 4, 8, 88, 161, 90, 165, 165, 90, 2, 4.34485
45, 1, bw, attraction, a-b-db, 5, 2, 4, 8, 88, 161, 90, 165, 165, 90, 3, 4.08082
45, 1, bw, attraction, a-b-da, 14, 1, 4, 9, 125, 56, 135, 60, 60, 135, 2, 4.86611
45, 1, bw, attraction, a-b-da, 14, 1, 4, 9, 125, 56, 135, 60, 60, 135, 1, 1.19711
45, 1, bw, attraction, a-b-da, 2, 3, 4, 10, 193, 119, 120, 195, 195, 120, 3, 10.1067
45, 1, bw, attraction, a-b-da, 2, 3, 4, 10, 193, 119, 120, 195, 195, 120, 1, 0.658926
45, 1, bw, attraction, a-b-db, 2, 3, 4, 11, 119, 193, 195, 120, 120, 195, 2, 11.894
45, 1, bw, attraction, a-b-db, 2, 3, 4, 11, 119, 193, 195, 120, 120, 195, 1, 0.613503
45, 1, bw, attraction, a-b-da, 5, 2, 4, 12, 90, 165, 161, 88, 165, 90, 2, 3.31462
45, 1, bw, attraction, a-b-da, 5, 2, 4, 12, 90, 165, 161, 88, 165, 90, 1, 3.26821
45, 1, bw, filler, NA, 999, 999, 4, 13, 168, 127, 135, 164, 83, 185, 2, 6.18249
45, 1, bw, filler, NA, 999, 999, 4, 13, 168, 127, 135, 164, 83, 185, 3, 1.94061
45, 1, bw, filler, NA, 999, 999, 4, 14, 72, 84, 184, 137, 69, 195, 2, 2.58796
45, 1, bw, filler, NA, 999, 999, 4, 14, 72, 84, 184, 137, 69, 195, 1, 0.691173
45, 1, bw, attraction, a-b-da, 2, 1, 4, 15, 60, 135, 135, 60, 134, 59, 1, 6.75679
45, 1, bw, attraction, a-b-da, 2, 1, 4, 15, 60, 135, 135, 60, 134, 59, 3, 3.17139
45, 1, bw, attraction, a-b-db, 5, 3, 4, 16, 195, 120, 117, 190, 120, 195, 1, 5.66566
45, 1, bw, attraction, a-b-db, 5, 3, 4, 16, 195, 120, 117, 190, 120, 195, 2, 2.27655
45, 1, bw, filler, NA, 999, 999, 4, 17, 87, 95, 86, 159, 98, 191, 3, 1.39029
45, 1, bw, filler, NA, 999, 999, 4, 17, 87, 95, 86, 159, 98, 191, 1, 0.637226
45, 1, bw, attraction, a-b-da, 9, 1, 4, 18, 129, 57, 135, 60, 60, 135, 2, 2.30579
45, 1, bw, attraction, a-b-da, 9, 1, 4, 18, 129, 57, 135, 60, 60, 135, 1, 1.81161
45, 1, bw, attraction, a-b-da, 14, 2, 4, 19, 153, 83, 90, 165, 165, 90, 3, 8.80827
45, 1, bw, attraction, a-b-da, 14, 2, 4, 19, 153, 83, 90, 165, 165, 90, 1, 0.660102
45, 1, bw, attraction, a-b-da, 9, 3, 4, 20, 186, 114, 120, 195, 195, 120, 2, 5.24723
45, 1, bw, attraction, a-b-da, 9, 3, 4, 20, 186, 114, 120, 195, 195, 120, 1, 0.698811
45, 1, bw, attraction, a-b-db, 14, 3, 4, 21, 120, 195, 195, 120, 111, 181, 2, 8.50861
45, 1, bw, attraction, a-b-db, 14, 3, 4, 21, 120, 195, 195, 120, 111, 181, 3, 0.588581
45, 1, bw, attraction, a-b-db, 9, 3, 4, 22, 114, 186, 120, 195, 195, 120, 3, 6.99508
45, 1, bw, attraction, a-b-db, 9, 3, 4, 22, 114, 186, 120, 195, 195, 120, 1, 0.632136
45, 1, bw, filler, NA, 999, 999, 4, 23, 144, 138, 81, 111, 147, 110, 1, 1.1726
45, 1, bw, filler, NA, 999, 999, 4, 23, 144, 138, 81, 111, 147, 110, 2, 1.01218
45, 1, bw, attraction, a-b-da, 5, 1, 4, 24, 60, 135, 135, 60, 132, 58, 2, 4.43301
45, 1, bw, attraction, a-b-da, 5, 1, 4, 24, 60, 135, 135, 60, 132, 58, 3, 0.797619
45, 1, bw, attraction, a-b-db, 9, 2, 4, 25, 165, 90, 90, 165, 86, 157, 1, 7.05937
45, 1, bw, attraction, a-b-db, 9, 2, 4, 25, 165, 90, 90, 165, 86, 157, 3, 0.637763
45, 1, bw, filler, NA, 999, 999, 4, 26, 146, 155, 164, 181, 80, 173, 2, 1.10615
45, 1, bw, filler, NA, 999, 999, 4, 26, 146, 155, 164, 181, 80, 173, 3, 0.996518
45, 1, bw, catch, NA, 999, 999, 4, 27, 90, 165, 111, 84, 176, 139, 3, 1.59419
45, 1, bw, catch, NA, 999, 999, 4, 27, 90, 165, 111, 84, 176, 139, 2, 0.576952
45, 1, bw, catch, NA, 999, 999, 4, 28, 149, 106, 151, 164, 68, 127, 2, 1.92741
45, 1, bw, catch, NA, 999, 999, 4, 28, 149, 106, 151, 164, 68, 127, 3, 0.616757
45, 1, bw, filler, NA, 999, 999, 4, 29, 65, 182, 162, 190, 195, 164, 2, 6.58989
45, 1, bw, filler, NA, 999, 999, 4, 29, 65, 182, 162, 190, 195, 164, 1, 0.563066
45, 1, bw, attraction, a-b-db, 5, 1, 4, 30, 60, 135, 135, 60, 58, 132, 2, 9.93028
45, 1, bw, attraction, a-b-db, 5, 1, 4, 30, 60, 135, 135, 60, 58, 132, 3, 0.921121
45, 1, bw, attraction, a-b-db, 14, 1, 4, 31, 56, 125, 60, 135, 135, 60, 2, 3.85009
45, 1, bw, attraction, a-b-db, 14, 1, 4, 31, 56, 125, 60, 135, 135, 60, 1, 0.662201
45, 1, bw, attraction, a-b-da, 5, 3, 4, 32, 120, 195, 195, 120, 190, 117, 2, 2.48931
45, 1, bw, attraction, a-b-da, 5, 3, 4, 32, 120, 195, 195, 120, 190, 117, 3, 3.09174
45, 1, bw, attraction, a-b-db, 2, 2, 4, 33, 165, 90, 90, 165, 89, 163, 1, 8.61282
45, 1, bw, attraction, a-b-db, 2, 2, 4, 33, 165, 90, 90, 165, 89, 163, 3, 0.71264
45, 1, bw, attraction, a-b-db, 9, 1, 4, 34, 135, 60, 60, 135, 57, 129, 1, 3.77764
45, 1, bw, attraction, a-b-db, 9, 1, 4, 34, 135, 60, 60, 135, 57, 129, 3, 0.880582
45, 1, bw, attraction, a-b-da, 9, 2, 4, 35, 165, 90, 90, 165, 157, 86, 1, 6.11484
45, 1, bw, attraction, a-b-da, 9, 2, 4, 35, 165, 90, 90, 165, 157, 86, 3, 0.955641
45, 1, bw, filler, NA, 999, 999, 4, 36, 144, 159, 192, 137, 133, 65, 2, 4.05114
45, 1, bw, filler, NA, 999, 999, 4, 36, 144, 159, 192, 137, 133, 65, 3, 0.687329
45, 1, bw, attraction, a-b-db, 14, 2, 4, 37, 90, 165, 83, 153, 165, 90, 1, 3.32956
45, 1, bw, attraction, a-b-db, 14, 2, 4, 37, 90, 165, 83, 153, 165, 90, 2, 1.58659
45, 1, bw, attraction, a-b-da, 2, 2, 5, 1, 163, 89, 165, 90, 90, 165, 2, 3.63937
45, 1, bw, attraction, a-b-da, 2, 2, 5, 1, 163, 89, 165, 90, 90, 165, 3, 3.91544
45, 1, bw, attraction, a-b-db, 2, 3, 5, 2, 195, 120, 119, 193, 120, 195, 3, 4.55558
45, 1, bw, attraction, a-b-db, 2, 3, 5, 2, 195, 120, 119, 193, 120, 195, 1, 0.723474
45, 1, bw, filler, NA, 999, 999, 5, 3, 125, 185, 84, 151, 185, 154, 3, 46.1079
45, 1, bw, filler, NA, 999, 999, 5, 3, 125, 185, 84, 151, 185, 154, 2, 0.528748
45, 1, bw, attraction, a-b-db, 5, 1, 5, 4, 135, 60, 58, 132, 60, 135, 1, 19.4013
45, 1, bw, attraction, a-b-db, 5, 1, 5, 4, 135, 60, 58, 132, 60, 135, 3, 0.978361
45, 1, bw, attraction, a-b-db, 14, 3, 5, 5, 195, 120, 111, 181, 120, 195, 1, 2.96075
45, 1, bw, attraction, a-b-db, 14, 3, 5, 5, 195, 120, 111, 181, 120, 195, 2, 1.40047
45, 1, bw, catch, NA, 999, 999, 5, 6, 109, 146, 118, 77, 146, 169, 3, 0.989903
45, 1, bw, catch, NA, 999, 999, 5, 6, 109, 146, 118, 77, 146, 169, 2, 0.580911
45, 1, bw, attraction, a-b-db, 2, 2, 5, 7, 89, 163, 90, 165, 165, 90, 1, 2.39536
45, 1, bw, attraction, a-b-db, 2, 2, 5, 7, 89, 163, 90, 165, 165, 90, 3, 3.17001
45, 1, bw, filler, NA, 999, 999, 5, 8, 73, 56, 73, 97, 61, 95, 2, 1.56024
45, 1, bw, filler, NA, 999, 999, 5, 8, 73, 56, 73, 97, 61, 95, 1, 0.904401
45, 1, bw, catch, NA, 999, 999, 5, 9, 145, 170, 87, 108, 155, 100, 1, 1.16197
45, 1, bw, catch, NA, 999, 999, 5, 9, 145, 170, 87, 108, 155, 100, 2, 0.68228
45, 1, bw, filler, NA, 999, 999, 5, 10, 111, 56, 88, 100, 189, 79, 3, 2.53258
45, 1, bw, filler, NA, 999, 999, 5, 10, 111, 56, 88, 100, 189, 79, 1, 1.18186
45, 1, bw, attraction, a-b-da, 5, 3, 5, 11, 120, 195, 190, 117, 195, 120, 2, 4.05206
45, 1, bw, attraction, a-b-da, 5, 3, 5, 11, 120, 195, 190, 117, 195, 120, 1, 4.20025
45, 1, bw, attraction, a-b-db, 9, 1, 5, 12, 57, 129, 135, 60, 60, 135, 2, 4.20479
45, 1, bw, attraction, a-b-db, 9, 1, 5, 12, 57, 129, 135, 60, 60, 135, 1, 0.586816
45, 1, bw, attraction, a-b-db, 5, 3, 5, 13, 195, 120, 117, 190, 120, 195, 3, 5.89715
45, 1, bw, attraction, a-b-db, 5, 3, 5, 13, 195, 120, 117, 190, 120, 195, 2, 2.09874
45, 1, bw, attraction, a-b-db, 9, 2, 5, 14, 86, 157, 90, 165, 165, 90, 2, 5.49999
45, 1, bw, attraction, a-b-db, 9, 2, 5, 14, 86, 157, 90, 165, 165, 90, 1, 0.981626
45, 1, bw, attraction, a-b-da, 9, 1, 5, 15, 60, 135, 129, 57, 135, 60, 2, 2.58779
45, 1, bw, attraction, a-b-da, 9, 1, 5, 15, 60, 135, 129, 57, 135, 60, 1, 0.707029
45, 1, bw, filler, NA, 999, 999, 5, 16, 192, 150, 75, 136, 145, 106, 1, 1.37996
45, 1, bw, filler, NA, 999, 999, 5, 16, 192, 150, 75, 136, 145, 106, 2, 0.995609
45, 1, bw, filler, NA, 999, 999, 5, 17, 63, 165, 114, 65, 170, 107, 3, 1.04128
45, 1, bw, filler, NA, 999, 999, 5, 17, 63, 165, 114, 65, 170, 107, 2, 0.598148
45, 1, bw, attraction, a-b-da, 14, 2, 5, 18, 153, 83, 165, 90, 90, 165, 2, 1.90794
45, 1, bw, attraction, a-b-da, 14, 2, 5, 18, 153, 83, 165, 90, 90, 165, 3, 2.54995
45, 1, bw, attraction, a-b-da, 9, 2, 5, 19, 165, 90, 157, 86, 90, 165, 1, 2.9412
45, 1, bw, attraction, a-b-da, 9, 2, 5, 19, 165, 90, 157, 86, 90, 165, 3, 1.57364
45, 1, bw, catch, NA, 999, 999, 5, 20, 125, 70, 133, 182, 147, 108, 2, 1.0117
45, 1, bw, catch, NA, 999, 999, 5, 20, 125, 70, 133, 182, 147, 108, 1, 0.689885
45, 1, bw, attraction, a-b-da, 5, 1, 5, 21, 60, 135, 135, 60, 132, 58, 1, 5.89175
45, 1, bw, attraction, a-b-da, 5, 1, 5, 21, 60, 135, 135, 60, 132, 58, 3, 0.765098
45, 1, bw, attraction, a-b-db, 14, 1, 5, 22, 56, 125, 135, 60, 60, 135, 3, 1.62824
45, 1, bw, attraction, a-b-db, 14, 1, 5, 22, 56, 125, 135, 60, 60, 135, 1, 0.849572
45, 1, bw, attraction, a-b-da, 14, 1, 5, 23, 135, 60, 60, 135, 125, 56, 1, 6.0775
45, 1, bw, attraction, a-b-da, 14, 1, 5, 23, 135, 60, 60, 135, 125, 56, 3, 0.599463
45, 1, bw, attraction, a-b-da, 2, 1, 5, 24, 60, 135, 135, 60, 134, 59, 2, 3.38912
45, 1, bw, attraction, a-b-da, 2, 1, 5, 24, 60, 135, 135, 60, 134, 59, 1, 3.05935
45, 1, bw, attraction, a-b-db, 5, 2, 5, 25, 88, 161, 165, 90, 90, 165, 2, 3.21366
45, 1, bw, attraction, a-b-db, 5, 2, 5, 25, 88, 161, 165, 90, 90, 165, 3, 0.475299
45, 1, bw, attraction, a-b-da, 14, 3, 5, 26, 195, 120, 181, 111, 120, 195, 3, 3.67786
45, 1, bw, attraction, a-b-da, 14, 3, 5, 26, 195, 120, 181, 111, 120, 195, 2, 1.18472
45, 1, bw, filler, NA, 999, 999, 5, 27, 127, 107, 127, 110, 131, 61, 2, 6.81492
45, 1, bw, filler, NA, 999, 999, 5, 27, 127, 107, 127, 110, 131, 61, 3, 0.627398
45, 1, bw, attraction, a-b-da, 9, 3, 5, 28, 120, 195, 195, 120, 186, 114, 2, 7.30391
45, 1, bw, attraction, a-b-da, 9, 3, 5, 28, 120, 195, 195, 120, 186, 114, 3, 0.50481
45, 1, bw, attraction, a-b-da, 2, 3, 5, 29, 195, 120, 193, 119, 120, 195, 2, 5.50653
45, 1, bw, attraction, a-b-da, 2, 3, 5, 29, 195, 120, 193, 119, 120, 195, 3, 1.05161
45, 1, bw, filler, NA, 999, 999, 5, 30, 59, 182, 109, 131, 180, 140, 3, 1.23115
45, 1, bw, filler, NA, 999, 999, 5, 30, 59, 182, 109, 131, 180, 140, 1, 3.40482
45, 1, bw, attraction, a-b-db, 14, 2, 5, 31, 90, 165, 165, 90, 83, 153, 2, 2.92958
45, 1, bw, attraction, a-b-db, 14, 2, 5, 31, 90, 165, 165, 90, 83, 153, 3, 0.562676
45, 1, bw, attraction, a-b-da, 5, 2, 5, 32, 90, 165, 161, 88, 165, 90, 3, 7.40981
45, 1, bw, attraction, a-b-da, 5, 2, 5, 32, 90, 165, 161, 88, 165, 90, 1, 3.4301
45, 1, bw, attraction, a-b-db, 2, 1, 5, 33, 59, 134, 60, 135, 135, 60, 1, 4.0816
45, 1, bw, attraction, a-b-db, 2, 1, 5, 33, 59, 134, 60, 135, 135, 60, 3, 0.588371
45, 1, bw, filler, NA, 999, 999, 5, 34, 99, 141, 111, 147, 75, 92, 2, 1.09879
45, 1, bw, filler, NA, 999, 999, 5, 34, 99, 141, 111, 147, 75, 92, 3, 0.693717
45, 1, bw, attraction, a-b-db, 9, 3, 5, 35, 195, 120, 114, 186, 120, 195, 3, 3.19147
45, 1, bw, attraction, a-b-db, 9, 3, 5, 35, 195, 120, 114, 186, 120, 195, 2, 0.56572
45, 1, bw, filler, NA, 999, 999, 5, 36, 175, 141, 192, 70, 64, 69, 1, 1.34086
45, 1, bw, filler, NA, 999, 999, 5, 36, 175, 141, 192, 70, 64, 69, 3, 0.549766
45, 1, bw, filler, NA, 999, 999, 5, 37, 127, 71, 124, 119, 110, 110, 2, 1.58946
45, 1, bw, filler, NA, 999, 999, 5, 37, 127, 71, 124, 119, 110, 110, 1, 1.32444
45, 1, bw, attraction, a-b-da, 2, 1, 6, 1, 60, 135, 134, 59, 135, 60, 2, 3.97244
45, 1, bw, attraction, a-b-da, 2, 1, 6, 1, 60, 135, 134, 59, 135, 60, 1, 4.34728
45, 1, bw, attraction, a-b-db, 14, 3, 6, 2, 195, 120, 120, 195, 111, 181, 2, 3.13007
45, 1, bw, attraction, a-b-db, 14, 3, 6, 2, 195, 120, 120, 195, 111, 181, 3, 1.77092
45, 1, bw, filler, NA, 999, 999, 6, 3, 180, 147, 169, 180, 173, 80, 2, 0.873475
45, 1, bw, filler, NA, 999, 999, 6, 3, 180, 147, 169, 180, 173, 80, 3, 0.8772
45, 1, bw, attraction, a-b-db, 9, 3, 6, 4, 120, 195, 195, 120, 114, 186, 2, 3.32772
45, 1, bw, attraction, a-b-db, 9, 3, 6, 4, 120, 195, 195, 120, 114, 186, 3, 0.424535
45, 1, bw, attraction, a-b-db, 2, 2, 6, 5, 90, 165, 165, 90, 89, 163, 2, 5.88499
45, 1, bw, attraction, a-b-db, 2, 2, 6, 5, 90, 165, 165, 90, 89, 163, 3, 0.455196
45, 1, bw, attraction, a-b-db, 5, 2, 6, 6, 165, 90, 88, 161, 90, 165, 1, 5.33092
45, 1, bw, attraction, a-b-db, 5, 2, 6, 6, 165, 90, 88, 161, 90, 165, 3, 0.579274
45, 1, bw, catch, NA, 999, 999, 6, 7, 163, 152, 113, 142, 75, 120, 1, 0.865726
45, 1, bw, catch, NA, 999, 999, 6, 7, 163, 152, 113, 142, 75, 120, 3, 0.710057
45, 1, bw, attraction, a-b-da, 2, 3, 6, 8, 120, 195, 195, 120, 193, 119, 1, 5.51097
45, 1, bw, attraction, a-b-da, 2, 3, 6, 8, 120, 195, 195, 120, 193, 119, 3, 0.631988
45, 1, bw, attraction, a-b-da, 5, 2, 6, 9, 165, 90, 90, 165, 161, 88, 1, 2.17274
45, 1, bw, attraction, a-b-da, 5, 2, 6, 9, 165, 90, 90, 165, 161, 88, 3, 0.467863
45, 1, bw, filler, NA, 999, 999, 6, 10, 146, 182, 147, 112, 165, 116, 1, 1.40674
45, 1, bw, filler, NA, 999, 999, 6, 10, 146, 182, 147, 112, 165, 116, 2, 2.99695
45, 1, bw, attraction, a-b-da, 9, 3, 6, 11, 186, 114, 120, 195, 195, 120, 2, 5.96208
45, 1, bw, attraction, a-b-da, 9, 3, 6, 11, 186, 114, 120, 195, 195, 120, 3, 1.17681
45, 1, bw, attraction, a-b-da, 5, 1, 6, 12, 135, 60, 60, 135, 132, 58, 1, 7.88693
45, 1, bw, attraction, a-b-da, 5, 1, 6, 12, 135, 60, 60, 135, 132, 58, 3, 0.872616
45, 1, bw, attraction, a-b-db, 2, 3, 6, 13, 195, 120, 119, 193, 120, 195, 2, 5.97954
45, 1, bw, attraction, a-b-db, 2, 3, 6, 13, 195, 120, 119, 193, 120, 195, 3, 0.86564
45, 1, bw, attraction, a-b-da, 2, 2, 6, 14, 163, 89, 165, 90, 90, 165, 2, 4.23665
45, 1, bw, attraction, a-b-da, 2, 2, 6, 14, 163, 89, 165, 90, 90, 165, 3, 0.769314
45, 1, bw, attraction, a-b-db, 5, 3, 6, 15, 117, 190, 195, 120, 120, 195, 2, 3.91231
45, 1, bw, attraction, a-b-db, 5, 3, 6, 15, 117, 190, 195, 120, 120, 195, 1, 0.985815
45, 1, bw, filler, NA, 999, 999, 6, 16, 90, 186, 71, 98, 69, 111, 1, 1.30409
45, 1, bw, filler, NA, 999, 999, 6, 16, 90, 186, 71, 98, 69, 111, 3, 1.16302
45, 1, bw, filler, NA, 999, 999, 6, 17, 143, 83, 169, 117, 162, 114, 2, 2.60983
45, 1, bw, filler, NA, 999, 999, 6, 17, 143, 83, 169, 117, 162, 114, 1, 0.55974
45, 1, bw, attraction, a-b-db, 5, 1, 6, 18, 135, 60, 60, 135, 58, 132, 1, 51.0547
45, 1, bw, attraction, a-b-db, 5, 1, 6, 18, 135, 60, 60, 135, 58, 132, 3, 0.524128
45, 1, bw, filler, NA, 999, 999, 6, 19, 162, 175, 137, 61, 97, 96, 1, 0.764493
45, 1, bw, filler, NA, 999, 999, 6, 19, 162, 175, 137, 61, 97, 96, 3, 2.24508
45, 1, bw, attraction, a-b-db, 2, 1, 6, 20, 59, 134, 60, 135, 135, 60, 3, 4.42416
45, 1, bw, attraction, a-b-db, 2, 1, 6, 20, 59, 134, 60, 135, 135, 60, 2, 0.996827
45, 1, bw, filler, NA, 999, 999, 6, 21, 141, 169, 141, 87, 183, 160, 3, 2.22654
45, 1, bw, filler, NA, 999, 999, 6, 21, 141, 169, 141, 87, 183, 160, 2, 0.575734
45, 1, bw, filler, NA, 999, 999, 6, 22, 70, 155, 164, 135, 182, 107, 2, 5.13415
45, 1, bw, filler, NA, 999, 999, 6, 22, 70, 155, 164, 135, 182, 107, 1, 0.646577
45, 1, bw, attraction, a-b-da, 9, 2, 6, 23, 165, 90, 157, 86, 90, 165, 1, 3.16219
45, 1, bw, attraction, a-b-da, 9, 2, 6, 23, 165, 90, 157, 86, 90, 165, 2, 2.86584
45, 1, bw, filler, NA, 999, 999, 6, 24, 157, 58, 187, 148, 56, 142, 2, 1.08418
45, 1, bw, filler, NA, 999, 999, 6, 24, 157, 58, 187, 148, 56, 142, 3, 0.67991
45, 1, bw, attraction, a-b-da, 14, 3, 6, 25, 195, 120, 120, 195, 181, 111, 1, 2.33029
45, 1, bw, attraction, a-b-da, 14, 3, 6, 25, 195, 120, 120, 195, 181, 111, 3, 0.483571
45, 1, bw, filler, NA, 999, 999, 6, 26, 186, 82, 142, 86, 131, 86, 1, 1.35007
45, 1, bw, filler, NA, 999, 999, 6, 26, 186, 82, 142, 86, 131, 86, 3, 0.710865
45, 1, bw, attraction, a-b-db, 9, 1, 6, 27, 57, 129, 60, 135, 135, 60, 2, 4.00005
45, 1, bw, attraction, a-b-db, 9, 1, 6, 27, 57, 129, 60, 135, 135, 60, 1, 0.902098
45, 1, bw, catch, NA, 999, 999, 6, 28, 116, 79, 130, 185, 134, 121, 2, 0.975708
45, 1, bw, catch, NA, 999, 999, 6, 28, 116, 79, 130, 185, 134, 121, 1, 0.535267
45, 1, bw, attraction, a-b-da, 14, 2, 6, 29, 90, 165, 165, 90, 153, 83, 2, 1.76788
45, 1, bw, attraction, a-b-da, 14, 2, 6, 29, 90, 165, 165, 90, 153, 83, 3, 0.423912
45, 1, bw, attraction, a-b-da, 14, 1, 6, 30, 135, 60, 60, 135, 125, 56, 1, 4.70835
45, 1, bw, attraction, a-b-da, 14, 1, 6, 30, 135, 60, 60, 135, 125, 56, 3, 0.79746
45, 1, bw, attraction, a-b-db, 14, 2, 6, 31, 165, 90, 90, 165, 83, 153, 1, 2.5633
45, 1, bw, attraction, a-b-db, 14, 2, 6, 31, 165, 90, 90, 165, 83, 153, 3, 0.907093
45, 1, bw, attraction, a-b-db, 9, 2, 6, 32, 86, 157, 165, 90, 90, 165, 2, 2.40397
45, 1, bw, attraction, a-b-db, 9, 2, 6, 32, 86, 157, 165, 90, 90, 165, 3, 3.6666
45, 1, bw, filler, NA, 999, 999, 6, 33, 84, 186, 68, 137, 176, 157, 3, 1.02872
45, 1, bw, filler, NA, 999, 999, 6, 33, 84, 186, 68, 137, 176, 157, 2, 0.482335
45, 1, bw, attraction, a-b-da, 5, 3, 6, 34, 190, 117, 195, 120, 120, 195, 2, 2.10891
45, 1, bw, attraction, a-b-da, 5, 3, 6, 34, 190, 117, 195, 120, 120, 195, 1, 2.90282
45, 1, bw, attraction, a-b-da, 9, 1, 6, 35, 135, 60, 60, 135, 129, 57, 1, 3.18397
45, 1, bw, attraction, a-b-da, 9, 1, 6, 35, 135, 60, 60, 135, 129, 57, 3, 0.566785
45, 1, bw, attraction, a-b-db, 14, 1, 6, 36, 56, 125, 135, 60, 60, 135, 2, 3.98191
45, 1, bw, attraction, a-b-db, 14, 1, 6, 36, 56, 125, 135, 60, 60, 135, 3, 3.82876
45, 1, bw, catch, NA, 999, 999, 6, 37, 140, 175, 131, 64, 98, 157, 1, 0.880041
45, 1, bw, catch, NA, 999, 999, 6, 37, 140, 175, 131, 64, 98, 157, 2, 0.627751
45, 1, bw, attraction, a-b-da, 9, 2, 7, 1, 165, 90, 157, 86, 90, 165, 2, 2.3442
45, 1, bw, attraction, a-b-da, 9, 2, 7, 1, 165, 90, 157, 86, 90, 165, 3, 1.66475
45, 1, bw, attraction, a-b-db, 2, 2, 7, 2, 89, 163, 165, 90, 90, 165, 2, 4.25956
45, 1, bw, attraction, a-b-db, 2, 2, 7, 2, 89, 163, 165, 90, 90, 165, 3, 0.542804
45, 1, bw, attraction, a-b-da, 2, 1, 7, 3, 134, 59, 135, 60, 60, 135, 2, 9.72654
45, 1, bw, attraction, a-b-da, 2, 1, 7, 3, 134, 59, 135, 60, 60, 135, 3, 0.53361
45, 1, bw, catch, NA, 999, 999, 7, 4, 92, 163, 166, 149, 92, 103, 2, 5.038
45, 1, bw, catch, NA, 999, 999, 7, 4, 92, 163, 166, 149, 92, 103, 3, 0.506294
45, 1, bw, attraction, a-b-da, 9, 1, 7, 5, 129, 57, 135, 60, 60, 135, 2, 2.49212
45, 1, bw, attraction, a-b-da, 9, 1, 7, 5, 129, 57, 135, 60, 60, 135, 1, 1.23068
45, 1, bw, attraction, a-b-db, 9, 1, 7, 6, 57, 129, 135, 60, 60, 135, 2, 2.75494
45, 1, bw, attraction, a-b-db, 9, 1, 7, 6, 57, 129, 135, 60, 60, 135, 3, 0.634827
45, 1, bw, attraction, a-b-db, 5, 1, 7, 7, 58, 132, 135, 60, 60, 135, 2, 3.35905
45, 1, bw, attraction, a-b-db, 5, 1, 7, 7, 58, 132, 135, 60, 60, 135, 3, 0.79065
45, 1, bw, attraction, a-b-db, 2, 3, 7, 8, 195, 120, 120, 195, 119, 193, 2, 2.42046
45, 1, bw, attraction, a-b-db, 2, 3, 7, 8, 195, 120, 120, 195, 119, 193, 3, 0.498333
45, 1, bw, attraction, a-b-da, 14, 1, 7, 9, 125, 56, 60, 135, 135, 60, 3, 3.26003
45, 1, bw, attraction, a-b-da, 14, 1, 7, 9, 125, 56, 60, 135, 135, 60, 1, 0.495719
45, 1, bw, catch, NA, 999, 999, 7, 10, 130, 65, 120, 135, 121, 194, 3, 1.52139
45, 1, bw, catch, NA, 999, 999, 7, 10, 130, 65, 120, 135, 121, 194, 1, 0.563562
45, 1, bw, attraction, a-b-da, 2, 3, 7, 11, 195, 120, 120, 195, 193, 119, 3, 8.65881
45, 1, bw, attraction, a-b-da, 2, 3, 7, 11, 195, 120, 120, 195, 193, 119, 1, 3.89266
45, 1, bw, attraction, a-b-da, 14, 2, 7, 12, 153, 83, 165, 90, 90, 165, 2, 2.1174
45, 1, bw, attraction, a-b-da, 14, 2, 7, 12, 153, 83, 165, 90, 90, 165, 3, 2.32736
45, 1, bw, attraction, a-b-da, 5, 2, 7, 13, 161, 88, 90, 165, 165, 90, 3, 3.02322
45, 1, bw, attraction, a-b-da, 5, 2, 7, 13, 161, 88, 90, 165, 165, 90, 2, 0.804265
45, 1, bw, attraction, a-b-db, 14, 3, 7, 14, 111, 181, 120, 195, 195, 120, 2, 5.44987
45, 1, bw, attraction, a-b-db, 14, 3, 7, 14, 111, 181, 120, 195, 195, 120, 1, 0.557615
45, 1, bw, attraction, a-b-da, 2, 2, 7, 15, 165, 90, 90, 165, 163, 89, 2, 7.69268
45, 1, bw, attraction, a-b-da, 2, 2, 7, 15, 165, 90, 90, 165, 163, 89, 3, 1.76566
45, 1, bw, attraction, a-b-db, 9, 3, 7, 16, 120, 195, 195, 120, 114, 186, 2, 2.56424
45, 1, bw, attraction, a-b-db, 9, 3, 7, 16, 120, 195, 195, 120, 114, 186, 3, 0.476235
45, 1, bw, filler, NA, 999, 999, 7, 17, 145, 93, 132, 138, 193, 76, 2, 3.14262
45, 1, bw, filler, NA, 999, 999, 7, 17, 145, 93, 132, 138, 193, 76, 1, 2.45494
45, 1, bw, filler, NA, 999, 999, 7, 18, 104, 117, 188, 192, 187, 152, 2, 1.20221
45, 1, bw, filler, NA, 999, 999, 7, 18, 104, 117, 188, 192, 187, 152, 1, 0.560993
45, 1, bw, filler, NA, 999, 999, 7, 19, 168, 56, 177, 147, 189, 118, 2, 1.1922
45, 1, bw, filler, NA, 999, 999, 7, 19, 168, 56, 177, 147, 189, 118, 1, 0.671077
45, 1, bw, filler, NA, 999, 999, 7, 20, 101, 143, 74, 142, 153, 137, 3, 1.16221
45, 1, bw, filler, NA, 999, 999, 7, 20, 101, 143, 74, 142, 153, 137, 2, 1.09046
45, 1, bw, attraction, a-b-da, 9, 3, 7, 21, 195, 120, 120, 195, 186, 114, 2, 3.76404
45, 1, bw, attraction, a-b-da, 9, 3, 7, 21, 195, 120, 120, 195, 186, 114, 3, 1.10749
45, 1, bw, attraction, a-b-da, 5, 1, 7, 22, 132, 58, 60, 135, 135, 60, 2, 3.60445
45, 1, bw, attraction, a-b-da, 5, 1, 7, 22, 132, 58, 60, 135, 135, 60, 3, 0.402764
45, 1, bw, filler, NA, 999, 999, 7, 23, 182, 87, 181, 161, 138, 157, 2, 0.968444
45, 1, bw, filler, NA, 999, 999, 7, 23, 182, 87, 181, 161, 138, 157, 1, 1.13676
45, 1, bw, attraction, a-b-db, 14, 2, 7, 24, 165, 90, 90, 165, 83, 153, 2, 5.83306
45, 1, bw, attraction, a-b-db, 14, 2, 7, 24, 165, 90, 90, 165, 83, 153, 3, 0.805126
45, 1, bw, filler, NA, 999, 999, 7, 25, 94, 71, 146, 179, 177, 152, 2, 2.01876
45, 1, bw, filler, NA, 999, 999, 7, 25, 94, 71, 146, 179, 177, 152, 1, 0.600753
45, 1, bw, attraction, a-b-da, 5, 3, 7, 26, 195, 120, 120, 195, 190, 117, 1, 1.81473
45, 1, bw, attraction, a-b-da, 5, 3, 7, 26, 195, 120, 120, 195, 190, 117, 3, 0.612617
45, 1, bw, filler, NA, 999, 999, 7, 27, 170, 70, 137, 82, 104, 144, 1, 11.1617
45, 1, bw, filler, NA, 999, 999, 7, 27, 170, 70, 137, 82, 104, 144, 2, 1.22295
45, 1, bw, attraction, a-b-da, 14, 3, 7, 28, 181, 111, 120, 195, 195, 120, 3, 2.65176
45, 1, bw, attraction, a-b-da, 14, 3, 7, 28, 181, 111, 120, 195, 195, 120, 1, 0.832268
45, 1, bw, attraction, a-b-db, 5, 2, 7, 29, 88, 161, 90, 165, 165, 90, 3, 8.86063
45, 1, bw, attraction, a-b-db, 5, 2, 7, 29, 88, 161, 90, 165, 165, 90, 1, 0.478495
45, 1, bw, attraction, a-b-db, 14, 1, 7, 30, 135, 60, 60, 135, 56, 125, 1, 4.52889
45, 1, bw, attraction, a-b-db, 14, 1, 7, 30, 135, 60, 60, 135, 56, 125, 3, 0.50548
45, 1, bw, attraction, a-b-db, 9, 2, 7, 31, 90, 165, 86, 157, 165, 90, 3, 4.79538
45, 1, bw, attraction, a-b-db, 9, 2, 7, 31, 90, 165, 86, 157, 165, 90, 2, 0.569155
45, 1, bw, attraction, a-b-db, 5, 3, 7, 32, 117, 190, 120, 195, 195, 120, 2, 3.63223
45, 1, bw, attraction, a-b-db, 5, 3, 7, 32, 117, 190, 120, 195, 195, 120, 1, 2.97299
45, 1, bw, filler, NA, 999, 999, 7, 33, 139, 102, 156, 179, 72, 69, 2, 0.907446
45, 1, bw, filler, NA, 999, 999, 7, 33, 139, 102, 156, 179, 72, 69, 3, 0.597677
45, 1, bw, attraction, a-b-db, 2, 1, 7, 34, 135, 60, 59, 134, 60, 135, 1, 1.8836
45, 1, bw, attraction, a-b-db, 2, 1, 7, 34, 135, 60, 59, 134, 60, 135, 3, 1.0149
45, 1, bw, filler, NA, 999, 999, 7, 35, 123, 184, 91, 106, 60, 155, 1, 0.867733
45, 1, bw, filler, NA, 999, 999, 7, 35, 123, 184, 91, 106, 60, 155, 2, 1.98416
45, 1, bw, catch, NA, 999, 999, 7, 36, 64, 131, 158, 97, 157, 158, 3, 1.32617
45, 1, bw, catch, NA, 999, 999, 7, 36, 64, 131, 158, 97, 157, 158, 1, 0.719782
45, 1, bw, filler, NA, 999, 999, 7, 37, 92, 183, 102, 82, 163, 61, 1, 1.44076
45, 1, bw, filler, NA, 999, 999, 7, 37, 92, 183, 102, 82, 163, 61, 2, 0.79774
45, 1, bw, filler, NA, 999, 999, 8, 1, 88, 171, 91, 157, 68, 191, 1, 7.82744
45, 1, bw, filler, NA, 999, 999, 8, 1, 88, 171, 91, 157, 68, 191, 3, 2.57498
45, 1, bw, filler, NA, 999, 999, 8, 2, 92, 142, 93, 121, 65, 167, 1, 3.54881
45, 1, bw, filler, NA, 999, 999, 8, 2, 92, 142, 93, 121, 65, 167, 2, 0.532953
45, 1, bw, filler, NA, 999, 999, 8, 3, 148, 127, 130, 125, 105, 182, 3, 2.83735
45, 1, bw, filler, NA, 999, 999, 8, 3, 148, 127, 130, 125, 105, 182, 2, 0.674375
45, 1, bw, attraction, a-b-da, 9, 2, 8, 4, 157, 86, 165, 90, 90, 165, 2, 3.89286
45, 1, bw, attraction, a-b-da, 9, 2, 8, 4, 157, 86, 165, 90, 90, 165, 1, 0.606867
45, 1, bw, attraction, a-b-db, 14, 2, 8, 5, 165, 90, 90, 165, 83, 153, 1, 3.72391
45, 1, bw, attraction, a-b-db, 14, 2, 8, 5, 165, 90, 90, 165, 83, 153, 3, 0.476769
45, 1, bw, attraction, a-b-db, 14, 1, 8, 6, 135, 60, 56, 125, 60, 135, 1, 4.75918
45, 1, bw, attraction, a-b-db, 14, 1, 8, 6, 135, 60, 56, 125, 60, 135, 2, 0.574581
45, 1, bw, attraction, a-b-db, 9, 1, 8, 7, 57, 129, 60, 135, 135, 60, 1, 4.82085
45, 1, bw, attraction, a-b-db, 9, 1, 8, 7, 57, 129, 60, 135, 135, 60, 3, 0.946021
45, 1, bw, attraction, a-b-db, 2, 1, 8, 8, 135, 60, 60, 135, 59, 134, 1, 1.94556
45, 1, bw, attraction, a-b-db, 2, 1, 8, 8, 135, 60, 60, 135, 59, 134, 3, 0.79427
45, 1, bw, filler, NA, 999, 999, 8, 9, 183, 102, 62, 122, 76, 189, 1, 1.18404
45, 1, bw, filler, NA, 999, 999, 8, 9, 183, 102, 62, 122, 76, 189, 2, 0.543596
45, 1, bw, attraction, a-b-db, 5, 3, 8, 10, 117, 190, 195, 120, 120, 195, 1, 2.63146
45, 1, bw, attraction, a-b-db, 5, 3, 8, 10, 117, 190, 195, 120, 120, 195, 2, 3.15651
45, 1, bw, catch, NA, 999, 999, 8, 11, 106, 149, 118, 77, 192, 123, 3, 2.47543
45, 1, bw, catch, NA, 999, 999, 8, 11, 106, 149, 118, 77, 192, 123, 2, 0.782753
45, 1, bw, attraction, a-b-da, 9, 3, 8, 12, 120, 195, 186, 114, 195, 120, 1, 9.06891
45, 1, bw, attraction, a-b-da, 9, 3, 8, 12, 120, 195, 186, 114, 195, 120, 3, 1.4708
45, 1, bw, filler, NA, 999, 999, 8, 13, 112, 193, 190, 192, 184, 114, 2, 0.865644
45, 1, bw, filler, NA, 999, 999, 8, 13, 112, 193, 190, 192, 184, 114, 3, 1.15815
45, 1, bw, attraction, a-b-db, 9, 3, 8, 14, 114, 186, 120, 195, 195, 120, 2, 7.08507
45, 1, bw, attraction, a-b-db, 9, 3, 8, 14, 114, 186, 120, 195, 195, 120, 1, 0.662703
45, 1, bw, filler, NA, 999, 999, 8, 15, 140, 151, 99, 118, 156, 102, 1, 1.37776
45, 1, bw, filler, NA, 999, 999, 8, 15, 140, 151, 99, 118, 156, 102, 2, 1.10541
45, 1, bw, attraction, a-b-db, 5, 1, 8, 16, 135, 60, 60, 135, 58, 132, 1, 1.94692
45, 1, bw, attraction, a-b-db, 5, 1, 8, 16, 135, 60, 60, 135, 58, 132, 3, 0.77968
45, 1, bw, catch, NA, 999, 999, 8, 17, 98, 97, 101, 154, 156, 159, 3, 0.961915
45, 1, bw, catch, NA, 999, 999, 8, 17, 98, 97, 101, 154, 156, 159, 1, 0.594262
45, 1, bw, attraction, a-b-da, 14, 2, 8, 18, 153, 83, 90, 165, 165, 90, 2, 4.84827
45, 1, bw, attraction, a-b-da, 14, 2, 8, 18, 153, 83, 90, 165, 165, 90, 1, 0.61978
45, 1, bw, attraction, a-b-db, 2, 3, 8, 19, 119, 193, 195, 120, 120, 195, 2, 2.75291
45, 1, bw, attraction, a-b-db, 2, 3, 8, 19, 119, 193, 195, 120, 120, 195, 3, 5.44147
45, 1, bw, filler, NA, 999, 999, 8, 20, 89, 182, 189, 176, 164, 63, 2, 1.36367
45, 1, bw, filler, NA, 999, 999, 8, 20, 89, 182, 189, 176, 164, 63, 3, 0.707788
45, 1, bw, attraction, a-b-da, 5, 3, 8, 21, 190, 117, 120, 195, 195, 120, 3, 2.45285
45, 1, bw, attraction, a-b-da, 5, 3, 8, 21, 190, 117, 120, 195, 195, 120, 1, 0.929505
45, 1, bw, attraction, a-b-da, 9, 1, 8, 22, 129, 57, 135, 60, 60, 135, 2, 1.69785
45, 1, bw, attraction, a-b-da, 9, 1, 8, 22, 129, 57, 135, 60, 60, 135, 3, 0.740538
45, 1, bw, attraction, a-b-db, 2, 2, 8, 23, 90, 165, 165, 90, 89, 163, 2, 1.92417
45, 1, bw, attraction, a-b-db, 2, 2, 8, 23, 90, 165, 165, 90, 89, 163, 3, 0.741576
45, 1, bw, attraction, a-b-da, 5, 1, 8, 24, 132, 58, 135, 60, 60, 135, 1, 5.05328
45, 1, bw, attraction, a-b-da, 5, 1, 8, 24, 132, 58, 135, 60, 60, 135, 3, 0.600951
45, 1, bw, attraction, a-b-db, 9, 2, 8, 25, 165, 90, 90, 165, 86, 157, 1, 3.28676
45, 1, bw, attraction, a-b-db, 9, 2, 8, 25, 165, 90, 90, 165, 86, 157, 3, 0.601823
45, 1, bw, attraction, a-b-db, 5, 2, 8, 26, 88, 161, 165, 90, 90, 165, 2, 4.52746
45, 1, bw, attraction, a-b-db, 5, 2, 8, 26, 88, 161, 165, 90, 90, 165, 1, 0.711995
45, 1, bw, filler, NA, 999, 999, 8, 27, 62, 159, 106, 163, 118, 107, 2, 1.65708
45, 1, bw, filler, NA, 999, 999, 8, 27, 62, 159, 106, 163, 118, 107, 3, 1.98922
45, 1, bw, attraction, a-b-da, 2, 3, 8, 28, 195, 120, 193, 119, 120, 195, 2, 5.1552
45, 1, bw, attraction, a-b-da, 2, 3, 8, 28, 195, 120, 193, 119, 120, 195, 3, 2.04292
45, 1, bw, attraction, a-b-da, 5, 2, 8, 29, 90, 165, 165, 90, 161, 88, 2, 2.78226
45, 1, bw, attraction, a-b-da, 5, 2, 8, 29, 90, 165, 165, 90, 161, 88, 3, 0.893366
45, 1, bw, attraction, a-b-da, 14, 1, 8, 30, 60, 135, 125, 56, 135, 60, 1, 4.15904
45, 1, bw, attraction, a-b-da, 14, 1, 8, 30, 60, 135, 125, 56, 135, 60, 2, 0.590262
45, 1, bw, attraction, a-b-da, 14, 3, 8, 31, 181, 111, 195, 120, 120, 195, 2, 3.72412
45, 1, bw, attraction, a-b-da, 14, 3, 8, 31, 181, 111, 195, 120, 120, 195, 1, 0.508935
45, 1, bw, attraction, a-b-db, 14, 3, 8, 32, 195, 120, 120, 195, 111, 181, 1, 4.11795
45, 1, bw, attraction, a-b-db, 14, 3, 8, 32, 195, 120, 120, 195, 111, 181, 3, 0.703356
45, 1, bw, filler, NA, 999, 999, 8, 33, 160, 121, 112, 116, 195, 180, 3, 1.76107
45, 1, bw, filler, NA, 999, 999, 8, 33, 160, 121, 112, 116, 195, 180, 2, 1.29717
45, 1, bw, filler, NA, 999, 999, 8, 34, 99, 58, 101, 108, 72, 190, 3, 2.36268
45, 1, bw, filler, NA, 999, 999, 8, 34, 99, 58, 101, 108, 72, 190, 1, 0.650579
45, 1, bw, attraction, a-b-da, 2, 2, 8, 35, 90, 165, 163, 89, 165, 90, 2, 3.54239
45, 1, bw, attraction, a-b-da, 2, 2, 8, 35, 90, 165, 163, 89, 165, 90, 3, 1.27859
45, 1, bw, attraction, a-b-da, 2, 1, 8, 36, 134, 59, 135, 60, 60, 135, 2, 6.63268
45, 1, bw, attraction, a-b-da, 2, 1, 8, 36, 134, 59, 135, 60, 60, 135, 3, 0.564632
45, 1, bw, catch, NA, 999, 999, 8, 37, 125, 130, 99, 96, 141, 174, 3, 1.4037
45, 1, bw, catch, NA, 999, 999, 8, 37, 125, 130, 99, 96, 141, 174, 2, 0.546601
