sub_n, computer_n, bw_cond, effect, set, distance, diag, block_n, trial_n, h1, w1, h2, w2, h3, w3, choice, rt 
40, 1, wb, practice, NA, 999, 999, 0, 1, 181, 114, 195, 172, 95, 178, 3, 6.00775
40, 1, wb, practice, NA, 999, 999, 0, 1, 181, 114, 195, 172, 95, 178, 2, 3.11151
40, 1, wb, practice, NA, 999, 999, 0, 2, 154, 169, 194, 143, 146, 157, 3, 2.95406
40, 1, wb, practice, NA, 999, 999, 0, 2, 154, 169, 194, 143, 146, 157, 1, 11.5878
40, 1, wb, practice, NA, 999, 999, 0, 3, 71, 159, 60, 184, 56, 162, 3, 3.57932
40, 1, wb, practice, NA, 999, 999, 0, 3, 71, 159, 60, 184, 56, 162, 1, 2.58736
40, 1, wb, attraction, a-b-db, 5, 1, 1, 1, 60, 135, 135, 60, 58, 132, 2, 7.98445
40, 1, wb, attraction, a-b-db, 5, 1, 1, 1, 60, 135, 135, 60, 58, 132, 1, 1.99792
40, 1, wb, attraction, a-b-db, 5, 3, 1, 2, 120, 195, 195, 120, 117, 190, 2, 16.3312
40, 1, wb, attraction, a-b-db, 5, 3, 1, 2, 120, 195, 195, 120, 117, 190, 1, 1.31219
40, 1, wb, catch, NA, 999, 999, 1, 3, 187, 128, 94, 101, 125, 130, 2, 2.72098
40, 1, wb, catch, NA, 999, 999, 1, 3, 187, 128, 94, 101, 125, 130, 1, 1.24279
40, 1, wb, attraction, a-b-db, 9, 1, 1, 4, 135, 60, 60, 135, 57, 129, 3, 5.06226
40, 1, wb, attraction, a-b-db, 9, 1, 1, 4, 135, 60, 60, 135, 57, 129, 2, 1.72136
40, 1, wb, filler, NA, 999, 999, 1, 5, 90, 100, 178, 99, 173, 130, 1, 2.72211
40, 1, wb, filler, NA, 999, 999, 1, 5, 90, 100, 178, 99, 173, 130, 3, 1.44319
40, 1, wb, attraction, a-b-db, 9, 3, 1, 6, 114, 186, 195, 120, 120, 195, 1, 12.4067
40, 1, wb, attraction, a-b-db, 9, 3, 1, 6, 114, 186, 195, 120, 120, 195, 3, 1.32217
40, 1, wb, attraction, a-b-db, 2, 1, 1, 7, 59, 134, 135, 60, 60, 135, 2, 3.75508
40, 1, wb, attraction, a-b-db, 2, 1, 1, 7, 59, 134, 135, 60, 60, 135, 3, 0.931168
40, 1, wb, filler, NA, 999, 999, 1, 8, 69, 191, 84, 116, 130, 159, 2, 1.31551
40, 1, wb, filler, NA, 999, 999, 1, 8, 69, 191, 84, 116, 130, 159, 3, 2.93382
40, 1, wb, attraction, a-b-db, 5, 2, 1, 9, 88, 161, 165, 90, 90, 165, 3, 7.18138
40, 1, wb, attraction, a-b-db, 5, 2, 1, 9, 88, 161, 165, 90, 90, 165, 1, 3.32315
40, 1, wb, attraction, a-b-db, 14, 2, 1, 10, 165, 90, 83, 153, 90, 165, 2, 6.09937
40, 1, wb, attraction, a-b-db, 14, 2, 1, 10, 165, 90, 83, 153, 90, 165, 3, 2.30078
40, 1, wb, attraction, a-b-da, 2, 1, 1, 11, 134, 59, 135, 60, 60, 135, 3, 7.974
40, 1, wb, attraction, a-b-da, 2, 1, 1, 11, 134, 59, 135, 60, 60, 135, 1, 1.53943
40, 1, wb, filler, NA, 999, 999, 1, 12, 117, 62, 102, 159, 147, 82, 1, 2.84353
40, 1, wb, filler, NA, 999, 999, 1, 12, 117, 62, 102, 159, 147, 82, 2, 2.12001
40, 1, wb, attraction, a-b-da, 9, 2, 1, 13, 90, 165, 157, 86, 165, 90, 1, 27.5126
40, 1, wb, attraction, a-b-da, 9, 2, 1, 13, 90, 165, 157, 86, 165, 90, 3, 1.25935
40, 1, wb, attraction, a-b-db, 2, 3, 1, 14, 119, 193, 195, 120, 120, 195, 1, 4.48621
40, 1, wb, attraction, a-b-db, 2, 3, 1, 14, 119, 193, 195, 120, 120, 195, 3, 2.84893
40, 1, wb, filler, NA, 999, 999, 1, 15, 139, 153, 133, 195, 103, 131, 3, 2.04382
40, 1, wb, filler, NA, 999, 999, 1, 15, 139, 153, 133, 195, 103, 131, 2, 1.85655
40, 1, wb, catch, NA, 999, 999, 1, 16, 117, 78, 153, 102, 129, 186, 1, 1.57187
40, 1, wb, catch, NA, 999, 999, 1, 16, 117, 78, 153, 102, 129, 186, 3, 0.907451
40, 1, wb, attraction, a-b-db, 9, 2, 1, 17, 90, 165, 165, 90, 86, 157, 2, 10.7325
40, 1, wb, attraction, a-b-db, 9, 2, 1, 17, 90, 165, 165, 90, 86, 157, 1, 1.05097
40, 1, wb, attraction, a-b-da, 14, 2, 1, 18, 90, 165, 165, 90, 153, 83, 3, 3.03857
40, 1, wb, attraction, a-b-da, 14, 2, 1, 18, 90, 165, 165, 90, 153, 83, 1, 1.31492
40, 1, wb, attraction, a-b-da, 5, 1, 1, 19, 132, 58, 135, 60, 60, 135, 1, 2.04381
40, 1, wb, attraction, a-b-da, 5, 1, 1, 19, 132, 58, 135, 60, 60, 135, 2, 3.00066
40, 1, wb, filler, NA, 999, 999, 1, 20, 110, 95, 70, 121, 82, 101, 2, 4.81347
40, 1, wb, filler, NA, 999, 999, 1, 20, 110, 95, 70, 121, 82, 101, 1, 1.11462
40, 1, wb, attraction, a-b-da, 14, 3, 1, 21, 120, 195, 195, 120, 181, 111, 3, 5.34767
40, 1, wb, attraction, a-b-da, 14, 3, 1, 21, 120, 195, 195, 120, 181, 111, 1, 1.02722
40, 1, wb, filler, NA, 999, 999, 1, 22, 125, 167, 149, 82, 81, 174, 2, 10.7194
40, 1, wb, filler, NA, 999, 999, 1, 22, 125, 167, 149, 82, 81, 174, 1, 0.91869
40, 1, wb, attraction, a-b-db, 14, 3, 1, 23, 111, 181, 120, 195, 195, 120, 1, 2.63179
40, 1, wb, attraction, a-b-db, 14, 3, 1, 23, 111, 181, 120, 195, 195, 120, 3, 1.26885
40, 1, wb, attraction, a-b-da, 5, 3, 1, 24, 120, 195, 190, 117, 195, 120, 2, 1.59167
40, 1, wb, attraction, a-b-da, 5, 3, 1, 24, 120, 195, 190, 117, 195, 120, 1, 0.638634
40, 1, wb, attraction, a-b-db, 2, 2, 1, 25, 165, 90, 89, 163, 90, 165, 2, 6.14713
40, 1, wb, attraction, a-b-db, 2, 2, 1, 25, 165, 90, 89, 163, 90, 165, 3, 4.67431
40, 1, wb, filler, NA, 999, 999, 1, 26, 87, 139, 106, 98, 66, 83, 3, 1.41223
40, 1, wb, filler, NA, 999, 999, 1, 26, 87, 139, 106, 98, 66, 83, 2, 4.88244
40, 1, wb, filler, NA, 999, 999, 1, 27, 179, 176, 135, 152, 156, 185, 2, 2.77945
40, 1, wb, filler, NA, 999, 999, 1, 27, 179, 176, 135, 152, 156, 185, 1, 1.50654
40, 1, wb, attraction, a-b-da, 9, 3, 1, 28, 186, 114, 195, 120, 120, 195, 1, 2.15613
40, 1, wb, attraction, a-b-da, 9, 3, 1, 28, 186, 114, 195, 120, 120, 195, 3, 3.8041
40, 1, wb, attraction, a-b-da, 2, 2, 1, 29, 90, 165, 163, 89, 165, 90, 3, 5.54489
40, 1, wb, attraction, a-b-da, 2, 2, 1, 29, 90, 165, 163, 89, 165, 90, 2, 2.0084
40, 1, wb, filler, NA, 999, 999, 1, 30, 58, 132, 183, 82, 63, 160, 1, 1.66098
40, 1, wb, filler, NA, 999, 999, 1, 30, 58, 132, 183, 82, 63, 160, 2, 1.52904
40, 1, wb, attraction, a-b-db, 14, 1, 1, 31, 60, 135, 135, 60, 56, 125, 3, 3.05722
40, 1, wb, attraction, a-b-db, 14, 1, 1, 31, 60, 135, 135, 60, 56, 125, 1, 1.56501
40, 1, wb, catch, NA, 999, 999, 1, 32, 137, 118, 184, 131, 68, 127, 3, 5.0197
40, 1, wb, catch, NA, 999, 999, 1, 32, 137, 118, 184, 131, 68, 127, 2, 1.02478
40, 1, wb, attraction, a-b-da, 9, 1, 1, 33, 129, 57, 60, 135, 135, 60, 1, 4.87705
40, 1, wb, attraction, a-b-da, 9, 1, 1, 33, 129, 57, 60, 135, 135, 60, 2, 6.6796
40, 1, wb, attraction, a-b-da, 14, 1, 1, 34, 125, 56, 135, 60, 60, 135, 1, 2.78403
40, 1, wb, attraction, a-b-da, 14, 1, 1, 34, 125, 56, 135, 60, 60, 135, 3, 0.647282
40, 1, wb, filler, NA, 999, 999, 1, 35, 69, 156, 89, 72, 108, 121, 2, 2.31482
40, 1, wb, filler, NA, 999, 999, 1, 35, 69, 156, 89, 72, 108, 121, 3, 1.45291
40, 1, wb, attraction, a-b-da, 2, 3, 1, 36, 120, 195, 193, 119, 195, 120, 1, 5.44025
40, 1, wb, attraction, a-b-da, 2, 3, 1, 36, 120, 195, 193, 119, 195, 120, 3, 1.41981
40, 1, wb, attraction, a-b-da, 5, 2, 1, 37, 165, 90, 90, 165, 161, 88, 3, 4.27273
40, 1, wb, attraction, a-b-da, 5, 2, 1, 37, 165, 90, 90, 165, 161, 88, 1, 1.07532
40, 1, wb, filler, NA, 999, 999, 2, 1, 133, 99, 153, 115, 109, 119, 3, 1.86957
40, 1, wb, filler, NA, 999, 999, 2, 1, 133, 99, 153, 115, 109, 119, 2, 0.969635
40, 1, wb, filler, NA, 999, 999, 2, 2, 142, 102, 151, 132, 193, 139, 1, 2.12874
40, 1, wb, filler, NA, 999, 999, 2, 2, 142, 102, 151, 132, 193, 139, 3, 1.55398
40, 1, wb, filler, NA, 999, 999, 2, 3, 107, 171, 187, 184, 159, 127, 1, 8.49738
40, 1, wb, filler, NA, 999, 999, 2, 3, 107, 171, 187, 184, 159, 127, 2, 0.490404
40, 1, wb, filler, NA, 999, 999, 2, 4, 191, 155, 63, 115, 135, 57, 2, 6.94791
40, 1, wb, filler, NA, 999, 999, 2, 4, 191, 155, 63, 115, 135, 57, 1, 0.442909
40, 1, wb, attraction, a-b-db, 2, 3, 2, 5, 120, 195, 119, 193, 195, 120, 3, 8.93481
40, 1, wb, attraction, a-b-db, 2, 3, 2, 5, 120, 195, 119, 193, 195, 120, 2, 1.134
40, 1, wb, attraction, a-b-db, 14, 1, 2, 6, 135, 60, 56, 125, 60, 135, 1, 9.99024
40, 1, wb, attraction, a-b-db, 14, 1, 2, 6, 135, 60, 56, 125, 60, 135, 3, 1.79512
40, 1, wb, attraction, a-b-da, 14, 2, 2, 7, 153, 83, 165, 90, 90, 165, 1, 1.24848
40, 1, wb, attraction, a-b-da, 14, 2, 2, 7, 153, 83, 165, 90, 90, 165, 2, 3.07748
40, 1, wb, attraction, a-b-db, 5, 3, 2, 8, 195, 120, 120, 195, 117, 190, 3, 5.49501
40, 1, wb, attraction, a-b-db, 5, 3, 2, 8, 195, 120, 120, 195, 117, 190, 1, 1.19262
40, 1, wb, attraction, a-b-da, 14, 3, 2, 9, 120, 195, 181, 111, 195, 120, 2, 2.91821
40, 1, wb, attraction, a-b-da, 14, 3, 2, 9, 120, 195, 181, 111, 195, 120, 1, 0.727839
40, 1, wb, attraction, a-b-da, 2, 1, 2, 10, 60, 135, 134, 59, 135, 60, 2, 2.88036
40, 1, wb, attraction, a-b-da, 2, 1, 2, 10, 60, 135, 134, 59, 135, 60, 3, 1.31539
40, 1, wb, attraction, a-b-da, 5, 3, 2, 11, 195, 120, 190, 117, 120, 195, 1, 8.07624
40, 1, wb, attraction, a-b-da, 5, 3, 2, 11, 195, 120, 190, 117, 120, 195, 3, 1.25383
40, 1, wb, attraction, a-b-db, 9, 1, 2, 12, 60, 135, 57, 129, 135, 60, 2, 11.7532
40, 1, wb, attraction, a-b-db, 9, 1, 2, 12, 60, 135, 57, 129, 135, 60, 3, 0.710985
40, 1, wb, attraction, a-b-da, 9, 2, 2, 13, 165, 90, 157, 86, 90, 165, 2, 7.22407
40, 1, wb, attraction, a-b-da, 9, 2, 2, 13, 165, 90, 157, 86, 90, 165, 3, 1.13963
40, 1, wb, attraction, a-b-da, 14, 1, 2, 14, 60, 135, 125, 56, 135, 60, 1, 4.65189
40, 1, wb, attraction, a-b-da, 14, 1, 2, 14, 60, 135, 125, 56, 135, 60, 3, 0.471826
40, 1, wb, attraction, a-b-da, 5, 1, 2, 15, 60, 135, 135, 60, 132, 58, 1, 3.29896
40, 1, wb, attraction, a-b-da, 5, 1, 2, 15, 60, 135, 135, 60, 132, 58, 3, 2.10128
40, 1, wb, attraction, a-b-db, 5, 2, 2, 16, 90, 165, 88, 161, 165, 90, 1, 7.52636
40, 1, wb, attraction, a-b-db, 5, 2, 2, 16, 90, 165, 88, 161, 165, 90, 3, 1.53403
40, 1, wb, attraction, a-b-da, 5, 2, 2, 17, 90, 165, 161, 88, 165, 90, 1, 26.3501
40, 1, wb, attraction, a-b-da, 5, 2, 2, 17, 90, 165, 161, 88, 165, 90, 3, 0.519322
40, 1, wb, catch, NA, 999, 999, 2, 18, 85, 110, 137, 178, 144, 111, 1, 1.01634
40, 1, wb, catch, NA, 999, 999, 2, 18, 85, 110, 137, 178, 144, 111, 2, 0.358685
40, 1, wb, attraction, a-b-db, 14, 3, 2, 19, 195, 120, 120, 195, 111, 181, 3, 5.14994
40, 1, wb, attraction, a-b-db, 14, 3, 2, 19, 195, 120, 120, 195, 111, 181, 2, 0.982836
40, 1, wb, filler, NA, 999, 999, 2, 20, 63, 167, 88, 120, 149, 192, 2, 2.21995
40, 1, wb, filler, NA, 999, 999, 2, 20, 63, 167, 88, 120, 149, 192, 3, 0.489766
40, 1, wb, filler, NA, 999, 999, 2, 21, 181, 144, 124, 164, 128, 161, 2, 3.80427
40, 1, wb, filler, NA, 999, 999, 2, 21, 181, 144, 124, 164, 128, 161, 1, 0.506318
40, 1, wb, filler, NA, 999, 999, 2, 22, 161, 145, 153, 134, 162, 131, 2, 12.2682
40, 1, wb, filler, NA, 999, 999, 2, 22, 161, 145, 153, 134, 162, 131, 1, 1.50891
40, 1, wb, attraction, a-b-db, 14, 2, 2, 23, 83, 153, 90, 165, 165, 90, 1, 2.05381
40, 1, wb, attraction, a-b-db, 14, 2, 2, 23, 83, 153, 90, 165, 165, 90, 2, 0.490399
40, 1, wb, attraction, a-b-db, 9, 3, 2, 24, 114, 186, 120, 195, 195, 120, 3, 4.60437
40, 1, wb, attraction, a-b-db, 9, 3, 2, 24, 114, 186, 120, 195, 195, 120, 2, 2.22611
40, 1, wb, attraction, a-b-db, 9, 2, 2, 25, 90, 165, 165, 90, 86, 157, 3, 2.82201
40, 1, wb, attraction, a-b-db, 9, 2, 2, 25, 90, 165, 165, 90, 86, 157, 1, 0.755777
40, 1, wb, attraction, a-b-da, 9, 3, 2, 26, 120, 195, 195, 120, 186, 114, 3, 6.11543
40, 1, wb, attraction, a-b-da, 9, 3, 2, 26, 120, 195, 195, 120, 186, 114, 1, 0.604227
40, 1, wb, filler, NA, 999, 999, 2, 27, 144, 189, 145, 193, 128, 61, 3, 1.05796
40, 1, wb, filler, NA, 999, 999, 2, 27, 144, 189, 145, 193, 128, 61, 2, 2.71837
40, 1, wb, filler, NA, 999, 999, 2, 28, 186, 111, 174, 82, 184, 139, 2, 0.9827
40, 1, wb, filler, NA, 999, 999, 2, 28, 186, 111, 174, 82, 184, 139, 3, 1.98232
40, 1, wb, attraction, a-b-db, 2, 2, 2, 29, 90, 165, 165, 90, 89, 163, 2, 6.36438
40, 1, wb, attraction, a-b-db, 2, 2, 2, 29, 90, 165, 165, 90, 89, 163, 1, 1.61092
40, 1, wb, catch, NA, 999, 999, 2, 30, 160, 95, 105, 90, 157, 158, 2, 1.06374
40, 1, wb, catch, NA, 999, 999, 2, 30, 160, 95, 105, 90, 157, 158, 3, 0.476041
40, 1, wb, attraction, a-b-da, 2, 2, 2, 31, 90, 165, 165, 90, 163, 89, 3, 1.74248
40, 1, wb, attraction, a-b-da, 2, 2, 2, 31, 90, 165, 165, 90, 163, 89, 2, 2.01534
40, 1, wb, attraction, a-b-da, 2, 3, 2, 32, 193, 119, 120, 195, 195, 120, 3, 3.18797
40, 1, wb, attraction, a-b-da, 2, 3, 2, 32, 193, 119, 120, 195, 195, 120, 2, 1.17049
40, 1, wb, catch, NA, 999, 999, 2, 33, 132, 183, 132, 123, 92, 103, 3, 1.15314
40, 1, wb, catch, NA, 999, 999, 2, 33, 132, 183, 132, 123, 92, 103, 1, 1.01807
40, 1, wb, attraction, a-b-da, 9, 1, 2, 34, 129, 57, 135, 60, 60, 135, 1, 1.11903
40, 1, wb, attraction, a-b-da, 9, 1, 2, 34, 129, 57, 135, 60, 60, 135, 2, 1.63343
40, 1, wb, attraction, a-b-db, 2, 1, 2, 35, 135, 60, 60, 135, 59, 134, 3, 2.39745
40, 1, wb, attraction, a-b-db, 2, 1, 2, 35, 135, 60, 60, 135, 59, 134, 2, 1.20306
40, 1, wb, filler, NA, 999, 999, 2, 36, 147, 182, 138, 169, 116, 182, 3, 1.52961
40, 1, wb, filler, NA, 999, 999, 2, 36, 147, 182, 138, 169, 116, 182, 1, 0.691104
40, 1, wb, attraction, a-b-db, 5, 1, 2, 37, 58, 132, 135, 60, 60, 135, 1, 2.27683
40, 1, wb, attraction, a-b-db, 5, 1, 2, 37, 58, 132, 135, 60, 60, 135, 3, 1.38416
40, 1, wb, attraction, a-b-db, 5, 2, 3, 1, 90, 165, 165, 90, 88, 161, 3, 3.87033
40, 1, wb, attraction, a-b-db, 5, 2, 3, 1, 90, 165, 165, 90, 88, 161, 1, 0.977799
40, 1, wb, attraction, a-b-da, 2, 2, 3, 2, 165, 90, 90, 165, 163, 89, 3, 5.68004
40, 1, wb, attraction, a-b-da, 2, 2, 3, 2, 165, 90, 90, 165, 163, 89, 2, 1.14626
40, 1, wb, attraction, a-b-db, 14, 1, 3, 3, 60, 135, 135, 60, 56, 125, 3, 3.39374
40, 1, wb, attraction, a-b-db, 14, 1, 3, 3, 60, 135, 135, 60, 56, 125, 1, 1.3921
40, 1, wb, filler, NA, 999, 999, 3, 4, 153, 93, 143, 99, 95, 158, 1, 8.15749
40, 1, wb, filler, NA, 999, 999, 3, 4, 153, 93, 143, 99, 95, 158, 3, 1.01159
40, 1, wb, attraction, a-b-db, 2, 2, 3, 5, 165, 90, 89, 163, 90, 165, 1, 1.75257
40, 1, wb, attraction, a-b-db, 2, 2, 3, 5, 165, 90, 89, 163, 90, 165, 2, 1.76932
40, 1, wb, attraction, a-b-db, 5, 3, 3, 6, 117, 190, 195, 120, 120, 195, 3, 5.25619
40, 1, wb, attraction, a-b-db, 5, 3, 3, 6, 117, 190, 195, 120, 120, 195, 2, 0.939057
40, 1, wb, filler, NA, 999, 999, 3, 7, 107, 128, 177, 164, 65, 183, 3, 1.65141
40, 1, wb, filler, NA, 999, 999, 3, 7, 107, 128, 177, 164, 65, 183, 2, 3.02417
40, 1, wb, catch, NA, 999, 999, 3, 8, 156, 99, 164, 151, 109, 86, 3, 8.98782
40, 1, wb, catch, NA, 999, 999, 3, 8, 156, 99, 164, 151, 109, 86, 2, 0.824965
40, 1, wb, filler, NA, 999, 999, 3, 9, 146, 164, 90, 176, 132, 111, 3, 0.957412
40, 1, wb, filler, NA, 999, 999, 3, 9, 146, 164, 90, 176, 132, 111, 1, 1.82185
40, 1, wb, filler, NA, 999, 999, 3, 10, 183, 118, 163, 190, 121, 132, 3, 1.2503
40, 1, wb, filler, NA, 999, 999, 3, 10, 183, 118, 163, 190, 121, 132, 2, 1.32726
40, 1, wb, attraction, a-b-db, 9, 2, 3, 11, 86, 157, 165, 90, 90, 165, 1, 1.13551
40, 1, wb, attraction, a-b-db, 9, 2, 3, 11, 86, 157, 165, 90, 90, 165, 3, 2.5611
40, 1, wb, filler, NA, 999, 999, 3, 12, 171, 151, 157, 100, 145, 99, 3, 1.59158
40, 1, wb, filler, NA, 999, 999, 3, 12, 171, 151, 157, 100, 145, 99, 1, 1.11039
40, 1, wb, attraction, a-b-da, 14, 1, 3, 13, 125, 56, 60, 135, 135, 60, 1, 2.73529
40, 1, wb, attraction, a-b-da, 14, 1, 3, 13, 125, 56, 60, 135, 135, 60, 2, 1.13655
40, 1, wb, catch, NA, 999, 999, 3, 14, 70, 125, 176, 139, 158, 97, 1, 2.01665
40, 1, wb, catch, NA, 999, 999, 3, 14, 70, 125, 176, 139, 158, 97, 2, 0.51067
40, 1, wb, attraction, a-b-db, 2, 3, 3, 15, 195, 120, 119, 193, 120, 195, 3, 3.36002
40, 1, wb, attraction, a-b-db, 2, 3, 3, 15, 195, 120, 119, 193, 120, 195, 1, 0.687382
40, 1, wb, attraction, a-b-da, 2, 3, 3, 16, 195, 120, 120, 195, 193, 119, 3, 4.39387
40, 1, wb, attraction, a-b-da, 2, 3, 3, 16, 195, 120, 120, 195, 193, 119, 1, 2.76776
40, 1, wb, attraction, a-b-da, 2, 1, 3, 17, 135, 60, 134, 59, 60, 135, 3, 5.67811
40, 1, wb, attraction, a-b-da, 2, 1, 3, 17, 135, 60, 134, 59, 60, 135, 1, 0.544461
40, 1, wb, attraction, a-b-db, 9, 3, 3, 18, 114, 186, 120, 195, 195, 120, 1, 4.46411
40, 1, wb, attraction, a-b-db, 9, 3, 3, 18, 114, 186, 120, 195, 195, 120, 2, 0.571367
40, 1, wb, attraction, a-b-da, 9, 1, 3, 19, 129, 57, 60, 135, 135, 60, 3, 2.53045
40, 1, wb, attraction, a-b-da, 9, 1, 3, 19, 129, 57, 60, 135, 135, 60, 2, 0.95557
40, 1, wb, attraction, a-b-db, 5, 1, 3, 20, 135, 60, 60, 135, 58, 132, 3, 5.1473
40, 1, wb, attraction, a-b-db, 5, 1, 3, 20, 135, 60, 60, 135, 58, 132, 1, 1.18699
40, 1, wb, attraction, a-b-da, 5, 3, 3, 21, 195, 120, 120, 195, 190, 117, 3, 13.7452
40, 1, wb, attraction, a-b-da, 5, 3, 3, 21, 195, 120, 120, 195, 190, 117, 2, 1.12625
40, 1, wb, attraction, a-b-db, 9, 1, 3, 22, 135, 60, 57, 129, 60, 135, 2, 4.22257
40, 1, wb, attraction, a-b-db, 9, 1, 3, 22, 135, 60, 57, 129, 60, 135, 1, 0.74715
40, 1, wb, attraction, a-b-da, 5, 2, 3, 23, 161, 88, 90, 165, 165, 90, 1, 5.23474
40, 1, wb, attraction, a-b-da, 5, 2, 3, 23, 161, 88, 90, 165, 165, 90, 2, 0.487108
40, 1, wb, attraction, a-b-db, 14, 2, 3, 24, 83, 153, 165, 90, 90, 165, 1, 2.04156
40, 1, wb, attraction, a-b-db, 14, 2, 3, 24, 83, 153, 165, 90, 90, 165, 3, 1.09441
40, 1, wb, filler, NA, 999, 999, 3, 25, 167, 172, 119, 67, 152, 83, 2, 1.17589
40, 1, wb, filler, NA, 999, 999, 3, 25, 167, 172, 119, 67, 152, 83, 1, 0.516126
40, 1, wb, attraction, a-b-db, 14, 3, 3, 26, 120, 195, 195, 120, 111, 181, 3, 5.36868
40, 1, wb, attraction, a-b-db, 14, 3, 3, 26, 120, 195, 195, 120, 111, 181, 2, 0.759583
40, 1, wb, filler, NA, 999, 999, 3, 27, 189, 124, 115, 104, 65, 183, 3, 3.42267
40, 1, wb, filler, NA, 999, 999, 3, 27, 189, 124, 115, 104, 65, 183, 1, 0.60349
40, 1, wb, attraction, a-b-da, 9, 2, 3, 28, 90, 165, 157, 86, 165, 90, 2, 5.76138
40, 1, wb, attraction, a-b-da, 9, 2, 3, 28, 90, 165, 157, 86, 165, 90, 1, 0.856238
40, 1, wb, attraction, a-b-da, 9, 3, 3, 29, 186, 114, 120, 195, 195, 120, 1, 11.8917
40, 1, wb, attraction, a-b-da, 9, 3, 3, 29, 186, 114, 120, 195, 195, 120, 2, 0.715417
40, 1, wb, catch, NA, 999, 999, 3, 30, 66, 129, 186, 129, 110, 145, 1, 3.78049
40, 1, wb, catch, NA, 999, 999, 3, 30, 66, 129, 186, 129, 110, 145, 2, 0.827237
40, 1, wb, attraction, a-b-da, 5, 1, 3, 31, 135, 60, 132, 58, 60, 135, 3, 2.49568
40, 1, wb, attraction, a-b-da, 5, 1, 3, 31, 135, 60, 132, 58, 60, 135, 2, 0.786134
40, 1, wb, filler, NA, 999, 999, 3, 32, 97, 184, 114, 61, 71, 66, 3, 1.93659
40, 1, wb, filler, NA, 999, 999, 3, 32, 97, 184, 114, 61, 71, 66, 1, 0.457785
40, 1, wb, filler, NA, 999, 999, 3, 33, 128, 117, 175, 194, 58, 131, 3, 1.07694
40, 1, wb, filler, NA, 999, 999, 3, 33, 128, 117, 175, 194, 58, 131, 2, 0.880773
40, 1, wb, attraction, a-b-db, 2, 1, 3, 34, 60, 135, 135, 60, 59, 134, 1, 1.86698
40, 1, wb, attraction, a-b-db, 2, 1, 3, 34, 60, 135, 135, 60, 59, 134, 3, 0.782989
40, 1, wb, filler, NA, 999, 999, 3, 35, 146, 78, 154, 162, 135, 63, 3, 0.909586
40, 1, wb, filler, NA, 999, 999, 3, 35, 146, 78, 154, 162, 135, 63, 2, 0.447748
40, 1, wb, attraction, a-b-da, 14, 2, 3, 36, 153, 83, 165, 90, 90, 165, 1, 5.30756
40, 1, wb, attraction, a-b-da, 14, 2, 3, 36, 153, 83, 165, 90, 90, 165, 3, 0.820491
40, 1, wb, attraction, a-b-da, 14, 3, 3, 37, 181, 111, 195, 120, 120, 195, 1, 5.05764
40, 1, wb, attraction, a-b-da, 14, 3, 3, 37, 181, 111, 195, 120, 120, 195, 2, 0.508527
40, 1, wb, attraction, a-b-db, 9, 3, 4, 1, 120, 195, 195, 120, 114, 186, 2, 6.90969
40, 1, wb, attraction, a-b-db, 9, 3, 4, 1, 120, 195, 195, 120, 114, 186, 1, 0.518173
40, 1, wb, attraction, a-b-da, 14, 3, 4, 2, 120, 195, 181, 111, 195, 120, 2, 3.88728
40, 1, wb, attraction, a-b-da, 14, 3, 4, 2, 120, 195, 181, 111, 195, 120, 3, 0.658052
40, 1, wb, attraction, a-b-db, 14, 1, 4, 3, 56, 125, 135, 60, 60, 135, 1, 3.14913
40, 1, wb, attraction, a-b-db, 14, 1, 4, 3, 56, 125, 135, 60, 60, 135, 3, 0.813428
40, 1, wb, attraction, a-b-db, 2, 3, 4, 4, 120, 195, 119, 193, 195, 120, 3, 4.1145
40, 1, wb, attraction, a-b-db, 2, 3, 4, 4, 120, 195, 119, 193, 195, 120, 1, 0.467749
40, 1, wb, attraction, a-b-da, 9, 1, 4, 5, 135, 60, 60, 135, 129, 57, 3, 2.40693
40, 1, wb, attraction, a-b-da, 9, 1, 4, 5, 135, 60, 60, 135, 129, 57, 1, 0.52483
40, 1, wb, attraction, a-b-da, 5, 2, 4, 6, 161, 88, 165, 90, 90, 165, 3, 3.39727
40, 1, wb, attraction, a-b-da, 5, 2, 4, 6, 161, 88, 165, 90, 90, 165, 2, 1.48353
40, 1, wb, filler, NA, 999, 999, 4, 7, 166, 87, 126, 175, 79, 159, 1, 1.48579
40, 1, wb, filler, NA, 999, 999, 4, 7, 166, 87, 126, 175, 79, 159, 2, 0.521155
40, 1, wb, attraction, a-b-da, 5, 1, 4, 8, 135, 60, 60, 135, 132, 58, 3, 2.12239
40, 1, wb, attraction, a-b-da, 5, 1, 4, 8, 135, 60, 60, 135, 132, 58, 1, 1.86767
40, 1, wb, filler, NA, 999, 999, 4, 9, 74, 68, 87, 88, 79, 116, 1, 0.878195
40, 1, wb, filler, NA, 999, 999, 4, 9, 74, 68, 87, 88, 79, 116, 3, 1.47404
40, 1, wb, attraction, a-b-da, 14, 2, 4, 10, 153, 83, 165, 90, 90, 165, 3, 4.24422
40, 1, wb, attraction, a-b-da, 14, 2, 4, 10, 153, 83, 165, 90, 90, 165, 2, 0.688082
40, 1, wb, attraction, a-b-db, 5, 3, 4, 11, 195, 120, 117, 190, 120, 195, 2, 2.50651
40, 1, wb, attraction, a-b-db, 5, 3, 4, 11, 195, 120, 117, 190, 120, 195, 1, 2.31639
40, 1, wb, filler, NA, 999, 999, 4, 12, 160, 73, 159, 155, 192, 194, 1, 1.57286
40, 1, wb, filler, NA, 999, 999, 4, 12, 160, 73, 159, 155, 192, 194, 3, 0.452406
40, 1, wb, filler, NA, 999, 999, 4, 13, 185, 80, 187, 56, 152, 142, 2, 1.29614
40, 1, wb, filler, NA, 999, 999, 4, 13, 185, 80, 187, 56, 152, 142, 3, 5.89912
40, 1, wb, attraction, a-b-da, 2, 2, 4, 14, 90, 165, 165, 90, 163, 89, 1, 4.41916
40, 1, wb, attraction, a-b-da, 2, 2, 4, 14, 90, 165, 165, 90, 163, 89, 2, 0.736414
40, 1, wb, filler, NA, 999, 999, 4, 15, 166, 165, 171, 126, 100, 71, 3, 0.688786
40, 1, wb, filler, NA, 999, 999, 4, 15, 166, 165, 171, 126, 100, 71, 1, 1.396
40, 1, wb, attraction, a-b-db, 2, 1, 4, 16, 59, 134, 135, 60, 60, 135, 1, 1.59348
40, 1, wb, attraction, a-b-db, 2, 1, 4, 16, 59, 134, 135, 60, 60, 135, 2, 0.968438
40, 1, wb, attraction, a-b-da, 2, 1, 4, 17, 60, 135, 135, 60, 134, 59, 2, 1.17518
40, 1, wb, attraction, a-b-da, 2, 1, 4, 17, 60, 135, 135, 60, 134, 59, 1, 0.678818
40, 1, wb, catch, NA, 999, 999, 4, 18, 103, 152, 155, 160, 116, 79, 3, 0.865227
40, 1, wb, catch, NA, 999, 999, 4, 18, 103, 152, 155, 160, 116, 79, 2, 0.885565
40, 1, wb, filler, NA, 999, 999, 4, 19, 186, 185, 96, 139, 102, 88, 3, 1.68792
40, 1, wb, filler, NA, 999, 999, 4, 19, 186, 185, 96, 139, 102, 88, 1, 0.506752
40, 1, wb, catch, NA, 999, 999, 4, 20, 144, 111, 110, 85, 146, 169, 2, 1.39576
40, 1, wb, catch, NA, 999, 999, 4, 20, 144, 111, 110, 85, 146, 169, 3, 1.02677
40, 1, wb, attraction, a-b-da, 5, 3, 4, 21, 195, 120, 190, 117, 120, 195, 3, 1.36691
40, 1, wb, attraction, a-b-da, 5, 3, 4, 21, 195, 120, 190, 117, 120, 195, 2, 0.967259
40, 1, wb, attraction, a-b-db, 9, 1, 4, 22, 60, 135, 57, 129, 135, 60, 3, 1.01427
40, 1, wb, attraction, a-b-db, 9, 1, 4, 22, 60, 135, 57, 129, 135, 60, 1, 1.0284
40, 1, wb, attraction, a-b-db, 14, 3, 4, 23, 111, 181, 195, 120, 120, 195, 1, 2.28066
40, 1, wb, attraction, a-b-db, 14, 3, 4, 23, 111, 181, 195, 120, 120, 195, 3, 0.843978
40, 1, wb, filler, NA, 999, 999, 4, 24, 94, 59, 163, 108, 118, 105, 1, 0.847654
40, 1, wb, filler, NA, 999, 999, 4, 24, 94, 59, 163, 108, 118, 105, 2, 0.804886
40, 1, wb, attraction, a-b-da, 9, 3, 4, 25, 120, 195, 186, 114, 195, 120, 3, 4.09837
40, 1, wb, attraction, a-b-da, 9, 3, 4, 25, 120, 195, 186, 114, 195, 120, 2, 0.604382
40, 1, wb, attraction, a-b-db, 14, 2, 4, 26, 90, 165, 83, 153, 165, 90, 2, 2.15423
40, 1, wb, attraction, a-b-db, 14, 2, 4, 26, 90, 165, 83, 153, 165, 90, 3, 0.586813
40, 1, wb, attraction, a-b-da, 2, 3, 4, 27, 120, 195, 193, 119, 195, 120, 3, 2.51333
40, 1, wb, attraction, a-b-da, 2, 3, 4, 27, 120, 195, 193, 119, 195, 120, 1, 0.395318
40, 1, wb, attraction, a-b-db, 9, 2, 4, 28, 86, 157, 90, 165, 165, 90, 1, 3.4169
40, 1, wb, attraction, a-b-db, 9, 2, 4, 28, 86, 157, 90, 165, 165, 90, 2, 0.702512
40, 1, wb, attraction, a-b-da, 14, 1, 4, 29, 125, 56, 60, 135, 135, 60, 1, 0.880247
40, 1, wb, attraction, a-b-da, 14, 1, 4, 29, 125, 56, 60, 135, 135, 60, 2, 0.491958
40, 1, wb, attraction, a-b-db, 5, 1, 4, 30, 60, 135, 135, 60, 58, 132, 1, 0.613637
40, 1, wb, attraction, a-b-db, 5, 1, 4, 30, 60, 135, 135, 60, 58, 132, 2, 0.596197
40, 1, wb, catch, NA, 999, 999, 4, 31, 65, 130, 150, 105, 162, 153, 1, 0.570012
40, 1, wb, catch, NA, 999, 999, 4, 31, 65, 130, 150, 105, 162, 153, 3, 0.650489
40, 1, wb, filler, NA, 999, 999, 4, 32, 141, 187, 98, 81, 137, 86, 2, 1.52611
40, 1, wb, filler, NA, 999, 999, 4, 32, 141, 187, 98, 81, 137, 86, 1, 0.327555
40, 1, wb, filler, NA, 999, 999, 4, 33, 174, 78, 117, 154, 168, 124, 1, 0.928241
40, 1, wb, filler, NA, 999, 999, 4, 33, 174, 78, 117, 154, 168, 124, 3, 0.945844
40, 1, wb, attraction, a-b-da, 9, 2, 4, 34, 165, 90, 157, 86, 90, 165, 3, 0.889417
40, 1, wb, attraction, a-b-da, 9, 2, 4, 34, 165, 90, 157, 86, 90, 165, 1, 0.540502
40, 1, wb, filler, NA, 999, 999, 4, 35, 126, 165, 194, 99, 174, 94, 1, 1.06826
40, 1, wb, filler, NA, 999, 999, 4, 35, 126, 165, 194, 99, 174, 94, 2, 1.09657
40, 1, wb, attraction, a-b-db, 2, 2, 4, 36, 89, 163, 90, 165, 165, 90, 3, 1.63431
40, 1, wb, attraction, a-b-db, 2, 2, 4, 36, 89, 163, 90, 165, 165, 90, 2, 0.73578
40, 1, wb, attraction, a-b-db, 5, 2, 4, 37, 88, 161, 165, 90, 90, 165, 3, 1.65614
40, 1, wb, attraction, a-b-db, 5, 2, 4, 37, 88, 161, 165, 90, 90, 165, 1, 0.80427
40, 1, wb, catch, NA, 999, 999, 5, 1, 60, 135, 171, 144, 143, 112, 1, 2.13572
40, 1, wb, catch, NA, 999, 999, 5, 1, 60, 135, 171, 144, 143, 112, 2, 0.369003
40, 1, wb, attraction, a-b-da, 2, 3, 5, 2, 120, 195, 195, 120, 193, 119, 3, 2.04819
40, 1, wb, attraction, a-b-da, 2, 3, 5, 2, 120, 195, 195, 120, 193, 119, 1, 0.86091
40, 1, wb, attraction, a-b-db, 5, 2, 5, 3, 90, 165, 165, 90, 88, 161, 3, 1.00793
40, 1, wb, attraction, a-b-db, 5, 2, 5, 3, 90, 165, 165, 90, 88, 161, 1, 0.702254
40, 1, wb, attraction, a-b-da, 9, 2, 5, 4, 90, 165, 157, 86, 165, 90, 3, 3.36007
40, 1, wb, attraction, a-b-da, 9, 2, 5, 4, 90, 165, 157, 86, 165, 90, 1, 0.367526
40, 1, wb, attraction, a-b-da, 14, 3, 5, 5, 181, 111, 195, 120, 120, 195, 1, 1.40667
40, 1, wb, attraction, a-b-da, 14, 3, 5, 5, 181, 111, 195, 120, 120, 195, 2, 0.69294
40, 1, wb, attraction, a-b-db, 14, 2, 5, 6, 165, 90, 90, 165, 83, 153, 3, 1.83066
40, 1, wb, attraction, a-b-db, 14, 2, 5, 6, 165, 90, 90, 165, 83, 153, 2, 0.644077
40, 1, wb, attraction, a-b-db, 5, 3, 5, 7, 117, 190, 195, 120, 120, 195, 3, 2.61568
40, 1, wb, attraction, a-b-db, 5, 3, 5, 7, 117, 190, 195, 120, 120, 195, 2, 0.628269
40, 1, wb, filler, NA, 999, 999, 5, 8, 165, 104, 89, 191, 100, 170, 1, 0.865915
40, 1, wb, filler, NA, 999, 999, 5, 8, 165, 104, 89, 191, 100, 170, 2, 0.766402
40, 1, wb, filler, NA, 999, 999, 5, 9, 168, 141, 151, 126, 181, 165, 2, 1.10945
40, 1, wb, filler, NA, 999, 999, 5, 9, 168, 141, 151, 126, 181, 165, 3, 0.383662
40, 1, wb, catch, NA, 999, 999, 5, 10, 142, 173, 130, 65, 142, 113, 2, 0.590143
40, 1, wb, catch, NA, 999, 999, 5, 10, 142, 173, 130, 65, 142, 113, 1, 0.445302
40, 1, wb, filler, NA, 999, 999, 5, 11, 141, 160, 103, 120, 96, 183, 2, 0.60903
40, 1, wb, filler, NA, 999, 999, 5, 11, 141, 160, 103, 120, 96, 183, 1, 0.639486
40, 1, wb, filler, NA, 999, 999, 5, 12, 99, 140, 128, 176, 188, 138, 1, 1.45995
40, 1, wb, filler, NA, 999, 999, 5, 12, 99, 140, 128, 176, 188, 138, 2, 0.640114
40, 1, wb, filler, NA, 999, 999, 5, 13, 123, 68, 57, 192, 71, 146, 3, 2.89204
40, 1, wb, filler, NA, 999, 999, 5, 13, 123, 68, 57, 192, 71, 146, 2, 0.598215
40, 1, wb, attraction, a-b-da, 2, 1, 5, 14, 135, 60, 60, 135, 134, 59, 3, 1.40401
40, 1, wb, attraction, a-b-da, 2, 1, 5, 14, 135, 60, 60, 135, 134, 59, 2, 0.891045
40, 1, wb, attraction, a-b-da, 5, 2, 5, 15, 90, 165, 165, 90, 161, 88, 1, 1.58058
40, 1, wb, attraction, a-b-da, 5, 2, 5, 15, 90, 165, 165, 90, 161, 88, 2, 0.700038
40, 1, wb, attraction, a-b-da, 5, 3, 5, 16, 190, 117, 195, 120, 120, 195, 1, 0.581855
40, 1, wb, attraction, a-b-da, 5, 3, 5, 16, 190, 117, 195, 120, 120, 195, 2, 0.477655
40, 1, wb, attraction, a-b-db, 14, 3, 5, 17, 120, 195, 195, 120, 111, 181, 3, 2.06403
40, 1, wb, attraction, a-b-db, 14, 3, 5, 17, 120, 195, 195, 120, 111, 181, 1, 1.02796
40, 1, wb, filler, NA, 999, 999, 5, 18, 71, 146, 95, 148, 96, 139, 1, 0.776225
40, 1, wb, filler, NA, 999, 999, 5, 18, 71, 146, 95, 148, 96, 139, 2, 0.744187
40, 1, wb, attraction, a-b-da, 9, 3, 5, 19, 120, 195, 195, 120, 186, 114, 3, 1.22383
40, 1, wb, attraction, a-b-da, 9, 3, 5, 19, 120, 195, 195, 120, 186, 114, 1, 0.813334
40, 1, wb, attraction, a-b-db, 14, 1, 5, 20, 60, 135, 56, 125, 135, 60, 2, 0.674297
40, 1, wb, attraction, a-b-db, 14, 1, 5, 20, 60, 135, 56, 125, 135, 60, 3, 0.774154
40, 1, wb, attraction, a-b-db, 2, 3, 5, 21, 120, 195, 119, 193, 195, 120, 2, 1.23645
40, 1, wb, attraction, a-b-db, 2, 3, 5, 21, 120, 195, 119, 193, 195, 120, 3, 0.506035
40, 1, wb, filler, NA, 999, 999, 5, 22, 110, 140, 122, 79, 125, 162, 2, 0.779813
40, 1, wb, filler, NA, 999, 999, 5, 22, 110, 140, 122, 79, 125, 162, 3, 0.45165
40, 1, wb, attraction, a-b-db, 2, 2, 5, 23, 165, 90, 89, 163, 90, 165, 2, 0.9594
40, 1, wb, attraction, a-b-db, 2, 2, 5, 23, 165, 90, 89, 163, 90, 165, 1, 0.407712
40, 1, wb, filler, NA, 999, 999, 5, 24, 157, 193, 127, 97, 74, 79, 3, 0.732849
40, 1, wb, filler, NA, 999, 999, 5, 24, 157, 193, 127, 97, 74, 79, 1, 0.438709
40, 1, wb, filler, NA, 999, 999, 5, 25, 161, 115, 87, 194, 111, 93, 3, 0.60358
40, 1, wb, filler, NA, 999, 999, 5, 25, 161, 115, 87, 194, 111, 93, 1, 0.69822
40, 1, wb, attraction, a-b-db, 9, 3, 5, 26, 120, 195, 195, 120, 114, 186, 2, 1.53196
40, 1, wb, attraction, a-b-db, 9, 3, 5, 26, 120, 195, 195, 120, 114, 186, 1, 0.557438
40, 1, wb, attraction, a-b-da, 5, 1, 5, 27, 60, 135, 132, 58, 135, 60, 2, 0.876626
40, 1, wb, attraction, a-b-da, 5, 1, 5, 27, 60, 135, 132, 58, 135, 60, 1, 0.440345
40, 1, wb, attraction, a-b-db, 2, 1, 5, 28, 59, 134, 60, 135, 135, 60, 2, 0.596228
40, 1, wb, attraction, a-b-db, 2, 1, 5, 28, 59, 134, 60, 135, 135, 60, 1, 0.803362
40, 1, wb, attraction, a-b-da, 9, 1, 5, 29, 60, 135, 135, 60, 129, 57, 2, 0.880844
40, 1, wb, attraction, a-b-da, 9, 1, 5, 29, 60, 135, 135, 60, 129, 57, 3, 0.5566
40, 1, wb, attraction, a-b-db, 9, 2, 5, 30, 165, 90, 90, 165, 86, 157, 3, 1.55634
40, 1, wb, attraction, a-b-db, 9, 2, 5, 30, 165, 90, 90, 165, 86, 157, 1, 0.564541
40, 1, wb, attraction, a-b-db, 5, 1, 5, 31, 60, 135, 58, 132, 135, 60, 3, 0.963514
40, 1, wb, attraction, a-b-db, 5, 1, 5, 31, 60, 135, 58, 132, 135, 60, 1, 0.643924
40, 1, wb, attraction, a-b-db, 9, 1, 5, 32, 57, 129, 135, 60, 60, 135, 1, 0.887573
40, 1, wb, attraction, a-b-db, 9, 1, 5, 32, 57, 129, 135, 60, 60, 135, 2, 0.523286
40, 1, wb, attraction, a-b-da, 2, 2, 5, 33, 163, 89, 165, 90, 90, 165, 1, 0.915764
40, 1, wb, attraction, a-b-da, 2, 2, 5, 33, 163, 89, 165, 90, 90, 165, 2, 0.558135
40, 1, wb, attraction, a-b-da, 14, 1, 5, 34, 135, 60, 125, 56, 60, 135, 1, 0.597193
40, 1, wb, attraction, a-b-da, 14, 1, 5, 34, 135, 60, 125, 56, 60, 135, 3, 1.42846
40, 1, wb, filler, NA, 999, 999, 5, 35, 155, 115, 112, 147, 69, 82, 3, 0.776621
40, 1, wb, filler, NA, 999, 999, 5, 35, 155, 115, 112, 147, 69, 82, 1, 0.696334
40, 1, wb, catch, NA, 999, 999, 5, 36, 147, 168, 103, 152, 101, 94, 3, 1.34602
40, 1, wb, catch, NA, 999, 999, 5, 36, 147, 168, 103, 152, 101, 94, 1, 0.418875
40, 1, wb, attraction, a-b-da, 14, 2, 5, 37, 165, 90, 153, 83, 90, 165, 2, 2.056
40, 1, wb, attraction, a-b-da, 14, 2, 5, 37, 165, 90, 153, 83, 90, 165, 3, 0.628004
40, 1, wb, attraction, a-b-da, 14, 1, 6, 1, 60, 135, 125, 56, 135, 60, 2, 1.08845
40, 1, wb, attraction, a-b-da, 14, 1, 6, 1, 60, 135, 125, 56, 135, 60, 1, 0.395388
40, 1, wb, attraction, a-b-da, 5, 1, 6, 2, 135, 60, 60, 135, 132, 58, 2, 0.601184
40, 1, wb, attraction, a-b-da, 5, 1, 6, 2, 135, 60, 60, 135, 132, 58, 1, 1.27246
40, 1, wb, attraction, a-b-da, 9, 3, 6, 3, 120, 195, 195, 120, 186, 114, 3, 1.16323
40, 1, wb, attraction, a-b-da, 9, 3, 6, 3, 120, 195, 195, 120, 186, 114, 1, 1.24354
40, 1, wb, filler, NA, 999, 999, 6, 4, 187, 194, 158, 169, 86, 68, 3, 1.30301
40, 1, wb, filler, NA, 999, 999, 6, 4, 187, 194, 158, 169, 86, 68, 1, 0.41798
40, 1, wb, filler, NA, 999, 999, 6, 5, 171, 114, 155, 171, 151, 88, 3, 1.37506
40, 1, wb, filler, NA, 999, 999, 6, 5, 171, 114, 155, 171, 151, 88, 1, 0.83853
40, 1, wb, attraction, a-b-da, 9, 2, 6, 6, 165, 90, 157, 86, 90, 165, 3, 0.675045
40, 1, wb, attraction, a-b-da, 9, 2, 6, 6, 165, 90, 157, 86, 90, 165, 2, 1.23071
40, 1, wb, catch, NA, 999, 999, 6, 7, 119, 76, 99, 156, 160, 155, 1, 1.53096
40, 1, wb, catch, NA, 999, 999, 6, 7, 119, 76, 99, 156, 160, 155, 3, 0.404506
40, 1, wb, attraction, a-b-db, 5, 3, 6, 8, 120, 195, 117, 190, 195, 120, 3, 0.986318
40, 1, wb, attraction, a-b-db, 5, 3, 6, 8, 120, 195, 117, 190, 195, 120, 1, 0.729907
40, 1, wb, attraction, a-b-db, 2, 2, 6, 9, 90, 165, 89, 163, 165, 90, 2, 3.43438
40, 1, wb, attraction, a-b-db, 2, 2, 6, 9, 90, 165, 89, 163, 165, 90, 1, 1.27129
40, 1, wb, attraction, a-b-da, 9, 1, 6, 10, 135, 60, 60, 135, 129, 57, 3, 1.37807
40, 1, wb, attraction, a-b-da, 9, 1, 6, 10, 135, 60, 60, 135, 129, 57, 1, 1.00162
40, 1, wb, attraction, a-b-db, 5, 2, 6, 11, 88, 161, 90, 165, 165, 90, 3, 0.951263
40, 1, wb, attraction, a-b-db, 5, 2, 6, 11, 88, 161, 90, 165, 165, 90, 2, 1.70426
40, 1, wb, attraction, a-b-da, 5, 2, 6, 12, 161, 88, 90, 165, 165, 90, 3, 1.2336
40, 1, wb, attraction, a-b-da, 5, 2, 6, 12, 161, 88, 90, 165, 165, 90, 1, 1.36739
40, 1, wb, filler, NA, 999, 999, 6, 13, 62, 178, 176, 162, 103, 140, 1, 1.11812
40, 1, wb, filler, NA, 999, 999, 6, 13, 62, 178, 176, 162, 103, 140, 2, 0.920336
40, 1, wb, filler, NA, 999, 999, 6, 14, 181, 187, 73, 195, 81, 151, 2, 1.93772
40, 1, wb, filler, NA, 999, 999, 6, 14, 181, 187, 73, 195, 81, 151, 1, 1.7301
40, 1, wb, filler, NA, 999, 999, 6, 15, 61, 56, 162, 165, 59, 139, 1, 0.938104
40, 1, wb, filler, NA, 999, 999, 6, 15, 61, 56, 162, 165, 59, 139, 2, 0.475105
40, 1, wb, filler, NA, 999, 999, 6, 16, 190, 190, 186, 174, 170, 141, 3, 1.4376
40, 1, wb, filler, NA, 999, 999, 6, 16, 190, 190, 186, 174, 170, 141, 1, 1.28326
40, 1, wb, attraction, a-b-db, 14, 2, 6, 17, 165, 90, 83, 153, 90, 165, 2, 2.46143
40, 1, wb, attraction, a-b-db, 14, 2, 6, 17, 165, 90, 83, 153, 90, 165, 1, 0.489257
40, 1, wb, attraction, a-b-da, 2, 1, 6, 18, 60, 135, 134, 59, 135, 60, 1, 1.20371
40, 1, wb, attraction, a-b-da, 2, 1, 6, 18, 60, 135, 134, 59, 135, 60, 3, 0.53867
40, 1, wb, attraction, a-b-da, 14, 2, 6, 19, 90, 165, 153, 83, 165, 90, 2, 1.60306
40, 1, wb, attraction, a-b-da, 14, 2, 6, 19, 90, 165, 153, 83, 165, 90, 3, 0.641883
40, 1, wb, attraction, a-b-db, 14, 1, 6, 20, 56, 125, 135, 60, 60, 135, 1, 1.06962
40, 1, wb, attraction, a-b-db, 14, 1, 6, 20, 56, 125, 135, 60, 60, 135, 3, 1.106
40, 1, wb, attraction, a-b-db, 14, 3, 6, 21, 195, 120, 120, 195, 111, 181, 3, 1.36361
40, 1, wb, attraction, a-b-db, 14, 3, 6, 21, 195, 120, 120, 195, 111, 181, 1, 0.675682
40, 1, wb, catch, NA, 999, 999, 6, 22, 122, 193, 124, 71, 125, 130, 2, 2.3421
40, 1, wb, catch, NA, 999, 999, 6, 22, 122, 193, 124, 71, 125, 130, 1, 0.614711
40, 1, wb, attraction, a-b-da, 2, 2, 6, 23, 90, 165, 163, 89, 165, 90, 2, 4.87576
40, 1, wb, attraction, a-b-da, 2, 2, 6, 23, 90, 165, 163, 89, 165, 90, 1, 0.774269
40, 1, wb, attraction, a-b-da, 2, 3, 6, 24, 195, 120, 193, 119, 120, 195, 3, 1.16464
40, 1, wb, attraction, a-b-da, 2, 3, 6, 24, 195, 120, 193, 119, 120, 195, 1, 0.500851
40, 1, wb, filler, NA, 999, 999, 6, 25, 110, 127, 120, 145, 162, 111, 1, 0.870642
40, 1, wb, filler, NA, 999, 999, 6, 25, 110, 127, 120, 145, 162, 111, 2, 0.642998
40, 1, wb, filler, NA, 999, 999, 6, 26, 167, 100, 136, 140, 162, 104, 3, 1.74275
40, 1, wb, filler, NA, 999, 999, 6, 26, 167, 100, 136, 140, 162, 104, 2, 1.51954
40, 1, wb, filler, NA, 999, 999, 6, 27, 152, 192, 92, 96, 131, 101, 2, 1.66437
40, 1, wb, filler, NA, 999, 999, 6, 27, 152, 192, 92, 96, 131, 101, 1, 0.38848
40, 1, wb, attraction, a-b-da, 5, 3, 6, 28, 190, 117, 195, 120, 120, 195, 1, 2.30702
40, 1, wb, attraction, a-b-da, 5, 3, 6, 28, 190, 117, 195, 120, 120, 195, 3, 1.38092
40, 1, wb, attraction, a-b-db, 5, 1, 6, 29, 58, 132, 60, 135, 135, 60, 1, 1.46699
40, 1, wb, attraction, a-b-db, 5, 1, 6, 29, 58, 132, 60, 135, 135, 60, 2, 0.36715
40, 1, wb, filler, NA, 999, 999, 6, 30, 65, 86, 98, 130, 56, 157, 1, 1.01439
40, 1, wb, filler, NA, 999, 999, 6, 30, 65, 86, 98, 130, 56, 157, 2, 0.452812
40, 1, wb, attraction, a-b-da, 14, 3, 6, 31, 120, 195, 181, 111, 195, 120, 3, 1.53655
40, 1, wb, attraction, a-b-da, 14, 3, 6, 31, 120, 195, 181, 111, 195, 120, 1, 0.578022
40, 1, wb, attraction, a-b-db, 9, 2, 6, 32, 86, 157, 90, 165, 165, 90, 1, 2.08849
40, 1, wb, attraction, a-b-db, 9, 2, 6, 32, 86, 157, 90, 165, 165, 90, 2, 0.915177
40, 1, wb, attraction, a-b-db, 2, 1, 6, 33, 60, 135, 135, 60, 59, 134, 1, 0.988126
40, 1, wb, attraction, a-b-db, 2, 1, 6, 33, 60, 135, 135, 60, 59, 134, 2, 0.52311
40, 1, wb, attraction, a-b-db, 2, 3, 6, 34, 120, 195, 195, 120, 119, 193, 1, 0.70816
40, 1, wb, attraction, a-b-db, 2, 3, 6, 34, 120, 195, 195, 120, 119, 193, 3, 1.31858
40, 1, wb, attraction, a-b-db, 9, 1, 6, 35, 135, 60, 57, 129, 60, 135, 3, 1.23147
40, 1, wb, attraction, a-b-db, 9, 1, 6, 35, 135, 60, 57, 129, 60, 135, 2, 1.59717
40, 1, wb, catch, NA, 999, 999, 6, 36, 85, 110, 132, 183, 155, 100, 1, 1.18649
40, 1, wb, catch, NA, 999, 999, 6, 36, 85, 110, 132, 183, 155, 100, 2, 0.906188
40, 1, wb, attraction, a-b-db, 9, 3, 6, 37, 195, 120, 120, 195, 114, 186, 3, 4.50774
40, 1, wb, attraction, a-b-db, 9, 3, 6, 37, 195, 120, 120, 195, 114, 186, 1, 0.564932
40, 1, wb, attraction, a-b-db, 2, 1, 7, 1, 135, 60, 60, 135, 59, 134, 3, 1.38009
40, 1, wb, attraction, a-b-db, 2, 1, 7, 1, 135, 60, 60, 135, 59, 134, 2, 0.355596
40, 1, wb, catch, NA, 999, 999, 7, 2, 164, 91, 141, 174, 71, 124, 3, 0.883517
40, 1, wb, catch, NA, 999, 999, 7, 2, 164, 91, 141, 174, 71, 124, 2, 0.31924
40, 1, wb, attraction, a-b-db, 2, 2, 7, 3, 165, 90, 89, 163, 90, 165, 1, 1.42427
40, 1, wb, attraction, a-b-db, 2, 2, 7, 3, 165, 90, 89, 163, 90, 165, 2, 0.309935
40, 1, wb, attraction, a-b-db, 5, 2, 7, 4, 90, 165, 88, 161, 165, 90, 3, 0.815056
40, 1, wb, attraction, a-b-db, 5, 2, 7, 4, 90, 165, 88, 161, 165, 90, 1, 1.3975
40, 1, wb, attraction, a-b-da, 2, 3, 7, 5, 120, 195, 193, 119, 195, 120, 2, 3.03492
40, 1, wb, attraction, a-b-da, 2, 3, 7, 5, 120, 195, 193, 119, 195, 120, 1, 0.568002
40, 1, wb, attraction, a-b-da, 9, 1, 7, 6, 60, 135, 135, 60, 129, 57, 1, 1.70303
40, 1, wb, attraction, a-b-da, 9, 1, 7, 6, 60, 135, 135, 60, 129, 57, 3, 0.681905
40, 1, wb, filler, NA, 999, 999, 7, 7, 131, 87, 134, 186, 163, 112, 1, 1.25222
40, 1, wb, filler, NA, 999, 999, 7, 7, 131, 87, 134, 186, 163, 112, 2, 0.409152
40, 1, wb, filler, NA, 999, 999, 7, 8, 121, 83, 77, 114, 168, 65, 1, 1.67035
40, 1, wb, filler, NA, 999, 999, 7, 8, 121, 83, 77, 114, 168, 65, 3, 3.79439
40, 1, wb, attraction, a-b-da, 14, 1, 7, 9, 125, 56, 60, 135, 135, 60, 2, 1.14322
40, 1, wb, attraction, a-b-da, 14, 1, 7, 9, 125, 56, 60, 135, 135, 60, 3, 0.840189
40, 1, wb, attraction, a-b-da, 14, 2, 7, 10, 90, 165, 165, 90, 153, 83, 3, 1.57177
40, 1, wb, attraction, a-b-da, 14, 2, 7, 10, 90, 165, 165, 90, 153, 83, 1, 1.14735
40, 1, wb, filler, NA, 999, 999, 7, 11, 65, 162, 66, 102, 89, 150, 2, 0.946985
40, 1, wb, filler, NA, 999, 999, 7, 11, 65, 162, 66, 102, 89, 150, 3, 0.531843
40, 1, wb, attraction, a-b-da, 2, 2, 7, 12, 163, 89, 165, 90, 90, 165, 2, 4.18834
40, 1, wb, attraction, a-b-da, 2, 2, 7, 12, 163, 89, 165, 90, 90, 165, 1, 2.81092
40, 1, wb, filler, NA, 999, 999, 7, 13, 129, 119, 94, 159, 74, 102, 3, 1.14334
40, 1, wb, filler, NA, 999, 999, 7, 13, 129, 119, 94, 159, 74, 102, 2, 0.992314
40, 1, wb, filler, NA, 999, 999, 7, 14, 179, 163, 161, 172, 66, 104, 3, 1.37393
40, 1, wb, filler, NA, 999, 999, 7, 14, 179, 163, 161, 172, 66, 104, 1, 1.27753
40, 1, wb, attraction, a-b-db, 14, 1, 7, 15, 56, 125, 60, 135, 135, 60, 3, 1.20774
40, 1, wb, attraction, a-b-db, 14, 1, 7, 15, 56, 125, 60, 135, 135, 60, 1, 3.28599
40, 1, wb, attraction, a-b-da, 9, 2, 7, 16, 157, 86, 90, 165, 165, 90, 1, 1.35952
40, 1, wb, attraction, a-b-da, 9, 2, 7, 16, 157, 86, 90, 165, 165, 90, 2, 1.66393
40, 1, wb, filler, NA, 999, 999, 7, 17, 186, 124, 136, 64, 99, 144, 2, 0.962486
40, 1, wb, filler, NA, 999, 999, 7, 17, 186, 124, 136, 64, 99, 144, 1, 0.522862
40, 1, wb, attraction, a-b-da, 5, 3, 7, 18, 190, 117, 120, 195, 195, 120, 2, 1.56398
40, 1, wb, attraction, a-b-da, 5, 3, 7, 18, 190, 117, 120, 195, 195, 120, 1, 0.364054
40, 1, wb, attraction, a-b-db, 9, 1, 7, 19, 60, 135, 135, 60, 57, 129, 3, 1.18903
40, 1, wb, attraction, a-b-db, 9, 1, 7, 19, 60, 135, 135, 60, 57, 129, 2, 0.794141
40, 1, wb, catch, NA, 999, 999, 7, 20, 109, 86, 101, 154, 148, 167, 1, 0.976087
40, 1, wb, catch, NA, 999, 999, 7, 20, 109, 86, 101, 154, 148, 167, 3, 0.975614
40, 1, wb, attraction, a-b-db, 14, 2, 7, 21, 90, 165, 165, 90, 83, 153, 3, 1.20583
40, 1, wb, attraction, a-b-db, 14, 2, 7, 21, 90, 165, 165, 90, 83, 153, 1, 0.500188
40, 1, wb, attraction, a-b-db, 14, 3, 7, 22, 111, 181, 120, 195, 195, 120, 1, 1.56584
40, 1, wb, attraction, a-b-db, 14, 3, 7, 22, 111, 181, 120, 195, 195, 120, 3, 0.678218
40, 1, wb, attraction, a-b-da, 14, 3, 7, 23, 181, 111, 195, 120, 120, 195, 1, 1.02438
40, 1, wb, attraction, a-b-da, 14, 3, 7, 23, 181, 111, 195, 120, 120, 195, 2, 0.558036
40, 1, wb, attraction, a-b-db, 2, 3, 7, 24, 119, 193, 120, 195, 195, 120, 3, 0.805395
40, 1, wb, attraction, a-b-db, 2, 3, 7, 24, 119, 193, 120, 195, 195, 120, 1, 0.635717
40, 1, wb, attraction, a-b-da, 2, 1, 7, 25, 60, 135, 135, 60, 134, 59, 3, 0.912007
40, 1, wb, attraction, a-b-da, 2, 1, 7, 25, 60, 135, 135, 60, 134, 59, 1, 0.434356
40, 1, wb, attraction, a-b-da, 5, 1, 7, 26, 132, 58, 60, 135, 135, 60, 3, 0.670794
40, 1, wb, attraction, a-b-da, 5, 1, 7, 26, 132, 58, 60, 135, 135, 60, 1, 0.891403
40, 1, wb, attraction, a-b-da, 5, 2, 7, 27, 165, 90, 90, 165, 161, 88, 3, 0.693061
40, 1, wb, attraction, a-b-da, 5, 2, 7, 27, 165, 90, 90, 165, 161, 88, 1, 0.591999
40, 1, wb, filler, NA, 999, 999, 7, 28, 170, 113, 58, 159, 165, 152, 2, 0.805669
40, 1, wb, filler, NA, 999, 999, 7, 28, 170, 113, 58, 159, 165, 152, 3, 0.668135
40, 1, wb, attraction, a-b-da, 9, 3, 7, 29, 186, 114, 120, 195, 195, 120, 1, 2.11127
40, 1, wb, attraction, a-b-da, 9, 3, 7, 29, 186, 114, 120, 195, 195, 120, 2, 0.497286
40, 1, wb, attraction, a-b-db, 9, 3, 7, 30, 114, 186, 120, 195, 195, 120, 3, 1.34698
40, 1, wb, attraction, a-b-db, 9, 3, 7, 30, 114, 186, 120, 195, 195, 120, 2, 0.435824
40, 1, wb, attraction, a-b-db, 5, 1, 7, 31, 58, 132, 60, 135, 135, 60, 1, 1.26443
40, 1, wb, attraction, a-b-db, 5, 1, 7, 31, 58, 132, 60, 135, 135, 60, 2, 0.780607
40, 1, wb, filler, NA, 999, 999, 7, 32, 151, 65, 187, 143, 109, 160, 1, 0.627056
40, 1, wb, filler, NA, 999, 999, 7, 32, 151, 65, 187, 143, 109, 160, 2, 0.688663
40, 1, wb, attraction, a-b-db, 9, 2, 7, 33, 86, 157, 165, 90, 90, 165, 1, 0.819212
40, 1, wb, attraction, a-b-db, 9, 2, 7, 33, 86, 157, 165, 90, 90, 165, 2, 0.588226
40, 1, wb, filler, NA, 999, 999, 7, 34, 130, 134, 86, 123, 166, 124, 1, 0.648015
40, 1, wb, filler, NA, 999, 999, 7, 34, 130, 134, 86, 123, 166, 124, 3, 1.78108
40, 1, wb, attraction, a-b-db, 5, 3, 7, 35, 120, 195, 117, 190, 195, 120, 3, 1.93124
40, 1, wb, attraction, a-b-db, 5, 3, 7, 35, 120, 195, 117, 190, 195, 120, 2, 1.08455
40, 1, wb, filler, NA, 999, 999, 7, 36, 67, 85, 109, 102, 119, 62, 1, 1.03079
40, 1, wb, filler, NA, 999, 999, 7, 36, 67, 85, 109, 102, 119, 62, 2, 0.420505
40, 1, wb, catch, NA, 999, 999, 7, 37, 101, 94, 185, 130, 114, 141, 1, 0.769511
40, 1, wb, catch, NA, 999, 999, 7, 37, 101, 94, 185, 130, 114, 141, 2, 0.625913
40, 1, wb, attraction, a-b-db, 9, 3, 8, 1, 114, 186, 195, 120, 120, 195, 1, 1.45435
40, 1, wb, attraction, a-b-db, 9, 3, 8, 1, 114, 186, 195, 120, 120, 195, 2, 0.571334
40, 1, wb, filler, NA, 999, 999, 8, 2, 101, 157, 160, 181, 160, 109, 1, 0.986249
40, 1, wb, filler, NA, 999, 999, 8, 2, 101, 157, 160, 181, 160, 109, 2, 0.513959
40, 1, wb, attraction, a-b-da, 5, 2, 8, 3, 161, 88, 165, 90, 90, 165, 1, 1.50707
40, 1, wb, attraction, a-b-da, 5, 2, 8, 3, 161, 88, 165, 90, 90, 165, 3, 0.493361
40, 1, wb, attraction, a-b-da, 14, 1, 8, 4, 60, 135, 135, 60, 125, 56, 3, 1.31905
40, 1, wb, attraction, a-b-da, 14, 1, 8, 4, 60, 135, 135, 60, 125, 56, 2, 0.673396
40, 1, wb, filler, NA, 999, 999, 8, 5, 72, 153, 77, 67, 70, 155, 2, 1.13958
40, 1, wb, filler, NA, 999, 999, 8, 5, 72, 153, 77, 67, 70, 155, 1, 0.50066
40, 1, wb, attraction, a-b-da, 2, 1, 8, 6, 60, 135, 135, 60, 134, 59, 1, 1.39031
40, 1, wb, attraction, a-b-da, 2, 1, 8, 6, 60, 135, 135, 60, 134, 59, 2, 0.733207
40, 1, wb, attraction, a-b-da, 5, 3, 8, 7, 195, 120, 120, 195, 190, 117, 1, 1.37363
40, 1, wb, attraction, a-b-da, 5, 3, 8, 7, 195, 120, 120, 195, 190, 117, 2, 0.501191
40, 1, wb, attraction, a-b-db, 2, 3, 8, 8, 195, 120, 120, 195, 119, 193, 1, 0.782903
40, 1, wb, attraction, a-b-db, 2, 3, 8, 8, 195, 120, 120, 195, 119, 193, 2, 0.686667
40, 1, wb, filler, NA, 999, 999, 8, 9, 74, 122, 139, 75, 56, 123, 1, 0.625146
40, 1, wb, filler, NA, 999, 999, 8, 9, 74, 122, 139, 75, 56, 123, 2, 0.782861
40, 1, wb, attraction, a-b-db, 2, 2, 8, 10, 165, 90, 89, 163, 90, 165, 3, 0.973319
40, 1, wb, attraction, a-b-db, 2, 2, 8, 10, 165, 90, 89, 163, 90, 165, 2, 0.396803
40, 1, wb, filler, NA, 999, 999, 8, 11, 173, 77, 127, 172, 190, 163, 1, 0.906768
40, 1, wb, filler, NA, 999, 999, 8, 11, 173, 77, 127, 172, 190, 163, 2, 0.933059
40, 1, wb, attraction, a-b-da, 5, 1, 8, 12, 135, 60, 60, 135, 132, 58, 1, 0.909453
40, 1, wb, attraction, a-b-da, 5, 1, 8, 12, 135, 60, 60, 135, 132, 58, 2, 0.839801
40, 1, wb, attraction, a-b-da, 14, 3, 8, 13, 181, 111, 120, 195, 195, 120, 1, 1.37209
40, 1, wb, attraction, a-b-da, 14, 3, 8, 13, 181, 111, 120, 195, 195, 120, 2, 0.65164
40, 1, wb, attraction, a-b-db, 14, 2, 8, 14, 165, 90, 90, 165, 83, 153, 3, 1.95141
40, 1, wb, attraction, a-b-db, 14, 2, 8, 14, 165, 90, 90, 165, 83, 153, 2, 0.56017
40, 1, wb, filler, NA, 999, 999, 8, 15, 79, 123, 100, 134, 149, 120, 1, 1.48712
40, 1, wb, filler, NA, 999, 999, 8, 15, 79, 123, 100, 134, 149, 120, 2, 0.394667
40, 1, wb, catch, NA, 999, 999, 8, 16, 127, 68, 91, 164, 143, 172, 1, 0.536603
40, 1, wb, catch, NA, 999, 999, 8, 16, 127, 68, 91, 164, 143, 172, 3, 0.77834
40, 1, wb, attraction, a-b-da, 2, 2, 8, 17, 163, 89, 165, 90, 90, 165, 2, 3.32061
40, 1, wb, attraction, a-b-da, 2, 2, 8, 17, 163, 89, 165, 90, 90, 165, 3, 0.410273
40, 1, wb, filler, NA, 999, 999, 8, 18, 63, 93, 87, 116, 71, 130, 1, 1.05541
40, 1, wb, filler, NA, 999, 999, 8, 18, 63, 93, 87, 116, 71, 130, 2, 0.63576
40, 1, wb, attraction, a-b-db, 9, 2, 8, 19, 90, 165, 165, 90, 86, 157, 3, 1.74413
40, 1, wb, attraction, a-b-db, 9, 2, 8, 19, 90, 165, 165, 90, 86, 157, 1, 0.944908
40, 1, wb, attraction, a-b-da, 2, 3, 8, 20, 193, 119, 195, 120, 120, 195, 1, 1.36061
40, 1, wb, attraction, a-b-da, 2, 3, 8, 20, 193, 119, 195, 120, 120, 195, 2, 0.376783
40, 1, wb, attraction, a-b-da, 9, 2, 8, 21, 165, 90, 90, 165, 157, 86, 1, 0.703221
40, 1, wb, attraction, a-b-da, 9, 2, 8, 21, 165, 90, 90, 165, 157, 86, 2, 1.16237
40, 1, wb, filler, NA, 999, 999, 8, 22, 107, 124, 57, 111, 89, 91, 2, 1.48916
40, 1, wb, filler, NA, 999, 999, 8, 22, 107, 124, 57, 111, 89, 91, 1, 0.396031
40, 1, wb, attraction, a-b-db, 9, 1, 8, 23, 135, 60, 57, 129, 60, 135, 2, 0.897931
40, 1, wb, attraction, a-b-db, 9, 1, 8, 23, 135, 60, 57, 129, 60, 135, 3, 1.06898
40, 1, wb, catch, NA, 999, 999, 8, 24, 106, 89, 121, 134, 143, 172, 1, 0.719774
40, 1, wb, catch, NA, 999, 999, 8, 24, 106, 89, 121, 134, 143, 172, 3, 1.04222
40, 1, wb, catch, NA, 999, 999, 8, 25, 187, 128, 163, 92, 86, 109, 3, 1.06539
40, 1, wb, catch, NA, 999, 999, 8, 25, 187, 128, 163, 92, 86, 109, 1, 0.466298
40, 1, wb, attraction, a-b-db, 5, 2, 8, 26, 88, 161, 165, 90, 90, 165, 1, 1.50928
40, 1, wb, attraction, a-b-db, 5, 2, 8, 26, 88, 161, 165, 90, 90, 165, 3, 0.455474
40, 1, wb, attraction, a-b-da, 9, 3, 8, 27, 186, 114, 120, 195, 195, 120, 1, 0.843461
40, 1, wb, attraction, a-b-da, 9, 3, 8, 27, 186, 114, 120, 195, 195, 120, 2, 1.42444
40, 1, wb, attraction, a-b-da, 14, 2, 8, 28, 165, 90, 90, 165, 153, 83, 3, 1.62848
40, 1, wb, attraction, a-b-da, 14, 2, 8, 28, 165, 90, 90, 165, 153, 83, 1, 0.962113
40, 1, wb, attraction, a-b-db, 14, 1, 8, 29, 60, 135, 135, 60, 56, 125, 3, 1.27305
40, 1, wb, attraction, a-b-db, 14, 1, 8, 29, 60, 135, 135, 60, 56, 125, 1, 0.668568
40, 1, wb, attraction, a-b-db, 5, 3, 8, 30, 120, 195, 195, 120, 117, 190, 2, 3.95952
40, 1, wb, attraction, a-b-db, 5, 3, 8, 30, 120, 195, 195, 120, 117, 190, 1, 0.822954
40, 1, wb, filler, NA, 999, 999, 8, 31, 121, 175, 119, 161, 73, 191, 3, 1.38802
40, 1, wb, filler, NA, 999, 999, 8, 31, 121, 175, 119, 161, 73, 191, 1, 0.7069
40, 1, wb, attraction, a-b-db, 5, 1, 8, 32, 60, 135, 135, 60, 58, 132, 3, 2.32394
40, 1, wb, attraction, a-b-db, 5, 1, 8, 32, 60, 135, 135, 60, 58, 132, 1, 0.677176
40, 1, wb, filler, NA, 999, 999, 8, 33, 131, 171, 97, 75, 141, 142, 2, 1.1755
40, 1, wb, filler, NA, 999, 999, 8, 33, 131, 171, 97, 75, 141, 142, 1, 0.911176
40, 1, wb, attraction, a-b-db, 2, 1, 8, 34, 135, 60, 59, 134, 60, 135, 3, 2.96824
40, 1, wb, attraction, a-b-db, 2, 1, 8, 34, 135, 60, 59, 134, 60, 135, 1, 1.07993
40, 1, wb, filler, NA, 999, 999, 8, 35, 164, 162, 138, 153, 145, 61, 3, 1.18614
40, 1, wb, filler, NA, 999, 999, 8, 35, 164, 162, 138, 153, 145, 61, 1, 0.385859
40, 1, wb, attraction, a-b-db, 14, 3, 8, 36, 120, 195, 195, 120, 111, 181, 3, 0.760293
40, 1, wb, attraction, a-b-db, 14, 3, 8, 36, 120, 195, 195, 120, 111, 181, 1, 1.0663
40, 1, wb, attraction, a-b-da, 9, 1, 8, 37, 135, 60, 60, 135, 129, 57, 3, 2.02761
40, 1, wb, attraction, a-b-da, 9, 1, 8, 37, 135, 60, 60, 135, 129, 57, 2, 0.488918
