sub_n, computer_n, bw_cond, effect, set, distance, diag, block_n, trial_n, h1, w1, h2, w2, h3, w3, choice, rt 
49, 1, bw, practice, NA, 999, 999, 0, 1, 71, 69, 162, 194, 114, 101, 2, 3.92336
49, 1, bw, practice, NA, 999, 999, 0, 1, 71, 69, 162, 194, 114, 101, 1, 2.47971
49, 1, bw, practice, NA, 999, 999, 0, 2, 88, 62, 104, 136, 73, 73, 2, 5.27634
49, 1, bw, practice, NA, 999, 999, 0, 2, 88, 62, 104, 136, 73, 73, 1, 4.62278
49, 1, bw, practice, NA, 999, 999, 0, 3, 134, 83, 175, 90, 157, 90, 3, 2.62287
49, 1, bw, practice, NA, 999, 999, 0, 3, 134, 83, 175, 90, 157, 90, 1, 3.1974
49, 1, bw, attraction, a-b-db, 9, 3, 1, 1, 195, 120, 114, 186, 120, 195, 3, 4.10441
49, 1, bw, attraction, a-b-db, 9, 3, 1, 1, 195, 120, 114, 186, 120, 195, 2, 1.13844
49, 1, bw, attraction, a-b-da, 5, 1, 1, 2, 135, 60, 60, 135, 132, 58, 1, 5.8746
49, 1, bw, attraction, a-b-da, 5, 1, 1, 2, 135, 60, 60, 135, 132, 58, 3, 1.03678
49, 1, bw, filler, NA, 999, 999, 1, 3, 120, 69, 166, 135, 161, 60, 2, 1.55312
49, 1, bw, filler, NA, 999, 999, 1, 3, 120, 69, 166, 135, 161, 60, 3, 0.754027
49, 1, bw, attraction, a-b-da, 9, 2, 1, 4, 165, 90, 157, 86, 90, 165, 1, 1.72965
49, 1, bw, attraction, a-b-da, 9, 2, 1, 4, 165, 90, 157, 86, 90, 165, 2, 0.803069
49, 1, bw, filler, NA, 999, 999, 1, 5, 180, 114, 158, 70, 174, 134, 3, 1.48866
49, 1, bw, filler, NA, 999, 999, 1, 5, 180, 114, 158, 70, 174, 134, 2, 0.94762
49, 1, bw, attraction, a-b-da, 14, 1, 1, 6, 125, 56, 60, 135, 135, 60, 3, 5.71534
49, 1, bw, attraction, a-b-da, 14, 1, 1, 6, 125, 56, 60, 135, 135, 60, 1, 1.83604
49, 1, bw, filler, NA, 999, 999, 1, 7, 147, 91, 125, 110, 72, 141, 2, 1.88804
49, 1, bw, filler, NA, 999, 999, 1, 7, 147, 91, 125, 110, 72, 141, 1, 1.05876
49, 1, bw, attraction, a-b-db, 5, 3, 1, 8, 195, 120, 117, 190, 120, 195, 1, 4.23771
49, 1, bw, attraction, a-b-db, 5, 3, 1, 8, 195, 120, 117, 190, 120, 195, 3, 1.77055
49, 1, bw, attraction, a-b-db, 2, 1, 1, 9, 59, 134, 60, 135, 135, 60, 2, 2.47305
49, 1, bw, attraction, a-b-db, 2, 1, 1, 9, 59, 134, 60, 135, 135, 60, 3, 0.924458
49, 1, bw, attraction, a-b-da, 2, 3, 1, 10, 193, 119, 195, 120, 120, 195, 3, 2.38066
49, 1, bw, attraction, a-b-da, 2, 3, 1, 10, 193, 119, 195, 120, 120, 195, 1, 0.771965
49, 1, bw, attraction, a-b-da, 14, 2, 1, 11, 153, 83, 90, 165, 165, 90, 1, 3.2989
49, 1, bw, attraction, a-b-da, 14, 2, 1, 11, 153, 83, 90, 165, 165, 90, 3, 0.877188
49, 1, bw, filler, NA, 999, 999, 1, 12, 155, 121, 192, 84, 179, 58, 1, 1.27149
49, 1, bw, filler, NA, 999, 999, 1, 12, 155, 121, 192, 84, 179, 58, 3, 0.89988
49, 1, bw, filler, NA, 999, 999, 1, 13, 171, 129, 125, 187, 170, 122, 2, 3.02944
49, 1, bw, filler, NA, 999, 999, 1, 13, 171, 129, 125, 187, 170, 122, 1, 0.642426
49, 1, bw, attraction, a-b-db, 14, 1, 1, 14, 60, 135, 56, 125, 135, 60, 1, 4.22219
49, 1, bw, attraction, a-b-db, 14, 1, 1, 14, 60, 135, 56, 125, 135, 60, 3, 0.715559
49, 1, bw, attraction, a-b-da, 9, 1, 1, 15, 135, 60, 129, 57, 60, 135, 3, 2.07655
49, 1, bw, attraction, a-b-da, 9, 1, 1, 15, 135, 60, 129, 57, 60, 135, 1, 0.799895
49, 1, bw, attraction, a-b-da, 14, 3, 1, 16, 181, 111, 120, 195, 195, 120, 2, 1.63763
49, 1, bw, attraction, a-b-da, 14, 3, 1, 16, 181, 111, 120, 195, 195, 120, 1, 0.498377
49, 1, bw, attraction, a-b-db, 5, 1, 1, 17, 135, 60, 58, 132, 60, 135, 1, 1.54023
49, 1, bw, attraction, a-b-db, 5, 1, 1, 17, 135, 60, 58, 132, 60, 135, 3, 0.565064
49, 1, bw, attraction, a-b-db, 2, 2, 1, 18, 89, 163, 165, 90, 90, 165, 3, 2.42002
49, 1, bw, attraction, a-b-db, 2, 2, 1, 18, 89, 163, 165, 90, 90, 165, 2, 1.08998
49, 1, bw, filler, NA, 999, 999, 1, 19, 98, 114, 70, 189, 129, 96, 3, 1.20423
49, 1, bw, filler, NA, 999, 999, 1, 19, 98, 114, 70, 189, 129, 96, 1, 1.1311
49, 1, bw, attraction, a-b-da, 2, 1, 1, 20, 135, 60, 60, 135, 134, 59, 3, 1.7635
49, 1, bw, attraction, a-b-da, 2, 1, 1, 20, 135, 60, 60, 135, 134, 59, 1, 0.851425
49, 1, bw, attraction, a-b-da, 2, 2, 1, 21, 165, 90, 90, 165, 163, 89, 1, 1.16717
49, 1, bw, attraction, a-b-da, 2, 2, 1, 21, 165, 90, 90, 165, 163, 89, 3, 2.49547
49, 1, bw, filler, NA, 999, 999, 1, 22, 93, 191, 100, 64, 93, 145, 1, 0.824533
49, 1, bw, filler, NA, 999, 999, 1, 22, 93, 191, 100, 64, 93, 145, 2, 0.726927
49, 1, bw, attraction, a-b-db, 5, 2, 1, 23, 165, 90, 88, 161, 90, 165, 1, 3.59072
49, 1, bw, attraction, a-b-db, 5, 2, 1, 23, 165, 90, 88, 161, 90, 165, 2, 0.332996
49, 1, bw, attraction, a-b-db, 2, 3, 1, 24, 195, 120, 120, 195, 119, 193, 2, 3.25344
49, 1, bw, attraction, a-b-db, 2, 3, 1, 24, 195, 120, 120, 195, 119, 193, 1, 1.28198
49, 1, bw, filler, NA, 999, 999, 1, 25, 89, 187, 104, 80, 150, 189, 3, 0.995925
49, 1, bw, filler, NA, 999, 999, 1, 25, 89, 187, 104, 80, 150, 189, 2, 1.05094
49, 1, bw, attraction, a-b-db, 9, 1, 1, 26, 135, 60, 60, 135, 57, 129, 1, 2.89451
49, 1, bw, attraction, a-b-db, 9, 1, 1, 26, 135, 60, 60, 135, 57, 129, 2, 0.472859
49, 1, bw, attraction, a-b-db, 14, 2, 1, 27, 83, 153, 165, 90, 90, 165, 3, 1.14003
49, 1, bw, attraction, a-b-db, 14, 2, 1, 27, 83, 153, 165, 90, 90, 165, 2, 0.525062
49, 1, bw, attraction, a-b-da, 5, 3, 1, 28, 120, 195, 190, 117, 195, 120, 1, 2.90948
49, 1, bw, attraction, a-b-da, 5, 3, 1, 28, 120, 195, 190, 117, 195, 120, 2, 0.679146
49, 1, bw, attraction, a-b-db, 9, 2, 1, 29, 90, 165, 165, 90, 86, 157, 1, 4.96961
49, 1, bw, attraction, a-b-db, 9, 2, 1, 29, 90, 165, 165, 90, 86, 157, 2, 0.464616
49, 1, bw, catch, NA, 999, 999, 1, 30, 183, 132, 94, 101, 118, 137, 1, 0.803774
49, 1, bw, catch, NA, 999, 999, 1, 30, 183, 132, 94, 101, 118, 137, 2, 0.802827
49, 1, bw, attraction, a-b-da, 5, 2, 1, 31, 161, 88, 165, 90, 90, 165, 1, 8.58452
49, 1, bw, attraction, a-b-da, 5, 2, 1, 31, 161, 88, 165, 90, 90, 165, 2, 1.12588
49, 1, bw, filler, NA, 999, 999, 1, 32, 122, 163, 184, 175, 75, 66, 2, 0.950112
49, 1, bw, filler, NA, 999, 999, 1, 32, 122, 163, 184, 175, 75, 66, 3, 0.663107
49, 1, bw, catch, NA, 999, 999, 1, 33, 81, 114, 142, 113, 176, 139, 3, 1.19414
49, 1, bw, catch, NA, 999, 999, 1, 33, 81, 114, 142, 113, 176, 139, 1, 0.873067
49, 1, bw, catch, NA, 999, 999, 1, 34, 148, 167, 85, 110, 119, 136, 1, 3.10011
49, 1, bw, catch, NA, 999, 999, 1, 34, 148, 167, 85, 110, 119, 136, 2, 0.822478
49, 1, bw, attraction, a-b-da, 9, 3, 1, 35, 195, 120, 186, 114, 120, 195, 1, 6.65944
49, 1, bw, attraction, a-b-da, 9, 3, 1, 35, 195, 120, 186, 114, 120, 195, 2, 1.07798
49, 1, bw, filler, NA, 999, 999, 1, 36, 147, 63, 170, 152, 79, 165, 2, 0.976434
49, 1, bw, filler, NA, 999, 999, 1, 36, 147, 63, 170, 152, 79, 165, 1, 0.815862
49, 1, bw, attraction, a-b-db, 14, 3, 1, 37, 120, 195, 111, 181, 195, 120, 1, 1.02096
49, 1, bw, attraction, a-b-db, 14, 3, 1, 37, 120, 195, 111, 181, 195, 120, 3, 0.683249
49, 1, bw, attraction, a-b-da, 5, 1, 2, 1, 135, 60, 132, 58, 60, 135, 1, 1.58162
49, 1, bw, attraction, a-b-da, 5, 1, 2, 1, 135, 60, 132, 58, 60, 135, 2, 0.75719
49, 1, bw, attraction, a-b-da, 2, 3, 2, 2, 195, 120, 193, 119, 120, 195, 3, 8.53234
49, 1, bw, attraction, a-b-da, 2, 3, 2, 2, 195, 120, 193, 119, 120, 195, 2, 0.843526
49, 1, bw, attraction, a-b-db, 5, 1, 2, 3, 58, 132, 135, 60, 60, 135, 1, 1.80724
49, 1, bw, attraction, a-b-db, 5, 1, 2, 3, 58, 132, 135, 60, 60, 135, 2, 1.08533
49, 1, bw, filler, NA, 999, 999, 2, 4, 194, 118, 64, 119, 152, 74, 1, 26.9515
49, 1, bw, filler, NA, 999, 999, 2, 4, 194, 118, 64, 119, 152, 74, 2, 0.616545
49, 1, bw, attraction, a-b-da, 14, 3, 2, 5, 181, 111, 120, 195, 195, 120, 2, 1.9576
49, 1, bw, attraction, a-b-da, 14, 3, 2, 5, 181, 111, 120, 195, 195, 120, 1, 0.845738
49, 1, bw, attraction, a-b-da, 2, 2, 2, 6, 90, 165, 163, 89, 165, 90, 2, 1.72145
49, 1, bw, attraction, a-b-da, 2, 2, 2, 6, 90, 165, 163, 89, 165, 90, 1, 0.939247
49, 1, bw, attraction, a-b-db, 9, 3, 2, 7, 120, 195, 114, 186, 195, 120, 1, 1.85169
49, 1, bw, attraction, a-b-db, 9, 3, 2, 7, 120, 195, 114, 186, 195, 120, 2, 1.46436
49, 1, bw, filler, NA, 999, 999, 2, 8, 103, 118, 192, 127, 147, 72, 2, 1.41916
49, 1, bw, filler, NA, 999, 999, 2, 8, 103, 118, 192, 127, 147, 72, 1, 0.42534
49, 1, bw, attraction, a-b-db, 9, 2, 2, 9, 86, 157, 90, 165, 165, 90, 3, 2.13397
49, 1, bw, attraction, a-b-db, 9, 2, 2, 9, 86, 157, 90, 165, 165, 90, 1, 0.847151
49, 1, bw, attraction, a-b-db, 2, 2, 2, 10, 90, 165, 165, 90, 89, 163, 1, 2.28299
49, 1, bw, attraction, a-b-db, 2, 2, 2, 10, 90, 165, 165, 90, 89, 163, 3, 0.486227
49, 1, bw, catch, NA, 999, 999, 2, 11, 135, 120, 71, 124, 161, 154, 3, 1.27259
49, 1, bw, catch, NA, 999, 999, 2, 11, 135, 120, 71, 124, 161, 154, 2, 1.16423
49, 1, bw, attraction, a-b-db, 2, 1, 2, 12, 60, 135, 135, 60, 59, 134, 3, 6.95501
49, 1, bw, attraction, a-b-db, 2, 1, 2, 12, 60, 135, 135, 60, 59, 134, 2, 0.562109
49, 1, bw, attraction, a-b-da, 9, 2, 2, 13, 90, 165, 165, 90, 157, 86, 1, 1.67323
49, 1, bw, attraction, a-b-da, 9, 2, 2, 13, 90, 165, 165, 90, 157, 86, 3, 0.628849
49, 1, bw, attraction, a-b-db, 5, 3, 2, 14, 117, 190, 120, 195, 195, 120, 1, 1.77715
49, 1, bw, attraction, a-b-db, 5, 3, 2, 14, 117, 190, 120, 195, 195, 120, 3, 0.952614
49, 1, bw, filler, NA, 999, 999, 2, 15, 128, 58, 186, 125, 73, 127, 2, 1.4482
49, 1, bw, filler, NA, 999, 999, 2, 15, 128, 58, 186, 125, 73, 127, 1, 0.709142
49, 1, bw, filler, NA, 999, 999, 2, 16, 150, 131, 170, 74, 106, 129, 1, 0.990087
49, 1, bw, filler, NA, 999, 999, 2, 16, 150, 131, 170, 74, 106, 129, 2, 1.02902
49, 1, bw, attraction, a-b-da, 14, 2, 2, 17, 90, 165, 165, 90, 153, 83, 1, 2.14548
49, 1, bw, attraction, a-b-da, 14, 2, 2, 17, 90, 165, 165, 90, 153, 83, 3, 0.810066
49, 1, bw, attraction, a-b-db, 14, 1, 2, 18, 60, 135, 135, 60, 56, 125, 1, 1.71099
49, 1, bw, attraction, a-b-db, 14, 1, 2, 18, 60, 135, 135, 60, 56, 125, 2, 0.457219
49, 1, bw, attraction, a-b-da, 14, 1, 2, 19, 135, 60, 60, 135, 125, 56, 1, 0.804325
49, 1, bw, attraction, a-b-da, 14, 1, 2, 19, 135, 60, 60, 135, 125, 56, 3, 0.850678
49, 1, bw, filler, NA, 999, 999, 2, 20, 126, 87, 165, 64, 164, 184, 3, 0.766289
49, 1, bw, filler, NA, 999, 999, 2, 20, 126, 87, 165, 64, 164, 184, 1, 0.838837
49, 1, bw, filler, NA, 999, 999, 2, 21, 195, 104, 119, 156, 169, 110, 1, 1.63519
49, 1, bw, filler, NA, 999, 999, 2, 21, 195, 104, 119, 156, 169, 110, 2, 0.42459
49, 1, bw, filler, NA, 999, 999, 2, 22, 79, 82, 70, 164, 153, 65, 3, 3.12497
49, 1, bw, filler, NA, 999, 999, 2, 22, 79, 82, 70, 164, 153, 65, 1, 0.758063
49, 1, bw, catch, NA, 999, 999, 2, 23, 134, 121, 86, 109, 158, 157, 3, 1.00501
49, 1, bw, catch, NA, 999, 999, 2, 23, 134, 121, 86, 109, 158, 157, 2, 0.635411
49, 1, bw, attraction, a-b-db, 5, 2, 2, 24, 90, 165, 165, 90, 88, 161, 1, 0.879807
49, 1, bw, attraction, a-b-db, 5, 2, 2, 24, 90, 165, 165, 90, 88, 161, 2, 0.747471
49, 1, bw, attraction, a-b-da, 9, 1, 2, 25, 129, 57, 135, 60, 60, 135, 1, 0.795187
49, 1, bw, attraction, a-b-da, 9, 1, 2, 25, 129, 57, 135, 60, 60, 135, 2, 0.45824
49, 1, bw, attraction, a-b-da, 5, 2, 2, 26, 90, 165, 161, 88, 165, 90, 3, 2.99758
49, 1, bw, attraction, a-b-da, 5, 2, 2, 26, 90, 165, 161, 88, 165, 90, 1, 0.811839
49, 1, bw, attraction, a-b-db, 2, 3, 2, 27, 119, 193, 195, 120, 120, 195, 3, 1.44073
49, 1, bw, attraction, a-b-db, 2, 3, 2, 27, 119, 193, 195, 120, 120, 195, 1, 0.589615
49, 1, bw, attraction, a-b-da, 5, 3, 2, 28, 195, 120, 190, 117, 120, 195, 1, 1.81999
49, 1, bw, attraction, a-b-da, 5, 3, 2, 28, 195, 120, 190, 117, 120, 195, 2, 0.634289
49, 1, bw, filler, NA, 999, 999, 2, 29, 120, 135, 83, 101, 157, 69, 1, 5.21448
49, 1, bw, filler, NA, 999, 999, 2, 29, 120, 135, 83, 101, 157, 69, 2, 0.667605
49, 1, bw, attraction, a-b-db, 14, 3, 2, 30, 111, 181, 120, 195, 195, 120, 3, 2.93469
49, 1, bw, attraction, a-b-db, 14, 3, 2, 30, 111, 181, 120, 195, 195, 120, 1, 2.44773
49, 1, bw, attraction, a-b-da, 2, 1, 2, 31, 60, 135, 135, 60, 134, 59, 3, 0.938792
49, 1, bw, attraction, a-b-da, 2, 1, 2, 31, 60, 135, 135, 60, 134, 59, 1, 0.771876
49, 1, bw, attraction, a-b-db, 9, 1, 2, 32, 60, 135, 135, 60, 57, 129, 1, 1.36301
49, 1, bw, attraction, a-b-db, 9, 1, 2, 32, 60, 135, 135, 60, 57, 129, 2, 0.555253
49, 1, bw, catch, NA, 999, 999, 2, 33, 132, 183, 106, 89, 116, 139, 1, 0.802927
49, 1, bw, catch, NA, 999, 999, 2, 33, 132, 183, 106, 89, 116, 139, 2, 0.554094
49, 1, bw, attraction, a-b-da, 9, 3, 2, 34, 120, 195, 186, 114, 195, 120, 1, 2.02565
49, 1, bw, attraction, a-b-da, 9, 3, 2, 34, 120, 195, 186, 114, 195, 120, 2, 0.766998
49, 1, bw, filler, NA, 999, 999, 2, 35, 170, 163, 185, 81, 183, 85, 1, 1.99815
49, 1, bw, filler, NA, 999, 999, 2, 35, 170, 163, 185, 81, 183, 85, 2, 0.436724
49, 1, bw, attraction, a-b-db, 14, 2, 2, 36, 90, 165, 83, 153, 165, 90, 3, 1.23324
49, 1, bw, attraction, a-b-db, 14, 2, 2, 36, 90, 165, 83, 153, 165, 90, 2, 0.758845
49, 1, bw, filler, NA, 999, 999, 2, 37, 121, 74, 121, 163, 188, 105, 2, 1.11009
49, 1, bw, filler, NA, 999, 999, 2, 37, 121, 74, 121, 163, 188, 105, 1, 0.736149
49, 1, bw, catch, NA, 999, 999, 3, 1, 136, 179, 73, 122, 114, 141, 1, 2.48049
49, 1, bw, catch, NA, 999, 999, 3, 1, 136, 179, 73, 122, 114, 141, 2, 0.987688
49, 1, bw, attraction, a-b-db, 14, 3, 3, 2, 120, 195, 195, 120, 111, 181, 1, 1.26597
49, 1, bw, attraction, a-b-db, 14, 3, 3, 2, 120, 195, 195, 120, 111, 181, 2, 0.51827
49, 1, bw, attraction, a-b-da, 14, 2, 3, 3, 153, 83, 165, 90, 90, 165, 1, 0.92731
49, 1, bw, attraction, a-b-da, 14, 2, 3, 3, 153, 83, 165, 90, 90, 165, 2, 0.3852
49, 1, bw, filler, NA, 999, 999, 3, 4, 60, 65, 62, 59, 107, 173, 3, 0.711652
49, 1, bw, filler, NA, 999, 999, 3, 4, 60, 65, 62, 59, 107, 173, 2, 0.905983
49, 1, bw, attraction, a-b-da, 14, 1, 3, 5, 60, 135, 135, 60, 125, 56, 1, 0.947623
49, 1, bw, attraction, a-b-da, 14, 1, 3, 5, 60, 135, 135, 60, 125, 56, 2, 0.452691
49, 1, bw, attraction, a-b-da, 9, 1, 3, 6, 129, 57, 135, 60, 60, 135, 1, 0.616402
49, 1, bw, attraction, a-b-da, 9, 1, 3, 6, 129, 57, 135, 60, 60, 135, 2, 0.694854
49, 1, bw, attraction, a-b-da, 5, 3, 3, 7, 195, 120, 120, 195, 190, 117, 1, 1.11254
49, 1, bw, attraction, a-b-da, 5, 3, 3, 7, 195, 120, 120, 195, 190, 117, 2, 0.354877
49, 1, bw, catch, NA, 999, 999, 3, 8, 169, 146, 103, 152, 76, 119, 1, 1.31466
49, 1, bw, catch, NA, 999, 999, 3, 8, 169, 146, 103, 152, 76, 119, 3, 0.436948
49, 1, bw, attraction, a-b-db, 5, 1, 3, 9, 60, 135, 58, 132, 135, 60, 1, 0.993491
49, 1, bw, attraction, a-b-db, 5, 1, 3, 9, 60, 135, 58, 132, 135, 60, 3, 0.76846
49, 1, bw, filler, NA, 999, 999, 3, 10, 73, 140, 90, 62, 181, 179, 3, 0.71149
49, 1, bw, filler, NA, 999, 999, 3, 10, 73, 140, 90, 62, 181, 179, 2, 0.769844
49, 1, bw, filler, NA, 999, 999, 3, 11, 95, 152, 154, 172, 115, 163, 2, 0.960948
49, 1, bw, filler, NA, 999, 999, 3, 11, 95, 152, 154, 172, 115, 163, 1, 0.361266
49, 1, bw, filler, NA, 999, 999, 3, 12, 90, 134, 135, 91, 113, 138, 3, 1.43259
49, 1, bw, filler, NA, 999, 999, 3, 12, 90, 134, 135, 91, 113, 138, 1, 0.590007
49, 1, bw, filler, NA, 999, 999, 3, 13, 80, 175, 194, 186, 71, 162, 2, 0.636356
49, 1, bw, filler, NA, 999, 999, 3, 13, 80, 175, 194, 186, 71, 162, 1, 0.450231
49, 1, bw, attraction, a-b-da, 2, 3, 3, 14, 195, 120, 120, 195, 193, 119, 1, 1.94216
49, 1, bw, attraction, a-b-da, 2, 3, 3, 14, 195, 120, 120, 195, 193, 119, 2, 1.64681
49, 1, bw, catch, NA, 999, 999, 3, 15, 140, 115, 141, 174, 96, 99, 2, 1.07426
49, 1, bw, catch, NA, 999, 999, 3, 15, 140, 115, 141, 174, 96, 99, 3, 0.493737
49, 1, bw, attraction, a-b-db, 2, 3, 3, 16, 120, 195, 195, 120, 119, 193, 1, 0.959473
49, 1, bw, attraction, a-b-db, 2, 3, 3, 16, 120, 195, 195, 120, 119, 193, 2, 0.311937
49, 1, bw, attraction, a-b-da, 9, 2, 3, 17, 165, 90, 90, 165, 157, 86, 1, 0.601124
49, 1, bw, attraction, a-b-da, 9, 2, 3, 17, 165, 90, 90, 165, 157, 86, 2, 0.376194
49, 1, bw, attraction, a-b-db, 14, 1, 3, 18, 135, 60, 56, 125, 60, 135, 1, 0.558539
49, 1, bw, attraction, a-b-db, 14, 1, 3, 18, 135, 60, 56, 125, 60, 135, 2, 0.423159
49, 1, bw, attraction, a-b-da, 2, 2, 3, 19, 163, 89, 165, 90, 90, 165, 1, 0.635649
49, 1, bw, attraction, a-b-da, 2, 2, 3, 19, 163, 89, 165, 90, 90, 165, 2, 0.657504
49, 1, bw, attraction, a-b-db, 9, 2, 3, 20, 86, 157, 165, 90, 90, 165, 1, 0.93241
49, 1, bw, attraction, a-b-db, 9, 2, 3, 20, 86, 157, 165, 90, 90, 165, 2, 0.414122
49, 1, bw, filler, NA, 999, 999, 3, 21, 138, 185, 61, 195, 154, 125, 1, 0.699279
49, 1, bw, filler, NA, 999, 999, 3, 21, 138, 185, 61, 195, 154, 125, 2, 0.574344
49, 1, bw, filler, NA, 999, 999, 3, 22, 145, 75, 96, 161, 72, 169, 2, 1.23669
49, 1, bw, filler, NA, 999, 999, 3, 22, 145, 75, 96, 161, 72, 169, 1, 0.754316
49, 1, bw, attraction, a-b-db, 5, 2, 3, 23, 88, 161, 90, 165, 165, 90, 2, 0.786003
49, 1, bw, attraction, a-b-db, 5, 2, 3, 23, 88, 161, 90, 165, 165, 90, 3, 0.337793
49, 1, bw, filler, NA, 999, 999, 3, 24, 72, 116, 98, 161, 63, 97, 1, 0.482283
49, 1, bw, filler, NA, 999, 999, 3, 24, 72, 116, 98, 161, 63, 97, 2, 1.23017
49, 1, bw, attraction, a-b-db, 2, 1, 3, 25, 60, 135, 59, 134, 135, 60, 2, 0.77841
49, 1, bw, attraction, a-b-db, 2, 1, 3, 25, 60, 135, 59, 134, 135, 60, 3, 0.546084
49, 1, bw, attraction, a-b-db, 5, 3, 3, 26, 120, 195, 117, 190, 195, 120, 1, 1.4099
49, 1, bw, attraction, a-b-db, 5, 3, 3, 26, 120, 195, 117, 190, 195, 120, 3, 0.608073
49, 1, bw, attraction, a-b-da, 5, 1, 3, 27, 132, 58, 135, 60, 60, 135, 1, 0.94111
49, 1, bw, attraction, a-b-da, 5, 1, 3, 27, 132, 58, 135, 60, 60, 135, 2, 0.654122
49, 1, bw, filler, NA, 999, 999, 3, 28, 85, 182, 165, 129, 139, 188, 3, 0.657836
49, 1, bw, filler, NA, 999, 999, 3, 28, 85, 182, 165, 129, 139, 188, 1, 0.926411
49, 1, bw, attraction, a-b-db, 9, 3, 3, 29, 195, 120, 114, 186, 120, 195, 1, 0.862673
49, 1, bw, attraction, a-b-db, 9, 3, 3, 29, 195, 120, 114, 186, 120, 195, 2, 0.363052
49, 1, bw, attraction, a-b-da, 2, 1, 3, 30, 135, 60, 134, 59, 60, 135, 1, 0.570045
49, 1, bw, attraction, a-b-da, 2, 1, 3, 30, 135, 60, 134, 59, 60, 135, 2, 0.594631
49, 1, bw, filler, NA, 999, 999, 3, 31, 104, 115, 89, 149, 109, 129, 2, 1.26442
49, 1, bw, filler, NA, 999, 999, 3, 31, 104, 115, 89, 149, 109, 129, 1, 1.00469
49, 1, bw, attraction, a-b-db, 2, 2, 3, 32, 90, 165, 89, 163, 165, 90, 2, 1.33014
49, 1, bw, attraction, a-b-db, 2, 2, 3, 32, 90, 165, 89, 163, 165, 90, 3, 0.491997
49, 1, bw, attraction, a-b-da, 14, 3, 3, 33, 181, 111, 120, 195, 195, 120, 2, 1.74958
49, 1, bw, attraction, a-b-da, 14, 3, 3, 33, 181, 111, 120, 195, 195, 120, 1, 0.326286
49, 1, bw, attraction, a-b-db, 14, 2, 3, 34, 90, 165, 165, 90, 83, 153, 2, 0.758867
49, 1, bw, attraction, a-b-db, 14, 2, 3, 34, 90, 165, 165, 90, 83, 153, 1, 0.33527
49, 1, bw, attraction, a-b-da, 9, 3, 3, 35, 186, 114, 120, 195, 195, 120, 2, 0.511759
49, 1, bw, attraction, a-b-da, 9, 3, 3, 35, 186, 114, 120, 195, 195, 120, 1, 0.49021
49, 1, bw, attraction, a-b-db, 9, 1, 3, 36, 135, 60, 57, 129, 60, 135, 2, 0.740089
49, 1, bw, attraction, a-b-db, 9, 1, 3, 36, 135, 60, 57, 129, 60, 135, 1, 0.35712
49, 1, bw, attraction, a-b-da, 5, 2, 3, 37, 161, 88, 90, 165, 165, 90, 2, 0.428269
49, 1, bw, attraction, a-b-da, 5, 2, 3, 37, 161, 88, 90, 165, 165, 90, 1, 0.458145
49, 1, bw, attraction, a-b-db, 9, 3, 4, 1, 195, 120, 114, 186, 120, 195, 2, 0.429183
49, 1, bw, attraction, a-b-db, 9, 3, 4, 1, 195, 120, 114, 186, 120, 195, 1, 0.403131
49, 1, bw, attraction, a-b-da, 5, 3, 4, 2, 120, 195, 190, 117, 195, 120, 1, 3.32094
49, 1, bw, attraction, a-b-da, 5, 3, 4, 2, 120, 195, 190, 117, 195, 120, 3, 0.826545
49, 1, bw, attraction, a-b-da, 14, 1, 4, 3, 135, 60, 60, 135, 125, 56, 1, 0.638863
49, 1, bw, attraction, a-b-da, 14, 1, 4, 3, 135, 60, 60, 135, 125, 56, 2, 0.315992
49, 1, bw, attraction, a-b-da, 5, 1, 4, 4, 135, 60, 60, 135, 132, 58, 1, 0.669108
49, 1, bw, attraction, a-b-da, 5, 1, 4, 4, 135, 60, 60, 135, 132, 58, 2, 0.425598
49, 1, bw, filler, NA, 999, 999, 4, 5, 156, 116, 154, 163, 142, 154, 2, 0.790016
49, 1, bw, filler, NA, 999, 999, 4, 5, 156, 116, 154, 163, 142, 154, 1, 0.333074
49, 1, bw, attraction, a-b-da, 14, 3, 4, 6, 181, 111, 195, 120, 120, 195, 2, 0.51756
49, 1, bw, attraction, a-b-da, 14, 3, 4, 6, 181, 111, 195, 120, 120, 195, 1, 0.520051
49, 1, bw, attraction, a-b-da, 2, 1, 4, 7, 60, 135, 134, 59, 135, 60, 1, 0.67317
49, 1, bw, attraction, a-b-da, 2, 1, 4, 7, 60, 135, 134, 59, 135, 60, 2, 0.46889
49, 1, bw, filler, NA, 999, 999, 4, 8, 163, 194, 184, 136, 153, 125, 1, 0.824009
49, 1, bw, filler, NA, 999, 999, 4, 8, 163, 194, 184, 136, 153, 125, 3, 0.429801
49, 1, bw, attraction, a-b-db, 2, 2, 4, 9, 89, 163, 90, 165, 165, 90, 1, 0.770264
49, 1, bw, attraction, a-b-db, 2, 2, 4, 9, 89, 163, 90, 165, 165, 90, 2, 1.5307
49, 1, bw, catch, NA, 999, 999, 4, 10, 145, 170, 71, 124, 130, 125, 1, 0.674772
49, 1, bw, catch, NA, 999, 999, 4, 10, 145, 170, 71, 124, 130, 125, 2, 0.454579
49, 1, bw, attraction, a-b-da, 9, 2, 4, 11, 165, 90, 90, 165, 157, 86, 1, 0.57835
49, 1, bw, attraction, a-b-da, 9, 2, 4, 11, 165, 90, 90, 165, 157, 86, 3, 0.858309
49, 1, bw, attraction, a-b-db, 9, 2, 4, 12, 165, 90, 90, 165, 86, 157, 2, 1.70926
49, 1, bw, attraction, a-b-db, 9, 2, 4, 12, 165, 90, 90, 165, 86, 157, 1, 0.399257
49, 1, bw, catch, NA, 999, 999, 4, 13, 165, 150, 98, 97, 158, 97, 1, 0.612978
49, 1, bw, catch, NA, 999, 999, 4, 13, 165, 150, 98, 97, 158, 97, 2, 0.44345
49, 1, bw, attraction, a-b-db, 5, 1, 4, 14, 135, 60, 58, 132, 60, 135, 1, 0.615308
49, 1, bw, attraction, a-b-db, 5, 1, 4, 14, 135, 60, 58, 132, 60, 135, 3, 0.821791
49, 1, bw, filler, NA, 999, 999, 4, 15, 170, 106, 58, 157, 99, 142, 1, 0.874771
49, 1, bw, filler, NA, 999, 999, 4, 15, 170, 106, 58, 157, 99, 142, 2, 0.406609
49, 1, bw, attraction, a-b-da, 2, 2, 4, 16, 165, 90, 163, 89, 90, 165, 1, 13.8038
49, 1, bw, attraction, a-b-da, 2, 2, 4, 16, 165, 90, 163, 89, 90, 165, 3, 0.414736
49, 1, bw, filler, NA, 999, 999, 4, 17, 125, 173, 97, 192, 82, 150, 1, 11.9879
49, 1, bw, filler, NA, 999, 999, 4, 17, 125, 173, 97, 192, 82, 150, 3, 0.543996
49, 1, bw, attraction, a-b-db, 5, 2, 4, 18, 90, 165, 165, 90, 88, 161, 1, 0.655792
49, 1, bw, attraction, a-b-db, 5, 2, 4, 18, 90, 165, 165, 90, 88, 161, 2, 0.284148
49, 1, bw, filler, NA, 999, 999, 4, 19, 133, 177, 105, 104, 75, 88, 1, 0.462797
49, 1, bw, filler, NA, 999, 999, 4, 19, 133, 177, 105, 104, 75, 88, 3, 0.587162
49, 1, bw, attraction, a-b-db, 9, 1, 4, 20, 57, 129, 60, 135, 135, 60, 1, 1.08166
49, 1, bw, attraction, a-b-db, 9, 1, 4, 20, 57, 129, 60, 135, 135, 60, 3, 0.837408
49, 1, bw, catch, NA, 999, 999, 4, 21, 89, 106, 165, 90, 121, 194, 3, 1.00163
49, 1, bw, catch, NA, 999, 999, 4, 21, 89, 106, 165, 90, 121, 194, 1, 0.640749
49, 1, bw, filler, NA, 999, 999, 4, 22, 74, 132, 139, 148, 167, 115, 2, 0.708341
49, 1, bw, filler, NA, 999, 999, 4, 22, 74, 132, 139, 148, 167, 115, 1, 0.374887
49, 1, bw, attraction, a-b-db, 14, 3, 4, 23, 120, 195, 195, 120, 111, 181, 1, 0.645353
49, 1, bw, attraction, a-b-db, 14, 3, 4, 23, 120, 195, 195, 120, 111, 181, 2, 0.362395
49, 1, bw, filler, NA, 999, 999, 4, 24, 68, 135, 179, 117, 64, 68, 2, 1.72954
49, 1, bw, filler, NA, 999, 999, 4, 24, 68, 135, 179, 117, 64, 68, 3, 0.547088
49, 1, bw, attraction, a-b-db, 2, 1, 4, 25, 135, 60, 59, 134, 60, 135, 1, 0.554754
49, 1, bw, attraction, a-b-db, 2, 1, 4, 25, 135, 60, 59, 134, 60, 135, 2, 0.78722
49, 1, bw, attraction, a-b-db, 14, 1, 4, 26, 56, 125, 60, 135, 135, 60, 3, 0.961525
49, 1, bw, attraction, a-b-db, 14, 1, 4, 26, 56, 125, 60, 135, 135, 60, 1, 0.849931
49, 1, bw, filler, NA, 999, 999, 4, 27, 90, 70, 133, 69, 67, 117, 2, 1.0297
49, 1, bw, filler, NA, 999, 999, 4, 27, 90, 70, 133, 69, 67, 117, 1, 0.459308
49, 1, bw, filler, NA, 999, 999, 4, 28, 174, 125, 167, 143, 132, 176, 2, 0.718383
49, 1, bw, filler, NA, 999, 999, 4, 28, 174, 125, 167, 143, 132, 176, 1, 0.424831
49, 1, bw, attraction, a-b-da, 14, 2, 4, 29, 153, 83, 165, 90, 90, 165, 2, 0.901279
49, 1, bw, attraction, a-b-da, 14, 2, 4, 29, 153, 83, 165, 90, 90, 165, 1, 0.440261
49, 1, bw, attraction, a-b-da, 2, 3, 4, 30, 193, 119, 195, 120, 120, 195, 1, 1.26013
49, 1, bw, attraction, a-b-da, 2, 3, 4, 30, 193, 119, 195, 120, 120, 195, 2, 0.416277
49, 1, bw, filler, NA, 999, 999, 4, 31, 163, 105, 165, 113, 129, 99, 1, 0.63739
49, 1, bw, filler, NA, 999, 999, 4, 31, 163, 105, 165, 113, 129, 99, 3, 0.843335
49, 1, bw, attraction, a-b-da, 9, 1, 4, 32, 135, 60, 60, 135, 129, 57, 1, 0.87089
49, 1, bw, attraction, a-b-da, 9, 1, 4, 32, 135, 60, 60, 135, 129, 57, 2, 0.675332
49, 1, bw, attraction, a-b-db, 2, 3, 4, 33, 120, 195, 195, 120, 119, 193, 1, 1.10969
49, 1, bw, attraction, a-b-db, 2, 3, 4, 33, 120, 195, 195, 120, 119, 193, 2, 0.480174
49, 1, bw, attraction, a-b-da, 9, 3, 4, 34, 186, 114, 195, 120, 120, 195, 1, 0.850432
49, 1, bw, attraction, a-b-da, 9, 3, 4, 34, 186, 114, 195, 120, 120, 195, 3, 1.27152
49, 1, bw, attraction, a-b-da, 5, 2, 4, 35, 90, 165, 161, 88, 165, 90, 1, 1.22648
49, 1, bw, attraction, a-b-da, 5, 2, 4, 35, 90, 165, 161, 88, 165, 90, 2, 0.57598
49, 1, bw, attraction, a-b-db, 14, 2, 4, 36, 83, 153, 90, 165, 165, 90, 2, 0.582333
49, 1, bw, attraction, a-b-db, 14, 2, 4, 36, 83, 153, 90, 165, 165, 90, 3, 0.422305
49, 1, bw, attraction, a-b-db, 5, 3, 4, 37, 195, 120, 117, 190, 120, 195, 3, 2.03532
49, 1, bw, attraction, a-b-db, 5, 3, 4, 37, 195, 120, 117, 190, 120, 195, 1, 0.536778
49, 1, bw, catch, NA, 999, 999, 5, 1, 130, 125, 82, 113, 142, 173, 3, 1.93589
49, 1, bw, catch, NA, 999, 999, 5, 1, 130, 125, 82, 113, 142, 173, 2, 0.761068
49, 1, bw, catch, NA, 999, 999, 5, 2, 128, 67, 149, 106, 188, 127, 3, 2.00018
49, 1, bw, catch, NA, 999, 999, 5, 2, 128, 67, 149, 106, 188, 127, 1, 1.13477
49, 1, bw, attraction, a-b-da, 2, 3, 5, 3, 195, 120, 120, 195, 193, 119, 2, 3.42315
49, 1, bw, attraction, a-b-da, 2, 3, 5, 3, 195, 120, 120, 195, 193, 119, 1, 0.931991
49, 1, bw, attraction, a-b-db, 5, 3, 5, 4, 120, 195, 195, 120, 117, 190, 1, 1.78827
49, 1, bw, attraction, a-b-db, 5, 3, 5, 4, 120, 195, 195, 120, 117, 190, 2, 0.995134
49, 1, bw, attraction, a-b-da, 5, 2, 5, 5, 161, 88, 90, 165, 165, 90, 2, 2.41664
49, 1, bw, attraction, a-b-da, 5, 2, 5, 5, 161, 88, 90, 165, 165, 90, 1, 0.742564
49, 1, bw, attraction, a-b-db, 2, 1, 5, 6, 135, 60, 60, 135, 59, 134, 1, 1.4862
49, 1, bw, attraction, a-b-db, 2, 1, 5, 6, 135, 60, 60, 135, 59, 134, 3, 1.10585
49, 1, bw, filler, NA, 999, 999, 5, 7, 87, 64, 88, 71, 94, 87, 3, 0.979318
49, 1, bw, filler, NA, 999, 999, 5, 7, 87, 64, 88, 71, 94, 87, 1, 0.731057
49, 1, bw, filler, NA, 999, 999, 5, 8, 176, 178, 105, 106, 149, 67, 1, 0.971575
49, 1, bw, filler, NA, 999, 999, 5, 8, 176, 178, 105, 106, 149, 67, 2, 0.635098
49, 1, bw, attraction, a-b-db, 2, 2, 5, 9, 165, 90, 90, 165, 89, 163, 1, 3.67152
49, 1, bw, attraction, a-b-db, 2, 2, 5, 9, 165, 90, 90, 165, 89, 163, 3, 1.13898
49, 1, bw, attraction, a-b-db, 9, 3, 5, 10, 195, 120, 114, 186, 120, 195, 1, 2.6192
49, 1, bw, attraction, a-b-db, 9, 3, 5, 10, 195, 120, 114, 186, 120, 195, 3, 0.625068
49, 1, bw, filler, NA, 999, 999, 5, 11, 79, 185, 180, 75, 167, 143, 3, 0.86145
49, 1, bw, filler, NA, 999, 999, 5, 11, 79, 185, 180, 75, 167, 143, 2, 0.417897
49, 1, bw, attraction, a-b-da, 2, 1, 5, 12, 135, 60, 134, 59, 60, 135, 2, 3.16697
49, 1, bw, attraction, a-b-da, 2, 1, 5, 12, 135, 60, 134, 59, 60, 135, 1, 0.702603
49, 1, bw, attraction, a-b-db, 14, 1, 5, 13, 60, 135, 56, 125, 135, 60, 1, 1.99252
49, 1, bw, attraction, a-b-db, 14, 1, 5, 13, 60, 135, 56, 125, 135, 60, 2, 0.823119
49, 1, bw, attraction, a-b-da, 9, 2, 5, 14, 90, 165, 165, 90, 157, 86, 2, 1.7
49, 1, bw, attraction, a-b-da, 9, 2, 5, 14, 90, 165, 165, 90, 157, 86, 3, 0.558883
49, 1, bw, filler, NA, 999, 999, 5, 15, 104, 161, 81, 63, 156, 162, 3, 0.813916
49, 1, bw, filler, NA, 999, 999, 5, 15, 104, 161, 81, 63, 156, 162, 2, 0.452264
49, 1, bw, attraction, a-b-da, 5, 1, 5, 16, 135, 60, 60, 135, 132, 58, 1, 3.82412
49, 1, bw, attraction, a-b-da, 5, 1, 5, 16, 135, 60, 60, 135, 132, 58, 2, 0.421023
49, 1, bw, attraction, a-b-da, 9, 3, 5, 17, 120, 195, 195, 120, 186, 114, 2, 4.96203
49, 1, bw, attraction, a-b-da, 9, 3, 5, 17, 120, 195, 195, 120, 186, 114, 3, 0.513358
49, 1, bw, filler, NA, 999, 999, 5, 18, 126, 156, 98, 88, 106, 193, 1, 6.0423
49, 1, bw, filler, NA, 999, 999, 5, 18, 126, 156, 98, 88, 106, 193, 2, 0.629849
49, 1, bw, attraction, a-b-da, 14, 3, 5, 19, 195, 120, 181, 111, 120, 195, 1, 2.47407
49, 1, bw, attraction, a-b-da, 14, 3, 5, 19, 195, 120, 181, 111, 120, 195, 2, 0.46135
49, 1, bw, attraction, a-b-db, 14, 2, 5, 20, 83, 153, 165, 90, 90, 165, 1, 1.38445
49, 1, bw, attraction, a-b-db, 14, 2, 5, 20, 83, 153, 165, 90, 90, 165, 2, 1.31999
49, 1, bw, attraction, a-b-db, 2, 3, 5, 21, 120, 195, 195, 120, 119, 193, 2, 1.32878
49, 1, bw, attraction, a-b-db, 2, 3, 5, 21, 120, 195, 195, 120, 119, 193, 1, 0.538374
49, 1, bw, attraction, a-b-db, 9, 2, 5, 22, 86, 157, 90, 165, 165, 90, 2, 0.794807
49, 1, bw, attraction, a-b-db, 9, 2, 5, 22, 86, 157, 90, 165, 165, 90, 3, 0.737975
49, 1, bw, attraction, a-b-db, 9, 1, 5, 23, 57, 129, 135, 60, 60, 135, 1, 1.05819
49, 1, bw, attraction, a-b-db, 9, 1, 5, 23, 57, 129, 135, 60, 60, 135, 2, 2.16657
49, 1, bw, filler, NA, 999, 999, 5, 24, 68, 150, 85, 180, 187, 142, 3, 1.13317
49, 1, bw, filler, NA, 999, 999, 5, 24, 68, 150, 85, 180, 187, 142, 1, 0.510771
49, 1, bw, attraction, a-b-db, 5, 1, 5, 25, 58, 132, 135, 60, 60, 135, 1, 2.52788
49, 1, bw, attraction, a-b-db, 5, 1, 5, 25, 58, 132, 135, 60, 60, 135, 2, 0.785174
49, 1, bw, filler, NA, 999, 999, 5, 26, 157, 190, 138, 118, 185, 122, 1, 0.903423
49, 1, bw, filler, NA, 999, 999, 5, 26, 157, 190, 138, 118, 185, 122, 2, 0.874502
49, 1, bw, attraction, a-b-da, 14, 1, 5, 27, 60, 135, 125, 56, 135, 60, 3, 1.02079
49, 1, bw, attraction, a-b-da, 14, 1, 5, 27, 60, 135, 125, 56, 135, 60, 2, 0.490551
49, 1, bw, attraction, a-b-da, 5, 3, 5, 28, 190, 117, 195, 120, 120, 195, 1, 0.700244
49, 1, bw, attraction, a-b-da, 5, 3, 5, 28, 190, 117, 195, 120, 120, 195, 2, 0.72734
49, 1, bw, attraction, a-b-da, 14, 2, 5, 29, 153, 83, 165, 90, 90, 165, 1, 0.799668
49, 1, bw, attraction, a-b-da, 14, 2, 5, 29, 153, 83, 165, 90, 90, 165, 2, 0.438836
49, 1, bw, filler, NA, 999, 999, 5, 30, 59, 73, 149, 160, 169, 131, 2, 1.45119
49, 1, bw, filler, NA, 999, 999, 5, 30, 59, 73, 149, 160, 169, 131, 1, 0.536118
49, 1, bw, attraction, a-b-da, 9, 1, 5, 31, 129, 57, 60, 135, 135, 60, 2, 0.744546
49, 1, bw, attraction, a-b-da, 9, 1, 5, 31, 129, 57, 60, 135, 135, 60, 1, 0.777692
49, 1, bw, filler, NA, 999, 999, 5, 32, 128, 83, 102, 81, 170, 71, 1, 1.64804
49, 1, bw, filler, NA, 999, 999, 5, 32, 128, 83, 102, 81, 170, 71, 2, 0.372772
49, 1, bw, filler, NA, 999, 999, 5, 33, 65, 113, 152, 105, 101, 98, 2, 1.46794
49, 1, bw, filler, NA, 999, 999, 5, 33, 65, 113, 152, 105, 101, 98, 1, 0.680085
49, 1, bw, attraction, a-b-db, 14, 3, 5, 34, 111, 181, 195, 120, 120, 195, 2, 0.842706
49, 1, bw, attraction, a-b-db, 14, 3, 5, 34, 111, 181, 195, 120, 120, 195, 1, 0.455469
49, 1, bw, catch, NA, 999, 999, 5, 35, 129, 126, 147, 168, 135, 60, 2, 1.22741
49, 1, bw, catch, NA, 999, 999, 5, 35, 129, 126, 147, 168, 135, 60, 3, 0.641006
49, 1, bw, attraction, a-b-db, 5, 2, 5, 36, 90, 165, 88, 161, 165, 90, 2, 1.07666
49, 1, bw, attraction, a-b-db, 5, 2, 5, 36, 90, 165, 88, 161, 165, 90, 3, 0.520322
49, 1, bw, attraction, a-b-da, 2, 2, 5, 37, 165, 90, 90, 165, 163, 89, 1, 0.977392
49, 1, bw, attraction, a-b-da, 2, 2, 5, 37, 165, 90, 90, 165, 163, 89, 2, 0.681219
49, 1, bw, filler, NA, 999, 999, 6, 1, 68, 113, 140, 169, 129, 166, 2, 0.603449
49, 1, bw, filler, NA, 999, 999, 6, 1, 68, 113, 140, 169, 129, 166, 1, 0.642574
49, 1, bw, filler, NA, 999, 999, 6, 2, 178, 163, 161, 115, 82, 163, 1, 0.710326
49, 1, bw, filler, NA, 999, 999, 6, 2, 178, 163, 161, 115, 82, 163, 2, 0.840776
49, 1, bw, attraction, a-b-db, 5, 3, 6, 3, 120, 195, 117, 190, 195, 120, 1, 1.43652
49, 1, bw, attraction, a-b-db, 5, 3, 6, 3, 120, 195, 117, 190, 195, 120, 3, 0.682244
49, 1, bw, filler, NA, 999, 999, 6, 4, 103, 125, 135, 90, 170, 65, 1, 1.61237
49, 1, bw, filler, NA, 999, 999, 6, 4, 103, 125, 135, 90, 170, 65, 3, 2.76255
49, 1, bw, attraction, a-b-db, 14, 2, 6, 5, 83, 153, 90, 165, 165, 90, 1, 2.52092
49, 1, bw, attraction, a-b-db, 14, 2, 6, 5, 83, 153, 90, 165, 165, 90, 3, 0.754751
49, 1, bw, attraction, a-b-db, 9, 1, 6, 6, 60, 135, 135, 60, 57, 129, 1, 0.834379
49, 1, bw, attraction, a-b-db, 9, 1, 6, 6, 60, 135, 135, 60, 57, 129, 2, 0.728232
49, 1, bw, attraction, a-b-db, 14, 3, 6, 7, 195, 120, 120, 195, 111, 181, 1, 1.19254
49, 1, bw, attraction, a-b-db, 14, 3, 6, 7, 195, 120, 120, 195, 111, 181, 2, 0.567656
49, 1, bw, attraction, a-b-da, 9, 3, 6, 8, 120, 195, 186, 114, 195, 120, 1, 1.33459
49, 1, bw, attraction, a-b-da, 9, 3, 6, 8, 120, 195, 186, 114, 195, 120, 3, 0.840217
49, 1, bw, attraction, a-b-da, 2, 1, 6, 9, 134, 59, 135, 60, 60, 135, 1, 0.939836
49, 1, bw, attraction, a-b-da, 2, 1, 6, 9, 134, 59, 135, 60, 60, 135, 2, 0.540875
49, 1, bw, attraction, a-b-da, 5, 2, 6, 10, 161, 88, 90, 165, 165, 90, 2, 0.884638
49, 1, bw, attraction, a-b-da, 5, 2, 6, 10, 161, 88, 90, 165, 165, 90, 1, 0.424281
49, 1, bw, attraction, a-b-db, 9, 2, 6, 11, 165, 90, 90, 165, 86, 157, 2, 1.0048
49, 1, bw, attraction, a-b-db, 9, 2, 6, 11, 165, 90, 90, 165, 86, 157, 1, 0.419108
49, 1, bw, filler, NA, 999, 999, 6, 12, 140, 82, 84, 143, 170, 65, 1, 0.856255
49, 1, bw, filler, NA, 999, 999, 6, 12, 140, 82, 84, 143, 170, 65, 2, 0.412715
49, 1, bw, attraction, a-b-db, 5, 2, 6, 13, 88, 161, 90, 165, 165, 90, 2, 2.11382
49, 1, bw, attraction, a-b-db, 5, 2, 6, 13, 88, 161, 90, 165, 165, 90, 3, 0.387821
49, 1, bw, attraction, a-b-db, 2, 1, 6, 14, 60, 135, 59, 134, 135, 60, 1, 1.77824
49, 1, bw, attraction, a-b-db, 2, 1, 6, 14, 60, 135, 59, 134, 135, 60, 3, 0.74568
49, 1, bw, filler, NA, 999, 999, 6, 15, 174, 102, 192, 154, 124, 88, 2, 0.953474
49, 1, bw, filler, NA, 999, 999, 6, 15, 174, 102, 192, 154, 124, 88, 3, 0.72233
49, 1, bw, attraction, a-b-da, 14, 2, 6, 16, 153, 83, 90, 165, 165, 90, 2, 2.31558
49, 1, bw, attraction, a-b-da, 14, 2, 6, 16, 153, 83, 90, 165, 165, 90, 1, 0.637402
49, 1, bw, attraction, a-b-da, 9, 1, 6, 17, 135, 60, 60, 135, 129, 57, 2, 0.841893
49, 1, bw, attraction, a-b-da, 9, 1, 6, 17, 135, 60, 60, 135, 129, 57, 1, 1.19093
49, 1, bw, attraction, a-b-db, 2, 3, 6, 18, 120, 195, 195, 120, 119, 193, 2, 0.764496
49, 1, bw, attraction, a-b-db, 2, 3, 6, 18, 120, 195, 195, 120, 119, 193, 1, 0.388729
49, 1, bw, attraction, a-b-da, 9, 2, 6, 19, 157, 86, 165, 90, 90, 165, 2, 0.76341
49, 1, bw, attraction, a-b-da, 9, 2, 6, 19, 157, 86, 165, 90, 90, 165, 1, 0.755697
49, 1, bw, filler, NA, 999, 999, 6, 20, 105, 168, 164, 73, 143, 146, 3, 1.04335
49, 1, bw, filler, NA, 999, 999, 6, 20, 105, 168, 164, 73, 143, 146, 2, 0.69637
49, 1, bw, catch, NA, 999, 999, 6, 21, 80, 115, 97, 158, 163, 152, 3, 0.938051
49, 1, bw, catch, NA, 999, 999, 6, 21, 80, 115, 97, 158, 163, 152, 1, 0.659187
49, 1, bw, attraction, a-b-da, 14, 3, 6, 22, 195, 120, 120, 195, 181, 111, 1, 0.982238
49, 1, bw, attraction, a-b-da, 14, 3, 6, 22, 195, 120, 120, 195, 181, 111, 3, 0.5899
49, 1, bw, filler, NA, 999, 999, 6, 23, 171, 121, 111, 167, 73, 187, 1, 0.948326
49, 1, bw, filler, NA, 999, 999, 6, 23, 171, 121, 111, 167, 73, 187, 3, 0.5573
49, 1, bw, attraction, a-b-db, 2, 2, 6, 24, 165, 90, 89, 163, 90, 165, 2, 2.15635
49, 1, bw, attraction, a-b-db, 2, 2, 6, 24, 165, 90, 89, 163, 90, 165, 1, 0.476331
49, 1, bw, filler, NA, 999, 999, 6, 25, 182, 148, 161, 84, 118, 195, 1, 0.718774
49, 1, bw, filler, NA, 999, 999, 6, 25, 182, 148, 161, 84, 118, 195, 2, 0.609213
49, 1, bw, catch, NA, 999, 999, 6, 26, 93, 102, 125, 130, 163, 152, 3, 1.10227
49, 1, bw, catch, NA, 999, 999, 6, 26, 93, 102, 125, 130, 163, 152, 1, 0.569222
49, 1, bw, attraction, a-b-db, 14, 1, 6, 27, 135, 60, 56, 125, 60, 135, 1, 1.0565
49, 1, bw, attraction, a-b-db, 14, 1, 6, 27, 135, 60, 56, 125, 60, 135, 3, 0.54068
49, 1, bw, attraction, a-b-da, 5, 1, 6, 28, 135, 60, 60, 135, 132, 58, 1, 0.796353
49, 1, bw, attraction, a-b-da, 5, 1, 6, 28, 135, 60, 60, 135, 132, 58, 3, 0.747507
49, 1, bw, attraction, a-b-db, 9, 3, 6, 29, 114, 186, 195, 120, 120, 195, 1, 2.16315
49, 1, bw, attraction, a-b-db, 9, 3, 6, 29, 114, 186, 195, 120, 120, 195, 3, 0.483141
49, 1, bw, attraction, a-b-da, 2, 3, 6, 30, 195, 120, 193, 119, 120, 195, 1, 0.861633
49, 1, bw, attraction, a-b-da, 2, 3, 6, 30, 195, 120, 193, 119, 120, 195, 2, 0.377984
49, 1, bw, filler, NA, 999, 999, 6, 31, 168, 121, 128, 182, 141, 138, 1, 1.81647
49, 1, bw, filler, NA, 999, 999, 6, 31, 168, 121, 128, 182, 141, 138, 2, 0.678573
49, 1, bw, attraction, a-b-da, 14, 1, 6, 32, 60, 135, 135, 60, 125, 56, 1, 2.92096
49, 1, bw, attraction, a-b-da, 14, 1, 6, 32, 60, 135, 135, 60, 125, 56, 2, 0.6827
49, 1, bw, filler, NA, 999, 999, 6, 33, 57, 83, 111, 103, 180, 125, 3, 1.46107
49, 1, bw, filler, NA, 999, 999, 6, 33, 57, 83, 111, 103, 180, 125, 1, 0.86528
49, 1, bw, attraction, a-b-da, 2, 2, 6, 34, 90, 165, 165, 90, 163, 89, 3, 1.26025
49, 1, bw, attraction, a-b-da, 2, 2, 6, 34, 90, 165, 165, 90, 163, 89, 1, 1.01649
49, 1, bw, attraction, a-b-da, 5, 3, 6, 35, 120, 195, 195, 120, 190, 117, 3, 0.773477
49, 1, bw, attraction, a-b-da, 5, 3, 6, 35, 120, 195, 195, 120, 190, 117, 1, 1.00528
49, 1, bw, attraction, a-b-db, 5, 1, 6, 36, 135, 60, 60, 135, 58, 132, 1, 1.70677
49, 1, bw, attraction, a-b-db, 5, 1, 6, 36, 135, 60, 60, 135, 58, 132, 2, 0.884868
49, 1, bw, catch, NA, 999, 999, 6, 37, 187, 128, 111, 144, 70, 125, 1, 0.631358
49, 1, bw, catch, NA, 999, 999, 6, 37, 187, 128, 111, 144, 70, 125, 3, 0.428988
49, 1, bw, filler, NA, 999, 999, 7, 1, 177, 166, 78, 104, 81, 111, 1, 1.56158
49, 1, bw, filler, NA, 999, 999, 7, 1, 177, 166, 78, 104, 81, 111, 2, 0.617657
49, 1, bw, attraction, a-b-da, 14, 1, 7, 2, 60, 135, 135, 60, 125, 56, 1, 1.36672
49, 1, bw, attraction, a-b-da, 14, 1, 7, 2, 60, 135, 135, 60, 125, 56, 3, 0.871022
49, 1, bw, attraction, a-b-db, 2, 2, 7, 3, 165, 90, 89, 163, 90, 165, 1, 0.833916
49, 1, bw, attraction, a-b-db, 2, 2, 7, 3, 165, 90, 89, 163, 90, 165, 3, 0.583724
49, 1, bw, attraction, a-b-db, 5, 2, 7, 4, 88, 161, 165, 90, 90, 165, 1, 0.774151
49, 1, bw, attraction, a-b-db, 5, 2, 7, 4, 88, 161, 165, 90, 90, 165, 2, 0.589827
49, 1, bw, attraction, a-b-db, 14, 1, 7, 5, 135, 60, 56, 125, 60, 135, 1, 0.964284
49, 1, bw, attraction, a-b-db, 14, 1, 7, 5, 135, 60, 56, 125, 60, 135, 3, 0.756583
49, 1, bw, attraction, a-b-db, 5, 3, 7, 6, 195, 120, 120, 195, 117, 190, 2, 2.53236
49, 1, bw, attraction, a-b-db, 5, 3, 7, 6, 195, 120, 120, 195, 117, 190, 1, 0.365381
49, 1, bw, attraction, a-b-da, 14, 3, 7, 7, 181, 111, 195, 120, 120, 195, 3, 2.30067
49, 1, bw, attraction, a-b-da, 14, 3, 7, 7, 181, 111, 195, 120, 120, 195, 2, 0.407426
49, 1, bw, attraction, a-b-da, 5, 3, 7, 8, 195, 120, 120, 195, 190, 117, 3, 1.5243
49, 1, bw, attraction, a-b-da, 5, 3, 7, 8, 195, 120, 120, 195, 190, 117, 2, 2.76592
49, 1, bw, filler, NA, 999, 999, 7, 9, 75, 188, 105, 71, 124, 88, 3, 1.1644
49, 1, bw, filler, NA, 999, 999, 7, 9, 75, 188, 105, 71, 124, 88, 2, 1.18057
49, 1, bw, attraction, a-b-db, 14, 2, 7, 10, 165, 90, 90, 165, 83, 153, 1, 1.82691
49, 1, bw, attraction, a-b-db, 14, 2, 7, 10, 165, 90, 90, 165, 83, 153, 3, 1.13616
49, 1, bw, filler, NA, 999, 999, 7, 11, 179, 187, 191, 63, 156, 127, 1, 0.872427
49, 1, bw, filler, NA, 999, 999, 7, 11, 179, 187, 191, 63, 156, 127, 2, 0.644294
49, 1, bw, filler, NA, 999, 999, 7, 12, 144, 91, 107, 106, 88, 184, 1, 2.21588
49, 1, bw, filler, NA, 999, 999, 7, 12, 144, 91, 107, 106, 88, 184, 2, 0.525941
49, 1, bw, attraction, a-b-da, 2, 1, 7, 13, 134, 59, 135, 60, 60, 135, 1, 0.846458
49, 1, bw, attraction, a-b-da, 2, 1, 7, 13, 134, 59, 135, 60, 60, 135, 2, 0.675266
49, 1, bw, catch, NA, 999, 999, 7, 14, 141, 174, 121, 134, 77, 118, 1, 0.773719
49, 1, bw, catch, NA, 999, 999, 7, 14, 141, 174, 121, 134, 77, 118, 3, 0.813486
49, 1, bw, attraction, a-b-da, 5, 1, 7, 15, 132, 58, 60, 135, 135, 60, 1, 1.05848
49, 1, bw, attraction, a-b-da, 5, 1, 7, 15, 132, 58, 60, 135, 135, 60, 2, 0.838819
49, 1, bw, attraction, a-b-db, 9, 1, 7, 16, 60, 135, 57, 129, 135, 60, 1, 1.65117
49, 1, bw, attraction, a-b-db, 9, 1, 7, 16, 60, 135, 57, 129, 135, 60, 3, 0.663932
49, 1, bw, filler, NA, 999, 999, 7, 17, 153, 84, 148, 80, 150, 112, 3, 1.30708
49, 1, bw, filler, NA, 999, 999, 7, 17, 153, 84, 148, 80, 150, 112, 2, 0.565226
49, 1, bw, filler, NA, 999, 999, 7, 18, 133, 105, 195, 138, 94, 86, 2, 0.948253
49, 1, bw, filler, NA, 999, 999, 7, 18, 133, 105, 195, 138, 94, 86, 3, 0.589281
49, 1, bw, catch, NA, 999, 999, 7, 19, 176, 139, 122, 133, 121, 74, 1, 6.6758
49, 1, bw, catch, NA, 999, 999, 7, 19, 176, 139, 122, 133, 121, 74, 2, 0.661616
49, 1, bw, attraction, a-b-db, 2, 3, 7, 20, 120, 195, 119, 193, 195, 120, 2, 12.8967
49, 1, bw, attraction, a-b-db, 2, 3, 7, 20, 120, 195, 119, 193, 195, 120, 3, 0.719993
49, 1, bw, attraction, a-b-da, 9, 1, 7, 21, 129, 57, 135, 60, 60, 135, 1, 0.721022
49, 1, bw, attraction, a-b-da, 9, 1, 7, 21, 129, 57, 135, 60, 60, 135, 3, 0.571525
49, 1, bw, attraction, a-b-db, 5, 1, 7, 22, 58, 132, 60, 135, 135, 60, 3, 1.56264
49, 1, bw, attraction, a-b-db, 5, 1, 7, 22, 58, 132, 60, 135, 135, 60, 1, 0.51469
49, 1, bw, attraction, a-b-da, 9, 2, 7, 23, 165, 90, 157, 86, 90, 165, 1, 0.923811
49, 1, bw, attraction, a-b-da, 9, 2, 7, 23, 165, 90, 157, 86, 90, 165, 2, 0.397532
49, 1, bw, attraction, a-b-db, 14, 3, 7, 24, 195, 120, 120, 195, 111, 181, 1, 1.18746
49, 1, bw, attraction, a-b-db, 14, 3, 7, 24, 195, 120, 120, 195, 111, 181, 2, 0.515064
49, 1, bw, attraction, a-b-da, 2, 3, 7, 25, 120, 195, 195, 120, 193, 119, 1, 1.3801
49, 1, bw, attraction, a-b-da, 2, 3, 7, 25, 120, 195, 195, 120, 193, 119, 2, 0.875588
49, 1, bw, attraction, a-b-db, 9, 3, 7, 26, 195, 120, 114, 186, 120, 195, 2, 1.29395
49, 1, bw, attraction, a-b-db, 9, 3, 7, 26, 195, 120, 114, 186, 120, 195, 1, 0.584817
49, 1, bw, attraction, a-b-db, 2, 1, 7, 27, 59, 134, 135, 60, 60, 135, 1, 1.17521
49, 1, bw, attraction, a-b-db, 2, 1, 7, 27, 59, 134, 135, 60, 60, 135, 2, 0.439013
49, 1, bw, catch, NA, 999, 999, 7, 28, 129, 186, 70, 125, 150, 105, 1, 0.947374
49, 1, bw, catch, NA, 999, 999, 7, 28, 129, 186, 70, 125, 150, 105, 2, 0.340242
49, 1, bw, attraction, a-b-da, 2, 2, 7, 29, 165, 90, 90, 165, 163, 89, 2, 1.62817
49, 1, bw, attraction, a-b-da, 2, 2, 7, 29, 165, 90, 90, 165, 163, 89, 1, 1.06567
49, 1, bw, attraction, a-b-db, 9, 2, 7, 30, 86, 157, 90, 165, 165, 90, 2, 2.28458
49, 1, bw, attraction, a-b-db, 9, 2, 7, 30, 86, 157, 90, 165, 165, 90, 1, 0.855933
49, 1, bw, attraction, a-b-da, 9, 3, 7, 31, 120, 195, 195, 120, 186, 114, 2, 0.81953
49, 1, bw, attraction, a-b-da, 9, 3, 7, 31, 120, 195, 195, 120, 186, 114, 1, 0.393999
49, 1, bw, filler, NA, 999, 999, 7, 32, 142, 137, 154, 151, 81, 96, 2, 0.935773
49, 1, bw, filler, NA, 999, 999, 7, 32, 142, 137, 154, 151, 81, 96, 3, 0.385509
49, 1, bw, filler, NA, 999, 999, 7, 33, 141, 95, 184, 96, 155, 62, 2, 0.727883
49, 1, bw, filler, NA, 999, 999, 7, 33, 141, 95, 184, 96, 155, 62, 3, 0.769667
49, 1, bw, filler, NA, 999, 999, 7, 34, 104, 166, 78, 102, 166, 110, 1, 1.72067
49, 1, bw, filler, NA, 999, 999, 7, 34, 104, 166, 78, 102, 166, 110, 2, 0.434756
49, 1, bw, attraction, a-b-da, 5, 2, 7, 35, 161, 88, 165, 90, 90, 165, 2, 1.11921
49, 1, bw, attraction, a-b-da, 5, 2, 7, 35, 161, 88, 165, 90, 90, 165, 1, 0.33745
49, 1, bw, attraction, a-b-da, 14, 2, 7, 36, 90, 165, 165, 90, 153, 83, 3, 0.826006
49, 1, bw, attraction, a-b-da, 14, 2, 7, 36, 90, 165, 165, 90, 153, 83, 1, 0.487757
49, 1, bw, filler, NA, 999, 999, 7, 37, 161, 168, 125, 107, 134, 153, 1, 0.666497
49, 1, bw, filler, NA, 999, 999, 7, 37, 161, 168, 125, 107, 134, 153, 2, 0.358617
49, 1, bw, attraction, a-b-db, 14, 3, 8, 1, 120, 195, 111, 181, 195, 120, 2, 2.19779
49, 1, bw, attraction, a-b-db, 14, 3, 8, 1, 120, 195, 111, 181, 195, 120, 3, 0.476437
49, 1, bw, filler, NA, 999, 999, 8, 2, 150, 160, 102, 79, 147, 65, 1, 0.870858
49, 1, bw, filler, NA, 999, 999, 8, 2, 150, 160, 102, 79, 147, 65, 2, 0.41864
49, 1, bw, attraction, a-b-db, 5, 1, 8, 3, 58, 132, 135, 60, 60, 135, 1, 1.03975
49, 1, bw, attraction, a-b-db, 5, 1, 8, 3, 58, 132, 135, 60, 60, 135, 2, 0.452662
49, 1, bw, attraction, a-b-da, 2, 1, 8, 4, 60, 135, 134, 59, 135, 60, 3, 1.47249
49, 1, bw, attraction, a-b-da, 2, 1, 8, 4, 60, 135, 134, 59, 135, 60, 2, 0.444178
49, 1, bw, attraction, a-b-da, 2, 2, 8, 5, 163, 89, 90, 165, 165, 90, 1, 0.935882
49, 1, bw, attraction, a-b-da, 2, 2, 8, 5, 163, 89, 90, 165, 165, 90, 2, 0.409427
49, 1, bw, attraction, a-b-db, 5, 2, 8, 6, 90, 165, 88, 161, 165, 90, 2, 1.20674
49, 1, bw, attraction, a-b-db, 5, 2, 8, 6, 90, 165, 88, 161, 165, 90, 3, 0.388993
49, 1, bw, filler, NA, 999, 999, 8, 7, 77, 98, 140, 68, 150, 149, 3, 1.03542
49, 1, bw, filler, NA, 999, 999, 8, 7, 77, 98, 140, 68, 150, 149, 1, 0.625171
49, 1, bw, filler, NA, 999, 999, 8, 8, 113, 113, 114, 189, 82, 145, 1, 1.27747
49, 1, bw, filler, NA, 999, 999, 8, 8, 113, 113, 114, 189, 82, 145, 2, 0.441124
49, 1, bw, filler, NA, 999, 999, 8, 9, 190, 161, 62, 148, 81, 169, 1, 0.836809
49, 1, bw, filler, NA, 999, 999, 8, 9, 190, 161, 62, 148, 81, 169, 2, 0.562507
49, 1, bw, attraction, a-b-da, 9, 1, 8, 10, 135, 60, 60, 135, 129, 57, 1, 0.977675
49, 1, bw, attraction, a-b-da, 9, 1, 8, 10, 135, 60, 60, 135, 129, 57, 2, 0.625292
49, 1, bw, filler, NA, 999, 999, 8, 11, 72, 90, 70, 141, 108, 153, 3, 1.43783
49, 1, bw, filler, NA, 999, 999, 8, 11, 72, 90, 70, 141, 108, 153, 1, 1.03528
49, 1, bw, filler, NA, 999, 999, 8, 12, 161, 128, 70, 195, 109, 123, 1, 16.9196
49, 1, bw, filler, NA, 999, 999, 8, 12, 161, 128, 70, 195, 109, 123, 3, 0.908915
49, 1, bw, attraction, a-b-da, 5, 3, 8, 13, 195, 120, 190, 117, 120, 195, 1, 1.16582
49, 1, bw, attraction, a-b-da, 5, 3, 8, 13, 195, 120, 190, 117, 120, 195, 3, 0.398156
49, 1, bw, catch, NA, 999, 999, 8, 14, 164, 151, 62, 133, 91, 164, 1, 0.619959
49, 1, bw, catch, NA, 999, 999, 8, 14, 164, 151, 62, 133, 91, 164, 2, 0.626524
49, 1, bw, attraction, a-b-db, 9, 2, 8, 15, 165, 90, 86, 157, 90, 165, 1, 1.59885
49, 1, bw, attraction, a-b-db, 9, 2, 8, 15, 165, 90, 86, 157, 90, 165, 2, 0.541627
49, 1, bw, attraction, a-b-db, 2, 2, 8, 16, 89, 163, 90, 165, 165, 90, 2, 0.693446
49, 1, bw, attraction, a-b-db, 2, 2, 8, 16, 89, 163, 90, 165, 165, 90, 3, 0.464552
49, 1, bw, catch, NA, 999, 999, 8, 17, 165, 90, 79, 116, 176, 139, 3, 1.02768
49, 1, bw, catch, NA, 999, 999, 8, 17, 165, 90, 79, 116, 176, 139, 2, 0.497251
49, 1, bw, attraction, a-b-db, 14, 1, 8, 18, 56, 125, 135, 60, 60, 135, 1, 0.587068
49, 1, bw, attraction, a-b-db, 14, 1, 8, 18, 56, 125, 135, 60, 60, 135, 2, 0.578841
49, 1, bw, attraction, a-b-da, 5, 2, 8, 19, 90, 165, 165, 90, 161, 88, 1, 0.769333
49, 1, bw, attraction, a-b-da, 5, 2, 8, 19, 90, 165, 165, 90, 161, 88, 3, 0.849814
49, 1, bw, filler, NA, 999, 999, 8, 20, 188, 73, 60, 84, 168, 192, 3, 0.79745
49, 1, bw, filler, NA, 999, 999, 8, 20, 188, 73, 60, 84, 168, 192, 2, 0.556419
49, 1, bw, attraction, a-b-da, 14, 3, 8, 21, 120, 195, 195, 120, 181, 111, 1, 4.8202
49, 1, bw, attraction, a-b-da, 14, 3, 8, 21, 120, 195, 195, 120, 181, 111, 3, 0.521365
49, 1, bw, attraction, a-b-db, 5, 3, 8, 22, 117, 190, 120, 195, 195, 120, 2, 3.98645
49, 1, bw, attraction, a-b-db, 5, 3, 8, 22, 117, 190, 120, 195, 195, 120, 3, 0.929274
49, 1, bw, attraction, a-b-db, 2, 3, 8, 23, 195, 120, 120, 195, 119, 193, 2, 1.48955
49, 1, bw, attraction, a-b-db, 2, 3, 8, 23, 195, 120, 120, 195, 119, 193, 1, 0.532328
49, 1, bw, attraction, a-b-db, 14, 2, 8, 24, 165, 90, 83, 153, 90, 165, 1, 1.62884
49, 1, bw, attraction, a-b-db, 14, 2, 8, 24, 165, 90, 83, 153, 90, 165, 2, 0.674415
49, 1, bw, attraction, a-b-da, 9, 2, 8, 25, 165, 90, 157, 86, 90, 165, 1, 1.26858
49, 1, bw, attraction, a-b-da, 9, 2, 8, 25, 165, 90, 157, 86, 90, 165, 2, 0.47297
49, 1, bw, catch, NA, 999, 999, 8, 26, 187, 128, 162, 93, 65, 130, 1, 1.06
49, 1, bw, catch, NA, 999, 999, 8, 26, 187, 128, 162, 93, 65, 130, 3, 1.82434
49, 1, bw, filler, NA, 999, 999, 8, 27, 68, 68, 144, 177, 183, 176, 3, 2.30044
49, 1, bw, filler, NA, 999, 999, 8, 27, 68, 68, 144, 177, 183, 176, 1, 1.27903
49, 1, bw, attraction, a-b-da, 9, 3, 8, 28, 186, 114, 120, 195, 195, 120, 2, 1.61724
49, 1, bw, attraction, a-b-da, 9, 3, 8, 28, 186, 114, 120, 195, 195, 120, 1, 0.495272
49, 1, bw, attraction, a-b-da, 2, 3, 8, 29, 120, 195, 193, 119, 195, 120, 1, 1.50516
49, 1, bw, attraction, a-b-da, 2, 3, 8, 29, 120, 195, 193, 119, 195, 120, 2, 0.307253
49, 1, bw, attraction, a-b-db, 2, 1, 8, 30, 60, 135, 59, 134, 135, 60, 1, 1.4364
49, 1, bw, attraction, a-b-db, 2, 1, 8, 30, 60, 135, 59, 134, 135, 60, 3, 0.897937
49, 1, bw, attraction, a-b-da, 5, 1, 8, 31, 60, 135, 135, 60, 132, 58, 1, 8.45965
49, 1, bw, attraction, a-b-da, 5, 1, 8, 31, 60, 135, 135, 60, 132, 58, 2, 0.525646
49, 1, bw, attraction, a-b-db, 9, 3, 8, 32, 195, 120, 114, 186, 120, 195, 1, 0.629972
49, 1, bw, attraction, a-b-db, 9, 3, 8, 32, 195, 120, 114, 186, 120, 195, 2, 0.531879
49, 1, bw, attraction, a-b-db, 9, 1, 8, 33, 60, 135, 135, 60, 57, 129, 1, 7.02023
49, 1, bw, attraction, a-b-db, 9, 1, 8, 33, 60, 135, 135, 60, 57, 129, 2, 0.728842
49, 1, bw, filler, NA, 999, 999, 8, 34, 181, 169, 193, 153, 78, 149, 1, 0.729119
49, 1, bw, filler, NA, 999, 999, 8, 34, 181, 169, 193, 153, 78, 149, 3, 0.426895
49, 1, bw, attraction, a-b-da, 14, 2, 8, 35, 90, 165, 165, 90, 153, 83, 1, 1.79127
49, 1, bw, attraction, a-b-da, 14, 2, 8, 35, 90, 165, 165, 90, 153, 83, 3, 0.814027
49, 1, bw, filler, NA, 999, 999, 8, 36, 156, 94, 177, 76, 89, 191, 1, 0.730968
49, 1, bw, filler, NA, 999, 999, 8, 36, 156, 94, 177, 76, 89, 191, 2, 0.556799
49, 1, bw, attraction, a-b-da, 14, 1, 8, 37, 125, 56, 60, 135, 135, 60, 2, 1.49208
49, 1, bw, attraction, a-b-da, 14, 1, 8, 37, 125, 56, 60, 135, 135, 60, 1, 0.534781
