sub_n, computer_n, bw_cond, effect, set, distance, diag, block_n, trial_n, h1, w1, h2, w2, h3, w3, choice, rt 
48, 1, wb, practice, NA, 999, 999, 0, 1, 140, 79, 156, 155, 94, 160, 1, 7.35925
48, 1, wb, practice, NA, 999, 999, 0, 1, 140, 79, 156, 155, 94, 160, 2, 2.76848
48, 1, wb, practice, NA, 999, 999, 0, 2, 159, 89, 164, 164, 157, 66, 3, 4.13025
48, 1, wb, practice, NA, 999, 999, 0, 2, 159, 89, 164, 164, 157, 66, 2, 1.59475
48, 1, wb, practice, NA, 999, 999, 0, 3, 168, 122, 89, 160, 160, 174, 2, 3.26189
48, 1, wb, practice, NA, 999, 999, 0, 3, 168, 122, 89, 160, 160, 174, 3, 1.82436
48, 1, wb, attraction, a-b-da, 5, 1, 1, 1, 132, 58, 60, 135, 135, 60, 1, 3.33774
48, 1, wb, attraction, a-b-da, 5, 1, 1, 1, 132, 58, 60, 135, 135, 60, 2, 2.07462
48, 1, wb, attraction, a-b-db, 9, 1, 1, 2, 60, 135, 135, 60, 57, 129, 2, 5.81259
48, 1, wb, attraction, a-b-db, 9, 1, 1, 2, 60, 135, 135, 60, 57, 129, 1, 2.1934
48, 1, wb, filler, NA, 999, 999, 1, 3, 113, 124, 76, 194, 123, 138, 1, 12.1105
48, 1, wb, filler, NA, 999, 999, 1, 3, 113, 124, 76, 194, 123, 138, 2, 1.49342
48, 1, wb, filler, NA, 999, 999, 1, 4, 141, 189, 148, 182, 128, 149, 3, 5.30287
48, 1, wb, filler, NA, 999, 999, 1, 4, 141, 189, 148, 182, 128, 149, 1, 1.40065
48, 1, wb, catch, NA, 999, 999, 1, 5, 107, 88, 134, 181, 120, 135, 1, 2.48615
48, 1, wb, catch, NA, 999, 999, 1, 5, 107, 88, 134, 181, 120, 135, 2, 0.665262
48, 1, wb, filler, NA, 999, 999, 1, 6, 182, 92, 194, 75, 179, 62, 3, 3.46048
48, 1, wb, filler, NA, 999, 999, 1, 6, 182, 92, 194, 75, 179, 62, 1, 0.831854
48, 1, wb, attraction, a-b-db, 2, 1, 1, 7, 59, 134, 60, 135, 135, 60, 3, 4.87629
48, 1, wb, attraction, a-b-db, 2, 1, 1, 7, 59, 134, 60, 135, 135, 60, 1, 0.526769
48, 1, wb, attraction, a-b-da, 14, 3, 1, 8, 120, 195, 195, 120, 181, 111, 3, 3.33524
48, 1, wb, attraction, a-b-da, 14, 3, 1, 8, 120, 195, 195, 120, 181, 111, 1, 1.12011
48, 1, wb, attraction, a-b-da, 14, 2, 1, 9, 153, 83, 165, 90, 90, 165, 1, 2.73706
48, 1, wb, attraction, a-b-da, 14, 2, 1, 9, 153, 83, 165, 90, 90, 165, 3, 0.530099
48, 1, wb, attraction, a-b-da, 2, 2, 1, 10, 165, 90, 90, 165, 163, 89, 3, 3.17868
48, 1, wb, attraction, a-b-da, 2, 2, 1, 10, 165, 90, 90, 165, 163, 89, 2, 1.15363
48, 1, wb, filler, NA, 999, 999, 1, 11, 188, 59, 80, 71, 59, 152, 2, 2.59312
48, 1, wb, filler, NA, 999, 999, 1, 11, 188, 59, 80, 71, 59, 152, 3, 1.17561
48, 1, wb, attraction, a-b-da, 9, 2, 1, 12, 157, 86, 165, 90, 90, 165, 1, 6.78189
48, 1, wb, attraction, a-b-da, 9, 2, 1, 12, 157, 86, 165, 90, 90, 165, 3, 0.787782
48, 1, wb, filler, NA, 999, 999, 1, 13, 61, 121, 69, 119, 84, 80, 3, 9.09011
48, 1, wb, filler, NA, 999, 999, 1, 13, 61, 121, 69, 119, 84, 80, 1, 3.8106
48, 1, wb, attraction, a-b-db, 9, 3, 1, 14, 114, 186, 120, 195, 195, 120, 3, 21.9746
48, 1, wb, attraction, a-b-db, 9, 3, 1, 14, 114, 186, 120, 195, 195, 120, 2, 0.472494
48, 1, wb, attraction, a-b-db, 14, 1, 1, 15, 135, 60, 60, 135, 56, 125, 3, 2.19549
48, 1, wb, attraction, a-b-db, 14, 1, 1, 15, 135, 60, 60, 135, 56, 125, 2, 2.58619
48, 1, wb, filler, NA, 999, 999, 1, 16, 140, 163, 158, 88, 120, 182, 2, 3.70396
48, 1, wb, filler, NA, 999, 999, 1, 16, 140, 163, 158, 88, 120, 182, 1, 6.93007
48, 1, wb, filler, NA, 999, 999, 1, 17, 69, 181, 147, 144, 134, 158, 1, 1.5685
48, 1, wb, filler, NA, 999, 999, 1, 17, 69, 181, 147, 144, 134, 158, 3, 3.13668
48, 1, wb, filler, NA, 999, 999, 1, 18, 182, 148, 95, 129, 161, 184, 2, 1.79234
48, 1, wb, filler, NA, 999, 999, 1, 18, 182, 148, 95, 129, 161, 184, 3, 2.67922
48, 1, wb, attraction, a-b-da, 9, 3, 1, 19, 186, 114, 195, 120, 120, 195, 1, 5.84895
48, 1, wb, attraction, a-b-da, 9, 3, 1, 19, 186, 114, 195, 120, 120, 195, 3, 2.92439
48, 1, wb, filler, NA, 999, 999, 1, 20, 75, 185, 98, 61, 68, 100, 2, 5.29209
48, 1, wb, filler, NA, 999, 999, 1, 20, 75, 185, 98, 61, 68, 100, 1, 0.66169
48, 1, wb, attraction, a-b-da, 2, 1, 1, 21, 134, 59, 60, 135, 135, 60, 1, 5.60084
48, 1, wb, attraction, a-b-da, 2, 1, 1, 21, 134, 59, 60, 135, 135, 60, 2, 0.598284
48, 1, wb, catch, NA, 999, 999, 1, 22, 153, 162, 61, 134, 158, 97, 2, 5.86007
48, 1, wb, catch, NA, 999, 999, 1, 22, 153, 162, 61, 134, 158, 97, 1, 0.40688
48, 1, wb, filler, NA, 999, 999, 1, 23, 186, 70, 92, 89, 134, 139, 2, 1.26801
48, 1, wb, filler, NA, 999, 999, 1, 23, 186, 70, 92, 89, 134, 139, 3, 0.424301
48, 1, wb, attraction, a-b-db, 2, 3, 1, 24, 195, 120, 119, 193, 120, 195, 1, 5.49271
48, 1, wb, attraction, a-b-db, 2, 3, 1, 24, 195, 120, 119, 193, 120, 195, 3, 0.430333
48, 1, wb, attraction, a-b-db, 14, 2, 1, 25, 165, 90, 90, 165, 83, 153, 3, 4.51478
48, 1, wb, attraction, a-b-db, 14, 2, 1, 25, 165, 90, 90, 165, 83, 153, 2, 1.17199
48, 1, wb, attraction, a-b-da, 2, 3, 1, 26, 195, 120, 120, 195, 193, 119, 3, 5.28295
48, 1, wb, attraction, a-b-da, 2, 3, 1, 26, 195, 120, 120, 195, 193, 119, 2, 0.437289
48, 1, wb, attraction, a-b-db, 5, 3, 1, 27, 117, 190, 120, 195, 195, 120, 3, 2.67375
48, 1, wb, attraction, a-b-db, 5, 3, 1, 27, 117, 190, 120, 195, 195, 120, 1, 0.428921
48, 1, wb, attraction, a-b-da, 14, 1, 1, 28, 60, 135, 125, 56, 135, 60, 2, 2.88141
48, 1, wb, attraction, a-b-da, 14, 1, 1, 28, 60, 135, 125, 56, 135, 60, 1, 1.13245
48, 1, wb, attraction, a-b-db, 9, 2, 1, 29, 165, 90, 90, 165, 86, 157, 3, 4.54862
48, 1, wb, attraction, a-b-db, 9, 2, 1, 29, 165, 90, 90, 165, 86, 157, 2, 0.572719
48, 1, wb, attraction, a-b-db, 5, 1, 1, 30, 135, 60, 58, 132, 60, 135, 1, 9.58771
48, 1, wb, attraction, a-b-db, 5, 1, 1, 30, 135, 60, 58, 132, 60, 135, 2, 0.632579
48, 1, wb, catch, NA, 999, 999, 1, 31, 133, 122, 148, 167, 113, 82, 3, 2.085
48, 1, wb, catch, NA, 999, 999, 1, 31, 133, 122, 148, 167, 113, 82, 2, 0.416373
48, 1, wb, attraction, a-b-db, 14, 3, 1, 32, 120, 195, 195, 120, 111, 181, 2, 6.86945
48, 1, wb, attraction, a-b-db, 14, 3, 1, 32, 120, 195, 195, 120, 111, 181, 1, 0.472083
48, 1, wb, attraction, a-b-da, 9, 1, 1, 33, 135, 60, 60, 135, 129, 57, 3, 5.5151
48, 1, wb, attraction, a-b-da, 9, 1, 1, 33, 135, 60, 60, 135, 129, 57, 2, 1.05217
48, 1, wb, attraction, a-b-da, 5, 3, 1, 34, 190, 117, 195, 120, 120, 195, 1, 7.03973
48, 1, wb, attraction, a-b-da, 5, 3, 1, 34, 190, 117, 195, 120, 120, 195, 2, 0.362739
48, 1, wb, attraction, a-b-db, 2, 2, 1, 35, 89, 163, 90, 165, 165, 90, 3, 4.7219
48, 1, wb, attraction, a-b-db, 2, 2, 1, 35, 89, 163, 90, 165, 165, 90, 1, 0.643119
48, 1, wb, attraction, a-b-da, 5, 2, 1, 36, 165, 90, 90, 165, 161, 88, 3, 1.97484
48, 1, wb, attraction, a-b-da, 5, 2, 1, 36, 165, 90, 90, 165, 161, 88, 2, 1.14221
48, 1, wb, attraction, a-b-db, 5, 2, 1, 37, 88, 161, 165, 90, 90, 165, 2, 16.7658
48, 1, wb, attraction, a-b-db, 5, 2, 1, 37, 88, 161, 165, 90, 90, 165, 3, 0.59342
48, 1, wb, filler, NA, 999, 999, 2, 1, 57, 168, 171, 110, 69, 190, 1, 1.03887
48, 1, wb, filler, NA, 999, 999, 2, 1, 57, 168, 171, 110, 69, 190, 2, 0.467939
48, 1, wb, attraction, a-b-da, 2, 1, 2, 2, 134, 59, 60, 135, 135, 60, 3, 2.99107
48, 1, wb, attraction, a-b-da, 2, 1, 2, 2, 134, 59, 60, 135, 135, 60, 2, 0.685452
48, 1, wb, attraction, a-b-db, 9, 2, 2, 3, 165, 90, 90, 165, 86, 157, 3, 3.5518
48, 1, wb, attraction, a-b-db, 9, 2, 2, 3, 165, 90, 90, 165, 86, 157, 2, 0.415985
48, 1, wb, attraction, a-b-db, 5, 3, 2, 4, 120, 195, 195, 120, 117, 190, 2, 2.62124
48, 1, wb, attraction, a-b-db, 5, 3, 2, 4, 120, 195, 195, 120, 117, 190, 1, 0.378982
48, 1, wb, filler, NA, 999, 999, 2, 5, 186, 73, 158, 189, 130, 71, 3, 3.96944
48, 1, wb, filler, NA, 999, 999, 2, 5, 186, 73, 158, 189, 130, 71, 2, 0.392819
48, 1, wb, attraction, a-b-db, 5, 2, 2, 6, 165, 90, 88, 161, 90, 165, 1, 4.00669
48, 1, wb, attraction, a-b-db, 5, 2, 2, 6, 165, 90, 88, 161, 90, 165, 3, 0.396026
48, 1, wb, attraction, a-b-da, 5, 2, 2, 7, 90, 165, 165, 90, 161, 88, 2, 8.07385
48, 1, wb, attraction, a-b-da, 5, 2, 2, 7, 90, 165, 165, 90, 161, 88, 1, 0.427284
48, 1, wb, attraction, a-b-db, 5, 1, 2, 8, 135, 60, 60, 135, 58, 132, 1, 4.67988
48, 1, wb, attraction, a-b-db, 5, 1, 2, 8, 135, 60, 60, 135, 58, 132, 2, 0.386278
48, 1, wb, attraction, a-b-db, 9, 1, 2, 9, 135, 60, 57, 129, 60, 135, 1, 4.2728
48, 1, wb, attraction, a-b-db, 9, 1, 2, 9, 135, 60, 57, 129, 60, 135, 3, 0.699433
48, 1, wb, attraction, a-b-da, 9, 2, 2, 10, 157, 86, 165, 90, 90, 165, 2, 3.77329
48, 1, wb, attraction, a-b-da, 9, 2, 2, 10, 157, 86, 165, 90, 90, 165, 3, 0.387923
48, 1, wb, filler, NA, 999, 999, 2, 11, 82, 107, 192, 153, 65, 76, 3, 1.69044
48, 1, wb, filler, NA, 999, 999, 2, 11, 82, 107, 192, 153, 65, 76, 2, 0.309201
48, 1, wb, filler, NA, 999, 999, 2, 12, 161, 96, 172, 64, 80, 91, 3, 1.33441
48, 1, wb, filler, NA, 999, 999, 2, 12, 161, 96, 172, 64, 80, 91, 1, 0.407992
48, 1, wb, catch, NA, 999, 999, 2, 13, 153, 162, 132, 123, 106, 89, 3, 3.69314
48, 1, wb, catch, NA, 999, 999, 2, 13, 153, 162, 132, 123, 106, 89, 1, 0.407283
48, 1, wb, attraction, a-b-db, 14, 2, 2, 14, 83, 153, 90, 165, 165, 90, 1, 12.5403
48, 1, wb, attraction, a-b-db, 14, 2, 2, 14, 83, 153, 90, 165, 165, 90, 2, 0.306477
48, 1, wb, attraction, a-b-da, 14, 1, 2, 15, 125, 56, 135, 60, 60, 135, 2, 4.66778
48, 1, wb, attraction, a-b-da, 14, 1, 2, 15, 125, 56, 135, 60, 60, 135, 3, 0.446784
48, 1, wb, catch, NA, 999, 999, 2, 16, 158, 97, 181, 134, 122, 73, 3, 1.21869
48, 1, wb, catch, NA, 999, 999, 2, 16, 158, 97, 181, 134, 122, 73, 2, 0.352944
48, 1, wb, attraction, a-b-da, 9, 1, 2, 17, 135, 60, 60, 135, 129, 57, 3, 3.47273
48, 1, wb, attraction, a-b-da, 9, 1, 2, 17, 135, 60, 60, 135, 129, 57, 2, 1.46775
48, 1, wb, attraction, a-b-db, 2, 1, 2, 18, 59, 134, 60, 135, 135, 60, 3, 9.22254
48, 1, wb, attraction, a-b-db, 2, 1, 2, 18, 59, 134, 60, 135, 135, 60, 2, 0.386244
48, 1, wb, filler, NA, 999, 999, 2, 19, 161, 80, 157, 99, 94, 63, 3, 1.38478
48, 1, wb, filler, NA, 999, 999, 2, 19, 161, 80, 157, 99, 94, 63, 2, 0.320287
48, 1, wb, attraction, a-b-da, 14, 2, 2, 20, 153, 83, 90, 165, 165, 90, 1, 1.57738
48, 1, wb, attraction, a-b-da, 14, 2, 2, 20, 153, 83, 90, 165, 165, 90, 3, 0.768975
48, 1, wb, attraction, a-b-db, 14, 3, 2, 21, 120, 195, 195, 120, 111, 181, 3, 1.54384
48, 1, wb, attraction, a-b-db, 14, 3, 2, 21, 120, 195, 195, 120, 111, 181, 1, 0.432741
48, 1, wb, attraction, a-b-db, 2, 3, 2, 22, 120, 195, 195, 120, 119, 193, 3, 4.87719
48, 1, wb, attraction, a-b-db, 2, 3, 2, 22, 120, 195, 195, 120, 119, 193, 1, 0.303714
48, 1, wb, filler, NA, 999, 999, 2, 23, 154, 87, 135, 125, 117, 156, 1, 5.51349
48, 1, wb, filler, NA, 999, 999, 2, 23, 154, 87, 135, 125, 117, 156, 3, 0.346496
48, 1, wb, filler, NA, 999, 999, 2, 24, 88, 147, 159, 195, 103, 168, 1, 4.20239
48, 1, wb, filler, NA, 999, 999, 2, 24, 88, 147, 159, 195, 103, 168, 2, 0.328272
48, 1, wb, attraction, a-b-da, 5, 1, 2, 25, 132, 58, 135, 60, 60, 135, 2, 5.75286
48, 1, wb, attraction, a-b-da, 5, 1, 2, 25, 132, 58, 135, 60, 60, 135, 3, 0.488297
48, 1, wb, filler, NA, 999, 999, 2, 26, 103, 140, 106, 72, 118, 107, 2, 1.3067
48, 1, wb, filler, NA, 999, 999, 2, 26, 103, 140, 106, 72, 118, 107, 1, 0.485103
48, 1, wb, attraction, a-b-db, 14, 1, 2, 27, 56, 125, 135, 60, 60, 135, 1, 7.51159
48, 1, wb, attraction, a-b-db, 14, 1, 2, 27, 56, 125, 135, 60, 60, 135, 3, 0.423733
48, 1, wb, attraction, a-b-db, 9, 3, 2, 28, 120, 195, 195, 120, 114, 186, 3, 1.66012
48, 1, wb, attraction, a-b-db, 9, 3, 2, 28, 120, 195, 195, 120, 114, 186, 1, 0.40021
48, 1, wb, attraction, a-b-da, 9, 3, 2, 29, 186, 114, 195, 120, 120, 195, 2, 5.99004
48, 1, wb, attraction, a-b-da, 9, 3, 2, 29, 186, 114, 195, 120, 120, 195, 3, 0.347636
48, 1, wb, catch, NA, 999, 999, 2, 30, 142, 113, 193, 122, 67, 128, 3, 1.10731
48, 1, wb, catch, NA, 999, 999, 2, 30, 142, 113, 193, 122, 67, 128, 2, 0.381639
48, 1, wb, attraction, a-b-da, 2, 2, 2, 31, 163, 89, 165, 90, 90, 165, 1, 11.2761
48, 1, wb, attraction, a-b-da, 2, 2, 2, 31, 163, 89, 165, 90, 90, 165, 3, 0.34058
48, 1, wb, attraction, a-b-da, 5, 3, 2, 32, 120, 195, 195, 120, 190, 117, 2, 11.7725
48, 1, wb, attraction, a-b-da, 5, 3, 2, 32, 120, 195, 195, 120, 190, 117, 1, 0.409402
48, 1, wb, attraction, a-b-db, 2, 2, 2, 33, 165, 90, 90, 165, 89, 163, 3, 7.53457
48, 1, wb, attraction, a-b-db, 2, 2, 2, 33, 165, 90, 90, 165, 89, 163, 2, 0.334143
48, 1, wb, filler, NA, 999, 999, 2, 34, 165, 134, 85, 111, 147, 135, 2, 1.98262
48, 1, wb, filler, NA, 999, 999, 2, 34, 165, 134, 85, 111, 147, 135, 1, 0.405972
48, 1, wb, filler, NA, 999, 999, 2, 35, 94, 191, 59, 90, 122, 100, 2, 0.987849
48, 1, wb, filler, NA, 999, 999, 2, 35, 94, 191, 59, 90, 122, 100, 1, 0.658824
48, 1, wb, attraction, a-b-da, 14, 3, 2, 36, 181, 111, 195, 120, 120, 195, 1, 3.12585
48, 1, wb, attraction, a-b-da, 14, 3, 2, 36, 181, 111, 195, 120, 120, 195, 3, 0.382924
48, 1, wb, attraction, a-b-da, 2, 3, 2, 37, 120, 195, 195, 120, 193, 119, 3, 2.1334
48, 1, wb, attraction, a-b-da, 2, 3, 2, 37, 120, 195, 195, 120, 193, 119, 1, 0.486679
48, 1, wb, attraction, a-b-da, 5, 3, 3, 1, 120, 195, 195, 120, 190, 117, 3, 3.68911
48, 1, wb, attraction, a-b-da, 5, 3, 3, 1, 120, 195, 195, 120, 190, 117, 1, 0.371495
48, 1, wb, catch, NA, 999, 999, 3, 2, 151, 104, 89, 106, 138, 177, 3, 1.16254
48, 1, wb, catch, NA, 999, 999, 3, 2, 151, 104, 89, 106, 138, 177, 2, 1.47473
48, 1, wb, attraction, a-b-db, 5, 1, 3, 3, 58, 132, 135, 60, 60, 135, 2, 2.74097
48, 1, wb, attraction, a-b-db, 5, 1, 3, 3, 58, 132, 135, 60, 60, 135, 3, 0.373349
48, 1, wb, attraction, a-b-da, 2, 2, 3, 4, 163, 89, 165, 90, 90, 165, 1, 6.22777
48, 1, wb, attraction, a-b-da, 2, 2, 3, 4, 163, 89, 165, 90, 90, 165, 3, 0.37591
48, 1, wb, attraction, a-b-db, 9, 1, 3, 5, 60, 135, 135, 60, 57, 129, 2, 4.70245
48, 1, wb, attraction, a-b-db, 9, 1, 3, 5, 60, 135, 135, 60, 57, 129, 1, 0.920257
48, 1, wb, filler, NA, 999, 999, 3, 6, 194, 103, 99, 139, 132, 168, 2, 3.4492
48, 1, wb, filler, NA, 999, 999, 3, 6, 194, 103, 99, 139, 132, 168, 3, 0.621502
48, 1, wb, filler, NA, 999, 999, 3, 7, 172, 185, 62, 147, 191, 175, 2, 1.53848
48, 1, wb, filler, NA, 999, 999, 3, 7, 172, 185, 62, 147, 191, 175, 3, 0.683623
48, 1, wb, attraction, a-b-da, 9, 3, 3, 8, 186, 114, 195, 120, 120, 195, 1, 7.18969
48, 1, wb, attraction, a-b-da, 9, 3, 3, 8, 186, 114, 195, 120, 120, 195, 3, 2.06753
48, 1, wb, attraction, a-b-da, 14, 2, 3, 9, 165, 90, 90, 165, 153, 83, 3, 1.75013
48, 1, wb, attraction, a-b-da, 14, 2, 3, 9, 165, 90, 90, 165, 153, 83, 2, 0.438909
48, 1, wb, attraction, a-b-da, 9, 2, 3, 10, 90, 165, 157, 86, 165, 90, 2, 3.30735
48, 1, wb, attraction, a-b-da, 9, 2, 3, 10, 90, 165, 157, 86, 165, 90, 1, 0.468904
48, 1, wb, attraction, a-b-db, 14, 3, 3, 11, 120, 195, 111, 181, 195, 120, 3, 3.91201
48, 1, wb, attraction, a-b-db, 14, 3, 3, 11, 120, 195, 111, 181, 195, 120, 1, 0.425613
48, 1, wb, attraction, a-b-db, 2, 3, 3, 12, 119, 193, 195, 120, 120, 195, 2, 5.91802
48, 1, wb, attraction, a-b-db, 2, 3, 3, 12, 119, 193, 195, 120, 120, 195, 3, 0.414741
48, 1, wb, attraction, a-b-da, 9, 1, 3, 13, 135, 60, 60, 135, 129, 57, 3, 3.13982
48, 1, wb, attraction, a-b-da, 9, 1, 3, 13, 135, 60, 60, 135, 129, 57, 2, 0.740292
48, 1, wb, attraction, a-b-db, 2, 2, 3, 14, 89, 163, 165, 90, 90, 165, 2, 5.04398
48, 1, wb, attraction, a-b-db, 2, 2, 3, 14, 89, 163, 165, 90, 90, 165, 3, 0.439641
48, 1, wb, catch, NA, 999, 999, 3, 15, 126, 189, 130, 65, 92, 163, 2, 2.07602
48, 1, wb, catch, NA, 999, 999, 3, 15, 126, 189, 130, 65, 92, 163, 1, 0.343453
48, 1, wb, filler, NA, 999, 999, 3, 16, 136, 90, 112, 155, 134, 154, 1, 1.35124
48, 1, wb, filler, NA, 999, 999, 3, 16, 136, 90, 112, 155, 134, 154, 3, 0.680274
48, 1, wb, attraction, a-b-da, 5, 2, 3, 17, 161, 88, 90, 165, 165, 90, 1, 4.73864
48, 1, wb, attraction, a-b-da, 5, 2, 3, 17, 161, 88, 90, 165, 165, 90, 2, 0.610972
48, 1, wb, filler, NA, 999, 999, 3, 18, 131, 172, 59, 64, 88, 103, 2, 1.08813
48, 1, wb, filler, NA, 999, 999, 3, 18, 131, 172, 59, 64, 88, 103, 1, 0.355817
48, 1, wb, attraction, a-b-db, 14, 2, 3, 19, 90, 165, 83, 153, 165, 90, 3, 2.84363
48, 1, wb, attraction, a-b-db, 14, 2, 3, 19, 90, 165, 83, 153, 165, 90, 1, 0.383926
48, 1, wb, filler, NA, 999, 999, 3, 20, 185, 176, 173, 63, 101, 120, 2, 1.1986
48, 1, wb, filler, NA, 999, 999, 3, 20, 185, 176, 173, 63, 101, 120, 1, 0.389444
48, 1, wb, attraction, a-b-da, 2, 3, 3, 21, 193, 119, 195, 120, 120, 195, 1, 3.70804
48, 1, wb, attraction, a-b-da, 2, 3, 3, 21, 193, 119, 195, 120, 120, 195, 3, 0.28534
48, 1, wb, attraction, a-b-da, 14, 1, 3, 22, 135, 60, 60, 135, 125, 56, 3, 2.60795
48, 1, wb, attraction, a-b-da, 14, 1, 3, 22, 135, 60, 60, 135, 125, 56, 2, 0.365703
48, 1, wb, attraction, a-b-db, 2, 1, 3, 23, 135, 60, 60, 135, 59, 134, 1, 3.92495
48, 1, wb, attraction, a-b-db, 2, 1, 3, 23, 135, 60, 60, 135, 59, 134, 2, 0.35765
48, 1, wb, attraction, a-b-db, 14, 1, 3, 24, 60, 135, 56, 125, 135, 60, 2, 2.78089
48, 1, wb, attraction, a-b-db, 14, 1, 3, 24, 60, 135, 56, 125, 135, 60, 1, 0.547935
48, 1, wb, attraction, a-b-db, 9, 2, 3, 25, 165, 90, 90, 165, 86, 157, 3, 2.82767
48, 1, wb, attraction, a-b-db, 9, 2, 3, 25, 165, 90, 90, 165, 86, 157, 2, 0.480852
48, 1, wb, catch, NA, 999, 999, 3, 26, 134, 181, 156, 99, 97, 98, 3, 1.10717
48, 1, wb, catch, NA, 999, 999, 3, 26, 134, 181, 156, 99, 97, 98, 1, 0.357521
48, 1, wb, attraction, a-b-db, 5, 3, 3, 27, 195, 120, 117, 190, 120, 195, 1, 6.98068
48, 1, wb, attraction, a-b-db, 5, 3, 3, 27, 195, 120, 117, 190, 120, 195, 3, 0.394403
48, 1, wb, filler, NA, 999, 999, 3, 28, 61, 64, 148, 195, 161, 84, 1, 0.656347
48, 1, wb, filler, NA, 999, 999, 3, 28, 61, 64, 148, 195, 161, 84, 2, 0.276661
48, 1, wb, filler, NA, 999, 999, 3, 29, 108, 174, 136, 193, 160, 150, 1, 5.73521
48, 1, wb, filler, NA, 999, 999, 3, 29, 108, 174, 136, 193, 160, 150, 2, 0.5195
48, 1, wb, attraction, a-b-db, 5, 2, 3, 30, 90, 165, 165, 90, 88, 161, 2, 2.45656
48, 1, wb, attraction, a-b-db, 5, 2, 3, 30, 90, 165, 165, 90, 88, 161, 1, 0.484415
48, 1, wb, filler, NA, 999, 999, 3, 31, 143, 68, 162, 114, 75, 194, 1, 0.902807
48, 1, wb, filler, NA, 999, 999, 3, 31, 143, 68, 162, 114, 75, 194, 2, 0.345814
48, 1, wb, filler, NA, 999, 999, 3, 32, 158, 122, 69, 131, 145, 135, 2, 0.905665
48, 1, wb, filler, NA, 999, 999, 3, 32, 158, 122, 69, 131, 145, 135, 1, 2.05205
48, 1, wb, attraction, a-b-da, 2, 1, 3, 33, 134, 59, 60, 135, 135, 60, 1, 4.67139
48, 1, wb, attraction, a-b-da, 2, 1, 3, 33, 134, 59, 60, 135, 135, 60, 2, 0.362566
48, 1, wb, attraction, a-b-da, 14, 3, 3, 34, 181, 111, 120, 195, 195, 120, 1, 2.74577
48, 1, wb, attraction, a-b-da, 14, 3, 3, 34, 181, 111, 120, 195, 195, 120, 2, 0.314121
48, 1, wb, filler, NA, 999, 999, 3, 35, 64, 115, 129, 145, 132, 118, 1, 0.771279
48, 1, wb, filler, NA, 999, 999, 3, 35, 64, 115, 129, 145, 132, 118, 2, 0.283708
48, 1, wb, attraction, a-b-db, 9, 3, 3, 36, 114, 186, 195, 120, 120, 195, 2, 3.29427
48, 1, wb, attraction, a-b-db, 9, 3, 3, 36, 114, 186, 195, 120, 120, 195, 3, 0.296557
48, 1, wb, attraction, a-b-da, 5, 1, 3, 37, 132, 58, 60, 135, 135, 60, 1, 2.64238
48, 1, wb, attraction, a-b-da, 5, 1, 3, 37, 132, 58, 60, 135, 135, 60, 2, 3.09504
48, 1, wb, attraction, a-b-db, 2, 3, 4, 1, 120, 195, 119, 193, 195, 120, 3, 1.90379
48, 1, wb, attraction, a-b-db, 2, 3, 4, 1, 120, 195, 119, 193, 195, 120, 1, 0.618563
48, 1, wb, attraction, a-b-db, 2, 2, 4, 2, 165, 90, 89, 163, 90, 165, 1, 2.89566
48, 1, wb, attraction, a-b-db, 2, 2, 4, 2, 165, 90, 89, 163, 90, 165, 3, 0.354047
48, 1, wb, filler, NA, 999, 999, 4, 3, 123, 114, 191, 94, 177, 81, 1, 7.81791
48, 1, wb, filler, NA, 999, 999, 4, 3, 123, 114, 191, 94, 177, 81, 2, 0.64608
48, 1, wb, attraction, a-b-da, 9, 3, 4, 4, 120, 195, 186, 114, 195, 120, 2, 7.56977
48, 1, wb, attraction, a-b-da, 9, 3, 4, 4, 120, 195, 186, 114, 195, 120, 1, 0.28014
48, 1, wb, attraction, a-b-da, 2, 3, 4, 5, 195, 120, 193, 119, 120, 195, 1, 35.3867
48, 1, wb, attraction, a-b-da, 2, 3, 4, 5, 195, 120, 193, 119, 120, 195, 3, 0.359488
48, 1, wb, filler, NA, 999, 999, 4, 6, 173, 159, 191, 57, 153, 168, 2, 1.45465
48, 1, wb, filler, NA, 999, 999, 4, 6, 173, 159, 191, 57, 153, 168, 1, 0.379539
48, 1, wb, catch, NA, 999, 999, 4, 7, 195, 120, 99, 156, 85, 110, 3, 0.745964
48, 1, wb, catch, NA, 999, 999, 4, 7, 195, 120, 99, 156, 85, 110, 1, 0.347053
48, 1, wb, filler, NA, 999, 999, 4, 8, 75, 128, 156, 180, 131, 187, 1, 0.850899
48, 1, wb, filler, NA, 999, 999, 4, 8, 75, 128, 156, 180, 131, 187, 2, 0.247989
48, 1, wb, attraction, a-b-da, 14, 2, 4, 9, 165, 90, 90, 165, 153, 83, 3, 0.747991
48, 1, wb, attraction, a-b-da, 14, 2, 4, 9, 165, 90, 90, 165, 153, 83, 2, 0.292878
48, 1, wb, attraction, a-b-da, 14, 1, 4, 10, 125, 56, 60, 135, 135, 60, 1, 0.774704
48, 1, wb, attraction, a-b-da, 14, 1, 4, 10, 125, 56, 60, 135, 135, 60, 2, 0.230513
48, 1, wb, attraction, a-b-db, 9, 1, 4, 11, 60, 135, 135, 60, 57, 129, 3, 0.923051
48, 1, wb, attraction, a-b-db, 9, 1, 4, 11, 60, 135, 135, 60, 57, 129, 2, 0.228765
48, 1, wb, attraction, a-b-da, 2, 2, 4, 12, 163, 89, 90, 165, 165, 90, 1, 1.59319
48, 1, wb, attraction, a-b-da, 2, 2, 4, 12, 163, 89, 90, 165, 165, 90, 2, 0.224032
48, 1, wb, attraction, a-b-db, 14, 1, 4, 13, 135, 60, 56, 125, 60, 135, 2, 1.17262
48, 1, wb, attraction, a-b-db, 14, 1, 4, 13, 135, 60, 56, 125, 60, 135, 1, 0.468151
48, 1, wb, attraction, a-b-db, 14, 3, 4, 14, 111, 181, 195, 120, 120, 195, 1, 0.895364
48, 1, wb, attraction, a-b-db, 14, 3, 4, 14, 111, 181, 195, 120, 120, 195, 2, 0.546396
48, 1, wb, attraction, a-b-da, 14, 3, 4, 15, 120, 195, 195, 120, 181, 111, 3, 2.34608
48, 1, wb, attraction, a-b-da, 14, 3, 4, 15, 120, 195, 195, 120, 181, 111, 1, 0.418687
48, 1, wb, filler, NA, 999, 999, 4, 16, 182, 194, 133, 101, 187, 70, 2, 0.767858
48, 1, wb, filler, NA, 999, 999, 4, 16, 182, 194, 133, 101, 187, 70, 1, 0.232389
48, 1, wb, attraction, a-b-da, 2, 1, 4, 17, 135, 60, 134, 59, 60, 135, 2, 0.876768
48, 1, wb, attraction, a-b-da, 2, 1, 4, 17, 135, 60, 134, 59, 60, 135, 1, 0.288586
48, 1, wb, filler, NA, 999, 999, 4, 18, 183, 82, 165, 118, 175, 67, 3, 1.67507
48, 1, wb, filler, NA, 999, 999, 4, 18, 183, 82, 165, 118, 175, 67, 2, 0.254525
48, 1, wb, attraction, a-b-da, 9, 1, 4, 19, 135, 60, 60, 135, 129, 57, 3, 1.23426
48, 1, wb, attraction, a-b-da, 9, 1, 4, 19, 135, 60, 60, 135, 129, 57, 1, 0.407885
48, 1, wb, attraction, a-b-db, 14, 2, 4, 20, 90, 165, 165, 90, 83, 153, 3, 1.04503
48, 1, wb, attraction, a-b-db, 14, 2, 4, 20, 90, 165, 165, 90, 83, 153, 1, 0.298009
48, 1, wb, catch, NA, 999, 999, 4, 21, 151, 164, 123, 132, 135, 60, 3, 0.611807
48, 1, wb, catch, NA, 999, 999, 4, 21, 151, 164, 123, 132, 135, 60, 1, 0.314264
48, 1, wb, filler, NA, 999, 999, 4, 22, 114, 89, 175, 94, 144, 80, 1, 1.22752
48, 1, wb, filler, NA, 999, 999, 4, 22, 114, 89, 175, 94, 144, 80, 2, 0.241088
48, 1, wb, filler, NA, 999, 999, 4, 23, 180, 102, 110, 115, 144, 183, 1, 1.11695
48, 1, wb, filler, NA, 999, 999, 4, 23, 180, 102, 110, 115, 144, 183, 3, 0.327271
48, 1, wb, attraction, a-b-da, 5, 3, 4, 24, 190, 117, 120, 195, 195, 120, 1, 1.74386
48, 1, wb, attraction, a-b-da, 5, 3, 4, 24, 190, 117, 120, 195, 195, 120, 2, 0.552633
48, 1, wb, attraction, a-b-da, 5, 2, 4, 25, 165, 90, 90, 165, 161, 88, 3, 1.45623
48, 1, wb, attraction, a-b-da, 5, 2, 4, 25, 165, 90, 90, 165, 161, 88, 1, 0.452399
48, 1, wb, filler, NA, 999, 999, 4, 26, 176, 57, 95, 162, 167, 60, 1, 1.87226
48, 1, wb, filler, NA, 999, 999, 4, 26, 176, 57, 95, 162, 167, 60, 2, 0.315626
48, 1, wb, filler, NA, 999, 999, 4, 27, 130, 184, 91, 135, 188, 101, 2, 2.90075
48, 1, wb, filler, NA, 999, 999, 4, 27, 130, 184, 91, 135, 188, 101, 1, 0.27121
48, 1, wb, attraction, a-b-db, 2, 1, 4, 28, 60, 135, 59, 134, 135, 60, 1, 0.954379
48, 1, wb, attraction, a-b-db, 2, 1, 4, 28, 60, 135, 59, 134, 135, 60, 2, 0.251395
48, 1, wb, attraction, a-b-da, 9, 2, 4, 29, 157, 86, 165, 90, 90, 165, 1, 0.559267
48, 1, wb, attraction, a-b-da, 9, 2, 4, 29, 157, 86, 165, 90, 90, 165, 2, 0.191739
48, 1, wb, attraction, a-b-db, 5, 1, 4, 30, 135, 60, 60, 135, 58, 132, 1, 0.525558
48, 1, wb, attraction, a-b-db, 5, 1, 4, 30, 135, 60, 60, 135, 58, 132, 2, 0.223464
48, 1, wb, filler, NA, 999, 999, 4, 31, 78, 127, 94, 164, 122, 103, 1, 1.04398
48, 1, wb, filler, NA, 999, 999, 4, 31, 78, 127, 94, 164, 122, 103, 2, 0.384974
48, 1, wb, catch, NA, 999, 999, 4, 32, 158, 97, 110, 85, 174, 141, 1, 0.863419
48, 1, wb, catch, NA, 999, 999, 4, 32, 158, 97, 110, 85, 174, 141, 3, 0.475904
48, 1, wb, attraction, a-b-db, 5, 3, 4, 33, 117, 190, 120, 195, 195, 120, 3, 4.7023
48, 1, wb, attraction, a-b-db, 5, 3, 4, 33, 117, 190, 120, 195, 195, 120, 2, 0.248152
48, 1, wb, attraction, a-b-db, 9, 3, 4, 34, 195, 120, 114, 186, 120, 195, 1, 9.7
48, 1, wb, attraction, a-b-db, 9, 3, 4, 34, 195, 120, 114, 186, 120, 195, 3, 0.308303
48, 1, wb, attraction, a-b-da, 5, 1, 4, 35, 60, 135, 132, 58, 135, 60, 3, 2.40546
48, 1, wb, attraction, a-b-da, 5, 1, 4, 35, 60, 135, 132, 58, 135, 60, 1, 0.547249
48, 1, wb, attraction, a-b-db, 9, 2, 4, 36, 90, 165, 165, 90, 86, 157, 2, 2.39511
48, 1, wb, attraction, a-b-db, 9, 2, 4, 36, 90, 165, 165, 90, 86, 157, 1, 0.257614
48, 1, wb, attraction, a-b-db, 5, 2, 4, 37, 90, 165, 88, 161, 165, 90, 3, 8.26879
48, 1, wb, attraction, a-b-db, 5, 2, 4, 37, 90, 165, 88, 161, 165, 90, 1, 0.414925
48, 1, wb, filler, NA, 999, 999, 5, 1, 84, 129, 64, 134, 76, 141, 2, 1.75473
48, 1, wb, filler, NA, 999, 999, 5, 1, 84, 129, 64, 134, 76, 141, 1, 0.323544
48, 1, wb, attraction, a-b-da, 5, 1, 5, 2, 60, 135, 132, 58, 135, 60, 2, 2.05203
48, 1, wb, attraction, a-b-da, 5, 1, 5, 2, 60, 135, 132, 58, 135, 60, 1, 0.528556
48, 1, wb, attraction, a-b-da, 14, 2, 5, 3, 153, 83, 165, 90, 90, 165, 1, 1.31314
48, 1, wb, attraction, a-b-da, 14, 2, 5, 3, 153, 83, 165, 90, 90, 165, 2, 0.299243
48, 1, wb, attraction, a-b-db, 9, 1, 5, 4, 135, 60, 60, 135, 57, 129, 3, 2.29318
48, 1, wb, attraction, a-b-db, 9, 1, 5, 4, 135, 60, 60, 135, 57, 129, 1, 1.3278
48, 1, wb, filler, NA, 999, 999, 5, 5, 136, 87, 152, 107, 74, 65, 3, 1.43192
48, 1, wb, filler, NA, 999, 999, 5, 5, 136, 87, 152, 107, 74, 65, 2, 0.285422
48, 1, wb, attraction, a-b-da, 5, 2, 5, 6, 161, 88, 90, 165, 165, 90, 1, 3.24004
48, 1, wb, attraction, a-b-da, 5, 2, 5, 6, 161, 88, 90, 165, 165, 90, 2, 0.268336
48, 1, wb, attraction, a-b-da, 14, 3, 5, 7, 120, 195, 195, 120, 181, 111, 3, 1.9195
48, 1, wb, attraction, a-b-da, 14, 3, 5, 7, 120, 195, 195, 120, 181, 111, 1, 0.289413
48, 1, wb, attraction, a-b-da, 2, 1, 5, 8, 135, 60, 134, 59, 60, 135, 2, 2.57199
48, 1, wb, attraction, a-b-da, 2, 1, 5, 8, 135, 60, 134, 59, 60, 135, 3, 0.355143
48, 1, wb, attraction, a-b-da, 5, 3, 5, 9, 190, 117, 195, 120, 120, 195, 2, 2.58702
48, 1, wb, attraction, a-b-da, 5, 3, 5, 9, 190, 117, 195, 120, 120, 195, 3, 0.29013
48, 1, wb, attraction, a-b-db, 9, 2, 5, 10, 86, 157, 90, 165, 165, 90, 3, 2.50795
48, 1, wb, attraction, a-b-db, 9, 2, 5, 10, 86, 157, 90, 165, 165, 90, 2, 0.285933
48, 1, wb, attraction, a-b-db, 9, 3, 5, 11, 195, 120, 120, 195, 114, 186, 3, 8.23251
48, 1, wb, attraction, a-b-db, 9, 3, 5, 11, 195, 120, 120, 195, 114, 186, 1, 0.579983
48, 1, wb, filler, NA, 999, 999, 5, 12, 124, 161, 134, 101, 90, 123, 2, 2.26616
48, 1, wb, filler, NA, 999, 999, 5, 12, 124, 161, 134, 101, 90, 123, 1, 0.926305
48, 1, wb, attraction, a-b-db, 5, 2, 5, 13, 90, 165, 88, 161, 165, 90, 3, 2.83848
48, 1, wb, attraction, a-b-db, 5, 2, 5, 13, 90, 165, 88, 161, 165, 90, 1, 0.403516
48, 1, wb, attraction, a-b-db, 14, 3, 5, 14, 120, 195, 195, 120, 111, 181, 3, 2.52935
48, 1, wb, attraction, a-b-db, 14, 3, 5, 14, 120, 195, 195, 120, 111, 181, 1, 0.426518
48, 1, wb, attraction, a-b-da, 2, 3, 5, 15, 120, 195, 193, 119, 195, 120, 2, 4.83904
48, 1, wb, attraction, a-b-da, 2, 3, 5, 15, 120, 195, 193, 119, 195, 120, 1, 0.411416
48, 1, wb, filler, NA, 999, 999, 5, 16, 191, 82, 91, 154, 139, 160, 1, 9.40863
48, 1, wb, filler, NA, 999, 999, 5, 16, 191, 82, 91, 154, 139, 160, 3, 0.340396
48, 1, wb, attraction, a-b-db, 2, 1, 5, 17, 60, 135, 59, 134, 135, 60, 1, 4.5161
48, 1, wb, attraction, a-b-db, 2, 1, 5, 17, 60, 135, 59, 134, 135, 60, 3, 0.877339
48, 1, wb, catch, NA, 999, 999, 5, 18, 146, 109, 78, 117, 194, 121, 2, 2.19168
48, 1, wb, catch, NA, 999, 999, 5, 18, 146, 109, 78, 117, 194, 121, 3, 0.318348
48, 1, wb, filler, NA, 999, 999, 5, 19, 84, 81, 149, 59, 65, 175, 1, 1.99948
48, 1, wb, filler, NA, 999, 999, 5, 19, 84, 81, 149, 59, 65, 175, 3, 0.350228
48, 1, wb, attraction, a-b-da, 14, 1, 5, 20, 125, 56, 135, 60, 60, 135, 1, 1.76597
48, 1, wb, attraction, a-b-da, 14, 1, 5, 20, 125, 56, 135, 60, 60, 135, 2, 0.372704
48, 1, wb, attraction, a-b-db, 2, 3, 5, 21, 119, 193, 195, 120, 120, 195, 2, 5.81331
48, 1, wb, attraction, a-b-db, 2, 3, 5, 21, 119, 193, 195, 120, 120, 195, 3, 0.338119
48, 1, wb, attraction, a-b-da, 9, 3, 5, 22, 120, 195, 195, 120, 186, 114, 3, 5.22664
48, 1, wb, attraction, a-b-da, 9, 3, 5, 22, 120, 195, 195, 120, 186, 114, 1, 0.967227
48, 1, wb, catch, NA, 999, 999, 5, 23, 159, 156, 145, 110, 112, 83, 3, 0.973972
48, 1, wb, catch, NA, 999, 999, 5, 23, 159, 156, 145, 110, 112, 83, 1, 0.381702
48, 1, wb, filler, NA, 999, 999, 5, 24, 95, 82, 158, 67, 141, 133, 1, 1.25212
48, 1, wb, filler, NA, 999, 999, 5, 24, 95, 82, 158, 67, 141, 133, 3, 0.360909
48, 1, wb, filler, NA, 999, 999, 5, 25, 187, 168, 136, 94, 184, 188, 2, 1.08823
48, 1, wb, filler, NA, 999, 999, 5, 25, 187, 168, 136, 94, 184, 188, 3, 0.963227
48, 1, wb, attraction, a-b-da, 9, 1, 5, 26, 60, 135, 129, 57, 135, 60, 2, 3.67411
48, 1, wb, attraction, a-b-da, 9, 1, 5, 26, 60, 135, 129, 57, 135, 60, 1, 0.372914
48, 1, wb, attraction, a-b-db, 14, 1, 5, 27, 135, 60, 56, 125, 60, 135, 2, 1.74032
48, 1, wb, attraction, a-b-db, 14, 1, 5, 27, 135, 60, 56, 125, 60, 135, 1, 0.412764
48, 1, wb, catch, NA, 999, 999, 5, 28, 84, 111, 193, 122, 144, 111, 1, 1.16998
48, 1, wb, catch, NA, 999, 999, 5, 28, 84, 111, 193, 122, 144, 111, 2, 0.314257
48, 1, wb, attraction, a-b-db, 2, 2, 5, 29, 165, 90, 89, 163, 90, 165, 1, 7.33951
48, 1, wb, attraction, a-b-db, 2, 2, 5, 29, 165, 90, 89, 163, 90, 165, 2, 0.267165
48, 1, wb, attraction, a-b-da, 2, 2, 5, 30, 90, 165, 165, 90, 163, 89, 2, 3.25443
48, 1, wb, attraction, a-b-da, 2, 2, 5, 30, 90, 165, 165, 90, 163, 89, 1, 0.282557
48, 1, wb, attraction, a-b-db, 14, 2, 5, 31, 165, 90, 90, 165, 83, 153, 1, 4.70914
48, 1, wb, attraction, a-b-db, 14, 2, 5, 31, 165, 90, 90, 165, 83, 153, 3, 0.406426
48, 1, wb, filler, NA, 999, 999, 5, 32, 127, 92, 165, 183, 122, 93, 3, 2.82019
48, 1, wb, filler, NA, 999, 999, 5, 32, 127, 92, 165, 183, 122, 93, 2, 0.281891
48, 1, wb, attraction, a-b-db, 5, 1, 5, 33, 60, 135, 58, 132, 135, 60, 3, 4.22053
48, 1, wb, attraction, a-b-db, 5, 1, 5, 33, 60, 135, 58, 132, 135, 60, 2, 0.689792
48, 1, wb, filler, NA, 999, 999, 5, 34, 69, 145, 56, 164, 141, 93, 2, 8.13209
48, 1, wb, filler, NA, 999, 999, 5, 34, 69, 145, 56, 164, 141, 93, 3, 0.315672
48, 1, wb, attraction, a-b-da, 9, 2, 5, 35, 165, 90, 90, 165, 157, 86, 3, 2.45282
48, 1, wb, attraction, a-b-da, 9, 2, 5, 35, 165, 90, 90, 165, 157, 86, 2, 0.265213
48, 1, wb, filler, NA, 999, 999, 5, 36, 158, 145, 162, 136, 113, 122, 3, 1.64443
48, 1, wb, filler, NA, 999, 999, 5, 36, 158, 145, 162, 136, 113, 122, 1, 0.417336
48, 1, wb, attraction, a-b-db, 5, 3, 5, 37, 120, 195, 117, 190, 195, 120, 3, 3.15056
48, 1, wb, attraction, a-b-db, 5, 3, 5, 37, 120, 195, 117, 190, 195, 120, 1, 0.526795
48, 1, wb, filler, NA, 999, 999, 6, 1, 138, 134, 187, 75, 169, 183, 2, 5.85516
48, 1, wb, filler, NA, 999, 999, 6, 1, 138, 134, 187, 75, 169, 183, 3, 0.362811
48, 1, wb, catch, NA, 999, 999, 6, 2, 112, 83, 101, 154, 121, 194, 1, 5.4818
48, 1, wb, catch, NA, 999, 999, 6, 2, 112, 83, 101, 154, 121, 194, 3, 0.396088
48, 1, wb, attraction, a-b-da, 9, 3, 6, 3, 120, 195, 186, 114, 195, 120, 2, 7.90609
48, 1, wb, attraction, a-b-da, 9, 3, 6, 3, 120, 195, 186, 114, 195, 120, 1, 0.32274
48, 1, wb, attraction, a-b-db, 9, 3, 6, 4, 195, 120, 114, 186, 120, 195, 1, 5.06007
48, 1, wb, attraction, a-b-db, 9, 3, 6, 4, 195, 120, 114, 186, 120, 195, 2, 0.76699
48, 1, wb, filler, NA, 999, 999, 6, 5, 144, 181, 90, 178, 57, 193, 3, 1.26205
48, 1, wb, filler, NA, 999, 999, 6, 5, 144, 181, 90, 178, 57, 193, 1, 0.402264
48, 1, wb, attraction, a-b-da, 5, 3, 6, 6, 120, 195, 195, 120, 190, 117, 3, 2.70409
48, 1, wb, attraction, a-b-da, 5, 3, 6, 6, 120, 195, 195, 120, 190, 117, 1, 0.346588
48, 1, wb, attraction, a-b-db, 5, 3, 6, 7, 120, 195, 195, 120, 117, 190, 2, 2.78637
48, 1, wb, attraction, a-b-db, 5, 3, 6, 7, 120, 195, 195, 120, 117, 190, 1, 0.361539
48, 1, wb, attraction, a-b-db, 2, 2, 6, 8, 90, 165, 89, 163, 165, 90, 1, 2.36869
48, 1, wb, attraction, a-b-db, 2, 2, 6, 8, 90, 165, 89, 163, 165, 90, 3, 0.584553
48, 1, wb, attraction, a-b-db, 14, 2, 6, 9, 83, 153, 90, 165, 165, 90, 3, 4.91905
48, 1, wb, attraction, a-b-db, 14, 2, 6, 9, 83, 153, 90, 165, 165, 90, 2, 0.437814
48, 1, wb, attraction, a-b-da, 14, 3, 6, 10, 181, 111, 120, 195, 195, 120, 1, 1.10854
48, 1, wb, attraction, a-b-da, 14, 3, 6, 10, 181, 111, 120, 195, 195, 120, 2, 0.374806
48, 1, wb, filler, NA, 999, 999, 6, 11, 150, 133, 63, 64, 114, 172, 2, 0.99725
48, 1, wb, filler, NA, 999, 999, 6, 11, 150, 133, 63, 64, 114, 172, 1, 0.300296
48, 1, wb, attraction, a-b-db, 5, 2, 6, 12, 90, 165, 165, 90, 88, 161, 2, 5.43815
48, 1, wb, attraction, a-b-db, 5, 2, 6, 12, 90, 165, 165, 90, 88, 161, 1, 0.410471
48, 1, wb, attraction, a-b-db, 14, 3, 6, 13, 111, 181, 120, 195, 195, 120, 3, 3.02362
48, 1, wb, attraction, a-b-db, 14, 3, 6, 13, 111, 181, 120, 195, 195, 120, 2, 0.54865
48, 1, wb, attraction, a-b-da, 2, 3, 6, 14, 193, 119, 120, 195, 195, 120, 1, 4.90837
48, 1, wb, attraction, a-b-da, 2, 3, 6, 14, 193, 119, 120, 195, 195, 120, 2, 0.325498
48, 1, wb, catch, NA, 999, 999, 6, 15, 82, 113, 176, 139, 136, 119, 1, 2.97389
48, 1, wb, catch, NA, 999, 999, 6, 15, 82, 113, 176, 139, 136, 119, 2, 0.32498
48, 1, wb, attraction, a-b-db, 2, 1, 6, 16, 60, 135, 135, 60, 59, 134, 2, 2.34166
48, 1, wb, attraction, a-b-db, 2, 1, 6, 16, 60, 135, 135, 60, 59, 134, 1, 0.462036
48, 1, wb, attraction, a-b-da, 14, 2, 6, 17, 165, 90, 90, 165, 153, 83, 3, 1.64119
48, 1, wb, attraction, a-b-da, 14, 2, 6, 17, 165, 90, 90, 165, 153, 83, 2, 0.326045
48, 1, wb, attraction, a-b-da, 14, 1, 6, 18, 60, 135, 135, 60, 125, 56, 3, 2.68658
48, 1, wb, attraction, a-b-da, 14, 1, 6, 18, 60, 135, 135, 60, 125, 56, 1, 0.553711
48, 1, wb, attraction, a-b-db, 9, 1, 6, 19, 57, 129, 135, 60, 60, 135, 2, 2.67345
48, 1, wb, attraction, a-b-db, 9, 1, 6, 19, 57, 129, 135, 60, 60, 135, 3, 0.380622
48, 1, wb, filler, NA, 999, 999, 6, 20, 87, 175, 81, 115, 138, 149, 2, 1.17909
48, 1, wb, filler, NA, 999, 999, 6, 20, 87, 175, 81, 115, 138, 149, 3, 0.330651
48, 1, wb, attraction, a-b-da, 9, 1, 6, 21, 135, 60, 60, 135, 129, 57, 3, 2.77916
48, 1, wb, attraction, a-b-da, 9, 1, 6, 21, 135, 60, 60, 135, 129, 57, 1, 0.730337
48, 1, wb, attraction, a-b-db, 9, 2, 6, 22, 165, 90, 90, 165, 86, 157, 1, 2.32275
48, 1, wb, attraction, a-b-db, 9, 2, 6, 22, 165, 90, 90, 165, 86, 157, 3, 0.77189
48, 1, wb, attraction, a-b-da, 2, 2, 6, 23, 163, 89, 165, 90, 90, 165, 2, 1.83494
48, 1, wb, attraction, a-b-da, 2, 2, 6, 23, 163, 89, 165, 90, 90, 165, 3, 0.288381
48, 1, wb, attraction, a-b-da, 5, 2, 6, 24, 90, 165, 161, 88, 165, 90, 2, 3.19489
48, 1, wb, attraction, a-b-da, 5, 2, 6, 24, 90, 165, 161, 88, 165, 90, 1, 0.393183
48, 1, wb, catch, NA, 999, 999, 6, 25, 139, 116, 96, 99, 189, 126, 2, 0.79909
48, 1, wb, catch, NA, 999, 999, 6, 25, 139, 116, 96, 99, 189, 126, 3, 0.286116
48, 1, wb, attraction, a-b-da, 2, 1, 6, 26, 135, 60, 134, 59, 60, 135, 3, 3.04859
48, 1, wb, attraction, a-b-da, 2, 1, 6, 26, 135, 60, 134, 59, 60, 135, 1, 0.636933
48, 1, wb, filler, NA, 999, 999, 6, 27, 60, 128, 160, 140, 119, 72, 1, 0.95329
48, 1, wb, filler, NA, 999, 999, 6, 27, 60, 128, 160, 140, 119, 72, 2, 0.274362
48, 1, wb, filler, NA, 999, 999, 6, 28, 161, 172, 115, 161, 103, 135, 3, 0.852848
48, 1, wb, filler, NA, 999, 999, 6, 28, 161, 172, 115, 161, 103, 135, 1, 0.38592
48, 1, wb, attraction, a-b-db, 5, 1, 6, 29, 135, 60, 58, 132, 60, 135, 1, 2.52041
48, 1, wb, attraction, a-b-db, 5, 1, 6, 29, 135, 60, 58, 132, 60, 135, 3, 0.730311
48, 1, wb, attraction, a-b-db, 2, 3, 6, 30, 119, 193, 195, 120, 120, 195, 2, 2.36266
48, 1, wb, attraction, a-b-db, 2, 3, 6, 30, 119, 193, 195, 120, 120, 195, 1, 0.274467
48, 1, wb, attraction, a-b-da, 5, 1, 6, 31, 135, 60, 132, 58, 60, 135, 1, 1.30118
48, 1, wb, attraction, a-b-da, 5, 1, 6, 31, 135, 60, 132, 58, 60, 135, 2, 0.304001
48, 1, wb, filler, NA, 999, 999, 6, 32, 71, 100, 111, 159, 131, 192, 1, 0.713755
48, 1, wb, filler, NA, 999, 999, 6, 32, 71, 100, 111, 159, 131, 192, 3, 0.476409
48, 1, wb, filler, NA, 999, 999, 6, 33, 87, 178, 57, 193, 72, 71, 3, 1.02659
48, 1, wb, filler, NA, 999, 999, 6, 33, 87, 178, 57, 193, 72, 71, 1, 0.284392
48, 1, wb, filler, NA, 999, 999, 6, 34, 74, 116, 86, 64, 58, 168, 2, 4.03095
48, 1, wb, filler, NA, 999, 999, 6, 34, 74, 116, 86, 64, 58, 168, 3, 1.13164
48, 1, wb, filler, NA, 999, 999, 6, 35, 153, 64, 134, 184, 139, 125, 1, 1.56384
48, 1, wb, filler, NA, 999, 999, 6, 35, 153, 64, 134, 184, 139, 125, 2, 0.388116
48, 1, wb, attraction, a-b-da, 9, 2, 6, 36, 165, 90, 90, 165, 157, 86, 3, 3.06641
48, 1, wb, attraction, a-b-da, 9, 2, 6, 36, 165, 90, 90, 165, 157, 86, 2, 0.358196
48, 1, wb, attraction, a-b-db, 14, 1, 6, 37, 135, 60, 60, 135, 56, 125, 3, 2.48528
48, 1, wb, attraction, a-b-db, 14, 1, 6, 37, 135, 60, 60, 135, 56, 125, 2, 0.296474
48, 1, wb, filler, NA, 999, 999, 7, 1, 91, 89, 59, 153, 170, 181, 1, 0.778419
48, 1, wb, filler, NA, 999, 999, 7, 1, 91, 89, 59, 153, 170, 181, 3, 0.282094
48, 1, wb, catch, NA, 999, 999, 7, 2, 159, 156, 132, 63, 148, 107, 2, 1.70059
48, 1, wb, catch, NA, 999, 999, 7, 2, 159, 156, 132, 63, 148, 107, 1, 0.263511
48, 1, wb, filler, NA, 999, 999, 7, 3, 75, 81, 163, 149, 189, 130, 1, 1.19463
48, 1, wb, filler, NA, 999, 999, 7, 3, 75, 81, 163, 149, 189, 130, 2, 0.369466
48, 1, wb, attraction, a-b-db, 5, 3, 7, 4, 117, 190, 120, 195, 195, 120, 3, 9.22463
48, 1, wb, attraction, a-b-db, 5, 3, 7, 4, 117, 190, 120, 195, 195, 120, 2, 0.251778
48, 1, wb, filler, NA, 999, 999, 7, 5, 191, 177, 181, 77, 115, 74, 3, 1.59971
48, 1, wb, filler, NA, 999, 999, 7, 5, 191, 177, 181, 77, 115, 74, 1, 0.350422
48, 1, wb, attraction, a-b-db, 14, 1, 7, 6, 135, 60, 60, 135, 56, 125, 1, 0.902329
48, 1, wb, attraction, a-b-db, 14, 1, 7, 6, 135, 60, 60, 135, 56, 125, 2, 0.417345
48, 1, wb, filler, NA, 999, 999, 7, 7, 145, 140, 111, 97, 184, 145, 2, 1.06246
48, 1, wb, filler, NA, 999, 999, 7, 7, 145, 140, 111, 97, 184, 145, 3, 0.266723
48, 1, wb, attraction, a-b-db, 14, 3, 7, 8, 111, 181, 195, 120, 120, 195, 1, 2.334
48, 1, wb, attraction, a-b-db, 14, 3, 7, 8, 111, 181, 195, 120, 120, 195, 3, 0.287194
48, 1, wb, attraction, a-b-da, 2, 2, 7, 9, 163, 89, 165, 90, 90, 165, 2, 2.75375
48, 1, wb, attraction, a-b-da, 2, 2, 7, 9, 163, 89, 165, 90, 90, 165, 3, 0.410145
48, 1, wb, attraction, a-b-da, 5, 1, 7, 10, 132, 58, 135, 60, 60, 135, 1, 1.92737
48, 1, wb, attraction, a-b-da, 5, 1, 7, 10, 132, 58, 135, 60, 60, 135, 3, 0.408696
48, 1, wb, attraction, a-b-db, 2, 2, 7, 11, 90, 165, 89, 163, 165, 90, 3, 3.08579
48, 1, wb, attraction, a-b-db, 2, 2, 7, 11, 90, 165, 89, 163, 165, 90, 2, 0.400796
48, 1, wb, filler, NA, 999, 999, 7, 12, 99, 73, 119, 90, 88, 160, 1, 0.742632
48, 1, wb, filler, NA, 999, 999, 7, 12, 99, 73, 119, 90, 88, 160, 3, 0.83973
48, 1, wb, attraction, a-b-db, 9, 3, 7, 13, 120, 195, 195, 120, 114, 186, 3, 1.97201
48, 1, wb, attraction, a-b-db, 9, 3, 7, 13, 120, 195, 195, 120, 114, 186, 1, 0.355354
48, 1, wb, attraction, a-b-db, 9, 1, 7, 14, 135, 60, 57, 129, 60, 135, 1, 5.58718
48, 1, wb, attraction, a-b-db, 9, 1, 7, 14, 135, 60, 57, 129, 60, 135, 3, 0.441441
48, 1, wb, attraction, a-b-db, 14, 2, 7, 15, 83, 153, 90, 165, 165, 90, 3, 3.02126
48, 1, wb, attraction, a-b-db, 14, 2, 7, 15, 83, 153, 90, 165, 165, 90, 2, 0.746979
48, 1, wb, attraction, a-b-da, 5, 3, 7, 16, 190, 117, 195, 120, 120, 195, 1, 5.6427
48, 1, wb, attraction, a-b-da, 5, 3, 7, 16, 190, 117, 195, 120, 120, 195, 3, 1.51819
48, 1, wb, attraction, a-b-da, 9, 1, 7, 17, 135, 60, 60, 135, 129, 57, 3, 3.67903
48, 1, wb, attraction, a-b-da, 9, 1, 7, 17, 135, 60, 60, 135, 129, 57, 2, 0.457762
48, 1, wb, catch, NA, 999, 999, 7, 18, 139, 176, 128, 67, 164, 91, 2, 1.79693
48, 1, wb, catch, NA, 999, 999, 7, 18, 139, 176, 128, 67, 164, 91, 1, 0.379729
48, 1, wb, attraction, a-b-db, 2, 1, 7, 19, 59, 134, 135, 60, 60, 135, 2, 4.63424
48, 1, wb, attraction, a-b-db, 2, 1, 7, 19, 59, 134, 135, 60, 60, 135, 3, 0.454694
48, 1, wb, catch, NA, 999, 999, 7, 20, 99, 156, 80, 115, 179, 136, 2, 1.03456
48, 1, wb, catch, NA, 999, 999, 7, 20, 99, 156, 80, 115, 179, 136, 3, 0.336152
48, 1, wb, filler, NA, 999, 999, 7, 21, 59, 116, 144, 185, 122, 168, 1, 0.648799
48, 1, wb, filler, NA, 999, 999, 7, 21, 59, 116, 144, 185, 122, 168, 2, 0.285757
48, 1, wb, attraction, a-b-da, 5, 2, 7, 22, 90, 165, 161, 88, 165, 90, 2, 1.67231
48, 1, wb, attraction, a-b-da, 5, 2, 7, 22, 90, 165, 161, 88, 165, 90, 1, 0.435693
48, 1, wb, filler, NA, 999, 999, 7, 23, 56, 56, 168, 104, 163, 166, 1, 0.680253
48, 1, wb, filler, NA, 999, 999, 7, 23, 56, 56, 168, 104, 163, 166, 3, 1.00398
48, 1, wb, filler, NA, 999, 999, 7, 24, 58, 89, 132, 109, 108, 69, 1, 1.80168
48, 1, wb, filler, NA, 999, 999, 7, 24, 58, 89, 132, 109, 108, 69, 2, 0.408408
48, 1, wb, filler, NA, 999, 999, 7, 25, 106, 164, 97, 103, 87, 79, 3, 0.813622
48, 1, wb, filler, NA, 999, 999, 7, 25, 106, 164, 97, 103, 87, 79, 1, 0.355869
48, 1, wb, filler, NA, 999, 999, 7, 26, 87, 122, 101, 159, 79, 190, 1, 6.85165
48, 1, wb, filler, NA, 999, 999, 7, 26, 87, 122, 101, 159, 79, 190, 3, 1.01491
48, 1, wb, attraction, a-b-db, 2, 3, 7, 27, 119, 193, 120, 195, 195, 120, 3, 7.2599
48, 1, wb, attraction, a-b-db, 2, 3, 7, 27, 119, 193, 120, 195, 195, 120, 2, 0.502201
48, 1, wb, attraction, a-b-db, 9, 2, 7, 28, 165, 90, 90, 165, 86, 157, 3, 2.11203
48, 1, wb, attraction, a-b-db, 9, 2, 7, 28, 165, 90, 90, 165, 86, 157, 1, 0.465958
48, 1, wb, attraction, a-b-da, 9, 2, 7, 29, 157, 86, 165, 90, 90, 165, 2, 3.59709
48, 1, wb, attraction, a-b-da, 9, 2, 7, 29, 157, 86, 165, 90, 90, 165, 3, 0.555341
48, 1, wb, attraction, a-b-da, 2, 3, 7, 30, 193, 119, 195, 120, 120, 195, 2, 7.29108
48, 1, wb, attraction, a-b-da, 2, 3, 7, 30, 193, 119, 195, 120, 120, 195, 3, 0.340136
48, 1, wb, attraction, a-b-da, 14, 2, 7, 31, 90, 165, 153, 83, 165, 90, 2, 2.11605
48, 1, wb, attraction, a-b-da, 14, 2, 7, 31, 90, 165, 153, 83, 165, 90, 1, 4.86988
48, 1, wb, attraction, a-b-db, 5, 1, 7, 32, 135, 60, 60, 135, 58, 132, 1, 2.79167
48, 1, wb, attraction, a-b-db, 5, 1, 7, 32, 135, 60, 60, 135, 58, 132, 2, 0.278135
48, 1, wb, attraction, a-b-db, 5, 2, 7, 33, 165, 90, 90, 165, 88, 161, 1, 1.23263
48, 1, wb, attraction, a-b-db, 5, 2, 7, 33, 165, 90, 90, 165, 88, 161, 2, 0.278203
48, 1, wb, attraction, a-b-da, 9, 3, 7, 34, 195, 120, 186, 114, 120, 195, 2, 2.3608
48, 1, wb, attraction, a-b-da, 9, 3, 7, 34, 195, 120, 186, 114, 120, 195, 1, 1.83258
48, 1, wb, attraction, a-b-da, 14, 3, 7, 35, 120, 195, 195, 120, 181, 111, 2, 6.03663
48, 1, wb, attraction, a-b-da, 14, 3, 7, 35, 120, 195, 195, 120, 181, 111, 1, 0.384746
48, 1, wb, attraction, a-b-da, 14, 1, 7, 36, 60, 135, 125, 56, 135, 60, 2, 1.03931
48, 1, wb, attraction, a-b-da, 14, 1, 7, 36, 60, 135, 125, 56, 135, 60, 1, 0.732273
48, 1, wb, attraction, a-b-da, 2, 1, 7, 37, 134, 59, 135, 60, 60, 135, 1, 7.74061
48, 1, wb, attraction, a-b-da, 2, 1, 7, 37, 134, 59, 135, 60, 60, 135, 3, 0.459431
48, 1, wb, attraction, a-b-da, 2, 1, 8, 1, 134, 59, 135, 60, 60, 135, 1, 2.56657
48, 1, wb, attraction, a-b-da, 2, 1, 8, 1, 134, 59, 135, 60, 60, 135, 3, 0.318514
48, 1, wb, filler, NA, 999, 999, 8, 2, 89, 183, 57, 100, 166, 163, 2, 1.15979
48, 1, wb, filler, NA, 999, 999, 8, 2, 89, 183, 57, 100, 166, 163, 3, 0.287896
48, 1, wb, attraction, a-b-da, 14, 1, 8, 3, 60, 135, 135, 60, 125, 56, 3, 3.05844
48, 1, wb, attraction, a-b-da, 14, 1, 8, 3, 60, 135, 135, 60, 125, 56, 1, 0.422094
48, 1, wb, catch, NA, 999, 999, 8, 4, 87, 108, 172, 143, 95, 160, 1, 1.01925
48, 1, wb, catch, NA, 999, 999, 8, 4, 87, 108, 172, 143, 95, 160, 2, 0.273679
48, 1, wb, filler, NA, 999, 999, 8, 5, 92, 187, 122, 169, 116, 135, 3, 4.29217
48, 1, wb, filler, NA, 999, 999, 8, 5, 92, 187, 122, 169, 116, 135, 2, 0.422167
48, 1, wb, attraction, a-b-da, 9, 1, 8, 6, 129, 57, 135, 60, 60, 135, 1, 1.89916
48, 1, wb, attraction, a-b-da, 9, 1, 8, 6, 129, 57, 135, 60, 60, 135, 3, 0.437968
48, 1, wb, attraction, a-b-db, 5, 1, 8, 7, 58, 132, 60, 135, 135, 60, 3, 4.07436
48, 1, wb, attraction, a-b-db, 5, 1, 8, 7, 58, 132, 60, 135, 135, 60, 1, 0.349082
48, 1, wb, attraction, a-b-da, 2, 3, 8, 8, 195, 120, 120, 195, 193, 119, 1, 1.69298
48, 1, wb, attraction, a-b-da, 2, 3, 8, 8, 195, 120, 120, 195, 193, 119, 2, 0.255692
48, 1, wb, attraction, a-b-da, 2, 2, 8, 9, 90, 165, 165, 90, 163, 89, 3, 2.78775
48, 1, wb, attraction, a-b-da, 2, 2, 8, 9, 90, 165, 165, 90, 163, 89, 1, 0.27462
48, 1, wb, filler, NA, 999, 999, 8, 10, 104, 125, 176, 136, 161, 144, 1, 0.77318
48, 1, wb, filler, NA, 999, 999, 8, 10, 104, 125, 176, 136, 161, 144, 2, 0.349051
48, 1, wb, attraction, a-b-da, 9, 2, 8, 11, 90, 165, 157, 86, 165, 90, 2, 1.7888
48, 1, wb, attraction, a-b-da, 9, 2, 8, 11, 90, 165, 157, 86, 165, 90, 1, 0.26751
48, 1, wb, attraction, a-b-da, 5, 1, 8, 12, 60, 135, 135, 60, 132, 58, 2, 2.69471
48, 1, wb, attraction, a-b-da, 5, 1, 8, 12, 60, 135, 135, 60, 132, 58, 1, 0.313166
48, 1, wb, attraction, a-b-db, 9, 3, 8, 13, 195, 120, 120, 195, 114, 186, 1, 2.9623
48, 1, wb, attraction, a-b-db, 9, 3, 8, 13, 195, 120, 120, 195, 114, 186, 3, 0.649977
48, 1, wb, attraction, a-b-db, 9, 2, 8, 14, 86, 157, 90, 165, 165, 90, 3, 3.80583
48, 1, wb, attraction, a-b-db, 9, 2, 8, 14, 86, 157, 90, 165, 165, 90, 1, 0.339299
48, 1, wb, catch, NA, 999, 999, 8, 15, 133, 122, 181, 134, 109, 86, 3, 1.45171
48, 1, wb, catch, NA, 999, 999, 8, 15, 133, 122, 181, 134, 109, 86, 2, 0.360613
48, 1, wb, attraction, a-b-db, 14, 2, 8, 16, 83, 153, 90, 165, 165, 90, 3, 4.3917
48, 1, wb, attraction, a-b-db, 14, 2, 8, 16, 83, 153, 90, 165, 165, 90, 2, 0.293651
48, 1, wb, catch, NA, 999, 999, 8, 17, 162, 153, 156, 99, 77, 118, 3, 1.39948
48, 1, wb, catch, NA, 999, 999, 8, 17, 162, 153, 156, 99, 77, 118, 1, 0.382365
48, 1, wb, filler, NA, 999, 999, 8, 18, 173, 90, 151, 128, 74, 130, 3, 1.15693
48, 1, wb, filler, NA, 999, 999, 8, 18, 173, 90, 151, 128, 74, 130, 2, 0.381198
48, 1, wb, filler, NA, 999, 999, 8, 19, 107, 84, 183, 117, 68, 165, 1, 1.31567
48, 1, wb, filler, NA, 999, 999, 8, 19, 107, 84, 183, 117, 68, 165, 2, 0.405887
48, 1, wb, attraction, a-b-da, 9, 3, 8, 20, 186, 114, 195, 120, 120, 195, 1, 2.96368
48, 1, wb, attraction, a-b-da, 9, 3, 8, 20, 186, 114, 195, 120, 120, 195, 3, 0.307395
48, 1, wb, attraction, a-b-db, 2, 1, 8, 21, 135, 60, 60, 135, 59, 134, 2, 3.22066
48, 1, wb, attraction, a-b-db, 2, 1, 8, 21, 135, 60, 60, 135, 59, 134, 3, 0.546275
48, 1, wb, attraction, a-b-da, 14, 3, 8, 22, 120, 195, 195, 120, 181, 111, 3, 5.04204
48, 1, wb, attraction, a-b-da, 14, 3, 8, 22, 120, 195, 195, 120, 181, 111, 1, 0.357711
48, 1, wb, attraction, a-b-db, 14, 3, 8, 23, 111, 181, 195, 120, 120, 195, 2, 4.90094
48, 1, wb, attraction, a-b-db, 14, 3, 8, 23, 111, 181, 195, 120, 120, 195, 3, 0.35871
48, 1, wb, attraction, a-b-da, 5, 2, 8, 24, 90, 165, 161, 88, 165, 90, 3, 1.58994
48, 1, wb, attraction, a-b-da, 5, 2, 8, 24, 90, 165, 161, 88, 165, 90, 2, 0.548646
48, 1, wb, filler, NA, 999, 999, 8, 25, 180, 133, 158, 104, 102, 93, 1, 1.10839
48, 1, wb, filler, NA, 999, 999, 8, 25, 180, 133, 158, 104, 102, 93, 3, 0.561226
48, 1, wb, filler, NA, 999, 999, 8, 26, 64, 129, 108, 86, 165, 152, 1, 2.10977
48, 1, wb, filler, NA, 999, 999, 8, 26, 64, 129, 108, 86, 165, 152, 3, 0.367749
48, 1, wb, attraction, a-b-db, 2, 3, 8, 27, 120, 195, 119, 193, 195, 120, 2, 4.35096
48, 1, wb, attraction, a-b-db, 2, 3, 8, 27, 120, 195, 119, 193, 195, 120, 3, 0.438902
48, 1, wb, attraction, a-b-db, 14, 1, 8, 28, 56, 125, 135, 60, 60, 135, 1, 1.0353
48, 1, wb, attraction, a-b-db, 14, 1, 8, 28, 56, 125, 135, 60, 60, 135, 2, 0.272983
48, 1, wb, attraction, a-b-db, 5, 3, 8, 29, 117, 190, 120, 195, 195, 120, 3, 2.53215
48, 1, wb, attraction, a-b-db, 5, 3, 8, 29, 117, 190, 120, 195, 195, 120, 1, 0.325431
48, 1, wb, filler, NA, 999, 999, 8, 30, 105, 113, 143, 82, 174, 142, 1, 0.877911
48, 1, wb, filler, NA, 999, 999, 8, 30, 105, 113, 143, 82, 174, 142, 3, 0.289782
48, 1, wb, attraction, a-b-da, 14, 2, 8, 31, 165, 90, 90, 165, 153, 83, 3, 1.35551
48, 1, wb, attraction, a-b-da, 14, 2, 8, 31, 165, 90, 90, 165, 153, 83, 2, 0.307683
48, 1, wb, attraction, a-b-db, 9, 1, 8, 32, 60, 135, 57, 129, 135, 60, 3, 1.41285
48, 1, wb, attraction, a-b-db, 9, 1, 8, 32, 60, 135, 57, 129, 135, 60, 2, 0.379139
48, 1, wb, attraction, a-b-db, 2, 2, 8, 33, 89, 163, 90, 165, 165, 90, 3, 1.84951
48, 1, wb, attraction, a-b-db, 2, 2, 8, 33, 89, 163, 90, 165, 165, 90, 2, 0.374246
48, 1, wb, filler, NA, 999, 999, 8, 34, 161, 148, 145, 183, 194, 171, 1, 1.98072
48, 1, wb, filler, NA, 999, 999, 8, 34, 161, 148, 145, 183, 194, 171, 3, 0.292115
48, 1, wb, filler, NA, 999, 999, 8, 35, 174, 170, 158, 135, 170, 124, 3, 1.28592
48, 1, wb, filler, NA, 999, 999, 8, 35, 174, 170, 158, 135, 170, 124, 1, 0.385626
48, 1, wb, attraction, a-b-db, 5, 2, 8, 36, 165, 90, 90, 165, 88, 161, 1, 1.48795
48, 1, wb, attraction, a-b-db, 5, 2, 8, 36, 165, 90, 90, 165, 88, 161, 2, 0.339609
48, 1, wb, attraction, a-b-da, 5, 3, 8, 37, 120, 195, 190, 117, 195, 120, 2, 1.69208
48, 1, wb, attraction, a-b-da, 5, 3, 8, 37, 120, 195, 190, 117, 195, 120, 1, 1.45482
