sub_n, computer_n, bw_cond, effect, set, distance, diag, block_n, trial_n, h1, w1, h2, w2, h3, w3, choice, rt 
56, 1, wb, practice, NA, 999, 999, 0, 1, 116, 107, 195, 75, 76, 184, 2, 19.2437
56, 1, wb, practice, NA, 999, 999, 0, 1, 116, 107, 195, 75, 76, 184, 1, 5.09154
56, 1, wb, practice, NA, 999, 999, 0, 2, 165, 151, 103, 97, 163, 166, 2, 4.91636
56, 1, wb, practice, NA, 999, 999, 0, 2, 165, 151, 103, 97, 163, 166, 1, 2.62707
56, 1, wb, practice, NA, 999, 999, 0, 3, 170, 75, 121, 184, 171, 119, 1, 3.51838
56, 1, wb, practice, NA, 999, 999, 0, 3, 170, 75, 121, 184, 171, 119, 2, 2.64091
56, 1, wb, attraction, a-b-db, 5, 2, 1, 1, 88, 161, 90, 165, 165, 90, 3, 2.93216
56, 1, wb, attraction, a-b-db, 5, 2, 1, 1, 88, 161, 90, 165, 165, 90, 2, 2.31715
56, 1, wb, attraction, a-b-da, 2, 3, 1, 2, 193, 119, 195, 120, 120, 195, 1, 3.18971
56, 1, wb, attraction, a-b-da, 2, 3, 1, 2, 193, 119, 195, 120, 120, 195, 3, 1.68396
56, 1, wb, attraction, a-b-da, 9, 2, 1, 3, 165, 90, 90, 165, 157, 86, 2, 3.24615
56, 1, wb, attraction, a-b-da, 9, 2, 1, 3, 165, 90, 90, 165, 157, 86, 1, 2.11433
56, 1, wb, attraction, a-b-db, 5, 1, 1, 4, 58, 132, 60, 135, 135, 60, 1, 1.99492
56, 1, wb, attraction, a-b-db, 5, 1, 1, 4, 58, 132, 60, 135, 135, 60, 2, 4.01769
56, 1, wb, attraction, a-b-da, 2, 2, 1, 5, 165, 90, 163, 89, 90, 165, 1, 4.03774
56, 1, wb, attraction, a-b-da, 2, 2, 1, 5, 165, 90, 163, 89, 90, 165, 3, 1.89859
56, 1, wb, attraction, a-b-da, 9, 3, 1, 6, 186, 114, 195, 120, 120, 195, 1, 1.97182
56, 1, wb, attraction, a-b-da, 9, 3, 1, 6, 186, 114, 195, 120, 120, 195, 3, 0.68306
56, 1, wb, attraction, a-b-da, 5, 2, 1, 7, 90, 165, 161, 88, 165, 90, 1, 0.957584
56, 1, wb, attraction, a-b-da, 5, 2, 1, 7, 90, 165, 161, 88, 165, 90, 3, 0.902088
56, 1, wb, filler, NA, 999, 999, 1, 8, 130, 184, 187, 155, 88, 98, 3, 1.71152
56, 1, wb, filler, NA, 999, 999, 1, 8, 130, 184, 187, 155, 88, 98, 2, 1.16164
56, 1, wb, attraction, a-b-da, 14, 2, 1, 9, 90, 165, 153, 83, 165, 90, 3, 3.94451
56, 1, wb, attraction, a-b-da, 14, 2, 1, 9, 90, 165, 153, 83, 165, 90, 1, 1.00061
56, 1, wb, attraction, a-b-db, 14, 2, 1, 10, 165, 90, 90, 165, 83, 153, 1, 1.80644
56, 1, wb, attraction, a-b-db, 14, 2, 1, 10, 165, 90, 90, 165, 83, 153, 2, 1.15641
56, 1, wb, filler, NA, 999, 999, 1, 11, 119, 172, 124, 162, 154, 175, 1, 1.78797
56, 1, wb, filler, NA, 999, 999, 1, 11, 119, 172, 124, 162, 154, 175, 3, 0.819348
56, 1, wb, attraction, a-b-da, 9, 1, 1, 12, 129, 57, 60, 135, 135, 60, 1, 2.16839
56, 1, wb, attraction, a-b-da, 9, 1, 1, 12, 129, 57, 60, 135, 135, 60, 3, 1.36037
56, 1, wb, attraction, a-b-db, 2, 2, 1, 13, 89, 163, 165, 90, 90, 165, 1, 1.23911
56, 1, wb, attraction, a-b-db, 2, 2, 1, 13, 89, 163, 165, 90, 90, 165, 2, 0.940087
56, 1, wb, attraction, a-b-da, 14, 3, 1, 14, 120, 195, 195, 120, 181, 111, 3, 1.82767
56, 1, wb, attraction, a-b-da, 14, 3, 1, 14, 120, 195, 195, 120, 181, 111, 1, 0.985135
56, 1, wb, attraction, a-b-db, 2, 1, 1, 15, 59, 134, 135, 60, 60, 135, 1, 1.16738
56, 1, wb, attraction, a-b-db, 2, 1, 1, 15, 59, 134, 135, 60, 60, 135, 3, 1.09579
56, 1, wb, filler, NA, 999, 999, 1, 16, 194, 148, 68, 149, 82, 163, 2, 2.62534
56, 1, wb, filler, NA, 999, 999, 1, 16, 194, 148, 68, 149, 82, 163, 1, 1.27838
56, 1, wb, attraction, a-b-db, 14, 3, 1, 17, 195, 120, 111, 181, 120, 195, 1, 1.81662
56, 1, wb, attraction, a-b-db, 14, 3, 1, 17, 195, 120, 111, 181, 120, 195, 3, 1.27076
56, 1, wb, catch, NA, 999, 999, 1, 18, 145, 170, 74, 121, 97, 158, 2, 2.08967
56, 1, wb, catch, NA, 999, 999, 1, 18, 145, 170, 74, 121, 97, 158, 1, 0.524267
56, 1, wb, attraction, a-b-da, 2, 1, 1, 19, 134, 59, 135, 60, 60, 135, 1, 0.80463
56, 1, wb, attraction, a-b-da, 2, 1, 1, 19, 134, 59, 135, 60, 60, 135, 2, 0.410996
56, 1, wb, attraction, a-b-db, 9, 2, 1, 20, 165, 90, 86, 157, 90, 165, 1, 1.57627
56, 1, wb, attraction, a-b-db, 9, 2, 1, 20, 165, 90, 86, 157, 90, 165, 3, 1.35171
56, 1, wb, catch, NA, 999, 999, 1, 21, 141, 114, 142, 173, 127, 68, 3, 1.33513
56, 1, wb, catch, NA, 999, 999, 1, 21, 141, 114, 142, 173, 127, 68, 2, 0.736835
56, 1, wb, catch, NA, 999, 999, 1, 22, 71, 124, 192, 123, 140, 115, 1, 1.09717
56, 1, wb, catch, NA, 999, 999, 1, 22, 71, 124, 192, 123, 140, 115, 2, 0.460146
56, 1, wb, filler, NA, 999, 999, 1, 23, 139, 85, 105, 114, 76, 91, 3, 1.85532
56, 1, wb, filler, NA, 999, 999, 1, 23, 139, 85, 105, 114, 76, 91, 2, 0.651277
56, 1, wb, attraction, a-b-da, 5, 1, 1, 24, 132, 58, 135, 60, 60, 135, 1, 0.918959
56, 1, wb, attraction, a-b-da, 5, 1, 1, 24, 132, 58, 135, 60, 60, 135, 3, 0.417561
56, 1, wb, attraction, a-b-db, 5, 3, 1, 25, 195, 120, 117, 190, 120, 195, 1, 2.3345
56, 1, wb, attraction, a-b-db, 5, 3, 1, 25, 195, 120, 117, 190, 120, 195, 2, 0.599833
56, 1, wb, filler, NA, 999, 999, 1, 26, 185, 148, 112, 125, 80, 158, 3, 1.67765
56, 1, wb, filler, NA, 999, 999, 1, 26, 185, 148, 112, 125, 80, 158, 1, 0.688977
56, 1, wb, filler, NA, 999, 999, 1, 27, 172, 69, 75, 150, 84, 99, 3, 1.14732
56, 1, wb, filler, NA, 999, 999, 1, 27, 172, 69, 75, 150, 84, 99, 2, 0.844351
56, 1, wb, attraction, a-b-db, 9, 1, 1, 28, 60, 135, 57, 129, 135, 60, 3, 2.30404
56, 1, wb, attraction, a-b-db, 9, 1, 1, 28, 60, 135, 57, 129, 135, 60, 1, 0.666583
56, 1, wb, filler, NA, 999, 999, 1, 29, 98, 185, 188, 140, 107, 116, 3, 1.30161
56, 1, wb, filler, NA, 999, 999, 1, 29, 98, 185, 188, 140, 107, 116, 2, 0.592623
56, 1, wb, attraction, a-b-db, 2, 3, 1, 30, 119, 193, 195, 120, 120, 195, 3, 0.990332
56, 1, wb, attraction, a-b-db, 2, 3, 1, 30, 119, 193, 195, 120, 120, 195, 2, 0.485446
56, 1, wb, filler, NA, 999, 999, 1, 31, 78, 119, 100, 128, 76, 192, 1, 0.911827
56, 1, wb, filler, NA, 999, 999, 1, 31, 78, 119, 100, 128, 76, 192, 2, 0.418129
56, 1, wb, attraction, a-b-db, 9, 3, 1, 32, 195, 120, 114, 186, 120, 195, 1, 1.27928
56, 1, wb, attraction, a-b-db, 9, 3, 1, 32, 195, 120, 114, 186, 120, 195, 2, 0.794849
56, 1, wb, filler, NA, 999, 999, 1, 33, 147, 64, 132, 102, 83, 125, 1, 0.528526
56, 1, wb, filler, NA, 999, 999, 1, 33, 147, 64, 132, 102, 83, 125, 2, 0.594327
56, 1, wb, attraction, a-b-db, 14, 1, 1, 34, 60, 135, 135, 60, 56, 125, 1, 1.65604
56, 1, wb, attraction, a-b-db, 14, 1, 1, 34, 60, 135, 135, 60, 56, 125, 2, 0.572209
56, 1, wb, attraction, a-b-da, 14, 1, 1, 35, 135, 60, 60, 135, 125, 56, 1, 0.707391
56, 1, wb, attraction, a-b-da, 14, 1, 1, 35, 135, 60, 60, 135, 125, 56, 2, 0.693713
56, 1, wb, attraction, a-b-da, 5, 3, 1, 36, 120, 195, 195, 120, 190, 117, 3, 4.86351
56, 1, wb, attraction, a-b-da, 5, 3, 1, 36, 120, 195, 195, 120, 190, 117, 2, 0.610623
56, 1, wb, filler, NA, 999, 999, 1, 37, 93, 80, 83, 71, 67, 146, 2, 0.927673
56, 1, wb, filler, NA, 999, 999, 1, 37, 93, 80, 83, 71, 67, 146, 1, 0.649318
56, 1, wb, filler, NA, 999, 999, 2, 1, 105, 158, 176, 140, 132, 85, 3, 1.82912
56, 1, wb, filler, NA, 999, 999, 2, 1, 105, 158, 176, 140, 132, 85, 2, 0.490502
56, 1, wb, filler, NA, 999, 999, 2, 2, 144, 185, 68, 86, 189, 83, 2, 2.30847
56, 1, wb, filler, NA, 999, 999, 2, 2, 144, 185, 68, 86, 189, 83, 1, 0.438124
56, 1, wb, attraction, a-b-db, 9, 1, 2, 3, 60, 135, 57, 129, 135, 60, 1, 1.61869
56, 1, wb, attraction, a-b-db, 9, 1, 2, 3, 60, 135, 57, 129, 135, 60, 2, 0.648815
56, 1, wb, filler, NA, 999, 999, 2, 4, 89, 187, 98, 92, 94, 190, 2, 1.11644
56, 1, wb, filler, NA, 999, 999, 2, 4, 89, 187, 98, 92, 94, 190, 1, 0.486882
56, 1, wb, attraction, a-b-db, 2, 1, 2, 5, 60, 135, 59, 134, 135, 60, 1, 5.84934
56, 1, wb, attraction, a-b-db, 2, 1, 2, 5, 60, 135, 59, 134, 135, 60, 2, 0.572859
56, 1, wb, filler, NA, 999, 999, 2, 6, 154, 176, 114, 73, 96, 91, 2, 1.60379
56, 1, wb, filler, NA, 999, 999, 2, 6, 154, 176, 114, 73, 96, 91, 1, 0.506736
56, 1, wb, filler, NA, 999, 999, 2, 7, 145, 70, 191, 65, 105, 140, 1, 1.04374
56, 1, wb, filler, NA, 999, 999, 2, 7, 145, 70, 191, 65, 105, 140, 3, 0.472751
56, 1, wb, attraction, a-b-db, 9, 3, 2, 8, 114, 186, 195, 120, 120, 195, 1, 2.45987
56, 1, wb, attraction, a-b-db, 9, 3, 2, 8, 114, 186, 195, 120, 120, 195, 3, 0.879745
56, 1, wb, attraction, a-b-da, 2, 2, 2, 9, 90, 165, 163, 89, 165, 90, 2, 1.03405
56, 1, wb, attraction, a-b-da, 2, 2, 2, 9, 90, 165, 163, 89, 165, 90, 1, 0.615756
56, 1, wb, attraction, a-b-da, 14, 2, 2, 10, 153, 83, 165, 90, 90, 165, 1, 2.05294
56, 1, wb, attraction, a-b-da, 14, 2, 2, 10, 153, 83, 165, 90, 90, 165, 2, 0.657579
56, 1, wb, attraction, a-b-db, 2, 3, 2, 11, 120, 195, 119, 193, 195, 120, 2, 1.62856
56, 1, wb, attraction, a-b-db, 2, 3, 2, 11, 120, 195, 119, 193, 195, 120, 1, 3.25018
56, 1, wb, filler, NA, 999, 999, 2, 12, 66, 139, 87, 191, 75, 81, 3, 1.10897
56, 1, wb, filler, NA, 999, 999, 2, 12, 66, 139, 87, 191, 75, 81, 2, 0.527262
56, 1, wb, catch, NA, 999, 999, 2, 13, 133, 182, 113, 82, 134, 121, 2, 1.00769
56, 1, wb, catch, NA, 999, 999, 2, 13, 133, 182, 113, 82, 134, 121, 1, 0.42207
56, 1, wb, attraction, a-b-da, 9, 1, 2, 14, 135, 60, 129, 57, 60, 135, 1, 1.13113
56, 1, wb, attraction, a-b-da, 9, 1, 2, 14, 135, 60, 129, 57, 60, 135, 3, 0.420935
56, 1, wb, attraction, a-b-da, 5, 3, 2, 15, 120, 195, 190, 117, 195, 120, 3, 3.61789
56, 1, wb, attraction, a-b-da, 5, 3, 2, 15, 120, 195, 190, 117, 195, 120, 1, 0.439478
56, 1, wb, attraction, a-b-da, 9, 2, 2, 16, 165, 90, 90, 165, 157, 86, 3, 1.51591
56, 1, wb, attraction, a-b-da, 9, 2, 2, 16, 165, 90, 90, 165, 157, 86, 2, 0.694088
56, 1, wb, attraction, a-b-da, 5, 2, 2, 17, 165, 90, 161, 88, 90, 165, 1, 0.807868
56, 1, wb, attraction, a-b-da, 5, 2, 2, 17, 165, 90, 161, 88, 90, 165, 3, 1.26229
56, 1, wb, attraction, a-b-db, 5, 2, 2, 18, 88, 161, 165, 90, 90, 165, 2, 2.92102
56, 1, wb, attraction, a-b-db, 5, 2, 2, 18, 88, 161, 165, 90, 90, 165, 3, 0.778766
56, 1, wb, attraction, a-b-da, 9, 3, 2, 19, 186, 114, 195, 120, 120, 195, 1, 2.22511
56, 1, wb, attraction, a-b-da, 9, 3, 2, 19, 186, 114, 195, 120, 120, 195, 3, 0.510391
56, 1, wb, attraction, a-b-da, 14, 1, 2, 20, 60, 135, 135, 60, 125, 56, 1, 1.60757
56, 1, wb, attraction, a-b-da, 14, 1, 2, 20, 60, 135, 135, 60, 125, 56, 3, 1.04587
56, 1, wb, attraction, a-b-da, 5, 1, 2, 21, 135, 60, 132, 58, 60, 135, 1, 0.681379
56, 1, wb, attraction, a-b-da, 5, 1, 2, 21, 135, 60, 132, 58, 60, 135, 3, 0.989123
56, 1, wb, attraction, a-b-db, 14, 3, 2, 22, 120, 195, 195, 120, 111, 181, 3, 1.4915
56, 1, wb, attraction, a-b-db, 14, 3, 2, 22, 120, 195, 195, 120, 111, 181, 1, 3.24623
56, 1, wb, attraction, a-b-db, 5, 3, 2, 23, 195, 120, 117, 190, 120, 195, 1, 3.1052
56, 1, wb, attraction, a-b-db, 5, 3, 2, 23, 195, 120, 117, 190, 120, 195, 2, 0.866824
56, 1, wb, attraction, a-b-db, 5, 1, 2, 24, 58, 132, 135, 60, 60, 135, 2, 1.86976
56, 1, wb, attraction, a-b-db, 5, 1, 2, 24, 58, 132, 135, 60, 60, 135, 1, 0.649837
56, 1, wb, filler, NA, 999, 999, 2, 25, 91, 180, 62, 74, 86, 129, 2, 3.16566
56, 1, wb, filler, NA, 999, 999, 2, 25, 91, 180, 62, 74, 86, 129, 1, 0.573219
56, 1, wb, attraction, a-b-da, 14, 3, 2, 26, 181, 111, 195, 120, 120, 195, 1, 2.76437
56, 1, wb, attraction, a-b-da, 14, 3, 2, 26, 181, 111, 195, 120, 120, 195, 3, 0.42019
56, 1, wb, attraction, a-b-db, 14, 1, 2, 27, 135, 60, 56, 125, 60, 135, 1, 0.953253
56, 1, wb, attraction, a-b-db, 14, 1, 2, 27, 135, 60, 56, 125, 60, 135, 2, 1.67441
56, 1, wb, attraction, a-b-db, 2, 2, 2, 28, 89, 163, 90, 165, 165, 90, 3, 1.01229
56, 1, wb, attraction, a-b-db, 2, 2, 2, 28, 89, 163, 90, 165, 165, 90, 2, 0.890636
56, 1, wb, attraction, a-b-db, 9, 2, 2, 29, 90, 165, 86, 157, 165, 90, 3, 5.16454
56, 1, wb, attraction, a-b-db, 9, 2, 2, 29, 90, 165, 86, 157, 165, 90, 2, 0.811486
56, 1, wb, attraction, a-b-da, 2, 3, 2, 30, 193, 119, 195, 120, 120, 195, 1, 0.848437
56, 1, wb, attraction, a-b-da, 2, 3, 2, 30, 193, 119, 195, 120, 120, 195, 3, 0.677384
56, 1, wb, filler, NA, 999, 999, 2, 31, 151, 120, 143, 108, 130, 190, 2, 0.951845
56, 1, wb, filler, NA, 999, 999, 2, 31, 151, 120, 143, 108, 130, 190, 3, 0.792814
56, 1, wb, attraction, a-b-db, 14, 2, 2, 32, 83, 153, 90, 165, 165, 90, 3, 4.89453
56, 1, wb, attraction, a-b-db, 14, 2, 2, 32, 83, 153, 90, 165, 165, 90, 2, 0.408426
56, 1, wb, attraction, a-b-da, 2, 1, 2, 33, 60, 135, 134, 59, 135, 60, 1, 0.781471
56, 1, wb, attraction, a-b-da, 2, 1, 2, 33, 60, 135, 134, 59, 135, 60, 2, 0.573128
56, 1, wb, filler, NA, 999, 999, 2, 34, 132, 60, 151, 126, 72, 99, 3, 2.84439
56, 1, wb, filler, NA, 999, 999, 2, 34, 132, 60, 151, 126, 72, 99, 2, 0.632666
56, 1, wb, filler, NA, 999, 999, 2, 35, 106, 132, 179, 147, 75, 116, 3, 0.877051
56, 1, wb, filler, NA, 999, 999, 2, 35, 106, 132, 179, 147, 75, 116, 2, 0.432896
56, 1, wb, catch, NA, 999, 999, 2, 36, 144, 111, 68, 127, 154, 161, 2, 1.36539
56, 1, wb, catch, NA, 999, 999, 2, 36, 144, 111, 68, 127, 154, 161, 3, 0.453507
56, 1, wb, catch, NA, 999, 999, 2, 37, 134, 121, 112, 83, 133, 182, 2, 0.801278
56, 1, wb, catch, NA, 999, 999, 2, 37, 134, 121, 112, 83, 133, 182, 3, 0.856365
56, 1, wb, attraction, a-b-db, 9, 1, 3, 1, 60, 135, 135, 60, 57, 129, 2, 1.03605
56, 1, wb, attraction, a-b-db, 9, 1, 3, 1, 60, 135, 135, 60, 57, 129, 1, 0.697663
56, 1, wb, filler, NA, 999, 999, 3, 2, 111, 66, 72, 187, 90, 189, 1, 0.883408
56, 1, wb, filler, NA, 999, 999, 3, 2, 111, 66, 72, 187, 90, 189, 3, 0.615219
56, 1, wb, attraction, a-b-da, 9, 1, 3, 3, 129, 57, 60, 135, 135, 60, 1, 1.18029
56, 1, wb, attraction, a-b-da, 9, 1, 3, 3, 129, 57, 60, 135, 135, 60, 2, 0.707871
56, 1, wb, catch, NA, 999, 999, 3, 4, 181, 134, 109, 86, 122, 133, 2, 1.45282
56, 1, wb, catch, NA, 999, 999, 3, 4, 181, 134, 109, 86, 122, 133, 1, 0.537728
56, 1, wb, attraction, a-b-da, 14, 1, 3, 5, 60, 135, 125, 56, 135, 60, 1, 1.1142
56, 1, wb, attraction, a-b-da, 14, 1, 3, 5, 60, 135, 125, 56, 135, 60, 2, 0.564431
56, 1, wb, attraction, a-b-db, 14, 2, 3, 6, 83, 153, 90, 165, 165, 90, 1, 1.62752
56, 1, wb, attraction, a-b-db, 14, 2, 3, 6, 83, 153, 90, 165, 165, 90, 3, 0.817023
56, 1, wb, attraction, a-b-da, 5, 1, 3, 7, 60, 135, 135, 60, 132, 58, 1, 0.74199
56, 1, wb, attraction, a-b-da, 5, 1, 3, 7, 60, 135, 135, 60, 132, 58, 2, 0.623162
56, 1, wb, attraction, a-b-db, 2, 3, 3, 8, 195, 120, 119, 193, 120, 195, 3, 1.43617
56, 1, wb, attraction, a-b-db, 2, 3, 3, 8, 195, 120, 119, 193, 120, 195, 1, 0.897659
56, 1, wb, attraction, a-b-db, 14, 1, 3, 9, 60, 135, 135, 60, 56, 125, 3, 1.41138
56, 1, wb, attraction, a-b-db, 14, 1, 3, 9, 60, 135, 135, 60, 56, 125, 2, 0.401732
56, 1, wb, filler, NA, 999, 999, 3, 10, 182, 168, 161, 63, 166, 149, 2, 1.25537
56, 1, wb, filler, NA, 999, 999, 3, 10, 182, 168, 161, 63, 166, 149, 1, 0.443703
56, 1, wb, attraction, a-b-db, 5, 1, 3, 11, 135, 60, 60, 135, 58, 132, 1, 0.991411
56, 1, wb, attraction, a-b-db, 5, 1, 3, 11, 135, 60, 60, 135, 58, 132, 2, 0.38241
56, 1, wb, catch, NA, 999, 999, 3, 12, 125, 130, 173, 142, 128, 67, 3, 0.933042
56, 1, wb, catch, NA, 999, 999, 3, 12, 125, 130, 173, 142, 128, 67, 2, 0.454637
56, 1, wb, filler, NA, 999, 999, 3, 13, 188, 129, 58, 77, 147, 113, 2, 0.962382
56, 1, wb, filler, NA, 999, 999, 3, 13, 188, 129, 58, 77, 147, 113, 1, 0.410763
56, 1, wb, filler, NA, 999, 999, 3, 14, 93, 121, 69, 86, 112, 132, 2, 0.991957
56, 1, wb, filler, NA, 999, 999, 3, 14, 93, 121, 69, 86, 112, 132, 3, 0.846949
56, 1, wb, attraction, a-b-da, 2, 1, 3, 15, 135, 60, 134, 59, 60, 135, 3, 4.98664
56, 1, wb, attraction, a-b-da, 2, 1, 3, 15, 135, 60, 134, 59, 60, 135, 1, 1.00896
56, 1, wb, attraction, a-b-da, 14, 2, 3, 16, 153, 83, 165, 90, 90, 165, 1, 1.34993
56, 1, wb, attraction, a-b-da, 14, 2, 3, 16, 153, 83, 165, 90, 90, 165, 3, 0.454825
56, 1, wb, filler, NA, 999, 999, 3, 17, 129, 134, 65, 62, 133, 175, 2, 1.08266
56, 1, wb, filler, NA, 999, 999, 3, 17, 129, 134, 65, 62, 133, 175, 3, 0.486284
56, 1, wb, attraction, a-b-da, 2, 3, 3, 18, 193, 119, 195, 120, 120, 195, 1, 0.600723
56, 1, wb, attraction, a-b-da, 2, 3, 3, 18, 193, 119, 195, 120, 120, 195, 2, 0.415864
56, 1, wb, attraction, a-b-db, 9, 3, 3, 19, 114, 186, 120, 195, 195, 120, 3, 0.781033
56, 1, wb, attraction, a-b-db, 9, 3, 3, 19, 114, 186, 120, 195, 195, 120, 2, 0.452661
56, 1, wb, attraction, a-b-db, 9, 2, 3, 20, 86, 157, 90, 165, 165, 90, 3, 0.976439
56, 1, wb, attraction, a-b-db, 9, 2, 3, 20, 86, 157, 90, 165, 165, 90, 2, 0.648197
56, 1, wb, attraction, a-b-db, 5, 3, 3, 21, 120, 195, 195, 120, 117, 190, 3, 2.524
56, 1, wb, attraction, a-b-db, 5, 3, 3, 21, 120, 195, 195, 120, 117, 190, 2, 0.35718
56, 1, wb, catch, NA, 999, 999, 3, 22, 101, 154, 126, 69, 127, 188, 2, 1.14819
56, 1, wb, catch, NA, 999, 999, 3, 22, 101, 154, 126, 69, 127, 188, 3, 0.525283
56, 1, wb, attraction, a-b-da, 5, 3, 3, 23, 120, 195, 195, 120, 190, 117, 3, 0.757591
56, 1, wb, attraction, a-b-da, 5, 3, 3, 23, 120, 195, 195, 120, 190, 117, 1, 0.565964
56, 1, wb, filler, NA, 999, 999, 3, 24, 103, 80, 82, 85, 66, 93, 3, 0.781098
56, 1, wb, filler, NA, 999, 999, 3, 24, 103, 80, 82, 85, 66, 93, 1, 0.740833
56, 1, wb, filler, NA, 999, 999, 3, 25, 107, 170, 68, 137, 56, 190, 3, 0.892541
56, 1, wb, filler, NA, 999, 999, 3, 25, 107, 170, 68, 137, 56, 190, 1, 1.65557
56, 1, wb, attraction, a-b-db, 14, 3, 3, 26, 120, 195, 195, 120, 111, 181, 3, 1.29096
56, 1, wb, attraction, a-b-db, 14, 3, 3, 26, 120, 195, 195, 120, 111, 181, 1, 0.525911
56, 1, wb, attraction, a-b-db, 2, 1, 3, 27, 60, 135, 59, 134, 135, 60, 3, 0.6464
56, 1, wb, attraction, a-b-db, 2, 1, 3, 27, 60, 135, 59, 134, 135, 60, 1, 0.595481
56, 1, wb, attraction, a-b-da, 9, 3, 3, 28, 120, 195, 186, 114, 195, 120, 2, 0.961287
56, 1, wb, attraction, a-b-da, 9, 3, 3, 28, 120, 195, 186, 114, 195, 120, 3, 0.51362
56, 1, wb, filler, NA, 999, 999, 3, 29, 57, 159, 151, 187, 155, 192, 1, 0.658703
56, 1, wb, filler, NA, 999, 999, 3, 29, 57, 159, 151, 187, 155, 192, 3, 0.599135
56, 1, wb, attraction, a-b-da, 2, 2, 3, 30, 165, 90, 90, 165, 163, 89, 3, 0.908837
56, 1, wb, attraction, a-b-da, 2, 2, 3, 30, 165, 90, 90, 165, 163, 89, 2, 0.455247
56, 1, wb, attraction, a-b-da, 14, 3, 3, 31, 195, 120, 181, 111, 120, 195, 3, 0.899099
56, 1, wb, attraction, a-b-da, 14, 3, 3, 31, 195, 120, 181, 111, 120, 195, 1, 0.718088
56, 1, wb, attraction, a-b-da, 5, 2, 3, 32, 161, 88, 90, 165, 165, 90, 3, 0.607051
56, 1, wb, attraction, a-b-da, 5, 2, 3, 32, 161, 88, 90, 165, 165, 90, 2, 0.533939
56, 1, wb, attraction, a-b-db, 5, 2, 3, 33, 88, 161, 165, 90, 90, 165, 3, 0.541955
56, 1, wb, attraction, a-b-db, 5, 2, 3, 33, 88, 161, 165, 90, 90, 165, 1, 1.0231
56, 1, wb, attraction, a-b-db, 2, 2, 3, 34, 165, 90, 89, 163, 90, 165, 1, 1.18014
56, 1, wb, attraction, a-b-db, 2, 2, 3, 34, 165, 90, 89, 163, 90, 165, 3, 0.747766
56, 1, wb, filler, NA, 999, 999, 3, 35, 85, 129, 69, 183, 108, 164, 1, 1.11542
56, 1, wb, filler, NA, 999, 999, 3, 35, 85, 129, 69, 183, 108, 164, 3, 0.789713
56, 1, wb, attraction, a-b-da, 9, 2, 3, 36, 165, 90, 157, 86, 90, 165, 3, 0.652053
56, 1, wb, attraction, a-b-da, 9, 2, 3, 36, 165, 90, 157, 86, 90, 165, 1, 0.529296
56, 1, wb, filler, NA, 999, 999, 3, 37, 99, 165, 84, 88, 176, 194, 2, 0.5697
56, 1, wb, filler, NA, 999, 999, 3, 37, 99, 165, 84, 88, 176, 194, 3, 0.458134
56, 1, wb, filler, NA, 999, 999, 4, 1, 179, 68, 155, 107, 105, 150, 1, 0.661204
56, 1, wb, filler, NA, 999, 999, 4, 1, 179, 68, 155, 107, 105, 150, 3, 0.99367
56, 1, wb, attraction, a-b-da, 9, 2, 4, 2, 90, 165, 165, 90, 157, 86, 3, 0.663264
56, 1, wb, attraction, a-b-da, 9, 2, 4, 2, 90, 165, 165, 90, 157, 86, 1, 0.475737
56, 1, wb, attraction, a-b-da, 2, 1, 4, 3, 60, 135, 135, 60, 134, 59, 3, 0.702157
56, 1, wb, attraction, a-b-da, 2, 1, 4, 3, 60, 135, 135, 60, 134, 59, 1, 0.449279
56, 1, wb, attraction, a-b-da, 2, 2, 4, 4, 165, 90, 90, 165, 163, 89, 3, 0.421082
56, 1, wb, attraction, a-b-da, 2, 2, 4, 4, 165, 90, 90, 165, 163, 89, 1, 0.555502
56, 1, wb, attraction, a-b-da, 14, 1, 4, 5, 60, 135, 135, 60, 125, 56, 3, 0.627358
56, 1, wb, attraction, a-b-da, 14, 1, 4, 5, 60, 135, 135, 60, 125, 56, 2, 0.497075
56, 1, wb, filler, NA, 999, 999, 4, 6, 162, 150, 71, 168, 92, 63, 3, 0.634942
56, 1, wb, filler, NA, 999, 999, 4, 6, 162, 150, 71, 168, 92, 63, 1, 0.488685
56, 1, wb, filler, NA, 999, 999, 4, 7, 164, 168, 139, 154, 122, 72, 3, 0.611051
56, 1, wb, filler, NA, 999, 999, 4, 7, 164, 168, 139, 154, 122, 72, 1, 0.521581
56, 1, wb, attraction, a-b-db, 9, 2, 4, 8, 165, 90, 90, 165, 86, 157, 3, 0.698677
56, 1, wb, attraction, a-b-db, 9, 2, 4, 8, 165, 90, 90, 165, 86, 157, 1, 0.573791
56, 1, wb, attraction, a-b-da, 14, 3, 4, 9, 181, 111, 120, 195, 195, 120, 3, 0.444147
56, 1, wb, attraction, a-b-da, 14, 3, 4, 9, 181, 111, 120, 195, 195, 120, 2, 0.67346
56, 1, wb, catch, NA, 999, 999, 4, 10, 128, 67, 135, 120, 151, 164, 1, 1.44384
56, 1, wb, catch, NA, 999, 999, 4, 10, 128, 67, 135, 120, 151, 164, 3, 0.384678
56, 1, wb, attraction, a-b-da, 5, 2, 4, 11, 90, 165, 161, 88, 165, 90, 1, 0.823114
56, 1, wb, attraction, a-b-da, 5, 2, 4, 11, 90, 165, 161, 88, 165, 90, 3, 0.39705
56, 1, wb, filler, NA, 999, 999, 4, 12, 176, 58, 106, 62, 134, 110, 2, 1.29064
56, 1, wb, filler, NA, 999, 999, 4, 12, 176, 58, 106, 62, 134, 110, 3, 0.421579
56, 1, wb, filler, NA, 999, 999, 4, 13, 111, 190, 169, 84, 140, 66, 3, 0.938607
56, 1, wb, filler, NA, 999, 999, 4, 13, 111, 190, 169, 84, 140, 66, 1, 0.395636
56, 1, wb, filler, NA, 999, 999, 4, 14, 120, 97, 74, 116, 122, 81, 3, 0.63356
56, 1, wb, filler, NA, 999, 999, 4, 14, 120, 97, 74, 116, 122, 81, 1, 0.527479
56, 1, wb, attraction, a-b-db, 2, 3, 4, 15, 120, 195, 195, 120, 119, 193, 2, 1.27985
56, 1, wb, attraction, a-b-db, 2, 3, 4, 15, 120, 195, 195, 120, 119, 193, 3, 0.387309
56, 1, wb, filler, NA, 999, 999, 4, 16, 86, 126, 87, 135, 88, 117, 2, 0.553802
56, 1, wb, filler, NA, 999, 999, 4, 16, 86, 126, 87, 135, 88, 117, 3, 0.506918
56, 1, wb, attraction, a-b-da, 9, 1, 4, 17, 129, 57, 60, 135, 135, 60, 3, 1.36419
56, 1, wb, attraction, a-b-da, 9, 1, 4, 17, 129, 57, 60, 135, 135, 60, 2, 0.436309
56, 1, wb, attraction, a-b-db, 5, 1, 4, 18, 135, 60, 60, 135, 58, 132, 3, 1.75288
56, 1, wb, attraction, a-b-db, 5, 1, 4, 18, 135, 60, 60, 135, 58, 132, 1, 0.793514
56, 1, wb, attraction, a-b-da, 14, 2, 4, 19, 90, 165, 165, 90, 153, 83, 3, 1.08728
56, 1, wb, attraction, a-b-da, 14, 2, 4, 19, 90, 165, 165, 90, 153, 83, 1, 0.530833
56, 1, wb, filler, NA, 999, 999, 4, 20, 63, 153, 195, 115, 105, 161, 1, 0.947188
56, 1, wb, filler, NA, 999, 999, 4, 20, 63, 153, 195, 115, 105, 161, 3, 0.67625
56, 1, wb, attraction, a-b-da, 5, 3, 4, 21, 120, 195, 195, 120, 190, 117, 3, 2.24677
56, 1, wb, attraction, a-b-da, 5, 3, 4, 21, 120, 195, 195, 120, 190, 117, 1, 1.37127
56, 1, wb, attraction, a-b-db, 5, 2, 4, 22, 88, 161, 165, 90, 90, 165, 3, 0.962202
56, 1, wb, attraction, a-b-db, 5, 2, 4, 22, 88, 161, 165, 90, 90, 165, 1, 0.754471
56, 1, wb, attraction, a-b-db, 14, 1, 4, 23, 56, 125, 135, 60, 60, 135, 3, 0.562192
56, 1, wb, attraction, a-b-db, 14, 1, 4, 23, 56, 125, 135, 60, 60, 135, 2, 0.538795
56, 1, wb, catch, NA, 999, 999, 4, 24, 180, 135, 128, 127, 92, 103, 3, 0.947111
56, 1, wb, catch, NA, 999, 999, 4, 24, 180, 135, 128, 127, 92, 103, 1, 0.548154
56, 1, wb, attraction, a-b-da, 2, 3, 4, 25, 120, 195, 193, 119, 195, 120, 3, 0.595846
56, 1, wb, attraction, a-b-da, 2, 3, 4, 25, 120, 195, 193, 119, 195, 120, 1, 0.435026
56, 1, wb, attraction, a-b-db, 9, 1, 4, 26, 57, 129, 135, 60, 60, 135, 2, 1.03156
56, 1, wb, attraction, a-b-db, 9, 1, 4, 26, 57, 129, 135, 60, 60, 135, 3, 0.75714
56, 1, wb, attraction, a-b-da, 5, 1, 4, 27, 60, 135, 135, 60, 132, 58, 2, 0.748169
56, 1, wb, attraction, a-b-da, 5, 1, 4, 27, 60, 135, 135, 60, 132, 58, 1, 0.565312
56, 1, wb, attraction, a-b-db, 2, 1, 4, 28, 60, 135, 135, 60, 59, 134, 2, 0.76431
56, 1, wb, attraction, a-b-db, 2, 1, 4, 28, 60, 135, 135, 60, 59, 134, 1, 0.588745
56, 1, wb, attraction, a-b-db, 2, 2, 4, 29, 89, 163, 90, 165, 165, 90, 3, 0.827053
56, 1, wb, attraction, a-b-db, 2, 2, 4, 29, 89, 163, 90, 165, 165, 90, 1, 0.56895
56, 1, wb, attraction, a-b-da, 9, 3, 4, 30, 195, 120, 120, 195, 186, 114, 3, 0.728106
56, 1, wb, attraction, a-b-da, 9, 3, 4, 30, 195, 120, 120, 195, 186, 114, 1, 0.641652
56, 1, wb, filler, NA, 999, 999, 4, 31, 126, 94, 102, 185, 73, 155, 3, 0.821405
56, 1, wb, filler, NA, 999, 999, 4, 31, 126, 94, 102, 185, 73, 155, 1, 0.507786
56, 1, wb, attraction, a-b-db, 9, 3, 4, 32, 114, 186, 120, 195, 195, 120, 2, 0.708948
56, 1, wb, attraction, a-b-db, 9, 3, 4, 32, 114, 186, 120, 195, 195, 120, 1, 1.15934
56, 1, wb, filler, NA, 999, 999, 4, 33, 133, 156, 59, 122, 180, 88, 2, 0.622347
56, 1, wb, filler, NA, 999, 999, 4, 33, 133, 156, 59, 122, 180, 88, 1, 0.411953
56, 1, wb, attraction, a-b-db, 14, 2, 4, 34, 83, 153, 90, 165, 165, 90, 1, 1.68919
56, 1, wb, attraction, a-b-db, 14, 2, 4, 34, 83, 153, 90, 165, 165, 90, 3, 0.539982
56, 1, wb, attraction, a-b-db, 5, 3, 4, 35, 120, 195, 195, 120, 117, 190, 2, 1.06838
56, 1, wb, attraction, a-b-db, 5, 3, 4, 35, 120, 195, 195, 120, 117, 190, 1, 0.456709
56, 1, wb, attraction, a-b-db, 14, 3, 4, 36, 120, 195, 195, 120, 111, 181, 3, 0.763797
56, 1, wb, attraction, a-b-db, 14, 3, 4, 36, 120, 195, 195, 120, 111, 181, 1, 0.404167
56, 1, wb, catch, NA, 999, 999, 4, 37, 124, 191, 113, 142, 129, 66, 3, 0.610146
56, 1, wb, catch, NA, 999, 999, 4, 37, 124, 191, 113, 142, 129, 66, 1, 0.41649
56, 1, wb, filler, NA, 999, 999, 5, 1, 173, 60, 132, 189, 144, 121, 1, 11.8283
56, 1, wb, filler, NA, 999, 999, 5, 1, 173, 60, 132, 189, 144, 121, 2, 0.678573
56, 1, wb, filler, NA, 999, 999, 5, 2, 80, 64, 136, 148, 156, 100, 1, 1.57693
56, 1, wb, filler, NA, 999, 999, 5, 2, 80, 64, 136, 148, 156, 100, 2, 1.0166
56, 1, wb, attraction, a-b-db, 5, 2, 5, 3, 165, 90, 90, 165, 88, 161, 3, 1.98939
56, 1, wb, attraction, a-b-db, 5, 2, 5, 3, 165, 90, 90, 165, 88, 161, 2, 1.02811
56, 1, wb, attraction, a-b-da, 2, 3, 5, 4, 195, 120, 193, 119, 120, 195, 1, 2.01639
56, 1, wb, attraction, a-b-da, 2, 3, 5, 4, 195, 120, 193, 119, 120, 195, 2, 1.44649
56, 1, wb, attraction, a-b-da, 9, 1, 5, 5, 129, 57, 60, 135, 135, 60, 1, 2.92991
56, 1, wb, attraction, a-b-da, 9, 1, 5, 5, 129, 57, 60, 135, 135, 60, 3, 1.23507
56, 1, wb, filler, NA, 999, 999, 5, 6, 127, 159, 65, 155, 76, 116, 3, 1.69516
56, 1, wb, filler, NA, 999, 999, 5, 6, 127, 159, 65, 155, 76, 116, 1, 0.705923
56, 1, wb, attraction, a-b-db, 9, 1, 5, 7, 60, 135, 135, 60, 57, 129, 2, 7.28376
56, 1, wb, attraction, a-b-db, 9, 1, 5, 7, 60, 135, 135, 60, 57, 129, 1, 1.5094
56, 1, wb, filler, NA, 999, 999, 5, 8, 180, 165, 72, 129, 110, 125, 2, 3.63824
56, 1, wb, filler, NA, 999, 999, 5, 8, 180, 165, 72, 129, 110, 125, 1, 0.635156
56, 1, wb, attraction, a-b-da, 14, 2, 5, 9, 153, 83, 90, 165, 165, 90, 1, 4.80739
56, 1, wb, attraction, a-b-da, 14, 2, 5, 9, 153, 83, 90, 165, 165, 90, 2, 0.596536
56, 1, wb, filler, NA, 999, 999, 5, 10, 172, 137, 164, 56, 193, 143, 2, 5.11439
56, 1, wb, filler, NA, 999, 999, 5, 10, 172, 137, 164, 56, 193, 143, 3, 2.45936
56, 1, wb, attraction, a-b-db, 14, 2, 5, 11, 90, 165, 83, 153, 165, 90, 2, 6.02979
56, 1, wb, attraction, a-b-db, 14, 2, 5, 11, 90, 165, 83, 153, 165, 90, 1, 1.24994
56, 1, wb, attraction, a-b-da, 5, 2, 5, 12, 90, 165, 165, 90, 161, 88, 3, 3.63751
56, 1, wb, attraction, a-b-da, 5, 2, 5, 12, 90, 165, 165, 90, 161, 88, 1, 1.48237
56, 1, wb, filler, NA, 999, 999, 5, 13, 104, 157, 176, 154, 104, 62, 3, 0.988394
56, 1, wb, filler, NA, 999, 999, 5, 13, 104, 157, 176, 154, 104, 62, 2, 0.515411
56, 1, wb, attraction, a-b-da, 14, 1, 5, 14, 60, 135, 125, 56, 135, 60, 2, 3.48465
56, 1, wb, attraction, a-b-da, 14, 1, 5, 14, 60, 135, 125, 56, 135, 60, 1, 0.711455
56, 1, wb, attraction, a-b-db, 14, 1, 5, 15, 60, 135, 56, 125, 135, 60, 2, 1.97649
56, 1, wb, attraction, a-b-db, 14, 1, 5, 15, 60, 135, 56, 125, 135, 60, 1, 0.647797
56, 1, wb, attraction, a-b-da, 9, 3, 5, 16, 195, 120, 120, 195, 186, 114, 3, 1.18776
56, 1, wb, attraction, a-b-da, 9, 3, 5, 16, 195, 120, 120, 195, 186, 114, 2, 1.16272
56, 1, wb, attraction, a-b-db, 2, 3, 5, 17, 120, 195, 119, 193, 195, 120, 3, 3.78542
56, 1, wb, attraction, a-b-db, 2, 3, 5, 17, 120, 195, 119, 193, 195, 120, 1, 1.15248
56, 1, wb, catch, NA, 999, 999, 5, 18, 118, 137, 142, 173, 74, 121, 3, 0.791882
56, 1, wb, catch, NA, 999, 999, 5, 18, 118, 137, 142, 173, 74, 121, 2, 2.14294
56, 1, wb, catch, NA, 999, 999, 5, 19, 67, 128, 157, 158, 142, 113, 1, 0.982127
56, 1, wb, catch, NA, 999, 999, 5, 19, 67, 128, 157, 158, 142, 113, 2, 0.637996
56, 1, wb, attraction, a-b-da, 2, 2, 5, 20, 90, 165, 165, 90, 163, 89, 3, 7.3782
56, 1, wb, attraction, a-b-da, 2, 2, 5, 20, 90, 165, 165, 90, 163, 89, 1, 1.06383
56, 1, wb, attraction, a-b-db, 5, 1, 5, 21, 58, 132, 135, 60, 60, 135, 1, 1.94694
56, 1, wb, attraction, a-b-db, 5, 1, 5, 21, 58, 132, 135, 60, 60, 135, 3, 0.755552
56, 1, wb, filler, NA, 999, 999, 5, 22, 189, 156, 185, 191, 162, 164, 3, 10.1713
56, 1, wb, filler, NA, 999, 999, 5, 22, 189, 156, 185, 191, 162, 164, 2, 0.920756
56, 1, wb, attraction, a-b-db, 9, 3, 5, 23, 195, 120, 120, 195, 114, 186, 1, 2.11368
56, 1, wb, attraction, a-b-db, 9, 3, 5, 23, 195, 120, 120, 195, 114, 186, 2, 0.891781
56, 1, wb, attraction, a-b-da, 5, 1, 5, 24, 132, 58, 135, 60, 60, 135, 1, 2.74925
56, 1, wb, attraction, a-b-da, 5, 1, 5, 24, 132, 58, 135, 60, 60, 135, 3, 0.709824
56, 1, wb, attraction, a-b-da, 9, 2, 5, 25, 165, 90, 90, 165, 157, 86, 3, 1.87888
56, 1, wb, attraction, a-b-da, 9, 2, 5, 25, 165, 90, 90, 165, 157, 86, 2, 0.906408
56, 1, wb, attraction, a-b-da, 5, 3, 5, 26, 190, 117, 120, 195, 195, 120, 3, 9.49984
56, 1, wb, attraction, a-b-da, 5, 3, 5, 26, 190, 117, 120, 195, 195, 120, 2, 0.81216
56, 1, wb, attraction, a-b-db, 9, 2, 5, 27, 90, 165, 86, 157, 165, 90, 1, 1.32944
56, 1, wb, attraction, a-b-db, 9, 2, 5, 27, 90, 165, 86, 157, 165, 90, 2, 0.682806
56, 1, wb, catch, NA, 999, 999, 5, 28, 177, 138, 151, 104, 105, 90, 3, 0.973294
56, 1, wb, catch, NA, 999, 999, 5, 28, 177, 138, 151, 104, 105, 90, 1, 0.860902
56, 1, wb, attraction, a-b-db, 2, 1, 5, 29, 135, 60, 59, 134, 60, 135, 3, 1.88789
56, 1, wb, attraction, a-b-db, 2, 1, 5, 29, 135, 60, 59, 134, 60, 135, 1, 0.787531
56, 1, wb, filler, NA, 999, 999, 5, 30, 168, 193, 142, 166, 92, 154, 3, 0.889626
56, 1, wb, filler, NA, 999, 999, 5, 30, 168, 193, 142, 166, 92, 154, 1, 2.3407
56, 1, wb, filler, NA, 999, 999, 5, 31, 170, 81, 88, 100, 110, 124, 2, 1.69192
56, 1, wb, filler, NA, 999, 999, 5, 31, 170, 81, 88, 100, 110, 124, 3, 5.33468
56, 1, wb, attraction, a-b-db, 14, 3, 5, 32, 111, 181, 120, 195, 195, 120, 1, 2.42956
56, 1, wb, attraction, a-b-db, 14, 3, 5, 32, 111, 181, 120, 195, 195, 120, 3, 1.65889
56, 1, wb, filler, NA, 999, 999, 5, 33, 68, 137, 119, 127, 106, 116, 1, 2.5015
56, 1, wb, filler, NA, 999, 999, 5, 33, 68, 137, 119, 127, 106, 116, 2, 1.61611
56, 1, wb, attraction, a-b-db, 5, 3, 5, 34, 117, 190, 195, 120, 120, 195, 1, 1.66883
56, 1, wb, attraction, a-b-db, 5, 3, 5, 34, 117, 190, 195, 120, 120, 195, 3, 2.23293
56, 1, wb, attraction, a-b-da, 14, 3, 5, 35, 195, 120, 181, 111, 120, 195, 3, 1.82882
56, 1, wb, attraction, a-b-da, 14, 3, 5, 35, 195, 120, 181, 111, 120, 195, 1, 1.41034
56, 1, wb, attraction, a-b-db, 2, 2, 5, 36, 90, 165, 165, 90, 89, 163, 1, 4.32708
56, 1, wb, attraction, a-b-db, 2, 2, 5, 36, 90, 165, 165, 90, 89, 163, 3, 0.991716
56, 1, wb, attraction, a-b-da, 2, 1, 5, 37, 60, 135, 134, 59, 135, 60, 3, 3.62136
56, 1, wb, attraction, a-b-da, 2, 1, 5, 37, 60, 135, 134, 59, 135, 60, 1, 1.09096
56, 1, wb, filler, NA, 999, 999, 6, 1, 100, 85, 153, 111, 93, 89, 3, 1.51652
56, 1, wb, filler, NA, 999, 999, 6, 1, 100, 85, 153, 111, 93, 89, 2, 1.19864
56, 1, wb, attraction, a-b-da, 2, 3, 6, 2, 195, 120, 120, 195, 193, 119, 3, 0.996267
56, 1, wb, attraction, a-b-da, 2, 3, 6, 2, 195, 120, 120, 195, 193, 119, 2, 0.747252
56, 1, wb, attraction, a-b-da, 2, 1, 6, 3, 135, 60, 134, 59, 60, 135, 1, 0.794938
56, 1, wb, attraction, a-b-da, 2, 1, 6, 3, 135, 60, 134, 59, 60, 135, 2, 0.474031
56, 1, wb, attraction, a-b-db, 5, 1, 6, 4, 58, 132, 135, 60, 60, 135, 3, 1.11643
56, 1, wb, attraction, a-b-db, 5, 1, 6, 4, 58, 132, 135, 60, 60, 135, 1, 0.782651
56, 1, wb, attraction, a-b-da, 9, 1, 6, 5, 135, 60, 60, 135, 129, 57, 3, 1.02902
56, 1, wb, attraction, a-b-da, 9, 1, 6, 5, 135, 60, 60, 135, 129, 57, 2, 0.69069
56, 1, wb, attraction, a-b-db, 2, 1, 6, 6, 60, 135, 135, 60, 59, 134, 3, 1.01246
56, 1, wb, attraction, a-b-db, 2, 1, 6, 6, 60, 135, 135, 60, 59, 134, 2, 0.698915
56, 1, wb, filler, NA, 999, 999, 6, 7, 78, 62, 111, 88, 61, 168, 1, 0.964585
56, 1, wb, filler, NA, 999, 999, 6, 7, 78, 62, 111, 88, 61, 168, 2, 0.748781
56, 1, wb, attraction, a-b-da, 9, 2, 6, 8, 165, 90, 90, 165, 157, 86, 3, 1.10049
56, 1, wb, attraction, a-b-da, 9, 2, 6, 8, 165, 90, 90, 165, 157, 86, 2, 0.44746
56, 1, wb, catch, NA, 999, 999, 6, 9, 69, 126, 157, 98, 193, 122, 1, 0.899261
56, 1, wb, catch, NA, 999, 999, 6, 9, 69, 126, 157, 98, 193, 122, 3, 0.6063
56, 1, wb, catch, NA, 999, 999, 6, 10, 107, 88, 142, 173, 132, 123, 1, 0.684024
56, 1, wb, catch, NA, 999, 999, 6, 10, 107, 88, 142, 173, 132, 123, 2, 0.655849
56, 1, wb, filler, NA, 999, 999, 6, 11, 131, 86, 73, 155, 91, 69, 3, 0.715627
56, 1, wb, filler, NA, 999, 999, 6, 11, 131, 86, 73, 155, 91, 69, 1, 0.558022
56, 1, wb, attraction, a-b-db, 2, 3, 6, 12, 119, 193, 195, 120, 120, 195, 1, 1.73318
56, 1, wb, attraction, a-b-db, 2, 3, 6, 12, 119, 193, 195, 120, 120, 195, 3, 1.1585
56, 1, wb, attraction, a-b-db, 14, 2, 6, 13, 165, 90, 83, 153, 90, 165, 2, 1.46149
56, 1, wb, attraction, a-b-db, 14, 2, 6, 13, 165, 90, 83, 153, 90, 165, 3, 2.70567
56, 1, wb, attraction, a-b-da, 14, 3, 6, 14, 181, 111, 195, 120, 120, 195, 1, 3.37066
56, 1, wb, attraction, a-b-da, 14, 3, 6, 14, 181, 111, 195, 120, 120, 195, 3, 0.66628
56, 1, wb, filler, NA, 999, 999, 6, 15, 87, 58, 164, 113, 92, 107, 1, 0.797378
56, 1, wb, filler, NA, 999, 999, 6, 15, 87, 58, 164, 113, 92, 107, 2, 0.492517
56, 1, wb, attraction, a-b-da, 5, 3, 6, 16, 190, 117, 195, 120, 120, 195, 3, 1.94227
56, 1, wb, attraction, a-b-da, 5, 3, 6, 16, 190, 117, 195, 120, 120, 195, 2, 1.32695
56, 1, wb, attraction, a-b-da, 5, 1, 6, 17, 132, 58, 135, 60, 60, 135, 2, 4.34317
56, 1, wb, attraction, a-b-da, 5, 1, 6, 17, 132, 58, 135, 60, 60, 135, 3, 0.503035
56, 1, wb, attraction, a-b-db, 5, 2, 6, 18, 165, 90, 90, 165, 88, 161, 3, 0.968864
56, 1, wb, attraction, a-b-db, 5, 2, 6, 18, 165, 90, 90, 165, 88, 161, 2, 0.561159
56, 1, wb, filler, NA, 999, 999, 6, 19, 59, 89, 92, 187, 157, 177, 1, 0.808356
56, 1, wb, filler, NA, 999, 999, 6, 19, 59, 89, 92, 187, 157, 177, 3, 0.646629
56, 1, wb, attraction, a-b-da, 9, 3, 6, 20, 120, 195, 186, 114, 195, 120, 3, 1.27461
56, 1, wb, attraction, a-b-da, 9, 3, 6, 20, 120, 195, 186, 114, 195, 120, 1, 0.758075
56, 1, wb, attraction, a-b-db, 14, 3, 6, 21, 195, 120, 120, 195, 111, 181, 1, 4.14903
56, 1, wb, attraction, a-b-db, 14, 3, 6, 21, 195, 120, 120, 195, 111, 181, 2, 0.556979
56, 1, wb, filler, NA, 999, 999, 6, 22, 135, 87, 113, 154, 145, 73, 3, 1.04408
56, 1, wb, filler, NA, 999, 999, 6, 22, 135, 87, 113, 154, 145, 73, 2, 0.913105
56, 1, wb, attraction, a-b-da, 14, 1, 6, 23, 125, 56, 60, 135, 135, 60, 1, 0.994043
56, 1, wb, attraction, a-b-da, 14, 1, 6, 23, 125, 56, 60, 135, 135, 60, 2, 0.809204
56, 1, wb, filler, NA, 999, 999, 6, 24, 138, 161, 57, 161, 181, 62, 2, 6.11812
56, 1, wb, filler, NA, 999, 999, 6, 24, 138, 161, 57, 161, 181, 62, 1, 0.366832
56, 1, wb, filler, NA, 999, 999, 6, 25, 101, 110, 134, 168, 161, 179, 1, 1.04592
56, 1, wb, filler, NA, 999, 999, 6, 25, 101, 110, 134, 168, 161, 179, 3, 0.395027
56, 1, wb, attraction, a-b-db, 5, 3, 6, 26, 117, 190, 195, 120, 120, 195, 1, 3.02492
56, 1, wb, attraction, a-b-db, 5, 3, 6, 26, 117, 190, 195, 120, 120, 195, 2, 0.421786
56, 1, wb, attraction, a-b-db, 2, 2, 6, 27, 165, 90, 90, 165, 89, 163, 3, 1.48302
56, 1, wb, attraction, a-b-db, 2, 2, 6, 27, 165, 90, 90, 165, 89, 163, 1, 0.422571
56, 1, wb, attraction, a-b-db, 14, 1, 6, 28, 56, 125, 60, 135, 135, 60, 1, 1.69976
56, 1, wb, attraction, a-b-db, 14, 1, 6, 28, 56, 125, 60, 135, 135, 60, 3, 0.558594
56, 1, wb, attraction, a-b-da, 5, 2, 6, 29, 165, 90, 161, 88, 90, 165, 1, 4.13351
56, 1, wb, attraction, a-b-da, 5, 2, 6, 29, 165, 90, 161, 88, 90, 165, 3, 0.742338
56, 1, wb, filler, NA, 999, 999, 6, 30, 125, 65, 102, 90, 125, 183, 1, 0.581935
56, 1, wb, filler, NA, 999, 999, 6, 30, 125, 65, 102, 90, 125, 183, 3, 0.469763
56, 1, wb, attraction, a-b-da, 14, 2, 6, 31, 153, 83, 165, 90, 90, 165, 1, 1.03282
56, 1, wb, attraction, a-b-da, 14, 2, 6, 31, 153, 83, 165, 90, 90, 165, 2, 0.638552
56, 1, wb, attraction, a-b-da, 2, 2, 6, 32, 165, 90, 90, 165, 163, 89, 1, 0.722854
56, 1, wb, attraction, a-b-da, 2, 2, 6, 32, 165, 90, 90, 165, 163, 89, 3, 0.484658
56, 1, wb, attraction, a-b-db, 9, 3, 6, 33, 114, 186, 195, 120, 120, 195, 1, 0.855066
56, 1, wb, attraction, a-b-db, 9, 3, 6, 33, 114, 186, 195, 120, 120, 195, 2, 0.403441
56, 1, wb, catch, NA, 999, 999, 6, 34, 69, 126, 193, 122, 134, 121, 1, 0.977273
56, 1, wb, catch, NA, 999, 999, 6, 34, 69, 126, 193, 122, 134, 121, 2, 0.488978
56, 1, wb, filler, NA, 999, 999, 6, 35, 145, 181, 100, 133, 57, 78, 3, 0.891465
56, 1, wb, filler, NA, 999, 999, 6, 35, 145, 181, 100, 133, 57, 78, 1, 0.670452
56, 1, wb, attraction, a-b-db, 9, 2, 6, 36, 86, 157, 90, 165, 165, 90, 1, 0.96953
56, 1, wb, attraction, a-b-db, 9, 2, 6, 36, 86, 157, 90, 165, 165, 90, 3, 0.593812
56, 1, wb, attraction, a-b-db, 9, 1, 6, 37, 60, 135, 135, 60, 57, 129, 1, 0.711564
56, 1, wb, attraction, a-b-db, 9, 1, 6, 37, 60, 135, 135, 60, 57, 129, 2, 0.674019
56, 1, wb, attraction, a-b-da, 9, 2, 7, 1, 90, 165, 165, 90, 157, 86, 3, 1.67684
56, 1, wb, attraction, a-b-da, 9, 2, 7, 1, 90, 165, 165, 90, 157, 86, 2, 0.575881
56, 1, wb, catch, NA, 999, 999, 7, 2, 146, 169, 97, 158, 78, 117, 3, 0.774269
56, 1, wb, catch, NA, 999, 999, 7, 2, 146, 169, 97, 158, 78, 117, 1, 0.414095
56, 1, wb, attraction, a-b-db, 9, 2, 7, 3, 86, 157, 90, 165, 165, 90, 3, 1.68312
56, 1, wb, attraction, a-b-db, 9, 2, 7, 3, 86, 157, 90, 165, 165, 90, 1, 0.638576
56, 1, wb, attraction, a-b-db, 5, 1, 7, 4, 58, 132, 135, 60, 60, 135, 2, 1.61115
56, 1, wb, attraction, a-b-db, 5, 1, 7, 4, 58, 132, 135, 60, 60, 135, 3, 0.94517
56, 1, wb, attraction, a-b-da, 2, 3, 7, 5, 193, 119, 195, 120, 120, 195, 1, 1.08072
56, 1, wb, attraction, a-b-da, 2, 3, 7, 5, 193, 119, 195, 120, 120, 195, 3, 0.620479
56, 1, wb, catch, NA, 999, 999, 7, 6, 117, 138, 82, 113, 156, 159, 2, 0.721516
56, 1, wb, catch, NA, 999, 999, 7, 6, 117, 138, 82, 113, 156, 159, 3, 0.771297
56, 1, wb, attraction, a-b-da, 5, 1, 7, 7, 135, 60, 60, 135, 132, 58, 1, 0.794295
56, 1, wb, attraction, a-b-da, 5, 1, 7, 7, 135, 60, 60, 135, 132, 58, 2, 0.409468
56, 1, wb, filler, NA, 999, 999, 7, 8, 73, 89, 64, 90, 111, 64, 2, 6.99044
56, 1, wb, filler, NA, 999, 999, 7, 8, 73, 89, 64, 90, 111, 64, 1, 1.67563
56, 1, wb, attraction, a-b-db, 9, 1, 7, 9, 60, 135, 57, 129, 135, 60, 3, 1.26986
56, 1, wb, attraction, a-b-db, 9, 1, 7, 9, 60, 135, 57, 129, 135, 60, 1, 0.977962
56, 1, wb, attraction, a-b-da, 14, 1, 7, 10, 60, 135, 135, 60, 125, 56, 3, 2.17635
56, 1, wb, attraction, a-b-da, 14, 1, 7, 10, 60, 135, 135, 60, 125, 56, 1, 0.639519
56, 1, wb, filler, NA, 999, 999, 7, 11, 61, 78, 176, 89, 165, 145, 1, 0.739957
56, 1, wb, filler, NA, 999, 999, 7, 11, 61, 78, 176, 89, 165, 145, 3, 0.493192
56, 1, wb, filler, NA, 999, 999, 7, 12, 67, 185, 92, 164, 170, 160, 1, 2.60691
56, 1, wb, filler, NA, 999, 999, 7, 12, 67, 185, 92, 164, 170, 160, 3, 0.508742
56, 1, wb, catch, NA, 999, 999, 7, 13, 67, 128, 101, 154, 175, 140, 1, 0.581681
56, 1, wb, catch, NA, 999, 999, 7, 13, 67, 128, 101, 154, 175, 140, 3, 0.461563
56, 1, wb, attraction, a-b-db, 2, 2, 7, 14, 90, 165, 165, 90, 89, 163, 3, 2.28867
56, 1, wb, attraction, a-b-db, 2, 2, 7, 14, 90, 165, 165, 90, 89, 163, 1, 1.0673
56, 1, wb, attraction, a-b-db, 2, 1, 7, 15, 60, 135, 59, 134, 135, 60, 3, 2.0943
56, 1, wb, attraction, a-b-db, 2, 1, 7, 15, 60, 135, 59, 134, 135, 60, 1, 0.416838
56, 1, wb, filler, NA, 999, 999, 7, 16, 147, 81, 101, 124, 86, 186, 1, 1.51796
56, 1, wb, filler, NA, 999, 999, 7, 16, 147, 81, 101, 124, 86, 186, 2, 0.568127
56, 1, wb, attraction, a-b-db, 5, 3, 7, 17, 117, 190, 195, 120, 120, 195, 2, 1.42319
56, 1, wb, attraction, a-b-db, 5, 3, 7, 17, 117, 190, 195, 120, 120, 195, 3, 0.652848
56, 1, wb, attraction, a-b-db, 14, 3, 7, 18, 195, 120, 120, 195, 111, 181, 1, 0.776598
56, 1, wb, attraction, a-b-db, 14, 3, 7, 18, 195, 120, 120, 195, 111, 181, 2, 0.776271
56, 1, wb, attraction, a-b-da, 5, 2, 7, 19, 161, 88, 90, 165, 165, 90, 1, 0.606635
56, 1, wb, attraction, a-b-da, 5, 2, 7, 19, 161, 88, 90, 165, 165, 90, 2, 0.429049
56, 1, wb, filler, NA, 999, 999, 7, 20, 97, 118, 69, 164, 152, 128, 2, 1.10551
56, 1, wb, filler, NA, 999, 999, 7, 20, 97, 118, 69, 164, 152, 128, 1, 0.539808
56, 1, wb, attraction, a-b-da, 9, 1, 7, 21, 135, 60, 129, 57, 60, 135, 2, 1.48422
56, 1, wb, attraction, a-b-da, 9, 1, 7, 21, 135, 60, 129, 57, 60, 135, 1, 0.495802
56, 1, wb, filler, NA, 999, 999, 7, 22, 138, 85, 59, 84, 82, 133, 2, 0.593499
56, 1, wb, filler, NA, 999, 999, 7, 22, 138, 85, 59, 84, 82, 133, 3, 1.27267
56, 1, wb, attraction, a-b-db, 14, 2, 7, 23, 165, 90, 83, 153, 90, 165, 2, 2.05163
56, 1, wb, attraction, a-b-db, 14, 2, 7, 23, 165, 90, 83, 153, 90, 165, 3, 0.784221
56, 1, wb, attraction, a-b-da, 9, 3, 7, 24, 120, 195, 195, 120, 186, 114, 3, 2.63056
56, 1, wb, attraction, a-b-da, 9, 3, 7, 24, 120, 195, 195, 120, 186, 114, 1, 0.45182
56, 1, wb, attraction, a-b-da, 2, 2, 7, 25, 90, 165, 165, 90, 163, 89, 3, 0.871662
56, 1, wb, attraction, a-b-da, 2, 2, 7, 25, 90, 165, 165, 90, 163, 89, 2, 0.771317
56, 1, wb, filler, NA, 999, 999, 7, 26, 138, 119, 92, 156, 120, 74, 3, 0.570348
56, 1, wb, filler, NA, 999, 999, 7, 26, 138, 119, 92, 156, 120, 74, 1, 0.386876
56, 1, wb, filler, NA, 999, 999, 7, 27, 136, 66, 109, 63, 88, 174, 2, 1.1613
56, 1, wb, filler, NA, 999, 999, 7, 27, 136, 66, 109, 63, 88, 174, 3, 0.497495
56, 1, wb, attraction, a-b-db, 5, 2, 7, 28, 88, 161, 165, 90, 90, 165, 1, 1.11528
56, 1, wb, attraction, a-b-db, 5, 2, 7, 28, 88, 161, 165, 90, 90, 165, 3, 0.629576
56, 1, wb, attraction, a-b-db, 9, 3, 7, 29, 120, 195, 195, 120, 114, 186, 3, 2.52219
56, 1, wb, attraction, a-b-db, 9, 3, 7, 29, 120, 195, 195, 120, 114, 186, 2, 0.467337
56, 1, wb, filler, NA, 999, 999, 7, 30, 94, 75, 99, 135, 127, 79, 1, 0.926414
56, 1, wb, filler, NA, 999, 999, 7, 30, 94, 75, 99, 135, 127, 79, 2, 0.408013
56, 1, wb, attraction, a-b-da, 5, 3, 7, 31, 190, 117, 120, 195, 195, 120, 1, 2.30108
56, 1, wb, attraction, a-b-da, 5, 3, 7, 31, 190, 117, 120, 195, 195, 120, 2, 0.3917
56, 1, wb, attraction, a-b-da, 14, 3, 7, 32, 195, 120, 120, 195, 181, 111, 1, 0.613544
56, 1, wb, attraction, a-b-da, 14, 3, 7, 32, 195, 120, 120, 195, 181, 111, 2, 0.396028
56, 1, wb, filler, NA, 999, 999, 7, 33, 126, 131, 74, 194, 193, 159, 2, 3.36984
56, 1, wb, filler, NA, 999, 999, 7, 33, 126, 131, 74, 194, 193, 159, 3, 0.577438
56, 1, wb, attraction, a-b-db, 14, 1, 7, 34, 135, 60, 60, 135, 56, 125, 1, 1.52792
56, 1, wb, attraction, a-b-db, 14, 1, 7, 34, 135, 60, 60, 135, 56, 125, 3, 0.529306
56, 1, wb, attraction, a-b-da, 2, 1, 7, 35, 135, 60, 134, 59, 60, 135, 1, 0.77784
56, 1, wb, attraction, a-b-da, 2, 1, 7, 35, 135, 60, 134, 59, 60, 135, 2, 0.529574
56, 1, wb, attraction, a-b-db, 2, 3, 7, 36, 195, 120, 119, 193, 120, 195, 1, 0.649992
56, 1, wb, attraction, a-b-db, 2, 3, 7, 36, 195, 120, 119, 193, 120, 195, 2, 0.575024
56, 1, wb, attraction, a-b-da, 14, 2, 7, 37, 165, 90, 90, 165, 153, 83, 1, 0.605531
56, 1, wb, attraction, a-b-da, 14, 2, 7, 37, 165, 90, 90, 165, 153, 83, 2, 0.443874
56, 1, wb, attraction, a-b-da, 14, 1, 8, 1, 135, 60, 60, 135, 125, 56, 1, 0.655635
56, 1, wb, attraction, a-b-da, 14, 1, 8, 1, 135, 60, 60, 135, 125, 56, 2, 0.484129
56, 1, wb, attraction, a-b-da, 9, 1, 8, 2, 135, 60, 129, 57, 60, 135, 1, 0.558688
56, 1, wb, attraction, a-b-da, 9, 1, 8, 2, 135, 60, 129, 57, 60, 135, 3, 0.575089
56, 1, wb, filler, NA, 999, 999, 8, 3, 113, 153, 106, 101, 143, 120, 2, 3.30955
56, 1, wb, filler, NA, 999, 999, 8, 3, 113, 153, 106, 101, 143, 120, 1, 0.471108
56, 1, wb, filler, NA, 999, 999, 8, 4, 141, 171, 193, 92, 146, 140, 2, 1.77833
56, 1, wb, filler, NA, 999, 999, 8, 4, 141, 171, 193, 92, 146, 140, 1, 0.945594
56, 1, wb, attraction, a-b-db, 14, 2, 8, 5, 90, 165, 165, 90, 83, 153, 3, 1.04949
56, 1, wb, attraction, a-b-db, 14, 2, 8, 5, 90, 165, 165, 90, 83, 153, 1, 0.790216
56, 1, wb, filler, NA, 999, 999, 8, 6, 161, 79, 93, 188, 153, 108, 1, 2.05995
56, 1, wb, filler, NA, 999, 999, 8, 6, 161, 79, 93, 188, 153, 108, 2, 0.551976
56, 1, wb, attraction, a-b-da, 5, 3, 8, 7, 120, 195, 190, 117, 195, 120, 3, 0.839665
56, 1, wb, attraction, a-b-da, 5, 3, 8, 7, 120, 195, 190, 117, 195, 120, 1, 0.428785
56, 1, wb, attraction, a-b-da, 9, 2, 8, 8, 90, 165, 157, 86, 165, 90, 3, 0.705313
56, 1, wb, attraction, a-b-da, 9, 2, 8, 8, 90, 165, 157, 86, 165, 90, 1, 0.339745
56, 1, wb, attraction, a-b-da, 5, 1, 8, 9, 60, 135, 132, 58, 135, 60, 3, 0.596148
56, 1, wb, attraction, a-b-da, 5, 1, 8, 9, 60, 135, 132, 58, 135, 60, 1, 0.515261
56, 1, wb, attraction, a-b-db, 2, 3, 8, 10, 120, 195, 119, 193, 195, 120, 3, 0.444367
56, 1, wb, attraction, a-b-db, 2, 3, 8, 10, 120, 195, 119, 193, 195, 120, 1, 0.393522
56, 1, wb, catch, NA, 999, 999, 8, 11, 189, 126, 60, 135, 126, 129, 2, 0.895405
56, 1, wb, catch, NA, 999, 999, 8, 11, 189, 126, 60, 135, 126, 129, 1, 1.36247
56, 1, wb, filler, NA, 999, 999, 8, 12, 128, 109, 129, 74, 134, 113, 2, 0.721274
56, 1, wb, filler, NA, 999, 999, 8, 12, 128, 109, 129, 74, 134, 113, 3, 0.787753
56, 1, wb, attraction, a-b-db, 5, 1, 8, 13, 135, 60, 60, 135, 58, 132, 3, 1.95398
56, 1, wb, attraction, a-b-db, 5, 1, 8, 13, 135, 60, 60, 135, 58, 132, 1, 0.858887
56, 1, wb, attraction, a-b-db, 9, 2, 8, 14, 165, 90, 90, 165, 86, 157, 1, 1.55774
56, 1, wb, attraction, a-b-db, 9, 2, 8, 14, 165, 90, 90, 165, 86, 157, 3, 0.565886
56, 1, wb, attraction, a-b-da, 5, 2, 8, 15, 161, 88, 90, 165, 165, 90, 1, 0.781003
56, 1, wb, attraction, a-b-da, 5, 2, 8, 15, 161, 88, 90, 165, 165, 90, 2, 0.58076
56, 1, wb, filler, NA, 999, 999, 8, 16, 158, 188, 86, 63, 76, 72, 2, 1.06721
56, 1, wb, filler, NA, 999, 999, 8, 16, 158, 188, 86, 63, 76, 72, 1, 1.50355
56, 1, wb, attraction, a-b-db, 14, 1, 8, 17, 135, 60, 56, 125, 60, 135, 1, 0.968901
56, 1, wb, attraction, a-b-db, 14, 1, 8, 17, 135, 60, 56, 125, 60, 135, 3, 0.681315
56, 1, wb, attraction, a-b-db, 9, 3, 8, 18, 120, 195, 195, 120, 114, 186, 1, 0.923739
56, 1, wb, attraction, a-b-db, 9, 3, 8, 18, 120, 195, 195, 120, 114, 186, 2, 0.317444
56, 1, wb, attraction, a-b-da, 2, 2, 8, 19, 90, 165, 163, 89, 165, 90, 1, 0.758504
56, 1, wb, attraction, a-b-da, 2, 2, 8, 19, 90, 165, 163, 89, 165, 90, 2, 0.311074
56, 1, wb, attraction, a-b-db, 14, 3, 8, 20, 195, 120, 120, 195, 111, 181, 3, 1.11211
56, 1, wb, attraction, a-b-db, 14, 3, 8, 20, 195, 120, 120, 195, 111, 181, 2, 1.33845
56, 1, wb, attraction, a-b-da, 2, 1, 8, 21, 134, 59, 135, 60, 60, 135, 2, 1.23457
56, 1, wb, attraction, a-b-da, 2, 1, 8, 21, 134, 59, 135, 60, 60, 135, 3, 0.872257
56, 1, wb, attraction, a-b-da, 14, 2, 8, 22, 165, 90, 90, 165, 153, 83, 3, 0.979197
56, 1, wb, attraction, a-b-da, 14, 2, 8, 22, 165, 90, 90, 165, 153, 83, 2, 0.970967
56, 1, wb, attraction, a-b-db, 2, 2, 8, 23, 89, 163, 165, 90, 90, 165, 2, 5.39385
56, 1, wb, attraction, a-b-db, 2, 2, 8, 23, 89, 163, 165, 90, 90, 165, 1, 1.83145
56, 1, wb, filler, NA, 999, 999, 8, 24, 169, 189, 191, 114, 129, 176, 2, 5.65144
56, 1, wb, filler, NA, 999, 999, 8, 24, 169, 189, 191, 114, 129, 176, 1, 0.767004
56, 1, wb, catch, NA, 999, 999, 8, 25, 90, 165, 104, 91, 181, 134, 2, 0.838178
56, 1, wb, catch, NA, 999, 999, 8, 25, 90, 165, 104, 91, 181, 134, 3, 0.443269
56, 1, wb, attraction, a-b-db, 2, 1, 8, 26, 135, 60, 60, 135, 59, 134, 1, 0.718815
56, 1, wb, attraction, a-b-db, 2, 1, 8, 26, 135, 60, 60, 135, 59, 134, 2, 0.393316
56, 1, wb, attraction, a-b-db, 5, 3, 8, 27, 195, 120, 117, 190, 120, 195, 1, 1.70319
56, 1, wb, attraction, a-b-db, 5, 3, 8, 27, 195, 120, 117, 190, 120, 195, 3, 0.47411
56, 1, wb, attraction, a-b-db, 9, 1, 8, 28, 60, 135, 135, 60, 57, 129, 2, 0.644314
56, 1, wb, attraction, a-b-db, 9, 1, 8, 28, 60, 135, 135, 60, 57, 129, 1, 0.393407
56, 1, wb, attraction, a-b-da, 14, 3, 8, 29, 120, 195, 195, 120, 181, 111, 2, 1.24738
56, 1, wb, attraction, a-b-da, 14, 3, 8, 29, 120, 195, 195, 120, 181, 111, 1, 0.452146
56, 1, wb, filler, NA, 999, 999, 8, 30, 95, 126, 66, 159, 103, 129, 1, 1.60806
56, 1, wb, filler, NA, 999, 999, 8, 30, 95, 126, 66, 159, 103, 129, 3, 0.750204
56, 1, wb, filler, NA, 999, 999, 8, 31, 187, 168, 68, 115, 188, 98, 2, 0.965925
56, 1, wb, filler, NA, 999, 999, 8, 31, 187, 168, 68, 115, 188, 98, 1, 0.510277
56, 1, wb, attraction, a-b-da, 9, 3, 8, 32, 195, 120, 186, 114, 120, 195, 2, 0.727292
56, 1, wb, attraction, a-b-da, 9, 3, 8, 32, 195, 120, 186, 114, 120, 195, 1, 0.553011
56, 1, wb, catch, NA, 999, 999, 8, 33, 124, 131, 185, 130, 112, 83, 3, 1.20884
56, 1, wb, catch, NA, 999, 999, 8, 33, 124, 131, 185, 130, 112, 83, 2, 0.51912
56, 1, wb, attraction, a-b-db, 5, 2, 8, 34, 165, 90, 88, 161, 90, 165, 1, 1.67212
56, 1, wb, attraction, a-b-db, 5, 2, 8, 34, 165, 90, 88, 161, 90, 165, 2, 0.475699
56, 1, wb, filler, NA, 999, 999, 8, 35, 122, 166, 181, 84, 127, 166, 2, 1.09423
56, 1, wb, filler, NA, 999, 999, 8, 35, 122, 166, 181, 84, 127, 166, 3, 0.481205
56, 1, wb, filler, NA, 999, 999, 8, 36, 68, 82, 57, 67, 122, 130, 2, 0.819444
56, 1, wb, filler, NA, 999, 999, 8, 36, 68, 82, 57, 67, 122, 130, 3, 0.377858
56, 1, wb, attraction, a-b-da, 2, 3, 8, 37, 120, 195, 195, 120, 193, 119, 1, 0.848434
56, 1, wb, attraction, a-b-da, 2, 3, 8, 37, 120, 195, 195, 120, 193, 119, 2, 0.333421
