sub_n, computer_n, bw_cond, effect, set, distance, diag, block_n, trial_n, h1, w1, h2, w2, h3, w3, choice, rt 
52, 1, wb, practice, NA, 999, 999, 0, 1, 60, 136, 186, 148, 57, 92, 1, 2.67892
52, 1, wb, practice, NA, 999, 999, 0, 1, 60, 136, 186, 148, 57, 92, 2, 2.28042
52, 1, wb, practice, NA, 999, 999, 0, 2, 63, 58, 136, 171, 169, 112, 1, 2.08116
52, 1, wb, practice, NA, 999, 999, 0, 2, 63, 58, 136, 171, 169, 112, 2, 2.28657
52, 1, wb, practice, NA, 999, 999, 0, 3, 151, 192, 132, 187, 125, 91, 3, 2.08173
52, 1, wb, practice, NA, 999, 999, 0, 3, 151, 192, 132, 187, 125, 91, 1, 1.94207
52, 1, wb, attraction, a-b-da, 2, 3, 1, 1, 195, 120, 193, 119, 120, 195, 1, 10.2623
52, 1, wb, attraction, a-b-da, 2, 3, 1, 1, 195, 120, 193, 119, 120, 195, 3, 1.84792
52, 1, wb, attraction, a-b-db, 14, 1, 1, 2, 56, 125, 135, 60, 60, 135, 1, 5.79517
52, 1, wb, attraction, a-b-db, 14, 1, 1, 2, 56, 125, 135, 60, 60, 135, 3, 0.792723
52, 1, wb, attraction, a-b-da, 9, 2, 1, 3, 90, 165, 165, 90, 157, 86, 3, 1.37425
52, 1, wb, attraction, a-b-da, 9, 2, 1, 3, 90, 165, 165, 90, 157, 86, 2, 1.53382
52, 1, wb, catch, NA, 999, 999, 1, 4, 125, 130, 127, 68, 157, 158, 2, 1.25401
52, 1, wb, catch, NA, 999, 999, 1, 4, 125, 130, 127, 68, 157, 158, 3, 0.779028
52, 1, wb, attraction, a-b-db, 5, 2, 1, 5, 90, 165, 88, 161, 165, 90, 2, 2.67327
52, 1, wb, attraction, a-b-db, 5, 2, 1, 5, 90, 165, 88, 161, 165, 90, 1, 1.37235
52, 1, wb, filler, NA, 999, 999, 1, 6, 172, 104, 118, 69, 87, 139, 2, 1.28323
52, 1, wb, filler, NA, 999, 999, 1, 6, 172, 104, 118, 69, 87, 139, 1, 0.454807
52, 1, wb, attraction, a-b-db, 2, 2, 1, 7, 89, 163, 90, 165, 165, 90, 3, 5.7227
52, 1, wb, attraction, a-b-db, 2, 2, 1, 7, 89, 163, 90, 165, 165, 90, 1, 1.42747
52, 1, wb, attraction, a-b-db, 9, 3, 1, 8, 120, 195, 195, 120, 114, 186, 3, 2.86373
52, 1, wb, attraction, a-b-db, 9, 3, 1, 8, 120, 195, 195, 120, 114, 186, 2, 0.915496
52, 1, wb, attraction, a-b-da, 5, 2, 1, 9, 161, 88, 165, 90, 90, 165, 1, 1.77237
52, 1, wb, attraction, a-b-da, 5, 2, 1, 9, 161, 88, 165, 90, 90, 165, 2, 1.30775
52, 1, wb, attraction, a-b-da, 9, 1, 1, 10, 135, 60, 129, 57, 60, 135, 1, 2.50868
52, 1, wb, attraction, a-b-da, 9, 1, 1, 10, 135, 60, 129, 57, 60, 135, 3, 1.09457
52, 1, wb, filler, NA, 999, 999, 1, 11, 98, 125, 180, 79, 174, 118, 1, 4.89616
52, 1, wb, filler, NA, 999, 999, 1, 11, 98, 125, 180, 79, 174, 118, 3, 1.74591
52, 1, wb, attraction, a-b-db, 14, 3, 1, 12, 111, 181, 195, 120, 120, 195, 1, 4.20928
52, 1, wb, attraction, a-b-db, 14, 3, 1, 12, 111, 181, 195, 120, 120, 195, 3, 1.05458
52, 1, wb, attraction, a-b-da, 2, 2, 1, 13, 163, 89, 90, 165, 165, 90, 1, 1.53825
52, 1, wb, attraction, a-b-da, 2, 2, 1, 13, 163, 89, 90, 165, 165, 90, 2, 1.30786
52, 1, wb, filler, NA, 999, 999, 1, 14, 164, 74, 190, 148, 175, 107, 1, 1.10852
52, 1, wb, filler, NA, 999, 999, 1, 14, 164, 74, 190, 148, 175, 107, 2, 0.854923
52, 1, wb, attraction, a-b-db, 2, 3, 1, 15, 195, 120, 120, 195, 119, 193, 1, 3.87462
52, 1, wb, attraction, a-b-db, 2, 3, 1, 15, 195, 120, 120, 195, 119, 193, 2, 3.79739
52, 1, wb, filler, NA, 999, 999, 1, 16, 101, 90, 84, 175, 61, 101, 3, 1.74605
52, 1, wb, filler, NA, 999, 999, 1, 16, 101, 90, 84, 175, 61, 101, 2, 0.986903
52, 1, wb, attraction, a-b-da, 14, 1, 1, 17, 125, 56, 60, 135, 135, 60, 3, 5.02515
52, 1, wb, attraction, a-b-da, 14, 1, 1, 17, 125, 56, 60, 135, 135, 60, 2, 1.16554
52, 1, wb, attraction, a-b-db, 5, 1, 1, 18, 135, 60, 60, 135, 58, 132, 3, 2.21243
52, 1, wb, attraction, a-b-db, 5, 1, 1, 18, 135, 60, 60, 135, 58, 132, 2, 0.946473
52, 1, wb, attraction, a-b-da, 14, 2, 1, 19, 90, 165, 165, 90, 153, 83, 3, 1.53807
52, 1, wb, attraction, a-b-da, 14, 2, 1, 19, 90, 165, 165, 90, 153, 83, 1, 2.25152
52, 1, wb, filler, NA, 999, 999, 1, 20, 146, 97, 189, 148, 186, 158, 1, 1.71884
52, 1, wb, filler, NA, 999, 999, 1, 20, 146, 97, 189, 148, 186, 158, 3, 1.48096
52, 1, wb, attraction, a-b-da, 2, 1, 1, 21, 60, 135, 135, 60, 134, 59, 1, 3.09097
52, 1, wb, attraction, a-b-da, 2, 1, 1, 21, 60, 135, 135, 60, 134, 59, 2, 1.57356
52, 1, wb, filler, NA, 999, 999, 1, 22, 165, 92, 76, 163, 154, 57, 3, 1.11604
52, 1, wb, filler, NA, 999, 999, 1, 22, 165, 92, 76, 163, 154, 57, 1, 0.854346
52, 1, wb, attraction, a-b-db, 5, 3, 1, 23, 117, 190, 120, 195, 195, 120, 1, 6.84229
52, 1, wb, attraction, a-b-db, 5, 3, 1, 23, 117, 190, 120, 195, 195, 120, 2, 2.78141
52, 1, wb, filler, NA, 999, 999, 1, 24, 105, 71, 184, 159, 124, 84, 1, 1.77896
52, 1, wb, filler, NA, 999, 999, 1, 24, 105, 71, 184, 159, 124, 84, 2, 1.04237
52, 1, wb, attraction, a-b-da, 5, 1, 1, 25, 132, 58, 135, 60, 60, 135, 1, 3.5742
52, 1, wb, attraction, a-b-da, 5, 1, 1, 25, 132, 58, 135, 60, 60, 135, 3, 1.533
52, 1, wb, filler, NA, 999, 999, 1, 26, 78, 168, 192, 131, 109, 150, 1, 1.09303
52, 1, wb, filler, NA, 999, 999, 1, 26, 78, 168, 192, 131, 109, 150, 2, 0.824022
52, 1, wb, attraction, a-b-db, 14, 2, 1, 27, 165, 90, 83, 153, 90, 165, 1, 6.74827
52, 1, wb, attraction, a-b-db, 14, 2, 1, 27, 165, 90, 83, 153, 90, 165, 3, 0.715519
52, 1, wb, filler, NA, 999, 999, 1, 28, 154, 153, 188, 102, 173, 107, 2, 2.27662
52, 1, wb, filler, NA, 999, 999, 1, 28, 154, 153, 188, 102, 173, 107, 1, 2.36791
52, 1, wb, attraction, a-b-da, 14, 3, 1, 29, 195, 120, 181, 111, 120, 195, 1, 1.36632
52, 1, wb, attraction, a-b-da, 14, 3, 1, 29, 195, 120, 181, 111, 120, 195, 3, 0.702628
52, 1, wb, attraction, a-b-da, 9, 3, 1, 30, 120, 195, 195, 120, 186, 114, 1, 1.7444
52, 1, wb, attraction, a-b-da, 9, 3, 1, 30, 120, 195, 195, 120, 186, 114, 2, 1.54504
52, 1, wb, attraction, a-b-db, 2, 1, 1, 31, 135, 60, 60, 135, 59, 134, 1, 2.10459
52, 1, wb, attraction, a-b-db, 2, 1, 1, 31, 135, 60, 60, 135, 59, 134, 3, 1.11458
52, 1, wb, catch, NA, 999, 999, 1, 32, 122, 193, 134, 61, 151, 104, 2, 1.87545
52, 1, wb, catch, NA, 999, 999, 1, 32, 122, 193, 134, 61, 151, 104, 1, 0.478774
52, 1, wb, attraction, a-b-db, 9, 2, 1, 33, 90, 165, 165, 90, 86, 157, 1, 1.27336
52, 1, wb, attraction, a-b-db, 9, 2, 1, 33, 90, 165, 165, 90, 86, 157, 3, 0.708876
52, 1, wb, attraction, a-b-da, 5, 3, 1, 34, 190, 117, 120, 195, 195, 120, 3, 2.34996
52, 1, wb, attraction, a-b-da, 5, 3, 1, 34, 190, 117, 120, 195, 195, 120, 2, 2.8625
52, 1, wb, filler, NA, 999, 999, 1, 35, 89, 184, 92, 193, 151, 192, 2, 2.24089
52, 1, wb, filler, NA, 999, 999, 1, 35, 89, 184, 92, 193, 151, 192, 3, 0.917498
52, 1, wb, attraction, a-b-db, 9, 1, 1, 36, 135, 60, 57, 129, 60, 135, 2, 1.33444
52, 1, wb, attraction, a-b-db, 9, 1, 1, 36, 135, 60, 57, 129, 60, 135, 3, 1.72799
52, 1, wb, catch, NA, 999, 999, 1, 37, 88, 107, 127, 188, 146, 109, 1, 0.952141
52, 1, wb, catch, NA, 999, 999, 1, 37, 88, 107, 127, 188, 146, 109, 2, 1.19306
52, 1, wb, attraction, a-b-db, 2, 2, 2, 1, 89, 163, 90, 165, 165, 90, 3, 2.81755
52, 1, wb, attraction, a-b-db, 2, 2, 2, 1, 89, 163, 90, 165, 165, 90, 2, 0.812462
52, 1, wb, catch, NA, 999, 999, 2, 2, 135, 120, 70, 125, 166, 149, 2, 1.08951
52, 1, wb, catch, NA, 999, 999, 2, 2, 135, 120, 70, 125, 166, 149, 3, 0.44444
52, 1, wb, attraction, a-b-db, 9, 1, 2, 3, 57, 129, 135, 60, 60, 135, 1, 3.13612
52, 1, wb, attraction, a-b-db, 9, 1, 2, 3, 57, 129, 135, 60, 60, 135, 3, 0.681151
52, 1, wb, attraction, a-b-da, 2, 1, 2, 4, 60, 135, 134, 59, 135, 60, 1, 1.48355
52, 1, wb, attraction, a-b-da, 2, 1, 2, 4, 60, 135, 134, 59, 135, 60, 2, 0.527077
52, 1, wb, attraction, a-b-da, 9, 2, 2, 5, 157, 86, 90, 165, 165, 90, 1, 8.32766
52, 1, wb, attraction, a-b-da, 9, 2, 2, 5, 157, 86, 90, 165, 165, 90, 2, 0.670884
52, 1, wb, attraction, a-b-da, 14, 2, 2, 6, 165, 90, 90, 165, 153, 83, 1, 4.41799
52, 1, wb, attraction, a-b-da, 14, 2, 2, 6, 165, 90, 90, 165, 153, 83, 2, 0.695362
52, 1, wb, filler, NA, 999, 999, 2, 7, 176, 93, 123, 126, 98, 184, 1, 4.68101
52, 1, wb, filler, NA, 999, 999, 2, 7, 176, 93, 123, 126, 98, 184, 2, 1.18749
52, 1, wb, attraction, a-b-da, 14, 3, 2, 8, 195, 120, 120, 195, 181, 111, 1, 3.35378
52, 1, wb, attraction, a-b-da, 14, 3, 2, 8, 195, 120, 120, 195, 181, 111, 2, 1.10606
52, 1, wb, attraction, a-b-db, 2, 1, 2, 9, 135, 60, 59, 134, 60, 135, 1, 2.36363
52, 1, wb, attraction, a-b-db, 2, 1, 2, 9, 135, 60, 59, 134, 60, 135, 2, 1.51552
52, 1, wb, attraction, a-b-da, 5, 1, 2, 10, 135, 60, 60, 135, 132, 58, 1, 2.85226
52, 1, wb, attraction, a-b-da, 5, 1, 2, 10, 135, 60, 60, 135, 132, 58, 2, 1.5768
52, 1, wb, filler, NA, 999, 999, 2, 11, 69, 108, 188, 105, 117, 61, 1, 1.10279
52, 1, wb, filler, NA, 999, 999, 2, 11, 69, 108, 188, 105, 117, 61, 2, 0.561737
52, 1, wb, attraction, a-b-da, 9, 1, 2, 12, 135, 60, 60, 135, 129, 57, 3, 2.21694
52, 1, wb, attraction, a-b-da, 9, 1, 2, 12, 135, 60, 60, 135, 129, 57, 2, 1.60691
52, 1, wb, attraction, a-b-db, 5, 1, 2, 13, 135, 60, 58, 132, 60, 135, 1, 1.75566
52, 1, wb, attraction, a-b-db, 5, 1, 2, 13, 135, 60, 58, 132, 60, 135, 2, 0.739684
52, 1, wb, filler, NA, 999, 999, 2, 14, 148, 192, 70, 168, 131, 67, 3, 1.44408
52, 1, wb, filler, NA, 999, 999, 2, 14, 148, 192, 70, 168, 131, 67, 1, 0.752942
52, 1, wb, filler, NA, 999, 999, 2, 15, 66, 117, 130, 67, 114, 172, 1, 1.01663
52, 1, wb, filler, NA, 999, 999, 2, 15, 66, 117, 130, 67, 114, 172, 3, 0.630976
52, 1, wb, attraction, a-b-db, 2, 3, 2, 16, 195, 120, 119, 193, 120, 195, 1, 0.979365
52, 1, wb, attraction, a-b-db, 2, 3, 2, 16, 195, 120, 119, 193, 120, 195, 3, 0.97105
52, 1, wb, attraction, a-b-da, 2, 3, 2, 17, 120, 195, 195, 120, 193, 119, 3, 0.770002
52, 1, wb, attraction, a-b-da, 2, 3, 2, 17, 120, 195, 195, 120, 193, 119, 1, 1.04237
52, 1, wb, filler, NA, 999, 999, 2, 18, 183, 60, 82, 84, 178, 60, 2, 0.838051
52, 1, wb, filler, NA, 999, 999, 2, 18, 183, 60, 82, 84, 178, 60, 1, 1.85905
52, 1, wb, attraction, a-b-da, 5, 2, 2, 19, 90, 165, 161, 88, 165, 90, 2, 0.941721
52, 1, wb, attraction, a-b-da, 5, 2, 2, 19, 90, 165, 161, 88, 165, 90, 3, 0.550761
52, 1, wb, filler, NA, 999, 999, 2, 20, 172, 56, 117, 187, 104, 161, 1, 1.50255
52, 1, wb, filler, NA, 999, 999, 2, 20, 172, 56, 117, 187, 104, 161, 2, 0.705362
52, 1, wb, attraction, a-b-db, 5, 2, 2, 21, 90, 165, 165, 90, 88, 161, 1, 2.99515
52, 1, wb, attraction, a-b-db, 5, 2, 2, 21, 90, 165, 165, 90, 88, 161, 2, 0.913404
52, 1, wb, filler, NA, 999, 999, 2, 22, 97, 194, 110, 147, 120, 194, 2, 1.19449
52, 1, wb, filler, NA, 999, 999, 2, 22, 97, 194, 110, 147, 120, 194, 3, 0.553349
52, 1, wb, filler, NA, 999, 999, 2, 23, 90, 67, 66, 59, 89, 190, 2, 0.801159
52, 1, wb, filler, NA, 999, 999, 2, 23, 90, 67, 66, 59, 89, 190, 3, 0.464215
52, 1, wb, attraction, a-b-da, 9, 3, 2, 24, 186, 114, 120, 195, 195, 120, 3, 1.75535
52, 1, wb, attraction, a-b-da, 9, 3, 2, 24, 186, 114, 120, 195, 195, 120, 2, 0.723473
52, 1, wb, attraction, a-b-da, 14, 1, 2, 25, 125, 56, 135, 60, 60, 135, 3, 1.16374
52, 1, wb, attraction, a-b-da, 14, 1, 2, 25, 125, 56, 135, 60, 60, 135, 1, 1.26006
52, 1, wb, filler, NA, 999, 999, 2, 26, 66, 183, 71, 92, 126, 138, 2, 1.09498
52, 1, wb, filler, NA, 999, 999, 2, 26, 66, 183, 71, 92, 126, 138, 3, 0.609985
52, 1, wb, attraction, a-b-db, 14, 1, 2, 27, 56, 125, 60, 135, 135, 60, 1, 1.20699
52, 1, wb, attraction, a-b-db, 14, 1, 2, 27, 56, 125, 60, 135, 135, 60, 2, 0.93352
52, 1, wb, attraction, a-b-db, 14, 3, 2, 28, 111, 181, 120, 195, 195, 120, 3, 1.26163
52, 1, wb, attraction, a-b-db, 14, 3, 2, 28, 111, 181, 120, 195, 195, 120, 2, 1.04984
52, 1, wb, attraction, a-b-db, 9, 2, 2, 29, 165, 90, 90, 165, 86, 157, 3, 1.01355
52, 1, wb, attraction, a-b-db, 9, 2, 2, 29, 165, 90, 90, 165, 86, 157, 1, 0.915856
52, 1, wb, attraction, a-b-db, 14, 2, 2, 30, 83, 153, 165, 90, 90, 165, 3, 2.24483
52, 1, wb, attraction, a-b-db, 14, 2, 2, 30, 83, 153, 165, 90, 90, 165, 2, 3.44145
52, 1, wb, attraction, a-b-db, 9, 3, 2, 31, 120, 195, 114, 186, 195, 120, 2, 1.36422
52, 1, wb, attraction, a-b-db, 9, 3, 2, 31, 120, 195, 114, 186, 195, 120, 3, 1.00444
52, 1, wb, filler, NA, 999, 999, 2, 32, 97, 172, 160, 88, 123, 100, 3, 1.85812
52, 1, wb, filler, NA, 999, 999, 2, 32, 97, 172, 160, 88, 123, 100, 2, 0.710233
52, 1, wb, attraction, a-b-da, 5, 3, 2, 33, 190, 117, 195, 120, 120, 195, 1, 2.72763
52, 1, wb, attraction, a-b-da, 5, 3, 2, 33, 190, 117, 195, 120, 120, 195, 2, 0.780796
52, 1, wb, catch, NA, 999, 999, 2, 34, 98, 157, 166, 149, 124, 71, 3, 2.59841
52, 1, wb, catch, NA, 999, 999, 2, 34, 98, 157, 166, 149, 124, 71, 2, 0.643305
52, 1, wb, catch, NA, 999, 999, 2, 35, 160, 95, 154, 161, 130, 65, 3, 2.02496
52, 1, wb, catch, NA, 999, 999, 2, 35, 160, 95, 154, 161, 130, 65, 2, 0.814296
52, 1, wb, attraction, a-b-db, 5, 3, 2, 36, 195, 120, 117, 190, 120, 195, 1, 5.93937
52, 1, wb, attraction, a-b-db, 5, 3, 2, 36, 195, 120, 117, 190, 120, 195, 3, 0.787366
52, 1, wb, attraction, a-b-da, 2, 2, 2, 37, 90, 165, 165, 90, 163, 89, 1, 1.33769
52, 1, wb, attraction, a-b-da, 2, 2, 2, 37, 90, 165, 165, 90, 163, 89, 2, 1.68331
52, 1, wb, filler, NA, 999, 999, 3, 1, 133, 155, 162, 69, 147, 155, 2, 1.86141
52, 1, wb, filler, NA, 999, 999, 3, 1, 133, 155, 162, 69, 147, 155, 3, 0.545486
52, 1, wb, filler, NA, 999, 999, 3, 2, 171, 76, 124, 149, 190, 188, 1, 3.18519
52, 1, wb, filler, NA, 999, 999, 3, 2, 171, 76, 124, 149, 190, 188, 3, 1.28022
52, 1, wb, attraction, a-b-da, 9, 2, 3, 3, 90, 165, 157, 86, 165, 90, 3, 1.75439
52, 1, wb, attraction, a-b-da, 9, 2, 3, 3, 90, 165, 157, 86, 165, 90, 1, 0.659207
52, 1, wb, attraction, a-b-db, 5, 2, 3, 4, 165, 90, 90, 165, 88, 161, 1, 1.63824
52, 1, wb, attraction, a-b-db, 5, 2, 3, 4, 165, 90, 90, 165, 88, 161, 2, 0.707755
52, 1, wb, attraction, a-b-db, 14, 3, 3, 5, 120, 195, 195, 120, 111, 181, 3, 0.885164
52, 1, wb, attraction, a-b-db, 14, 3, 3, 5, 120, 195, 195, 120, 111, 181, 2, 0.472498
52, 1, wb, filler, NA, 999, 999, 3, 6, 94, 89, 75, 90, 93, 136, 2, 0.723541
52, 1, wb, filler, NA, 999, 999, 3, 6, 94, 89, 75, 90, 93, 136, 3, 0.877307
52, 1, wb, attraction, a-b-db, 14, 2, 3, 7, 83, 153, 90, 165, 165, 90, 2, 1.55965
52, 1, wb, attraction, a-b-db, 14, 2, 3, 7, 83, 153, 90, 165, 165, 90, 3, 0.527758
52, 1, wb, attraction, a-b-da, 14, 1, 3, 8, 60, 135, 125, 56, 135, 60, 2, 0.968273
52, 1, wb, attraction, a-b-da, 14, 1, 3, 8, 60, 135, 125, 56, 135, 60, 3, 0.992614
52, 1, wb, attraction, a-b-da, 5, 1, 3, 9, 132, 58, 135, 60, 60, 135, 2, 0.742245
52, 1, wb, attraction, a-b-da, 5, 1, 3, 9, 132, 58, 135, 60, 60, 135, 1, 1.20739
52, 1, wb, attraction, a-b-da, 2, 3, 3, 10, 195, 120, 193, 119, 120, 195, 2, 1.18021
52, 1, wb, attraction, a-b-da, 2, 3, 3, 10, 195, 120, 193, 119, 120, 195, 3, 1.61186
52, 1, wb, filler, NA, 999, 999, 3, 11, 74, 91, 116, 143, 161, 136, 1, 1.08854
52, 1, wb, filler, NA, 999, 999, 3, 11, 74, 91, 116, 143, 161, 136, 3, 0.843635
52, 1, wb, attraction, a-b-db, 2, 1, 3, 12, 59, 134, 60, 135, 135, 60, 3, 2.82321
52, 1, wb, attraction, a-b-db, 2, 1, 3, 12, 59, 134, 60, 135, 135, 60, 2, 1.03641
52, 1, wb, attraction, a-b-db, 2, 3, 3, 13, 195, 120, 119, 193, 120, 195, 3, 1.46482
52, 1, wb, attraction, a-b-db, 2, 3, 3, 13, 195, 120, 119, 193, 120, 195, 1, 0.684711
52, 1, wb, attraction, a-b-da, 14, 2, 3, 14, 153, 83, 90, 165, 165, 90, 1, 2.91927
52, 1, wb, attraction, a-b-da, 14, 2, 3, 14, 153, 83, 90, 165, 165, 90, 2, 0.584852
52, 1, wb, attraction, a-b-da, 2, 2, 3, 15, 163, 89, 165, 90, 90, 165, 1, 3.28737
52, 1, wb, attraction, a-b-da, 2, 2, 3, 15, 163, 89, 165, 90, 90, 165, 3, 1.37029
52, 1, wb, attraction, a-b-db, 5, 3, 3, 16, 120, 195, 117, 190, 195, 120, 1, 1.78517
52, 1, wb, attraction, a-b-db, 5, 3, 3, 16, 120, 195, 117, 190, 195, 120, 3, 1.16852
52, 1, wb, attraction, a-b-db, 9, 3, 3, 17, 114, 186, 120, 195, 195, 120, 1, 0.943437
52, 1, wb, attraction, a-b-db, 9, 3, 3, 17, 114, 186, 120, 195, 195, 120, 2, 0.768385
52, 1, wb, catch, NA, 999, 999, 3, 18, 78, 117, 187, 128, 152, 103, 1, 0.839398
52, 1, wb, catch, NA, 999, 999, 3, 18, 78, 117, 187, 128, 152, 103, 2, 0.548474
52, 1, wb, attraction, a-b-da, 5, 2, 3, 19, 90, 165, 165, 90, 161, 88, 3, 0.804289
52, 1, wb, attraction, a-b-da, 5, 2, 3, 19, 90, 165, 165, 90, 161, 88, 1, 0.970646
52, 1, wb, filler, NA, 999, 999, 3, 20, 99, 164, 163, 174, 171, 92, 1, 1.88163
52, 1, wb, filler, NA, 999, 999, 3, 20, 99, 164, 163, 174, 171, 92, 2, 0.748978
52, 1, wb, attraction, a-b-da, 9, 1, 3, 21, 135, 60, 129, 57, 60, 135, 1, 1.30876
52, 1, wb, attraction, a-b-da, 9, 1, 3, 21, 135, 60, 129, 57, 60, 135, 3, 0.958981
52, 1, wb, attraction, a-b-da, 2, 1, 3, 22, 60, 135, 135, 60, 134, 59, 1, 4.42188
52, 1, wb, attraction, a-b-da, 2, 1, 3, 22, 60, 135, 135, 60, 134, 59, 2, 0.891296
52, 1, wb, attraction, a-b-da, 5, 3, 3, 23, 190, 117, 120, 195, 195, 120, 1, 1.04482
52, 1, wb, attraction, a-b-da, 5, 3, 3, 23, 190, 117, 120, 195, 195, 120, 3, 0.80982
52, 1, wb, catch, NA, 999, 999, 3, 24, 124, 131, 174, 141, 71, 124, 3, 1.09486
52, 1, wb, catch, NA, 999, 999, 3, 24, 124, 131, 174, 141, 71, 124, 2, 0.729977
52, 1, wb, filler, NA, 999, 999, 3, 25, 166, 103, 81, 131, 93, 90, 3, 1.07416
52, 1, wb, filler, NA, 999, 999, 3, 25, 166, 103, 81, 131, 93, 90, 1, 0.549774
52, 1, wb, filler, NA, 999, 999, 3, 26, 59, 139, 193, 89, 124, 118, 1, 0.94972
52, 1, wb, filler, NA, 999, 999, 3, 26, 59, 139, 193, 89, 124, 118, 2, 0.478606
52, 1, wb, attraction, a-b-db, 2, 2, 3, 27, 165, 90, 89, 163, 90, 165, 1, 0.697084
52, 1, wb, attraction, a-b-db, 2, 2, 3, 27, 165, 90, 89, 163, 90, 165, 2, 0.508144
52, 1, wb, attraction, a-b-db, 9, 1, 3, 28, 57, 129, 60, 135, 135, 60, 1, 0.949455
52, 1, wb, attraction, a-b-db, 9, 1, 3, 28, 57, 129, 60, 135, 135, 60, 2, 0.758315
52, 1, wb, attraction, a-b-da, 9, 3, 3, 29, 186, 114, 120, 195, 195, 120, 2, 0.901381
52, 1, wb, attraction, a-b-da, 9, 3, 3, 29, 186, 114, 120, 195, 195, 120, 3, 0.504408
52, 1, wb, attraction, a-b-db, 14, 1, 3, 30, 135, 60, 56, 125, 60, 135, 1, 0.826174
52, 1, wb, attraction, a-b-db, 14, 1, 3, 30, 135, 60, 56, 125, 60, 135, 2, 1.14391
52, 1, wb, filler, NA, 999, 999, 3, 31, 187, 144, 64, 116, 166, 119, 2, 0.599473
52, 1, wb, filler, NA, 999, 999, 3, 31, 187, 144, 64, 116, 166, 119, 1, 0.430667
52, 1, wb, filler, NA, 999, 999, 3, 32, 114, 108, 165, 121, 121, 154, 1, 1.92298
52, 1, wb, filler, NA, 999, 999, 3, 32, 114, 108, 165, 121, 121, 154, 2, 0.316341
52, 1, wb, catch, NA, 999, 999, 3, 33, 161, 154, 92, 103, 151, 104, 2, 1.78164
52, 1, wb, catch, NA, 999, 999, 3, 33, 161, 154, 92, 103, 151, 104, 1, 0.254562
52, 1, wb, filler, NA, 999, 999, 3, 34, 90, 170, 71, 184, 99, 147, 2, 1.68888
52, 1, wb, filler, NA, 999, 999, 3, 34, 90, 170, 71, 184, 99, 147, 3, 0.224084
52, 1, wb, attraction, a-b-da, 14, 3, 3, 35, 120, 195, 195, 120, 181, 111, 3, 1.66422
52, 1, wb, attraction, a-b-da, 14, 3, 3, 35, 120, 195, 195, 120, 181, 111, 1, 0.72113
52, 1, wb, attraction, a-b-db, 9, 2, 3, 36, 165, 90, 90, 165, 86, 157, 1, 2.03734
52, 1, wb, attraction, a-b-db, 9, 2, 3, 36, 165, 90, 90, 165, 86, 157, 2, 1.09447
52, 1, wb, attraction, a-b-db, 5, 1, 3, 37, 60, 135, 58, 132, 135, 60, 2, 3.46838
52, 1, wb, attraction, a-b-db, 5, 1, 3, 37, 60, 135, 58, 132, 135, 60, 3, 0.29911
52, 1, wb, catch, NA, 999, 999, 4, 1, 106, 149, 172, 143, 116, 79, 3, 1.10567
52, 1, wb, catch, NA, 999, 999, 4, 1, 106, 149, 172, 143, 116, 79, 2, 0.372619
52, 1, wb, attraction, a-b-db, 5, 3, 4, 2, 195, 120, 120, 195, 117, 190, 2, 2.02663
52, 1, wb, attraction, a-b-db, 5, 3, 4, 2, 195, 120, 120, 195, 117, 190, 1, 0.681104
52, 1, wb, attraction, a-b-da, 5, 1, 4, 3, 132, 58, 60, 135, 135, 60, 2, 1.93818
52, 1, wb, attraction, a-b-da, 5, 1, 4, 3, 132, 58, 60, 135, 135, 60, 3, 0.503573
52, 1, wb, filler, NA, 999, 999, 4, 4, 106, 137, 148, 60, 79, 193, 2, 1.16542
52, 1, wb, filler, NA, 999, 999, 4, 4, 106, 137, 148, 60, 79, 193, 3, 1.45237
52, 1, wb, attraction, a-b-da, 5, 2, 4, 5, 161, 88, 165, 90, 90, 165, 2, 1.74521
52, 1, wb, attraction, a-b-da, 5, 2, 4, 5, 161, 88, 165, 90, 90, 165, 3, 0.539208
52, 1, wb, attraction, a-b-db, 5, 1, 4, 6, 60, 135, 135, 60, 58, 132, 2, 1.19369
52, 1, wb, attraction, a-b-db, 5, 1, 4, 6, 60, 135, 135, 60, 58, 132, 3, 0.40476
52, 1, wb, attraction, a-b-db, 14, 2, 4, 7, 83, 153, 165, 90, 90, 165, 2, 1.08643
52, 1, wb, attraction, a-b-db, 14, 2, 4, 7, 83, 153, 165, 90, 90, 165, 3, 1.36885
52, 1, wb, filler, NA, 999, 999, 4, 8, 70, 116, 149, 108, 91, 163, 1, 1.38495
52, 1, wb, filler, NA, 999, 999, 4, 8, 70, 116, 149, 108, 91, 163, 2, 0.537775
52, 1, wb, filler, NA, 999, 999, 4, 9, 162, 64, 134, 138, 127, 154, 1, 0.936896
52, 1, wb, filler, NA, 999, 999, 4, 9, 162, 64, 134, 138, 127, 154, 3, 0.494624
52, 1, wb, catch, NA, 999, 999, 4, 10, 129, 186, 79, 116, 153, 102, 2, 0.916273
52, 1, wb, catch, NA, 999, 999, 4, 10, 129, 186, 79, 116, 153, 102, 1, 0.617313
52, 1, wb, attraction, a-b-da, 14, 2, 4, 11, 90, 165, 165, 90, 153, 83, 2, 8.10779
52, 1, wb, attraction, a-b-da, 14, 2, 4, 11, 90, 165, 165, 90, 153, 83, 3, 0.819922
52, 1, wb, attraction, a-b-da, 2, 2, 4, 12, 163, 89, 90, 165, 165, 90, 2, 1.55307
52, 1, wb, attraction, a-b-da, 2, 2, 4, 12, 163, 89, 90, 165, 165, 90, 3, 0.558559
52, 1, wb, catch, NA, 999, 999, 4, 13, 113, 142, 79, 116, 193, 122, 2, 0.496832
52, 1, wb, catch, NA, 999, 999, 4, 13, 113, 142, 79, 116, 193, 122, 3, 0.468081
52, 1, wb, attraction, a-b-db, 5, 2, 4, 14, 90, 165, 165, 90, 88, 161, 2, 1.0791
52, 1, wb, attraction, a-b-db, 5, 2, 4, 14, 90, 165, 165, 90, 88, 161, 1, 0.458767
52, 1, wb, attraction, a-b-db, 14, 3, 4, 15, 111, 181, 120, 195, 195, 120, 2, 0.717865
52, 1, wb, attraction, a-b-db, 14, 3, 4, 15, 111, 181, 120, 195, 195, 120, 3, 0.376337
52, 1, wb, attraction, a-b-da, 9, 1, 4, 16, 60, 135, 135, 60, 129, 57, 2, 0.82778
52, 1, wb, attraction, a-b-da, 9, 1, 4, 16, 60, 135, 135, 60, 129, 57, 3, 1.3965
52, 1, wb, attraction, a-b-db, 9, 2, 4, 17, 86, 157, 90, 165, 165, 90, 2, 3.69802
52, 1, wb, attraction, a-b-db, 9, 2, 4, 17, 86, 157, 90, 165, 165, 90, 3, 0.604346
52, 1, wb, attraction, a-b-da, 2, 1, 4, 18, 135, 60, 134, 59, 60, 135, 3, 5.20996
52, 1, wb, attraction, a-b-da, 2, 1, 4, 18, 135, 60, 134, 59, 60, 135, 2, 0.431063
52, 1, wb, attraction, a-b-db, 2, 1, 4, 19, 59, 134, 135, 60, 60, 135, 3, 1.0435
52, 1, wb, attraction, a-b-db, 2, 1, 4, 19, 59, 134, 135, 60, 60, 135, 2, 0.520395
52, 1, wb, attraction, a-b-da, 14, 1, 4, 20, 60, 135, 125, 56, 135, 60, 3, 1.29747
52, 1, wb, attraction, a-b-da, 14, 1, 4, 20, 60, 135, 125, 56, 135, 60, 2, 0.182633
52, 1, wb, attraction, a-b-db, 9, 1, 4, 21, 135, 60, 57, 129, 60, 135, 2, 0.930926
52, 1, wb, attraction, a-b-db, 9, 1, 4, 21, 135, 60, 57, 129, 60, 135, 1, 0.277222
52, 1, wb, attraction, a-b-db, 2, 2, 4, 22, 89, 163, 90, 165, 165, 90, 1, 1.43109
52, 1, wb, attraction, a-b-db, 2, 2, 4, 22, 89, 163, 90, 165, 165, 90, 3, 0.68545
52, 1, wb, attraction, a-b-db, 9, 3, 4, 23, 114, 186, 195, 120, 120, 195, 1, 0.687118
52, 1, wb, attraction, a-b-db, 9, 3, 4, 23, 114, 186, 195, 120, 120, 195, 2, 0.363603
52, 1, wb, filler, NA, 999, 999, 4, 24, 100, 128, 109, 106, 67, 155, 2, 2.434
52, 1, wb, filler, NA, 999, 999, 4, 24, 100, 128, 109, 106, 67, 155, 1, 0.331221
52, 1, wb, attraction, a-b-da, 5, 3, 4, 25, 120, 195, 190, 117, 195, 120, 2, 1.16774
52, 1, wb, attraction, a-b-da, 5, 3, 4, 25, 120, 195, 190, 117, 195, 120, 3, 0.213848
52, 1, wb, attraction, a-b-da, 9, 2, 4, 26, 90, 165, 165, 90, 157, 86, 2, 0.749259
52, 1, wb, attraction, a-b-da, 9, 2, 4, 26, 90, 165, 165, 90, 157, 86, 1, 0.944025
52, 1, wb, filler, NA, 999, 999, 4, 27, 123, 97, 105, 98, 94, 60, 3, 0.773986
52, 1, wb, filler, NA, 999, 999, 4, 27, 123, 97, 105, 98, 94, 60, 1, 0.40411
52, 1, wb, filler, NA, 999, 999, 4, 28, 165, 75, 99, 87, 152, 95, 2, 1.25947
52, 1, wb, filler, NA, 999, 999, 4, 28, 165, 75, 99, 87, 152, 95, 3, 0.412721
52, 1, wb, attraction, a-b-da, 2, 3, 4, 29, 195, 120, 193, 119, 120, 195, 3, 0.844914
52, 1, wb, attraction, a-b-da, 2, 3, 4, 29, 195, 120, 193, 119, 120, 195, 2, 0.174789
52, 1, wb, filler, NA, 999, 999, 4, 30, 170, 63, 153, 152, 119, 188, 1, 0.952504
52, 1, wb, filler, NA, 999, 999, 4, 30, 170, 63, 153, 152, 119, 188, 3, 0.282022
52, 1, wb, attraction, a-b-da, 9, 3, 4, 31, 186, 114, 120, 195, 195, 120, 2, 1.04402
52, 1, wb, attraction, a-b-da, 9, 3, 4, 31, 186, 114, 120, 195, 195, 120, 1, 0.307076
52, 1, wb, filler, NA, 999, 999, 4, 32, 59, 122, 173, 191, 122, 155, 1, 1.16217
52, 1, wb, filler, NA, 999, 999, 4, 32, 59, 122, 173, 191, 122, 155, 2, 1.22098
52, 1, wb, attraction, a-b-db, 2, 3, 4, 33, 120, 195, 119, 193, 195, 120, 2, 0.831431
52, 1, wb, attraction, a-b-db, 2, 3, 4, 33, 120, 195, 119, 193, 195, 120, 3, 0.521528
52, 1, wb, attraction, a-b-da, 14, 3, 4, 34, 181, 111, 120, 195, 195, 120, 1, 0.630104
52, 1, wb, attraction, a-b-da, 14, 3, 4, 34, 181, 111, 120, 195, 195, 120, 3, 0.881107
52, 1, wb, filler, NA, 999, 999, 4, 35, 186, 170, 71, 102, 191, 117, 2, 0.670286
52, 1, wb, filler, NA, 999, 999, 4, 35, 186, 170, 71, 102, 191, 117, 1, 0.394015
52, 1, wb, filler, NA, 999, 999, 4, 36, 72, 108, 161, 177, 172, 88, 1, 0.92058
52, 1, wb, filler, NA, 999, 999, 4, 36, 72, 108, 161, 177, 172, 88, 2, 0.290847
52, 1, wb, attraction, a-b-db, 14, 1, 4, 37, 60, 135, 56, 125, 135, 60, 2, 1.56467
52, 1, wb, attraction, a-b-db, 14, 1, 4, 37, 60, 135, 56, 125, 135, 60, 3, 0.35687
52, 1, wb, attraction, a-b-db, 9, 2, 5, 1, 90, 165, 86, 157, 165, 90, 2, 2.84266
52, 1, wb, attraction, a-b-db, 9, 2, 5, 1, 90, 165, 86, 157, 165, 90, 1, 2.23113
52, 1, wb, attraction, a-b-db, 14, 3, 5, 2, 195, 120, 111, 181, 120, 195, 3, 0.731145
52, 1, wb, attraction, a-b-db, 14, 3, 5, 2, 195, 120, 111, 181, 120, 195, 2, 1.3647
52, 1, wb, filler, NA, 999, 999, 5, 3, 81, 77, 91, 190, 145, 70, 1, 0.787694
52, 1, wb, filler, NA, 999, 999, 5, 3, 81, 77, 91, 190, 145, 70, 2, 0.475377
52, 1, wb, attraction, a-b-da, 14, 2, 5, 4, 165, 90, 153, 83, 90, 165, 3, 0.797767
52, 1, wb, attraction, a-b-da, 14, 2, 5, 4, 165, 90, 153, 83, 90, 165, 1, 0.468881
52, 1, wb, filler, NA, 999, 999, 5, 5, 132, 128, 125, 65, 77, 195, 2, 0.687939
52, 1, wb, filler, NA, 999, 999, 5, 5, 132, 128, 125, 65, 77, 195, 1, 0.36297
52, 1, wb, filler, NA, 999, 999, 5, 6, 131, 104, 100, 190, 174, 121, 1, 1.10632
52, 1, wb, filler, NA, 999, 999, 5, 6, 131, 104, 100, 190, 174, 121, 3, 0.580508
52, 1, wb, filler, NA, 999, 999, 5, 7, 129, 100, 186, 191, 166, 163, 1, 0.642873
52, 1, wb, filler, NA, 999, 999, 5, 7, 129, 100, 186, 191, 166, 163, 2, 0.424059
52, 1, wb, filler, NA, 999, 999, 5, 8, 122, 165, 81, 165, 102, 105, 3, 1.58848
52, 1, wb, filler, NA, 999, 999, 5, 8, 122, 165, 81, 165, 102, 105, 1, 0.603313
52, 1, wb, catch, NA, 999, 999, 5, 9, 162, 93, 61, 134, 131, 184, 2, 0.945071
52, 1, wb, catch, NA, 999, 999, 5, 9, 162, 93, 61, 134, 131, 184, 3, 0.458107
52, 1, wb, attraction, a-b-db, 5, 3, 5, 10, 195, 120, 120, 195, 117, 190, 3, 0.7731
52, 1, wb, attraction, a-b-db, 5, 3, 5, 10, 195, 120, 120, 195, 117, 190, 1, 1.35691
52, 1, wb, attraction, a-b-da, 2, 1, 5, 11, 135, 60, 134, 59, 60, 135, 3, 1.32378
52, 1, wb, attraction, a-b-da, 2, 1, 5, 11, 135, 60, 134, 59, 60, 135, 2, 0.893393
52, 1, wb, attraction, a-b-da, 2, 3, 5, 12, 193, 119, 195, 120, 120, 195, 3, 1.70299
52, 1, wb, attraction, a-b-da, 2, 3, 5, 12, 193, 119, 195, 120, 120, 195, 2, 0.809961
52, 1, wb, attraction, a-b-db, 2, 2, 5, 13, 90, 165, 89, 163, 165, 90, 3, 1.39087
52, 1, wb, attraction, a-b-db, 2, 2, 5, 13, 90, 165, 89, 163, 165, 90, 1, 0.629726
52, 1, wb, filler, NA, 999, 999, 5, 14, 93, 122, 148, 182, 128, 140, 1, 1.16205
52, 1, wb, filler, NA, 999, 999, 5, 14, 93, 122, 148, 182, 128, 140, 2, 0.634264
52, 1, wb, filler, NA, 999, 999, 5, 15, 71, 156, 87, 69, 115, 73, 2, 0.998748
52, 1, wb, filler, NA, 999, 999, 5, 15, 71, 156, 87, 69, 115, 73, 1, 1.23769
52, 1, wb, attraction, a-b-da, 9, 2, 5, 16, 165, 90, 90, 165, 157, 86, 1, 1.66593
52, 1, wb, attraction, a-b-da, 9, 2, 5, 16, 165, 90, 90, 165, 157, 86, 3, 3.43808
52, 1, wb, attraction, a-b-da, 2, 2, 5, 17, 90, 165, 163, 89, 165, 90, 3, 0.713581
52, 1, wb, attraction, a-b-da, 2, 2, 5, 17, 90, 165, 163, 89, 165, 90, 2, 0.708066
52, 1, wb, attraction, a-b-da, 14, 3, 5, 18, 195, 120, 181, 111, 120, 195, 3, 0.861081
52, 1, wb, attraction, a-b-da, 14, 3, 5, 18, 195, 120, 181, 111, 120, 195, 1, 0.401446
52, 1, wb, attraction, a-b-db, 14, 1, 5, 19, 56, 125, 135, 60, 60, 135, 2, 0.8713
52, 1, wb, attraction, a-b-db, 14, 1, 5, 19, 56, 125, 135, 60, 60, 135, 3, 0.979022
52, 1, wb, attraction, a-b-da, 5, 3, 5, 20, 195, 120, 190, 117, 120, 195, 3, 0.841197
52, 1, wb, attraction, a-b-da, 5, 3, 5, 20, 195, 120, 190, 117, 120, 195, 1, 0.790253
52, 1, wb, attraction, a-b-db, 9, 3, 5, 21, 195, 120, 120, 195, 114, 186, 3, 0.88414
52, 1, wb, attraction, a-b-db, 9, 3, 5, 21, 195, 120, 120, 195, 114, 186, 1, 0.783662
52, 1, wb, attraction, a-b-da, 9, 3, 5, 22, 120, 195, 195, 120, 186, 114, 2, 0.694239
52, 1, wb, attraction, a-b-da, 9, 3, 5, 22, 120, 195, 195, 120, 186, 114, 3, 0.921164
52, 1, wb, filler, NA, 999, 999, 5, 23, 65, 169, 181, 174, 166, 118, 1, 0.978313
52, 1, wb, filler, NA, 999, 999, 5, 23, 65, 169, 181, 174, 166, 118, 2, 0.761796
52, 1, wb, attraction, a-b-da, 9, 1, 5, 24, 129, 57, 135, 60, 60, 135, 1, 10.2009
52, 1, wb, attraction, a-b-da, 9, 1, 5, 24, 129, 57, 135, 60, 60, 135, 3, 0.74906
52, 1, wb, filler, NA, 999, 999, 5, 25, 68, 95, 97, 170, 89, 117, 1, 1.41269
52, 1, wb, filler, NA, 999, 999, 5, 25, 68, 95, 97, 170, 89, 117, 2, 0.978985
52, 1, wb, filler, NA, 999, 999, 5, 26, 171, 154, 170, 104, 176, 163, 2, 2.9611
52, 1, wb, filler, NA, 999, 999, 5, 26, 171, 154, 170, 104, 176, 163, 3, 0.952851
52, 1, wb, attraction, a-b-da, 5, 2, 5, 27, 161, 88, 165, 90, 90, 165, 3, 2.44058
52, 1, wb, attraction, a-b-da, 5, 2, 5, 27, 161, 88, 165, 90, 90, 165, 1, 0.485193
52, 1, wb, attraction, a-b-db, 5, 1, 5, 28, 135, 60, 58, 132, 60, 135, 2, 0.92758
52, 1, wb, attraction, a-b-db, 5, 1, 5, 28, 135, 60, 58, 132, 60, 135, 1, 1.1133
52, 1, wb, attraction, a-b-db, 9, 1, 5, 29, 57, 129, 60, 135, 135, 60, 1, 10.5382
52, 1, wb, attraction, a-b-db, 9, 1, 5, 29, 57, 129, 60, 135, 135, 60, 2, 0.592809
52, 1, wb, attraction, a-b-db, 5, 2, 5, 30, 88, 161, 90, 165, 165, 90, 3, 0.726539
52, 1, wb, attraction, a-b-db, 5, 2, 5, 30, 88, 161, 90, 165, 165, 90, 1, 0.784281
52, 1, wb, attraction, a-b-db, 2, 3, 5, 31, 195, 120, 120, 195, 119, 193, 3, 0.838729
52, 1, wb, attraction, a-b-db, 2, 3, 5, 31, 195, 120, 120, 195, 119, 193, 1, 0.571822
52, 1, wb, catch, NA, 999, 999, 5, 32, 87, 108, 127, 188, 98, 157, 1, 0.722855
52, 1, wb, catch, NA, 999, 999, 5, 32, 87, 108, 127, 188, 98, 157, 2, 0.948604
52, 1, wb, attraction, a-b-da, 14, 1, 5, 33, 125, 56, 135, 60, 60, 135, 2, 0.612169
52, 1, wb, attraction, a-b-da, 14, 1, 5, 33, 125, 56, 135, 60, 60, 135, 1, 0.770743
52, 1, wb, attraction, a-b-da, 5, 1, 5, 34, 135, 60, 132, 58, 60, 135, 2, 1.01778
52, 1, wb, attraction, a-b-da, 5, 1, 5, 34, 135, 60, 132, 58, 60, 135, 1, 1.44012
52, 1, wb, catch, NA, 999, 999, 5, 35, 106, 89, 138, 117, 149, 166, 1, 5.40423
52, 1, wb, catch, NA, 999, 999, 5, 35, 106, 89, 138, 117, 149, 166, 3, 0.50579
52, 1, wb, attraction, a-b-db, 14, 2, 5, 36, 90, 165, 83, 153, 165, 90, 2, 0.787602
52, 1, wb, attraction, a-b-db, 14, 2, 5, 36, 90, 165, 83, 153, 165, 90, 3, 0.979319
52, 1, wb, attraction, a-b-db, 2, 1, 5, 37, 60, 135, 135, 60, 59, 134, 2, 0.937609
52, 1, wb, attraction, a-b-db, 2, 1, 5, 37, 60, 135, 135, 60, 59, 134, 1, 2.16332
52, 1, wb, attraction, a-b-db, 14, 2, 6, 1, 165, 90, 90, 165, 83, 153, 3, 2.31395
52, 1, wb, attraction, a-b-db, 14, 2, 6, 1, 165, 90, 90, 165, 83, 153, 1, 0.747809
52, 1, wb, attraction, a-b-db, 14, 1, 6, 2, 135, 60, 56, 125, 60, 135, 2, 1.26753
52, 1, wb, attraction, a-b-db, 14, 1, 6, 2, 135, 60, 56, 125, 60, 135, 3, 2.99977
52, 1, wb, filler, NA, 999, 999, 6, 3, 153, 171, 154, 76, 182, 59, 3, 1.6368
52, 1, wb, filler, NA, 999, 999, 6, 3, 153, 171, 154, 76, 182, 59, 1, 2.89031
52, 1, wb, filler, NA, 999, 999, 6, 4, 127, 110, 171, 74, 99, 132, 3, 1.35598
52, 1, wb, filler, NA, 999, 999, 6, 4, 127, 110, 171, 74, 99, 132, 1, 0.748143
52, 1, wb, filler, NA, 999, 999, 6, 5, 180, 66, 128, 133, 193, 73, 1, 0.859877
52, 1, wb, filler, NA, 999, 999, 6, 5, 180, 66, 128, 133, 193, 73, 2, 1.40826
52, 1, wb, attraction, a-b-da, 2, 1, 6, 6, 135, 60, 60, 135, 134, 59, 1, 1.55713
52, 1, wb, attraction, a-b-da, 2, 1, 6, 6, 135, 60, 60, 135, 134, 59, 2, 0.421214
52, 1, wb, filler, NA, 999, 999, 6, 7, 188, 76, 85, 145, 172, 69, 1, 0.722378
52, 1, wb, filler, NA, 999, 999, 6, 7, 188, 76, 85, 145, 172, 69, 2, 2.0465
52, 1, wb, attraction, a-b-db, 5, 1, 6, 8, 135, 60, 60, 135, 58, 132, 1, 0.919365
52, 1, wb, attraction, a-b-db, 5, 1, 6, 8, 135, 60, 60, 135, 58, 132, 2, 2.49946
52, 1, wb, attraction, a-b-db, 14, 3, 6, 9, 120, 195, 195, 120, 111, 181, 1, 1.32302
52, 1, wb, attraction, a-b-db, 14, 3, 6, 9, 120, 195, 195, 120, 111, 181, 2, 0.460485
52, 1, wb, catch, NA, 999, 999, 6, 10, 136, 119, 190, 125, 63, 132, 3, 1.01567
52, 1, wb, catch, NA, 999, 999, 6, 10, 136, 119, 190, 125, 63, 132, 2, 2.45457
52, 1, wb, attraction, a-b-da, 14, 2, 6, 11, 165, 90, 90, 165, 153, 83, 1, 9.76924
52, 1, wb, attraction, a-b-da, 14, 2, 6, 11, 165, 90, 90, 165, 153, 83, 2, 0.926709
52, 1, wb, attraction, a-b-da, 9, 3, 6, 12, 195, 120, 186, 114, 120, 195, 3, 1.47907
52, 1, wb, attraction, a-b-da, 9, 3, 6, 12, 195, 120, 186, 114, 120, 195, 2, 0.314554
52, 1, wb, catch, NA, 999, 999, 6, 13, 115, 140, 92, 103, 154, 161, 2, 0.659787
52, 1, wb, catch, NA, 999, 999, 6, 13, 115, 140, 92, 103, 154, 161, 3, 0.336252
52, 1, wb, attraction, a-b-db, 9, 2, 6, 14, 86, 157, 90, 165, 165, 90, 3, 1.0487
52, 1, wb, attraction, a-b-db, 9, 2, 6, 14, 86, 157, 90, 165, 165, 90, 1, 0.429683
52, 1, wb, attraction, a-b-db, 2, 2, 6, 15, 90, 165, 89, 163, 165, 90, 3, 0.60214
52, 1, wb, attraction, a-b-db, 2, 2, 6, 15, 90, 165, 89, 163, 165, 90, 2, 0.345228
52, 1, wb, attraction, a-b-da, 5, 2, 6, 16, 90, 165, 161, 88, 165, 90, 1, 0.665067
52, 1, wb, attraction, a-b-da, 5, 2, 6, 16, 90, 165, 161, 88, 165, 90, 2, 0.365417
52, 1, wb, attraction, a-b-db, 9, 3, 6, 17, 114, 186, 195, 120, 120, 195, 3, 0.844633
52, 1, wb, attraction, a-b-db, 9, 3, 6, 17, 114, 186, 195, 120, 120, 195, 2, 0.313833
52, 1, wb, filler, NA, 999, 999, 6, 18, 103, 125, 153, 163, 174, 157, 1, 0.523011
52, 1, wb, filler, NA, 999, 999, 6, 18, 103, 125, 153, 163, 174, 157, 2, 0.292799
52, 1, wb, attraction, a-b-da, 14, 3, 6, 19, 120, 195, 195, 120, 181, 111, 3, 0.822613
52, 1, wb, attraction, a-b-da, 14, 3, 6, 19, 120, 195, 195, 120, 181, 111, 1, 0.356233
52, 1, wb, attraction, a-b-db, 2, 1, 6, 20, 59, 134, 60, 135, 135, 60, 3, 1.40405
52, 1, wb, attraction, a-b-db, 2, 1, 6, 20, 59, 134, 60, 135, 135, 60, 2, 0.362925
52, 1, wb, filler, NA, 999, 999, 6, 21, 64, 174, 63, 153, 142, 181, 2, 0.522102
52, 1, wb, filler, NA, 999, 999, 6, 21, 64, 174, 63, 153, 142, 181, 3, 0.372018
52, 1, wb, attraction, a-b-da, 2, 3, 6, 22, 120, 195, 195, 120, 193, 119, 2, 1.29109
52, 1, wb, attraction, a-b-da, 2, 3, 6, 22, 120, 195, 195, 120, 193, 119, 1, 0.309944
52, 1, wb, attraction, a-b-da, 5, 3, 6, 23, 120, 195, 195, 120, 190, 117, 1, 1.00728
52, 1, wb, attraction, a-b-da, 5, 3, 6, 23, 120, 195, 195, 120, 190, 117, 2, 0.397579
52, 1, wb, attraction, a-b-db, 9, 1, 6, 24, 57, 129, 60, 135, 135, 60, 2, 2.56326
52, 1, wb, attraction, a-b-db, 9, 1, 6, 24, 57, 129, 60, 135, 135, 60, 3, 1.19512
52, 1, wb, attraction, a-b-da, 5, 1, 6, 25, 135, 60, 132, 58, 60, 135, 2, 1.48871
52, 1, wb, attraction, a-b-da, 5, 1, 6, 25, 135, 60, 132, 58, 60, 135, 1, 1.48347
52, 1, wb, attraction, a-b-da, 9, 2, 6, 26, 157, 86, 90, 165, 165, 90, 3, 7.91771
52, 1, wb, attraction, a-b-da, 9, 2, 6, 26, 157, 86, 90, 165, 165, 90, 2, 1.2139
52, 1, wb, filler, NA, 999, 999, 6, 27, 99, 120, 169, 126, 89, 150, 1, 1.05875
52, 1, wb, filler, NA, 999, 999, 6, 27, 99, 120, 169, 126, 89, 150, 2, 0.439044
52, 1, wb, attraction, a-b-da, 9, 1, 6, 28, 135, 60, 60, 135, 129, 57, 3, 0.915534
52, 1, wb, attraction, a-b-da, 9, 1, 6, 28, 135, 60, 60, 135, 129, 57, 2, 0.685941
52, 1, wb, attraction, a-b-da, 14, 1, 6, 29, 125, 56, 135, 60, 60, 135, 1, 1.21627
52, 1, wb, attraction, a-b-da, 14, 1, 6, 29, 125, 56, 135, 60, 60, 135, 2, 0.446585
52, 1, wb, attraction, a-b-db, 2, 3, 6, 30, 119, 193, 195, 120, 120, 195, 3, 1.05038
52, 1, wb, attraction, a-b-db, 2, 3, 6, 30, 119, 193, 195, 120, 120, 195, 2, 0.687318
52, 1, wb, attraction, a-b-db, 5, 3, 6, 31, 120, 195, 117, 190, 195, 120, 3, 0.761664
52, 1, wb, attraction, a-b-db, 5, 3, 6, 31, 120, 195, 117, 190, 195, 120, 2, 0.754177
52, 1, wb, filler, NA, 999, 999, 6, 32, 126, 151, 185, 141, 95, 64, 3, 1.01788
52, 1, wb, filler, NA, 999, 999, 6, 32, 126, 151, 185, 141, 95, 64, 2, 0.520223
52, 1, wb, catch, NA, 999, 999, 6, 33, 93, 102, 106, 149, 122, 193, 1, 1.25743
52, 1, wb, catch, NA, 999, 999, 6, 33, 93, 102, 106, 149, 122, 193, 3, 1.2296
52, 1, wb, filler, NA, 999, 999, 6, 34, 177, 168, 194, 118, 67, 100, 3, 1.08974
52, 1, wb, filler, NA, 999, 999, 6, 34, 177, 168, 194, 118, 67, 100, 1, 1.15673
52, 1, wb, attraction, a-b-da, 2, 2, 6, 35, 90, 165, 165, 90, 163, 89, 1, 1.41171
52, 1, wb, attraction, a-b-da, 2, 2, 6, 35, 90, 165, 165, 90, 163, 89, 2, 1.16191
52, 1, wb, attraction, a-b-db, 5, 2, 6, 36, 165, 90, 88, 161, 90, 165, 1, 4.40884
52, 1, wb, attraction, a-b-db, 5, 2, 6, 36, 165, 90, 88, 161, 90, 165, 2, 1.13398
52, 1, wb, filler, NA, 999, 999, 6, 37, 149, 178, 66, 133, 69, 136, 2, 2.29428
52, 1, wb, filler, NA, 999, 999, 6, 37, 149, 178, 66, 133, 69, 136, 1, 3.28103
52, 1, wb, attraction, a-b-da, 14, 1, 7, 1, 60, 135, 125, 56, 135, 60, 1, 1.25046
52, 1, wb, attraction, a-b-da, 14, 1, 7, 1, 60, 135, 125, 56, 135, 60, 2, 0.895402
52, 1, wb, attraction, a-b-da, 2, 1, 7, 2, 134, 59, 60, 135, 135, 60, 1, 1.03305
52, 1, wb, attraction, a-b-da, 2, 1, 7, 2, 134, 59, 60, 135, 135, 60, 2, 0.782681
52, 1, wb, attraction, a-b-da, 9, 1, 7, 3, 135, 60, 129, 57, 60, 135, 3, 0.781003
52, 1, wb, attraction, a-b-da, 9, 1, 7, 3, 135, 60, 129, 57, 60, 135, 1, 0.796708
52, 1, wb, attraction, a-b-da, 5, 3, 7, 4, 195, 120, 190, 117, 120, 195, 3, 1.0744
52, 1, wb, attraction, a-b-da, 5, 3, 7, 4, 195, 120, 190, 117, 120, 195, 1, 0.774106
52, 1, wb, attraction, a-b-da, 14, 3, 7, 5, 120, 195, 181, 111, 195, 120, 3, 0.644417
52, 1, wb, attraction, a-b-da, 14, 3, 7, 5, 120, 195, 181, 111, 195, 120, 2, 0.417559
52, 1, wb, attraction, a-b-db, 14, 3, 7, 6, 195, 120, 120, 195, 111, 181, 3, 0.598739
52, 1, wb, attraction, a-b-db, 14, 3, 7, 6, 195, 120, 120, 195, 111, 181, 1, 0.78984
52, 1, wb, attraction, a-b-db, 9, 3, 7, 7, 120, 195, 195, 120, 114, 186, 3, 0.516159
52, 1, wb, attraction, a-b-db, 9, 3, 7, 7, 120, 195, 195, 120, 114, 186, 2, 0.414623
52, 1, wb, attraction, a-b-db, 14, 1, 7, 8, 60, 135, 135, 60, 56, 125, 3, 0.611774
52, 1, wb, attraction, a-b-db, 14, 1, 7, 8, 60, 135, 135, 60, 56, 125, 1, 0.746214
52, 1, wb, filler, NA, 999, 999, 7, 9, 104, 88, 112, 193, 96, 102, 3, 2.62611
52, 1, wb, filler, NA, 999, 999, 7, 9, 104, 88, 112, 193, 96, 102, 2, 0.567171
52, 1, wb, attraction, a-b-db, 2, 1, 7, 10, 135, 60, 60, 135, 59, 134, 3, 0.774194
52, 1, wb, attraction, a-b-db, 2, 1, 7, 10, 135, 60, 60, 135, 59, 134, 2, 0.869911
52, 1, wb, filler, NA, 999, 999, 7, 11, 145, 71, 87, 139, 102, 66, 3, 1.10506
52, 1, wb, filler, NA, 999, 999, 7, 11, 145, 71, 87, 139, 102, 66, 2, 1.31527
52, 1, wb, filler, NA, 999, 999, 7, 12, 161, 114, 190, 178, 177, 78, 3, 1.78008
52, 1, wb, filler, NA, 999, 999, 7, 12, 161, 114, 190, 178, 177, 78, 2, 0.923499
52, 1, wb, filler, NA, 999, 999, 7, 13, 112, 149, 163, 103, 128, 130, 2, 1.15589
52, 1, wb, filler, NA, 999, 999, 7, 13, 112, 149, 163, 103, 128, 130, 3, 0.644076
52, 1, wb, attraction, a-b-db, 5, 2, 7, 14, 90, 165, 88, 161, 165, 90, 2, 0.831745
52, 1, wb, attraction, a-b-db, 5, 2, 7, 14, 90, 165, 88, 161, 165, 90, 3, 1.78165
52, 1, wb, attraction, a-b-db, 2, 2, 7, 15, 89, 163, 90, 165, 165, 90, 2, 0.795624
52, 1, wb, attraction, a-b-db, 2, 2, 7, 15, 89, 163, 90, 165, 165, 90, 1, 1.02667
52, 1, wb, attraction, a-b-db, 9, 2, 7, 16, 165, 90, 90, 165, 86, 157, 2, 2.27089
52, 1, wb, attraction, a-b-db, 9, 2, 7, 16, 165, 90, 90, 165, 86, 157, 1, 0.402851
52, 1, wb, attraction, a-b-da, 2, 2, 7, 17, 90, 165, 165, 90, 163, 89, 3, 0.904645
52, 1, wb, attraction, a-b-da, 2, 2, 7, 17, 90, 165, 165, 90, 163, 89, 2, 0.59582
52, 1, wb, attraction, a-b-da, 5, 1, 7, 18, 60, 135, 132, 58, 135, 60, 3, 0.697467
52, 1, wb, attraction, a-b-da, 5, 1, 7, 18, 60, 135, 132, 58, 135, 60, 1, 0.564504
52, 1, wb, filler, NA, 999, 999, 7, 19, 74, 58, 142, 162, 115, 60, 1, 1.25162
52, 1, wb, filler, NA, 999, 999, 7, 19, 74, 58, 142, 162, 115, 60, 2, 0.40055
52, 1, wb, filler, NA, 999, 999, 7, 20, 78, 133, 185, 115, 159, 165, 1, 0.838559
52, 1, wb, filler, NA, 999, 999, 7, 20, 78, 133, 185, 115, 159, 165, 3, 0.451495
52, 1, wb, attraction, a-b-db, 9, 1, 7, 21, 57, 129, 60, 135, 135, 60, 1, 2.40734
52, 1, wb, attraction, a-b-db, 9, 1, 7, 21, 57, 129, 60, 135, 135, 60, 2, 0.549169
52, 1, wb, attraction, a-b-da, 9, 2, 7, 22, 90, 165, 157, 86, 165, 90, 2, 1.03693
52, 1, wb, attraction, a-b-da, 9, 2, 7, 22, 90, 165, 157, 86, 165, 90, 3, 0.402671
52, 1, wb, attraction, a-b-db, 5, 3, 7, 23, 195, 120, 120, 195, 117, 190, 2, 0.616323
52, 1, wb, attraction, a-b-db, 5, 3, 7, 23, 195, 120, 120, 195, 117, 190, 1, 0.622822
52, 1, wb, filler, NA, 999, 999, 7, 24, 181, 194, 94, 122, 83, 82, 3, 1.284
52, 1, wb, filler, NA, 999, 999, 7, 24, 181, 194, 94, 122, 83, 82, 1, 0.391461
52, 1, wb, attraction, a-b-db, 5, 1, 7, 25, 135, 60, 60, 135, 58, 132, 1, 1.65331
52, 1, wb, attraction, a-b-db, 5, 1, 7, 25, 135, 60, 60, 135, 58, 132, 2, 0.890014
52, 1, wb, attraction, a-b-db, 2, 3, 7, 26, 195, 120, 120, 195, 119, 193, 3, 1.74839
52, 1, wb, attraction, a-b-db, 2, 3, 7, 26, 195, 120, 120, 195, 119, 193, 2, 0.989198
52, 1, wb, attraction, a-b-da, 2, 3, 7, 27, 120, 195, 193, 119, 195, 120, 3, 0.67554
52, 1, wb, attraction, a-b-da, 2, 3, 7, 27, 120, 195, 193, 119, 195, 120, 2, 0.399315
52, 1, wb, catch, NA, 999, 999, 7, 28, 101, 154, 181, 134, 116, 79, 3, 1.04516
52, 1, wb, catch, NA, 999, 999, 7, 28, 101, 154, 181, 134, 116, 79, 2, 0.650004
52, 1, wb, filler, NA, 999, 999, 7, 29, 127, 68, 119, 157, 179, 165, 1, 0.933783
52, 1, wb, filler, NA, 999, 999, 7, 29, 127, 68, 119, 157, 179, 165, 3, 0.687458
52, 1, wb, filler, NA, 999, 999, 7, 30, 62, 176, 103, 104, 111, 180, 2, 4.34596
52, 1, wb, filler, NA, 999, 999, 7, 30, 62, 176, 103, 104, 111, 180, 3, 0.777851
52, 1, wb, filler, NA, 999, 999, 7, 31, 164, 62, 119, 75, 135, 99, 2, 0.85617
52, 1, wb, filler, NA, 999, 999, 7, 31, 164, 62, 119, 75, 135, 99, 3, 2.11656
52, 1, wb, attraction, a-b-da, 5, 2, 7, 32, 165, 90, 161, 88, 90, 165, 2, 1.75716
52, 1, wb, attraction, a-b-da, 5, 2, 7, 32, 165, 90, 161, 88, 90, 165, 1, 0.46924
52, 1, wb, attraction, a-b-db, 14, 2, 7, 33, 165, 90, 90, 165, 83, 153, 2, 2.40838
52, 1, wb, attraction, a-b-db, 14, 2, 7, 33, 165, 90, 90, 165, 83, 153, 1, 0.358279
52, 1, wb, catch, NA, 999, 999, 7, 34, 67, 128, 137, 118, 182, 133, 2, 0.941417
52, 1, wb, catch, NA, 999, 999, 7, 34, 67, 128, 137, 118, 182, 133, 3, 3.25453
52, 1, wb, catch, NA, 999, 999, 7, 35, 161, 94, 72, 123, 143, 172, 2, 0.857523
52, 1, wb, catch, NA, 999, 999, 7, 35, 161, 94, 72, 123, 143, 172, 3, 1.23771
52, 1, wb, attraction, a-b-da, 14, 2, 7, 36, 165, 90, 90, 165, 153, 83, 3, 2.80996
52, 1, wb, attraction, a-b-da, 14, 2, 7, 36, 165, 90, 90, 165, 153, 83, 1, 0.54374
52, 1, wb, attraction, a-b-da, 9, 3, 7, 37, 186, 114, 195, 120, 120, 195, 2, 0.695552
52, 1, wb, attraction, a-b-da, 9, 3, 7, 37, 186, 114, 195, 120, 120, 195, 1, 0.530575
52, 1, wb, attraction, a-b-db, 5, 1, 8, 1, 135, 60, 60, 135, 58, 132, 2, 1.14707
52, 1, wb, attraction, a-b-db, 5, 1, 8, 1, 135, 60, 60, 135, 58, 132, 1, 0.404166
52, 1, wb, attraction, a-b-db, 2, 2, 8, 2, 89, 163, 165, 90, 90, 165, 2, 0.521778
52, 1, wb, attraction, a-b-db, 2, 2, 8, 2, 89, 163, 165, 90, 90, 165, 1, 0.51574
52, 1, wb, attraction, a-b-da, 5, 1, 8, 3, 60, 135, 135, 60, 132, 58, 3, 0.700666
52, 1, wb, attraction, a-b-da, 5, 1, 8, 3, 60, 135, 135, 60, 132, 58, 2, 0.375898
52, 1, wb, attraction, a-b-da, 5, 2, 8, 4, 161, 88, 90, 165, 165, 90, 1, 0.734346
52, 1, wb, attraction, a-b-da, 5, 2, 8, 4, 161, 88, 90, 165, 165, 90, 3, 0.767986
52, 1, wb, filler, NA, 999, 999, 8, 5, 176, 132, 129, 149, 85, 136, 3, 0.903074
52, 1, wb, filler, NA, 999, 999, 8, 5, 176, 132, 129, 149, 85, 136, 1, 0.842233
52, 1, wb, attraction, a-b-da, 2, 2, 8, 6, 90, 165, 163, 89, 165, 90, 2, 1.69375
52, 1, wb, attraction, a-b-da, 2, 2, 8, 6, 90, 165, 163, 89, 165, 90, 3, 0.808642
52, 1, wb, attraction, a-b-db, 2, 3, 8, 7, 195, 120, 120, 195, 119, 193, 3, 6.90159
52, 1, wb, attraction, a-b-db, 2, 3, 8, 7, 195, 120, 120, 195, 119, 193, 2, 0.486855
52, 1, wb, attraction, a-b-da, 9, 1, 8, 8, 60, 135, 135, 60, 129, 57, 3, 1.00117
52, 1, wb, attraction, a-b-da, 9, 1, 8, 8, 60, 135, 135, 60, 129, 57, 2, 0.99219
52, 1, wb, attraction, a-b-da, 9, 2, 8, 9, 157, 86, 165, 90, 90, 165, 3, 0.701802
52, 1, wb, attraction, a-b-da, 9, 2, 8, 9, 157, 86, 165, 90, 90, 165, 2, 0.528865
52, 1, wb, attraction, a-b-db, 9, 3, 8, 10, 195, 120, 120, 195, 114, 186, 3, 0.601388
52, 1, wb, attraction, a-b-db, 9, 3, 8, 10, 195, 120, 120, 195, 114, 186, 2, 0.43249
52, 1, wb, attraction, a-b-db, 14, 3, 8, 11, 120, 195, 111, 181, 195, 120, 3, 0.645036
52, 1, wb, attraction, a-b-db, 14, 3, 8, 11, 120, 195, 111, 181, 195, 120, 1, 0.585952
52, 1, wb, filler, NA, 999, 999, 8, 12, 80, 181, 190, 153, 174, 74, 3, 0.776361
52, 1, wb, filler, NA, 999, 999, 8, 12, 80, 181, 190, 153, 174, 74, 2, 0.352203
52, 1, wb, filler, NA, 999, 999, 8, 13, 140, 96, 159, 100, 175, 122, 2, 0.672001
52, 1, wb, filler, NA, 999, 999, 8, 13, 140, 96, 159, 100, 175, 122, 3, 0.347857
52, 1, wb, attraction, a-b-db, 2, 1, 8, 14, 135, 60, 59, 134, 60, 135, 3, 1.2196
52, 1, wb, attraction, a-b-db, 2, 1, 8, 14, 135, 60, 59, 134, 60, 135, 2, 0.713812
52, 1, wb, catch, NA, 999, 999, 8, 15, 188, 127, 69, 126, 100, 155, 2, 1.05091
52, 1, wb, catch, NA, 999, 999, 8, 15, 188, 127, 69, 126, 100, 155, 1, 0.344017
52, 1, wb, filler, NA, 999, 999, 8, 16, 129, 105, 79, 64, 71, 133, 2, 0.783725
52, 1, wb, filler, NA, 999, 999, 8, 16, 129, 105, 79, 64, 71, 133, 1, 0.643229
52, 1, wb, filler, NA, 999, 999, 8, 17, 195, 138, 56, 103, 107, 107, 2, 1.02718
52, 1, wb, filler, NA, 999, 999, 8, 17, 195, 138, 56, 103, 107, 107, 1, 0.648872
52, 1, wb, attraction, a-b-db, 5, 2, 8, 18, 88, 161, 90, 165, 165, 90, 3, 0.81268
52, 1, wb, attraction, a-b-db, 5, 2, 8, 18, 88, 161, 90, 165, 165, 90, 1, 0.570939
52, 1, wb, filler, NA, 999, 999, 8, 19, 91, 165, 128, 156, 192, 147, 2, 0.53803
52, 1, wb, filler, NA, 999, 999, 8, 19, 91, 165, 128, 156, 192, 147, 3, 0.42786
52, 1, wb, catch, NA, 999, 999, 8, 20, 68, 127, 190, 125, 148, 107, 1, 0.848306
52, 1, wb, catch, NA, 999, 999, 8, 20, 68, 127, 190, 125, 148, 107, 2, 0.917333
52, 1, wb, filler, NA, 999, 999, 8, 21, 180, 148, 105, 144, 84, 127, 1, 2.64631
52, 1, wb, filler, NA, 999, 999, 8, 21, 180, 148, 105, 144, 84, 127, 2, 2.41894
52, 1, wb, attraction, a-b-da, 14, 1, 8, 22, 125, 56, 60, 135, 135, 60, 1, 1.26336
52, 1, wb, attraction, a-b-da, 14, 1, 8, 22, 125, 56, 60, 135, 135, 60, 2, 0.723755
52, 1, wb, filler, NA, 999, 999, 8, 23, 178, 188, 102, 133, 133, 57, 3, 1.18809
52, 1, wb, filler, NA, 999, 999, 8, 23, 178, 188, 102, 133, 133, 57, 1, 0.386953
52, 1, wb, attraction, a-b-da, 9, 3, 8, 24, 186, 114, 120, 195, 195, 120, 1, 0.985449
52, 1, wb, attraction, a-b-da, 9, 3, 8, 24, 186, 114, 120, 195, 195, 120, 2, 1.04924
52, 1, wb, attraction, a-b-da, 14, 3, 8, 25, 181, 111, 120, 195, 195, 120, 1, 0.908763
52, 1, wb, attraction, a-b-da, 14, 3, 8, 25, 181, 111, 120, 195, 195, 120, 2, 0.391165
52, 1, wb, filler, NA, 999, 999, 8, 26, 121, 75, 80, 165, 149, 165, 1, 0.484834
52, 1, wb, filler, NA, 999, 999, 8, 26, 121, 75, 80, 165, 149, 165, 3, 0.736819
52, 1, wb, attraction, a-b-db, 14, 1, 8, 27, 135, 60, 60, 135, 56, 125, 3, 1.20912
52, 1, wb, attraction, a-b-db, 14, 1, 8, 27, 135, 60, 60, 135, 56, 125, 1, 0.679307
52, 1, wb, attraction, a-b-da, 2, 1, 8, 28, 135, 60, 134, 59, 60, 135, 2, 0.681674
52, 1, wb, attraction, a-b-da, 2, 1, 8, 28, 135, 60, 134, 59, 60, 135, 1, 0.661598
52, 1, wb, filler, NA, 999, 999, 8, 29, 102, 66, 186, 135, 124, 79, 1, 0.936507
52, 1, wb, filler, NA, 999, 999, 8, 29, 102, 66, 186, 135, 124, 79, 2, 0.354517
52, 1, wb, catch, NA, 999, 999, 8, 30, 125, 130, 141, 174, 69, 126, 3, 0.626033
52, 1, wb, catch, NA, 999, 999, 8, 30, 125, 130, 141, 174, 69, 126, 2, 0.375844
52, 1, wb, attraction, a-b-da, 14, 2, 8, 31, 165, 90, 153, 83, 90, 165, 2, 1.3423
52, 1, wb, attraction, a-b-da, 14, 2, 8, 31, 165, 90, 153, 83, 90, 165, 3, 0.551177
52, 1, wb, attraction, a-b-db, 9, 2, 8, 32, 90, 165, 86, 157, 165, 90, 2, 0.743
52, 1, wb, attraction, a-b-db, 9, 2, 8, 32, 90, 165, 86, 157, 165, 90, 3, 0.432038
52, 1, wb, attraction, a-b-db, 14, 2, 8, 33, 83, 153, 90, 165, 165, 90, 1, 0.764533
52, 1, wb, attraction, a-b-db, 14, 2, 8, 33, 83, 153, 90, 165, 165, 90, 2, 0.428947
52, 1, wb, attraction, a-b-db, 5, 3, 8, 34, 117, 190, 195, 120, 120, 195, 1, 1.00139
52, 1, wb, attraction, a-b-db, 5, 3, 8, 34, 117, 190, 195, 120, 120, 195, 2, 0.440522
52, 1, wb, attraction, a-b-da, 2, 3, 8, 35, 193, 119, 195, 120, 120, 195, 1, 1.88425
52, 1, wb, attraction, a-b-da, 2, 3, 8, 35, 193, 119, 195, 120, 120, 195, 2, 1.47164
52, 1, wb, attraction, a-b-da, 5, 3, 8, 36, 120, 195, 190, 117, 195, 120, 1, 0.930433
52, 1, wb, attraction, a-b-da, 5, 3, 8, 36, 120, 195, 190, 117, 195, 120, 3, 3.09214
52, 1, wb, attraction, a-b-db, 9, 1, 8, 37, 57, 129, 60, 135, 135, 60, 2, 0.973153
52, 1, wb, attraction, a-b-db, 9, 1, 8, 37, 57, 129, 60, 135, 135, 60, 3, 0.652896
