sub_n, computer_n, bw_cond, effect, set, distance, diag, block_n, trial_n, h1, w1, h2, w2, h3, w3, choice, rt 
67, 1, bw, practice, NA, 999, 999, 0, 1, 186, 104, 130, 97, 150, 141, 3, 5.37893
67, 1, bw, practice, NA, 999, 999, 0, 1, 186, 104, 130, 97, 150, 141, 2, 1.91841
67, 1, bw, practice, NA, 999, 999, 0, 2, 180, 107, 134, 157, 107, 109, 2, 4.02812
67, 1, bw, practice, NA, 999, 999, 0, 2, 180, 107, 134, 157, 107, 109, 3, 1.26749
67, 1, bw, practice, NA, 999, 999, 0, 3, 119, 78, 173, 122, 88, 188, 2, 3.08837
67, 1, bw, practice, NA, 999, 999, 0, 3, 119, 78, 173, 122, 88, 188, 1, 1.34309
67, 1, bw, attraction, a-b-db, 9, 1, 1, 1, 60, 135, 57, 129, 135, 60, 1, 4.56956
67, 1, bw, attraction, a-b-db, 9, 1, 1, 1, 60, 135, 57, 129, 135, 60, 3, 1.40874
67, 1, bw, filler, NA, 999, 999, 1, 2, 76, 171, 171, 108, 114, 174, 3, 2.70162
67, 1, bw, filler, NA, 999, 999, 1, 2, 76, 171, 171, 108, 114, 174, 1, 1.06407
67, 1, bw, attraction, a-b-db, 14, 3, 1, 3, 195, 120, 111, 181, 120, 195, 3, 2.78705
67, 1, bw, attraction, a-b-db, 14, 3, 1, 3, 195, 120, 111, 181, 120, 195, 2, 0.922044
67, 1, bw, attraction, a-b-db, 2, 2, 1, 4, 89, 163, 165, 90, 90, 165, 3, 2.08306
67, 1, bw, attraction, a-b-db, 2, 2, 1, 4, 89, 163, 165, 90, 90, 165, 2, 0.878458
67, 1, bw, filler, NA, 999, 999, 1, 5, 126, 66, 193, 161, 136, 154, 2, 1.08082
67, 1, bw, filler, NA, 999, 999, 1, 5, 126, 66, 193, 161, 136, 154, 1, 1.03649
67, 1, bw, attraction, a-b-da, 9, 1, 1, 6, 129, 57, 135, 60, 60, 135, 3, 2.39256
67, 1, bw, attraction, a-b-da, 9, 1, 1, 6, 129, 57, 135, 60, 60, 135, 1, 1.12717
67, 1, bw, attraction, a-b-db, 14, 2, 1, 7, 83, 153, 90, 165, 165, 90, 2, 2.94358
67, 1, bw, attraction, a-b-db, 14, 2, 1, 7, 83, 153, 90, 165, 165, 90, 1, 1.05605
67, 1, bw, attraction, a-b-db, 14, 1, 1, 8, 56, 125, 135, 60, 60, 135, 3, 2.86742
67, 1, bw, attraction, a-b-db, 14, 1, 1, 8, 56, 125, 135, 60, 60, 135, 1, 0.911191
67, 1, bw, attraction, a-b-db, 5, 1, 1, 9, 58, 132, 135, 60, 60, 135, 3, 1.72039
67, 1, bw, attraction, a-b-db, 5, 1, 1, 9, 58, 132, 135, 60, 60, 135, 2, 0.786417
67, 1, bw, attraction, a-b-da, 5, 2, 1, 10, 165, 90, 161, 88, 90, 165, 3, 4.2487
67, 1, bw, attraction, a-b-da, 5, 2, 1, 10, 165, 90, 161, 88, 90, 165, 2, 1.42064
67, 1, bw, filler, NA, 999, 999, 1, 11, 184, 172, 111, 163, 114, 193, 1, 1.18549
67, 1, bw, filler, NA, 999, 999, 1, 11, 184, 172, 111, 163, 114, 193, 2, 0.977406
67, 1, bw, attraction, a-b-da, 2, 3, 1, 12, 193, 119, 195, 120, 120, 195, 3, 1.41551
67, 1, bw, attraction, a-b-da, 2, 3, 1, 12, 193, 119, 195, 120, 120, 195, 1, 3.12555
67, 1, bw, attraction, a-b-da, 14, 1, 1, 13, 135, 60, 60, 135, 125, 56, 2, 5.16523
67, 1, bw, attraction, a-b-da, 14, 1, 1, 13, 135, 60, 60, 135, 125, 56, 3, 0.676277
67, 1, bw, attraction, a-b-db, 9, 3, 1, 14, 114, 186, 120, 195, 195, 120, 2, 1.78264
67, 1, bw, attraction, a-b-db, 9, 3, 1, 14, 114, 186, 120, 195, 195, 120, 3, 0.558057
67, 1, bw, filler, NA, 999, 999, 1, 15, 63, 93, 103, 174, 183, 146, 3, 1.22916
67, 1, bw, filler, NA, 999, 999, 1, 15, 63, 93, 103, 174, 183, 146, 1, 0.738747
67, 1, bw, attraction, a-b-db, 5, 3, 1, 16, 195, 120, 120, 195, 117, 190, 2, 1.69105
67, 1, bw, attraction, a-b-db, 5, 3, 1, 16, 195, 120, 120, 195, 117, 190, 1, 0.605916
67, 1, bw, attraction, a-b-db, 9, 2, 1, 17, 86, 157, 90, 165, 165, 90, 2, 1.83564
67, 1, bw, attraction, a-b-db, 9, 2, 1, 17, 86, 157, 90, 165, 165, 90, 3, 0.897039
67, 1, bw, filler, NA, 999, 999, 1, 18, 91, 98, 67, 115, 113, 114, 3, 1.9387
67, 1, bw, filler, NA, 999, 999, 1, 18, 91, 98, 67, 115, 113, 114, 2, 1.13953
67, 1, bw, catch, NA, 999, 999, 1, 19, 101, 94, 160, 155, 141, 114, 2, 0.883729
67, 1, bw, catch, NA, 999, 999, 1, 19, 101, 94, 160, 155, 141, 114, 1, 0.975348
67, 1, bw, attraction, a-b-da, 14, 3, 1, 20, 195, 120, 120, 195, 181, 111, 2, 1.14979
67, 1, bw, attraction, a-b-da, 14, 3, 1, 20, 195, 120, 120, 195, 181, 111, 3, 0.782551
67, 1, bw, attraction, a-b-db, 2, 1, 1, 21, 60, 135, 135, 60, 59, 134, 3, 2.07701
67, 1, bw, attraction, a-b-db, 2, 1, 1, 21, 60, 135, 135, 60, 59, 134, 2, 0.672323
67, 1, bw, attraction, a-b-da, 5, 1, 1, 22, 132, 58, 60, 135, 135, 60, 2, 2.63539
67, 1, bw, attraction, a-b-da, 5, 1, 1, 22, 132, 58, 60, 135, 135, 60, 1, 0.952487
67, 1, bw, attraction, a-b-da, 9, 3, 1, 23, 195, 120, 120, 195, 186, 114, 2, 2.08018
67, 1, bw, attraction, a-b-da, 9, 3, 1, 23, 195, 120, 120, 195, 186, 114, 3, 0.85155
67, 1, bw, attraction, a-b-da, 9, 2, 1, 24, 165, 90, 157, 86, 90, 165, 3, 2.47926
67, 1, bw, attraction, a-b-da, 9, 2, 1, 24, 165, 90, 157, 86, 90, 165, 2, 0.594397
67, 1, bw, attraction, a-b-da, 5, 3, 1, 25, 190, 117, 195, 120, 120, 195, 3, 3.45613
67, 1, bw, attraction, a-b-da, 5, 3, 1, 25, 190, 117, 195, 120, 120, 195, 1, 0.571657
67, 1, bw, attraction, a-b-db, 5, 2, 1, 26, 90, 165, 88, 161, 165, 90, 1, 1.54673
67, 1, bw, attraction, a-b-db, 5, 2, 1, 26, 90, 165, 88, 161, 165, 90, 3, 0.843635
67, 1, bw, filler, NA, 999, 999, 1, 27, 166, 118, 139, 62, 57, 156, 1, 1.35924
67, 1, bw, filler, NA, 999, 999, 1, 27, 166, 118, 139, 62, 57, 156, 2, 1.0075
67, 1, bw, filler, NA, 999, 999, 1, 28, 182, 149, 135, 101, 116, 108, 1, 1.21241
67, 1, bw, filler, NA, 999, 999, 1, 28, 182, 149, 135, 101, 116, 108, 3, 0.90665
67, 1, bw, filler, NA, 999, 999, 1, 29, 101, 114, 159, 125, 98, 155, 2, 1.73163
67, 1, bw, filler, NA, 999, 999, 1, 29, 101, 114, 159, 125, 98, 155, 1, 0.517095
67, 1, bw, attraction, a-b-da, 2, 2, 1, 30, 165, 90, 163, 89, 90, 165, 3, 2.52627
67, 1, bw, attraction, a-b-da, 2, 2, 1, 30, 165, 90, 163, 89, 90, 165, 2, 0.687423
67, 1, bw, attraction, a-b-da, 2, 1, 1, 31, 60, 135, 135, 60, 134, 59, 1, 2.25773
67, 1, bw, attraction, a-b-da, 2, 1, 1, 31, 60, 135, 135, 60, 134, 59, 3, 1.98986
67, 1, bw, catch, NA, 999, 999, 1, 32, 130, 185, 124, 131, 91, 104, 1, 1.65983
67, 1, bw, catch, NA, 999, 999, 1, 32, 130, 185, 124, 131, 91, 104, 3, 0.495885
67, 1, bw, attraction, a-b-db, 2, 3, 1, 33, 195, 120, 119, 193, 120, 195, 2, 5.51378
67, 1, bw, attraction, a-b-db, 2, 3, 1, 33, 195, 120, 119, 193, 120, 195, 3, 1.20272
67, 1, bw, filler, NA, 999, 999, 1, 34, 164, 159, 78, 99, 78, 125, 1, 1.51212
67, 1, bw, filler, NA, 999, 999, 1, 34, 164, 159, 78, 99, 78, 125, 2, 0.690274
67, 1, bw, catch, NA, 999, 999, 1, 35, 90, 105, 186, 129, 144, 111, 2, 1.31604
67, 1, bw, catch, NA, 999, 999, 1, 35, 90, 105, 186, 129, 144, 111, 1, 0.550305
67, 1, bw, attraction, a-b-da, 14, 2, 1, 36, 153, 83, 90, 165, 165, 90, 2, 1.61418
67, 1, bw, attraction, a-b-da, 14, 2, 1, 36, 153, 83, 90, 165, 165, 90, 1, 0.588142
67, 1, bw, filler, NA, 999, 999, 1, 37, 95, 183, 160, 90, 173, 187, 3, 1.30672
67, 1, bw, filler, NA, 999, 999, 1, 37, 95, 183, 160, 90, 173, 187, 2, 1.66889
67, 1, bw, attraction, a-b-db, 9, 3, 2, 1, 195, 120, 114, 186, 120, 195, 3, 3.19158
67, 1, bw, attraction, a-b-db, 9, 3, 2, 1, 195, 120, 114, 186, 120, 195, 1, 1.33383
67, 1, bw, attraction, a-b-da, 14, 1, 2, 2, 135, 60, 60, 135, 125, 56, 1, 2.33401
67, 1, bw, attraction, a-b-da, 14, 1, 2, 2, 135, 60, 60, 135, 125, 56, 3, 1.62329
67, 1, bw, filler, NA, 999, 999, 2, 3, 79, 97, 142, 56, 113, 64, 1, 3.85202
67, 1, bw, filler, NA, 999, 999, 2, 3, 79, 97, 142, 56, 113, 64, 3, 3.03222
67, 1, bw, filler, NA, 999, 999, 2, 4, 165, 75, 142, 59, 181, 70, 3, 2.73985
67, 1, bw, filler, NA, 999, 999, 2, 4, 165, 75, 142, 59, 181, 70, 2, 0.516299
67, 1, bw, attraction, a-b-da, 9, 1, 2, 5, 60, 135, 135, 60, 129, 57, 1, 2.42138
67, 1, bw, attraction, a-b-da, 9, 1, 2, 5, 60, 135, 135, 60, 129, 57, 3, 0.699266
67, 1, bw, filler, NA, 999, 999, 2, 6, 100, 92, 129, 140, 89, 134, 2, 1.06095
67, 1, bw, filler, NA, 999, 999, 2, 6, 100, 92, 129, 140, 89, 134, 1, 1.99333
67, 1, bw, attraction, a-b-da, 9, 3, 2, 7, 195, 120, 120, 195, 186, 114, 2, 1.64674
67, 1, bw, attraction, a-b-da, 9, 3, 2, 7, 195, 120, 120, 195, 186, 114, 3, 1.44351
67, 1, bw, filler, NA, 999, 999, 2, 8, 127, 180, 71, 56, 166, 141, 1, 2.56702
67, 1, bw, filler, NA, 999, 999, 2, 8, 127, 180, 71, 56, 166, 141, 2, 1.20678
67, 1, bw, attraction, a-b-da, 5, 2, 2, 9, 165, 90, 161, 88, 90, 165, 3, 2.33959
67, 1, bw, attraction, a-b-da, 5, 2, 2, 9, 165, 90, 161, 88, 90, 165, 2, 1.73223
67, 1, bw, catch, NA, 999, 999, 2, 10, 158, 157, 110, 85, 124, 131, 1, 1.11643
67, 1, bw, catch, NA, 999, 999, 2, 10, 158, 157, 110, 85, 124, 131, 2, 0.534581
67, 1, bw, attraction, a-b-da, 14, 3, 2, 11, 195, 120, 181, 111, 120, 195, 1, 1.94312
67, 1, bw, attraction, a-b-da, 14, 3, 2, 11, 195, 120, 181, 111, 120, 195, 2, 0.855697
67, 1, bw, catch, NA, 999, 999, 2, 12, 132, 183, 112, 143, 103, 92, 1, 1.00341
67, 1, bw, catch, NA, 999, 999, 2, 12, 132, 183, 112, 143, 103, 92, 3, 0.650345
67, 1, bw, attraction, a-b-da, 5, 3, 2, 13, 120, 195, 195, 120, 190, 117, 1, 3.5581
67, 1, bw, attraction, a-b-da, 5, 3, 2, 13, 120, 195, 195, 120, 190, 117, 3, 0.757683
67, 1, bw, filler, NA, 999, 999, 2, 14, 86, 153, 189, 167, 139, 92, 2, 1.03665
67, 1, bw, filler, NA, 999, 999, 2, 14, 86, 153, 189, 167, 139, 92, 3, 0.826428
67, 1, bw, attraction, a-b-da, 2, 3, 2, 15, 120, 195, 193, 119, 195, 120, 1, 1.85479
67, 1, bw, attraction, a-b-da, 2, 3, 2, 15, 120, 195, 193, 119, 195, 120, 3, 0.947481
67, 1, bw, attraction, a-b-db, 14, 2, 2, 16, 83, 153, 90, 165, 165, 90, 2, 2.49915
67, 1, bw, attraction, a-b-db, 14, 2, 2, 16, 83, 153, 90, 165, 165, 90, 1, 1.66961
67, 1, bw, attraction, a-b-db, 14, 1, 2, 17, 135, 60, 60, 135, 56, 125, 2, 2.27233
67, 1, bw, attraction, a-b-db, 14, 1, 2, 17, 135, 60, 60, 135, 56, 125, 1, 0.587657
67, 1, bw, attraction, a-b-db, 2, 2, 2, 18, 90, 165, 165, 90, 89, 163, 1, 2.53005
67, 1, bw, attraction, a-b-db, 2, 2, 2, 18, 90, 165, 165, 90, 89, 163, 2, 1.73925
67, 1, bw, filler, NA, 999, 999, 2, 19, 140, 91, 97, 182, 76, 139, 2, 1.93944
67, 1, bw, filler, NA, 999, 999, 2, 19, 140, 91, 97, 182, 76, 139, 3, 0.516127
67, 1, bw, filler, NA, 999, 999, 2, 20, 152, 154, 139, 60, 161, 66, 1, 1.02907
67, 1, bw, filler, NA, 999, 999, 2, 20, 152, 154, 139, 60, 161, 66, 2, 0.63475
67, 1, bw, filler, NA, 999, 999, 2, 21, 127, 118, 165, 137, 106, 94, 2, 1.01516
67, 1, bw, filler, NA, 999, 999, 2, 21, 127, 118, 165, 137, 106, 94, 3, 0.661452
67, 1, bw, attraction, a-b-da, 2, 1, 2, 22, 134, 59, 60, 135, 135, 60, 3, 2.9847
67, 1, bw, attraction, a-b-da, 2, 1, 2, 22, 134, 59, 60, 135, 135, 60, 1, 1.1036
67, 1, bw, attraction, a-b-db, 9, 1, 2, 23, 57, 129, 60, 135, 135, 60, 2, 1.83318
67, 1, bw, attraction, a-b-db, 9, 1, 2, 23, 57, 129, 60, 135, 135, 60, 1, 0.854674
67, 1, bw, attraction, a-b-db, 5, 2, 2, 24, 90, 165, 165, 90, 88, 161, 1, 1.49028
67, 1, bw, attraction, a-b-db, 5, 2, 2, 24, 90, 165, 165, 90, 88, 161, 3, 0.749179
67, 1, bw, attraction, a-b-db, 5, 1, 2, 25, 135, 60, 58, 132, 60, 135, 1, 2.56484
67, 1, bw, attraction, a-b-db, 5, 1, 2, 25, 135, 60, 58, 132, 60, 135, 2, 1.44471
67, 1, bw, attraction, a-b-db, 14, 3, 2, 26, 195, 120, 111, 181, 120, 195, 1, 2.64819
67, 1, bw, attraction, a-b-db, 14, 3, 2, 26, 195, 120, 111, 181, 120, 195, 2, 1.08482
67, 1, bw, attraction, a-b-da, 9, 2, 2, 27, 165, 90, 157, 86, 90, 165, 1, 3.94308
67, 1, bw, attraction, a-b-da, 9, 2, 2, 27, 165, 90, 157, 86, 90, 165, 2, 0.687068
67, 1, bw, attraction, a-b-db, 2, 3, 2, 28, 195, 120, 120, 195, 119, 193, 1, 1.51336
67, 1, bw, attraction, a-b-db, 2, 3, 2, 28, 195, 120, 120, 195, 119, 193, 2, 0.915624
67, 1, bw, attraction, a-b-db, 2, 1, 2, 29, 135, 60, 59, 134, 60, 135, 3, 3.13253
67, 1, bw, attraction, a-b-db, 2, 1, 2, 29, 135, 60, 59, 134, 60, 135, 1, 0.501479
67, 1, bw, attraction, a-b-da, 5, 1, 2, 30, 60, 135, 132, 58, 135, 60, 3, 2.14336
67, 1, bw, attraction, a-b-da, 5, 1, 2, 30, 60, 135, 132, 58, 135, 60, 2, 0.799973
67, 1, bw, filler, NA, 999, 999, 2, 31, 129, 87, 63, 147, 158, 95, 3, 1.9257
67, 1, bw, filler, NA, 999, 999, 2, 31, 129, 87, 63, 147, 158, 95, 1, 0.567027
67, 1, bw, catch, NA, 999, 999, 2, 32, 139, 176, 115, 140, 95, 100, 1, 0.934102
67, 1, bw, catch, NA, 999, 999, 2, 32, 139, 176, 115, 140, 95, 100, 3, 0.847768
67, 1, bw, attraction, a-b-da, 14, 2, 2, 33, 90, 165, 165, 90, 153, 83, 1, 1.42744
67, 1, bw, attraction, a-b-da, 14, 2, 2, 33, 90, 165, 165, 90, 153, 83, 3, 0.52904
67, 1, bw, attraction, a-b-da, 2, 2, 2, 34, 165, 90, 163, 89, 90, 165, 3, 1.64947
67, 1, bw, attraction, a-b-da, 2, 2, 2, 34, 165, 90, 163, 89, 90, 165, 2, 0.462225
67, 1, bw, attraction, a-b-db, 5, 3, 2, 35, 120, 195, 195, 120, 117, 190, 1, 4.76935
67, 1, bw, attraction, a-b-db, 5, 3, 2, 35, 120, 195, 195, 120, 117, 190, 2, 0.608613
67, 1, bw, attraction, a-b-db, 9, 2, 2, 36, 90, 165, 86, 157, 165, 90, 1, 1.36563
67, 1, bw, attraction, a-b-db, 9, 2, 2, 36, 90, 165, 86, 157, 165, 90, 3, 0.98981
67, 1, bw, filler, NA, 999, 999, 2, 37, 94, 67, 86, 99, 130, 89, 1, 0.948009
67, 1, bw, filler, NA, 999, 999, 2, 37, 94, 67, 86, 99, 130, 89, 2, 1.88511
67, 1, bw, attraction, a-b-da, 14, 3, 3, 1, 181, 111, 120, 195, 195, 120, 2, 1.30319
67, 1, bw, attraction, a-b-da, 14, 3, 3, 1, 181, 111, 120, 195, 195, 120, 1, 0.722066
67, 1, bw, attraction, a-b-db, 5, 2, 3, 2, 90, 165, 88, 161, 165, 90, 2, 2.32308
67, 1, bw, attraction, a-b-db, 5, 2, 3, 2, 90, 165, 88, 161, 165, 90, 3, 0.292384
67, 1, bw, filler, NA, 999, 999, 3, 3, 71, 87, 149, 188, 167, 62, 2, 0.814197
67, 1, bw, filler, NA, 999, 999, 3, 3, 71, 87, 149, 188, 167, 62, 1, 0.604726
67, 1, bw, attraction, a-b-db, 9, 1, 3, 4, 135, 60, 60, 135, 57, 129, 3, 3.21036
67, 1, bw, attraction, a-b-db, 9, 1, 3, 4, 135, 60, 60, 135, 57, 129, 1, 2.24794
67, 1, bw, attraction, a-b-db, 14, 3, 3, 5, 111, 181, 120, 195, 195, 120, 2, 1.40356
67, 1, bw, attraction, a-b-db, 14, 3, 3, 5, 111, 181, 120, 195, 195, 120, 1, 1.97004
67, 1, bw, attraction, a-b-da, 5, 3, 3, 6, 120, 195, 195, 120, 190, 117, 1, 1.60075
67, 1, bw, attraction, a-b-da, 5, 3, 3, 6, 120, 195, 195, 120, 190, 117, 3, 0.679506
67, 1, bw, attraction, a-b-da, 5, 1, 3, 7, 132, 58, 60, 135, 135, 60, 2, 2.24201
67, 1, bw, attraction, a-b-da, 5, 1, 3, 7, 132, 58, 60, 135, 135, 60, 1, 0.71054
67, 1, bw, catch, NA, 999, 999, 3, 8, 113, 82, 136, 179, 153, 102, 2, 0.615596
67, 1, bw, catch, NA, 999, 999, 3, 8, 113, 82, 136, 179, 153, 102, 1, 1.51806
67, 1, bw, catch, NA, 999, 999, 3, 9, 104, 91, 145, 170, 150, 105, 2, 0.558754
67, 1, bw, catch, NA, 999, 999, 3, 9, 104, 91, 145, 170, 150, 105, 1, 0.464911
67, 1, bw, filler, NA, 999, 999, 3, 10, 173, 161, 120, 193, 101, 194, 1, 1.10646
67, 1, bw, filler, NA, 999, 999, 3, 10, 173, 161, 120, 193, 101, 194, 3, 0.612803
67, 1, bw, attraction, a-b-da, 14, 2, 3, 11, 90, 165, 165, 90, 153, 83, 1, 2.80191
67, 1, bw, attraction, a-b-da, 14, 2, 3, 11, 90, 165, 165, 90, 153, 83, 3, 0.416302
67, 1, bw, attraction, a-b-db, 2, 3, 3, 12, 195, 120, 119, 193, 120, 195, 2, 2.05335
67, 1, bw, attraction, a-b-db, 2, 3, 3, 12, 195, 120, 119, 193, 120, 195, 1, 1.70611
67, 1, bw, attraction, a-b-db, 14, 1, 3, 13, 135, 60, 56, 125, 60, 135, 3, 1.58748
67, 1, bw, attraction, a-b-db, 14, 1, 3, 13, 135, 60, 56, 125, 60, 135, 2, 0.578378
67, 1, bw, filler, NA, 999, 999, 3, 14, 148, 98, 63, 107, 86, 68, 1, 0.776636
67, 1, bw, filler, NA, 999, 999, 3, 14, 148, 98, 63, 107, 86, 68, 3, 0.632611
67, 1, bw, attraction, a-b-db, 2, 2, 3, 15, 90, 165, 89, 163, 165, 90, 2, 2.90877
67, 1, bw, attraction, a-b-db, 2, 2, 3, 15, 90, 165, 89, 163, 165, 90, 3, 0.27857
67, 1, bw, attraction, a-b-da, 5, 2, 3, 16, 161, 88, 90, 165, 165, 90, 2, 1.06523
67, 1, bw, attraction, a-b-da, 5, 2, 3, 16, 161, 88, 90, 165, 165, 90, 3, 0.461339
67, 1, bw, attraction, a-b-da, 9, 2, 3, 17, 165, 90, 90, 165, 157, 86, 2, 1.0726
67, 1, bw, attraction, a-b-da, 9, 2, 3, 17, 165, 90, 90, 165, 157, 86, 3, 0.492154
67, 1, bw, filler, NA, 999, 999, 3, 18, 178, 124, 119, 120, 129, 143, 1, 2.14999
67, 1, bw, filler, NA, 999, 999, 3, 18, 178, 124, 119, 120, 129, 143, 2, 0.462672
67, 1, bw, filler, NA, 999, 999, 3, 19, 70, 184, 94, 78, 180, 143, 3, 1.08178
67, 1, bw, filler, NA, 999, 999, 3, 19, 70, 184, 94, 78, 180, 143, 2, 0.637483
67, 1, bw, attraction, a-b-db, 9, 3, 3, 20, 120, 195, 114, 186, 195, 120, 1, 2.94592
67, 1, bw, attraction, a-b-db, 9, 3, 3, 20, 120, 195, 114, 186, 195, 120, 2, 1.4662
67, 1, bw, attraction, a-b-db, 5, 3, 3, 21, 117, 190, 195, 120, 120, 195, 3, 0.989118
67, 1, bw, attraction, a-b-db, 5, 3, 3, 21, 117, 190, 195, 120, 120, 195, 2, 0.339982
67, 1, bw, attraction, a-b-da, 2, 3, 3, 22, 193, 119, 195, 120, 120, 195, 3, 1.17196
67, 1, bw, attraction, a-b-da, 2, 3, 3, 22, 193, 119, 195, 120, 120, 195, 2, 0.787401
67, 1, bw, attraction, a-b-db, 2, 1, 3, 23, 59, 134, 60, 135, 135, 60, 2, 3.03389
67, 1, bw, attraction, a-b-db, 2, 1, 3, 23, 59, 134, 60, 135, 135, 60, 1, 1.00681
67, 1, bw, attraction, a-b-da, 9, 1, 3, 24, 135, 60, 60, 135, 129, 57, 2, 2.39572
67, 1, bw, attraction, a-b-da, 9, 1, 3, 24, 135, 60, 60, 135, 129, 57, 3, 0.506322
67, 1, bw, filler, NA, 999, 999, 3, 25, 83, 64, 128, 100, 189, 70, 2, 0.947394
67, 1, bw, filler, NA, 999, 999, 3, 25, 83, 64, 128, 100, 189, 70, 1, 0.87647
67, 1, bw, filler, NA, 999, 999, 3, 26, 91, 151, 141, 88, 166, 172, 3, 1.1748
67, 1, bw, filler, NA, 999, 999, 3, 26, 91, 151, 141, 88, 166, 172, 2, 0.838475
67, 1, bw, filler, NA, 999, 999, 3, 27, 65, 99, 128, 174, 126, 76, 2, 1.66673
67, 1, bw, filler, NA, 999, 999, 3, 27, 65, 99, 128, 174, 126, 76, 1, 0.21489
67, 1, bw, filler, NA, 999, 999, 3, 28, 94, 118, 181, 68, 95, 115, 1, 3.46015
67, 1, bw, filler, NA, 999, 999, 3, 28, 94, 118, 181, 68, 95, 115, 2, 2.1599
67, 1, bw, attraction, a-b-da, 9, 3, 3, 29, 186, 114, 195, 120, 120, 195, 1, 1.32626
67, 1, bw, attraction, a-b-da, 9, 3, 3, 29, 186, 114, 195, 120, 120, 195, 3, 0.295702
67, 1, bw, attraction, a-b-db, 5, 1, 3, 30, 58, 132, 60, 135, 135, 60, 2, 1.98558
67, 1, bw, attraction, a-b-db, 5, 1, 3, 30, 58, 132, 60, 135, 135, 60, 1, 0.704916
67, 1, bw, attraction, a-b-db, 14, 2, 3, 31, 165, 90, 83, 153, 90, 165, 2, 1.23464
67, 1, bw, attraction, a-b-db, 14, 2, 3, 31, 165, 90, 83, 153, 90, 165, 3, 3.36828
67, 1, bw, attraction, a-b-da, 2, 2, 3, 32, 90, 165, 163, 89, 165, 90, 2, 2.60651
67, 1, bw, attraction, a-b-da, 2, 2, 3, 32, 90, 165, 163, 89, 165, 90, 1, 0.924353
67, 1, bw, attraction, a-b-da, 14, 1, 3, 33, 125, 56, 135, 60, 60, 135, 3, 2.78063
67, 1, bw, attraction, a-b-da, 14, 1, 3, 33, 125, 56, 135, 60, 60, 135, 1, 0.987685
67, 1, bw, attraction, a-b-da, 2, 1, 3, 34, 60, 135, 134, 59, 135, 60, 1, 2.91413
67, 1, bw, attraction, a-b-da, 2, 1, 3, 34, 60, 135, 134, 59, 135, 60, 3, 1.53974
67, 1, bw, filler, NA, 999, 999, 3, 35, 69, 168, 170, 93, 65, 153, 2, 2.01193
67, 1, bw, filler, NA, 999, 999, 3, 35, 69, 168, 170, 93, 65, 153, 3, 0.481907
67, 1, bw, attraction, a-b-db, 9, 2, 3, 36, 165, 90, 86, 157, 90, 165, 2, 2.30034
67, 1, bw, attraction, a-b-db, 9, 2, 3, 36, 165, 90, 86, 157, 90, 165, 1, 0.518999
67, 1, bw, catch, NA, 999, 999, 3, 37, 142, 173, 63, 132, 150, 105, 1, 0.58408
67, 1, bw, catch, NA, 999, 999, 3, 37, 142, 173, 63, 132, 150, 105, 2, 0.647843
67, 1, bw, attraction, a-b-da, 9, 2, 4, 1, 157, 86, 165, 90, 90, 165, 3, 1.8276
67, 1, bw, attraction, a-b-da, 9, 2, 4, 1, 157, 86, 165, 90, 90, 165, 1, 0.224983
67, 1, bw, filler, NA, 999, 999, 4, 2, 139, 131, 157, 121, 78, 174, 2, 2.5896
67, 1, bw, filler, NA, 999, 999, 4, 2, 139, 131, 157, 121, 78, 174, 3, 0.572139
67, 1, bw, attraction, a-b-db, 9, 3, 4, 3, 195, 120, 120, 195, 114, 186, 2, 2.37919
67, 1, bw, attraction, a-b-db, 9, 3, 4, 3, 195, 120, 120, 195, 114, 186, 1, 1.2903
67, 1, bw, filler, NA, 999, 999, 4, 4, 122, 60, 97, 189, 116, 72, 2, 1.23594
67, 1, bw, filler, NA, 999, 999, 4, 4, 122, 60, 97, 189, 116, 72, 1, 0.457509
67, 1, bw, filler, NA, 999, 999, 4, 5, 58, 63, 185, 58, 100, 162, 3, 1.04459
67, 1, bw, filler, NA, 999, 999, 4, 5, 58, 63, 185, 58, 100, 162, 1, 0.561683
67, 1, bw, attraction, a-b-da, 14, 2, 4, 6, 165, 90, 153, 83, 90, 165, 3, 1.37671
67, 1, bw, attraction, a-b-da, 14, 2, 4, 6, 165, 90, 153, 83, 90, 165, 2, 0.736362
67, 1, bw, attraction, a-b-da, 14, 3, 4, 7, 195, 120, 120, 195, 181, 111, 2, 1.1446
67, 1, bw, attraction, a-b-da, 14, 3, 4, 7, 195, 120, 120, 195, 181, 111, 3, 0.945619
67, 1, bw, attraction, a-b-db, 2, 2, 4, 8, 89, 163, 165, 90, 90, 165, 3, 3.28921
67, 1, bw, attraction, a-b-db, 2, 2, 4, 8, 89, 163, 165, 90, 90, 165, 2, 0.651607
67, 1, bw, attraction, a-b-db, 14, 2, 4, 9, 83, 153, 90, 165, 165, 90, 2, 0.767214
67, 1, bw, attraction, a-b-db, 14, 2, 4, 9, 83, 153, 90, 165, 165, 90, 1, 1.39174
67, 1, bw, filler, NA, 999, 999, 4, 10, 167, 62, 58, 115, 174, 70, 3, 0.925171
67, 1, bw, filler, NA, 999, 999, 4, 10, 167, 62, 58, 115, 174, 70, 2, 0.990865
67, 1, bw, attraction, a-b-db, 5, 3, 4, 11, 120, 195, 195, 120, 117, 190, 2, 2.06051
67, 1, bw, attraction, a-b-db, 5, 3, 4, 11, 120, 195, 195, 120, 117, 190, 3, 0.312459
67, 1, bw, attraction, a-b-db, 5, 2, 4, 12, 88, 161, 90, 165, 165, 90, 2, 1.21766
67, 1, bw, attraction, a-b-db, 5, 2, 4, 12, 88, 161, 90, 165, 165, 90, 3, 0.431874
67, 1, bw, attraction, a-b-da, 2, 1, 4, 13, 135, 60, 134, 59, 60, 135, 3, 2.38829
67, 1, bw, attraction, a-b-da, 2, 1, 4, 13, 135, 60, 134, 59, 60, 135, 2, 0.603569
67, 1, bw, attraction, a-b-da, 5, 3, 4, 14, 195, 120, 120, 195, 190, 117, 2, 2.1454
67, 1, bw, attraction, a-b-da, 5, 3, 4, 14, 195, 120, 120, 195, 190, 117, 1, 0.546013
67, 1, bw, attraction, a-b-db, 14, 1, 4, 15, 135, 60, 60, 135, 56, 125, 1, 1.67381
67, 1, bw, attraction, a-b-db, 14, 1, 4, 15, 135, 60, 60, 135, 56, 125, 3, 0.781411
67, 1, bw, catch, NA, 999, 999, 4, 16, 68, 127, 144, 111, 192, 123, 3, 1.40363
67, 1, bw, catch, NA, 999, 999, 4, 16, 68, 127, 144, 111, 192, 123, 1, 0.474457
67, 1, bw, attraction, a-b-db, 9, 2, 4, 17, 90, 165, 165, 90, 86, 157, 1, 1.88483
67, 1, bw, attraction, a-b-db, 9, 2, 4, 17, 90, 165, 165, 90, 86, 157, 3, 0.208275
67, 1, bw, attraction, a-b-da, 14, 1, 4, 18, 135, 60, 60, 135, 125, 56, 2, 1.21361
67, 1, bw, attraction, a-b-da, 14, 1, 4, 18, 135, 60, 60, 135, 125, 56, 3, 0.979831
67, 1, bw, attraction, a-b-db, 14, 3, 4, 19, 111, 181, 195, 120, 120, 195, 2, 1.09809
67, 1, bw, attraction, a-b-db, 14, 3, 4, 19, 111, 181, 195, 120, 120, 195, 1, 0.453155
67, 1, bw, filler, NA, 999, 999, 4, 20, 112, 174, 151, 110, 85, 90, 1, 0.89675
67, 1, bw, filler, NA, 999, 999, 4, 20, 112, 174, 151, 110, 85, 90, 3, 0.339931
67, 1, bw, attraction, a-b-da, 5, 1, 4, 21, 60, 135, 132, 58, 135, 60, 3, 2.58772
67, 1, bw, attraction, a-b-da, 5, 1, 4, 21, 60, 135, 132, 58, 135, 60, 2, 0.426826
67, 1, bw, attraction, a-b-da, 2, 3, 4, 22, 193, 119, 120, 195, 195, 120, 2, 1.1833
67, 1, bw, attraction, a-b-da, 2, 3, 4, 22, 193, 119, 120, 195, 195, 120, 3, 0.294877
67, 1, bw, catch, NA, 999, 999, 4, 23, 105, 90, 160, 155, 133, 122, 2, 1.22473
67, 1, bw, catch, NA, 999, 999, 4, 23, 105, 90, 160, 155, 133, 122, 1, 0.502326
67, 1, bw, filler, NA, 999, 999, 4, 24, 106, 101, 152, 129, 61, 127, 2, 1.15216
67, 1, bw, filler, NA, 999, 999, 4, 24, 106, 101, 152, 129, 61, 127, 3, 0.337156
67, 1, bw, filler, NA, 999, 999, 4, 25, 116, 127, 187, 116, 99, 172, 2, 0.80162
67, 1, bw, filler, NA, 999, 999, 4, 25, 116, 127, 187, 116, 99, 172, 1, 0.62482
67, 1, bw, attraction, a-b-da, 9, 3, 4, 26, 186, 114, 195, 120, 120, 195, 3, 2.00507
67, 1, bw, attraction, a-b-da, 9, 3, 4, 26, 186, 114, 195, 120, 120, 195, 1, 0.427105
67, 1, bw, filler, NA, 999, 999, 4, 27, 76, 172, 93, 77, 97, 76, 1, 1.43159
67, 1, bw, filler, NA, 999, 999, 4, 27, 76, 172, 93, 77, 97, 76, 2, 1.02112
67, 1, bw, attraction, a-b-db, 2, 3, 4, 28, 195, 120, 119, 193, 120, 195, 2, 2.37803
67, 1, bw, attraction, a-b-db, 2, 3, 4, 28, 195, 120, 119, 193, 120, 195, 1, 0.24121
67, 1, bw, catch, NA, 999, 999, 4, 29, 94, 101, 151, 164, 113, 142, 2, 0.613137
67, 1, bw, catch, NA, 999, 999, 4, 29, 94, 101, 151, 164, 113, 142, 1, 0.355525
67, 1, bw, attraction, a-b-db, 9, 1, 4, 30, 60, 135, 135, 60, 57, 129, 1, 2.0195
67, 1, bw, attraction, a-b-db, 9, 1, 4, 30, 60, 135, 135, 60, 57, 129, 2, 1.35349
67, 1, bw, attraction, a-b-db, 5, 1, 4, 31, 60, 135, 135, 60, 58, 132, 1, 3.04894
67, 1, bw, attraction, a-b-db, 5, 1, 4, 31, 60, 135, 135, 60, 58, 132, 2, 0.493239
67, 1, bw, attraction, a-b-da, 2, 2, 4, 32, 163, 89, 165, 90, 90, 165, 3, 2.85505
67, 1, bw, attraction, a-b-da, 2, 2, 4, 32, 163, 89, 165, 90, 90, 165, 1, 0.443496
67, 1, bw, attraction, a-b-da, 5, 2, 4, 33, 165, 90, 161, 88, 90, 165, 3, 3.48734
67, 1, bw, attraction, a-b-da, 5, 2, 4, 33, 165, 90, 161, 88, 90, 165, 1, 0.322175
67, 1, bw, filler, NA, 999, 999, 4, 34, 66, 112, 91, 168, 195, 157, 3, 0.875437
67, 1, bw, filler, NA, 999, 999, 4, 34, 66, 112, 91, 168, 195, 157, 1, 0.279169
67, 1, bw, filler, NA, 999, 999, 4, 35, 71, 135, 138, 82, 137, 153, 3, 1.24956
67, 1, bw, filler, NA, 999, 999, 4, 35, 71, 135, 138, 82, 137, 153, 1, 0.542472
67, 1, bw, attraction, a-b-da, 9, 1, 4, 36, 60, 135, 135, 60, 129, 57, 2, 2.08624
67, 1, bw, attraction, a-b-da, 9, 1, 4, 36, 60, 135, 135, 60, 129, 57, 3, 0.529586
67, 1, bw, attraction, a-b-db, 2, 1, 4, 37, 135, 60, 59, 134, 60, 135, 3, 2.60207
67, 1, bw, attraction, a-b-db, 2, 1, 4, 37, 135, 60, 59, 134, 60, 135, 1, 0.384513
67, 1, bw, attraction, a-b-da, 5, 2, 5, 1, 165, 90, 161, 88, 90, 165, 3, 3.11769
67, 1, bw, attraction, a-b-da, 5, 2, 5, 1, 165, 90, 161, 88, 90, 165, 2, 0.303324
67, 1, bw, filler, NA, 999, 999, 5, 2, 80, 181, 77, 168, 160, 170, 3, 0.89712
67, 1, bw, filler, NA, 999, 999, 5, 2, 80, 181, 77, 168, 160, 170, 2, 0.460355
67, 1, bw, attraction, a-b-da, 5, 1, 5, 3, 60, 135, 135, 60, 132, 58, 2, 1.27128
67, 1, bw, attraction, a-b-da, 5, 1, 5, 3, 60, 135, 135, 60, 132, 58, 1, 1.13902
67, 1, bw, attraction, a-b-da, 9, 3, 5, 4, 186, 114, 120, 195, 195, 120, 2, 1.40317
67, 1, bw, attraction, a-b-da, 9, 3, 5, 4, 186, 114, 120, 195, 195, 120, 1, 0.266055
67, 1, bw, filler, NA, 999, 999, 5, 5, 180, 154, 159, 73, 61, 180, 1, 0.733317
67, 1, bw, filler, NA, 999, 999, 5, 5, 180, 154, 159, 73, 61, 180, 3, 1.383
67, 1, bw, filler, NA, 999, 999, 5, 6, 112, 75, 173, 114, 152, 195, 3, 0.733163
67, 1, bw, filler, NA, 999, 999, 5, 6, 112, 75, 173, 114, 152, 195, 1, 0.374828
67, 1, bw, attraction, a-b-da, 2, 3, 5, 7, 120, 195, 193, 119, 195, 120, 1, 2.39739
67, 1, bw, attraction, a-b-da, 2, 3, 5, 7, 120, 195, 193, 119, 195, 120, 2, 0.547923
67, 1, bw, attraction, a-b-db, 5, 1, 5, 8, 58, 132, 135, 60, 60, 135, 3, 0.891814
67, 1, bw, attraction, a-b-db, 5, 1, 5, 8, 58, 132, 135, 60, 60, 135, 1, 0.294708
67, 1, bw, attraction, a-b-db, 9, 1, 5, 9, 135, 60, 60, 135, 57, 129, 3, 1.81661
67, 1, bw, attraction, a-b-db, 9, 1, 5, 9, 135, 60, 60, 135, 57, 129, 2, 0.462597
67, 1, bw, filler, NA, 999, 999, 5, 10, 157, 132, 167, 171, 164, 177, 3, 0.953815
67, 1, bw, filler, NA, 999, 999, 5, 10, 157, 132, 167, 171, 164, 177, 1, 0.266714
67, 1, bw, attraction, a-b-db, 14, 3, 5, 11, 111, 181, 120, 195, 195, 120, 2, 1.846
67, 1, bw, attraction, a-b-db, 14, 3, 5, 11, 111, 181, 120, 195, 195, 120, 1, 0.306734
67, 1, bw, attraction, a-b-da, 14, 2, 5, 12, 153, 83, 90, 165, 165, 90, 2, 1.52391
67, 1, bw, attraction, a-b-da, 14, 2, 5, 12, 153, 83, 90, 165, 165, 90, 1, 0.477389
67, 1, bw, attraction, a-b-db, 5, 3, 5, 13, 117, 190, 120, 195, 195, 120, 2, 0.991756
67, 1, bw, attraction, a-b-db, 5, 3, 5, 13, 117, 190, 120, 195, 195, 120, 1, 0.294986
67, 1, bw, attraction, a-b-da, 14, 1, 5, 14, 60, 135, 125, 56, 135, 60, 1, 1.35265
67, 1, bw, attraction, a-b-da, 14, 1, 5, 14, 60, 135, 125, 56, 135, 60, 2, 0.473542
67, 1, bw, attraction, a-b-db, 2, 2, 5, 15, 90, 165, 165, 90, 89, 163, 2, 0.948043
67, 1, bw, attraction, a-b-db, 2, 2, 5, 15, 90, 165, 165, 90, 89, 163, 1, 1.66115
67, 1, bw, filler, NA, 999, 999, 5, 16, 143, 147, 90, 101, 182, 107, 1, 0.631756
67, 1, bw, filler, NA, 999, 999, 5, 16, 143, 147, 90, 101, 182, 107, 2, 1.33356
67, 1, bw, attraction, a-b-db, 2, 3, 5, 17, 120, 195, 195, 120, 119, 193, 3, 1.35781
67, 1, bw, attraction, a-b-db, 2, 3, 5, 17, 120, 195, 195, 120, 119, 193, 2, 0.333952
67, 1, bw, attraction, a-b-da, 14, 3, 5, 18, 181, 111, 120, 195, 195, 120, 2, 0.958524
67, 1, bw, attraction, a-b-da, 14, 3, 5, 18, 181, 111, 120, 195, 195, 120, 1, 0.36678
67, 1, bw, catch, NA, 999, 999, 5, 19, 90, 165, 156, 159, 82, 113, 2, 0.709902
67, 1, bw, catch, NA, 999, 999, 5, 19, 90, 165, 156, 159, 82, 113, 3, 0.65637
67, 1, bw, filler, NA, 999, 999, 5, 20, 189, 169, 130, 171, 162, 61, 1, 0.732112
67, 1, bw, filler, NA, 999, 999, 5, 20, 189, 169, 130, 171, 162, 61, 3, 0.493829
67, 1, bw, attraction, a-b-da, 9, 2, 5, 21, 165, 90, 157, 86, 90, 165, 3, 1.63165
67, 1, bw, attraction, a-b-da, 9, 2, 5, 21, 165, 90, 157, 86, 90, 165, 2, 0.333087
67, 1, bw, attraction, a-b-da, 2, 2, 5, 22, 90, 165, 165, 90, 163, 89, 1, 2.6296
67, 1, bw, attraction, a-b-da, 2, 2, 5, 22, 90, 165, 165, 90, 163, 89, 2, 0.274874
67, 1, bw, attraction, a-b-da, 9, 1, 5, 23, 60, 135, 129, 57, 135, 60, 3, 1.65334
67, 1, bw, attraction, a-b-da, 9, 1, 5, 23, 60, 135, 129, 57, 135, 60, 2, 0.482126
67, 1, bw, attraction, a-b-db, 14, 2, 5, 24, 165, 90, 83, 153, 90, 165, 1, 0.980563
67, 1, bw, attraction, a-b-db, 14, 2, 5, 24, 165, 90, 83, 153, 90, 165, 2, 0.972196
67, 1, bw, attraction, a-b-da, 2, 1, 5, 25, 134, 59, 135, 60, 60, 135, 3, 2.5471
67, 1, bw, attraction, a-b-da, 2, 1, 5, 25, 134, 59, 135, 60, 60, 135, 2, 0.475705
67, 1, bw, attraction, a-b-db, 14, 1, 5, 26, 60, 135, 56, 125, 135, 60, 1, 0.958086
67, 1, bw, attraction, a-b-db, 14, 1, 5, 26, 60, 135, 56, 125, 135, 60, 2, 0.390501
67, 1, bw, attraction, a-b-da, 5, 3, 5, 27, 190, 117, 195, 120, 120, 195, 3, 1.96437
67, 1, bw, attraction, a-b-da, 5, 3, 5, 27, 190, 117, 195, 120, 120, 195, 2, 0.396389
67, 1, bw, filler, NA, 999, 999, 5, 28, 146, 126, 161, 160, 102, 90, 2, 0.858111
67, 1, bw, filler, NA, 999, 999, 5, 28, 146, 126, 161, 160, 102, 90, 3, 0.31094
67, 1, bw, filler, NA, 999, 999, 5, 29, 64, 117, 68, 66, 187, 104, 3, 0.982286
67, 1, bw, filler, NA, 999, 999, 5, 29, 64, 117, 68, 66, 187, 104, 2, 0.423351
67, 1, bw, attraction, a-b-db, 9, 3, 5, 30, 195, 120, 120, 195, 114, 186, 2, 1.78851
67, 1, bw, attraction, a-b-db, 9, 3, 5, 30, 195, 120, 120, 195, 114, 186, 3, 0.771266
67, 1, bw, filler, NA, 999, 999, 5, 31, 116, 145, 120, 104, 178, 175, 3, 0.898308
67, 1, bw, filler, NA, 999, 999, 5, 31, 116, 145, 120, 104, 178, 175, 2, 0.317261
67, 1, bw, attraction, a-b-db, 2, 1, 5, 32, 59, 134, 60, 135, 135, 60, 2, 0.830537
67, 1, bw, attraction, a-b-db, 2, 1, 5, 32, 59, 134, 60, 135, 135, 60, 3, 0.948327
67, 1, bw, filler, NA, 999, 999, 5, 33, 185, 115, 88, 130, 165, 69, 1, 0.819899
67, 1, bw, filler, NA, 999, 999, 5, 33, 185, 115, 88, 130, 165, 69, 3, 1.18634
67, 1, bw, attraction, a-b-db, 5, 2, 5, 34, 90, 165, 88, 161, 165, 90, 2, 1.3924
67, 1, bw, attraction, a-b-db, 5, 2, 5, 34, 90, 165, 88, 161, 165, 90, 3, 0.34332
67, 1, bw, attraction, a-b-db, 9, 2, 5, 35, 90, 165, 86, 157, 165, 90, 2, 1.29517
67, 1, bw, attraction, a-b-db, 9, 2, 5, 35, 90, 165, 86, 157, 165, 90, 3, 0.218074
67, 1, bw, catch, NA, 999, 999, 5, 36, 193, 122, 120, 135, 66, 129, 1, 1.39927
67, 1, bw, catch, NA, 999, 999, 5, 36, 193, 122, 120, 135, 66, 129, 3, 0.390318
67, 1, bw, catch, NA, 999, 999, 5, 37, 150, 105, 123, 72, 159, 156, 3, 0.876073
67, 1, bw, catch, NA, 999, 999, 5, 37, 150, 105, 123, 72, 159, 156, 2, 0.327793
67, 1, bw, attraction, a-b-da, 2, 2, 6, 1, 90, 165, 165, 90, 163, 89, 2, 1.55228
67, 1, bw, attraction, a-b-da, 2, 2, 6, 1, 90, 165, 165, 90, 163, 89, 3, 0.312955
67, 1, bw, attraction, a-b-db, 14, 3, 6, 2, 195, 120, 120, 195, 111, 181, 2, 1.90615
67, 1, bw, attraction, a-b-db, 14, 3, 6, 2, 195, 120, 120, 195, 111, 181, 3, 0.252265
67, 1, bw, attraction, a-b-da, 2, 3, 6, 3, 120, 195, 193, 119, 195, 120, 1, 1.95207
67, 1, bw, attraction, a-b-da, 2, 3, 6, 3, 120, 195, 193, 119, 195, 120, 2, 0.288729
67, 1, bw, attraction, a-b-da, 9, 1, 6, 4, 129, 57, 60, 135, 135, 60, 2, 1.1234
67, 1, bw, attraction, a-b-da, 9, 1, 6, 4, 129, 57, 60, 135, 135, 60, 1, 0.548961
67, 1, bw, attraction, a-b-db, 14, 2, 6, 5, 165, 90, 83, 153, 90, 165, 3, 1.65277
67, 1, bw, attraction, a-b-db, 14, 2, 6, 5, 165, 90, 83, 153, 90, 165, 2, 0.513505
67, 1, bw, attraction, a-b-db, 2, 1, 6, 6, 135, 60, 59, 134, 60, 135, 3, 1.52273
67, 1, bw, attraction, a-b-db, 2, 1, 6, 6, 135, 60, 59, 134, 60, 135, 2, 0.628092
67, 1, bw, attraction, a-b-db, 9, 1, 6, 7, 57, 129, 135, 60, 60, 135, 3, 2.46446
67, 1, bw, attraction, a-b-db, 9, 1, 6, 7, 57, 129, 135, 60, 60, 135, 1, 0.540412
67, 1, bw, attraction, a-b-db, 9, 3, 6, 8, 114, 186, 195, 120, 120, 195, 3, 2.14011
67, 1, bw, attraction, a-b-db, 9, 3, 6, 8, 114, 186, 195, 120, 120, 195, 1, 0.588754
67, 1, bw, filler, NA, 999, 999, 6, 9, 94, 143, 145, 142, 96, 118, 2, 1.51531
67, 1, bw, filler, NA, 999, 999, 6, 9, 94, 143, 145, 142, 96, 118, 3, 0.325371
67, 1, bw, attraction, a-b-da, 5, 3, 6, 10, 190, 117, 120, 195, 195, 120, 3, 2.26995
67, 1, bw, attraction, a-b-da, 5, 3, 6, 10, 190, 117, 120, 195, 195, 120, 1, 0.529827
67, 1, bw, filler, NA, 999, 999, 6, 11, 70, 193, 178, 86, 163, 144, 3, 1.01027
67, 1, bw, filler, NA, 999, 999, 6, 11, 70, 193, 178, 86, 163, 144, 1, 0.496633
67, 1, bw, attraction, a-b-db, 5, 3, 6, 12, 195, 120, 120, 195, 117, 190, 2, 1.21845
67, 1, bw, attraction, a-b-db, 5, 3, 6, 12, 195, 120, 120, 195, 117, 190, 3, 0.74468
67, 1, bw, filler, NA, 999, 999, 6, 13, 75, 147, 117, 181, 56, 142, 2, 1.88041
67, 1, bw, filler, NA, 999, 999, 6, 13, 75, 147, 117, 181, 56, 142, 3, 0.515761
67, 1, bw, catch, NA, 999, 999, 6, 14, 109, 86, 181, 134, 119, 136, 2, 2.27686
67, 1, bw, catch, NA, 999, 999, 6, 14, 109, 86, 181, 134, 119, 136, 1, 0.472121
67, 1, bw, attraction, a-b-da, 14, 1, 6, 15, 60, 135, 135, 60, 125, 56, 2, 0.843261
67, 1, bw, attraction, a-b-da, 14, 1, 6, 15, 60, 135, 135, 60, 125, 56, 3, 0.800324
67, 1, bw, catch, NA, 999, 999, 6, 16, 157, 158, 139, 116, 60, 135, 1, 0.670062
67, 1, bw, catch, NA, 999, 999, 6, 16, 157, 158, 139, 116, 60, 135, 3, 0.546398
67, 1, bw, filler, NA, 999, 999, 6, 17, 181, 68, 131, 172, 160, 175, 3, 0.72211
67, 1, bw, filler, NA, 999, 999, 6, 17, 181, 68, 131, 172, 160, 175, 1, 0.523922
67, 1, bw, attraction, a-b-da, 14, 2, 6, 18, 153, 83, 165, 90, 90, 165, 2, 1.10839
67, 1, bw, attraction, a-b-da, 14, 2, 6, 18, 153, 83, 165, 90, 90, 165, 1, 0.350708
67, 1, bw, catch, NA, 999, 999, 6, 19, 106, 89, 131, 184, 90, 165, 2, 0.950513
67, 1, bw, catch, NA, 999, 999, 6, 19, 106, 89, 131, 184, 90, 165, 1, 0.287492
67, 1, bw, attraction, a-b-db, 9, 2, 6, 20, 165, 90, 90, 165, 86, 157, 1, 1.77005
67, 1, bw, attraction, a-b-db, 9, 2, 6, 20, 165, 90, 90, 165, 86, 157, 3, 0.538058
67, 1, bw, attraction, a-b-db, 2, 2, 6, 21, 90, 165, 165, 90, 89, 163, 3, 1.18652
67, 1, bw, attraction, a-b-db, 2, 2, 6, 21, 90, 165, 165, 90, 89, 163, 2, 0.482089
67, 1, bw, attraction, a-b-da, 5, 1, 6, 22, 60, 135, 132, 58, 135, 60, 2, 0.932619
67, 1, bw, attraction, a-b-da, 5, 1, 6, 22, 60, 135, 132, 58, 135, 60, 3, 0.590466
67, 1, bw, filler, NA, 999, 999, 6, 23, 181, 154, 57, 188, 79, 115, 1, 0.844065
67, 1, bw, filler, NA, 999, 999, 6, 23, 181, 154, 57, 188, 79, 115, 3, 0.449131
67, 1, bw, attraction, a-b-da, 14, 3, 6, 24, 120, 195, 181, 111, 195, 120, 1, 1.66095
67, 1, bw, attraction, a-b-da, 14, 3, 6, 24, 120, 195, 181, 111, 195, 120, 2, 0.297043
67, 1, bw, attraction, a-b-db, 5, 2, 6, 25, 90, 165, 165, 90, 88, 161, 3, 4.59483
67, 1, bw, attraction, a-b-db, 5, 2, 6, 25, 90, 165, 165, 90, 88, 161, 2, 0.552838
67, 1, bw, filler, NA, 999, 999, 6, 26, 69, 114, 160, 109, 161, 176, 3, 0.928602
67, 1, bw, filler, NA, 999, 999, 6, 26, 69, 114, 160, 109, 161, 176, 1, 0.626168
67, 1, bw, attraction, a-b-da, 5, 2, 6, 27, 161, 88, 90, 165, 165, 90, 2, 0.886563
67, 1, bw, attraction, a-b-da, 5, 2, 6, 27, 161, 88, 90, 165, 165, 90, 1, 0.834382
67, 1, bw, filler, NA, 999, 999, 6, 28, 125, 147, 192, 141, 180, 87, 2, 0.470647
67, 1, bw, filler, NA, 999, 999, 6, 28, 125, 147, 192, 141, 180, 87, 3, 0.619334
67, 1, bw, attraction, a-b-da, 9, 3, 6, 29, 120, 195, 186, 114, 195, 120, 3, 1.11223
67, 1, bw, attraction, a-b-da, 9, 3, 6, 29, 120, 195, 186, 114, 195, 120, 2, 0.36253
67, 1, bw, attraction, a-b-db, 14, 1, 6, 30, 135, 60, 56, 125, 60, 135, 3, 1.43366
67, 1, bw, attraction, a-b-db, 14, 1, 6, 30, 135, 60, 56, 125, 60, 135, 2, 0.599271
67, 1, bw, attraction, a-b-da, 9, 2, 6, 31, 157, 86, 165, 90, 90, 165, 3, 1.64504
67, 1, bw, attraction, a-b-da, 9, 2, 6, 31, 157, 86, 165, 90, 90, 165, 1, 0.593701
67, 1, bw, attraction, a-b-db, 2, 3, 6, 32, 195, 120, 119, 193, 120, 195, 3, 1.19945
67, 1, bw, attraction, a-b-db, 2, 3, 6, 32, 195, 120, 119, 193, 120, 195, 1, 0.510571
67, 1, bw, filler, NA, 999, 999, 6, 33, 71, 164, 92, 63, 156, 159, 3, 0.495464
67, 1, bw, filler, NA, 999, 999, 6, 33, 71, 164, 92, 63, 156, 159, 2, 0.522714
67, 1, bw, attraction, a-b-da, 2, 1, 6, 34, 60, 135, 134, 59, 135, 60, 2, 0.907829
67, 1, bw, attraction, a-b-da, 2, 1, 6, 34, 60, 135, 134, 59, 135, 60, 1, 0.710193
67, 1, bw, filler, NA, 999, 999, 6, 35, 140, 92, 125, 65, 171, 98, 3, 1.21522
67, 1, bw, filler, NA, 999, 999, 6, 35, 140, 92, 125, 65, 171, 98, 2, 0.34141
67, 1, bw, filler, NA, 999, 999, 6, 36, 102, 77, 157, 99, 83, 137, 2, 0.525268
67, 1, bw, filler, NA, 999, 999, 6, 36, 102, 77, 157, 99, 83, 137, 1, 0.287348
67, 1, bw, attraction, a-b-db, 5, 1, 6, 37, 135, 60, 60, 135, 58, 132, 3, 1.3217
67, 1, bw, attraction, a-b-db, 5, 1, 6, 37, 135, 60, 60, 135, 58, 132, 1, 0.531195
67, 1, bw, catch, NA, 999, 999, 7, 1, 180, 135, 160, 95, 113, 82, 1, 0.595625
67, 1, bw, catch, NA, 999, 999, 7, 1, 180, 135, 160, 95, 113, 82, 3, 0.370707
67, 1, bw, attraction, a-b-da, 5, 1, 7, 2, 132, 58, 135, 60, 60, 135, 3, 1.394
67, 1, bw, attraction, a-b-da, 5, 1, 7, 2, 132, 58, 135, 60, 60, 135, 2, 0.312846
67, 1, bw, filler, NA, 999, 999, 7, 3, 182, 188, 168, 110, 171, 173, 1, 1.22601
67, 1, bw, filler, NA, 999, 999, 7, 3, 182, 188, 168, 110, 171, 173, 2, 0.271566
67, 1, bw, filler, NA, 999, 999, 7, 4, 78, 142, 141, 127, 184, 101, 3, 0.706759
67, 1, bw, filler, NA, 999, 999, 7, 4, 78, 142, 141, 127, 184, 101, 1, 0.709175
67, 1, bw, attraction, a-b-da, 14, 2, 7, 5, 153, 83, 165, 90, 90, 165, 2, 2.16631
67, 1, bw, attraction, a-b-da, 14, 2, 7, 5, 153, 83, 165, 90, 90, 165, 1, 0.35827
67, 1, bw, attraction, a-b-db, 2, 1, 7, 6, 60, 135, 135, 60, 59, 134, 3, 1.4773
67, 1, bw, attraction, a-b-db, 2, 1, 7, 6, 60, 135, 135, 60, 59, 134, 1, 0.768943
67, 1, bw, attraction, a-b-db, 5, 2, 7, 7, 90, 165, 88, 161, 165, 90, 1, 1.23195
67, 1, bw, attraction, a-b-db, 5, 2, 7, 7, 90, 165, 88, 161, 165, 90, 3, 0.461589
67, 1, bw, attraction, a-b-da, 2, 2, 7, 8, 163, 89, 90, 165, 165, 90, 2, 1.18457
67, 1, bw, attraction, a-b-da, 2, 2, 7, 8, 163, 89, 90, 165, 165, 90, 1, 0.744208
67, 1, bw, filler, NA, 999, 999, 7, 9, 164, 106, 78, 161, 151, 88, 1, 0.799984
67, 1, bw, filler, NA, 999, 999, 7, 9, 164, 106, 78, 161, 151, 88, 2, 1.10304
67, 1, bw, attraction, a-b-da, 14, 3, 7, 10, 181, 111, 195, 120, 120, 195, 3, 1.18463
67, 1, bw, attraction, a-b-da, 14, 3, 7, 10, 181, 111, 195, 120, 120, 195, 1, 0.424208
67, 1, bw, attraction, a-b-da, 2, 3, 7, 11, 195, 120, 120, 195, 193, 119, 2, 1.61264
67, 1, bw, attraction, a-b-da, 2, 3, 7, 11, 195, 120, 120, 195, 193, 119, 1, 0.370717
67, 1, bw, filler, NA, 999, 999, 7, 12, 129, 129, 100, 78, 151, 84, 1, 0.833979
67, 1, bw, filler, NA, 999, 999, 7, 12, 129, 129, 100, 78, 151, 84, 2, 0.399826
67, 1, bw, attraction, a-b-db, 9, 2, 7, 13, 90, 165, 165, 90, 86, 157, 1, 3.13353
67, 1, bw, attraction, a-b-db, 9, 2, 7, 13, 90, 165, 165, 90, 86, 157, 2, 0.472425
67, 1, bw, attraction, a-b-da, 5, 2, 7, 14, 165, 90, 161, 88, 90, 165, 3, 1.41765
67, 1, bw, attraction, a-b-da, 5, 2, 7, 14, 165, 90, 161, 88, 90, 165, 1, 0.463739
67, 1, bw, attraction, a-b-da, 9, 3, 7, 15, 195, 120, 120, 195, 186, 114, 1, 0.946888
67, 1, bw, attraction, a-b-da, 9, 3, 7, 15, 195, 120, 120, 195, 186, 114, 3, 0.844069
67, 1, bw, filler, NA, 999, 999, 7, 16, 133, 104, 100, 86, 84, 128, 1, 1.27156
67, 1, bw, filler, NA, 999, 999, 7, 16, 133, 104, 100, 86, 84, 128, 2, 0.531238
67, 1, bw, attraction, a-b-db, 2, 2, 7, 17, 89, 163, 165, 90, 90, 165, 3, 2.47568
67, 1, bw, attraction, a-b-db, 2, 2, 7, 17, 89, 163, 165, 90, 90, 165, 2, 0.718849
67, 1, bw, attraction, a-b-db, 5, 1, 7, 18, 135, 60, 60, 135, 58, 132, 2, 2.62398
67, 1, bw, attraction, a-b-db, 5, 1, 7, 18, 135, 60, 60, 135, 58, 132, 1, 0.501066
67, 1, bw, attraction, a-b-da, 5, 3, 7, 19, 195, 120, 120, 195, 190, 117, 2, 1.57482
67, 1, bw, attraction, a-b-da, 5, 3, 7, 19, 195, 120, 120, 195, 190, 117, 3, 0.926416
67, 1, bw, filler, NA, 999, 999, 7, 20, 113, 58, 189, 136, 58, 146, 2, 1.47059
67, 1, bw, filler, NA, 999, 999, 7, 20, 113, 58, 189, 136, 58, 146, 1, 0.634835
67, 1, bw, filler, NA, 999, 999, 7, 21, 170, 170, 69, 124, 160, 155, 1, 1.04737
67, 1, bw, filler, NA, 999, 999, 7, 21, 170, 170, 69, 124, 160, 155, 2, 0.316189
67, 1, bw, attraction, a-b-db, 9, 1, 7, 22, 57, 129, 135, 60, 60, 135, 3, 1.01331
67, 1, bw, attraction, a-b-db, 9, 1, 7, 22, 57, 129, 135, 60, 60, 135, 2, 0.811667
67, 1, bw, catch, NA, 999, 999, 7, 23, 85, 110, 153, 102, 185, 130, 3, 0.576692
67, 1, bw, catch, NA, 999, 999, 7, 23, 85, 110, 153, 102, 185, 130, 1, 0.368451
67, 1, bw, attraction, a-b-db, 14, 1, 7, 24, 56, 125, 60, 135, 135, 60, 2, 2.97561
67, 1, bw, attraction, a-b-db, 14, 1, 7, 24, 56, 125, 60, 135, 135, 60, 1, 0.750723
67, 1, bw, attraction, a-b-db, 5, 3, 7, 25, 120, 195, 117, 190, 195, 120, 1, 3.68652
67, 1, bw, attraction, a-b-db, 5, 3, 7, 25, 120, 195, 117, 190, 195, 120, 3, 0.84129
67, 1, bw, attraction, a-b-db, 14, 2, 7, 26, 90, 165, 83, 153, 165, 90, 1, 1.05304
67, 1, bw, attraction, a-b-db, 14, 2, 7, 26, 90, 165, 83, 153, 165, 90, 2, 0.689948
67, 1, bw, catch, NA, 999, 999, 7, 27, 142, 113, 68, 127, 165, 150, 3, 0.611585
67, 1, bw, catch, NA, 999, 999, 7, 27, 142, 113, 68, 127, 165, 150, 2, 0.37802
67, 1, bw, attraction, a-b-da, 14, 1, 7, 28, 125, 56, 135, 60, 60, 135, 3, 1.17663
67, 1, bw, attraction, a-b-da, 14, 1, 7, 28, 125, 56, 135, 60, 60, 135, 2, 0.424345
67, 1, bw, attraction, a-b-da, 2, 1, 7, 29, 134, 59, 60, 135, 135, 60, 2, 1.60476
67, 1, bw, attraction, a-b-da, 2, 1, 7, 29, 134, 59, 60, 135, 135, 60, 1, 0.834799
67, 1, bw, filler, NA, 999, 999, 7, 30, 90, 114, 57, 145, 116, 61, 1, 2.72719
67, 1, bw, filler, NA, 999, 999, 7, 30, 90, 114, 57, 145, 116, 61, 3, 0.688228
67, 1, bw, attraction, a-b-da, 9, 2, 7, 31, 90, 165, 165, 90, 157, 86, 1, 1.45057
67, 1, bw, attraction, a-b-da, 9, 2, 7, 31, 90, 165, 165, 90, 157, 86, 3, 0.327482
67, 1, bw, attraction, a-b-db, 14, 3, 7, 32, 195, 120, 111, 181, 120, 195, 3, 1.48002
67, 1, bw, attraction, a-b-db, 14, 3, 7, 32, 195, 120, 111, 181, 120, 195, 2, 0.347505
67, 1, bw, attraction, a-b-da, 9, 1, 7, 33, 129, 57, 135, 60, 60, 135, 3, 1.47534
67, 1, bw, attraction, a-b-da, 9, 1, 7, 33, 129, 57, 135, 60, 60, 135, 1, 0.454873
67, 1, bw, filler, NA, 999, 999, 7, 34, 69, 88, 182, 181, 64, 162, 2, 0.642737
67, 1, bw, filler, NA, 999, 999, 7, 34, 69, 88, 182, 181, 64, 162, 1, 0.535714
67, 1, bw, attraction, a-b-db, 2, 3, 7, 35, 195, 120, 120, 195, 119, 193, 3, 1.13612
67, 1, bw, attraction, a-b-db, 2, 3, 7, 35, 195, 120, 120, 195, 119, 193, 1, 0.513833
67, 1, bw, filler, NA, 999, 999, 7, 36, 162, 136, 97, 80, 56, 96, 1, 0.506875
67, 1, bw, filler, NA, 999, 999, 7, 36, 162, 136, 97, 80, 56, 96, 3, 0.853494
67, 1, bw, attraction, a-b-db, 9, 3, 7, 37, 120, 195, 114, 186, 195, 120, 1, 1.22506
67, 1, bw, attraction, a-b-db, 9, 3, 7, 37, 120, 195, 114, 186, 195, 120, 3, 0.422802
67, 1, bw, attraction, a-b-db, 14, 3, 8, 1, 120, 195, 195, 120, 111, 181, 1, 1.96378
67, 1, bw, attraction, a-b-db, 14, 3, 8, 1, 120, 195, 195, 120, 111, 181, 3, 0.251848
67, 1, bw, catch, NA, 999, 999, 8, 2, 128, 127, 195, 120, 119, 76, 2, 1.11171
67, 1, bw, catch, NA, 999, 999, 8, 2, 128, 127, 195, 120, 119, 76, 3, 0.217981
67, 1, bw, attraction, a-b-db, 9, 3, 8, 3, 114, 186, 120, 195, 195, 120, 2, 1.07926
67, 1, bw, attraction, a-b-db, 9, 3, 8, 3, 114, 186, 120, 195, 195, 120, 3, 0.410964
67, 1, bw, attraction, a-b-db, 2, 3, 8, 4, 120, 195, 119, 193, 195, 120, 2, 1.43997
67, 1, bw, attraction, a-b-db, 2, 3, 8, 4, 120, 195, 119, 193, 195, 120, 3, 0.340884
67, 1, bw, filler, NA, 999, 999, 8, 5, 68, 98, 84, 70, 89, 186, 3, 0.628929
67, 1, bw, filler, NA, 999, 999, 8, 5, 68, 98, 84, 70, 89, 186, 2, 0.58649
67, 1, bw, filler, NA, 999, 999, 8, 6, 179, 132, 194, 66, 106, 102, 1, 0.66481
67, 1, bw, filler, NA, 999, 999, 8, 6, 179, 132, 194, 66, 106, 102, 3, 0.365389
67, 1, bw, attraction, a-b-db, 5, 2, 8, 7, 165, 90, 88, 161, 90, 165, 3, 1.63652
67, 1, bw, attraction, a-b-db, 5, 2, 8, 7, 165, 90, 88, 161, 90, 165, 2, 0.506027
67, 1, bw, attraction, a-b-da, 9, 2, 8, 8, 90, 165, 165, 90, 157, 86, 2, 1.32379
67, 1, bw, attraction, a-b-da, 9, 2, 8, 8, 90, 165, 165, 90, 157, 86, 3, 0.853341
67, 1, bw, filler, NA, 999, 999, 8, 9, 125, 88, 85, 112, 102, 67, 1, 2.22496
67, 1, bw, filler, NA, 999, 999, 8, 9, 125, 88, 85, 112, 102, 67, 3, 0.462253
67, 1, bw, catch, NA, 999, 999, 8, 10, 166, 149, 136, 119, 75, 120, 1, 0.658804
67, 1, bw, catch, NA, 999, 999, 8, 10, 166, 149, 136, 119, 75, 120, 3, 0.309898
67, 1, bw, attraction, a-b-da, 2, 2, 8, 11, 165, 90, 90, 165, 163, 89, 2, 1.67902
67, 1, bw, attraction, a-b-da, 2, 2, 8, 11, 165, 90, 90, 165, 163, 89, 3, 0.338537
67, 1, bw, filler, NA, 999, 999, 8, 12, 114, 102, 70, 117, 134, 95, 3, 1.78699
67, 1, bw, filler, NA, 999, 999, 8, 12, 114, 102, 70, 117, 134, 95, 2, 0.370371
67, 1, bw, attraction, a-b-da, 5, 1, 8, 13, 60, 135, 132, 58, 135, 60, 1, 2.3055
67, 1, bw, attraction, a-b-da, 5, 1, 8, 13, 60, 135, 132, 58, 135, 60, 2, 0.25953
67, 1, bw, attraction, a-b-da, 14, 1, 8, 14, 125, 56, 135, 60, 60, 135, 2, 1.22284
67, 1, bw, attraction, a-b-da, 14, 1, 8, 14, 125, 56, 135, 60, 60, 135, 1, 0.500192
67, 1, bw, attraction, a-b-db, 5, 3, 8, 15, 117, 190, 120, 195, 195, 120, 2, 1.63803
67, 1, bw, attraction, a-b-db, 5, 3, 8, 15, 117, 190, 120, 195, 195, 120, 3, 0.434807
67, 1, bw, catch, NA, 999, 999, 8, 16, 130, 125, 99, 96, 172, 143, 3, 0.751403
67, 1, bw, catch, NA, 999, 999, 8, 16, 130, 125, 99, 96, 172, 143, 2, 0.368288
67, 1, bw, attraction, a-b-db, 9, 2, 8, 17, 165, 90, 90, 165, 86, 157, 2, 1.26346
67, 1, bw, attraction, a-b-db, 9, 2, 8, 17, 165, 90, 90, 165, 86, 157, 1, 0.539709
67, 1, bw, filler, NA, 999, 999, 8, 18, 181, 117, 165, 64, 152, 66, 1, 0.652313
67, 1, bw, filler, NA, 999, 999, 8, 18, 181, 117, 165, 64, 152, 66, 2, 0.329414
67, 1, bw, filler, NA, 999, 999, 8, 19, 177, 162, 125, 59, 193, 86, 1, 0.737717
67, 1, bw, filler, NA, 999, 999, 8, 19, 177, 162, 125, 59, 193, 86, 2, 0.338906
67, 1, bw, attraction, a-b-db, 14, 2, 8, 20, 165, 90, 90, 165, 83, 153, 2, 0.971332
67, 1, bw, attraction, a-b-db, 14, 2, 8, 20, 165, 90, 90, 165, 83, 153, 3, 1.29907
67, 1, bw, attraction, a-b-da, 5, 3, 8, 21, 195, 120, 190, 117, 120, 195, 1, 0.804573
67, 1, bw, attraction, a-b-da, 5, 3, 8, 21, 195, 120, 190, 117, 120, 195, 2, 1.14773
67, 1, bw, attraction, a-b-db, 5, 1, 8, 22, 60, 135, 58, 132, 135, 60, 2, 1.0913
67, 1, bw, attraction, a-b-db, 5, 1, 8, 22, 60, 135, 58, 132, 135, 60, 3, 0.295093
67, 1, bw, attraction, a-b-da, 14, 2, 8, 23, 165, 90, 153, 83, 90, 165, 3, 0.94401
67, 1, bw, attraction, a-b-da, 14, 2, 8, 23, 165, 90, 153, 83, 90, 165, 2, 0.345158
67, 1, bw, filler, NA, 999, 999, 8, 24, 141, 77, 84, 150, 174, 56, 2, 2.64088
67, 1, bw, filler, NA, 999, 999, 8, 24, 141, 77, 84, 150, 174, 56, 1, 1.01341
67, 1, bw, attraction, a-b-db, 2, 2, 8, 25, 90, 165, 89, 163, 165, 90, 2, 1.14639
67, 1, bw, attraction, a-b-db, 2, 2, 8, 25, 90, 165, 89, 163, 165, 90, 3, 0.475258
67, 1, bw, attraction, a-b-db, 14, 1, 8, 26, 135, 60, 60, 135, 56, 125, 2, 1.51766
67, 1, bw, attraction, a-b-db, 14, 1, 8, 26, 135, 60, 60, 135, 56, 125, 1, 0.367818
67, 1, bw, attraction, a-b-da, 2, 1, 8, 27, 135, 60, 134, 59, 60, 135, 1, 0.879052
67, 1, bw, attraction, a-b-da, 2, 1, 8, 27, 135, 60, 134, 59, 60, 135, 3, 0.314728
67, 1, bw, attraction, a-b-db, 9, 1, 8, 28, 135, 60, 60, 135, 57, 129, 2, 0.54789
67, 1, bw, attraction, a-b-db, 9, 1, 8, 28, 135, 60, 60, 135, 57, 129, 1, 0.821023
67, 1, bw, attraction, a-b-da, 2, 3, 8, 29, 193, 119, 120, 195, 195, 120, 2, 1.37814
67, 1, bw, attraction, a-b-da, 2, 3, 8, 29, 193, 119, 120, 195, 195, 120, 1, 0.569674
67, 1, bw, filler, NA, 999, 999, 8, 30, 161, 189, 180, 182, 183, 147, 2, 1.33668
67, 1, bw, filler, NA, 999, 999, 8, 30, 161, 189, 180, 182, 183, 147, 3, 0.522288
67, 1, bw, attraction, a-b-da, 9, 1, 8, 31, 135, 60, 129, 57, 60, 135, 3, 1.65143
67, 1, bw, attraction, a-b-da, 9, 1, 8, 31, 135, 60, 129, 57, 60, 135, 2, 0.472205
67, 1, bw, attraction, a-b-da, 9, 3, 8, 32, 186, 114, 195, 120, 120, 195, 3, 1.55525
67, 1, bw, attraction, a-b-da, 9, 3, 8, 32, 186, 114, 195, 120, 120, 195, 1, 0.419527
67, 1, bw, attraction, a-b-db, 2, 1, 8, 33, 135, 60, 60, 135, 59, 134, 3, 1.88059
67, 1, bw, attraction, a-b-db, 2, 1, 8, 33, 135, 60, 60, 135, 59, 134, 1, 0.443909
67, 1, bw, attraction, a-b-da, 5, 2, 8, 34, 165, 90, 90, 165, 161, 88, 2, 0.983829
67, 1, bw, attraction, a-b-da, 5, 2, 8, 34, 165, 90, 90, 165, 161, 88, 1, 0.647499
67, 1, bw, filler, NA, 999, 999, 8, 35, 109, 83, 169, 67, 103, 94, 3, 2.46729
67, 1, bw, filler, NA, 999, 999, 8, 35, 109, 83, 169, 67, 103, 94, 2, 2.31926
67, 1, bw, filler, NA, 999, 999, 8, 36, 60, 139, 58, 108, 153, 90, 3, 0.887648
67, 1, bw, filler, NA, 999, 999, 8, 36, 60, 139, 58, 108, 153, 90, 2, 0.619297
67, 1, bw, attraction, a-b-da, 14, 3, 8, 37, 181, 111, 120, 195, 195, 120, 2, 1.08848
67, 1, bw, attraction, a-b-da, 14, 3, 8, 37, 181, 111, 120, 195, 195, 120, 1, 1.03552
