sub_n, computer_n, bw_cond, effect, set, distance, diag, block_n, trial_n, h1, w1, h2, w2, h3, w3, choice, rt 
63, 1, bw, practice, NA, 999, 999, 0, 1, 110, 113, 91, 160, 130, 93, 2, 9.04397
63, 1, bw, practice, NA, 999, 999, 0, 1, 110, 113, 91, 160, 130, 93, 1, 4.0626
63, 1, bw, practice, NA, 999, 999, 0, 2, 74, 118, 58, 140, 97, 70, 1, 2.97455
63, 1, bw, practice, NA, 999, 999, 0, 2, 74, 118, 58, 140, 97, 70, 3, 2.53073
63, 1, bw, practice, NA, 999, 999, 0, 3, 61, 108, 149, 89, 156, 106, 3, 2.44984
63, 1, bw, practice, NA, 999, 999, 0, 3, 61, 108, 149, 89, 156, 106, 1, 1.46976
63, 1, bw, attraction, a-b-da, 14, 1, 1, 1, 125, 56, 60, 135, 135, 60, 2, 5.03201
63, 1, bw, attraction, a-b-da, 14, 1, 1, 1, 125, 56, 60, 135, 135, 60, 1, 1.4525
63, 1, bw, filler, NA, 999, 999, 1, 2, 137, 158, 89, 97, 127, 139, 1, 2.21605
63, 1, bw, filler, NA, 999, 999, 1, 2, 137, 158, 89, 97, 127, 139, 2, 1.25398
63, 1, bw, attraction, a-b-db, 14, 2, 1, 3, 90, 165, 83, 153, 165, 90, 1, 6.24154
63, 1, bw, attraction, a-b-db, 14, 2, 1, 3, 90, 165, 83, 153, 165, 90, 2, 2.23687
63, 1, bw, filler, NA, 999, 999, 1, 4, 119, 146, 72, 120, 139, 171, 3, 1.49684
63, 1, bw, filler, NA, 999, 999, 1, 4, 119, 146, 72, 120, 139, 171, 2, 1.57962
63, 1, bw, filler, NA, 999, 999, 1, 5, 192, 81, 139, 174, 65, 170, 2, 2.67376
63, 1, bw, filler, NA, 999, 999, 1, 5, 192, 81, 139, 174, 65, 170, 3, 1.44488
63, 1, bw, attraction, a-b-db, 14, 1, 1, 6, 56, 125, 135, 60, 60, 135, 3, 7.18435
63, 1, bw, attraction, a-b-db, 14, 1, 1, 6, 56, 125, 135, 60, 60, 135, 1, 1.02208
63, 1, bw, attraction, a-b-da, 9, 2, 1, 7, 90, 165, 157, 86, 165, 90, 2, 6.81895
63, 1, bw, attraction, a-b-da, 9, 2, 1, 7, 90, 165, 157, 86, 165, 90, 3, 2.55966
63, 1, bw, filler, NA, 999, 999, 1, 8, 190, 154, 188, 121, 161, 169, 1, 6.26997
63, 1, bw, filler, NA, 999, 999, 1, 8, 190, 154, 188, 121, 161, 169, 2, 0.85663
63, 1, bw, attraction, a-b-db, 5, 1, 1, 9, 58, 132, 135, 60, 60, 135, 3, 3.34831
63, 1, bw, attraction, a-b-db, 5, 1, 1, 9, 58, 132, 135, 60, 60, 135, 2, 0.876593
63, 1, bw, filler, NA, 999, 999, 1, 10, 156, 93, 145, 84, 174, 120, 3, 1.91096
63, 1, bw, filler, NA, 999, 999, 1, 10, 156, 93, 145, 84, 174, 120, 2, 1.80098
63, 1, bw, attraction, a-b-da, 5, 2, 1, 11, 161, 88, 90, 165, 165, 90, 2, 3.11037
63, 1, bw, attraction, a-b-da, 5, 2, 1, 11, 161, 88, 90, 165, 165, 90, 1, 0.776116
63, 1, bw, filler, NA, 999, 999, 1, 12, 80, 108, 153, 113, 126, 166, 3, 3.8465
63, 1, bw, filler, NA, 999, 999, 1, 12, 80, 108, 153, 113, 126, 166, 1, 0.810592
63, 1, bw, attraction, a-b-da, 2, 2, 1, 13, 165, 90, 90, 165, 163, 89, 2, 3.9676
63, 1, bw, attraction, a-b-da, 2, 2, 1, 13, 165, 90, 90, 165, 163, 89, 3, 1.38295
63, 1, bw, catch, NA, 999, 999, 1, 14, 97, 98, 194, 121, 109, 146, 2, 1.95716
63, 1, bw, catch, NA, 999, 999, 1, 14, 97, 98, 194, 121, 109, 146, 1, 1.46128
63, 1, bw, attraction, a-b-da, 2, 1, 1, 15, 60, 135, 135, 60, 134, 59, 1, 6.11992
63, 1, bw, attraction, a-b-da, 2, 1, 1, 15, 60, 135, 135, 60, 134, 59, 3, 0.744883
63, 1, bw, attraction, a-b-db, 14, 3, 1, 16, 120, 195, 111, 181, 195, 120, 1, 4.16844
63, 1, bw, attraction, a-b-db, 14, 3, 1, 16, 120, 195, 111, 181, 195, 120, 2, 0.575875
63, 1, bw, attraction, a-b-da, 14, 2, 1, 17, 165, 90, 90, 165, 153, 83, 1, 1.99029
63, 1, bw, attraction, a-b-da, 14, 2, 1, 17, 165, 90, 90, 165, 153, 83, 3, 0.804844
63, 1, bw, attraction, a-b-da, 9, 3, 1, 18, 120, 195, 195, 120, 186, 114, 2, 2.89051
63, 1, bw, attraction, a-b-da, 9, 3, 1, 18, 120, 195, 195, 120, 186, 114, 3, 2.90908
63, 1, bw, attraction, a-b-da, 5, 3, 1, 19, 195, 120, 120, 195, 190, 117, 2, 3.82926
63, 1, bw, attraction, a-b-da, 5, 3, 1, 19, 195, 120, 120, 195, 190, 117, 3, 0.898035
63, 1, bw, attraction, a-b-db, 2, 1, 1, 20, 59, 134, 60, 135, 135, 60, 2, 2.0118
63, 1, bw, attraction, a-b-db, 2, 1, 1, 20, 59, 134, 60, 135, 135, 60, 1, 3.61774
63, 1, bw, attraction, a-b-da, 14, 3, 1, 21, 195, 120, 181, 111, 120, 195, 3, 6.7099
63, 1, bw, attraction, a-b-da, 14, 3, 1, 21, 195, 120, 181, 111, 120, 195, 2, 1.79935
63, 1, bw, filler, NA, 999, 999, 1, 22, 96, 118, 178, 101, 108, 158, 2, 4.13982
63, 1, bw, filler, NA, 999, 999, 1, 22, 96, 118, 178, 101, 108, 158, 1, 0.395857
63, 1, bw, catch, NA, 999, 999, 1, 23, 95, 100, 182, 133, 90, 165, 2, 1.6737
63, 1, bw, catch, NA, 999, 999, 1, 23, 95, 100, 182, 133, 90, 165, 1, 1.14115
63, 1, bw, attraction, a-b-db, 9, 2, 1, 24, 86, 157, 90, 165, 165, 90, 2, 2.02867
63, 1, bw, attraction, a-b-db, 9, 2, 1, 24, 86, 157, 90, 165, 165, 90, 1, 3.01003
63, 1, bw, attraction, a-b-db, 2, 3, 1, 25, 119, 193, 195, 120, 120, 195, 1, 7.7423
63, 1, bw, attraction, a-b-db, 2, 3, 1, 25, 119, 193, 195, 120, 120, 195, 3, 0.49334
63, 1, bw, attraction, a-b-da, 2, 3, 1, 26, 193, 119, 120, 195, 195, 120, 2, 2.28695
63, 1, bw, attraction, a-b-da, 2, 3, 1, 26, 193, 119, 120, 195, 195, 120, 3, 0.634274
63, 1, bw, attraction, a-b-db, 9, 3, 1, 27, 120, 195, 195, 120, 114, 186, 1, 2.41468
63, 1, bw, attraction, a-b-db, 9, 3, 1, 27, 120, 195, 195, 120, 114, 186, 3, 0.940614
63, 1, bw, attraction, a-b-db, 9, 1, 1, 28, 57, 129, 135, 60, 60, 135, 2, 2.35626
63, 1, bw, attraction, a-b-db, 9, 1, 1, 28, 57, 129, 135, 60, 60, 135, 1, 0.748207
63, 1, bw, filler, NA, 999, 999, 1, 29, 65, 104, 156, 93, 140, 98, 2, 1.36391
63, 1, bw, filler, NA, 999, 999, 1, 29, 65, 104, 156, 93, 140, 98, 1, 0.860074
63, 1, bw, attraction, a-b-db, 2, 2, 1, 30, 165, 90, 90, 165, 89, 163, 2, 4.54318
63, 1, bw, attraction, a-b-db, 2, 2, 1, 30, 165, 90, 90, 165, 89, 163, 3, 1.06293
63, 1, bw, catch, NA, 999, 999, 1, 31, 110, 145, 132, 183, 107, 88, 2, 0.921985
63, 1, bw, catch, NA, 999, 999, 1, 31, 110, 145, 132, 183, 107, 88, 3, 0.667574
63, 1, bw, attraction, a-b-db, 5, 3, 1, 32, 195, 120, 117, 190, 120, 195, 1, 6.13461
63, 1, bw, attraction, a-b-db, 5, 3, 1, 32, 195, 120, 117, 190, 120, 195, 2, 0.454643
63, 1, bw, attraction, a-b-da, 9, 1, 1, 33, 135, 60, 129, 57, 60, 135, 1, 3.4665
63, 1, bw, attraction, a-b-da, 9, 1, 1, 33, 135, 60, 129, 57, 60, 135, 2, 0.534119
63, 1, bw, attraction, a-b-da, 5, 1, 1, 34, 135, 60, 60, 135, 132, 58, 2, 2.4225
63, 1, bw, attraction, a-b-da, 5, 1, 1, 34, 135, 60, 60, 135, 132, 58, 3, 0.675816
63, 1, bw, attraction, a-b-db, 5, 2, 1, 35, 90, 165, 165, 90, 88, 161, 2, 4.99835
63, 1, bw, attraction, a-b-db, 5, 2, 1, 35, 90, 165, 165, 90, 88, 161, 3, 0.651837
63, 1, bw, filler, NA, 999, 999, 1, 36, 177, 114, 168, 65, 181, 78, 1, 0.999619
63, 1, bw, filler, NA, 999, 999, 1, 36, 177, 114, 168, 65, 181, 78, 2, 1.08668
63, 1, bw, filler, NA, 999, 999, 1, 37, 175, 156, 126, 149, 133, 145, 1, 1.33674
63, 1, bw, filler, NA, 999, 999, 1, 37, 175, 156, 126, 149, 133, 145, 3, 0.962389
63, 1, bw, attraction, a-b-db, 14, 3, 2, 1, 120, 195, 111, 181, 195, 120, 1, 5.32142
63, 1, bw, attraction, a-b-db, 14, 3, 2, 1, 120, 195, 111, 181, 195, 120, 2, 0.394497
63, 1, bw, attraction, a-b-da, 2, 3, 2, 2, 195, 120, 120, 195, 193, 119, 2, 3.96029
63, 1, bw, attraction, a-b-da, 2, 3, 2, 2, 195, 120, 120, 195, 193, 119, 3, 0.527574
63, 1, bw, filler, NA, 999, 999, 2, 3, 84, 103, 147, 132, 177, 138, 3, 2.09605
63, 1, bw, filler, NA, 999, 999, 2, 3, 84, 103, 147, 132, 177, 138, 1, 1.38672
63, 1, bw, attraction, a-b-db, 9, 1, 2, 4, 135, 60, 60, 135, 57, 129, 2, 3.79286
63, 1, bw, attraction, a-b-db, 9, 1, 2, 4, 135, 60, 60, 135, 57, 129, 1, 3.12702
63, 1, bw, filler, NA, 999, 999, 2, 5, 103, 152, 158, 166, 136, 159, 2, 1.3826
63, 1, bw, filler, NA, 999, 999, 2, 5, 103, 152, 158, 166, 136, 159, 1, 1.06222
63, 1, bw, filler, NA, 999, 999, 2, 6, 59, 169, 142, 162, 114, 117, 2, 1.03302
63, 1, bw, filler, NA, 999, 999, 2, 6, 59, 169, 142, 162, 114, 117, 1, 1.46271
63, 1, bw, attraction, a-b-da, 9, 1, 2, 7, 135, 60, 60, 135, 129, 57, 2, 5.77763
63, 1, bw, attraction, a-b-da, 9, 1, 2, 7, 135, 60, 60, 135, 129, 57, 3, 0.543755
63, 1, bw, catch, NA, 999, 999, 2, 8, 184, 131, 107, 88, 146, 109, 1, 0.975499
63, 1, bw, catch, NA, 999, 999, 2, 8, 184, 131, 107, 88, 146, 109, 2, 0.887273
63, 1, bw, attraction, a-b-db, 2, 2, 2, 9, 90, 165, 89, 163, 165, 90, 3, 4.8414
63, 1, bw, attraction, a-b-db, 2, 2, 2, 9, 90, 165, 89, 163, 165, 90, 1, 2.94144
63, 1, bw, attraction, a-b-da, 2, 1, 2, 10, 60, 135, 135, 60, 134, 59, 2, 3.6123
63, 1, bw, attraction, a-b-da, 2, 1, 2, 10, 60, 135, 135, 60, 134, 59, 3, 0.425857
63, 1, bw, catch, NA, 999, 999, 2, 11, 145, 170, 155, 100, 125, 70, 1, 1.67829
63, 1, bw, catch, NA, 999, 999, 2, 11, 145, 170, 155, 100, 125, 70, 3, 0.777752
63, 1, bw, filler, NA, 999, 999, 2, 12, 114, 142, 70, 133, 176, 190, 3, 1.01612
63, 1, bw, filler, NA, 999, 999, 2, 12, 114, 142, 70, 133, 176, 190, 2, 1.59042
63, 1, bw, attraction, a-b-db, 14, 1, 2, 13, 135, 60, 60, 135, 56, 125, 2, 1.4039
63, 1, bw, attraction, a-b-db, 14, 1, 2, 13, 135, 60, 60, 135, 56, 125, 3, 1.37879
63, 1, bw, attraction, a-b-db, 9, 3, 2, 14, 114, 186, 195, 120, 120, 195, 2, 3.34499
63, 1, bw, attraction, a-b-db, 9, 3, 2, 14, 114, 186, 195, 120, 120, 195, 1, 0.721324
63, 1, bw, attraction, a-b-da, 9, 2, 2, 15, 157, 86, 90, 165, 165, 90, 2, 3.49017
63, 1, bw, attraction, a-b-da, 9, 2, 2, 15, 157, 86, 90, 165, 165, 90, 1, 0.500423
63, 1, bw, filler, NA, 999, 999, 2, 16, 60, 70, 115, 56, 92, 88, 3, 0.934197
63, 1, bw, filler, NA, 999, 999, 2, 16, 60, 70, 115, 56, 92, 88, 1, 0.92803
63, 1, bw, attraction, a-b-db, 14, 2, 2, 17, 83, 153, 90, 165, 165, 90, 2, 3.24018
63, 1, bw, attraction, a-b-db, 14, 2, 2, 17, 83, 153, 90, 165, 165, 90, 1, 2.16459
63, 1, bw, filler, NA, 999, 999, 2, 18, 102, 65, 76, 106, 118, 121, 3, 0.899118
63, 1, bw, filler, NA, 999, 999, 2, 18, 102, 65, 76, 106, 118, 121, 1, 1.73409
63, 1, bw, attraction, a-b-da, 14, 2, 2, 19, 153, 83, 90, 165, 165, 90, 2, 2.81422
63, 1, bw, attraction, a-b-da, 14, 2, 2, 19, 153, 83, 90, 165, 165, 90, 1, 1.02806
63, 1, bw, catch, NA, 999, 999, 2, 20, 139, 116, 128, 67, 139, 176, 3, 3.60829
63, 1, bw, catch, NA, 999, 999, 2, 20, 139, 116, 128, 67, 139, 176, 2, 1.09377
63, 1, bw, attraction, a-b-da, 14, 3, 2, 21, 181, 111, 195, 120, 120, 195, 2, 2.49528
63, 1, bw, attraction, a-b-da, 14, 3, 2, 21, 181, 111, 195, 120, 120, 195, 1, 2.05787
63, 1, bw, attraction, a-b-da, 5, 1, 2, 22, 60, 135, 132, 58, 135, 60, 1, 2.92458
63, 1, bw, attraction, a-b-da, 5, 1, 2, 22, 60, 135, 132, 58, 135, 60, 2, 1.10953
63, 1, bw, filler, NA, 999, 999, 2, 23, 156, 152, 131, 62, 158, 135, 1, 1.64648
63, 1, bw, filler, NA, 999, 999, 2, 23, 156, 152, 131, 62, 158, 135, 2, 1.05137
63, 1, bw, attraction, a-b-da, 9, 3, 2, 24, 186, 114, 120, 195, 195, 120, 2, 1.98292
63, 1, bw, attraction, a-b-da, 9, 3, 2, 24, 186, 114, 120, 195, 195, 120, 1, 0.734288
63, 1, bw, attraction, a-b-db, 5, 2, 2, 25, 90, 165, 165, 90, 88, 161, 1, 3.28663
63, 1, bw, attraction, a-b-db, 5, 2, 2, 25, 90, 165, 165, 90, 88, 161, 2, 2.52165
63, 1, bw, attraction, a-b-db, 2, 3, 2, 26, 119, 193, 120, 195, 195, 120, 3, 4.41011
63, 1, bw, attraction, a-b-db, 2, 3, 2, 26, 119, 193, 120, 195, 195, 120, 2, 0.583269
63, 1, bw, attraction, a-b-db, 2, 1, 2, 27, 59, 134, 60, 135, 135, 60, 2, 4.7097
63, 1, bw, attraction, a-b-db, 2, 1, 2, 27, 59, 134, 60, 135, 135, 60, 1, 3.45501
63, 1, bw, attraction, a-b-da, 5, 3, 2, 28, 195, 120, 120, 195, 190, 117, 1, 4.91381
63, 1, bw, attraction, a-b-da, 5, 3, 2, 28, 195, 120, 120, 195, 190, 117, 3, 1.41893
63, 1, bw, filler, NA, 999, 999, 2, 29, 124, 180, 194, 63, 163, 110, 1, 2.1117
63, 1, bw, filler, NA, 999, 999, 2, 29, 124, 180, 194, 63, 163, 110, 2, 0.617721
63, 1, bw, attraction, a-b-db, 5, 3, 2, 30, 117, 190, 195, 120, 120, 195, 2, 4.31877
63, 1, bw, attraction, a-b-db, 5, 3, 2, 30, 117, 190, 195, 120, 120, 195, 1, 0.928093
63, 1, bw, attraction, a-b-db, 9, 2, 2, 31, 165, 90, 90, 165, 86, 157, 2, 9.50084
63, 1, bw, attraction, a-b-db, 9, 2, 2, 31, 165, 90, 90, 165, 86, 157, 3, 0.440727
63, 1, bw, attraction, a-b-da, 14, 1, 2, 32, 135, 60, 125, 56, 60, 135, 1, 3.28454
63, 1, bw, attraction, a-b-da, 14, 1, 2, 32, 135, 60, 125, 56, 60, 135, 2, 2.7355
63, 1, bw, attraction, a-b-da, 5, 2, 2, 33, 165, 90, 161, 88, 90, 165, 2, 4.59126
63, 1, bw, attraction, a-b-da, 5, 2, 2, 33, 165, 90, 161, 88, 90, 165, 3, 1.39714
63, 1, bw, filler, NA, 999, 999, 2, 34, 68, 132, 66, 166, 60, 145, 2, 1.85062
63, 1, bw, filler, NA, 999, 999, 2, 34, 68, 132, 66, 166, 60, 145, 1, 1.84745
63, 1, bw, attraction, a-b-da, 2, 2, 2, 35, 165, 90, 90, 165, 163, 89, 2, 4.84276
63, 1, bw, attraction, a-b-da, 2, 2, 2, 35, 165, 90, 90, 165, 163, 89, 3, 0.406492
63, 1, bw, attraction, a-b-db, 5, 1, 2, 36, 135, 60, 60, 135, 58, 132, 2, 2.42832
63, 1, bw, attraction, a-b-db, 5, 1, 2, 36, 135, 60, 60, 135, 58, 132, 1, 0.569663
63, 1, bw, filler, NA, 999, 999, 2, 37, 157, 154, 84, 187, 148, 92, 1, 1.36066
63, 1, bw, filler, NA, 999, 999, 2, 37, 157, 154, 84, 187, 148, 92, 3, 1.25727
63, 1, bw, attraction, a-b-db, 9, 2, 3, 1, 165, 90, 90, 165, 86, 157, 2, 7.69968
63, 1, bw, attraction, a-b-db, 9, 2, 3, 1, 165, 90, 90, 165, 86, 157, 1, 0.50867
63, 1, bw, attraction, a-b-da, 2, 3, 3, 2, 120, 195, 195, 120, 193, 119, 1, 4.53375
63, 1, bw, attraction, a-b-da, 2, 3, 3, 2, 120, 195, 195, 120, 193, 119, 3, 1.73439
63, 1, bw, filler, NA, 999, 999, 3, 3, 94, 104, 107, 126, 187, 161, 3, 1.29435
63, 1, bw, filler, NA, 999, 999, 3, 3, 94, 104, 107, 126, 187, 161, 1, 0.74537
63, 1, bw, attraction, a-b-db, 14, 3, 3, 4, 195, 120, 120, 195, 111, 181, 2, 2.137
63, 1, bw, attraction, a-b-db, 14, 3, 3, 4, 195, 120, 120, 195, 111, 181, 3, 0.898313
63, 1, bw, attraction, a-b-db, 2, 2, 3, 5, 165, 90, 89, 163, 90, 165, 2, 2.85192
63, 1, bw, attraction, a-b-db, 2, 2, 3, 5, 165, 90, 89, 163, 90, 165, 3, 1.65636
63, 1, bw, attraction, a-b-db, 9, 1, 3, 6, 60, 135, 57, 129, 135, 60, 3, 4.71578
63, 1, bw, attraction, a-b-db, 9, 1, 3, 6, 60, 135, 57, 129, 135, 60, 1, 0.66096
63, 1, bw, filler, NA, 999, 999, 3, 7, 181, 90, 194, 165, 124, 144, 2, 0.696068
63, 1, bw, filler, NA, 999, 999, 3, 7, 181, 90, 194, 165, 124, 144, 1, 2.18713
63, 1, bw, catch, NA, 999, 999, 3, 8, 159, 156, 134, 121, 100, 95, 1, 1.25701
63, 1, bw, catch, NA, 999, 999, 3, 8, 159, 156, 134, 121, 100, 95, 3, 0.669362
63, 1, bw, filler, NA, 999, 999, 3, 9, 71, 57, 134, 173, 147, 74, 2, 2.08837
63, 1, bw, filler, NA, 999, 999, 3, 9, 71, 57, 134, 173, 147, 74, 1, 0.731719
63, 1, bw, attraction, a-b-da, 5, 1, 3, 10, 135, 60, 132, 58, 60, 135, 1, 1.67602
63, 1, bw, attraction, a-b-da, 5, 1, 3, 10, 135, 60, 132, 58, 60, 135, 3, 1.19153
63, 1, bw, attraction, a-b-da, 14, 3, 3, 11, 120, 195, 181, 111, 195, 120, 1, 4.02126
63, 1, bw, attraction, a-b-da, 14, 3, 3, 11, 120, 195, 181, 111, 195, 120, 2, 0.898503
63, 1, bw, catch, NA, 999, 999, 3, 12, 186, 129, 146, 109, 105, 90, 1, 0.788136
63, 1, bw, catch, NA, 999, 999, 3, 12, 186, 129, 146, 109, 105, 90, 3, 0.619227
63, 1, bw, attraction, a-b-da, 2, 1, 3, 13, 60, 135, 135, 60, 134, 59, 2, 6.31229
63, 1, bw, attraction, a-b-da, 2, 1, 3, 13, 60, 135, 135, 60, 134, 59, 3, 0.288972
63, 1, bw, attraction, a-b-da, 5, 3, 3, 14, 190, 117, 120, 195, 195, 120, 3, 2.34762
63, 1, bw, attraction, a-b-da, 5, 3, 3, 14, 190, 117, 120, 195, 195, 120, 1, 0.548164
63, 1, bw, attraction, a-b-da, 9, 2, 3, 15, 165, 90, 90, 165, 157, 86, 2, 4.2838
63, 1, bw, attraction, a-b-da, 9, 2, 3, 15, 165, 90, 90, 165, 157, 86, 1, 1.16652
63, 1, bw, attraction, a-b-db, 14, 1, 3, 16, 60, 135, 135, 60, 56, 125, 1, 3.80531
63, 1, bw, attraction, a-b-db, 14, 1, 3, 16, 60, 135, 135, 60, 56, 125, 3, 0.419405
63, 1, bw, filler, NA, 999, 999, 3, 17, 177, 127, 148, 146, 65, 113, 1, 1.08863
63, 1, bw, filler, NA, 999, 999, 3, 17, 177, 127, 148, 146, 65, 113, 3, 1.33158
63, 1, bw, attraction, a-b-db, 5, 3, 3, 18, 120, 195, 195, 120, 117, 190, 1, 8.41973
63, 1, bw, attraction, a-b-db, 5, 3, 3, 18, 120, 195, 195, 120, 117, 190, 2, 0.591718
63, 1, bw, filler, NA, 999, 999, 3, 19, 173, 166, 89, 161, 104, 61, 1, 0.757506
63, 1, bw, filler, NA, 999, 999, 3, 19, 173, 166, 89, 161, 104, 61, 3, 0.461958
63, 1, bw, attraction, a-b-da, 5, 2, 3, 20, 161, 88, 165, 90, 90, 165, 1, 2.75319
63, 1, bw, attraction, a-b-da, 5, 2, 3, 20, 161, 88, 165, 90, 90, 165, 3, 0.689523
63, 1, bw, attraction, a-b-da, 14, 2, 3, 21, 90, 165, 153, 83, 165, 90, 1, 3.37193
63, 1, bw, attraction, a-b-da, 14, 2, 3, 21, 90, 165, 153, 83, 165, 90, 2, 0.63495
63, 1, bw, attraction, a-b-da, 9, 3, 3, 22, 195, 120, 120, 195, 186, 114, 2, 2.25517
63, 1, bw, attraction, a-b-da, 9, 3, 3, 22, 195, 120, 120, 195, 186, 114, 3, 0.62787
63, 1, bw, attraction, a-b-db, 14, 2, 3, 23, 165, 90, 90, 165, 83, 153, 2, 3.57619
63, 1, bw, attraction, a-b-db, 14, 2, 3, 23, 165, 90, 90, 165, 83, 153, 3, 0.311108
63, 1, bw, filler, NA, 999, 999, 3, 24, 104, 87, 68, 71, 70, 168, 3, 2.72024
63, 1, bw, filler, NA, 999, 999, 3, 24, 104, 87, 68, 71, 70, 168, 2, 1.14608
63, 1, bw, attraction, a-b-db, 5, 2, 3, 25, 88, 161, 165, 90, 90, 165, 3, 3.72974
63, 1, bw, attraction, a-b-db, 5, 2, 3, 25, 88, 161, 165, 90, 90, 165, 1, 0.866433
63, 1, bw, attraction, a-b-da, 9, 1, 3, 26, 135, 60, 129, 57, 60, 135, 3, 1.57359
63, 1, bw, attraction, a-b-da, 9, 1, 3, 26, 135, 60, 129, 57, 60, 135, 2, 1.22108
63, 1, bw, filler, NA, 999, 999, 3, 27, 195, 57, 153, 84, 92, 99, 2, 2.25802
63, 1, bw, filler, NA, 999, 999, 3, 27, 195, 57, 153, 84, 92, 99, 1, 6.74184
63, 1, bw, attraction, a-b-db, 9, 3, 3, 28, 114, 186, 120, 195, 195, 120, 2, 1.43633
63, 1, bw, attraction, a-b-db, 9, 3, 3, 28, 114, 186, 120, 195, 195, 120, 1, 0.857865
63, 1, bw, attraction, a-b-db, 5, 1, 3, 29, 58, 132, 135, 60, 60, 135, 3, 1.3488
63, 1, bw, attraction, a-b-db, 5, 1, 3, 29, 58, 132, 135, 60, 60, 135, 1, 1.17366
63, 1, bw, attraction, a-b-da, 2, 2, 3, 30, 163, 89, 165, 90, 90, 165, 3, 3.70009
63, 1, bw, attraction, a-b-da, 2, 2, 3, 30, 163, 89, 165, 90, 90, 165, 2, 0.350126
63, 1, bw, attraction, a-b-db, 2, 3, 3, 31, 120, 195, 195, 120, 119, 193, 2, 1.63796
63, 1, bw, attraction, a-b-db, 2, 3, 3, 31, 120, 195, 195, 120, 119, 193, 3, 0.7467
63, 1, bw, catch, NA, 999, 999, 3, 32, 140, 175, 108, 87, 164, 91, 1, 2.32242
63, 1, bw, catch, NA, 999, 999, 3, 32, 140, 175, 108, 87, 164, 91, 2, 0.475698
63, 1, bw, filler, NA, 999, 999, 3, 33, 169, 116, 57, 97, 119, 87, 1, 1.77418
63, 1, bw, filler, NA, 999, 999, 3, 33, 169, 116, 57, 97, 119, 87, 2, 0.893578
63, 1, bw, filler, NA, 999, 999, 3, 34, 134, 162, 79, 93, 101, 147, 1, 1.88723
63, 1, bw, filler, NA, 999, 999, 3, 34, 134, 162, 79, 93, 101, 147, 2, 0.434608
63, 1, bw, attraction, a-b-db, 2, 1, 3, 35, 59, 134, 60, 135, 135, 60, 2, 2.08714
63, 1, bw, attraction, a-b-db, 2, 1, 3, 35, 59, 134, 60, 135, 135, 60, 1, 1.2264
63, 1, bw, filler, NA, 999, 999, 3, 36, 121, 125, 66, 106, 180, 129, 3, 0.766606
63, 1, bw, filler, NA, 999, 999, 3, 36, 121, 125, 66, 106, 180, 129, 2, 0.711077
63, 1, bw, attraction, a-b-da, 14, 1, 3, 37, 135, 60, 60, 135, 125, 56, 2, 3.98408
63, 1, bw, attraction, a-b-da, 14, 1, 3, 37, 135, 60, 60, 135, 125, 56, 3, 0.374845
63, 1, bw, attraction, a-b-db, 5, 2, 4, 1, 165, 90, 88, 161, 90, 165, 2, 1.99728
63, 1, bw, attraction, a-b-db, 5, 2, 4, 1, 165, 90, 88, 161, 90, 165, 3, 1.84409
63, 1, bw, attraction, a-b-db, 5, 3, 4, 2, 117, 190, 120, 195, 195, 120, 2, 1.53529
63, 1, bw, attraction, a-b-db, 5, 3, 4, 2, 117, 190, 120, 195, 195, 120, 1, 2.6168
63, 1, bw, attraction, a-b-db, 2, 1, 4, 3, 135, 60, 60, 135, 59, 134, 2, 2.39726
63, 1, bw, attraction, a-b-db, 2, 1, 4, 3, 135, 60, 60, 135, 59, 134, 3, 0.547807
63, 1, bw, attraction, a-b-da, 2, 1, 4, 4, 135, 60, 60, 135, 134, 59, 3, 1.42771
63, 1, bw, attraction, a-b-da, 2, 1, 4, 4, 135, 60, 60, 135, 134, 59, 1, 1.03326
63, 1, bw, catch, NA, 999, 999, 4, 5, 115, 80, 182, 133, 163, 92, 2, 0.877527
63, 1, bw, catch, NA, 999, 999, 4, 5, 115, 80, 182, 133, 163, 92, 1, 1.02515
63, 1, bw, filler, NA, 999, 999, 4, 6, 120, 79, 72, 140, 168, 80, 3, 1.53342
63, 1, bw, filler, NA, 999, 999, 4, 6, 120, 79, 72, 140, 168, 80, 1, 1.11124
63, 1, bw, attraction, a-b-da, 2, 2, 4, 7, 90, 165, 165, 90, 163, 89, 3, 10.2878
63, 1, bw, attraction, a-b-da, 2, 2, 4, 7, 90, 165, 165, 90, 163, 89, 2, 0.344734
63, 1, bw, attraction, a-b-db, 9, 3, 4, 8, 195, 120, 114, 186, 120, 195, 1, 2.93651
63, 1, bw, attraction, a-b-db, 9, 3, 4, 8, 195, 120, 114, 186, 120, 195, 2, 1.00943
63, 1, bw, attraction, a-b-da, 5, 1, 4, 9, 132, 58, 60, 135, 135, 60, 3, 3.53439
63, 1, bw, attraction, a-b-da, 5, 1, 4, 9, 132, 58, 60, 135, 135, 60, 1, 2.47139
63, 1, bw, catch, NA, 999, 999, 4, 10, 85, 110, 158, 97, 125, 190, 3, 0.825777
63, 1, bw, catch, NA, 999, 999, 4, 10, 85, 110, 158, 97, 125, 190, 1, 0.439683
63, 1, bw, filler, NA, 999, 999, 4, 11, 155, 172, 69, 139, 81, 163, 1, 0.908034
63, 1, bw, filler, NA, 999, 999, 4, 11, 155, 172, 69, 139, 81, 163, 2, 0.822467
63, 1, bw, filler, NA, 999, 999, 4, 12, 159, 60, 158, 163, 96, 186, 2, 1.21139
63, 1, bw, filler, NA, 999, 999, 4, 12, 159, 60, 158, 163, 96, 186, 1, 1.60971
63, 1, bw, attraction, a-b-da, 14, 2, 4, 13, 153, 83, 165, 90, 90, 165, 3, 4.26257
63, 1, bw, attraction, a-b-da, 14, 2, 4, 13, 153, 83, 165, 90, 90, 165, 2, 0.401744
63, 1, bw, filler, NA, 999, 999, 4, 14, 167, 115, 152, 96, 171, 75, 1, 1.42346
63, 1, bw, filler, NA, 999, 999, 4, 14, 167, 115, 152, 96, 171, 75, 3, 1.25318
63, 1, bw, attraction, a-b-db, 9, 2, 4, 15, 165, 90, 86, 157, 90, 165, 2, 3.01658
63, 1, bw, attraction, a-b-db, 9, 2, 4, 15, 165, 90, 86, 157, 90, 165, 3, 0.718366
63, 1, bw, attraction, a-b-db, 9, 1, 4, 16, 60, 135, 135, 60, 57, 129, 1, 4.84727
63, 1, bw, attraction, a-b-db, 9, 1, 4, 16, 60, 135, 135, 60, 57, 129, 2, 0.891203
63, 1, bw, filler, NA, 999, 999, 4, 17, 75, 181, 119, 68, 137, 77, 1, 3.18878
63, 1, bw, filler, NA, 999, 999, 4, 17, 75, 181, 119, 68, 137, 77, 2, 0.379844
63, 1, bw, attraction, a-b-db, 2, 3, 4, 18, 120, 195, 195, 120, 119, 193, 1, 2.77831
63, 1, bw, attraction, a-b-db, 2, 3, 4, 18, 120, 195, 195, 120, 119, 193, 3, 0.545438
63, 1, bw, attraction, a-b-da, 5, 3, 4, 19, 120, 195, 190, 117, 195, 120, 3, 2.31315
63, 1, bw, attraction, a-b-da, 5, 3, 4, 19, 120, 195, 190, 117, 195, 120, 1, 1.63521
63, 1, bw, filler, NA, 999, 999, 4, 20, 187, 58, 122, 149, 82, 120, 2, 2.25518
63, 1, bw, filler, NA, 999, 999, 4, 20, 187, 58, 122, 149, 82, 120, 1, 1.81181
63, 1, bw, attraction, a-b-da, 14, 3, 4, 21, 195, 120, 120, 195, 181, 111, 1, 1.82445
63, 1, bw, attraction, a-b-da, 14, 3, 4, 21, 195, 120, 120, 195, 181, 111, 3, 1.6379
63, 1, bw, attraction, a-b-db, 14, 1, 4, 22, 56, 125, 135, 60, 60, 135, 3, 3.52199
63, 1, bw, attraction, a-b-db, 14, 1, 4, 22, 56, 125, 135, 60, 60, 135, 1, 0.419476
63, 1, bw, filler, NA, 999, 999, 4, 23, 186, 58, 84, 145, 154, 95, 3, 6.40865
63, 1, bw, filler, NA, 999, 999, 4, 23, 186, 58, 84, 145, 154, 95, 1, 0.781355
63, 1, bw, attraction, a-b-db, 14, 2, 4, 24, 83, 153, 90, 165, 165, 90, 2, 1.72365
63, 1, bw, attraction, a-b-db, 14, 2, 4, 24, 83, 153, 90, 165, 165, 90, 1, 1.14111
63, 1, bw, catch, NA, 999, 999, 4, 25, 142, 173, 104, 91, 110, 145, 1, 0.772597
63, 1, bw, catch, NA, 999, 999, 4, 25, 142, 173, 104, 91, 110, 145, 2, 1.22037
63, 1, bw, attraction, a-b-da, 2, 3, 4, 26, 195, 120, 120, 195, 193, 119, 3, 5.4973
63, 1, bw, attraction, a-b-da, 2, 3, 4, 26, 195, 120, 120, 195, 193, 119, 2, 0.514895
63, 1, bw, attraction, a-b-da, 14, 1, 4, 27, 135, 60, 125, 56, 60, 135, 2, 3.0121
63, 1, bw, attraction, a-b-da, 14, 1, 4, 27, 135, 60, 125, 56, 60, 135, 3, 1.28183
63, 1, bw, attraction, a-b-da, 9, 1, 4, 28, 135, 60, 129, 57, 60, 135, 3, 3.66805
63, 1, bw, attraction, a-b-da, 9, 1, 4, 28, 135, 60, 129, 57, 60, 135, 1, 0.607528
63, 1, bw, attraction, a-b-da, 5, 2, 4, 29, 90, 165, 165, 90, 161, 88, 2, 2.52462
63, 1, bw, attraction, a-b-da, 5, 2, 4, 29, 90, 165, 165, 90, 161, 88, 1, 0.581705
63, 1, bw, filler, NA, 999, 999, 4, 30, 89, 104, 187, 83, 72, 103, 2, 1.82801
63, 1, bw, filler, NA, 999, 999, 4, 30, 89, 104, 187, 83, 72, 103, 3, 0.577681
63, 1, bw, attraction, a-b-da, 9, 2, 4, 31, 90, 165, 157, 86, 165, 90, 3, 1.5759
63, 1, bw, attraction, a-b-da, 9, 2, 4, 31, 90, 165, 157, 86, 165, 90, 2, 1.36741
63, 1, bw, filler, NA, 999, 999, 4, 32, 60, 70, 73, 85, 110, 194, 3, 0.83028
63, 1, bw, filler, NA, 999, 999, 4, 32, 60, 70, 73, 85, 110, 194, 1, 0.588046
63, 1, bw, filler, NA, 999, 999, 4, 33, 193, 98, 115, 193, 60, 193, 2, 3.01047
63, 1, bw, filler, NA, 999, 999, 4, 33, 193, 98, 115, 193, 60, 193, 3, 1.26414
63, 1, bw, attraction, a-b-db, 14, 3, 4, 34, 111, 181, 195, 120, 120, 195, 3, 2.08298
63, 1, bw, attraction, a-b-db, 14, 3, 4, 34, 111, 181, 195, 120, 120, 195, 1, 0.614314
63, 1, bw, attraction, a-b-da, 9, 3, 4, 35, 186, 114, 120, 195, 195, 120, 3, 3.39545
63, 1, bw, attraction, a-b-da, 9, 3, 4, 35, 186, 114, 120, 195, 195, 120, 2, 0.377723
63, 1, bw, attraction, a-b-db, 5, 1, 4, 36, 58, 132, 60, 135, 135, 60, 1, 2.12006
63, 1, bw, attraction, a-b-db, 5, 1, 4, 36, 58, 132, 60, 135, 135, 60, 3, 1.58612
63, 1, bw, attraction, a-b-db, 2, 2, 4, 37, 165, 90, 90, 165, 89, 163, 1, 5.00826
63, 1, bw, attraction, a-b-db, 2, 2, 4, 37, 165, 90, 90, 165, 89, 163, 3, 0.781359
63, 1, bw, attraction, a-b-db, 2, 2, 5, 1, 89, 163, 165, 90, 90, 165, 3, 4.50644
63, 1, bw, attraction, a-b-db, 2, 2, 5, 1, 89, 163, 165, 90, 90, 165, 1, 0.643523
63, 1, bw, attraction, a-b-da, 14, 2, 5, 2, 90, 165, 153, 83, 165, 90, 3, 1.93521
63, 1, bw, attraction, a-b-da, 14, 2, 5, 2, 90, 165, 153, 83, 165, 90, 2, 0.36862
63, 1, bw, filler, NA, 999, 999, 5, 3, 111, 159, 183, 76, 76, 77, 1, 1.93571
63, 1, bw, filler, NA, 999, 999, 5, 3, 111, 159, 183, 76, 76, 77, 3, 0.48919
63, 1, bw, filler, NA, 999, 999, 5, 4, 145, 142, 91, 171, 182, 155, 3, 1.13956
63, 1, bw, filler, NA, 999, 999, 5, 4, 145, 142, 91, 171, 182, 155, 2, 2.2926
63, 1, bw, catch, NA, 999, 999, 5, 5, 83, 112, 135, 180, 152, 103, 2, 1.18598
63, 1, bw, catch, NA, 999, 999, 5, 5, 83, 112, 135, 180, 152, 103, 1, 0.853401
63, 1, bw, attraction, a-b-db, 5, 1, 5, 6, 58, 132, 60, 135, 135, 60, 2, 2.49709
63, 1, bw, attraction, a-b-db, 5, 1, 5, 6, 58, 132, 60, 135, 135, 60, 1, 1.96364
63, 1, bw, attraction, a-b-da, 5, 2, 5, 7, 161, 88, 90, 165, 165, 90, 3, 2.84224
63, 1, bw, attraction, a-b-da, 5, 2, 5, 7, 161, 88, 90, 165, 165, 90, 1, 1.05475
63, 1, bw, filler, NA, 999, 999, 5, 8, 193, 65, 58, 134, 114, 113, 3, 4.81038
63, 1, bw, filler, NA, 999, 999, 5, 8, 193, 65, 58, 134, 114, 113, 2, 1.88735
63, 1, bw, filler, NA, 999, 999, 5, 9, 184, 127, 68, 154, 81, 65, 1, 2.59348
63, 1, bw, filler, NA, 999, 999, 5, 9, 184, 127, 68, 154, 81, 65, 3, 0.703904
63, 1, bw, filler, NA, 999, 999, 5, 10, 167, 133, 59, 117, 114, 136, 1, 1.12975
63, 1, bw, filler, NA, 999, 999, 5, 10, 167, 133, 59, 117, 114, 136, 2, 0.571303
63, 1, bw, attraction, a-b-da, 5, 1, 5, 11, 135, 60, 60, 135, 132, 58, 3, 5.89035
63, 1, bw, attraction, a-b-da, 5, 1, 5, 11, 135, 60, 60, 135, 132, 58, 2, 0.307776
63, 1, bw, attraction, a-b-db, 2, 3, 5, 12, 195, 120, 119, 193, 120, 195, 1, 7.25308
63, 1, bw, attraction, a-b-db, 2, 3, 5, 12, 195, 120, 119, 193, 120, 195, 3, 0.45611
63, 1, bw, attraction, a-b-db, 5, 2, 5, 13, 88, 161, 90, 165, 165, 90, 2, 1.7319
63, 1, bw, attraction, a-b-db, 5, 2, 5, 13, 88, 161, 90, 165, 165, 90, 1, 1.62122
63, 1, bw, filler, NA, 999, 999, 5, 14, 194, 132, 187, 178, 121, 143, 2, 0.986079
63, 1, bw, filler, NA, 999, 999, 5, 14, 194, 132, 187, 178, 121, 143, 3, 0.817689
63, 1, bw, attraction, a-b-db, 14, 2, 5, 15, 90, 165, 83, 153, 165, 90, 1, 3.7348
63, 1, bw, attraction, a-b-db, 14, 2, 5, 15, 90, 165, 83, 153, 165, 90, 3, 0.495692
63, 1, bw, attraction, a-b-da, 14, 1, 5, 16, 60, 135, 125, 56, 135, 60, 3, 4.35331
63, 1, bw, attraction, a-b-da, 14, 1, 5, 16, 60, 135, 125, 56, 135, 60, 2, 0.385559
63, 1, bw, attraction, a-b-db, 9, 3, 5, 17, 195, 120, 120, 195, 114, 186, 1, 5.23173
63, 1, bw, attraction, a-b-db, 9, 3, 5, 17, 195, 120, 120, 195, 114, 186, 3, 0.564193
63, 1, bw, attraction, a-b-db, 5, 3, 5, 18, 117, 190, 120, 195, 195, 120, 2, 10.2832
63, 1, bw, attraction, a-b-db, 5, 3, 5, 18, 117, 190, 120, 195, 195, 120, 3, 0.475976
63, 1, bw, attraction, a-b-db, 9, 2, 5, 19, 90, 165, 86, 157, 165, 90, 3, 2.31035
63, 1, bw, attraction, a-b-db, 9, 2, 5, 19, 90, 165, 86, 157, 165, 90, 2, 1.51236
63, 1, bw, attraction, a-b-da, 14, 3, 5, 20, 181, 111, 120, 195, 195, 120, 2, 1.70527
63, 1, bw, attraction, a-b-da, 14, 3, 5, 20, 181, 111, 120, 195, 195, 120, 3, 0.29925
63, 1, bw, attraction, a-b-db, 9, 1, 5, 21, 57, 129, 135, 60, 60, 135, 1, 2.89306
63, 1, bw, attraction, a-b-db, 9, 1, 5, 21, 57, 129, 135, 60, 60, 135, 2, 1.07946
63, 1, bw, attraction, a-b-da, 2, 2, 5, 22, 165, 90, 90, 165, 163, 89, 2, 2.44173
63, 1, bw, attraction, a-b-da, 2, 2, 5, 22, 165, 90, 90, 165, 163, 89, 1, 1.57441
63, 1, bw, filler, NA, 999, 999, 5, 23, 109, 131, 124, 184, 146, 190, 3, 1.58038
63, 1, bw, filler, NA, 999, 999, 5, 23, 109, 131, 124, 184, 146, 190, 1, 0.779886
63, 1, bw, attraction, a-b-db, 14, 1, 5, 24, 60, 135, 56, 125, 135, 60, 1, 2.85827
63, 1, bw, attraction, a-b-db, 14, 1, 5, 24, 60, 135, 56, 125, 135, 60, 3, 0.550014
63, 1, bw, attraction, a-b-db, 14, 3, 5, 25, 195, 120, 120, 195, 111, 181, 2, 1.5659
63, 1, bw, attraction, a-b-db, 14, 3, 5, 25, 195, 120, 120, 195, 111, 181, 3, 0.541878
63, 1, bw, filler, NA, 999, 999, 5, 26, 103, 111, 57, 84, 129, 171, 3, 1.08574
63, 1, bw, filler, NA, 999, 999, 5, 26, 103, 111, 57, 84, 129, 171, 2, 0.441398
63, 1, bw, filler, NA, 999, 999, 5, 27, 104, 59, 97, 164, 121, 195, 3, 1.16509
63, 1, bw, filler, NA, 999, 999, 5, 27, 104, 59, 97, 164, 121, 195, 1, 0.845437
63, 1, bw, attraction, a-b-da, 9, 1, 5, 28, 60, 135, 129, 57, 135, 60, 1, 2.49708
63, 1, bw, attraction, a-b-da, 9, 1, 5, 28, 60, 135, 129, 57, 135, 60, 2, 1.02765
63, 1, bw, filler, NA, 999, 999, 5, 29, 175, 79, 80, 154, 117, 62, 1, 2.0958
63, 1, bw, filler, NA, 999, 999, 5, 29, 175, 79, 80, 154, 117, 62, 3, 0.562487
63, 1, bw, catch, NA, 999, 999, 5, 30, 112, 83, 161, 94, 183, 132, 3, 1.34564
63, 1, bw, catch, NA, 999, 999, 5, 30, 112, 83, 161, 94, 183, 132, 1, 0.514569
63, 1, bw, attraction, a-b-da, 9, 3, 5, 31, 195, 120, 120, 195, 186, 114, 2, 2.02766
63, 1, bw, attraction, a-b-da, 9, 3, 5, 31, 195, 120, 120, 195, 186, 114, 3, 1.41698
63, 1, bw, attraction, a-b-db, 2, 1, 5, 32, 60, 135, 59, 134, 135, 60, 2, 2.21391
63, 1, bw, attraction, a-b-db, 2, 1, 5, 32, 60, 135, 59, 134, 135, 60, 1, 0.675723
63, 1, bw, attraction, a-b-da, 2, 3, 5, 33, 193, 119, 120, 195, 195, 120, 2, 2.49427
63, 1, bw, attraction, a-b-da, 2, 3, 5, 33, 193, 119, 120, 195, 195, 120, 1, 1.55268
63, 1, bw, attraction, a-b-da, 9, 2, 5, 34, 90, 165, 165, 90, 157, 86, 1, 2.42431
63, 1, bw, attraction, a-b-da, 9, 2, 5, 34, 90, 165, 165, 90, 157, 86, 3, 0.365288
63, 1, bw, attraction, a-b-da, 5, 3, 5, 35, 190, 117, 195, 120, 120, 195, 3, 1.69251
63, 1, bw, attraction, a-b-da, 5, 3, 5, 35, 190, 117, 195, 120, 120, 195, 1, 1.91134
63, 1, bw, catch, NA, 999, 999, 5, 36, 151, 104, 176, 139, 64, 131, 2, 0.807924
63, 1, bw, catch, NA, 999, 999, 5, 36, 151, 104, 176, 139, 64, 131, 3, 0.590325
63, 1, bw, attraction, a-b-da, 2, 1, 5, 37, 60, 135, 135, 60, 134, 59, 1, 3.68402
63, 1, bw, attraction, a-b-da, 2, 1, 5, 37, 60, 135, 135, 60, 134, 59, 2, 0.478903
63, 1, bw, attraction, a-b-da, 5, 2, 6, 1, 165, 90, 161, 88, 90, 165, 1, 1.16147
63, 1, bw, attraction, a-b-da, 5, 2, 6, 1, 165, 90, 161, 88, 90, 165, 2, 0.769679
63, 1, bw, attraction, a-b-da, 9, 3, 6, 2, 195, 120, 186, 114, 120, 195, 1, 1.43276
63, 1, bw, attraction, a-b-da, 9, 3, 6, 2, 195, 120, 186, 114, 120, 195, 2, 2.37434
63, 1, bw, filler, NA, 999, 999, 6, 3, 160, 106, 193, 175, 58, 59, 2, 0.676235
63, 1, bw, filler, NA, 999, 999, 6, 3, 160, 106, 193, 175, 58, 59, 3, 0.632081
63, 1, bw, attraction, a-b-db, 9, 2, 6, 4, 165, 90, 86, 157, 90, 165, 3, 7.10873
63, 1, bw, attraction, a-b-db, 9, 2, 6, 4, 165, 90, 86, 157, 90, 165, 1, 0.732748
63, 1, bw, filler, NA, 999, 999, 6, 5, 76, 76, 121, 165, 145, 108, 2, 0.74101
63, 1, bw, filler, NA, 999, 999, 6, 5, 76, 76, 121, 165, 145, 108, 1, 0.670239
63, 1, bw, filler, NA, 999, 999, 6, 6, 79, 106, 190, 126, 95, 174, 2, 1.02523
63, 1, bw, filler, NA, 999, 999, 6, 6, 79, 106, 190, 126, 95, 174, 1, 0.390988
63, 1, bw, attraction, a-b-da, 2, 2, 6, 7, 165, 90, 90, 165, 163, 89, 1, 5.73279
63, 1, bw, attraction, a-b-da, 2, 2, 6, 7, 165, 90, 90, 165, 163, 89, 3, 0.524865
63, 1, bw, filler, NA, 999, 999, 6, 8, 115, 108, 69, 185, 125, 88, 1, 0.781565
63, 1, bw, filler, NA, 999, 999, 6, 8, 115, 108, 69, 185, 125, 88, 3, 2.29323
63, 1, bw, attraction, a-b-db, 14, 3, 6, 9, 111, 181, 120, 195, 195, 120, 2, 2.28623
63, 1, bw, attraction, a-b-db, 14, 3, 6, 9, 111, 181, 120, 195, 195, 120, 3, 0.27352
63, 1, bw, attraction, a-b-da, 2, 1, 6, 10, 60, 135, 135, 60, 134, 59, 3, 2.81208
63, 1, bw, attraction, a-b-da, 2, 1, 6, 10, 60, 135, 135, 60, 134, 59, 2, 0.433795
63, 1, bw, attraction, a-b-db, 5, 3, 6, 11, 195, 120, 120, 195, 117, 190, 2, 2.57429
63, 1, bw, attraction, a-b-db, 5, 3, 6, 11, 195, 120, 120, 195, 117, 190, 3, 1.53357
63, 1, bw, attraction, a-b-db, 5, 1, 6, 12, 60, 135, 135, 60, 58, 132, 1, 1.63755
63, 1, bw, attraction, a-b-db, 5, 1, 6, 12, 60, 135, 135, 60, 58, 132, 2, 0.677393
63, 1, bw, attraction, a-b-db, 14, 1, 6, 13, 60, 135, 135, 60, 56, 125, 1, 2.97346
63, 1, bw, attraction, a-b-db, 14, 1, 6, 13, 60, 135, 135, 60, 56, 125, 3, 1.22851
63, 1, bw, attraction, a-b-da, 14, 3, 6, 14, 195, 120, 120, 195, 181, 111, 1, 3.71267
63, 1, bw, attraction, a-b-da, 14, 3, 6, 14, 195, 120, 120, 195, 181, 111, 3, 0.626239
63, 1, bw, attraction, a-b-da, 2, 3, 6, 15, 120, 195, 193, 119, 195, 120, 2, 4.99859
63, 1, bw, attraction, a-b-da, 2, 3, 6, 15, 120, 195, 193, 119, 195, 120, 1, 0.284459
63, 1, bw, attraction, a-b-db, 14, 2, 6, 16, 83, 153, 90, 165, 165, 90, 3, 4.05479
63, 1, bw, attraction, a-b-db, 14, 2, 6, 16, 83, 153, 90, 165, 165, 90, 1, 0.443017
63, 1, bw, filler, NA, 999, 999, 6, 17, 115, 80, 175, 118, 88, 77, 2, 1.17473
63, 1, bw, filler, NA, 999, 999, 6, 17, 115, 80, 175, 118, 88, 77, 3, 0.590308
63, 1, bw, catch, NA, 999, 999, 6, 18, 131, 124, 112, 83, 123, 192, 3, 2.02806
63, 1, bw, catch, NA, 999, 999, 6, 18, 131, 124, 112, 83, 123, 192, 2, 0.545426
63, 1, bw, filler, NA, 999, 999, 6, 19, 80, 113, 134, 177, 186, 102, 2, 1.5292
63, 1, bw, filler, NA, 999, 999, 6, 19, 80, 113, 134, 177, 186, 102, 1, 0.538708
63, 1, bw, attraction, a-b-da, 14, 2, 6, 20, 165, 90, 90, 165, 153, 83, 1, 2.33913
63, 1, bw, attraction, a-b-da, 14, 2, 6, 20, 165, 90, 90, 165, 153, 83, 3, 0.611748
63, 1, bw, attraction, a-b-da, 9, 2, 6, 21, 90, 165, 157, 86, 165, 90, 1, 2.51275
63, 1, bw, attraction, a-b-da, 9, 2, 6, 21, 90, 165, 157, 86, 165, 90, 2, 0.338612
63, 1, bw, attraction, a-b-db, 2, 3, 6, 22, 119, 193, 195, 120, 120, 195, 1, 1.29913
63, 1, bw, attraction, a-b-db, 2, 3, 6, 22, 119, 193, 195, 120, 120, 195, 3, 1.07804
63, 1, bw, attraction, a-b-db, 9, 3, 6, 23, 114, 186, 120, 195, 195, 120, 1, 3.09626
63, 1, bw, attraction, a-b-db, 9, 3, 6, 23, 114, 186, 120, 195, 195, 120, 3, 0.522625
63, 1, bw, attraction, a-b-db, 2, 1, 6, 24, 60, 135, 59, 134, 135, 60, 2, 2.50768
63, 1, bw, attraction, a-b-db, 2, 1, 6, 24, 60, 135, 59, 134, 135, 60, 3, 1.19756
63, 1, bw, attraction, a-b-da, 5, 3, 6, 25, 190, 117, 120, 195, 195, 120, 3, 3.04349
63, 1, bw, attraction, a-b-da, 5, 3, 6, 25, 190, 117, 120, 195, 195, 120, 1, 0.375683
63, 1, bw, filler, NA, 999, 999, 6, 26, 121, 151, 151, 128, 63, 65, 1, 2.91812
63, 1, bw, filler, NA, 999, 999, 6, 26, 121, 151, 151, 128, 63, 65, 3, 0.647738
63, 1, bw, filler, NA, 999, 999, 6, 27, 139, 188, 65, 115, 124, 127, 1, 0.987526
63, 1, bw, filler, NA, 999, 999, 6, 27, 139, 188, 65, 115, 124, 127, 2, 0.339117
63, 1, bw, catch, NA, 999, 999, 6, 28, 135, 120, 78, 117, 175, 140, 3, 0.915586
63, 1, bw, catch, NA, 999, 999, 6, 28, 135, 120, 78, 117, 175, 140, 2, 0.350068
63, 1, bw, attraction, a-b-da, 14, 1, 6, 29, 60, 135, 135, 60, 125, 56, 1, 3.20587
63, 1, bw, attraction, a-b-da, 14, 1, 6, 29, 60, 135, 135, 60, 125, 56, 3, 0.819444
63, 1, bw, attraction, a-b-da, 5, 1, 6, 30, 132, 58, 135, 60, 60, 135, 3, 1.33667
63, 1, bw, attraction, a-b-da, 5, 1, 6, 30, 132, 58, 135, 60, 60, 135, 1, 0.954119
63, 1, bw, attraction, a-b-db, 2, 2, 6, 31, 90, 165, 165, 90, 89, 163, 1, 1.22564
63, 1, bw, attraction, a-b-db, 2, 2, 6, 31, 90, 165, 165, 90, 89, 163, 3, 1.13526
63, 1, bw, attraction, a-b-db, 9, 1, 6, 32, 135, 60, 60, 135, 57, 129, 2, 1.65564
63, 1, bw, attraction, a-b-db, 9, 1, 6, 32, 135, 60, 60, 135, 57, 129, 3, 0.467765
63, 1, bw, attraction, a-b-db, 5, 2, 6, 33, 165, 90, 88, 161, 90, 165, 3, 3.1348
63, 1, bw, attraction, a-b-db, 5, 2, 6, 33, 165, 90, 88, 161, 90, 165, 2, 0.7678
63, 1, bw, filler, NA, 999, 999, 6, 34, 150, 71, 179, 111, 182, 149, 3, 1.60678
63, 1, bw, filler, NA, 999, 999, 6, 34, 150, 71, 179, 111, 182, 149, 1, 0.549092
63, 1, bw, attraction, a-b-da, 9, 1, 6, 35, 135, 60, 129, 57, 60, 135, 3, 2.5647
63, 1, bw, attraction, a-b-da, 9, 1, 6, 35, 135, 60, 129, 57, 60, 135, 1, 0.788604
63, 1, bw, filler, NA, 999, 999, 6, 36, 195, 181, 106, 183, 107, 79, 1, 1.73091
63, 1, bw, filler, NA, 999, 999, 6, 36, 195, 181, 106, 183, 107, 79, 3, 0.724379
63, 1, bw, catch, NA, 999, 999, 6, 37, 160, 95, 84, 111, 133, 182, 3, 10.5407
63, 1, bw, catch, NA, 999, 999, 6, 37, 160, 95, 84, 111, 133, 182, 2, 0.546862
63, 1, bw, attraction, a-b-da, 5, 3, 7, 1, 120, 195, 190, 117, 195, 120, 2, 3.08253
63, 1, bw, attraction, a-b-da, 5, 3, 7, 1, 120, 195, 190, 117, 195, 120, 3, 0.573569
63, 1, bw, catch, NA, 999, 999, 7, 2, 65, 130, 138, 177, 111, 144, 2, 0.827901
63, 1, bw, catch, NA, 999, 999, 7, 2, 65, 130, 138, 177, 111, 144, 1, 0.457677
63, 1, bw, attraction, a-b-da, 9, 3, 7, 3, 120, 195, 186, 114, 195, 120, 1, 1.6528
63, 1, bw, attraction, a-b-da, 9, 3, 7, 3, 120, 195, 186, 114, 195, 120, 2, 0.369635
63, 1, bw, filler, NA, 999, 999, 7, 4, 120, 129, 86, 195, 79, 113, 1, 2.42474
63, 1, bw, filler, NA, 999, 999, 7, 4, 120, 129, 86, 195, 79, 113, 3, 0.525992
63, 1, bw, filler, NA, 999, 999, 7, 5, 56, 67, 168, 127, 186, 128, 2, 1.33449
63, 1, bw, filler, NA, 999, 999, 7, 5, 56, 67, 168, 127, 186, 128, 1, 0.368115
63, 1, bw, filler, NA, 999, 999, 7, 6, 113, 131, 168, 194, 88, 75, 2, 0.727114
63, 1, bw, filler, NA, 999, 999, 7, 6, 113, 131, 168, 194, 88, 75, 3, 0.288914
63, 1, bw, attraction, a-b-db, 2, 1, 7, 7, 60, 135, 59, 134, 135, 60, 1, 1.49936
63, 1, bw, attraction, a-b-db, 2, 1, 7, 7, 60, 135, 59, 134, 135, 60, 3, 0.590294
63, 1, bw, attraction, a-b-da, 14, 3, 7, 8, 195, 120, 120, 195, 181, 111, 1, 1.41997
63, 1, bw, attraction, a-b-da, 14, 3, 7, 8, 195, 120, 120, 195, 181, 111, 3, 0.370285
63, 1, bw, filler, NA, 999, 999, 7, 9, 111, 68, 74, 175, 90, 94, 2, 2.05734
63, 1, bw, filler, NA, 999, 999, 7, 9, 111, 68, 74, 175, 90, 94, 1, 0.701394
63, 1, bw, filler, NA, 999, 999, 7, 10, 61, 82, 138, 67, 123, 91, 3, 0.991034
63, 1, bw, filler, NA, 999, 999, 7, 10, 61, 82, 138, 67, 123, 91, 1, 0.526013
63, 1, bw, attraction, a-b-db, 9, 1, 7, 11, 60, 135, 135, 60, 57, 129, 1, 1.10257
63, 1, bw, attraction, a-b-db, 9, 1, 7, 11, 60, 135, 135, 60, 57, 129, 3, 0.665486
63, 1, bw, attraction, a-b-da, 5, 2, 7, 12, 161, 88, 165, 90, 90, 165, 3, 3.54845
63, 1, bw, attraction, a-b-da, 5, 2, 7, 12, 161, 88, 165, 90, 90, 165, 1, 0.428783
63, 1, bw, attraction, a-b-da, 9, 1, 7, 13, 60, 135, 135, 60, 129, 57, 1, 2.27317
63, 1, bw, attraction, a-b-da, 9, 1, 7, 13, 60, 135, 135, 60, 129, 57, 2, 0.356557
63, 1, bw, attraction, a-b-db, 14, 3, 7, 14, 111, 181, 120, 195, 195, 120, 2, 2.20376
63, 1, bw, attraction, a-b-db, 14, 3, 7, 14, 111, 181, 120, 195, 195, 120, 1, 0.67429
63, 1, bw, filler, NA, 999, 999, 7, 15, 98, 120, 77, 163, 149, 85, 1, 5.70867
63, 1, bw, filler, NA, 999, 999, 7, 15, 98, 120, 77, 163, 149, 85, 3, 1.18955
63, 1, bw, filler, NA, 999, 999, 7, 16, 131, 56, 104, 158, 95, 60, 2, 0.947777
63, 1, bw, filler, NA, 999, 999, 7, 16, 131, 56, 104, 158, 95, 60, 3, 0.884719
63, 1, bw, attraction, a-b-db, 2, 3, 7, 17, 195, 120, 120, 195, 119, 193, 2, 2.22311
63, 1, bw, attraction, a-b-db, 2, 3, 7, 17, 195, 120, 120, 195, 119, 193, 3, 0.388321
63, 1, bw, attraction, a-b-db, 14, 2, 7, 18, 83, 153, 90, 165, 165, 90, 2, 1.11484
63, 1, bw, attraction, a-b-db, 14, 2, 7, 18, 83, 153, 90, 165, 165, 90, 1, 2.63721
63, 1, bw, attraction, a-b-da, 2, 2, 7, 19, 90, 165, 165, 90, 163, 89, 3, 1.88104
63, 1, bw, attraction, a-b-da, 2, 2, 7, 19, 90, 165, 165, 90, 163, 89, 2, 0.526161
63, 1, bw, attraction, a-b-da, 5, 1, 7, 20, 135, 60, 132, 58, 60, 135, 3, 2.4287
63, 1, bw, attraction, a-b-da, 5, 1, 7, 20, 135, 60, 132, 58, 60, 135, 2, 0.36193
63, 1, bw, attraction, a-b-db, 9, 2, 7, 21, 86, 157, 90, 165, 165, 90, 2, 1.85718
63, 1, bw, attraction, a-b-db, 9, 2, 7, 21, 86, 157, 90, 165, 165, 90, 3, 0.285312
63, 1, bw, attraction, a-b-da, 2, 1, 7, 22, 134, 59, 135, 60, 60, 135, 3, 1.31974
63, 1, bw, attraction, a-b-da, 2, 1, 7, 22, 134, 59, 135, 60, 60, 135, 2, 0.434077
63, 1, bw, attraction, a-b-da, 2, 3, 7, 23, 193, 119, 120, 195, 195, 120, 1, 1.48646
63, 1, bw, attraction, a-b-da, 2, 3, 7, 23, 193, 119, 120, 195, 195, 120, 3, 0.921952
63, 1, bw, attraction, a-b-db, 5, 2, 7, 24, 88, 161, 90, 165, 165, 90, 2, 1.33884
63, 1, bw, attraction, a-b-db, 5, 2, 7, 24, 88, 161, 90, 165, 165, 90, 3, 1.24378
63, 1, bw, filler, NA, 999, 999, 7, 25, 65, 148, 182, 59, 83, 195, 3, 0.735323
63, 1, bw, filler, NA, 999, 999, 7, 25, 65, 148, 182, 59, 83, 195, 1, 0.45711
63, 1, bw, attraction, a-b-da, 14, 2, 7, 26, 165, 90, 153, 83, 90, 165, 3, 2.21225
63, 1, bw, attraction, a-b-da, 14, 2, 7, 26, 165, 90, 153, 83, 90, 165, 2, 0.586176
63, 1, bw, attraction, a-b-db, 9, 3, 7, 27, 120, 195, 114, 186, 195, 120, 2, 2.84862
63, 1, bw, attraction, a-b-db, 9, 3, 7, 27, 120, 195, 114, 186, 195, 120, 1, 0.373235
63, 1, bw, attraction, a-b-db, 5, 3, 7, 28, 117, 190, 120, 195, 195, 120, 2, 0.860261
63, 1, bw, attraction, a-b-db, 5, 3, 7, 28, 117, 190, 120, 195, 195, 120, 3, 0.568544
63, 1, bw, catch, NA, 999, 999, 7, 29, 178, 137, 162, 93, 61, 134, 1, 0.807645
63, 1, bw, catch, NA, 999, 999, 7, 29, 178, 137, 162, 93, 61, 134, 3, 0.710001
63, 1, bw, attraction, a-b-da, 14, 1, 7, 30, 60, 135, 135, 60, 125, 56, 1, 1.8791
63, 1, bw, attraction, a-b-da, 14, 1, 7, 30, 60, 135, 135, 60, 125, 56, 3, 0.354576
63, 1, bw, catch, NA, 999, 999, 7, 31, 177, 138, 88, 107, 105, 150, 1, 0.946233
63, 1, bw, catch, NA, 999, 999, 7, 31, 177, 138, 88, 107, 105, 150, 2, 0.651416
63, 1, bw, attraction, a-b-db, 2, 2, 7, 32, 90, 165, 89, 163, 165, 90, 2, 1.82313
63, 1, bw, attraction, a-b-db, 2, 2, 7, 32, 90, 165, 89, 163, 165, 90, 3, 0.7645
63, 1, bw, filler, NA, 999, 999, 7, 33, 134, 120, 61, 67, 136, 77, 1, 0.651653
63, 1, bw, filler, NA, 999, 999, 7, 33, 134, 120, 61, 67, 136, 77, 2, 0.416747
63, 1, bw, attraction, a-b-db, 5, 1, 7, 34, 60, 135, 135, 60, 58, 132, 1, 1.18973
63, 1, bw, attraction, a-b-db, 5, 1, 7, 34, 60, 135, 135, 60, 58, 132, 3, 0.268711
63, 1, bw, attraction, a-b-da, 9, 2, 7, 35, 165, 90, 157, 86, 90, 165, 1, 2.63999
63, 1, bw, attraction, a-b-da, 9, 2, 7, 35, 165, 90, 157, 86, 90, 165, 2, 0.524359
63, 1, bw, filler, NA, 999, 999, 7, 36, 144, 119, 120, 57, 178, 180, 3, 0.716852
63, 1, bw, filler, NA, 999, 999, 7, 36, 144, 119, 120, 57, 178, 180, 2, 0.623187
63, 1, bw, attraction, a-b-db, 14, 1, 7, 37, 135, 60, 60, 135, 56, 125, 2, 2.03561
63, 1, bw, attraction, a-b-db, 14, 1, 7, 37, 135, 60, 60, 135, 56, 125, 3, 0.537048
63, 1, bw, filler, NA, 999, 999, 8, 1, 141, 128, 111, 150, 89, 63, 1, 1.24151
63, 1, bw, filler, NA, 999, 999, 8, 1, 141, 128, 111, 150, 89, 63, 3, 0.958542
63, 1, bw, filler, NA, 999, 999, 8, 2, 169, 68, 95, 98, 189, 157, 3, 0.933326
63, 1, bw, filler, NA, 999, 999, 8, 2, 169, 68, 95, 98, 189, 157, 2, 1.07904
63, 1, bw, attraction, a-b-db, 2, 2, 8, 3, 165, 90, 89, 163, 90, 165, 1, 3.3453
63, 1, bw, attraction, a-b-db, 2, 2, 8, 3, 165, 90, 89, 163, 90, 165, 2, 0.43346
63, 1, bw, attraction, a-b-db, 5, 2, 8, 4, 88, 161, 90, 165, 165, 90, 3, 5.28609
63, 1, bw, attraction, a-b-db, 5, 2, 8, 4, 88, 161, 90, 165, 165, 90, 1, 0.584245
63, 1, bw, catch, NA, 999, 999, 8, 5, 126, 129, 85, 110, 125, 190, 3, 2.10271
63, 1, bw, catch, NA, 999, 999, 8, 5, 126, 129, 85, 110, 125, 190, 2, 0.401379
63, 1, bw, attraction, a-b-da, 14, 3, 8, 6, 120, 195, 181, 111, 195, 120, 1, 2.0471
63, 1, bw, attraction, a-b-da, 14, 3, 8, 6, 120, 195, 181, 111, 195, 120, 2, 0.299874
63, 1, bw, attraction, a-b-db, 14, 2, 8, 7, 165, 90, 90, 165, 83, 153, 2, 2.04579
63, 1, bw, attraction, a-b-db, 14, 2, 8, 7, 165, 90, 90, 165, 83, 153, 3, 0.498717
63, 1, bw, attraction, a-b-db, 14, 1, 8, 8, 60, 135, 135, 60, 56, 125, 1, 1.60414
63, 1, bw, attraction, a-b-db, 14, 1, 8, 8, 60, 135, 135, 60, 56, 125, 3, 0.371003
63, 1, bw, attraction, a-b-db, 2, 3, 8, 9, 195, 120, 119, 193, 120, 195, 2, 2.25814
63, 1, bw, attraction, a-b-db, 2, 3, 8, 9, 195, 120, 119, 193, 120, 195, 3, 0.678061
63, 1, bw, attraction, a-b-da, 9, 3, 8, 10, 195, 120, 186, 114, 120, 195, 1, 2.9284
63, 1, bw, attraction, a-b-da, 9, 3, 8, 10, 195, 120, 186, 114, 120, 195, 2, 2.94554
63, 1, bw, attraction, a-b-db, 14, 3, 8, 11, 120, 195, 195, 120, 111, 181, 3, 2.24074
63, 1, bw, attraction, a-b-db, 14, 3, 8, 11, 120, 195, 195, 120, 111, 181, 1, 0.837173
63, 1, bw, filler, NA, 999, 999, 8, 12, 182, 121, 94, 181, 81, 173, 2, 1.92944
63, 1, bw, filler, NA, 999, 999, 8, 12, 182, 121, 94, 181, 81, 173, 3, 0.578865
63, 1, bw, attraction, a-b-da, 14, 2, 8, 13, 90, 165, 165, 90, 153, 83, 1, 1.16128
63, 1, bw, attraction, a-b-da, 14, 2, 8, 13, 90, 165, 165, 90, 153, 83, 3, 0.649622
63, 1, bw, attraction, a-b-da, 2, 2, 8, 14, 90, 165, 165, 90, 163, 89, 1, 1.06124
63, 1, bw, attraction, a-b-da, 2, 2, 8, 14, 90, 165, 165, 90, 163, 89, 2, 0.497576
63, 1, bw, attraction, a-b-da, 5, 3, 8, 15, 120, 195, 190, 117, 195, 120, 1, 2.72339
63, 1, bw, attraction, a-b-da, 5, 3, 8, 15, 120, 195, 190, 117, 195, 120, 3, 0.70055
63, 1, bw, filler, NA, 999, 999, 8, 16, 140, 165, 168, 116, 115, 139, 1, 0.766191
63, 1, bw, filler, NA, 999, 999, 8, 16, 140, 165, 168, 116, 115, 139, 3, 0.782581
63, 1, bw, attraction, a-b-da, 2, 3, 8, 17, 195, 120, 193, 119, 120, 195, 3, 2.71694
63, 1, bw, attraction, a-b-da, 2, 3, 8, 17, 195, 120, 193, 119, 120, 195, 1, 0.630991
63, 1, bw, filler, NA, 999, 999, 8, 18, 142, 187, 150, 182, 78, 81, 2, 0.699171
63, 1, bw, filler, NA, 999, 999, 8, 18, 142, 187, 150, 182, 78, 81, 3, 0.358243
63, 1, bw, attraction, a-b-db, 9, 3, 8, 19, 114, 186, 120, 195, 195, 120, 2, 4.63744
63, 1, bw, attraction, a-b-db, 9, 3, 8, 19, 114, 186, 120, 195, 195, 120, 3, 0.63401
63, 1, bw, attraction, a-b-db, 2, 1, 8, 20, 59, 134, 135, 60, 60, 135, 1, 2.63846
63, 1, bw, attraction, a-b-db, 2, 1, 8, 20, 59, 134, 135, 60, 60, 135, 2, 0.899111
63, 1, bw, filler, NA, 999, 999, 8, 21, 86, 126, 192, 88, 78, 69, 2, 1.32453
63, 1, bw, filler, NA, 999, 999, 8, 21, 86, 126, 192, 88, 78, 69, 3, 0.694139
63, 1, bw, attraction, a-b-da, 14, 1, 8, 22, 135, 60, 60, 135, 125, 56, 2, 2.53582
63, 1, bw, attraction, a-b-da, 14, 1, 8, 22, 135, 60, 60, 135, 125, 56, 1, 1.18503
63, 1, bw, catch, NA, 999, 999, 8, 23, 174, 141, 97, 158, 88, 107, 1, 1.17525
63, 1, bw, catch, NA, 999, 999, 8, 23, 174, 141, 97, 158, 88, 107, 3, 0.350946
63, 1, bw, attraction, a-b-db, 5, 1, 8, 24, 135, 60, 60, 135, 58, 132, 3, 3.46286
63, 1, bw, attraction, a-b-db, 5, 1, 8, 24, 135, 60, 60, 135, 58, 132, 2, 1.19437
63, 1, bw, attraction, a-b-da, 5, 2, 8, 25, 165, 90, 161, 88, 90, 165, 3, 3.43979
63, 1, bw, attraction, a-b-da, 5, 2, 8, 25, 165, 90, 161, 88, 90, 165, 2, 1.06007
63, 1, bw, filler, NA, 999, 999, 8, 26, 69, 185, 77, 116, 140, 98, 3, 1.54315
63, 1, bw, filler, NA, 999, 999, 8, 26, 69, 185, 77, 116, 140, 98, 2, 0.815973
63, 1, bw, attraction, a-b-da, 5, 1, 8, 27, 132, 58, 60, 135, 135, 60, 2, 1.8209
63, 1, bw, attraction, a-b-da, 5, 1, 8, 27, 132, 58, 60, 135, 135, 60, 3, 0.538902
63, 1, bw, catch, NA, 999, 999, 8, 28, 136, 179, 67, 128, 149, 106, 1, 0.627434
63, 1, bw, catch, NA, 999, 999, 8, 28, 136, 179, 67, 128, 149, 106, 2, 0.481235
63, 1, bw, attraction, a-b-db, 9, 2, 8, 29, 165, 90, 86, 157, 90, 165, 2, 4.0915
63, 1, bw, attraction, a-b-db, 9, 2, 8, 29, 165, 90, 86, 157, 90, 165, 3, 0.229606
63, 1, bw, filler, NA, 999, 999, 8, 30, 131, 110, 77, 138, 118, 173, 3, 2.00218
63, 1, bw, filler, NA, 999, 999, 8, 30, 131, 110, 77, 138, 118, 173, 2, 0.360899
63, 1, bw, attraction, a-b-da, 9, 1, 8, 31, 135, 60, 129, 57, 60, 135, 1, 1.99998
63, 1, bw, attraction, a-b-da, 9, 1, 8, 31, 135, 60, 129, 57, 60, 135, 2, 0.790691
63, 1, bw, attraction, a-b-db, 5, 3, 8, 32, 120, 195, 117, 190, 195, 120, 1, 1.22038
63, 1, bw, attraction, a-b-db, 5, 3, 8, 32, 120, 195, 117, 190, 195, 120, 2, 0.986666
63, 1, bw, filler, NA, 999, 999, 8, 33, 80, 66, 100, 160, 192, 63, 2, 1.40092
63, 1, bw, filler, NA, 999, 999, 8, 33, 80, 66, 100, 160, 192, 63, 1, 0.407823
63, 1, bw, attraction, a-b-db, 9, 1, 8, 34, 60, 135, 57, 129, 135, 60, 2, 2.65294
63, 1, bw, attraction, a-b-db, 9, 1, 8, 34, 60, 135, 57, 129, 135, 60, 3, 3.09781
63, 1, bw, attraction, a-b-da, 2, 1, 8, 35, 60, 135, 135, 60, 134, 59, 2, 5.00245
63, 1, bw, attraction, a-b-da, 2, 1, 8, 35, 60, 135, 135, 60, 134, 59, 1, 0.352122
63, 1, bw, filler, NA, 999, 999, 8, 36, 86, 137, 139, 134, 152, 95, 2, 0.751974
63, 1, bw, filler, NA, 999, 999, 8, 36, 86, 137, 139, 134, 152, 95, 1, 1.18506
63, 1, bw, attraction, a-b-da, 9, 2, 8, 37, 165, 90, 157, 86, 90, 165, 1, 1.76735
63, 1, bw, attraction, a-b-da, 9, 2, 8, 37, 165, 90, 157, 86, 90, 165, 2, 0.743448
