sub_n, computer_n, bw_cond, effect, set, distance, diag, block_n, trial_n, h1, w1, h2, w2, h3, w3, choice, rt 
60, 1, wb, practice, NA, 999, 999, 0, 1, 161, 167, 140, 82, 109, 141, 2, 1.85466
60, 1, wb, practice, NA, 999, 999, 0, 1, 161, 167, 140, 82, 109, 141, 1, 1.17095
60, 1, wb, practice, NA, 999, 999, 0, 2, 61, 127, 193, 123, 190, 184, 1, 1.68637
60, 1, wb, practice, NA, 999, 999, 0, 2, 61, 127, 193, 123, 190, 184, 3, 2.44123
60, 1, wb, practice, NA, 999, 999, 0, 3, 179, 115, 56, 91, 103, 135, 2, 1.26673
60, 1, wb, practice, NA, 999, 999, 0, 3, 179, 115, 56, 91, 103, 135, 1, 0.735546
60, 1, wb, filler, NA, 999, 999, 1, 1, 56, 121, 161, 106, 165, 144, 1, 0.709548
60, 1, wb, filler, NA, 999, 999, 1, 1, 56, 121, 161, 106, 165, 144, 3, 0.416039
60, 1, wb, attraction, a-b-da, 9, 3, 1, 2, 120, 195, 195, 120, 186, 114, 3, 1.42101
60, 1, wb, attraction, a-b-da, 9, 3, 1, 2, 120, 195, 195, 120, 186, 114, 1, 0.683294
60, 1, wb, attraction, a-b-db, 5, 2, 1, 3, 90, 165, 165, 90, 88, 161, 3, 2.42963
60, 1, wb, attraction, a-b-db, 5, 2, 1, 3, 90, 165, 165, 90, 88, 161, 1, 0.610869
60, 1, wb, attraction, a-b-da, 14, 3, 1, 4, 195, 120, 120, 195, 181, 111, 3, 1.44812
60, 1, wb, attraction, a-b-da, 14, 3, 1, 4, 195, 120, 120, 195, 181, 111, 2, 0.564821
60, 1, wb, filler, NA, 999, 999, 1, 5, 193, 84, 155, 94, 177, 148, 2, 0.827829
60, 1, wb, filler, NA, 999, 999, 1, 5, 193, 84, 155, 94, 177, 148, 3, 0.36156
60, 1, wb, filler, NA, 999, 999, 1, 6, 92, 191, 57, 88, 167, 90, 2, 0.600703
60, 1, wb, filler, NA, 999, 999, 1, 6, 92, 191, 57, 88, 167, 90, 1, 0.631989
60, 1, wb, filler, NA, 999, 999, 1, 7, 91, 104, 108, 95, 149, 104, 1, 0.56441
60, 1, wb, filler, NA, 999, 999, 1, 7, 91, 104, 108, 95, 149, 104, 3, 1.28481
60, 1, wb, attraction, a-b-db, 2, 1, 1, 8, 60, 135, 135, 60, 59, 134, 2, 3.28704
60, 1, wb, attraction, a-b-db, 2, 1, 1, 8, 60, 135, 135, 60, 59, 134, 1, 0.337943
60, 1, wb, attraction, a-b-da, 9, 2, 1, 9, 165, 90, 157, 86, 90, 165, 2, 1.72248
60, 1, wb, attraction, a-b-da, 9, 2, 1, 9, 165, 90, 157, 86, 90, 165, 1, 0.611947
60, 1, wb, attraction, a-b-db, 14, 3, 1, 10, 195, 120, 111, 181, 120, 195, 3, 1.47297
60, 1, wb, attraction, a-b-db, 14, 3, 1, 10, 195, 120, 111, 181, 120, 195, 1, 0.684457
60, 1, wb, attraction, a-b-db, 9, 3, 1, 11, 114, 186, 120, 195, 195, 120, 1, 1.1748
60, 1, wb, attraction, a-b-db, 9, 3, 1, 11, 114, 186, 120, 195, 195, 120, 3, 0.638446
60, 1, wb, filler, NA, 999, 999, 1, 12, 92, 132, 155, 146, 185, 143, 1, 0.882789
60, 1, wb, filler, NA, 999, 999, 1, 12, 92, 132, 155, 146, 185, 143, 3, 0.990658
60, 1, wb, attraction, a-b-db, 14, 1, 1, 13, 135, 60, 56, 125, 60, 135, 2, 3.16425
60, 1, wb, attraction, a-b-db, 14, 1, 1, 13, 135, 60, 56, 125, 60, 135, 3, 0.467827
60, 1, wb, attraction, a-b-db, 2, 2, 1, 14, 90, 165, 89, 163, 165, 90, 3, 1.35896
60, 1, wb, attraction, a-b-db, 2, 2, 1, 14, 90, 165, 89, 163, 165, 90, 2, 0.719126
60, 1, wb, catch, NA, 999, 999, 1, 15, 173, 142, 74, 121, 109, 146, 2, 0.664236
60, 1, wb, catch, NA, 999, 999, 1, 15, 173, 142, 74, 121, 109, 146, 1, 0.348658
60, 1, wb, attraction, a-b-db, 2, 3, 1, 16, 120, 195, 195, 120, 119, 193, 3, 3.60455
60, 1, wb, attraction, a-b-db, 2, 3, 1, 16, 120, 195, 195, 120, 119, 193, 2, 0.698714
60, 1, wb, attraction, a-b-db, 14, 2, 1, 17, 165, 90, 83, 153, 90, 165, 1, 2.62045
60, 1, wb, attraction, a-b-db, 14, 2, 1, 17, 165, 90, 83, 153, 90, 165, 3, 0.642255
60, 1, wb, attraction, a-b-db, 9, 2, 1, 18, 165, 90, 90, 165, 86, 157, 1, 0.861953
60, 1, wb, attraction, a-b-db, 9, 2, 1, 18, 165, 90, 90, 165, 86, 157, 3, 0.722362
60, 1, wb, attraction, a-b-da, 9, 1, 1, 19, 135, 60, 129, 57, 60, 135, 2, 0.747421
60, 1, wb, attraction, a-b-da, 9, 1, 1, 19, 135, 60, 129, 57, 60, 135, 3, 0.468502
60, 1, wb, attraction, a-b-da, 14, 1, 1, 20, 60, 135, 135, 60, 125, 56, 3, 0.863696
60, 1, wb, attraction, a-b-da, 14, 1, 1, 20, 60, 135, 135, 60, 125, 56, 1, 0.387982
60, 1, wb, attraction, a-b-da, 5, 1, 1, 21, 135, 60, 132, 58, 60, 135, 2, 0.914472
60, 1, wb, attraction, a-b-da, 5, 1, 1, 21, 135, 60, 132, 58, 60, 135, 3, 0.532903
60, 1, wb, filler, NA, 999, 999, 1, 22, 188, 91, 164, 161, 191, 133, 1, 0.837366
60, 1, wb, filler, NA, 999, 999, 1, 22, 188, 91, 164, 161, 191, 133, 2, 0.802929
60, 1, wb, attraction, a-b-db, 5, 3, 1, 23, 120, 195, 117, 190, 195, 120, 2, 0.592603
60, 1, wb, attraction, a-b-db, 5, 3, 1, 23, 120, 195, 117, 190, 195, 120, 3, 0.631814
60, 1, wb, attraction, a-b-db, 9, 1, 1, 24, 57, 129, 60, 135, 135, 60, 2, 0.532175
60, 1, wb, attraction, a-b-db, 9, 1, 1, 24, 57, 129, 60, 135, 135, 60, 3, 0.446006
60, 1, wb, attraction, a-b-da, 5, 2, 1, 25, 165, 90, 161, 88, 90, 165, 2, 0.417861
60, 1, wb, attraction, a-b-da, 5, 2, 1, 25, 165, 90, 161, 88, 90, 165, 1, 0.536306
60, 1, wb, filler, NA, 999, 999, 1, 26, 156, 132, 59, 175, 168, 79, 2, 0.95278
60, 1, wb, filler, NA, 999, 999, 1, 26, 156, 132, 59, 175, 168, 79, 3, 0.537785
60, 1, wb, attraction, a-b-da, 5, 3, 1, 27, 190, 117, 195, 120, 120, 195, 1, 0.482176
60, 1, wb, attraction, a-b-da, 5, 3, 1, 27, 190, 117, 195, 120, 120, 195, 2, 0.549984
60, 1, wb, filler, NA, 999, 999, 1, 28, 192, 90, 75, 164, 168, 59, 2, 0.501776
60, 1, wb, filler, NA, 999, 999, 1, 28, 192, 90, 75, 164, 168, 59, 1, 0.640983
60, 1, wb, attraction, a-b-da, 2, 1, 1, 29, 135, 60, 60, 135, 134, 59, 2, 0.620796
60, 1, wb, attraction, a-b-da, 2, 1, 1, 29, 135, 60, 60, 135, 134, 59, 1, 0.851168
60, 1, wb, filler, NA, 999, 999, 1, 30, 120, 117, 108, 64, 58, 165, 2, 0.974785
60, 1, wb, filler, NA, 999, 999, 1, 30, 120, 117, 108, 64, 58, 165, 1, 0.342489
60, 1, wb, attraction, a-b-da, 2, 2, 1, 31, 165, 90, 163, 89, 90, 165, 1, 1.15823
60, 1, wb, attraction, a-b-da, 2, 2, 1, 31, 165, 90, 163, 89, 90, 165, 2, 0.350543
60, 1, wb, attraction, a-b-da, 2, 3, 1, 32, 193, 119, 120, 195, 195, 120, 2, 1.30241
60, 1, wb, attraction, a-b-da, 2, 3, 1, 32, 193, 119, 120, 195, 195, 120, 3, 0.601434
60, 1, wb, attraction, a-b-da, 14, 2, 1, 33, 90, 165, 153, 83, 165, 90, 2, 0.711109
60, 1, wb, attraction, a-b-da, 14, 2, 1, 33, 90, 165, 153, 83, 165, 90, 1, 0.313561
60, 1, wb, attraction, a-b-db, 5, 1, 1, 34, 135, 60, 58, 132, 60, 135, 1, 0.850687
60, 1, wb, attraction, a-b-db, 5, 1, 1, 34, 135, 60, 58, 132, 60, 135, 2, 0.583743
60, 1, wb, catch, NA, 999, 999, 1, 35, 139, 176, 101, 154, 64, 131, 3, 1.35022
60, 1, wb, catch, NA, 999, 999, 1, 35, 139, 176, 101, 154, 64, 131, 1, 0.302993
60, 1, wb, filler, NA, 999, 999, 1, 36, 108, 177, 83, 178, 147, 81, 3, 1.26501
60, 1, wb, filler, NA, 999, 999, 1, 36, 108, 177, 83, 178, 147, 81, 1, 0.661147
60, 1, wb, catch, NA, 999, 999, 1, 37, 155, 100, 74, 121, 158, 157, 2, 0.536189
60, 1, wb, catch, NA, 999, 999, 1, 37, 155, 100, 74, 121, 158, 157, 3, 0.626045
60, 1, wb, attraction, a-b-da, 2, 3, 2, 1, 195, 120, 193, 119, 120, 195, 2, 0.550436
60, 1, wb, attraction, a-b-da, 2, 3, 2, 1, 195, 120, 193, 119, 120, 195, 1, 0.279517
60, 1, wb, attraction, a-b-da, 14, 1, 2, 2, 135, 60, 125, 56, 60, 135, 2, 0.522153
60, 1, wb, attraction, a-b-da, 14, 1, 2, 2, 135, 60, 125, 56, 60, 135, 3, 0.275912
60, 1, wb, attraction, a-b-db, 9, 3, 2, 3, 114, 186, 120, 195, 195, 120, 2, 0.606432
60, 1, wb, attraction, a-b-db, 9, 3, 2, 3, 114, 186, 120, 195, 195, 120, 3, 0.72487
60, 1, wb, attraction, a-b-db, 9, 1, 2, 4, 135, 60, 57, 129, 60, 135, 2, 0.845316
60, 1, wb, attraction, a-b-db, 9, 1, 2, 4, 135, 60, 57, 129, 60, 135, 1, 0.434286
60, 1, wb, attraction, a-b-db, 2, 3, 2, 5, 120, 195, 195, 120, 119, 193, 2, 0.262765
60, 1, wb, attraction, a-b-db, 2, 3, 2, 5, 120, 195, 195, 120, 119, 193, 3, 0.611344
60, 1, wb, catch, NA, 999, 999, 2, 6, 122, 133, 73, 122, 194, 121, 2, 0.416411
60, 1, wb, catch, NA, 999, 999, 2, 6, 122, 133, 73, 122, 194, 121, 3, 0.654963
60, 1, wb, attraction, a-b-db, 5, 3, 2, 7, 120, 195, 117, 190, 195, 120, 1, 0.602619
60, 1, wb, attraction, a-b-db, 5, 3, 2, 7, 120, 195, 117, 190, 195, 120, 3, 0.641909
60, 1, wb, attraction, a-b-da, 5, 1, 2, 8, 132, 58, 135, 60, 60, 135, 2, 0.789666
60, 1, wb, attraction, a-b-da, 5, 1, 2, 8, 132, 58, 135, 60, 60, 135, 1, 0.348684
60, 1, wb, attraction, a-b-db, 2, 2, 2, 9, 90, 165, 165, 90, 89, 163, 1, 0.620499
60, 1, wb, attraction, a-b-db, 2, 2, 2, 9, 90, 165, 165, 90, 89, 163, 3, 0.698783
60, 1, wb, filler, NA, 999, 999, 2, 10, 101, 184, 183, 132, 84, 178, 2, 0.452717
60, 1, wb, filler, NA, 999, 999, 2, 10, 101, 184, 183, 132, 84, 178, 3, 0.537765
60, 1, wb, attraction, a-b-db, 2, 1, 2, 11, 60, 135, 59, 134, 135, 60, 2, 0.3462
60, 1, wb, attraction, a-b-db, 2, 1, 2, 11, 60, 135, 59, 134, 135, 60, 1, 0.37131
60, 1, wb, catch, NA, 999, 999, 2, 12, 131, 124, 126, 189, 66, 129, 3, 1.78653
60, 1, wb, catch, NA, 999, 999, 2, 12, 131, 124, 126, 189, 66, 129, 2, 0.3861
60, 1, wb, filler, NA, 999, 999, 2, 13, 83, 186, 95, 109, 68, 91, 3, 0.904539
60, 1, wb, filler, NA, 999, 999, 2, 13, 83, 186, 95, 109, 68, 91, 1, 0.363566
60, 1, wb, attraction, a-b-da, 9, 2, 2, 14, 157, 86, 165, 90, 90, 165, 2, 0.682587
60, 1, wb, attraction, a-b-da, 9, 2, 2, 14, 157, 86, 165, 90, 90, 165, 1, 0.462391
60, 1, wb, attraction, a-b-da, 9, 1, 2, 15, 60, 135, 135, 60, 129, 57, 2, 0.657537
60, 1, wb, attraction, a-b-da, 9, 1, 2, 15, 60, 135, 135, 60, 129, 57, 3, 0.349932
60, 1, wb, attraction, a-b-da, 5, 2, 2, 16, 165, 90, 90, 165, 161, 88, 2, 0.517778
60, 1, wb, attraction, a-b-da, 5, 2, 2, 16, 165, 90, 90, 165, 161, 88, 1, 0.672263
60, 1, wb, attraction, a-b-db, 5, 1, 2, 17, 60, 135, 135, 60, 58, 132, 2, 1.36333
60, 1, wb, attraction, a-b-db, 5, 1, 2, 17, 60, 135, 135, 60, 58, 132, 1, 0.395559
60, 1, wb, attraction, a-b-db, 5, 2, 2, 18, 88, 161, 90, 165, 165, 90, 3, 0.993343
60, 1, wb, attraction, a-b-db, 5, 2, 2, 18, 88, 161, 90, 165, 165, 90, 1, 0.576361
60, 1, wb, attraction, a-b-da, 2, 1, 2, 19, 135, 60, 60, 135, 134, 59, 2, 0.494782
60, 1, wb, attraction, a-b-da, 2, 1, 2, 19, 135, 60, 60, 135, 134, 59, 3, 0.834107
60, 1, wb, filler, NA, 999, 999, 2, 20, 159, 154, 150, 171, 155, 124, 2, 0.414331
60, 1, wb, filler, NA, 999, 999, 2, 20, 159, 154, 150, 171, 155, 124, 1, 0.420844
60, 1, wb, attraction, a-b-da, 2, 2, 2, 21, 165, 90, 163, 89, 90, 165, 3, 0.722065
60, 1, wb, attraction, a-b-da, 2, 2, 2, 21, 165, 90, 163, 89, 90, 165, 2, 0.523723
60, 1, wb, attraction, a-b-da, 14, 2, 2, 22, 153, 83, 90, 165, 165, 90, 1, 0.660061
60, 1, wb, attraction, a-b-da, 14, 2, 2, 22, 153, 83, 90, 165, 165, 90, 2, 0.696701
60, 1, wb, filler, NA, 999, 999, 2, 23, 89, 171, 63, 140, 70, 161, 2, 0.618263
60, 1, wb, filler, NA, 999, 999, 2, 23, 89, 171, 63, 140, 70, 161, 1, 0.352747
60, 1, wb, catch, NA, 999, 999, 2, 24, 66, 129, 170, 145, 116, 139, 1, 0.696497
60, 1, wb, catch, NA, 999, 999, 2, 24, 66, 129, 170, 145, 116, 139, 2, 0.299641
60, 1, wb, filler, NA, 999, 999, 2, 25, 73, 193, 107, 56, 168, 173, 2, 0.989552
60, 1, wb, filler, NA, 999, 999, 2, 25, 73, 193, 107, 56, 168, 173, 3, 0.33244
60, 1, wb, filler, NA, 999, 999, 2, 26, 161, 192, 99, 160, 114, 134, 3, 1.85299
60, 1, wb, filler, NA, 999, 999, 2, 26, 161, 192, 99, 160, 114, 134, 1, 0.505939
60, 1, wb, filler, NA, 999, 999, 2, 27, 173, 137, 98, 132, 166, 156, 2, 0.907441
60, 1, wb, filler, NA, 999, 999, 2, 27, 173, 137, 98, 132, 166, 156, 1, 0.269779
60, 1, wb, attraction, a-b-da, 9, 3, 2, 28, 186, 114, 120, 195, 195, 120, 1, 0.921092
60, 1, wb, attraction, a-b-da, 9, 3, 2, 28, 186, 114, 120, 195, 195, 120, 3, 0.5635
60, 1, wb, filler, NA, 999, 999, 2, 29, 170, 149, 155, 193, 158, 124, 2, 0.610548
60, 1, wb, filler, NA, 999, 999, 2, 29, 170, 149, 155, 193, 158, 124, 3, 0.345037
60, 1, wb, attraction, a-b-db, 14, 1, 2, 30, 60, 135, 135, 60, 56, 125, 2, 0.544763
60, 1, wb, attraction, a-b-db, 14, 1, 2, 30, 60, 135, 135, 60, 56, 125, 1, 0.465998
60, 1, wb, attraction, a-b-db, 14, 3, 2, 31, 195, 120, 111, 181, 120, 195, 2, 0.389129
60, 1, wb, attraction, a-b-db, 14, 3, 2, 31, 195, 120, 111, 181, 120, 195, 3, 0.300402
60, 1, wb, attraction, a-b-db, 14, 2, 2, 32, 165, 90, 90, 165, 83, 153, 2, 0.550079
60, 1, wb, attraction, a-b-db, 14, 2, 2, 32, 165, 90, 90, 165, 83, 153, 1, 0.599245
60, 1, wb, attraction, a-b-db, 9, 2, 2, 33, 86, 157, 90, 165, 165, 90, 2, 0.884957
60, 1, wb, attraction, a-b-db, 9, 2, 2, 33, 86, 157, 90, 165, 165, 90, 3, 0.480736
60, 1, wb, filler, NA, 999, 999, 2, 34, 62, 153, 168, 148, 169, 189, 1, 0.475107
60, 1, wb, filler, NA, 999, 999, 2, 34, 62, 153, 168, 148, 169, 189, 3, 0.567014
60, 1, wb, filler, NA, 999, 999, 2, 35, 105, 110, 188, 192, 155, 159, 1, 0.742072
60, 1, wb, filler, NA, 999, 999, 2, 35, 105, 110, 188, 192, 155, 159, 2, 0.631188
60, 1, wb, attraction, a-b-da, 5, 3, 2, 36, 190, 117, 195, 120, 120, 195, 2, 0.795551
60, 1, wb, attraction, a-b-da, 5, 3, 2, 36, 190, 117, 195, 120, 120, 195, 1, 0.298742
60, 1, wb, attraction, a-b-da, 14, 3, 2, 37, 120, 195, 195, 120, 181, 111, 2, 0.420478
60, 1, wb, attraction, a-b-da, 14, 3, 2, 37, 120, 195, 195, 120, 181, 111, 1, 0.818964
60, 1, wb, attraction, a-b-db, 9, 3, 3, 1, 120, 195, 114, 186, 195, 120, 2, 0.472027
60, 1, wb, attraction, a-b-db, 9, 3, 3, 1, 120, 195, 114, 186, 195, 120, 3, 1.39599
60, 1, wb, filler, NA, 999, 999, 3, 2, 193, 195, 166, 78, 100, 177, 2, 0.705385
60, 1, wb, filler, NA, 999, 999, 3, 2, 193, 195, 166, 78, 100, 177, 1, 0.315861
60, 1, wb, attraction, a-b-db, 14, 3, 3, 3, 195, 120, 120, 195, 111, 181, 2, 0.692917
60, 1, wb, attraction, a-b-db, 14, 3, 3, 3, 195, 120, 120, 195, 111, 181, 1, 0.312003
60, 1, wb, catch, NA, 999, 999, 3, 4, 104, 91, 96, 159, 154, 161, 1, 0.697229
60, 1, wb, catch, NA, 999, 999, 3, 4, 104, 91, 96, 159, 154, 161, 3, 0.340324
60, 1, wb, attraction, a-b-db, 2, 2, 3, 5, 89, 163, 90, 165, 165, 90, 3, 1.76406
60, 1, wb, attraction, a-b-db, 2, 2, 3, 5, 89, 163, 90, 165, 165, 90, 1, 0.580296
60, 1, wb, attraction, a-b-db, 2, 1, 3, 6, 60, 135, 59, 134, 135, 60, 2, 1.06666
60, 1, wb, attraction, a-b-db, 2, 1, 3, 6, 60, 135, 59, 134, 135, 60, 1, 0.798877
60, 1, wb, attraction, a-b-da, 14, 3, 3, 7, 181, 111, 195, 120, 120, 195, 3, 1.09269
60, 1, wb, attraction, a-b-da, 14, 3, 3, 7, 181, 111, 195, 120, 120, 195, 1, 0.399584
60, 1, wb, filler, NA, 999, 999, 3, 8, 180, 145, 58, 101, 76, 64, 2, 0.381393
60, 1, wb, filler, NA, 999, 999, 3, 8, 180, 145, 58, 101, 76, 64, 1, 1.01329
60, 1, wb, attraction, a-b-da, 9, 3, 3, 9, 186, 114, 195, 120, 120, 195, 1, 1.19424
60, 1, wb, attraction, a-b-da, 9, 3, 3, 9, 186, 114, 195, 120, 120, 195, 3, 0.361194
60, 1, wb, attraction, a-b-da, 2, 1, 3, 10, 135, 60, 134, 59, 60, 135, 2, 0.800423
60, 1, wb, attraction, a-b-da, 2, 1, 3, 10, 135, 60, 134, 59, 60, 135, 1, 0.935366
60, 1, wb, filler, NA, 999, 999, 3, 11, 159, 109, 73, 91, 188, 127, 2, 0.551593
60, 1, wb, filler, NA, 999, 999, 3, 11, 159, 109, 73, 91, 188, 127, 3, 0.352859
60, 1, wb, attraction, a-b-da, 9, 1, 3, 12, 129, 57, 135, 60, 60, 135, 2, 0.62472
60, 1, wb, attraction, a-b-da, 9, 1, 3, 12, 129, 57, 135, 60, 60, 135, 1, 0.606409
60, 1, wb, attraction, a-b-db, 9, 1, 3, 13, 60, 135, 57, 129, 135, 60, 2, 0.908172
60, 1, wb, attraction, a-b-db, 9, 1, 3, 13, 60, 135, 57, 129, 135, 60, 3, 0.638627
60, 1, wb, attraction, a-b-db, 5, 2, 3, 14, 88, 161, 90, 165, 165, 90, 3, 0.92294
60, 1, wb, attraction, a-b-db, 5, 2, 3, 14, 88, 161, 90, 165, 165, 90, 2, 0.476662
60, 1, wb, attraction, a-b-da, 9, 2, 3, 15, 165, 90, 157, 86, 90, 165, 1, 0.38301
60, 1, wb, attraction, a-b-da, 9, 2, 3, 15, 165, 90, 157, 86, 90, 165, 2, 0.886901
60, 1, wb, filler, NA, 999, 999, 3, 16, 182, 83, 96, 171, 141, 149, 3, 0.345233
60, 1, wb, filler, NA, 999, 999, 3, 16, 182, 83, 96, 171, 141, 149, 2, 0.370535
60, 1, wb, attraction, a-b-da, 2, 3, 3, 17, 120, 195, 193, 119, 195, 120, 1, 1.44961
60, 1, wb, attraction, a-b-da, 2, 3, 3, 17, 120, 195, 193, 119, 195, 120, 2, 0.622483
60, 1, wb, attraction, a-b-db, 14, 2, 3, 18, 165, 90, 90, 165, 83, 153, 3, 0.419585
60, 1, wb, attraction, a-b-db, 14, 2, 3, 18, 165, 90, 90, 165, 83, 153, 2, 0.666096
60, 1, wb, attraction, a-b-db, 2, 3, 3, 19, 120, 195, 195, 120, 119, 193, 1, 0.605185
60, 1, wb, attraction, a-b-db, 2, 3, 3, 19, 120, 195, 195, 120, 119, 193, 2, 0.267656
60, 1, wb, attraction, a-b-da, 5, 3, 3, 20, 195, 120, 120, 195, 190, 117, 3, 0.382782
60, 1, wb, attraction, a-b-da, 5, 3, 3, 20, 195, 120, 120, 195, 190, 117, 2, 0.318652
60, 1, wb, attraction, a-b-da, 14, 2, 3, 21, 90, 165, 165, 90, 153, 83, 2, 0.79989
60, 1, wb, attraction, a-b-da, 14, 2, 3, 21, 90, 165, 165, 90, 153, 83, 1, 0.294927
60, 1, wb, filler, NA, 999, 999, 3, 22, 58, 56, 143, 165, 189, 160, 1, 0.736665
60, 1, wb, filler, NA, 999, 999, 3, 22, 58, 56, 143, 165, 189, 160, 3, 1.0184
60, 1, wb, filler, NA, 999, 999, 3, 23, 79, 162, 60, 98, 97, 173, 2, 0.535484
60, 1, wb, filler, NA, 999, 999, 3, 23, 79, 162, 60, 98, 97, 173, 3, 0.425382
60, 1, wb, filler, NA, 999, 999, 3, 24, 74, 109, 107, 73, 115, 122, 2, 0.709733
60, 1, wb, filler, NA, 999, 999, 3, 24, 74, 109, 107, 73, 115, 122, 3, 0.928176
60, 1, wb, attraction, a-b-db, 9, 2, 3, 25, 90, 165, 165, 90, 86, 157, 2, 0.560449
60, 1, wb, attraction, a-b-db, 9, 2, 3, 25, 90, 165, 165, 90, 86, 157, 3, 0.528946
60, 1, wb, attraction, a-b-db, 14, 1, 3, 26, 135, 60, 56, 125, 60, 135, 2, 0.6334
60, 1, wb, attraction, a-b-db, 14, 1, 3, 26, 135, 60, 56, 125, 60, 135, 1, 0.466239
60, 1, wb, catch, NA, 999, 999, 3, 27, 140, 175, 109, 86, 157, 98, 2, 0.378256
60, 1, wb, catch, NA, 999, 999, 3, 27, 140, 175, 109, 86, 157, 98, 3, 0.338059
60, 1, wb, filler, NA, 999, 999, 3, 28, 81, 159, 184, 138, 146, 126, 1, 1.1067
60, 1, wb, filler, NA, 999, 999, 3, 28, 81, 159, 184, 138, 146, 126, 2, 0.524911
60, 1, wb, filler, NA, 999, 999, 3, 29, 107, 142, 68, 96, 155, 174, 2, 0.621418
60, 1, wb, filler, NA, 999, 999, 3, 29, 107, 142, 68, 96, 155, 174, 3, 0.283098
60, 1, wb, attraction, a-b-db, 5, 3, 3, 30, 195, 120, 117, 190, 120, 195, 2, 0.557682
60, 1, wb, attraction, a-b-db, 5, 3, 3, 30, 195, 120, 117, 190, 120, 195, 1, 0.630123
60, 1, wb, attraction, a-b-da, 14, 1, 3, 31, 125, 56, 135, 60, 60, 135, 2, 1.10658
60, 1, wb, attraction, a-b-da, 14, 1, 3, 31, 125, 56, 135, 60, 60, 135, 1, 0.628847
60, 1, wb, attraction, a-b-db, 5, 1, 3, 32, 135, 60, 60, 135, 58, 132, 2, 0.457263
60, 1, wb, attraction, a-b-db, 5, 1, 3, 32, 135, 60, 60, 135, 58, 132, 3, 0.325742
60, 1, wb, attraction, a-b-da, 2, 2, 3, 33, 90, 165, 163, 89, 165, 90, 2, 0.446229
60, 1, wb, attraction, a-b-da, 2, 2, 3, 33, 90, 165, 163, 89, 165, 90, 1, 0.371451
60, 1, wb, attraction, a-b-da, 5, 1, 3, 34, 135, 60, 132, 58, 60, 135, 2, 0.61067
60, 1, wb, attraction, a-b-da, 5, 1, 3, 34, 135, 60, 132, 58, 60, 135, 3, 0.400943
60, 1, wb, attraction, a-b-da, 5, 2, 3, 35, 90, 165, 165, 90, 161, 88, 2, 0.486719
60, 1, wb, attraction, a-b-da, 5, 2, 3, 35, 90, 165, 165, 90, 161, 88, 1, 0.290706
60, 1, wb, catch, NA, 999, 999, 3, 36, 172, 143, 99, 156, 90, 105, 2, 0.460415
60, 1, wb, catch, NA, 999, 999, 3, 36, 172, 143, 99, 156, 90, 105, 3, 0.344956
60, 1, wb, filler, NA, 999, 999, 3, 37, 95, 179, 103, 119, 191, 84, 2, 0.544733
60, 1, wb, filler, NA, 999, 999, 3, 37, 95, 179, 103, 119, 191, 84, 1, 0.329964
60, 1, wb, catch, NA, 999, 999, 4, 1, 137, 118, 157, 158, 93, 102, 2, 0.41048
60, 1, wb, catch, NA, 999, 999, 4, 1, 137, 118, 157, 158, 93, 102, 3, 1.76897
60, 1, wb, attraction, a-b-da, 2, 2, 4, 2, 163, 89, 165, 90, 90, 165, 2, 0.863673
60, 1, wb, attraction, a-b-da, 2, 2, 4, 2, 163, 89, 165, 90, 90, 165, 3, 0.69202
60, 1, wb, attraction, a-b-da, 9, 1, 4, 3, 135, 60, 129, 57, 60, 135, 2, 0.941835
60, 1, wb, attraction, a-b-da, 9, 1, 4, 3, 135, 60, 129, 57, 60, 135, 3, 0.310805
60, 1, wb, attraction, a-b-da, 14, 2, 4, 4, 90, 165, 165, 90, 153, 83, 2, 0.47195
60, 1, wb, attraction, a-b-da, 14, 2, 4, 4, 90, 165, 165, 90, 153, 83, 3, 0.643809
60, 1, wb, attraction, a-b-da, 14, 3, 4, 5, 181, 111, 120, 195, 195, 120, 1, 0.935466
60, 1, wb, attraction, a-b-da, 14, 3, 4, 5, 181, 111, 120, 195, 195, 120, 3, 0.801267
60, 1, wb, filler, NA, 999, 999, 4, 6, 106, 60, 68, 101, 123, 182, 2, 1.01489
60, 1, wb, filler, NA, 999, 999, 4, 6, 106, 60, 68, 101, 123, 182, 1, 0.581351
60, 1, wb, attraction, a-b-db, 14, 2, 4, 7, 90, 165, 83, 153, 165, 90, 2, 0.339665
60, 1, wb, attraction, a-b-db, 14, 2, 4, 7, 90, 165, 83, 153, 165, 90, 3, 0.348925
60, 1, wb, attraction, a-b-db, 9, 2, 4, 8, 90, 165, 86, 157, 165, 90, 2, 0.556844
60, 1, wb, attraction, a-b-db, 9, 2, 4, 8, 90, 165, 86, 157, 165, 90, 1, 0.309099
60, 1, wb, filler, NA, 999, 999, 4, 9, 94, 98, 69, 79, 120, 100, 2, 0.558332
60, 1, wb, filler, NA, 999, 999, 4, 9, 94, 98, 69, 79, 120, 100, 3, 0.598836
60, 1, wb, attraction, a-b-da, 2, 1, 4, 10, 135, 60, 60, 135, 134, 59, 2, 0.48449
60, 1, wb, attraction, a-b-da, 2, 1, 4, 10, 135, 60, 60, 135, 134, 59, 1, 0.59238
60, 1, wb, filler, NA, 999, 999, 4, 11, 135, 90, 170, 166, 154, 114, 2, 0.534168
60, 1, wb, filler, NA, 999, 999, 4, 11, 135, 90, 170, 166, 154, 114, 3, 0.368028
60, 1, wb, filler, NA, 999, 999, 4, 12, 132, 121, 183, 192, 192, 136, 1, 1.41503
60, 1, wb, filler, NA, 999, 999, 4, 12, 132, 121, 183, 192, 192, 136, 2, 0.293424
60, 1, wb, attraction, a-b-da, 9, 3, 4, 13, 186, 114, 195, 120, 120, 195, 2, 0.767159
60, 1, wb, attraction, a-b-da, 9, 3, 4, 13, 186, 114, 195, 120, 120, 195, 1, 0.303471
60, 1, wb, attraction, a-b-da, 5, 2, 4, 14, 161, 88, 90, 165, 165, 90, 2, 0.457506
60, 1, wb, attraction, a-b-da, 5, 2, 4, 14, 161, 88, 90, 165, 165, 90, 3, 0.310007
60, 1, wb, filler, NA, 999, 999, 4, 15, 164, 139, 174, 76, 88, 143, 2, 0.527076
60, 1, wb, filler, NA, 999, 999, 4, 15, 164, 139, 174, 76, 88, 143, 1, 0.344882
60, 1, wb, attraction, a-b-db, 2, 2, 4, 16, 165, 90, 90, 165, 89, 163, 2, 0.608804
60, 1, wb, attraction, a-b-db, 2, 2, 4, 16, 165, 90, 90, 165, 89, 163, 3, 0.719201
60, 1, wb, attraction, a-b-da, 9, 2, 4, 17, 157, 86, 165, 90, 90, 165, 2, 0.760216
60, 1, wb, attraction, a-b-da, 9, 2, 4, 17, 157, 86, 165, 90, 90, 165, 1, 0.288686
60, 1, wb, attraction, a-b-db, 5, 2, 4, 18, 165, 90, 88, 161, 90, 165, 2, 0.675236
60, 1, wb, attraction, a-b-db, 5, 2, 4, 18, 165, 90, 88, 161, 90, 165, 1, 0.318948
60, 1, wb, attraction, a-b-da, 5, 3, 4, 19, 120, 195, 190, 117, 195, 120, 3, 0.552087
60, 1, wb, attraction, a-b-da, 5, 3, 4, 19, 120, 195, 190, 117, 195, 120, 2, 0.417205
60, 1, wb, attraction, a-b-db, 14, 3, 4, 20, 195, 120, 111, 181, 120, 195, 3, 0.918294
60, 1, wb, attraction, a-b-db, 14, 3, 4, 20, 195, 120, 111, 181, 120, 195, 2, 0.736799
60, 1, wb, attraction, a-b-db, 2, 3, 4, 21, 119, 193, 195, 120, 120, 195, 2, 1.67302
60, 1, wb, attraction, a-b-db, 2, 3, 4, 21, 119, 193, 195, 120, 120, 195, 3, 0.388546
60, 1, wb, catch, NA, 999, 999, 4, 22, 122, 193, 131, 64, 92, 163, 2, 0.515009
60, 1, wb, catch, NA, 999, 999, 4, 22, 122, 193, 131, 64, 92, 163, 1, 1.01346
60, 1, wb, filler, NA, 999, 999, 4, 23, 143, 173, 167, 172, 128, 186, 2, 0.642397
60, 1, wb, filler, NA, 999, 999, 4, 23, 143, 173, 167, 172, 128, 186, 1, 0.303631
60, 1, wb, attraction, a-b-db, 2, 1, 4, 24, 60, 135, 59, 134, 135, 60, 2, 0.617446
60, 1, wb, attraction, a-b-db, 2, 1, 4, 24, 60, 135, 59, 134, 135, 60, 1, 0.367949
60, 1, wb, attraction, a-b-db, 14, 1, 4, 25, 56, 125, 135, 60, 60, 135, 2, 0.439077
60, 1, wb, attraction, a-b-db, 14, 1, 4, 25, 56, 125, 135, 60, 60, 135, 1, 0.556228
60, 1, wb, attraction, a-b-da, 2, 3, 4, 26, 195, 120, 120, 195, 193, 119, 2, 1.81195
60, 1, wb, attraction, a-b-da, 2, 3, 4, 26, 195, 120, 120, 195, 193, 119, 1, 0.22606
60, 1, wb, attraction, a-b-db, 5, 3, 4, 27, 195, 120, 120, 195, 117, 190, 2, 0.406579
60, 1, wb, attraction, a-b-db, 5, 3, 4, 27, 195, 120, 120, 195, 117, 190, 3, 0.229065
60, 1, wb, filler, NA, 999, 999, 4, 28, 129, 138, 155, 120, 136, 66, 2, 0.457576
60, 1, wb, filler, NA, 999, 999, 4, 28, 129, 138, 155, 120, 136, 66, 3, 0.614206
60, 1, wb, catch, NA, 999, 999, 4, 29, 99, 156, 148, 167, 98, 97, 3, 0.755198
60, 1, wb, catch, NA, 999, 999, 4, 29, 99, 156, 148, 167, 98, 97, 2, 0.33173
60, 1, wb, attraction, a-b-db, 9, 1, 4, 30, 57, 129, 60, 135, 135, 60, 2, 0.572136
60, 1, wb, attraction, a-b-db, 9, 1, 4, 30, 57, 129, 60, 135, 135, 60, 3, 0.787928
60, 1, wb, attraction, a-b-da, 5, 1, 4, 31, 135, 60, 132, 58, 60, 135, 2, 0.506275
60, 1, wb, attraction, a-b-da, 5, 1, 4, 31, 135, 60, 132, 58, 60, 135, 1, 0.540732
60, 1, wb, filler, NA, 999, 999, 4, 32, 94, 194, 186, 114, 107, 112, 3, 0.788505
60, 1, wb, filler, NA, 999, 999, 4, 32, 94, 194, 186, 114, 107, 112, 2, 0.315592
60, 1, wb, attraction, a-b-da, 14, 1, 4, 33, 135, 60, 125, 56, 60, 135, 1, 0.388865
60, 1, wb, attraction, a-b-da, 14, 1, 4, 33, 135, 60, 125, 56, 60, 135, 2, 0.371991
60, 1, wb, filler, NA, 999, 999, 4, 34, 116, 106, 111, 141, 176, 83, 3, 0.459109
60, 1, wb, filler, NA, 999, 999, 4, 34, 116, 106, 111, 141, 176, 83, 2, 0.607537
60, 1, wb, attraction, a-b-db, 9, 3, 4, 35, 120, 195, 195, 120, 114, 186, 1, 0.444649
60, 1, wb, attraction, a-b-db, 9, 3, 4, 35, 120, 195, 195, 120, 114, 186, 2, 0.306003
60, 1, wb, filler, NA, 999, 999, 4, 36, 69, 89, 122, 156, 192, 154, 3, 0.387764
60, 1, wb, filler, NA, 999, 999, 4, 36, 69, 89, 122, 156, 192, 154, 1, 0.635578
60, 1, wb, attraction, a-b-db, 5, 1, 4, 37, 135, 60, 60, 135, 58, 132, 2, 0.408073
60, 1, wb, attraction, a-b-db, 5, 1, 4, 37, 135, 60, 60, 135, 58, 132, 1, 0.390494
60, 1, wb, catch, NA, 999, 999, 5, 1, 137, 118, 105, 90, 165, 150, 2, 2.13903
60, 1, wb, catch, NA, 999, 999, 5, 1, 137, 118, 105, 90, 165, 150, 3, 0.667658
60, 1, wb, filler, NA, 999, 999, 5, 2, 89, 190, 150, 190, 140, 118, 3, 1.23063
60, 1, wb, filler, NA, 999, 999, 5, 2, 89, 190, 150, 190, 140, 118, 2, 0.252156
60, 1, wb, catch, NA, 999, 999, 5, 3, 123, 132, 131, 184, 91, 104, 3, 0.576024
60, 1, wb, catch, NA, 999, 999, 5, 3, 123, 132, 131, 184, 91, 104, 2, 0.511994
60, 1, wb, attraction, a-b-db, 5, 3, 5, 4, 117, 190, 120, 195, 195, 120, 1, 0.592942
60, 1, wb, attraction, a-b-db, 5, 3, 5, 4, 117, 190, 120, 195, 195, 120, 2, 0.208117
60, 1, wb, attraction, a-b-da, 14, 1, 5, 5, 125, 56, 135, 60, 60, 135, 2, 0.477272
60, 1, wb, attraction, a-b-da, 14, 1, 5, 5, 125, 56, 135, 60, 60, 135, 3, 0.325753
60, 1, wb, attraction, a-b-db, 2, 3, 5, 6, 195, 120, 120, 195, 119, 193, 2, 0.433562
60, 1, wb, attraction, a-b-db, 2, 3, 5, 6, 195, 120, 120, 195, 119, 193, 1, 0.25546
60, 1, wb, filler, NA, 999, 999, 5, 7, 71, 189, 171, 56, 192, 189, 2, 0.483239
60, 1, wb, filler, NA, 999, 999, 5, 7, 71, 189, 171, 56, 192, 189, 3, 0.271095
60, 1, wb, attraction, a-b-da, 9, 2, 5, 8, 157, 86, 90, 165, 165, 90, 1, 1.30633
60, 1, wb, attraction, a-b-da, 9, 2, 5, 8, 157, 86, 90, 165, 165, 90, 2, 0.29253
60, 1, wb, attraction, a-b-db, 9, 2, 5, 9, 86, 157, 90, 165, 165, 90, 2, 0.278439
60, 1, wb, attraction, a-b-db, 9, 2, 5, 9, 86, 157, 90, 165, 165, 90, 3, 0.2982
60, 1, wb, attraction, a-b-da, 5, 1, 5, 10, 60, 135, 135, 60, 132, 58, 2, 0.660081
60, 1, wb, attraction, a-b-da, 5, 1, 5, 10, 60, 135, 135, 60, 132, 58, 1, 0.344577
60, 1, wb, attraction, a-b-da, 5, 3, 5, 11, 195, 120, 120, 195, 190, 117, 2, 0.632426
60, 1, wb, attraction, a-b-da, 5, 3, 5, 11, 195, 120, 120, 195, 190, 117, 3, 0.854223
60, 1, wb, attraction, a-b-db, 9, 3, 5, 12, 114, 186, 120, 195, 195, 120, 2, 0.553857
60, 1, wb, attraction, a-b-db, 9, 3, 5, 12, 114, 186, 120, 195, 195, 120, 3, 0.755037
60, 1, wb, attraction, a-b-da, 2, 2, 5, 13, 165, 90, 90, 165, 163, 89, 1, 0.7547
60, 1, wb, attraction, a-b-da, 2, 2, 5, 13, 165, 90, 90, 165, 163, 89, 2, 0.339794
60, 1, wb, attraction, a-b-da, 5, 2, 5, 14, 165, 90, 161, 88, 90, 165, 3, 0.332221
60, 1, wb, attraction, a-b-da, 5, 2, 5, 14, 165, 90, 161, 88, 90, 165, 2, 0.366104
60, 1, wb, filler, NA, 999, 999, 5, 15, 98, 132, 89, 65, 178, 57, 1, 0.581369
60, 1, wb, filler, NA, 999, 999, 5, 15, 98, 132, 89, 65, 178, 57, 2, 0.637332
60, 1, wb, attraction, a-b-db, 2, 1, 5, 16, 60, 135, 135, 60, 59, 134, 3, 0.385503
60, 1, wb, attraction, a-b-db, 2, 1, 5, 16, 60, 135, 135, 60, 59, 134, 2, 0.321374
60, 1, wb, attraction, a-b-da, 2, 1, 5, 17, 134, 59, 60, 135, 135, 60, 1, 0.850474
60, 1, wb, attraction, a-b-da, 2, 1, 5, 17, 134, 59, 60, 135, 135, 60, 2, 0.471588
60, 1, wb, filler, NA, 999, 999, 5, 18, 174, 112, 111, 89, 147, 195, 3, 0.4027
60, 1, wb, filler, NA, 999, 999, 5, 18, 174, 112, 111, 89, 147, 195, 2, 0.457889
60, 1, wb, attraction, a-b-db, 9, 1, 5, 19, 60, 135, 135, 60, 57, 129, 1, 0.333034
60, 1, wb, attraction, a-b-db, 9, 1, 5, 19, 60, 135, 135, 60, 57, 129, 2, 0.647007
60, 1, wb, attraction, a-b-db, 14, 1, 5, 20, 56, 125, 60, 135, 135, 60, 3, 0.634569
60, 1, wb, attraction, a-b-db, 14, 1, 5, 20, 56, 125, 60, 135, 135, 60, 2, 0.520431
60, 1, wb, attraction, a-b-db, 5, 1, 5, 21, 135, 60, 60, 135, 58, 132, 1, 0.569679
60, 1, wb, attraction, a-b-db, 5, 1, 5, 21, 135, 60, 60, 135, 58, 132, 2, 0.362018
60, 1, wb, filler, NA, 999, 999, 5, 22, 138, 159, 113, 112, 153, 64, 3, 0.473191
60, 1, wb, filler, NA, 999, 999, 5, 22, 138, 159, 113, 112, 153, 64, 2, 0.357029
60, 1, wb, attraction, a-b-db, 2, 2, 5, 23, 89, 163, 90, 165, 165, 90, 1, 0.604138
60, 1, wb, attraction, a-b-db, 2, 2, 5, 23, 89, 163, 90, 165, 165, 90, 2, 0.387332
60, 1, wb, attraction, a-b-da, 14, 2, 5, 24, 153, 83, 165, 90, 90, 165, 3, 0.281751
60, 1, wb, attraction, a-b-da, 14, 2, 5, 24, 153, 83, 165, 90, 90, 165, 2, 0.349717
60, 1, wb, attraction, a-b-da, 2, 3, 5, 25, 120, 195, 193, 119, 195, 120, 1, 0.485448
60, 1, wb, attraction, a-b-da, 2, 3, 5, 25, 120, 195, 193, 119, 195, 120, 2, 0.361243
60, 1, wb, filler, NA, 999, 999, 5, 26, 78, 80, 98, 176, 161, 94, 3, 0.440409
60, 1, wb, filler, NA, 999, 999, 5, 26, 78, 80, 98, 176, 161, 94, 2, 0.349674
60, 1, wb, filler, NA, 999, 999, 5, 27, 119, 95, 85, 189, 184, 116, 1, 0.493409
60, 1, wb, filler, NA, 999, 999, 5, 27, 119, 95, 85, 189, 184, 116, 2, 0.368584
60, 1, wb, attraction, a-b-da, 9, 3, 5, 28, 120, 195, 195, 120, 186, 114, 3, 0.503685
60, 1, wb, attraction, a-b-da, 9, 3, 5, 28, 120, 195, 195, 120, 186, 114, 2, 0.386982
60, 1, wb, attraction, a-b-db, 14, 2, 5, 29, 165, 90, 83, 153, 90, 165, 1, 0.417566
60, 1, wb, attraction, a-b-db, 14, 2, 5, 29, 165, 90, 83, 153, 90, 165, 2, 0.416034
60, 1, wb, catch, NA, 999, 999, 5, 30, 125, 70, 174, 141, 158, 97, 3, 0.565136
60, 1, wb, catch, NA, 999, 999, 5, 30, 125, 70, 174, 141, 158, 97, 2, 0.637513
60, 1, wb, attraction, a-b-db, 5, 2, 5, 31, 165, 90, 90, 165, 88, 161, 1, 0.393912
60, 1, wb, attraction, a-b-db, 5, 2, 5, 31, 165, 90, 90, 165, 88, 161, 2, 0.513144
60, 1, wb, filler, NA, 999, 999, 5, 32, 92, 100, 146, 102, 187, 129, 3, 0.338324
60, 1, wb, filler, NA, 999, 999, 5, 32, 92, 100, 146, 102, 187, 129, 2, 0.771456
60, 1, wb, filler, NA, 999, 999, 5, 33, 189, 150, 76, 102, 141, 89, 1, 0.538443
60, 1, wb, filler, NA, 999, 999, 5, 33, 189, 150, 76, 102, 141, 89, 2, 0.355596
60, 1, wb, attraction, a-b-da, 9, 1, 5, 34, 60, 135, 129, 57, 135, 60, 3, 0.363502
60, 1, wb, attraction, a-b-da, 9, 1, 5, 34, 60, 135, 129, 57, 135, 60, 2, 0.40398
60, 1, wb, attraction, a-b-da, 14, 3, 5, 35, 195, 120, 181, 111, 120, 195, 1, 0.425728
60, 1, wb, attraction, a-b-da, 14, 3, 5, 35, 195, 120, 181, 111, 120, 195, 2, 0.271591
60, 1, wb, attraction, a-b-db, 14, 3, 5, 36, 195, 120, 120, 195, 111, 181, 3, 0.610924
60, 1, wb, attraction, a-b-db, 14, 3, 5, 36, 195, 120, 120, 195, 111, 181, 2, 0.361188
60, 1, wb, filler, NA, 999, 999, 5, 37, 106, 138, 94, 115, 170, 89, 1, 0.552361
60, 1, wb, filler, NA, 999, 999, 5, 37, 106, 138, 94, 115, 170, 89, 2, 0.609475
60, 1, wb, filler, NA, 999, 999, 6, 1, 145, 66, 98, 125, 117, 66, 3, 0.638624
60, 1, wb, filler, NA, 999, 999, 6, 1, 145, 66, 98, 125, 117, 66, 2, 0.77976
60, 1, wb, attraction, a-b-da, 9, 3, 6, 2, 120, 195, 195, 120, 186, 114, 1, 0.474134
60, 1, wb, attraction, a-b-da, 9, 3, 6, 2, 120, 195, 195, 120, 186, 114, 2, 0.285925
60, 1, wb, attraction, a-b-db, 5, 3, 6, 3, 117, 190, 120, 195, 195, 120, 3, 0.568492
60, 1, wb, attraction, a-b-db, 5, 3, 6, 3, 117, 190, 120, 195, 195, 120, 2, 0.336935
60, 1, wb, attraction, a-b-db, 9, 3, 6, 4, 195, 120, 120, 195, 114, 186, 2, 0.681448
60, 1, wb, attraction, a-b-db, 9, 3, 6, 4, 195, 120, 120, 195, 114, 186, 1, 0.301264
60, 1, wb, filler, NA, 999, 999, 6, 5, 158, 193, 57, 59, 181, 110, 2, 0.678955
60, 1, wb, filler, NA, 999, 999, 6, 5, 158, 193, 57, 59, 181, 110, 1, 0.362794
60, 1, wb, attraction, a-b-da, 2, 3, 6, 6, 195, 120, 120, 195, 193, 119, 1, 0.705885
60, 1, wb, attraction, a-b-da, 2, 3, 6, 6, 195, 120, 120, 195, 193, 119, 2, 0.244348
60, 1, wb, catch, NA, 999, 999, 6, 7, 133, 182, 143, 112, 88, 107, 3, 0.656228
60, 1, wb, catch, NA, 999, 999, 6, 7, 133, 182, 143, 112, 88, 107, 1, 0.276592
60, 1, wb, attraction, a-b-da, 5, 1, 6, 8, 135, 60, 132, 58, 60, 135, 2, 0.599348
60, 1, wb, attraction, a-b-da, 5, 1, 6, 8, 135, 60, 132, 58, 60, 135, 1, 0.758332
60, 1, wb, catch, NA, 999, 999, 6, 9, 189, 126, 61, 134, 127, 128, 2, 0.605349
60, 1, wb, catch, NA, 999, 999, 6, 9, 189, 126, 61, 134, 127, 128, 1, 0.323943
60, 1, wb, attraction, a-b-da, 14, 3, 6, 10, 195, 120, 120, 195, 181, 111, 2, 0.652312
60, 1, wb, attraction, a-b-da, 14, 3, 6, 10, 195, 120, 120, 195, 181, 111, 1, 0.361485
60, 1, wb, attraction, a-b-da, 14, 1, 6, 11, 125, 56, 60, 135, 135, 60, 2, 0.888643
60, 1, wb, attraction, a-b-da, 14, 1, 6, 11, 125, 56, 60, 135, 135, 60, 3, 0.750031
60, 1, wb, filler, NA, 999, 999, 6, 12, 179, 165, 152, 108, 143, 76, 3, 1.11527
60, 1, wb, filler, NA, 999, 999, 6, 12, 179, 165, 152, 108, 143, 76, 1, 0.317675
60, 1, wb, attraction, a-b-db, 14, 3, 6, 13, 111, 181, 195, 120, 120, 195, 2, 0.598743
60, 1, wb, attraction, a-b-db, 14, 3, 6, 13, 111, 181, 195, 120, 120, 195, 3, 0.269896
60, 1, wb, attraction, a-b-da, 5, 3, 6, 14, 190, 117, 120, 195, 195, 120, 2, 0.433104
60, 1, wb, attraction, a-b-da, 5, 3, 6, 14, 190, 117, 120, 195, 195, 120, 1, 0.262938
60, 1, wb, attraction, a-b-da, 9, 2, 6, 15, 165, 90, 90, 165, 157, 86, 3, 0.530136
60, 1, wb, attraction, a-b-da, 9, 2, 6, 15, 165, 90, 90, 165, 157, 86, 2, 0.339901
60, 1, wb, attraction, a-b-da, 14, 2, 6, 16, 153, 83, 90, 165, 165, 90, 1, 0.339691
60, 1, wb, attraction, a-b-da, 14, 2, 6, 16, 153, 83, 90, 165, 165, 90, 2, 0.316912
60, 1, wb, attraction, a-b-da, 2, 2, 6, 17, 163, 89, 90, 165, 165, 90, 3, 0.654113
60, 1, wb, attraction, a-b-da, 2, 2, 6, 17, 163, 89, 90, 165, 165, 90, 2, 0.691192
60, 1, wb, filler, NA, 999, 999, 6, 18, 104, 125, 125, 88, 164, 87, 2, 0.540916
60, 1, wb, filler, NA, 999, 999, 6, 18, 104, 125, 125, 88, 164, 87, 3, 0.55809
60, 1, wb, attraction, a-b-db, 9, 2, 6, 19, 165, 90, 90, 165, 86, 157, 2, 0.957169
60, 1, wb, attraction, a-b-db, 9, 2, 6, 19, 165, 90, 90, 165, 86, 157, 1, 0.445461
60, 1, wb, attraction, a-b-db, 9, 1, 6, 20, 57, 129, 135, 60, 60, 135, 2, 0.721281
60, 1, wb, attraction, a-b-db, 9, 1, 6, 20, 57, 129, 135, 60, 60, 135, 3, 0.331041
60, 1, wb, attraction, a-b-db, 2, 3, 6, 21, 120, 195, 195, 120, 119, 193, 2, 0.595565
60, 1, wb, attraction, a-b-db, 2, 3, 6, 21, 120, 195, 195, 120, 119, 193, 1, 0.29875
60, 1, wb, attraction, a-b-db, 5, 1, 6, 22, 135, 60, 58, 132, 60, 135, 2, 0.244456
60, 1, wb, attraction, a-b-db, 5, 1, 6, 22, 135, 60, 58, 132, 60, 135, 3, 0.329776
60, 1, wb, attraction, a-b-da, 5, 2, 6, 23, 90, 165, 165, 90, 161, 88, 2, 0.426282
60, 1, wb, attraction, a-b-da, 5, 2, 6, 23, 90, 165, 165, 90, 161, 88, 1, 0.328274
60, 1, wb, attraction, a-b-db, 2, 2, 6, 24, 89, 163, 165, 90, 90, 165, 2, 0.24853
60, 1, wb, attraction, a-b-db, 2, 2, 6, 24, 89, 163, 165, 90, 90, 165, 3, 0.317809
60, 1, wb, attraction, a-b-da, 2, 1, 6, 25, 60, 135, 135, 60, 134, 59, 2, 0.447006
60, 1, wb, attraction, a-b-da, 2, 1, 6, 25, 60, 135, 135, 60, 134, 59, 1, 0.388355
60, 1, wb, attraction, a-b-db, 14, 1, 6, 26, 135, 60, 60, 135, 56, 125, 2, 0.258652
60, 1, wb, attraction, a-b-db, 14, 1, 6, 26, 135, 60, 60, 135, 56, 125, 3, 0.33523
60, 1, wb, attraction, a-b-db, 2, 1, 6, 27, 60, 135, 135, 60, 59, 134, 2, 0.503691
60, 1, wb, attraction, a-b-db, 2, 1, 6, 27, 60, 135, 135, 60, 59, 134, 1, 0.338857
60, 1, wb, filler, NA, 999, 999, 6, 28, 166, 135, 67, 149, 98, 135, 2, 0.443357
60, 1, wb, filler, NA, 999, 999, 6, 28, 166, 135, 67, 149, 98, 135, 3, 0.376557
60, 1, wb, attraction, a-b-db, 14, 2, 6, 29, 83, 153, 165, 90, 90, 165, 2, 0.511126
60, 1, wb, attraction, a-b-db, 14, 2, 6, 29, 83, 153, 165, 90, 90, 165, 1, 0.297697
60, 1, wb, attraction, a-b-db, 5, 2, 6, 30, 90, 165, 88, 161, 165, 90, 2, 0.843402
60, 1, wb, attraction, a-b-db, 5, 2, 6, 30, 90, 165, 88, 161, 165, 90, 3, 0.352439
60, 1, wb, attraction, a-b-da, 9, 1, 6, 31, 60, 135, 135, 60, 129, 57, 2, 0.424347
60, 1, wb, attraction, a-b-da, 9, 1, 6, 31, 60, 135, 135, 60, 129, 57, 1, 0.382186
60, 1, wb, filler, NA, 999, 999, 6, 32, 149, 160, 106, 97, 151, 184, 2, 0.652552
60, 1, wb, filler, NA, 999, 999, 6, 32, 149, 160, 106, 97, 151, 184, 3, 0.409673
60, 1, wb, filler, NA, 999, 999, 6, 33, 97, 134, 158, 163, 123, 87, 2, 0.374824
60, 1, wb, filler, NA, 999, 999, 6, 33, 97, 134, 158, 163, 123, 87, 1, 0.294673
60, 1, wb, filler, NA, 999, 999, 6, 34, 139, 114, 102, 127, 150, 137, 2, 0.74465
60, 1, wb, filler, NA, 999, 999, 6, 34, 139, 114, 102, 127, 150, 137, 3, 0.369667
60, 1, wb, filler, NA, 999, 999, 6, 35, 92, 69, 80, 64, 97, 72, 2, 0.496823
60, 1, wb, filler, NA, 999, 999, 6, 35, 92, 69, 80, 64, 97, 72, 3, 0.883953
60, 1, wb, catch, NA, 999, 999, 6, 36, 158, 157, 93, 102, 158, 97, 2, 0.742326
60, 1, wb, catch, NA, 999, 999, 6, 36, 158, 157, 93, 102, 158, 97, 1, 0.311383
60, 1, wb, filler, NA, 999, 999, 6, 37, 107, 113, 122, 192, 171, 76, 1, 0.544526
60, 1, wb, filler, NA, 999, 999, 6, 37, 107, 113, 122, 192, 171, 76, 2, 0.297751
60, 1, wb, filler, NA, 999, 999, 7, 1, 177, 194, 146, 176, 106, 57, 3, 0.7235
60, 1, wb, filler, NA, 999, 999, 7, 1, 177, 194, 146, 176, 106, 57, 1, 0.341243
60, 1, wb, attraction, a-b-db, 14, 2, 7, 2, 165, 90, 90, 165, 83, 153, 2, 0.525076
60, 1, wb, attraction, a-b-db, 14, 2, 7, 2, 165, 90, 90, 165, 83, 153, 1, 0.478868
60, 1, wb, attraction, a-b-da, 5, 3, 7, 3, 190, 117, 195, 120, 120, 195, 2, 0.457283
60, 1, wb, attraction, a-b-da, 5, 3, 7, 3, 190, 117, 195, 120, 120, 195, 3, 0.277872
60, 1, wb, attraction, a-b-db, 5, 3, 7, 4, 195, 120, 117, 190, 120, 195, 2, 0.424384
60, 1, wb, attraction, a-b-db, 5, 3, 7, 4, 195, 120, 117, 190, 120, 195, 1, 0.566284
60, 1, wb, attraction, a-b-da, 9, 3, 7, 5, 186, 114, 120, 195, 195, 120, 2, 0.49325
60, 1, wb, attraction, a-b-da, 9, 3, 7, 5, 186, 114, 120, 195, 195, 120, 3, 0.288451
60, 1, wb, attraction, a-b-db, 2, 1, 7, 6, 60, 135, 59, 134, 135, 60, 2, 0.587024
60, 1, wb, attraction, a-b-db, 2, 1, 7, 6, 60, 135, 59, 134, 135, 60, 1, 0.626727
60, 1, wb, attraction, a-b-db, 9, 2, 7, 7, 165, 90, 90, 165, 86, 157, 2, 0.511182
60, 1, wb, attraction, a-b-db, 9, 2, 7, 7, 165, 90, 90, 165, 86, 157, 3, 0.289671
60, 1, wb, catch, NA, 999, 999, 7, 8, 112, 83, 158, 157, 157, 98, 2, 0.51611
60, 1, wb, catch, NA, 999, 999, 7, 8, 112, 83, 158, 157, 157, 98, 1, 0.36663
60, 1, wb, attraction, a-b-da, 2, 2, 7, 9, 165, 90, 163, 89, 90, 165, 2, 0.597835
60, 1, wb, attraction, a-b-da, 2, 2, 7, 9, 165, 90, 163, 89, 90, 165, 1, 0.308882
60, 1, wb, attraction, a-b-da, 14, 1, 7, 10, 60, 135, 135, 60, 125, 56, 2, 0.654114
60, 1, wb, attraction, a-b-da, 14, 1, 7, 10, 60, 135, 135, 60, 125, 56, 1, 0.275145
60, 1, wb, filler, NA, 999, 999, 7, 11, 152, 161, 113, 69, 87, 89, 2, 0.469692
60, 1, wb, filler, NA, 999, 999, 7, 11, 152, 161, 113, 69, 87, 89, 3, 0.378348
60, 1, wb, attraction, a-b-da, 2, 1, 7, 12, 135, 60, 60, 135, 134, 59, 2, 0.304678
60, 1, wb, attraction, a-b-da, 2, 1, 7, 12, 135, 60, 60, 135, 134, 59, 1, 0.339329
60, 1, wb, filler, NA, 999, 999, 7, 13, 136, 171, 165, 120, 193, 121, 2, 0.427756
60, 1, wb, filler, NA, 999, 999, 7, 13, 136, 171, 165, 120, 193, 121, 3, 0.625677
60, 1, wb, filler, NA, 999, 999, 7, 14, 92, 133, 131, 65, 92, 85, 2, 1.06205
60, 1, wb, filler, NA, 999, 999, 7, 14, 92, 133, 131, 65, 92, 85, 1, 0.522393
60, 1, wb, attraction, a-b-db, 9, 1, 7, 15, 57, 129, 60, 135, 135, 60, 2, 0.507567
60, 1, wb, attraction, a-b-db, 9, 1, 7, 15, 57, 129, 60, 135, 135, 60, 3, 0.733965
60, 1, wb, catch, NA, 999, 999, 7, 16, 146, 109, 130, 185, 80, 115, 2, 0.310259
60, 1, wb, catch, NA, 999, 999, 7, 16, 146, 109, 130, 185, 80, 115, 1, 0.696968
60, 1, wb, attraction, a-b-db, 2, 3, 7, 17, 119, 193, 195, 120, 120, 195, 3, 0.602665
60, 1, wb, attraction, a-b-db, 2, 3, 7, 17, 119, 193, 195, 120, 120, 195, 2, 0.417743
60, 1, wb, attraction, a-b-db, 9, 3, 7, 18, 195, 120, 114, 186, 120, 195, 2, 0.71083
60, 1, wb, attraction, a-b-db, 9, 3, 7, 18, 195, 120, 114, 186, 120, 195, 1, 0.337243
60, 1, wb, attraction, a-b-db, 14, 3, 7, 19, 195, 120, 111, 181, 120, 195, 2, 0.457735
60, 1, wb, attraction, a-b-db, 14, 3, 7, 19, 195, 120, 111, 181, 120, 195, 3, 0.382295
60, 1, wb, attraction, a-b-db, 2, 2, 7, 20, 165, 90, 90, 165, 89, 163, 2, 0.396825
60, 1, wb, attraction, a-b-db, 2, 2, 7, 20, 165, 90, 90, 165, 89, 163, 1, 0.363937
60, 1, wb, attraction, a-b-da, 9, 1, 7, 21, 129, 57, 135, 60, 60, 135, 2, 0.499164
60, 1, wb, attraction, a-b-da, 9, 1, 7, 21, 129, 57, 135, 60, 60, 135, 3, 0.342214
60, 1, wb, attraction, a-b-da, 5, 1, 7, 22, 132, 58, 135, 60, 60, 135, 2, 0.422073
60, 1, wb, attraction, a-b-da, 5, 1, 7, 22, 132, 58, 135, 60, 60, 135, 1, 0.620072
60, 1, wb, attraction, a-b-da, 9, 2, 7, 23, 165, 90, 157, 86, 90, 165, 2, 0.480983
60, 1, wb, attraction, a-b-da, 9, 2, 7, 23, 165, 90, 157, 86, 90, 165, 3, 0.476757
60, 1, wb, attraction, a-b-db, 14, 1, 7, 24, 56, 125, 60, 135, 135, 60, 2, 0.543222
60, 1, wb, attraction, a-b-db, 14, 1, 7, 24, 56, 125, 60, 135, 135, 60, 1, 0.480469
60, 1, wb, filler, NA, 999, 999, 7, 25, 113, 116, 59, 100, 120, 94, 2, 0.474817
60, 1, wb, filler, NA, 999, 999, 7, 25, 113, 116, 59, 100, 120, 94, 3, 0.590662
60, 1, wb, filler, NA, 999, 999, 7, 26, 173, 140, 71, 88, 67, 84, 2, 0.50853
60, 1, wb, filler, NA, 999, 999, 7, 26, 173, 140, 71, 88, 67, 84, 1, 0.358919
60, 1, wb, catch, NA, 999, 999, 7, 27, 141, 174, 128, 127, 78, 117, 2, 0.70199
60, 1, wb, catch, NA, 999, 999, 7, 27, 141, 174, 128, 127, 78, 117, 3, 0.44923
60, 1, wb, attraction, a-b-da, 14, 2, 7, 28, 90, 165, 153, 83, 165, 90, 2, 0.388965
60, 1, wb, attraction, a-b-da, 14, 2, 7, 28, 90, 165, 153, 83, 165, 90, 1, 0.420194
60, 1, wb, filler, NA, 999, 999, 7, 29, 66, 180, 159, 131, 119, 64, 2, 0.641288
60, 1, wb, filler, NA, 999, 999, 7, 29, 66, 180, 159, 131, 119, 64, 3, 0.454364
60, 1, wb, attraction, a-b-db, 5, 1, 7, 30, 58, 132, 60, 135, 135, 60, 2, 0.554198
60, 1, wb, attraction, a-b-db, 5, 1, 7, 30, 58, 132, 60, 135, 135, 60, 1, 0.42728
60, 1, wb, filler, NA, 999, 999, 7, 31, 194, 75, 148, 173, 57, 124, 2, 0.687759
60, 1, wb, filler, NA, 999, 999, 7, 31, 194, 75, 148, 173, 57, 124, 3, 0.762937
60, 1, wb, filler, NA, 999, 999, 7, 32, 74, 113, 94, 176, 56, 63, 3, 0.705907
60, 1, wb, filler, NA, 999, 999, 7, 32, 74, 113, 94, 176, 56, 63, 2, 0.49256
60, 1, wb, attraction, a-b-da, 2, 3, 7, 33, 195, 120, 120, 195, 193, 119, 3, 1.22229
60, 1, wb, attraction, a-b-da, 2, 3, 7, 33, 195, 120, 120, 195, 193, 119, 2, 0.827765
60, 1, wb, attraction, a-b-da, 14, 3, 7, 34, 120, 195, 195, 120, 181, 111, 3, 0.416139
60, 1, wb, attraction, a-b-da, 14, 3, 7, 34, 120, 195, 195, 120, 181, 111, 2, 0.534572
60, 1, wb, attraction, a-b-db, 5, 2, 7, 35, 165, 90, 90, 165, 88, 161, 3, 0.439042
60, 1, wb, attraction, a-b-db, 5, 2, 7, 35, 165, 90, 90, 165, 88, 161, 2, 0.388241
60, 1, wb, attraction, a-b-da, 5, 2, 7, 36, 90, 165, 161, 88, 165, 90, 3, 0.42676
60, 1, wb, attraction, a-b-da, 5, 2, 7, 36, 90, 165, 161, 88, 165, 90, 1, 0.272568
60, 1, wb, filler, NA, 999, 999, 7, 37, 63, 156, 129, 132, 193, 109, 2, 0.435798
60, 1, wb, filler, NA, 999, 999, 7, 37, 63, 156, 129, 132, 193, 109, 3, 0.281496
60, 1, wb, attraction, a-b-db, 2, 2, 8, 1, 89, 163, 165, 90, 90, 165, 1, 0.380054
60, 1, wb, attraction, a-b-db, 2, 2, 8, 1, 89, 163, 165, 90, 90, 165, 2, 0.236006
60, 1, wb, attraction, a-b-db, 14, 3, 8, 2, 120, 195, 111, 181, 195, 120, 1, 1.11243
60, 1, wb, attraction, a-b-db, 14, 3, 8, 2, 120, 195, 111, 181, 195, 120, 2, 0.258838
60, 1, wb, attraction, a-b-db, 14, 1, 8, 3, 56, 125, 135, 60, 60, 135, 1, 0.757925
60, 1, wb, attraction, a-b-db, 14, 1, 8, 3, 56, 125, 135, 60, 60, 135, 2, 0.278315
60, 1, wb, attraction, a-b-da, 14, 1, 8, 4, 125, 56, 60, 135, 135, 60, 2, 0.713066
60, 1, wb, attraction, a-b-da, 14, 1, 8, 4, 125, 56, 60, 135, 135, 60, 3, 0.355267
60, 1, wb, filler, NA, 999, 999, 8, 5, 64, 88, 147, 186, 136, 114, 1, 0.891064
60, 1, wb, filler, NA, 999, 999, 8, 5, 64, 88, 147, 186, 136, 114, 2, 0.23025
60, 1, wb, filler, NA, 999, 999, 8, 6, 62, 105, 84, 166, 57, 109, 1, 1.25065
60, 1, wb, filler, NA, 999, 999, 8, 6, 62, 105, 84, 166, 57, 109, 2, 0.247624
60, 1, wb, attraction, a-b-db, 14, 2, 8, 7, 165, 90, 83, 153, 90, 165, 1, 1.32353
60, 1, wb, attraction, a-b-db, 14, 2, 8, 7, 165, 90, 83, 153, 90, 165, 3, 0.565075
60, 1, wb, attraction, a-b-da, 14, 2, 8, 8, 165, 90, 153, 83, 90, 165, 2, 0.420105
60, 1, wb, attraction, a-b-da, 14, 2, 8, 8, 165, 90, 153, 83, 90, 165, 1, 0.226788
60, 1, wb, attraction, a-b-db, 5, 1, 8, 9, 60, 135, 58, 132, 135, 60, 2, 0.631159
60, 1, wb, attraction, a-b-db, 5, 1, 8, 9, 60, 135, 58, 132, 135, 60, 3, 0.309043
60, 1, wb, filler, NA, 999, 999, 8, 10, 134, 68, 193, 132, 160, 179, 1, 0.750176
60, 1, wb, filler, NA, 999, 999, 8, 10, 134, 68, 193, 132, 160, 179, 3, 1.31125
60, 1, wb, attraction, a-b-db, 2, 1, 8, 11, 59, 134, 60, 135, 135, 60, 2, 0.560047
60, 1, wb, attraction, a-b-db, 2, 1, 8, 11, 59, 134, 60, 135, 135, 60, 1, 0.248477
60, 1, wb, attraction, a-b-da, 5, 1, 8, 12, 132, 58, 60, 135, 135, 60, 3, 0.460378
60, 1, wb, attraction, a-b-da, 5, 1, 8, 12, 132, 58, 60, 135, 135, 60, 2, 0.416821
60, 1, wb, catch, NA, 999, 999, 8, 13, 90, 165, 84, 111, 145, 170, 1, 0.453992
60, 1, wb, catch, NA, 999, 999, 8, 13, 90, 165, 84, 111, 145, 170, 2, 0.275339
60, 1, wb, filler, NA, 999, 999, 8, 14, 124, 127, 114, 82, 176, 122, 2, 0.781725
60, 1, wb, filler, NA, 999, 999, 8, 14, 124, 127, 114, 82, 176, 122, 3, 0.981621
60, 1, wb, filler, NA, 999, 999, 8, 15, 191, 131, 75, 152, 108, 122, 2, 1.07575
60, 1, wb, filler, NA, 999, 999, 8, 15, 191, 131, 75, 152, 108, 122, 1, 0.271523
60, 1, wb, attraction, a-b-db, 2, 3, 8, 16, 119, 193, 195, 120, 120, 195, 2, 0.602594
60, 1, wb, attraction, a-b-db, 2, 3, 8, 16, 119, 193, 195, 120, 120, 195, 1, 0.281702
60, 1, wb, attraction, a-b-da, 9, 3, 8, 17, 186, 114, 195, 120, 120, 195, 1, 0.764337
60, 1, wb, attraction, a-b-da, 9, 3, 8, 17, 186, 114, 195, 120, 120, 195, 2, 0.292597
60, 1, wb, filler, NA, 999, 999, 8, 18, 103, 122, 87, 137, 143, 82, 3, 0.382496
60, 1, wb, filler, NA, 999, 999, 8, 18, 103, 122, 87, 137, 143, 82, 2, 0.64634
60, 1, wb, attraction, a-b-da, 2, 3, 8, 19, 193, 119, 195, 120, 120, 195, 1, 0.362132
60, 1, wb, attraction, a-b-da, 2, 3, 8, 19, 193, 119, 195, 120, 120, 195, 2, 0.33866
60, 1, wb, attraction, a-b-db, 9, 2, 8, 20, 165, 90, 90, 165, 86, 157, 3, 0.475027
60, 1, wb, attraction, a-b-db, 9, 2, 8, 20, 165, 90, 90, 165, 86, 157, 2, 0.343048
60, 1, wb, filler, NA, 999, 999, 8, 21, 163, 76, 152, 123, 108, 161, 1, 0.478666
60, 1, wb, filler, NA, 999, 999, 8, 21, 163, 76, 152, 123, 108, 161, 2, 0.354541
60, 1, wb, attraction, a-b-da, 5, 3, 8, 22, 190, 117, 120, 195, 195, 120, 3, 0.586414
60, 1, wb, attraction, a-b-da, 5, 3, 8, 22, 190, 117, 120, 195, 195, 120, 2, 0.354262
60, 1, wb, filler, NA, 999, 999, 8, 23, 104, 173, 56, 150, 109, 118, 1, 0.474037
60, 1, wb, filler, NA, 999, 999, 8, 23, 104, 173, 56, 150, 109, 118, 2, 0.701992
60, 1, wb, catch, NA, 999, 999, 8, 24, 140, 175, 116, 79, 104, 151, 2, 0.823591
60, 1, wb, catch, NA, 999, 999, 8, 24, 140, 175, 116, 79, 104, 151, 1, 0.285484
60, 1, wb, attraction, a-b-db, 5, 3, 8, 25, 117, 190, 195, 120, 120, 195, 2, 0.607858
60, 1, wb, attraction, a-b-db, 5, 3, 8, 25, 117, 190, 195, 120, 120, 195, 1, 0.390239
60, 1, wb, attraction, a-b-da, 2, 2, 8, 26, 163, 89, 90, 165, 165, 90, 2, 1.15604
60, 1, wb, attraction, a-b-da, 2, 2, 8, 26, 163, 89, 90, 165, 165, 90, 1, 0.372423
60, 1, wb, filler, NA, 999, 999, 8, 27, 130, 135, 192, 187, 98, 118, 2, 0.603569
60, 1, wb, filler, NA, 999, 999, 8, 27, 130, 135, 192, 187, 98, 118, 3, 1.00266
60, 1, wb, attraction, a-b-db, 9, 3, 8, 28, 195, 120, 114, 186, 120, 195, 2, 0.432235
60, 1, wb, attraction, a-b-db, 9, 3, 8, 28, 195, 120, 114, 186, 120, 195, 1, 0.350097
60, 1, wb, filler, NA, 999, 999, 8, 29, 194, 154, 93, 182, 175, 147, 2, 0.469985
60, 1, wb, filler, NA, 999, 999, 8, 29, 194, 154, 93, 182, 175, 147, 3, 0.322455
60, 1, wb, catch, NA, 999, 999, 8, 30, 150, 105, 131, 64, 128, 187, 2, 0.44367
60, 1, wb, catch, NA, 999, 999, 8, 30, 150, 105, 131, 64, 128, 187, 1, 0.776777
60, 1, wb, attraction, a-b-db, 5, 2, 8, 31, 165, 90, 90, 165, 88, 161, 2, 1.04715
60, 1, wb, attraction, a-b-db, 5, 2, 8, 31, 165, 90, 90, 165, 88, 161, 1, 0.340132
60, 1, wb, attraction, a-b-da, 9, 1, 8, 32, 129, 57, 60, 135, 135, 60, 2, 0.539925
60, 1, wb, attraction, a-b-da, 9, 1, 8, 32, 129, 57, 60, 135, 135, 60, 3, 0.349175
60, 1, wb, attraction, a-b-da, 14, 3, 8, 33, 120, 195, 181, 111, 195, 120, 2, 1.19688
60, 1, wb, attraction, a-b-da, 14, 3, 8, 33, 120, 195, 181, 111, 195, 120, 3, 0.835892
60, 1, wb, attraction, a-b-db, 9, 1, 8, 34, 57, 129, 135, 60, 60, 135, 2, 0.848171
60, 1, wb, attraction, a-b-db, 9, 1, 8, 34, 57, 129, 135, 60, 60, 135, 1, 0.317208
60, 1, wb, attraction, a-b-da, 9, 2, 8, 35, 90, 165, 157, 86, 165, 90, 2, 0.422442
60, 1, wb, attraction, a-b-da, 9, 2, 8, 35, 90, 165, 157, 86, 165, 90, 3, 0.628259
60, 1, wb, attraction, a-b-da, 2, 1, 8, 36, 135, 60, 60, 135, 134, 59, 2, 0.456729
60, 1, wb, attraction, a-b-da, 2, 1, 8, 36, 135, 60, 60, 135, 134, 59, 1, 0.685147
60, 1, wb, attraction, a-b-da, 5, 2, 8, 37, 165, 90, 90, 165, 161, 88, 2, 0.367649
60, 1, wb, attraction, a-b-da, 5, 2, 8, 37, 165, 90, 90, 165, 161, 88, 3, 0.328155
