sub_n, computer_n, bw_cond, effect, set, distance, diag, block_n, trial_n, h1, w1, h2, w2, h3, w3, choice, rt 
71, 1, bw, practice, NA, 999, 999, 0, 1, 63, 184, 64, 154, 123, 158, 3, 9.10963
71, 1, bw, practice, NA, 999, 999, 0, 1, 63, 184, 64, 154, 123, 158, 2, 2.37285
71, 1, bw, practice, NA, 999, 999, 0, 2, 172, 116, 169, 95, 157, 110, 1, 5.50642
71, 1, bw, practice, NA, 999, 999, 0, 2, 172, 116, 169, 95, 157, 110, 2, 7.20939
71, 1, bw, practice, NA, 999, 999, 0, 3, 69, 128, 57, 99, 64, 68, 1, 3.63401
71, 1, bw, practice, NA, 999, 999, 0, 3, 69, 128, 57, 99, 64, 68, 3, 1.77689
71, 1, bw, filler, NA, 999, 999, 1, 1, 182, 129, 69, 64, 170, 172, 3, 4.44442
71, 1, bw, filler, NA, 999, 999, 1, 1, 182, 129, 69, 64, 170, 172, 2, 1.49627
71, 1, bw, attraction, a-b-da, 14, 3, 1, 2, 195, 120, 181, 111, 120, 195, 1, 4.1217
71, 1, bw, attraction, a-b-da, 14, 3, 1, 2, 195, 120, 181, 111, 120, 195, 2, 4.5471
71, 1, bw, filler, NA, 999, 999, 1, 3, 183, 80, 182, 90, 82, 175, 2, 1.9937
71, 1, bw, filler, NA, 999, 999, 1, 3, 183, 80, 182, 90, 82, 175, 1, 1.15223
71, 1, bw, filler, NA, 999, 999, 1, 4, 129, 132, 104, 134, 166, 58, 1, 2.19992
71, 1, bw, filler, NA, 999, 999, 1, 4, 129, 132, 104, 134, 166, 58, 3, 1.26258
71, 1, bw, attraction, a-b-db, 2, 3, 1, 5, 120, 195, 195, 120, 119, 193, 3, 9.7934
71, 1, bw, attraction, a-b-db, 2, 3, 1, 5, 120, 195, 195, 120, 119, 193, 2, 3.73361
71, 1, bw, filler, NA, 999, 999, 1, 6, 67, 186, 64, 97, 115, 195, 3, 2.49307
71, 1, bw, filler, NA, 999, 999, 1, 6, 67, 186, 64, 97, 115, 195, 2, 1.02368
71, 1, bw, filler, NA, 999, 999, 1, 7, 124, 158, 177, 173, 75, 101, 2, 1.20384
71, 1, bw, filler, NA, 999, 999, 1, 7, 124, 158, 177, 173, 75, 101, 3, 1.17888
71, 1, bw, attraction, a-b-db, 9, 1, 1, 8, 57, 129, 135, 60, 60, 135, 3, 5.84896
71, 1, bw, attraction, a-b-db, 9, 1, 1, 8, 57, 129, 135, 60, 60, 135, 2, 1.28454
71, 1, bw, attraction, a-b-da, 5, 3, 1, 9, 120, 195, 190, 117, 195, 120, 1, 3.25483
71, 1, bw, attraction, a-b-da, 5, 3, 1, 9, 120, 195, 190, 117, 195, 120, 2, 3.05901
71, 1, bw, filler, NA, 999, 999, 1, 10, 164, 58, 171, 67, 77, 118, 2, 4.41345
71, 1, bw, filler, NA, 999, 999, 1, 10, 164, 58, 171, 67, 77, 118, 3, 1.89875
71, 1, bw, attraction, a-b-da, 5, 1, 1, 11, 132, 58, 60, 135, 135, 60, 3, 8.17996
71, 1, bw, attraction, a-b-da, 5, 1, 1, 11, 132, 58, 60, 135, 135, 60, 1, 2.20144
71, 1, bw, attraction, a-b-da, 2, 3, 1, 12, 195, 120, 120, 195, 193, 119, 1, 2.64662
71, 1, bw, attraction, a-b-da, 2, 3, 1, 12, 195, 120, 120, 195, 193, 119, 3, 1.83515
71, 1, bw, attraction, a-b-db, 14, 2, 1, 13, 83, 153, 165, 90, 90, 165, 2, 3.25522
71, 1, bw, attraction, a-b-db, 14, 2, 1, 13, 83, 153, 165, 90, 90, 165, 3, 1.29948
71, 1, bw, attraction, a-b-da, 14, 2, 1, 14, 165, 90, 90, 165, 153, 83, 2, 4.91708
71, 1, bw, attraction, a-b-da, 14, 2, 1, 14, 165, 90, 90, 165, 153, 83, 3, 1.09411
71, 1, bw, attraction, a-b-da, 9, 1, 1, 15, 135, 60, 129, 57, 60, 135, 3, 2.32775
71, 1, bw, attraction, a-b-da, 9, 1, 1, 15, 135, 60, 129, 57, 60, 135, 2, 1.53693
71, 1, bw, attraction, a-b-da, 14, 1, 1, 16, 125, 56, 60, 135, 135, 60, 2, 2.89704
71, 1, bw, attraction, a-b-da, 14, 1, 1, 16, 125, 56, 60, 135, 135, 60, 1, 0.827381
71, 1, bw, attraction, a-b-db, 9, 2, 1, 17, 165, 90, 86, 157, 90, 165, 3, 2.24797
71, 1, bw, attraction, a-b-db, 9, 2, 1, 17, 165, 90, 86, 157, 90, 165, 2, 3.41243
71, 1, bw, attraction, a-b-db, 14, 1, 1, 18, 56, 125, 60, 135, 135, 60, 2, 4.69668
71, 1, bw, attraction, a-b-db, 14, 1, 1, 18, 56, 125, 60, 135, 135, 60, 1, 0.602568
71, 1, bw, attraction, a-b-da, 2, 2, 1, 19, 90, 165, 165, 90, 163, 89, 2, 1.40019
71, 1, bw, attraction, a-b-da, 2, 2, 1, 19, 90, 165, 165, 90, 163, 89, 3, 1.52706
71, 1, bw, attraction, a-b-db, 5, 1, 1, 20, 58, 132, 60, 135, 135, 60, 3, 6.35124
71, 1, bw, attraction, a-b-db, 5, 1, 1, 20, 58, 132, 60, 135, 135, 60, 2, 0.518476
71, 1, bw, attraction, a-b-db, 14, 3, 1, 21, 120, 195, 195, 120, 111, 181, 2, 2.67972
71, 1, bw, attraction, a-b-db, 14, 3, 1, 21, 120, 195, 195, 120, 111, 181, 3, 0.970717
71, 1, bw, catch, NA, 999, 999, 1, 22, 154, 161, 138, 117, 69, 126, 1, 1.28172
71, 1, bw, catch, NA, 999, 999, 1, 22, 154, 161, 138, 117, 69, 126, 3, 1.07731
71, 1, bw, filler, NA, 999, 999, 1, 23, 100, 163, 69, 89, 153, 58, 1, 1.33571
71, 1, bw, filler, NA, 999, 999, 1, 23, 100, 163, 69, 89, 153, 58, 2, 0.921273
71, 1, bw, filler, NA, 999, 999, 1, 24, 125, 119, 130, 155, 129, 191, 3, 1.43419
71, 1, bw, filler, NA, 999, 999, 1, 24, 125, 119, 130, 155, 129, 191, 1, 1.00763
71, 1, bw, attraction, a-b-db, 5, 2, 1, 25, 88, 161, 165, 90, 90, 165, 3, 3.64467
71, 1, bw, attraction, a-b-db, 5, 2, 1, 25, 88, 161, 165, 90, 90, 165, 2, 0.456778
71, 1, bw, attraction, a-b-da, 2, 1, 1, 26, 135, 60, 134, 59, 60, 135, 3, 1.97191
71, 1, bw, attraction, a-b-da, 2, 1, 1, 26, 135, 60, 134, 59, 60, 135, 2, 0.635315
71, 1, bw, attraction, a-b-db, 9, 3, 1, 27, 120, 195, 195, 120, 114, 186, 2, 1.72775
71, 1, bw, attraction, a-b-db, 9, 3, 1, 27, 120, 195, 195, 120, 114, 186, 1, 3.17721
71, 1, bw, catch, NA, 999, 999, 1, 28, 124, 131, 180, 135, 115, 80, 2, 1.16665
71, 1, bw, catch, NA, 999, 999, 1, 28, 124, 131, 180, 135, 115, 80, 3, 0.687095
71, 1, bw, attraction, a-b-da, 5, 2, 1, 29, 161, 88, 90, 165, 165, 90, 2, 1.74547
71, 1, bw, attraction, a-b-da, 5, 2, 1, 29, 161, 88, 90, 165, 165, 90, 3, 0.834291
71, 1, bw, attraction, a-b-db, 5, 3, 1, 30, 195, 120, 117, 190, 120, 195, 3, 3.29454
71, 1, bw, attraction, a-b-db, 5, 3, 1, 30, 195, 120, 117, 190, 120, 195, 2, 0.432778
71, 1, bw, attraction, a-b-db, 2, 1, 1, 31, 135, 60, 60, 135, 59, 134, 2, 6.30125
71, 1, bw, attraction, a-b-db, 2, 1, 1, 31, 135, 60, 60, 135, 59, 134, 3, 1.6386
71, 1, bw, attraction, a-b-da, 9, 2, 1, 32, 90, 165, 165, 90, 157, 86, 2, 6.63465
71, 1, bw, attraction, a-b-da, 9, 2, 1, 32, 90, 165, 165, 90, 157, 86, 1, 1.27063
71, 1, bw, catch, NA, 999, 999, 1, 33, 90, 105, 164, 151, 116, 139, 2, 1.19341
71, 1, bw, catch, NA, 999, 999, 1, 33, 90, 105, 164, 151, 116, 139, 1, 0.648363
71, 1, bw, attraction, a-b-db, 2, 2, 1, 34, 165, 90, 90, 165, 89, 163, 3, 1.59618
71, 1, bw, attraction, a-b-db, 2, 2, 1, 34, 165, 90, 90, 165, 89, 163, 1, 0.770959
71, 1, bw, filler, NA, 999, 999, 1, 35, 155, 155, 115, 75, 74, 178, 1, 1.49013
71, 1, bw, filler, NA, 999, 999, 1, 35, 155, 155, 115, 75, 74, 178, 2, 0.732906
71, 1, bw, filler, NA, 999, 999, 1, 36, 87, 178, 100, 108, 118, 61, 1, 1.90122
71, 1, bw, filler, NA, 999, 999, 1, 36, 87, 178, 100, 108, 118, 61, 2, 0.759877
71, 1, bw, attraction, a-b-da, 9, 3, 1, 37, 120, 195, 195, 120, 186, 114, 1, 5.87103
71, 1, bw, attraction, a-b-da, 9, 3, 1, 37, 120, 195, 195, 120, 186, 114, 3, 1.16982
71, 1, bw, filler, NA, 999, 999, 2, 1, 178, 117, 141, 118, 70, 132, 1, 1.37674
71, 1, bw, filler, NA, 999, 999, 2, 1, 178, 117, 141, 118, 70, 132, 3, 0.704231
71, 1, bw, attraction, a-b-db, 14, 1, 2, 2, 135, 60, 60, 135, 56, 125, 1, 3.50586
71, 1, bw, attraction, a-b-db, 14, 1, 2, 2, 135, 60, 60, 135, 56, 125, 3, 0.483427
71, 1, bw, attraction, a-b-da, 9, 3, 2, 3, 120, 195, 186, 114, 195, 120, 3, 4.53408
71, 1, bw, attraction, a-b-da, 9, 3, 2, 3, 120, 195, 186, 114, 195, 120, 1, 0.894654
71, 1, bw, attraction, a-b-da, 9, 2, 2, 4, 165, 90, 90, 165, 157, 86, 1, 1.16011
71, 1, bw, attraction, a-b-da, 9, 2, 2, 4, 165, 90, 90, 165, 157, 86, 2, 0.456356
71, 1, bw, attraction, a-b-db, 14, 3, 2, 5, 195, 120, 120, 195, 111, 181, 1, 4.40429
71, 1, bw, attraction, a-b-db, 14, 3, 2, 5, 195, 120, 120, 195, 111, 181, 3, 0.658321
71, 1, bw, attraction, a-b-db, 2, 2, 2, 6, 89, 163, 165, 90, 90, 165, 2, 1.79718
71, 1, bw, attraction, a-b-db, 2, 2, 2, 6, 89, 163, 165, 90, 90, 165, 1, 0.508075
71, 1, bw, attraction, a-b-db, 2, 3, 2, 7, 195, 120, 119, 193, 120, 195, 1, 9.44505
71, 1, bw, attraction, a-b-db, 2, 3, 2, 7, 195, 120, 119, 193, 120, 195, 2, 0.703443
71, 1, bw, attraction, a-b-db, 9, 3, 2, 8, 120, 195, 114, 186, 195, 120, 1, 2.59313
71, 1, bw, attraction, a-b-db, 9, 3, 2, 8, 120, 195, 114, 186, 195, 120, 2, 0.519737
71, 1, bw, attraction, a-b-db, 9, 2, 2, 9, 86, 157, 90, 165, 165, 90, 2, 3.6649
71, 1, bw, attraction, a-b-db, 9, 2, 2, 9, 86, 157, 90, 165, 165, 90, 1, 0.804227
71, 1, bw, attraction, a-b-da, 14, 1, 2, 10, 125, 56, 135, 60, 60, 135, 3, 1.40992
71, 1, bw, attraction, a-b-da, 14, 1, 2, 10, 125, 56, 135, 60, 60, 135, 1, 0.688103
71, 1, bw, filler, NA, 999, 999, 2, 11, 89, 175, 57, 184, 140, 133, 3, 5.41051
71, 1, bw, filler, NA, 999, 999, 2, 11, 89, 175, 57, 184, 140, 133, 2, 0.743465
71, 1, bw, filler, NA, 999, 999, 2, 12, 122, 90, 110, 103, 78, 106, 1, 4.4392
71, 1, bw, filler, NA, 999, 999, 2, 12, 122, 90, 110, 103, 78, 106, 3, 0.483085
71, 1, bw, attraction, a-b-da, 14, 2, 2, 13, 165, 90, 153, 83, 90, 165, 3, 1.30157
71, 1, bw, attraction, a-b-da, 14, 2, 2, 13, 165, 90, 153, 83, 90, 165, 2, 0.552462
71, 1, bw, attraction, a-b-db, 9, 1, 2, 14, 60, 135, 57, 129, 135, 60, 1, 3.72025
71, 1, bw, attraction, a-b-db, 9, 1, 2, 14, 60, 135, 57, 129, 135, 60, 2, 0.457688
71, 1, bw, catch, NA, 999, 999, 2, 15, 181, 134, 93, 162, 114, 81, 1, 0.796991
71, 1, bw, catch, NA, 999, 999, 2, 15, 181, 134, 93, 162, 114, 81, 3, 0.81993
71, 1, bw, catch, NA, 999, 999, 2, 16, 132, 183, 156, 99, 111, 84, 1, 0.800978
71, 1, bw, catch, NA, 999, 999, 2, 16, 132, 183, 156, 99, 111, 84, 3, 0.776186
71, 1, bw, filler, NA, 999, 999, 2, 17, 141, 90, 181, 135, 89, 190, 2, 1.38258
71, 1, bw, filler, NA, 999, 999, 2, 17, 141, 90, 181, 135, 89, 190, 1, 0.605895
71, 1, bw, attraction, a-b-da, 9, 1, 2, 18, 129, 57, 60, 135, 135, 60, 3, 1.43566
71, 1, bw, attraction, a-b-da, 9, 1, 2, 18, 129, 57, 60, 135, 135, 60, 2, 0.409189
71, 1, bw, filler, NA, 999, 999, 2, 19, 111, 166, 195, 162, 155, 185, 2, 2.47834
71, 1, bw, filler, NA, 999, 999, 2, 19, 111, 166, 195, 162, 155, 185, 1, 1.87376
71, 1, bw, attraction, a-b-db, 14, 2, 2, 20, 83, 153, 90, 165, 165, 90, 2, 2.67555
71, 1, bw, attraction, a-b-db, 14, 2, 2, 20, 83, 153, 90, 165, 165, 90, 3, 0.838838
71, 1, bw, attraction, a-b-da, 5, 1, 2, 21, 132, 58, 60, 135, 135, 60, 2, 1.90712
71, 1, bw, attraction, a-b-da, 5, 1, 2, 21, 132, 58, 60, 135, 135, 60, 3, 0.829123
71, 1, bw, filler, NA, 999, 999, 2, 22, 147, 160, 57, 166, 115, 135, 1, 1.23348
71, 1, bw, filler, NA, 999, 999, 2, 22, 147, 160, 57, 166, 115, 135, 2, 1.37512
71, 1, bw, filler, NA, 999, 999, 2, 23, 129, 66, 62, 82, 91, 149, 3, 1.40517
71, 1, bw, filler, NA, 999, 999, 2, 23, 129, 66, 62, 82, 91, 149, 2, 0.851354
71, 1, bw, attraction, a-b-db, 2, 1, 2, 24, 59, 134, 60, 135, 135, 60, 2, 2.22306
71, 1, bw, attraction, a-b-db, 2, 1, 2, 24, 59, 134, 60, 135, 135, 60, 1, 2.54034
71, 1, bw, attraction, a-b-db, 5, 3, 2, 25, 117, 190, 195, 120, 120, 195, 3, 1.10819
71, 1, bw, attraction, a-b-db, 5, 3, 2, 25, 117, 190, 195, 120, 120, 195, 1, 1.47843
71, 1, bw, attraction, a-b-db, 5, 1, 2, 26, 135, 60, 60, 135, 58, 132, 2, 2.39275
71, 1, bw, attraction, a-b-db, 5, 1, 2, 26, 135, 60, 60, 135, 58, 132, 3, 0.599143
71, 1, bw, catch, NA, 999, 999, 2, 27, 118, 137, 186, 129, 99, 96, 2, 1.46901
71, 1, bw, catch, NA, 999, 999, 2, 27, 118, 137, 186, 129, 99, 96, 3, 0.665111
71, 1, bw, attraction, a-b-da, 5, 3, 2, 28, 190, 117, 195, 120, 120, 195, 2, 4.39608
71, 1, bw, attraction, a-b-da, 5, 3, 2, 28, 190, 117, 195, 120, 120, 195, 3, 0.546168
71, 1, bw, attraction, a-b-da, 2, 2, 2, 29, 163, 89, 165, 90, 90, 165, 2, 2.26297
71, 1, bw, attraction, a-b-da, 2, 2, 2, 29, 163, 89, 165, 90, 90, 165, 3, 0.805754
71, 1, bw, attraction, a-b-db, 5, 2, 2, 30, 90, 165, 88, 161, 165, 90, 1, 5.11549
71, 1, bw, attraction, a-b-db, 5, 2, 2, 30, 90, 165, 88, 161, 165, 90, 2, 0.444555
71, 1, bw, attraction, a-b-da, 2, 3, 2, 31, 195, 120, 120, 195, 193, 119, 3, 2.07237
71, 1, bw, attraction, a-b-da, 2, 3, 2, 31, 195, 120, 120, 195, 193, 119, 1, 0.731699
71, 1, bw, filler, NA, 999, 999, 2, 32, 105, 88, 180, 139, 125, 69, 2, 0.731986
71, 1, bw, filler, NA, 999, 999, 2, 32, 105, 88, 180, 139, 125, 69, 1, 0.629813
71, 1, bw, attraction, a-b-da, 14, 3, 2, 33, 120, 195, 195, 120, 181, 111, 1, 3.08221
71, 1, bw, attraction, a-b-da, 14, 3, 2, 33, 120, 195, 195, 120, 181, 111, 3, 1.00535
71, 1, bw, filler, NA, 999, 999, 2, 34, 150, 124, 120, 77, 164, 152, 3, 0.891001
71, 1, bw, filler, NA, 999, 999, 2, 34, 150, 124, 120, 77, 164, 152, 2, 0.461836
71, 1, bw, filler, NA, 999, 999, 2, 35, 190, 62, 175, 99, 173, 120, 3, 1.09706
71, 1, bw, filler, NA, 999, 999, 2, 35, 190, 62, 175, 99, 173, 120, 1, 0.724028
71, 1, bw, attraction, a-b-da, 2, 1, 2, 36, 135, 60, 134, 59, 60, 135, 1, 9.06829
71, 1, bw, attraction, a-b-da, 2, 1, 2, 36, 135, 60, 134, 59, 60, 135, 2, 0.558179
71, 1, bw, attraction, a-b-da, 5, 2, 2, 37, 161, 88, 165, 90, 90, 165, 3, 1.61335
71, 1, bw, attraction, a-b-da, 5, 2, 2, 37, 161, 88, 165, 90, 90, 165, 2, 0.555386
71, 1, bw, attraction, a-b-db, 5, 1, 3, 1, 60, 135, 58, 132, 135, 60, 1, 5.67519
71, 1, bw, attraction, a-b-db, 5, 1, 3, 1, 60, 135, 58, 132, 135, 60, 2, 0.381436
71, 1, bw, attraction, a-b-da, 5, 2, 3, 2, 165, 90, 90, 165, 161, 88, 2, 7.3158
71, 1, bw, attraction, a-b-da, 5, 2, 3, 2, 165, 90, 90, 165, 161, 88, 3, 0.44433
71, 1, bw, filler, NA, 999, 999, 3, 3, 62, 77, 72, 144, 163, 152, 3, 1.072
71, 1, bw, filler, NA, 999, 999, 3, 3, 62, 77, 72, 144, 163, 152, 1, 0.779661
71, 1, bw, filler, NA, 999, 999, 3, 4, 59, 142, 111, 83, 180, 174, 3, 0.986006
71, 1, bw, filler, NA, 999, 999, 3, 4, 59, 142, 111, 83, 180, 174, 2, 0.769651
71, 1, bw, catch, NA, 999, 999, 3, 5, 154, 101, 65, 130, 178, 137, 3, 1.34477
71, 1, bw, catch, NA, 999, 999, 3, 5, 154, 101, 65, 130, 178, 137, 2, 0.689537
71, 1, bw, attraction, a-b-da, 9, 2, 3, 6, 165, 90, 157, 86, 90, 165, 1, 1.01192
71, 1, bw, attraction, a-b-da, 9, 2, 3, 6, 165, 90, 157, 86, 90, 165, 3, 0.522286
71, 1, bw, attraction, a-b-da, 5, 3, 3, 7, 195, 120, 190, 117, 120, 195, 1, 1.12347
71, 1, bw, attraction, a-b-da, 5, 3, 3, 7, 195, 120, 190, 117, 120, 195, 3, 0.461055
71, 1, bw, attraction, a-b-db, 9, 2, 3, 8, 165, 90, 86, 157, 90, 165, 1, 1.8242
71, 1, bw, attraction, a-b-db, 9, 2, 3, 8, 165, 90, 86, 157, 90, 165, 2, 0.509542
71, 1, bw, attraction, a-b-db, 14, 2, 3, 9, 83, 153, 165, 90, 90, 165, 3, 2.51878
71, 1, bw, attraction, a-b-db, 14, 2, 3, 9, 83, 153, 165, 90, 90, 165, 1, 0.464708
71, 1, bw, attraction, a-b-db, 2, 2, 3, 10, 89, 163, 90, 165, 165, 90, 3, 2.62762
71, 1, bw, attraction, a-b-db, 2, 2, 3, 10, 89, 163, 90, 165, 165, 90, 2, 0.720837
71, 1, bw, filler, NA, 999, 999, 3, 11, 182, 59, 99, 91, 167, 138, 3, 2.17781
71, 1, bw, filler, NA, 999, 999, 3, 11, 182, 59, 99, 91, 167, 138, 2, 0.417405
71, 1, bw, attraction, a-b-da, 2, 3, 3, 12, 193, 119, 195, 120, 120, 195, 1, 1.15024
71, 1, bw, attraction, a-b-da, 2, 3, 3, 12, 193, 119, 195, 120, 120, 195, 2, 0.527233
71, 1, bw, filler, NA, 999, 999, 3, 13, 101, 172, 112, 161, 161, 58, 2, 1.13565
71, 1, bw, filler, NA, 999, 999, 3, 13, 101, 172, 112, 161, 161, 58, 3, 0.553282
71, 1, bw, filler, NA, 999, 999, 3, 14, 155, 192, 137, 92, 62, 89, 1, 0.657101
71, 1, bw, filler, NA, 999, 999, 3, 14, 155, 192, 137, 92, 62, 89, 3, 0.461569
71, 1, bw, attraction, a-b-da, 9, 3, 3, 15, 195, 120, 120, 195, 186, 114, 3, 3.02463
71, 1, bw, attraction, a-b-da, 9, 3, 3, 15, 195, 120, 120, 195, 186, 114, 2, 0.325805
71, 1, bw, attraction, a-b-da, 2, 2, 3, 16, 165, 90, 163, 89, 90, 165, 3, 1.13419
71, 1, bw, attraction, a-b-da, 2, 2, 3, 16, 165, 90, 163, 89, 90, 165, 1, 0.431849
71, 1, bw, attraction, a-b-db, 14, 3, 3, 17, 195, 120, 111, 181, 120, 195, 3, 5.02832
71, 1, bw, attraction, a-b-db, 14, 3, 3, 17, 195, 120, 111, 181, 120, 195, 2, 0.416625
71, 1, bw, filler, NA, 999, 999, 3, 18, 101, 100, 100, 180, 104, 188, 2, 0.885818
71, 1, bw, filler, NA, 999, 999, 3, 18, 101, 100, 100, 180, 104, 188, 1, 0.425576
71, 1, bw, attraction, a-b-db, 9, 3, 3, 19, 120, 195, 114, 186, 195, 120, 1, 2.68593
71, 1, bw, attraction, a-b-db, 9, 3, 3, 19, 120, 195, 114, 186, 195, 120, 2, 0.369085
71, 1, bw, attraction, a-b-db, 5, 2, 3, 20, 165, 90, 90, 165, 88, 161, 3, 2.64023
71, 1, bw, attraction, a-b-db, 5, 2, 3, 20, 165, 90, 90, 165, 88, 161, 1, 0.876807
71, 1, bw, attraction, a-b-db, 5, 3, 3, 21, 117, 190, 195, 120, 120, 195, 3, 1.48716
71, 1, bw, attraction, a-b-db, 5, 3, 3, 21, 117, 190, 195, 120, 120, 195, 2, 0.330655
71, 1, bw, attraction, a-b-da, 9, 1, 3, 22, 135, 60, 129, 57, 60, 135, 1, 1.24304
71, 1, bw, attraction, a-b-da, 9, 1, 3, 22, 135, 60, 129, 57, 60, 135, 2, 0.864025
71, 1, bw, attraction, a-b-da, 2, 1, 3, 23, 135, 60, 60, 135, 134, 59, 3, 0.978992
71, 1, bw, attraction, a-b-da, 2, 1, 3, 23, 135, 60, 60, 135, 134, 59, 2, 0.410761
71, 1, bw, filler, NA, 999, 999, 3, 24, 185, 161, 107, 152, 63, 110, 1, 0.663771
71, 1, bw, filler, NA, 999, 999, 3, 24, 185, 161, 107, 152, 63, 110, 3, 0.604376
71, 1, bw, attraction, a-b-da, 14, 3, 3, 25, 120, 195, 181, 111, 195, 120, 3, 1.0821
71, 1, bw, attraction, a-b-da, 14, 3, 3, 25, 120, 195, 181, 111, 195, 120, 1, 0.437689
71, 1, bw, attraction, a-b-db, 14, 1, 3, 26, 135, 60, 60, 135, 56, 125, 1, 1.12211
71, 1, bw, attraction, a-b-db, 14, 1, 3, 26, 135, 60, 60, 135, 56, 125, 2, 0.73173
71, 1, bw, filler, NA, 999, 999, 3, 27, 152, 129, 63, 143, 136, 161, 3, 0.900174
71, 1, bw, filler, NA, 999, 999, 3, 27, 152, 129, 63, 143, 136, 161, 2, 0.471209
71, 1, bw, attraction, a-b-da, 14, 2, 3, 28, 90, 165, 153, 83, 165, 90, 3, 0.890436
71, 1, bw, attraction, a-b-da, 14, 2, 3, 28, 90, 165, 153, 83, 165, 90, 2, 0.413411
71, 1, bw, attraction, a-b-da, 14, 1, 3, 29, 60, 135, 135, 60, 125, 56, 1, 0.802501
71, 1, bw, attraction, a-b-da, 14, 1, 3, 29, 60, 135, 135, 60, 125, 56, 2, 0.489564
71, 1, bw, attraction, a-b-db, 2, 1, 3, 30, 135, 60, 59, 134, 60, 135, 3, 0.972
71, 1, bw, attraction, a-b-db, 2, 1, 3, 30, 135, 60, 59, 134, 60, 135, 1, 2.07568
71, 1, bw, catch, NA, 999, 999, 3, 31, 106, 89, 182, 133, 114, 141, 2, 1.44565
71, 1, bw, catch, NA, 999, 999, 3, 31, 106, 89, 182, 133, 114, 141, 1, 0.482548
71, 1, bw, filler, NA, 999, 999, 3, 32, 123, 151, 183, 57, 173, 111, 3, 0.884962
71, 1, bw, filler, NA, 999, 999, 3, 32, 123, 151, 183, 57, 173, 111, 1, 0.416551
71, 1, bw, attraction, a-b-db, 9, 1, 3, 33, 57, 129, 135, 60, 60, 135, 3, 1.87785
71, 1, bw, attraction, a-b-db, 9, 1, 3, 33, 57, 129, 135, 60, 60, 135, 1, 0.697164
71, 1, bw, attraction, a-b-db, 2, 3, 3, 34, 120, 195, 195, 120, 119, 193, 1, 0.850952
71, 1, bw, attraction, a-b-db, 2, 3, 3, 34, 120, 195, 195, 120, 119, 193, 3, 0.472069
71, 1, bw, catch, NA, 999, 999, 3, 35, 172, 143, 76, 119, 114, 141, 1, 0.651096
71, 1, bw, catch, NA, 999, 999, 3, 35, 172, 143, 76, 119, 114, 141, 2, 0.896192
71, 1, bw, filler, NA, 999, 999, 3, 36, 148, 86, 106, 122, 176, 94, 3, 1.4739
71, 1, bw, filler, NA, 999, 999, 3, 36, 148, 86, 106, 122, 176, 94, 1, 0.453343
71, 1, bw, attraction, a-b-da, 5, 1, 3, 37, 132, 58, 135, 60, 60, 135, 3, 1.20914
71, 1, bw, attraction, a-b-da, 5, 1, 3, 37, 132, 58, 135, 60, 60, 135, 1, 0.591407
71, 1, bw, attraction, a-b-da, 14, 2, 4, 1, 153, 83, 165, 90, 90, 165, 3, 0.789162
71, 1, bw, attraction, a-b-da, 14, 2, 4, 1, 153, 83, 165, 90, 90, 165, 1, 0.476135
71, 1, bw, attraction, a-b-da, 14, 1, 4, 2, 60, 135, 125, 56, 135, 60, 1, 1.41464
71, 1, bw, attraction, a-b-da, 14, 1, 4, 2, 60, 135, 125, 56, 135, 60, 2, 0.93296
71, 1, bw, catch, NA, 999, 999, 4, 3, 70, 125, 163, 152, 156, 99, 2, 1.15732
71, 1, bw, catch, NA, 999, 999, 4, 3, 70, 125, 163, 152, 156, 99, 1, 0.72547
71, 1, bw, attraction, a-b-da, 2, 3, 4, 4, 193, 119, 120, 195, 195, 120, 3, 1.37386
71, 1, bw, attraction, a-b-da, 2, 3, 4, 4, 193, 119, 120, 195, 195, 120, 2, 0.429412
71, 1, bw, filler, NA, 999, 999, 4, 5, 104, 181, 81, 63, 86, 150, 1, 0.993851
71, 1, bw, filler, NA, 999, 999, 4, 5, 104, 181, 81, 63, 86, 150, 2, 0.440991
71, 1, bw, attraction, a-b-da, 2, 1, 4, 6, 60, 135, 134, 59, 135, 60, 3, 0.860686
71, 1, bw, attraction, a-b-da, 2, 1, 4, 6, 60, 135, 134, 59, 135, 60, 1, 0.401061
71, 1, bw, filler, NA, 999, 999, 4, 7, 119, 149, 75, 119, 182, 193, 3, 0.782806
71, 1, bw, filler, NA, 999, 999, 4, 7, 119, 149, 75, 119, 182, 193, 2, 0.574655
71, 1, bw, filler, NA, 999, 999, 4, 8, 171, 147, 92, 118, 174, 56, 1, 0.765
71, 1, bw, filler, NA, 999, 999, 4, 8, 171, 147, 92, 118, 174, 56, 2, 0.469372
71, 1, bw, attraction, a-b-db, 14, 1, 4, 9, 56, 125, 60, 135, 135, 60, 3, 4.15253
71, 1, bw, attraction, a-b-db, 14, 1, 4, 9, 56, 125, 60, 135, 135, 60, 1, 0.5606
71, 1, bw, filler, NA, 999, 999, 4, 10, 128, 77, 193, 157, 71, 138, 2, 0.631539
71, 1, bw, filler, NA, 999, 999, 4, 10, 128, 77, 193, 157, 71, 138, 1, 0.981384
71, 1, bw, filler, NA, 999, 999, 4, 11, 134, 137, 184, 143, 154, 148, 3, 0.771691
71, 1, bw, filler, NA, 999, 999, 4, 11, 134, 137, 184, 143, 154, 148, 1, 0.651403
71, 1, bw, attraction, a-b-da, 5, 2, 4, 12, 165, 90, 90, 165, 161, 88, 1, 2.07119
71, 1, bw, attraction, a-b-da, 5, 2, 4, 12, 165, 90, 90, 165, 161, 88, 2, 0.634626
71, 1, bw, attraction, a-b-db, 14, 2, 4, 13, 83, 153, 90, 165, 165, 90, 3, 1.43106
71, 1, bw, attraction, a-b-db, 14, 2, 4, 13, 83, 153, 90, 165, 165, 90, 1, 1.29252
71, 1, bw, attraction, a-b-db, 5, 2, 4, 14, 88, 161, 90, 165, 165, 90, 3, 0.701969
71, 1, bw, attraction, a-b-db, 5, 2, 4, 14, 88, 161, 90, 165, 165, 90, 1, 0.441189
71, 1, bw, catch, NA, 999, 999, 4, 15, 181, 134, 155, 100, 121, 74, 1, 0.73283
71, 1, bw, catch, NA, 999, 999, 4, 15, 181, 134, 155, 100, 121, 74, 3, 0.582599
71, 1, bw, catch, NA, 999, 999, 4, 16, 138, 117, 139, 176, 89, 106, 2, 0.893163
71, 1, bw, catch, NA, 999, 999, 4, 16, 138, 117, 139, 176, 89, 106, 3, 0.424102
71, 1, bw, attraction, a-b-db, 14, 3, 4, 17, 195, 120, 111, 181, 120, 195, 3, 1.05254
71, 1, bw, attraction, a-b-db, 14, 3, 4, 17, 195, 120, 111, 181, 120, 195, 1, 1.00947
71, 1, bw, filler, NA, 999, 999, 4, 18, 127, 126, 167, 164, 93, 170, 2, 0.646519
71, 1, bw, filler, NA, 999, 999, 4, 18, 127, 126, 167, 164, 93, 170, 1, 0.483693
71, 1, bw, filler, NA, 999, 999, 4, 19, 57, 100, 157, 172, 100, 170, 2, 0.854174
71, 1, bw, filler, NA, 999, 999, 4, 19, 57, 100, 157, 172, 100, 170, 1, 0.58709
71, 1, bw, attraction, a-b-db, 9, 1, 4, 20, 60, 135, 135, 60, 57, 129, 1, 1.91348
71, 1, bw, attraction, a-b-db, 9, 1, 4, 20, 60, 135, 135, 60, 57, 129, 3, 0.691658
71, 1, bw, filler, NA, 999, 999, 4, 21, 115, 98, 94, 189, 153, 164, 3, 2.10127
71, 1, bw, filler, NA, 999, 999, 4, 21, 115, 98, 94, 189, 153, 164, 1, 0.488019
71, 1, bw, attraction, a-b-db, 2, 1, 4, 22, 59, 134, 135, 60, 60, 135, 1, 1.71453
71, 1, bw, attraction, a-b-db, 2, 1, 4, 22, 59, 134, 135, 60, 60, 135, 3, 0.548453
71, 1, bw, attraction, a-b-db, 2, 2, 4, 23, 89, 163, 165, 90, 90, 165, 1, 1.14042
71, 1, bw, attraction, a-b-db, 2, 2, 4, 23, 89, 163, 165, 90, 90, 165, 3, 0.397175
71, 1, bw, attraction, a-b-da, 9, 3, 4, 24, 186, 114, 120, 195, 195, 120, 2, 1.77664
71, 1, bw, attraction, a-b-da, 9, 3, 4, 24, 186, 114, 120, 195, 195, 120, 1, 0.946471
71, 1, bw, attraction, a-b-da, 9, 2, 4, 25, 90, 165, 157, 86, 165, 90, 3, 1.10618
71, 1, bw, attraction, a-b-da, 9, 2, 4, 25, 90, 165, 157, 86, 165, 90, 1, 0.548394
71, 1, bw, attraction, a-b-da, 2, 2, 4, 26, 163, 89, 165, 90, 90, 165, 1, 1.82807
71, 1, bw, attraction, a-b-da, 2, 2, 4, 26, 163, 89, 165, 90, 90, 165, 3, 1.2256
71, 1, bw, attraction, a-b-da, 9, 1, 4, 27, 60, 135, 129, 57, 135, 60, 3, 2.62976
71, 1, bw, attraction, a-b-da, 9, 1, 4, 27, 60, 135, 129, 57, 135, 60, 1, 0.594966
71, 1, bw, attraction, a-b-db, 2, 3, 4, 28, 119, 193, 195, 120, 120, 195, 3, 0.944782
71, 1, bw, attraction, a-b-db, 2, 3, 4, 28, 119, 193, 195, 120, 120, 195, 1, 0.457695
71, 1, bw, attraction, a-b-db, 9, 3, 4, 29, 120, 195, 114, 186, 195, 120, 1, 4.10876
71, 1, bw, attraction, a-b-db, 9, 3, 4, 29, 120, 195, 114, 186, 195, 120, 2, 0.670189
71, 1, bw, attraction, a-b-db, 5, 1, 4, 30, 135, 60, 60, 135, 58, 132, 2, 0.977252
71, 1, bw, attraction, a-b-db, 5, 1, 4, 30, 135, 60, 60, 135, 58, 132, 3, 0.801014
71, 1, bw, attraction, a-b-da, 5, 3, 4, 31, 120, 195, 190, 117, 195, 120, 1, 0.710651
71, 1, bw, attraction, a-b-da, 5, 3, 4, 31, 120, 195, 190, 117, 195, 120, 2, 0.576993
71, 1, bw, attraction, a-b-db, 9, 2, 4, 32, 90, 165, 165, 90, 86, 157, 1, 1.19155
71, 1, bw, attraction, a-b-db, 9, 2, 4, 32, 90, 165, 165, 90, 86, 157, 3, 0.7505
71, 1, bw, filler, NA, 999, 999, 4, 33, 187, 164, 134, 184, 123, 153, 1, 0.710085
71, 1, bw, filler, NA, 999, 999, 4, 33, 187, 164, 134, 184, 123, 153, 3, 0.544553
71, 1, bw, filler, NA, 999, 999, 4, 34, 83, 119, 122, 183, 176, 88, 2, 0.736301
71, 1, bw, filler, NA, 999, 999, 4, 34, 83, 119, 122, 183, 176, 88, 1, 0.593992
71, 1, bw, attraction, a-b-da, 14, 3, 4, 35, 181, 111, 195, 120, 120, 195, 1, 0.855885
71, 1, bw, attraction, a-b-da, 14, 3, 4, 35, 181, 111, 195, 120, 120, 195, 3, 0.636248
71, 1, bw, attraction, a-b-db, 5, 3, 4, 36, 120, 195, 195, 120, 117, 190, 1, 0.792614
71, 1, bw, attraction, a-b-db, 5, 3, 4, 36, 120, 195, 195, 120, 117, 190, 3, 0.727548
71, 1, bw, attraction, a-b-da, 5, 1, 4, 37, 132, 58, 135, 60, 60, 135, 3, 1.0479
71, 1, bw, attraction, a-b-da, 5, 1, 4, 37, 132, 58, 135, 60, 60, 135, 1, 0.660956
71, 1, bw, attraction, a-b-db, 2, 2, 5, 1, 165, 90, 89, 163, 90, 165, 2, 4.73472
71, 1, bw, attraction, a-b-db, 2, 2, 5, 1, 165, 90, 89, 163, 90, 165, 3, 0.951219
71, 1, bw, attraction, a-b-db, 14, 3, 5, 2, 195, 120, 120, 195, 111, 181, 1, 1.22291
71, 1, bw, attraction, a-b-db, 14, 3, 5, 2, 195, 120, 120, 195, 111, 181, 3, 0.804356
71, 1, bw, filler, NA, 999, 999, 5, 3, 59, 132, 148, 87, 163, 191, 3, 0.682188
71, 1, bw, filler, NA, 999, 999, 5, 3, 59, 132, 148, 87, 163, 191, 1, 0.460073
71, 1, bw, catch, NA, 999, 999, 5, 4, 130, 65, 97, 158, 128, 187, 3, 0.56899
71, 1, bw, catch, NA, 999, 999, 5, 4, 130, 65, 97, 158, 128, 187, 1, 0.697483
71, 1, bw, attraction, a-b-db, 9, 3, 5, 5, 195, 120, 114, 186, 120, 195, 1, 1.21119
71, 1, bw, attraction, a-b-db, 9, 3, 5, 5, 195, 120, 114, 186, 120, 195, 2, 0.433445
71, 1, bw, filler, NA, 999, 999, 5, 6, 148, 113, 72, 130, 95, 169, 1, 0.74992
71, 1, bw, filler, NA, 999, 999, 5, 6, 148, 113, 72, 130, 95, 169, 2, 0.647013
71, 1, bw, attraction, a-b-da, 14, 2, 5, 7, 165, 90, 153, 83, 90, 165, 2, 0.64268
71, 1, bw, attraction, a-b-da, 14, 2, 5, 7, 165, 90, 153, 83, 90, 165, 1, 0.743779
71, 1, bw, attraction, a-b-da, 2, 3, 5, 8, 195, 120, 193, 119, 120, 195, 3, 0.807472
71, 1, bw, attraction, a-b-da, 2, 3, 5, 8, 195, 120, 193, 119, 120, 195, 1, 0.533895
71, 1, bw, catch, NA, 999, 999, 5, 9, 141, 114, 147, 168, 72, 123, 2, 0.582328
71, 1, bw, catch, NA, 999, 999, 5, 9, 141, 114, 147, 168, 72, 123, 3, 0.614167
71, 1, bw, attraction, a-b-da, 2, 1, 5, 10, 60, 135, 134, 59, 135, 60, 3, 1.12324
71, 1, bw, attraction, a-b-da, 2, 1, 5, 10, 60, 135, 134, 59, 135, 60, 1, 0.340798
71, 1, bw, attraction, a-b-da, 5, 2, 5, 11, 165, 90, 161, 88, 90, 165, 3, 3.18075
71, 1, bw, attraction, a-b-da, 5, 2, 5, 11, 165, 90, 161, 88, 90, 165, 2, 0.379686
71, 1, bw, filler, NA, 999, 999, 5, 12, 195, 184, 171, 182, 90, 182, 1, 0.722213
71, 1, bw, filler, NA, 999, 999, 5, 12, 195, 184, 171, 182, 90, 182, 3, 0.428276
71, 1, bw, filler, NA, 999, 999, 5, 13, 100, 92, 72, 90, 108, 110, 3, 0.800492
71, 1, bw, filler, NA, 999, 999, 5, 13, 100, 92, 72, 90, 108, 110, 2, 0.703507
71, 1, bw, catch, NA, 999, 999, 5, 14, 178, 137, 148, 107, 98, 97, 1, 0.817168
71, 1, bw, catch, NA, 999, 999, 5, 14, 178, 137, 148, 107, 98, 97, 3, 0.431659
71, 1, bw, attraction, a-b-da, 2, 2, 5, 15, 90, 165, 165, 90, 163, 89, 3, 0.884019
71, 1, bw, attraction, a-b-da, 2, 2, 5, 15, 90, 165, 165, 90, 163, 89, 1, 1.15169
71, 1, bw, attraction, a-b-db, 5, 2, 5, 16, 88, 161, 165, 90, 90, 165, 1, 1.18328
71, 1, bw, attraction, a-b-db, 5, 2, 5, 16, 88, 161, 165, 90, 90, 165, 3, 0.334883
71, 1, bw, attraction, a-b-da, 14, 1, 5, 17, 135, 60, 125, 56, 60, 135, 1, 1.08745
71, 1, bw, attraction, a-b-da, 14, 1, 5, 17, 135, 60, 125, 56, 60, 135, 3, 0.418458
71, 1, bw, attraction, a-b-da, 5, 1, 5, 18, 135, 60, 60, 135, 132, 58, 1, 1.5276
71, 1, bw, attraction, a-b-da, 5, 1, 5, 18, 135, 60, 60, 135, 132, 58, 2, 0.385108
71, 1, bw, attraction, a-b-db, 14, 1, 5, 19, 135, 60, 56, 125, 60, 135, 1, 1.39141
71, 1, bw, attraction, a-b-db, 14, 1, 5, 19, 135, 60, 56, 125, 60, 135, 2, 0.830386
71, 1, bw, attraction, a-b-db, 5, 3, 5, 20, 120, 195, 195, 120, 117, 190, 3, 1.06687
71, 1, bw, attraction, a-b-db, 5, 3, 5, 20, 120, 195, 195, 120, 117, 190, 1, 0.655169
71, 1, bw, attraction, a-b-da, 14, 3, 5, 21, 195, 120, 120, 195, 181, 111, 1, 1.01086
71, 1, bw, attraction, a-b-da, 14, 3, 5, 21, 195, 120, 120, 195, 181, 111, 3, 0.729147
71, 1, bw, filler, NA, 999, 999, 5, 22, 78, 111, 174, 175, 163, 177, 2, 1.06539
71, 1, bw, filler, NA, 999, 999, 5, 22, 78, 111, 174, 175, 163, 177, 1, 0.533766
71, 1, bw, attraction, a-b-db, 9, 2, 5, 23, 165, 90, 86, 157, 90, 165, 1, 1.0062
71, 1, bw, attraction, a-b-db, 9, 2, 5, 23, 165, 90, 86, 157, 90, 165, 3, 1.2367
71, 1, bw, filler, NA, 999, 999, 5, 24, 76, 93, 83, 158, 60, 88, 2, 0.656747
71, 1, bw, filler, NA, 999, 999, 5, 24, 76, 93, 83, 158, 60, 88, 3, 0.957266
71, 1, bw, attraction, a-b-da, 9, 3, 5, 25, 186, 114, 120, 195, 195, 120, 1, 1.39607
71, 1, bw, attraction, a-b-da, 9, 3, 5, 25, 186, 114, 120, 195, 195, 120, 2, 0.523104
71, 1, bw, filler, NA, 999, 999, 5, 26, 92, 154, 96, 148, 81, 152, 2, 1.57225
71, 1, bw, filler, NA, 999, 999, 5, 26, 92, 154, 96, 148, 81, 152, 3, 0.499655
71, 1, bw, attraction, a-b-db, 2, 1, 5, 27, 135, 60, 59, 134, 60, 135, 1, 0.749419
71, 1, bw, attraction, a-b-db, 2, 1, 5, 27, 135, 60, 59, 134, 60, 135, 2, 0.47061
71, 1, bw, attraction, a-b-db, 9, 1, 5, 28, 57, 129, 135, 60, 60, 135, 2, 1.30569
71, 1, bw, attraction, a-b-db, 9, 1, 5, 28, 57, 129, 135, 60, 60, 135, 3, 0.79586
71, 1, bw, attraction, a-b-db, 2, 3, 5, 29, 119, 193, 120, 195, 195, 120, 1, 1.11352
71, 1, bw, attraction, a-b-db, 2, 3, 5, 29, 119, 193, 120, 195, 195, 120, 2, 0.595784
71, 1, bw, attraction, a-b-db, 14, 2, 5, 30, 90, 165, 165, 90, 83, 153, 2, 2.44962
71, 1, bw, attraction, a-b-db, 14, 2, 5, 30, 90, 165, 165, 90, 83, 153, 3, 0.422155
71, 1, bw, filler, NA, 999, 999, 5, 31, 174, 163, 82, 95, 85, 83, 1, 0.467305
71, 1, bw, filler, NA, 999, 999, 5, 31, 174, 163, 82, 95, 85, 83, 2, 0.375754
71, 1, bw, attraction, a-b-da, 9, 2, 5, 32, 165, 90, 90, 165, 157, 86, 1, 1.5343
71, 1, bw, attraction, a-b-da, 9, 2, 5, 32, 165, 90, 90, 165, 157, 86, 2, 0.375837
71, 1, bw, attraction, a-b-da, 9, 1, 5, 33, 129, 57, 135, 60, 60, 135, 2, 0.862288
71, 1, bw, attraction, a-b-da, 9, 1, 5, 33, 129, 57, 135, 60, 60, 135, 3, 0.626658
71, 1, bw, attraction, a-b-da, 5, 3, 5, 34, 120, 195, 190, 117, 195, 120, 3, 1.22302
71, 1, bw, attraction, a-b-da, 5, 3, 5, 34, 120, 195, 190, 117, 195, 120, 1, 0.548567
71, 1, bw, attraction, a-b-db, 5, 1, 5, 35, 58, 132, 60, 135, 135, 60, 3, 1.79658
71, 1, bw, attraction, a-b-db, 5, 1, 5, 35, 58, 132, 60, 135, 135, 60, 2, 1.09117
71, 1, bw, filler, NA, 999, 999, 5, 36, 113, 124, 128, 71, 116, 173, 3, 0.764769
71, 1, bw, filler, NA, 999, 999, 5, 36, 113, 124, 128, 71, 116, 173, 2, 1.30919
71, 1, bw, filler, NA, 999, 999, 5, 37, 194, 83, 95, 126, 173, 94, 1, 1.29394
71, 1, bw, filler, NA, 999, 999, 5, 37, 194, 83, 95, 126, 173, 94, 2, 0.408925
71, 1, bw, attraction, a-b-da, 5, 1, 6, 1, 132, 58, 135, 60, 60, 135, 2, 1.73406
71, 1, bw, attraction, a-b-da, 5, 1, 6, 1, 132, 58, 135, 60, 60, 135, 3, 0.575529
71, 1, bw, attraction, a-b-da, 9, 1, 6, 2, 129, 57, 60, 135, 135, 60, 3, 4.03793
71, 1, bw, attraction, a-b-da, 9, 1, 6, 2, 129, 57, 60, 135, 135, 60, 2, 0.490662
71, 1, bw, attraction, a-b-da, 5, 2, 6, 3, 165, 90, 90, 165, 161, 88, 2, 1.30053
71, 1, bw, attraction, a-b-da, 5, 2, 6, 3, 165, 90, 90, 165, 161, 88, 3, 0.671291
71, 1, bw, attraction, a-b-da, 14, 2, 6, 4, 165, 90, 153, 83, 90, 165, 1, 0.946316
71, 1, bw, attraction, a-b-da, 14, 2, 6, 4, 165, 90, 153, 83, 90, 165, 2, 0.739403
71, 1, bw, catch, NA, 999, 999, 6, 5, 139, 176, 145, 110, 82, 113, 1, 0.715693
71, 1, bw, catch, NA, 999, 999, 6, 5, 139, 176, 145, 110, 82, 113, 3, 0.59038
71, 1, bw, filler, NA, 999, 999, 6, 6, 111, 66, 129, 159, 77, 89, 2, 0.915873
71, 1, bw, filler, NA, 999, 999, 6, 6, 111, 66, 129, 159, 77, 89, 3, 0.550238
71, 1, bw, attraction, a-b-db, 5, 1, 6, 7, 58, 132, 60, 135, 135, 60, 3, 1.01405
71, 1, bw, attraction, a-b-db, 5, 1, 6, 7, 58, 132, 60, 135, 135, 60, 2, 0.396357
71, 1, bw, attraction, a-b-db, 5, 3, 6, 8, 120, 195, 117, 190, 195, 120, 3, 0.738261
71, 1, bw, attraction, a-b-db, 5, 3, 6, 8, 120, 195, 117, 190, 195, 120, 2, 0.539241
71, 1, bw, attraction, a-b-da, 2, 1, 6, 9, 135, 60, 60, 135, 134, 59, 3, 2.37168
71, 1, bw, attraction, a-b-da, 2, 1, 6, 9, 135, 60, 60, 135, 134, 59, 2, 0.594946
71, 1, bw, attraction, a-b-db, 9, 2, 6, 10, 86, 157, 165, 90, 90, 165, 3, 1.00075
71, 1, bw, attraction, a-b-db, 9, 2, 6, 10, 86, 157, 165, 90, 90, 165, 1, 0.503774
71, 1, bw, attraction, a-b-db, 14, 3, 6, 11, 111, 181, 120, 195, 195, 120, 3, 1.50554
71, 1, bw, attraction, a-b-db, 14, 3, 6, 11, 111, 181, 120, 195, 195, 120, 2, 0.907768
71, 1, bw, catch, NA, 999, 999, 6, 12, 177, 138, 63, 132, 151, 104, 1, 0.988697
71, 1, bw, catch, NA, 999, 999, 6, 12, 177, 138, 63, 132, 151, 104, 2, 0.427592
71, 1, bw, attraction, a-b-da, 9, 2, 6, 13, 157, 86, 165, 90, 90, 165, 2, 0.736063
71, 1, bw, attraction, a-b-da, 9, 2, 6, 13, 157, 86, 165, 90, 90, 165, 3, 0.681906
71, 1, bw, filler, NA, 999, 999, 6, 14, 145, 130, 79, 131, 126, 105, 1, 0.604233
71, 1, bw, filler, NA, 999, 999, 6, 14, 145, 130, 79, 131, 126, 105, 2, 0.443332
71, 1, bw, attraction, a-b-da, 14, 1, 6, 15, 60, 135, 125, 56, 135, 60, 3, 1.27917
71, 1, bw, attraction, a-b-da, 14, 1, 6, 15, 60, 135, 125, 56, 135, 60, 1, 0.442725
71, 1, bw, attraction, a-b-da, 2, 3, 6, 16, 120, 195, 195, 120, 193, 119, 1, 0.934458
71, 1, bw, attraction, a-b-da, 2, 3, 6, 16, 120, 195, 195, 120, 193, 119, 2, 1.47236
71, 1, bw, attraction, a-b-da, 14, 3, 6, 17, 181, 111, 120, 195, 195, 120, 3, 1.41905
71, 1, bw, attraction, a-b-da, 14, 3, 6, 17, 181, 111, 120, 195, 195, 120, 1, 0.785241
71, 1, bw, filler, NA, 999, 999, 6, 18, 128, 190, 82, 117, 181, 111, 1, 5.71964
71, 1, bw, filler, NA, 999, 999, 6, 18, 128, 190, 82, 117, 181, 111, 2, 0.440517
71, 1, bw, attraction, a-b-db, 9, 3, 6, 19, 195, 120, 120, 195, 114, 186, 2, 0.804214
71, 1, bw, attraction, a-b-db, 9, 3, 6, 19, 195, 120, 120, 195, 114, 186, 3, 0.619254
71, 1, bw, attraction, a-b-db, 9, 1, 6, 20, 135, 60, 60, 135, 57, 129, 1, 1.06441
71, 1, bw, attraction, a-b-db, 9, 1, 6, 20, 135, 60, 60, 135, 57, 129, 2, 0.804792
71, 1, bw, filler, NA, 999, 999, 6, 21, 59, 165, 141, 115, 103, 135, 2, 1.0905
71, 1, bw, filler, NA, 999, 999, 6, 21, 59, 165, 141, 115, 103, 135, 1, 0.461454
71, 1, bw, filler, NA, 999, 999, 6, 22, 178, 66, 108, 85, 151, 117, 3, 0.872418
71, 1, bw, filler, NA, 999, 999, 6, 22, 178, 66, 108, 85, 151, 117, 2, 0.556186
71, 1, bw, attraction, a-b-da, 5, 3, 6, 23, 120, 195, 195, 120, 190, 117, 2, 0.916023
71, 1, bw, attraction, a-b-da, 5, 3, 6, 23, 120, 195, 195, 120, 190, 117, 3, 1.03825
71, 1, bw, attraction, a-b-db, 5, 2, 6, 24, 90, 165, 88, 161, 165, 90, 1, 1.28263
71, 1, bw, attraction, a-b-db, 5, 2, 6, 24, 90, 165, 88, 161, 165, 90, 2, 0.422158
71, 1, bw, attraction, a-b-db, 14, 2, 6, 25, 83, 153, 165, 90, 90, 165, 2, 2.08334
71, 1, bw, attraction, a-b-db, 14, 2, 6, 25, 83, 153, 165, 90, 90, 165, 1, 0.45465
71, 1, bw, filler, NA, 999, 999, 6, 26, 146, 182, 183, 105, 150, 108, 1, 0.738456
71, 1, bw, filler, NA, 999, 999, 6, 26, 146, 182, 183, 105, 150, 108, 3, 0.603599
71, 1, bw, attraction, a-b-db, 2, 1, 6, 27, 59, 134, 60, 135, 135, 60, 3, 1.1533
71, 1, bw, attraction, a-b-db, 2, 1, 6, 27, 59, 134, 60, 135, 135, 60, 1, 0.450285
71, 1, bw, attraction, a-b-da, 2, 2, 6, 28, 90, 165, 165, 90, 163, 89, 2, 8.41406
71, 1, bw, attraction, a-b-da, 2, 2, 6, 28, 90, 165, 165, 90, 163, 89, 1, 0.369981
71, 1, bw, attraction, a-b-db, 2, 2, 6, 29, 90, 165, 165, 90, 89, 163, 1, 1.36122
71, 1, bw, attraction, a-b-db, 2, 2, 6, 29, 90, 165, 165, 90, 89, 163, 2, 0.313459
71, 1, bw, filler, NA, 999, 999, 6, 30, 111, 132, 153, 79, 168, 162, 3, 0.754531
71, 1, bw, filler, NA, 999, 999, 6, 30, 111, 132, 153, 79, 168, 162, 1, 0.47507
71, 1, bw, attraction, a-b-da, 9, 3, 6, 31, 120, 195, 195, 120, 186, 114, 1, 2.1335
71, 1, bw, attraction, a-b-da, 9, 3, 6, 31, 120, 195, 195, 120, 186, 114, 2, 0.65481
71, 1, bw, filler, NA, 999, 999, 6, 32, 180, 63, 169, 126, 83, 66, 2, 0.850617
71, 1, bw, filler, NA, 999, 999, 6, 32, 180, 63, 169, 126, 83, 66, 3, 0.655521
71, 1, bw, filler, NA, 999, 999, 6, 33, 189, 184, 177, 127, 144, 102, 1, 0.691286
71, 1, bw, filler, NA, 999, 999, 6, 33, 189, 184, 177, 127, 144, 102, 3, 0.686331
71, 1, bw, catch, NA, 999, 999, 6, 34, 180, 135, 101, 94, 115, 140, 1, 0.728733
71, 1, bw, catch, NA, 999, 999, 6, 34, 180, 135, 101, 94, 115, 140, 2, 0.474464
71, 1, bw, attraction, a-b-db, 2, 3, 6, 35, 119, 193, 120, 195, 195, 120, 3, 1.941
71, 1, bw, attraction, a-b-db, 2, 3, 6, 35, 119, 193, 120, 195, 195, 120, 1, 0.637654
71, 1, bw, filler, NA, 999, 999, 6, 36, 63, 189, 79, 140, 192, 66, 1, 1.79412
71, 1, bw, filler, NA, 999, 999, 6, 36, 63, 189, 79, 140, 192, 66, 2, 0.560878
71, 1, bw, attraction, a-b-db, 14, 1, 6, 37, 135, 60, 60, 135, 56, 125, 1, 0.991964
71, 1, bw, attraction, a-b-db, 14, 1, 6, 37, 135, 60, 60, 135, 56, 125, 3, 0.846864
71, 1, bw, attraction, a-b-da, 5, 3, 7, 1, 120, 195, 190, 117, 195, 120, 3, 1.1067
71, 1, bw, attraction, a-b-da, 5, 3, 7, 1, 120, 195, 190, 117, 195, 120, 1, 0.413023
71, 1, bw, attraction, a-b-db, 9, 1, 7, 2, 57, 129, 135, 60, 60, 135, 3, 0.914009
71, 1, bw, attraction, a-b-db, 9, 1, 7, 2, 57, 129, 135, 60, 60, 135, 2, 0.588539
71, 1, bw, attraction, a-b-da, 2, 3, 7, 3, 195, 120, 120, 195, 193, 119, 2, 2.23485
71, 1, bw, attraction, a-b-da, 2, 3, 7, 3, 195, 120, 120, 195, 193, 119, 1, 0.520085
71, 1, bw, filler, NA, 999, 999, 7, 4, 71, 62, 153, 104, 73, 169, 2, 0.857194
71, 1, bw, filler, NA, 999, 999, 7, 4, 71, 62, 153, 104, 73, 169, 1, 0.5897
71, 1, bw, catch, NA, 999, 999, 7, 5, 149, 166, 69, 126, 140, 115, 1, 0.780002
71, 1, bw, catch, NA, 999, 999, 7, 5, 149, 166, 69, 126, 140, 115, 2, 0.451688
71, 1, bw, attraction, a-b-da, 9, 2, 7, 6, 165, 90, 157, 86, 90, 165, 3, 1.51969
71, 1, bw, attraction, a-b-da, 9, 2, 7, 6, 165, 90, 157, 86, 90, 165, 2, 1.04973
71, 1, bw, attraction, a-b-da, 9, 1, 7, 7, 129, 57, 135, 60, 60, 135, 3, 2.54944
71, 1, bw, attraction, a-b-da, 9, 1, 7, 7, 129, 57, 135, 60, 60, 135, 1, 0.741863
71, 1, bw, filler, NA, 999, 999, 7, 8, 83, 169, 109, 100, 111, 82, 1, 0.821567
71, 1, bw, filler, NA, 999, 999, 7, 8, 83, 169, 109, 100, 111, 82, 2, 0.355398
71, 1, bw, catch, NA, 999, 999, 7, 9, 152, 163, 160, 95, 93, 102, 1, 1.11501
71, 1, bw, catch, NA, 999, 999, 7, 9, 152, 163, 160, 95, 93, 102, 3, 0.549387
71, 1, bw, attraction, a-b-db, 5, 3, 7, 10, 195, 120, 117, 190, 120, 195, 3, 2.17316
71, 1, bw, attraction, a-b-db, 5, 3, 7, 10, 195, 120, 117, 190, 120, 195, 1, 0.644464
71, 1, bw, attraction, a-b-da, 5, 1, 7, 11, 135, 60, 60, 135, 132, 58, 1, 1.64013
71, 1, bw, attraction, a-b-da, 5, 1, 7, 11, 135, 60, 60, 135, 132, 58, 2, 0.620937
71, 1, bw, catch, NA, 999, 999, 7, 12, 119, 76, 132, 123, 156, 159, 3, 1.09799
71, 1, bw, catch, NA, 999, 999, 7, 12, 119, 76, 132, 123, 156, 159, 1, 0.605143
71, 1, bw, attraction, a-b-da, 2, 1, 7, 13, 135, 60, 134, 59, 60, 135, 1, 0.98676
71, 1, bw, attraction, a-b-da, 2, 1, 7, 13, 135, 60, 134, 59, 60, 135, 3, 0.426455
71, 1, bw, attraction, a-b-da, 14, 2, 7, 14, 90, 165, 165, 90, 153, 83, 1, 2.4229
71, 1, bw, attraction, a-b-da, 14, 2, 7, 14, 90, 165, 165, 90, 153, 83, 3, 0.436102
71, 1, bw, filler, NA, 999, 999, 7, 15, 147, 185, 142, 166, 90, 70, 1, 0.744512
71, 1, bw, filler, NA, 999, 999, 7, 15, 147, 185, 142, 166, 90, 70, 3, 0.761729
71, 1, bw, attraction, a-b-db, 9, 3, 7, 16, 120, 195, 195, 120, 114, 186, 3, 0.912833
71, 1, bw, attraction, a-b-db, 9, 3, 7, 16, 120, 195, 195, 120, 114, 186, 2, 0.699224
71, 1, bw, attraction, a-b-db, 9, 2, 7, 17, 86, 157, 90, 165, 165, 90, 3, 1.45285
71, 1, bw, attraction, a-b-db, 9, 2, 7, 17, 86, 157, 90, 165, 165, 90, 2, 0.425649
71, 1, bw, attraction, a-b-db, 14, 3, 7, 18, 111, 181, 195, 120, 120, 195, 3, 1.27819
71, 1, bw, attraction, a-b-db, 14, 3, 7, 18, 111, 181, 195, 120, 120, 195, 2, 0.721772
71, 1, bw, filler, NA, 999, 999, 7, 19, 169, 183, 172, 170, 95, 155, 1, 1.01073
71, 1, bw, filler, NA, 999, 999, 7, 19, 169, 183, 172, 170, 95, 155, 3, 0.457043
71, 1, bw, attraction, a-b-da, 2, 2, 7, 20, 163, 89, 90, 165, 165, 90, 3, 2.2682
71, 1, bw, attraction, a-b-da, 2, 2, 7, 20, 163, 89, 90, 165, 165, 90, 2, 0.360088
71, 1, bw, attraction, a-b-da, 14, 3, 7, 21, 120, 195, 195, 120, 181, 111, 1, 0.823226
71, 1, bw, attraction, a-b-da, 14, 3, 7, 21, 120, 195, 195, 120, 181, 111, 3, 0.556963
71, 1, bw, filler, NA, 999, 999, 7, 22, 190, 141, 153, 179, 146, 73, 1, 0.87617
71, 1, bw, filler, NA, 999, 999, 7, 22, 190, 141, 153, 179, 146, 73, 3, 0.631797
71, 1, bw, attraction, a-b-da, 5, 2, 7, 23, 165, 90, 161, 88, 90, 165, 3, 1.6202
71, 1, bw, attraction, a-b-da, 5, 2, 7, 23, 165, 90, 161, 88, 90, 165, 1, 0.610297
71, 1, bw, filler, NA, 999, 999, 7, 24, 84, 165, 114, 181, 179, 182, 3, 1.08734
71, 1, bw, filler, NA, 999, 999, 7, 24, 84, 165, 114, 181, 179, 182, 1, 0.64299
71, 1, bw, attraction, a-b-da, 9, 3, 7, 25, 120, 195, 186, 114, 195, 120, 3, 7.05484
71, 1, bw, attraction, a-b-da, 9, 3, 7, 25, 120, 195, 186, 114, 195, 120, 2, 1.34603
71, 1, bw, filler, NA, 999, 999, 7, 26, 185, 63, 133, 188, 128, 158, 2, 0.865556
71, 1, bw, filler, NA, 999, 999, 7, 26, 185, 63, 133, 188, 128, 158, 1, 0.693832
71, 1, bw, attraction, a-b-db, 14, 1, 7, 27, 60, 135, 135, 60, 56, 125, 2, 2.2795
71, 1, bw, attraction, a-b-db, 14, 1, 7, 27, 60, 135, 135, 60, 56, 125, 1, 0.522823
71, 1, bw, filler, NA, 999, 999, 7, 28, 64, 168, 163, 95, 77, 184, 2, 0.82786
71, 1, bw, filler, NA, 999, 999, 7, 28, 64, 168, 163, 95, 77, 184, 1, 0.521636
71, 1, bw, attraction, a-b-db, 2, 3, 7, 29, 119, 193, 195, 120, 120, 195, 1, 1.06662
71, 1, bw, attraction, a-b-db, 2, 3, 7, 29, 119, 193, 195, 120, 120, 195, 3, 0.575082
71, 1, bw, attraction, a-b-db, 14, 2, 7, 30, 165, 90, 83, 153, 90, 165, 3, 1.50948
71, 1, bw, attraction, a-b-db, 14, 2, 7, 30, 165, 90, 83, 153, 90, 165, 2, 1.40756
71, 1, bw, attraction, a-b-db, 2, 1, 7, 31, 59, 134, 135, 60, 60, 135, 3, 1.16468
71, 1, bw, attraction, a-b-db, 2, 1, 7, 31, 59, 134, 135, 60, 60, 135, 1, 0.396808
71, 1, bw, attraction, a-b-db, 2, 2, 7, 32, 165, 90, 90, 165, 89, 163, 3, 2.00256
71, 1, bw, attraction, a-b-db, 2, 2, 7, 32, 165, 90, 90, 165, 89, 163, 1, 1.08129
71, 1, bw, attraction, a-b-db, 5, 2, 7, 33, 90, 165, 165, 90, 88, 161, 3, 1.21951
71, 1, bw, attraction, a-b-db, 5, 2, 7, 33, 90, 165, 165, 90, 88, 161, 2, 0.833827
71, 1, bw, filler, NA, 999, 999, 7, 34, 174, 151, 178, 123, 143, 137, 1, 1.27811
71, 1, bw, filler, NA, 999, 999, 7, 34, 174, 151, 178, 123, 143, 137, 3, 0.449733
71, 1, bw, attraction, a-b-db, 5, 1, 7, 35, 135, 60, 58, 132, 60, 135, 3, 1.97344
71, 1, bw, attraction, a-b-db, 5, 1, 7, 35, 135, 60, 58, 132, 60, 135, 2, 0.316783
71, 1, bw, attraction, a-b-da, 14, 1, 7, 36, 125, 56, 135, 60, 60, 135, 3, 0.741958
71, 1, bw, attraction, a-b-da, 14, 1, 7, 36, 125, 56, 135, 60, 60, 135, 1, 0.639135
71, 1, bw, filler, NA, 999, 999, 7, 37, 168, 157, 105, 172, 92, 106, 1, 0.787592
71, 1, bw, filler, NA, 999, 999, 7, 37, 168, 157, 105, 172, 92, 106, 3, 0.427205
71, 1, bw, attraction, a-b-db, 5, 2, 8, 1, 88, 161, 165, 90, 90, 165, 3, 0.647685
71, 1, bw, attraction, a-b-db, 5, 2, 8, 1, 88, 161, 165, 90, 90, 165, 1, 0.508807
71, 1, bw, attraction, a-b-da, 14, 3, 8, 2, 120, 195, 195, 120, 181, 111, 2, 2.94989
71, 1, bw, attraction, a-b-da, 14, 3, 8, 2, 120, 195, 195, 120, 181, 111, 3, 0.518356
71, 1, bw, attraction, a-b-da, 14, 2, 8, 3, 153, 83, 90, 165, 165, 90, 3, 0.927534
71, 1, bw, attraction, a-b-da, 14, 2, 8, 3, 153, 83, 90, 165, 165, 90, 2, 0.425075
71, 1, bw, attraction, a-b-db, 9, 2, 8, 4, 165, 90, 90, 165, 86, 157, 1, 2.03344
71, 1, bw, attraction, a-b-db, 9, 2, 8, 4, 165, 90, 90, 165, 86, 157, 2, 0.754941
71, 1, bw, attraction, a-b-db, 2, 3, 8, 5, 119, 193, 195, 120, 120, 195, 3, 0.898562
71, 1, bw, attraction, a-b-db, 2, 3, 8, 5, 119, 193, 195, 120, 120, 195, 2, 0.38172
71, 1, bw, filler, NA, 999, 999, 8, 6, 88, 81, 162, 171, 109, 89, 2, 1.06022
71, 1, bw, filler, NA, 999, 999, 8, 6, 88, 81, 162, 171, 109, 89, 1, 0.576558
71, 1, bw, attraction, a-b-da, 2, 1, 8, 7, 134, 59, 60, 135, 135, 60, 1, 1.32688
71, 1, bw, attraction, a-b-da, 2, 1, 8, 7, 134, 59, 60, 135, 135, 60, 2, 0.392481
71, 1, bw, attraction, a-b-da, 2, 2, 8, 8, 165, 90, 163, 89, 90, 165, 2, 0.982225
71, 1, bw, attraction, a-b-da, 2, 2, 8, 8, 165, 90, 163, 89, 90, 165, 3, 0.517879
71, 1, bw, filler, NA, 999, 999, 8, 9, 100, 56, 90, 169, 168, 106, 3, 1.135
71, 1, bw, filler, NA, 999, 999, 8, 9, 100, 56, 90, 169, 168, 106, 1, 0.640619
71, 1, bw, filler, NA, 999, 999, 8, 10, 66, 127, 67, 126, 189, 97, 3, 1.62039
71, 1, bw, filler, NA, 999, 999, 8, 10, 66, 127, 67, 126, 189, 97, 2, 0.570631
71, 1, bw, attraction, a-b-db, 2, 2, 8, 11, 165, 90, 89, 163, 90, 165, 1, 1.50564
71, 1, bw, attraction, a-b-db, 2, 2, 8, 11, 165, 90, 89, 163, 90, 165, 2, 0.747809
71, 1, bw, attraction, a-b-da, 9, 2, 8, 12, 165, 90, 90, 165, 157, 86, 3, 1.3075
71, 1, bw, attraction, a-b-da, 9, 2, 8, 12, 165, 90, 90, 165, 157, 86, 2, 0.373667
71, 1, bw, filler, NA, 999, 999, 8, 13, 115, 127, 146, 84, 111, 73, 1, 2.22017
71, 1, bw, filler, NA, 999, 999, 8, 13, 115, 127, 146, 84, 111, 73, 3, 0.602352
71, 1, bw, attraction, a-b-da, 5, 2, 8, 14, 90, 165, 165, 90, 161, 88, 3, 1.07988
71, 1, bw, attraction, a-b-da, 5, 2, 8, 14, 90, 165, 165, 90, 161, 88, 1, 0.531504
71, 1, bw, attraction, a-b-db, 9, 3, 8, 15, 195, 120, 114, 186, 120, 195, 1, 1.29206
71, 1, bw, attraction, a-b-db, 9, 3, 8, 15, 195, 120, 114, 186, 120, 195, 2, 0.462938
71, 1, bw, attraction, a-b-db, 14, 3, 8, 16, 111, 181, 195, 120, 120, 195, 3, 0.889994
71, 1, bw, attraction, a-b-db, 14, 3, 8, 16, 111, 181, 195, 120, 120, 195, 1, 0.517276
71, 1, bw, catch, NA, 999, 999, 8, 17, 63, 132, 163, 92, 178, 137, 3, 0.806201
71, 1, bw, catch, NA, 999, 999, 8, 17, 63, 132, 163, 92, 178, 137, 1, 0.604515
71, 1, bw, filler, NA, 999, 999, 8, 18, 151, 183, 150, 151, 73, 130, 1, 1.02631
71, 1, bw, filler, NA, 999, 999, 8, 18, 151, 183, 150, 151, 73, 130, 3, 0.480031
71, 1, bw, filler, NA, 999, 999, 8, 19, 163, 148, 100, 185, 179, 125, 1, 2.24242
71, 1, bw, filler, NA, 999, 999, 8, 19, 163, 148, 100, 185, 179, 125, 2, 0.591061
71, 1, bw, attraction, a-b-db, 2, 1, 8, 20, 59, 134, 135, 60, 60, 135, 3, 1.10081
71, 1, bw, attraction, a-b-db, 2, 1, 8, 20, 59, 134, 135, 60, 60, 135, 1, 0.503822
71, 1, bw, attraction, a-b-da, 9, 3, 8, 21, 120, 195, 195, 120, 186, 114, 3, 1.11365
71, 1, bw, attraction, a-b-da, 9, 3, 8, 21, 120, 195, 195, 120, 186, 114, 1, 0.41183
71, 1, bw, attraction, a-b-da, 5, 3, 8, 22, 190, 117, 120, 195, 195, 120, 3, 1.329
71, 1, bw, attraction, a-b-da, 5, 3, 8, 22, 190, 117, 120, 195, 195, 120, 1, 0.674572
71, 1, bw, catch, NA, 999, 999, 8, 23, 125, 190, 124, 131, 74, 121, 1, 0.868872
71, 1, bw, catch, NA, 999, 999, 8, 23, 125, 190, 124, 131, 74, 121, 3, 0.513298
71, 1, bw, attraction, a-b-da, 9, 1, 8, 24, 60, 135, 129, 57, 135, 60, 3, 0.858403
71, 1, bw, attraction, a-b-da, 9, 1, 8, 24, 60, 135, 129, 57, 135, 60, 1, 0.486866
71, 1, bw, filler, NA, 999, 999, 8, 25, 118, 159, 129, 142, 88, 154, 2, 1.71337
71, 1, bw, filler, NA, 999, 999, 8, 25, 118, 159, 129, 142, 88, 154, 3, 0.563392
71, 1, bw, filler, NA, 999, 999, 8, 26, 149, 154, 170, 73, 185, 101, 1, 1.8585
71, 1, bw, filler, NA, 999, 999, 8, 26, 149, 154, 170, 73, 185, 101, 2, 0.518513
71, 1, bw, attraction, a-b-db, 9, 1, 8, 27, 135, 60, 57, 129, 60, 135, 1, 2.19166
71, 1, bw, attraction, a-b-db, 9, 1, 8, 27, 135, 60, 57, 129, 60, 135, 2, 0.590224
71, 1, bw, filler, NA, 999, 999, 8, 28, 181, 98, 65, 118, 170, 164, 3, 1.03592
71, 1, bw, filler, NA, 999, 999, 8, 28, 181, 98, 65, 118, 170, 164, 2, 0.513646
71, 1, bw, filler, NA, 999, 999, 8, 29, 114, 152, 65, 157, 155, 78, 3, 1.06676
71, 1, bw, filler, NA, 999, 999, 8, 29, 114, 152, 65, 157, 155, 78, 2, 0.535143
71, 1, bw, attraction, a-b-db, 14, 1, 8, 30, 60, 135, 135, 60, 56, 125, 3, 1.33551
71, 1, bw, attraction, a-b-db, 14, 1, 8, 30, 60, 135, 135, 60, 56, 125, 1, 0.561139
71, 1, bw, attraction, a-b-da, 2, 3, 8, 31, 195, 120, 120, 195, 193, 119, 3, 2.61613
71, 1, bw, attraction, a-b-da, 2, 3, 8, 31, 195, 120, 120, 195, 193, 119, 2, 0.41409
71, 1, bw, attraction, a-b-da, 14, 1, 8, 32, 135, 60, 60, 135, 125, 56, 1, 1.67514
71, 1, bw, attraction, a-b-da, 14, 1, 8, 32, 135, 60, 60, 135, 125, 56, 3, 2.03861
71, 1, bw, attraction, a-b-da, 5, 1, 8, 33, 132, 58, 135, 60, 60, 135, 1, 3.85877
71, 1, bw, attraction, a-b-da, 5, 1, 8, 33, 132, 58, 135, 60, 60, 135, 2, 0.342045
71, 1, bw, attraction, a-b-db, 5, 3, 8, 34, 117, 190, 195, 120, 120, 195, 2, 1.11778
71, 1, bw, attraction, a-b-db, 5, 3, 8, 34, 117, 190, 195, 120, 120, 195, 1, 0.416141
71, 1, bw, attraction, a-b-db, 14, 2, 8, 35, 83, 153, 90, 165, 165, 90, 3, 0.845273
71, 1, bw, attraction, a-b-db, 14, 2, 8, 35, 83, 153, 90, 165, 165, 90, 2, 0.418272
71, 1, bw, catch, NA, 999, 999, 8, 36, 146, 169, 123, 132, 85, 110, 1, 0.695401
71, 1, bw, catch, NA, 999, 999, 8, 36, 146, 169, 123, 132, 85, 110, 3, 0.370594
71, 1, bw, attraction, a-b-db, 5, 1, 8, 37, 60, 135, 135, 60, 58, 132, 3, 1.04967
71, 1, bw, attraction, a-b-db, 5, 1, 8, 37, 60, 135, 135, 60, 58, 132, 1, 0.358629
