sub_n, computer_n, bw_cond, effect, set, distance, diag, block_n, trial_n, h1, w1, h2, w2, h3, w3, choice, rt 
77, 1, bw, practice, NA, 999, 999, 0, 1, 82, 70, 115, 192, 58, 174, 2, 2.95832
77, 1, bw, practice, NA, 999, 999, 0, 1, 82, 70, 115, 192, 58, 174, 1, 3.42139
77, 1, bw, practice, NA, 999, 999, 0, 2, 135, 71, 149, 98, 195, 163, 3, 1.59106
77, 1, bw, practice, NA, 999, 999, 0, 2, 135, 71, 149, 98, 195, 163, 1, 3.19979
77, 1, bw, practice, NA, 999, 999, 0, 3, 88, 155, 189, 112, 90, 187, 2, 1.54333
77, 1, bw, practice, NA, 999, 999, 0, 3, 88, 155, 189, 112, 90, 187, 1, 3.16254
77, 1, bw, attraction, a-b-db, 9, 1, 1, 1, 135, 60, 57, 129, 60, 135, 1, 5.43733
77, 1, bw, attraction, a-b-db, 9, 1, 1, 1, 135, 60, 57, 129, 60, 135, 2, 1.60191
77, 1, bw, filler, NA, 999, 999, 1, 2, 97, 87, 177, 186, 111, 170, 2, 0.847102
77, 1, bw, filler, NA, 999, 999, 1, 2, 97, 87, 177, 186, 111, 170, 1, 1.26012
77, 1, bw, attraction, a-b-db, 9, 2, 1, 3, 90, 165, 86, 157, 165, 90, 1, 1.87108
77, 1, bw, attraction, a-b-db, 9, 2, 1, 3, 90, 165, 86, 157, 165, 90, 2, 4.08247
77, 1, bw, filler, NA, 999, 999, 1, 4, 66, 162, 57, 115, 126, 178, 3, 1.13978
77, 1, bw, filler, NA, 999, 999, 1, 4, 66, 162, 57, 115, 126, 178, 2, 0.916765
77, 1, bw, filler, NA, 999, 999, 1, 5, 173, 176, 84, 185, 62, 182, 1, 1.00571
77, 1, bw, filler, NA, 999, 999, 1, 5, 173, 176, 84, 185, 62, 182, 3, 1.43605
77, 1, bw, attraction, a-b-da, 14, 1, 1, 6, 60, 135, 125, 56, 135, 60, 1, 2.72017
77, 1, bw, attraction, a-b-da, 14, 1, 1, 6, 60, 135, 125, 56, 135, 60, 2, 0.625976
77, 1, bw, attraction, a-b-da, 2, 1, 1, 7, 135, 60, 60, 135, 134, 59, 2, 7.16638
77, 1, bw, attraction, a-b-da, 2, 1, 1, 7, 135, 60, 60, 135, 134, 59, 3, 3.93285
77, 1, bw, catch, NA, 999, 999, 1, 8, 164, 151, 124, 131, 118, 77, 1, 0.852128
77, 1, bw, catch, NA, 999, 999, 1, 8, 164, 151, 124, 131, 118, 77, 3, 0.929175
77, 1, bw, filler, NA, 999, 999, 1, 9, 96, 106, 89, 140, 155, 118, 3, 1.48153
77, 1, bw, filler, NA, 999, 999, 1, 9, 96, 106, 89, 140, 155, 118, 1, 0.75698
77, 1, bw, filler, NA, 999, 999, 1, 10, 132, 121, 60, 120, 173, 133, 3, 2.11618
77, 1, bw, filler, NA, 999, 999, 1, 10, 132, 121, 60, 120, 173, 133, 2, 1.19001
77, 1, bw, attraction, a-b-db, 2, 2, 1, 11, 89, 163, 90, 165, 165, 90, 2, 2.55637
77, 1, bw, attraction, a-b-db, 2, 2, 1, 11, 89, 163, 90, 165, 165, 90, 3, 3.24419
77, 1, bw, catch, NA, 999, 999, 1, 12, 68, 127, 154, 161, 163, 92, 2, 0.919459
77, 1, bw, catch, NA, 999, 999, 1, 12, 68, 127, 154, 161, 163, 92, 1, 0.761529
77, 1, bw, attraction, a-b-da, 5, 3, 1, 13, 195, 120, 120, 195, 190, 117, 2, 4.4164
77, 1, bw, attraction, a-b-da, 5, 3, 1, 13, 195, 120, 120, 195, 190, 117, 3, 0.909817
77, 1, bw, attraction, a-b-db, 5, 2, 1, 14, 88, 161, 90, 165, 165, 90, 2, 2.27879
77, 1, bw, attraction, a-b-db, 5, 2, 1, 14, 88, 161, 90, 165, 165, 90, 3, 1.93004
77, 1, bw, filler, NA, 999, 999, 1, 15, 184, 129, 141, 152, 161, 62, 2, 4.66596
77, 1, bw, filler, NA, 999, 999, 1, 15, 184, 129, 141, 152, 161, 62, 3, 1.50127
77, 1, bw, attraction, a-b-db, 5, 3, 1, 16, 195, 120, 117, 190, 120, 195, 2, 6.05467
77, 1, bw, attraction, a-b-db, 5, 3, 1, 16, 195, 120, 117, 190, 120, 195, 1, 1.57818
77, 1, bw, attraction, a-b-da, 14, 3, 1, 17, 120, 195, 195, 120, 181, 111, 1, 3.16021
77, 1, bw, attraction, a-b-da, 14, 3, 1, 17, 120, 195, 195, 120, 181, 111, 3, 3.77585
77, 1, bw, attraction, a-b-db, 14, 3, 1, 18, 120, 195, 111, 181, 195, 120, 1, 5.44531
77, 1, bw, attraction, a-b-db, 14, 3, 1, 18, 120, 195, 111, 181, 195, 120, 3, 0.488823
77, 1, bw, attraction, a-b-da, 14, 2, 1, 19, 90, 165, 165, 90, 153, 83, 1, 2.65932
77, 1, bw, attraction, a-b-da, 14, 2, 1, 19, 90, 165, 165, 90, 153, 83, 3, 0.599306
77, 1, bw, attraction, a-b-db, 14, 1, 1, 20, 60, 135, 135, 60, 56, 125, 1, 2.35684
77, 1, bw, attraction, a-b-db, 14, 1, 1, 20, 60, 135, 135, 60, 56, 125, 3, 0.540782
77, 1, bw, attraction, a-b-db, 5, 1, 1, 21, 135, 60, 58, 132, 60, 135, 2, 3.49256
77, 1, bw, attraction, a-b-db, 5, 1, 1, 21, 135, 60, 58, 132, 60, 135, 1, 2.9587
77, 1, bw, filler, NA, 999, 999, 1, 22, 113, 91, 102, 195, 96, 146, 2, 1.08512
77, 1, bw, filler, NA, 999, 999, 1, 22, 113, 91, 102, 195, 96, 146, 1, 0.6968
77, 1, bw, attraction, a-b-da, 5, 2, 1, 23, 90, 165, 161, 88, 165, 90, 1, 2.44266
77, 1, bw, attraction, a-b-da, 5, 2, 1, 23, 90, 165, 161, 88, 165, 90, 2, 1.3592
77, 1, bw, filler, NA, 999, 999, 1, 24, 58, 140, 134, 107, 98, 130, 2, 1.37386
77, 1, bw, filler, NA, 999, 999, 1, 24, 58, 140, 134, 107, 98, 130, 1, 0.461382
77, 1, bw, attraction, a-b-da, 9, 2, 1, 25, 165, 90, 157, 86, 90, 165, 1, 2.2646
77, 1, bw, attraction, a-b-da, 9, 2, 1, 25, 165, 90, 157, 86, 90, 165, 2, 0.444674
77, 1, bw, attraction, a-b-da, 5, 1, 1, 26, 135, 60, 60, 135, 132, 58, 2, 2.1762
77, 1, bw, attraction, a-b-da, 5, 1, 1, 26, 135, 60, 60, 135, 132, 58, 3, 0.631655
77, 1, bw, attraction, a-b-db, 14, 2, 1, 27, 83, 153, 90, 165, 165, 90, 2, 2.14006
77, 1, bw, attraction, a-b-db, 14, 2, 1, 27, 83, 153, 90, 165, 165, 90, 3, 2.17262
77, 1, bw, attraction, a-b-db, 9, 3, 1, 28, 114, 186, 195, 120, 120, 195, 2, 0.907189
77, 1, bw, attraction, a-b-db, 9, 3, 1, 28, 114, 186, 195, 120, 120, 195, 1, 2.44557
77, 1, bw, attraction, a-b-da, 2, 2, 1, 29, 165, 90, 163, 89, 90, 165, 3, 4.48074
77, 1, bw, attraction, a-b-da, 2, 2, 1, 29, 165, 90, 163, 89, 90, 165, 2, 0.899382
77, 1, bw, attraction, a-b-da, 9, 3, 1, 30, 186, 114, 120, 195, 195, 120, 2, 4.30087
77, 1, bw, attraction, a-b-da, 9, 3, 1, 30, 186, 114, 120, 195, 195, 120, 1, 0.678903
77, 1, bw, attraction, a-b-da, 2, 3, 1, 31, 193, 119, 120, 195, 195, 120, 2, 4.72946
77, 1, bw, attraction, a-b-da, 2, 3, 1, 31, 193, 119, 120, 195, 195, 120, 3, 0.801818
77, 1, bw, attraction, a-b-da, 9, 1, 1, 32, 129, 57, 135, 60, 60, 135, 3, 2.74367
77, 1, bw, attraction, a-b-da, 9, 1, 1, 32, 129, 57, 135, 60, 60, 135, 1, 1.15195
77, 1, bw, attraction, a-b-db, 2, 1, 1, 33, 135, 60, 59, 134, 60, 135, 2, 6.17564
77, 1, bw, attraction, a-b-db, 2, 1, 1, 33, 135, 60, 59, 134, 60, 135, 1, 0.5816
77, 1, bw, filler, NA, 999, 999, 1, 34, 159, 120, 190, 152, 88, 151, 2, 1.98803
77, 1, bw, filler, NA, 999, 999, 1, 34, 159, 120, 190, 152, 88, 151, 3, 0.635362
77, 1, bw, attraction, a-b-db, 2, 3, 1, 35, 120, 195, 119, 193, 195, 120, 2, 2.45588
77, 1, bw, attraction, a-b-db, 2, 3, 1, 35, 120, 195, 119, 193, 195, 120, 3, 1.27574
77, 1, bw, catch, NA, 999, 999, 1, 36, 94, 161, 120, 75, 174, 141, 3, 1.03017
77, 1, bw, catch, NA, 999, 999, 1, 36, 94, 161, 120, 75, 174, 141, 2, 0.891404
77, 1, bw, filler, NA, 999, 999, 1, 37, 137, 93, 96, 172, 59, 134, 2, 0.997162
77, 1, bw, filler, NA, 999, 999, 1, 37, 137, 93, 96, 172, 59, 134, 3, 0.676219
77, 1, bw, attraction, a-b-db, 2, 1, 2, 1, 60, 135, 135, 60, 59, 134, 1, 3.31056
77, 1, bw, attraction, a-b-db, 2, 1, 2, 1, 60, 135, 135, 60, 59, 134, 2, 1.36823
77, 1, bw, attraction, a-b-da, 9, 1, 2, 2, 135, 60, 60, 135, 129, 57, 2, 2.95104
77, 1, bw, attraction, a-b-da, 9, 1, 2, 2, 135, 60, 60, 135, 129, 57, 3, 1.54345
77, 1, bw, attraction, a-b-da, 2, 1, 2, 3, 134, 59, 135, 60, 60, 135, 3, 5.04685
77, 1, bw, attraction, a-b-da, 2, 1, 2, 3, 134, 59, 135, 60, 60, 135, 1, 1.57863
77, 1, bw, attraction, a-b-db, 2, 3, 2, 4, 120, 195, 195, 120, 119, 193, 1, 3.5527
77, 1, bw, attraction, a-b-db, 2, 3, 2, 4, 120, 195, 195, 120, 119, 193, 2, 1.12892
77, 1, bw, attraction, a-b-da, 14, 3, 2, 5, 120, 195, 195, 120, 181, 111, 1, 4.18515
77, 1, bw, attraction, a-b-da, 14, 3, 2, 5, 120, 195, 195, 120, 181, 111, 3, 2.43188
77, 1, bw, filler, NA, 999, 999, 2, 6, 172, 89, 124, 148, 180, 163, 3, 3.7637
77, 1, bw, filler, NA, 999, 999, 2, 6, 172, 89, 124, 148, 180, 163, 1, 1.28307
77, 1, bw, attraction, a-b-db, 5, 2, 2, 7, 165, 90, 90, 165, 88, 161, 2, 2.36534
77, 1, bw, attraction, a-b-db, 5, 2, 2, 7, 165, 90, 90, 165, 88, 161, 3, 1.11727
77, 1, bw, filler, NA, 999, 999, 2, 8, 62, 74, 108, 77, 166, 90, 3, 1.02237
77, 1, bw, filler, NA, 999, 999, 2, 8, 62, 74, 108, 77, 166, 90, 1, 0.795825
77, 1, bw, attraction, a-b-db, 5, 3, 2, 9, 195, 120, 120, 195, 117, 190, 2, 6.52167
77, 1, bw, attraction, a-b-db, 5, 3, 2, 9, 195, 120, 120, 195, 117, 190, 1, 3.3701
77, 1, bw, attraction, a-b-db, 5, 1, 2, 10, 135, 60, 60, 135, 58, 132, 1, 4.76847
77, 1, bw, attraction, a-b-db, 5, 1, 2, 10, 135, 60, 60, 135, 58, 132, 3, 1.71154
77, 1, bw, catch, NA, 999, 999, 2, 11, 160, 95, 131, 64, 172, 143, 3, 0.800311
77, 1, bw, catch, NA, 999, 999, 2, 11, 160, 95, 131, 64, 172, 143, 2, 0.671316
77, 1, bw, filler, NA, 999, 999, 2, 12, 191, 119, 137, 67, 160, 124, 1, 1.30641
77, 1, bw, filler, NA, 999, 999, 2, 12, 191, 119, 137, 67, 160, 124, 2, 0.548717
77, 1, bw, filler, NA, 999, 999, 2, 13, 133, 142, 124, 76, 148, 119, 1, 1.96429
77, 1, bw, filler, NA, 999, 999, 2, 13, 133, 142, 124, 76, 148, 119, 2, 0.908316
77, 1, bw, filler, NA, 999, 999, 2, 14, 190, 182, 69, 65, 137, 125, 1, 0.925329
77, 1, bw, filler, NA, 999, 999, 2, 14, 190, 182, 69, 65, 137, 125, 2, 0.615099
77, 1, bw, attraction, a-b-da, 2, 2, 2, 15, 90, 165, 163, 89, 165, 90, 2, 9.38016
77, 1, bw, attraction, a-b-da, 2, 2, 2, 15, 90, 165, 163, 89, 165, 90, 3, 1.64936
77, 1, bw, attraction, a-b-da, 5, 1, 2, 16, 60, 135, 135, 60, 132, 58, 2, 1.70861
77, 1, bw, attraction, a-b-da, 5, 1, 2, 16, 60, 135, 135, 60, 132, 58, 3, 2.3107
77, 1, bw, attraction, a-b-da, 9, 3, 2, 17, 186, 114, 120, 195, 195, 120, 2, 8.83946
77, 1, bw, attraction, a-b-da, 9, 3, 2, 17, 186, 114, 120, 195, 195, 120, 1, 2.68245
77, 1, bw, attraction, a-b-da, 5, 3, 2, 18, 190, 117, 195, 120, 120, 195, 2, 5.81239
77, 1, bw, attraction, a-b-da, 5, 3, 2, 18, 190, 117, 195, 120, 120, 195, 1, 0.625037
77, 1, bw, filler, NA, 999, 999, 2, 19, 96, 87, 177, 110, 95, 127, 2, 0.757399
77, 1, bw, filler, NA, 999, 999, 2, 19, 96, 87, 177, 110, 95, 127, 1, 0.797876
77, 1, bw, attraction, a-b-db, 2, 2, 2, 20, 89, 163, 90, 165, 165, 90, 1, 1.65171
77, 1, bw, attraction, a-b-db, 2, 2, 2, 20, 89, 163, 90, 165, 165, 90, 3, 0.448421
77, 1, bw, attraction, a-b-db, 9, 3, 2, 21, 120, 195, 195, 120, 114, 186, 1, 2.23619
77, 1, bw, attraction, a-b-db, 9, 3, 2, 21, 120, 195, 195, 120, 114, 186, 2, 0.993469
77, 1, bw, filler, NA, 999, 999, 2, 22, 119, 97, 103, 132, 151, 152, 3, 0.623062
77, 1, bw, filler, NA, 999, 999, 2, 22, 119, 97, 103, 132, 151, 152, 1, 1.87689
77, 1, bw, attraction, a-b-da, 9, 2, 2, 23, 90, 165, 157, 86, 165, 90, 1, 5.09485
77, 1, bw, attraction, a-b-da, 9, 2, 2, 23, 90, 165, 157, 86, 165, 90, 3, 0.360634
77, 1, bw, attraction, a-b-da, 2, 3, 2, 24, 120, 195, 195, 120, 193, 119, 1, 2.71983
77, 1, bw, attraction, a-b-da, 2, 3, 2, 24, 120, 195, 195, 120, 193, 119, 3, 0.785596
77, 1, bw, filler, NA, 999, 999, 2, 25, 57, 171, 65, 78, 106, 59, 1, 2.36793
77, 1, bw, filler, NA, 999, 999, 2, 25, 57, 171, 65, 78, 106, 59, 2, 1.66386
77, 1, bw, attraction, a-b-db, 14, 2, 2, 26, 90, 165, 83, 153, 165, 90, 1, 4.05064
77, 1, bw, attraction, a-b-db, 14, 2, 2, 26, 90, 165, 83, 153, 165, 90, 2, 2.31863
77, 1, bw, attraction, a-b-db, 14, 1, 2, 27, 60, 135, 56, 125, 135, 60, 3, 1.67118
77, 1, bw, attraction, a-b-db, 14, 1, 2, 27, 60, 135, 56, 125, 135, 60, 2, 0.723336
77, 1, bw, attraction, a-b-db, 9, 1, 2, 28, 135, 60, 60, 135, 57, 129, 1, 1.37165
77, 1, bw, attraction, a-b-db, 9, 1, 2, 28, 135, 60, 60, 135, 57, 129, 3, 1.23595
77, 1, bw, filler, NA, 999, 999, 2, 29, 91, 183, 143, 161, 68, 122, 2, 2.84007
77, 1, bw, filler, NA, 999, 999, 2, 29, 91, 183, 143, 161, 68, 122, 3, 0.484497
77, 1, bw, filler, NA, 999, 999, 2, 30, 101, 175, 128, 172, 178, 161, 3, 1.10298
77, 1, bw, filler, NA, 999, 999, 2, 30, 101, 175, 128, 172, 178, 161, 1, 1.06603
77, 1, bw, catch, NA, 999, 999, 2, 31, 117, 78, 165, 150, 140, 115, 2, 1.22092
77, 1, bw, catch, NA, 999, 999, 2, 31, 117, 78, 165, 150, 140, 115, 1, 0.53124
77, 1, bw, attraction, a-b-da, 5, 2, 2, 32, 90, 165, 165, 90, 161, 88, 1, 7.81156
77, 1, bw, attraction, a-b-da, 5, 2, 2, 32, 90, 165, 165, 90, 161, 88, 3, 0.567815
77, 1, bw, attraction, a-b-db, 9, 2, 2, 33, 165, 90, 90, 165, 86, 157, 2, 6.57488
77, 1, bw, attraction, a-b-db, 9, 2, 2, 33, 165, 90, 90, 165, 86, 157, 3, 0.572818
77, 1, bw, attraction, a-b-db, 14, 3, 2, 34, 120, 195, 195, 120, 111, 181, 1, 6.89185
77, 1, bw, attraction, a-b-db, 14, 3, 2, 34, 120, 195, 195, 120, 111, 181, 3, 3.92515
77, 1, bw, attraction, a-b-da, 14, 1, 2, 35, 60, 135, 135, 60, 125, 56, 2, 7.26844
77, 1, bw, attraction, a-b-da, 14, 1, 2, 35, 60, 135, 135, 60, 125, 56, 3, 0.982891
77, 1, bw, attraction, a-b-da, 14, 2, 2, 36, 165, 90, 90, 165, 153, 83, 2, 1.74122
77, 1, bw, attraction, a-b-da, 14, 2, 2, 36, 165, 90, 90, 165, 153, 83, 3, 1.57395
77, 1, bw, catch, NA, 999, 999, 2, 37, 128, 127, 100, 95, 159, 156, 3, 0.700055
77, 1, bw, catch, NA, 999, 999, 2, 37, 128, 127, 100, 95, 159, 156, 2, 0.519151
77, 1, bw, attraction, a-b-da, 2, 3, 3, 1, 195, 120, 120, 195, 193, 119, 2, 3.00009
77, 1, bw, attraction, a-b-da, 2, 3, 3, 1, 195, 120, 120, 195, 193, 119, 3, 1.71854
77, 1, bw, attraction, a-b-db, 9, 2, 3, 2, 86, 157, 90, 165, 165, 90, 1, 3.12728
77, 1, bw, attraction, a-b-db, 9, 2, 3, 2, 86, 157, 90, 165, 165, 90, 3, 0.664406
77, 1, bw, attraction, a-b-db, 2, 1, 3, 3, 60, 135, 135, 60, 59, 134, 1, 2.25129
77, 1, bw, attraction, a-b-db, 2, 1, 3, 3, 60, 135, 135, 60, 59, 134, 2, 0.904121
77, 1, bw, catch, NA, 999, 999, 3, 4, 108, 147, 85, 110, 167, 148, 3, 0.673585
77, 1, bw, catch, NA, 999, 999, 3, 4, 108, 147, 85, 110, 167, 148, 2, 0.637363
77, 1, bw, attraction, a-b-db, 5, 3, 3, 5, 117, 190, 195, 120, 120, 195, 2, 6.8578
77, 1, bw, attraction, a-b-db, 5, 3, 3, 5, 117, 190, 195, 120, 120, 195, 3, 0.460242
77, 1, bw, attraction, a-b-da, 14, 1, 3, 6, 125, 56, 60, 135, 135, 60, 3, 2.79148
77, 1, bw, attraction, a-b-da, 14, 1, 3, 6, 125, 56, 60, 135, 135, 60, 1, 1.10981
77, 1, bw, attraction, a-b-da, 5, 2, 3, 7, 165, 90, 161, 88, 90, 165, 3, 4.29474
77, 1, bw, attraction, a-b-da, 5, 2, 3, 7, 165, 90, 161, 88, 90, 165, 1, 0.456677
77, 1, bw, attraction, a-b-da, 9, 2, 3, 8, 90, 165, 165, 90, 157, 86, 1, 4.60383
77, 1, bw, attraction, a-b-da, 9, 2, 3, 8, 90, 165, 165, 90, 157, 86, 3, 0.873824
77, 1, bw, attraction, a-b-db, 14, 1, 3, 9, 56, 125, 60, 135, 135, 60, 2, 2.94805
77, 1, bw, attraction, a-b-db, 14, 1, 3, 9, 56, 125, 60, 135, 135, 60, 1, 0.908463
77, 1, bw, attraction, a-b-da, 14, 2, 3, 10, 153, 83, 165, 90, 90, 165, 2, 1.78138
77, 1, bw, attraction, a-b-da, 14, 2, 3, 10, 153, 83, 165, 90, 90, 165, 1, 0.75684
77, 1, bw, attraction, a-b-db, 5, 1, 3, 11, 58, 132, 60, 135, 135, 60, 1, 2.27589
77, 1, bw, attraction, a-b-db, 5, 1, 3, 11, 58, 132, 60, 135, 135, 60, 2, 0.455123
77, 1, bw, catch, NA, 999, 999, 3, 12, 114, 141, 181, 134, 78, 117, 2, 1.21897
77, 1, bw, catch, NA, 999, 999, 3, 12, 114, 141, 181, 134, 78, 117, 3, 0.481394
77, 1, bw, filler, NA, 999, 999, 3, 13, 168, 165, 100, 74, 125, 86, 1, 1.1877
77, 1, bw, filler, NA, 999, 999, 3, 13, 168, 165, 100, 74, 125, 86, 2, 0.402629
77, 1, bw, filler, NA, 999, 999, 3, 14, 155, 110, 170, 126, 77, 108, 2, 1.23247
77, 1, bw, filler, NA, 999, 999, 3, 14, 155, 110, 170, 126, 77, 108, 3, 0.622205
77, 1, bw, attraction, a-b-db, 9, 1, 3, 15, 60, 135, 57, 129, 135, 60, 1, 2.26718
77, 1, bw, attraction, a-b-db, 9, 1, 3, 15, 60, 135, 57, 129, 135, 60, 3, 1.05499
77, 1, bw, filler, NA, 999, 999, 3, 16, 164, 172, 144, 84, 139, 63, 1, 0.586578
77, 1, bw, filler, NA, 999, 999, 3, 16, 164, 172, 144, 84, 139, 63, 3, 0.514547
77, 1, bw, filler, NA, 999, 999, 3, 17, 165, 82, 76, 175, 92, 57, 1, 1.93166
77, 1, bw, filler, NA, 999, 999, 3, 17, 165, 82, 76, 175, 92, 57, 3, 0.46895
77, 1, bw, filler, NA, 999, 999, 3, 18, 159, 115, 109, 112, 101, 173, 1, 1.85608
77, 1, bw, filler, NA, 999, 999, 3, 18, 159, 115, 109, 112, 101, 173, 2, 0.804142
77, 1, bw, filler, NA, 999, 999, 3, 19, 180, 130, 102, 144, 140, 94, 1, 1.11381
77, 1, bw, filler, NA, 999, 999, 3, 19, 180, 130, 102, 144, 140, 94, 3, 1.11617
77, 1, bw, attraction, a-b-da, 5, 1, 3, 20, 60, 135, 135, 60, 132, 58, 1, 3.10897
77, 1, bw, attraction, a-b-da, 5, 1, 3, 20, 60, 135, 135, 60, 132, 58, 3, 1.15871
77, 1, bw, attraction, a-b-da, 2, 1, 3, 21, 135, 60, 134, 59, 60, 135, 1, 2.37356
77, 1, bw, attraction, a-b-da, 2, 1, 3, 21, 135, 60, 134, 59, 60, 135, 2, 1.25285
77, 1, bw, attraction, a-b-da, 14, 3, 3, 22, 120, 195, 195, 120, 181, 111, 2, 5.3126
77, 1, bw, attraction, a-b-da, 14, 3, 3, 22, 120, 195, 195, 120, 181, 111, 3, 1.4415
77, 1, bw, attraction, a-b-da, 9, 1, 3, 23, 129, 57, 60, 135, 135, 60, 3, 3.02082
77, 1, bw, attraction, a-b-da, 9, 1, 3, 23, 129, 57, 60, 135, 135, 60, 2, 0.458546
77, 1, bw, attraction, a-b-db, 14, 3, 3, 24, 120, 195, 111, 181, 195, 120, 1, 2.50169
77, 1, bw, attraction, a-b-db, 14, 3, 3, 24, 120, 195, 111, 181, 195, 120, 2, 0.60819
77, 1, bw, attraction, a-b-db, 2, 3, 3, 25, 195, 120, 120, 195, 119, 193, 1, 1.35734
77, 1, bw, attraction, a-b-db, 2, 3, 3, 25, 195, 120, 120, 195, 119, 193, 3, 0.509517
77, 1, bw, attraction, a-b-da, 2, 2, 3, 26, 165, 90, 90, 165, 163, 89, 3, 2.46282
77, 1, bw, attraction, a-b-da, 2, 2, 3, 26, 165, 90, 90, 165, 163, 89, 2, 0.5465
77, 1, bw, attraction, a-b-db, 14, 2, 3, 27, 83, 153, 165, 90, 90, 165, 2, 1.79426
77, 1, bw, attraction, a-b-db, 14, 2, 3, 27, 83, 153, 165, 90, 90, 165, 1, 0.465056
77, 1, bw, attraction, a-b-db, 2, 2, 3, 28, 90, 165, 165, 90, 89, 163, 1, 3.15613
77, 1, bw, attraction, a-b-db, 2, 2, 3, 28, 90, 165, 165, 90, 89, 163, 3, 0.34778
77, 1, bw, attraction, a-b-da, 9, 3, 3, 29, 195, 120, 186, 114, 120, 195, 1, 2.05963
77, 1, bw, attraction, a-b-da, 9, 3, 3, 29, 195, 120, 186, 114, 120, 195, 2, 0.807593
77, 1, bw, attraction, a-b-da, 5, 3, 3, 30, 120, 195, 195, 120, 190, 117, 1, 3.04467
77, 1, bw, attraction, a-b-da, 5, 3, 3, 30, 120, 195, 195, 120, 190, 117, 2, 0.417098
77, 1, bw, filler, NA, 999, 999, 3, 31, 168, 164, 124, 117, 84, 156, 1, 0.798071
77, 1, bw, filler, NA, 999, 999, 3, 31, 168, 164, 124, 117, 84, 156, 3, 0.645163
77, 1, bw, attraction, a-b-db, 9, 3, 3, 32, 114, 186, 120, 195, 195, 120, 2, 2.76096
77, 1, bw, attraction, a-b-db, 9, 3, 3, 32, 114, 186, 120, 195, 195, 120, 3, 0.792859
77, 1, bw, attraction, a-b-db, 5, 2, 3, 33, 88, 161, 90, 165, 165, 90, 2, 4.36645
77, 1, bw, attraction, a-b-db, 5, 2, 3, 33, 88, 161, 90, 165, 165, 90, 1, 1.34968
77, 1, bw, catch, NA, 999, 999, 3, 34, 105, 150, 173, 142, 75, 120, 2, 1.90118
77, 1, bw, catch, NA, 999, 999, 3, 34, 105, 150, 173, 142, 75, 120, 3, 1.232
77, 1, bw, filler, NA, 999, 999, 3, 35, 164, 99, 178, 90, 134, 88, 2, 4.39616
77, 1, bw, filler, NA, 999, 999, 3, 35, 164, 99, 178, 90, 134, 88, 3, 0.466079
77, 1, bw, filler, NA, 999, 999, 3, 36, 134, 124, 94, 80, 98, 73, 1, 2.16525
77, 1, bw, filler, NA, 999, 999, 3, 36, 134, 124, 94, 80, 98, 73, 3, 1.0052
77, 1, bw, filler, NA, 999, 999, 3, 37, 166, 92, 101, 115, 61, 68, 1, 0.874821
77, 1, bw, filler, NA, 999, 999, 3, 37, 166, 92, 101, 115, 61, 68, 3, 1.67849
77, 1, bw, attraction, a-b-da, 14, 2, 4, 1, 90, 165, 153, 83, 165, 90, 1, 1.92048
77, 1, bw, attraction, a-b-da, 14, 2, 4, 1, 90, 165, 153, 83, 165, 90, 2, 0.450668
77, 1, bw, attraction, a-b-da, 5, 2, 4, 2, 161, 88, 90, 165, 165, 90, 1, 2.27048
77, 1, bw, attraction, a-b-da, 5, 2, 4, 2, 161, 88, 90, 165, 165, 90, 3, 1.21037
77, 1, bw, filler, NA, 999, 999, 4, 3, 138, 159, 98, 76, 99, 81, 1, 1.7353
77, 1, bw, filler, NA, 999, 999, 4, 3, 138, 159, 98, 76, 99, 81, 2, 0.384768
77, 1, bw, filler, NA, 999, 999, 4, 4, 155, 66, 166, 127, 141, 182, 3, 1.43118
77, 1, bw, filler, NA, 999, 999, 4, 4, 155, 66, 166, 127, 141, 182, 1, 0.852667
77, 1, bw, filler, NA, 999, 999, 4, 5, 181, 144, 116, 91, 61, 188, 1, 0.808321
77, 1, bw, filler, NA, 999, 999, 4, 5, 181, 144, 116, 91, 61, 188, 3, 0.486726
77, 1, bw, filler, NA, 999, 999, 4, 6, 61, 117, 109, 127, 188, 141, 3, 0.785194
77, 1, bw, filler, NA, 999, 999, 4, 6, 61, 117, 109, 127, 188, 141, 1, 0.496934
77, 1, bw, attraction, a-b-db, 9, 2, 4, 7, 86, 157, 90, 165, 165, 90, 2, 2.34678
77, 1, bw, attraction, a-b-db, 9, 2, 4, 7, 86, 157, 90, 165, 165, 90, 3, 1.41124
77, 1, bw, attraction, a-b-db, 14, 1, 4, 8, 135, 60, 60, 135, 56, 125, 2, 1.42415
77, 1, bw, attraction, a-b-db, 14, 1, 4, 8, 135, 60, 60, 135, 56, 125, 3, 1.30167
77, 1, bw, catch, NA, 999, 999, 4, 9, 107, 88, 145, 110, 175, 140, 3, 0.663129
77, 1, bw, catch, NA, 999, 999, 4, 9, 107, 88, 145, 110, 175, 140, 1, 0.619678
77, 1, bw, attraction, a-b-db, 2, 2, 4, 10, 90, 165, 89, 163, 165, 90, 1, 1.20068
77, 1, bw, attraction, a-b-db, 2, 2, 4, 10, 90, 165, 89, 163, 165, 90, 3, 0.671617
77, 1, bw, attraction, a-b-db, 5, 2, 4, 11, 90, 165, 88, 161, 165, 90, 1, 1.6666
77, 1, bw, attraction, a-b-db, 5, 2, 4, 11, 90, 165, 88, 161, 165, 90, 2, 1.43092
77, 1, bw, filler, NA, 999, 999, 4, 12, 158, 165, 60, 164, 148, 97, 1, 0.586936
77, 1, bw, filler, NA, 999, 999, 4, 12, 158, 165, 60, 164, 148, 97, 3, 0.650778
77, 1, bw, filler, NA, 999, 999, 4, 13, 190, 77, 193, 88, 128, 156, 3, 1.03844
77, 1, bw, filler, NA, 999, 999, 4, 13, 190, 77, 193, 88, 128, 156, 1, 1.12352
77, 1, bw, attraction, a-b-db, 2, 1, 4, 14, 135, 60, 60, 135, 59, 134, 3, 2.12371
77, 1, bw, attraction, a-b-db, 2, 1, 4, 14, 135, 60, 60, 135, 59, 134, 2, 0.493014
77, 1, bw, attraction, a-b-da, 5, 3, 4, 15, 195, 120, 120, 195, 190, 117, 2, 3.56704
77, 1, bw, attraction, a-b-da, 5, 3, 4, 15, 195, 120, 120, 195, 190, 117, 3, 0.790377
77, 1, bw, attraction, a-b-da, 2, 3, 4, 16, 195, 120, 193, 119, 120, 195, 1, 5.11604
77, 1, bw, attraction, a-b-da, 2, 3, 4, 16, 195, 120, 193, 119, 120, 195, 3, 0.781132
77, 1, bw, attraction, a-b-da, 14, 1, 4, 17, 125, 56, 60, 135, 135, 60, 2, 2.41966
77, 1, bw, attraction, a-b-da, 14, 1, 4, 17, 125, 56, 60, 135, 135, 60, 1, 0.40136
77, 1, bw, attraction, a-b-db, 14, 2, 4, 18, 83, 153, 90, 165, 165, 90, 2, 2.13517
77, 1, bw, attraction, a-b-db, 14, 2, 4, 18, 83, 153, 90, 165, 165, 90, 1, 0.656834
77, 1, bw, catch, NA, 999, 999, 4, 19, 159, 156, 89, 106, 107, 148, 1, 1.40362
77, 1, bw, catch, NA, 999, 999, 4, 19, 159, 156, 89, 106, 107, 148, 2, 0.418439
77, 1, bw, attraction, a-b-da, 14, 3, 4, 20, 120, 195, 181, 111, 195, 120, 1, 1.98373
77, 1, bw, attraction, a-b-da, 14, 3, 4, 20, 120, 195, 181, 111, 195, 120, 2, 1.59093
77, 1, bw, attraction, a-b-da, 9, 1, 4, 21, 60, 135, 129, 57, 135, 60, 1, 2.80428
77, 1, bw, attraction, a-b-da, 9, 1, 4, 21, 60, 135, 129, 57, 135, 60, 2, 0.338758
77, 1, bw, attraction, a-b-da, 9, 2, 4, 22, 165, 90, 90, 165, 157, 86, 2, 2.80328
77, 1, bw, attraction, a-b-da, 9, 2, 4, 22, 165, 90, 90, 165, 157, 86, 3, 0.873703
77, 1, bw, attraction, a-b-da, 5, 1, 4, 23, 135, 60, 60, 135, 132, 58, 2, 4.34011
77, 1, bw, attraction, a-b-da, 5, 1, 4, 23, 135, 60, 60, 135, 132, 58, 1, 0.987947
77, 1, bw, attraction, a-b-da, 9, 3, 4, 24, 195, 120, 186, 114, 120, 195, 1, 7.19426
77, 1, bw, attraction, a-b-da, 9, 3, 4, 24, 195, 120, 186, 114, 120, 195, 2, 0.431388
77, 1, bw, catch, NA, 999, 999, 4, 25, 106, 89, 132, 123, 121, 194, 3, 0.87582
77, 1, bw, catch, NA, 999, 999, 4, 25, 106, 89, 132, 123, 121, 194, 1, 0.495633
77, 1, bw, filler, NA, 999, 999, 4, 26, 135, 121, 123, 116, 61, 122, 1, 0.841282
77, 1, bw, filler, NA, 999, 999, 4, 26, 135, 121, 123, 116, 61, 122, 3, 0.886452
77, 1, bw, attraction, a-b-db, 5, 3, 4, 27, 117, 190, 120, 195, 195, 120, 1, 3.25671
77, 1, bw, attraction, a-b-db, 5, 3, 4, 27, 117, 190, 120, 195, 195, 120, 3, 0.780336
77, 1, bw, attraction, a-b-da, 2, 1, 4, 28, 135, 60, 60, 135, 134, 59, 2, 2.75481
77, 1, bw, attraction, a-b-da, 2, 1, 4, 28, 135, 60, 60, 135, 134, 59, 1, 1.92315
77, 1, bw, attraction, a-b-db, 2, 3, 4, 29, 119, 193, 195, 120, 120, 195, 1, 5.98781
77, 1, bw, attraction, a-b-db, 2, 3, 4, 29, 119, 193, 195, 120, 120, 195, 2, 0.425937
77, 1, bw, filler, NA, 999, 999, 4, 30, 98, 132, 184, 186, 115, 184, 2, 0.702358
77, 1, bw, filler, NA, 999, 999, 4, 30, 98, 132, 184, 186, 115, 184, 1, 0.385449
77, 1, bw, attraction, a-b-db, 9, 3, 4, 31, 114, 186, 120, 195, 195, 120, 2, 4.824
77, 1, bw, attraction, a-b-db, 9, 3, 4, 31, 114, 186, 120, 195, 195, 120, 1, 2.37241
77, 1, bw, attraction, a-b-db, 5, 1, 4, 32, 135, 60, 60, 135, 58, 132, 2, 1.88289
77, 1, bw, attraction, a-b-db, 5, 1, 4, 32, 135, 60, 60, 135, 58, 132, 1, 0.454273
77, 1, bw, attraction, a-b-db, 9, 1, 4, 33, 57, 129, 60, 135, 135, 60, 2, 2.06616
77, 1, bw, attraction, a-b-db, 9, 1, 4, 33, 57, 129, 60, 135, 135, 60, 3, 0.766165
77, 1, bw, attraction, a-b-da, 2, 2, 4, 34, 165, 90, 163, 89, 90, 165, 2, 5.70117
77, 1, bw, attraction, a-b-da, 2, 2, 4, 34, 165, 90, 163, 89, 90, 165, 3, 0.750666
77, 1, bw, filler, NA, 999, 999, 4, 35, 133, 178, 140, 158, 179, 86, 1, 2.53435
77, 1, bw, filler, NA, 999, 999, 4, 35, 133, 178, 140, 158, 179, 86, 3, 0.90357
77, 1, bw, attraction, a-b-db, 14, 3, 4, 36, 195, 120, 120, 195, 111, 181, 1, 2.69724
77, 1, bw, attraction, a-b-db, 14, 3, 4, 36, 195, 120, 120, 195, 111, 181, 3, 0.555829
77, 1, bw, filler, NA, 999, 999, 4, 37, 105, 176, 74, 134, 76, 67, 1, 0.755406
77, 1, bw, filler, NA, 999, 999, 4, 37, 105, 176, 74, 134, 76, 67, 3, 0.787952
77, 1, bw, catch, NA, 999, 999, 5, 1, 155, 100, 188, 127, 131, 64, 2, 1.78424
77, 1, bw, catch, NA, 999, 999, 5, 1, 155, 100, 188, 127, 131, 64, 3, 0.431712
77, 1, bw, attraction, a-b-db, 9, 1, 5, 2, 57, 129, 60, 135, 135, 60, 1, 1.89209
77, 1, bw, attraction, a-b-db, 9, 1, 5, 2, 57, 129, 60, 135, 135, 60, 3, 0.518862
77, 1, bw, attraction, a-b-da, 9, 2, 5, 3, 90, 165, 165, 90, 157, 86, 1, 0.999847
77, 1, bw, attraction, a-b-da, 9, 2, 5, 3, 90, 165, 165, 90, 157, 86, 3, 1.53504
77, 1, bw, catch, NA, 999, 999, 5, 4, 179, 136, 164, 91, 133, 62, 1, 0.519015
77, 1, bw, catch, NA, 999, 999, 5, 4, 179, 136, 164, 91, 133, 62, 3, 0.497493
77, 1, bw, filler, NA, 999, 999, 5, 5, 193, 145, 193, 156, 136, 101, 2, 0.611303
77, 1, bw, filler, NA, 999, 999, 5, 5, 193, 145, 193, 156, 136, 101, 3, 0.313797
77, 1, bw, attraction, a-b-db, 2, 1, 5, 6, 59, 134, 60, 135, 135, 60, 2, 1.45902
77, 1, bw, attraction, a-b-db, 2, 1, 5, 6, 59, 134, 60, 135, 135, 60, 1, 1.31114
77, 1, bw, attraction, a-b-da, 5, 1, 5, 7, 60, 135, 132, 58, 135, 60, 1, 1.06395
77, 1, bw, attraction, a-b-da, 5, 1, 5, 7, 60, 135, 132, 58, 135, 60, 2, 0.804341
77, 1, bw, filler, NA, 999, 999, 5, 8, 89, 125, 120, 94, 135, 180, 3, 0.713947
77, 1, bw, filler, NA, 999, 999, 5, 8, 89, 125, 120, 94, 135, 180, 1, 0.388411
77, 1, bw, attraction, a-b-da, 14, 3, 5, 9, 120, 195, 181, 111, 195, 120, 1, 2.02692
77, 1, bw, attraction, a-b-da, 14, 3, 5, 9, 120, 195, 181, 111, 195, 120, 2, 0.536343
77, 1, bw, attraction, a-b-db, 5, 2, 5, 10, 165, 90, 88, 161, 90, 165, 2, 1.4167
77, 1, bw, attraction, a-b-db, 5, 2, 5, 10, 165, 90, 88, 161, 90, 165, 3, 0.710933
77, 1, bw, attraction, a-b-da, 2, 2, 5, 11, 165, 90, 163, 89, 90, 165, 2, 1.35204
77, 1, bw, attraction, a-b-da, 2, 2, 5, 11, 165, 90, 163, 89, 90, 165, 1, 0.864841
77, 1, bw, attraction, a-b-db, 5, 1, 5, 12, 135, 60, 60, 135, 58, 132, 2, 1.95591
77, 1, bw, attraction, a-b-db, 5, 1, 5, 12, 135, 60, 60, 135, 58, 132, 3, 0.915876
77, 1, bw, attraction, a-b-db, 2, 2, 5, 13, 90, 165, 165, 90, 89, 163, 1, 2.10881
77, 1, bw, attraction, a-b-db, 2, 2, 5, 13, 90, 165, 165, 90, 89, 163, 2, 0.662941
77, 1, bw, filler, NA, 999, 999, 5, 14, 177, 184, 60, 117, 165, 71, 1, 0.561989
77, 1, bw, filler, NA, 999, 999, 5, 14, 177, 184, 60, 117, 165, 71, 2, 0.5063
77, 1, bw, attraction, a-b-db, 14, 1, 5, 15, 60, 135, 135, 60, 56, 125, 1, 1.79611
77, 1, bw, attraction, a-b-db, 14, 1, 5, 15, 60, 135, 135, 60, 56, 125, 2, 0.426965
77, 1, bw, filler, NA, 999, 999, 5, 16, 56, 184, 64, 145, 168, 165, 3, 0.783367
77, 1, bw, filler, NA, 999, 999, 5, 16, 56, 184, 64, 145, 168, 165, 2, 0.983146
77, 1, bw, attraction, a-b-db, 14, 3, 5, 17, 120, 195, 195, 120, 111, 181, 2, 1.5574
77, 1, bw, attraction, a-b-db, 14, 3, 5, 17, 120, 195, 195, 120, 111, 181, 3, 0.653601
77, 1, bw, attraction, a-b-da, 2, 1, 5, 18, 60, 135, 135, 60, 134, 59, 1, 2.72927
77, 1, bw, attraction, a-b-da, 2, 1, 5, 18, 60, 135, 135, 60, 134, 59, 3, 0.970437
77, 1, bw, attraction, a-b-db, 14, 2, 5, 19, 90, 165, 165, 90, 83, 153, 1, 2.32142
77, 1, bw, attraction, a-b-db, 14, 2, 5, 19, 90, 165, 165, 90, 83, 153, 2, 0.387322
77, 1, bw, attraction, a-b-da, 9, 3, 5, 20, 186, 114, 195, 120, 120, 195, 3, 2.51387
77, 1, bw, attraction, a-b-da, 9, 3, 5, 20, 186, 114, 195, 120, 120, 195, 1, 0.499586
77, 1, bw, attraction, a-b-da, 5, 2, 5, 21, 90, 165, 165, 90, 161, 88, 1, 2.39741
77, 1, bw, attraction, a-b-da, 5, 2, 5, 21, 90, 165, 165, 90, 161, 88, 3, 1.98804
77, 1, bw, catch, NA, 999, 999, 5, 22, 68, 127, 123, 192, 153, 102, 2, 0.490003
77, 1, bw, catch, NA, 999, 999, 5, 22, 68, 127, 123, 192, 153, 102, 1, 0.829174
77, 1, bw, attraction, a-b-da, 2, 3, 5, 23, 193, 119, 120, 195, 195, 120, 2, 2.0254
77, 1, bw, attraction, a-b-da, 2, 3, 5, 23, 193, 119, 120, 195, 195, 120, 1, 1.32684
77, 1, bw, filler, NA, 999, 999, 5, 24, 57, 168, 69, 123, 151, 85, 3, 3.59898
77, 1, bw, filler, NA, 999, 999, 5, 24, 57, 168, 69, 123, 151, 85, 1, 1.4372
77, 1, bw, attraction, a-b-db, 9, 3, 5, 25, 120, 195, 195, 120, 114, 186, 1, 2.9373
77, 1, bw, attraction, a-b-db, 9, 3, 5, 25, 120, 195, 195, 120, 114, 186, 2, 0.522364
77, 1, bw, attraction, a-b-da, 9, 1, 5, 26, 60, 135, 135, 60, 129, 57, 1, 4.92356
77, 1, bw, attraction, a-b-da, 9, 1, 5, 26, 60, 135, 135, 60, 129, 57, 3, 0.451978
77, 1, bw, filler, NA, 999, 999, 5, 27, 93, 150, 130, 98, 86, 96, 1, 4.22373
77, 1, bw, filler, NA, 999, 999, 5, 27, 93, 150, 130, 98, 86, 96, 3, 0.364422
77, 1, bw, attraction, a-b-db, 2, 3, 5, 28, 195, 120, 120, 195, 119, 193, 2, 3.00365
77, 1, bw, attraction, a-b-db, 2, 3, 5, 28, 195, 120, 120, 195, 119, 193, 3, 1.11393
77, 1, bw, filler, NA, 999, 999, 5, 29, 132, 152, 158, 82, 85, 144, 1, 3.97091
77, 1, bw, filler, NA, 999, 999, 5, 29, 132, 152, 158, 82, 85, 144, 3, 0.8583
77, 1, bw, filler, NA, 999, 999, 5, 30, 117, 130, 110, 62, 96, 64, 1, 0.709266
77, 1, bw, filler, NA, 999, 999, 5, 30, 117, 130, 110, 62, 96, 64, 3, 1.5517
77, 1, bw, attraction, a-b-db, 5, 3, 5, 31, 120, 195, 117, 190, 195, 120, 3, 3.54312
77, 1, bw, attraction, a-b-db, 5, 3, 5, 31, 120, 195, 117, 190, 195, 120, 2, 1.38342
77, 1, bw, filler, NA, 999, 999, 5, 32, 117, 112, 184, 120, 111, 102, 2, 1.37355
77, 1, bw, filler, NA, 999, 999, 5, 32, 117, 112, 184, 120, 111, 102, 3, 0.797191
77, 1, bw, filler, NA, 999, 999, 5, 33, 180, 165, 180, 131, 107, 114, 1, 3.51471
77, 1, bw, filler, NA, 999, 999, 5, 33, 180, 165, 180, 131, 107, 114, 3, 0.404264
77, 1, bw, attraction, a-b-da, 14, 1, 5, 34, 135, 60, 60, 135, 125, 56, 1, 2.87414
77, 1, bw, attraction, a-b-da, 14, 1, 5, 34, 135, 60, 60, 135, 125, 56, 3, 0.477216
77, 1, bw, attraction, a-b-da, 14, 2, 5, 35, 165, 90, 90, 165, 153, 83, 1, 3.9596
77, 1, bw, attraction, a-b-da, 14, 2, 5, 35, 165, 90, 90, 165, 153, 83, 3, 0.463041
77, 1, bw, attraction, a-b-da, 5, 3, 5, 36, 195, 120, 120, 195, 190, 117, 1, 5.12215
77, 1, bw, attraction, a-b-da, 5, 3, 5, 36, 195, 120, 120, 195, 190, 117, 2, 0.667221
77, 1, bw, attraction, a-b-db, 9, 2, 5, 37, 86, 157, 90, 165, 165, 90, 2, 1.31823
77, 1, bw, attraction, a-b-db, 9, 2, 5, 37, 86, 157, 90, 165, 165, 90, 3, 1.11253
77, 1, bw, attraction, a-b-db, 9, 3, 6, 1, 114, 186, 195, 120, 120, 195, 3, 1.40155
77, 1, bw, attraction, a-b-db, 9, 3, 6, 1, 114, 186, 195, 120, 120, 195, 1, 0.512321
77, 1, bw, attraction, a-b-db, 14, 3, 6, 2, 195, 120, 111, 181, 120, 195, 3, 3.76945
77, 1, bw, attraction, a-b-db, 14, 3, 6, 2, 195, 120, 111, 181, 120, 195, 1, 1.09685
77, 1, bw, attraction, a-b-db, 9, 2, 6, 3, 90, 165, 86, 157, 165, 90, 1, 1.69855
77, 1, bw, attraction, a-b-db, 9, 2, 6, 3, 90, 165, 86, 157, 165, 90, 3, 0.653286
77, 1, bw, filler, NA, 999, 999, 6, 4, 65, 73, 90, 66, 188, 141, 3, 1.00903
77, 1, bw, filler, NA, 999, 999, 6, 4, 65, 73, 90, 66, 188, 141, 1, 0.631309
77, 1, bw, attraction, a-b-db, 14, 2, 6, 5, 83, 153, 90, 165, 165, 90, 2, 1.59569
77, 1, bw, attraction, a-b-db, 14, 2, 6, 5, 83, 153, 90, 165, 165, 90, 1, 0.69865
77, 1, bw, attraction, a-b-da, 2, 1, 6, 6, 60, 135, 134, 59, 135, 60, 1, 2.38023
77, 1, bw, attraction, a-b-da, 2, 1, 6, 6, 60, 135, 134, 59, 135, 60, 2, 0.739506
77, 1, bw, attraction, a-b-da, 9, 1, 6, 7, 129, 57, 135, 60, 60, 135, 2, 3.18785
77, 1, bw, attraction, a-b-da, 9, 1, 6, 7, 129, 57, 135, 60, 60, 135, 1, 1.14678
77, 1, bw, attraction, a-b-da, 9, 2, 6, 8, 157, 86, 165, 90, 90, 165, 3, 2.87447
77, 1, bw, attraction, a-b-da, 9, 2, 6, 8, 157, 86, 165, 90, 90, 165, 1, 0.581874
77, 1, bw, attraction, a-b-db, 9, 1, 6, 9, 57, 129, 60, 135, 135, 60, 2, 2.23601
77, 1, bw, attraction, a-b-db, 9, 1, 6, 9, 57, 129, 60, 135, 135, 60, 3, 0.87327
77, 1, bw, attraction, a-b-db, 5, 3, 6, 10, 117, 190, 195, 120, 120, 195, 3, 3.35635
77, 1, bw, attraction, a-b-db, 5, 3, 6, 10, 117, 190, 195, 120, 120, 195, 2, 0.515938
77, 1, bw, filler, NA, 999, 999, 6, 11, 118, 77, 56, 191, 91, 187, 3, 1.14096
77, 1, bw, filler, NA, 999, 999, 6, 11, 118, 77, 56, 191, 91, 187, 2, 4.33335
77, 1, bw, attraction, a-b-da, 5, 2, 6, 12, 161, 88, 90, 165, 165, 90, 2, 2.15709
77, 1, bw, attraction, a-b-da, 5, 2, 6, 12, 161, 88, 90, 165, 165, 90, 1, 0.685236
77, 1, bw, attraction, a-b-da, 14, 1, 6, 13, 135, 60, 60, 135, 125, 56, 1, 4.06344
77, 1, bw, attraction, a-b-da, 14, 1, 6, 13, 135, 60, 60, 135, 125, 56, 2, 0.322786
77, 1, bw, attraction, a-b-da, 5, 1, 6, 14, 135, 60, 132, 58, 60, 135, 2, 2.71598
77, 1, bw, attraction, a-b-da, 5, 1, 6, 14, 135, 60, 132, 58, 60, 135, 3, 0.341955
77, 1, bw, attraction, a-b-da, 14, 2, 6, 15, 90, 165, 165, 90, 153, 83, 2, 3.82165
77, 1, bw, attraction, a-b-da, 14, 2, 6, 15, 90, 165, 165, 90, 153, 83, 3, 0.443081
77, 1, bw, filler, NA, 999, 999, 6, 16, 136, 70, 83, 113, 77, 103, 2, 3.80691
77, 1, bw, filler, NA, 999, 999, 6, 16, 136, 70, 83, 113, 77, 103, 3, 0.484517
77, 1, bw, attraction, a-b-da, 5, 3, 6, 17, 120, 195, 190, 117, 195, 120, 3, 5.39885
77, 1, bw, attraction, a-b-da, 5, 3, 6, 17, 120, 195, 190, 117, 195, 120, 2, 0.484459
77, 1, bw, catch, NA, 999, 999, 6, 18, 98, 97, 145, 110, 138, 177, 3, 0.734896
77, 1, bw, catch, NA, 999, 999, 6, 18, 98, 97, 145, 110, 138, 177, 1, 0.552628
77, 1, bw, filler, NA, 999, 999, 6, 19, 157, 156, 184, 131, 162, 193, 3, 2.49641
77, 1, bw, filler, NA, 999, 999, 6, 19, 157, 156, 184, 131, 162, 193, 1, 0.618894
77, 1, bw, filler, NA, 999, 999, 6, 20, 134, 60, 127, 134, 155, 100, 2, 1.216
77, 1, bw, filler, NA, 999, 999, 6, 20, 134, 60, 127, 134, 155, 100, 1, 0.478227
77, 1, bw, attraction, a-b-da, 9, 3, 6, 21, 195, 120, 186, 114, 120, 195, 2, 2.5745
77, 1, bw, attraction, a-b-da, 9, 3, 6, 21, 195, 120, 186, 114, 120, 195, 3, 0.431938
77, 1, bw, filler, NA, 999, 999, 6, 22, 187, 111, 167, 186, 147, 97, 2, 0.916411
77, 1, bw, filler, NA, 999, 999, 6, 22, 187, 111, 167, 186, 147, 97, 3, 0.606807
77, 1, bw, attraction, a-b-da, 2, 3, 6, 23, 120, 195, 195, 120, 193, 119, 1, 1.90783
77, 1, bw, attraction, a-b-da, 2, 3, 6, 23, 120, 195, 195, 120, 193, 119, 3, 0.669924
77, 1, bw, filler, NA, 999, 999, 6, 24, 186, 146, 137, 129, 68, 67, 1, 0.712912
77, 1, bw, filler, NA, 999, 999, 6, 24, 186, 146, 137, 129, 68, 67, 3, 0.379377
77, 1, bw, filler, NA, 999, 999, 6, 25, 57, 69, 182, 113, 134, 134, 2, 1.62587
77, 1, bw, filler, NA, 999, 999, 6, 25, 57, 69, 182, 113, 134, 134, 1, 0.391427
77, 1, bw, attraction, a-b-db, 2, 2, 6, 26, 165, 90, 89, 163, 90, 165, 1, 1.31719
77, 1, bw, attraction, a-b-db, 2, 2, 6, 26, 165, 90, 89, 163, 90, 165, 3, 0.367434
77, 1, bw, attraction, a-b-da, 2, 2, 6, 27, 163, 89, 90, 165, 165, 90, 2, 1.81447
77, 1, bw, attraction, a-b-da, 2, 2, 6, 27, 163, 89, 90, 165, 165, 90, 1, 0.388712
77, 1, bw, attraction, a-b-db, 5, 2, 6, 28, 88, 161, 90, 165, 165, 90, 3, 1.59507
77, 1, bw, attraction, a-b-db, 5, 2, 6, 28, 88, 161, 90, 165, 165, 90, 1, 0.529827
77, 1, bw, attraction, a-b-db, 2, 3, 6, 29, 195, 120, 119, 193, 120, 195, 2, 2.14629
77, 1, bw, attraction, a-b-db, 2, 3, 6, 29, 195, 120, 119, 193, 120, 195, 3, 0.970961
77, 1, bw, filler, NA, 999, 999, 6, 30, 56, 84, 79, 177, 98, 100, 2, 1.83384
77, 1, bw, filler, NA, 999, 999, 6, 30, 56, 84, 79, 177, 98, 100, 1, 0.423304
77, 1, bw, filler, NA, 999, 999, 6, 31, 139, 103, 192, 193, 57, 123, 2, 1.09976
77, 1, bw, filler, NA, 999, 999, 6, 31, 139, 103, 192, 193, 57, 123, 3, 0.398809
77, 1, bw, attraction, a-b-da, 14, 3, 6, 32, 181, 111, 195, 120, 120, 195, 2, 1.45256
77, 1, bw, attraction, a-b-da, 14, 3, 6, 32, 181, 111, 195, 120, 120, 195, 1, 1.07345
77, 1, bw, catch, NA, 999, 999, 6, 33, 97, 158, 135, 60, 137, 178, 3, 0.899791
77, 1, bw, catch, NA, 999, 999, 6, 33, 97, 158, 135, 60, 137, 178, 2, 0.438739
77, 1, bw, catch, NA, 999, 999, 6, 34, 104, 91, 121, 194, 123, 132, 2, 1.26716
77, 1, bw, catch, NA, 999, 999, 6, 34, 104, 91, 121, 194, 123, 132, 1, 0.511378
77, 1, bw, attraction, a-b-db, 14, 1, 6, 35, 60, 135, 56, 125, 135, 60, 1, 2.03259
77, 1, bw, attraction, a-b-db, 14, 1, 6, 35, 60, 135, 56, 125, 135, 60, 2, 0.637866
77, 1, bw, attraction, a-b-db, 2, 1, 6, 36, 135, 60, 59, 134, 60, 135, 3, 1.67435
77, 1, bw, attraction, a-b-db, 2, 1, 6, 36, 135, 60, 59, 134, 60, 135, 1, 0.493963
77, 1, bw, attraction, a-b-db, 5, 1, 6, 37, 58, 132, 60, 135, 135, 60, 1, 1.67154
77, 1, bw, attraction, a-b-db, 5, 1, 6, 37, 58, 132, 60, 135, 135, 60, 3, 2.42702
77, 1, bw, attraction, a-b-db, 2, 2, 7, 1, 90, 165, 89, 163, 165, 90, 1, 1.79088
77, 1, bw, attraction, a-b-db, 2, 2, 7, 1, 90, 165, 89, 163, 165, 90, 3, 0.64573
77, 1, bw, attraction, a-b-db, 14, 1, 7, 2, 56, 125, 60, 135, 135, 60, 2, 0.913327
77, 1, bw, attraction, a-b-db, 14, 1, 7, 2, 56, 125, 60, 135, 135, 60, 1, 0.611717
77, 1, bw, attraction, a-b-db, 2, 1, 7, 3, 135, 60, 59, 134, 60, 135, 2, 2.08871
77, 1, bw, attraction, a-b-db, 2, 1, 7, 3, 135, 60, 59, 134, 60, 135, 3, 0.755392
77, 1, bw, attraction, a-b-db, 9, 3, 7, 4, 195, 120, 120, 195, 114, 186, 2, 2.44314
77, 1, bw, attraction, a-b-db, 9, 3, 7, 4, 195, 120, 120, 195, 114, 186, 3, 0.375871
77, 1, bw, attraction, a-b-da, 14, 1, 7, 5, 135, 60, 125, 56, 60, 135, 1, 2.7982
77, 1, bw, attraction, a-b-da, 14, 1, 7, 5, 135, 60, 125, 56, 60, 135, 3, 0.428666
77, 1, bw, attraction, a-b-da, 9, 3, 7, 6, 120, 195, 186, 114, 195, 120, 2, 1.15304
77, 1, bw, attraction, a-b-da, 9, 3, 7, 6, 120, 195, 186, 114, 195, 120, 1, 0.362062
77, 1, bw, attraction, a-b-da, 14, 2, 7, 7, 90, 165, 165, 90, 153, 83, 1, 1.17726
77, 1, bw, attraction, a-b-da, 14, 2, 7, 7, 90, 165, 165, 90, 153, 83, 2, 0.336831
77, 1, bw, attraction, a-b-db, 5, 3, 7, 8, 120, 195, 117, 190, 195, 120, 1, 2.26526
77, 1, bw, attraction, a-b-db, 5, 3, 7, 8, 120, 195, 117, 190, 195, 120, 2, 1.46931
77, 1, bw, filler, NA, 999, 999, 7, 9, 67, 86, 191, 149, 142, 156, 2, 0.880044
77, 1, bw, filler, NA, 999, 999, 7, 9, 67, 86, 191, 149, 142, 156, 1, 0.435663
77, 1, bw, attraction, a-b-da, 2, 3, 7, 10, 193, 119, 195, 120, 120, 195, 3, 2.33626
77, 1, bw, attraction, a-b-da, 2, 3, 7, 10, 193, 119, 195, 120, 120, 195, 2, 1.40958
77, 1, bw, catch, NA, 999, 999, 7, 11, 163, 92, 187, 128, 68, 127, 2, 2.14253
77, 1, bw, catch, NA, 999, 999, 7, 11, 163, 92, 187, 128, 68, 127, 3, 0.942932
77, 1, bw, catch, NA, 999, 999, 7, 12, 109, 146, 132, 63, 173, 142, 3, 1.03051
77, 1, bw, catch, NA, 999, 999, 7, 12, 109, 146, 132, 63, 173, 142, 2, 0.516318
77, 1, bw, attraction, a-b-db, 5, 1, 7, 13, 60, 135, 135, 60, 58, 132, 1, 4.1654
77, 1, bw, attraction, a-b-db, 5, 1, 7, 13, 60, 135, 135, 60, 58, 132, 3, 0.380702
77, 1, bw, filler, NA, 999, 999, 7, 14, 97, 85, 93, 98, 182, 178, 3, 0.675135
77, 1, bw, filler, NA, 999, 999, 7, 14, 97, 85, 93, 98, 182, 178, 1, 1.87094
77, 1, bw, catch, NA, 999, 999, 7, 15, 129, 186, 119, 76, 150, 105, 1, 0.873595
77, 1, bw, catch, NA, 999, 999, 7, 15, 129, 186, 119, 76, 150, 105, 2, 1.06932
77, 1, bw, attraction, a-b-db, 9, 2, 7, 16, 165, 90, 86, 157, 90, 165, 1, 3.8562
77, 1, bw, attraction, a-b-db, 9, 2, 7, 16, 165, 90, 86, 157, 90, 165, 3, 2.37171
77, 1, bw, attraction, a-b-da, 9, 2, 7, 17, 90, 165, 165, 90, 157, 86, 1, 4.80225
77, 1, bw, attraction, a-b-da, 9, 2, 7, 17, 90, 165, 165, 90, 157, 86, 3, 0.512049
77, 1, bw, attraction, a-b-db, 14, 3, 7, 18, 120, 195, 111, 181, 195, 120, 1, 2.17709
77, 1, bw, attraction, a-b-db, 14, 3, 7, 18, 120, 195, 111, 181, 195, 120, 2, 0.808491
77, 1, bw, attraction, a-b-db, 9, 1, 7, 19, 57, 129, 135, 60, 60, 135, 2, 2.48551
77, 1, bw, attraction, a-b-db, 9, 1, 7, 19, 57, 129, 135, 60, 60, 135, 1, 0.672639
77, 1, bw, filler, NA, 999, 999, 7, 20, 140, 79, 134, 180, 64, 159, 2, 0.851824
77, 1, bw, filler, NA, 999, 999, 7, 20, 140, 79, 134, 180, 64, 159, 3, 1.48874
77, 1, bw, attraction, a-b-da, 5, 3, 7, 21, 120, 195, 190, 117, 195, 120, 1, 1.79495
77, 1, bw, attraction, a-b-da, 5, 3, 7, 21, 120, 195, 190, 117, 195, 120, 2, 0.881779
77, 1, bw, attraction, a-b-db, 5, 2, 7, 22, 90, 165, 88, 161, 165, 90, 2, 1.996
77, 1, bw, attraction, a-b-db, 5, 2, 7, 22, 90, 165, 88, 161, 165, 90, 3, 0.41082
77, 1, bw, filler, NA, 999, 999, 7, 23, 114, 79, 114, 139, 189, 96, 3, 3.2079
77, 1, bw, filler, NA, 999, 999, 7, 23, 114, 79, 114, 139, 189, 96, 1, 0.669446
77, 1, bw, attraction, a-b-db, 2, 3, 7, 24, 195, 120, 120, 195, 119, 193, 1, 1.99261
77, 1, bw, attraction, a-b-db, 2, 3, 7, 24, 195, 120, 120, 195, 119, 193, 3, 0.495256
77, 1, bw, attraction, a-b-da, 9, 1, 7, 25, 60, 135, 135, 60, 129, 57, 1, 2.193
77, 1, bw, attraction, a-b-da, 9, 1, 7, 25, 60, 135, 135, 60, 129, 57, 3, 0.607559
77, 1, bw, attraction, a-b-da, 2, 1, 7, 26, 134, 59, 135, 60, 60, 135, 1, 2.81268
77, 1, bw, attraction, a-b-da, 2, 1, 7, 26, 134, 59, 135, 60, 60, 135, 3, 0.826468
77, 1, bw, attraction, a-b-db, 14, 2, 7, 27, 165, 90, 83, 153, 90, 165, 1, 3.12682
77, 1, bw, attraction, a-b-db, 14, 2, 7, 27, 165, 90, 83, 153, 90, 165, 2, 0.479803
77, 1, bw, filler, NA, 999, 999, 7, 28, 141, 131, 94, 185, 162, 177, 3, 1.05829
77, 1, bw, filler, NA, 999, 999, 7, 28, 141, 131, 94, 185, 162, 177, 1, 0.750542
77, 1, bw, filler, NA, 999, 999, 7, 29, 181, 182, 177, 176, 74, 116, 1, 2.24629
77, 1, bw, filler, NA, 999, 999, 7, 29, 181, 182, 177, 176, 74, 116, 3, 0.786895
77, 1, bw, attraction, a-b-da, 14, 3, 7, 30, 195, 120, 181, 111, 120, 195, 3, 2.12137
77, 1, bw, attraction, a-b-da, 14, 3, 7, 30, 195, 120, 181, 111, 120, 195, 2, 0.4906
77, 1, bw, filler, NA, 999, 999, 7, 31, 158, 96, 59, 89, 163, 140, 3, 0.796338
77, 1, bw, filler, NA, 999, 999, 7, 31, 158, 96, 59, 89, 163, 140, 2, 0.507416
77, 1, bw, filler, NA, 999, 999, 7, 32, 143, 66, 143, 147, 152, 175, 3, 1.34057
77, 1, bw, filler, NA, 999, 999, 7, 32, 143, 66, 143, 147, 152, 175, 1, 0.957499
77, 1, bw, attraction, a-b-da, 5, 2, 7, 33, 165, 90, 161, 88, 90, 165, 1, 1.15635
77, 1, bw, attraction, a-b-da, 5, 2, 7, 33, 165, 90, 161, 88, 90, 165, 2, 0.70065
77, 1, bw, filler, NA, 999, 999, 7, 34, 116, 168, 124, 176, 190, 57, 2, 1.29438
77, 1, bw, filler, NA, 999, 999, 7, 34, 116, 168, 124, 176, 190, 57, 3, 0.977254
77, 1, bw, attraction, a-b-da, 5, 1, 7, 35, 132, 58, 60, 135, 135, 60, 2, 1.98358
77, 1, bw, attraction, a-b-da, 5, 1, 7, 35, 132, 58, 60, 135, 135, 60, 1, 0.662955
77, 1, bw, filler, NA, 999, 999, 7, 36, 188, 104, 110, 83, 123, 170, 1, 1.0181
77, 1, bw, filler, NA, 999, 999, 7, 36, 188, 104, 110, 83, 123, 170, 2, 0.384418
77, 1, bw, attraction, a-b-da, 2, 2, 7, 37, 165, 90, 90, 165, 163, 89, 2, 2.14281
77, 1, bw, attraction, a-b-da, 2, 2, 7, 37, 165, 90, 90, 165, 163, 89, 3, 0.759448
77, 1, bw, catch, NA, 999, 999, 8, 1, 68, 127, 168, 147, 112, 143, 2, 0.918587
77, 1, bw, catch, NA, 999, 999, 8, 1, 68, 127, 168, 147, 112, 143, 1, 0.504774
77, 1, bw, attraction, a-b-db, 2, 2, 8, 2, 90, 165, 165, 90, 89, 163, 1, 2.81865
77, 1, bw, attraction, a-b-db, 2, 2, 8, 2, 90, 165, 165, 90, 89, 163, 2, 0.448399
77, 1, bw, attraction, a-b-db, 9, 1, 8, 3, 57, 129, 60, 135, 135, 60, 2, 1.9162
77, 1, bw, attraction, a-b-db, 9, 1, 8, 3, 57, 129, 60, 135, 135, 60, 1, 0.422229
77, 1, bw, attraction, a-b-da, 9, 2, 8, 4, 157, 86, 90, 165, 165, 90, 2, 2.33937
77, 1, bw, attraction, a-b-da, 9, 2, 8, 4, 157, 86, 90, 165, 165, 90, 1, 0.515971
77, 1, bw, attraction, a-b-db, 14, 3, 8, 5, 195, 120, 111, 181, 120, 195, 1, 3.18106
77, 1, bw, attraction, a-b-db, 14, 3, 8, 5, 195, 120, 111, 181, 120, 195, 2, 0.643992
77, 1, bw, attraction, a-b-db, 5, 2, 8, 6, 90, 165, 165, 90, 88, 161, 2, 2.55184
77, 1, bw, attraction, a-b-db, 5, 2, 8, 6, 90, 165, 165, 90, 88, 161, 3, 0.720357
77, 1, bw, filler, NA, 999, 999, 8, 7, 137, 102, 166, 173, 140, 159, 2, 0.929348
77, 1, bw, filler, NA, 999, 999, 8, 7, 137, 102, 166, 173, 140, 159, 1, 0.619034
77, 1, bw, filler, NA, 999, 999, 8, 8, 72, 72, 71, 96, 172, 183, 3, 0.744101
77, 1, bw, filler, NA, 999, 999, 8, 8, 72, 72, 71, 96, 172, 183, 1, 0.489196
77, 1, bw, catch, NA, 999, 999, 8, 9, 158, 97, 126, 69, 141, 174, 3, 1.61964
77, 1, bw, catch, NA, 999, 999, 8, 9, 158, 97, 126, 69, 141, 174, 2, 0.417758
77, 1, bw, attraction, a-b-da, 14, 2, 8, 10, 153, 83, 90, 165, 165, 90, 2, 0.91088
77, 1, bw, attraction, a-b-da, 14, 2, 8, 10, 153, 83, 90, 165, 165, 90, 1, 0.393246
77, 1, bw, attraction, a-b-db, 5, 3, 8, 11, 120, 195, 117, 190, 195, 120, 1, 1.70304
77, 1, bw, attraction, a-b-db, 5, 3, 8, 11, 120, 195, 117, 190, 195, 120, 2, 0.785875
77, 1, bw, filler, NA, 999, 999, 8, 12, 147, 71, 184, 188, 169, 193, 2, 1.46433
77, 1, bw, filler, NA, 999, 999, 8, 12, 147, 71, 184, 188, 169, 193, 1, 0.484371
77, 1, bw, attraction, a-b-db, 5, 1, 8, 13, 60, 135, 58, 132, 135, 60, 1, 3.44685
77, 1, bw, attraction, a-b-db, 5, 1, 8, 13, 60, 135, 58, 132, 135, 60, 2, 0.811121
77, 1, bw, attraction, a-b-da, 5, 3, 8, 14, 120, 195, 190, 117, 195, 120, 1, 2.48811
77, 1, bw, attraction, a-b-da, 5, 3, 8, 14, 120, 195, 190, 117, 195, 120, 2, 1.13928
77, 1, bw, filler, NA, 999, 999, 8, 15, 131, 95, 67, 63, 67, 187, 1, 1.2436
77, 1, bw, filler, NA, 999, 999, 8, 15, 131, 95, 67, 63, 67, 187, 2, 0.552531
77, 1, bw, attraction, a-b-db, 14, 2, 8, 16, 90, 165, 83, 153, 165, 90, 1, 3.02427
77, 1, bw, attraction, a-b-db, 14, 2, 8, 16, 90, 165, 83, 153, 165, 90, 2, 0.477417
77, 1, bw, filler, NA, 999, 999, 8, 17, 99, 99, 87, 184, 153, 101, 3, 2.02367
77, 1, bw, filler, NA, 999, 999, 8, 17, 99, 99, 87, 184, 153, 101, 1, 0.549031
77, 1, bw, filler, NA, 999, 999, 8, 18, 194, 80, 151, 73, 155, 156, 3, 1.14887
77, 1, bw, filler, NA, 999, 999, 8, 18, 194, 80, 151, 73, 155, 156, 2, 0.405823
77, 1, bw, attraction, a-b-da, 2, 2, 8, 19, 165, 90, 163, 89, 90, 165, 1, 2.52365
77, 1, bw, attraction, a-b-da, 2, 2, 8, 19, 165, 90, 163, 89, 90, 165, 2, 0.524776
77, 1, bw, attraction, a-b-da, 5, 1, 8, 20, 135, 60, 60, 135, 132, 58, 2, 1.9812
77, 1, bw, attraction, a-b-da, 5, 1, 8, 20, 135, 60, 60, 135, 132, 58, 3, 0.508572
77, 1, bw, attraction, a-b-db, 9, 2, 8, 21, 165, 90, 86, 157, 90, 165, 1, 3.18966
77, 1, bw, attraction, a-b-db, 9, 2, 8, 21, 165, 90, 86, 157, 90, 165, 2, 0.532069
77, 1, bw, attraction, a-b-db, 2, 3, 8, 22, 119, 193, 195, 120, 120, 195, 1, 3.09243
77, 1, bw, attraction, a-b-db, 2, 3, 8, 22, 119, 193, 195, 120, 120, 195, 2, 0.486799
77, 1, bw, attraction, a-b-db, 2, 1, 8, 23, 59, 134, 60, 135, 135, 60, 2, 3.56126
77, 1, bw, attraction, a-b-db, 2, 1, 8, 23, 59, 134, 60, 135, 135, 60, 1, 1.12874
77, 1, bw, attraction, a-b-db, 9, 3, 8, 24, 120, 195, 195, 120, 114, 186, 1, 2.90505
77, 1, bw, attraction, a-b-db, 9, 3, 8, 24, 120, 195, 195, 120, 114, 186, 2, 0.603482
77, 1, bw, filler, NA, 999, 999, 8, 25, 92, 187, 110, 166, 165, 172, 3, 1.08121
77, 1, bw, filler, NA, 999, 999, 8, 25, 92, 187, 110, 166, 165, 172, 1, 0.708796
77, 1, bw, filler, NA, 999, 999, 8, 26, 166, 158, 59, 93, 170, 139, 1, 1.04584
77, 1, bw, filler, NA, 999, 999, 8, 26, 166, 158, 59, 93, 170, 139, 2, 0.482813
77, 1, bw, attraction, a-b-da, 14, 1, 8, 27, 60, 135, 135, 60, 125, 56, 2, 1.8453
77, 1, bw, attraction, a-b-da, 14, 1, 8, 27, 60, 135, 135, 60, 125, 56, 1, 0.562072
77, 1, bw, filler, NA, 999, 999, 8, 28, 147, 186, 74, 74, 194, 145, 3, 1.29714
77, 1, bw, filler, NA, 999, 999, 8, 28, 147, 186, 74, 74, 194, 145, 2, 0.604038
77, 1, bw, filler, NA, 999, 999, 8, 29, 117, 189, 190, 194, 125, 178, 2, 1.56181
77, 1, bw, filler, NA, 999, 999, 8, 29, 117, 189, 190, 194, 125, 178, 1, 0.386113
77, 1, bw, attraction, a-b-db, 14, 1, 8, 30, 135, 60, 56, 125, 60, 135, 3, 1.53648
77, 1, bw, attraction, a-b-db, 14, 1, 8, 30, 135, 60, 56, 125, 60, 135, 1, 0.457935
77, 1, bw, attraction, a-b-da, 14, 3, 8, 31, 120, 195, 195, 120, 181, 111, 1, 2.92512
77, 1, bw, attraction, a-b-da, 14, 3, 8, 31, 120, 195, 195, 120, 181, 111, 3, 0.350151
77, 1, bw, catch, NA, 999, 999, 8, 32, 118, 137, 132, 183, 103, 92, 2, 0.694002
77, 1, bw, catch, NA, 999, 999, 8, 32, 118, 137, 132, 183, 103, 92, 3, 0.489114
77, 1, bw, attraction, a-b-da, 2, 3, 8, 33, 195, 120, 120, 195, 193, 119, 2, 2.98751
77, 1, bw, attraction, a-b-da, 2, 3, 8, 33, 195, 120, 120, 195, 193, 119, 3, 0.890602
77, 1, bw, attraction, a-b-da, 5, 2, 8, 34, 90, 165, 161, 88, 165, 90, 1, 1.67628
77, 1, bw, attraction, a-b-da, 5, 2, 8, 34, 90, 165, 161, 88, 165, 90, 2, 0.503726
77, 1, bw, attraction, a-b-da, 2, 1, 8, 35, 135, 60, 134, 59, 60, 135, 3, 2.1295
77, 1, bw, attraction, a-b-da, 2, 1, 8, 35, 135, 60, 134, 59, 60, 135, 2, 0.586762
77, 1, bw, attraction, a-b-da, 9, 3, 8, 36, 195, 120, 120, 195, 186, 114, 1, 2.56117
77, 1, bw, attraction, a-b-da, 9, 3, 8, 36, 195, 120, 120, 195, 186, 114, 3, 0.64106
77, 1, bw, attraction, a-b-da, 9, 1, 8, 37, 135, 60, 129, 57, 60, 135, 1, 1.78876
77, 1, bw, attraction, a-b-da, 9, 1, 8, 37, 135, 60, 129, 57, 60, 135, 3, 0.515485
