sub_n, computer_n, bw_cond, effect, set, distance, diag, block_n, trial_n, h1, w1, h2, w2, h3, w3, choice, rt 
7, 1, bw, practice, NA, 999, 999, 0, 1, 160, 73, 121, 131, 188, 178, 3, 1.55403
7, 1, bw, practice, NA, 999, 999, 0, 1, 160, 73, 121, 131, 188, 178, 1, 1.41177
7, 1, bw, practice, NA, 999, 999, 0, 2, 143, 136, 83, 90, 107, 57, 1, 1.81349
7, 1, bw, practice, NA, 999, 999, 0, 2, 143, 136, 83, 90, 107, 57, 3, 1.98029
7, 1, bw, practice, NA, 999, 999, 0, 3, 110, 59, 104, 149, 129, 86, 2, 2.76762
7, 1, bw, practice, NA, 999, 999, 0, 3, 110, 59, 104, 149, 129, 86, 1, 1.10158
7, 1, bw, attraction, a-b-da, 9, 2, 1, 1, 90, 165, 157, 86, 165, 90, 1, 7.20418
7, 1, bw, attraction, a-b-da, 9, 2, 1, 1, 90, 165, 157, 86, 165, 90, 2, 1.05045
7, 1, bw, filler, NA, 999, 999, 1, 2, 191, 170, 171, 82, 172, 149, 1, 1.78383
7, 1, bw, filler, NA, 999, 999, 1, 2, 191, 170, 171, 82, 172, 149, 2, 1.07774
7, 1, bw, attraction, a-b-db, 14, 3, 1, 3, 120, 195, 111, 181, 195, 120, 1, 7.62406
7, 1, bw, attraction, a-b-db, 14, 3, 1, 3, 120, 195, 111, 181, 195, 120, 3, 4.85287
7, 1, bw, filler, NA, 999, 999, 1, 4, 104, 124, 107, 111, 150, 142, 3, 1.62345
7, 1, bw, filler, NA, 999, 999, 1, 4, 104, 124, 107, 111, 150, 142, 2, 0.708888
7, 1, bw, catch, NA, 999, 999, 1, 5, 119, 76, 126, 129, 141, 174, 3, 1.70974
7, 1, bw, catch, NA, 999, 999, 1, 5, 119, 76, 126, 129, 141, 174, 1, 0.906894
7, 1, bw, attraction, a-b-da, 9, 3, 1, 6, 186, 114, 195, 120, 120, 195, 3, 4.53781
7, 1, bw, attraction, a-b-da, 9, 3, 1, 6, 186, 114, 195, 120, 120, 195, 2, 1.94778
7, 1, bw, attraction, a-b-db, 5, 3, 1, 7, 117, 190, 195, 120, 120, 195, 1, 2.08404
7, 1, bw, attraction, a-b-db, 5, 3, 1, 7, 117, 190, 195, 120, 120, 195, 2, 0.984304
7, 1, bw, attraction, a-b-da, 2, 3, 1, 8, 195, 120, 193, 119, 120, 195, 1, 1.46952
7, 1, bw, attraction, a-b-da, 2, 3, 1, 8, 195, 120, 193, 119, 120, 195, 2, 2.6501
7, 1, bw, filler, NA, 999, 999, 1, 9, 145, 176, 133, 82, 165, 138, 1, 3.5159
7, 1, bw, filler, NA, 999, 999, 1, 9, 145, 176, 133, 82, 165, 138, 2, 0.647685
7, 1, bw, attraction, a-b-da, 2, 2, 1, 10, 163, 89, 90, 165, 165, 90, 2, 5.79402
7, 1, bw, attraction, a-b-da, 2, 2, 1, 10, 163, 89, 90, 165, 165, 90, 3, 1.33559
7, 1, bw, filler, NA, 999, 999, 1, 11, 152, 150, 82, 189, 121, 70, 1, 1.87341
7, 1, bw, filler, NA, 999, 999, 1, 11, 152, 150, 82, 189, 121, 70, 3, 0.853212
7, 1, bw, attraction, a-b-da, 9, 1, 1, 12, 60, 135, 135, 60, 129, 57, 1, 3.00763
7, 1, bw, attraction, a-b-da, 9, 1, 1, 12, 60, 135, 135, 60, 129, 57, 3, 1.6551
7, 1, bw, attraction, a-b-db, 9, 2, 1, 13, 90, 165, 86, 157, 165, 90, 1, 2.37213
7, 1, bw, attraction, a-b-db, 9, 2, 1, 13, 90, 165, 86, 157, 165, 90, 3, 3.35465
7, 1, bw, attraction, a-b-da, 14, 3, 1, 14, 181, 111, 195, 120, 120, 195, 3, 1.72272
7, 1, bw, attraction, a-b-da, 14, 3, 1, 14, 181, 111, 195, 120, 120, 195, 1, 1.82036
7, 1, bw, attraction, a-b-db, 2, 1, 1, 15, 59, 134, 60, 135, 135, 60, 1, 4.10412
7, 1, bw, attraction, a-b-db, 2, 1, 1, 15, 59, 134, 60, 135, 135, 60, 3, 2.0997
7, 1, bw, filler, NA, 999, 999, 1, 16, 130, 134, 89, 137, 185, 149, 3, 1.32376
7, 1, bw, filler, NA, 999, 999, 1, 16, 130, 134, 89, 137, 185, 149, 2, 0.621992
7, 1, bw, filler, NA, 999, 999, 1, 17, 132, 154, 160, 170, 60, 101, 2, 2.6609
7, 1, bw, filler, NA, 999, 999, 1, 17, 132, 154, 160, 170, 60, 101, 3, 0.661047
7, 1, bw, catch, NA, 999, 999, 1, 18, 134, 121, 125, 70, 157, 158, 3, 1.45642
7, 1, bw, catch, NA, 999, 999, 1, 18, 134, 121, 125, 70, 157, 158, 2, 1.37476
7, 1, bw, attraction, a-b-da, 2, 1, 1, 19, 60, 135, 134, 59, 135, 60, 1, 3.49517
7, 1, bw, attraction, a-b-da, 2, 1, 1, 19, 60, 135, 134, 59, 135, 60, 3, 0.858762
7, 1, bw, filler, NA, 999, 999, 1, 20, 188, 118, 91, 90, 185, 136, 1, 1.97951
7, 1, bw, filler, NA, 999, 999, 1, 20, 188, 118, 91, 90, 185, 136, 2, 2.98776
7, 1, bw, attraction, a-b-db, 5, 2, 1, 21, 165, 90, 90, 165, 88, 161, 2, 4.16994
7, 1, bw, attraction, a-b-db, 5, 2, 1, 21, 165, 90, 90, 165, 88, 161, 3, 1.17858
7, 1, bw, attraction, a-b-da, 5, 3, 1, 22, 120, 195, 195, 120, 190, 117, 1, 4.83837
7, 1, bw, attraction, a-b-da, 5, 3, 1, 22, 120, 195, 195, 120, 190, 117, 2, 1.89195
7, 1, bw, attraction, a-b-db, 2, 3, 1, 23, 120, 195, 195, 120, 119, 193, 1, 1.55904
7, 1, bw, attraction, a-b-db, 2, 3, 1, 23, 120, 195, 195, 120, 119, 193, 2, 2.15001
7, 1, bw, attraction, a-b-db, 9, 3, 1, 24, 114, 186, 120, 195, 195, 120, 2, 5.32485
7, 1, bw, attraction, a-b-db, 9, 3, 1, 24, 114, 186, 120, 195, 195, 120, 3, 1.6077
7, 1, bw, attraction, a-b-da, 14, 1, 1, 25, 125, 56, 60, 135, 135, 60, 2, 3.04481
7, 1, bw, attraction, a-b-da, 14, 1, 1, 25, 125, 56, 60, 135, 135, 60, 1, 1.51347
7, 1, bw, catch, NA, 999, 999, 1, 26, 62, 133, 178, 137, 132, 123, 2, 1.50577
7, 1, bw, catch, NA, 999, 999, 1, 26, 62, 133, 178, 137, 132, 123, 1, 0.684923
7, 1, bw, attraction, a-b-db, 14, 1, 1, 27, 60, 135, 135, 60, 56, 125, 1, 2.08937
7, 1, bw, attraction, a-b-db, 14, 1, 1, 27, 60, 135, 135, 60, 56, 125, 3, 1.13128
7, 1, bw, attraction, a-b-db, 9, 1, 1, 28, 60, 135, 57, 129, 135, 60, 1, 1.77178
7, 1, bw, attraction, a-b-db, 9, 1, 1, 28, 60, 135, 57, 129, 135, 60, 2, 6.35467
7, 1, bw, attraction, a-b-da, 5, 2, 1, 29, 165, 90, 161, 88, 90, 165, 3, 5.78599
7, 1, bw, attraction, a-b-da, 5, 2, 1, 29, 165, 90, 161, 88, 90, 165, 1, 1.65702
7, 1, bw, attraction, a-b-db, 14, 2, 1, 30, 83, 153, 90, 165, 165, 90, 2, 3.85736
7, 1, bw, attraction, a-b-db, 14, 2, 1, 30, 83, 153, 90, 165, 165, 90, 1, 1.17442
7, 1, bw, filler, NA, 999, 999, 1, 31, 147, 93, 133, 179, 85, 162, 2, 1.67883
7, 1, bw, filler, NA, 999, 999, 1, 31, 147, 93, 133, 179, 85, 162, 1, 0.78727
7, 1, bw, attraction, a-b-db, 5, 1, 1, 32, 58, 132, 60, 135, 135, 60, 1, 2.39152
7, 1, bw, attraction, a-b-db, 5, 1, 1, 32, 58, 132, 60, 135, 135, 60, 3, 2.57649
7, 1, bw, attraction, a-b-db, 2, 2, 1, 33, 165, 90, 90, 165, 89, 163, 2, 3.18056
7, 1, bw, attraction, a-b-db, 2, 2, 1, 33, 165, 90, 90, 165, 89, 163, 3, 0.837633
7, 1, bw, attraction, a-b-da, 14, 2, 1, 34, 90, 165, 153, 83, 165, 90, 1, 4.46635
7, 1, bw, attraction, a-b-da, 14, 2, 1, 34, 90, 165, 153, 83, 165, 90, 2, 0.715109
7, 1, bw, filler, NA, 999, 999, 1, 35, 150, 192, 140, 158, 63, 189, 1, 2.3417
7, 1, bw, filler, NA, 999, 999, 1, 35, 150, 192, 140, 158, 63, 189, 2, 1.1518
7, 1, bw, attraction, a-b-da, 5, 1, 1, 36, 60, 135, 135, 60, 132, 58, 2, 2.66999
7, 1, bw, attraction, a-b-da, 5, 1, 1, 36, 60, 135, 135, 60, 132, 58, 3, 0.722374
7, 1, bw, filler, NA, 999, 999, 1, 37, 68, 170, 95, 109, 61, 192, 1, 3.27363
7, 1, bw, filler, NA, 999, 999, 1, 37, 68, 170, 95, 109, 61, 192, 3, 2.63994
7, 1, bw, attraction, a-b-da, 2, 2, 2, 1, 163, 89, 90, 165, 165, 90, 2, 5.79449
7, 1, bw, attraction, a-b-da, 2, 2, 2, 1, 163, 89, 90, 165, 165, 90, 1, 1.57803
7, 1, bw, filler, NA, 999, 999, 2, 2, 177, 160, 126, 111, 68, 194, 1, 1.70467
7, 1, bw, filler, NA, 999, 999, 2, 2, 177, 160, 126, 111, 68, 194, 3, 0.699201
7, 1, bw, attraction, a-b-db, 14, 3, 2, 3, 111, 181, 120, 195, 195, 120, 2, 8.78762
7, 1, bw, attraction, a-b-db, 14, 3, 2, 3, 111, 181, 120, 195, 195, 120, 3, 1.8887
7, 1, bw, filler, NA, 999, 999, 2, 4, 138, 81, 124, 146, 182, 85, 2, 2.32538
7, 1, bw, filler, NA, 999, 999, 2, 4, 138, 81, 124, 146, 182, 85, 1, 2.07611
7, 1, bw, attraction, a-b-da, 2, 1, 2, 5, 60, 135, 135, 60, 134, 59, 1, 6.4708
7, 1, bw, attraction, a-b-da, 2, 1, 2, 5, 60, 135, 135, 60, 134, 59, 3, 1.10676
7, 1, bw, attraction, a-b-db, 5, 3, 2, 6, 120, 195, 195, 120, 117, 190, 1, 4.94945
7, 1, bw, attraction, a-b-db, 5, 3, 2, 6, 120, 195, 195, 120, 117, 190, 3, 2.67687
7, 1, bw, filler, NA, 999, 999, 2, 7, 90, 67, 121, 188, 91, 94, 2, 2.48668
7, 1, bw, filler, NA, 999, 999, 2, 7, 90, 67, 121, 188, 91, 94, 1, 1.38686
7, 1, bw, attraction, a-b-db, 5, 1, 2, 8, 58, 132, 60, 135, 135, 60, 2, 2.86293
7, 1, bw, attraction, a-b-db, 5, 1, 2, 8, 58, 132, 60, 135, 135, 60, 1, 1.79558
7, 1, bw, filler, NA, 999, 999, 2, 9, 170, 101, 109, 151, 91, 188, 2, 3.21709
7, 1, bw, filler, NA, 999, 999, 2, 9, 170, 101, 109, 151, 91, 188, 1, 1.30491
7, 1, bw, attraction, a-b-db, 9, 2, 2, 10, 90, 165, 86, 157, 165, 90, 1, 1.93712
7, 1, bw, attraction, a-b-db, 9, 2, 2, 10, 90, 165, 86, 157, 165, 90, 2, 4.52305
7, 1, bw, attraction, a-b-db, 2, 3, 2, 11, 119, 193, 120, 195, 195, 120, 2, 7.08176
7, 1, bw, attraction, a-b-db, 2, 3, 2, 11, 119, 193, 120, 195, 195, 120, 3, 3.58758
7, 1, bw, attraction, a-b-db, 2, 2, 2, 12, 90, 165, 165, 90, 89, 163, 3, 7.7602
7, 1, bw, attraction, a-b-db, 2, 2, 2, 12, 90, 165, 165, 90, 89, 163, 2, 1.3833
7, 1, bw, filler, NA, 999, 999, 2, 13, 126, 56, 163, 80, 61, 122, 2, 1.6776
7, 1, bw, filler, NA, 999, 999, 2, 13, 126, 56, 163, 80, 61, 122, 1, 1.13622
7, 1, bw, filler, NA, 999, 999, 2, 14, 128, 72, 164, 134, 71, 124, 2, 1.20364
7, 1, bw, filler, NA, 999, 999, 2, 14, 128, 72, 164, 134, 71, 124, 1, 0.994653
7, 1, bw, attraction, a-b-da, 5, 1, 2, 15, 132, 58, 135, 60, 60, 135, 3, 2.38398
7, 1, bw, attraction, a-b-da, 5, 1, 2, 15, 132, 58, 135, 60, 60, 135, 2, 1.86998
7, 1, bw, catch, NA, 999, 999, 2, 16, 172, 143, 136, 119, 121, 74, 1, 1.4575
7, 1, bw, catch, NA, 999, 999, 2, 16, 172, 143, 136, 119, 121, 74, 3, 1.14157
7, 1, bw, catch, NA, 999, 999, 2, 17, 139, 116, 159, 156, 135, 60, 2, 2.71048
7, 1, bw, catch, NA, 999, 999, 2, 17, 139, 116, 159, 156, 135, 60, 1, 1.10538
7, 1, bw, attraction, a-b-da, 9, 1, 2, 18, 135, 60, 129, 57, 60, 135, 3, 2.63458
7, 1, bw, attraction, a-b-da, 9, 1, 2, 18, 135, 60, 129, 57, 60, 135, 2, 1.27809
7, 1, bw, attraction, a-b-da, 2, 3, 2, 19, 193, 119, 120, 195, 195, 120, 2, 2.72908
7, 1, bw, attraction, a-b-da, 2, 3, 2, 19, 193, 119, 120, 195, 195, 120, 3, 1.99694
7, 1, bw, attraction, a-b-da, 5, 3, 2, 20, 190, 117, 195, 120, 120, 195, 3, 2.20333
7, 1, bw, attraction, a-b-da, 5, 3, 2, 20, 190, 117, 195, 120, 120, 195, 1, 1.05579
7, 1, bw, attraction, a-b-da, 9, 3, 2, 21, 186, 114, 195, 120, 120, 195, 3, 2.2747
7, 1, bw, attraction, a-b-da, 9, 3, 2, 21, 186, 114, 195, 120, 120, 195, 1, 1.41702
7, 1, bw, attraction, a-b-db, 14, 1, 2, 22, 56, 125, 60, 135, 135, 60, 2, 3.87594
7, 1, bw, attraction, a-b-db, 14, 1, 2, 22, 56, 125, 60, 135, 135, 60, 1, 2.26517
7, 1, bw, attraction, a-b-db, 5, 2, 2, 23, 90, 165, 165, 90, 88, 161, 3, 4.55406
7, 1, bw, attraction, a-b-db, 5, 2, 2, 23, 90, 165, 165, 90, 88, 161, 2, 1.49053
7, 1, bw, attraction, a-b-db, 2, 1, 2, 24, 60, 135, 59, 134, 135, 60, 1, 2.36414
7, 1, bw, attraction, a-b-db, 2, 1, 2, 24, 60, 135, 59, 134, 135, 60, 3, 1.39841
7, 1, bw, catch, NA, 999, 999, 2, 25, 128, 127, 127, 68, 122, 193, 3, 1.651
7, 1, bw, catch, NA, 999, 999, 2, 25, 128, 127, 127, 68, 122, 193, 2, 1.18209
7, 1, bw, filler, NA, 999, 999, 2, 26, 170, 61, 103, 128, 148, 105, 2, 1.92544
7, 1, bw, filler, NA, 999, 999, 2, 26, 170, 61, 103, 128, 148, 105, 1, 2.56541
7, 1, bw, filler, NA, 999, 999, 2, 27, 121, 120, 183, 174, 193, 68, 2, 1.8388
7, 1, bw, filler, NA, 999, 999, 2, 27, 121, 120, 183, 174, 193, 68, 1, 2.3161
7, 1, bw, attraction, a-b-db, 9, 3, 2, 28, 114, 186, 195, 120, 120, 195, 3, 2.22927
7, 1, bw, attraction, a-b-db, 9, 3, 2, 28, 114, 186, 195, 120, 120, 195, 1, 2.52121
7, 1, bw, filler, NA, 999, 999, 2, 29, 80, 81, 123, 180, 189, 194, 3, 1.8481
7, 1, bw, filler, NA, 999, 999, 2, 29, 80, 81, 123, 180, 189, 194, 1, 1.34364
7, 1, bw, attraction, a-b-da, 9, 2, 2, 30, 165, 90, 90, 165, 157, 86, 2, 4.04624
7, 1, bw, attraction, a-b-da, 9, 2, 2, 30, 165, 90, 90, 165, 157, 86, 3, 0.874642
7, 1, bw, filler, NA, 999, 999, 2, 31, 186, 95, 116, 169, 193, 173, 3, 1.58178
7, 1, bw, filler, NA, 999, 999, 2, 31, 186, 95, 116, 169, 193, 173, 1, 1.20456
7, 1, bw, attraction, a-b-da, 5, 2, 2, 32, 161, 88, 90, 165, 165, 90, 2, 2.00275
7, 1, bw, attraction, a-b-da, 5, 2, 2, 32, 161, 88, 90, 165, 165, 90, 1, 0.922837
7, 1, bw, attraction, a-b-db, 9, 1, 2, 33, 57, 129, 60, 135, 135, 60, 2, 3.01637
7, 1, bw, attraction, a-b-db, 9, 1, 2, 33, 57, 129, 60, 135, 135, 60, 3, 3.2073
7, 1, bw, attraction, a-b-db, 14, 2, 2, 34, 83, 153, 165, 90, 90, 165, 3, 4.61305
7, 1, bw, attraction, a-b-db, 14, 2, 2, 34, 83, 153, 165, 90, 90, 165, 1, 0.913963
7, 1, bw, attraction, a-b-da, 14, 3, 2, 35, 120, 195, 181, 111, 195, 120, 1, 1.36378
7, 1, bw, attraction, a-b-da, 14, 3, 2, 35, 120, 195, 181, 111, 195, 120, 2, 1.61883
7, 1, bw, attraction, a-b-da, 14, 1, 2, 36, 125, 56, 60, 135, 135, 60, 2, 1.83969
7, 1, bw, attraction, a-b-da, 14, 1, 2, 36, 125, 56, 60, 135, 135, 60, 1, 1.93532
7, 1, bw, attraction, a-b-da, 14, 2, 2, 37, 165, 90, 90, 165, 153, 83, 1, 1.65227
7, 1, bw, attraction, a-b-da, 14, 2, 2, 37, 165, 90, 90, 165, 153, 83, 3, 0.81188
7, 1, bw, attraction, a-b-db, 9, 1, 3, 1, 60, 135, 135, 60, 57, 129, 1, 2.22614
7, 1, bw, attraction, a-b-db, 9, 1, 3, 1, 60, 135, 135, 60, 57, 129, 2, 0.904079
7, 1, bw, attraction, a-b-db, 2, 3, 3, 2, 119, 193, 120, 195, 195, 120, 2, 1.92738
7, 1, bw, attraction, a-b-db, 2, 3, 3, 2, 119, 193, 120, 195, 195, 120, 3, 6.01175
7, 1, bw, attraction, a-b-db, 2, 1, 3, 3, 59, 134, 135, 60, 60, 135, 1, 9.02255
7, 1, bw, attraction, a-b-db, 2, 1, 3, 3, 59, 134, 135, 60, 60, 135, 3, 0.874011
7, 1, bw, attraction, a-b-db, 14, 2, 3, 4, 165, 90, 83, 153, 90, 165, 3, 2.84522
7, 1, bw, attraction, a-b-db, 14, 2, 3, 4, 165, 90, 83, 153, 90, 165, 2, 0.889222
7, 1, bw, attraction, a-b-db, 9, 3, 3, 5, 114, 186, 120, 195, 195, 120, 1, 2.38652
7, 1, bw, attraction, a-b-db, 9, 3, 3, 5, 114, 186, 120, 195, 195, 120, 3, 0.866701
7, 1, bw, attraction, a-b-db, 5, 3, 3, 6, 195, 120, 120, 195, 117, 190, 2, 1.95702
7, 1, bw, attraction, a-b-db, 5, 3, 3, 6, 195, 120, 120, 195, 117, 190, 3, 1.02415
7, 1, bw, filler, NA, 999, 999, 3, 7, 144, 156, 156, 163, 191, 158, 3, 1.9489
7, 1, bw, filler, NA, 999, 999, 3, 7, 144, 156, 156, 163, 191, 158, 1, 0.92627
7, 1, bw, attraction, a-b-db, 14, 3, 3, 8, 120, 195, 111, 181, 195, 120, 1, 2.31627
7, 1, bw, attraction, a-b-db, 14, 3, 3, 8, 120, 195, 111, 181, 195, 120, 3, 0.702284
7, 1, bw, attraction, a-b-da, 5, 3, 3, 9, 195, 120, 190, 117, 120, 195, 1, 1.80012
7, 1, bw, attraction, a-b-da, 5, 3, 3, 9, 195, 120, 190, 117, 120, 195, 2, 0.792473
7, 1, bw, filler, NA, 999, 999, 3, 10, 100, 88, 180, 57, 59, 147, 1, 6.76642
7, 1, bw, filler, NA, 999, 999, 3, 10, 100, 88, 180, 57, 59, 147, 3, 0.782362
7, 1, bw, filler, NA, 999, 999, 3, 11, 173, 122, 152, 145, 149, 158, 3, 1.76362
7, 1, bw, filler, NA, 999, 999, 3, 11, 173, 122, 152, 145, 149, 158, 1, 1.15735
7, 1, bw, catch, NA, 999, 999, 3, 12, 115, 140, 183, 132, 61, 134, 2, 1.24971
7, 1, bw, catch, NA, 999, 999, 3, 12, 115, 140, 183, 132, 61, 134, 3, 2.85703
7, 1, bw, catch, NA, 999, 999, 3, 13, 144, 111, 83, 112, 133, 182, 3, 1.81189
7, 1, bw, catch, NA, 999, 999, 3, 13, 144, 111, 83, 112, 133, 182, 2, 0.681749
7, 1, bw, attraction, a-b-db, 14, 1, 3, 14, 56, 125, 60, 135, 135, 60, 2, 4.67523
7, 1, bw, attraction, a-b-db, 14, 1, 3, 14, 56, 125, 60, 135, 135, 60, 3, 4.96112
7, 1, bw, filler, NA, 999, 999, 3, 15, 110, 73, 81, 63, 150, 115, 3, 2.58129
7, 1, bw, filler, NA, 999, 999, 3, 15, 110, 73, 81, 63, 150, 115, 2, 3.02073
7, 1, bw, attraction, a-b-da, 14, 2, 3, 16, 90, 165, 153, 83, 165, 90, 1, 3.20098
7, 1, bw, attraction, a-b-da, 14, 2, 3, 16, 90, 165, 153, 83, 165, 90, 2, 1.14388
7, 1, bw, attraction, a-b-da, 14, 3, 3, 17, 181, 111, 120, 195, 195, 120, 2, 3.10956
7, 1, bw, attraction, a-b-da, 14, 3, 3, 17, 181, 111, 120, 195, 195, 120, 1, 0.809589
7, 1, bw, attraction, a-b-da, 14, 1, 3, 18, 125, 56, 60, 135, 135, 60, 2, 2.55128
7, 1, bw, attraction, a-b-da, 14, 1, 3, 18, 125, 56, 60, 135, 135, 60, 1, 0.760909
7, 1, bw, attraction, a-b-da, 9, 2, 3, 19, 90, 165, 157, 86, 165, 90, 1, 5.88672
7, 1, bw, attraction, a-b-da, 9, 2, 3, 19, 90, 165, 157, 86, 165, 90, 3, 1.24978
7, 1, bw, attraction, a-b-da, 5, 1, 3, 20, 132, 58, 60, 135, 135, 60, 3, 2.65356
7, 1, bw, attraction, a-b-da, 5, 1, 3, 20, 132, 58, 60, 135, 135, 60, 2, 1.07253
7, 1, bw, attraction, a-b-da, 2, 1, 3, 21, 134, 59, 60, 135, 135, 60, 2, 2.3963
7, 1, bw, attraction, a-b-da, 2, 1, 3, 21, 134, 59, 60, 135, 135, 60, 3, 1.21164
7, 1, bw, filler, NA, 999, 999, 3, 22, 90, 187, 145, 111, 99, 139, 1, 1.37805
7, 1, bw, filler, NA, 999, 999, 3, 22, 90, 187, 145, 111, 99, 139, 3, 1.28158
7, 1, bw, attraction, a-b-da, 5, 2, 3, 23, 161, 88, 165, 90, 90, 165, 3, 2.2025
7, 1, bw, attraction, a-b-da, 5, 2, 3, 23, 161, 88, 165, 90, 90, 165, 2, 2.03508
7, 1, bw, attraction, a-b-db, 2, 2, 3, 24, 165, 90, 89, 163, 90, 165, 2, 2.0856
7, 1, bw, attraction, a-b-db, 2, 2, 3, 24, 165, 90, 89, 163, 90, 165, 1, 3.56185
7, 1, bw, filler, NA, 999, 999, 3, 25, 175, 161, 110, 165, 153, 96, 1, 1.37464
7, 1, bw, filler, NA, 999, 999, 3, 25, 175, 161, 110, 165, 153, 96, 3, 1.2562
7, 1, bw, attraction, a-b-db, 9, 2, 3, 26, 86, 157, 90, 165, 165, 90, 2, 3.7232
7, 1, bw, attraction, a-b-db, 9, 2, 3, 26, 86, 157, 90, 165, 165, 90, 3, 4.48693
7, 1, bw, filler, NA, 999, 999, 3, 27, 85, 145, 79, 191, 118, 77, 2, 1.82265
7, 1, bw, filler, NA, 999, 999, 3, 27, 85, 145, 79, 191, 118, 77, 3, 2.02227
7, 1, bw, attraction, a-b-da, 2, 3, 3, 28, 195, 120, 120, 195, 193, 119, 2, 6.79962
7, 1, bw, attraction, a-b-da, 2, 3, 3, 28, 195, 120, 120, 195, 193, 119, 3, 0.798317
7, 1, bw, filler, NA, 999, 999, 3, 29, 116, 84, 144, 64, 183, 124, 3, 2.33021
7, 1, bw, filler, NA, 999, 999, 3, 29, 116, 84, 144, 64, 183, 124, 2, 0.72609
7, 1, bw, attraction, a-b-da, 9, 3, 3, 30, 186, 114, 120, 195, 195, 120, 3, 2.3825
7, 1, bw, attraction, a-b-da, 9, 3, 3, 30, 186, 114, 120, 195, 195, 120, 2, 3.63925
7, 1, bw, attraction, a-b-da, 9, 1, 3, 31, 60, 135, 135, 60, 129, 57, 1, 1.7622
7, 1, bw, attraction, a-b-da, 9, 1, 3, 31, 60, 135, 135, 60, 129, 57, 2, 2.16106
7, 1, bw, attraction, a-b-db, 5, 2, 3, 32, 90, 165, 88, 161, 165, 90, 1, 1.31249
7, 1, bw, attraction, a-b-db, 5, 2, 3, 32, 90, 165, 88, 161, 165, 90, 3, 0.745789
7, 1, bw, filler, NA, 999, 999, 3, 33, 73, 173, 83, 72, 134, 69, 1, 1.21088
7, 1, bw, filler, NA, 999, 999, 3, 33, 73, 173, 83, 72, 134, 69, 2, 1.12167
7, 1, bw, catch, NA, 999, 999, 3, 34, 95, 160, 191, 124, 115, 80, 2, 1.3948
7, 1, bw, catch, NA, 999, 999, 3, 34, 95, 160, 191, 124, 115, 80, 3, 2.88192
7, 1, bw, attraction, a-b-da, 2, 2, 3, 35, 90, 165, 163, 89, 165, 90, 1, 1.91634
7, 1, bw, attraction, a-b-da, 2, 2, 3, 35, 90, 165, 163, 89, 165, 90, 3, 1.3172
7, 1, bw, filler, NA, 999, 999, 3, 36, 156, 86, 108, 106, 104, 110, 3, 2.28862
7, 1, bw, filler, NA, 999, 999, 3, 36, 156, 86, 108, 106, 104, 110, 1, 0.778479
7, 1, bw, attraction, a-b-db, 5, 1, 3, 37, 135, 60, 60, 135, 58, 132, 2, 2.52247
7, 1, bw, attraction, a-b-db, 5, 1, 3, 37, 135, 60, 60, 135, 58, 132, 1, 1.28157
7, 1, bw, attraction, a-b-db, 2, 3, 4, 1, 195, 120, 119, 193, 120, 195, 3, 1.37419
7, 1, bw, attraction, a-b-db, 2, 3, 4, 1, 195, 120, 119, 193, 120, 195, 1, 1.41433
7, 1, bw, catch, NA, 999, 999, 4, 2, 186, 129, 60, 135, 164, 91, 1, 1.26801
7, 1, bw, catch, NA, 999, 999, 4, 2, 186, 129, 60, 135, 164, 91, 2, 1.35881
7, 1, bw, attraction, a-b-da, 14, 1, 4, 3, 60, 135, 135, 60, 125, 56, 1, 2.63921
7, 1, bw, attraction, a-b-da, 14, 1, 4, 3, 60, 135, 135, 60, 125, 56, 3, 1.2919
7, 1, bw, attraction, a-b-db, 9, 1, 4, 4, 60, 135, 135, 60, 57, 129, 3, 1.8481
7, 1, bw, attraction, a-b-db, 9, 1, 4, 4, 60, 135, 135, 60, 57, 129, 2, 0.876097
7, 1, bw, attraction, a-b-db, 2, 2, 4, 5, 90, 165, 165, 90, 89, 163, 1, 2.08595
7, 1, bw, attraction, a-b-db, 2, 2, 4, 5, 90, 165, 165, 90, 89, 163, 3, 1.06634
7, 1, bw, filler, NA, 999, 999, 4, 6, 60, 175, 124, 81, 101, 87, 2, 6.5874
7, 1, bw, filler, NA, 999, 999, 4, 6, 60, 175, 124, 81, 101, 87, 1, 9.54598
7, 1, bw, attraction, a-b-da, 5, 2, 4, 7, 161, 88, 90, 165, 165, 90, 2, 2.93747
7, 1, bw, attraction, a-b-da, 5, 2, 4, 7, 161, 88, 90, 165, 165, 90, 1, 1.4097
7, 1, bw, filler, NA, 999, 999, 4, 8, 75, 128, 135, 86, 155, 150, 3, 1.07909
7, 1, bw, filler, NA, 999, 999, 4, 8, 75, 128, 135, 86, 155, 150, 2, 0.939156
7, 1, bw, attraction, a-b-db, 5, 2, 4, 9, 165, 90, 88, 161, 90, 165, 2, 3.81931
7, 1, bw, attraction, a-b-db, 5, 2, 4, 9, 165, 90, 88, 161, 90, 165, 1, 2.02235
7, 1, bw, filler, NA, 999, 999, 4, 10, 154, 63, 132, 66, 83, 156, 3, 1.8445
7, 1, bw, filler, NA, 999, 999, 4, 10, 154, 63, 132, 66, 83, 156, 2, 1.30575
7, 1, bw, filler, NA, 999, 999, 4, 11, 142, 96, 153, 174, 145, 160, 3, 1.24353
7, 1, bw, filler, NA, 999, 999, 4, 11, 142, 96, 153, 174, 145, 160, 1, 0.673865
7, 1, bw, attraction, a-b-da, 14, 3, 4, 12, 120, 195, 181, 111, 195, 120, 1, 1.40364
7, 1, bw, attraction, a-b-da, 14, 3, 4, 12, 120, 195, 181, 111, 195, 120, 2, 0.955304
7, 1, bw, attraction, a-b-da, 14, 2, 4, 13, 90, 165, 165, 90, 153, 83, 1, 2.74669
7, 1, bw, attraction, a-b-da, 14, 2, 4, 13, 90, 165, 165, 90, 153, 83, 3, 1.15695
7, 1, bw, attraction, a-b-db, 14, 2, 4, 14, 90, 165, 165, 90, 83, 153, 1, 1.43447
7, 1, bw, attraction, a-b-db, 14, 2, 4, 14, 90, 165, 165, 90, 83, 153, 3, 0.768465
7, 1, bw, attraction, a-b-da, 2, 1, 4, 15, 134, 59, 60, 135, 135, 60, 2, 1.46304
7, 1, bw, attraction, a-b-da, 2, 1, 4, 15, 134, 59, 60, 135, 135, 60, 3, 1.96294
7, 1, bw, attraction, a-b-db, 9, 3, 4, 16, 120, 195, 195, 120, 114, 186, 1, 4.4337
7, 1, bw, attraction, a-b-db, 9, 3, 4, 16, 120, 195, 195, 120, 114, 186, 2, 0.753045
7, 1, bw, filler, NA, 999, 999, 4, 17, 146, 137, 182, 143, 189, 173, 3, 1.35813
7, 1, bw, filler, NA, 999, 999, 4, 17, 146, 137, 182, 143, 189, 173, 1, 0.856147
7, 1, bw, attraction, a-b-db, 5, 3, 4, 18, 117, 190, 195, 120, 120, 195, 1, 2.55549
7, 1, bw, attraction, a-b-db, 5, 3, 4, 18, 117, 190, 195, 120, 120, 195, 3, 2.47793
7, 1, bw, attraction, a-b-db, 2, 1, 4, 19, 59, 134, 135, 60, 60, 135, 1, 2.90267
7, 1, bw, attraction, a-b-db, 2, 1, 4, 19, 59, 134, 135, 60, 60, 135, 2, 1.28928
7, 1, bw, attraction, a-b-db, 5, 1, 4, 20, 60, 135, 58, 132, 135, 60, 1, 2.05005
7, 1, bw, attraction, a-b-db, 5, 1, 4, 20, 60, 135, 58, 132, 135, 60, 2, 2.35165
7, 1, bw, attraction, a-b-da, 5, 1, 4, 21, 135, 60, 132, 58, 60, 135, 1, 2.29448
7, 1, bw, attraction, a-b-da, 5, 1, 4, 21, 135, 60, 132, 58, 60, 135, 3, 0.859168
7, 1, bw, filler, NA, 999, 999, 4, 22, 151, 89, 119, 121, 59, 184, 2, 1.9897
7, 1, bw, filler, NA, 999, 999, 4, 22, 151, 89, 119, 121, 59, 184, 3, 3.90892
7, 1, bw, catch, NA, 999, 999, 4, 23, 111, 144, 105, 90, 124, 191, 3, 1.21385
7, 1, bw, catch, NA, 999, 999, 4, 23, 111, 144, 105, 90, 124, 191, 2, 1.71506
7, 1, bw, catch, NA, 999, 999, 4, 24, 85, 110, 178, 137, 137, 118, 2, 1.23515
7, 1, bw, catch, NA, 999, 999, 4, 24, 85, 110, 178, 137, 137, 118, 1, 0.859843
7, 1, bw, attraction, a-b-da, 9, 2, 4, 25, 165, 90, 90, 165, 157, 86, 2, 1.96693
7, 1, bw, attraction, a-b-da, 9, 2, 4, 25, 165, 90, 90, 165, 157, 86, 3, 3.53437
7, 1, bw, attraction, a-b-da, 2, 2, 4, 26, 90, 165, 165, 90, 163, 89, 1, 2.93984
7, 1, bw, attraction, a-b-da, 2, 2, 4, 26, 90, 165, 165, 90, 163, 89, 2, 1.49535
7, 1, bw, attraction, a-b-db, 14, 3, 4, 27, 195, 120, 120, 195, 111, 181, 2, 3.10431
7, 1, bw, attraction, a-b-db, 14, 3, 4, 27, 195, 120, 120, 195, 111, 181, 3, 2.60211
7, 1, bw, attraction, a-b-db, 9, 2, 4, 28, 165, 90, 86, 157, 90, 165, 3, 3.64856
7, 1, bw, attraction, a-b-db, 9, 2, 4, 28, 165, 90, 86, 157, 90, 165, 1, 1.05462
7, 1, bw, attraction, a-b-da, 9, 3, 4, 29, 195, 120, 186, 114, 120, 195, 1, 1.84139
7, 1, bw, attraction, a-b-da, 9, 3, 4, 29, 195, 120, 186, 114, 120, 195, 2, 1.2289
7, 1, bw, attraction, a-b-da, 9, 1, 4, 30, 135, 60, 60, 135, 129, 57, 2, 1.80209
7, 1, bw, attraction, a-b-da, 9, 1, 4, 30, 135, 60, 60, 135, 129, 57, 3, 0.715176
7, 1, bw, filler, NA, 999, 999, 4, 31, 181, 172, 132, 129, 125, 148, 1, 1.07412
7, 1, bw, filler, NA, 999, 999, 4, 31, 181, 172, 132, 129, 125, 148, 2, 0.623061
7, 1, bw, attraction, a-b-da, 5, 3, 4, 32, 120, 195, 190, 117, 195, 120, 3, 2.45148
7, 1, bw, attraction, a-b-da, 5, 3, 4, 32, 120, 195, 190, 117, 195, 120, 1, 0.863718
7, 1, bw, attraction, a-b-db, 14, 1, 4, 33, 135, 60, 56, 125, 60, 135, 2, 1.56516
7, 1, bw, attraction, a-b-db, 14, 1, 4, 33, 135, 60, 56, 125, 60, 135, 1, 0.757282
7, 1, bw, attraction, a-b-da, 2, 3, 4, 34, 193, 119, 195, 120, 120, 195, 1, 1.50807
7, 1, bw, attraction, a-b-da, 2, 3, 4, 34, 193, 119, 195, 120, 120, 195, 2, 0.66134
7, 1, bw, filler, NA, 999, 999, 4, 35, 177, 193, 108, 77, 96, 164, 1, 1.44242
7, 1, bw, filler, NA, 999, 999, 4, 35, 177, 193, 108, 77, 96, 164, 2, 4.53554
7, 1, bw, filler, NA, 999, 999, 4, 36, 147, 110, 82, 152, 151, 124, 3, 3.98996
7, 1, bw, filler, NA, 999, 999, 4, 36, 147, 110, 82, 152, 151, 124, 2, 1.10363
7, 1, bw, filler, NA, 999, 999, 4, 37, 81, 95, 119, 158, 89, 101, 2, 1.15886
7, 1, bw, filler, NA, 999, 999, 4, 37, 81, 95, 119, 158, 89, 101, 1, 1.3205
7, 1, bw, attraction, a-b-db, 9, 2, 5, 1, 165, 90, 86, 157, 90, 165, 2, 7.65667
7, 1, bw, attraction, a-b-db, 9, 2, 5, 1, 165, 90, 86, 157, 90, 165, 1, 0.659168
7, 1, bw, attraction, a-b-db, 5, 3, 5, 2, 117, 190, 195, 120, 120, 195, 3, 1.12849
7, 1, bw, attraction, a-b-db, 5, 3, 5, 2, 117, 190, 195, 120, 120, 195, 1, 0.888059
7, 1, bw, attraction, a-b-da, 2, 2, 5, 3, 163, 89, 90, 165, 165, 90, 2, 1.12163
7, 1, bw, attraction, a-b-da, 2, 2, 5, 3, 163, 89, 90, 165, 165, 90, 1, 2.77245
7, 1, bw, attraction, a-b-da, 14, 1, 5, 4, 125, 56, 135, 60, 60, 135, 2, 1.40117
7, 1, bw, attraction, a-b-da, 14, 1, 5, 4, 125, 56, 135, 60, 60, 135, 1, 0.698029
7, 1, bw, attraction, a-b-db, 9, 1, 5, 5, 57, 129, 135, 60, 60, 135, 3, 1.22078
7, 1, bw, attraction, a-b-db, 9, 1, 5, 5, 57, 129, 135, 60, 60, 135, 1, 0.890763
7, 1, bw, filler, NA, 999, 999, 5, 6, 149, 67, 95, 112, 118, 103, 3, 1.14106
7, 1, bw, filler, NA, 999, 999, 5, 6, 149, 67, 95, 112, 118, 103, 2, 1.02192
7, 1, bw, attraction, a-b-db, 5, 1, 5, 7, 60, 135, 58, 132, 135, 60, 1, 1.47573
7, 1, bw, attraction, a-b-db, 5, 1, 5, 7, 60, 135, 58, 132, 135, 60, 3, 0.702646
7, 1, bw, attraction, a-b-db, 14, 2, 5, 8, 90, 165, 165, 90, 83, 153, 1, 1.4014
7, 1, bw, attraction, a-b-db, 14, 2, 5, 8, 90, 165, 165, 90, 83, 153, 3, 1.09473
7, 1, bw, attraction, a-b-da, 5, 2, 5, 9, 90, 165, 165, 90, 161, 88, 1, 1.09057
7, 1, bw, attraction, a-b-da, 5, 2, 5, 9, 90, 165, 165, 90, 161, 88, 2, 0.736085
7, 1, bw, filler, NA, 999, 999, 5, 10, 121, 114, 190, 151, 89, 85, 2, 0.983162
7, 1, bw, filler, NA, 999, 999, 5, 10, 121, 114, 190, 151, 89, 85, 3, 0.592036
7, 1, bw, attraction, a-b-da, 14, 2, 5, 11, 90, 165, 165, 90, 153, 83, 1, 1.02759
7, 1, bw, attraction, a-b-da, 14, 2, 5, 11, 90, 165, 165, 90, 153, 83, 2, 1.69058
7, 1, bw, attraction, a-b-db, 2, 2, 5, 12, 89, 163, 165, 90, 90, 165, 1, 2.14154
7, 1, bw, attraction, a-b-db, 2, 2, 5, 12, 89, 163, 165, 90, 90, 165, 2, 1.05443
7, 1, bw, attraction, a-b-da, 9, 1, 5, 13, 135, 60, 129, 57, 60, 135, 3, 1.59462
7, 1, bw, attraction, a-b-da, 9, 1, 5, 13, 135, 60, 129, 57, 60, 135, 2, 0.753904
7, 1, bw, filler, NA, 999, 999, 5, 14, 191, 96, 144, 178, 59, 94, 2, 0.993733
7, 1, bw, filler, NA, 999, 999, 5, 14, 191, 96, 144, 178, 59, 94, 3, 0.648829
7, 1, bw, attraction, a-b-da, 5, 1, 5, 15, 60, 135, 135, 60, 132, 58, 1, 1.42053
7, 1, bw, attraction, a-b-da, 5, 1, 5, 15, 60, 135, 135, 60, 132, 58, 2, 1.82862
7, 1, bw, filler, NA, 999, 999, 5, 16, 174, 148, 117, 152, 127, 150, 1, 1.1037
7, 1, bw, filler, NA, 999, 999, 5, 16, 174, 148, 117, 152, 127, 150, 3, 1.26094
7, 1, bw, attraction, a-b-da, 2, 3, 5, 17, 193, 119, 195, 120, 120, 195, 3, 1.83702
7, 1, bw, attraction, a-b-da, 2, 3, 5, 17, 193, 119, 195, 120, 120, 195, 1, 1.06015
7, 1, bw, catch, NA, 999, 999, 5, 18, 193, 122, 150, 105, 133, 62, 1, 1.52721
7, 1, bw, catch, NA, 999, 999, 5, 18, 193, 122, 150, 105, 133, 62, 3, 0.729818
7, 1, bw, filler, NA, 999, 999, 5, 19, 191, 158, 58, 161, 141, 181, 1, 1.05808
7, 1, bw, filler, NA, 999, 999, 5, 19, 191, 158, 58, 161, 141, 181, 3, 0.702855
7, 1, bw, attraction, a-b-db, 5, 2, 5, 20, 90, 165, 165, 90, 88, 161, 1, 2.56906
7, 1, bw, attraction, a-b-db, 5, 2, 5, 20, 90, 165, 165, 90, 88, 161, 3, 0.857265
7, 1, bw, filler, NA, 999, 999, 5, 21, 151, 89, 169, 111, 74, 187, 2, 1.46907
7, 1, bw, filler, NA, 999, 999, 5, 21, 151, 89, 169, 111, 74, 187, 3, 1.27363
7, 1, bw, attraction, a-b-da, 9, 2, 5, 22, 157, 86, 165, 90, 90, 165, 2, 1.18018
7, 1, bw, attraction, a-b-da, 9, 2, 5, 22, 157, 86, 165, 90, 90, 165, 1, 1.05969
7, 1, bw, filler, NA, 999, 999, 5, 23, 143, 129, 158, 90, 101, 117, 1, 1.04743
7, 1, bw, filler, NA, 999, 999, 5, 23, 143, 129, 158, 90, 101, 117, 3, 0.57375
7, 1, bw, attraction, a-b-da, 9, 3, 5, 24, 186, 114, 195, 120, 120, 195, 2, 1.85191
7, 1, bw, attraction, a-b-da, 9, 3, 5, 24, 186, 114, 195, 120, 120, 195, 3, 0.624489
7, 1, bw, attraction, a-b-db, 2, 3, 5, 25, 120, 195, 195, 120, 119, 193, 1, 1.06825
7, 1, bw, attraction, a-b-db, 2, 3, 5, 25, 120, 195, 195, 120, 119, 193, 3, 0.62573
7, 1, bw, filler, NA, 999, 999, 5, 26, 97, 142, 83, 80, 69, 115, 1, 0.98928
7, 1, bw, filler, NA, 999, 999, 5, 26, 97, 142, 83, 80, 69, 115, 2, 0.765372
7, 1, bw, attraction, a-b-db, 14, 3, 5, 27, 120, 195, 111, 181, 195, 120, 1, 2.85163
7, 1, bw, attraction, a-b-db, 14, 3, 5, 27, 120, 195, 111, 181, 195, 120, 2, 1.68231
7, 1, bw, attraction, a-b-db, 9, 3, 5, 28, 120, 195, 114, 186, 195, 120, 1, 1.17164
7, 1, bw, attraction, a-b-db, 9, 3, 5, 28, 120, 195, 114, 186, 195, 120, 2, 1.14751
7, 1, bw, catch, NA, 999, 999, 5, 29, 67, 128, 169, 146, 154, 101, 2, 1.01037
7, 1, bw, catch, NA, 999, 999, 5, 29, 67, 128, 169, 146, 154, 101, 1, 0.594302
7, 1, bw, attraction, a-b-da, 5, 3, 5, 30, 190, 117, 120, 195, 195, 120, 2, 1.05645
7, 1, bw, attraction, a-b-da, 5, 3, 5, 30, 190, 117, 120, 195, 195, 120, 1, 0.710522
7, 1, bw, filler, NA, 999, 999, 5, 31, 83, 71, 154, 187, 81, 75, 2, 0.905666
7, 1, bw, filler, NA, 999, 999, 5, 31, 83, 71, 154, 187, 81, 75, 3, 0.89987
7, 1, bw, attraction, a-b-da, 14, 3, 5, 32, 195, 120, 120, 195, 181, 111, 1, 1.2854
7, 1, bw, attraction, a-b-da, 14, 3, 5, 32, 195, 120, 120, 195, 181, 111, 3, 0.831122
7, 1, bw, attraction, a-b-db, 2, 1, 5, 33, 59, 134, 135, 60, 60, 135, 3, 1.70888
7, 1, bw, attraction, a-b-db, 2, 1, 5, 33, 59, 134, 135, 60, 60, 135, 2, 0.646259
7, 1, bw, catch, NA, 999, 999, 5, 34, 100, 155, 133, 62, 148, 167, 3, 1.18855
7, 1, bw, catch, NA, 999, 999, 5, 34, 100, 155, 133, 62, 148, 167, 2, 0.642696
7, 1, bw, filler, NA, 999, 999, 5, 35, 99, 102, 181, 83, 124, 84, 2, 2.16845
7, 1, bw, filler, NA, 999, 999, 5, 35, 99, 102, 181, 83, 124, 84, 3, 1.39107
7, 1, bw, attraction, a-b-da, 2, 1, 5, 36, 60, 135, 134, 59, 135, 60, 1, 2.74212
7, 1, bw, attraction, a-b-da, 2, 1, 5, 36, 60, 135, 134, 59, 135, 60, 2, 2.87226
7, 1, bw, attraction, a-b-db, 14, 1, 5, 37, 56, 125, 60, 135, 135, 60, 2, 1.16989
7, 1, bw, attraction, a-b-db, 14, 1, 5, 37, 56, 125, 60, 135, 135, 60, 3, 1.44345
7, 1, bw, attraction, a-b-db, 14, 2, 6, 1, 90, 165, 165, 90, 83, 153, 1, 2.73507
7, 1, bw, attraction, a-b-db, 14, 2, 6, 1, 90, 165, 165, 90, 83, 153, 3, 1.23227
7, 1, bw, catch, NA, 999, 999, 6, 2, 150, 105, 85, 110, 169, 146, 3, 3.56366
7, 1, bw, catch, NA, 999, 999, 6, 2, 150, 105, 85, 110, 169, 146, 2, 2.07601
7, 1, bw, attraction, a-b-da, 9, 1, 6, 3, 135, 60, 129, 57, 60, 135, 3, 1.04431
7, 1, bw, attraction, a-b-da, 9, 1, 6, 3, 135, 60, 129, 57, 60, 135, 1, 0.698539
7, 1, bw, attraction, a-b-da, 5, 2, 6, 4, 161, 88, 165, 90, 90, 165, 3, 1.40478
7, 1, bw, attraction, a-b-da, 5, 2, 6, 4, 161, 88, 165, 90, 90, 165, 1, 0.668571
7, 1, bw, filler, NA, 999, 999, 6, 5, 175, 166, 176, 170, 133, 96, 2, 1.3444
7, 1, bw, filler, NA, 999, 999, 6, 5, 175, 166, 176, 170, 133, 96, 3, 0.704475
7, 1, bw, attraction, a-b-db, 9, 3, 6, 6, 114, 186, 120, 195, 195, 120, 2, 2.22516
7, 1, bw, attraction, a-b-db, 9, 3, 6, 6, 114, 186, 120, 195, 195, 120, 3, 0.608729
7, 1, bw, attraction, a-b-da, 5, 3, 6, 7, 190, 117, 195, 120, 120, 195, 3, 2.3599
7, 1, bw, attraction, a-b-da, 5, 3, 6, 7, 190, 117, 195, 120, 120, 195, 2, 0.671383
7, 1, bw, attraction, a-b-db, 14, 3, 6, 8, 111, 181, 195, 120, 120, 195, 3, 1.12268
7, 1, bw, attraction, a-b-db, 14, 3, 6, 8, 111, 181, 195, 120, 120, 195, 1, 0.787941
7, 1, bw, attraction, a-b-db, 9, 2, 6, 9, 90, 165, 86, 157, 165, 90, 1, 3.59609
7, 1, bw, attraction, a-b-db, 9, 2, 6, 9, 90, 165, 86, 157, 165, 90, 2, 0.529243
7, 1, bw, attraction, a-b-db, 2, 2, 6, 10, 165, 90, 90, 165, 89, 163, 3, 1.17804
7, 1, bw, attraction, a-b-db, 2, 2, 6, 10, 165, 90, 90, 165, 89, 163, 1, 0.763915
7, 1, bw, attraction, a-b-da, 9, 3, 6, 11, 186, 114, 195, 120, 120, 195, 2, 1.21844
7, 1, bw, attraction, a-b-da, 9, 3, 6, 11, 186, 114, 195, 120, 120, 195, 3, 0.823601
7, 1, bw, catch, NA, 999, 999, 6, 12, 175, 140, 127, 68, 92, 163, 1, 1.03816
7, 1, bw, catch, NA, 999, 999, 6, 12, 175, 140, 127, 68, 92, 163, 2, 1.12163
7, 1, bw, filler, NA, 999, 999, 6, 13, 89, 137, 80, 98, 88, 180, 3, 1.06856
7, 1, bw, filler, NA, 999, 999, 6, 13, 89, 137, 80, 98, 88, 180, 2, 1.11434
7, 1, bw, filler, NA, 999, 999, 6, 14, 159, 189, 125, 167, 118, 96, 1, 1.44987
7, 1, bw, filler, NA, 999, 999, 6, 14, 159, 189, 125, 167, 118, 96, 3, 1.02254
7, 1, bw, attraction, a-b-da, 9, 2, 6, 15, 165, 90, 90, 165, 157, 86, 3, 1.87532
7, 1, bw, attraction, a-b-da, 9, 2, 6, 15, 165, 90, 90, 165, 157, 86, 1, 1.0976
7, 1, bw, attraction, a-b-da, 14, 3, 6, 16, 120, 195, 181, 111, 195, 120, 3, 1.88852
7, 1, bw, attraction, a-b-da, 14, 3, 6, 16, 120, 195, 181, 111, 195, 120, 1, 2.19617
7, 1, bw, filler, NA, 999, 999, 6, 17, 72, 75, 111, 146, 179, 64, 1, 2.94922
7, 1, bw, filler, NA, 999, 999, 6, 17, 72, 75, 111, 146, 179, 64, 2, 1.16412
7, 1, bw, attraction, a-b-db, 2, 3, 6, 18, 120, 195, 119, 193, 195, 120, 1, 1.08329
7, 1, bw, attraction, a-b-db, 2, 3, 6, 18, 120, 195, 119, 193, 195, 120, 3, 1.15828
7, 1, bw, attraction, a-b-db, 9, 1, 6, 19, 135, 60, 60, 135, 57, 129, 2, 1.53644
7, 1, bw, attraction, a-b-db, 9, 1, 6, 19, 135, 60, 60, 135, 57, 129, 1, 1.82268
7, 1, bw, attraction, a-b-da, 5, 1, 6, 20, 132, 58, 135, 60, 60, 135, 3, 1.46879
7, 1, bw, attraction, a-b-da, 5, 1, 6, 20, 132, 58, 135, 60, 60, 135, 2, 0.847699
7, 1, bw, attraction, a-b-da, 14, 2, 6, 21, 153, 83, 165, 90, 90, 165, 3, 1.66936
7, 1, bw, attraction, a-b-da, 14, 2, 6, 21, 153, 83, 165, 90, 90, 165, 1, 0.834687
7, 1, bw, attraction, a-b-db, 14, 1, 6, 22, 135, 60, 56, 125, 60, 135, 3, 1.55184
7, 1, bw, attraction, a-b-db, 14, 1, 6, 22, 135, 60, 56, 125, 60, 135, 1, 0.767839
7, 1, bw, catch, NA, 999, 999, 6, 23, 82, 113, 117, 138, 173, 142, 3, 1.4706
7, 1, bw, catch, NA, 999, 999, 6, 23, 82, 113, 117, 138, 173, 142, 1, 1.02608
7, 1, bw, attraction, a-b-da, 14, 1, 6, 24, 60, 135, 135, 60, 125, 56, 1, 1.19094
7, 1, bw, attraction, a-b-da, 14, 1, 6, 24, 60, 135, 135, 60, 125, 56, 2, 1.2946
7, 1, bw, attraction, a-b-db, 2, 1, 6, 25, 135, 60, 60, 135, 59, 134, 3, 1.32901
7, 1, bw, attraction, a-b-db, 2, 1, 6, 25, 135, 60, 60, 135, 59, 134, 1, 1.30613
7, 1, bw, attraction, a-b-da, 2, 2, 6, 26, 163, 89, 165, 90, 90, 165, 3, 1.25922
7, 1, bw, attraction, a-b-da, 2, 2, 6, 26, 163, 89, 165, 90, 90, 165, 1, 0.879224
7, 1, bw, filler, NA, 999, 999, 6, 27, 112, 133, 58, 173, 118, 119, 3, 1.04256
7, 1, bw, filler, NA, 999, 999, 6, 27, 112, 133, 58, 173, 118, 119, 1, 0.873025
7, 1, bw, filler, NA, 999, 999, 6, 28, 56, 167, 148, 158, 152, 178, 3, 1.26003
7, 1, bw, filler, NA, 999, 999, 6, 28, 56, 167, 148, 158, 152, 178, 1, 0.94575
7, 1, bw, attraction, a-b-db, 5, 3, 6, 29, 120, 195, 117, 190, 195, 120, 1, 3.28101
7, 1, bw, attraction, a-b-db, 5, 3, 6, 29, 120, 195, 117, 190, 195, 120, 3, 0.684112
7, 1, bw, attraction, a-b-da, 2, 1, 6, 30, 135, 60, 60, 135, 134, 59, 2, 1.42444
7, 1, bw, attraction, a-b-da, 2, 1, 6, 30, 135, 60, 60, 135, 134, 59, 1, 0.653393
7, 1, bw, filler, NA, 999, 999, 6, 31, 106, 138, 86, 59, 132, 86, 1, 1.25654
7, 1, bw, filler, NA, 999, 999, 6, 31, 106, 138, 86, 59, 132, 86, 2, 1.21228
7, 1, bw, attraction, a-b-da, 2, 3, 6, 32, 195, 120, 193, 119, 120, 195, 3, 3.93172
7, 1, bw, attraction, a-b-da, 2, 3, 6, 32, 195, 120, 193, 119, 120, 195, 2, 0.72987
7, 1, bw, filler, NA, 999, 999, 6, 33, 58, 139, 165, 144, 108, 132, 2, 1.09192
7, 1, bw, filler, NA, 999, 999, 6, 33, 58, 139, 165, 144, 108, 132, 1, 0.671899
7, 1, bw, filler, NA, 999, 999, 6, 34, 88, 175, 110, 114, 190, 103, 3, 7.73077
7, 1, bw, filler, NA, 999, 999, 6, 34, 88, 175, 110, 114, 190, 103, 2, 0.941151
7, 1, bw, attraction, a-b-db, 5, 2, 6, 35, 90, 165, 88, 161, 165, 90, 2, 2.46714
7, 1, bw, attraction, a-b-db, 5, 2, 6, 35, 90, 165, 88, 161, 165, 90, 3, 1.07812
7, 1, bw, filler, NA, 999, 999, 6, 36, 160, 193, 96, 194, 115, 151, 1, 1.027
7, 1, bw, filler, NA, 999, 999, 6, 36, 160, 193, 96, 194, 115, 151, 3, 0.719976
7, 1, bw, attraction, a-b-db, 5, 1, 6, 37, 135, 60, 58, 132, 60, 135, 3, 2.20125
7, 1, bw, attraction, a-b-db, 5, 1, 6, 37, 135, 60, 58, 132, 60, 135, 1, 0.751322
7, 1, bw, filler, NA, 999, 999, 7, 1, 143, 94, 69, 102, 124, 102, 3, 1.0472
7, 1, bw, filler, NA, 999, 999, 7, 1, 143, 94, 69, 102, 124, 102, 2, 0.701586
7, 1, bw, catch, NA, 999, 999, 7, 2, 72, 123, 136, 119, 176, 139, 3, 1.04721
7, 1, bw, catch, NA, 999, 999, 7, 2, 72, 123, 136, 119, 176, 139, 1, 0.733099
7, 1, bw, attraction, a-b-da, 9, 2, 7, 3, 90, 165, 165, 90, 157, 86, 1, 2.34933
7, 1, bw, attraction, a-b-da, 9, 2, 7, 3, 90, 165, 165, 90, 157, 86, 3, 0.546648
7, 1, bw, attraction, a-b-da, 14, 2, 7, 4, 90, 165, 165, 90, 153, 83, 2, 3.8218
7, 1, bw, attraction, a-b-da, 14, 2, 7, 4, 90, 165, 165, 90, 153, 83, 3, 0.756544
7, 1, bw, attraction, a-b-db, 9, 1, 7, 5, 60, 135, 57, 129, 135, 60, 1, 1.97223
7, 1, bw, attraction, a-b-db, 9, 1, 7, 5, 60, 135, 57, 129, 135, 60, 2, 1.97123
7, 1, bw, attraction, a-b-da, 14, 1, 7, 6, 60, 135, 125, 56, 135, 60, 1, 1.50556
7, 1, bw, attraction, a-b-da, 14, 1, 7, 6, 60, 135, 125, 56, 135, 60, 2, 0.802553
7, 1, bw, attraction, a-b-db, 5, 3, 7, 7, 117, 190, 195, 120, 120, 195, 3, 1.23432
7, 1, bw, attraction, a-b-db, 5, 3, 7, 7, 117, 190, 195, 120, 120, 195, 2, 0.958331
7, 1, bw, attraction, a-b-db, 14, 1, 7, 8, 60, 135, 135, 60, 56, 125, 1, 1.471
7, 1, bw, attraction, a-b-db, 14, 1, 7, 8, 60, 135, 135, 60, 56, 125, 2, 0.698883
7, 1, bw, filler, NA, 999, 999, 7, 9, 165, 92, 118, 59, 99, 105, 3, 2.66173
7, 1, bw, filler, NA, 999, 999, 7, 9, 165, 92, 118, 59, 99, 105, 2, 0.783883
7, 1, bw, filler, NA, 999, 999, 7, 10, 106, 147, 97, 193, 180, 103, 2, 2.39174
7, 1, bw, filler, NA, 999, 999, 7, 10, 106, 147, 97, 193, 180, 103, 1, 0.622838
7, 1, bw, attraction, a-b-db, 5, 2, 7, 11, 165, 90, 88, 161, 90, 165, 3, 2.16582
7, 1, bw, attraction, a-b-db, 5, 2, 7, 11, 165, 90, 88, 161, 90, 165, 1, 0.643909
7, 1, bw, filler, NA, 999, 999, 7, 12, 188, 102, 133, 96, 63, 174, 1, 1.51911
7, 1, bw, filler, NA, 999, 999, 7, 12, 188, 102, 133, 96, 63, 174, 3, 0.67445
7, 1, bw, catch, NA, 999, 999, 7, 13, 136, 119, 177, 138, 64, 131, 2, 1.45946
7, 1, bw, catch, NA, 999, 999, 7, 13, 136, 119, 177, 138, 64, 131, 3, 0.651168
7, 1, bw, attraction, a-b-da, 5, 3, 7, 14, 190, 117, 195, 120, 120, 195, 3, 1.35868
7, 1, bw, attraction, a-b-da, 5, 3, 7, 14, 190, 117, 195, 120, 120, 195, 1, 0.647797
7, 1, bw, attraction, a-b-da, 14, 3, 7, 15, 195, 120, 120, 195, 181, 111, 2, 1.52166
7, 1, bw, attraction, a-b-da, 14, 3, 7, 15, 195, 120, 120, 195, 181, 111, 3, 0.621812
7, 1, bw, attraction, a-b-db, 2, 2, 7, 16, 89, 163, 90, 165, 165, 90, 1, 1.80162
7, 1, bw, attraction, a-b-db, 2, 2, 7, 16, 89, 163, 90, 165, 165, 90, 3, 0.584347
7, 1, bw, attraction, a-b-db, 9, 3, 7, 17, 195, 120, 114, 186, 120, 195, 2, 1.00058
7, 1, bw, attraction, a-b-db, 9, 3, 7, 17, 195, 120, 114, 186, 120, 195, 1, 1.08661
7, 1, bw, filler, NA, 999, 999, 7, 18, 169, 105, 141, 84, 130, 66, 1, 1.39322
7, 1, bw, filler, NA, 999, 999, 7, 18, 169, 105, 141, 84, 130, 66, 3, 0.650443
7, 1, bw, attraction, a-b-da, 2, 1, 7, 19, 134, 59, 60, 135, 135, 60, 2, 1.96393
7, 1, bw, attraction, a-b-da, 2, 1, 7, 19, 134, 59, 60, 135, 135, 60, 1, 0.979837
7, 1, bw, filler, NA, 999, 999, 7, 20, 184, 71, 124, 131, 191, 80, 2, 1.09955
7, 1, bw, filler, NA, 999, 999, 7, 20, 184, 71, 124, 131, 191, 80, 1, 0.661127
7, 1, bw, attraction, a-b-da, 2, 2, 7, 21, 90, 165, 163, 89, 165, 90, 1, 3.75504
7, 1, bw, attraction, a-b-da, 2, 2, 7, 21, 90, 165, 163, 89, 165, 90, 3, 0.713773
7, 1, bw, attraction, a-b-da, 9, 3, 7, 22, 195, 120, 186, 114, 120, 195, 3, 1.12402
7, 1, bw, attraction, a-b-da, 9, 3, 7, 22, 195, 120, 186, 114, 120, 195, 2, 0.749693
7, 1, bw, attraction, a-b-da, 2, 3, 7, 23, 120, 195, 193, 119, 195, 120, 1, 1.55599
7, 1, bw, attraction, a-b-da, 2, 3, 7, 23, 120, 195, 193, 119, 195, 120, 3, 0.630318
7, 1, bw, filler, NA, 999, 999, 7, 24, 175, 101, 188, 123, 115, 172, 1, 2.34091
7, 1, bw, filler, NA, 999, 999, 7, 24, 175, 101, 188, 123, 115, 172, 2, 0.837758
7, 1, bw, attraction, a-b-db, 14, 2, 7, 25, 165, 90, 90, 165, 83, 153, 2, 1.04126
7, 1, bw, attraction, a-b-db, 14, 2, 7, 25, 165, 90, 90, 165, 83, 153, 3, 0.696808
7, 1, bw, attraction, a-b-da, 9, 1, 7, 26, 135, 60, 60, 135, 129, 57, 2, 1.13001
7, 1, bw, attraction, a-b-da, 9, 1, 7, 26, 135, 60, 60, 135, 129, 57, 3, 0.683701
7, 1, bw, attraction, a-b-da, 5, 1, 7, 27, 60, 135, 135, 60, 132, 58, 1, 1.56636
7, 1, bw, attraction, a-b-da, 5, 1, 7, 27, 60, 135, 135, 60, 132, 58, 3, 0.660684
7, 1, bw, attraction, a-b-db, 2, 1, 7, 28, 59, 134, 135, 60, 60, 135, 1, 1.17763
7, 1, bw, attraction, a-b-db, 2, 1, 7, 28, 59, 134, 135, 60, 60, 135, 2, 0.610698
7, 1, bw, attraction, a-b-db, 5, 1, 7, 29, 135, 60, 58, 132, 60, 135, 2, 1.10377
7, 1, bw, attraction, a-b-db, 5, 1, 7, 29, 135, 60, 58, 132, 60, 135, 1, 0.840736
7, 1, bw, attraction, a-b-db, 2, 3, 7, 30, 195, 120, 120, 195, 119, 193, 2, 1.07083
7, 1, bw, attraction, a-b-db, 2, 3, 7, 30, 195, 120, 120, 195, 119, 193, 1, 0.628876
7, 1, bw, attraction, a-b-db, 9, 2, 7, 31, 165, 90, 90, 165, 86, 157, 2, 1.44032
7, 1, bw, attraction, a-b-db, 9, 2, 7, 31, 165, 90, 90, 165, 86, 157, 1, 0.629448
7, 1, bw, filler, NA, 999, 999, 7, 32, 140, 75, 147, 160, 146, 106, 2, 1.843
7, 1, bw, filler, NA, 999, 999, 7, 32, 140, 75, 147, 160, 146, 106, 1, 1.20792
7, 1, bw, filler, NA, 999, 999, 7, 33, 133, 186, 72, 136, 126, 85, 1, 1.17373
7, 1, bw, filler, NA, 999, 999, 7, 33, 133, 186, 72, 136, 126, 85, 2, 0.646616
7, 1, bw, attraction, a-b-db, 14, 3, 7, 34, 111, 181, 195, 120, 120, 195, 2, 2.11418
7, 1, bw, attraction, a-b-db, 14, 3, 7, 34, 111, 181, 195, 120, 120, 195, 1, 1.84314
7, 1, bw, catch, NA, 999, 999, 7, 35, 192, 123, 97, 98, 126, 129, 1, 1.31935
7, 1, bw, catch, NA, 999, 999, 7, 35, 192, 123, 97, 98, 126, 129, 2, 0.698751
7, 1, bw, filler, NA, 999, 999, 7, 36, 150, 139, 185, 168, 157, 96, 2, 1.116
7, 1, bw, filler, NA, 999, 999, 7, 36, 150, 139, 185, 168, 157, 96, 3, 1.50294
7, 1, bw, attraction, a-b-da, 5, 2, 7, 37, 165, 90, 90, 165, 161, 88, 2, 1.12698
7, 1, bw, attraction, a-b-da, 5, 2, 7, 37, 165, 90, 90, 165, 161, 88, 1, 0.673004
7, 1, bw, attraction, a-b-db, 5, 2, 8, 1, 165, 90, 90, 165, 88, 161, 2, 1.07642
7, 1, bw, attraction, a-b-db, 5, 2, 8, 1, 165, 90, 90, 165, 88, 161, 1, 0.673688
7, 1, bw, attraction, a-b-da, 2, 1, 8, 2, 134, 59, 60, 135, 135, 60, 2, 1.33399
7, 1, bw, attraction, a-b-da, 2, 1, 8, 2, 134, 59, 60, 135, 135, 60, 3, 1.03101
7, 1, bw, attraction, a-b-db, 9, 1, 8, 3, 60, 135, 57, 129, 135, 60, 2, 3.51546
7, 1, bw, attraction, a-b-db, 9, 1, 8, 3, 60, 135, 57, 129, 135, 60, 3, 0.868068
7, 1, bw, filler, NA, 999, 999, 8, 4, 120, 84, 116, 129, 133, 165, 3, 1.18216
7, 1, bw, filler, NA, 999, 999, 8, 4, 120, 84, 116, 129, 133, 165, 1, 0.816793
7, 1, bw, filler, NA, 999, 999, 8, 5, 56, 84, 77, 67, 89, 148, 3, 1.0213
7, 1, bw, filler, NA, 999, 999, 8, 5, 56, 84, 77, 67, 89, 148, 2, 4.37913
7, 1, bw, attraction, a-b-db, 14, 2, 8, 6, 165, 90, 90, 165, 83, 153, 2, 1.7273
7, 1, bw, attraction, a-b-db, 14, 2, 8, 6, 165, 90, 90, 165, 83, 153, 3, 0.786346
7, 1, bw, attraction, a-b-db, 2, 1, 8, 7, 59, 134, 135, 60, 60, 135, 3, 1.52196
7, 1, bw, attraction, a-b-db, 2, 1, 8, 7, 59, 134, 135, 60, 60, 135, 2, 0.729404
7, 1, bw, catch, NA, 999, 999, 8, 8, 129, 66, 156, 159, 156, 99, 2, 1.78657
7, 1, bw, catch, NA, 999, 999, 8, 8, 129, 66, 156, 159, 156, 99, 1, 0.748261
7, 1, bw, filler, NA, 999, 999, 8, 9, 63, 60, 151, 104, 79, 146, 2, 1.34636
7, 1, bw, filler, NA, 999, 999, 8, 9, 63, 60, 151, 104, 79, 146, 1, 0.724348
7, 1, bw, attraction, a-b-da, 5, 3, 8, 10, 120, 195, 195, 120, 190, 117, 2, 2.78062
7, 1, bw, attraction, a-b-da, 5, 3, 8, 10, 120, 195, 195, 120, 190, 117, 3, 2.38975
7, 1, bw, filler, NA, 999, 999, 8, 11, 72, 176, 183, 184, 132, 111, 2, 0.962304
7, 1, bw, filler, NA, 999, 999, 8, 11, 72, 176, 183, 184, 132, 111, 3, 2.94685
7, 1, bw, attraction, a-b-da, 2, 2, 8, 12, 163, 89, 165, 90, 90, 165, 3, 1.41999
7, 1, bw, attraction, a-b-da, 2, 2, 8, 12, 163, 89, 165, 90, 90, 165, 1, 0.736283
7, 1, bw, attraction, a-b-da, 9, 1, 8, 13, 135, 60, 129, 57, 60, 135, 3, 2.35482
7, 1, bw, attraction, a-b-da, 9, 1, 8, 13, 135, 60, 129, 57, 60, 135, 2, 0.634559
7, 1, bw, attraction, a-b-da, 14, 3, 8, 14, 195, 120, 181, 111, 120, 195, 1, 1.9179
7, 1, bw, attraction, a-b-da, 14, 3, 8, 14, 195, 120, 181, 111, 120, 195, 3, 0.800467
7, 1, bw, catch, NA, 999, 999, 8, 15, 77, 118, 129, 186, 140, 115, 2, 0.996463
7, 1, bw, catch, NA, 999, 999, 8, 15, 77, 118, 129, 186, 140, 115, 1, 0.620554
7, 1, bw, attraction, a-b-db, 5, 1, 8, 16, 60, 135, 58, 132, 135, 60, 1, 1.24302
7, 1, bw, attraction, a-b-db, 5, 1, 8, 16, 60, 135, 58, 132, 135, 60, 3, 0.775811
7, 1, bw, attraction, a-b-db, 9, 2, 8, 17, 86, 157, 90, 165, 165, 90, 2, 2.58157
7, 1, bw, attraction, a-b-db, 9, 2, 8, 17, 86, 157, 90, 165, 165, 90, 1, 0.783471
7, 1, bw, catch, NA, 999, 999, 8, 18, 109, 146, 172, 143, 100, 95, 2, 1.01214
7, 1, bw, catch, NA, 999, 999, 8, 18, 109, 146, 172, 143, 100, 95, 3, 0.642207
7, 1, bw, attraction, a-b-db, 9, 3, 8, 19, 114, 186, 195, 120, 120, 195, 3, 1.87958
7, 1, bw, attraction, a-b-db, 9, 3, 8, 19, 114, 186, 195, 120, 120, 195, 1, 0.858814
7, 1, bw, attraction, a-b-da, 5, 1, 8, 20, 60, 135, 135, 60, 132, 58, 1, 1.76673
7, 1, bw, attraction, a-b-da, 5, 1, 8, 20, 60, 135, 135, 60, 132, 58, 2, 0.58336
7, 1, bw, attraction, a-b-db, 14, 3, 8, 21, 111, 181, 120, 195, 195, 120, 3, 1.2953
7, 1, bw, attraction, a-b-db, 14, 3, 8, 21, 111, 181, 120, 195, 195, 120, 1, 0.641873
7, 1, bw, filler, NA, 999, 999, 8, 22, 170, 63, 98, 130, 153, 92, 3, 2.23589
7, 1, bw, filler, NA, 999, 999, 8, 22, 170, 63, 98, 130, 153, 92, 2, 0.570523
7, 1, bw, filler, NA, 999, 999, 8, 23, 174, 194, 100, 166, 81, 168, 1, 1.12742
7, 1, bw, filler, NA, 999, 999, 8, 23, 174, 194, 100, 166, 81, 168, 2, 0.899307
7, 1, bw, attraction, a-b-da, 14, 1, 8, 24, 125, 56, 60, 135, 135, 60, 3, 1.62942
7, 1, bw, attraction, a-b-da, 14, 1, 8, 24, 125, 56, 60, 135, 135, 60, 1, 1.02644
7, 1, bw, filler, NA, 999, 999, 8, 25, 155, 72, 145, 182, 60, 58, 2, 2.69642
7, 1, bw, filler, NA, 999, 999, 8, 25, 155, 72, 145, 182, 60, 58, 3, 0.64356
7, 1, bw, attraction, a-b-db, 2, 3, 8, 26, 119, 193, 120, 195, 195, 120, 1, 4.43893
7, 1, bw, attraction, a-b-db, 2, 3, 8, 26, 119, 193, 120, 195, 195, 120, 2, 1.00194
7, 1, bw, attraction, a-b-da, 9, 2, 8, 27, 157, 86, 165, 90, 90, 165, 2, 1.37861
7, 1, bw, attraction, a-b-da, 9, 2, 8, 27, 157, 86, 165, 90, 90, 165, 1, 1.29693
7, 1, bw, attraction, a-b-da, 9, 3, 8, 28, 195, 120, 120, 195, 186, 114, 1, 2.08073
7, 1, bw, attraction, a-b-da, 9, 3, 8, 28, 195, 120, 120, 195, 186, 114, 3, 0.621473
7, 1, bw, filler, NA, 999, 999, 8, 29, 149, 76, 172, 143, 107, 99, 2, 1.07552
7, 1, bw, filler, NA, 999, 999, 8, 29, 149, 76, 172, 143, 107, 99, 3, 1.89545
7, 1, bw, filler, NA, 999, 999, 8, 30, 137, 172, 70, 122, 167, 171, 2, 2.60885
7, 1, bw, filler, NA, 999, 999, 8, 30, 137, 172, 70, 122, 167, 171, 3, 1.10352
7, 1, bw, attraction, a-b-da, 2, 3, 8, 31, 120, 195, 193, 119, 195, 120, 1, 1.40922
7, 1, bw, attraction, a-b-da, 2, 3, 8, 31, 120, 195, 193, 119, 195, 120, 2, 0.625962
7, 1, bw, attraction, a-b-db, 5, 3, 8, 32, 120, 195, 117, 190, 195, 120, 2, 1.07681
7, 1, bw, attraction, a-b-db, 5, 3, 8, 32, 120, 195, 117, 190, 195, 120, 3, 1.68941
7, 1, bw, attraction, a-b-db, 14, 1, 8, 33, 60, 135, 56, 125, 135, 60, 2, 1.36328
7, 1, bw, attraction, a-b-db, 14, 1, 8, 33, 60, 135, 56, 125, 135, 60, 1, 0.715336
7, 1, bw, attraction, a-b-db, 2, 2, 8, 34, 165, 90, 90, 165, 89, 163, 2, 1.59548
7, 1, bw, attraction, a-b-db, 2, 2, 8, 34, 165, 90, 90, 165, 89, 163, 1, 1.05221
7, 1, bw, filler, NA, 999, 999, 8, 35, 64, 85, 58, 68, 186, 165, 3, 1.30506
7, 1, bw, filler, NA, 999, 999, 8, 35, 64, 85, 58, 68, 186, 165, 2, 0.72936
7, 1, bw, attraction, a-b-da, 5, 2, 8, 36, 165, 90, 161, 88, 90, 165, 2, 2.24212
7, 1, bw, attraction, a-b-da, 5, 2, 8, 36, 165, 90, 161, 88, 90, 165, 3, 0.679367
7, 1, bw, attraction, a-b-da, 14, 2, 8, 37, 153, 83, 165, 90, 90, 165, 3, 1.51691
7, 1, bw, attraction, a-b-da, 14, 2, 8, 37, 153, 83, 165, 90, 90, 165, 2, 0.685627
