sub_n, computer_n, bw_cond, effect, set, distance, diag, block_n, trial_n, h1, w1, h2, w2, h3, w3, choice, rt 
75, 1, bw, practice, NA, 999, 999, 0, 1, 135, 102, 107, 122, 56, 138, 1, 5.37929
75, 1, bw, practice, NA, 999, 999, 0, 1, 135, 102, 107, 122, 56, 138, 3, 2.67086
75, 1, bw, practice, NA, 999, 999, 0, 2, 155, 192, 165, 106, 151, 134, 1, 2.76864
75, 1, bw, practice, NA, 999, 999, 0, 2, 155, 192, 165, 106, 151, 134, 2, 3.47162
75, 1, bw, practice, NA, 999, 999, 0, 3, 99, 69, 148, 58, 188, 137, 3, 2.22173
75, 1, bw, practice, NA, 999, 999, 0, 3, 99, 69, 148, 58, 188, 137, 1, 1.44539
75, 1, bw, attraction, a-b-da, 9, 1, 1, 1, 60, 135, 135, 60, 129, 57, 1, 3.55953
75, 1, bw, attraction, a-b-da, 9, 1, 1, 1, 60, 135, 135, 60, 129, 57, 3, 1.47918
75, 1, bw, attraction, a-b-da, 5, 1, 1, 2, 60, 135, 135, 60, 132, 58, 1, 4.15317
75, 1, bw, attraction, a-b-da, 5, 1, 1, 2, 60, 135, 135, 60, 132, 58, 2, 1.76121
75, 1, bw, attraction, a-b-db, 2, 1, 1, 3, 135, 60, 60, 135, 59, 134, 2, 2.74404
75, 1, bw, attraction, a-b-db, 2, 1, 1, 3, 135, 60, 60, 135, 59, 134, 1, 0.696396
75, 1, bw, filler, NA, 999, 999, 1, 4, 187, 175, 136, 128, 81, 135, 1, 1.65017
75, 1, bw, filler, NA, 999, 999, 1, 4, 187, 175, 136, 128, 81, 135, 3, 0.718925
75, 1, bw, attraction, a-b-db, 9, 3, 1, 5, 120, 195, 114, 186, 195, 120, 3, 5.70394
75, 1, bw, attraction, a-b-db, 9, 3, 1, 5, 120, 195, 114, 186, 195, 120, 2, 0.881491
75, 1, bw, filler, NA, 999, 999, 1, 6, 68, 191, 79, 193, 130, 168, 3, 1.22778
75, 1, bw, filler, NA, 999, 999, 1, 6, 68, 191, 79, 193, 130, 168, 1, 1.41737
75, 1, bw, catch, NA, 999, 999, 1, 7, 117, 78, 190, 125, 135, 120, 2, 4.23022
75, 1, bw, catch, NA, 999, 999, 1, 7, 117, 78, 190, 125, 135, 120, 1, 0.826938
75, 1, bw, attraction, a-b-da, 2, 1, 1, 8, 134, 59, 135, 60, 60, 135, 3, 4.22329
75, 1, bw, attraction, a-b-da, 2, 1, 1, 8, 134, 59, 135, 60, 60, 135, 2, 0.803907
75, 1, bw, attraction, a-b-da, 14, 2, 1, 9, 90, 165, 153, 83, 165, 90, 1, 3.94557
75, 1, bw, attraction, a-b-da, 14, 2, 1, 9, 90, 165, 153, 83, 165, 90, 2, 0.809697
75, 1, bw, attraction, a-b-db, 14, 3, 1, 10, 111, 181, 120, 195, 195, 120, 2, 4.34267
75, 1, bw, attraction, a-b-db, 14, 3, 1, 10, 111, 181, 120, 195, 195, 120, 1, 3.1186
75, 1, bw, attraction, a-b-db, 2, 3, 1, 11, 120, 195, 195, 120, 119, 193, 1, 2.08688
75, 1, bw, attraction, a-b-db, 2, 3, 1, 11, 120, 195, 195, 120, 119, 193, 2, 1.41826
75, 1, bw, catch, NA, 999, 999, 1, 12, 109, 146, 132, 63, 171, 144, 3, 1.22307
75, 1, bw, catch, NA, 999, 999, 1, 12, 109, 146, 132, 63, 171, 144, 2, 0.516681
75, 1, bw, filler, NA, 999, 999, 1, 13, 141, 116, 76, 145, 137, 96, 1, 2.55775
75, 1, bw, filler, NA, 999, 999, 1, 13, 141, 116, 76, 145, 137, 96, 2, 1.9816
75, 1, bw, filler, NA, 999, 999, 1, 14, 162, 170, 173, 143, 134, 140, 1, 2.19562
75, 1, bw, filler, NA, 999, 999, 1, 14, 162, 170, 173, 143, 134, 140, 3, 0.810196
75, 1, bw, attraction, a-b-da, 9, 2, 1, 15, 165, 90, 90, 165, 157, 86, 2, 2.91922
75, 1, bw, attraction, a-b-da, 9, 2, 1, 15, 165, 90, 90, 165, 157, 86, 3, 1.12901
75, 1, bw, attraction, a-b-da, 14, 1, 1, 16, 60, 135, 125, 56, 135, 60, 1, 5.77724
75, 1, bw, attraction, a-b-da, 14, 1, 1, 16, 60, 135, 125, 56, 135, 60, 2, 1.47942
75, 1, bw, attraction, a-b-da, 2, 2, 1, 17, 165, 90, 163, 89, 90, 165, 2, 3.67352
75, 1, bw, attraction, a-b-da, 2, 2, 1, 17, 165, 90, 163, 89, 90, 165, 1, 0.740402
75, 1, bw, catch, NA, 999, 999, 1, 18, 67, 128, 143, 172, 127, 128, 2, 1.74805
75, 1, bw, catch, NA, 999, 999, 1, 18, 67, 128, 143, 172, 127, 128, 1, 1.22887
75, 1, bw, filler, NA, 999, 999, 1, 19, 125, 136, 131, 84, 165, 153, 3, 3.39313
75, 1, bw, filler, NA, 999, 999, 1, 19, 125, 136, 131, 84, 165, 153, 2, 3.59137
75, 1, bw, filler, NA, 999, 999, 1, 20, 158, 83, 119, 143, 156, 146, 3, 5.10013
75, 1, bw, filler, NA, 999, 999, 1, 20, 158, 83, 119, 143, 156, 146, 2, 2.62992
75, 1, bw, filler, NA, 999, 999, 1, 21, 150, 168, 114, 65, 166, 112, 1, 1.54562
75, 1, bw, filler, NA, 999, 999, 1, 21, 150, 168, 114, 65, 166, 112, 2, 1.29856
75, 1, bw, attraction, a-b-db, 5, 2, 1, 22, 88, 161, 165, 90, 90, 165, 2, 1.70007
75, 1, bw, attraction, a-b-db, 5, 2, 1, 22, 88, 161, 165, 90, 90, 165, 1, 0.99887
75, 1, bw, attraction, a-b-db, 9, 1, 1, 23, 60, 135, 135, 60, 57, 129, 3, 9.76447
75, 1, bw, attraction, a-b-db, 9, 1, 1, 23, 60, 135, 135, 60, 57, 129, 2, 0.674
75, 1, bw, filler, NA, 999, 999, 1, 24, 127, 143, 57, 56, 144, 92, 1, 3.70035
75, 1, bw, filler, NA, 999, 999, 1, 24, 127, 143, 57, 56, 144, 92, 2, 1.08657
75, 1, bw, attraction, a-b-db, 5, 1, 1, 25, 135, 60, 60, 135, 58, 132, 2, 5.99281
75, 1, bw, attraction, a-b-db, 5, 1, 1, 25, 135, 60, 60, 135, 58, 132, 1, 2.34221
75, 1, bw, filler, NA, 999, 999, 1, 26, 169, 138, 72, 104, 93, 124, 1, 1.45349
75, 1, bw, filler, NA, 999, 999, 1, 26, 169, 138, 72, 104, 93, 124, 2, 0.442322
75, 1, bw, filler, NA, 999, 999, 1, 27, 151, 132, 187, 165, 74, 168, 2, 1.83018
75, 1, bw, filler, NA, 999, 999, 1, 27, 151, 132, 187, 165, 74, 168, 3, 2.37153
75, 1, bw, attraction, a-b-da, 5, 3, 1, 28, 195, 120, 190, 117, 120, 195, 3, 6.04205
75, 1, bw, attraction, a-b-da, 5, 3, 1, 28, 195, 120, 190, 117, 120, 195, 1, 1.19742
75, 1, bw, attraction, a-b-da, 2, 3, 1, 29, 193, 119, 195, 120, 120, 195, 2, 3.15508
75, 1, bw, attraction, a-b-da, 2, 3, 1, 29, 193, 119, 195, 120, 120, 195, 1, 1.12336
75, 1, bw, attraction, a-b-db, 14, 1, 1, 30, 60, 135, 135, 60, 56, 125, 3, 6.86761
75, 1, bw, attraction, a-b-db, 14, 1, 1, 30, 60, 135, 135, 60, 56, 125, 2, 0.974066
75, 1, bw, attraction, a-b-da, 14, 3, 1, 31, 181, 111, 120, 195, 195, 120, 3, 3.84441
75, 1, bw, attraction, a-b-da, 14, 3, 1, 31, 181, 111, 120, 195, 195, 120, 1, 1.26455
75, 1, bw, attraction, a-b-db, 14, 2, 1, 32, 83, 153, 90, 165, 165, 90, 3, 8.53144
75, 1, bw, attraction, a-b-db, 14, 2, 1, 32, 83, 153, 90, 165, 165, 90, 1, 0.698634
75, 1, bw, attraction, a-b-db, 2, 2, 1, 33, 165, 90, 89, 163, 90, 165, 2, 2.4124
75, 1, bw, attraction, a-b-db, 2, 2, 1, 33, 165, 90, 89, 163, 90, 165, 1, 1.38634
75, 1, bw, attraction, a-b-da, 5, 2, 1, 34, 165, 90, 161, 88, 90, 165, 3, 13.6724
75, 1, bw, attraction, a-b-da, 5, 2, 1, 34, 165, 90, 161, 88, 90, 165, 2, 0.577218
75, 1, bw, attraction, a-b-db, 5, 3, 1, 35, 120, 195, 117, 190, 195, 120, 2, 1.64727
75, 1, bw, attraction, a-b-db, 5, 3, 1, 35, 120, 195, 117, 190, 195, 120, 1, 0.828096
75, 1, bw, attraction, a-b-da, 9, 3, 1, 36, 195, 120, 186, 114, 120, 195, 3, 3.20038
75, 1, bw, attraction, a-b-da, 9, 3, 1, 36, 195, 120, 186, 114, 120, 195, 2, 0.366694
75, 1, bw, attraction, a-b-db, 9, 2, 1, 37, 86, 157, 90, 165, 165, 90, 2, 3.19799
75, 1, bw, attraction, a-b-db, 9, 2, 1, 37, 86, 157, 90, 165, 165, 90, 3, 1.11639
75, 1, bw, attraction, a-b-db, 2, 1, 2, 1, 135, 60, 60, 135, 59, 134, 2, 3.64516
75, 1, bw, attraction, a-b-db, 2, 1, 2, 1, 135, 60, 60, 135, 59, 134, 1, 0.873286
75, 1, bw, attraction, a-b-db, 5, 3, 2, 2, 120, 195, 117, 190, 195, 120, 1, 2.8677
75, 1, bw, attraction, a-b-db, 5, 3, 2, 2, 120, 195, 117, 190, 195, 120, 2, 4.19139
75, 1, bw, attraction, a-b-db, 5, 1, 2, 3, 135, 60, 60, 135, 58, 132, 1, 6.21992
75, 1, bw, attraction, a-b-db, 5, 1, 2, 3, 135, 60, 60, 135, 58, 132, 3, 2.56079
75, 1, bw, filler, NA, 999, 999, 2, 4, 65, 93, 63, 94, 57, 142, 3, 2.5752
75, 1, bw, filler, NA, 999, 999, 2, 4, 65, 93, 63, 94, 57, 142, 1, 1.08634
75, 1, bw, attraction, a-b-da, 14, 1, 2, 5, 125, 56, 135, 60, 60, 135, 2, 5.77656
75, 1, bw, attraction, a-b-da, 14, 1, 2, 5, 125, 56, 135, 60, 60, 135, 3, 6.76701
75, 1, bw, filler, NA, 999, 999, 2, 6, 85, 165, 166, 131, 192, 56, 2, 1.37994
75, 1, bw, filler, NA, 999, 999, 2, 6, 85, 165, 166, 131, 192, 56, 1, 5.27542
75, 1, bw, attraction, a-b-da, 2, 1, 2, 7, 134, 59, 135, 60, 60, 135, 1, 5.66859
75, 1, bw, attraction, a-b-da, 2, 1, 2, 7, 134, 59, 135, 60, 60, 135, 3, 0.647333
75, 1, bw, filler, NA, 999, 999, 2, 8, 103, 174, 164, 174, 66, 109, 2, 1.81102
75, 1, bw, filler, NA, 999, 999, 2, 8, 103, 174, 164, 174, 66, 109, 3, 0.841059
75, 1, bw, attraction, a-b-da, 9, 3, 2, 9, 195, 120, 120, 195, 186, 114, 2, 13.501
75, 1, bw, attraction, a-b-da, 9, 3, 2, 9, 195, 120, 120, 195, 186, 114, 3, 0.555919
75, 1, bw, attraction, a-b-db, 5, 2, 2, 10, 88, 161, 90, 165, 165, 90, 2, 8.51563
75, 1, bw, attraction, a-b-db, 5, 2, 2, 10, 88, 161, 90, 165, 165, 90, 3, 1.5238
75, 1, bw, attraction, a-b-da, 5, 1, 2, 11, 132, 58, 60, 135, 135, 60, 3, 10.2439
75, 1, bw, attraction, a-b-da, 5, 1, 2, 11, 132, 58, 60, 135, 135, 60, 2, 1.32589
75, 1, bw, attraction, a-b-db, 9, 3, 2, 12, 195, 120, 114, 186, 120, 195, 3, 3.8621
75, 1, bw, attraction, a-b-db, 9, 3, 2, 12, 195, 120, 114, 186, 120, 195, 2, 0.593422
75, 1, bw, attraction, a-b-db, 2, 3, 2, 13, 119, 193, 195, 120, 120, 195, 1, 6.93514
75, 1, bw, attraction, a-b-db, 2, 3, 2, 13, 119, 193, 195, 120, 120, 195, 2, 1.73515
75, 1, bw, catch, NA, 999, 999, 2, 14, 124, 71, 128, 127, 144, 171, 3, 1.47921
75, 1, bw, catch, NA, 999, 999, 2, 14, 124, 71, 128, 127, 144, 171, 1, 1.94673
75, 1, bw, catch, NA, 999, 999, 2, 15, 92, 163, 90, 105, 159, 156, 3, 9.57004
75, 1, bw, catch, NA, 999, 999, 2, 15, 92, 163, 90, 105, 159, 156, 2, 0.831553
75, 1, bw, attraction, a-b-da, 5, 3, 2, 16, 190, 117, 120, 195, 195, 120, 2, 2.98007
75, 1, bw, attraction, a-b-da, 5, 3, 2, 16, 190, 117, 120, 195, 195, 120, 1, 4.74698
75, 1, bw, attraction, a-b-db, 14, 3, 2, 17, 120, 195, 111, 181, 195, 120, 1, 4.5535
75, 1, bw, attraction, a-b-db, 14, 3, 2, 17, 120, 195, 111, 181, 195, 120, 3, 0.873309
75, 1, bw, attraction, a-b-da, 9, 2, 2, 18, 157, 86, 90, 165, 165, 90, 2, 5.63635
75, 1, bw, attraction, a-b-da, 9, 2, 2, 18, 157, 86, 90, 165, 165, 90, 3, 0.984604
75, 1, bw, attraction, a-b-db, 9, 1, 2, 19, 135, 60, 60, 135, 57, 129, 2, 2.89487
75, 1, bw, attraction, a-b-db, 9, 1, 2, 19, 135, 60, 60, 135, 57, 129, 1, 0.881251
75, 1, bw, filler, NA, 999, 999, 2, 20, 74, 66, 162, 159, 175, 149, 2, 3.38769
75, 1, bw, filler, NA, 999, 999, 2, 20, 74, 66, 162, 159, 175, 149, 1, 0.754479
75, 1, bw, attraction, a-b-da, 9, 1, 2, 21, 135, 60, 129, 57, 60, 135, 1, 9.82613
75, 1, bw, attraction, a-b-da, 9, 1, 2, 21, 135, 60, 129, 57, 60, 135, 2, 1.02106
75, 1, bw, filler, NA, 999, 999, 2, 22, 103, 77, 191, 69, 152, 128, 3, 2.16211
75, 1, bw, filler, NA, 999, 999, 2, 22, 103, 77, 191, 69, 152, 128, 1, 0.754108
75, 1, bw, filler, NA, 999, 999, 2, 23, 61, 161, 131, 121, 142, 125, 3, 2.16979
75, 1, bw, filler, NA, 999, 999, 2, 23, 61, 161, 131, 121, 142, 125, 2, 2.51391
75, 1, bw, filler, NA, 999, 999, 2, 24, 161, 106, 60, 176, 160, 136, 3, 2.80235
75, 1, bw, filler, NA, 999, 999, 2, 24, 161, 106, 60, 176, 160, 136, 2, 1.0727
75, 1, bw, attraction, a-b-db, 14, 1, 2, 25, 135, 60, 56, 125, 60, 135, 3, 6.30765
75, 1, bw, attraction, a-b-db, 14, 1, 2, 25, 135, 60, 56, 125, 60, 135, 2, 2.30832
75, 1, bw, filler, NA, 999, 999, 2, 26, 161, 105, 69, 171, 157, 140, 3, 0.844886
75, 1, bw, filler, NA, 999, 999, 2, 26, 161, 105, 69, 171, 157, 140, 2, 1.1779
75, 1, bw, attraction, a-b-da, 14, 2, 2, 27, 165, 90, 90, 165, 153, 83, 2, 6.55228
75, 1, bw, attraction, a-b-da, 14, 2, 2, 27, 165, 90, 90, 165, 153, 83, 3, 2.79947
75, 1, bw, attraction, a-b-da, 14, 3, 2, 28, 195, 120, 181, 111, 120, 195, 3, 2.16449
75, 1, bw, attraction, a-b-da, 14, 3, 2, 28, 195, 120, 181, 111, 120, 195, 2, 0.484368
75, 1, bw, attraction, a-b-db, 2, 2, 2, 29, 165, 90, 90, 165, 89, 163, 1, 4.46288
75, 1, bw, attraction, a-b-db, 2, 2, 2, 29, 165, 90, 90, 165, 89, 163, 3, 1.55408
75, 1, bw, attraction, a-b-da, 2, 3, 2, 30, 195, 120, 120, 195, 193, 119, 2, 2.50552
75, 1, bw, attraction, a-b-da, 2, 3, 2, 30, 195, 120, 120, 195, 193, 119, 1, 0.675468
75, 1, bw, filler, NA, 999, 999, 2, 31, 71, 195, 76, 74, 60, 95, 1, 2.99779
75, 1, bw, filler, NA, 999, 999, 2, 31, 71, 195, 76, 74, 60, 95, 2, 1.14026
75, 1, bw, attraction, a-b-da, 2, 2, 2, 32, 90, 165, 163, 89, 165, 90, 3, 16.7958
75, 1, bw, attraction, a-b-da, 2, 2, 2, 32, 90, 165, 163, 89, 165, 90, 2, 0.677817
75, 1, bw, attraction, a-b-db, 9, 2, 2, 33, 86, 157, 90, 165, 165, 90, 2, 6.03214
75, 1, bw, attraction, a-b-db, 9, 2, 2, 33, 86, 157, 90, 165, 165, 90, 3, 1.09243
75, 1, bw, attraction, a-b-db, 14, 2, 2, 34, 83, 153, 90, 165, 165, 90, 2, 2.69387
75, 1, bw, attraction, a-b-db, 14, 2, 2, 34, 83, 153, 90, 165, 165, 90, 1, 0.512373
75, 1, bw, filler, NA, 999, 999, 2, 35, 90, 169, 62, 57, 177, 147, 3, 0.913405
75, 1, bw, filler, NA, 999, 999, 2, 35, 90, 169, 62, 57, 177, 147, 2, 0.603931
75, 1, bw, catch, NA, 999, 999, 2, 36, 61, 134, 173, 142, 150, 105, 2, 1.69759
75, 1, bw, catch, NA, 999, 999, 2, 36, 61, 134, 173, 142, 150, 105, 1, 0.404292
75, 1, bw, attraction, a-b-da, 5, 2, 2, 37, 90, 165, 165, 90, 161, 88, 1, 6.89818
75, 1, bw, attraction, a-b-da, 5, 2, 2, 37, 90, 165, 165, 90, 161, 88, 3, 2.37141
75, 1, bw, attraction, a-b-db, 9, 1, 3, 1, 60, 135, 135, 60, 57, 129, 1, 8.40986
75, 1, bw, attraction, a-b-db, 9, 1, 3, 1, 60, 135, 135, 60, 57, 129, 3, 0.590046
75, 1, bw, attraction, a-b-da, 2, 3, 3, 2, 120, 195, 195, 120, 193, 119, 1, 5.0996
75, 1, bw, attraction, a-b-da, 2, 3, 3, 2, 120, 195, 195, 120, 193, 119, 3, 0.693458
75, 1, bw, attraction, a-b-da, 2, 2, 3, 3, 163, 89, 165, 90, 90, 165, 3, 9.99907
75, 1, bw, attraction, a-b-da, 2, 2, 3, 3, 163, 89, 165, 90, 90, 165, 1, 1.45133
75, 1, bw, attraction, a-b-db, 9, 2, 3, 4, 90, 165, 86, 157, 165, 90, 1, 2.09472
75, 1, bw, attraction, a-b-db, 9, 2, 3, 4, 90, 165, 86, 157, 165, 90, 2, 1.00938
75, 1, bw, attraction, a-b-da, 9, 2, 3, 5, 90, 165, 157, 86, 165, 90, 1, 5.75831
75, 1, bw, attraction, a-b-da, 9, 2, 3, 5, 90, 165, 157, 86, 165, 90, 3, 0.653168
75, 1, bw, filler, NA, 999, 999, 3, 6, 168, 78, 143, 195, 173, 98, 2, 0.912908
75, 1, bw, filler, NA, 999, 999, 3, 6, 168, 78, 143, 195, 173, 98, 1, 0.739298
75, 1, bw, catch, NA, 999, 999, 3, 7, 91, 164, 82, 113, 180, 135, 3, 0.899776
75, 1, bw, catch, NA, 999, 999, 3, 7, 91, 164, 82, 113, 180, 135, 2, 0.526809
75, 1, bw, attraction, a-b-da, 5, 1, 3, 8, 60, 135, 132, 58, 135, 60, 1, 12.3593
75, 1, bw, attraction, a-b-da, 5, 1, 3, 8, 60, 135, 132, 58, 135, 60, 2, 0.892014
75, 1, bw, filler, NA, 999, 999, 3, 9, 123, 175, 124, 66, 77, 193, 1, 0.773498
75, 1, bw, filler, NA, 999, 999, 3, 9, 123, 175, 124, 66, 77, 193, 2, 1.02126
75, 1, bw, filler, NA, 999, 999, 3, 10, 187, 139, 169, 73, 186, 83, 1, 1.05017
75, 1, bw, filler, NA, 999, 999, 3, 10, 187, 139, 169, 73, 186, 83, 2, 1.00737
75, 1, bw, filler, NA, 999, 999, 3, 11, 95, 83, 57, 131, 73, 80, 1, 11.1962
75, 1, bw, filler, NA, 999, 999, 3, 11, 95, 83, 57, 131, 73, 80, 3, 0.8401
75, 1, bw, attraction, a-b-db, 5, 3, 3, 12, 120, 195, 195, 120, 117, 190, 2, 2.11567
75, 1, bw, attraction, a-b-db, 5, 3, 3, 12, 120, 195, 195, 120, 117, 190, 3, 0.469651
75, 1, bw, attraction, a-b-da, 14, 3, 3, 13, 120, 195, 195, 120, 181, 111, 1, 3.58475
75, 1, bw, attraction, a-b-da, 14, 3, 3, 13, 120, 195, 195, 120, 181, 111, 3, 1.77565
75, 1, bw, attraction, a-b-db, 5, 2, 3, 14, 90, 165, 88, 161, 165, 90, 1, 5.42176
75, 1, bw, attraction, a-b-db, 5, 2, 3, 14, 90, 165, 88, 161, 165, 90, 2, 0.634731
75, 1, bw, filler, NA, 999, 999, 3, 15, 108, 92, 97, 88, 193, 93, 3, 1.99445
75, 1, bw, filler, NA, 999, 999, 3, 15, 108, 92, 97, 88, 193, 93, 2, 0.573644
75, 1, bw, attraction, a-b-db, 14, 3, 3, 16, 195, 120, 111, 181, 120, 195, 3, 5.45229
75, 1, bw, attraction, a-b-db, 14, 3, 3, 16, 195, 120, 111, 181, 120, 195, 2, 0.927871
75, 1, bw, attraction, a-b-da, 5, 3, 3, 17, 195, 120, 190, 117, 120, 195, 1, 11.0722
75, 1, bw, attraction, a-b-da, 5, 3, 3, 17, 195, 120, 190, 117, 120, 195, 2, 0.521214
75, 1, bw, catch, NA, 999, 999, 3, 18, 148, 107, 74, 121, 158, 157, 3, 4.22632
75, 1, bw, catch, NA, 999, 999, 3, 18, 148, 107, 74, 121, 158, 157, 2, 0.599056
75, 1, bw, filler, NA, 999, 999, 3, 19, 180, 83, 161, 116, 179, 85, 2, 5.2848
75, 1, bw, filler, NA, 999, 999, 3, 19, 180, 83, 161, 116, 179, 85, 1, 0.823087
75, 1, bw, attraction, a-b-da, 9, 1, 3, 20, 135, 60, 129, 57, 60, 135, 1, 6.64406
75, 1, bw, attraction, a-b-da, 9, 1, 3, 20, 135, 60, 129, 57, 60, 135, 3, 0.599442
75, 1, bw, attraction, a-b-da, 2, 1, 3, 21, 134, 59, 60, 135, 135, 60, 2, 6.97312
75, 1, bw, attraction, a-b-da, 2, 1, 3, 21, 134, 59, 60, 135, 135, 60, 3, 0.611562
75, 1, bw, attraction, a-b-da, 9, 3, 3, 22, 195, 120, 186, 114, 120, 195, 3, 7.84068
75, 1, bw, attraction, a-b-da, 9, 3, 3, 22, 195, 120, 186, 114, 120, 195, 1, 0.955649
75, 1, bw, attraction, a-b-db, 14, 2, 3, 23, 165, 90, 90, 165, 83, 153, 2, 6.92309
75, 1, bw, attraction, a-b-db, 14, 2, 3, 23, 165, 90, 90, 165, 83, 153, 3, 0.602912
75, 1, bw, attraction, a-b-db, 14, 1, 3, 24, 60, 135, 56, 125, 135, 60, 1, 3.3447
75, 1, bw, attraction, a-b-db, 14, 1, 3, 24, 60, 135, 56, 125, 135, 60, 2, 1.02508
75, 1, bw, attraction, a-b-db, 2, 2, 3, 25, 165, 90, 89, 163, 90, 165, 2, 1.66928
75, 1, bw, attraction, a-b-db, 2, 2, 3, 25, 165, 90, 89, 163, 90, 165, 3, 0.625376
75, 1, bw, filler, NA, 999, 999, 3, 26, 145, 149, 115, 117, 121, 67, 1, 0.957775
75, 1, bw, filler, NA, 999, 999, 3, 26, 145, 149, 115, 117, 121, 67, 3, 0.598162
75, 1, bw, attraction, a-b-db, 5, 1, 3, 27, 60, 135, 135, 60, 58, 132, 2, 4.25196
75, 1, bw, attraction, a-b-db, 5, 1, 3, 27, 60, 135, 135, 60, 58, 132, 1, 0.399823
75, 1, bw, filler, NA, 999, 999, 3, 28, 170, 170, 146, 74, 157, 91, 1, 1.66972
75, 1, bw, filler, NA, 999, 999, 3, 28, 170, 170, 146, 74, 157, 91, 2, 0.393815
75, 1, bw, attraction, a-b-db, 9, 3, 3, 29, 114, 186, 195, 120, 120, 195, 2, 8.57573
75, 1, bw, attraction, a-b-db, 9, 3, 3, 29, 114, 186, 195, 120, 120, 195, 1, 0.540956
75, 1, bw, attraction, a-b-db, 2, 1, 3, 30, 135, 60, 59, 134, 60, 135, 2, 1.52465
75, 1, bw, attraction, a-b-db, 2, 1, 3, 30, 135, 60, 59, 134, 60, 135, 1, 0.430092
75, 1, bw, attraction, a-b-db, 2, 3, 3, 31, 120, 195, 195, 120, 119, 193, 2, 4.69078
75, 1, bw, attraction, a-b-db, 2, 3, 3, 31, 120, 195, 195, 120, 119, 193, 3, 0.332485
75, 1, bw, attraction, a-b-da, 14, 2, 3, 32, 153, 83, 165, 90, 90, 165, 3, 1.97307
75, 1, bw, attraction, a-b-da, 14, 2, 3, 32, 153, 83, 165, 90, 90, 165, 1, 2.18037
75, 1, bw, filler, NA, 999, 999, 3, 33, 72, 147, 103, 181, 57, 67, 2, 1.05821
75, 1, bw, filler, NA, 999, 999, 3, 33, 72, 147, 103, 181, 57, 67, 3, 0.638565
75, 1, bw, catch, NA, 999, 999, 3, 34, 116, 79, 163, 152, 102, 153, 2, 1.14706
75, 1, bw, catch, NA, 999, 999, 3, 34, 116, 79, 163, 152, 102, 153, 1, 0.627985
75, 1, bw, filler, NA, 999, 999, 3, 35, 189, 182, 104, 112, 152, 189, 1, 2.18438
75, 1, bw, filler, NA, 999, 999, 3, 35, 189, 182, 104, 112, 152, 189, 2, 0.815621
75, 1, bw, attraction, a-b-da, 14, 1, 3, 36, 125, 56, 135, 60, 60, 135, 3, 6.46066
75, 1, bw, attraction, a-b-da, 14, 1, 3, 36, 125, 56, 135, 60, 60, 135, 1, 0.559285
75, 1, bw, attraction, a-b-da, 5, 2, 3, 37, 165, 90, 161, 88, 90, 165, 3, 4.50239
75, 1, bw, attraction, a-b-da, 5, 2, 3, 37, 165, 90, 161, 88, 90, 165, 2, 1.08029
75, 1, bw, attraction, a-b-db, 9, 1, 4, 1, 57, 129, 60, 135, 135, 60, 2, 3.2266
75, 1, bw, attraction, a-b-db, 9, 1, 4, 1, 57, 129, 60, 135, 135, 60, 1, 0.543533
75, 1, bw, attraction, a-b-da, 2, 1, 4, 2, 134, 59, 135, 60, 60, 135, 3, 8.35126
75, 1, bw, attraction, a-b-da, 2, 1, 4, 2, 134, 59, 135, 60, 60, 135, 2, 0.694199
75, 1, bw, filler, NA, 999, 999, 4, 3, 91, 190, 122, 119, 172, 121, 3, 2.96782
75, 1, bw, filler, NA, 999, 999, 4, 3, 91, 190, 122, 119, 172, 121, 2, 0.999511
75, 1, bw, attraction, a-b-da, 9, 3, 4, 4, 120, 195, 186, 114, 195, 120, 1, 5.5812
75, 1, bw, attraction, a-b-da, 9, 3, 4, 4, 120, 195, 186, 114, 195, 120, 2, 0.371268
75, 1, bw, filler, NA, 999, 999, 4, 5, 67, 151, 75, 172, 99, 85, 2, 3.82653
75, 1, bw, filler, NA, 999, 999, 4, 5, 67, 151, 75, 172, 99, 85, 3, 0.967285
75, 1, bw, filler, NA, 999, 999, 4, 6, 83, 100, 97, 68, 126, 98, 3, 4.99034
75, 1, bw, filler, NA, 999, 999, 4, 6, 83, 100, 97, 68, 126, 98, 2, 2.25207
75, 1, bw, attraction, a-b-da, 2, 3, 4, 7, 193, 119, 120, 195, 195, 120, 2, 7.57512
75, 1, bw, attraction, a-b-da, 2, 3, 4, 7, 193, 119, 120, 195, 195, 120, 1, 0.484847
75, 1, bw, filler, NA, 999, 999, 4, 8, 107, 111, 126, 91, 169, 195, 3, 0.759319
75, 1, bw, filler, NA, 999, 999, 4, 8, 107, 111, 126, 91, 169, 195, 2, 0.599691
75, 1, bw, catch, NA, 999, 999, 4, 9, 135, 60, 168, 147, 136, 119, 2, 1.3494
75, 1, bw, catch, NA, 999, 999, 4, 9, 135, 60, 168, 147, 136, 119, 1, 0.168167
75, 1, bw, attraction, a-b-db, 14, 1, 4, 10, 56, 125, 60, 135, 135, 60, 2, 9.5656
75, 1, bw, attraction, a-b-db, 14, 1, 4, 10, 56, 125, 60, 135, 135, 60, 1, 0.915134
75, 1, bw, attraction, a-b-da, 9, 1, 4, 11, 60, 135, 129, 57, 135, 60, 1, 7.00417
75, 1, bw, attraction, a-b-da, 9, 1, 4, 11, 60, 135, 129, 57, 135, 60, 2, 1.88924
75, 1, bw, attraction, a-b-db, 2, 1, 4, 12, 135, 60, 60, 135, 59, 134, 3, 1.73926
75, 1, bw, attraction, a-b-db, 2, 1, 4, 12, 135, 60, 60, 135, 59, 134, 2, 0.740173
75, 1, bw, filler, NA, 999, 999, 4, 13, 91, 133, 83, 181, 158, 163, 3, 0.860428
75, 1, bw, filler, NA, 999, 999, 4, 13, 91, 133, 83, 181, 158, 163, 1, 0.968812
75, 1, bw, attraction, a-b-da, 5, 1, 4, 14, 60, 135, 135, 60, 132, 58, 3, 9.93582
75, 1, bw, attraction, a-b-da, 5, 1, 4, 14, 60, 135, 135, 60, 132, 58, 1, 0.590723
75, 1, bw, attraction, a-b-db, 2, 2, 4, 15, 89, 163, 90, 165, 165, 90, 2, 2.15639
75, 1, bw, attraction, a-b-db, 2, 2, 4, 15, 89, 163, 90, 165, 165, 90, 3, 0.508309
75, 1, bw, catch, NA, 999, 999, 4, 16, 88, 107, 128, 127, 164, 151, 3, 1.09348
75, 1, bw, catch, NA, 999, 999, 4, 16, 88, 107, 128, 127, 164, 151, 1, 0.648401
75, 1, bw, attraction, a-b-da, 14, 2, 4, 17, 90, 165, 165, 90, 153, 83, 1, 4.46812
75, 1, bw, attraction, a-b-da, 14, 2, 4, 17, 90, 165, 165, 90, 153, 83, 2, 0.607461
75, 1, bw, attraction, a-b-db, 5, 2, 4, 18, 165, 90, 90, 165, 88, 161, 2, 1.74845
75, 1, bw, attraction, a-b-db, 5, 2, 4, 18, 165, 90, 90, 165, 88, 161, 3, 1.54932
75, 1, bw, attraction, a-b-da, 2, 2, 4, 19, 163, 89, 90, 165, 165, 90, 1, 3.87685
75, 1, bw, attraction, a-b-da, 2, 2, 4, 19, 163, 89, 90, 165, 165, 90, 3, 0.479483
75, 1, bw, attraction, a-b-da, 5, 3, 4, 20, 195, 120, 120, 195, 190, 117, 1, 4.67399
75, 1, bw, attraction, a-b-da, 5, 3, 4, 20, 195, 120, 120, 195, 190, 117, 3, 0.604481
75, 1, bw, attraction, a-b-da, 5, 2, 4, 21, 90, 165, 165, 90, 161, 88, 2, 3.24238
75, 1, bw, attraction, a-b-da, 5, 2, 4, 21, 90, 165, 165, 90, 161, 88, 1, 1.66255
75, 1, bw, filler, NA, 999, 999, 4, 22, 92, 75, 74, 151, 71, 104, 2, 13.8733
75, 1, bw, filler, NA, 999, 999, 4, 22, 92, 75, 74, 151, 71, 104, 1, 2.03353
75, 1, bw, attraction, a-b-db, 9, 2, 4, 23, 90, 165, 165, 90, 86, 157, 1, 2.34952
75, 1, bw, attraction, a-b-db, 9, 2, 4, 23, 90, 165, 165, 90, 86, 157, 2, 0.862194
75, 1, bw, attraction, a-b-db, 14, 2, 4, 24, 90, 165, 165, 90, 83, 153, 1, 1.51313
75, 1, bw, attraction, a-b-db, 14, 2, 4, 24, 90, 165, 165, 90, 83, 153, 3, 1.00327
75, 1, bw, filler, NA, 999, 999, 4, 25, 96, 195, 168, 190, 175, 159, 2, 1.35293
75, 1, bw, filler, NA, 999, 999, 4, 25, 96, 195, 168, 190, 175, 159, 1, 0.529863
75, 1, bw, filler, NA, 999, 999, 4, 26, 70, 79, 138, 190, 155, 81, 2, 0.642267
75, 1, bw, filler, NA, 999, 999, 4, 26, 70, 79, 138, 190, 155, 81, 1, 1.12739
75, 1, bw, attraction, a-b-db, 2, 3, 4, 27, 120, 195, 119, 193, 195, 120, 1, 2.34367
75, 1, bw, attraction, a-b-db, 2, 3, 4, 27, 120, 195, 119, 193, 195, 120, 2, 1.66417
75, 1, bw, attraction, a-b-da, 14, 3, 4, 28, 181, 111, 120, 195, 195, 120, 3, 16.3869
75, 1, bw, attraction, a-b-da, 14, 3, 4, 28, 181, 111, 120, 195, 195, 120, 1, 1.42189
75, 1, bw, filler, NA, 999, 999, 4, 29, 113, 70, 94, 187, 93, 119, 2, 1.61071
75, 1, bw, filler, NA, 999, 999, 4, 29, 113, 70, 94, 187, 93, 119, 1, 0.608751
75, 1, bw, filler, NA, 999, 999, 4, 30, 154, 143, 153, 61, 145, 131, 1, 1.32593
75, 1, bw, filler, NA, 999, 999, 4, 30, 154, 143, 153, 61, 145, 131, 2, 0.583447
75, 1, bw, attraction, a-b-db, 5, 1, 4, 31, 58, 132, 60, 135, 135, 60, 3, 3.74187
75, 1, bw, attraction, a-b-db, 5, 1, 4, 31, 58, 132, 60, 135, 135, 60, 2, 0.62202
75, 1, bw, attraction, a-b-da, 14, 1, 4, 32, 135, 60, 60, 135, 125, 56, 2, 7.59506
75, 1, bw, attraction, a-b-da, 14, 1, 4, 32, 135, 60, 60, 135, 125, 56, 3, 0.568016
75, 1, bw, catch, NA, 999, 999, 4, 33, 139, 116, 169, 146, 98, 97, 2, 0.575169
75, 1, bw, catch, NA, 999, 999, 4, 33, 139, 116, 169, 146, 98, 97, 3, 0.662951
75, 1, bw, attraction, a-b-db, 9, 3, 4, 34, 114, 186, 120, 195, 195, 120, 3, 4.80186
75, 1, bw, attraction, a-b-db, 9, 3, 4, 34, 114, 186, 120, 195, 195, 120, 1, 0.327716
75, 1, bw, attraction, a-b-da, 9, 2, 4, 35, 165, 90, 157, 86, 90, 165, 3, 5.3283
75, 1, bw, attraction, a-b-da, 9, 2, 4, 35, 165, 90, 157, 86, 90, 165, 1, 0.552694
75, 1, bw, attraction, a-b-db, 14, 3, 4, 36, 111, 181, 120, 195, 195, 120, 2, 3.29642
75, 1, bw, attraction, a-b-db, 14, 3, 4, 36, 111, 181, 120, 195, 195, 120, 1, 0.4587
75, 1, bw, attraction, a-b-db, 5, 3, 4, 37, 117, 190, 195, 120, 120, 195, 3, 11.7498
75, 1, bw, attraction, a-b-db, 5, 3, 4, 37, 117, 190, 195, 120, 120, 195, 1, 0.539342
75, 1, bw, attraction, a-b-db, 14, 1, 5, 1, 60, 135, 56, 125, 135, 60, 1, 2.88986
75, 1, bw, attraction, a-b-db, 14, 1, 5, 1, 60, 135, 56, 125, 135, 60, 2, 1.06813
75, 1, bw, filler, NA, 999, 999, 5, 2, 60, 161, 159, 110, 153, 188, 3, 0.983199
75, 1, bw, filler, NA, 999, 999, 5, 2, 60, 161, 159, 110, 153, 188, 1, 0.630828
75, 1, bw, attraction, a-b-da, 14, 1, 5, 3, 60, 135, 125, 56, 135, 60, 1, 2.85923
75, 1, bw, attraction, a-b-da, 14, 1, 5, 3, 60, 135, 125, 56, 135, 60, 2, 0.430934
75, 1, bw, catch, NA, 999, 999, 5, 4, 65, 130, 136, 179, 153, 102, 2, 0.691471
75, 1, bw, catch, NA, 999, 999, 5, 4, 65, 130, 136, 179, 153, 102, 1, 0.382471
75, 1, bw, filler, NA, 999, 999, 5, 5, 140, 145, 147, 71, 80, 75, 1, 0.973001
75, 1, bw, filler, NA, 999, 999, 5, 5, 140, 145, 147, 71, 80, 75, 3, 0.524646
75, 1, bw, filler, NA, 999, 999, 5, 6, 172, 105, 161, 155, 85, 153, 2, 1.38905
75, 1, bw, filler, NA, 999, 999, 5, 6, 172, 105, 161, 155, 85, 153, 3, 0.515993
75, 1, bw, attraction, a-b-da, 5, 2, 5, 7, 90, 165, 165, 90, 161, 88, 1, 2.46902
75, 1, bw, attraction, a-b-da, 5, 2, 5, 7, 90, 165, 165, 90, 161, 88, 2, 0.537068
75, 1, bw, attraction, a-b-da, 9, 3, 5, 8, 186, 114, 195, 120, 120, 195, 2, 3.06547
75, 1, bw, attraction, a-b-da, 9, 3, 5, 8, 186, 114, 195, 120, 120, 195, 1, 0.517051
75, 1, bw, filler, NA, 999, 999, 5, 9, 175, 60, 150, 62, 66, 155, 3, 9.95031
75, 1, bw, filler, NA, 999, 999, 5, 9, 175, 60, 150, 62, 66, 155, 2, 0.548439
75, 1, bw, attraction, a-b-da, 14, 3, 5, 10, 195, 120, 120, 195, 181, 111, 2, 1.8202
75, 1, bw, attraction, a-b-da, 14, 3, 5, 10, 195, 120, 120, 195, 181, 111, 3, 1.09025
75, 1, bw, filler, NA, 999, 999, 5, 11, 148, 100, 63, 175, 140, 143, 3, 0.867738
75, 1, bw, filler, NA, 999, 999, 5, 11, 148, 100, 63, 175, 140, 143, 2, 1.16021
75, 1, bw, attraction, a-b-db, 5, 3, 5, 12, 120, 195, 117, 190, 195, 120, 1, 2.00711
75, 1, bw, attraction, a-b-db, 5, 3, 5, 12, 120, 195, 117, 190, 195, 120, 2, 1.30131
75, 1, bw, attraction, a-b-db, 5, 1, 5, 13, 58, 132, 135, 60, 60, 135, 2, 2.00667
75, 1, bw, attraction, a-b-db, 5, 1, 5, 13, 58, 132, 135, 60, 60, 135, 3, 1.02866
75, 1, bw, attraction, a-b-da, 5, 3, 5, 14, 120, 195, 190, 117, 195, 120, 1, 4.90493
75, 1, bw, attraction, a-b-da, 5, 3, 5, 14, 120, 195, 190, 117, 195, 120, 2, 0.45873
75, 1, bw, catch, NA, 999, 999, 5, 15, 169, 146, 110, 85, 115, 140, 1, 0.853865
75, 1, bw, catch, NA, 999, 999, 5, 15, 169, 146, 110, 85, 115, 140, 2, 1.09092
75, 1, bw, attraction, a-b-db, 9, 2, 5, 16, 165, 90, 86, 157, 90, 165, 3, 4.22867
75, 1, bw, attraction, a-b-db, 9, 2, 5, 16, 165, 90, 86, 157, 90, 165, 2, 0.753393
75, 1, bw, attraction, a-b-db, 5, 2, 5, 17, 90, 165, 165, 90, 88, 161, 1, 5.08089
75, 1, bw, attraction, a-b-db, 5, 2, 5, 17, 90, 165, 165, 90, 88, 161, 2, 0.31527
75, 1, bw, attraction, a-b-da, 5, 1, 5, 18, 135, 60, 132, 58, 60, 135, 3, 22.1404
75, 1, bw, attraction, a-b-da, 5, 1, 5, 18, 135, 60, 132, 58, 60, 135, 2, 0.479674
75, 1, bw, attraction, a-b-db, 2, 1, 5, 19, 135, 60, 59, 134, 60, 135, 3, 1.19385
75, 1, bw, attraction, a-b-db, 2, 1, 5, 19, 135, 60, 59, 134, 60, 135, 2, 0.552933
75, 1, bw, attraction, a-b-da, 9, 2, 5, 20, 157, 86, 165, 90, 90, 165, 3, 2.79258
75, 1, bw, attraction, a-b-da, 9, 2, 5, 20, 157, 86, 165, 90, 90, 165, 2, 1.91113
75, 1, bw, filler, NA, 999, 999, 5, 21, 133, 86, 146, 82, 163, 194, 3, 0.695665
75, 1, bw, filler, NA, 999, 999, 5, 21, 133, 86, 146, 82, 163, 194, 1, 1.07487
75, 1, bw, attraction, a-b-db, 9, 1, 5, 22, 135, 60, 57, 129, 60, 135, 3, 3.96515
75, 1, bw, attraction, a-b-db, 9, 1, 5, 22, 135, 60, 57, 129, 60, 135, 2, 0.716572
75, 1, bw, attraction, a-b-db, 2, 2, 5, 23, 89, 163, 165, 90, 90, 165, 2, 4.35754
75, 1, bw, attraction, a-b-db, 2, 2, 5, 23, 89, 163, 165, 90, 90, 165, 1, 0.436841
75, 1, bw, attraction, a-b-db, 14, 3, 5, 24, 111, 181, 120, 195, 195, 120, 2, 3.26529
75, 1, bw, attraction, a-b-db, 14, 3, 5, 24, 111, 181, 120, 195, 195, 120, 1, 0.572921
75, 1, bw, filler, NA, 999, 999, 5, 25, 121, 56, 73, 122, 163, 116, 3, 0.891977
75, 1, bw, filler, NA, 999, 999, 5, 25, 121, 56, 73, 122, 163, 116, 1, 1.47909
75, 1, bw, attraction, a-b-db, 2, 3, 5, 26, 119, 193, 195, 120, 120, 195, 2, 4.08129
75, 1, bw, attraction, a-b-db, 2, 3, 5, 26, 119, 193, 195, 120, 120, 195, 3, 0.748148
75, 1, bw, filler, NA, 999, 999, 5, 27, 171, 149, 58, 133, 119, 190, 1, 8.4756
75, 1, bw, filler, NA, 999, 999, 5, 27, 171, 149, 58, 133, 119, 190, 2, 0.428993
75, 1, bw, attraction, a-b-da, 14, 2, 5, 28, 165, 90, 153, 83, 90, 165, 3, 1.4494
75, 1, bw, attraction, a-b-da, 14, 2, 5, 28, 165, 90, 153, 83, 90, 165, 2, 0.64636
75, 1, bw, attraction, a-b-da, 2, 1, 5, 29, 60, 135, 134, 59, 135, 60, 1, 3.41013
75, 1, bw, attraction, a-b-da, 2, 1, 5, 29, 60, 135, 134, 59, 135, 60, 2, 0.687664
75, 1, bw, attraction, a-b-da, 9, 1, 5, 30, 135, 60, 129, 57, 60, 135, 3, 11.89
75, 1, bw, attraction, a-b-da, 9, 1, 5, 30, 135, 60, 129, 57, 60, 135, 2, 0.826251
75, 1, bw, catch, NA, 999, 999, 5, 31, 193, 122, 93, 162, 96, 99, 1, 1.12658
75, 1, bw, catch, NA, 999, 999, 5, 31, 193, 122, 93, 162, 96, 99, 3, 0.576267
75, 1, bw, attraction, a-b-db, 9, 3, 5, 32, 195, 120, 114, 186, 120, 195, 1, 3.75859
75, 1, bw, attraction, a-b-db, 9, 3, 5, 32, 195, 120, 114, 186, 120, 195, 2, 0.846065
75, 1, bw, filler, NA, 999, 999, 5, 33, 188, 128, 66, 150, 80, 83, 1, 0.825902
75, 1, bw, filler, NA, 999, 999, 5, 33, 188, 128, 66, 150, 80, 83, 3, 0.935501
75, 1, bw, filler, NA, 999, 999, 5, 34, 170, 131, 64, 155, 171, 178, 3, 2.21587
75, 1, bw, filler, NA, 999, 999, 5, 34, 170, 131, 64, 155, 171, 178, 2, 0.389683
75, 1, bw, attraction, a-b-da, 2, 2, 5, 35, 90, 165, 163, 89, 165, 90, 2, 2.40433
75, 1, bw, attraction, a-b-da, 2, 2, 5, 35, 90, 165, 163, 89, 165, 90, 3, 0.466789
75, 1, bw, attraction, a-b-da, 2, 3, 5, 36, 120, 195, 195, 120, 193, 119, 1, 1.34189
75, 1, bw, attraction, a-b-da, 2, 3, 5, 36, 120, 195, 195, 120, 193, 119, 3, 0.430776
75, 1, bw, attraction, a-b-db, 14, 2, 5, 37, 83, 153, 90, 165, 165, 90, 2, 15.8673
75, 1, bw, attraction, a-b-db, 14, 2, 5, 37, 83, 153, 90, 165, 165, 90, 1, 0.49093
75, 1, bw, attraction, a-b-db, 2, 1, 6, 1, 59, 134, 60, 135, 135, 60, 2, 2.18877
75, 1, bw, attraction, a-b-db, 2, 1, 6, 1, 59, 134, 60, 135, 135, 60, 3, 0.643383
75, 1, bw, attraction, a-b-db, 14, 1, 6, 2, 60, 135, 135, 60, 56, 125, 1, 1.82308
75, 1, bw, attraction, a-b-db, 14, 1, 6, 2, 60, 135, 135, 60, 56, 125, 3, 0.44449
75, 1, bw, attraction, a-b-da, 5, 2, 6, 3, 165, 90, 90, 165, 161, 88, 2, 3.81632
75, 1, bw, attraction, a-b-da, 5, 2, 6, 3, 165, 90, 90, 165, 161, 88, 3, 0.317748
75, 1, bw, attraction, a-b-da, 5, 3, 6, 4, 120, 195, 190, 117, 195, 120, 1, 3.36695
75, 1, bw, attraction, a-b-da, 5, 3, 6, 4, 120, 195, 190, 117, 195, 120, 2, 1.38249
75, 1, bw, attraction, a-b-db, 5, 3, 6, 5, 120, 195, 117, 190, 195, 120, 2, 2.3007
75, 1, bw, attraction, a-b-db, 5, 3, 6, 5, 120, 195, 117, 190, 195, 120, 1, 1.39929
75, 1, bw, filler, NA, 999, 999, 6, 6, 170, 125, 160, 73, 163, 152, 3, 1.72482
75, 1, bw, filler, NA, 999, 999, 6, 6, 170, 125, 160, 73, 163, 152, 2, 0.718442
75, 1, bw, filler, NA, 999, 999, 6, 7, 66, 156, 88, 178, 188, 186, 3, 0.847507
75, 1, bw, filler, NA, 999, 999, 6, 7, 66, 156, 88, 178, 188, 186, 1, 0.452256
75, 1, bw, catch, NA, 999, 999, 6, 8, 131, 184, 129, 126, 97, 98, 1, 1.5921
75, 1, bw, catch, NA, 999, 999, 6, 8, 131, 184, 129, 126, 97, 98, 3, 0.414977
75, 1, bw, attraction, a-b-db, 14, 3, 6, 9, 120, 195, 195, 120, 111, 181, 1, 15.6601
75, 1, bw, attraction, a-b-db, 14, 3, 6, 9, 120, 195, 195, 120, 111, 181, 3, 0.61984
75, 1, bw, filler, NA, 999, 999, 6, 10, 190, 143, 118, 94, 175, 83, 1, 0.865035
75, 1, bw, filler, NA, 999, 999, 6, 10, 190, 143, 118, 94, 175, 83, 2, 0.60551
75, 1, bw, attraction, a-b-da, 14, 1, 6, 11, 135, 60, 125, 56, 60, 135, 3, 5.06699
75, 1, bw, attraction, a-b-da, 14, 1, 6, 11, 135, 60, 125, 56, 60, 135, 2, 0.55807
75, 1, bw, attraction, a-b-db, 9, 2, 6, 12, 165, 90, 90, 165, 86, 157, 1, 3.48512
75, 1, bw, attraction, a-b-db, 9, 2, 6, 12, 165, 90, 90, 165, 86, 157, 2, 0.528043
75, 1, bw, filler, NA, 999, 999, 6, 13, 138, 66, 57, 114, 128, 66, 1, 2.63246
75, 1, bw, filler, NA, 999, 999, 6, 13, 138, 66, 57, 114, 128, 66, 2, 0.797626
75, 1, bw, filler, NA, 999, 999, 6, 14, 121, 152, 165, 191, 159, 131, 2, 0.691399
75, 1, bw, filler, NA, 999, 999, 6, 14, 121, 152, 165, 191, 159, 131, 1, 0.390477
75, 1, bw, attraction, a-b-db, 5, 2, 6, 15, 90, 165, 165, 90, 88, 161, 2, 11.4284
75, 1, bw, attraction, a-b-db, 5, 2, 6, 15, 90, 165, 165, 90, 88, 161, 3, 0.382697
75, 1, bw, attraction, a-b-da, 2, 3, 6, 16, 193, 119, 195, 120, 120, 195, 3, 9.72533
75, 1, bw, attraction, a-b-da, 2, 3, 6, 16, 193, 119, 195, 120, 120, 195, 2, 0.396117
75, 1, bw, attraction, a-b-db, 9, 1, 6, 17, 135, 60, 57, 129, 60, 135, 3, 1.89802
75, 1, bw, attraction, a-b-db, 9, 1, 6, 17, 135, 60, 57, 129, 60, 135, 1, 0.48467
75, 1, bw, filler, NA, 999, 999, 6, 18, 180, 136, 120, 177, 156, 63, 2, 0.935066
75, 1, bw, filler, NA, 999, 999, 6, 18, 180, 136, 120, 177, 156, 63, 3, 2.84096
75, 1, bw, attraction, a-b-da, 5, 1, 6, 19, 132, 58, 135, 60, 60, 135, 3, 4.41983
75, 1, bw, attraction, a-b-da, 5, 1, 6, 19, 132, 58, 135, 60, 60, 135, 2, 0.537121
75, 1, bw, attraction, a-b-db, 2, 3, 6, 20, 195, 120, 120, 195, 119, 193, 2, 2.64956
75, 1, bw, attraction, a-b-db, 2, 3, 6, 20, 195, 120, 120, 195, 119, 193, 1, 1.35828
75, 1, bw, attraction, a-b-da, 14, 3, 6, 21, 195, 120, 120, 195, 181, 111, 2, 3.25282
75, 1, bw, attraction, a-b-da, 14, 3, 6, 21, 195, 120, 120, 195, 181, 111, 3, 0.657322
75, 1, bw, attraction, a-b-db, 9, 3, 6, 22, 114, 186, 195, 120, 120, 195, 3, 2.95626
75, 1, bw, attraction, a-b-db, 9, 3, 6, 22, 114, 186, 195, 120, 120, 195, 1, 0.411896
75, 1, bw, attraction, a-b-da, 2, 2, 6, 23, 165, 90, 90, 165, 163, 89, 1, 3.07301
75, 1, bw, attraction, a-b-da, 2, 2, 6, 23, 165, 90, 90, 165, 163, 89, 3, 0.972107
75, 1, bw, attraction, a-b-db, 14, 2, 6, 24, 83, 153, 165, 90, 90, 165, 3, 7.82718
75, 1, bw, attraction, a-b-db, 14, 2, 6, 24, 83, 153, 165, 90, 90, 165, 1, 0.52668
75, 1, bw, filler, NA, 999, 999, 6, 25, 192, 130, 101, 142, 164, 133, 1, 5.42297
75, 1, bw, filler, NA, 999, 999, 6, 25, 192, 130, 101, 142, 164, 133, 2, 0.883352
75, 1, bw, attraction, a-b-da, 2, 1, 6, 26, 60, 135, 134, 59, 135, 60, 2, 7.68569
75, 1, bw, attraction, a-b-da, 2, 1, 6, 26, 60, 135, 134, 59, 135, 60, 1, 0.527211
75, 1, bw, attraction, a-b-da, 9, 2, 6, 27, 165, 90, 157, 86, 90, 165, 1, 4.3276
75, 1, bw, attraction, a-b-da, 9, 2, 6, 27, 165, 90, 157, 86, 90, 165, 3, 0.440398
75, 1, bw, attraction, a-b-da, 14, 2, 6, 28, 165, 90, 153, 83, 90, 165, 3, 4.39612
75, 1, bw, attraction, a-b-da, 14, 2, 6, 28, 165, 90, 153, 83, 90, 165, 1, 0.594049
75, 1, bw, attraction, a-b-da, 9, 3, 6, 29, 195, 120, 186, 114, 120, 195, 3, 2.38377
75, 1, bw, attraction, a-b-da, 9, 3, 6, 29, 195, 120, 186, 114, 120, 195, 2, 0.543188
75, 1, bw, catch, NA, 999, 999, 6, 30, 191, 124, 164, 91, 124, 71, 1, 0.91875
75, 1, bw, catch, NA, 999, 999, 6, 30, 191, 124, 164, 91, 124, 71, 3, 0.537119
75, 1, bw, catch, NA, 999, 999, 6, 31, 75, 120, 124, 191, 161, 94, 2, 1.72168
75, 1, bw, catch, NA, 999, 999, 6, 31, 75, 120, 124, 191, 161, 94, 1, 0.403055
75, 1, bw, attraction, a-b-db, 2, 2, 6, 32, 165, 90, 90, 165, 89, 163, 2, 1.73683
75, 1, bw, attraction, a-b-db, 2, 2, 6, 32, 165, 90, 90, 165, 89, 163, 3, 0.778242
75, 1, bw, attraction, a-b-da, 9, 1, 6, 33, 135, 60, 60, 135, 129, 57, 3, 1.88861
75, 1, bw, attraction, a-b-da, 9, 1, 6, 33, 135, 60, 60, 135, 129, 57, 2, 0.58744
75, 1, bw, filler, NA, 999, 999, 6, 34, 183, 99, 148, 135, 189, 145, 3, 1.97769
75, 1, bw, filler, NA, 999, 999, 6, 34, 183, 99, 148, 135, 189, 145, 1, 0.761057
75, 1, bw, filler, NA, 999, 999, 6, 35, 165, 66, 79, 189, 109, 84, 2, 6.0642
75, 1, bw, filler, NA, 999, 999, 6, 35, 165, 66, 79, 189, 109, 84, 3, 0.562898
75, 1, bw, attraction, a-b-db, 5, 1, 6, 36, 135, 60, 58, 132, 60, 135, 1, 4.426
75, 1, bw, attraction, a-b-db, 5, 1, 6, 36, 135, 60, 58, 132, 60, 135, 2, 0.414745
75, 1, bw, filler, NA, 999, 999, 6, 37, 80, 152, 193, 96, 168, 56, 2, 0.707716
75, 1, bw, filler, NA, 999, 999, 6, 37, 80, 152, 193, 96, 168, 56, 3, 3.14216
75, 1, bw, filler, NA, 999, 999, 7, 1, 86, 161, 119, 184, 150, 133, 2, 1.62104
75, 1, bw, filler, NA, 999, 999, 7, 1, 86, 161, 119, 184, 150, 133, 1, 0.411205
75, 1, bw, filler, NA, 999, 999, 7, 2, 165, 156, 86, 157, 153, 157, 1, 2.05644
75, 1, bw, filler, NA, 999, 999, 7, 2, 165, 156, 86, 157, 153, 157, 2, 0.340459
75, 1, bw, filler, NA, 999, 999, 7, 3, 98, 184, 64, 96, 77, 76, 1, 1.2042
75, 1, bw, filler, NA, 999, 999, 7, 3, 98, 184, 64, 96, 77, 76, 3, 1.8192
75, 1, bw, attraction, a-b-db, 2, 3, 7, 4, 120, 195, 195, 120, 119, 193, 1, 4.26378
75, 1, bw, attraction, a-b-db, 2, 3, 7, 4, 120, 195, 195, 120, 119, 193, 2, 0.571114
75, 1, bw, catch, NA, 999, 999, 7, 5, 80, 115, 143, 112, 180, 135, 3, 1.77826
75, 1, bw, catch, NA, 999, 999, 7, 5, 80, 115, 143, 112, 180, 135, 1, 0.409629
75, 1, bw, attraction, a-b-da, 5, 2, 7, 6, 90, 165, 161, 88, 165, 90, 2, 8.71078
75, 1, bw, attraction, a-b-da, 5, 2, 7, 6, 90, 165, 161, 88, 165, 90, 1, 0.430786
75, 1, bw, attraction, a-b-da, 14, 3, 7, 7, 181, 111, 120, 195, 195, 120, 2, 3.24323
75, 1, bw, attraction, a-b-da, 14, 3, 7, 7, 181, 111, 120, 195, 195, 120, 1, 2.75964
75, 1, bw, attraction, a-b-db, 9, 2, 7, 8, 86, 157, 90, 165, 165, 90, 2, 4.18198
75, 1, bw, attraction, a-b-db, 9, 2, 7, 8, 86, 157, 90, 165, 165, 90, 3, 0.532601
75, 1, bw, attraction, a-b-db, 9, 1, 7, 9, 60, 135, 135, 60, 57, 129, 1, 5.70104
75, 1, bw, attraction, a-b-db, 9, 1, 7, 9, 60, 135, 135, 60, 57, 129, 2, 0.710512
75, 1, bw, filler, NA, 999, 999, 7, 10, 91, 169, 183, 96, 97, 100, 2, 2.86371
75, 1, bw, filler, NA, 999, 999, 7, 10, 91, 169, 183, 96, 97, 100, 3, 0.571351
75, 1, bw, filler, NA, 999, 999, 7, 11, 168, 71, 139, 182, 85, 119, 2, 0.722459
75, 1, bw, filler, NA, 999, 999, 7, 11, 168, 71, 139, 182, 85, 119, 3, 2.65222
75, 1, bw, attraction, a-b-db, 14, 2, 7, 12, 90, 165, 83, 153, 165, 90, 1, 4.67938
75, 1, bw, attraction, a-b-db, 14, 2, 7, 12, 90, 165, 83, 153, 165, 90, 3, 1.32995
75, 1, bw, attraction, a-b-db, 14, 3, 7, 13, 120, 195, 195, 120, 111, 181, 1, 0.954032
75, 1, bw, attraction, a-b-db, 14, 3, 7, 13, 120, 195, 195, 120, 111, 181, 3, 0.65106
75, 1, bw, catch, NA, 999, 999, 7, 14, 141, 114, 73, 122, 136, 179, 3, 1.0947
75, 1, bw, catch, NA, 999, 999, 7, 14, 141, 114, 73, 122, 136, 179, 2, 0.529726
75, 1, bw, filler, NA, 999, 999, 7, 15, 58, 161, 125, 173, 180, 188, 3, 0.730152
75, 1, bw, filler, NA, 999, 999, 7, 15, 58, 161, 125, 173, 180, 188, 1, 0.499922
75, 1, bw, attraction, a-b-da, 2, 1, 7, 16, 60, 135, 135, 60, 134, 59, 1, 1.33366
75, 1, bw, attraction, a-b-da, 2, 1, 7, 16, 60, 135, 135, 60, 134, 59, 2, 0.503253
75, 1, bw, attraction, a-b-db, 9, 3, 7, 17, 195, 120, 114, 186, 120, 195, 2, 1.12103
75, 1, bw, attraction, a-b-db, 9, 3, 7, 17, 195, 120, 114, 186, 120, 195, 1, 0.87533
75, 1, bw, filler, NA, 999, 999, 7, 18, 141, 86, 137, 70, 96, 104, 1, 4.16567
75, 1, bw, filler, NA, 999, 999, 7, 18, 141, 86, 137, 70, 96, 104, 2, 1.10896
75, 1, bw, filler, NA, 999, 999, 7, 19, 105, 177, 65, 61, 159, 90, 1, 2.6139
75, 1, bw, filler, NA, 999, 999, 7, 19, 105, 177, 65, 61, 159, 90, 2, 0.523826
75, 1, bw, attraction, a-b-db, 5, 2, 7, 20, 88, 161, 90, 165, 165, 90, 2, 9.00419
75, 1, bw, attraction, a-b-db, 5, 2, 7, 20, 88, 161, 90, 165, 165, 90, 3, 0.88075
75, 1, bw, attraction, a-b-da, 5, 1, 7, 21, 132, 58, 135, 60, 60, 135, 2, 2.13097
75, 1, bw, attraction, a-b-da, 5, 1, 7, 21, 132, 58, 135, 60, 60, 135, 1, 0.500298
75, 1, bw, filler, NA, 999, 999, 7, 22, 177, 151, 122, 173, 193, 161, 3, 1.37419
75, 1, bw, filler, NA, 999, 999, 7, 22, 177, 151, 122, 173, 193, 161, 2, 0.485688
75, 1, bw, attraction, a-b-db, 2, 2, 7, 23, 89, 163, 165, 90, 90, 165, 3, 5.70412
75, 1, bw, attraction, a-b-db, 2, 2, 7, 23, 89, 163, 165, 90, 90, 165, 1, 0.865795
75, 1, bw, attraction, a-b-da, 9, 1, 7, 24, 135, 60, 60, 135, 129, 57, 1, 10.4287
75, 1, bw, attraction, a-b-da, 9, 1, 7, 24, 135, 60, 60, 135, 129, 57, 2, 0.43933
75, 1, bw, filler, NA, 999, 999, 7, 25, 133, 58, 112, 121, 86, 178, 2, 1.43582
75, 1, bw, filler, NA, 999, 999, 7, 25, 133, 58, 112, 121, 86, 178, 1, 0.481274
75, 1, bw, attraction, a-b-db, 2, 1, 7, 26, 135, 60, 60, 135, 59, 134, 3, 5.37994
75, 1, bw, attraction, a-b-db, 2, 1, 7, 26, 135, 60, 60, 135, 59, 134, 2, 0.666109
75, 1, bw, attraction, a-b-da, 14, 1, 7, 27, 125, 56, 135, 60, 60, 135, 3, 1.99732
75, 1, bw, attraction, a-b-da, 14, 1, 7, 27, 125, 56, 135, 60, 60, 135, 2, 0.547837
75, 1, bw, attraction, a-b-da, 2, 2, 7, 28, 163, 89, 165, 90, 90, 165, 2, 1.46764
75, 1, bw, attraction, a-b-da, 2, 2, 7, 28, 163, 89, 165, 90, 90, 165, 1, 0.407795
75, 1, bw, attraction, a-b-da, 9, 2, 7, 29, 157, 86, 90, 165, 165, 90, 3, 6.86893
75, 1, bw, attraction, a-b-da, 9, 2, 7, 29, 157, 86, 90, 165, 165, 90, 1, 0.503443
75, 1, bw, catch, NA, 999, 999, 7, 30, 65, 130, 193, 122, 140, 115, 2, 0.769232
75, 1, bw, catch, NA, 999, 999, 7, 30, 65, 130, 193, 122, 140, 115, 1, 0.449723
75, 1, bw, attraction, a-b-da, 2, 3, 7, 31, 195, 120, 120, 195, 193, 119, 1, 2.90152
75, 1, bw, attraction, a-b-da, 2, 3, 7, 31, 195, 120, 120, 195, 193, 119, 3, 1.37586
75, 1, bw, attraction, a-b-da, 5, 3, 7, 32, 190, 117, 195, 120, 120, 195, 3, 3.45409
75, 1, bw, attraction, a-b-da, 5, 3, 7, 32, 190, 117, 195, 120, 120, 195, 2, 0.450231
75, 1, bw, attraction, a-b-da, 9, 3, 7, 33, 120, 195, 186, 114, 195, 120, 1, 14.038
75, 1, bw, attraction, a-b-da, 9, 3, 7, 33, 120, 195, 186, 114, 195, 120, 2, 0.463642
75, 1, bw, attraction, a-b-db, 5, 1, 7, 34, 135, 60, 58, 132, 60, 135, 1, 6.01874
75, 1, bw, attraction, a-b-db, 5, 1, 7, 34, 135, 60, 58, 132, 60, 135, 2, 0.375525
75, 1, bw, attraction, a-b-db, 14, 1, 7, 35, 60, 135, 56, 125, 135, 60, 1, 7.75798
75, 1, bw, attraction, a-b-db, 14, 1, 7, 35, 60, 135, 56, 125, 135, 60, 2, 0.700314
75, 1, bw, attraction, a-b-db, 5, 3, 7, 36, 120, 195, 117, 190, 195, 120, 1, 6.06187
75, 1, bw, attraction, a-b-db, 5, 3, 7, 36, 120, 195, 117, 190, 195, 120, 2, 0.336699
75, 1, bw, attraction, a-b-da, 14, 2, 7, 37, 90, 165, 153, 83, 165, 90, 1, 3.92924
75, 1, bw, attraction, a-b-da, 14, 2, 7, 37, 90, 165, 153, 83, 165, 90, 3, 0.729986
75, 1, bw, attraction, a-b-db, 2, 2, 8, 1, 89, 163, 90, 165, 165, 90, 2, 3.53034
75, 1, bw, attraction, a-b-db, 2, 2, 8, 1, 89, 163, 90, 165, 165, 90, 1, 0.723178
75, 1, bw, filler, NA, 999, 999, 8, 2, 136, 103, 102, 189, 172, 169, 3, 3.31621
75, 1, bw, filler, NA, 999, 999, 8, 2, 136, 103, 102, 189, 172, 169, 1, 0.837952
75, 1, bw, attraction, a-b-da, 14, 2, 8, 3, 153, 83, 165, 90, 90, 165, 3, 1.9622
75, 1, bw, attraction, a-b-da, 14, 2, 8, 3, 153, 83, 165, 90, 90, 165, 1, 0.618347
75, 1, bw, attraction, a-b-db, 9, 3, 8, 4, 195, 120, 120, 195, 114, 186, 2, 1.69538
75, 1, bw, attraction, a-b-db, 9, 3, 8, 4, 195, 120, 120, 195, 114, 186, 1, 0.890321
75, 1, bw, filler, NA, 999, 999, 8, 5, 155, 160, 173, 114, 119, 132, 1, 0.741134
75, 1, bw, filler, NA, 999, 999, 8, 5, 155, 160, 173, 114, 119, 132, 3, 0.460988
75, 1, bw, attraction, a-b-da, 9, 3, 8, 6, 195, 120, 186, 114, 120, 195, 3, 5.56794
75, 1, bw, attraction, a-b-da, 9, 3, 8, 6, 195, 120, 186, 114, 120, 195, 2, 1.09488
75, 1, bw, attraction, a-b-db, 2, 3, 8, 7, 195, 120, 119, 193, 120, 195, 3, 1.3044
75, 1, bw, attraction, a-b-db, 2, 3, 8, 7, 195, 120, 119, 193, 120, 195, 2, 1.23542
75, 1, bw, attraction, a-b-db, 5, 1, 8, 8, 60, 135, 58, 132, 135, 60, 1, 8.79158
75, 1, bw, attraction, a-b-db, 5, 1, 8, 8, 60, 135, 58, 132, 135, 60, 2, 1.08411
75, 1, bw, filler, NA, 999, 999, 8, 9, 148, 72, 110, 58, 154, 100, 3, 0.814489
75, 1, bw, filler, NA, 999, 999, 8, 9, 148, 72, 110, 58, 154, 100, 2, 0.508852
75, 1, bw, attraction, a-b-da, 2, 2, 8, 10, 165, 90, 90, 165, 163, 89, 2, 2.75788
75, 1, bw, attraction, a-b-da, 2, 2, 8, 10, 165, 90, 90, 165, 163, 89, 1, 0.413781
75, 1, bw, attraction, a-b-da, 2, 3, 8, 11, 195, 120, 193, 119, 120, 195, 3, 5.73085
75, 1, bw, attraction, a-b-da, 2, 3, 8, 11, 195, 120, 193, 119, 120, 195, 1, 0.458972
75, 1, bw, filler, NA, 999, 999, 8, 12, 102, 110, 126, 117, 127, 149, 3, 0.806143
75, 1, bw, filler, NA, 999, 999, 8, 12, 102, 110, 126, 117, 127, 149, 1, 0.332528
75, 1, bw, attraction, a-b-da, 9, 2, 8, 13, 165, 90, 157, 86, 90, 165, 3, 9.99703
75, 1, bw, attraction, a-b-da, 9, 2, 8, 13, 165, 90, 157, 86, 90, 165, 2, 0.665309
75, 1, bw, filler, NA, 999, 999, 8, 14, 69, 97, 120, 145, 162, 177, 3, 0.756232
75, 1, bw, filler, NA, 999, 999, 8, 14, 69, 97, 120, 145, 162, 177, 1, 0.788704
75, 1, bw, attraction, a-b-da, 5, 1, 8, 15, 132, 58, 135, 60, 60, 135, 3, 5.2592
75, 1, bw, attraction, a-b-da, 5, 1, 8, 15, 132, 58, 135, 60, 60, 135, 2, 0.45403
75, 1, bw, attraction, a-b-da, 9, 1, 8, 16, 60, 135, 129, 57, 135, 60, 1, 7.22582
75, 1, bw, attraction, a-b-da, 9, 1, 8, 16, 60, 135, 129, 57, 135, 60, 2, 0.58961
75, 1, bw, attraction, a-b-db, 9, 2, 8, 17, 165, 90, 90, 165, 86, 157, 2, 1.57999
75, 1, bw, attraction, a-b-db, 9, 2, 8, 17, 165, 90, 90, 165, 86, 157, 3, 0.371481
75, 1, bw, attraction, a-b-da, 14, 1, 8, 18, 125, 56, 60, 135, 135, 60, 3, 2.14654
75, 1, bw, attraction, a-b-da, 14, 1, 8, 18, 125, 56, 60, 135, 135, 60, 1, 0.699327
75, 1, bw, filler, NA, 999, 999, 8, 19, 171, 113, 144, 141, 174, 168, 3, 1.58901
75, 1, bw, filler, NA, 999, 999, 8, 19, 171, 113, 144, 141, 174, 168, 1, 0.555776
75, 1, bw, filler, NA, 999, 999, 8, 20, 118, 186, 124, 181, 131, 124, 2, 1.29154
75, 1, bw, filler, NA, 999, 999, 8, 20, 118, 186, 124, 181, 131, 124, 3, 0.446478
75, 1, bw, catch, NA, 999, 999, 8, 21, 155, 100, 194, 121, 63, 132, 2, 2.40234
75, 1, bw, catch, NA, 999, 999, 8, 21, 155, 100, 194, 121, 63, 132, 3, 0.424868
75, 1, bw, attraction, a-b-db, 5, 3, 8, 22, 195, 120, 117, 190, 120, 195, 1, 3.64532
75, 1, bw, attraction, a-b-db, 5, 3, 8, 22, 195, 120, 117, 190, 120, 195, 2, 0.713485
75, 1, bw, catch, NA, 999, 999, 8, 23, 103, 92, 139, 116, 162, 153, 3, 1.05865
75, 1, bw, catch, NA, 999, 999, 8, 23, 103, 92, 139, 116, 162, 153, 1, 0.598842
75, 1, bw, attraction, a-b-db, 2, 1, 8, 24, 135, 60, 60, 135, 59, 134, 3, 2.33259
75, 1, bw, attraction, a-b-db, 2, 1, 8, 24, 135, 60, 60, 135, 59, 134, 2, 0.533729
75, 1, bw, filler, NA, 999, 999, 8, 25, 161, 131, 131, 128, 178, 140, 3, 1.39821
75, 1, bw, filler, NA, 999, 999, 8, 25, 161, 131, 131, 128, 178, 140, 2, 0.52509
75, 1, bw, catch, NA, 999, 999, 8, 26, 153, 102, 83, 112, 179, 136, 3, 1.50959
75, 1, bw, catch, NA, 999, 999, 8, 26, 153, 102, 83, 112, 179, 136, 2, 0.457072
75, 1, bw, filler, NA, 999, 999, 8, 27, 125, 138, 180, 103, 147, 120, 2, 13.291
75, 1, bw, filler, NA, 999, 999, 8, 27, 125, 138, 180, 103, 147, 120, 1, 0.714741
75, 1, bw, attraction, a-b-da, 2, 1, 8, 28, 134, 59, 60, 135, 135, 60, 1, 3.89973
75, 1, bw, attraction, a-b-da, 2, 1, 8, 28, 134, 59, 60, 135, 135, 60, 3, 1.23791
75, 1, bw, attraction, a-b-db, 14, 2, 8, 29, 83, 153, 165, 90, 90, 165, 3, 5.63421
75, 1, bw, attraction, a-b-db, 14, 2, 8, 29, 83, 153, 165, 90, 90, 165, 2, 2.4464
75, 1, bw, attraction, a-b-da, 5, 3, 8, 30, 120, 195, 195, 120, 190, 117, 1, 3.44139
75, 1, bw, attraction, a-b-da, 5, 3, 8, 30, 120, 195, 195, 120, 190, 117, 3, 2.37371
75, 1, bw, attraction, a-b-db, 14, 1, 8, 31, 60, 135, 56, 125, 135, 60, 1, 6.0362
75, 1, bw, attraction, a-b-db, 14, 1, 8, 31, 60, 135, 56, 125, 135, 60, 3, 2.33634
75, 1, bw, attraction, a-b-da, 5, 2, 8, 32, 161, 88, 90, 165, 165, 90, 2, 2.03224
75, 1, bw, attraction, a-b-da, 5, 2, 8, 32, 161, 88, 90, 165, 165, 90, 3, 0.541537
75, 1, bw, filler, NA, 999, 999, 8, 33, 71, 67, 76, 78, 89, 105, 3, 1.13328
75, 1, bw, filler, NA, 999, 999, 8, 33, 71, 67, 76, 78, 89, 105, 1, 0.782894
75, 1, bw, attraction, a-b-db, 5, 2, 8, 34, 90, 165, 165, 90, 88, 161, 1, 2.70126
75, 1, bw, attraction, a-b-db, 5, 2, 8, 34, 90, 165, 165, 90, 88, 161, 2, 0.91999
75, 1, bw, attraction, a-b-db, 9, 1, 8, 35, 57, 129, 60, 135, 135, 60, 2, 2.97673
75, 1, bw, attraction, a-b-db, 9, 1, 8, 35, 57, 129, 60, 135, 135, 60, 3, 0.695803
75, 1, bw, attraction, a-b-db, 14, 3, 8, 36, 195, 120, 111, 181, 120, 195, 2, 2.30555
75, 1, bw, attraction, a-b-db, 14, 3, 8, 36, 195, 120, 111, 181, 120, 195, 3, 1.22745
75, 1, bw, attraction, a-b-da, 14, 3, 8, 37, 120, 195, 181, 111, 195, 120, 1, 4.9117
75, 1, bw, attraction, a-b-da, 14, 3, 8, 37, 120, 195, 181, 111, 195, 120, 2, 0.840806
