sub_n, computer_n, bw_cond, effect, set, distance, diag, block_n, trial_n, h1, w1, h2, w2, h3, w3, choice, rt 
79, 1, bw, practice, NA, 999, 999, 0, 1, 97, 190, 167, 104, 168, 137, 3, 5.68768
79, 1, bw, practice, NA, 999, 999, 0, 1, 97, 190, 167, 104, 168, 137, 2, 4.30104
79, 1, bw, practice, NA, 999, 999, 0, 2, 119, 112, 81, 57, 75, 109, 1, 4.20642
79, 1, bw, practice, NA, 999, 999, 0, 2, 119, 112, 81, 57, 75, 109, 2, 1.59964
79, 1, bw, practice, NA, 999, 999, 0, 3, 191, 77, 162, 193, 79, 122, 2, 2.35401
79, 1, bw, practice, NA, 999, 999, 0, 3, 191, 77, 162, 193, 79, 122, 3, 1.64016
79, 1, bw, attraction, a-b-db, 9, 2, 1, 1, 86, 157, 90, 165, 165, 90, 3, 11.7744
79, 1, bw, attraction, a-b-db, 9, 2, 1, 1, 86, 157, 90, 165, 165, 90, 1, 2.0506
79, 1, bw, attraction, a-b-da, 5, 3, 1, 2, 195, 120, 120, 195, 190, 117, 1, 9.4219
79, 1, bw, attraction, a-b-da, 5, 3, 1, 2, 195, 120, 120, 195, 190, 117, 3, 1.98564
79, 1, bw, attraction, a-b-db, 14, 3, 1, 3, 120, 195, 195, 120, 111, 181, 1, 14.1435
79, 1, bw, attraction, a-b-db, 14, 3, 1, 3, 120, 195, 195, 120, 111, 181, 3, 1.74834
79, 1, bw, attraction, a-b-db, 14, 2, 1, 4, 165, 90, 83, 153, 90, 165, 3, 8.08378
79, 1, bw, attraction, a-b-db, 14, 2, 1, 4, 165, 90, 83, 153, 90, 165, 2, 1.66143
79, 1, bw, attraction, a-b-db, 2, 3, 1, 5, 119, 193, 195, 120, 120, 195, 3, 5.31212
79, 1, bw, attraction, a-b-db, 2, 3, 1, 5, 119, 193, 195, 120, 120, 195, 1, 0.552946
79, 1, bw, filler, NA, 999, 999, 1, 6, 133, 118, 189, 194, 166, 154, 2, 2.88076
79, 1, bw, filler, NA, 999, 999, 1, 6, 133, 118, 189, 194, 166, 154, 1, 0.955886
79, 1, bw, catch, NA, 999, 999, 1, 7, 69, 126, 190, 125, 122, 133, 2, 2.06756
79, 1, bw, catch, NA, 999, 999, 1, 7, 69, 126, 190, 125, 122, 133, 1, 1.64746
79, 1, bw, filler, NA, 999, 999, 1, 8, 186, 148, 144, 60, 57, 193, 1, 2.53886
79, 1, bw, filler, NA, 999, 999, 1, 8, 186, 148, 144, 60, 57, 193, 2, 1.05156
79, 1, bw, catch, NA, 999, 999, 1, 9, 109, 86, 189, 126, 139, 116, 2, 3.75917
79, 1, bw, catch, NA, 999, 999, 1, 9, 109, 86, 189, 126, 139, 116, 1, 0.694403
79, 1, bw, attraction, a-b-db, 9, 1, 1, 10, 60, 135, 135, 60, 57, 129, 1, 8.07243
79, 1, bw, attraction, a-b-db, 9, 1, 1, 10, 60, 135, 135, 60, 57, 129, 3, 1.01847
79, 1, bw, attraction, a-b-da, 2, 3, 1, 11, 120, 195, 195, 120, 193, 119, 2, 5.6632
79, 1, bw, attraction, a-b-da, 2, 3, 1, 11, 120, 195, 195, 120, 193, 119, 3, 2.11427
79, 1, bw, filler, NA, 999, 999, 1, 12, 99, 59, 73, 90, 192, 80, 3, 2.21081
79, 1, bw, filler, NA, 999, 999, 1, 12, 99, 59, 73, 90, 192, 80, 1, 1.8407
79, 1, bw, attraction, a-b-da, 2, 2, 1, 13, 165, 90, 163, 89, 90, 165, 1, 6.72408
79, 1, bw, attraction, a-b-da, 2, 2, 1, 13, 165, 90, 163, 89, 90, 165, 3, 1.07598
79, 1, bw, filler, NA, 999, 999, 1, 14, 122, 63, 158, 167, 71, 117, 2, 2.19036
79, 1, bw, filler, NA, 999, 999, 1, 14, 122, 63, 158, 167, 71, 117, 1, 8.54086
79, 1, bw, attraction, a-b-da, 9, 2, 1, 15, 165, 90, 90, 165, 157, 86, 1, 5.20287
79, 1, bw, attraction, a-b-da, 9, 2, 1, 15, 165, 90, 90, 165, 157, 86, 3, 2.24857
79, 1, bw, attraction, a-b-da, 5, 2, 1, 16, 90, 165, 165, 90, 161, 88, 1, 12.2197
79, 1, bw, attraction, a-b-da, 5, 2, 1, 16, 90, 165, 165, 90, 161, 88, 3, 1.00663
79, 1, bw, attraction, a-b-db, 5, 1, 1, 17, 135, 60, 58, 132, 60, 135, 1, 6.0442
79, 1, bw, attraction, a-b-db, 5, 1, 1, 17, 135, 60, 58, 132, 60, 135, 2, 1.51964
79, 1, bw, attraction, a-b-da, 9, 1, 1, 18, 135, 60, 60, 135, 129, 57, 1, 12.0484
79, 1, bw, attraction, a-b-da, 9, 1, 1, 18, 135, 60, 60, 135, 129, 57, 3, 1.25809
79, 1, bw, attraction, a-b-da, 9, 3, 1, 19, 195, 120, 120, 195, 186, 114, 1, 4.81299
79, 1, bw, attraction, a-b-da, 9, 3, 1, 19, 195, 120, 120, 195, 186, 114, 3, 4.29006
79, 1, bw, filler, NA, 999, 999, 1, 20, 163, 121, 100, 160, 119, 193, 3, 4.71525
79, 1, bw, filler, NA, 999, 999, 1, 20, 163, 121, 100, 160, 119, 193, 2, 1.3404
79, 1, bw, filler, NA, 999, 999, 1, 21, 160, 56, 82, 106, 117, 172, 3, 2.3559
79, 1, bw, filler, NA, 999, 999, 1, 21, 160, 56, 82, 106, 117, 172, 1, 6.98781
79, 1, bw, attraction, a-b-da, 14, 1, 1, 22, 135, 60, 60, 135, 125, 56, 1, 5.12019
79, 1, bw, attraction, a-b-da, 14, 1, 1, 22, 135, 60, 60, 135, 125, 56, 2, 1.11341
79, 1, bw, attraction, a-b-da, 14, 2, 1, 23, 165, 90, 90, 165, 153, 83, 1, 9.8343
79, 1, bw, attraction, a-b-da, 14, 2, 1, 23, 165, 90, 90, 165, 153, 83, 2, 3.6213
79, 1, bw, attraction, a-b-db, 2, 2, 1, 24, 90, 165, 89, 163, 165, 90, 2, 5.63316
79, 1, bw, attraction, a-b-db, 2, 2, 1, 24, 90, 165, 89, 163, 165, 90, 3, 2.5735
79, 1, bw, attraction, a-b-db, 9, 3, 1, 25, 195, 120, 114, 186, 120, 195, 2, 6.59587
79, 1, bw, attraction, a-b-db, 9, 3, 1, 25, 195, 120, 114, 186, 120, 195, 3, 0.505179
79, 1, bw, attraction, a-b-da, 14, 3, 1, 26, 195, 120, 120, 195, 181, 111, 2, 4.65105
79, 1, bw, attraction, a-b-da, 14, 3, 1, 26, 195, 120, 120, 195, 181, 111, 3, 1.51077
79, 1, bw, attraction, a-b-db, 2, 1, 1, 27, 59, 134, 60, 135, 135, 60, 3, 5.43963
79, 1, bw, attraction, a-b-db, 2, 1, 1, 27, 59, 134, 60, 135, 135, 60, 1, 0.835343
79, 1, bw, attraction, a-b-db, 5, 2, 1, 28, 90, 165, 165, 90, 88, 161, 2, 12.4796
79, 1, bw, attraction, a-b-db, 5, 2, 1, 28, 90, 165, 165, 90, 88, 161, 1, 3.83967
79, 1, bw, catch, NA, 999, 999, 1, 29, 64, 131, 160, 95, 162, 153, 3, 1.14716
79, 1, bw, catch, NA, 999, 999, 1, 29, 64, 131, 160, 95, 162, 153, 1, 0.643992
79, 1, bw, filler, NA, 999, 999, 1, 30, 62, 119, 64, 194, 195, 111, 3, 1.50383
79, 1, bw, filler, NA, 999, 999, 1, 30, 62, 119, 64, 194, 195, 111, 1, 0.69866
79, 1, bw, attraction, a-b-da, 2, 1, 1, 31, 134, 59, 60, 135, 135, 60, 3, 3.7163
79, 1, bw, attraction, a-b-da, 2, 1, 1, 31, 134, 59, 60, 135, 135, 60, 1, 0.797768
79, 1, bw, attraction, a-b-da, 5, 1, 1, 32, 132, 58, 60, 135, 135, 60, 2, 7.96363
79, 1, bw, attraction, a-b-da, 5, 1, 1, 32, 132, 58, 60, 135, 135, 60, 1, 2.08163
79, 1, bw, attraction, a-b-db, 5, 3, 1, 33, 195, 120, 117, 190, 120, 195, 2, 13.6755
79, 1, bw, attraction, a-b-db, 5, 3, 1, 33, 195, 120, 117, 190, 120, 195, 1, 0.411224
79, 1, bw, filler, NA, 999, 999, 1, 34, 192, 160, 134, 84, 76, 100, 1, 1.4484
79, 1, bw, filler, NA, 999, 999, 1, 34, 192, 160, 134, 84, 76, 100, 3, 0.765222
79, 1, bw, attraction, a-b-db, 14, 1, 1, 35, 135, 60, 56, 125, 60, 135, 3, 5.6204
79, 1, bw, attraction, a-b-db, 14, 1, 1, 35, 135, 60, 56, 125, 60, 135, 2, 1.08129
79, 1, bw, filler, NA, 999, 999, 1, 36, 85, 148, 69, 164, 80, 149, 1, 11.6915
79, 1, bw, filler, NA, 999, 999, 1, 36, 85, 148, 69, 164, 80, 149, 2, 1.11574
79, 1, bw, filler, NA, 999, 999, 1, 37, 101, 82, 170, 183, 175, 57, 2, 2.54072
79, 1, bw, filler, NA, 999, 999, 1, 37, 101, 82, 170, 183, 175, 57, 3, 5.8693
79, 1, bw, attraction, a-b-db, 2, 3, 2, 1, 120, 195, 195, 120, 119, 193, 3, 9.81464
79, 1, bw, attraction, a-b-db, 2, 3, 2, 1, 120, 195, 195, 120, 119, 193, 2, 2.61045
79, 1, bw, attraction, a-b-db, 5, 1, 2, 2, 60, 135, 135, 60, 58, 132, 2, 5.75081
79, 1, bw, attraction, a-b-db, 5, 1, 2, 2, 60, 135, 135, 60, 58, 132, 3, 2.14221
79, 1, bw, filler, NA, 999, 999, 2, 3, 178, 128, 192, 161, 141, 137, 2, 3.02141
79, 1, bw, filler, NA, 999, 999, 2, 3, 178, 128, 192, 161, 141, 137, 3, 1.95526
79, 1, bw, attraction, a-b-db, 9, 1, 2, 4, 60, 135, 57, 129, 135, 60, 3, 10.8025
79, 1, bw, attraction, a-b-db, 9, 1, 2, 4, 60, 135, 57, 129, 135, 60, 1, 0.894389
79, 1, bw, attraction, a-b-db, 14, 2, 2, 5, 90, 165, 83, 153, 165, 90, 1, 8.29629
79, 1, bw, attraction, a-b-db, 14, 2, 2, 5, 90, 165, 83, 153, 165, 90, 3, 1.31283
79, 1, bw, attraction, a-b-da, 2, 2, 2, 6, 163, 89, 90, 165, 165, 90, 2, 11.5857
79, 1, bw, attraction, a-b-da, 2, 2, 2, 6, 163, 89, 90, 165, 165, 90, 1, 0.97404
79, 1, bw, attraction, a-b-db, 9, 2, 2, 7, 86, 157, 165, 90, 90, 165, 2, 5.2204
79, 1, bw, attraction, a-b-db, 9, 2, 2, 7, 86, 157, 165, 90, 90, 165, 1, 1.07346
79, 1, bw, attraction, a-b-db, 2, 1, 2, 8, 60, 135, 135, 60, 59, 134, 2, 2.25233
79, 1, bw, attraction, a-b-db, 2, 1, 2, 8, 60, 135, 135, 60, 59, 134, 1, 1.34483
79, 1, bw, filler, NA, 999, 999, 2, 9, 66, 108, 113, 61, 108, 112, 3, 4.40849
79, 1, bw, filler, NA, 999, 999, 2, 9, 66, 108, 113, 61, 108, 112, 1, 1.57379
79, 1, bw, attraction, a-b-da, 14, 2, 2, 10, 165, 90, 90, 165, 153, 83, 1, 6.42783
79, 1, bw, attraction, a-b-da, 14, 2, 2, 10, 165, 90, 90, 165, 153, 83, 3, 2.27191
79, 1, bw, filler, NA, 999, 999, 2, 11, 159, 136, 104, 113, 95, 64, 1, 2.0183
79, 1, bw, filler, NA, 999, 999, 2, 11, 159, 136, 104, 113, 95, 64, 3, 1.31244
79, 1, bw, filler, NA, 999, 999, 2, 12, 161, 147, 126, 74, 100, 136, 1, 1.83322
79, 1, bw, filler, NA, 999, 999, 2, 12, 161, 147, 126, 74, 100, 136, 2, 1.58267
79, 1, bw, attraction, a-b-da, 14, 3, 2, 13, 195, 120, 181, 111, 120, 195, 1, 15.7089
79, 1, bw, attraction, a-b-da, 14, 3, 2, 13, 195, 120, 181, 111, 120, 195, 2, 1.58713
79, 1, bw, attraction, a-b-da, 5, 1, 2, 14, 135, 60, 132, 58, 60, 135, 3, 2.29743
79, 1, bw, attraction, a-b-da, 5, 1, 2, 14, 135, 60, 132, 58, 60, 135, 1, 1.0039
79, 1, bw, filler, NA, 999, 999, 2, 15, 75, 173, 182, 147, 57, 64, 2, 2.63344
79, 1, bw, filler, NA, 999, 999, 2, 15, 75, 173, 182, 147, 57, 64, 3, 1.0946
79, 1, bw, catch, NA, 999, 999, 2, 16, 105, 150, 123, 192, 134, 61, 2, 1.39222
79, 1, bw, catch, NA, 999, 999, 2, 16, 105, 150, 123, 192, 134, 61, 3, 1.07913
79, 1, bw, attraction, a-b-da, 14, 1, 2, 17, 135, 60, 60, 135, 125, 56, 1, 5.85741
79, 1, bw, attraction, a-b-da, 14, 1, 2, 17, 135, 60, 60, 135, 125, 56, 2, 1.1082
79, 1, bw, attraction, a-b-da, 9, 1, 2, 18, 129, 57, 60, 135, 135, 60, 3, 2.98919
79, 1, bw, attraction, a-b-da, 9, 1, 2, 18, 129, 57, 60, 135, 135, 60, 2, 0.803481
79, 1, bw, attraction, a-b-db, 5, 2, 2, 19, 90, 165, 165, 90, 88, 161, 3, 2.77722
79, 1, bw, attraction, a-b-db, 5, 2, 2, 19, 90, 165, 165, 90, 88, 161, 1, 1.64042
79, 1, bw, attraction, a-b-da, 9, 3, 2, 20, 195, 120, 186, 114, 120, 195, 1, 4.46761
79, 1, bw, attraction, a-b-da, 9, 3, 2, 20, 195, 120, 186, 114, 120, 195, 2, 2.71904
79, 1, bw, attraction, a-b-db, 14, 3, 2, 21, 195, 120, 111, 181, 120, 195, 3, 3.10339
79, 1, bw, attraction, a-b-db, 14, 3, 2, 21, 195, 120, 111, 181, 120, 195, 2, 0.825733
79, 1, bw, attraction, a-b-da, 2, 3, 2, 22, 193, 119, 195, 120, 120, 195, 1, 5.51806
79, 1, bw, attraction, a-b-da, 2, 3, 2, 22, 193, 119, 195, 120, 120, 195, 3, 1.39097
79, 1, bw, catch, NA, 999, 999, 2, 23, 122, 73, 100, 155, 160, 155, 3, 2.54847
79, 1, bw, catch, NA, 999, 999, 2, 23, 122, 73, 100, 155, 160, 155, 1, 0.972996
79, 1, bw, attraction, a-b-db, 2, 2, 2, 24, 90, 165, 89, 163, 165, 90, 2, 6.4119
79, 1, bw, attraction, a-b-db, 2, 2, 2, 24, 90, 165, 89, 163, 165, 90, 3, 0.784662
79, 1, bw, filler, NA, 999, 999, 2, 25, 152, 129, 76, 144, 101, 179, 1, 2.03901
79, 1, bw, filler, NA, 999, 999, 2, 25, 152, 129, 76, 144, 101, 179, 2, 1.41962
79, 1, bw, attraction, a-b-db, 9, 3, 2, 26, 120, 195, 195, 120, 114, 186, 1, 7.55254
79, 1, bw, attraction, a-b-db, 9, 3, 2, 26, 120, 195, 195, 120, 114, 186, 3, 4.03142
79, 1, bw, attraction, a-b-da, 2, 1, 2, 27, 135, 60, 60, 135, 134, 59, 1, 13.6749
79, 1, bw, attraction, a-b-da, 2, 1, 2, 27, 135, 60, 60, 135, 134, 59, 2, 2.93126
79, 1, bw, catch, NA, 999, 999, 2, 28, 140, 175, 101, 154, 127, 68, 1, 1.82694
79, 1, bw, catch, NA, 999, 999, 2, 28, 140, 175, 101, 154, 127, 68, 3, 0.696237
79, 1, bw, filler, NA, 999, 999, 2, 29, 125, 139, 69, 184, 152, 142, 3, 1.57793
79, 1, bw, filler, NA, 999, 999, 2, 29, 125, 139, 69, 184, 152, 142, 2, 1.48143
79, 1, bw, filler, NA, 999, 999, 2, 30, 120, 177, 117, 75, 94, 186, 1, 2.01956
79, 1, bw, filler, NA, 999, 999, 2, 30, 120, 177, 117, 75, 94, 186, 2, 0.929549
79, 1, bw, attraction, a-b-da, 5, 2, 2, 31, 165, 90, 90, 165, 161, 88, 2, 6.28188
79, 1, bw, attraction, a-b-da, 5, 2, 2, 31, 165, 90, 90, 165, 161, 88, 3, 0.459802
79, 1, bw, attraction, a-b-da, 5, 3, 2, 32, 190, 117, 195, 120, 120, 195, 3, 4.17514
79, 1, bw, attraction, a-b-da, 5, 3, 2, 32, 190, 117, 195, 120, 120, 195, 1, 3.4538
79, 1, bw, filler, NA, 999, 999, 2, 33, 156, 65, 103, 122, 73, 66, 2, 11.4086
79, 1, bw, filler, NA, 999, 999, 2, 33, 156, 65, 103, 122, 73, 66, 3, 0.987729
79, 1, bw, filler, NA, 999, 999, 2, 34, 173, 163, 176, 61, 128, 111, 1, 4.68197
79, 1, bw, filler, NA, 999, 999, 2, 34, 173, 163, 176, 61, 128, 111, 2, 1.92441
79, 1, bw, attraction, a-b-da, 9, 2, 2, 35, 157, 86, 90, 165, 165, 90, 2, 9.39646
79, 1, bw, attraction, a-b-da, 9, 2, 2, 35, 157, 86, 90, 165, 165, 90, 1, 0.760753
79, 1, bw, attraction, a-b-db, 5, 3, 2, 36, 195, 120, 120, 195, 117, 190, 2, 3.81597
79, 1, bw, attraction, a-b-db, 5, 3, 2, 36, 195, 120, 120, 195, 117, 190, 3, 0.709375
79, 1, bw, attraction, a-b-db, 14, 1, 2, 37, 60, 135, 135, 60, 56, 125, 2, 2.65429
79, 1, bw, attraction, a-b-db, 14, 1, 2, 37, 60, 135, 135, 60, 56, 125, 3, 0.99477
79, 1, bw, attraction, a-b-db, 5, 1, 3, 1, 58, 132, 60, 135, 135, 60, 3, 2.92855
79, 1, bw, attraction, a-b-db, 5, 1, 3, 1, 58, 132, 60, 135, 135, 60, 1, 1.70554
79, 1, bw, attraction, a-b-db, 14, 1, 3, 2, 135, 60, 56, 125, 60, 135, 1, 7.01094
79, 1, bw, attraction, a-b-db, 14, 1, 3, 2, 135, 60, 56, 125, 60, 135, 2, 0.503503
79, 1, bw, attraction, a-b-da, 2, 3, 3, 3, 120, 195, 195, 120, 193, 119, 1, 7.34516
79, 1, bw, attraction, a-b-da, 2, 3, 3, 3, 120, 195, 195, 120, 193, 119, 3, 0.352187
79, 1, bw, attraction, a-b-db, 14, 3, 3, 4, 120, 195, 195, 120, 111, 181, 1, 4.70416
79, 1, bw, attraction, a-b-db, 14, 3, 3, 4, 120, 195, 195, 120, 111, 181, 3, 0.889882
79, 1, bw, catch, NA, 999, 999, 3, 5, 122, 193, 63, 132, 108, 147, 1, 1.34817
79, 1, bw, catch, NA, 999, 999, 3, 5, 122, 193, 63, 132, 108, 147, 2, 0.861022
79, 1, bw, filler, NA, 999, 999, 3, 6, 86, 101, 131, 174, 189, 140, 3, 6.2721
79, 1, bw, filler, NA, 999, 999, 3, 6, 86, 101, 131, 174, 189, 140, 1, 0.57818
79, 1, bw, attraction, a-b-db, 5, 3, 3, 7, 117, 190, 120, 195, 195, 120, 2, 7.0246
79, 1, bw, attraction, a-b-db, 5, 3, 3, 7, 117, 190, 120, 195, 195, 120, 1, 5.4524
79, 1, bw, filler, NA, 999, 999, 3, 8, 159, 119, 141, 125, 103, 185, 3, 12.7825
79, 1, bw, filler, NA, 999, 999, 3, 8, 159, 119, 141, 125, 103, 185, 2, 3.46658
79, 1, bw, attraction, a-b-db, 9, 3, 3, 9, 195, 120, 114, 186, 120, 195, 3, 6.15665
79, 1, bw, attraction, a-b-db, 9, 3, 3, 9, 195, 120, 114, 186, 120, 195, 2, 1.73953
79, 1, bw, attraction, a-b-da, 14, 1, 3, 10, 125, 56, 135, 60, 60, 135, 3, 9.91554
79, 1, bw, attraction, a-b-da, 14, 1, 3, 10, 125, 56, 135, 60, 60, 135, 1, 0.707024
79, 1, bw, attraction, a-b-da, 5, 2, 3, 11, 165, 90, 161, 88, 90, 165, 1, 5.86009
79, 1, bw, attraction, a-b-da, 5, 2, 3, 11, 165, 90, 161, 88, 90, 165, 2, 0.630881
79, 1, bw, attraction, a-b-db, 9, 2, 3, 12, 165, 90, 86, 157, 90, 165, 1, 4.56335
79, 1, bw, attraction, a-b-db, 9, 2, 3, 12, 165, 90, 86, 157, 90, 165, 2, 1.29057
79, 1, bw, filler, NA, 999, 999, 3, 13, 82, 120, 132, 106, 111, 96, 2, 1.99606
79, 1, bw, filler, NA, 999, 999, 3, 13, 82, 120, 132, 106, 111, 96, 1, 1.66675
79, 1, bw, filler, NA, 999, 999, 3, 14, 98, 180, 86, 107, 150, 158, 3, 1.95744
79, 1, bw, filler, NA, 999, 999, 3, 14, 98, 180, 86, 107, 150, 158, 2, 1.42159
79, 1, bw, catch, NA, 999, 999, 3, 15, 83, 112, 157, 98, 166, 149, 3, 1.57836
79, 1, bw, catch, NA, 999, 999, 3, 15, 83, 112, 157, 98, 166, 149, 1, 0.649818
79, 1, bw, attraction, a-b-da, 9, 1, 3, 16, 135, 60, 129, 57, 60, 135, 3, 1.45348
79, 1, bw, attraction, a-b-da, 9, 1, 3, 16, 135, 60, 129, 57, 60, 135, 2, 0.290408
79, 1, bw, attraction, a-b-db, 14, 2, 3, 17, 83, 153, 165, 90, 90, 165, 2, 4.39632
79, 1, bw, attraction, a-b-db, 14, 2, 3, 17, 83, 153, 165, 90, 90, 165, 1, 0.386277
79, 1, bw, attraction, a-b-da, 2, 2, 3, 18, 90, 165, 163, 89, 165, 90, 1, 4.72077
79, 1, bw, attraction, a-b-da, 2, 2, 3, 18, 90, 165, 163, 89, 165, 90, 2, 1.92983
79, 1, bw, filler, NA, 999, 999, 3, 19, 144, 155, 91, 163, 194, 147, 3, 2.21019
79, 1, bw, filler, NA, 999, 999, 3, 19, 144, 155, 91, 163, 194, 147, 2, 0.823759
79, 1, bw, catch, NA, 999, 999, 3, 20, 121, 74, 130, 185, 112, 143, 2, 1.74014
79, 1, bw, catch, NA, 999, 999, 3, 20, 121, 74, 130, 185, 112, 143, 1, 0.605107
79, 1, bw, filler, NA, 999, 999, 3, 21, 185, 127, 75, 120, 74, 150, 1, 2.78672
79, 1, bw, filler, NA, 999, 999, 3, 21, 185, 127, 75, 120, 74, 150, 2, 0.586031
79, 1, bw, attraction, a-b-da, 5, 1, 3, 22, 132, 58, 60, 135, 135, 60, 3, 4.74427
79, 1, bw, attraction, a-b-da, 5, 1, 3, 22, 132, 58, 60, 135, 135, 60, 2, 0.440095
79, 1, bw, filler, NA, 999, 999, 3, 23, 182, 61, 149, 61, 98, 143, 1, 15.4199
79, 1, bw, filler, NA, 999, 999, 3, 23, 182, 61, 149, 61, 98, 143, 3, 1.64569
79, 1, bw, attraction, a-b-db, 2, 2, 3, 24, 90, 165, 89, 163, 165, 90, 3, 4.14514
79, 1, bw, attraction, a-b-db, 2, 2, 3, 24, 90, 165, 89, 163, 165, 90, 1, 0.633166
79, 1, bw, attraction, a-b-da, 14, 2, 3, 25, 165, 90, 153, 83, 90, 165, 3, 3.14163
79, 1, bw, attraction, a-b-da, 14, 2, 3, 25, 165, 90, 153, 83, 90, 165, 2, 0.933866
79, 1, bw, filler, NA, 999, 999, 3, 26, 87, 135, 102, 126, 129, 59, 2, 4.11012
79, 1, bw, filler, NA, 999, 999, 3, 26, 87, 135, 102, 126, 129, 59, 3, 1.65552
79, 1, bw, attraction, a-b-db, 2, 1, 3, 27, 59, 134, 135, 60, 60, 135, 3, 7.87483
79, 1, bw, attraction, a-b-db, 2, 1, 3, 27, 59, 134, 135, 60, 60, 135, 1, 0.564419
79, 1, bw, attraction, a-b-da, 5, 3, 3, 28, 190, 117, 120, 195, 195, 120, 2, 3.80356
79, 1, bw, attraction, a-b-da, 5, 3, 3, 28, 190, 117, 120, 195, 195, 120, 1, 0.449618
79, 1, bw, attraction, a-b-da, 2, 1, 3, 29, 60, 135, 134, 59, 135, 60, 2, 1.02943
79, 1, bw, attraction, a-b-da, 2, 1, 3, 29, 60, 135, 134, 59, 135, 60, 1, 0.627099
79, 1, bw, attraction, a-b-da, 9, 3, 3, 30, 186, 114, 195, 120, 120, 195, 3, 1.44767
79, 1, bw, attraction, a-b-da, 9, 3, 3, 30, 186, 114, 195, 120, 120, 195, 1, 0.692363
79, 1, bw, filler, NA, 999, 999, 3, 31, 173, 88, 148, 123, 130, 56, 3, 1.1901
79, 1, bw, filler, NA, 999, 999, 3, 31, 173, 88, 148, 123, 130, 56, 2, 0.493045
79, 1, bw, attraction, a-b-db, 9, 1, 3, 32, 60, 135, 135, 60, 57, 129, 1, 7.15074
79, 1, bw, attraction, a-b-db, 9, 1, 3, 32, 60, 135, 135, 60, 57, 129, 2, 0.549943
79, 1, bw, attraction, a-b-da, 14, 3, 3, 33, 181, 111, 120, 195, 195, 120, 2, 1.64555
79, 1, bw, attraction, a-b-da, 14, 3, 3, 33, 181, 111, 120, 195, 195, 120, 1, 0.378772
79, 1, bw, attraction, a-b-db, 2, 3, 3, 34, 119, 193, 120, 195, 195, 120, 3, 2.40888
79, 1, bw, attraction, a-b-db, 2, 3, 3, 34, 119, 193, 120, 195, 195, 120, 1, 0.422825
79, 1, bw, attraction, a-b-db, 5, 2, 3, 35, 88, 161, 165, 90, 90, 165, 3, 2.33996
79, 1, bw, attraction, a-b-db, 5, 2, 3, 35, 88, 161, 165, 90, 90, 165, 1, 1.25253
79, 1, bw, attraction, a-b-da, 9, 2, 3, 36, 90, 165, 157, 86, 165, 90, 3, 2.85616
79, 1, bw, attraction, a-b-da, 9, 2, 3, 36, 90, 165, 157, 86, 165, 90, 1, 1.38794
79, 1, bw, filler, NA, 999, 999, 3, 37, 146, 142, 160, 56, 119, 57, 1, 1.82595
79, 1, bw, filler, NA, 999, 999, 3, 37, 146, 142, 160, 56, 119, 57, 3, 0.655504
79, 1, bw, attraction, a-b-da, 2, 2, 4, 1, 90, 165, 165, 90, 163, 89, 3, 2.98725
79, 1, bw, attraction, a-b-da, 2, 2, 4, 1, 90, 165, 165, 90, 163, 89, 1, 0.634174
79, 1, bw, attraction, a-b-da, 2, 3, 4, 2, 120, 195, 193, 119, 195, 120, 2, 1.97454
79, 1, bw, attraction, a-b-da, 2, 3, 4, 2, 120, 195, 193, 119, 195, 120, 1, 0.662017
79, 1, bw, attraction, a-b-da, 14, 1, 4, 3, 135, 60, 125, 56, 60, 135, 1, 2.55298
79, 1, bw, attraction, a-b-da, 14, 1, 4, 3, 135, 60, 125, 56, 60, 135, 3, 0.841512
79, 1, bw, filler, NA, 999, 999, 4, 4, 154, 120, 141, 83, 66, 195, 3, 4.87732
79, 1, bw, filler, NA, 999, 999, 4, 4, 154, 120, 141, 83, 66, 195, 2, 1.47195
79, 1, bw, filler, NA, 999, 999, 4, 5, 61, 59, 160, 87, 149, 156, 3, 1.80251
79, 1, bw, filler, NA, 999, 999, 4, 5, 61, 59, 160, 87, 149, 156, 1, 1.04119
79, 1, bw, attraction, a-b-db, 14, 3, 4, 6, 195, 120, 111, 181, 120, 195, 3, 3.7329
79, 1, bw, attraction, a-b-db, 14, 3, 4, 6, 195, 120, 111, 181, 120, 195, 2, 2.07762
79, 1, bw, attraction, a-b-db, 9, 3, 4, 7, 120, 195, 114, 186, 195, 120, 1, 4.11955
79, 1, bw, attraction, a-b-db, 9, 3, 4, 7, 120, 195, 114, 186, 195, 120, 2, 0.713013
79, 1, bw, attraction, a-b-db, 2, 3, 4, 8, 195, 120, 120, 195, 119, 193, 2, 4.78621
79, 1, bw, attraction, a-b-db, 2, 3, 4, 8, 195, 120, 120, 195, 119, 193, 3, 0.728511
79, 1, bw, attraction, a-b-da, 9, 3, 4, 9, 120, 195, 186, 114, 195, 120, 3, 3.47284
79, 1, bw, attraction, a-b-da, 9, 3, 4, 9, 120, 195, 186, 114, 195, 120, 1, 0.347696
79, 1, bw, attraction, a-b-da, 9, 2, 4, 10, 165, 90, 157, 86, 90, 165, 3, 1.0676
79, 1, bw, attraction, a-b-da, 9, 2, 4, 10, 165, 90, 157, 86, 90, 165, 2, 0.31991
79, 1, bw, catch, NA, 999, 999, 4, 11, 152, 163, 103, 152, 123, 72, 1, 1.257
79, 1, bw, catch, NA, 999, 999, 4, 11, 152, 163, 103, 152, 123, 72, 3, 0.525454
79, 1, bw, attraction, a-b-db, 5, 1, 4, 12, 60, 135, 135, 60, 58, 132, 3, 0.8938
79, 1, bw, attraction, a-b-db, 5, 1, 4, 12, 60, 135, 135, 60, 58, 132, 2, 0.456812
79, 1, bw, attraction, a-b-db, 2, 1, 4, 13, 59, 134, 60, 135, 135, 60, 1, 1.67586
79, 1, bw, attraction, a-b-db, 2, 1, 4, 13, 59, 134, 60, 135, 135, 60, 3, 0.703346
79, 1, bw, filler, NA, 999, 999, 4, 14, 98, 146, 118, 84, 103, 148, 3, 2.23305
79, 1, bw, filler, NA, 999, 999, 4, 14, 98, 146, 118, 84, 103, 148, 2, 0.334376
79, 1, bw, attraction, a-b-db, 2, 2, 4, 15, 165, 90, 89, 163, 90, 165, 3, 1.13488
79, 1, bw, attraction, a-b-db, 2, 2, 4, 15, 165, 90, 89, 163, 90, 165, 2, 0.320526
79, 1, bw, filler, NA, 999, 999, 4, 16, 69, 188, 111, 87, 180, 58, 3, 0.985605
79, 1, bw, filler, NA, 999, 999, 4, 16, 69, 188, 111, 87, 180, 58, 2, 2.3694
79, 1, bw, catch, NA, 999, 999, 4, 17, 179, 136, 122, 133, 100, 95, 1, 1.50383
79, 1, bw, catch, NA, 999, 999, 4, 17, 179, 136, 122, 133, 100, 95, 3, 0.562748
79, 1, bw, attraction, a-b-db, 14, 2, 4, 18, 165, 90, 90, 165, 83, 153, 2, 1.80972
79, 1, bw, attraction, a-b-db, 14, 2, 4, 18, 165, 90, 90, 165, 83, 153, 3, 0.543832
79, 1, bw, attraction, a-b-da, 2, 1, 4, 19, 135, 60, 60, 135, 134, 59, 2, 3.09565
79, 1, bw, attraction, a-b-da, 2, 1, 4, 19, 135, 60, 60, 135, 134, 59, 1, 0.522004
79, 1, bw, attraction, a-b-db, 5, 3, 4, 20, 195, 120, 117, 190, 120, 195, 3, 2.38736
79, 1, bw, attraction, a-b-db, 5, 3, 4, 20, 195, 120, 117, 190, 120, 195, 1, 0.962263
79, 1, bw, attraction, a-b-da, 9, 1, 4, 21, 60, 135, 129, 57, 135, 60, 2, 1.55331
79, 1, bw, attraction, a-b-da, 9, 1, 4, 21, 60, 135, 129, 57, 135, 60, 1, 3.33022
79, 1, bw, attraction, a-b-db, 9, 1, 4, 22, 57, 129, 135, 60, 60, 135, 2, 3.77772
79, 1, bw, attraction, a-b-db, 9, 1, 4, 22, 57, 129, 135, 60, 60, 135, 1, 0.624686
79, 1, bw, filler, NA, 999, 999, 4, 23, 94, 172, 144, 81, 169, 142, 3, 1.18898
79, 1, bw, filler, NA, 999, 999, 4, 23, 94, 172, 144, 81, 169, 142, 2, 2.07586
79, 1, bw, attraction, a-b-da, 5, 1, 4, 24, 60, 135, 132, 58, 135, 60, 2, 2.68584
79, 1, bw, attraction, a-b-da, 5, 1, 4, 24, 60, 135, 132, 58, 135, 60, 3, 0.624877
79, 1, bw, attraction, a-b-db, 14, 1, 4, 25, 56, 125, 60, 135, 135, 60, 3, 5.46141
79, 1, bw, attraction, a-b-db, 14, 1, 4, 25, 56, 125, 60, 135, 135, 60, 1, 0.656307
79, 1, bw, filler, NA, 999, 999, 4, 26, 179, 195, 166, 120, 100, 111, 1, 1.61199
79, 1, bw, filler, NA, 999, 999, 4, 26, 179, 195, 166, 120, 100, 111, 3, 0.42628
79, 1, bw, attraction, a-b-db, 9, 2, 4, 27, 165, 90, 86, 157, 90, 165, 3, 1.61466
79, 1, bw, attraction, a-b-db, 9, 2, 4, 27, 165, 90, 86, 157, 90, 165, 1, 0.644828
79, 1, bw, catch, NA, 999, 999, 4, 28, 178, 137, 127, 68, 91, 164, 1, 1.80054
79, 1, bw, catch, NA, 999, 999, 4, 28, 178, 137, 127, 68, 91, 164, 2, 0.711289
79, 1, bw, filler, NA, 999, 999, 4, 29, 88, 159, 69, 180, 120, 126, 3, 3.62434
79, 1, bw, filler, NA, 999, 999, 4, 29, 88, 159, 69, 180, 120, 126, 2, 0.797303
79, 1, bw, attraction, a-b-da, 14, 3, 4, 30, 120, 195, 195, 120, 181, 111, 1, 2.02682
79, 1, bw, attraction, a-b-da, 14, 3, 4, 30, 120, 195, 195, 120, 181, 111, 3, 0.512127
79, 1, bw, attraction, a-b-da, 14, 2, 4, 31, 165, 90, 153, 83, 90, 165, 1, 6.37728
79, 1, bw, attraction, a-b-da, 14, 2, 4, 31, 165, 90, 153, 83, 90, 165, 2, 0.623266
79, 1, bw, attraction, a-b-da, 5, 3, 4, 32, 190, 117, 120, 195, 195, 120, 1, 3.77232
79, 1, bw, attraction, a-b-da, 5, 3, 4, 32, 190, 117, 120, 195, 195, 120, 2, 0.86718
79, 1, bw, filler, NA, 999, 999, 4, 33, 147, 70, 112, 100, 120, 138, 3, 1.29411
79, 1, bw, filler, NA, 999, 999, 4, 33, 147, 70, 112, 100, 120, 138, 1, 1.24099
79, 1, bw, filler, NA, 999, 999, 4, 34, 112, 69, 82, 191, 128, 164, 3, 1.24457
79, 1, bw, filler, NA, 999, 999, 4, 34, 112, 69, 82, 191, 128, 164, 1, 1.04948
79, 1, bw, attraction, a-b-da, 5, 2, 4, 35, 90, 165, 161, 88, 165, 90, 3, 0.973234
79, 1, bw, attraction, a-b-da, 5, 2, 4, 35, 90, 165, 161, 88, 165, 90, 1, 2.10878
79, 1, bw, attraction, a-b-db, 5, 2, 4, 36, 165, 90, 88, 161, 90, 165, 3, 13.8615
79, 1, bw, attraction, a-b-db, 5, 2, 4, 36, 165, 90, 88, 161, 90, 165, 1, 0.47772
79, 1, bw, filler, NA, 999, 999, 4, 37, 60, 84, 188, 123, 102, 83, 2, 1.21615
79, 1, bw, filler, NA, 999, 999, 4, 37, 60, 84, 188, 123, 102, 83, 1, 0.454377
79, 1, bw, filler, NA, 999, 999, 5, 1, 181, 165, 146, 113, 128, 70, 1, 3.23219
79, 1, bw, filler, NA, 999, 999, 5, 1, 181, 165, 146, 113, 128, 70, 3, 0.717108
79, 1, bw, attraction, a-b-db, 2, 2, 5, 2, 89, 163, 165, 90, 90, 165, 3, 1.47821
79, 1, bw, attraction, a-b-db, 2, 2, 5, 2, 89, 163, 165, 90, 90, 165, 2, 1.54579
79, 1, bw, attraction, a-b-db, 2, 3, 5, 3, 119, 193, 195, 120, 120, 195, 3, 1.69728
79, 1, bw, attraction, a-b-db, 2, 3, 5, 3, 119, 193, 195, 120, 120, 195, 2, 0.939902
79, 1, bw, attraction, a-b-da, 2, 1, 5, 4, 60, 135, 135, 60, 134, 59, 1, 2.36427
79, 1, bw, attraction, a-b-da, 2, 1, 5, 4, 60, 135, 135, 60, 134, 59, 3, 0.564315
79, 1, bw, catch, NA, 999, 999, 5, 5, 99, 96, 124, 131, 161, 154, 3, 0.795313
79, 1, bw, catch, NA, 999, 999, 5, 5, 99, 96, 124, 131, 161, 154, 1, 0.714318
79, 1, bw, attraction, a-b-da, 2, 3, 5, 6, 195, 120, 120, 195, 193, 119, 2, 2.23547
79, 1, bw, attraction, a-b-da, 2, 3, 5, 6, 195, 120, 120, 195, 193, 119, 3, 0.58465
79, 1, bw, filler, NA, 999, 999, 5, 7, 99, 181, 121, 120, 179, 188, 3, 1.03903
79, 1, bw, filler, NA, 999, 999, 5, 7, 99, 181, 121, 120, 179, 188, 2, 0.988022
79, 1, bw, attraction, a-b-db, 9, 2, 5, 8, 86, 157, 90, 165, 165, 90, 3, 9.84237
79, 1, bw, attraction, a-b-db, 9, 2, 5, 8, 86, 157, 90, 165, 165, 90, 1, 0.716588
79, 1, bw, filler, NA, 999, 999, 5, 9, 163, 94, 95, 57, 57, 105, 1, 1.86966
79, 1, bw, filler, NA, 999, 999, 5, 9, 163, 94, 95, 57, 57, 105, 2, 1.47365
79, 1, bw, filler, NA, 999, 999, 5, 10, 79, 162, 108, 180, 167, 85, 2, 8.17985
79, 1, bw, filler, NA, 999, 999, 5, 10, 79, 162, 108, 180, 167, 85, 1, 1.50543
79, 1, bw, attraction, a-b-da, 9, 3, 5, 11, 195, 120, 120, 195, 186, 114, 2, 4.69082
79, 1, bw, attraction, a-b-da, 9, 3, 5, 11, 195, 120, 120, 195, 186, 114, 3, 2.62053
79, 1, bw, attraction, a-b-db, 14, 2, 5, 12, 83, 153, 165, 90, 90, 165, 3, 3.96105
79, 1, bw, attraction, a-b-db, 14, 2, 5, 12, 83, 153, 165, 90, 90, 165, 1, 0.984525
79, 1, bw, attraction, a-b-db, 5, 3, 5, 13, 117, 190, 120, 195, 195, 120, 3, 2.5748
79, 1, bw, attraction, a-b-db, 5, 3, 5, 13, 117, 190, 120, 195, 195, 120, 1, 0.949897
79, 1, bw, attraction, a-b-da, 14, 2, 5, 14, 90, 165, 165, 90, 153, 83, 1, 1.78155
79, 1, bw, attraction, a-b-da, 14, 2, 5, 14, 90, 165, 165, 90, 153, 83, 3, 0.741006
79, 1, bw, filler, NA, 999, 999, 5, 15, 176, 115, 102, 104, 132, 64, 1, 1.42075
79, 1, bw, filler, NA, 999, 999, 5, 15, 176, 115, 102, 104, 132, 64, 3, 1.48227
79, 1, bw, attraction, a-b-da, 5, 2, 5, 16, 90, 165, 161, 88, 165, 90, 3, 1.42049
79, 1, bw, attraction, a-b-da, 5, 2, 5, 16, 90, 165, 161, 88, 165, 90, 2, 0.578616
79, 1, bw, attraction, a-b-da, 9, 1, 5, 17, 129, 57, 135, 60, 60, 135, 2, 1.42498
79, 1, bw, attraction, a-b-da, 9, 1, 5, 17, 129, 57, 135, 60, 60, 135, 1, 0.702518
79, 1, bw, attraction, a-b-db, 9, 1, 5, 18, 60, 135, 57, 129, 135, 60, 2, 1.28014
79, 1, bw, attraction, a-b-db, 9, 1, 5, 18, 60, 135, 57, 129, 135, 60, 3, 0.379771
79, 1, bw, attraction, a-b-da, 2, 2, 5, 19, 90, 165, 165, 90, 163, 89, 1, 8.51436
79, 1, bw, attraction, a-b-da, 2, 2, 5, 19, 90, 165, 165, 90, 163, 89, 2, 0.954336
79, 1, bw, attraction, a-b-db, 14, 3, 5, 20, 111, 181, 120, 195, 195, 120, 2, 1.88985
79, 1, bw, attraction, a-b-db, 14, 3, 5, 20, 111, 181, 120, 195, 195, 120, 3, 0.604634
79, 1, bw, filler, NA, 999, 999, 5, 21, 163, 70, 165, 190, 192, 188, 3, 2.17851
79, 1, bw, filler, NA, 999, 999, 5, 21, 163, 70, 165, 190, 192, 188, 1, 0.833647
79, 1, bw, attraction, a-b-db, 5, 2, 5, 22, 88, 161, 90, 165, 165, 90, 2, 2.69399
79, 1, bw, attraction, a-b-db, 5, 2, 5, 22, 88, 161, 90, 165, 165, 90, 1, 0.6965
79, 1, bw, attraction, a-b-da, 9, 2, 5, 23, 165, 90, 90, 165, 157, 86, 2, 4.8742
79, 1, bw, attraction, a-b-da, 9, 2, 5, 23, 165, 90, 90, 165, 157, 86, 3, 1.01267
79, 1, bw, attraction, a-b-da, 5, 3, 5, 24, 190, 117, 195, 120, 120, 195, 3, 2.50558
79, 1, bw, attraction, a-b-da, 5, 3, 5, 24, 190, 117, 195, 120, 120, 195, 1, 0.899489
79, 1, bw, filler, NA, 999, 999, 5, 25, 158, 80, 157, 81, 78, 147, 3, 1.50916
79, 1, bw, filler, NA, 999, 999, 5, 25, 158, 80, 157, 81, 78, 147, 2, 0.815273
79, 1, bw, catch, NA, 999, 999, 5, 26, 66, 129, 163, 92, 148, 167, 3, 0.972373
79, 1, bw, catch, NA, 999, 999, 5, 26, 66, 129, 163, 92, 148, 167, 1, 0.59605
79, 1, bw, attraction, a-b-db, 9, 3, 5, 27, 195, 120, 120, 195, 114, 186, 2, 2.14572
79, 1, bw, attraction, a-b-db, 9, 3, 5, 27, 195, 120, 120, 195, 114, 186, 3, 0.650534
79, 1, bw, attraction, a-b-db, 5, 1, 5, 28, 135, 60, 60, 135, 58, 132, 1, 5.42218
79, 1, bw, attraction, a-b-db, 5, 1, 5, 28, 135, 60, 60, 135, 58, 132, 3, 0.731061
79, 1, bw, attraction, a-b-da, 14, 1, 5, 29, 135, 60, 60, 135, 125, 56, 1, 1.70751
79, 1, bw, attraction, a-b-da, 14, 1, 5, 29, 135, 60, 60, 135, 125, 56, 2, 0.629509
79, 1, bw, attraction, a-b-db, 2, 1, 5, 30, 135, 60, 60, 135, 59, 134, 1, 2.01792
79, 1, bw, attraction, a-b-db, 2, 1, 5, 30, 135, 60, 60, 135, 59, 134, 2, 1.87995
79, 1, bw, filler, NA, 999, 999, 5, 31, 188, 169, 69, 139, 144, 66, 1, 2.0579
79, 1, bw, filler, NA, 999, 999, 5, 31, 188, 169, 69, 139, 144, 66, 2, 0.381997
79, 1, bw, catch, NA, 999, 999, 5, 32, 142, 113, 131, 64, 177, 138, 3, 2.97251
79, 1, bw, catch, NA, 999, 999, 5, 32, 142, 113, 131, 64, 177, 138, 2, 0.331663
79, 1, bw, attraction, a-b-da, 5, 1, 5, 33, 60, 135, 132, 58, 135, 60, 3, 8.22822
79, 1, bw, attraction, a-b-da, 5, 1, 5, 33, 60, 135, 132, 58, 135, 60, 2, 0.367498
79, 1, bw, attraction, a-b-db, 14, 1, 5, 34, 60, 135, 56, 125, 135, 60, 3, 1.23852
79, 1, bw, attraction, a-b-db, 14, 1, 5, 34, 60, 135, 56, 125, 135, 60, 2, 0.651537
79, 1, bw, attraction, a-b-da, 14, 3, 5, 35, 195, 120, 120, 195, 181, 111, 2, 2.76724
79, 1, bw, attraction, a-b-da, 14, 3, 5, 35, 195, 120, 120, 195, 181, 111, 3, 0.623077
79, 1, bw, filler, NA, 999, 999, 5, 36, 92, 125, 162, 156, 149, 162, 2, 1.40413
79, 1, bw, filler, NA, 999, 999, 5, 36, 92, 125, 162, 156, 149, 162, 1, 0.53118
79, 1, bw, filler, NA, 999, 999, 5, 37, 79, 90, 103, 150, 100, 156, 2, 1.41136
79, 1, bw, filler, NA, 999, 999, 5, 37, 79, 90, 103, 150, 100, 156, 1, 0.54559
79, 1, bw, catch, NA, 999, 999, 6, 1, 76, 119, 148, 167, 115, 140, 2, 1.33737
79, 1, bw, catch, NA, 999, 999, 6, 1, 76, 119, 148, 167, 115, 140, 1, 0.586937
79, 1, bw, attraction, a-b-da, 2, 2, 6, 2, 163, 89, 165, 90, 90, 165, 3, 6.77737
79, 1, bw, attraction, a-b-da, 2, 2, 6, 2, 163, 89, 165, 90, 90, 165, 1, 0.943208
79, 1, bw, attraction, a-b-db, 2, 2, 6, 3, 165, 90, 89, 163, 90, 165, 1, 1.31889
79, 1, bw, attraction, a-b-db, 2, 2, 6, 3, 165, 90, 89, 163, 90, 165, 3, 0.881103
79, 1, bw, attraction, a-b-da, 14, 1, 6, 4, 60, 135, 125, 56, 135, 60, 3, 0.779465
79, 1, bw, attraction, a-b-da, 14, 1, 6, 4, 60, 135, 125, 56, 135, 60, 1, 0.747187
79, 1, bw, filler, NA, 999, 999, 6, 5, 174, 160, 66, 120, 88, 59, 1, 1.091
79, 1, bw, filler, NA, 999, 999, 6, 5, 174, 160, 66, 120, 88, 59, 3, 0.749876
79, 1, bw, attraction, a-b-db, 9, 3, 6, 6, 114, 186, 120, 195, 195, 120, 3, 1.28553
79, 1, bw, attraction, a-b-db, 9, 3, 6, 6, 114, 186, 120, 195, 195, 120, 1, 3.15311
79, 1, bw, filler, NA, 999, 999, 6, 7, 105, 81, 131, 166, 87, 123, 2, 1.56799
79, 1, bw, filler, NA, 999, 999, 6, 7, 105, 81, 131, 166, 87, 123, 1, 1.19217
79, 1, bw, attraction, a-b-db, 9, 2, 6, 8, 90, 165, 86, 157, 165, 90, 1, 4.21376
79, 1, bw, attraction, a-b-db, 9, 2, 6, 8, 90, 165, 86, 157, 165, 90, 2, 0.835144
79, 1, bw, filler, NA, 999, 999, 6, 9, 93, 112, 88, 96, 71, 83, 1, 1.51145
79, 1, bw, filler, NA, 999, 999, 6, 9, 93, 112, 88, 96, 71, 83, 3, 3.64175
79, 1, bw, attraction, a-b-da, 9, 1, 6, 10, 129, 57, 135, 60, 60, 135, 3, 7.05245
79, 1, bw, attraction, a-b-da, 9, 1, 6, 10, 129, 57, 135, 60, 60, 135, 1, 0.735673
79, 1, bw, attraction, a-b-db, 2, 3, 6, 11, 119, 193, 195, 120, 120, 195, 2, 1.81592
79, 1, bw, attraction, a-b-db, 2, 3, 6, 11, 119, 193, 195, 120, 120, 195, 1, 0.629972
79, 1, bw, attraction, a-b-db, 14, 2, 6, 12, 165, 90, 90, 165, 83, 153, 2, 2.10628
79, 1, bw, attraction, a-b-db, 14, 2, 6, 12, 165, 90, 90, 165, 83, 153, 3, 1.47646
79, 1, bw, attraction, a-b-da, 14, 3, 6, 13, 195, 120, 181, 111, 120, 195, 3, 1.16652
79, 1, bw, attraction, a-b-da, 14, 3, 6, 13, 195, 120, 181, 111, 120, 195, 2, 0.894766
79, 1, bw, filler, NA, 999, 999, 6, 14, 101, 146, 174, 96, 131, 59, 2, 2.27255
79, 1, bw, filler, NA, 999, 999, 6, 14, 101, 146, 174, 96, 131, 59, 3, 0.587701
79, 1, bw, attraction, a-b-da, 2, 3, 6, 15, 195, 120, 120, 195, 193, 119, 2, 1.85013
79, 1, bw, attraction, a-b-da, 2, 3, 6, 15, 195, 120, 120, 195, 193, 119, 1, 4.17488
79, 1, bw, attraction, a-b-da, 5, 1, 6, 16, 132, 58, 60, 135, 135, 60, 2, 5.52415
79, 1, bw, attraction, a-b-da, 5, 1, 6, 16, 132, 58, 60, 135, 135, 60, 1, 0.692467
79, 1, bw, attraction, a-b-db, 14, 3, 6, 17, 195, 120, 111, 181, 120, 195, 2, 4.52615
79, 1, bw, attraction, a-b-db, 14, 3, 6, 17, 195, 120, 111, 181, 120, 195, 1, 0.80676
79, 1, bw, attraction, a-b-db, 9, 1, 6, 18, 57, 129, 60, 135, 135, 60, 3, 5.18845
79, 1, bw, attraction, a-b-db, 9, 1, 6, 18, 57, 129, 60, 135, 135, 60, 1, 0.506801
79, 1, bw, catch, NA, 999, 999, 6, 19, 108, 87, 156, 99, 162, 153, 3, 1.59587
79, 1, bw, catch, NA, 999, 999, 6, 19, 108, 87, 156, 99, 162, 153, 1, 1.51479
79, 1, bw, catch, NA, 999, 999, 6, 20, 90, 105, 138, 117, 161, 154, 3, 0.851444
79, 1, bw, catch, NA, 999, 999, 6, 20, 90, 105, 138, 117, 161, 154, 1, 0.664497
79, 1, bw, filler, NA, 999, 999, 6, 21, 70, 159, 143, 156, 165, 169, 3, 1.38769
79, 1, bw, filler, NA, 999, 999, 6, 21, 70, 159, 143, 156, 165, 169, 1, 0.475191
79, 1, bw, filler, NA, 999, 999, 6, 22, 121, 135, 92, 102, 90, 73, 1, 0.893615
79, 1, bw, filler, NA, 999, 999, 6, 22, 121, 135, 92, 102, 90, 73, 3, 0.824568
79, 1, bw, attraction, a-b-da, 9, 3, 6, 23, 186, 114, 195, 120, 120, 195, 2, 2.67696
79, 1, bw, attraction, a-b-da, 9, 3, 6, 23, 186, 114, 195, 120, 120, 195, 1, 0.392085
79, 1, bw, attraction, a-b-db, 2, 1, 6, 24, 59, 134, 135, 60, 60, 135, 2, 1.86982
79, 1, bw, attraction, a-b-db, 2, 1, 6, 24, 59, 134, 135, 60, 60, 135, 1, 2.03388
79, 1, bw, attraction, a-b-da, 14, 2, 6, 25, 153, 83, 165, 90, 90, 165, 2, 6.14997
79, 1, bw, attraction, a-b-da, 14, 2, 6, 25, 153, 83, 165, 90, 90, 165, 3, 1.27759
79, 1, bw, attraction, a-b-da, 2, 1, 6, 26, 60, 135, 135, 60, 134, 59, 3, 10.5756
79, 1, bw, attraction, a-b-da, 2, 1, 6, 26, 60, 135, 135, 60, 134, 59, 1, 0.788316
79, 1, bw, attraction, a-b-da, 5, 2, 6, 27, 165, 90, 90, 165, 161, 88, 2, 2.02659
79, 1, bw, attraction, a-b-da, 5, 2, 6, 27, 165, 90, 90, 165, 161, 88, 3, 1.02408
79, 1, bw, filler, NA, 999, 999, 6, 28, 122, 73, 56, 154, 110, 139, 3, 2.52428
79, 1, bw, filler, NA, 999, 999, 6, 28, 122, 73, 56, 154, 110, 139, 2, 1.16548
79, 1, bw, attraction, a-b-da, 9, 2, 6, 29, 90, 165, 157, 86, 165, 90, 3, 2.52435
79, 1, bw, attraction, a-b-da, 9, 2, 6, 29, 90, 165, 157, 86, 165, 90, 1, 0.749466
79, 1, bw, attraction, a-b-db, 5, 1, 6, 30, 60, 135, 58, 132, 135, 60, 3, 7.68516
79, 1, bw, attraction, a-b-db, 5, 1, 6, 30, 60, 135, 58, 132, 135, 60, 2, 0.854888
79, 1, bw, attraction, a-b-da, 5, 3, 6, 31, 120, 195, 195, 120, 190, 117, 1, 2.93049
79, 1, bw, attraction, a-b-da, 5, 3, 6, 31, 120, 195, 195, 120, 190, 117, 3, 1.15553
79, 1, bw, filler, NA, 999, 999, 6, 32, 110, 115, 130, 109, 59, 124, 2, 3.01916
79, 1, bw, filler, NA, 999, 999, 6, 32, 110, 115, 130, 109, 59, 124, 3, 0.840964
79, 1, bw, attraction, a-b-db, 5, 2, 6, 33, 90, 165, 165, 90, 88, 161, 2, 9.78849
79, 1, bw, attraction, a-b-db, 5, 2, 6, 33, 90, 165, 165, 90, 88, 161, 1, 0.673419
79, 1, bw, filler, NA, 999, 999, 6, 34, 63, 106, 69, 116, 151, 75, 3, 1.5957
79, 1, bw, filler, NA, 999, 999, 6, 34, 63, 106, 69, 116, 151, 75, 1, 1.31454
79, 1, bw, attraction, a-b-db, 5, 3, 6, 35, 195, 120, 120, 195, 117, 190, 3, 1.93147
79, 1, bw, attraction, a-b-db, 5, 3, 6, 35, 195, 120, 120, 195, 117, 190, 1, 2.56485
79, 1, bw, attraction, a-b-db, 14, 1, 6, 36, 56, 125, 135, 60, 60, 135, 3, 2.18745
79, 1, bw, attraction, a-b-db, 14, 1, 6, 36, 56, 125, 135, 60, 60, 135, 1, 0.594546
79, 1, bw, filler, NA, 999, 999, 6, 37, 109, 137, 103, 95, 111, 75, 1, 1.36825
79, 1, bw, filler, NA, 999, 999, 6, 37, 109, 137, 103, 95, 111, 75, 3, 0.520524
79, 1, bw, attraction, a-b-db, 9, 3, 7, 1, 114, 186, 120, 195, 195, 120, 2, 3.88171
79, 1, bw, attraction, a-b-db, 9, 3, 7, 1, 114, 186, 120, 195, 195, 120, 3, 0.996537
79, 1, bw, filler, NA, 999, 999, 7, 2, 136, 192, 149, 61, 177, 69, 1, 2.19412
79, 1, bw, filler, NA, 999, 999, 7, 2, 136, 192, 149, 61, 177, 69, 2, 0.896712
79, 1, bw, attraction, a-b-db, 2, 2, 7, 3, 165, 90, 89, 163, 90, 165, 2, 9.05833
79, 1, bw, attraction, a-b-db, 2, 2, 7, 3, 165, 90, 89, 163, 90, 165, 1, 0.716118
79, 1, bw, attraction, a-b-da, 14, 3, 7, 4, 120, 195, 195, 120, 181, 111, 2, 2.63719
79, 1, bw, attraction, a-b-da, 14, 3, 7, 4, 120, 195, 195, 120, 181, 111, 1, 1.66632
79, 1, bw, attraction, a-b-da, 5, 1, 7, 5, 135, 60, 132, 58, 60, 135, 1, 4.1651
79, 1, bw, attraction, a-b-da, 5, 1, 7, 5, 135, 60, 132, 58, 60, 135, 3, 0.548445
79, 1, bw, attraction, a-b-da, 9, 2, 7, 6, 165, 90, 157, 86, 90, 165, 3, 3.46029
79, 1, bw, attraction, a-b-da, 9, 2, 7, 6, 165, 90, 157, 86, 90, 165, 2, 0.903714
79, 1, bw, attraction, a-b-db, 2, 3, 7, 7, 195, 120, 119, 193, 120, 195, 2, 19.1213
79, 1, bw, attraction, a-b-db, 2, 3, 7, 7, 195, 120, 119, 193, 120, 195, 1, 0.646212
79, 1, bw, filler, NA, 999, 999, 7, 8, 70, 81, 173, 169, 85, 106, 2, 1.65776
79, 1, bw, filler, NA, 999, 999, 7, 8, 70, 81, 173, 169, 85, 106, 1, 0.749937
79, 1, bw, catch, NA, 999, 999, 7, 9, 134, 121, 121, 74, 153, 162, 3, 1.47758
79, 1, bw, catch, NA, 999, 999, 7, 9, 134, 121, 121, 74, 153, 162, 2, 0.529152
79, 1, bw, attraction, a-b-da, 5, 2, 7, 10, 161, 88, 90, 165, 165, 90, 3, 1.33753
79, 1, bw, attraction, a-b-da, 5, 2, 7, 10, 161, 88, 90, 165, 165, 90, 2, 1.37111
79, 1, bw, attraction, a-b-da, 14, 2, 7, 11, 153, 83, 90, 165, 165, 90, 3, 0.729985
79, 1, bw, attraction, a-b-da, 14, 2, 7, 11, 153, 83, 90, 165, 165, 90, 1, 0.85971
79, 1, bw, attraction, a-b-db, 14, 1, 7, 12, 135, 60, 56, 125, 60, 135, 1, 2.44686
79, 1, bw, attraction, a-b-db, 14, 1, 7, 12, 135, 60, 56, 125, 60, 135, 2, 0.587279
79, 1, bw, attraction, a-b-db, 14, 3, 7, 13, 111, 181, 195, 120, 120, 195, 2, 1.85772
79, 1, bw, attraction, a-b-db, 14, 3, 7, 13, 111, 181, 195, 120, 120, 195, 1, 0.565958
79, 1, bw, filler, NA, 999, 999, 7, 14, 96, 148, 91, 89, 94, 107, 1, 1.33301
79, 1, bw, filler, NA, 999, 999, 7, 14, 96, 148, 91, 89, 94, 107, 2, 0.75049
79, 1, bw, filler, NA, 999, 999, 7, 15, 150, 114, 79, 162, 85, 172, 1, 2.56618
79, 1, bw, filler, NA, 999, 999, 7, 15, 150, 114, 79, 162, 85, 172, 2, 0.861901
79, 1, bw, attraction, a-b-db, 2, 1, 7, 16, 135, 60, 60, 135, 59, 134, 2, 4.16111
79, 1, bw, attraction, a-b-db, 2, 1, 7, 16, 135, 60, 60, 135, 59, 134, 1, 0.816352
79, 1, bw, attraction, a-b-db, 5, 1, 7, 17, 60, 135, 58, 132, 135, 60, 3, 1.34137
79, 1, bw, attraction, a-b-db, 5, 1, 7, 17, 60, 135, 58, 132, 135, 60, 2, 0.550114
79, 1, bw, attraction, a-b-da, 14, 1, 7, 18, 125, 56, 60, 135, 135, 60, 2, 1.81404
79, 1, bw, attraction, a-b-da, 14, 1, 7, 18, 125, 56, 60, 135, 135, 60, 1, 0.508078
79, 1, bw, filler, NA, 999, 999, 7, 19, 74, 83, 95, 184, 108, 60, 2, 1.06116
79, 1, bw, filler, NA, 999, 999, 7, 19, 74, 83, 95, 184, 108, 60, 3, 0.865538
79, 1, bw, filler, NA, 999, 999, 7, 20, 61, 129, 118, 114, 170, 142, 3, 1.3564
79, 1, bw, filler, NA, 999, 999, 7, 20, 61, 129, 118, 114, 170, 142, 1, 0.700695
79, 1, bw, attraction, a-b-da, 2, 3, 7, 21, 193, 119, 120, 195, 195, 120, 2, 1.32645
79, 1, bw, attraction, a-b-da, 2, 3, 7, 21, 193, 119, 120, 195, 195, 120, 1, 0.608043
79, 1, bw, attraction, a-b-db, 9, 2, 7, 22, 165, 90, 86, 157, 90, 165, 3, 2.39707
79, 1, bw, attraction, a-b-db, 9, 2, 7, 22, 165, 90, 86, 157, 90, 165, 2, 0.483727
79, 1, bw, attraction, a-b-da, 9, 1, 7, 23, 135, 60, 60, 135, 129, 57, 3, 5.62222
79, 1, bw, attraction, a-b-da, 9, 1, 7, 23, 135, 60, 60, 135, 129, 57, 2, 0.594956
79, 1, bw, filler, NA, 999, 999, 7, 24, 140, 150, 151, 96, 122, 176, 1, 5.10478
79, 1, bw, filler, NA, 999, 999, 7, 24, 140, 150, 151, 96, 122, 176, 2, 0.594527
79, 1, bw, catch, NA, 999, 999, 7, 25, 66, 129, 157, 158, 116, 139, 2, 1.2482
79, 1, bw, catch, NA, 999, 999, 7, 25, 66, 129, 157, 158, 116, 139, 1, 0.605198
79, 1, bw, attraction, a-b-db, 14, 2, 7, 26, 83, 153, 90, 165, 165, 90, 2, 4.91488
79, 1, bw, attraction, a-b-db, 14, 2, 7, 26, 83, 153, 90, 165, 165, 90, 1, 0.459991
79, 1, bw, attraction, a-b-da, 2, 1, 7, 27, 60, 135, 135, 60, 134, 59, 2, 3.19109
79, 1, bw, attraction, a-b-da, 2, 1, 7, 27, 60, 135, 135, 60, 134, 59, 1, 0.493442
79, 1, bw, filler, NA, 999, 999, 7, 28, 191, 165, 120, 156, 110, 165, 1, 1.7512
79, 1, bw, filler, NA, 999, 999, 7, 28, 191, 165, 120, 156, 110, 165, 3, 0.383913
79, 1, bw, attraction, a-b-db, 5, 2, 7, 29, 88, 161, 165, 90, 90, 165, 3, 1.98255
79, 1, bw, attraction, a-b-db, 5, 2, 7, 29, 88, 161, 165, 90, 90, 165, 1, 0.365761
79, 1, bw, filler, NA, 999, 999, 7, 30, 80, 111, 147, 63, 98, 193, 3, 1.50096
79, 1, bw, filler, NA, 999, 999, 7, 30, 80, 111, 147, 63, 98, 193, 1, 0.655809
79, 1, bw, attraction, a-b-db, 5, 3, 7, 31, 195, 120, 120, 195, 117, 190, 3, 1.11553
79, 1, bw, attraction, a-b-db, 5, 3, 7, 31, 195, 120, 120, 195, 117, 190, 2, 1.92591
79, 1, bw, filler, NA, 999, 999, 7, 32, 163, 71, 135, 124, 141, 140, 3, 1.61375
79, 1, bw, filler, NA, 999, 999, 7, 32, 163, 71, 135, 124, 141, 140, 1, 0.899921
79, 1, bw, attraction, a-b-da, 5, 3, 7, 33, 195, 120, 190, 117, 120, 195, 3, 3.12563
79, 1, bw, attraction, a-b-da, 5, 3, 7, 33, 195, 120, 190, 117, 120, 195, 2, 0.806582
79, 1, bw, attraction, a-b-da, 9, 3, 7, 34, 195, 120, 186, 114, 120, 195, 3, 2.42032
79, 1, bw, attraction, a-b-da, 9, 3, 7, 34, 195, 120, 186, 114, 120, 195, 2, 0.650239
79, 1, bw, attraction, a-b-db, 9, 1, 7, 35, 60, 135, 135, 60, 57, 129, 2, 2.09389
79, 1, bw, attraction, a-b-db, 9, 1, 7, 35, 60, 135, 135, 60, 57, 129, 3, 0.464627
79, 1, bw, catch, NA, 999, 999, 7, 36, 158, 97, 66, 129, 126, 189, 3, 2.92386
79, 1, bw, catch, NA, 999, 999, 7, 36, 158, 97, 66, 129, 126, 189, 2, 0.924834
79, 1, bw, attraction, a-b-da, 2, 2, 7, 37, 163, 89, 165, 90, 90, 165, 3, 0.885074
79, 1, bw, attraction, a-b-da, 2, 2, 7, 37, 163, 89, 165, 90, 90, 165, 1, 0.648722
79, 1, bw, attraction, a-b-db, 5, 2, 8, 1, 88, 161, 90, 165, 165, 90, 3, 0.836638
79, 1, bw, attraction, a-b-db, 5, 2, 8, 1, 88, 161, 90, 165, 165, 90, 1, 0.394289
79, 1, bw, attraction, a-b-da, 9, 3, 8, 2, 186, 114, 195, 120, 120, 195, 3, 0.592134
79, 1, bw, attraction, a-b-da, 9, 3, 8, 2, 186, 114, 195, 120, 120, 195, 2, 1.10323
79, 1, bw, attraction, a-b-da, 2, 1, 8, 3, 134, 59, 60, 135, 135, 60, 3, 1.03274
79, 1, bw, attraction, a-b-da, 2, 1, 8, 3, 134, 59, 60, 135, 135, 60, 2, 0.622398
79, 1, bw, catch, NA, 999, 999, 8, 4, 100, 95, 102, 153, 137, 178, 3, 1.12361
79, 1, bw, catch, NA, 999, 999, 8, 4, 100, 95, 102, 153, 137, 178, 1, 0.58113
79, 1, bw, attraction, a-b-da, 9, 1, 8, 5, 135, 60, 60, 135, 129, 57, 3, 0.779553
79, 1, bw, attraction, a-b-da, 9, 1, 8, 5, 135, 60, 60, 135, 129, 57, 1, 0.55533
79, 1, bw, filler, NA, 999, 999, 8, 6, 76, 124, 113, 133, 81, 106, 2, 1.00311
79, 1, bw, filler, NA, 999, 999, 8, 6, 76, 124, 113, 133, 81, 106, 3, 1.01814
79, 1, bw, attraction, a-b-db, 14, 2, 8, 7, 165, 90, 90, 165, 83, 153, 3, 0.823003
79, 1, bw, attraction, a-b-db, 14, 2, 8, 7, 165, 90, 90, 165, 83, 153, 1, 0.652777
79, 1, bw, attraction, a-b-da, 14, 1, 8, 8, 60, 135, 135, 60, 125, 56, 2, 0.768397
79, 1, bw, attraction, a-b-da, 14, 1, 8, 8, 60, 135, 135, 60, 125, 56, 1, 0.728788
79, 1, bw, filler, NA, 999, 999, 8, 9, 108, 119, 127, 187, 172, 133, 3, 0.897474
79, 1, bw, filler, NA, 999, 999, 8, 9, 108, 119, 127, 187, 172, 133, 1, 0.756367
79, 1, bw, attraction, a-b-da, 5, 3, 8, 10, 190, 117, 195, 120, 120, 195, 3, 0.747894
79, 1, bw, attraction, a-b-da, 5, 3, 8, 10, 190, 117, 195, 120, 120, 195, 1, 0.381149
79, 1, bw, attraction, a-b-db, 2, 2, 8, 11, 89, 163, 165, 90, 90, 165, 3, 0.595739
79, 1, bw, attraction, a-b-db, 2, 2, 8, 11, 89, 163, 165, 90, 90, 165, 1, 0.362707
79, 1, bw, filler, NA, 999, 999, 8, 12, 119, 144, 110, 195, 65, 152, 2, 1.98587
79, 1, bw, filler, NA, 999, 999, 8, 12, 119, 144, 110, 195, 65, 152, 3, 1.08918
79, 1, bw, filler, NA, 999, 999, 8, 13, 88, 156, 191, 79, 119, 153, 3, 0.987519
79, 1, bw, filler, NA, 999, 999, 8, 13, 88, 156, 191, 79, 119, 153, 1, 1.33111
79, 1, bw, attraction, a-b-db, 9, 1, 8, 14, 57, 129, 135, 60, 60, 135, 3, 0.931335
79, 1, bw, attraction, a-b-db, 9, 1, 8, 14, 57, 129, 135, 60, 60, 135, 1, 0.621175
79, 1, bw, filler, NA, 999, 999, 8, 15, 169, 66, 77, 87, 62, 160, 1, 2.88217
79, 1, bw, filler, NA, 999, 999, 8, 15, 169, 66, 77, 87, 62, 160, 2, 0.357271
79, 1, bw, filler, NA, 999, 999, 8, 16, 140, 164, 165, 153, 60, 118, 2, 3.62025
79, 1, bw, filler, NA, 999, 999, 8, 16, 140, 164, 165, 153, 60, 118, 3, 0.537925
79, 1, bw, attraction, a-b-da, 2, 3, 8, 17, 120, 195, 195, 120, 193, 119, 3, 0.906243
79, 1, bw, attraction, a-b-da, 2, 3, 8, 17, 120, 195, 195, 120, 193, 119, 1, 0.764744
79, 1, bw, catch, NA, 999, 999, 8, 18, 72, 123, 157, 98, 125, 190, 3, 1.91583
79, 1, bw, catch, NA, 999, 999, 8, 18, 72, 123, 157, 98, 125, 190, 1, 1.90977
79, 1, bw, attraction, a-b-da, 14, 3, 8, 19, 181, 111, 195, 120, 120, 195, 2, 2.80641
79, 1, bw, attraction, a-b-da, 14, 3, 8, 19, 181, 111, 195, 120, 120, 195, 1, 0.708065
79, 1, bw, filler, NA, 999, 999, 8, 20, 159, 101, 71, 152, 103, 122, 1, 1.89342
79, 1, bw, filler, NA, 999, 999, 8, 20, 159, 101, 71, 152, 103, 122, 2, 1.27196
79, 1, bw, attraction, a-b-db, 14, 1, 8, 21, 135, 60, 60, 135, 56, 125, 1, 2.92278
79, 1, bw, attraction, a-b-db, 14, 1, 8, 21, 135, 60, 60, 135, 56, 125, 3, 0.683899
79, 1, bw, catch, NA, 999, 999, 8, 22, 157, 98, 96, 99, 162, 153, 3, 1.35824
79, 1, bw, catch, NA, 999, 999, 8, 22, 157, 98, 96, 99, 162, 153, 2, 0.518493
79, 1, bw, filler, NA, 999, 999, 8, 23, 187, 146, 106, 105, 78, 126, 1, 1.4236
79, 1, bw, filler, NA, 999, 999, 8, 23, 187, 146, 106, 105, 78, 126, 3, 0.58912
79, 1, bw, attraction, a-b-db, 14, 3, 8, 24, 195, 120, 120, 195, 111, 181, 2, 8.18758
79, 1, bw, attraction, a-b-db, 14, 3, 8, 24, 195, 120, 120, 195, 111, 181, 3, 0.953095
79, 1, bw, attraction, a-b-da, 5, 2, 8, 25, 90, 165, 161, 88, 165, 90, 3, 4.80063
79, 1, bw, attraction, a-b-da, 5, 2, 8, 25, 90, 165, 161, 88, 165, 90, 2, 1.2144
79, 1, bw, attraction, a-b-db, 9, 2, 8, 26, 90, 165, 165, 90, 86, 157, 2, 6.73942
79, 1, bw, attraction, a-b-db, 9, 2, 8, 26, 90, 165, 165, 90, 86, 157, 3, 0.699171
79, 1, bw, attraction, a-b-db, 5, 1, 8, 27, 60, 135, 58, 132, 135, 60, 3, 1.45298
79, 1, bw, attraction, a-b-db, 5, 1, 8, 27, 60, 135, 58, 132, 135, 60, 1, 0.633967
79, 1, bw, attraction, a-b-da, 14, 2, 8, 28, 153, 83, 90, 165, 165, 90, 3, 1.09411
79, 1, bw, attraction, a-b-da, 14, 2, 8, 28, 153, 83, 90, 165, 165, 90, 1, 0.857031
79, 1, bw, filler, NA, 999, 999, 8, 29, 61, 60, 180, 133, 64, 150, 2, 1.06808
79, 1, bw, filler, NA, 999, 999, 8, 29, 61, 60, 180, 133, 64, 150, 1, 0.83244
79, 1, bw, attraction, a-b-db, 2, 3, 8, 30, 195, 120, 120, 195, 119, 193, 3, 1.02074
79, 1, bw, attraction, a-b-db, 2, 3, 8, 30, 195, 120, 120, 195, 119, 193, 1, 1.53106
79, 1, bw, attraction, a-b-db, 5, 3, 8, 31, 195, 120, 120, 195, 117, 190, 1, 1.02725
79, 1, bw, attraction, a-b-db, 5, 3, 8, 31, 195, 120, 120, 195, 117, 190, 3, 0.912894
79, 1, bw, attraction, a-b-db, 9, 3, 8, 32, 114, 186, 195, 120, 120, 195, 3, 3.48178
79, 1, bw, attraction, a-b-db, 9, 3, 8, 32, 114, 186, 195, 120, 120, 195, 1, 0.692742
79, 1, bw, attraction, a-b-da, 2, 2, 8, 33, 165, 90, 90, 165, 163, 89, 2, 15.2544
79, 1, bw, attraction, a-b-da, 2, 2, 8, 33, 165, 90, 90, 165, 163, 89, 1, 0.599025
79, 1, bw, filler, NA, 999, 999, 8, 34, 179, 176, 121, 120, 69, 130, 1, 1.4127
79, 1, bw, filler, NA, 999, 999, 8, 34, 179, 176, 121, 120, 69, 130, 3, 0.570915
79, 1, bw, attraction, a-b-da, 5, 1, 8, 35, 132, 58, 60, 135, 135, 60, 3, 5.3702
79, 1, bw, attraction, a-b-da, 5, 1, 8, 35, 132, 58, 60, 135, 135, 60, 2, 0.657039
79, 1, bw, attraction, a-b-da, 9, 2, 8, 36, 165, 90, 157, 86, 90, 165, 1, 7.82013
79, 1, bw, attraction, a-b-da, 9, 2, 8, 36, 165, 90, 157, 86, 90, 165, 2, 0.576368
79, 1, bw, attraction, a-b-db, 2, 1, 8, 37, 60, 135, 135, 60, 59, 134, 3, 1.15071
79, 1, bw, attraction, a-b-db, 2, 1, 8, 37, 60, 135, 135, 60, 59, 134, 1, 0.767689
