sub_n, computer_n, bw_cond, effect, set, distance, diag, block_n, trial_n, h1, w1, h2, w2, h3, w3, choice, rt 
83, 1, bw, practice, NA, 999, 999, 0, 1, 102, 194, 101, 127, 94, 142, 1, 4.94464
83, 1, bw, practice, NA, 999, 999, 0, 1, 102, 194, 101, 127, 94, 142, 2, 3.16971
83, 1, bw, practice, NA, 999, 999, 0, 2, 173, 58, 91, 118, 68, 111, 1, 3.48401
83, 1, bw, practice, NA, 999, 999, 0, 2, 173, 58, 91, 118, 68, 111, 3, 2.31827
83, 1, bw, practice, NA, 999, 999, 0, 3, 181, 67, 153, 56, 178, 166, 3, 2.60457
83, 1, bw, practice, NA, 999, 999, 0, 3, 181, 67, 153, 56, 178, 166, 2, 2.01113
83, 1, bw, attraction, a-b-db, 14, 3, 1, 1, 195, 120, 120, 195, 111, 181, 1, 2.87806
83, 1, bw, attraction, a-b-db, 14, 3, 1, 1, 195, 120, 120, 195, 111, 181, 3, 2.88915
83, 1, bw, attraction, a-b-da, 5, 1, 1, 2, 60, 135, 132, 58, 135, 60, 3, 5.11478
83, 1, bw, attraction, a-b-da, 5, 1, 1, 2, 60, 135, 132, 58, 135, 60, 2, 1.07595
83, 1, bw, attraction, a-b-db, 14, 2, 1, 3, 90, 165, 83, 153, 165, 90, 3, 5.96616
83, 1, bw, attraction, a-b-db, 14, 2, 1, 3, 90, 165, 83, 153, 165, 90, 2, 0.837025
83, 1, bw, attraction, a-b-da, 2, 2, 1, 4, 90, 165, 165, 90, 163, 89, 1, 3.04928
83, 1, bw, attraction, a-b-da, 2, 2, 1, 4, 90, 165, 165, 90, 163, 89, 2, 1.62971
83, 1, bw, attraction, a-b-db, 9, 1, 1, 5, 135, 60, 60, 135, 57, 129, 3, 4.03371
83, 1, bw, attraction, a-b-db, 9, 1, 1, 5, 135, 60, 60, 135, 57, 129, 1, 3.68646
83, 1, bw, attraction, a-b-db, 5, 3, 1, 6, 195, 120, 120, 195, 117, 190, 2, 5.03991
83, 1, bw, attraction, a-b-db, 5, 3, 1, 6, 195, 120, 120, 195, 117, 190, 3, 1.85973
83, 1, bw, filler, NA, 999, 999, 1, 7, 158, 103, 65, 107, 186, 79, 1, 1.55848
83, 1, bw, filler, NA, 999, 999, 1, 7, 158, 103, 65, 107, 186, 79, 2, 1.09456
83, 1, bw, attraction, a-b-db, 2, 1, 1, 8, 135, 60, 60, 135, 59, 134, 2, 6.96008
83, 1, bw, attraction, a-b-db, 2, 1, 1, 8, 135, 60, 60, 135, 59, 134, 3, 2.04665
83, 1, bw, attraction, a-b-da, 5, 2, 1, 9, 165, 90, 90, 165, 161, 88, 2, 2.44191
83, 1, bw, attraction, a-b-da, 5, 2, 1, 9, 165, 90, 90, 165, 161, 88, 3, 1.40636
83, 1, bw, attraction, a-b-da, 2, 3, 1, 10, 120, 195, 195, 120, 193, 119, 2, 1.79589
83, 1, bw, attraction, a-b-da, 2, 3, 1, 10, 120, 195, 195, 120, 193, 119, 1, 4.39477
83, 1, bw, filler, NA, 999, 999, 1, 11, 168, 174, 188, 84, 144, 168, 1, 1.51121
83, 1, bw, filler, NA, 999, 999, 1, 11, 168, 174, 188, 84, 144, 168, 2, 1.20137
83, 1, bw, attraction, a-b-da, 2, 1, 1, 12, 135, 60, 60, 135, 134, 59, 1, 7.30298
83, 1, bw, attraction, a-b-da, 2, 1, 1, 12, 135, 60, 60, 135, 134, 59, 2, 0.536053
83, 1, bw, attraction, a-b-db, 2, 2, 1, 13, 90, 165, 89, 163, 165, 90, 2, 2.25641
83, 1, bw, attraction, a-b-db, 2, 2, 1, 13, 90, 165, 89, 163, 165, 90, 1, 0.884351
83, 1, bw, attraction, a-b-db, 9, 2, 1, 14, 90, 165, 86, 157, 165, 90, 3, 1.79062
83, 1, bw, attraction, a-b-db, 9, 2, 1, 14, 90, 165, 86, 157, 165, 90, 2, 1.02938
83, 1, bw, filler, NA, 999, 999, 1, 15, 109, 158, 187, 159, 192, 106, 2, 0.953628
83, 1, bw, filler, NA, 999, 999, 1, 15, 109, 158, 187, 159, 192, 106, 1, 2.10681
83, 1, bw, catch, NA, 999, 999, 1, 16, 121, 74, 120, 135, 141, 174, 3, 1.476
83, 1, bw, catch, NA, 999, 999, 1, 16, 121, 74, 120, 135, 141, 174, 1, 0.847618
83, 1, bw, attraction, a-b-da, 9, 2, 1, 17, 165, 90, 90, 165, 157, 86, 3, 7.73122
83, 1, bw, attraction, a-b-da, 9, 2, 1, 17, 165, 90, 90, 165, 157, 86, 2, 0.906766
83, 1, bw, attraction, a-b-da, 14, 1, 1, 18, 135, 60, 125, 56, 60, 135, 1, 2.3485
83, 1, bw, attraction, a-b-da, 14, 1, 1, 18, 135, 60, 125, 56, 60, 135, 3, 1.58095
83, 1, bw, attraction, a-b-db, 5, 2, 1, 19, 88, 161, 90, 165, 165, 90, 2, 2.45909
83, 1, bw, attraction, a-b-db, 5, 2, 1, 19, 88, 161, 90, 165, 165, 90, 1, 0.807064
83, 1, bw, attraction, a-b-db, 14, 1, 1, 20, 135, 60, 60, 135, 56, 125, 2, 2.21998
83, 1, bw, attraction, a-b-db, 14, 1, 1, 20, 135, 60, 60, 135, 56, 125, 1, 1.09012
83, 1, bw, attraction, a-b-db, 5, 1, 1, 21, 60, 135, 135, 60, 58, 132, 2, 6.67565
83, 1, bw, attraction, a-b-db, 5, 1, 1, 21, 60, 135, 135, 60, 58, 132, 1, 0.877407
83, 1, bw, filler, NA, 999, 999, 1, 22, 75, 90, 69, 76, 183, 99, 3, 1.16772
83, 1, bw, filler, NA, 999, 999, 1, 22, 75, 90, 69, 76, 183, 99, 2, 0.848019
83, 1, bw, catch, NA, 999, 999, 1, 23, 150, 105, 80, 115, 190, 125, 3, 1.53169
83, 1, bw, catch, NA, 999, 999, 1, 23, 150, 105, 80, 115, 190, 125, 2, 2.83712
83, 1, bw, catch, NA, 999, 999, 1, 24, 70, 125, 148, 107, 179, 136, 3, 1.11296
83, 1, bw, catch, NA, 999, 999, 1, 24, 70, 125, 148, 107, 179, 136, 1, 1.17123
83, 1, bw, attraction, a-b-da, 9, 3, 1, 25, 195, 120, 120, 195, 186, 114, 1, 6.39403
83, 1, bw, attraction, a-b-da, 9, 3, 1, 25, 195, 120, 120, 195, 186, 114, 3, 1.19943
83, 1, bw, attraction, a-b-da, 9, 1, 1, 26, 60, 135, 129, 57, 135, 60, 1, 2.52499
83, 1, bw, attraction, a-b-da, 9, 1, 1, 26, 60, 135, 129, 57, 135, 60, 3, 0.702219
83, 1, bw, attraction, a-b-da, 5, 3, 1, 27, 195, 120, 120, 195, 190, 117, 2, 2.31194
83, 1, bw, attraction, a-b-da, 5, 3, 1, 27, 195, 120, 120, 195, 190, 117, 1, 1.52993
83, 1, bw, filler, NA, 999, 999, 1, 28, 64, 67, 66, 101, 125, 120, 3, 1.08995
83, 1, bw, filler, NA, 999, 999, 1, 28, 64, 67, 66, 101, 125, 120, 1, 0.604885
83, 1, bw, filler, NA, 999, 999, 1, 29, 189, 96, 99, 146, 151, 63, 1, 1.24277
83, 1, bw, filler, NA, 999, 999, 1, 29, 189, 96, 99, 146, 151, 63, 3, 1.4157
83, 1, bw, attraction, a-b-db, 2, 3, 1, 30, 119, 193, 120, 195, 195, 120, 2, 2.46844
83, 1, bw, attraction, a-b-db, 2, 3, 1, 30, 119, 193, 120, 195, 195, 120, 3, 2.54428
83, 1, bw, attraction, a-b-da, 14, 2, 1, 31, 90, 165, 165, 90, 153, 83, 2, 5.51144
83, 1, bw, attraction, a-b-da, 14, 2, 1, 31, 90, 165, 165, 90, 153, 83, 3, 0.424292
83, 1, bw, filler, NA, 999, 999, 1, 32, 143, 117, 173, 111, 190, 57, 2, 1.47679
83, 1, bw, filler, NA, 999, 999, 1, 32, 143, 117, 173, 111, 190, 57, 3, 0.712432
83, 1, bw, attraction, a-b-db, 9, 3, 1, 33, 195, 120, 120, 195, 114, 186, 2, 1.84936
83, 1, bw, attraction, a-b-db, 9, 3, 1, 33, 195, 120, 120, 195, 114, 186, 3, 0.566219
83, 1, bw, filler, NA, 999, 999, 1, 34, 57, 167, 141, 173, 143, 64, 2, 1.12522
83, 1, bw, filler, NA, 999, 999, 1, 34, 57, 167, 141, 173, 143, 64, 3, 0.966792
83, 1, bw, attraction, a-b-da, 14, 3, 1, 35, 195, 120, 181, 111, 120, 195, 1, 4.35786
83, 1, bw, attraction, a-b-da, 14, 3, 1, 35, 195, 120, 181, 111, 120, 195, 2, 0.421199
83, 1, bw, filler, NA, 999, 999, 1, 36, 157, 136, 131, 128, 101, 86, 1, 0.93821
83, 1, bw, filler, NA, 999, 999, 1, 36, 157, 136, 131, 128, 101, 86, 3, 0.787242
83, 1, bw, filler, NA, 999, 999, 1, 37, 66, 176, 140, 113, 100, 190, 3, 1.88159
83, 1, bw, filler, NA, 999, 999, 1, 37, 66, 176, 140, 113, 100, 190, 1, 1.0132
83, 1, bw, attraction, a-b-da, 2, 1, 2, 1, 135, 60, 60, 135, 134, 59, 3, 4.8899
83, 1, bw, attraction, a-b-da, 2, 1, 2, 1, 135, 60, 60, 135, 134, 59, 1, 0.563739
83, 1, bw, attraction, a-b-db, 9, 1, 2, 2, 57, 129, 60, 135, 135, 60, 2, 2.81089
83, 1, bw, attraction, a-b-db, 9, 1, 2, 2, 57, 129, 60, 135, 135, 60, 3, 0.40055
83, 1, bw, filler, NA, 999, 999, 2, 3, 153, 132, 105, 95, 125, 98, 1, 1.1263
83, 1, bw, filler, NA, 999, 999, 2, 3, 153, 132, 105, 95, 125, 98, 2, 0.735986
83, 1, bw, filler, NA, 999, 999, 2, 4, 125, 158, 91, 108, 83, 82, 1, 1.00834
83, 1, bw, filler, NA, 999, 999, 2, 4, 125, 158, 91, 108, 83, 82, 3, 0.550761
83, 1, bw, attraction, a-b-db, 5, 3, 2, 5, 120, 195, 195, 120, 117, 190, 2, 3.78245
83, 1, bw, attraction, a-b-db, 5, 3, 2, 5, 120, 195, 195, 120, 117, 190, 1, 0.517507
83, 1, bw, filler, NA, 999, 999, 2, 6, 150, 187, 125, 125, 56, 115, 1, 1.36635
83, 1, bw, filler, NA, 999, 999, 2, 6, 150, 187, 125, 125, 56, 115, 3, 1.31876
83, 1, bw, attraction, a-b-db, 14, 2, 2, 7, 90, 165, 83, 153, 165, 90, 3, 1.39952
83, 1, bw, attraction, a-b-db, 14, 2, 2, 7, 90, 165, 83, 153, 165, 90, 2, 0.886329
83, 1, bw, attraction, a-b-da, 9, 2, 2, 8, 157, 86, 90, 165, 165, 90, 3, 1.84063
83, 1, bw, attraction, a-b-da, 9, 2, 2, 8, 157, 86, 90, 165, 165, 90, 1, 0.621395
83, 1, bw, attraction, a-b-da, 5, 2, 2, 9, 90, 165, 161, 88, 165, 90, 2, 2.29047
83, 1, bw, attraction, a-b-da, 5, 2, 2, 9, 90, 165, 161, 88, 165, 90, 1, 0.589073
83, 1, bw, attraction, a-b-db, 2, 3, 2, 10, 119, 193, 120, 195, 195, 120, 2, 1.71548
83, 1, bw, attraction, a-b-db, 2, 3, 2, 10, 119, 193, 120, 195, 195, 120, 1, 0.637737
83, 1, bw, attraction, a-b-db, 5, 1, 2, 11, 58, 132, 135, 60, 60, 135, 3, 3.42612
83, 1, bw, attraction, a-b-db, 5, 1, 2, 11, 58, 132, 135, 60, 60, 135, 1, 0.718911
83, 1, bw, attraction, a-b-da, 2, 3, 2, 12, 195, 120, 120, 195, 193, 119, 1, 3.22403
83, 1, bw, attraction, a-b-da, 2, 3, 2, 12, 195, 120, 120, 195, 193, 119, 3, 1.20498
83, 1, bw, catch, NA, 999, 999, 2, 13, 96, 99, 158, 97, 154, 161, 3, 1.69062
83, 1, bw, catch, NA, 999, 999, 2, 13, 96, 99, 158, 97, 154, 161, 1, 1.0454
83, 1, bw, attraction, a-b-db, 14, 3, 2, 14, 120, 195, 195, 120, 111, 181, 2, 7.93684
83, 1, bw, attraction, a-b-db, 14, 3, 2, 14, 120, 195, 195, 120, 111, 181, 3, 0.776568
83, 1, bw, attraction, a-b-db, 2, 1, 2, 15, 60, 135, 59, 134, 135, 60, 1, 1.35883
83, 1, bw, attraction, a-b-db, 2, 1, 2, 15, 60, 135, 59, 134, 135, 60, 3, 0.686963
83, 1, bw, catch, NA, 999, 999, 2, 16, 93, 162, 119, 76, 164, 151, 3, 1.23342
83, 1, bw, catch, NA, 999, 999, 2, 16, 93, 162, 119, 76, 164, 151, 2, 0.911048
83, 1, bw, attraction, a-b-db, 14, 1, 2, 17, 60, 135, 56, 125, 135, 60, 1, 1.30401
83, 1, bw, attraction, a-b-db, 14, 1, 2, 17, 60, 135, 56, 125, 135, 60, 2, 0.858897
83, 1, bw, filler, NA, 999, 999, 2, 18, 181, 175, 59, 167, 173, 162, 1, 1.8458
83, 1, bw, filler, NA, 999, 999, 2, 18, 181, 175, 59, 167, 173, 162, 2, 0.914549
83, 1, bw, attraction, a-b-da, 5, 1, 2, 19, 60, 135, 135, 60, 132, 58, 1, 2.66757
83, 1, bw, attraction, a-b-da, 5, 1, 2, 19, 60, 135, 135, 60, 132, 58, 3, 0.887519
83, 1, bw, attraction, a-b-db, 9, 3, 2, 20, 114, 186, 195, 120, 120, 195, 3, 2.8897
83, 1, bw, attraction, a-b-db, 9, 3, 2, 20, 114, 186, 195, 120, 120, 195, 1, 0.532314
83, 1, bw, attraction, a-b-da, 14, 1, 2, 21, 135, 60, 125, 56, 60, 135, 3, 1.62051
83, 1, bw, attraction, a-b-da, 14, 1, 2, 21, 135, 60, 125, 56, 60, 135, 2, 0.874086
83, 1, bw, attraction, a-b-da, 9, 1, 2, 22, 135, 60, 60, 135, 129, 57, 2, 6.08445
83, 1, bw, attraction, a-b-da, 9, 1, 2, 22, 135, 60, 60, 135, 129, 57, 3, 0.630455
83, 1, bw, attraction, a-b-da, 14, 2, 2, 23, 165, 90, 153, 83, 90, 165, 1, 2.91489
83, 1, bw, attraction, a-b-da, 14, 2, 2, 23, 165, 90, 153, 83, 90, 165, 2, 0.628508
83, 1, bw, catch, NA, 999, 999, 2, 24, 117, 78, 157, 158, 127, 128, 2, 1.94518
83, 1, bw, catch, NA, 999, 999, 2, 24, 117, 78, 157, 158, 127, 128, 1, 1.17776
83, 1, bw, filler, NA, 999, 999, 2, 25, 195, 106, 137, 134, 106, 128, 1, 1.23991
83, 1, bw, filler, NA, 999, 999, 2, 25, 195, 106, 137, 134, 106, 128, 3, 1.17284
83, 1, bw, filler, NA, 999, 999, 2, 26, 90, 87, 185, 115, 83, 151, 2, 1.01183
83, 1, bw, filler, NA, 999, 999, 2, 26, 90, 87, 185, 115, 83, 151, 1, 0.85808
83, 1, bw, attraction, a-b-da, 9, 3, 2, 27, 120, 195, 195, 120, 186, 114, 1, 3.86929
83, 1, bw, attraction, a-b-da, 9, 3, 2, 27, 120, 195, 195, 120, 186, 114, 3, 0.624547
83, 1, bw, filler, NA, 999, 999, 2, 28, 134, 166, 166, 165, 140, 138, 2, 0.828899
83, 1, bw, filler, NA, 999, 999, 2, 28, 134, 166, 166, 165, 140, 138, 3, 1.78665
83, 1, bw, attraction, a-b-da, 14, 3, 2, 29, 195, 120, 120, 195, 181, 111, 1, 2.74468
83, 1, bw, attraction, a-b-da, 14, 3, 2, 29, 195, 120, 120, 195, 181, 111, 3, 1.20917
83, 1, bw, attraction, a-b-db, 9, 2, 2, 30, 90, 165, 86, 157, 165, 90, 3, 3.05413
83, 1, bw, attraction, a-b-db, 9, 2, 2, 30, 90, 165, 86, 157, 165, 90, 2, 1.0425
83, 1, bw, filler, NA, 999, 999, 2, 31, 56, 102, 171, 97, 136, 103, 2, 1.26211
83, 1, bw, filler, NA, 999, 999, 2, 31, 56, 102, 171, 97, 136, 103, 1, 1.35435
83, 1, bw, filler, NA, 999, 999, 2, 32, 160, 186, 89, 167, 57, 151, 1, 1.62579
83, 1, bw, filler, NA, 999, 999, 2, 32, 160, 186, 89, 167, 57, 151, 3, 2.04733
83, 1, bw, attraction, a-b-db, 2, 2, 2, 33, 90, 165, 165, 90, 89, 163, 2, 5.68249
83, 1, bw, attraction, a-b-db, 2, 2, 2, 33, 90, 165, 165, 90, 89, 163, 3, 1.19678
83, 1, bw, attraction, a-b-da, 5, 3, 2, 34, 190, 117, 120, 195, 195, 120, 2, 6.50625
83, 1, bw, attraction, a-b-da, 5, 3, 2, 34, 190, 117, 120, 195, 195, 120, 1, 1.02756
83, 1, bw, filler, NA, 999, 999, 2, 35, 175, 127, 161, 182, 141, 76, 2, 1.22384
83, 1, bw, filler, NA, 999, 999, 2, 35, 175, 127, 161, 182, 141, 76, 3, 0.445484
83, 1, bw, attraction, a-b-da, 2, 2, 2, 36, 165, 90, 90, 165, 163, 89, 2, 2.67329
83, 1, bw, attraction, a-b-da, 2, 2, 2, 36, 165, 90, 90, 165, 163, 89, 3, 1.51634
83, 1, bw, attraction, a-b-db, 5, 2, 2, 37, 90, 165, 165, 90, 88, 161, 2, 5.31717
83, 1, bw, attraction, a-b-db, 5, 2, 2, 37, 90, 165, 165, 90, 88, 161, 1, 1.05411
83, 1, bw, attraction, a-b-da, 2, 2, 3, 1, 163, 89, 90, 165, 165, 90, 3, 12.6977
83, 1, bw, attraction, a-b-da, 2, 2, 3, 1, 163, 89, 90, 165, 165, 90, 1, 0.729078
83, 1, bw, attraction, a-b-da, 5, 3, 3, 2, 120, 195, 195, 120, 190, 117, 1, 2.2095
83, 1, bw, attraction, a-b-da, 5, 3, 3, 2, 120, 195, 195, 120, 190, 117, 3, 1.38346
83, 1, bw, attraction, a-b-db, 2, 2, 3, 3, 90, 165, 89, 163, 165, 90, 2, 2.43757
83, 1, bw, attraction, a-b-db, 2, 2, 3, 3, 90, 165, 89, 163, 165, 90, 3, 0.442868
83, 1, bw, attraction, a-b-da, 14, 1, 3, 4, 60, 135, 125, 56, 135, 60, 3, 1.81463
83, 1, bw, attraction, a-b-da, 14, 1, 3, 4, 60, 135, 125, 56, 135, 60, 1, 0.308654
83, 1, bw, attraction, a-b-da, 2, 1, 3, 5, 60, 135, 135, 60, 134, 59, 2, 0.573941
83, 1, bw, attraction, a-b-da, 2, 1, 3, 5, 60, 135, 135, 60, 134, 59, 1, 0.309655
83, 1, bw, attraction, a-b-da, 9, 2, 3, 6, 165, 90, 90, 165, 157, 86, 2, 1.04685
83, 1, bw, attraction, a-b-da, 9, 2, 3, 6, 165, 90, 90, 165, 157, 86, 3, 0.45994
83, 1, bw, attraction, a-b-db, 5, 3, 3, 7, 117, 190, 120, 195, 195, 120, 2, 1.55106
83, 1, bw, attraction, a-b-db, 5, 3, 3, 7, 117, 190, 120, 195, 195, 120, 1, 0.66392
83, 1, bw, catch, NA, 999, 999, 3, 8, 151, 164, 98, 157, 109, 86, 1, 1.41894
83, 1, bw, catch, NA, 999, 999, 3, 8, 151, 164, 98, 157, 109, 86, 3, 0.553179
83, 1, bw, attraction, a-b-db, 9, 2, 3, 9, 86, 157, 165, 90, 90, 165, 3, 2.03284
83, 1, bw, attraction, a-b-db, 9, 2, 3, 9, 86, 157, 165, 90, 90, 165, 2, 0.342059
83, 1, bw, filler, NA, 999, 999, 3, 10, 153, 187, 136, 144, 112, 77, 1, 1.07798
83, 1, bw, filler, NA, 999, 999, 3, 10, 153, 187, 136, 144, 112, 77, 3, 1.04966
83, 1, bw, filler, NA, 999, 999, 3, 11, 68, 131, 192, 121, 160, 58, 2, 0.917294
83, 1, bw, filler, NA, 999, 999, 3, 11, 68, 131, 192, 121, 160, 58, 1, 0.799627
83, 1, bw, catch, NA, 999, 999, 3, 12, 115, 80, 145, 110, 137, 178, 3, 1.08522
83, 1, bw, catch, NA, 999, 999, 3, 12, 115, 80, 145, 110, 137, 178, 1, 1.28101
83, 1, bw, attraction, a-b-db, 14, 2, 3, 13, 90, 165, 165, 90, 83, 153, 2, 2.6111
83, 1, bw, attraction, a-b-db, 14, 2, 3, 13, 90, 165, 165, 90, 83, 153, 3, 0.464962
83, 1, bw, attraction, a-b-da, 14, 3, 3, 14, 181, 111, 195, 120, 120, 195, 2, 1.4681
83, 1, bw, attraction, a-b-da, 14, 3, 3, 14, 181, 111, 195, 120, 120, 195, 1, 0.98435
83, 1, bw, attraction, a-b-da, 2, 3, 3, 15, 195, 120, 120, 195, 193, 119, 1, 1.44669
83, 1, bw, attraction, a-b-da, 2, 3, 3, 15, 195, 120, 120, 195, 193, 119, 2, 0.795376
83, 1, bw, attraction, a-b-db, 9, 3, 3, 16, 195, 120, 120, 195, 114, 186, 2, 9.24104
83, 1, bw, attraction, a-b-db, 9, 3, 3, 16, 195, 120, 120, 195, 114, 186, 1, 0.819587
83, 1, bw, attraction, a-b-da, 14, 2, 3, 17, 153, 83, 90, 165, 165, 90, 2, 1.89654
83, 1, bw, attraction, a-b-da, 14, 2, 3, 17, 153, 83, 90, 165, 165, 90, 1, 1.06724
83, 1, bw, attraction, a-b-db, 5, 2, 3, 18, 88, 161, 90, 165, 165, 90, 3, 2.2382
83, 1, bw, attraction, a-b-db, 5, 2, 3, 18, 88, 161, 90, 165, 165, 90, 1, 0.610841
83, 1, bw, filler, NA, 999, 999, 3, 19, 102, 151, 104, 182, 77, 105, 2, 1.26407
83, 1, bw, filler, NA, 999, 999, 3, 19, 102, 151, 104, 182, 77, 105, 3, 0.764151
83, 1, bw, filler, NA, 999, 999, 3, 20, 132, 109, 157, 149, 137, 63, 2, 1.2672
83, 1, bw, filler, NA, 999, 999, 3, 20, 132, 109, 157, 149, 137, 63, 3, 0.823402
83, 1, bw, catch, NA, 999, 999, 3, 21, 109, 86, 145, 110, 180, 135, 3, 1.66782
83, 1, bw, catch, NA, 999, 999, 3, 21, 109, 86, 145, 110, 180, 135, 1, 0.983972
83, 1, bw, filler, NA, 999, 999, 3, 22, 165, 93, 183, 85, 161, 189, 3, 1.41427
83, 1, bw, filler, NA, 999, 999, 3, 22, 165, 93, 183, 85, 161, 189, 1, 0.948515
83, 1, bw, attraction, a-b-db, 14, 3, 3, 23, 111, 181, 120, 195, 195, 120, 2, 1.82809
83, 1, bw, attraction, a-b-db, 14, 3, 3, 23, 111, 181, 120, 195, 195, 120, 1, 1.44946
83, 1, bw, attraction, a-b-da, 9, 3, 3, 24, 195, 120, 186, 114, 120, 195, 3, 2.64501
83, 1, bw, attraction, a-b-da, 9, 3, 3, 24, 195, 120, 186, 114, 120, 195, 1, 2.0974
83, 1, bw, filler, NA, 999, 999, 3, 25, 177, 69, 85, 159, 65, 113, 2, 1.68269
83, 1, bw, filler, NA, 999, 999, 3, 25, 177, 69, 85, 159, 65, 113, 3, 0.44614
83, 1, bw, filler, NA, 999, 999, 3, 26, 121, 166, 94, 192, 138, 139, 1, 1.90593
83, 1, bw, filler, NA, 999, 999, 3, 26, 121, 166, 94, 192, 138, 139, 3, 1.87594
83, 1, bw, attraction, a-b-db, 9, 1, 3, 27, 60, 135, 57, 129, 135, 60, 1, 1.59002
83, 1, bw, attraction, a-b-db, 9, 1, 3, 27, 60, 135, 57, 129, 135, 60, 2, 0.428821
83, 1, bw, attraction, a-b-db, 2, 1, 3, 28, 60, 135, 135, 60, 59, 134, 2, 0.817439
83, 1, bw, attraction, a-b-db, 2, 1, 3, 28, 60, 135, 135, 60, 59, 134, 3, 0.623701
83, 1, bw, attraction, a-b-da, 9, 1, 3, 29, 60, 135, 135, 60, 129, 57, 3, 0.980155
83, 1, bw, attraction, a-b-da, 9, 1, 3, 29, 60, 135, 135, 60, 129, 57, 1, 0.611782
83, 1, bw, filler, NA, 999, 999, 3, 30, 65, 180, 130, 88, 59, 62, 2, 1.27293
83, 1, bw, filler, NA, 999, 999, 3, 30, 65, 180, 130, 88, 59, 62, 3, 0.508446
83, 1, bw, attraction, a-b-db, 2, 3, 3, 31, 120, 195, 195, 120, 119, 193, 2, 0.661555
83, 1, bw, attraction, a-b-db, 2, 3, 3, 31, 120, 195, 195, 120, 119, 193, 1, 0.569962
83, 1, bw, filler, NA, 999, 999, 3, 32, 86, 117, 174, 150, 164, 103, 2, 0.889109
83, 1, bw, filler, NA, 999, 999, 3, 32, 86, 117, 174, 150, 164, 103, 1, 0.540036
83, 1, bw, filler, NA, 999, 999, 3, 33, 176, 114, 66, 169, 56, 118, 1, 0.731848
83, 1, bw, filler, NA, 999, 999, 3, 33, 176, 114, 66, 169, 56, 118, 3, 0.749568
83, 1, bw, attraction, a-b-da, 5, 1, 3, 34, 135, 60, 132, 58, 60, 135, 1, 2.15761
83, 1, bw, attraction, a-b-da, 5, 1, 3, 34, 135, 60, 132, 58, 60, 135, 2, 0.573236
83, 1, bw, attraction, a-b-db, 5, 1, 3, 35, 58, 132, 60, 135, 135, 60, 3, 1.44439
83, 1, bw, attraction, a-b-db, 5, 1, 3, 35, 58, 132, 60, 135, 135, 60, 2, 0.657261
83, 1, bw, attraction, a-b-da, 5, 2, 3, 36, 165, 90, 161, 88, 90, 165, 1, 1.11638
83, 1, bw, attraction, a-b-da, 5, 2, 3, 36, 165, 90, 161, 88, 90, 165, 2, 0.790606
83, 1, bw, attraction, a-b-db, 14, 1, 3, 37, 56, 125, 135, 60, 60, 135, 3, 1.62034
83, 1, bw, attraction, a-b-db, 14, 1, 3, 37, 56, 125, 135, 60, 60, 135, 1, 0.514374
83, 1, bw, attraction, a-b-da, 9, 1, 4, 1, 60, 135, 135, 60, 129, 57, 2, 1.06752
83, 1, bw, attraction, a-b-da, 9, 1, 4, 1, 60, 135, 135, 60, 129, 57, 3, 0.519891
83, 1, bw, attraction, a-b-da, 9, 2, 4, 2, 90, 165, 157, 86, 165, 90, 2, 0.80897
83, 1, bw, attraction, a-b-da, 9, 2, 4, 2, 90, 165, 157, 86, 165, 90, 1, 0.495437
83, 1, bw, attraction, a-b-db, 2, 3, 4, 3, 195, 120, 119, 193, 120, 195, 1, 2.12113
83, 1, bw, attraction, a-b-db, 2, 3, 4, 3, 195, 120, 119, 193, 120, 195, 2, 0.979079
83, 1, bw, attraction, a-b-da, 5, 1, 4, 4, 132, 58, 60, 135, 135, 60, 3, 2.80158
83, 1, bw, attraction, a-b-da, 5, 1, 4, 4, 132, 58, 60, 135, 135, 60, 2, 1.59987
83, 1, bw, filler, NA, 999, 999, 4, 5, 184, 86, 148, 150, 91, 114, 2, 1.20526
83, 1, bw, filler, NA, 999, 999, 4, 5, 184, 86, 148, 150, 91, 114, 3, 0.923529
83, 1, bw, attraction, a-b-db, 14, 2, 4, 6, 90, 165, 165, 90, 83, 153, 1, 3.54792
83, 1, bw, attraction, a-b-db, 14, 2, 4, 6, 90, 165, 165, 90, 83, 153, 3, 1.12417
83, 1, bw, attraction, a-b-db, 9, 3, 4, 7, 195, 120, 120, 195, 114, 186, 2, 1.14838
83, 1, bw, attraction, a-b-db, 9, 3, 4, 7, 195, 120, 120, 195, 114, 186, 3, 1.19725
83, 1, bw, attraction, a-b-da, 5, 3, 4, 8, 190, 117, 195, 120, 120, 195, 3, 1.66677
83, 1, bw, attraction, a-b-da, 5, 3, 4, 8, 190, 117, 195, 120, 120, 195, 1, 1.11897
83, 1, bw, attraction, a-b-da, 14, 3, 4, 9, 120, 195, 195, 120, 181, 111, 1, 1.11184
83, 1, bw, attraction, a-b-da, 14, 3, 4, 9, 120, 195, 195, 120, 181, 111, 3, 0.610145
83, 1, bw, attraction, a-b-db, 5, 1, 4, 10, 58, 132, 135, 60, 60, 135, 3, 1.06319
83, 1, bw, attraction, a-b-db, 5, 1, 4, 10, 58, 132, 135, 60, 60, 135, 2, 0.923566
83, 1, bw, filler, NA, 999, 999, 4, 11, 157, 166, 140, 138, 182, 135, 1, 2.93194
83, 1, bw, filler, NA, 999, 999, 4, 11, 157, 166, 140, 138, 182, 135, 2, 0.909088
83, 1, bw, attraction, a-b-db, 9, 1, 4, 12, 60, 135, 135, 60, 57, 129, 3, 1.94203
83, 1, bw, attraction, a-b-db, 9, 1, 4, 12, 60, 135, 135, 60, 57, 129, 2, 1.01461
83, 1, bw, attraction, a-b-db, 2, 2, 4, 13, 90, 165, 165, 90, 89, 163, 3, 1.90769
83, 1, bw, attraction, a-b-db, 2, 2, 4, 13, 90, 165, 165, 90, 89, 163, 2, 0.517759
83, 1, bw, filler, NA, 999, 999, 4, 14, 183, 157, 87, 60, 64, 94, 1, 1.40666
83, 1, bw, filler, NA, 999, 999, 4, 14, 183, 157, 87, 60, 64, 94, 2, 1.39692
83, 1, bw, attraction, a-b-db, 14, 3, 4, 15, 120, 195, 195, 120, 111, 181, 2, 1.4985
83, 1, bw, attraction, a-b-db, 14, 3, 4, 15, 120, 195, 195, 120, 111, 181, 3, 1.54923
83, 1, bw, attraction, a-b-da, 14, 1, 4, 16, 125, 56, 135, 60, 60, 135, 1, 2.17282
83, 1, bw, attraction, a-b-da, 14, 1, 4, 16, 125, 56, 135, 60, 60, 135, 2, 1.15607
83, 1, bw, attraction, a-b-db, 9, 2, 4, 17, 86, 157, 165, 90, 90, 165, 3, 1.71557
83, 1, bw, attraction, a-b-db, 9, 2, 4, 17, 86, 157, 165, 90, 90, 165, 1, 1.46967
83, 1, bw, attraction, a-b-da, 2, 3, 4, 18, 120, 195, 193, 119, 195, 120, 3, 1.9045
83, 1, bw, attraction, a-b-da, 2, 3, 4, 18, 120, 195, 193, 119, 195, 120, 1, 0.891205
83, 1, bw, attraction, a-b-da, 2, 1, 4, 19, 135, 60, 60, 135, 134, 59, 3, 2.51697
83, 1, bw, attraction, a-b-da, 2, 1, 4, 19, 135, 60, 60, 135, 134, 59, 1, 1.74274
83, 1, bw, filler, NA, 999, 999, 4, 20, 161, 83, 64, 60, 173, 164, 3, 1.3982
83, 1, bw, filler, NA, 999, 999, 4, 20, 161, 83, 64, 60, 173, 164, 2, 1.06915
83, 1, bw, catch, NA, 999, 999, 4, 21, 130, 65, 154, 101, 170, 145, 3, 1.30401
83, 1, bw, catch, NA, 999, 999, 4, 21, 130, 65, 154, 101, 170, 145, 1, 0.666949
83, 1, bw, catch, NA, 999, 999, 4, 22, 152, 103, 100, 95, 136, 179, 3, 1.26994
83, 1, bw, catch, NA, 999, 999, 4, 22, 152, 103, 100, 95, 136, 179, 2, 0.770177
83, 1, bw, attraction, a-b-da, 9, 3, 4, 23, 120, 195, 186, 114, 195, 120, 1, 2.69718
83, 1, bw, attraction, a-b-da, 9, 3, 4, 23, 120, 195, 186, 114, 195, 120, 2, 0.739683
83, 1, bw, attraction, a-b-db, 5, 3, 4, 24, 195, 120, 117, 190, 120, 195, 1, 0.820006
83, 1, bw, attraction, a-b-db, 5, 3, 4, 24, 195, 120, 117, 190, 120, 195, 3, 0.578453
83, 1, bw, filler, NA, 999, 999, 4, 25, 152, 96, 182, 129, 174, 89, 2, 1.07298
83, 1, bw, filler, NA, 999, 999, 4, 25, 152, 96, 182, 129, 174, 89, 1, 0.700504
83, 1, bw, attraction, a-b-db, 14, 1, 4, 26, 56, 125, 60, 135, 135, 60, 3, 1.77418
83, 1, bw, attraction, a-b-db, 14, 1, 4, 26, 56, 125, 60, 135, 135, 60, 1, 0.429596
83, 1, bw, filler, NA, 999, 999, 4, 27, 171, 122, 105, 86, 185, 65, 1, 1.0901
83, 1, bw, filler, NA, 999, 999, 4, 27, 171, 122, 105, 86, 185, 65, 2, 0.517084
83, 1, bw, attraction, a-b-db, 5, 2, 4, 28, 165, 90, 88, 161, 90, 165, 3, 1.85423
83, 1, bw, attraction, a-b-db, 5, 2, 4, 28, 165, 90, 88, 161, 90, 165, 1, 1.10704
83, 1, bw, catch, NA, 999, 999, 4, 29, 191, 124, 60, 135, 143, 112, 1, 1.05185
83, 1, bw, catch, NA, 999, 999, 4, 29, 191, 124, 60, 135, 143, 112, 2, 0.760876
83, 1, bw, attraction, a-b-da, 2, 2, 4, 30, 90, 165, 163, 89, 165, 90, 2, 1.39186
83, 1, bw, attraction, a-b-da, 2, 2, 4, 30, 90, 165, 163, 89, 165, 90, 1, 0.366738
83, 1, bw, attraction, a-b-da, 5, 2, 4, 31, 165, 90, 90, 165, 161, 88, 2, 0.997953
83, 1, bw, attraction, a-b-da, 5, 2, 4, 31, 165, 90, 90, 165, 161, 88, 1, 0.836948
83, 1, bw, filler, NA, 999, 999, 4, 32, 142, 146, 97, 150, 166, 105, 1, 1.43326
83, 1, bw, filler, NA, 999, 999, 4, 32, 142, 146, 97, 150, 166, 105, 2, 3.46278
83, 1, bw, attraction, a-b-db, 2, 1, 4, 33, 59, 134, 135, 60, 60, 135, 3, 1.08903
83, 1, bw, attraction, a-b-db, 2, 1, 4, 33, 59, 134, 135, 60, 60, 135, 2, 0.748013
83, 1, bw, attraction, a-b-da, 14, 2, 4, 34, 90, 165, 153, 83, 165, 90, 3, 1.02777
83, 1, bw, attraction, a-b-da, 14, 2, 4, 34, 90, 165, 153, 83, 165, 90, 1, 0.769282
83, 1, bw, filler, NA, 999, 999, 4, 35, 120, 123, 98, 157, 174, 186, 3, 1.03243
83, 1, bw, filler, NA, 999, 999, 4, 35, 120, 123, 98, 157, 174, 186, 1, 0.853996
83, 1, bw, filler, NA, 999, 999, 4, 36, 138, 194, 68, 151, 141, 73, 1, 0.777693
83, 1, bw, filler, NA, 999, 999, 4, 36, 138, 194, 68, 151, 141, 73, 3, 1.5775
83, 1, bw, filler, NA, 999, 999, 4, 37, 192, 164, 71, 135, 168, 173, 1, 1.92747
83, 1, bw, filler, NA, 999, 999, 4, 37, 192, 164, 71, 135, 168, 173, 2, 0.608876
83, 1, bw, attraction, a-b-da, 2, 3, 5, 1, 193, 119, 120, 195, 195, 120, 2, 11.6206
83, 1, bw, attraction, a-b-da, 2, 3, 5, 1, 193, 119, 120, 195, 195, 120, 1, 0.623561
83, 1, bw, filler, NA, 999, 999, 5, 2, 105, 125, 62, 58, 121, 73, 1, 1.86804
83, 1, bw, filler, NA, 999, 999, 5, 2, 105, 125, 62, 58, 121, 73, 2, 1.64813
83, 1, bw, filler, NA, 999, 999, 5, 3, 77, 164, 191, 79, 85, 146, 3, 3.77946
83, 1, bw, filler, NA, 999, 999, 5, 3, 77, 164, 191, 79, 85, 146, 1, 3.37028
83, 1, bw, attraction, a-b-da, 9, 1, 5, 4, 60, 135, 129, 57, 135, 60, 1, 2.32864
83, 1, bw, attraction, a-b-da, 9, 1, 5, 4, 60, 135, 129, 57, 135, 60, 2, 0.809856
83, 1, bw, attraction, a-b-db, 9, 3, 5, 5, 195, 120, 120, 195, 114, 186, 1, 1.19075
83, 1, bw, attraction, a-b-db, 9, 3, 5, 5, 195, 120, 120, 195, 114, 186, 3, 0.69368
83, 1, bw, attraction, a-b-db, 14, 2, 5, 6, 165, 90, 90, 165, 83, 153, 1, 4.57552
83, 1, bw, attraction, a-b-db, 14, 2, 5, 6, 165, 90, 90, 165, 83, 153, 3, 0.758033
83, 1, bw, attraction, a-b-db, 5, 2, 5, 7, 88, 161, 165, 90, 90, 165, 3, 2.10108
83, 1, bw, attraction, a-b-db, 5, 2, 5, 7, 88, 161, 165, 90, 90, 165, 1, 0.767669
83, 1, bw, catch, NA, 999, 999, 5, 8, 119, 76, 147, 108, 183, 132, 3, 1.26281
83, 1, bw, catch, NA, 999, 999, 5, 8, 119, 76, 147, 108, 183, 132, 1, 0.955005
83, 1, bw, attraction, a-b-da, 5, 2, 5, 9, 165, 90, 90, 165, 161, 88, 2, 4.47454
83, 1, bw, attraction, a-b-da, 5, 2, 5, 9, 165, 90, 90, 165, 161, 88, 1, 0.541129
83, 1, bw, attraction, a-b-db, 5, 1, 5, 10, 58, 132, 60, 135, 135, 60, 1, 1.95689
83, 1, bw, attraction, a-b-db, 5, 1, 5, 10, 58, 132, 60, 135, 135, 60, 3, 1.06889
83, 1, bw, attraction, a-b-db, 14, 3, 5, 11, 111, 181, 120, 195, 195, 120, 2, 0.927841
83, 1, bw, attraction, a-b-db, 14, 3, 5, 11, 111, 181, 120, 195, 195, 120, 1, 1.66571
83, 1, bw, attraction, a-b-db, 9, 1, 5, 12, 135, 60, 57, 129, 60, 135, 3, 14.1484
83, 1, bw, attraction, a-b-db, 9, 1, 5, 12, 135, 60, 57, 129, 60, 135, 1, 0.833214
83, 1, bw, attraction, a-b-da, 9, 3, 5, 13, 120, 195, 186, 114, 195, 120, 1, 5.32555
83, 1, bw, attraction, a-b-da, 9, 3, 5, 13, 120, 195, 186, 114, 195, 120, 2, 1.08588
83, 1, bw, attraction, a-b-da, 14, 1, 5, 14, 125, 56, 60, 135, 135, 60, 2, 2.50408
83, 1, bw, attraction, a-b-da, 14, 1, 5, 14, 125, 56, 60, 135, 135, 60, 1, 0.7627
83, 1, bw, attraction, a-b-db, 2, 3, 5, 15, 195, 120, 120, 195, 119, 193, 2, 3.69769
83, 1, bw, attraction, a-b-db, 2, 3, 5, 15, 195, 120, 120, 195, 119, 193, 1, 0.931875
83, 1, bw, filler, NA, 999, 999, 5, 16, 146, 137, 87, 80, 56, 130, 1, 1.06019
83, 1, bw, filler, NA, 999, 999, 5, 16, 146, 137, 87, 80, 56, 130, 2, 1.02457
83, 1, bw, attraction, a-b-db, 5, 3, 5, 17, 120, 195, 117, 190, 195, 120, 2, 1.80475
83, 1, bw, attraction, a-b-db, 5, 3, 5, 17, 120, 195, 117, 190, 195, 120, 1, 0.691046
83, 1, bw, attraction, a-b-da, 2, 1, 5, 18, 60, 135, 134, 59, 135, 60, 1, 2.67657
83, 1, bw, attraction, a-b-da, 2, 1, 5, 18, 60, 135, 134, 59, 135, 60, 3, 0.663798
83, 1, bw, filler, NA, 999, 999, 5, 19, 102, 143, 180, 65, 104, 193, 3, 1.21086
83, 1, bw, filler, NA, 999, 999, 5, 19, 102, 143, 180, 65, 104, 193, 2, 2.44111
83, 1, bw, attraction, a-b-db, 14, 1, 5, 20, 56, 125, 60, 135, 135, 60, 2, 4.56438
83, 1, bw, attraction, a-b-db, 14, 1, 5, 20, 56, 125, 60, 135, 135, 60, 1, 1.22755
83, 1, bw, attraction, a-b-db, 9, 2, 5, 21, 165, 90, 90, 165, 86, 157, 2, 22.2718
83, 1, bw, attraction, a-b-db, 9, 2, 5, 21, 165, 90, 90, 165, 86, 157, 1, 1.70136
83, 1, bw, catch, NA, 999, 999, 5, 22, 141, 114, 96, 99, 168, 147, 3, 1.2068
83, 1, bw, catch, NA, 999, 999, 5, 22, 141, 114, 96, 99, 168, 147, 2, 0.709159
83, 1, bw, attraction, a-b-da, 5, 3, 5, 23, 195, 120, 190, 117, 120, 195, 3, 2.75795
83, 1, bw, attraction, a-b-da, 5, 3, 5, 23, 195, 120, 190, 117, 120, 195, 2, 1.60591
83, 1, bw, attraction, a-b-db, 2, 2, 5, 24, 165, 90, 90, 165, 89, 163, 3, 2.42738
83, 1, bw, attraction, a-b-db, 2, 2, 5, 24, 165, 90, 90, 165, 89, 163, 1, 0.912592
83, 1, bw, attraction, a-b-da, 14, 2, 5, 25, 90, 165, 153, 83, 165, 90, 1, 6.26551
83, 1, bw, attraction, a-b-da, 14, 2, 5, 25, 90, 165, 153, 83, 165, 90, 2, 1.10824
83, 1, bw, attraction, a-b-da, 14, 3, 5, 26, 195, 120, 181, 111, 120, 195, 3, 10.1091
83, 1, bw, attraction, a-b-da, 14, 3, 5, 26, 195, 120, 181, 111, 120, 195, 2, 2.41271
83, 1, bw, catch, NA, 999, 999, 5, 27, 107, 148, 117, 78, 185, 130, 3, 1.32107
83, 1, bw, catch, NA, 999, 999, 5, 27, 107, 148, 117, 78, 185, 130, 2, 2.2506
83, 1, bw, filler, NA, 999, 999, 5, 28, 182, 145, 193, 192, 79, 176, 2, 1.20582
83, 1, bw, filler, NA, 999, 999, 5, 28, 182, 145, 193, 192, 79, 176, 3, 1.21224
83, 1, bw, attraction, a-b-da, 5, 1, 5, 29, 135, 60, 132, 58, 60, 135, 3, 1.47312
83, 1, bw, attraction, a-b-da, 5, 1, 5, 29, 135, 60, 132, 58, 60, 135, 2, 1.27666
83, 1, bw, attraction, a-b-db, 2, 1, 5, 30, 135, 60, 60, 135, 59, 134, 3, 3.56673
83, 1, bw, attraction, a-b-db, 2, 1, 5, 30, 135, 60, 60, 135, 59, 134, 1, 1.24624
83, 1, bw, filler, NA, 999, 999, 5, 31, 113, 126, 179, 158, 128, 95, 2, 0.937754
83, 1, bw, filler, NA, 999, 999, 5, 31, 113, 126, 179, 158, 128, 95, 3, 0.44345
83, 1, bw, attraction, a-b-da, 2, 2, 5, 32, 165, 90, 90, 165, 163, 89, 2, 6.64742
83, 1, bw, attraction, a-b-da, 2, 2, 5, 32, 165, 90, 90, 165, 163, 89, 1, 1.69065
83, 1, bw, attraction, a-b-da, 9, 2, 5, 33, 165, 90, 157, 86, 90, 165, 3, 2.23595
83, 1, bw, attraction, a-b-da, 9, 2, 5, 33, 165, 90, 157, 86, 90, 165, 2, 1.00126
83, 1, bw, filler, NA, 999, 999, 5, 34, 189, 180, 57, 153, 160, 131, 1, 1.12682
83, 1, bw, filler, NA, 999, 999, 5, 34, 189, 180, 57, 153, 160, 131, 2, 0.872509
83, 1, bw, filler, NA, 999, 999, 5, 35, 56, 168, 182, 116, 85, 74, 2, 1.04357
83, 1, bw, filler, NA, 999, 999, 5, 35, 56, 168, 182, 116, 85, 74, 3, 0.672722
83, 1, bw, filler, NA, 999, 999, 5, 36, 158, 163, 187, 100, 107, 166, 1, 1.25154
83, 1, bw, filler, NA, 999, 999, 5, 36, 158, 163, 187, 100, 107, 166, 3, 0.584486
83, 1, bw, filler, NA, 999, 999, 5, 37, 192, 170, 106, 104, 182, 101, 1, 0.958876
83, 1, bw, filler, NA, 999, 999, 5, 37, 192, 170, 106, 104, 182, 101, 2, 0.767184
83, 1, bw, filler, NA, 999, 999, 6, 1, 150, 137, 139, 69, 154, 108, 1, 1.70228
83, 1, bw, filler, NA, 999, 999, 6, 1, 150, 137, 139, 69, 154, 108, 2, 0.744991
83, 1, bw, catch, NA, 999, 999, 6, 2, 124, 191, 102, 153, 129, 66, 1, 1.51286
83, 1, bw, catch, NA, 999, 999, 6, 2, 124, 191, 102, 153, 129, 66, 3, 0.859039
83, 1, bw, filler, NA, 999, 999, 6, 3, 85, 123, 124, 68, 112, 182, 3, 1.05384
83, 1, bw, filler, NA, 999, 999, 6, 3, 85, 123, 124, 68, 112, 182, 2, 5.77899
83, 1, bw, filler, NA, 999, 999, 6, 4, 147, 116, 130, 132, 168, 141, 3, 1.30392
83, 1, bw, filler, NA, 999, 999, 6, 4, 147, 116, 130, 132, 168, 141, 2, 4.78674
83, 1, bw, attraction, a-b-db, 5, 1, 6, 5, 58, 132, 135, 60, 60, 135, 3, 1.84768
83, 1, bw, attraction, a-b-db, 5, 1, 6, 5, 58, 132, 135, 60, 60, 135, 2, 2.28444
83, 1, bw, attraction, a-b-da, 5, 1, 6, 6, 60, 135, 132, 58, 135, 60, 1, 8.68654
83, 1, bw, attraction, a-b-da, 5, 1, 6, 6, 60, 135, 132, 58, 135, 60, 3, 0.975663
83, 1, bw, filler, NA, 999, 999, 6, 7, 180, 62, 133, 181, 129, 192, 3, 2.86183
83, 1, bw, filler, NA, 999, 999, 6, 7, 180, 62, 133, 181, 129, 192, 1, 0.937585
83, 1, bw, catch, NA, 999, 999, 6, 8, 127, 188, 130, 125, 92, 103, 1, 0.969929
83, 1, bw, catch, NA, 999, 999, 6, 8, 127, 188, 130, 125, 92, 103, 3, 0.722402
83, 1, bw, filler, NA, 999, 999, 6, 9, 106, 109, 181, 143, 137, 83, 2, 1.16331
83, 1, bw, filler, NA, 999, 999, 6, 9, 106, 109, 181, 143, 137, 83, 1, 0.755681
83, 1, bw, attraction, a-b-da, 9, 2, 6, 10, 90, 165, 165, 90, 157, 86, 1, 1.74733
83, 1, bw, attraction, a-b-da, 9, 2, 6, 10, 90, 165, 165, 90, 157, 86, 3, 0.73212
83, 1, bw, attraction, a-b-da, 14, 2, 6, 11, 153, 83, 90, 165, 165, 90, 3, 2.74856
83, 1, bw, attraction, a-b-da, 14, 2, 6, 11, 153, 83, 90, 165, 165, 90, 1, 0.972948
83, 1, bw, attraction, a-b-db, 2, 3, 6, 12, 120, 195, 195, 120, 119, 193, 2, 4.37182
83, 1, bw, attraction, a-b-db, 2, 3, 6, 12, 120, 195, 195, 120, 119, 193, 1, 0.459212
83, 1, bw, filler, NA, 999, 999, 6, 13, 81, 104, 150, 58, 182, 163, 3, 1.3503
83, 1, bw, filler, NA, 999, 999, 6, 13, 81, 104, 150, 58, 182, 163, 1, 0.567126
83, 1, bw, attraction, a-b-db, 9, 2, 6, 14, 165, 90, 90, 165, 86, 157, 1, 7.07025
83, 1, bw, attraction, a-b-db, 9, 2, 6, 14, 165, 90, 90, 165, 86, 157, 3, 0.784749
83, 1, bw, attraction, a-b-db, 2, 1, 6, 15, 60, 135, 59, 134, 135, 60, 3, 3.24714
83, 1, bw, attraction, a-b-db, 2, 1, 6, 15, 60, 135, 59, 134, 135, 60, 1, 0.667411
83, 1, bw, attraction, a-b-da, 5, 2, 6, 16, 161, 88, 90, 165, 165, 90, 3, 2.34252
83, 1, bw, attraction, a-b-da, 5, 2, 6, 16, 161, 88, 90, 165, 165, 90, 1, 1.97509
83, 1, bw, attraction, a-b-da, 2, 2, 6, 17, 90, 165, 163, 89, 165, 90, 3, 9.06908
83, 1, bw, attraction, a-b-da, 2, 2, 6, 17, 90, 165, 163, 89, 165, 90, 1, 0.774815
83, 1, bw, attraction, a-b-da, 14, 3, 6, 18, 120, 195, 195, 120, 181, 111, 2, 2.41316
83, 1, bw, attraction, a-b-da, 14, 3, 6, 18, 120, 195, 195, 120, 181, 111, 3, 2.55508
83, 1, bw, catch, NA, 999, 999, 6, 19, 159, 96, 61, 134, 193, 122, 3, 1.21023
83, 1, bw, catch, NA, 999, 999, 6, 19, 159, 96, 61, 134, 193, 122, 2, 1.42456
83, 1, bw, attraction, a-b-da, 14, 1, 6, 20, 135, 60, 60, 135, 125, 56, 1, 4.32468
83, 1, bw, attraction, a-b-da, 14, 1, 6, 20, 135, 60, 60, 135, 125, 56, 3, 1.29332
83, 1, bw, filler, NA, 999, 999, 6, 21, 188, 121, 169, 92, 167, 177, 3, 1.98284
83, 1, bw, filler, NA, 999, 999, 6, 21, 188, 121, 169, 92, 167, 177, 2, 2.56623
83, 1, bw, attraction, a-b-db, 9, 3, 6, 22, 120, 195, 195, 120, 114, 186, 2, 4.26854
83, 1, bw, attraction, a-b-db, 9, 3, 6, 22, 120, 195, 195, 120, 114, 186, 3, 0.655857
83, 1, bw, attraction, a-b-db, 14, 2, 6, 23, 90, 165, 83, 153, 165, 90, 3, 2.09174
83, 1, bw, attraction, a-b-db, 14, 2, 6, 23, 90, 165, 83, 153, 165, 90, 2, 1.15841
83, 1, bw, attraction, a-b-da, 9, 1, 6, 24, 135, 60, 129, 57, 60, 135, 3, 8.4373
83, 1, bw, attraction, a-b-da, 9, 1, 6, 24, 135, 60, 129, 57, 60, 135, 2, 0.56853
83, 1, bw, filler, NA, 999, 999, 6, 25, 151, 105, 133, 118, 102, 149, 2, 1.14373
83, 1, bw, filler, NA, 999, 999, 6, 25, 151, 105, 133, 118, 102, 149, 3, 1.14463
83, 1, bw, attraction, a-b-db, 14, 1, 6, 26, 135, 60, 56, 125, 60, 135, 3, 7.68019
83, 1, bw, attraction, a-b-db, 14, 1, 6, 26, 135, 60, 56, 125, 60, 135, 1, 1.13785
83, 1, bw, attraction, a-b-da, 2, 3, 6, 27, 193, 119, 120, 195, 195, 120, 2, 1.87405
83, 1, bw, attraction, a-b-da, 2, 3, 6, 27, 193, 119, 120, 195, 195, 120, 1, 1.06949
83, 1, bw, attraction, a-b-da, 5, 3, 6, 28, 120, 195, 190, 117, 195, 120, 3, 1.57631
83, 1, bw, attraction, a-b-da, 5, 3, 6, 28, 120, 195, 190, 117, 195, 120, 1, 1.59986
83, 1, bw, attraction, a-b-db, 9, 1, 6, 29, 135, 60, 60, 135, 57, 129, 2, 0.877215
83, 1, bw, attraction, a-b-db, 9, 1, 6, 29, 135, 60, 60, 135, 57, 129, 3, 2.42514
83, 1, bw, attraction, a-b-db, 5, 2, 6, 30, 165, 90, 90, 165, 88, 161, 2, 1.94093
83, 1, bw, attraction, a-b-db, 5, 2, 6, 30, 165, 90, 90, 165, 88, 161, 3, 2.10166
83, 1, bw, attraction, a-b-db, 14, 3, 6, 31, 195, 120, 120, 195, 111, 181, 1, 2.15883
83, 1, bw, attraction, a-b-db, 14, 3, 6, 31, 195, 120, 120, 195, 111, 181, 3, 0.798839
83, 1, bw, attraction, a-b-da, 2, 1, 6, 32, 135, 60, 60, 135, 134, 59, 2, 8.17263
83, 1, bw, attraction, a-b-da, 2, 1, 6, 32, 135, 60, 60, 135, 134, 59, 3, 0.86661
83, 1, bw, filler, NA, 999, 999, 6, 33, 116, 139, 170, 95, 159, 173, 3, 1.02959
83, 1, bw, filler, NA, 999, 999, 6, 33, 116, 139, 170, 95, 159, 173, 1, 0.64318
83, 1, bw, attraction, a-b-da, 9, 3, 6, 34, 195, 120, 120, 195, 186, 114, 2, 1.63107
83, 1, bw, attraction, a-b-da, 9, 3, 6, 34, 195, 120, 120, 195, 186, 114, 3, 2.76447
83, 1, bw, attraction, a-b-db, 2, 2, 6, 35, 89, 163, 165, 90, 90, 165, 3, 1.57878
83, 1, bw, attraction, a-b-db, 2, 2, 6, 35, 89, 163, 165, 90, 90, 165, 2, 1.05026
83, 1, bw, attraction, a-b-db, 5, 3, 6, 36, 195, 120, 117, 190, 120, 195, 3, 5.30995
83, 1, bw, attraction, a-b-db, 5, 3, 6, 36, 195, 120, 117, 190, 120, 195, 1, 0.598967
83, 1, bw, filler, NA, 999, 999, 6, 37, 136, 122, 97, 136, 113, 154, 3, 2.35657
83, 1, bw, filler, NA, 999, 999, 6, 37, 136, 122, 97, 136, 113, 154, 2, 0.692505
83, 1, bw, attraction, a-b-db, 5, 1, 7, 1, 60, 135, 58, 132, 135, 60, 1, 3.44635
83, 1, bw, attraction, a-b-db, 5, 1, 7, 1, 60, 135, 58, 132, 135, 60, 3, 0.818418
83, 1, bw, attraction, a-b-db, 2, 2, 7, 2, 165, 90, 89, 163, 90, 165, 3, 2.22341
83, 1, bw, attraction, a-b-db, 2, 2, 7, 2, 165, 90, 89, 163, 90, 165, 1, 1.05293
83, 1, bw, filler, NA, 999, 999, 7, 3, 76, 190, 176, 145, 85, 65, 2, 1.51258
83, 1, bw, filler, NA, 999, 999, 7, 3, 76, 190, 176, 145, 85, 65, 3, 0.706666
83, 1, bw, attraction, a-b-da, 14, 1, 7, 4, 60, 135, 135, 60, 125, 56, 1, 2.05232
83, 1, bw, attraction, a-b-da, 14, 1, 7, 4, 60, 135, 135, 60, 125, 56, 2, 0.67295
83, 1, bw, attraction, a-b-da, 5, 2, 7, 5, 165, 90, 90, 165, 161, 88, 3, 3.50808
83, 1, bw, attraction, a-b-da, 5, 2, 7, 5, 165, 90, 90, 165, 161, 88, 2, 0.813647
83, 1, bw, attraction, a-b-db, 9, 1, 7, 6, 135, 60, 57, 129, 60, 135, 3, 2.09057
83, 1, bw, attraction, a-b-db, 9, 1, 7, 6, 135, 60, 57, 129, 60, 135, 2, 0.781335
83, 1, bw, filler, NA, 999, 999, 7, 7, 137, 75, 182, 187, 65, 110, 2, 0.683662
83, 1, bw, filler, NA, 999, 999, 7, 7, 137, 75, 182, 187, 65, 110, 3, 1.0154
83, 1, bw, catch, NA, 999, 999, 7, 8, 85, 110, 161, 154, 132, 123, 2, 1.00426
83, 1, bw, catch, NA, 999, 999, 7, 8, 85, 110, 161, 154, 132, 123, 1, 0.667272
83, 1, bw, attraction, a-b-da, 5, 3, 7, 9, 120, 195, 195, 120, 190, 117, 1, 2.35844
83, 1, bw, attraction, a-b-da, 5, 3, 7, 9, 120, 195, 195, 120, 190, 117, 3, 3.60629
83, 1, bw, filler, NA, 999, 999, 7, 10, 125, 165, 173, 81, 112, 172, 1, 3.69908
83, 1, bw, filler, NA, 999, 999, 7, 10, 125, 165, 173, 81, 112, 172, 2, 0.773252
83, 1, bw, attraction, a-b-da, 5, 1, 7, 11, 60, 135, 135, 60, 132, 58, 2, 1.86025
83, 1, bw, attraction, a-b-da, 5, 1, 7, 11, 60, 135, 135, 60, 132, 58, 3, 0.856374
83, 1, bw, filler, NA, 999, 999, 7, 12, 112, 160, 119, 139, 146, 134, 3, 2.58796
83, 1, bw, filler, NA, 999, 999, 7, 12, 112, 160, 119, 139, 146, 134, 2, 1.45917
83, 1, bw, attraction, a-b-db, 2, 1, 7, 13, 135, 60, 60, 135, 59, 134, 1, 3.70195
83, 1, bw, attraction, a-b-db, 2, 1, 7, 13, 135, 60, 60, 135, 59, 134, 2, 0.464185
83, 1, bw, attraction, a-b-da, 2, 3, 7, 14, 120, 195, 193, 119, 195, 120, 1, 1.90722
83, 1, bw, attraction, a-b-da, 2, 3, 7, 14, 120, 195, 193, 119, 195, 120, 2, 0.997308
83, 1, bw, attraction, a-b-db, 14, 1, 7, 15, 56, 125, 135, 60, 60, 135, 3, 0.874926
83, 1, bw, attraction, a-b-db, 14, 1, 7, 15, 56, 125, 135, 60, 60, 135, 1, 1.39063
83, 1, bw, filler, NA, 999, 999, 7, 16, 184, 60, 151, 76, 63, 141, 2, 15.6683
83, 1, bw, filler, NA, 999, 999, 7, 16, 184, 60, 151, 76, 63, 141, 3, 1.71602
83, 1, bw, attraction, a-b-db, 9, 3, 7, 17, 114, 186, 120, 195, 195, 120, 3, 2.50076
83, 1, bw, attraction, a-b-db, 9, 3, 7, 17, 114, 186, 120, 195, 195, 120, 1, 0.751144
83, 1, bw, filler, NA, 999, 999, 7, 18, 134, 84, 175, 129, 100, 162, 2, 1.25496
83, 1, bw, filler, NA, 999, 999, 7, 18, 134, 84, 175, 129, 100, 162, 1, 1.81982
83, 1, bw, attraction, a-b-db, 14, 3, 7, 19, 120, 195, 195, 120, 111, 181, 2, 1.30448
83, 1, bw, attraction, a-b-db, 14, 3, 7, 19, 120, 195, 195, 120, 111, 181, 3, 0.474835
83, 1, bw, attraction, a-b-da, 2, 2, 7, 20, 163, 89, 165, 90, 90, 165, 2, 1.12521
83, 1, bw, attraction, a-b-da, 2, 2, 7, 20, 163, 89, 165, 90, 90, 165, 1, 0.654853
83, 1, bw, attraction, a-b-db, 9, 2, 7, 21, 86, 157, 90, 165, 165, 90, 2, 1.21052
83, 1, bw, attraction, a-b-db, 9, 2, 7, 21, 86, 157, 90, 165, 165, 90, 3, 0.440864
83, 1, bw, attraction, a-b-db, 5, 2, 7, 22, 88, 161, 90, 165, 165, 90, 2, 2.46876
83, 1, bw, attraction, a-b-db, 5, 2, 7, 22, 88, 161, 90, 165, 165, 90, 3, 0.800528
83, 1, bw, attraction, a-b-db, 14, 2, 7, 23, 165, 90, 83, 153, 90, 165, 2, 3.79811
83, 1, bw, attraction, a-b-db, 14, 2, 7, 23, 165, 90, 83, 153, 90, 165, 1, 1.83633
83, 1, bw, attraction, a-b-db, 2, 3, 7, 24, 195, 120, 119, 193, 120, 195, 2, 1.20846
83, 1, bw, attraction, a-b-db, 2, 3, 7, 24, 195, 120, 119, 193, 120, 195, 3, 1.9987
83, 1, bw, attraction, a-b-da, 9, 1, 7, 25, 129, 57, 60, 135, 135, 60, 3, 7.0759
83, 1, bw, attraction, a-b-da, 9, 1, 7, 25, 129, 57, 60, 135, 135, 60, 1, 6.77373
83, 1, bw, catch, NA, 999, 999, 7, 26, 163, 152, 158, 97, 129, 66, 1, 0.946983
83, 1, bw, catch, NA, 999, 999, 7, 26, 163, 152, 158, 97, 129, 66, 3, 1.09194
83, 1, bw, attraction, a-b-da, 9, 3, 7, 27, 120, 195, 186, 114, 195, 120, 3, 3.10949
83, 1, bw, attraction, a-b-da, 9, 3, 7, 27, 120, 195, 186, 114, 195, 120, 2, 1.53522
83, 1, bw, attraction, a-b-da, 9, 2, 7, 28, 157, 86, 165, 90, 90, 165, 3, 2.91921
83, 1, bw, attraction, a-b-da, 9, 2, 7, 28, 157, 86, 165, 90, 90, 165, 1, 0.86496
83, 1, bw, filler, NA, 999, 999, 7, 29, 86, 125, 142, 110, 183, 152, 3, 0.667923
83, 1, bw, filler, NA, 999, 999, 7, 29, 86, 125, 142, 110, 183, 152, 1, 0.424361
83, 1, bw, catch, NA, 999, 999, 7, 30, 139, 176, 114, 141, 127, 68, 1, 1.02082
83, 1, bw, catch, NA, 999, 999, 7, 30, 139, 176, 114, 141, 127, 68, 3, 0.715137
83, 1, bw, filler, NA, 999, 999, 7, 31, 176, 97, 104, 162, 109, 194, 3, 3.70825
83, 1, bw, filler, NA, 999, 999, 7, 31, 176, 97, 104, 162, 109, 194, 2, 2.00576
83, 1, bw, filler, NA, 999, 999, 7, 32, 96, 128, 136, 93, 123, 163, 3, 0.723006
83, 1, bw, filler, NA, 999, 999, 7, 32, 96, 128, 136, 93, 123, 163, 1, 1.42078
83, 1, bw, attraction, a-b-da, 14, 3, 7, 33, 120, 195, 195, 120, 181, 111, 2, 0.89764
83, 1, bw, attraction, a-b-da, 14, 3, 7, 33, 120, 195, 195, 120, 181, 111, 3, 0.508642
83, 1, bw, attraction, a-b-db, 5, 3, 7, 34, 195, 120, 117, 190, 120, 195, 3, 1.19787
83, 1, bw, attraction, a-b-db, 5, 3, 7, 34, 195, 120, 117, 190, 120, 195, 1, 0.836743
83, 1, bw, filler, NA, 999, 999, 7, 35, 149, 177, 143, 112, 58, 123, 1, 0.793113
83, 1, bw, filler, NA, 999, 999, 7, 35, 149, 177, 143, 112, 58, 123, 3, 0.672235
83, 1, bw, attraction, a-b-da, 14, 2, 7, 36, 90, 165, 165, 90, 153, 83, 1, 4.31531
83, 1, bw, attraction, a-b-da, 14, 2, 7, 36, 90, 165, 165, 90, 153, 83, 3, 1.50053
83, 1, bw, attraction, a-b-da, 2, 1, 7, 37, 134, 59, 135, 60, 60, 135, 3, 1.94994
83, 1, bw, attraction, a-b-da, 2, 1, 7, 37, 134, 59, 135, 60, 60, 135, 2, 1.84674
83, 1, bw, attraction, a-b-da, 9, 1, 8, 1, 129, 57, 60, 135, 135, 60, 3, 1.82602
83, 1, bw, attraction, a-b-da, 9, 1, 8, 1, 129, 57, 60, 135, 135, 60, 1, 1.02343
83, 1, bw, attraction, a-b-db, 2, 1, 8, 2, 135, 60, 59, 134, 60, 135, 3, 2.42768
83, 1, bw, attraction, a-b-db, 2, 1, 8, 2, 135, 60, 59, 134, 60, 135, 2, 1.07298
83, 1, bw, attraction, a-b-da, 14, 1, 8, 3, 135, 60, 125, 56, 60, 135, 1, 2.53178
83, 1, bw, attraction, a-b-da, 14, 1, 8, 3, 135, 60, 125, 56, 60, 135, 2, 2.04517
83, 1, bw, filler, NA, 999, 999, 8, 4, 93, 95, 163, 174, 60, 141, 2, 0.78429
83, 1, bw, filler, NA, 999, 999, 8, 4, 93, 95, 163, 174, 60, 141, 1, 0.704056
83, 1, bw, attraction, a-b-db, 2, 3, 8, 5, 195, 120, 120, 195, 119, 193, 1, 3.76975
83, 1, bw, attraction, a-b-db, 2, 3, 8, 5, 195, 120, 120, 195, 119, 193, 2, 0.689415
83, 1, bw, filler, NA, 999, 999, 8, 6, 74, 173, 90, 194, 146, 98, 2, 4.37966
83, 1, bw, filler, NA, 999, 999, 8, 6, 74, 173, 90, 194, 146, 98, 1, 0.682284
83, 1, bw, attraction, a-b-da, 14, 2, 8, 7, 153, 83, 90, 165, 165, 90, 2, 1.46069
83, 1, bw, attraction, a-b-da, 14, 2, 8, 7, 153, 83, 90, 165, 165, 90, 3, 0.608836
83, 1, bw, attraction, a-b-da, 5, 2, 8, 8, 161, 88, 165, 90, 90, 165, 3, 7.1739
83, 1, bw, attraction, a-b-da, 5, 2, 8, 8, 161, 88, 165, 90, 90, 165, 1, 0.691692
83, 1, bw, filler, NA, 999, 999, 8, 9, 136, 149, 187, 67, 74, 100, 1, 1.56541
83, 1, bw, filler, NA, 999, 999, 8, 9, 136, 149, 187, 67, 74, 100, 3, 0.741688
83, 1, bw, attraction, a-b-da, 2, 2, 8, 10, 165, 90, 163, 89, 90, 165, 1, 3.26117
83, 1, bw, attraction, a-b-da, 2, 2, 8, 10, 165, 90, 163, 89, 90, 165, 3, 0.696813
83, 1, bw, filler, NA, 999, 999, 8, 11, 158, 171, 100, 74, 65, 134, 1, 0.610618
83, 1, bw, filler, NA, 999, 999, 8, 11, 158, 171, 100, 74, 65, 134, 2, 0.457102
83, 1, bw, attraction, a-b-db, 9, 2, 8, 12, 86, 157, 165, 90, 90, 165, 3, 0.884258
83, 1, bw, attraction, a-b-db, 9, 2, 8, 12, 86, 157, 165, 90, 90, 165, 1, 0.399893
83, 1, bw, attraction, a-b-da, 5, 1, 8, 13, 132, 58, 135, 60, 60, 135, 3, 1.76567
83, 1, bw, attraction, a-b-da, 5, 1, 8, 13, 132, 58, 135, 60, 60, 135, 2, 0.509785
83, 1, bw, attraction, a-b-da, 2, 1, 8, 14, 134, 59, 135, 60, 60, 135, 3, 0.870894
83, 1, bw, attraction, a-b-da, 2, 1, 8, 14, 134, 59, 135, 60, 60, 135, 1, 0.635257
83, 1, bw, attraction, a-b-da, 9, 2, 8, 15, 165, 90, 90, 165, 157, 86, 1, 0.927701
83, 1, bw, attraction, a-b-da, 9, 2, 8, 15, 165, 90, 90, 165, 157, 86, 2, 0.585336
83, 1, bw, attraction, a-b-da, 5, 3, 8, 16, 195, 120, 190, 117, 120, 195, 2, 1.50377
83, 1, bw, attraction, a-b-da, 5, 3, 8, 16, 195, 120, 190, 117, 120, 195, 3, 0.466762
83, 1, bw, filler, NA, 999, 999, 8, 17, 120, 116, 176, 120, 114, 143, 2, 1.48567
83, 1, bw, filler, NA, 999, 999, 8, 17, 120, 116, 176, 120, 114, 143, 1, 0.473219
83, 1, bw, attraction, a-b-db, 14, 3, 8, 18, 111, 181, 195, 120, 120, 195, 2, 2.52369
83, 1, bw, attraction, a-b-db, 14, 3, 8, 18, 111, 181, 195, 120, 120, 195, 1, 0.3729
83, 1, bw, attraction, a-b-db, 14, 2, 8, 19, 90, 165, 83, 153, 165, 90, 2, 2.53204
83, 1, bw, attraction, a-b-db, 14, 2, 8, 19, 90, 165, 83, 153, 165, 90, 3, 0.325274
83, 1, bw, attraction, a-b-db, 5, 3, 8, 20, 195, 120, 120, 195, 117, 190, 1, 2.94168
83, 1, bw, attraction, a-b-db, 5, 3, 8, 20, 195, 120, 120, 195, 117, 190, 2, 0.342043
83, 1, bw, attraction, a-b-da, 9, 3, 8, 21, 186, 114, 195, 120, 120, 195, 1, 4.07788
83, 1, bw, attraction, a-b-da, 9, 3, 8, 21, 186, 114, 195, 120, 120, 195, 2, 0.336648
83, 1, bw, attraction, a-b-db, 2, 2, 8, 22, 90, 165, 165, 90, 89, 163, 2, 1.50508
83, 1, bw, attraction, a-b-db, 2, 2, 8, 22, 90, 165, 165, 90, 89, 163, 3, 0.483316
83, 1, bw, filler, NA, 999, 999, 8, 23, 193, 190, 194, 173, 179, 167, 2, 0.87774
83, 1, bw, filler, NA, 999, 999, 8, 23, 193, 190, 194, 173, 179, 167, 3, 0.465425
83, 1, bw, filler, NA, 999, 999, 8, 24, 179, 182, 143, 146, 63, 144, 1, 0.948563
83, 1, bw, filler, NA, 999, 999, 8, 24, 179, 182, 143, 146, 63, 144, 3, 0.525612
83, 1, bw, catch, NA, 999, 999, 8, 25, 194, 121, 131, 64, 101, 154, 1, 0.67803
83, 1, bw, catch, NA, 999, 999, 8, 25, 194, 121, 131, 64, 101, 154, 2, 0.625804
83, 1, bw, attraction, a-b-db, 5, 2, 8, 26, 88, 161, 90, 165, 165, 90, 2, 1.15815
83, 1, bw, attraction, a-b-db, 5, 2, 8, 26, 88, 161, 90, 165, 165, 90, 3, 0.622452
83, 1, bw, attraction, a-b-db, 9, 3, 8, 27, 195, 120, 120, 195, 114, 186, 2, 1.11554
83, 1, bw, attraction, a-b-db, 9, 3, 8, 27, 195, 120, 120, 195, 114, 186, 1, 0.429844
83, 1, bw, filler, NA, 999, 999, 8, 28, 139, 168, 142, 172, 86, 141, 2, 1.67452
83, 1, bw, filler, NA, 999, 999, 8, 28, 139, 168, 142, 172, 86, 141, 3, 0.533753
83, 1, bw, attraction, a-b-da, 2, 3, 8, 29, 120, 195, 193, 119, 195, 120, 1, 2.17425
83, 1, bw, attraction, a-b-da, 2, 3, 8, 29, 120, 195, 193, 119, 195, 120, 3, 0.901669
83, 1, bw, catch, NA, 999, 999, 8, 30, 153, 102, 90, 105, 155, 160, 3, 1.01525
83, 1, bw, catch, NA, 999, 999, 8, 30, 153, 102, 90, 105, 155, 160, 2, 0.525482
83, 1, bw, attraction, a-b-db, 9, 1, 8, 31, 60, 135, 57, 129, 135, 60, 1, 4.80611
83, 1, bw, attraction, a-b-db, 9, 1, 8, 31, 60, 135, 57, 129, 135, 60, 2, 1.46716
83, 1, bw, attraction, a-b-db, 14, 1, 8, 32, 60, 135, 56, 125, 135, 60, 3, 1.81394
83, 1, bw, attraction, a-b-db, 14, 1, 8, 32, 60, 135, 56, 125, 135, 60, 2, 0.963975
83, 1, bw, attraction, a-b-db, 5, 1, 8, 33, 135, 60, 58, 132, 60, 135, 1, 2.14697
83, 1, bw, attraction, a-b-db, 5, 1, 8, 33, 135, 60, 58, 132, 60, 135, 2, 1.36364
83, 1, bw, catch, NA, 999, 999, 8, 34, 137, 118, 187, 128, 109, 86, 2, 1.0824
83, 1, bw, catch, NA, 999, 999, 8, 34, 137, 118, 187, 128, 109, 86, 3, 0.638012
83, 1, bw, attraction, a-b-da, 14, 3, 8, 35, 195, 120, 181, 111, 120, 195, 1, 1.58646
83, 1, bw, attraction, a-b-da, 14, 3, 8, 35, 195, 120, 181, 111, 120, 195, 2, 2.162
83, 1, bw, filler, NA, 999, 999, 8, 36, 62, 114, 69, 69, 131, 189, 3, 0.784566
83, 1, bw, filler, NA, 999, 999, 8, 36, 62, 114, 69, 69, 131, 189, 2, 0.728447
83, 1, bw, filler, NA, 999, 999, 8, 37, 173, 187, 101, 71, 103, 96, 1, 0.608611
83, 1, bw, filler, NA, 999, 999, 8, 37, 173, 187, 101, 71, 103, 96, 2, 0.57521
