sub_n, computer_n, bw_cond, effect, set, distance, diag, block_n, trial_n, h1, w1, h2, w2, h3, w3, choice, rt 
89, 1, bw, practice, NA, 999, 999, 0, 1, 98, 115, 88, 68, 104, 136, 3, 5.08331
89, 1, bw, practice, NA, 999, 999, 0, 1, 98, 115, 88, 68, 104, 136, 2, 3.01359
89, 1, bw, practice, NA, 999, 999, 0, 2, 151, 122, 71, 141, 177, 167, 3, 2.61438
89, 1, bw, practice, NA, 999, 999, 0, 2, 151, 122, 71, 141, 177, 167, 2, 2.78709
89, 1, bw, practice, NA, 999, 999, 0, 3, 66, 141, 188, 104, 185, 170, 3, 5.63079
89, 1, bw, practice, NA, 999, 999, 0, 3, 66, 141, 188, 104, 185, 170, 1, 2.02678
89, 1, bw, filler, NA, 999, 999, 1, 1, 73, 125, 183, 192, 66, 110, 2, 2.43849
89, 1, bw, filler, NA, 999, 999, 1, 1, 73, 125, 183, 192, 66, 110, 3, 3.17104
89, 1, bw, catch, NA, 999, 999, 1, 2, 146, 169, 135, 120, 121, 74, 1, 1.9612
89, 1, bw, catch, NA, 999, 999, 1, 2, 146, 169, 135, 120, 121, 74, 3, 1.15323
89, 1, bw, attraction, a-b-db, 2, 1, 1, 3, 59, 134, 135, 60, 60, 135, 2, 4.60081
89, 1, bw, attraction, a-b-db, 2, 1, 1, 3, 59, 134, 135, 60, 60, 135, 3, 3.59887
89, 1, bw, attraction, a-b-db, 14, 3, 1, 4, 111, 181, 120, 195, 195, 120, 2, 2.97152
89, 1, bw, attraction, a-b-db, 14, 3, 1, 4, 111, 181, 120, 195, 195, 120, 1, 3.41865
89, 1, bw, attraction, a-b-da, 14, 1, 1, 5, 135, 60, 125, 56, 60, 135, 3, 2.04682
89, 1, bw, attraction, a-b-da, 14, 1, 1, 5, 135, 60, 125, 56, 60, 135, 2, 0.995578
89, 1, bw, attraction, a-b-da, 2, 1, 1, 6, 60, 135, 135, 60, 134, 59, 1, 3.33704
89, 1, bw, attraction, a-b-da, 2, 1, 1, 6, 60, 135, 135, 60, 134, 59, 3, 3.2821
89, 1, bw, filler, NA, 999, 999, 1, 7, 186, 167, 167, 107, 85, 74, 1, 1.41956
89, 1, bw, filler, NA, 999, 999, 1, 7, 186, 167, 167, 107, 85, 74, 3, 1.04991
89, 1, bw, attraction, a-b-db, 9, 3, 1, 8, 114, 186, 195, 120, 120, 195, 2, 8.37334
89, 1, bw, attraction, a-b-db, 9, 3, 1, 8, 114, 186, 195, 120, 120, 195, 1, 2.44337
89, 1, bw, filler, NA, 999, 999, 1, 9, 174, 76, 85, 65, 56, 145, 1, 1.87876
89, 1, bw, filler, NA, 999, 999, 1, 9, 174, 76, 85, 65, 56, 145, 2, 0.858083
89, 1, bw, filler, NA, 999, 999, 1, 10, 141, 59, 104, 171, 155, 124, 3, 1.73313
89, 1, bw, filler, NA, 999, 999, 1, 10, 141, 59, 104, 171, 155, 124, 1, 1.02248
89, 1, bw, attraction, a-b-da, 2, 3, 1, 11, 120, 195, 193, 119, 195, 120, 1, 2.49137
89, 1, bw, attraction, a-b-da, 2, 3, 1, 11, 120, 195, 193, 119, 195, 120, 3, 1.7181
89, 1, bw, attraction, a-b-da, 14, 3, 1, 12, 195, 120, 120, 195, 181, 111, 2, 2.23869
89, 1, bw, attraction, a-b-da, 14, 3, 1, 12, 195, 120, 120, 195, 181, 111, 3, 1.31534
89, 1, bw, attraction, a-b-db, 14, 1, 1, 13, 56, 125, 60, 135, 135, 60, 2, 2.56422
89, 1, bw, attraction, a-b-db, 14, 1, 1, 13, 56, 125, 60, 135, 135, 60, 1, 3.33193
89, 1, bw, filler, NA, 999, 999, 1, 14, 142, 155, 160, 131, 116, 168, 2, 5.27558
89, 1, bw, filler, NA, 999, 999, 1, 14, 142, 155, 160, 131, 116, 168, 3, 0.805887
89, 1, bw, catch, NA, 999, 999, 1, 15, 165, 90, 85, 110, 157, 158, 3, 1.6277
89, 1, bw, catch, NA, 999, 999, 1, 15, 165, 90, 85, 110, 157, 158, 2, 0.833097
89, 1, bw, filler, NA, 999, 999, 1, 16, 118, 81, 101, 194, 149, 188, 3, 1.5175
89, 1, bw, filler, NA, 999, 999, 1, 16, 118, 81, 101, 194, 149, 188, 1, 0.679545
89, 1, bw, attraction, a-b-da, 14, 2, 1, 17, 165, 90, 153, 83, 90, 165, 3, 6.63398
89, 1, bw, attraction, a-b-da, 14, 2, 1, 17, 165, 90, 153, 83, 90, 165, 2, 0.973826
89, 1, bw, attraction, a-b-da, 5, 3, 1, 18, 120, 195, 190, 117, 195, 120, 1, 2.87613
89, 1, bw, attraction, a-b-da, 5, 3, 1, 18, 120, 195, 190, 117, 195, 120, 3, 1.05526
89, 1, bw, filler, NA, 999, 999, 1, 19, 159, 172, 81, 118, 184, 107, 1, 1.33886
89, 1, bw, filler, NA, 999, 999, 1, 19, 159, 172, 81, 118, 184, 107, 2, 0.86768
89, 1, bw, attraction, a-b-db, 9, 1, 1, 20, 57, 129, 60, 135, 135, 60, 2, 2.43884
89, 1, bw, attraction, a-b-db, 9, 1, 1, 20, 57, 129, 60, 135, 135, 60, 3, 2.67524
89, 1, bw, attraction, a-b-da, 2, 2, 1, 21, 90, 165, 165, 90, 163, 89, 2, 3.46906
89, 1, bw, attraction, a-b-da, 2, 2, 1, 21, 90, 165, 165, 90, 163, 89, 1, 2.52064
89, 1, bw, attraction, a-b-da, 9, 3, 1, 22, 120, 195, 195, 120, 186, 114, 1, 1.60107
89, 1, bw, attraction, a-b-da, 9, 3, 1, 22, 120, 195, 195, 120, 186, 114, 3, 1.08797
89, 1, bw, attraction, a-b-da, 9, 1, 1, 23, 135, 60, 60, 135, 129, 57, 1, 3.25025
89, 1, bw, attraction, a-b-da, 9, 1, 1, 23, 135, 60, 60, 135, 129, 57, 2, 1.6545
89, 1, bw, attraction, a-b-da, 5, 1, 1, 24, 60, 135, 132, 58, 135, 60, 1, 2.25788
89, 1, bw, attraction, a-b-da, 5, 1, 1, 24, 60, 135, 132, 58, 135, 60, 3, 0.765764
89, 1, bw, attraction, a-b-db, 14, 2, 1, 25, 165, 90, 83, 153, 90, 165, 2, 1.81281
89, 1, bw, attraction, a-b-db, 14, 2, 1, 25, 165, 90, 83, 153, 90, 165, 1, 0.866846
89, 1, bw, filler, NA, 999, 999, 1, 26, 59, 126, 195, 155, 130, 64, 2, 1.0459
89, 1, bw, filler, NA, 999, 999, 1, 26, 59, 126, 195, 155, 130, 64, 3, 0.714867
89, 1, bw, attraction, a-b-db, 5, 1, 1, 27, 60, 135, 135, 60, 58, 132, 1, 3.49202
89, 1, bw, attraction, a-b-db, 5, 1, 1, 27, 60, 135, 135, 60, 58, 132, 3, 1.06226
89, 1, bw, filler, NA, 999, 999, 1, 28, 57, 80, 164, 82, 95, 78, 2, 2.23306
89, 1, bw, filler, NA, 999, 999, 1, 28, 57, 80, 164, 82, 95, 78, 1, 0.990347
89, 1, bw, attraction, a-b-db, 2, 2, 1, 29, 90, 165, 89, 163, 165, 90, 3, 2.68399
89, 1, bw, attraction, a-b-db, 2, 2, 1, 29, 90, 165, 89, 163, 165, 90, 1, 1.39925
89, 1, bw, attraction, a-b-db, 5, 2, 1, 30, 90, 165, 88, 161, 165, 90, 3, 3.3488
89, 1, bw, attraction, a-b-db, 5, 2, 1, 30, 90, 165, 88, 161, 165, 90, 1, 0.964968
89, 1, bw, attraction, a-b-db, 5, 3, 1, 31, 195, 120, 117, 190, 120, 195, 2, 2.31593
89, 1, bw, attraction, a-b-db, 5, 3, 1, 31, 195, 120, 117, 190, 120, 195, 3, 1.34981
89, 1, bw, catch, NA, 999, 999, 1, 32, 97, 98, 192, 123, 99, 156, 2, 1.17342
89, 1, bw, catch, NA, 999, 999, 1, 32, 97, 98, 192, 123, 99, 156, 1, 0.708927
89, 1, bw, attraction, a-b-db, 9, 2, 1, 33, 90, 165, 86, 157, 165, 90, 1, 2.21406
89, 1, bw, attraction, a-b-db, 9, 2, 1, 33, 90, 165, 86, 157, 165, 90, 2, 0.860043
89, 1, bw, attraction, a-b-da, 5, 2, 1, 34, 165, 90, 90, 165, 161, 88, 1, 1.78302
89, 1, bw, attraction, a-b-da, 5, 2, 1, 34, 165, 90, 90, 165, 161, 88, 3, 1.24639
89, 1, bw, attraction, a-b-db, 2, 3, 1, 35, 195, 120, 119, 193, 120, 195, 1, 1.33004
89, 1, bw, attraction, a-b-db, 2, 3, 1, 35, 195, 120, 119, 193, 120, 195, 3, 1.02746
89, 1, bw, attraction, a-b-da, 9, 2, 1, 36, 90, 165, 157, 86, 165, 90, 3, 5.78383
89, 1, bw, attraction, a-b-da, 9, 2, 1, 36, 90, 165, 157, 86, 165, 90, 2, 1.20586
89, 1, bw, filler, NA, 999, 999, 1, 37, 156, 137, 195, 63, 182, 136, 3, 1.94746
89, 1, bw, filler, NA, 999, 999, 1, 37, 156, 137, 195, 63, 182, 136, 2, 0.940202
89, 1, bw, attraction, a-b-da, 2, 2, 2, 1, 163, 89, 90, 165, 165, 90, 1, 3.84382
89, 1, bw, attraction, a-b-da, 2, 2, 2, 1, 163, 89, 90, 165, 165, 90, 2, 0.999955
89, 1, bw, filler, NA, 999, 999, 2, 2, 86, 101, 137, 78, 130, 124, 3, 4.06158
89, 1, bw, filler, NA, 999, 999, 2, 2, 86, 101, 137, 78, 130, 124, 1, 1.28102
89, 1, bw, attraction, a-b-da, 9, 1, 2, 3, 60, 135, 135, 60, 129, 57, 1, 4.4351
89, 1, bw, attraction, a-b-da, 9, 1, 2, 3, 60, 135, 135, 60, 129, 57, 3, 1.46381
89, 1, bw, attraction, a-b-da, 5, 3, 2, 4, 120, 195, 195, 120, 190, 117, 2, 4.50675
89, 1, bw, attraction, a-b-da, 5, 3, 2, 4, 120, 195, 195, 120, 190, 117, 3, 1.41189
89, 1, bw, catch, NA, 999, 999, 2, 5, 125, 130, 125, 190, 132, 63, 2, 1.24063
89, 1, bw, catch, NA, 999, 999, 2, 5, 125, 130, 125, 190, 132, 63, 3, 0.541565
89, 1, bw, filler, NA, 999, 999, 2, 6, 76, 86, 149, 104, 87, 131, 2, 1.85333
89, 1, bw, filler, NA, 999, 999, 2, 6, 76, 86, 149, 104, 87, 131, 1, 0.682178
89, 1, bw, attraction, a-b-da, 2, 1, 2, 7, 135, 60, 60, 135, 134, 59, 2, 2.22848
89, 1, bw, attraction, a-b-da, 2, 1, 2, 7, 135, 60, 60, 135, 134, 59, 3, 1.40174
89, 1, bw, attraction, a-b-db, 9, 1, 2, 8, 57, 129, 60, 135, 135, 60, 3, 5.03925
89, 1, bw, attraction, a-b-db, 9, 1, 2, 8, 57, 129, 60, 135, 135, 60, 1, 1.09159
89, 1, bw, filler, NA, 999, 999, 2, 9, 180, 122, 189, 124, 130, 120, 2, 3.66938
89, 1, bw, filler, NA, 999, 999, 2, 9, 180, 122, 189, 124, 130, 120, 3, 1.5288
89, 1, bw, attraction, a-b-db, 9, 3, 2, 10, 114, 186, 120, 195, 195, 120, 3, 6.11285
89, 1, bw, attraction, a-b-db, 9, 3, 2, 10, 114, 186, 120, 195, 195, 120, 1, 0.761626
89, 1, bw, attraction, a-b-da, 5, 2, 2, 11, 90, 165, 161, 88, 165, 90, 1, 2.46463
89, 1, bw, attraction, a-b-da, 5, 2, 2, 11, 90, 165, 161, 88, 165, 90, 2, 1.05245
89, 1, bw, attraction, a-b-db, 14, 1, 2, 12, 56, 125, 135, 60, 60, 135, 3, 2.768
89, 1, bw, attraction, a-b-db, 14, 1, 2, 12, 56, 125, 135, 60, 60, 135, 2, 1.19997
89, 1, bw, filler, NA, 999, 999, 2, 13, 99, 112, 120, 151, 65, 116, 2, 1.68554
89, 1, bw, filler, NA, 999, 999, 2, 13, 99, 112, 120, 151, 65, 116, 3, 0.944987
89, 1, bw, attraction, a-b-db, 2, 2, 2, 14, 90, 165, 89, 163, 165, 90, 3, 2.06446
89, 1, bw, attraction, a-b-db, 2, 2, 2, 14, 90, 165, 89, 163, 165, 90, 2, 0.900492
89, 1, bw, attraction, a-b-da, 5, 1, 2, 15, 132, 58, 135, 60, 60, 135, 3, 2.61427
89, 1, bw, attraction, a-b-da, 5, 1, 2, 15, 132, 58, 135, 60, 60, 135, 1, 2.30001
89, 1, bw, attraction, a-b-db, 5, 1, 2, 16, 135, 60, 58, 132, 60, 135, 1, 4.95713
89, 1, bw, attraction, a-b-db, 5, 1, 2, 16, 135, 60, 58, 132, 60, 135, 2, 1.0203
89, 1, bw, attraction, a-b-da, 9, 3, 2, 17, 186, 114, 120, 195, 195, 120, 2, 2.33731
89, 1, bw, attraction, a-b-da, 9, 3, 2, 17, 186, 114, 120, 195, 195, 120, 1, 2.93057
89, 1, bw, filler, NA, 999, 999, 2, 18, 132, 114, 170, 102, 192, 194, 3, 1.5623
89, 1, bw, filler, NA, 999, 999, 2, 18, 132, 114, 170, 102, 192, 194, 1, 1.64237
89, 1, bw, attraction, a-b-db, 14, 2, 2, 19, 90, 165, 165, 90, 83, 153, 1, 4.16593
89, 1, bw, attraction, a-b-db, 14, 2, 2, 19, 90, 165, 165, 90, 83, 153, 3, 4.46117
89, 1, bw, filler, NA, 999, 999, 2, 20, 93, 136, 60, 165, 179, 83, 3, 1.27112
89, 1, bw, filler, NA, 999, 999, 2, 20, 93, 136, 60, 165, 179, 83, 1, 3.48335
89, 1, bw, attraction, a-b-da, 9, 2, 2, 21, 165, 90, 157, 86, 90, 165, 1, 2.46874
89, 1, bw, attraction, a-b-da, 9, 2, 2, 21, 165, 90, 157, 86, 90, 165, 3, 1.20861
89, 1, bw, attraction, a-b-db, 5, 2, 2, 22, 88, 161, 165, 90, 90, 165, 2, 3.86953
89, 1, bw, attraction, a-b-db, 5, 2, 2, 22, 88, 161, 165, 90, 90, 165, 1, 0.632975
89, 1, bw, attraction, a-b-db, 2, 3, 2, 23, 195, 120, 119, 193, 120, 195, 1, 1.99736
89, 1, bw, attraction, a-b-db, 2, 3, 2, 23, 195, 120, 119, 193, 120, 195, 3, 0.676147
89, 1, bw, attraction, a-b-db, 2, 1, 2, 24, 59, 134, 60, 135, 135, 60, 1, 2.10243
89, 1, bw, attraction, a-b-db, 2, 1, 2, 24, 59, 134, 60, 135, 135, 60, 3, 1.60105
89, 1, bw, attraction, a-b-da, 14, 3, 2, 25, 195, 120, 181, 111, 120, 195, 1, 5.27861
89, 1, bw, attraction, a-b-da, 14, 3, 2, 25, 195, 120, 181, 111, 120, 195, 3, 2.29709
89, 1, bw, attraction, a-b-da, 2, 3, 2, 26, 120, 195, 193, 119, 195, 120, 1, 1.81808
89, 1, bw, attraction, a-b-da, 2, 3, 2, 26, 120, 195, 193, 119, 195, 120, 3, 0.720195
89, 1, bw, attraction, a-b-db, 5, 3, 2, 27, 195, 120, 117, 190, 120, 195, 1, 1.95322
89, 1, bw, attraction, a-b-db, 5, 3, 2, 27, 195, 120, 117, 190, 120, 195, 3, 1.12199
89, 1, bw, attraction, a-b-da, 14, 1, 2, 28, 135, 60, 125, 56, 60, 135, 3, 4.25901
89, 1, bw, attraction, a-b-da, 14, 1, 2, 28, 135, 60, 125, 56, 60, 135, 2, 0.534178
89, 1, bw, catch, NA, 999, 999, 2, 29, 120, 195, 77, 118, 121, 134, 1, 0.894595
89, 1, bw, catch, NA, 999, 999, 2, 29, 120, 195, 77, 118, 121, 134, 2, 1.14556
89, 1, bw, attraction, a-b-da, 14, 2, 2, 30, 90, 165, 165, 90, 153, 83, 1, 5.14513
89, 1, bw, attraction, a-b-da, 14, 2, 2, 30, 90, 165, 165, 90, 153, 83, 3, 0.785048
89, 1, bw, filler, NA, 999, 999, 2, 31, 84, 160, 180, 126, 161, 183, 3, 1.17533
89, 1, bw, filler, NA, 999, 999, 2, 31, 84, 160, 180, 126, 161, 183, 1, 0.702858
89, 1, bw, attraction, a-b-db, 9, 2, 2, 32, 90, 165, 86, 157, 165, 90, 1, 3.68861
89, 1, bw, attraction, a-b-db, 9, 2, 2, 32, 90, 165, 86, 157, 165, 90, 2, 1.87547
89, 1, bw, filler, NA, 999, 999, 2, 33, 140, 172, 57, 118, 163, 191, 3, 2.10146
89, 1, bw, filler, NA, 999, 999, 2, 33, 140, 172, 57, 118, 163, 191, 2, 0.968061
89, 1, bw, filler, NA, 999, 999, 2, 34, 177, 102, 112, 75, 126, 164, 1, 3.111
89, 1, bw, filler, NA, 999, 999, 2, 34, 177, 102, 112, 75, 126, 164, 2, 0.784684
89, 1, bw, attraction, a-b-db, 14, 3, 2, 35, 195, 120, 120, 195, 111, 181, 1, 4.18315
89, 1, bw, attraction, a-b-db, 14, 3, 2, 35, 195, 120, 120, 195, 111, 181, 3, 0.669778
89, 1, bw, catch, NA, 999, 999, 2, 36, 140, 175, 81, 114, 155, 100, 1, 1.5689
89, 1, bw, catch, NA, 999, 999, 2, 36, 140, 175, 81, 114, 155, 100, 2, 0.809008
89, 1, bw, filler, NA, 999, 999, 2, 37, 95, 177, 80, 133, 74, 113, 1, 1.19011
89, 1, bw, filler, NA, 999, 999, 2, 37, 95, 177, 80, 133, 74, 113, 3, 0.901006
89, 1, bw, attraction, a-b-db, 9, 3, 3, 1, 114, 186, 195, 120, 120, 195, 2, 1.75854
89, 1, bw, attraction, a-b-db, 9, 3, 3, 1, 114, 186, 195, 120, 120, 195, 3, 1.03866
89, 1, bw, catch, NA, 999, 999, 3, 2, 62, 133, 121, 134, 160, 155, 3, 1.59498
89, 1, bw, catch, NA, 999, 999, 3, 2, 62, 133, 121, 134, 160, 155, 1, 0.673861
89, 1, bw, attraction, a-b-da, 9, 1, 3, 3, 135, 60, 129, 57, 60, 135, 1, 3.02821
89, 1, bw, attraction, a-b-da, 9, 1, 3, 3, 135, 60, 129, 57, 60, 135, 3, 1.54518
89, 1, bw, catch, NA, 999, 999, 3, 4, 157, 158, 139, 116, 66, 129, 1, 1.28871
89, 1, bw, catch, NA, 999, 999, 3, 4, 157, 158, 139, 116, 66, 129, 3, 1.09961
89, 1, bw, attraction, a-b-db, 2, 2, 3, 5, 89, 163, 165, 90, 90, 165, 2, 3.57334
89, 1, bw, attraction, a-b-db, 2, 2, 3, 5, 89, 163, 165, 90, 90, 165, 1, 0.419943
89, 1, bw, attraction, a-b-da, 14, 2, 3, 6, 153, 83, 90, 165, 165, 90, 2, 1.4572
89, 1, bw, attraction, a-b-da, 14, 2, 3, 6, 153, 83, 90, 165, 165, 90, 3, 0.397406
89, 1, bw, attraction, a-b-da, 2, 2, 3, 7, 165, 90, 163, 89, 90, 165, 3, 2.48311
89, 1, bw, attraction, a-b-da, 2, 2, 3, 7, 165, 90, 163, 89, 90, 165, 1, 0.97434
89, 1, bw, filler, NA, 999, 999, 3, 8, 173, 195, 188, 116, 84, 157, 1, 2.02079
89, 1, bw, filler, NA, 999, 999, 3, 8, 173, 195, 188, 116, 84, 157, 3, 0.890133
89, 1, bw, attraction, a-b-db, 5, 2, 3, 9, 90, 165, 165, 90, 88, 161, 2, 4.1958
89, 1, bw, attraction, a-b-db, 5, 2, 3, 9, 90, 165, 165, 90, 88, 161, 3, 1.20162
89, 1, bw, attraction, a-b-db, 14, 1, 3, 10, 135, 60, 60, 135, 56, 125, 2, 3.26323
89, 1, bw, attraction, a-b-db, 14, 1, 3, 10, 135, 60, 60, 135, 56, 125, 3, 0.86681
89, 1, bw, filler, NA, 999, 999, 3, 11, 155, 168, 193, 98, 141, 92, 1, 1.69381
89, 1, bw, filler, NA, 999, 999, 3, 11, 155, 168, 193, 98, 141, 92, 3, 0.600636
89, 1, bw, attraction, a-b-db, 14, 3, 3, 12, 120, 195, 195, 120, 111, 181, 2, 1.76639
89, 1, bw, attraction, a-b-db, 14, 3, 3, 12, 120, 195, 195, 120, 111, 181, 3, 0.678536
89, 1, bw, filler, NA, 999, 999, 3, 13, 64, 130, 102, 192, 125, 171, 3, 1.4968
89, 1, bw, filler, NA, 999, 999, 3, 13, 64, 130, 102, 192, 125, 171, 1, 0.547689
89, 1, bw, attraction, a-b-da, 5, 3, 3, 14, 190, 117, 120, 195, 195, 120, 3, 5.04349
89, 1, bw, attraction, a-b-da, 5, 3, 3, 14, 190, 117, 120, 195, 195, 120, 2, 0.887167
89, 1, bw, attraction, a-b-da, 5, 2, 3, 15, 165, 90, 90, 165, 161, 88, 1, 3.86551
89, 1, bw, attraction, a-b-da, 5, 2, 3, 15, 165, 90, 90, 165, 161, 88, 2, 0.453029
89, 1, bw, attraction, a-b-da, 2, 1, 3, 16, 134, 59, 135, 60, 60, 135, 2, 2.45677
89, 1, bw, attraction, a-b-da, 2, 1, 3, 16, 134, 59, 135, 60, 60, 135, 3, 0.604687
89, 1, bw, attraction, a-b-db, 2, 1, 3, 17, 59, 134, 135, 60, 60, 135, 1, 3.86636
89, 1, bw, attraction, a-b-db, 2, 1, 3, 17, 59, 134, 135, 60, 60, 135, 3, 0.741847
89, 1, bw, attraction, a-b-da, 2, 3, 3, 18, 193, 119, 195, 120, 120, 195, 1, 1.90156
89, 1, bw, attraction, a-b-da, 2, 3, 3, 18, 193, 119, 195, 120, 120, 195, 2, 0.488265
89, 1, bw, attraction, a-b-db, 9, 2, 3, 19, 90, 165, 165, 90, 86, 157, 3, 1.17067
89, 1, bw, attraction, a-b-db, 9, 2, 3, 19, 90, 165, 165, 90, 86, 157, 1, 1.07494
89, 1, bw, attraction, a-b-db, 14, 2, 3, 20, 83, 153, 90, 165, 165, 90, 2, 3.02126
89, 1, bw, attraction, a-b-db, 14, 2, 3, 20, 83, 153, 90, 165, 165, 90, 1, 1.27499
89, 1, bw, attraction, a-b-da, 14, 3, 3, 21, 120, 195, 181, 111, 195, 120, 1, 2.42915
89, 1, bw, attraction, a-b-da, 14, 3, 3, 21, 120, 195, 181, 111, 195, 120, 2, 0.554407
89, 1, bw, filler, NA, 999, 999, 3, 22, 78, 137, 75, 182, 157, 138, 3, 1.11416
89, 1, bw, filler, NA, 999, 999, 3, 22, 78, 137, 75, 182, 157, 138, 1, 0.468421
89, 1, bw, attraction, a-b-da, 14, 1, 3, 23, 135, 60, 60, 135, 125, 56, 1, 3.39968
89, 1, bw, attraction, a-b-da, 14, 1, 3, 23, 135, 60, 60, 135, 125, 56, 2, 0.573898
89, 1, bw, filler, NA, 999, 999, 3, 24, 152, 129, 99, 97, 137, 62, 1, 3.2203
89, 1, bw, filler, NA, 999, 999, 3, 24, 152, 129, 99, 97, 137, 62, 2, 2.51388
89, 1, bw, attraction, a-b-db, 2, 3, 3, 25, 119, 193, 195, 120, 120, 195, 3, 3.06635
89, 1, bw, attraction, a-b-db, 2, 3, 3, 25, 119, 193, 195, 120, 120, 195, 2, 2.89413
89, 1, bw, filler, NA, 999, 999, 3, 26, 191, 132, 87, 182, 62, 101, 1, 1.03104
89, 1, bw, filler, NA, 999, 999, 3, 26, 191, 132, 87, 182, 62, 101, 3, 1.0047
89, 1, bw, attraction, a-b-db, 9, 1, 3, 27, 135, 60, 60, 135, 57, 129, 2, 1.86647
89, 1, bw, attraction, a-b-db, 9, 1, 3, 27, 135, 60, 60, 135, 57, 129, 3, 0.694431
89, 1, bw, filler, NA, 999, 999, 3, 28, 158, 67, 170, 124, 133, 93, 2, 1.45618
89, 1, bw, filler, NA, 999, 999, 3, 28, 158, 67, 170, 124, 133, 93, 1, 4.64441
89, 1, bw, attraction, a-b-db, 5, 1, 3, 29, 60, 135, 135, 60, 58, 132, 1, 2.51887
89, 1, bw, attraction, a-b-db, 5, 1, 3, 29, 60, 135, 135, 60, 58, 132, 2, 0.536735
89, 1, bw, filler, NA, 999, 999, 3, 30, 134, 77, 118, 128, 78, 87, 2, 1.76918
89, 1, bw, filler, NA, 999, 999, 3, 30, 134, 77, 118, 128, 78, 87, 1, 1.05729
89, 1, bw, filler, NA, 999, 999, 3, 31, 167, 118, 66, 71, 110, 145, 1, 2.43619
89, 1, bw, filler, NA, 999, 999, 3, 31, 167, 118, 66, 71, 110, 145, 2, 0.649474
89, 1, bw, attraction, a-b-da, 5, 1, 3, 32, 135, 60, 60, 135, 132, 58, 2, 1.60507
89, 1, bw, attraction, a-b-da, 5, 1, 3, 32, 135, 60, 60, 135, 132, 58, 3, 0.891244
89, 1, bw, attraction, a-b-da, 9, 3, 3, 33, 186, 114, 120, 195, 195, 120, 2, 2.74892
89, 1, bw, attraction, a-b-da, 9, 3, 3, 33, 186, 114, 120, 195, 195, 120, 1, 0.869339
89, 1, bw, attraction, a-b-da, 9, 2, 3, 34, 157, 86, 165, 90, 90, 165, 3, 2.95239
89, 1, bw, attraction, a-b-da, 9, 2, 3, 34, 157, 86, 165, 90, 90, 165, 2, 0.648742
89, 1, bw, filler, NA, 999, 999, 3, 35, 78, 72, 178, 121, 133, 126, 2, 1.69246
89, 1, bw, filler, NA, 999, 999, 3, 35, 78, 72, 178, 121, 133, 126, 1, 0.71126
89, 1, bw, attraction, a-b-db, 5, 3, 3, 36, 120, 195, 195, 120, 117, 190, 1, 3.99227
89, 1, bw, attraction, a-b-db, 5, 3, 3, 36, 120, 195, 195, 120, 117, 190, 2, 0.862418
89, 1, bw, catch, NA, 999, 999, 3, 37, 127, 128, 102, 93, 189, 126, 3, 2.12136
89, 1, bw, catch, NA, 999, 999, 3, 37, 127, 128, 102, 93, 189, 126, 2, 0.651341
89, 1, bw, filler, NA, 999, 999, 4, 1, 66, 191, 118, 187, 85, 184, 2, 1.0311
89, 1, bw, filler, NA, 999, 999, 4, 1, 66, 191, 118, 187, 85, 184, 1, 0.652784
89, 1, bw, attraction, a-b-db, 14, 2, 4, 2, 90, 165, 165, 90, 83, 153, 1, 1.74457
89, 1, bw, attraction, a-b-db, 14, 2, 4, 2, 90, 165, 165, 90, 83, 153, 2, 0.785208
89, 1, bw, filler, NA, 999, 999, 4, 3, 64, 150, 141, 69, 162, 180, 3, 1.34359
89, 1, bw, filler, NA, 999, 999, 4, 3, 64, 150, 141, 69, 162, 180, 1, 0.712594
89, 1, bw, attraction, a-b-db, 5, 2, 4, 4, 90, 165, 88, 161, 165, 90, 2, 3.02557
89, 1, bw, attraction, a-b-db, 5, 2, 4, 4, 90, 165, 88, 161, 165, 90, 1, 0.702673
89, 1, bw, attraction, a-b-db, 5, 1, 4, 5, 135, 60, 58, 132, 60, 135, 2, 3.00026
89, 1, bw, attraction, a-b-db, 5, 1, 4, 5, 135, 60, 58, 132, 60, 135, 3, 1.12684
89, 1, bw, filler, NA, 999, 999, 4, 6, 178, 156, 123, 176, 188, 176, 2, 1.37492
89, 1, bw, filler, NA, 999, 999, 4, 6, 178, 156, 123, 176, 188, 176, 3, 0.494404
89, 1, bw, attraction, a-b-db, 9, 3, 4, 7, 195, 120, 120, 195, 114, 186, 2, 3.40032
89, 1, bw, attraction, a-b-db, 9, 3, 4, 7, 195, 120, 120, 195, 114, 186, 3, 0.630625
89, 1, bw, catch, NA, 999, 999, 4, 8, 186, 129, 131, 124, 112, 83, 1, 1.43484
89, 1, bw, catch, NA, 999, 999, 4, 8, 186, 129, 131, 124, 112, 83, 3, 0.704477
89, 1, bw, attraction, a-b-db, 5, 3, 4, 9, 117, 190, 195, 120, 120, 195, 3, 1.49018
89, 1, bw, attraction, a-b-db, 5, 3, 4, 9, 117, 190, 195, 120, 120, 195, 1, 0.853008
89, 1, bw, filler, NA, 999, 999, 4, 10, 77, 144, 179, 118, 129, 96, 2, 1.80075
89, 1, bw, filler, NA, 999, 999, 4, 10, 77, 144, 179, 118, 129, 96, 1, 0.6554
89, 1, bw, attraction, a-b-da, 2, 2, 4, 11, 163, 89, 90, 165, 165, 90, 3, 1.49112
89, 1, bw, attraction, a-b-da, 2, 2, 4, 11, 163, 89, 90, 165, 165, 90, 2, 0.910054
89, 1, bw, attraction, a-b-da, 5, 3, 4, 12, 195, 120, 190, 117, 120, 195, 2, 1.93499
89, 1, bw, attraction, a-b-da, 5, 3, 4, 12, 195, 120, 190, 117, 120, 195, 3, 0.608347
89, 1, bw, attraction, a-b-db, 9, 2, 4, 13, 165, 90, 86, 157, 90, 165, 1, 4.92541
89, 1, bw, attraction, a-b-db, 9, 2, 4, 13, 165, 90, 86, 157, 90, 165, 2, 0.80594
89, 1, bw, attraction, a-b-da, 5, 2, 4, 14, 161, 88, 165, 90, 90, 165, 2, 2.22753
89, 1, bw, attraction, a-b-da, 5, 2, 4, 14, 161, 88, 165, 90, 90, 165, 3, 0.480973
89, 1, bw, attraction, a-b-da, 9, 3, 4, 15, 120, 195, 186, 114, 195, 120, 1, 1.42731
89, 1, bw, attraction, a-b-da, 9, 3, 4, 15, 120, 195, 186, 114, 195, 120, 2, 0.904782
89, 1, bw, filler, NA, 999, 999, 4, 16, 163, 80, 69, 124, 109, 65, 1, 1.26643
89, 1, bw, filler, NA, 999, 999, 4, 16, 163, 80, 69, 124, 109, 65, 3, 0.590733
89, 1, bw, filler, NA, 999, 999, 4, 17, 95, 116, 130, 153, 73, 93, 2, 0.940404
89, 1, bw, filler, NA, 999, 999, 4, 17, 95, 116, 130, 153, 73, 93, 3, 0.557498
89, 1, bw, attraction, a-b-db, 9, 1, 4, 18, 60, 135, 135, 60, 57, 129, 2, 2.32466
89, 1, bw, attraction, a-b-db, 9, 1, 4, 18, 60, 135, 135, 60, 57, 129, 3, 0.573988
89, 1, bw, filler, NA, 999, 999, 4, 19, 193, 175, 72, 131, 164, 57, 1, 1.71622
89, 1, bw, filler, NA, 999, 999, 4, 19, 193, 175, 72, 131, 164, 57, 3, 0.822346
89, 1, bw, attraction, a-b-db, 14, 3, 4, 20, 120, 195, 195, 120, 111, 181, 2, 1.80334
89, 1, bw, attraction, a-b-db, 14, 3, 4, 20, 120, 195, 195, 120, 111, 181, 3, 0.434133
89, 1, bw, attraction, a-b-db, 2, 3, 4, 21, 120, 195, 195, 120, 119, 193, 2, 3.69469
89, 1, bw, attraction, a-b-db, 2, 3, 4, 21, 120, 195, 195, 120, 119, 193, 3, 0.664901
89, 1, bw, filler, NA, 999, 999, 4, 22, 157, 172, 68, 113, 75, 99, 1, 1.31585
89, 1, bw, filler, NA, 999, 999, 4, 22, 157, 172, 68, 113, 75, 99, 3, 0.678154
89, 1, bw, attraction, a-b-da, 9, 1, 4, 23, 135, 60, 60, 135, 129, 57, 2, 1.04047
89, 1, bw, attraction, a-b-da, 9, 1, 4, 23, 135, 60, 60, 135, 129, 57, 1, 0.76536
89, 1, bw, attraction, a-b-da, 9, 2, 4, 24, 90, 165, 157, 86, 165, 90, 2, 4.17241
89, 1, bw, attraction, a-b-da, 9, 2, 4, 24, 90, 165, 157, 86, 165, 90, 3, 0.395213
89, 1, bw, filler, NA, 999, 999, 4, 25, 79, 180, 192, 180, 175, 84, 2, 0.816876
89, 1, bw, filler, NA, 999, 999, 4, 25, 79, 180, 192, 180, 175, 84, 3, 0.407395
89, 1, bw, filler, NA, 999, 999, 4, 26, 182, 161, 135, 162, 76, 114, 1, 0.98061
89, 1, bw, filler, NA, 999, 999, 4, 26, 182, 161, 135, 162, 76, 114, 3, 0.540118
89, 1, bw, attraction, a-b-da, 14, 3, 4, 27, 120, 195, 181, 111, 195, 120, 3, 1.01988
89, 1, bw, attraction, a-b-da, 14, 3, 4, 27, 120, 195, 181, 111, 195, 120, 1, 0.346186
89, 1, bw, attraction, a-b-da, 5, 1, 4, 28, 135, 60, 60, 135, 132, 58, 1, 1.33
89, 1, bw, attraction, a-b-da, 5, 1, 4, 28, 135, 60, 60, 135, 132, 58, 3, 0.531715
89, 1, bw, attraction, a-b-da, 2, 1, 4, 29, 60, 135, 134, 59, 135, 60, 2, 1.13199
89, 1, bw, attraction, a-b-da, 2, 1, 4, 29, 60, 135, 134, 59, 135, 60, 1, 0.373695
89, 1, bw, catch, NA, 999, 999, 4, 30, 152, 103, 71, 124, 145, 170, 3, 0.828171
89, 1, bw, catch, NA, 999, 999, 4, 30, 152, 103, 71, 124, 145, 170, 2, 0.329917
89, 1, bw, attraction, a-b-db, 2, 1, 4, 31, 60, 135, 135, 60, 59, 134, 1, 1.06633
89, 1, bw, attraction, a-b-db, 2, 1, 4, 31, 60, 135, 135, 60, 59, 134, 3, 0.454663
89, 1, bw, attraction, a-b-da, 2, 3, 4, 32, 120, 195, 195, 120, 193, 119, 2, 2.40252
89, 1, bw, attraction, a-b-da, 2, 3, 4, 32, 120, 195, 195, 120, 193, 119, 1, 0.713098
89, 1, bw, attraction, a-b-db, 2, 2, 4, 33, 90, 165, 89, 163, 165, 90, 3, 4.65815
89, 1, bw, attraction, a-b-db, 2, 2, 4, 33, 90, 165, 89, 163, 165, 90, 2, 0.581278
89, 1, bw, attraction, a-b-da, 14, 2, 4, 34, 90, 165, 153, 83, 165, 90, 2, 0.947786
89, 1, bw, attraction, a-b-da, 14, 2, 4, 34, 90, 165, 153, 83, 165, 90, 3, 0.572788
89, 1, bw, catch, NA, 999, 999, 4, 35, 108, 147, 185, 130, 63, 132, 2, 1.08383
89, 1, bw, catch, NA, 999, 999, 4, 35, 108, 147, 185, 130, 63, 132, 3, 0.831495
89, 1, bw, attraction, a-b-db, 14, 1, 4, 36, 60, 135, 56, 125, 135, 60, 1, 1.42781
89, 1, bw, attraction, a-b-db, 14, 1, 4, 36, 60, 135, 56, 125, 135, 60, 3, 0.609431
89, 1, bw, attraction, a-b-da, 14, 1, 4, 37, 125, 56, 135, 60, 60, 135, 1, 0.926377
89, 1, bw, attraction, a-b-da, 14, 1, 4, 37, 125, 56, 135, 60, 60, 135, 2, 0.528145
89, 1, bw, attraction, a-b-db, 2, 3, 5, 1, 195, 120, 119, 193, 120, 195, 1, 4.06333
89, 1, bw, attraction, a-b-db, 2, 3, 5, 1, 195, 120, 119, 193, 120, 195, 3, 0.490556
89, 1, bw, attraction, a-b-db, 9, 2, 5, 2, 165, 90, 90, 165, 86, 157, 2, 2.78037
89, 1, bw, attraction, a-b-db, 9, 2, 5, 2, 165, 90, 90, 165, 86, 157, 3, 0.611454
89, 1, bw, filler, NA, 999, 999, 5, 3, 185, 148, 169, 93, 155, 124, 1, 0.960564
89, 1, bw, filler, NA, 999, 999, 5, 3, 185, 148, 169, 93, 155, 124, 2, 0.969002
89, 1, bw, attraction, a-b-da, 14, 1, 5, 4, 60, 135, 135, 60, 125, 56, 1, 1.2478
89, 1, bw, attraction, a-b-da, 14, 1, 5, 4, 60, 135, 135, 60, 125, 56, 3, 0.668901
89, 1, bw, attraction, a-b-db, 14, 3, 5, 5, 111, 181, 120, 195, 195, 120, 3, 1.23196
89, 1, bw, attraction, a-b-db, 14, 3, 5, 5, 111, 181, 120, 195, 195, 120, 1, 0.509473
89, 1, bw, filler, NA, 999, 999, 5, 6, 179, 143, 191, 75, 88, 163, 1, 0.662462
89, 1, bw, filler, NA, 999, 999, 5, 6, 179, 143, 191, 75, 88, 163, 3, 0.979008
89, 1, bw, attraction, a-b-da, 5, 3, 5, 7, 190, 117, 120, 195, 195, 120, 3, 1.59327
89, 1, bw, attraction, a-b-da, 5, 3, 5, 7, 190, 117, 120, 195, 195, 120, 1, 1.84818
89, 1, bw, attraction, a-b-db, 14, 1, 5, 8, 60, 135, 135, 60, 56, 125, 2, 2.43541
89, 1, bw, attraction, a-b-db, 14, 1, 5, 8, 60, 135, 135, 60, 56, 125, 3, 0.480602
89, 1, bw, attraction, a-b-da, 14, 2, 5, 9, 90, 165, 165, 90, 153, 83, 2, 3.70716
89, 1, bw, attraction, a-b-da, 14, 2, 5, 9, 90, 165, 165, 90, 153, 83, 1, 1.08455
89, 1, bw, attraction, a-b-db, 2, 2, 5, 10, 89, 163, 165, 90, 90, 165, 2, 0.726756
89, 1, bw, attraction, a-b-db, 2, 2, 5, 10, 89, 163, 165, 90, 90, 165, 1, 1.04055
89, 1, bw, filler, NA, 999, 999, 5, 11, 127, 114, 86, 117, 192, 123, 3, 0.740257
89, 1, bw, filler, NA, 999, 999, 5, 11, 127, 114, 86, 117, 192, 123, 2, 0.661303
89, 1, bw, attraction, a-b-db, 14, 2, 5, 12, 165, 90, 83, 153, 90, 165, 3, 1.52839
89, 1, bw, attraction, a-b-db, 14, 2, 5, 12, 165, 90, 83, 153, 90, 165, 2, 0.785874
89, 1, bw, attraction, a-b-da, 5, 2, 5, 13, 165, 90, 161, 88, 90, 165, 1, 1.25619
89, 1, bw, attraction, a-b-da, 5, 2, 5, 13, 165, 90, 161, 88, 90, 165, 3, 1.02849
89, 1, bw, attraction, a-b-db, 2, 1, 5, 14, 135, 60, 60, 135, 59, 134, 1, 2.66487
89, 1, bw, attraction, a-b-db, 2, 1, 5, 14, 135, 60, 60, 135, 59, 134, 2, 0.412567
89, 1, bw, attraction, a-b-da, 5, 1, 5, 15, 60, 135, 135, 60, 132, 58, 2, 1.71362
89, 1, bw, attraction, a-b-da, 5, 1, 5, 15, 60, 135, 135, 60, 132, 58, 3, 0.539854
89, 1, bw, catch, NA, 999, 999, 5, 16, 128, 127, 62, 133, 154, 161, 3, 0.876269
89, 1, bw, catch, NA, 999, 999, 5, 16, 128, 127, 62, 133, 154, 161, 2, 0.487942
89, 1, bw, attraction, a-b-da, 9, 3, 5, 17, 195, 120, 186, 114, 120, 195, 1, 2.39434
89, 1, bw, attraction, a-b-da, 9, 3, 5, 17, 195, 120, 186, 114, 120, 195, 3, 4.94496
89, 1, bw, filler, NA, 999, 999, 5, 18, 82, 81, 94, 120, 135, 64, 2, 2.3114
89, 1, bw, filler, NA, 999, 999, 5, 18, 82, 81, 94, 120, 135, 64, 1, 0.785242
89, 1, bw, attraction, a-b-da, 9, 1, 5, 19, 60, 135, 129, 57, 135, 60, 3, 0.871584
89, 1, bw, attraction, a-b-da, 9, 1, 5, 19, 60, 135, 129, 57, 135, 60, 2, 0.387388
89, 1, bw, filler, NA, 999, 999, 5, 20, 110, 58, 148, 96, 107, 109, 2, 1.07381
89, 1, bw, filler, NA, 999, 999, 5, 20, 110, 58, 148, 96, 107, 109, 1, 0.365558
89, 1, bw, catch, NA, 999, 999, 5, 21, 116, 79, 167, 148, 136, 119, 2, 0.764766
89, 1, bw, catch, NA, 999, 999, 5, 21, 116, 79, 167, 148, 136, 119, 1, 0.372965
89, 1, bw, filler, NA, 999, 999, 5, 22, 58, 123, 136, 108, 168, 103, 3, 0.812187
89, 1, bw, filler, NA, 999, 999, 5, 22, 58, 123, 136, 108, 168, 103, 1, 0.514537
89, 1, bw, attraction, a-b-da, 2, 1, 5, 23, 60, 135, 135, 60, 134, 59, 1, 1.13176
89, 1, bw, attraction, a-b-da, 2, 1, 5, 23, 60, 135, 135, 60, 134, 59, 2, 0.81323
89, 1, bw, attraction, a-b-da, 14, 3, 5, 24, 120, 195, 195, 120, 181, 111, 2, 3.65833
89, 1, bw, attraction, a-b-da, 14, 3, 5, 24, 120, 195, 195, 120, 181, 111, 1, 1.17383
89, 1, bw, attraction, a-b-db, 9, 3, 5, 25, 114, 186, 120, 195, 195, 120, 3, 1.15604
89, 1, bw, attraction, a-b-db, 9, 3, 5, 25, 114, 186, 120, 195, 195, 120, 1, 0.372366
89, 1, bw, catch, NA, 999, 999, 5, 26, 163, 92, 90, 105, 186, 129, 3, 0.755492
89, 1, bw, catch, NA, 999, 999, 5, 26, 163, 92, 90, 105, 186, 129, 2, 0.259919
89, 1, bw, attraction, a-b-db, 5, 1, 5, 27, 60, 135, 135, 60, 58, 132, 2, 0.743086
89, 1, bw, attraction, a-b-db, 5, 1, 5, 27, 60, 135, 135, 60, 58, 132, 1, 0.648103
89, 1, bw, filler, NA, 999, 999, 5, 28, 115, 90, 192, 176, 78, 127, 2, 0.603843
89, 1, bw, filler, NA, 999, 999, 5, 28, 115, 90, 192, 176, 78, 127, 3, 0.867016
89, 1, bw, filler, NA, 999, 999, 5, 29, 57, 142, 76, 125, 163, 170, 3, 0.670029
89, 1, bw, filler, NA, 999, 999, 5, 29, 57, 142, 76, 125, 163, 170, 1, 0.698464
89, 1, bw, filler, NA, 999, 999, 5, 30, 163, 76, 167, 120, 79, 82, 2, 0.628135
89, 1, bw, filler, NA, 999, 999, 5, 30, 163, 76, 167, 120, 79, 82, 3, 1.18602
89, 1, bw, attraction, a-b-da, 2, 2, 5, 31, 165, 90, 90, 165, 163, 89, 3, 0.760154
89, 1, bw, attraction, a-b-da, 2, 2, 5, 31, 165, 90, 90, 165, 163, 89, 2, 0.512685
89, 1, bw, attraction, a-b-da, 9, 2, 5, 32, 157, 86, 165, 90, 90, 165, 2, 0.953781
89, 1, bw, attraction, a-b-da, 9, 2, 5, 32, 157, 86, 165, 90, 90, 165, 1, 0.514766
89, 1, bw, attraction, a-b-db, 5, 3, 5, 33, 117, 190, 120, 195, 195, 120, 2, 1.3798
89, 1, bw, attraction, a-b-db, 5, 3, 5, 33, 117, 190, 120, 195, 195, 120, 3, 0.635339
89, 1, bw, attraction, a-b-da, 2, 3, 5, 34, 193, 119, 195, 120, 120, 195, 2, 0.727799
89, 1, bw, attraction, a-b-da, 2, 3, 5, 34, 193, 119, 195, 120, 120, 195, 3, 0.641489
89, 1, bw, filler, NA, 999, 999, 5, 35, 109, 131, 133, 164, 150, 153, 3, 0.645226
89, 1, bw, filler, NA, 999, 999, 5, 35, 109, 131, 133, 164, 150, 153, 2, 0.314373
89, 1, bw, attraction, a-b-db, 5, 2, 5, 36, 88, 161, 165, 90, 90, 165, 2, 1.20348
89, 1, bw, attraction, a-b-db, 5, 2, 5, 36, 88, 161, 165, 90, 90, 165, 1, 0.746492
89, 1, bw, attraction, a-b-db, 9, 1, 5, 37, 135, 60, 57, 129, 60, 135, 1, 1.15417
89, 1, bw, attraction, a-b-db, 9, 1, 5, 37, 135, 60, 57, 129, 60, 135, 2, 0.435262
89, 1, bw, attraction, a-b-da, 5, 2, 6, 1, 90, 165, 161, 88, 165, 90, 2, 2.08761
89, 1, bw, attraction, a-b-da, 5, 2, 6, 1, 90, 165, 161, 88, 165, 90, 1, 0.634923
89, 1, bw, catch, NA, 999, 999, 6, 2, 130, 125, 98, 97, 190, 125, 3, 0.839397
89, 1, bw, catch, NA, 999, 999, 6, 2, 130, 125, 98, 97, 190, 125, 2, 0.572339
89, 1, bw, attraction, a-b-da, 5, 1, 6, 3, 132, 58, 60, 135, 135, 60, 2, 0.803555
89, 1, bw, attraction, a-b-da, 5, 1, 6, 3, 132, 58, 60, 135, 135, 60, 1, 0.442538
89, 1, bw, attraction, a-b-da, 9, 2, 6, 4, 157, 86, 90, 165, 165, 90, 2, 0.742382
89, 1, bw, attraction, a-b-da, 9, 2, 6, 4, 157, 86, 90, 165, 165, 90, 1, 0.679378
89, 1, bw, filler, NA, 999, 999, 6, 5, 101, 99, 134, 69, 65, 190, 1, 0.881905
89, 1, bw, filler, NA, 999, 999, 6, 5, 101, 99, 134, 69, 65, 190, 2, 3.63749
89, 1, bw, attraction, a-b-da, 5, 3, 6, 6, 190, 117, 120, 195, 195, 120, 2, 3.49702
89, 1, bw, attraction, a-b-da, 5, 3, 6, 6, 190, 117, 120, 195, 195, 120, 3, 0.395211
89, 1, bw, attraction, a-b-da, 2, 1, 6, 7, 135, 60, 134, 59, 60, 135, 1, 1.80105
89, 1, bw, attraction, a-b-da, 2, 1, 6, 7, 135, 60, 134, 59, 60, 135, 3, 0.567782
89, 1, bw, filler, NA, 999, 999, 6, 8, 117, 93, 120, 96, 82, 83, 2, 1.59886
89, 1, bw, filler, NA, 999, 999, 6, 8, 117, 93, 120, 96, 82, 83, 3, 0.541811
89, 1, bw, attraction, a-b-db, 14, 2, 6, 9, 165, 90, 90, 165, 83, 153, 1, 0.893564
89, 1, bw, attraction, a-b-db, 14, 2, 6, 9, 165, 90, 90, 165, 83, 153, 3, 1.03254
89, 1, bw, attraction, a-b-da, 2, 3, 6, 10, 120, 195, 193, 119, 195, 120, 2, 2.03667
89, 1, bw, attraction, a-b-da, 2, 3, 6, 10, 120, 195, 193, 119, 195, 120, 3, 0.618027
89, 1, bw, attraction, a-b-db, 14, 3, 6, 11, 120, 195, 195, 120, 111, 181, 2, 1.80727
89, 1, bw, attraction, a-b-db, 14, 3, 6, 11, 120, 195, 195, 120, 111, 181, 3, 0.629362
89, 1, bw, filler, NA, 999, 999, 6, 12, 160, 174, 192, 140, 131, 64, 1, 1.51358
89, 1, bw, filler, NA, 999, 999, 6, 12, 160, 174, 192, 140, 131, 64, 3, 0.755853
89, 1, bw, attraction, a-b-da, 9, 1, 6, 13, 135, 60, 60, 135, 129, 57, 2, 4.1795
89, 1, bw, attraction, a-b-da, 9, 1, 6, 13, 135, 60, 60, 135, 129, 57, 3, 0.546194
89, 1, bw, filler, NA, 999, 999, 6, 14, 168, 98, 193, 194, 165, 78, 2, 0.858073
89, 1, bw, filler, NA, 999, 999, 6, 14, 168, 98, 193, 194, 165, 78, 3, 0.66235
89, 1, bw, attraction, a-b-da, 14, 2, 6, 15, 165, 90, 153, 83, 90, 165, 3, 1.95335
89, 1, bw, attraction, a-b-da, 14, 2, 6, 15, 165, 90, 153, 83, 90, 165, 2, 0.338199
89, 1, bw, attraction, a-b-db, 14, 1, 6, 16, 60, 135, 135, 60, 56, 125, 2, 0.946545
89, 1, bw, attraction, a-b-db, 14, 1, 6, 16, 60, 135, 135, 60, 56, 125, 3, 0.715597
89, 1, bw, attraction, a-b-db, 5, 2, 6, 17, 90, 165, 165, 90, 88, 161, 2, 0.964594
89, 1, bw, attraction, a-b-db, 5, 2, 6, 17, 90, 165, 165, 90, 88, 161, 3, 0.604946
89, 1, bw, catch, NA, 999, 999, 6, 18, 135, 180, 96, 159, 97, 98, 1, 1.03476
89, 1, bw, catch, NA, 999, 999, 6, 18, 135, 180, 96, 159, 97, 98, 3, 0.67249
89, 1, bw, attraction, a-b-da, 9, 3, 6, 19, 195, 120, 120, 195, 186, 114, 2, 1.19542
89, 1, bw, attraction, a-b-da, 9, 3, 6, 19, 195, 120, 120, 195, 186, 114, 3, 0.562488
89, 1, bw, catch, NA, 999, 999, 6, 20, 102, 153, 134, 61, 134, 181, 3, 0.905437
89, 1, bw, catch, NA, 999, 999, 6, 20, 102, 153, 134, 61, 134, 181, 2, 0.515887
89, 1, bw, attraction, a-b-db, 9, 3, 6, 21, 120, 195, 114, 186, 195, 120, 3, 2.581
89, 1, bw, attraction, a-b-db, 9, 3, 6, 21, 120, 195, 114, 186, 195, 120, 2, 0.348184
89, 1, bw, filler, NA, 999, 999, 6, 22, 136, 110, 163, 179, 135, 129, 2, 0.723987
89, 1, bw, filler, NA, 999, 999, 6, 22, 136, 110, 163, 179, 135, 129, 3, 0.437679
89, 1, bw, attraction, a-b-da, 14, 3, 6, 23, 120, 195, 195, 120, 181, 111, 2, 1.67414
89, 1, bw, attraction, a-b-da, 14, 3, 6, 23, 120, 195, 195, 120, 181, 111, 3, 0.845597
89, 1, bw, filler, NA, 999, 999, 6, 24, 126, 78, 119, 63, 182, 133, 3, 0.785351
89, 1, bw, filler, NA, 999, 999, 6, 24, 126, 78, 119, 63, 182, 133, 2, 0.561165
89, 1, bw, filler, NA, 999, 999, 6, 25, 140, 121, 187, 88, 164, 68, 2, 1.30414
89, 1, bw, filler, NA, 999, 999, 6, 25, 140, 121, 187, 88, 164, 68, 3, 0.515088
89, 1, bw, attraction, a-b-db, 2, 3, 6, 26, 120, 195, 119, 193, 195, 120, 3, 3.23625
89, 1, bw, attraction, a-b-db, 2, 3, 6, 26, 120, 195, 119, 193, 195, 120, 1, 1.56923
89, 1, bw, attraction, a-b-db, 9, 2, 6, 27, 90, 165, 86, 157, 165, 90, 3, 1.04798
89, 1, bw, attraction, a-b-db, 9, 2, 6, 27, 90, 165, 86, 157, 165, 90, 2, 0.844885
89, 1, bw, attraction, a-b-db, 5, 1, 6, 28, 135, 60, 58, 132, 60, 135, 1, 0.90456
89, 1, bw, attraction, a-b-db, 5, 1, 6, 28, 135, 60, 58, 132, 60, 135, 2, 0.650969
89, 1, bw, filler, NA, 999, 999, 6, 29, 120, 153, 128, 95, 101, 74, 1, 1.1107
89, 1, bw, filler, NA, 999, 999, 6, 29, 120, 153, 128, 95, 101, 74, 3, 0.633008
89, 1, bw, filler, NA, 999, 999, 6, 30, 144, 85, 192, 134, 74, 114, 2, 0.733491
89, 1, bw, filler, NA, 999, 999, 6, 30, 144, 85, 192, 134, 74, 114, 3, 0.503191
89, 1, bw, attraction, a-b-db, 2, 1, 6, 31, 59, 134, 60, 135, 135, 60, 3, 2.79293
89, 1, bw, attraction, a-b-db, 2, 1, 6, 31, 59, 134, 60, 135, 135, 60, 1, 1.58329
89, 1, bw, attraction, a-b-db, 9, 1, 6, 32, 135, 60, 57, 129, 60, 135, 2, 2.43746
89, 1, bw, attraction, a-b-db, 9, 1, 6, 32, 135, 60, 57, 129, 60, 135, 3, 1.01879
89, 1, bw, attraction, a-b-db, 5, 3, 6, 33, 120, 195, 117, 190, 195, 120, 1, 1.47963
89, 1, bw, attraction, a-b-db, 5, 3, 6, 33, 120, 195, 117, 190, 195, 120, 3, 0.643218
89, 1, bw, attraction, a-b-db, 2, 2, 6, 34, 89, 163, 90, 165, 165, 90, 3, 0.942854
89, 1, bw, attraction, a-b-db, 2, 2, 6, 34, 89, 163, 90, 165, 165, 90, 2, 0.631961
89, 1, bw, filler, NA, 999, 999, 6, 35, 166, 108, 93, 88, 98, 87, 1, 1.26826
89, 1, bw, filler, NA, 999, 999, 6, 35, 166, 108, 93, 88, 98, 87, 2, 0.440496
89, 1, bw, attraction, a-b-da, 14, 1, 6, 36, 125, 56, 60, 135, 135, 60, 1, 0.684503
89, 1, bw, attraction, a-b-da, 14, 1, 6, 36, 125, 56, 60, 135, 135, 60, 2, 0.432038
89, 1, bw, attraction, a-b-da, 2, 2, 6, 37, 165, 90, 90, 165, 163, 89, 2, 0.948569
89, 1, bw, attraction, a-b-da, 2, 2, 6, 37, 165, 90, 90, 165, 163, 89, 1, 0.965568
89, 1, bw, filler, NA, 999, 999, 7, 1, 91, 122, 66, 132, 107, 99, 3, 0.948516
89, 1, bw, filler, NA, 999, 999, 7, 1, 91, 122, 66, 132, 107, 99, 2, 0.517518
89, 1, bw, filler, NA, 999, 999, 7, 2, 160, 177, 106, 107, 80, 118, 1, 0.98273
89, 1, bw, filler, NA, 999, 999, 7, 2, 160, 177, 106, 107, 80, 118, 3, 0.478507
89, 1, bw, attraction, a-b-db, 5, 3, 7, 3, 117, 190, 195, 120, 120, 195, 2, 0.720865
89, 1, bw, attraction, a-b-db, 5, 3, 7, 3, 117, 190, 195, 120, 120, 195, 1, 0.731256
89, 1, bw, attraction, a-b-da, 9, 2, 7, 4, 165, 90, 90, 165, 157, 86, 2, 1.51569
89, 1, bw, attraction, a-b-da, 9, 2, 7, 4, 165, 90, 90, 165, 157, 86, 1, 0.781801
89, 1, bw, attraction, a-b-db, 5, 2, 7, 5, 88, 161, 165, 90, 90, 165, 1, 1.02013
89, 1, bw, attraction, a-b-db, 5, 2, 7, 5, 88, 161, 165, 90, 90, 165, 2, 0.49849
89, 1, bw, attraction, a-b-db, 14, 2, 7, 6, 83, 153, 165, 90, 90, 165, 2, 1.19619
89, 1, bw, attraction, a-b-db, 14, 2, 7, 6, 83, 153, 165, 90, 90, 165, 3, 0.643406
89, 1, bw, attraction, a-b-da, 2, 3, 7, 7, 193, 119, 195, 120, 120, 195, 1, 0.910928
89, 1, bw, attraction, a-b-da, 2, 3, 7, 7, 193, 119, 195, 120, 120, 195, 3, 0.617244
89, 1, bw, catch, NA, 999, 999, 7, 8, 60, 135, 192, 123, 145, 110, 2, 0.998327
89, 1, bw, catch, NA, 999, 999, 7, 8, 60, 135, 192, 123, 145, 110, 1, 0.477393
89, 1, bw, attraction, a-b-da, 5, 3, 7, 9, 195, 120, 120, 195, 190, 117, 2, 0.975733
89, 1, bw, attraction, a-b-da, 5, 3, 7, 9, 195, 120, 120, 195, 190, 117, 1, 1.45554
89, 1, bw, attraction, a-b-da, 14, 1, 7, 10, 135, 60, 125, 56, 60, 135, 1, 1.56303
89, 1, bw, attraction, a-b-da, 14, 1, 7, 10, 135, 60, 125, 56, 60, 135, 3, 0.955405
89, 1, bw, attraction, a-b-db, 2, 3, 7, 11, 195, 120, 119, 193, 120, 195, 1, 3.78687
89, 1, bw, attraction, a-b-db, 2, 3, 7, 11, 195, 120, 119, 193, 120, 195, 3, 1.25771
89, 1, bw, attraction, a-b-da, 2, 2, 7, 12, 163, 89, 90, 165, 165, 90, 2, 2.31651
89, 1, bw, attraction, a-b-da, 2, 2, 7, 12, 163, 89, 90, 165, 165, 90, 1, 0.814374
89, 1, bw, attraction, a-b-da, 9, 3, 7, 13, 195, 120, 120, 195, 186, 114, 2, 0.643416
89, 1, bw, attraction, a-b-da, 9, 3, 7, 13, 195, 120, 120, 195, 186, 114, 3, 0.400473
89, 1, bw, filler, NA, 999, 999, 7, 14, 165, 98, 143, 83, 161, 107, 3, 1.43033
89, 1, bw, filler, NA, 999, 999, 7, 14, 165, 98, 143, 83, 161, 107, 2, 0.675806
89, 1, bw, attraction, a-b-db, 9, 2, 7, 15, 90, 165, 86, 157, 165, 90, 2, 0.958423
89, 1, bw, attraction, a-b-db, 9, 2, 7, 15, 90, 165, 86, 157, 165, 90, 3, 0.446704
89, 1, bw, filler, NA, 999, 999, 7, 16, 166, 178, 67, 162, 102, 135, 1, 1.09829
89, 1, bw, filler, NA, 999, 999, 7, 16, 166, 178, 67, 162, 102, 135, 2, 0.4614
89, 1, bw, attraction, a-b-da, 14, 2, 7, 17, 165, 90, 153, 83, 90, 165, 2, 0.77642
89, 1, bw, attraction, a-b-da, 14, 2, 7, 17, 165, 90, 153, 83, 90, 165, 3, 0.45626
89, 1, bw, filler, NA, 999, 999, 7, 18, 72, 138, 179, 176, 70, 185, 2, 0.739921
89, 1, bw, filler, NA, 999, 999, 7, 18, 72, 138, 179, 176, 70, 185, 3, 0.429101
89, 1, bw, filler, NA, 999, 999, 7, 19, 117, 129, 67, 159, 126, 107, 1, 0.969539
89, 1, bw, filler, NA, 999, 999, 7, 19, 117, 129, 67, 159, 126, 107, 2, 0.881917
89, 1, bw, catch, NA, 999, 999, 7, 20, 143, 112, 74, 121, 191, 124, 3, 0.828211
89, 1, bw, catch, NA, 999, 999, 7, 20, 143, 112, 74, 121, 191, 124, 2, 0.506046
89, 1, bw, attraction, a-b-da, 5, 1, 7, 21, 60, 135, 135, 60, 132, 58, 2, 1.30712
89, 1, bw, attraction, a-b-da, 5, 1, 7, 21, 60, 135, 135, 60, 132, 58, 1, 0.469316
89, 1, bw, attraction, a-b-da, 14, 3, 7, 22, 181, 111, 195, 120, 120, 195, 2, 3.00045
89, 1, bw, attraction, a-b-da, 14, 3, 7, 22, 181, 111, 195, 120, 120, 195, 1, 0.630775
89, 1, bw, filler, NA, 999, 999, 7, 23, 99, 183, 62, 92, 136, 169, 3, 0.843265
89, 1, bw, filler, NA, 999, 999, 7, 23, 99, 183, 62, 92, 136, 169, 2, 0.544221
89, 1, bw, attraction, a-b-db, 2, 2, 7, 24, 90, 165, 89, 163, 165, 90, 2, 1.71208
89, 1, bw, attraction, a-b-db, 2, 2, 7, 24, 90, 165, 89, 163, 165, 90, 3, 0.578236
89, 1, bw, attraction, a-b-db, 2, 1, 7, 25, 60, 135, 59, 134, 135, 60, 2, 2.80044
89, 1, bw, attraction, a-b-db, 2, 1, 7, 25, 60, 135, 59, 134, 135, 60, 3, 0.423014
89, 1, bw, attraction, a-b-db, 9, 1, 7, 26, 135, 60, 57, 129, 60, 135, 1, 1.46811
89, 1, bw, attraction, a-b-db, 9, 1, 7, 26, 135, 60, 57, 129, 60, 135, 2, 0.504382
89, 1, bw, filler, NA, 999, 999, 7, 27, 118, 132, 193, 161, 73, 86, 2, 0.778071
89, 1, bw, filler, NA, 999, 999, 7, 27, 118, 132, 193, 161, 73, 86, 3, 0.577771
89, 1, bw, attraction, a-b-da, 9, 1, 7, 28, 129, 57, 60, 135, 135, 60, 2, 0.896153
89, 1, bw, attraction, a-b-da, 9, 1, 7, 28, 129, 57, 60, 135, 135, 60, 1, 1.21919
89, 1, bw, attraction, a-b-db, 9, 3, 7, 29, 195, 120, 114, 186, 120, 195, 1, 1.06422
89, 1, bw, attraction, a-b-db, 9, 3, 7, 29, 195, 120, 114, 186, 120, 195, 2, 0.716396
89, 1, bw, filler, NA, 999, 999, 7, 30, 110, 114, 89, 167, 130, 105, 2, 0.989609
89, 1, bw, filler, NA, 999, 999, 7, 30, 110, 114, 89, 167, 130, 105, 1, 0.508471
89, 1, bw, attraction, a-b-db, 14, 1, 7, 31, 60, 135, 56, 125, 135, 60, 3, 0.981692
89, 1, bw, attraction, a-b-db, 14, 1, 7, 31, 60, 135, 56, 125, 135, 60, 1, 0.7412
89, 1, bw, filler, NA, 999, 999, 7, 32, 137, 63, 62, 57, 154, 97, 3, 0.892926
89, 1, bw, filler, NA, 999, 999, 7, 32, 137, 63, 62, 57, 154, 97, 2, 0.472066
89, 1, bw, attraction, a-b-da, 2, 1, 7, 33, 60, 135, 135, 60, 134, 59, 2, 0.88315
89, 1, bw, attraction, a-b-da, 2, 1, 7, 33, 60, 135, 135, 60, 134, 59, 3, 0.454905
89, 1, bw, attraction, a-b-da, 5, 2, 7, 34, 161, 88, 165, 90, 90, 165, 2, 0.898728
89, 1, bw, attraction, a-b-da, 5, 2, 7, 34, 161, 88, 165, 90, 90, 165, 3, 0.43767
89, 1, bw, catch, NA, 999, 999, 7, 35, 78, 117, 151, 104, 172, 143, 2, 2.09027
89, 1, bw, catch, NA, 999, 999, 7, 35, 78, 117, 151, 104, 172, 143, 1, 0.724735
89, 1, bw, attraction, a-b-db, 14, 3, 7, 36, 195, 120, 111, 181, 120, 195, 1, 2.1331
89, 1, bw, attraction, a-b-db, 14, 3, 7, 36, 195, 120, 111, 181, 120, 195, 2, 1.9186
89, 1, bw, attraction, a-b-db, 5, 1, 7, 37, 135, 60, 60, 135, 58, 132, 1, 2.06318
89, 1, bw, attraction, a-b-db, 5, 1, 7, 37, 135, 60, 60, 135, 58, 132, 3, 0.715093
89, 1, bw, filler, NA, 999, 999, 8, 1, 136, 140, 154, 103, 193, 149, 3, 1.13228
89, 1, bw, filler, NA, 999, 999, 8, 1, 136, 140, 154, 103, 193, 149, 1, 12.742
89, 1, bw, attraction, a-b-db, 14, 1, 8, 2, 60, 135, 135, 60, 56, 125, 1, 1.41051
89, 1, bw, attraction, a-b-db, 14, 1, 8, 2, 60, 135, 135, 60, 56, 125, 2, 0.440658
89, 1, bw, attraction, a-b-da, 9, 1, 8, 3, 60, 135, 129, 57, 135, 60, 3, 0.804497
89, 1, bw, attraction, a-b-da, 9, 1, 8, 3, 60, 135, 129, 57, 135, 60, 2, 0.602865
89, 1, bw, attraction, a-b-db, 2, 3, 8, 4, 119, 193, 120, 195, 195, 120, 3, 1.48859
89, 1, bw, attraction, a-b-db, 2, 3, 8, 4, 119, 193, 120, 195, 195, 120, 1, 0.427505
89, 1, bw, filler, NA, 999, 999, 8, 5, 109, 103, 69, 114, 95, 169, 3, 0.983833
89, 1, bw, filler, NA, 999, 999, 8, 5, 109, 103, 69, 114, 95, 169, 2, 0.39963
89, 1, bw, catch, NA, 999, 999, 8, 6, 154, 101, 109, 86, 149, 166, 3, 0.645447
89, 1, bw, catch, NA, 999, 999, 8, 6, 154, 101, 109, 86, 149, 166, 2, 0.386649
89, 1, bw, attraction, a-b-db, 5, 2, 8, 7, 165, 90, 90, 165, 88, 161, 2, 1.03295
89, 1, bw, attraction, a-b-db, 5, 2, 8, 7, 165, 90, 90, 165, 88, 161, 3, 0.446845
89, 1, bw, attraction, a-b-db, 9, 3, 8, 8, 114, 186, 120, 195, 195, 120, 2, 1.01048
89, 1, bw, attraction, a-b-db, 9, 3, 8, 8, 114, 186, 120, 195, 195, 120, 1, 0.72871
89, 1, bw, attraction, a-b-db, 14, 2, 8, 9, 90, 165, 165, 90, 83, 153, 2, 0.873109
89, 1, bw, attraction, a-b-db, 14, 2, 8, 9, 90, 165, 165, 90, 83, 153, 3, 0.716794
89, 1, bw, attraction, a-b-da, 14, 3, 8, 10, 195, 120, 181, 111, 120, 195, 3, 1.17398
89, 1, bw, attraction, a-b-da, 14, 3, 8, 10, 195, 120, 181, 111, 120, 195, 2, 0.381562
89, 1, bw, attraction, a-b-da, 5, 2, 8, 11, 165, 90, 161, 88, 90, 165, 3, 1.05205
89, 1, bw, attraction, a-b-da, 5, 2, 8, 11, 165, 90, 161, 88, 90, 165, 1, 0.720925
89, 1, bw, filler, NA, 999, 999, 8, 12, 188, 161, 113, 162, 161, 74, 1, 1.02614
89, 1, bw, filler, NA, 999, 999, 8, 12, 188, 161, 113, 162, 161, 74, 3, 0.455645
89, 1, bw, filler, NA, 999, 999, 8, 13, 159, 77, 194, 89, 113, 164, 3, 0.851495
89, 1, bw, filler, NA, 999, 999, 8, 13, 159, 77, 194, 89, 113, 164, 1, 0.920448
89, 1, bw, attraction, a-b-db, 2, 2, 8, 14, 89, 163, 165, 90, 90, 165, 3, 1.0015
89, 1, bw, attraction, a-b-db, 2, 2, 8, 14, 89, 163, 165, 90, 90, 165, 2, 0.424498
89, 1, bw, attraction, a-b-da, 14, 2, 8, 15, 153, 83, 90, 165, 165, 90, 1, 0.796994
89, 1, bw, attraction, a-b-da, 14, 2, 8, 15, 153, 83, 90, 165, 165, 90, 2, 0.612012
89, 1, bw, filler, NA, 999, 999, 8, 16, 119, 94, 123, 193, 99, 157, 2, 3.39307
89, 1, bw, filler, NA, 999, 999, 8, 16, 119, 94, 123, 193, 99, 157, 3, 0.359373
89, 1, bw, attraction, a-b-da, 14, 1, 8, 17, 135, 60, 60, 135, 125, 56, 2, 1.05443
89, 1, bw, attraction, a-b-da, 14, 1, 8, 17, 135, 60, 60, 135, 125, 56, 3, 0.347446
89, 1, bw, attraction, a-b-da, 2, 1, 8, 18, 135, 60, 134, 59, 60, 135, 1, 0.651363
89, 1, bw, attraction, a-b-da, 2, 1, 8, 18, 135, 60, 134, 59, 60, 135, 2, 0.752449
89, 1, bw, attraction, a-b-db, 9, 1, 8, 19, 57, 129, 135, 60, 60, 135, 2, 0.712274
89, 1, bw, attraction, a-b-db, 9, 1, 8, 19, 57, 129, 135, 60, 60, 135, 1, 0.346576
89, 1, bw, attraction, a-b-db, 9, 2, 8, 20, 90, 165, 86, 157, 165, 90, 3, 0.498362
89, 1, bw, attraction, a-b-db, 9, 2, 8, 20, 90, 165, 86, 157, 165, 90, 2, 0.509506
89, 1, bw, attraction, a-b-db, 5, 3, 8, 21, 120, 195, 117, 190, 195, 120, 2, 0.742666
89, 1, bw, attraction, a-b-db, 5, 3, 8, 21, 120, 195, 117, 190, 195, 120, 3, 0.399853
89, 1, bw, attraction, a-b-da, 2, 3, 8, 22, 193, 119, 120, 195, 195, 120, 1, 1.45365
89, 1, bw, attraction, a-b-da, 2, 3, 8, 22, 193, 119, 120, 195, 195, 120, 2, 0.562469
89, 1, bw, attraction, a-b-da, 9, 2, 8, 23, 90, 165, 157, 86, 165, 90, 1, 0.761556
89, 1, bw, attraction, a-b-da, 9, 2, 8, 23, 90, 165, 157, 86, 165, 90, 3, 0.569907
89, 1, bw, filler, NA, 999, 999, 8, 24, 119, 155, 70, 160, 107, 189, 3, 1.44099
89, 1, bw, filler, NA, 999, 999, 8, 24, 119, 155, 70, 160, 107, 189, 2, 0.477863
89, 1, bw, filler, NA, 999, 999, 8, 25, 121, 167, 141, 155, 66, 68, 2, 0.504287
89, 1, bw, filler, NA, 999, 999, 8, 25, 121, 167, 141, 155, 66, 68, 3, 0.394741
89, 1, bw, filler, NA, 999, 999, 8, 26, 157, 102, 159, 165, 57, 68, 2, 0.664683
89, 1, bw, filler, NA, 999, 999, 8, 26, 157, 102, 159, 165, 57, 68, 3, 0.477107
89, 1, bw, filler, NA, 999, 999, 8, 27, 177, 68, 66, 78, 103, 145, 3, 1.29559
89, 1, bw, filler, NA, 999, 999, 8, 27, 177, 68, 66, 78, 103, 145, 2, 0.538497
89, 1, bw, attraction, a-b-db, 2, 1, 8, 28, 59, 134, 135, 60, 60, 135, 2, 0.810819
89, 1, bw, attraction, a-b-db, 2, 1, 8, 28, 59, 134, 135, 60, 60, 135, 1, 0.553276
89, 1, bw, catch, NA, 999, 999, 8, 29, 153, 162, 91, 104, 138, 117, 1, 1.60896
89, 1, bw, catch, NA, 999, 999, 8, 29, 153, 162, 91, 104, 138, 117, 2, 0.351233
89, 1, bw, attraction, a-b-db, 5, 1, 8, 30, 60, 135, 135, 60, 58, 132, 2, 2.31092
89, 1, bw, attraction, a-b-db, 5, 1, 8, 30, 60, 135, 135, 60, 58, 132, 3, 0.712864
89, 1, bw, filler, NA, 999, 999, 8, 31, 193, 73, 104, 158, 58, 132, 2, 1.76999
89, 1, bw, filler, NA, 999, 999, 8, 31, 193, 73, 104, 158, 58, 132, 3, 0.650053
89, 1, bw, attraction, a-b-da, 2, 2, 8, 32, 90, 165, 165, 90, 163, 89, 2, 1.27785
89, 1, bw, attraction, a-b-da, 2, 2, 8, 32, 90, 165, 165, 90, 163, 89, 3, 0.817358
89, 1, bw, attraction, a-b-da, 5, 1, 8, 33, 135, 60, 132, 58, 60, 135, 2, 1.07594
89, 1, bw, attraction, a-b-da, 5, 1, 8, 33, 135, 60, 132, 58, 60, 135, 1, 1.04203
89, 1, bw, attraction, a-b-da, 5, 3, 8, 34, 195, 120, 190, 117, 120, 195, 1, 1.29368
89, 1, bw, attraction, a-b-da, 5, 3, 8, 34, 195, 120, 190, 117, 120, 195, 2, 0.624557
89, 1, bw, catch, NA, 999, 999, 8, 35, 102, 153, 62, 133, 171, 144, 3, 0.740851
89, 1, bw, catch, NA, 999, 999, 8, 35, 102, 153, 62, 133, 171, 144, 2, 0.830094
89, 1, bw, attraction, a-b-da, 9, 3, 8, 36, 120, 195, 195, 120, 186, 114, 1, 1.09836
89, 1, bw, attraction, a-b-da, 9, 3, 8, 36, 120, 195, 195, 120, 186, 114, 3, 0.725369
89, 1, bw, attraction, a-b-db, 14, 3, 8, 37, 195, 120, 111, 181, 120, 195, 1, 0.861739
89, 1, bw, attraction, a-b-db, 14, 3, 8, 37, 195, 120, 111, 181, 120, 195, 2, 0.562192
