sub_n, computer_n, bw_cond, effect, set, distance, diag, block_n, trial_n, h1, w1, h2, w2, h3, w3, choice, rt 
85, 1, bw, practice, NA, 999, 999, 0, 1, 185, 56, 124, 161, 98, 115, 2, 6.14219
85, 1, bw, practice, NA, 999, 999, 0, 1, 185, 56, 124, 161, 98, 115, 3, 6.80712
85, 1, bw, practice, NA, 999, 999, 0, 2, 96, 153, 85, 133, 156, 117, 3, 3.66954
85, 1, bw, practice, NA, 999, 999, 0, 2, 96, 153, 85, 133, 156, 117, 2, 1.15405
85, 1, bw, practice, NA, 999, 999, 0, 3, 168, 127, 111, 71, 110, 156, 1, 2.36915
85, 1, bw, practice, NA, 999, 999, 0, 3, 168, 127, 111, 71, 110, 156, 2, 1.15954
85, 1, bw, attraction, a-b-db, 5, 1, 1, 1, 58, 132, 60, 135, 135, 60, 2, 4.30162
85, 1, bw, attraction, a-b-db, 5, 1, 1, 1, 58, 132, 60, 135, 135, 60, 3, 0.823691
85, 1, bw, attraction, a-b-da, 5, 1, 1, 2, 135, 60, 60, 135, 132, 58, 2, 5.37992
85, 1, bw, attraction, a-b-da, 5, 1, 1, 2, 135, 60, 60, 135, 132, 58, 1, 1.25812
85, 1, bw, attraction, a-b-db, 14, 3, 1, 3, 111, 181, 120, 195, 195, 120, 2, 3.34908
85, 1, bw, attraction, a-b-db, 14, 3, 1, 3, 111, 181, 120, 195, 195, 120, 1, 0.485287
85, 1, bw, attraction, a-b-da, 2, 1, 1, 4, 135, 60, 60, 135, 134, 59, 2, 6.00772
85, 1, bw, attraction, a-b-da, 2, 1, 1, 4, 135, 60, 60, 135, 134, 59, 3, 0.444617
85, 1, bw, attraction, a-b-da, 5, 3, 1, 5, 195, 120, 120, 195, 190, 117, 1, 4.11246
85, 1, bw, attraction, a-b-da, 5, 3, 1, 5, 195, 120, 120, 195, 190, 117, 3, 0.489705
85, 1, bw, filler, NA, 999, 999, 1, 6, 153, 186, 163, 78, 103, 191, 1, 1.78035
85, 1, bw, filler, NA, 999, 999, 1, 6, 153, 186, 163, 78, 103, 191, 2, 1.69162
85, 1, bw, catch, NA, 999, 999, 1, 7, 178, 137, 118, 77, 140, 115, 1, 1.25294
85, 1, bw, catch, NA, 999, 999, 1, 7, 178, 137, 118, 77, 140, 115, 2, 1.25
85, 1, bw, attraction, a-b-db, 9, 3, 1, 8, 120, 195, 195, 120, 114, 186, 2, 1.72551
85, 1, bw, attraction, a-b-db, 9, 3, 1, 8, 120, 195, 195, 120, 114, 186, 3, 0.782865
85, 1, bw, attraction, a-b-db, 14, 2, 1, 9, 90, 165, 83, 153, 165, 90, 3, 2.0852
85, 1, bw, attraction, a-b-db, 14, 2, 1, 9, 90, 165, 83, 153, 165, 90, 2, 1.06459
85, 1, bw, filler, NA, 999, 999, 1, 10, 193, 87, 73, 66, 150, 73, 1, 1.10756
85, 1, bw, filler, NA, 999, 999, 1, 10, 193, 87, 73, 66, 150, 73, 2, 0.898316
85, 1, bw, catch, NA, 999, 999, 1, 11, 125, 130, 81, 114, 180, 135, 3, 0.871612
85, 1, bw, catch, NA, 999, 999, 1, 11, 125, 130, 81, 114, 180, 135, 2, 0.827218
85, 1, bw, attraction, a-b-db, 9, 1, 1, 12, 135, 60, 60, 135, 57, 129, 2, 5.63164
85, 1, bw, attraction, a-b-db, 9, 1, 1, 12, 135, 60, 60, 135, 57, 129, 3, 0.539774
85, 1, bw, filler, NA, 999, 999, 1, 13, 190, 97, 64, 92, 164, 118, 3, 3.21221
85, 1, bw, filler, NA, 999, 999, 1, 13, 190, 97, 64, 92, 164, 118, 2, 0.737858
85, 1, bw, attraction, a-b-da, 14, 3, 1, 14, 181, 111, 195, 120, 120, 195, 2, 2.09821
85, 1, bw, attraction, a-b-da, 14, 3, 1, 14, 181, 111, 195, 120, 120, 195, 1, 0.524968
85, 1, bw, attraction, a-b-db, 9, 2, 1, 15, 86, 157, 165, 90, 90, 165, 3, 2.78144
85, 1, bw, attraction, a-b-db, 9, 2, 1, 15, 86, 157, 165, 90, 90, 165, 1, 0.580449
85, 1, bw, attraction, a-b-da, 9, 1, 1, 16, 129, 57, 135, 60, 60, 135, 2, 2.94687
85, 1, bw, attraction, a-b-da, 9, 1, 1, 16, 129, 57, 135, 60, 60, 135, 1, 0.419244
85, 1, bw, attraction, a-b-db, 2, 2, 1, 17, 165, 90, 90, 165, 89, 163, 2, 5.56833
85, 1, bw, attraction, a-b-db, 2, 2, 1, 17, 165, 90, 90, 165, 89, 163, 1, 1.22333
85, 1, bw, filler, NA, 999, 999, 1, 18, 122, 73, 72, 106, 155, 77, 3, 1.78021
85, 1, bw, filler, NA, 999, 999, 1, 18, 122, 73, 72, 106, 155, 77, 2, 2.89163
85, 1, bw, filler, NA, 999, 999, 1, 19, 128, 136, 178, 175, 80, 178, 2, 0.732555
85, 1, bw, filler, NA, 999, 999, 1, 19, 128, 136, 178, 175, 80, 178, 3, 1.52642
85, 1, bw, attraction, a-b-da, 14, 1, 1, 20, 135, 60, 60, 135, 125, 56, 1, 3.79859
85, 1, bw, attraction, a-b-da, 14, 1, 1, 20, 135, 60, 60, 135, 125, 56, 3, 0.796739
85, 1, bw, attraction, a-b-db, 14, 1, 1, 21, 56, 125, 135, 60, 60, 135, 3, 5.07433
85, 1, bw, attraction, a-b-db, 14, 1, 1, 21, 56, 125, 135, 60, 60, 135, 1, 0.86875
85, 1, bw, attraction, a-b-da, 2, 3, 1, 22, 193, 119, 195, 120, 120, 195, 3, 2.23174
85, 1, bw, attraction, a-b-da, 2, 3, 1, 22, 193, 119, 195, 120, 120, 195, 1, 0.933023
85, 1, bw, filler, NA, 999, 999, 1, 23, 56, 195, 131, 76, 189, 123, 3, 0.733229
85, 1, bw, filler, NA, 999, 999, 1, 23, 56, 195, 131, 76, 189, 123, 2, 1.80712
85, 1, bw, attraction, a-b-da, 5, 2, 1, 24, 161, 88, 165, 90, 90, 165, 2, 3.4517
85, 1, bw, attraction, a-b-da, 5, 2, 1, 24, 161, 88, 165, 90, 90, 165, 1, 0.328087
85, 1, bw, attraction, a-b-da, 2, 2, 1, 25, 165, 90, 90, 165, 163, 89, 2, 1.82442
85, 1, bw, attraction, a-b-da, 2, 2, 1, 25, 165, 90, 90, 165, 163, 89, 1, 1.11787
85, 1, bw, attraction, a-b-da, 9, 2, 1, 26, 165, 90, 90, 165, 157, 86, 2, 1.50284
85, 1, bw, attraction, a-b-da, 9, 2, 1, 26, 165, 90, 90, 165, 157, 86, 1, 0.433715
85, 1, bw, filler, NA, 999, 999, 1, 27, 56, 176, 161, 76, 190, 122, 3, 1.05419
85, 1, bw, filler, NA, 999, 999, 1, 27, 56, 176, 161, 76, 190, 122, 1, 0.651149
85, 1, bw, attraction, a-b-db, 2, 3, 1, 28, 195, 120, 119, 193, 120, 195, 3, 4.63079
85, 1, bw, attraction, a-b-db, 2, 3, 1, 28, 195, 120, 119, 193, 120, 195, 1, 0.955416
85, 1, bw, attraction, a-b-db, 5, 2, 1, 29, 88, 161, 165, 90, 90, 165, 3, 1.27508
85, 1, bw, attraction, a-b-db, 5, 2, 1, 29, 88, 161, 165, 90, 90, 165, 1, 0.422589
85, 1, bw, attraction, a-b-db, 5, 3, 1, 30, 195, 120, 120, 195, 117, 190, 2, 11.3398
85, 1, bw, attraction, a-b-db, 5, 3, 1, 30, 195, 120, 120, 195, 117, 190, 3, 1.13818
85, 1, bw, catch, NA, 999, 999, 1, 31, 155, 160, 132, 123, 131, 64, 1, 0.602417
85, 1, bw, catch, NA, 999, 999, 1, 31, 155, 160, 132, 123, 131, 64, 3, 0.897579
85, 1, bw, attraction, a-b-da, 14, 2, 1, 32, 165, 90, 153, 83, 90, 165, 3, 1.61124
85, 1, bw, attraction, a-b-da, 14, 2, 1, 32, 165, 90, 153, 83, 90, 165, 2, 0.63337
85, 1, bw, filler, NA, 999, 999, 1, 33, 63, 119, 65, 91, 187, 183, 3, 0.53371
85, 1, bw, filler, NA, 999, 999, 1, 33, 63, 119, 65, 91, 187, 183, 2, 0.919616
85, 1, bw, filler, NA, 999, 999, 1, 34, 191, 154, 175, 97, 166, 188, 3, 5.09658
85, 1, bw, filler, NA, 999, 999, 1, 34, 191, 154, 175, 97, 166, 188, 2, 0.874348
85, 1, bw, filler, NA, 999, 999, 1, 35, 168, 189, 98, 98, 122, 127, 1, 0.884503
85, 1, bw, filler, NA, 999, 999, 1, 35, 168, 189, 98, 98, 122, 127, 2, 0.568235
85, 1, bw, attraction, a-b-da, 9, 3, 1, 36, 120, 195, 195, 120, 186, 114, 1, 16.8473
85, 1, bw, attraction, a-b-da, 9, 3, 1, 36, 120, 195, 195, 120, 186, 114, 3, 0.823407
85, 1, bw, attraction, a-b-db, 2, 1, 1, 37, 60, 135, 59, 134, 135, 60, 2, 4.69976
85, 1, bw, attraction, a-b-db, 2, 1, 1, 37, 60, 135, 59, 134, 135, 60, 3, 0.549633
85, 1, bw, attraction, a-b-da, 5, 1, 2, 1, 132, 58, 135, 60, 60, 135, 3, 1.73339
85, 1, bw, attraction, a-b-da, 5, 1, 2, 1, 132, 58, 135, 60, 60, 135, 1, 0.774764
85, 1, bw, filler, NA, 999, 999, 2, 2, 135, 66, 114, 57, 182, 71, 3, 0.717238
85, 1, bw, filler, NA, 999, 999, 2, 2, 135, 66, 114, 57, 182, 71, 2, 0.911628
85, 1, bw, filler, NA, 999, 999, 2, 3, 163, 96, 95, 193, 115, 73, 2, 4.76068
85, 1, bw, filler, NA, 999, 999, 2, 3, 163, 96, 95, 193, 115, 73, 3, 0.871762
85, 1, bw, catch, NA, 999, 999, 2, 4, 159, 96, 74, 121, 146, 169, 3, 1.08278
85, 1, bw, catch, NA, 999, 999, 2, 4, 159, 96, 74, 121, 146, 169, 2, 0.638412
85, 1, bw, attraction, a-b-da, 5, 2, 2, 5, 161, 88, 90, 165, 165, 90, 2, 2.45082
85, 1, bw, attraction, a-b-da, 5, 2, 2, 5, 161, 88, 90, 165, 165, 90, 1, 0.37534
85, 1, bw, filler, NA, 999, 999, 2, 6, 57, 124, 141, 57, 92, 113, 3, 0.941761
85, 1, bw, filler, NA, 999, 999, 2, 6, 57, 124, 141, 57, 92, 113, 1, 0.622861
85, 1, bw, attraction, a-b-db, 5, 1, 2, 7, 58, 132, 60, 135, 135, 60, 2, 2.62786
85, 1, bw, attraction, a-b-db, 5, 1, 2, 7, 58, 132, 60, 135, 135, 60, 1, 0.521132
85, 1, bw, filler, NA, 999, 999, 2, 8, 159, 164, 56, 153, 125, 172, 1, 1.20226
85, 1, bw, filler, NA, 999, 999, 2, 8, 159, 164, 56, 153, 125, 172, 2, 0.649114
85, 1, bw, attraction, a-b-db, 14, 3, 2, 9, 195, 120, 111, 181, 120, 195, 1, 4.6048
85, 1, bw, attraction, a-b-db, 14, 3, 2, 9, 195, 120, 111, 181, 120, 195, 2, 0.386698
85, 1, bw, attraction, a-b-da, 2, 3, 2, 10, 195, 120, 120, 195, 193, 119, 1, 2.79335
85, 1, bw, attraction, a-b-da, 2, 3, 2, 10, 195, 120, 120, 195, 193, 119, 3, 0.687699
85, 1, bw, attraction, a-b-da, 14, 2, 2, 11, 153, 83, 165, 90, 90, 165, 3, 3.21
85, 1, bw, attraction, a-b-da, 14, 2, 2, 11, 153, 83, 165, 90, 90, 165, 1, 0.68767
85, 1, bw, catch, NA, 999, 999, 2, 12, 125, 190, 92, 103, 150, 105, 1, 1.08201
85, 1, bw, catch, NA, 999, 999, 2, 12, 125, 190, 92, 103, 150, 105, 2, 1.08575
85, 1, bw, filler, NA, 999, 999, 2, 13, 97, 85, 155, 109, 82, 125, 2, 0.863983
85, 1, bw, filler, NA, 999, 999, 2, 13, 97, 85, 155, 109, 82, 125, 1, 0.604453
85, 1, bw, catch, NA, 999, 999, 2, 14, 135, 60, 104, 151, 155, 160, 3, 0.786043
85, 1, bw, catch, NA, 999, 999, 2, 14, 135, 60, 104, 151, 155, 160, 1, 0.809935
85, 1, bw, attraction, a-b-da, 9, 2, 2, 15, 157, 86, 165, 90, 90, 165, 2, 3.0309
85, 1, bw, attraction, a-b-da, 9, 2, 2, 15, 157, 86, 165, 90, 90, 165, 1, 0.459877
85, 1, bw, attraction, a-b-da, 14, 1, 2, 16, 125, 56, 60, 135, 135, 60, 2, 4.23917
85, 1, bw, attraction, a-b-da, 14, 1, 2, 16, 125, 56, 60, 135, 135, 60, 1, 0.530977
85, 1, bw, attraction, a-b-da, 2, 2, 2, 17, 165, 90, 163, 89, 90, 165, 3, 2.69939
85, 1, bw, attraction, a-b-da, 2, 2, 2, 17, 165, 90, 163, 89, 90, 165, 2, 0.781927
85, 1, bw, attraction, a-b-db, 2, 3, 2, 18, 195, 120, 120, 195, 119, 193, 2, 1.70032
85, 1, bw, attraction, a-b-db, 2, 3, 2, 18, 195, 120, 120, 195, 119, 193, 1, 0.439029
85, 1, bw, attraction, a-b-da, 2, 1, 2, 19, 134, 59, 135, 60, 60, 135, 3, 2.61954
85, 1, bw, attraction, a-b-da, 2, 1, 2, 19, 134, 59, 135, 60, 60, 135, 1, 0.761357
85, 1, bw, attraction, a-b-db, 5, 3, 2, 20, 195, 120, 117, 190, 120, 195, 2, 4.6004
85, 1, bw, attraction, a-b-db, 5, 3, 2, 20, 195, 120, 117, 190, 120, 195, 1, 0.462246
85, 1, bw, attraction, a-b-da, 9, 3, 2, 21, 186, 114, 195, 120, 120, 195, 2, 0.937358
85, 1, bw, attraction, a-b-da, 9, 3, 2, 21, 186, 114, 195, 120, 120, 195, 1, 0.61921
85, 1, bw, attraction, a-b-db, 14, 2, 2, 22, 90, 165, 83, 153, 165, 90, 1, 2.25624
85, 1, bw, attraction, a-b-db, 14, 2, 2, 22, 90, 165, 83, 153, 165, 90, 2, 0.380007
85, 1, bw, filler, NA, 999, 999, 2, 23, 137, 94, 124, 59, 62, 75, 1, 0.81866
85, 1, bw, filler, NA, 999, 999, 2, 23, 137, 94, 124, 59, 62, 75, 3, 0.408945
85, 1, bw, filler, NA, 999, 999, 2, 24, 60, 116, 140, 154, 174, 186, 3, 0.662097
85, 1, bw, filler, NA, 999, 999, 2, 24, 60, 116, 140, 154, 174, 186, 1, 0.354521
85, 1, bw, attraction, a-b-db, 2, 1, 2, 25, 135, 60, 59, 134, 60, 135, 1, 2.03439
85, 1, bw, attraction, a-b-db, 2, 1, 2, 25, 135, 60, 59, 134, 60, 135, 3, 0.335722
85, 1, bw, attraction, a-b-da, 5, 3, 2, 26, 190, 117, 195, 120, 120, 195, 2, 1.80824
85, 1, bw, attraction, a-b-da, 5, 3, 2, 26, 190, 117, 195, 120, 120, 195, 1, 0.318293
85, 1, bw, attraction, a-b-db, 9, 2, 2, 27, 86, 157, 165, 90, 90, 165, 3, 1.89555
85, 1, bw, attraction, a-b-db, 9, 2, 2, 27, 86, 157, 165, 90, 90, 165, 1, 1.38618
85, 1, bw, attraction, a-b-db, 14, 1, 2, 28, 60, 135, 56, 125, 135, 60, 3, 4.76043
85, 1, bw, attraction, a-b-db, 14, 1, 2, 28, 60, 135, 56, 125, 135, 60, 2, 0.799513
85, 1, bw, attraction, a-b-db, 9, 1, 2, 29, 135, 60, 60, 135, 57, 129, 2, 2.95727
85, 1, bw, attraction, a-b-db, 9, 1, 2, 29, 135, 60, 60, 135, 57, 129, 3, 0.316839
85, 1, bw, filler, NA, 999, 999, 2, 30, 125, 97, 175, 68, 169, 171, 3, 1.27814
85, 1, bw, filler, NA, 999, 999, 2, 30, 125, 97, 175, 68, 169, 171, 1, 2.92161
85, 1, bw, attraction, a-b-db, 2, 2, 2, 31, 89, 163, 165, 90, 90, 165, 3, 1.16203
85, 1, bw, attraction, a-b-db, 2, 2, 2, 31, 89, 163, 165, 90, 90, 165, 1, 0.5943
85, 1, bw, attraction, a-b-db, 5, 2, 2, 32, 88, 161, 165, 90, 90, 165, 2, 3.92818
85, 1, bw, attraction, a-b-db, 5, 2, 2, 32, 88, 161, 165, 90, 90, 165, 1, 0.664909
85, 1, bw, filler, NA, 999, 999, 2, 33, 174, 135, 157, 69, 152, 142, 1, 1.00388
85, 1, bw, filler, NA, 999, 999, 2, 33, 174, 135, 157, 69, 152, 142, 2, 1.7382
85, 1, bw, attraction, a-b-da, 9, 1, 2, 34, 60, 135, 129, 57, 135, 60, 3, 1.24233
85, 1, bw, attraction, a-b-da, 9, 1, 2, 34, 60, 135, 129, 57, 135, 60, 1, 0.479302
85, 1, bw, filler, NA, 999, 999, 2, 35, 88, 142, 180, 59, 74, 103, 1, 1.88172
85, 1, bw, filler, NA, 999, 999, 2, 35, 88, 142, 180, 59, 74, 103, 3, 0.893176
85, 1, bw, attraction, a-b-db, 9, 3, 2, 36, 120, 195, 195, 120, 114, 186, 1, 2.62264
85, 1, bw, attraction, a-b-db, 9, 3, 2, 36, 120, 195, 195, 120, 114, 186, 3, 0.348275
85, 1, bw, attraction, a-b-da, 14, 3, 2, 37, 181, 111, 195, 120, 120, 195, 2, 2.07563
85, 1, bw, attraction, a-b-da, 14, 3, 2, 37, 181, 111, 195, 120, 120, 195, 1, 0.415085
85, 1, bw, attraction, a-b-db, 2, 2, 3, 1, 165, 90, 89, 163, 90, 165, 2, 2.9401
85, 1, bw, attraction, a-b-db, 2, 2, 3, 1, 165, 90, 89, 163, 90, 165, 3, 1.14054
85, 1, bw, attraction, a-b-db, 2, 1, 3, 2, 135, 60, 60, 135, 59, 134, 2, 3.2842
85, 1, bw, attraction, a-b-db, 2, 1, 3, 2, 135, 60, 60, 135, 59, 134, 3, 0.695082
85, 1, bw, filler, NA, 999, 999, 3, 3, 111, 180, 156, 142, 72, 184, 2, 1.84872
85, 1, bw, filler, NA, 999, 999, 3, 3, 111, 180, 156, 142, 72, 184, 3, 0.317559
85, 1, bw, filler, NA, 999, 999, 3, 4, 112, 121, 82, 127, 108, 150, 3, 1.1829
85, 1, bw, filler, NA, 999, 999, 3, 4, 112, 121, 82, 127, 108, 150, 2, 0.35032
85, 1, bw, attraction, a-b-db, 5, 2, 3, 5, 165, 90, 90, 165, 88, 161, 1, 2.2141
85, 1, bw, attraction, a-b-db, 5, 2, 3, 5, 165, 90, 90, 165, 88, 161, 3, 0.564033
85, 1, bw, filler, NA, 999, 999, 3, 6, 148, 100, 173, 110, 169, 134, 3, 1.70732
85, 1, bw, filler, NA, 999, 999, 3, 6, 148, 100, 173, 110, 169, 134, 1, 0.533404
85, 1, bw, catch, NA, 999, 999, 3, 7, 147, 108, 108, 87, 142, 173, 3, 0.621759
85, 1, bw, catch, NA, 999, 999, 3, 7, 147, 108, 108, 87, 142, 173, 2, 0.491494
85, 1, bw, attraction, a-b-da, 9, 3, 3, 8, 195, 120, 120, 195, 186, 114, 2, 1.38927
85, 1, bw, attraction, a-b-da, 9, 3, 3, 8, 195, 120, 120, 195, 186, 114, 3, 0.572246
85, 1, bw, filler, NA, 999, 999, 3, 9, 109, 77, 66, 75, 70, 78, 1, 1.76325
85, 1, bw, filler, NA, 999, 999, 3, 9, 109, 77, 66, 75, 70, 78, 2, 0.523277
85, 1, bw, attraction, a-b-db, 9, 3, 3, 10, 120, 195, 114, 186, 195, 120, 2, 2.30051
85, 1, bw, attraction, a-b-db, 9, 3, 3, 10, 120, 195, 114, 186, 195, 120, 3, 0.559066
85, 1, bw, filler, NA, 999, 999, 3, 11, 117, 72, 167, 69, 59, 136, 2, 2.7101
85, 1, bw, filler, NA, 999, 999, 3, 11, 117, 72, 167, 69, 59, 136, 1, 0.296095
85, 1, bw, attraction, a-b-da, 14, 3, 3, 12, 181, 111, 120, 195, 195, 120, 3, 1.3138
85, 1, bw, attraction, a-b-da, 14, 3, 3, 12, 181, 111, 120, 195, 195, 120, 1, 0.427964
85, 1, bw, filler, NA, 999, 999, 3, 13, 181, 174, 103, 155, 142, 128, 1, 0.648444
85, 1, bw, filler, NA, 999, 999, 3, 13, 181, 174, 103, 155, 142, 128, 2, 1.06964
85, 1, bw, attraction, a-b-db, 2, 3, 3, 14, 195, 120, 119, 193, 120, 195, 3, 5.40049
85, 1, bw, attraction, a-b-db, 2, 3, 3, 14, 195, 120, 119, 193, 120, 195, 1, 0.774186
85, 1, bw, catch, NA, 999, 999, 3, 15, 184, 131, 110, 85, 157, 98, 1, 0.812616
85, 1, bw, catch, NA, 999, 999, 3, 15, 184, 131, 110, 85, 157, 98, 2, 0.522905
85, 1, bw, attraction, a-b-db, 5, 1, 3, 16, 135, 60, 60, 135, 58, 132, 2, 2.16411
85, 1, bw, attraction, a-b-db, 5, 1, 3, 16, 135, 60, 60, 135, 58, 132, 1, 0.515897
85, 1, bw, attraction, a-b-db, 14, 2, 3, 17, 165, 90, 83, 153, 90, 165, 1, 2.14914
85, 1, bw, attraction, a-b-db, 14, 2, 3, 17, 165, 90, 83, 153, 90, 165, 2, 0.477647
85, 1, bw, catch, NA, 999, 999, 3, 18, 150, 105, 122, 73, 181, 134, 3, 0.888235
85, 1, bw, catch, NA, 999, 999, 3, 18, 150, 105, 122, 73, 181, 134, 2, 0.707186
85, 1, bw, filler, NA, 999, 999, 3, 19, 107, 91, 84, 81, 176, 108, 3, 0.932265
85, 1, bw, filler, NA, 999, 999, 3, 19, 107, 91, 84, 81, 176, 108, 2, 0.510159
85, 1, bw, attraction, a-b-db, 9, 2, 3, 20, 86, 157, 90, 165, 165, 90, 2, 2.40702
85, 1, bw, attraction, a-b-db, 9, 2, 3, 20, 86, 157, 90, 165, 165, 90, 1, 0.493063
85, 1, bw, attraction, a-b-db, 9, 1, 3, 21, 57, 129, 135, 60, 60, 135, 3, 1.51079
85, 1, bw, attraction, a-b-db, 9, 1, 3, 21, 57, 129, 135, 60, 60, 135, 1, 0.680998
85, 1, bw, attraction, a-b-db, 14, 1, 3, 22, 135, 60, 56, 125, 60, 135, 1, 3.85129
85, 1, bw, attraction, a-b-db, 14, 1, 3, 22, 135, 60, 56, 125, 60, 135, 2, 0.367483
85, 1, bw, attraction, a-b-da, 5, 2, 3, 23, 165, 90, 90, 165, 161, 88, 2, 4.53464
85, 1, bw, attraction, a-b-da, 5, 2, 3, 23, 165, 90, 90, 165, 161, 88, 1, 0.671255
85, 1, bw, attraction, a-b-db, 5, 3, 3, 24, 195, 120, 120, 195, 117, 190, 2, 2.03417
85, 1, bw, attraction, a-b-db, 5, 3, 3, 24, 195, 120, 120, 195, 117, 190, 3, 0.535641
85, 1, bw, attraction, a-b-da, 2, 3, 3, 25, 195, 120, 193, 119, 120, 195, 3, 2.12787
85, 1, bw, attraction, a-b-da, 2, 3, 3, 25, 195, 120, 193, 119, 120, 195, 2, 0.521266
85, 1, bw, filler, NA, 999, 999, 3, 26, 161, 139, 109, 119, 123, 157, 1, 0.626391
85, 1, bw, filler, NA, 999, 999, 3, 26, 161, 139, 109, 119, 123, 157, 2, 0.440116
85, 1, bw, attraction, a-b-da, 2, 1, 3, 27, 135, 60, 134, 59, 60, 135, 2, 1.54789
85, 1, bw, attraction, a-b-da, 2, 1, 3, 27, 135, 60, 134, 59, 60, 135, 1, 0.468803
85, 1, bw, attraction, a-b-da, 14, 2, 3, 28, 165, 90, 90, 165, 153, 83, 1, 2.83989
85, 1, bw, attraction, a-b-da, 14, 2, 3, 28, 165, 90, 90, 165, 153, 83, 3, 0.572336
85, 1, bw, attraction, a-b-da, 9, 2, 3, 29, 157, 86, 165, 90, 90, 165, 3, 2.00345
85, 1, bw, attraction, a-b-da, 9, 2, 3, 29, 157, 86, 165, 90, 90, 165, 1, 0.354069
85, 1, bw, attraction, a-b-da, 5, 1, 3, 30, 132, 58, 60, 135, 135, 60, 3, 2.1299
85, 1, bw, attraction, a-b-da, 5, 1, 3, 30, 132, 58, 60, 135, 135, 60, 1, 0.603199
85, 1, bw, attraction, a-b-da, 9, 1, 3, 31, 135, 60, 60, 135, 129, 57, 1, 10.8329
85, 1, bw, attraction, a-b-da, 9, 1, 3, 31, 135, 60, 60, 135, 129, 57, 3, 0.699621
85, 1, bw, attraction, a-b-da, 5, 3, 3, 32, 195, 120, 120, 195, 190, 117, 2, 3.31736
85, 1, bw, attraction, a-b-da, 5, 3, 3, 32, 195, 120, 120, 195, 190, 117, 3, 0.271027
85, 1, bw, attraction, a-b-db, 14, 3, 3, 33, 195, 120, 111, 181, 120, 195, 3, 5.07419
85, 1, bw, attraction, a-b-db, 14, 3, 3, 33, 195, 120, 111, 181, 120, 195, 2, 0.524539
85, 1, bw, filler, NA, 999, 999, 3, 34, 136, 164, 92, 91, 92, 67, 1, 0.700932
85, 1, bw, filler, NA, 999, 999, 3, 34, 136, 164, 92, 91, 92, 67, 3, 0.744045
85, 1, bw, attraction, a-b-da, 2, 2, 3, 35, 90, 165, 163, 89, 165, 90, 3, 0.791804
85, 1, bw, attraction, a-b-da, 2, 2, 3, 35, 90, 165, 163, 89, 165, 90, 1, 0.446902
85, 1, bw, filler, NA, 999, 999, 3, 36, 86, 188, 136, 164, 65, 186, 2, 0.842738
85, 1, bw, filler, NA, 999, 999, 3, 36, 86, 188, 136, 164, 65, 186, 3, 0.743714
85, 1, bw, attraction, a-b-da, 14, 1, 3, 37, 135, 60, 125, 56, 60, 135, 1, 6.49534
85, 1, bw, attraction, a-b-da, 14, 1, 3, 37, 135, 60, 125, 56, 60, 135, 2, 0.392651
85, 1, bw, filler, NA, 999, 999, 4, 1, 92, 98, 80, 166, 74, 78, 2, 2.35036
85, 1, bw, filler, NA, 999, 999, 4, 1, 92, 98, 80, 166, 74, 78, 3, 0.447049
85, 1, bw, catch, NA, 999, 999, 4, 2, 90, 105, 103, 152, 168, 147, 3, 0.746931
85, 1, bw, catch, NA, 999, 999, 4, 2, 90, 105, 103, 152, 168, 147, 1, 0.627817
85, 1, bw, attraction, a-b-db, 9, 2, 4, 3, 90, 165, 165, 90, 86, 157, 1, 3.8723
85, 1, bw, attraction, a-b-db, 9, 2, 4, 3, 90, 165, 165, 90, 86, 157, 3, 0.315165
85, 1, bw, attraction, a-b-db, 2, 3, 4, 4, 195, 120, 120, 195, 119, 193, 2, 2.6683
85, 1, bw, attraction, a-b-db, 2, 3, 4, 4, 195, 120, 120, 195, 119, 193, 1, 0.432012
85, 1, bw, attraction, a-b-db, 5, 2, 4, 5, 88, 161, 90, 165, 165, 90, 2, 3.19664
85, 1, bw, attraction, a-b-db, 5, 2, 4, 5, 88, 161, 90, 165, 165, 90, 3, 1.35485
85, 1, bw, filler, NA, 999, 999, 4, 6, 152, 137, 82, 147, 109, 184, 1, 1.60237
85, 1, bw, filler, NA, 999, 999, 4, 6, 152, 137, 82, 147, 109, 184, 2, 0.489173
85, 1, bw, attraction, a-b-da, 5, 1, 4, 7, 60, 135, 135, 60, 132, 58, 1, 0.875584
85, 1, bw, attraction, a-b-da, 5, 1, 4, 7, 60, 135, 135, 60, 132, 58, 3, 5.07134
85, 1, bw, attraction, a-b-da, 14, 1, 4, 8, 125, 56, 135, 60, 60, 135, 3, 4.71294
85, 1, bw, attraction, a-b-da, 14, 1, 4, 8, 125, 56, 135, 60, 60, 135, 1, 0.49017
85, 1, bw, catch, NA, 999, 999, 4, 9, 95, 160, 166, 149, 135, 60, 2, 2.03589
85, 1, bw, catch, NA, 999, 999, 4, 9, 95, 160, 166, 149, 135, 60, 3, 1.41725
85, 1, bw, filler, NA, 999, 999, 4, 10, 155, 179, 160, 81, 178, 139, 1, 1.45411
85, 1, bw, filler, NA, 999, 999, 4, 10, 155, 179, 160, 81, 178, 139, 2, 0.578295
85, 1, bw, attraction, a-b-da, 2, 3, 4, 11, 193, 119, 120, 195, 195, 120, 2, 5.92893
85, 1, bw, attraction, a-b-da, 2, 3, 4, 11, 193, 119, 120, 195, 195, 120, 3, 0.536927
85, 1, bw, attraction, a-b-db, 14, 2, 4, 12, 90, 165, 165, 90, 83, 153, 1, 6.37723
85, 1, bw, attraction, a-b-db, 14, 2, 4, 12, 90, 165, 165, 90, 83, 153, 3, 0.399362
85, 1, bw, attraction, a-b-da, 14, 3, 4, 13, 181, 111, 195, 120, 120, 195, 3, 3.63716
85, 1, bw, attraction, a-b-da, 14, 3, 4, 13, 181, 111, 195, 120, 120, 195, 1, 0.61795
85, 1, bw, filler, NA, 999, 999, 4, 14, 113, 72, 126, 133, 101, 178, 2, 2.28707
85, 1, bw, filler, NA, 999, 999, 4, 14, 113, 72, 126, 133, 101, 178, 1, 0.642284
85, 1, bw, attraction, a-b-da, 2, 2, 4, 15, 163, 89, 165, 90, 90, 165, 3, 1.35003
85, 1, bw, attraction, a-b-da, 2, 2, 4, 15, 163, 89, 165, 90, 90, 165, 1, 0.550934
85, 1, bw, attraction, a-b-da, 2, 1, 4, 16, 135, 60, 60, 135, 134, 59, 3, 2.19865
85, 1, bw, attraction, a-b-da, 2, 1, 4, 16, 135, 60, 60, 135, 134, 59, 2, 0.501463
85, 1, bw, filler, NA, 999, 999, 4, 17, 178, 147, 101, 85, 128, 103, 1, 0.519095
85, 1, bw, filler, NA, 999, 999, 4, 17, 178, 147, 101, 85, 128, 103, 2, 0.401639
85, 1, bw, filler, NA, 999, 999, 4, 18, 105, 179, 175, 61, 68, 135, 1, 0.719457
85, 1, bw, filler, NA, 999, 999, 4, 18, 105, 179, 175, 61, 68, 135, 3, 0.697845
85, 1, bw, attraction, a-b-db, 5, 3, 4, 19, 117, 190, 195, 120, 120, 195, 3, 1.57151
85, 1, bw, attraction, a-b-db, 5, 3, 4, 19, 117, 190, 195, 120, 120, 195, 1, 0.506984
85, 1, bw, attraction, a-b-da, 9, 1, 4, 20, 129, 57, 60, 135, 135, 60, 3, 1.38818
85, 1, bw, attraction, a-b-da, 9, 1, 4, 20, 129, 57, 60, 135, 135, 60, 2, 1.08369
85, 1, bw, attraction, a-b-db, 9, 1, 4, 21, 135, 60, 60, 135, 57, 129, 1, 0.902037
85, 1, bw, attraction, a-b-db, 9, 1, 4, 21, 135, 60, 60, 135, 57, 129, 2, 0.48092
85, 1, bw, attraction, a-b-db, 14, 3, 4, 22, 195, 120, 120, 195, 111, 181, 1, 2.12342
85, 1, bw, attraction, a-b-db, 14, 3, 4, 22, 195, 120, 120, 195, 111, 181, 3, 0.484703
85, 1, bw, attraction, a-b-db, 2, 2, 4, 23, 89, 163, 165, 90, 90, 165, 3, 2.01521
85, 1, bw, attraction, a-b-db, 2, 2, 4, 23, 89, 163, 165, 90, 90, 165, 1, 0.677179
85, 1, bw, filler, NA, 999, 999, 4, 24, 98, 150, 135, 99, 181, 151, 3, 0.711606
85, 1, bw, filler, NA, 999, 999, 4, 24, 98, 150, 135, 99, 181, 151, 2, 0.994069
85, 1, bw, attraction, a-b-db, 2, 1, 4, 25, 60, 135, 59, 134, 135, 60, 3, 9.60784
85, 1, bw, attraction, a-b-db, 2, 1, 4, 25, 60, 135, 59, 134, 135, 60, 2, 0.763289
85, 1, bw, filler, NA, 999, 999, 4, 26, 180, 180, 85, 70, 123, 150, 1, 0.802299
85, 1, bw, filler, NA, 999, 999, 4, 26, 180, 180, 85, 70, 123, 150, 2, 0.489358
85, 1, bw, attraction, a-b-db, 9, 3, 4, 27, 114, 186, 120, 195, 195, 120, 1, 1.16392
85, 1, bw, attraction, a-b-db, 9, 3, 4, 27, 114, 186, 120, 195, 195, 120, 2, 0.348135
85, 1, bw, attraction, a-b-da, 5, 2, 4, 28, 90, 165, 161, 88, 165, 90, 3, 0.85186
85, 1, bw, attraction, a-b-da, 5, 2, 4, 28, 90, 165, 161, 88, 165, 90, 2, 1.44094
85, 1, bw, attraction, a-b-da, 9, 3, 4, 29, 195, 120, 186, 114, 120, 195, 3, 1.1164
85, 1, bw, attraction, a-b-da, 9, 3, 4, 29, 195, 120, 186, 114, 120, 195, 2, 0.374764
85, 1, bw, attraction, a-b-db, 14, 1, 4, 30, 135, 60, 60, 135, 56, 125, 1, 1.94121
85, 1, bw, attraction, a-b-db, 14, 1, 4, 30, 135, 60, 60, 135, 56, 125, 2, 0.309925
85, 1, bw, catch, NA, 999, 999, 4, 31, 164, 91, 104, 91, 138, 177, 3, 0.775041
85, 1, bw, catch, NA, 999, 999, 4, 31, 164, 91, 104, 91, 138, 177, 2, 0.582776
85, 1, bw, filler, NA, 999, 999, 4, 32, 105, 190, 118, 183, 170, 56, 2, 1.0693
85, 1, bw, filler, NA, 999, 999, 4, 32, 105, 190, 118, 183, 170, 56, 3, 0.385685
85, 1, bw, attraction, a-b-da, 5, 3, 4, 33, 190, 117, 195, 120, 120, 195, 3, 2.73605
85, 1, bw, attraction, a-b-da, 5, 3, 4, 33, 190, 117, 195, 120, 120, 195, 1, 0.913158
85, 1, bw, attraction, a-b-da, 9, 2, 4, 34, 90, 165, 165, 90, 157, 86, 1, 7.89013
85, 1, bw, attraction, a-b-da, 9, 2, 4, 34, 90, 165, 165, 90, 157, 86, 3, 0.587054
85, 1, bw, filler, NA, 999, 999, 4, 35, 129, 173, 122, 174, 179, 80, 1, 1.08948
85, 1, bw, filler, NA, 999, 999, 4, 35, 129, 173, 122, 174, 179, 80, 3, 0.628462
85, 1, bw, attraction, a-b-da, 14, 2, 4, 36, 165, 90, 90, 165, 153, 83, 2, 1.32882
85, 1, bw, attraction, a-b-da, 14, 2, 4, 36, 165, 90, 90, 165, 153, 83, 3, 0.394336
85, 1, bw, attraction, a-b-db, 5, 1, 4, 37, 58, 132, 135, 60, 60, 135, 3, 3.99222
85, 1, bw, attraction, a-b-db, 5, 1, 4, 37, 58, 132, 135, 60, 60, 135, 1, 0.87032
85, 1, bw, filler, NA, 999, 999, 5, 1, 148, 167, 70, 163, 124, 141, 1, 14.9038
85, 1, bw, filler, NA, 999, 999, 5, 1, 148, 167, 70, 163, 124, 141, 2, 0.430471
85, 1, bw, attraction, a-b-da, 14, 1, 5, 2, 125, 56, 60, 135, 135, 60, 3, 2.00318
85, 1, bw, attraction, a-b-da, 14, 1, 5, 2, 125, 56, 60, 135, 135, 60, 1, 0.585671
85, 1, bw, attraction, a-b-da, 5, 3, 5, 3, 120, 195, 195, 120, 190, 117, 2, 2.01612
85, 1, bw, attraction, a-b-da, 5, 3, 5, 3, 120, 195, 195, 120, 190, 117, 3, 0.406164
85, 1, bw, attraction, a-b-da, 9, 1, 5, 4, 135, 60, 60, 135, 129, 57, 2, 1.56392
85, 1, bw, attraction, a-b-da, 9, 1, 5, 4, 135, 60, 60, 135, 129, 57, 3, 0.804076
85, 1, bw, attraction, a-b-db, 5, 1, 5, 5, 60, 135, 58, 132, 135, 60, 2, 3.20177
85, 1, bw, attraction, a-b-db, 5, 1, 5, 5, 60, 135, 58, 132, 135, 60, 3, 0.520016
85, 1, bw, attraction, a-b-da, 2, 1, 5, 6, 135, 60, 60, 135, 134, 59, 2, 1.50518
85, 1, bw, attraction, a-b-da, 2, 1, 5, 6, 135, 60, 60, 135, 134, 59, 3, 0.715325
85, 1, bw, filler, NA, 999, 999, 5, 7, 138, 112, 77, 62, 83, 134, 1, 0.524437
85, 1, bw, filler, NA, 999, 999, 5, 7, 138, 112, 77, 62, 83, 134, 2, 0.518325
85, 1, bw, attraction, a-b-db, 14, 3, 5, 8, 120, 195, 195, 120, 111, 181, 2, 0.647334
85, 1, bw, attraction, a-b-db, 14, 3, 5, 8, 120, 195, 195, 120, 111, 181, 3, 0.324533
85, 1, bw, attraction, a-b-db, 14, 2, 5, 9, 165, 90, 90, 165, 83, 153, 2, 1.5731
85, 1, bw, attraction, a-b-db, 14, 2, 5, 9, 165, 90, 90, 165, 83, 153, 3, 0.484454
85, 1, bw, attraction, a-b-da, 14, 2, 5, 10, 90, 165, 165, 90, 153, 83, 2, 1.12696
85, 1, bw, attraction, a-b-da, 14, 2, 5, 10, 90, 165, 165, 90, 153, 83, 3, 0.50474
85, 1, bw, filler, NA, 999, 999, 5, 11, 76, 71, 186, 56, 80, 65, 2, 2.31431
85, 1, bw, filler, NA, 999, 999, 5, 11, 76, 71, 186, 56, 80, 65, 3, 1.00429
85, 1, bw, attraction, a-b-da, 9, 3, 5, 12, 195, 120, 186, 114, 120, 195, 3, 2.4578
85, 1, bw, attraction, a-b-da, 9, 3, 5, 12, 195, 120, 186, 114, 120, 195, 2, 0.389688
85, 1, bw, attraction, a-b-db, 9, 2, 5, 13, 86, 157, 90, 165, 165, 90, 2, 2.06813
85, 1, bw, attraction, a-b-db, 9, 2, 5, 13, 86, 157, 90, 165, 165, 90, 1, 0.352191
85, 1, bw, attraction, a-b-db, 9, 3, 5, 14, 120, 195, 114, 186, 195, 120, 2, 0.704064
85, 1, bw, attraction, a-b-db, 9, 3, 5, 14, 120, 195, 114, 186, 195, 120, 3, 8.25849
85, 1, bw, filler, NA, 999, 999, 5, 15, 86, 191, 79, 132, 103, 91, 1, 1.65181
85, 1, bw, filler, NA, 999, 999, 5, 15, 86, 191, 79, 132, 103, 91, 2, 0.848719
85, 1, bw, attraction, a-b-db, 2, 3, 5, 16, 120, 195, 119, 193, 195, 120, 2, 10.6762
85, 1, bw, attraction, a-b-db, 2, 3, 5, 16, 120, 195, 119, 193, 195, 120, 3, 0.532883
85, 1, bw, attraction, a-b-da, 5, 1, 5, 17, 132, 58, 135, 60, 60, 135, 2, 7.17328
85, 1, bw, attraction, a-b-da, 5, 1, 5, 17, 132, 58, 135, 60, 60, 135, 1, 0.363708
85, 1, bw, attraction, a-b-db, 9, 1, 5, 18, 60, 135, 135, 60, 57, 129, 3, 1.36296
85, 1, bw, attraction, a-b-db, 9, 1, 5, 18, 60, 135, 135, 60, 57, 129, 1, 0.667318
85, 1, bw, attraction, a-b-db, 5, 2, 5, 19, 90, 165, 88, 161, 165, 90, 2, 1.94226
85, 1, bw, attraction, a-b-db, 5, 2, 5, 19, 90, 165, 88, 161, 165, 90, 3, 0.63889
85, 1, bw, filler, NA, 999, 999, 5, 20, 113, 62, 160, 176, 156, 100, 2, 0.635277
85, 1, bw, filler, NA, 999, 999, 5, 20, 113, 62, 160, 176, 156, 100, 1, 0.377054
85, 1, bw, filler, NA, 999, 999, 5, 21, 174, 104, 187, 76, 171, 110, 3, 0.759679
85, 1, bw, filler, NA, 999, 999, 5, 21, 174, 104, 187, 76, 171, 110, 2, 0.351988
85, 1, bw, attraction, a-b-da, 9, 2, 5, 22, 157, 86, 165, 90, 90, 165, 2, 2.04771
85, 1, bw, attraction, a-b-da, 9, 2, 5, 22, 157, 86, 165, 90, 90, 165, 1, 0.356436
85, 1, bw, attraction, a-b-db, 5, 3, 5, 23, 120, 195, 117, 190, 195, 120, 2, 3.04428
85, 1, bw, attraction, a-b-db, 5, 3, 5, 23, 120, 195, 117, 190, 195, 120, 3, 1.28065
85, 1, bw, catch, NA, 999, 999, 5, 24, 182, 133, 114, 81, 139, 116, 1, 0.834869
85, 1, bw, catch, NA, 999, 999, 5, 24, 182, 133, 114, 81, 139, 116, 2, 0.424626
85, 1, bw, attraction, a-b-db, 14, 1, 5, 25, 56, 125, 135, 60, 60, 135, 2, 0.99706
85, 1, bw, attraction, a-b-db, 14, 1, 5, 25, 56, 125, 135, 60, 60, 135, 1, 0.604098
85, 1, bw, filler, NA, 999, 999, 5, 26, 91, 72, 84, 168, 69, 175, 2, 0.937763
85, 1, bw, filler, NA, 999, 999, 5, 26, 91, 72, 84, 168, 69, 175, 1, 0.595651
85, 1, bw, filler, NA, 999, 999, 5, 27, 122, 133, 71, 186, 162, 138, 3, 0.833286
85, 1, bw, filler, NA, 999, 999, 5, 27, 122, 133, 71, 186, 162, 138, 2, 1.18297
85, 1, bw, catch, NA, 999, 999, 5, 28, 169, 146, 125, 130, 93, 102, 1, 0.549224
85, 1, bw, catch, NA, 999, 999, 5, 28, 169, 146, 125, 130, 93, 102, 3, 0.702378
85, 1, bw, filler, NA, 999, 999, 5, 29, 144, 151, 91, 82, 161, 66, 1, 1.12807
85, 1, bw, filler, NA, 999, 999, 5, 29, 144, 151, 91, 82, 161, 66, 2, 3.17775
85, 1, bw, attraction, a-b-da, 5, 2, 5, 30, 161, 88, 90, 165, 165, 90, 2, 2.94334
85, 1, bw, attraction, a-b-da, 5, 2, 5, 30, 161, 88, 90, 165, 165, 90, 1, 0.287649
85, 1, bw, filler, NA, 999, 999, 5, 31, 194, 116, 87, 142, 189, 125, 3, 2.13025
85, 1, bw, filler, NA, 999, 999, 5, 31, 194, 116, 87, 142, 189, 125, 2, 0.451477
85, 1, bw, attraction, a-b-da, 14, 3, 5, 32, 181, 111, 195, 120, 120, 195, 2, 3.81531
85, 1, bw, attraction, a-b-da, 14, 3, 5, 32, 181, 111, 195, 120, 120, 195, 1, 0.316741
85, 1, bw, attraction, a-b-da, 2, 2, 5, 33, 90, 165, 165, 90, 163, 89, 2, 1.60587
85, 1, bw, attraction, a-b-da, 2, 2, 5, 33, 90, 165, 165, 90, 163, 89, 1, 0.580034
85, 1, bw, catch, NA, 999, 999, 5, 34, 100, 95, 179, 136, 132, 123, 2, 1.03448
85, 1, bw, catch, NA, 999, 999, 5, 34, 100, 95, 179, 136, 132, 123, 1, 0.304161
85, 1, bw, attraction, a-b-db, 2, 1, 5, 35, 135, 60, 60, 135, 59, 134, 1, 1.21809
85, 1, bw, attraction, a-b-db, 2, 1, 5, 35, 135, 60, 60, 135, 59, 134, 2, 0.90421
85, 1, bw, attraction, a-b-da, 2, 3, 5, 36, 120, 195, 193, 119, 195, 120, 2, 7.64994
85, 1, bw, attraction, a-b-da, 2, 3, 5, 36, 120, 195, 193, 119, 195, 120, 3, 0.380866
85, 1, bw, attraction, a-b-db, 2, 2, 5, 37, 90, 165, 89, 163, 165, 90, 2, 5.60335
85, 1, bw, attraction, a-b-db, 2, 2, 5, 37, 90, 165, 89, 163, 165, 90, 3, 0.744945
85, 1, bw, attraction, a-b-db, 9, 2, 6, 1, 165, 90, 86, 157, 90, 165, 1, 1.34462
85, 1, bw, attraction, a-b-db, 9, 2, 6, 1, 165, 90, 86, 157, 90, 165, 2, 0.377406
85, 1, bw, attraction, a-b-da, 2, 2, 6, 2, 90, 165, 165, 90, 163, 89, 3, 3.55199
85, 1, bw, attraction, a-b-da, 2, 2, 6, 2, 90, 165, 165, 90, 163, 89, 1, 2.42421
85, 1, bw, attraction, a-b-da, 14, 1, 6, 3, 125, 56, 60, 135, 135, 60, 2, 5.07609
85, 1, bw, attraction, a-b-da, 14, 1, 6, 3, 125, 56, 60, 135, 135, 60, 3, 0.686422
85, 1, bw, attraction, a-b-da, 9, 1, 6, 4, 60, 135, 135, 60, 129, 57, 1, 1.88078
85, 1, bw, attraction, a-b-da, 9, 1, 6, 4, 60, 135, 135, 60, 129, 57, 2, 0.572137
85, 1, bw, filler, NA, 999, 999, 6, 5, 138, 61, 171, 63, 120, 190, 3, 0.675279
85, 1, bw, filler, NA, 999, 999, 6, 5, 138, 61, 171, 63, 120, 190, 1, 0.783093
85, 1, bw, attraction, a-b-db, 14, 3, 6, 6, 195, 120, 120, 195, 111, 181, 1, 2.9014
85, 1, bw, attraction, a-b-db, 14, 3, 6, 6, 195, 120, 120, 195, 111, 181, 3, 0.471818
85, 1, bw, attraction, a-b-da, 2, 3, 6, 7, 195, 120, 120, 195, 193, 119, 2, 1.89894
85, 1, bw, attraction, a-b-da, 2, 3, 6, 7, 195, 120, 120, 195, 193, 119, 3, 0.269704
85, 1, bw, catch, NA, 999, 999, 6, 8, 137, 178, 133, 122, 80, 115, 1, 0.576785
85, 1, bw, catch, NA, 999, 999, 6, 8, 137, 178, 133, 122, 80, 115, 3, 0.448722
85, 1, bw, attraction, a-b-db, 5, 3, 6, 9, 120, 195, 117, 190, 195, 120, 2, 2.78037
85, 1, bw, attraction, a-b-db, 5, 3, 6, 9, 120, 195, 117, 190, 195, 120, 3, 0.291541
85, 1, bw, attraction, a-b-da, 14, 3, 6, 10, 120, 195, 181, 111, 195, 120, 1, 1.60539
85, 1, bw, attraction, a-b-da, 14, 3, 6, 10, 120, 195, 181, 111, 195, 120, 3, 0.251526
85, 1, bw, catch, NA, 999, 999, 6, 11, 134, 121, 130, 65, 155, 160, 3, 0.807472
85, 1, bw, catch, NA, 999, 999, 6, 11, 134, 121, 130, 65, 155, 160, 2, 0.501908
85, 1, bw, filler, NA, 999, 999, 6, 12, 68, 183, 89, 137, 127, 145, 3, 1.14351
85, 1, bw, filler, NA, 999, 999, 6, 12, 68, 183, 89, 137, 127, 145, 2, 0.824477
85, 1, bw, attraction, a-b-da, 2, 1, 6, 13, 134, 59, 60, 135, 135, 60, 1, 1.50084
85, 1, bw, attraction, a-b-da, 2, 1, 6, 13, 134, 59, 60, 135, 135, 60, 2, 0.359732
85, 1, bw, attraction, a-b-da, 5, 1, 6, 14, 60, 135, 135, 60, 132, 58, 2, 1.06288
85, 1, bw, attraction, a-b-da, 5, 1, 6, 14, 60, 135, 135, 60, 132, 58, 1, 0.787163
85, 1, bw, filler, NA, 999, 999, 6, 15, 161, 195, 116, 104, 148, 132, 1, 0.761842
85, 1, bw, filler, NA, 999, 999, 6, 15, 161, 195, 116, 104, 148, 132, 2, 0.417861
85, 1, bw, attraction, a-b-db, 9, 3, 6, 16, 120, 195, 195, 120, 114, 186, 2, 0.99911
85, 1, bw, attraction, a-b-db, 9, 3, 6, 16, 120, 195, 195, 120, 114, 186, 3, 0.43811
85, 1, bw, filler, NA, 999, 999, 6, 17, 151, 57, 113, 92, 59, 63, 2, 1.03449
85, 1, bw, filler, NA, 999, 999, 6, 17, 151, 57, 113, 92, 59, 63, 3, 0.3843
85, 1, bw, attraction, a-b-da, 9, 3, 6, 18, 186, 114, 195, 120, 120, 195, 3, 5.08679
85, 1, bw, attraction, a-b-da, 9, 3, 6, 18, 186, 114, 195, 120, 120, 195, 1, 0.841183
85, 1, bw, attraction, a-b-db, 9, 1, 6, 19, 135, 60, 60, 135, 57, 129, 1, 4.15677
85, 1, bw, attraction, a-b-db, 9, 1, 6, 19, 135, 60, 60, 135, 57, 129, 3, 1.02813
85, 1, bw, attraction, a-b-db, 2, 2, 6, 20, 89, 163, 90, 165, 165, 90, 2, 1.46439
85, 1, bw, attraction, a-b-db, 2, 2, 6, 20, 89, 163, 90, 165, 165, 90, 3, 0.556559
85, 1, bw, filler, NA, 999, 999, 6, 21, 120, 82, 153, 189, 75, 89, 2, 1.21973
85, 1, bw, filler, NA, 999, 999, 6, 21, 120, 82, 153, 189, 75, 89, 3, 0.537941
85, 1, bw, attraction, a-b-da, 5, 3, 6, 22, 120, 195, 195, 120, 190, 117, 1, 2.96234
85, 1, bw, attraction, a-b-da, 5, 3, 6, 22, 120, 195, 195, 120, 190, 117, 3, 0.27403
85, 1, bw, attraction, a-b-da, 14, 2, 6, 23, 165, 90, 153, 83, 90, 165, 1, 1.18054
85, 1, bw, attraction, a-b-da, 14, 2, 6, 23, 165, 90, 153, 83, 90, 165, 2, 0.372168
85, 1, bw, attraction, a-b-db, 14, 2, 6, 24, 165, 90, 90, 165, 83, 153, 2, 1.43534
85, 1, bw, attraction, a-b-db, 14, 2, 6, 24, 165, 90, 90, 165, 83, 153, 3, 0.720983
85, 1, bw, attraction, a-b-db, 5, 1, 6, 25, 135, 60, 60, 135, 58, 132, 1, 1.55399
85, 1, bw, attraction, a-b-db, 5, 1, 6, 25, 135, 60, 60, 135, 58, 132, 3, 0.474802
85, 1, bw, attraction, a-b-da, 9, 2, 6, 26, 157, 86, 165, 90, 90, 165, 3, 2.76517
85, 1, bw, attraction, a-b-da, 9, 2, 6, 26, 157, 86, 165, 90, 90, 165, 1, 0.780976
85, 1, bw, filler, NA, 999, 999, 6, 27, 60, 139, 174, 187, 73, 114, 2, 0.539436
85, 1, bw, filler, NA, 999, 999, 6, 27, 60, 139, 174, 187, 73, 114, 3, 1.50858
85, 1, bw, catch, NA, 999, 999, 6, 28, 148, 167, 123, 72, 112, 143, 1, 1.14133
85, 1, bw, catch, NA, 999, 999, 6, 28, 148, 167, 123, 72, 112, 143, 2, 0.614273
85, 1, bw, attraction, a-b-db, 2, 1, 6, 29, 59, 134, 60, 135, 135, 60, 1, 1.28332
85, 1, bw, attraction, a-b-db, 2, 1, 6, 29, 59, 134, 60, 135, 135, 60, 2, 0.294979
85, 1, bw, attraction, a-b-db, 5, 2, 6, 30, 90, 165, 165, 90, 88, 161, 2, 1.05674
85, 1, bw, attraction, a-b-db, 5, 2, 6, 30, 90, 165, 165, 90, 88, 161, 1, 0.253066
85, 1, bw, filler, NA, 999, 999, 6, 31, 161, 56, 143, 71, 178, 124, 3, 0.584928
85, 1, bw, filler, NA, 999, 999, 6, 31, 161, 56, 143, 71, 178, 124, 1, 0.584678
85, 1, bw, filler, NA, 999, 999, 6, 32, 185, 109, 159, 70, 89, 134, 1, 0.767134
85, 1, bw, filler, NA, 999, 999, 6, 32, 185, 109, 159, 70, 89, 134, 2, 1.02355
85, 1, bw, attraction, a-b-db, 2, 3, 6, 33, 120, 195, 119, 193, 195, 120, 2, 1.60384
85, 1, bw, attraction, a-b-db, 2, 3, 6, 33, 120, 195, 119, 193, 195, 120, 3, 1.13869
85, 1, bw, attraction, a-b-db, 14, 1, 6, 34, 56, 125, 60, 135, 135, 60, 2, 1.53108
85, 1, bw, attraction, a-b-db, 14, 1, 6, 34, 56, 125, 60, 135, 135, 60, 1, 0.46842
85, 1, bw, filler, NA, 999, 999, 6, 35, 125, 84, 67, 105, 133, 104, 3, 1.25555
85, 1, bw, filler, NA, 999, 999, 6, 35, 125, 84, 67, 105, 133, 104, 2, 0.699756
85, 1, bw, attraction, a-b-da, 5, 2, 6, 36, 165, 90, 161, 88, 90, 165, 3, 2.8855
85, 1, bw, attraction, a-b-da, 5, 2, 6, 36, 165, 90, 161, 88, 90, 165, 2, 0.304516
85, 1, bw, filler, NA, 999, 999, 6, 37, 169, 72, 180, 64, 64, 108, 2, 1.05034
85, 1, bw, filler, NA, 999, 999, 6, 37, 169, 72, 180, 64, 64, 108, 3, 0.543391
85, 1, bw, filler, NA, 999, 999, 7, 1, 130, 58, 58, 145, 63, 159, 3, 0.983132
85, 1, bw, filler, NA, 999, 999, 7, 1, 130, 58, 58, 145, 63, 159, 1, 0.470843
85, 1, bw, attraction, a-b-da, 14, 3, 7, 2, 120, 195, 195, 120, 181, 111, 2, 1.08189
85, 1, bw, attraction, a-b-da, 14, 3, 7, 2, 120, 195, 195, 120, 181, 111, 3, 0.389564
85, 1, bw, attraction, a-b-da, 14, 1, 7, 3, 135, 60, 125, 56, 60, 135, 1, 0.860063
85, 1, bw, attraction, a-b-da, 14, 1, 7, 3, 135, 60, 125, 56, 60, 135, 3, 0.304439
85, 1, bw, attraction, a-b-da, 14, 2, 7, 4, 90, 165, 153, 83, 165, 90, 1, 1.32224
85, 1, bw, attraction, a-b-da, 14, 2, 7, 4, 90, 165, 153, 83, 165, 90, 2, 0.763906
85, 1, bw, attraction, a-b-db, 9, 3, 7, 5, 114, 186, 120, 195, 195, 120, 2, 1.77889
85, 1, bw, attraction, a-b-db, 9, 3, 7, 5, 114, 186, 120, 195, 195, 120, 1, 0.738303
85, 1, bw, attraction, a-b-da, 5, 3, 7, 6, 120, 195, 190, 117, 195, 120, 1, 5.88272
85, 1, bw, attraction, a-b-da, 5, 3, 7, 6, 120, 195, 190, 117, 195, 120, 2, 0.212947
85, 1, bw, attraction, a-b-db, 14, 2, 7, 7, 90, 165, 83, 153, 165, 90, 1, 2.17011
85, 1, bw, attraction, a-b-db, 14, 2, 7, 7, 90, 165, 83, 153, 165, 90, 2, 0.610095
85, 1, bw, attraction, a-b-db, 9, 2, 7, 8, 86, 157, 90, 165, 165, 90, 2, 1.24709
85, 1, bw, attraction, a-b-db, 9, 2, 7, 8, 86, 157, 90, 165, 165, 90, 1, 0.427961
85, 1, bw, attraction, a-b-db, 2, 2, 7, 9, 89, 163, 165, 90, 90, 165, 3, 4.44847
85, 1, bw, attraction, a-b-db, 2, 2, 7, 9, 89, 163, 165, 90, 90, 165, 1, 0.444414
85, 1, bw, attraction, a-b-da, 9, 3, 7, 10, 186, 114, 120, 195, 195, 120, 3, 2.9442
85, 1, bw, attraction, a-b-da, 9, 3, 7, 10, 186, 114, 120, 195, 195, 120, 1, 0.672587
85, 1, bw, filler, NA, 999, 999, 7, 11, 85, 176, 155, 102, 139, 185, 3, 1.34762
85, 1, bw, filler, NA, 999, 999, 7, 11, 85, 176, 155, 102, 139, 185, 1, 0.788521
85, 1, bw, attraction, a-b-db, 5, 1, 7, 12, 58, 132, 60, 135, 135, 60, 2, 1.45886
85, 1, bw, attraction, a-b-db, 5, 1, 7, 12, 58, 132, 60, 135, 135, 60, 3, 0.735171
85, 1, bw, attraction, a-b-db, 2, 3, 7, 13, 119, 193, 120, 195, 195, 120, 2, 2.47145
85, 1, bw, attraction, a-b-db, 2, 3, 7, 13, 119, 193, 120, 195, 195, 120, 1, 0.755374
85, 1, bw, filler, NA, 999, 999, 7, 14, 108, 83, 131, 82, 141, 185, 3, 0.955007
85, 1, bw, filler, NA, 999, 999, 7, 14, 108, 83, 131, 82, 141, 185, 1, 0.571368
85, 1, bw, filler, NA, 999, 999, 7, 15, 137, 149, 194, 145, 95, 156, 2, 0.914595
85, 1, bw, filler, NA, 999, 999, 7, 15, 137, 149, 194, 145, 95, 156, 3, 0.532808
85, 1, bw, filler, NA, 999, 999, 7, 16, 148, 156, 110, 62, 193, 149, 3, 0.877229
85, 1, bw, filler, NA, 999, 999, 7, 16, 148, 156, 110, 62, 193, 149, 2, 0.448934
85, 1, bw, attraction, a-b-da, 5, 1, 7, 17, 132, 58, 135, 60, 60, 135, 2, 0.844762
85, 1, bw, attraction, a-b-da, 5, 1, 7, 17, 132, 58, 135, 60, 60, 135, 1, 0.585828
85, 1, bw, attraction, a-b-db, 14, 1, 7, 18, 135, 60, 60, 135, 56, 125, 2, 1.09622
85, 1, bw, attraction, a-b-db, 14, 1, 7, 18, 135, 60, 60, 135, 56, 125, 3, 0.555146
85, 1, bw, catch, NA, 999, 999, 7, 19, 178, 137, 110, 85, 133, 122, 1, 0.851037
85, 1, bw, catch, NA, 999, 999, 7, 19, 178, 137, 110, 85, 133, 122, 2, 0.776036
85, 1, bw, filler, NA, 999, 999, 7, 20, 56, 102, 149, 180, 67, 175, 2, 0.870353
85, 1, bw, filler, NA, 999, 999, 7, 20, 56, 102, 149, 180, 67, 175, 1, 0.402705
85, 1, bw, attraction, a-b-da, 2, 1, 7, 21, 60, 135, 134, 59, 135, 60, 3, 0.688622
85, 1, bw, attraction, a-b-da, 2, 1, 7, 21, 60, 135, 134, 59, 135, 60, 1, 0.603595
85, 1, bw, catch, NA, 999, 999, 7, 22, 167, 148, 158, 97, 126, 69, 1, 0.537432
85, 1, bw, catch, NA, 999, 999, 7, 22, 167, 148, 158, 97, 126, 69, 3, 0.707216
85, 1, bw, filler, NA, 999, 999, 7, 23, 179, 82, 126, 170, 78, 188, 2, 1.53235
85, 1, bw, filler, NA, 999, 999, 7, 23, 179, 82, 126, 170, 78, 188, 1, 1.52583
85, 1, bw, attraction, a-b-db, 5, 3, 7, 24, 120, 195, 195, 120, 117, 190, 1, 8.41401
85, 1, bw, attraction, a-b-db, 5, 3, 7, 24, 120, 195, 195, 120, 117, 190, 2, 1.05787
85, 1, bw, attraction, a-b-db, 14, 3, 7, 25, 111, 181, 195, 120, 120, 195, 3, 1.18093
85, 1, bw, attraction, a-b-db, 14, 3, 7, 25, 111, 181, 195, 120, 120, 195, 1, 0.596425
85, 1, bw, filler, NA, 999, 999, 7, 26, 166, 179, 193, 116, 70, 168, 1, 1.78618
85, 1, bw, filler, NA, 999, 999, 7, 26, 166, 179, 193, 116, 70, 168, 3, 0.873694
85, 1, bw, catch, NA, 999, 999, 7, 27, 153, 162, 91, 164, 84, 111, 1, 0.683948
85, 1, bw, catch, NA, 999, 999, 7, 27, 153, 162, 91, 164, 84, 111, 3, 0.71171
85, 1, bw, filler, NA, 999, 999, 7, 28, 146, 75, 63, 182, 141, 165, 3, 1.60877
85, 1, bw, filler, NA, 999, 999, 7, 28, 146, 75, 63, 182, 141, 165, 1, 1.29505
85, 1, bw, attraction, a-b-da, 2, 3, 7, 29, 195, 120, 120, 195, 193, 119, 2, 1.20041
85, 1, bw, attraction, a-b-da, 2, 3, 7, 29, 195, 120, 120, 195, 193, 119, 3, 0.567321
85, 1, bw, attraction, a-b-da, 9, 1, 7, 30, 135, 60, 60, 135, 129, 57, 2, 1.47051
85, 1, bw, attraction, a-b-da, 9, 1, 7, 30, 135, 60, 60, 135, 129, 57, 3, 0.522636
85, 1, bw, attraction, a-b-da, 2, 2, 7, 31, 90, 165, 163, 89, 165, 90, 2, 33.6598
85, 1, bw, attraction, a-b-da, 2, 2, 7, 31, 90, 165, 163, 89, 165, 90, 1, 0.310573
85, 1, bw, attraction, a-b-db, 2, 1, 7, 32, 60, 135, 59, 134, 135, 60, 3, 2.53581
85, 1, bw, attraction, a-b-db, 2, 1, 7, 32, 60, 135, 59, 134, 135, 60, 1, 0.384996
85, 1, bw, attraction, a-b-db, 5, 2, 7, 33, 90, 165, 165, 90, 88, 161, 1, 0.855419
85, 1, bw, attraction, a-b-db, 5, 2, 7, 33, 90, 165, 165, 90, 88, 161, 2, 0.71579
85, 1, bw, attraction, a-b-da, 9, 2, 7, 34, 90, 165, 157, 86, 165, 90, 3, 1.46873
85, 1, bw, attraction, a-b-da, 9, 2, 7, 34, 90, 165, 157, 86, 165, 90, 1, 0.880967
85, 1, bw, attraction, a-b-da, 5, 2, 7, 35, 165, 90, 161, 88, 90, 165, 3, 1.13933
85, 1, bw, attraction, a-b-da, 5, 2, 7, 35, 165, 90, 161, 88, 90, 165, 1, 0.428305
85, 1, bw, attraction, a-b-db, 9, 1, 7, 36, 57, 129, 135, 60, 60, 135, 3, 1.1368
85, 1, bw, attraction, a-b-db, 9, 1, 7, 36, 57, 129, 135, 60, 60, 135, 1, 0.42639
85, 1, bw, filler, NA, 999, 999, 7, 37, 169, 180, 181, 59, 142, 109, 1, 0.91882
85, 1, bw, filler, NA, 999, 999, 7, 37, 169, 180, 181, 59, 142, 109, 2, 0.489229
85, 1, bw, filler, NA, 999, 999, 8, 1, 127, 63, 103, 83, 96, 158, 3, 0.707649
85, 1, bw, filler, NA, 999, 999, 8, 1, 127, 63, 103, 83, 96, 158, 1, 0.534137
85, 1, bw, attraction, a-b-db, 9, 2, 8, 2, 90, 165, 86, 157, 165, 90, 2, 1.28659
85, 1, bw, attraction, a-b-db, 9, 2, 8, 2, 90, 165, 86, 157, 165, 90, 3, 0.274204
85, 1, bw, attraction, a-b-da, 5, 3, 8, 3, 120, 195, 190, 117, 195, 120, 3, 0.860749
85, 1, bw, attraction, a-b-da, 5, 3, 8, 3, 120, 195, 190, 117, 195, 120, 1, 0.353008
85, 1, bw, attraction, a-b-db, 2, 3, 8, 4, 120, 195, 195, 120, 119, 193, 1, 1.56083
85, 1, bw, attraction, a-b-db, 2, 3, 8, 4, 120, 195, 195, 120, 119, 193, 3, 0.50515
85, 1, bw, filler, NA, 999, 999, 8, 5, 138, 140, 126, 175, 63, 135, 2, 1.42694
85, 1, bw, filler, NA, 999, 999, 8, 5, 138, 140, 126, 175, 63, 135, 3, 0.46435
85, 1, bw, attraction, a-b-da, 9, 2, 8, 6, 90, 165, 165, 90, 157, 86, 1, 1.44337
85, 1, bw, attraction, a-b-da, 9, 2, 8, 6, 90, 165, 165, 90, 157, 86, 3, 0.352264
85, 1, bw, attraction, a-b-da, 2, 1, 8, 7, 60, 135, 134, 59, 135, 60, 2, 1.42412
85, 1, bw, attraction, a-b-da, 2, 1, 8, 7, 60, 135, 134, 59, 135, 60, 1, 0.253574
85, 1, bw, catch, NA, 999, 999, 8, 8, 125, 70, 92, 163, 163, 152, 3, 0.881439
85, 1, bw, catch, NA, 999, 999, 8, 8, 125, 70, 92, 163, 163, 152, 1, 0.397285
85, 1, bw, attraction, a-b-db, 5, 3, 8, 9, 195, 120, 120, 195, 117, 190, 1, 2.21903
85, 1, bw, attraction, a-b-db, 5, 3, 8, 9, 195, 120, 120, 195, 117, 190, 3, 0.376976
85, 1, bw, attraction, a-b-da, 5, 1, 8, 10, 60, 135, 132, 58, 135, 60, 3, 1.31946
85, 1, bw, attraction, a-b-da, 5, 1, 8, 10, 60, 135, 132, 58, 135, 60, 1, 0.27368
85, 1, bw, attraction, a-b-da, 9, 1, 8, 11, 135, 60, 60, 135, 129, 57, 1, 2.90835
85, 1, bw, attraction, a-b-da, 9, 1, 8, 11, 135, 60, 60, 135, 129, 57, 3, 0.541984
85, 1, bw, catch, NA, 999, 999, 8, 12, 66, 129, 152, 163, 96, 159, 2, 0.933765
85, 1, bw, catch, NA, 999, 999, 8, 12, 66, 129, 152, 163, 96, 159, 1, 0.567366
85, 1, bw, attraction, a-b-da, 14, 1, 8, 13, 125, 56, 135, 60, 60, 135, 3, 0.798762
85, 1, bw, attraction, a-b-da, 14, 1, 8, 13, 125, 56, 135, 60, 60, 135, 1, 0.837512
85, 1, bw, attraction, a-b-db, 14, 2, 8, 14, 83, 153, 165, 90, 90, 165, 3, 0.737903
85, 1, bw, attraction, a-b-db, 14, 2, 8, 14, 83, 153, 165, 90, 90, 165, 1, 0.387635
85, 1, bw, attraction, a-b-db, 14, 3, 8, 15, 111, 181, 195, 120, 120, 195, 2, 2.21011
85, 1, bw, attraction, a-b-db, 14, 3, 8, 15, 111, 181, 195, 120, 120, 195, 1, 0.592057
85, 1, bw, filler, NA, 999, 999, 8, 16, 188, 189, 161, 63, 103, 144, 1, 0.981742
85, 1, bw, filler, NA, 999, 999, 8, 16, 188, 189, 161, 63, 103, 144, 2, 0.413484
85, 1, bw, attraction, a-b-db, 5, 2, 8, 17, 165, 90, 88, 161, 90, 165, 2, 1.86674
85, 1, bw, attraction, a-b-db, 5, 2, 8, 17, 165, 90, 88, 161, 90, 165, 1, 0.358624
85, 1, bw, filler, NA, 999, 999, 8, 18, 134, 148, 177, 112, 118, 162, 1, 2.18189
85, 1, bw, filler, NA, 999, 999, 8, 18, 134, 148, 177, 112, 118, 162, 3, 4.75716
85, 1, bw, filler, NA, 999, 999, 8, 19, 56, 135, 118, 136, 187, 167, 3, 0.859579
85, 1, bw, filler, NA, 999, 999, 8, 19, 56, 135, 118, 136, 187, 167, 1, 0.415957
85, 1, bw, attraction, a-b-da, 9, 3, 8, 20, 186, 114, 195, 120, 120, 195, 2, 1.38109
85, 1, bw, attraction, a-b-da, 9, 3, 8, 20, 186, 114, 195, 120, 120, 195, 1, 0.588638
85, 1, bw, attraction, a-b-db, 5, 1, 8, 21, 60, 135, 135, 60, 58, 132, 1, 1.77916
85, 1, bw, attraction, a-b-db, 5, 1, 8, 21, 60, 135, 135, 60, 58, 132, 3, 0.394646
85, 1, bw, catch, NA, 999, 999, 8, 22, 85, 110, 189, 126, 118, 137, 2, 2.59236
85, 1, bw, catch, NA, 999, 999, 8, 22, 85, 110, 189, 126, 118, 137, 1, 0.374791
85, 1, bw, filler, NA, 999, 999, 8, 23, 136, 140, 100, 60, 98, 177, 1, 1.42949
85, 1, bw, filler, NA, 999, 999, 8, 23, 136, 140, 100, 60, 98, 177, 2, 0.514946
85, 1, bw, attraction, a-b-da, 2, 2, 8, 24, 165, 90, 163, 89, 90, 165, 3, 4.37201
85, 1, bw, attraction, a-b-da, 2, 2, 8, 24, 165, 90, 163, 89, 90, 165, 2, 0.98652
85, 1, bw, attraction, a-b-da, 2, 3, 8, 25, 193, 119, 195, 120, 120, 195, 1, 0.968907
85, 1, bw, attraction, a-b-da, 2, 3, 8, 25, 193, 119, 195, 120, 120, 195, 2, 0.313253
85, 1, bw, filler, NA, 999, 999, 8, 26, 185, 116, 88, 151, 83, 75, 1, 1.01839
85, 1, bw, filler, NA, 999, 999, 8, 26, 185, 116, 88, 151, 83, 75, 3, 0.456748
85, 1, bw, attraction, a-b-da, 14, 2, 8, 27, 153, 83, 90, 165, 165, 90, 3, 1.10777
85, 1, bw, attraction, a-b-da, 14, 2, 8, 27, 153, 83, 90, 165, 165, 90, 1, 0.462149
85, 1, bw, attraction, a-b-db, 2, 1, 8, 28, 59, 134, 60, 135, 135, 60, 2, 3.36917
85, 1, bw, attraction, a-b-db, 2, 1, 8, 28, 59, 134, 60, 135, 135, 60, 1, 0.34491
85, 1, bw, filler, NA, 999, 999, 8, 29, 135, 129, 102, 97, 132, 78, 1, 0.656626
85, 1, bw, filler, NA, 999, 999, 8, 29, 135, 129, 102, 97, 132, 78, 2, 0.269021
85, 1, bw, attraction, a-b-da, 14, 3, 8, 30, 195, 120, 120, 195, 181, 111, 2, 3.80824
85, 1, bw, attraction, a-b-da, 14, 3, 8, 30, 195, 120, 120, 195, 181, 111, 3, 0.477717
85, 1, bw, attraction, a-b-db, 9, 1, 8, 31, 60, 135, 135, 60, 57, 129, 1, 1.28027
85, 1, bw, attraction, a-b-db, 9, 1, 8, 31, 60, 135, 135, 60, 57, 129, 3, 0.243817
85, 1, bw, filler, NA, 999, 999, 8, 32, 124, 73, 178, 169, 107, 179, 2, 0.751688
85, 1, bw, filler, NA, 999, 999, 8, 32, 124, 73, 178, 169, 107, 179, 1, 0.208685
85, 1, bw, attraction, a-b-db, 14, 1, 8, 33, 56, 125, 135, 60, 60, 135, 3, 5.31796
85, 1, bw, attraction, a-b-db, 14, 1, 8, 33, 56, 125, 135, 60, 60, 135, 2, 0.414942
85, 1, bw, attraction, a-b-db, 9, 3, 8, 34, 120, 195, 114, 186, 195, 120, 1, 1.39603
85, 1, bw, attraction, a-b-db, 9, 3, 8, 34, 120, 195, 114, 186, 195, 120, 3, 0.266925
85, 1, bw, attraction, a-b-da, 5, 2, 8, 35, 165, 90, 90, 165, 161, 88, 1, 0.662168
85, 1, bw, attraction, a-b-da, 5, 2, 8, 35, 165, 90, 90, 165, 161, 88, 2, 0.386491
85, 1, bw, attraction, a-b-db, 2, 2, 8, 36, 89, 163, 90, 165, 165, 90, 2, 1.32916
85, 1, bw, attraction, a-b-db, 2, 2, 8, 36, 89, 163, 90, 165, 165, 90, 3, 1.2827
85, 1, bw, filler, NA, 999, 999, 8, 37, 133, 165, 89, 129, 60, 147, 1, 0.548808
85, 1, bw, filler, NA, 999, 999, 8, 37, 133, 165, 89, 129, 60, 147, 3, 0.845954
