sub_n, computer_n, bw_cond, effect, set, distance, diag, block_n, trial_n, h1, w1, h2, w2, h3, w3, choice, rt 
94, 1, wb, practice, NA, 999, 999, 0, 1, 170, 155, 91, 64, 166, 92, 2, 2.70233
94, 1, wb, practice, NA, 999, 999, 0, 1, 170, 155, 91, 64, 166, 92, 1, 1.72826
94, 1, wb, practice, NA, 999, 999, 0, 2, 156, 97, 108, 56, 190, 79, 2, 1.68531
94, 1, wb, practice, NA, 999, 999, 0, 2, 156, 97, 108, 56, 190, 79, 1, 1.62607
94, 1, wb, practice, NA, 999, 999, 0, 3, 158, 142, 128, 107, 164, 99, 2, 3.53824
94, 1, wb, practice, NA, 999, 999, 0, 3, 158, 142, 128, 107, 164, 99, 1, 0.795287
94, 1, wb, attraction, a-b-db, 2, 3, 1, 1, 120, 195, 195, 120, 119, 193, 2, 2.77305
94, 1, wb, attraction, a-b-db, 2, 3, 1, 1, 120, 195, 195, 120, 119, 193, 3, 1.15612
94, 1, wb, filler, NA, 999, 999, 1, 2, 130, 128, 114, 129, 120, 135, 2, 1.5557
94, 1, wb, filler, NA, 999, 999, 1, 2, 130, 128, 114, 129, 120, 135, 3, 3.17184
94, 1, wb, attraction, a-b-db, 9, 1, 1, 3, 135, 60, 57, 129, 60, 135, 1, 4.57014
94, 1, wb, attraction, a-b-db, 9, 1, 1, 3, 135, 60, 57, 129, 60, 135, 3, 0.969397
94, 1, wb, filler, NA, 999, 999, 1, 4, 161, 119, 61, 128, 162, 89, 2, 1.33631
94, 1, wb, filler, NA, 999, 999, 1, 4, 161, 119, 61, 128, 162, 89, 1, 0.665981
94, 1, wb, catch, NA, 999, 999, 1, 5, 123, 132, 104, 91, 184, 131, 2, 1.50904
94, 1, wb, catch, NA, 999, 999, 1, 5, 123, 132, 104, 91, 184, 131, 3, 0.519116
94, 1, wb, filler, NA, 999, 999, 1, 6, 168, 191, 65, 101, 97, 101, 2, 0.816155
94, 1, wb, filler, NA, 999, 999, 1, 6, 168, 191, 65, 101, 97, 101, 1, 0.270693
94, 1, wb, filler, NA, 999, 999, 1, 7, 187, 172, 77, 111, 75, 61, 3, 0.617785
94, 1, wb, filler, NA, 999, 999, 1, 7, 187, 172, 77, 111, 75, 61, 1, 0.312402
94, 1, wb, attraction, a-b-da, 14, 1, 1, 8, 60, 135, 135, 60, 125, 56, 3, 1.40158
94, 1, wb, attraction, a-b-da, 14, 1, 1, 8, 60, 135, 135, 60, 125, 56, 1, 0.48993
94, 1, wb, attraction, a-b-da, 5, 3, 1, 9, 190, 117, 195, 120, 120, 195, 1, 3.15412
94, 1, wb, attraction, a-b-da, 5, 3, 1, 9, 190, 117, 195, 120, 120, 195, 3, 0.506483
94, 1, wb, attraction, a-b-da, 5, 2, 1, 10, 165, 90, 90, 165, 161, 88, 1, 1.08422
94, 1, wb, attraction, a-b-da, 5, 2, 1, 10, 165, 90, 90, 165, 161, 88, 3, 0.511851
94, 1, wb, attraction, a-b-db, 5, 3, 1, 11, 195, 120, 120, 195, 117, 190, 1, 5.30495
94, 1, wb, attraction, a-b-db, 5, 3, 1, 11, 195, 120, 120, 195, 117, 190, 3, 0.474748
94, 1, wb, catch, NA, 999, 999, 1, 12, 96, 99, 98, 157, 178, 137, 1, 0.941185
94, 1, wb, catch, NA, 999, 999, 1, 12, 96, 99, 98, 157, 178, 137, 3, 0.510076
94, 1, wb, attraction, a-b-da, 5, 1, 1, 13, 132, 58, 60, 135, 135, 60, 1, 1.13512
94, 1, wb, attraction, a-b-da, 5, 1, 1, 13, 132, 58, 60, 135, 135, 60, 3, 1.09696
94, 1, wb, filler, NA, 999, 999, 1, 14, 78, 161, 165, 170, 176, 166, 1, 0.706348
94, 1, wb, filler, NA, 999, 999, 1, 14, 78, 161, 165, 170, 176, 166, 3, 1.28491
94, 1, wb, attraction, a-b-db, 2, 2, 1, 15, 90, 165, 89, 163, 165, 90, 3, 2.64707
94, 1, wb, attraction, a-b-db, 2, 2, 1, 15, 90, 165, 89, 163, 165, 90, 1, 1.01952
94, 1, wb, catch, NA, 999, 999, 1, 16, 190, 125, 102, 153, 95, 100, 3, 1.36057
94, 1, wb, catch, NA, 999, 999, 1, 16, 190, 125, 102, 153, 95, 100, 1, 0.424737
94, 1, wb, filler, NA, 999, 999, 1, 17, 118, 167, 94, 120, 120, 71, 3, 0.69317
94, 1, wb, filler, NA, 999, 999, 1, 17, 118, 167, 94, 120, 120, 71, 1, 0.34426
94, 1, wb, filler, NA, 999, 999, 1, 18, 80, 85, 182, 97, 152, 70, 1, 2.00831
94, 1, wb, filler, NA, 999, 999, 1, 18, 80, 85, 182, 97, 152, 70, 2, 0.334122
94, 1, wb, attraction, a-b-db, 5, 1, 1, 19, 58, 132, 135, 60, 60, 135, 2, 2.0466
94, 1, wb, attraction, a-b-db, 5, 1, 1, 19, 58, 132, 135, 60, 60, 135, 3, 0.451269
94, 1, wb, attraction, a-b-da, 2, 2, 1, 20, 163, 89, 90, 165, 165, 90, 1, 1.54311
94, 1, wb, attraction, a-b-da, 2, 2, 1, 20, 163, 89, 90, 165, 165, 90, 2, 0.559917
94, 1, wb, attraction, a-b-db, 9, 3, 1, 21, 120, 195, 114, 186, 195, 120, 2, 1.45497
94, 1, wb, attraction, a-b-db, 9, 3, 1, 21, 120, 195, 114, 186, 195, 120, 3, 2.58728
94, 1, wb, attraction, a-b-da, 2, 3, 1, 22, 193, 119, 195, 120, 120, 195, 1, 1.48895
94, 1, wb, attraction, a-b-da, 2, 3, 1, 22, 193, 119, 195, 120, 120, 195, 3, 0.371759
94, 1, wb, filler, NA, 999, 999, 1, 23, 105, 150, 102, 116, 82, 128, 3, 3.82699
94, 1, wb, filler, NA, 999, 999, 1, 23, 105, 150, 102, 116, 82, 128, 1, 0.359775
94, 1, wb, attraction, a-b-da, 14, 3, 1, 24, 195, 120, 120, 195, 181, 111, 3, 1.31909
94, 1, wb, attraction, a-b-da, 14, 3, 1, 24, 195, 120, 120, 195, 181, 111, 1, 0.441315
94, 1, wb, attraction, a-b-db, 14, 1, 1, 25, 56, 125, 60, 135, 135, 60, 3, 2.07695
94, 1, wb, attraction, a-b-db, 14, 1, 1, 25, 56, 125, 60, 135, 135, 60, 2, 0.424388
94, 1, wb, attraction, a-b-db, 9, 2, 1, 26, 86, 157, 165, 90, 90, 165, 2, 1.52475
94, 1, wb, attraction, a-b-db, 9, 2, 1, 26, 86, 157, 165, 90, 90, 165, 3, 0.454256
94, 1, wb, attraction, a-b-da, 2, 1, 1, 27, 135, 60, 60, 135, 134, 59, 2, 1.02609
94, 1, wb, attraction, a-b-da, 2, 1, 1, 27, 135, 60, 60, 135, 134, 59, 3, 0.639771
94, 1, wb, attraction, a-b-db, 2, 1, 1, 28, 60, 135, 59, 134, 135, 60, 1, 1.39622
94, 1, wb, attraction, a-b-db, 2, 1, 1, 28, 60, 135, 59, 134, 135, 60, 3, 0.506988
94, 1, wb, attraction, a-b-db, 14, 2, 1, 29, 83, 153, 90, 165, 165, 90, 1, 0.836126
94, 1, wb, attraction, a-b-db, 14, 2, 1, 29, 83, 153, 90, 165, 165, 90, 3, 0.6099
94, 1, wb, attraction, a-b-da, 9, 1, 1, 30, 129, 57, 60, 135, 135, 60, 1, 0.95088
94, 1, wb, attraction, a-b-da, 9, 1, 1, 30, 129, 57, 60, 135, 135, 60, 2, 0.479894
94, 1, wb, attraction, a-b-da, 14, 2, 1, 31, 165, 90, 90, 165, 153, 83, 3, 4.05837
94, 1, wb, attraction, a-b-da, 14, 2, 1, 31, 165, 90, 90, 165, 153, 83, 2, 0.373662
94, 1, wb, attraction, a-b-db, 5, 2, 1, 32, 165, 90, 88, 161, 90, 165, 1, 0.972256
94, 1, wb, attraction, a-b-db, 5, 2, 1, 32, 165, 90, 88, 161, 90, 165, 3, 0.403942
94, 1, wb, attraction, a-b-da, 9, 3, 1, 33, 120, 195, 186, 114, 195, 120, 2, 0.969911
94, 1, wb, attraction, a-b-da, 9, 3, 1, 33, 120, 195, 186, 114, 195, 120, 3, 0.442122
94, 1, wb, filler, NA, 999, 999, 1, 34, 133, 165, 127, 144, 133, 63, 3, 0.757938
94, 1, wb, filler, NA, 999, 999, 1, 34, 133, 165, 127, 144, 133, 63, 1, 0.382206
94, 1, wb, filler, NA, 999, 999, 1, 35, 71, 64, 87, 158, 191, 149, 1, 0.892707
94, 1, wb, filler, NA, 999, 999, 1, 35, 71, 64, 87, 158, 191, 149, 3, 1.03977
94, 1, wb, attraction, a-b-da, 9, 2, 1, 36, 90, 165, 157, 86, 165, 90, 2, 0.996044
94, 1, wb, attraction, a-b-da, 9, 2, 1, 36, 90, 165, 157, 86, 165, 90, 1, 0.483055
94, 1, wb, attraction, a-b-db, 14, 3, 1, 37, 111, 181, 120, 195, 195, 120, 1, 3.20562
94, 1, wb, attraction, a-b-db, 14, 3, 1, 37, 111, 181, 120, 195, 195, 120, 3, 0.571175
94, 1, wb, attraction, a-b-db, 9, 1, 2, 1, 135, 60, 60, 135, 57, 129, 1, 1.17022
94, 1, wb, attraction, a-b-db, 9, 1, 2, 1, 135, 60, 60, 135, 57, 129, 3, 0.794528
94, 1, wb, attraction, a-b-db, 14, 3, 2, 2, 120, 195, 111, 181, 195, 120, 2, 2.44029
94, 1, wb, attraction, a-b-db, 14, 3, 2, 2, 120, 195, 111, 181, 195, 120, 3, 0.52476
94, 1, wb, filler, NA, 999, 999, 2, 3, 71, 173, 133, 159, 67, 135, 1, 0.933184
94, 1, wb, filler, NA, 999, 999, 2, 3, 71, 173, 133, 159, 67, 135, 2, 1.7109
94, 1, wb, attraction, a-b-da, 9, 1, 2, 4, 129, 57, 135, 60, 60, 135, 1, 1.08765
94, 1, wb, attraction, a-b-da, 9, 1, 2, 4, 129, 57, 135, 60, 60, 135, 3, 1.2826
94, 1, wb, attraction, a-b-db, 2, 2, 2, 5, 89, 163, 165, 90, 90, 165, 2, 2.54072
94, 1, wb, attraction, a-b-db, 2, 2, 2, 5, 89, 163, 165, 90, 90, 165, 3, 0.973336
94, 1, wb, catch, NA, 999, 999, 2, 6, 78, 117, 173, 142, 144, 111, 1, 0.971613
94, 1, wb, catch, NA, 999, 999, 2, 6, 78, 117, 173, 142, 144, 111, 2, 1.05934
94, 1, wb, attraction, a-b-db, 5, 1, 2, 7, 135, 60, 60, 135, 58, 132, 1, 3.3823
94, 1, wb, attraction, a-b-db, 5, 1, 2, 7, 135, 60, 60, 135, 58, 132, 3, 1.02129
94, 1, wb, attraction, a-b-da, 14, 3, 2, 8, 181, 111, 120, 195, 195, 120, 1, 2.73018
94, 1, wb, attraction, a-b-da, 14, 3, 2, 8, 181, 111, 120, 195, 195, 120, 2, 1.00334
94, 1, wb, attraction, a-b-db, 9, 3, 2, 9, 114, 186, 195, 120, 120, 195, 2, 1.82488
94, 1, wb, attraction, a-b-db, 9, 3, 2, 9, 114, 186, 195, 120, 120, 195, 3, 0.87836
94, 1, wb, filler, NA, 999, 999, 2, 10, 111, 79, 183, 109, 121, 92, 1, 1.49657
94, 1, wb, filler, NA, 999, 999, 2, 10, 111, 79, 183, 109, 121, 92, 2, 1.03556
94, 1, wb, filler, NA, 999, 999, 2, 11, 165, 93, 181, 121, 173, 147, 1, 1.41576
94, 1, wb, filler, NA, 999, 999, 2, 11, 165, 93, 181, 121, 173, 147, 3, 1.21397
94, 1, wb, attraction, a-b-da, 5, 3, 2, 12, 120, 195, 190, 117, 195, 120, 2, 2.50689
94, 1, wb, attraction, a-b-da, 5, 3, 2, 12, 120, 195, 190, 117, 195, 120, 1, 1.30068
94, 1, wb, attraction, a-b-db, 5, 3, 2, 13, 195, 120, 117, 190, 120, 195, 1, 2.60624
94, 1, wb, attraction, a-b-db, 5, 3, 2, 13, 195, 120, 117, 190, 120, 195, 3, 2.23602
94, 1, wb, filler, NA, 999, 999, 2, 14, 102, 146, 158, 195, 136, 121, 1, 2.57599
94, 1, wb, filler, NA, 999, 999, 2, 14, 102, 146, 158, 195, 136, 121, 2, 1.63113
94, 1, wb, attraction, a-b-db, 2, 3, 2, 15, 195, 120, 120, 195, 119, 193, 2, 2.28318
94, 1, wb, attraction, a-b-db, 2, 3, 2, 15, 195, 120, 120, 195, 119, 193, 3, 2.15044
94, 1, wb, attraction, a-b-da, 14, 1, 2, 16, 135, 60, 60, 135, 125, 56, 3, 2.65377
94, 1, wb, attraction, a-b-da, 14, 1, 2, 16, 135, 60, 60, 135, 125, 56, 1, 1.69822
94, 1, wb, attraction, a-b-da, 5, 1, 2, 17, 132, 58, 135, 60, 60, 135, 2, 2.88355
94, 1, wb, attraction, a-b-da, 5, 1, 2, 17, 132, 58, 135, 60, 60, 135, 3, 1.17471
94, 1, wb, attraction, a-b-db, 14, 2, 2, 18, 90, 165, 83, 153, 165, 90, 3, 2.03703
94, 1, wb, attraction, a-b-db, 14, 2, 2, 18, 90, 165, 83, 153, 165, 90, 1, 1.23421
94, 1, wb, filler, NA, 999, 999, 2, 19, 119, 84, 84, 179, 62, 64, 3, 1.15056
94, 1, wb, filler, NA, 999, 999, 2, 19, 119, 84, 84, 179, 62, 64, 2, 1.83148
94, 1, wb, attraction, a-b-da, 2, 3, 2, 20, 195, 120, 193, 119, 120, 195, 3, 4.6277
94, 1, wb, attraction, a-b-da, 2, 3, 2, 20, 195, 120, 193, 119, 120, 195, 1, 0.968051
94, 1, wb, attraction, a-b-da, 9, 2, 2, 21, 157, 86, 90, 165, 165, 90, 3, 1.41502
94, 1, wb, attraction, a-b-da, 9, 2, 2, 21, 157, 86, 90, 165, 165, 90, 2, 1.4773
94, 1, wb, attraction, a-b-da, 14, 2, 2, 22, 90, 165, 165, 90, 153, 83, 3, 2.11939
94, 1, wb, attraction, a-b-da, 14, 2, 2, 22, 90, 165, 165, 90, 153, 83, 1, 1.03327
94, 1, wb, filler, NA, 999, 999, 2, 23, 176, 75, 76, 186, 124, 179, 1, 0.885582
94, 1, wb, filler, NA, 999, 999, 2, 23, 176, 75, 76, 186, 124, 179, 3, 0.849315
94, 1, wb, attraction, a-b-db, 9, 2, 2, 24, 165, 90, 90, 165, 86, 157, 3, 2.493
94, 1, wb, attraction, a-b-db, 9, 2, 2, 24, 165, 90, 90, 165, 86, 157, 1, 0.647592
94, 1, wb, filler, NA, 999, 999, 2, 25, 144, 172, 116, 190, 124, 113, 3, 1.09915
94, 1, wb, filler, NA, 999, 999, 2, 25, 144, 172, 116, 190, 124, 113, 1, 0.670219
94, 1, wb, attraction, a-b-da, 2, 1, 2, 26, 135, 60, 60, 135, 134, 59, 3, 1.52126
94, 1, wb, attraction, a-b-da, 2, 1, 2, 26, 135, 60, 60, 135, 134, 59, 1, 0.738803
94, 1, wb, attraction, a-b-db, 5, 2, 2, 27, 165, 90, 90, 165, 88, 161, 1, 1.13111
94, 1, wb, attraction, a-b-db, 5, 2, 2, 27, 165, 90, 90, 165, 88, 161, 2, 0.684811
94, 1, wb, filler, NA, 999, 999, 2, 28, 153, 129, 107, 81, 172, 158, 2, 0.687102
94, 1, wb, filler, NA, 999, 999, 2, 28, 153, 129, 107, 81, 172, 158, 3, 0.546882
94, 1, wb, filler, NA, 999, 999, 2, 29, 156, 56, 135, 98, 166, 119, 1, 0.586657
94, 1, wb, filler, NA, 999, 999, 2, 29, 156, 56, 135, 98, 166, 119, 3, 0.426497
94, 1, wb, catch, NA, 999, 999, 2, 30, 153, 102, 142, 173, 115, 80, 3, 0.894872
94, 1, wb, catch, NA, 999, 999, 2, 30, 153, 102, 142, 173, 115, 80, 2, 0.489906
94, 1, wb, attraction, a-b-db, 14, 1, 2, 31, 135, 60, 56, 125, 60, 135, 1, 0.892391
94, 1, wb, attraction, a-b-db, 14, 1, 2, 31, 135, 60, 56, 125, 60, 135, 3, 0.399413
94, 1, wb, attraction, a-b-da, 5, 2, 2, 32, 161, 88, 90, 165, 165, 90, 1, 0.765395
94, 1, wb, attraction, a-b-da, 5, 2, 2, 32, 161, 88, 90, 165, 165, 90, 2, 0.725821
94, 1, wb, attraction, a-b-db, 2, 1, 2, 33, 135, 60, 59, 134, 60, 135, 1, 1.03006
94, 1, wb, attraction, a-b-db, 2, 1, 2, 33, 135, 60, 59, 134, 60, 135, 3, 0.435828
94, 1, wb, filler, NA, 999, 999, 2, 34, 72, 106, 95, 80, 103, 105, 2, 0.664169
94, 1, wb, filler, NA, 999, 999, 2, 34, 72, 106, 95, 80, 103, 105, 3, 0.436679
94, 1, wb, catch, NA, 999, 999, 2, 35, 79, 116, 137, 178, 143, 112, 1, 0.601043
94, 1, wb, catch, NA, 999, 999, 2, 35, 79, 116, 137, 178, 143, 112, 2, 0.488242
94, 1, wb, attraction, a-b-da, 2, 2, 2, 36, 163, 89, 90, 165, 165, 90, 1, 1.0107
94, 1, wb, attraction, a-b-da, 2, 2, 2, 36, 163, 89, 90, 165, 165, 90, 2, 0.40105
94, 1, wb, attraction, a-b-da, 9, 3, 2, 37, 120, 195, 186, 114, 195, 120, 2, 1.19078
94, 1, wb, attraction, a-b-da, 9, 3, 2, 37, 120, 195, 186, 114, 195, 120, 1, 0.309787
94, 1, wb, filler, NA, 999, 999, 3, 1, 160, 86, 62, 89, 70, 95, 2, 0.766871
94, 1, wb, filler, NA, 999, 999, 3, 1, 160, 86, 62, 89, 70, 95, 1, 0.367234
94, 1, wb, attraction, a-b-da, 14, 3, 3, 2, 181, 111, 195, 120, 120, 195, 1, 1.03849
94, 1, wb, attraction, a-b-da, 14, 3, 3, 2, 181, 111, 195, 120, 120, 195, 3, 0.395432
94, 1, wb, attraction, a-b-db, 2, 3, 3, 3, 195, 120, 120, 195, 119, 193, 1, 5.20126
94, 1, wb, attraction, a-b-db, 2, 3, 3, 3, 195, 120, 120, 195, 119, 193, 2, 0.57512
94, 1, wb, catch, NA, 999, 999, 3, 4, 189, 126, 161, 94, 82, 113, 3, 0.701336
94, 1, wb, catch, NA, 999, 999, 3, 4, 189, 126, 161, 94, 82, 113, 1, 0.616571
94, 1, wb, attraction, a-b-da, 2, 2, 3, 5, 90, 165, 165, 90, 163, 89, 3, 2.53355
94, 1, wb, attraction, a-b-da, 2, 2, 3, 5, 90, 165, 165, 90, 163, 89, 1, 0.790875
94, 1, wb, catch, NA, 999, 999, 3, 6, 66, 129, 141, 174, 90, 165, 1, 0.956496
94, 1, wb, catch, NA, 999, 999, 3, 6, 66, 129, 141, 174, 90, 165, 2, 0.524813
94, 1, wb, filler, NA, 999, 999, 3, 7, 78, 142, 171, 133, 96, 173, 1, 0.821142
94, 1, wb, filler, NA, 999, 999, 3, 7, 78, 142, 171, 133, 96, 173, 2, 0.434882
94, 1, wb, filler, NA, 999, 999, 3, 8, 159, 117, 90, 165, 82, 146, 3, 3.26339
94, 1, wb, filler, NA, 999, 999, 3, 8, 159, 117, 90, 165, 82, 146, 1, 0.314994
94, 1, wb, filler, NA, 999, 999, 3, 9, 71, 69, 183, 124, 64, 190, 1, 0.612149
94, 1, wb, filler, NA, 999, 999, 3, 9, 71, 69, 183, 124, 64, 190, 2, 0.298614
94, 1, wb, attraction, a-b-da, 9, 2, 3, 10, 157, 86, 165, 90, 90, 165, 1, 0.988467
94, 1, wb, attraction, a-b-da, 9, 2, 3, 10, 157, 86, 165, 90, 90, 165, 3, 0.315491
94, 1, wb, attraction, a-b-db, 5, 3, 3, 11, 120, 195, 195, 120, 117, 190, 1, 1.34864
94, 1, wb, attraction, a-b-db, 5, 3, 3, 11, 120, 195, 195, 120, 117, 190, 3, 0.413634
94, 1, wb, attraction, a-b-da, 2, 3, 3, 12, 193, 119, 120, 195, 195, 120, 1, 0.746745
94, 1, wb, attraction, a-b-da, 2, 3, 3, 12, 193, 119, 120, 195, 195, 120, 2, 0.891829
94, 1, wb, catch, NA, 999, 999, 3, 13, 105, 90, 98, 157, 194, 121, 1, 0.853426
94, 1, wb, catch, NA, 999, 999, 3, 13, 105, 90, 98, 157, 194, 121, 3, 0.562433
94, 1, wb, filler, NA, 999, 999, 3, 14, 128, 176, 120, 72, 104, 81, 3, 1.12965
94, 1, wb, filler, NA, 999, 999, 3, 14, 128, 176, 120, 72, 104, 81, 1, 0.315158
94, 1, wb, attraction, a-b-da, 5, 3, 3, 15, 120, 195, 195, 120, 190, 117, 2, 5.0123
94, 1, wb, attraction, a-b-da, 5, 3, 3, 15, 120, 195, 195, 120, 190, 117, 1, 0.385511
94, 1, wb, attraction, a-b-db, 14, 3, 3, 16, 120, 195, 195, 120, 111, 181, 3, 2.448
94, 1, wb, attraction, a-b-db, 14, 3, 3, 16, 120, 195, 195, 120, 111, 181, 1, 0.356516
94, 1, wb, attraction, a-b-da, 5, 2, 3, 17, 161, 88, 165, 90, 90, 165, 3, 1.70761
94, 1, wb, attraction, a-b-da, 5, 2, 3, 17, 161, 88, 165, 90, 90, 165, 1, 0.621751
94, 1, wb, filler, NA, 999, 999, 3, 18, 111, 76, 115, 64, 153, 89, 2, 1.51478
94, 1, wb, filler, NA, 999, 999, 3, 18, 111, 76, 115, 64, 153, 89, 3, 0.197043
94, 1, wb, attraction, a-b-db, 9, 2, 3, 19, 86, 157, 165, 90, 90, 165, 2, 2.90698
94, 1, wb, attraction, a-b-db, 9, 2, 3, 19, 86, 157, 165, 90, 90, 165, 3, 0.308554
94, 1, wb, filler, NA, 999, 999, 3, 20, 183, 177, 129, 122, 95, 125, 3, 0.725796
94, 1, wb, filler, NA, 999, 999, 3, 20, 183, 177, 129, 122, 95, 125, 1, 0.471447
94, 1, wb, attraction, a-b-da, 2, 1, 3, 21, 134, 59, 135, 60, 60, 135, 1, 0.7866
94, 1, wb, attraction, a-b-da, 2, 1, 3, 21, 134, 59, 135, 60, 60, 135, 3, 0.274503
94, 1, wb, attraction, a-b-db, 2, 2, 3, 22, 89, 163, 90, 165, 165, 90, 2, 1.49296
94, 1, wb, attraction, a-b-db, 2, 2, 3, 22, 89, 163, 90, 165, 165, 90, 3, 0.319712
94, 1, wb, attraction, a-b-da, 14, 2, 3, 23, 90, 165, 153, 83, 165, 90, 2, 0.600964
94, 1, wb, attraction, a-b-da, 14, 2, 3, 23, 90, 165, 153, 83, 165, 90, 1, 0.408024
94, 1, wb, attraction, a-b-db, 2, 1, 3, 24, 135, 60, 59, 134, 60, 135, 2, 1.61328
94, 1, wb, attraction, a-b-db, 2, 1, 3, 24, 135, 60, 59, 134, 60, 135, 3, 0.899342
94, 1, wb, attraction, a-b-da, 14, 1, 3, 25, 135, 60, 60, 135, 125, 56, 2, 0.980953
94, 1, wb, attraction, a-b-da, 14, 1, 3, 25, 135, 60, 60, 135, 125, 56, 1, 0.772633
94, 1, wb, filler, NA, 999, 999, 3, 26, 120, 91, 62, 115, 74, 100, 2, 0.683646
94, 1, wb, filler, NA, 999, 999, 3, 26, 120, 91, 62, 115, 74, 100, 1, 1.6875
94, 1, wb, attraction, a-b-db, 5, 1, 3, 27, 60, 135, 135, 60, 58, 132, 3, 1.23357
94, 1, wb, attraction, a-b-db, 5, 1, 3, 27, 60, 135, 135, 60, 58, 132, 1, 0.407103
94, 1, wb, attraction, a-b-da, 9, 3, 3, 28, 120, 195, 186, 114, 195, 120, 2, 1.0763
94, 1, wb, attraction, a-b-da, 9, 3, 3, 28, 120, 195, 186, 114, 195, 120, 1, 0.215858
94, 1, wb, attraction, a-b-db, 5, 2, 3, 29, 165, 90, 88, 161, 90, 165, 2, 1.10914
94, 1, wb, attraction, a-b-db, 5, 2, 3, 29, 165, 90, 88, 161, 90, 165, 1, 0.519348
94, 1, wb, attraction, a-b-da, 9, 1, 3, 30, 129, 57, 60, 135, 135, 60, 1, 1.9445
94, 1, wb, attraction, a-b-da, 9, 1, 3, 30, 129, 57, 60, 135, 135, 60, 2, 0.497215
94, 1, wb, filler, NA, 999, 999, 3, 31, 169, 103, 91, 119, 92, 139, 2, 1.1791
94, 1, wb, filler, NA, 999, 999, 3, 31, 169, 103, 91, 119, 92, 139, 1, 0.314593
94, 1, wb, attraction, a-b-da, 5, 1, 3, 32, 135, 60, 60, 135, 132, 58, 2, 1.09984
94, 1, wb, attraction, a-b-da, 5, 1, 3, 32, 135, 60, 60, 135, 132, 58, 1, 0.862843
94, 1, wb, filler, NA, 999, 999, 3, 33, 94, 114, 62, 102, 64, 188, 2, 0.593777
94, 1, wb, filler, NA, 999, 999, 3, 33, 94, 114, 62, 102, 64, 188, 1, 0.456912
94, 1, wb, attraction, a-b-db, 14, 2, 3, 34, 83, 153, 165, 90, 90, 165, 2, 0.907965
94, 1, wb, attraction, a-b-db, 14, 2, 3, 34, 83, 153, 165, 90, 90, 165, 3, 0.414559
94, 1, wb, attraction, a-b-db, 14, 1, 3, 35, 135, 60, 56, 125, 60, 135, 2, 0.731894
94, 1, wb, attraction, a-b-db, 14, 1, 3, 35, 135, 60, 56, 125, 60, 135, 3, 0.70923
94, 1, wb, attraction, a-b-db, 9, 1, 3, 36, 57, 129, 60, 135, 135, 60, 2, 1.25429
94, 1, wb, attraction, a-b-db, 9, 1, 3, 36, 57, 129, 60, 135, 135, 60, 3, 0.283217
94, 1, wb, attraction, a-b-db, 9, 3, 3, 37, 114, 186, 195, 120, 120, 195, 1, 2.20571
94, 1, wb, attraction, a-b-db, 9, 3, 3, 37, 114, 186, 195, 120, 120, 195, 3, 0.5077
94, 1, wb, attraction, a-b-db, 5, 2, 4, 1, 165, 90, 90, 165, 88, 161, 2, 0.668794
94, 1, wb, attraction, a-b-db, 5, 2, 4, 1, 165, 90, 90, 165, 88, 161, 1, 0.377228
94, 1, wb, attraction, a-b-da, 9, 1, 4, 2, 129, 57, 60, 135, 135, 60, 1, 1.51966
94, 1, wb, attraction, a-b-da, 9, 1, 4, 2, 129, 57, 60, 135, 135, 60, 2, 0.305847
94, 1, wb, attraction, a-b-da, 9, 3, 4, 3, 120, 195, 186, 114, 195, 120, 2, 0.955696
94, 1, wb, attraction, a-b-da, 9, 3, 4, 3, 120, 195, 186, 114, 195, 120, 3, 0.292036
94, 1, wb, catch, NA, 999, 999, 4, 4, 129, 186, 158, 97, 114, 81, 3, 0.757883
94, 1, wb, catch, NA, 999, 999, 4, 4, 129, 186, 158, 97, 114, 81, 1, 0.334259
94, 1, wb, filler, NA, 999, 999, 4, 5, 101, 162, 169, 60, 132, 173, 2, 0.678756
94, 1, wb, filler, NA, 999, 999, 4, 5, 101, 162, 169, 60, 132, 173, 3, 0.250703
94, 1, wb, filler, NA, 999, 999, 4, 6, 83, 150, 114, 151, 159, 123, 1, 0.598476
94, 1, wb, filler, NA, 999, 999, 4, 6, 83, 150, 114, 151, 159, 123, 2, 0.389586
94, 1, wb, filler, NA, 999, 999, 4, 7, 97, 100, 161, 155, 189, 87, 1, 0.652004
94, 1, wb, filler, NA, 999, 999, 4, 7, 97, 100, 161, 155, 189, 87, 2, 0.281135
94, 1, wb, filler, NA, 999, 999, 4, 8, 66, 101, 160, 151, 147, 149, 1, 0.731717
94, 1, wb, filler, NA, 999, 999, 4, 8, 66, 101, 160, 151, 147, 149, 3, 0.901383
94, 1, wb, filler, NA, 999, 999, 4, 9, 103, 152, 66, 191, 122, 151, 2, 1.95904
94, 1, wb, filler, NA, 999, 999, 4, 9, 103, 152, 66, 191, 122, 151, 3, 0.503141
94, 1, wb, attraction, a-b-da, 2, 3, 4, 10, 195, 120, 120, 195, 193, 119, 1, 1.47282
94, 1, wb, attraction, a-b-da, 2, 3, 4, 10, 195, 120, 120, 195, 193, 119, 2, 0.716403
94, 1, wb, attraction, a-b-db, 14, 1, 4, 11, 60, 135, 135, 60, 56, 125, 2, 0.733494
94, 1, wb, attraction, a-b-db, 14, 1, 4, 11, 60, 135, 135, 60, 56, 125, 1, 0.303125
94, 1, wb, attraction, a-b-db, 9, 1, 4, 12, 135, 60, 60, 135, 57, 129, 2, 0.705084
94, 1, wb, attraction, a-b-db, 9, 1, 4, 12, 135, 60, 60, 135, 57, 129, 1, 0.547489
94, 1, wb, attraction, a-b-db, 5, 1, 4, 13, 135, 60, 58, 132, 60, 135, 1, 0.803229
94, 1, wb, attraction, a-b-db, 5, 1, 4, 13, 135, 60, 58, 132, 60, 135, 3, 0.410377
94, 1, wb, attraction, a-b-da, 5, 2, 4, 14, 165, 90, 161, 88, 90, 165, 1, 1.18347
94, 1, wb, attraction, a-b-da, 5, 2, 4, 14, 165, 90, 161, 88, 90, 165, 3, 0.487025
94, 1, wb, attraction, a-b-da, 5, 1, 4, 15, 135, 60, 60, 135, 132, 58, 3, 3.6174
94, 1, wb, attraction, a-b-da, 5, 1, 4, 15, 135, 60, 60, 135, 132, 58, 1, 0.415
94, 1, wb, attraction, a-b-da, 2, 2, 4, 16, 165, 90, 163, 89, 90, 165, 2, 1.2443
94, 1, wb, attraction, a-b-da, 2, 2, 4, 16, 165, 90, 163, 89, 90, 165, 1, 0.505124
94, 1, wb, attraction, a-b-da, 14, 1, 4, 17, 60, 135, 125, 56, 135, 60, 2, 1.23496
94, 1, wb, attraction, a-b-da, 14, 1, 4, 17, 60, 135, 125, 56, 135, 60, 1, 0.872468
94, 1, wb, attraction, a-b-da, 14, 2, 4, 18, 153, 83, 165, 90, 90, 165, 2, 1.21951
94, 1, wb, attraction, a-b-da, 14, 2, 4, 18, 153, 83, 165, 90, 90, 165, 3, 0.857821
94, 1, wb, filler, NA, 999, 999, 4, 19, 123, 100, 191, 109, 109, 136, 1, 3.62865
94, 1, wb, filler, NA, 999, 999, 4, 19, 123, 100, 191, 109, 109, 136, 2, 0.537516
94, 1, wb, attraction, a-b-db, 14, 3, 4, 20, 120, 195, 195, 120, 111, 181, 3, 1.18604
94, 1, wb, attraction, a-b-db, 14, 3, 4, 20, 120, 195, 195, 120, 111, 181, 1, 0.633756
94, 1, wb, attraction, a-b-db, 14, 2, 4, 21, 165, 90, 90, 165, 83, 153, 3, 0.990059
94, 1, wb, attraction, a-b-db, 14, 2, 4, 21, 165, 90, 90, 165, 83, 153, 1, 0.789075
94, 1, wb, attraction, a-b-da, 5, 3, 4, 22, 195, 120, 190, 117, 120, 195, 3, 2.66747
94, 1, wb, attraction, a-b-da, 5, 3, 4, 22, 195, 120, 190, 117, 120, 195, 1, 1.82312
94, 1, wb, filler, NA, 999, 999, 4, 23, 99, 63, 172, 179, 60, 62, 3, 1.16403
94, 1, wb, filler, NA, 999, 999, 4, 23, 99, 63, 172, 179, 60, 62, 2, 0.7081
94, 1, wb, attraction, a-b-db, 2, 1, 4, 24, 135, 60, 60, 135, 59, 134, 1, 2.76516
94, 1, wb, attraction, a-b-db, 2, 1, 4, 24, 135, 60, 60, 135, 59, 134, 2, 1.2371
94, 1, wb, attraction, a-b-db, 9, 2, 4, 25, 90, 165, 165, 90, 86, 157, 2, 2.26517
94, 1, wb, attraction, a-b-db, 9, 2, 4, 25, 90, 165, 165, 90, 86, 157, 1, 0.549169
94, 1, wb, attraction, a-b-db, 5, 3, 4, 26, 120, 195, 117, 190, 195, 120, 3, 1.06089
94, 1, wb, attraction, a-b-db, 5, 3, 4, 26, 120, 195, 117, 190, 195, 120, 1, 0.585383
94, 1, wb, catch, NA, 999, 999, 4, 27, 149, 106, 70, 125, 191, 124, 2, 0.831594
94, 1, wb, catch, NA, 999, 999, 4, 27, 149, 106, 70, 125, 191, 124, 3, 0.597414
94, 1, wb, attraction, a-b-db, 2, 3, 4, 28, 120, 195, 119, 193, 195, 120, 2, 2.05909
94, 1, wb, attraction, a-b-db, 2, 3, 4, 28, 120, 195, 119, 193, 195, 120, 1, 0.703038
94, 1, wb, attraction, a-b-db, 9, 3, 4, 29, 120, 195, 195, 120, 114, 186, 2, 2.2488
94, 1, wb, attraction, a-b-db, 9, 3, 4, 29, 120, 195, 195, 120, 114, 186, 1, 0.469435
94, 1, wb, catch, NA, 999, 999, 4, 30, 77, 118, 91, 164, 141, 174, 1, 0.664585
94, 1, wb, catch, NA, 999, 999, 4, 30, 77, 118, 91, 164, 141, 174, 3, 0.485031
94, 1, wb, filler, NA, 999, 999, 4, 31, 74, 172, 157, 130, 104, 152, 1, 0.61545
94, 1, wb, filler, NA, 999, 999, 4, 31, 74, 172, 157, 130, 104, 152, 2, 2.70195
94, 1, wb, filler, NA, 999, 999, 4, 32, 92, 138, 123, 151, 74, 109, 3, 0.814981
94, 1, wb, filler, NA, 999, 999, 4, 32, 92, 138, 123, 151, 74, 109, 2, 0.325319
94, 1, wb, attraction, a-b-db, 2, 2, 4, 33, 165, 90, 89, 163, 90, 165, 1, 0.973961
94, 1, wb, attraction, a-b-db, 2, 2, 4, 33, 165, 90, 89, 163, 90, 165, 2, 0.693618
94, 1, wb, attraction, a-b-da, 2, 1, 4, 34, 134, 59, 135, 60, 60, 135, 1, 1.21534
94, 1, wb, attraction, a-b-da, 2, 1, 4, 34, 134, 59, 135, 60, 60, 135, 2, 0.637575
94, 1, wb, attraction, a-b-da, 14, 3, 4, 35, 120, 195, 181, 111, 195, 120, 1, 7.84996
94, 1, wb, attraction, a-b-da, 14, 3, 4, 35, 120, 195, 181, 111, 195, 120, 2, 0.57281
94, 1, wb, filler, NA, 999, 999, 4, 36, 116, 184, 179, 185, 138, 161, 3, 1.52406
94, 1, wb, filler, NA, 999, 999, 4, 36, 116, 184, 179, 185, 138, 161, 2, 0.381362
94, 1, wb, attraction, a-b-da, 9, 2, 4, 37, 90, 165, 165, 90, 157, 86, 3, 1.54806
94, 1, wb, attraction, a-b-da, 9, 2, 4, 37, 90, 165, 165, 90, 157, 86, 1, 0.932702
94, 1, wb, filler, NA, 999, 999, 5, 1, 112, 192, 140, 120, 121, 77, 3, 1.49164
94, 1, wb, filler, NA, 999, 999, 5, 1, 112, 192, 140, 120, 121, 77, 2, 0.734471
94, 1, wb, attraction, a-b-da, 2, 3, 5, 2, 193, 119, 195, 120, 120, 195, 2, 2.54299
94, 1, wb, attraction, a-b-da, 2, 3, 5, 2, 193, 119, 195, 120, 120, 195, 3, 0.551343
94, 1, wb, attraction, a-b-db, 9, 1, 5, 3, 57, 129, 60, 135, 135, 60, 1, 0.671203
94, 1, wb, attraction, a-b-db, 9, 1, 5, 3, 57, 129, 60, 135, 135, 60, 2, 0.571543
94, 1, wb, filler, NA, 999, 999, 5, 4, 161, 179, 176, 178, 171, 194, 1, 1.69094
94, 1, wb, filler, NA, 999, 999, 5, 4, 161, 179, 176, 178, 171, 194, 3, 0.437493
94, 1, wb, attraction, a-b-da, 5, 2, 5, 5, 161, 88, 165, 90, 90, 165, 2, 0.84192
94, 1, wb, attraction, a-b-da, 5, 2, 5, 5, 161, 88, 165, 90, 90, 165, 3, 0.519047
94, 1, wb, attraction, a-b-db, 2, 3, 5, 6, 195, 120, 119, 193, 120, 195, 2, 1.45615
94, 1, wb, attraction, a-b-db, 2, 3, 5, 6, 195, 120, 119, 193, 120, 195, 1, 0.468424
94, 1, wb, attraction, a-b-da, 5, 3, 5, 7, 190, 117, 195, 120, 120, 195, 2, 1.04739
94, 1, wb, attraction, a-b-da, 5, 3, 5, 7, 190, 117, 195, 120, 120, 195, 3, 0.476397
94, 1, wb, filler, NA, 999, 999, 5, 8, 85, 99, 113, 59, 96, 107, 2, 0.750822
94, 1, wb, filler, NA, 999, 999, 5, 8, 85, 99, 113, 59, 96, 107, 3, 0.647959
94, 1, wb, attraction, a-b-db, 5, 2, 5, 9, 165, 90, 88, 161, 90, 165, 1, 0.819649
94, 1, wb, attraction, a-b-db, 5, 2, 5, 9, 165, 90, 88, 161, 90, 165, 3, 0.570072
94, 1, wb, attraction, a-b-da, 9, 1, 5, 10, 129, 57, 60, 135, 135, 60, 1, 0.689272
94, 1, wb, attraction, a-b-da, 9, 1, 5, 10, 129, 57, 60, 135, 135, 60, 3, 0.564309
94, 1, wb, attraction, a-b-da, 14, 2, 5, 11, 153, 83, 90, 165, 165, 90, 2, 0.955436
94, 1, wb, attraction, a-b-da, 14, 2, 5, 11, 153, 83, 90, 165, 165, 90, 3, 1.54763
94, 1, wb, filler, NA, 999, 999, 5, 12, 93, 195, 108, 114, 152, 106, 2, 0.939111
94, 1, wb, filler, NA, 999, 999, 5, 12, 93, 195, 108, 114, 152, 106, 3, 1.15621
94, 1, wb, filler, NA, 999, 999, 5, 13, 74, 132, 123, 171, 63, 115, 3, 0.73976
94, 1, wb, filler, NA, 999, 999, 5, 13, 74, 132, 123, 171, 63, 115, 2, 0.356817
94, 1, wb, attraction, a-b-db, 5, 3, 5, 14, 195, 120, 117, 190, 120, 195, 1, 2.78001
94, 1, wb, attraction, a-b-db, 5, 3, 5, 14, 195, 120, 117, 190, 120, 195, 2, 0.403083
94, 1, wb, attraction, a-b-db, 5, 1, 5, 15, 60, 135, 135, 60, 58, 132, 1, 0.912862
94, 1, wb, attraction, a-b-db, 5, 1, 5, 15, 60, 135, 135, 60, 58, 132, 2, 0.491169
94, 1, wb, attraction, a-b-db, 2, 2, 5, 16, 165, 90, 90, 165, 89, 163, 1, 1.61299
94, 1, wb, attraction, a-b-db, 2, 2, 5, 16, 165, 90, 90, 165, 89, 163, 3, 0.435234
94, 1, wb, attraction, a-b-da, 9, 3, 5, 17, 120, 195, 195, 120, 186, 114, 3, 1.23963
94, 1, wb, attraction, a-b-da, 9, 3, 5, 17, 120, 195, 195, 120, 186, 114, 1, 0.380696
94, 1, wb, catch, NA, 999, 999, 5, 18, 109, 146, 143, 172, 131, 64, 3, 0.547158
94, 1, wb, catch, NA, 999, 999, 5, 18, 109, 146, 143, 172, 131, 64, 2, 0.308228
94, 1, wb, attraction, a-b-db, 14, 2, 5, 19, 83, 153, 90, 165, 165, 90, 1, 1.48534
94, 1, wb, attraction, a-b-db, 14, 2, 5, 19, 83, 153, 90, 165, 165, 90, 2, 0.320817
94, 1, wb, attraction, a-b-db, 2, 1, 5, 20, 135, 60, 59, 134, 60, 135, 1, 1.01
94, 1, wb, attraction, a-b-db, 2, 1, 5, 20, 135, 60, 59, 134, 60, 135, 2, 0.872397
94, 1, wb, catch, NA, 999, 999, 5, 21, 125, 130, 87, 108, 185, 130, 2, 0.627394
94, 1, wb, catch, NA, 999, 999, 5, 21, 125, 130, 87, 108, 185, 130, 3, 0.273174
94, 1, wb, filler, NA, 999, 999, 5, 22, 163, 185, 111, 191, 129, 108, 3, 0.747685
94, 1, wb, filler, NA, 999, 999, 5, 22, 163, 185, 111, 191, 129, 108, 1, 0.34083
94, 1, wb, attraction, a-b-da, 14, 3, 5, 23, 181, 111, 195, 120, 120, 195, 1, 1.77257
94, 1, wb, attraction, a-b-da, 14, 3, 5, 23, 181, 111, 195, 120, 120, 195, 3, 0.660057
94, 1, wb, filler, NA, 999, 999, 5, 24, 57, 181, 82, 164, 72, 94, 3, 0.679018
94, 1, wb, filler, NA, 999, 999, 5, 24, 57, 181, 82, 164, 72, 94, 2, 0.49082
94, 1, wb, filler, NA, 999, 999, 5, 25, 178, 164, 70, 107, 77, 136, 2, 0.596681
94, 1, wb, filler, NA, 999, 999, 5, 25, 178, 164, 70, 107, 77, 136, 1, 0.307761
94, 1, wb, attraction, a-b-db, 14, 1, 5, 26, 56, 125, 60, 135, 135, 60, 1, 1.31681
94, 1, wb, attraction, a-b-db, 14, 1, 5, 26, 56, 125, 60, 135, 135, 60, 3, 0.415115
94, 1, wb, filler, NA, 999, 999, 5, 27, 137, 178, 139, 108, 66, 108, 3, 0.652283
94, 1, wb, filler, NA, 999, 999, 5, 27, 137, 178, 139, 108, 66, 108, 1, 0.273487
94, 1, wb, attraction, a-b-db, 9, 2, 5, 28, 90, 165, 86, 157, 165, 90, 2, 1.4839
94, 1, wb, attraction, a-b-db, 9, 2, 5, 28, 90, 165, 86, 157, 165, 90, 1, 0.615418
94, 1, wb, attraction, a-b-da, 9, 2, 5, 29, 165, 90, 90, 165, 157, 86, 2, 1.21249
94, 1, wb, attraction, a-b-da, 9, 2, 5, 29, 165, 90, 90, 165, 157, 86, 1, 0.434743
94, 1, wb, attraction, a-b-da, 14, 1, 5, 30, 135, 60, 125, 56, 60, 135, 2, 0.711243
94, 1, wb, attraction, a-b-da, 14, 1, 5, 30, 135, 60, 125, 56, 60, 135, 1, 0.281642
94, 1, wb, filler, NA, 999, 999, 5, 31, 134, 133, 163, 100, 83, 195, 2, 0.484166
94, 1, wb, filler, NA, 999, 999, 5, 31, 134, 133, 163, 100, 83, 195, 1, 0.471975
94, 1, wb, attraction, a-b-da, 2, 2, 5, 32, 90, 165, 165, 90, 163, 89, 2, 1.18716
94, 1, wb, attraction, a-b-da, 2, 2, 5, 32, 90, 165, 165, 90, 163, 89, 1, 0.162684
94, 1, wb, attraction, a-b-da, 2, 1, 5, 33, 135, 60, 134, 59, 60, 135, 3, 0.857945
94, 1, wb, attraction, a-b-da, 2, 1, 5, 33, 135, 60, 134, 59, 60, 135, 1, 0.318295
94, 1, wb, attraction, a-b-db, 9, 3, 5, 34, 120, 195, 195, 120, 114, 186, 2, 0.967457
94, 1, wb, attraction, a-b-db, 9, 3, 5, 34, 120, 195, 195, 120, 114, 186, 1, 0.239838
94, 1, wb, attraction, a-b-da, 5, 1, 5, 35, 132, 58, 60, 135, 135, 60, 3, 1.09969
94, 1, wb, attraction, a-b-da, 5, 1, 5, 35, 132, 58, 60, 135, 135, 60, 1, 0.446562
94, 1, wb, catch, NA, 999, 999, 5, 36, 149, 166, 93, 162, 69, 126, 3, 0.554546
94, 1, wb, catch, NA, 999, 999, 5, 36, 149, 166, 93, 162, 69, 126, 1, 0.314943
94, 1, wb, attraction, a-b-db, 14, 3, 5, 37, 111, 181, 120, 195, 195, 120, 3, 1.42005
94, 1, wb, attraction, a-b-db, 14, 3, 5, 37, 111, 181, 120, 195, 195, 120, 2, 0.58626
94, 1, wb, filler, NA, 999, 999, 6, 1, 193, 114, 151, 88, 88, 165, 2, 0.768747
94, 1, wb, filler, NA, 999, 999, 6, 1, 193, 114, 151, 88, 88, 165, 1, 0.225224
94, 1, wb, attraction, a-b-db, 9, 2, 6, 2, 90, 165, 86, 157, 165, 90, 2, 0.725651
94, 1, wb, attraction, a-b-db, 9, 2, 6, 2, 90, 165, 86, 157, 165, 90, 1, 0.279408
94, 1, wb, filler, NA, 999, 999, 6, 3, 114, 102, 138, 57, 137, 57, 3, 1.08201
94, 1, wb, filler, NA, 999, 999, 6, 3, 114, 102, 138, 57, 137, 57, 1, 0.317569
94, 1, wb, filler, NA, 999, 999, 6, 4, 126, 115, 94, 85, 104, 128, 2, 0.630784
94, 1, wb, filler, NA, 999, 999, 6, 4, 126, 115, 94, 85, 104, 128, 1, 0.212477
94, 1, wb, attraction, a-b-db, 14, 3, 6, 5, 120, 195, 111, 181, 195, 120, 3, 1.07367
94, 1, wb, attraction, a-b-db, 14, 3, 6, 5, 120, 195, 111, 181, 195, 120, 1, 0.325322
94, 1, wb, attraction, a-b-db, 5, 3, 6, 6, 117, 190, 120, 195, 195, 120, 2, 1.18198
94, 1, wb, attraction, a-b-db, 5, 3, 6, 6, 117, 190, 120, 195, 195, 120, 3, 0.2216
94, 1, wb, attraction, a-b-da, 14, 2, 6, 7, 90, 165, 165, 90, 153, 83, 3, 0.8907
94, 1, wb, attraction, a-b-da, 14, 2, 6, 7, 90, 165, 165, 90, 153, 83, 1, 0.565693
94, 1, wb, catch, NA, 999, 999, 6, 8, 140, 115, 109, 86, 168, 147, 2, 0.50084
94, 1, wb, catch, NA, 999, 999, 6, 8, 140, 115, 109, 86, 168, 147, 3, 0.232074
94, 1, wb, attraction, a-b-da, 9, 3, 6, 9, 195, 120, 120, 195, 186, 114, 3, 0.820448
94, 1, wb, attraction, a-b-da, 9, 3, 6, 9, 195, 120, 120, 195, 186, 114, 2, 0.666986
94, 1, wb, filler, NA, 999, 999, 6, 10, 131, 175, 86, 85, 67, 103, 3, 0.61396
94, 1, wb, filler, NA, 999, 999, 6, 10, 131, 175, 86, 85, 67, 103, 1, 0.348474
94, 1, wb, attraction, a-b-db, 2, 2, 6, 11, 89, 163, 90, 165, 165, 90, 1, 1.53227
94, 1, wb, attraction, a-b-db, 2, 2, 6, 11, 89, 163, 90, 165, 165, 90, 3, 0.373722
94, 1, wb, catch, NA, 999, 999, 6, 12, 106, 89, 112, 143, 136, 179, 1, 0.524209
94, 1, wb, catch, NA, 999, 999, 6, 12, 106, 89, 112, 143, 136, 179, 3, 0.24597
94, 1, wb, attraction, a-b-db, 2, 1, 6, 13, 60, 135, 59, 134, 135, 60, 1, 0.937869
94, 1, wb, attraction, a-b-db, 2, 1, 6, 13, 60, 135, 59, 134, 135, 60, 3, 0.466897
94, 1, wb, attraction, a-b-db, 2, 3, 6, 14, 119, 193, 195, 120, 120, 195, 1, 1.63815
94, 1, wb, attraction, a-b-db, 2, 3, 6, 14, 119, 193, 195, 120, 120, 195, 3, 3.56348
94, 1, wb, filler, NA, 999, 999, 6, 15, 154, 148, 148, 74, 146, 190, 2, 0.609595
94, 1, wb, filler, NA, 999, 999, 6, 15, 154, 148, 148, 74, 146, 190, 3, 0.81605
94, 1, wb, attraction, a-b-da, 14, 1, 6, 16, 135, 60, 125, 56, 60, 135, 1, 4.92513
94, 1, wb, attraction, a-b-da, 14, 1, 6, 16, 135, 60, 125, 56, 60, 135, 3, 1.23768
94, 1, wb, attraction, a-b-da, 2, 3, 6, 17, 120, 195, 193, 119, 195, 120, 3, 1.12985
94, 1, wb, attraction, a-b-da, 2, 3, 6, 17, 120, 195, 193, 119, 195, 120, 1, 0.643477
94, 1, wb, attraction, a-b-da, 2, 1, 6, 18, 60, 135, 134, 59, 135, 60, 2, 0.991268
94, 1, wb, attraction, a-b-da, 2, 1, 6, 18, 60, 135, 134, 59, 135, 60, 1, 0.566165
94, 1, wb, attraction, a-b-db, 14, 1, 6, 19, 60, 135, 56, 125, 135, 60, 2, 0.789268
94, 1, wb, attraction, a-b-db, 14, 1, 6, 19, 60, 135, 56, 125, 135, 60, 1, 0.484449
94, 1, wb, attraction, a-b-db, 5, 1, 6, 20, 58, 132, 135, 60, 60, 135, 2, 0.942711
94, 1, wb, attraction, a-b-db, 5, 1, 6, 20, 58, 132, 135, 60, 60, 135, 3, 0.663859
94, 1, wb, filler, NA, 999, 999, 6, 21, 117, 182, 163, 71, 160, 163, 2, 0.6668
94, 1, wb, filler, NA, 999, 999, 6, 21, 117, 182, 163, 71, 160, 163, 3, 0.943331
94, 1, wb, filler, NA, 999, 999, 6, 22, 174, 100, 67, 143, 69, 75, 3, 0.615013
94, 1, wb, filler, NA, 999, 999, 6, 22, 174, 100, 67, 143, 69, 75, 1, 0.373389
94, 1, wb, attraction, a-b-db, 9, 1, 6, 23, 57, 129, 60, 135, 135, 60, 1, 1.19586
94, 1, wb, attraction, a-b-db, 9, 1, 6, 23, 57, 129, 60, 135, 135, 60, 3, 0.47479
94, 1, wb, filler, NA, 999, 999, 6, 24, 93, 85, 195, 154, 172, 173, 1, 0.493209
94, 1, wb, filler, NA, 999, 999, 6, 24, 93, 85, 195, 154, 172, 173, 2, 0.40843
94, 1, wb, attraction, a-b-da, 14, 3, 6, 25, 181, 111, 120, 195, 195, 120, 1, 1.82956
94, 1, wb, attraction, a-b-da, 14, 3, 6, 25, 181, 111, 120, 195, 195, 120, 2, 0.5389
94, 1, wb, filler, NA, 999, 999, 6, 26, 187, 107, 135, 163, 94, 140, 3, 0.819381
94, 1, wb, filler, NA, 999, 999, 6, 26, 187, 107, 135, 163, 94, 140, 1, 0.697732
94, 1, wb, catch, NA, 999, 999, 6, 27, 67, 128, 141, 174, 163, 92, 1, 0.963493
94, 1, wb, catch, NA, 999, 999, 6, 27, 67, 128, 141, 174, 163, 92, 2, 0.395815
94, 1, wb, filler, NA, 999, 999, 6, 28, 85, 153, 143, 73, 167, 142, 1, 1.41755
94, 1, wb, filler, NA, 999, 999, 6, 28, 85, 153, 143, 73, 167, 142, 3, 0.29577
94, 1, wb, attraction, a-b-da, 5, 1, 6, 29, 135, 60, 60, 135, 132, 58, 2, 3.4258
94, 1, wb, attraction, a-b-da, 5, 1, 6, 29, 135, 60, 60, 135, 132, 58, 3, 0.670596
94, 1, wb, attraction, a-b-db, 5, 2, 6, 30, 88, 161, 90, 165, 165, 90, 2, 0.833663
94, 1, wb, attraction, a-b-db, 5, 2, 6, 30, 88, 161, 90, 165, 165, 90, 3, 0.839334
94, 1, wb, attraction, a-b-db, 14, 2, 6, 31, 90, 165, 165, 90, 83, 153, 2, 2.01977
94, 1, wb, attraction, a-b-db, 14, 2, 6, 31, 90, 165, 165, 90, 83, 153, 1, 0.633646
94, 1, wb, attraction, a-b-da, 9, 1, 6, 32, 129, 57, 135, 60, 60, 135, 2, 1.89411
94, 1, wb, attraction, a-b-da, 9, 1, 6, 32, 129, 57, 135, 60, 60, 135, 3, 0.432849
94, 1, wb, attraction, a-b-da, 9, 2, 6, 33, 165, 90, 157, 86, 90, 165, 2, 1.02935
94, 1, wb, attraction, a-b-da, 9, 2, 6, 33, 165, 90, 157, 86, 90, 165, 3, 0.403115
94, 1, wb, attraction, a-b-db, 9, 3, 6, 34, 195, 120, 114, 186, 120, 195, 1, 2.67286
94, 1, wb, attraction, a-b-db, 9, 3, 6, 34, 195, 120, 114, 186, 120, 195, 2, 0.491894
94, 1, wb, attraction, a-b-da, 2, 2, 6, 35, 165, 90, 90, 165, 163, 89, 3, 0.781718
94, 1, wb, attraction, a-b-da, 2, 2, 6, 35, 165, 90, 90, 165, 163, 89, 1, 0.429366
94, 1, wb, attraction, a-b-da, 5, 2, 6, 36, 90, 165, 165, 90, 161, 88, 2, 0.825929
94, 1, wb, attraction, a-b-da, 5, 2, 6, 36, 90, 165, 165, 90, 161, 88, 1, 0.375588
94, 1, wb, attraction, a-b-da, 5, 3, 6, 37, 195, 120, 190, 117, 120, 195, 2, 0.950188
94, 1, wb, attraction, a-b-da, 5, 3, 6, 37, 195, 120, 190, 117, 120, 195, 3, 0.735236
94, 1, wb, attraction, a-b-da, 5, 2, 7, 1, 90, 165, 161, 88, 165, 90, 2, 0.687481
94, 1, wb, attraction, a-b-da, 5, 2, 7, 1, 90, 165, 161, 88, 165, 90, 3, 0.4112
94, 1, wb, filler, NA, 999, 999, 7, 2, 195, 183, 112, 94, 188, 143, 2, 0.592286
94, 1, wb, filler, NA, 999, 999, 7, 2, 195, 183, 112, 94, 188, 143, 1, 0.455479
94, 1, wb, attraction, a-b-db, 14, 2, 7, 3, 83, 153, 90, 165, 165, 90, 1, 1.02747
94, 1, wb, attraction, a-b-db, 14, 2, 7, 3, 83, 153, 90, 165, 165, 90, 3, 0.753078
94, 1, wb, attraction, a-b-db, 9, 3, 7, 4, 120, 195, 195, 120, 114, 186, 2, 1.5126
94, 1, wb, attraction, a-b-db, 9, 3, 7, 4, 120, 195, 195, 120, 114, 186, 1, 0.44297
94, 1, wb, filler, NA, 999, 999, 7, 5, 60, 180, 186, 174, 133, 174, 1, 0.686736
94, 1, wb, filler, NA, 999, 999, 7, 5, 60, 180, 186, 174, 133, 174, 2, 0.322397
94, 1, wb, attraction, a-b-db, 14, 3, 7, 6, 195, 120, 120, 195, 111, 181, 3, 1.11574
94, 1, wb, attraction, a-b-db, 14, 3, 7, 6, 195, 120, 120, 195, 111, 181, 2, 1.13403
94, 1, wb, attraction, a-b-db, 2, 1, 7, 7, 60, 135, 59, 134, 135, 60, 1, 0.830098
94, 1, wb, attraction, a-b-db, 2, 1, 7, 7, 60, 135, 59, 134, 135, 60, 2, 0.467998
94, 1, wb, attraction, a-b-da, 14, 2, 7, 8, 90, 165, 165, 90, 153, 83, 2, 1.15107
94, 1, wb, attraction, a-b-da, 14, 2, 7, 8, 90, 165, 165, 90, 153, 83, 1, 1.24802
94, 1, wb, attraction, a-b-da, 5, 3, 7, 9, 195, 120, 190, 117, 120, 195, 2, 1.18744
94, 1, wb, attraction, a-b-da, 5, 3, 7, 9, 195, 120, 190, 117, 120, 195, 3, 0.443664
94, 1, wb, attraction, a-b-da, 2, 3, 7, 10, 120, 195, 193, 119, 195, 120, 2, 0.990955
94, 1, wb, attraction, a-b-da, 2, 3, 7, 10, 120, 195, 193, 119, 195, 120, 1, 0.621882
94, 1, wb, attraction, a-b-db, 14, 1, 7, 11, 56, 125, 60, 135, 135, 60, 1, 1.37109
94, 1, wb, attraction, a-b-db, 14, 1, 7, 11, 56, 125, 60, 135, 135, 60, 3, 0.683199
94, 1, wb, filler, NA, 999, 999, 7, 12, 111, 150, 149, 99, 187, 60, 3, 2.93359
94, 1, wb, filler, NA, 999, 999, 7, 12, 111, 150, 149, 99, 187, 60, 1, 0.838677
94, 1, wb, filler, NA, 999, 999, 7, 13, 168, 116, 72, 61, 67, 121, 2, 1.115
94, 1, wb, filler, NA, 999, 999, 7, 13, 168, 116, 72, 61, 67, 121, 1, 1.33328
94, 1, wb, attraction, a-b-da, 2, 2, 7, 14, 163, 89, 90, 165, 165, 90, 1, 2.32546
94, 1, wb, attraction, a-b-da, 2, 2, 7, 14, 163, 89, 90, 165, 165, 90, 2, 0.950782
94, 1, wb, attraction, a-b-db, 9, 2, 7, 15, 90, 165, 86, 157, 165, 90, 1, 2.12647
94, 1, wb, attraction, a-b-db, 9, 2, 7, 15, 90, 165, 86, 157, 165, 90, 3, 1.23174
94, 1, wb, attraction, a-b-da, 5, 1, 7, 16, 135, 60, 132, 58, 60, 135, 2, 0.716006
94, 1, wb, attraction, a-b-da, 5, 1, 7, 16, 135, 60, 132, 58, 60, 135, 3, 1.27845
94, 1, wb, attraction, a-b-db, 5, 2, 7, 17, 88, 161, 90, 165, 165, 90, 3, 1.32848
94, 1, wb, attraction, a-b-db, 5, 2, 7, 17, 88, 161, 90, 165, 165, 90, 1, 0.746132
94, 1, wb, attraction, a-b-da, 9, 3, 7, 18, 195, 120, 186, 114, 120, 195, 2, 6.12183
94, 1, wb, attraction, a-b-da, 9, 3, 7, 18, 195, 120, 186, 114, 120, 195, 3, 0.682613
94, 1, wb, filler, NA, 999, 999, 7, 19, 79, 150, 173, 178, 169, 76, 1, 4.30899
94, 1, wb, filler, NA, 999, 999, 7, 19, 79, 150, 173, 178, 169, 76, 2, 0.406387
94, 1, wb, filler, NA, 999, 999, 7, 20, 180, 92, 60, 99, 100, 100, 2, 1.37949
94, 1, wb, filler, NA, 999, 999, 7, 20, 180, 92, 60, 99, 100, 100, 1, 0.546826
94, 1, wb, catch, NA, 999, 999, 7, 21, 114, 81, 131, 184, 112, 143, 1, 2.11475
94, 1, wb, catch, NA, 999, 999, 7, 21, 114, 81, 131, 184, 112, 143, 2, 0.508806
94, 1, wb, attraction, a-b-da, 2, 1, 7, 22, 134, 59, 135, 60, 60, 135, 1, 1.39778
94, 1, wb, attraction, a-b-da, 2, 1, 7, 22, 134, 59, 135, 60, 60, 135, 2, 0.668603
94, 1, wb, filler, NA, 999, 999, 7, 23, 130, 152, 149, 135, 56, 158, 3, 1.63179
94, 1, wb, filler, NA, 999, 999, 7, 23, 130, 152, 149, 135, 56, 158, 2, 0.749171
94, 1, wb, attraction, a-b-db, 2, 2, 7, 24, 89, 163, 165, 90, 90, 165, 3, 3.677
94, 1, wb, attraction, a-b-db, 2, 2, 7, 24, 89, 163, 165, 90, 90, 165, 1, 1.91165
94, 1, wb, attraction, a-b-db, 9, 1, 7, 25, 135, 60, 60, 135, 57, 129, 3, 2.51234
94, 1, wb, attraction, a-b-db, 9, 1, 7, 25, 135, 60, 60, 135, 57, 129, 1, 1.13021
94, 1, wb, attraction, a-b-db, 2, 3, 7, 26, 195, 120, 120, 195, 119, 193, 3, 1.62666
94, 1, wb, attraction, a-b-db, 2, 3, 7, 26, 195, 120, 120, 195, 119, 193, 2, 1.47199
94, 1, wb, filler, NA, 999, 999, 7, 27, 78, 136, 133, 63, 141, 173, 2, 1.02677
94, 1, wb, filler, NA, 999, 999, 7, 27, 78, 136, 133, 63, 141, 173, 3, 0.344405
94, 1, wb, attraction, a-b-da, 9, 1, 7, 28, 129, 57, 135, 60, 60, 135, 1, 1.16822
94, 1, wb, attraction, a-b-da, 9, 1, 7, 28, 129, 57, 135, 60, 60, 135, 3, 0.696561
94, 1, wb, attraction, a-b-db, 5, 1, 7, 29, 135, 60, 60, 135, 58, 132, 1, 1.1703
94, 1, wb, attraction, a-b-db, 5, 1, 7, 29, 135, 60, 60, 135, 58, 132, 3, 0.426505
94, 1, wb, filler, NA, 999, 999, 7, 30, 73, 141, 89, 71, 138, 71, 2, 0.782957
94, 1, wb, filler, NA, 999, 999, 7, 30, 73, 141, 89, 71, 138, 71, 1, 0.286692
94, 1, wb, attraction, a-b-db, 5, 3, 7, 31, 195, 120, 117, 190, 120, 195, 3, 0.961319
94, 1, wb, attraction, a-b-db, 5, 3, 7, 31, 195, 120, 117, 190, 120, 195, 1, 0.433545
94, 1, wb, attraction, a-b-da, 14, 3, 7, 32, 181, 111, 195, 120, 120, 195, 3, 3.39008
94, 1, wb, attraction, a-b-da, 14, 3, 7, 32, 181, 111, 195, 120, 120, 195, 2, 0.708342
94, 1, wb, attraction, a-b-da, 14, 1, 7, 33, 135, 60, 60, 135, 125, 56, 2, 1.60552
94, 1, wb, attraction, a-b-da, 14, 1, 7, 33, 135, 60, 60, 135, 125, 56, 1, 1.23559
94, 1, wb, attraction, a-b-da, 9, 2, 7, 34, 157, 86, 165, 90, 90, 165, 3, 2.26372
94, 1, wb, attraction, a-b-da, 9, 2, 7, 34, 157, 86, 165, 90, 90, 165, 1, 0.515727
94, 1, wb, filler, NA, 999, 999, 7, 35, 115, 147, 147, 63, 169, 93, 2, 1.06074
94, 1, wb, filler, NA, 999, 999, 7, 35, 115, 147, 147, 63, 169, 93, 1, 1.94517
94, 1, wb, catch, NA, 999, 999, 7, 36, 165, 150, 64, 131, 156, 99, 2, 1.28048
94, 1, wb, catch, NA, 999, 999, 7, 36, 165, 150, 64, 131, 156, 99, 1, 1.59603
94, 1, wb, catch, NA, 999, 999, 7, 37, 165, 150, 93, 162, 86, 109, 3, 0.66542
94, 1, wb, catch, NA, 999, 999, 7, 37, 165, 150, 93, 162, 86, 109, 1, 0.445892
94, 1, wb, attraction, a-b-da, 5, 1, 8, 1, 60, 135, 132, 58, 135, 60, 2, 1.25774
94, 1, wb, attraction, a-b-da, 5, 1, 8, 1, 60, 135, 132, 58, 135, 60, 1, 0.32589
94, 1, wb, attraction, a-b-db, 14, 1, 8, 2, 135, 60, 60, 135, 56, 125, 3, 1.92647
94, 1, wb, attraction, a-b-db, 14, 1, 8, 2, 135, 60, 60, 135, 56, 125, 1, 0.735799
94, 1, wb, attraction, a-b-da, 5, 3, 8, 3, 195, 120, 120, 195, 190, 117, 3, 0.800162
94, 1, wb, attraction, a-b-da, 5, 3, 8, 3, 195, 120, 120, 195, 190, 117, 1, 0.415167
94, 1, wb, filler, NA, 999, 999, 8, 4, 108, 182, 153, 62, 76, 191, 2, 1.14036
94, 1, wb, filler, NA, 999, 999, 8, 4, 108, 182, 153, 62, 76, 191, 1, 0.205366
94, 1, wb, filler, NA, 999, 999, 8, 5, 188, 57, 77, 95, 63, 71, 3, 0.891173
94, 1, wb, filler, NA, 999, 999, 8, 5, 188, 57, 77, 95, 63, 71, 1, 1.55829
94, 1, wb, filler, NA, 999, 999, 8, 6, 138, 180, 70, 92, 162, 132, 2, 0.764924
94, 1, wb, filler, NA, 999, 999, 8, 6, 138, 180, 70, 92, 162, 132, 3, 0.997519
94, 1, wb, attraction, a-b-db, 2, 1, 8, 7, 60, 135, 59, 134, 135, 60, 2, 1.09913
94, 1, wb, attraction, a-b-db, 2, 1, 8, 7, 60, 135, 59, 134, 135, 60, 1, 1.75815
94, 1, wb, attraction, a-b-db, 14, 3, 8, 8, 120, 195, 195, 120, 111, 181, 3, 1.20487
94, 1, wb, attraction, a-b-db, 14, 3, 8, 8, 120, 195, 195, 120, 111, 181, 1, 0.547145
94, 1, wb, catch, NA, 999, 999, 8, 9, 82, 113, 148, 167, 91, 164, 1, 0.714787
94, 1, wb, catch, NA, 999, 999, 8, 9, 82, 113, 148, 167, 91, 164, 2, 0.309124
94, 1, wb, catch, NA, 999, 999, 8, 10, 151, 164, 108, 87, 100, 155, 2, 0.710341
94, 1, wb, catch, NA, 999, 999, 8, 10, 151, 164, 108, 87, 100, 155, 1, 0.216687
94, 1, wb, attraction, a-b-da, 9, 1, 8, 11, 60, 135, 129, 57, 135, 60, 3, 1.82992
94, 1, wb, attraction, a-b-da, 9, 1, 8, 11, 60, 135, 129, 57, 135, 60, 1, 0.347322
94, 1, wb, attraction, a-b-db, 9, 2, 8, 12, 86, 157, 90, 165, 165, 90, 1, 2.09122
94, 1, wb, attraction, a-b-db, 9, 2, 8, 12, 86, 157, 90, 165, 165, 90, 2, 0.437896
94, 1, wb, attraction, a-b-da, 5, 2, 8, 13, 165, 90, 161, 88, 90, 165, 2, 1.25833
94, 1, wb, attraction, a-b-da, 5, 2, 8, 13, 165, 90, 161, 88, 90, 165, 1, 0.670526
94, 1, wb, attraction, a-b-db, 5, 3, 8, 14, 117, 190, 120, 195, 195, 120, 2, 0.953584
94, 1, wb, attraction, a-b-db, 5, 3, 8, 14, 117, 190, 120, 195, 195, 120, 1, 0.818592
94, 1, wb, attraction, a-b-db, 5, 1, 8, 15, 60, 135, 135, 60, 58, 132, 3, 1.17585
94, 1, wb, attraction, a-b-db, 5, 1, 8, 15, 60, 135, 135, 60, 58, 132, 1, 0.607287
94, 1, wb, filler, NA, 999, 999, 8, 16, 94, 111, 109, 131, 99, 85, 3, 2.06051
94, 1, wb, filler, NA, 999, 999, 8, 16, 94, 111, 109, 131, 99, 85, 2, 1.17644
94, 1, wb, attraction, a-b-db, 9, 3, 8, 17, 120, 195, 114, 186, 195, 120, 2, 1.19058
94, 1, wb, attraction, a-b-db, 9, 3, 8, 17, 120, 195, 114, 186, 195, 120, 3, 0.773609
94, 1, wb, filler, NA, 999, 999, 8, 18, 186, 80, 183, 100, 186, 128, 1, 0.795848
94, 1, wb, filler, NA, 999, 999, 8, 18, 186, 80, 183, 100, 186, 128, 3, 0.658935
94, 1, wb, attraction, a-b-db, 2, 3, 8, 19, 195, 120, 120, 195, 119, 193, 3, 1.13401
94, 1, wb, attraction, a-b-db, 2, 3, 8, 19, 195, 120, 120, 195, 119, 193, 2, 0.887637
94, 1, wb, attraction, a-b-da, 9, 3, 8, 20, 186, 114, 120, 195, 195, 120, 1, 0.929953
94, 1, wb, attraction, a-b-da, 9, 3, 8, 20, 186, 114, 120, 195, 195, 120, 2, 0.683606
94, 1, wb, filler, NA, 999, 999, 8, 21, 180, 116, 137, 102, 187, 168, 2, 0.710045
94, 1, wb, filler, NA, 999, 999, 8, 21, 180, 116, 137, 102, 187, 168, 3, 0.440567
94, 1, wb, filler, NA, 999, 999, 8, 22, 164, 69, 140, 121, 112, 104, 3, 2.08437
94, 1, wb, filler, NA, 999, 999, 8, 22, 164, 69, 140, 121, 112, 104, 2, 0.719637
94, 1, wb, attraction, a-b-db, 5, 2, 8, 23, 165, 90, 88, 161, 90, 165, 2, 2.13674
94, 1, wb, attraction, a-b-db, 5, 2, 8, 23, 165, 90, 88, 161, 90, 165, 3, 0.593979
94, 1, wb, attraction, a-b-da, 2, 3, 8, 24, 195, 120, 193, 119, 120, 195, 2, 2.62379
94, 1, wb, attraction, a-b-da, 2, 3, 8, 24, 195, 120, 193, 119, 120, 195, 1, 0.564869
94, 1, wb, filler, NA, 999, 999, 8, 25, 159, 81, 103, 173, 173, 76, 1, 1.55592
94, 1, wb, filler, NA, 999, 999, 8, 25, 159, 81, 103, 173, 173, 76, 2, 0.508083
94, 1, wb, attraction, a-b-da, 14, 3, 8, 26, 120, 195, 181, 111, 195, 120, 2, 2.2692
94, 1, wb, attraction, a-b-da, 14, 3, 8, 26, 120, 195, 181, 111, 195, 120, 3, 0.585206
94, 1, wb, attraction, a-b-db, 2, 2, 8, 27, 89, 163, 90, 165, 165, 90, 2, 1.0477
94, 1, wb, attraction, a-b-db, 2, 2, 8, 27, 89, 163, 90, 165, 165, 90, 3, 1.62864
94, 1, wb, attraction, a-b-da, 14, 2, 8, 28, 153, 83, 90, 165, 165, 90, 2, 0.712716
94, 1, wb, attraction, a-b-da, 14, 2, 8, 28, 153, 83, 90, 165, 165, 90, 3, 0.675061
94, 1, wb, attraction, a-b-db, 9, 1, 8, 29, 60, 135, 135, 60, 57, 129, 2, 1.26152
94, 1, wb, attraction, a-b-db, 9, 1, 8, 29, 60, 135, 135, 60, 57, 129, 3, 0.689723
94, 1, wb, attraction, a-b-da, 2, 1, 8, 30, 134, 59, 135, 60, 60, 135, 2, 0.644094
94, 1, wb, attraction, a-b-da, 2, 1, 8, 30, 134, 59, 135, 60, 60, 135, 1, 1.08934
94, 1, wb, catch, NA, 999, 999, 8, 31, 139, 116, 98, 97, 149, 166, 2, 0.619499
94, 1, wb, catch, NA, 999, 999, 8, 31, 139, 116, 98, 97, 149, 166, 3, 0.298041
94, 1, wb, attraction, a-b-da, 9, 2, 8, 32, 157, 86, 165, 90, 90, 165, 2, 0.835728
94, 1, wb, attraction, a-b-da, 9, 2, 8, 32, 157, 86, 165, 90, 90, 165, 1, 0.825582
94, 1, wb, filler, NA, 999, 999, 8, 33, 140, 66, 187, 81, 57, 102, 3, 0.597904
94, 1, wb, filler, NA, 999, 999, 8, 33, 140, 66, 187, 81, 57, 102, 2, 0.533112
94, 1, wb, attraction, a-b-db, 14, 2, 8, 34, 90, 165, 83, 153, 165, 90, 2, 1.21339
94, 1, wb, attraction, a-b-db, 14, 2, 8, 34, 90, 165, 83, 153, 165, 90, 3, 0.691615
94, 1, wb, filler, NA, 999, 999, 8, 35, 164, 97, 108, 140, 179, 118, 2, 0.669375
94, 1, wb, filler, NA, 999, 999, 8, 35, 164, 97, 108, 140, 179, 118, 3, 0.337874
94, 1, wb, attraction, a-b-da, 14, 1, 8, 36, 125, 56, 60, 135, 135, 60, 2, 0.650364
94, 1, wb, attraction, a-b-da, 14, 1, 8, 36, 125, 56, 60, 135, 135, 60, 3, 0.935467
94, 1, wb, attraction, a-b-da, 2, 2, 8, 37, 163, 89, 90, 165, 165, 90, 2, 0.719731
94, 1, wb, attraction, a-b-da, 2, 2, 8, 37, 163, 89, 90, 165, 165, 90, 1, 0.49014
