sub_n, computer_n, bw_cond, effect, set, distance, diag, block_n, trial_n, h1, w1, h2, w2, h3, w3, choice, rt 
97, 1, bw, practice, NA, 999, 999, 0, 1, 154, 167, 185, 116, 113, 78, 1, 2.19298
97, 1, bw, practice, NA, 999, 999, 0, 1, 154, 167, 185, 116, 113, 78, 3, 2.48877
97, 1, bw, practice, NA, 999, 999, 0, 2, 187, 106, 131, 70, 184, 195, 3, 1.4458
97, 1, bw, practice, NA, 999, 999, 0, 2, 187, 106, 131, 70, 184, 195, 2, 0.78609
97, 1, bw, practice, NA, 999, 999, 0, 3, 139, 56, 99, 124, 194, 82, 3, 1.95938
97, 1, bw, practice, NA, 999, 999, 0, 3, 139, 56, 99, 124, 194, 82, 1, 0.681372
97, 1, bw, attraction, a-b-da, 5, 3, 1, 1, 190, 117, 120, 195, 195, 120, 2, 2.95066
97, 1, bw, attraction, a-b-da, 5, 3, 1, 1, 190, 117, 120, 195, 195, 120, 1, 1.031
97, 1, bw, filler, NA, 999, 999, 1, 2, 130, 77, 58, 65, 107, 151, 3, 0.931308
97, 1, bw, filler, NA, 999, 999, 1, 2, 130, 77, 58, 65, 107, 151, 2, 1.18898
97, 1, bw, filler, NA, 999, 999, 1, 3, 161, 158, 124, 104, 142, 78, 1, 1.07523
97, 1, bw, filler, NA, 999, 999, 1, 3, 161, 158, 124, 104, 142, 78, 3, 0.886824
97, 1, bw, attraction, a-b-db, 2, 3, 1, 4, 119, 193, 195, 120, 120, 195, 2, 1.79321
97, 1, bw, attraction, a-b-db, 2, 3, 1, 4, 119, 193, 195, 120, 120, 195, 1, 0.751929
97, 1, bw, attraction, a-b-db, 9, 3, 1, 5, 195, 120, 114, 186, 120, 195, 1, 1.93561
97, 1, bw, attraction, a-b-db, 9, 3, 1, 5, 195, 120, 114, 186, 120, 195, 2, 0.761072
97, 1, bw, attraction, a-b-db, 2, 1, 1, 6, 135, 60, 59, 134, 60, 135, 1, 2.90396
97, 1, bw, attraction, a-b-db, 2, 1, 1, 6, 135, 60, 59, 134, 60, 135, 2, 0.498426
97, 1, bw, filler, NA, 999, 999, 1, 7, 136, 94, 87, 98, 155, 163, 3, 1.42822
97, 1, bw, filler, NA, 999, 999, 1, 7, 136, 94, 87, 98, 155, 163, 2, 0.409826
97, 1, bw, attraction, a-b-da, 2, 1, 1, 8, 134, 59, 135, 60, 60, 135, 3, 1.81496
97, 1, bw, attraction, a-b-da, 2, 1, 1, 8, 134, 59, 135, 60, 60, 135, 2, 0.412979
97, 1, bw, attraction, a-b-da, 2, 2, 1, 9, 163, 89, 165, 90, 90, 165, 3, 1.49017
97, 1, bw, attraction, a-b-da, 2, 2, 1, 9, 163, 89, 165, 90, 90, 165, 1, 0.501141
97, 1, bw, attraction, a-b-da, 14, 3, 1, 10, 120, 195, 181, 111, 195, 120, 3, 1.49477
97, 1, bw, attraction, a-b-da, 14, 3, 1, 10, 120, 195, 181, 111, 195, 120, 2, 1.04171
97, 1, bw, attraction, a-b-da, 14, 1, 1, 11, 125, 56, 60, 135, 135, 60, 3, 1.9972
97, 1, bw, attraction, a-b-da, 14, 1, 1, 11, 125, 56, 60, 135, 135, 60, 1, 0.516011
97, 1, bw, catch, NA, 999, 999, 1, 12, 179, 136, 62, 133, 151, 104, 1, 1.06894
97, 1, bw, catch, NA, 999, 999, 1, 12, 179, 136, 62, 133, 151, 104, 2, 0.593325
97, 1, bw, filler, NA, 999, 999, 1, 13, 188, 59, 103, 180, 110, 162, 2, 1.44707
97, 1, bw, filler, NA, 999, 999, 1, 13, 188, 59, 103, 180, 110, 162, 1, 0.843932
97, 1, bw, filler, NA, 999, 999, 1, 14, 134, 195, 98, 61, 106, 166, 1, 0.951697
97, 1, bw, filler, NA, 999, 999, 1, 14, 134, 195, 98, 61, 106, 166, 2, 0.504557
97, 1, bw, attraction, a-b-db, 5, 2, 1, 15, 165, 90, 88, 161, 90, 165, 1, 2.74631
97, 1, bw, attraction, a-b-db, 5, 2, 1, 15, 165, 90, 88, 161, 90, 165, 2, 0.402925
97, 1, bw, attraction, a-b-db, 14, 2, 1, 16, 90, 165, 165, 90, 83, 153, 1, 1.30483
97, 1, bw, attraction, a-b-db, 14, 2, 1, 16, 90, 165, 165, 90, 83, 153, 2, 0.394917
97, 1, bw, attraction, a-b-da, 14, 2, 1, 17, 153, 83, 90, 165, 165, 90, 2, 1.48074
97, 1, bw, attraction, a-b-da, 14, 2, 1, 17, 153, 83, 90, 165, 165, 90, 1, 0.580255
97, 1, bw, filler, NA, 999, 999, 1, 18, 126, 72, 120, 64, 56, 148, 1, 1.41066
97, 1, bw, filler, NA, 999, 999, 1, 18, 126, 72, 120, 64, 56, 148, 2, 0.424875
97, 1, bw, attraction, a-b-db, 14, 1, 1, 19, 60, 135, 56, 125, 135, 60, 1, 1.4533
97, 1, bw, attraction, a-b-db, 14, 1, 1, 19, 60, 135, 56, 125, 135, 60, 2, 0.658232
97, 1, bw, filler, NA, 999, 999, 1, 20, 150, 169, 190, 124, 118, 91, 1, 1.50921
97, 1, bw, filler, NA, 999, 999, 1, 20, 150, 169, 190, 124, 118, 91, 3, 0.487903
97, 1, bw, attraction, a-b-da, 9, 3, 1, 21, 195, 120, 186, 114, 120, 195, 3, 1.25787
97, 1, bw, attraction, a-b-da, 9, 3, 1, 21, 195, 120, 186, 114, 120, 195, 2, 0.326076
97, 1, bw, attraction, a-b-db, 5, 3, 1, 22, 117, 190, 120, 195, 195, 120, 2, 1.27859
97, 1, bw, attraction, a-b-db, 5, 3, 1, 22, 117, 190, 120, 195, 195, 120, 1, 0.810111
97, 1, bw, catch, NA, 999, 999, 1, 23, 73, 122, 141, 114, 174, 141, 3, 0.775296
97, 1, bw, catch, NA, 999, 999, 1, 23, 73, 122, 141, 114, 174, 141, 1, 0.523038
97, 1, bw, attraction, a-b-db, 2, 2, 1, 24, 89, 163, 90, 165, 165, 90, 2, 2.02414
97, 1, bw, attraction, a-b-db, 2, 2, 1, 24, 89, 163, 90, 165, 165, 90, 3, 0.82953
97, 1, bw, attraction, a-b-db, 9, 1, 1, 25, 60, 135, 57, 129, 135, 60, 3, 1.20976
97, 1, bw, attraction, a-b-db, 9, 1, 1, 25, 60, 135, 57, 129, 135, 60, 2, 1.09612
97, 1, bw, attraction, a-b-da, 5, 2, 1, 26, 161, 88, 90, 165, 165, 90, 2, 1.97758
97, 1, bw, attraction, a-b-da, 5, 2, 1, 26, 161, 88, 90, 165, 165, 90, 1, 0.569008
97, 1, bw, attraction, a-b-da, 5, 1, 1, 27, 60, 135, 135, 60, 132, 58, 1, 1.53602
97, 1, bw, attraction, a-b-da, 5, 1, 1, 27, 60, 135, 135, 60, 132, 58, 2, 0.793675
97, 1, bw, attraction, a-b-db, 9, 2, 1, 28, 86, 157, 90, 165, 165, 90, 3, 1.51935
97, 1, bw, attraction, a-b-db, 9, 2, 1, 28, 86, 157, 90, 165, 165, 90, 1, 0.953401
97, 1, bw, attraction, a-b-da, 9, 2, 1, 29, 90, 165, 157, 86, 165, 90, 1, 1.36911
97, 1, bw, attraction, a-b-da, 9, 2, 1, 29, 90, 165, 157, 86, 165, 90, 2, 0.577353
97, 1, bw, attraction, a-b-da, 2, 3, 1, 30, 120, 195, 195, 120, 193, 119, 2, 1.29563
97, 1, bw, attraction, a-b-da, 2, 3, 1, 30, 120, 195, 195, 120, 193, 119, 1, 1.2826
97, 1, bw, filler, NA, 999, 999, 1, 31, 82, 109, 158, 99, 151, 74, 2, 0.964883
97, 1, bw, filler, NA, 999, 999, 1, 31, 82, 109, 158, 99, 151, 74, 1, 0.589138
97, 1, bw, filler, NA, 999, 999, 1, 32, 85, 143, 118, 99, 124, 144, 3, 0.987555
97, 1, bw, filler, NA, 999, 999, 1, 32, 85, 143, 118, 99, 124, 144, 2, 0.419188
97, 1, bw, attraction, a-b-da, 9, 1, 1, 33, 135, 60, 129, 57, 60, 135, 3, 1.59239
97, 1, bw, attraction, a-b-da, 9, 1, 1, 33, 135, 60, 129, 57, 60, 135, 2, 0.495136
97, 1, bw, filler, NA, 999, 999, 1, 34, 187, 65, 56, 75, 138, 107, 3, 1.24895
97, 1, bw, filler, NA, 999, 999, 1, 34, 187, 65, 56, 75, 138, 107, 2, 0.501886
97, 1, bw, catch, NA, 999, 999, 1, 35, 135, 120, 187, 128, 80, 115, 2, 1.03164
97, 1, bw, catch, NA, 999, 999, 1, 35, 135, 120, 187, 128, 80, 115, 3, 0.493385
97, 1, bw, attraction, a-b-db, 14, 3, 1, 36, 111, 181, 120, 195, 195, 120, 2, 4.1192
97, 1, bw, attraction, a-b-db, 14, 3, 1, 36, 111, 181, 120, 195, 195, 120, 1, 0.648408
97, 1, bw, attraction, a-b-db, 5, 1, 1, 37, 58, 132, 135, 60, 60, 135, 3, 1.18827
97, 1, bw, attraction, a-b-db, 5, 1, 1, 37, 58, 132, 135, 60, 60, 135, 2, 0.683254
97, 1, bw, attraction, a-b-da, 14, 1, 2, 1, 60, 135, 125, 56, 135, 60, 1, 1.15763
97, 1, bw, attraction, a-b-da, 14, 1, 2, 1, 60, 135, 125, 56, 135, 60, 2, 0.549855
97, 1, bw, filler, NA, 999, 999, 2, 2, 68, 101, 63, 79, 93, 185, 3, 1.17367
97, 1, bw, filler, NA, 999, 999, 2, 2, 68, 101, 63, 79, 93, 185, 2, 1.3492
97, 1, bw, attraction, a-b-da, 9, 2, 2, 3, 165, 90, 90, 165, 157, 86, 2, 0.684707
97, 1, bw, attraction, a-b-da, 9, 2, 2, 3, 165, 90, 90, 165, 157, 86, 3, 0.416497
97, 1, bw, catch, NA, 999, 999, 2, 4, 124, 191, 119, 136, 70, 125, 1, 0.573638
97, 1, bw, catch, NA, 999, 999, 2, 4, 124, 191, 119, 136, 70, 125, 3, 0.653464
97, 1, bw, attraction, a-b-db, 9, 3, 2, 5, 195, 120, 114, 186, 120, 195, 3, 1.5133
97, 1, bw, attraction, a-b-db, 9, 3, 2, 5, 195, 120, 114, 186, 120, 195, 2, 0.363385
97, 1, bw, attraction, a-b-da, 2, 2, 2, 6, 90, 165, 163, 89, 165, 90, 1, 1.37849
97, 1, bw, attraction, a-b-da, 2, 2, 2, 6, 90, 165, 163, 89, 165, 90, 2, 0.546142
97, 1, bw, attraction, a-b-db, 5, 3, 2, 7, 117, 190, 195, 120, 120, 195, 1, 1.23387
97, 1, bw, attraction, a-b-db, 5, 3, 2, 7, 117, 190, 195, 120, 120, 195, 2, 0.58336
97, 1, bw, attraction, a-b-db, 2, 3, 2, 8, 120, 195, 195, 120, 119, 193, 1, 1.51001
97, 1, bw, attraction, a-b-db, 2, 3, 2, 8, 120, 195, 195, 120, 119, 193, 2, 0.408006
97, 1, bw, filler, NA, 999, 999, 2, 9, 100, 191, 57, 57, 175, 140, 3, 1.13307
97, 1, bw, filler, NA, 999, 999, 2, 9, 100, 191, 57, 57, 175, 140, 2, 0.814792
97, 1, bw, filler, NA, 999, 999, 2, 10, 85, 71, 162, 67, 109, 74, 2, 0.76387
97, 1, bw, filler, NA, 999, 999, 2, 10, 85, 71, 162, 67, 109, 74, 1, 0.420128
97, 1, bw, attraction, a-b-db, 9, 1, 2, 11, 57, 129, 135, 60, 60, 135, 2, 1.47326
97, 1, bw, attraction, a-b-db, 9, 1, 2, 11, 57, 129, 135, 60, 60, 135, 1, 0.501053
97, 1, bw, attraction, a-b-da, 5, 1, 2, 12, 135, 60, 60, 135, 132, 58, 1, 0.79877
97, 1, bw, attraction, a-b-da, 5, 1, 2, 12, 135, 60, 60, 135, 132, 58, 3, 1.16584
97, 1, bw, attraction, a-b-db, 14, 1, 2, 13, 60, 135, 56, 125, 135, 60, 3, 1.02859
97, 1, bw, attraction, a-b-db, 14, 1, 2, 13, 60, 135, 56, 125, 135, 60, 2, 0.754361
97, 1, bw, attraction, a-b-db, 14, 2, 2, 14, 90, 165, 165, 90, 83, 153, 1, 0.921942
97, 1, bw, attraction, a-b-db, 14, 2, 2, 14, 90, 165, 165, 90, 83, 153, 2, 0.371629
97, 1, bw, filler, NA, 999, 999, 2, 15, 119, 142, 61, 153, 165, 90, 1, 1.59491
97, 1, bw, filler, NA, 999, 999, 2, 15, 119, 142, 61, 153, 165, 90, 2, 0.577721
97, 1, bw, filler, NA, 999, 999, 2, 16, 148, 95, 163, 126, 80, 132, 2, 0.856006
97, 1, bw, filler, NA, 999, 999, 2, 16, 148, 95, 163, 126, 80, 132, 3, 0.516339
97, 1, bw, attraction, a-b-db, 14, 3, 2, 17, 195, 120, 120, 195, 111, 181, 2, 1.24548
97, 1, bw, attraction, a-b-db, 14, 3, 2, 17, 195, 120, 120, 195, 111, 181, 3, 0.610497
97, 1, bw, filler, NA, 999, 999, 2, 18, 86, 75, 143, 194, 163, 146, 2, 0.815587
97, 1, bw, filler, NA, 999, 999, 2, 18, 86, 75, 143, 194, 163, 146, 1, 2.31791
97, 1, bw, attraction, a-b-db, 9, 2, 2, 19, 165, 90, 86, 157, 90, 165, 1, 0.950402
97, 1, bw, attraction, a-b-db, 9, 2, 2, 19, 165, 90, 86, 157, 90, 165, 2, 0.503494
97, 1, bw, filler, NA, 999, 999, 2, 20, 172, 65, 99, 161, 93, 160, 3, 1.59328
97, 1, bw, filler, NA, 999, 999, 2, 20, 172, 65, 99, 161, 93, 160, 1, 0.728015
97, 1, bw, attraction, a-b-db, 5, 1, 2, 21, 58, 132, 60, 135, 135, 60, 3, 1.67252
97, 1, bw, attraction, a-b-db, 5, 1, 2, 21, 58, 132, 60, 135, 135, 60, 2, 0.819824
97, 1, bw, filler, NA, 999, 999, 2, 22, 175, 102, 117, 145, 98, 72, 2, 1.06488
97, 1, bw, filler, NA, 999, 999, 2, 22, 175, 102, 117, 145, 98, 72, 3, 0.397197
97, 1, bw, attraction, a-b-da, 2, 3, 2, 23, 120, 195, 195, 120, 193, 119, 1, 2.30705
97, 1, bw, attraction, a-b-da, 2, 3, 2, 23, 120, 195, 195, 120, 193, 119, 2, 0.460894
97, 1, bw, attraction, a-b-db, 2, 1, 2, 24, 59, 134, 135, 60, 60, 135, 2, 2.11211
97, 1, bw, attraction, a-b-db, 2, 1, 2, 24, 59, 134, 135, 60, 60, 135, 1, 1.34608
97, 1, bw, attraction, a-b-da, 9, 1, 2, 25, 60, 135, 129, 57, 135, 60, 3, 1.69749
97, 1, bw, attraction, a-b-da, 9, 1, 2, 25, 60, 135, 129, 57, 135, 60, 2, 0.559666
97, 1, bw, attraction, a-b-da, 5, 3, 2, 26, 190, 117, 195, 120, 120, 195, 2, 0.827518
97, 1, bw, attraction, a-b-da, 5, 3, 2, 26, 190, 117, 195, 120, 120, 195, 1, 1.48925
97, 1, bw, attraction, a-b-da, 14, 2, 2, 27, 153, 83, 165, 90, 90, 165, 3, 2.86736
97, 1, bw, attraction, a-b-da, 14, 2, 2, 27, 153, 83, 165, 90, 90, 165, 1, 1.25355
97, 1, bw, attraction, a-b-db, 2, 2, 2, 28, 165, 90, 90, 165, 89, 163, 2, 1.43455
97, 1, bw, attraction, a-b-db, 2, 2, 2, 28, 165, 90, 90, 165, 89, 163, 1, 0.880188
97, 1, bw, attraction, a-b-da, 14, 3, 2, 29, 120, 195, 195, 120, 181, 111, 1, 1.77045
97, 1, bw, attraction, a-b-da, 14, 3, 2, 29, 120, 195, 195, 120, 181, 111, 2, 0.490566
97, 1, bw, attraction, a-b-db, 5, 2, 2, 30, 88, 161, 90, 165, 165, 90, 2, 3.37227
97, 1, bw, attraction, a-b-db, 5, 2, 2, 30, 88, 161, 90, 165, 165, 90, 1, 0.475194
97, 1, bw, catch, NA, 999, 999, 2, 31, 71, 124, 151, 164, 125, 130, 2, 0.837655
97, 1, bw, catch, NA, 999, 999, 2, 31, 71, 124, 151, 164, 125, 130, 1, 0.675435
97, 1, bw, attraction, a-b-da, 5, 2, 2, 32, 165, 90, 161, 88, 90, 165, 3, 1.14981
97, 1, bw, attraction, a-b-da, 5, 2, 2, 32, 165, 90, 161, 88, 90, 165, 2, 0.470789
97, 1, bw, catch, NA, 999, 999, 2, 33, 120, 135, 130, 65, 124, 191, 3, 0.689852
97, 1, bw, catch, NA, 999, 999, 2, 33, 120, 135, 130, 65, 124, 191, 2, 0.645026
97, 1, bw, filler, NA, 999, 999, 2, 34, 113, 127, 90, 166, 57, 155, 2, 0.888753
97, 1, bw, filler, NA, 999, 999, 2, 34, 113, 127, 90, 166, 57, 155, 3, 0.483732
97, 1, bw, attraction, a-b-da, 2, 1, 2, 35, 134, 59, 60, 135, 135, 60, 2, 2.19821
97, 1, bw, attraction, a-b-da, 2, 1, 2, 35, 134, 59, 60, 135, 135, 60, 3, 0.468836
97, 1, bw, attraction, a-b-da, 9, 3, 2, 36, 186, 114, 120, 195, 195, 120, 2, 1.4561
97, 1, bw, attraction, a-b-da, 9, 3, 2, 36, 186, 114, 120, 195, 195, 120, 1, 0.460089
97, 1, bw, filler, NA, 999, 999, 2, 37, 122, 87, 157, 178, 67, 74, 2, 0.703209
97, 1, bw, filler, NA, 999, 999, 2, 37, 122, 87, 157, 178, 67, 74, 3, 0.450417
97, 1, bw, filler, NA, 999, 999, 3, 1, 137, 195, 86, 58, 75, 162, 1, 0.662183
97, 1, bw, filler, NA, 999, 999, 3, 1, 137, 195, 86, 58, 75, 162, 2, 0.618548
97, 1, bw, filler, NA, 999, 999, 3, 2, 68, 163, 115, 61, 83, 162, 3, 0.631651
97, 1, bw, filler, NA, 999, 999, 3, 2, 68, 163, 115, 61, 83, 162, 2, 0.501415
97, 1, bw, attraction, a-b-da, 2, 3, 3, 3, 195, 120, 120, 195, 193, 119, 2, 2.62322
97, 1, bw, attraction, a-b-da, 2, 3, 3, 3, 195, 120, 120, 195, 193, 119, 3, 0.556599
97, 1, bw, attraction, a-b-db, 9, 1, 3, 4, 57, 129, 135, 60, 60, 135, 3, 1.42756
97, 1, bw, attraction, a-b-db, 9, 1, 3, 4, 57, 129, 135, 60, 60, 135, 2, 0.440954
97, 1, bw, attraction, a-b-da, 2, 1, 3, 5, 134, 59, 135, 60, 60, 135, 3, 2.83681
97, 1, bw, attraction, a-b-da, 2, 1, 3, 5, 134, 59, 135, 60, 60, 135, 1, 0.434056
97, 1, bw, attraction, a-b-da, 5, 2, 3, 6, 165, 90, 161, 88, 90, 165, 3, 1.31835
97, 1, bw, attraction, a-b-da, 5, 2, 3, 6, 165, 90, 161, 88, 90, 165, 1, 0.512642
97, 1, bw, attraction, a-b-db, 5, 2, 3, 7, 90, 165, 88, 161, 165, 90, 1, 1.2738
97, 1, bw, attraction, a-b-db, 5, 2, 3, 7, 90, 165, 88, 161, 165, 90, 3, 0.357396
97, 1, bw, catch, NA, 999, 999, 3, 8, 120, 195, 91, 104, 150, 105, 1, 0.612398
97, 1, bw, catch, NA, 999, 999, 3, 8, 120, 195, 91, 104, 150, 105, 2, 0.530901
97, 1, bw, filler, NA, 999, 999, 3, 9, 108, 192, 190, 176, 94, 137, 2, 0.699346
97, 1, bw, filler, NA, 999, 999, 3, 9, 108, 192, 190, 176, 94, 137, 3, 0.326621
97, 1, bw, filler, NA, 999, 999, 3, 10, 102, 193, 74, 125, 170, 109, 1, 1.5509
97, 1, bw, filler, NA, 999, 999, 3, 10, 102, 193, 74, 125, 170, 109, 2, 0.463798
97, 1, bw, attraction, a-b-db, 9, 3, 3, 11, 120, 195, 195, 120, 114, 186, 1, 1.24288
97, 1, bw, attraction, a-b-db, 9, 3, 3, 11, 120, 195, 195, 120, 114, 186, 2, 0.6798
97, 1, bw, attraction, a-b-da, 14, 1, 3, 12, 135, 60, 125, 56, 60, 135, 1, 1.6342
97, 1, bw, attraction, a-b-da, 14, 1, 3, 12, 135, 60, 125, 56, 60, 135, 2, 0.75166
97, 1, bw, attraction, a-b-db, 14, 1, 3, 13, 60, 135, 56, 125, 135, 60, 1, 1.55939
97, 1, bw, attraction, a-b-db, 14, 1, 3, 13, 60, 135, 56, 125, 135, 60, 2, 0.487646
97, 1, bw, filler, NA, 999, 999, 3, 14, 92, 184, 187, 57, 173, 66, 1, 0.850023
97, 1, bw, filler, NA, 999, 999, 3, 14, 92, 184, 187, 57, 173, 66, 2, 0.535051
97, 1, bw, filler, NA, 999, 999, 3, 15, 169, 166, 133, 174, 175, 119, 1, 1.42344
97, 1, bw, filler, NA, 999, 999, 3, 15, 169, 166, 133, 174, 175, 119, 3, 0.501089
97, 1, bw, attraction, a-b-da, 5, 3, 3, 16, 120, 195, 195, 120, 190, 117, 1, 1.84678
97, 1, bw, attraction, a-b-da, 5, 3, 3, 16, 120, 195, 195, 120, 190, 117, 3, 0.467474
97, 1, bw, catch, NA, 999, 999, 3, 17, 86, 109, 122, 193, 164, 91, 2, 0.726641
97, 1, bw, catch, NA, 999, 999, 3, 17, 86, 109, 122, 193, 164, 91, 1, 0.424392
97, 1, bw, attraction, a-b-db, 5, 1, 3, 18, 60, 135, 135, 60, 58, 132, 1, 1.83685
97, 1, bw, attraction, a-b-db, 5, 1, 3, 18, 60, 135, 135, 60, 58, 132, 2, 0.522242
97, 1, bw, attraction, a-b-da, 14, 3, 3, 19, 195, 120, 120, 195, 181, 111, 2, 1.40332
97, 1, bw, attraction, a-b-da, 14, 3, 3, 19, 195, 120, 120, 195, 181, 111, 3, 0.434313
97, 1, bw, attraction, a-b-db, 14, 3, 3, 20, 111, 181, 120, 195, 195, 120, 3, 2.17483
97, 1, bw, attraction, a-b-db, 14, 3, 3, 20, 111, 181, 120, 195, 195, 120, 1, 0.518025
97, 1, bw, filler, NA, 999, 999, 3, 21, 72, 83, 102, 59, 89, 107, 3, 0.903178
97, 1, bw, filler, NA, 999, 999, 3, 21, 72, 83, 102, 59, 89, 107, 2, 0.618114
97, 1, bw, attraction, a-b-db, 14, 2, 3, 22, 83, 153, 90, 165, 165, 90, 2, 1.14321
97, 1, bw, attraction, a-b-db, 14, 2, 3, 22, 83, 153, 90, 165, 165, 90, 1, 0.408173
97, 1, bw, catch, NA, 999, 999, 3, 23, 178, 137, 69, 126, 129, 126, 1, 0.63737
97, 1, bw, catch, NA, 999, 999, 3, 23, 178, 137, 69, 126, 129, 126, 2, 0.651074
97, 1, bw, attraction, a-b-db, 2, 2, 3, 24, 89, 163, 165, 90, 90, 165, 2, 1.20684
97, 1, bw, attraction, a-b-db, 2, 2, 3, 24, 89, 163, 165, 90, 90, 165, 1, 0.349102
97, 1, bw, attraction, a-b-db, 2, 1, 3, 25, 135, 60, 60, 135, 59, 134, 1, 0.748913
97, 1, bw, attraction, a-b-db, 2, 1, 3, 25, 135, 60, 60, 135, 59, 134, 2, 0.454021
97, 1, bw, attraction, a-b-da, 14, 2, 3, 26, 165, 90, 153, 83, 90, 165, 3, 1.01781
97, 1, bw, attraction, a-b-da, 14, 2, 3, 26, 165, 90, 153, 83, 90, 165, 2, 0.51212
97, 1, bw, attraction, a-b-db, 5, 3, 3, 27, 195, 120, 120, 195, 117, 190, 2, 1.31319
97, 1, bw, attraction, a-b-db, 5, 3, 3, 27, 195, 120, 120, 195, 117, 190, 1, 1.3315
97, 1, bw, filler, NA, 999, 999, 3, 28, 69, 176, 146, 57, 161, 128, 3, 1.32367
97, 1, bw, filler, NA, 999, 999, 3, 28, 69, 176, 146, 57, 161, 128, 2, 0.445388
97, 1, bw, attraction, a-b-da, 5, 1, 3, 29, 60, 135, 135, 60, 132, 58, 1, 3.12895
97, 1, bw, attraction, a-b-da, 5, 1, 3, 29, 60, 135, 135, 60, 132, 58, 2, 0.482481
97, 1, bw, attraction, a-b-db, 9, 2, 3, 30, 165, 90, 86, 157, 90, 165, 1, 1.18843
97, 1, bw, attraction, a-b-db, 9, 2, 3, 30, 165, 90, 86, 157, 90, 165, 2, 0.555507
97, 1, bw, attraction, a-b-da, 9, 1, 3, 31, 129, 57, 60, 135, 135, 60, 2, 1.37112
97, 1, bw, attraction, a-b-da, 9, 1, 3, 31, 129, 57, 60, 135, 135, 60, 3, 1.51559
97, 1, bw, attraction, a-b-db, 2, 3, 3, 32, 119, 193, 195, 120, 120, 195, 1, 1.74025
97, 1, bw, attraction, a-b-db, 2, 3, 3, 32, 119, 193, 195, 120, 120, 195, 2, 0.588893
97, 1, bw, filler, NA, 999, 999, 3, 33, 130, 102, 89, 97, 168, 71, 1, 2.57146
97, 1, bw, filler, NA, 999, 999, 3, 33, 130, 102, 89, 97, 168, 71, 2, 0.49926
97, 1, bw, filler, NA, 999, 999, 3, 34, 110, 96, 104, 168, 108, 133, 2, 0.837012
97, 1, bw, filler, NA, 999, 999, 3, 34, 110, 96, 104, 168, 108, 133, 1, 0.402741
97, 1, bw, attraction, a-b-da, 9, 3, 3, 35, 186, 114, 195, 120, 120, 195, 3, 1.54449
97, 1, bw, attraction, a-b-da, 9, 3, 3, 35, 186, 114, 195, 120, 120, 195, 2, 0.537344
97, 1, bw, attraction, a-b-da, 9, 2, 3, 36, 90, 165, 157, 86, 165, 90, 1, 1.20989
97, 1, bw, attraction, a-b-da, 9, 2, 3, 36, 90, 165, 157, 86, 165, 90, 2, 0.416136
97, 1, bw, attraction, a-b-da, 2, 2, 3, 37, 165, 90, 163, 89, 90, 165, 2, 0.893265
97, 1, bw, attraction, a-b-da, 2, 2, 3, 37, 165, 90, 163, 89, 90, 165, 1, 0.400339
97, 1, bw, filler, NA, 999, 999, 4, 1, 141, 192, 88, 151, 171, 92, 1, 1.43811
97, 1, bw, filler, NA, 999, 999, 4, 1, 141, 192, 88, 151, 171, 92, 2, 0.419597
97, 1, bw, attraction, a-b-db, 5, 2, 4, 2, 165, 90, 90, 165, 88, 161, 2, 1.6247
97, 1, bw, attraction, a-b-db, 5, 2, 4, 2, 165, 90, 90, 165, 88, 161, 3, 0.558711
97, 1, bw, filler, NA, 999, 999, 4, 3, 117, 188, 113, 102, 62, 117, 1, 0.949262
97, 1, bw, filler, NA, 999, 999, 4, 3, 117, 188, 113, 102, 62, 117, 3, 0.566243
97, 1, bw, attraction, a-b-da, 9, 3, 4, 4, 120, 195, 195, 120, 186, 114, 2, 1.65339
97, 1, bw, attraction, a-b-da, 9, 3, 4, 4, 120, 195, 195, 120, 186, 114, 3, 0.778301
97, 1, bw, attraction, a-b-da, 5, 1, 4, 5, 60, 135, 132, 58, 135, 60, 3, 1.36861
97, 1, bw, attraction, a-b-da, 5, 1, 4, 5, 60, 135, 132, 58, 135, 60, 2, 0.616786
97, 1, bw, filler, NA, 999, 999, 4, 6, 132, 173, 191, 113, 68, 148, 1, 2.38987
97, 1, bw, filler, NA, 999, 999, 4, 6, 132, 173, 191, 113, 68, 148, 3, 0.364474
97, 1, bw, attraction, a-b-db, 9, 1, 4, 7, 60, 135, 135, 60, 57, 129, 1, 1.64356
97, 1, bw, attraction, a-b-db, 9, 1, 4, 7, 60, 135, 135, 60, 57, 129, 2, 0.536346
97, 1, bw, attraction, a-b-db, 14, 2, 4, 8, 165, 90, 83, 153, 90, 165, 3, 1.67289
97, 1, bw, attraction, a-b-db, 14, 2, 4, 8, 165, 90, 83, 153, 90, 165, 2, 0.372189
97, 1, bw, catch, NA, 999, 999, 4, 9, 67, 128, 113, 142, 167, 148, 3, 1.06736
97, 1, bw, catch, NA, 999, 999, 4, 9, 67, 128, 113, 142, 167, 148, 1, 0.4879
97, 1, bw, attraction, a-b-db, 9, 2, 4, 10, 90, 165, 86, 157, 165, 90, 2, 1.97811
97, 1, bw, attraction, a-b-db, 9, 2, 4, 10, 90, 165, 86, 157, 165, 90, 3, 0.529512
97, 1, bw, attraction, a-b-da, 14, 2, 4, 11, 153, 83, 165, 90, 90, 165, 3, 1.24207
97, 1, bw, attraction, a-b-da, 14, 2, 4, 11, 153, 83, 165, 90, 90, 165, 1, 0.558868
97, 1, bw, filler, NA, 999, 999, 4, 12, 61, 81, 66, 117, 169, 151, 3, 0.589994
97, 1, bw, filler, NA, 999, 999, 4, 12, 61, 81, 66, 117, 169, 151, 1, 0.685082
97, 1, bw, attraction, a-b-da, 2, 1, 4, 13, 134, 59, 60, 135, 135, 60, 3, 2.81549
97, 1, bw, attraction, a-b-da, 2, 1, 4, 13, 134, 59, 60, 135, 135, 60, 2, 0.533417
97, 1, bw, attraction, a-b-da, 2, 2, 4, 14, 90, 165, 163, 89, 165, 90, 1, 2.39765
97, 1, bw, attraction, a-b-da, 2, 2, 4, 14, 90, 165, 163, 89, 165, 90, 2, 0.452279
97, 1, bw, attraction, a-b-db, 9, 3, 4, 15, 120, 195, 114, 186, 195, 120, 3, 0.928034
97, 1, bw, attraction, a-b-db, 9, 3, 4, 15, 120, 195, 114, 186, 195, 120, 2, 0.329724
97, 1, bw, filler, NA, 999, 999, 4, 16, 191, 156, 76, 140, 110, 100, 1, 0.962295
97, 1, bw, filler, NA, 999, 999, 4, 16, 191, 156, 76, 140, 110, 100, 3, 0.474573
97, 1, bw, attraction, a-b-db, 14, 1, 4, 17, 135, 60, 56, 125, 60, 135, 3, 1.66124
97, 1, bw, attraction, a-b-db, 14, 1, 4, 17, 135, 60, 56, 125, 60, 135, 2, 0.593142
97, 1, bw, filler, NA, 999, 999, 4, 18, 183, 103, 129, 123, 155, 66, 1, 1.26286
97, 1, bw, filler, NA, 999, 999, 4, 18, 183, 103, 129, 123, 155, 66, 3, 0.619199
97, 1, bw, filler, NA, 999, 999, 4, 19, 169, 151, 136, 161, 120, 114, 1, 1.16825
97, 1, bw, filler, NA, 999, 999, 4, 19, 169, 151, 136, 161, 120, 114, 3, 0.576572
97, 1, bw, filler, NA, 999, 999, 4, 20, 138, 184, 190, 122, 87, 136, 2, 2.05498
97, 1, bw, filler, NA, 999, 999, 4, 20, 138, 184, 190, 122, 87, 136, 3, 0.371665
97, 1, bw, attraction, a-b-da, 9, 1, 4, 21, 60, 135, 135, 60, 129, 57, 1, 1.61881
97, 1, bw, attraction, a-b-da, 9, 1, 4, 21, 60, 135, 135, 60, 129, 57, 2, 0.600946
97, 1, bw, attraction, a-b-da, 5, 2, 4, 22, 90, 165, 161, 88, 165, 90, 3, 2.13468
97, 1, bw, attraction, a-b-da, 5, 2, 4, 22, 90, 165, 161, 88, 165, 90, 2, 0.976027
97, 1, bw, catch, NA, 999, 999, 4, 23, 144, 171, 124, 71, 99, 156, 1, 0.814385
97, 1, bw, catch, NA, 999, 999, 4, 23, 144, 171, 124, 71, 99, 156, 3, 0.54073
97, 1, bw, attraction, a-b-da, 14, 1, 4, 24, 60, 135, 135, 60, 125, 56, 1, 1.0444
97, 1, bw, attraction, a-b-da, 14, 1, 4, 24, 60, 135, 135, 60, 125, 56, 3, 0.633502
97, 1, bw, attraction, a-b-da, 5, 3, 4, 25, 120, 195, 195, 120, 190, 117, 3, 1.15786
97, 1, bw, attraction, a-b-da, 5, 3, 4, 25, 120, 195, 195, 120, 190, 117, 1, 0.406208
97, 1, bw, attraction, a-b-db, 14, 3, 4, 26, 195, 120, 111, 181, 120, 195, 3, 1.89202
97, 1, bw, attraction, a-b-db, 14, 3, 4, 26, 195, 120, 111, 181, 120, 195, 2, 0.542663
97, 1, bw, filler, NA, 999, 999, 4, 27, 71, 136, 99, 71, 136, 169, 3, 0.558359
97, 1, bw, filler, NA, 999, 999, 4, 27, 71, 136, 99, 71, 136, 169, 2, 0.518954
97, 1, bw, attraction, a-b-da, 9, 2, 4, 28, 157, 86, 165, 90, 90, 165, 2, 1.31195
97, 1, bw, attraction, a-b-da, 9, 2, 4, 28, 157, 86, 165, 90, 90, 165, 1, 0.666194
97, 1, bw, attraction, a-b-db, 5, 3, 4, 29, 120, 195, 117, 190, 195, 120, 3, 2.69338
97, 1, bw, attraction, a-b-db, 5, 3, 4, 29, 120, 195, 117, 190, 195, 120, 2, 0.839866
97, 1, bw, attraction, a-b-da, 14, 3, 4, 30, 195, 120, 181, 111, 120, 195, 3, 1.77225
97, 1, bw, attraction, a-b-da, 14, 3, 4, 30, 195, 120, 181, 111, 120, 195, 2, 0.875684
97, 1, bw, filler, NA, 999, 999, 4, 31, 119, 58, 93, 134, 127, 168, 3, 0.773876
97, 1, bw, filler, NA, 999, 999, 4, 31, 119, 58, 93, 134, 127, 168, 1, 0.549557
97, 1, bw, attraction, a-b-db, 2, 2, 4, 32, 90, 165, 89, 163, 165, 90, 2, 1.81346
97, 1, bw, attraction, a-b-db, 2, 2, 4, 32, 90, 165, 89, 163, 165, 90, 1, 0.459389
97, 1, bw, attraction, a-b-db, 2, 1, 4, 33, 59, 134, 60, 135, 135, 60, 2, 1.83857
97, 1, bw, attraction, a-b-db, 2, 1, 4, 33, 59, 134, 60, 135, 135, 60, 3, 0.443359
97, 1, bw, attraction, a-b-db, 2, 3, 4, 34, 195, 120, 119, 193, 120, 195, 1, 1.44707
97, 1, bw, attraction, a-b-db, 2, 3, 4, 34, 195, 120, 119, 193, 120, 195, 2, 0.379953
97, 1, bw, attraction, a-b-db, 5, 1, 4, 35, 135, 60, 58, 132, 60, 135, 1, 1.42641
97, 1, bw, attraction, a-b-db, 5, 1, 4, 35, 135, 60, 58, 132, 60, 135, 3, 0.431965
97, 1, bw, attraction, a-b-da, 2, 3, 4, 36, 120, 195, 193, 119, 195, 120, 2, 1.95635
97, 1, bw, attraction, a-b-da, 2, 3, 4, 36, 120, 195, 193, 119, 195, 120, 3, 0.300621
97, 1, bw, catch, NA, 999, 999, 4, 37, 153, 102, 78, 117, 166, 149, 3, 0.918324
97, 1, bw, catch, NA, 999, 999, 4, 37, 153, 102, 78, 117, 166, 149, 2, 1.08865
97, 1, bw, attraction, a-b-da, 14, 2, 5, 1, 153, 83, 90, 165, 165, 90, 2, 1.64086
97, 1, bw, attraction, a-b-da, 14, 2, 5, 1, 153, 83, 90, 165, 165, 90, 1, 1.35784
97, 1, bw, attraction, a-b-da, 2, 2, 5, 2, 163, 89, 165, 90, 90, 165, 3, 2.03655
97, 1, bw, attraction, a-b-da, 2, 2, 5, 2, 163, 89, 165, 90, 90, 165, 2, 0.481908
97, 1, bw, attraction, a-b-db, 9, 3, 5, 3, 120, 195, 114, 186, 195, 120, 3, 2.00444
97, 1, bw, attraction, a-b-db, 9, 3, 5, 3, 120, 195, 114, 186, 195, 120, 1, 0.731049
97, 1, bw, attraction, a-b-da, 2, 3, 5, 4, 195, 120, 193, 119, 120, 195, 3, 2.16334
97, 1, bw, attraction, a-b-da, 2, 3, 5, 4, 195, 120, 193, 119, 120, 195, 1, 1.21129
97, 1, bw, attraction, a-b-db, 2, 2, 5, 5, 89, 163, 90, 165, 165, 90, 2, 2.98424
97, 1, bw, attraction, a-b-db, 2, 2, 5, 5, 89, 163, 90, 165, 165, 90, 3, 0.903383
97, 1, bw, filler, NA, 999, 999, 5, 6, 191, 191, 95, 90, 103, 126, 1, 0.760889
97, 1, bw, filler, NA, 999, 999, 5, 6, 191, 191, 95, 90, 103, 126, 2, 0.521358
97, 1, bw, filler, NA, 999, 999, 5, 7, 86, 112, 95, 184, 152, 146, 3, 1.18639
97, 1, bw, filler, NA, 999, 999, 5, 7, 86, 112, 95, 184, 152, 146, 1, 0.506161
97, 1, bw, attraction, a-b-db, 14, 2, 5, 8, 90, 165, 83, 153, 165, 90, 1, 1.7799
97, 1, bw, attraction, a-b-db, 14, 2, 5, 8, 90, 165, 83, 153, 165, 90, 3, 1.69138
97, 1, bw, filler, NA, 999, 999, 5, 9, 168, 91, 60, 116, 90, 116, 1, 1.03681
97, 1, bw, filler, NA, 999, 999, 5, 9, 168, 91, 60, 116, 90, 116, 2, 0.458405
97, 1, bw, catch, NA, 999, 999, 5, 10, 116, 79, 163, 152, 153, 102, 2, 2.01358
97, 1, bw, catch, NA, 999, 999, 5, 10, 116, 79, 163, 152, 153, 102, 1, 1.14749
97, 1, bw, attraction, a-b-db, 14, 1, 5, 11, 135, 60, 56, 125, 60, 135, 1, 2.4911
97, 1, bw, attraction, a-b-db, 14, 1, 5, 11, 135, 60, 56, 125, 60, 135, 2, 0.429553
97, 1, bw, attraction, a-b-db, 5, 3, 5, 12, 120, 195, 117, 190, 195, 120, 3, 2.34629
97, 1, bw, attraction, a-b-db, 5, 3, 5, 12, 120, 195, 117, 190, 195, 120, 2, 1.53861
97, 1, bw, catch, NA, 999, 999, 5, 13, 155, 160, 134, 121, 88, 107, 1, 1.21875
97, 1, bw, catch, NA, 999, 999, 5, 13, 155, 160, 134, 121, 88, 107, 3, 0.729165
97, 1, bw, catch, NA, 999, 999, 5, 14, 130, 65, 131, 124, 177, 138, 3, 0.913392
97, 1, bw, catch, NA, 999, 999, 5, 14, 130, 65, 131, 124, 177, 138, 1, 0.627907
97, 1, bw, filler, NA, 999, 999, 5, 15, 121, 103, 90, 149, 138, 81, 2, 1.84019
97, 1, bw, filler, NA, 999, 999, 5, 15, 121, 103, 90, 149, 138, 81, 3, 0.556948
97, 1, bw, attraction, a-b-db, 2, 1, 5, 16, 135, 60, 60, 135, 59, 134, 2, 2.89198
97, 1, bw, attraction, a-b-db, 2, 1, 5, 16, 135, 60, 60, 135, 59, 134, 1, 0.438506
97, 1, bw, attraction, a-b-da, 9, 2, 5, 17, 165, 90, 90, 165, 157, 86, 1, 1.27494
97, 1, bw, attraction, a-b-da, 9, 2, 5, 17, 165, 90, 90, 165, 157, 86, 3, 1.08654
97, 1, bw, filler, NA, 999, 999, 5, 18, 61, 57, 170, 148, 60, 98, 2, 0.800772
97, 1, bw, filler, NA, 999, 999, 5, 18, 61, 57, 170, 148, 60, 98, 1, 0.58376
97, 1, bw, attraction, a-b-da, 5, 2, 5, 19, 161, 88, 90, 165, 165, 90, 2, 2.09417
97, 1, bw, attraction, a-b-da, 5, 2, 5, 19, 161, 88, 90, 165, 165, 90, 1, 0.944923
97, 1, bw, attraction, a-b-da, 9, 1, 5, 20, 135, 60, 129, 57, 60, 135, 3, 2.47256
97, 1, bw, attraction, a-b-da, 9, 1, 5, 20, 135, 60, 129, 57, 60, 135, 2, 0.595673
97, 1, bw, filler, NA, 999, 999, 5, 21, 145, 64, 96, 94, 176, 187, 3, 1.42542
97, 1, bw, filler, NA, 999, 999, 5, 21, 145, 64, 96, 94, 176, 187, 2, 0.543085
97, 1, bw, attraction, a-b-db, 2, 3, 5, 22, 119, 193, 195, 120, 120, 195, 2, 2.93473
97, 1, bw, attraction, a-b-db, 2, 3, 5, 22, 119, 193, 195, 120, 120, 195, 3, 1.94386
97, 1, bw, attraction, a-b-da, 14, 3, 5, 23, 195, 120, 181, 111, 120, 195, 3, 1.74315
97, 1, bw, attraction, a-b-da, 14, 3, 5, 23, 195, 120, 181, 111, 120, 195, 2, 0.551917
97, 1, bw, attraction, a-b-da, 14, 1, 5, 24, 60, 135, 125, 56, 135, 60, 3, 2.27168
97, 1, bw, attraction, a-b-da, 14, 1, 5, 24, 60, 135, 125, 56, 135, 60, 2, 0.691653
97, 1, bw, attraction, a-b-db, 9, 1, 5, 25, 135, 60, 57, 129, 60, 135, 3, 3.32527
97, 1, bw, attraction, a-b-db, 9, 1, 5, 25, 135, 60, 57, 129, 60, 135, 1, 0.822192
97, 1, bw, filler, NA, 999, 999, 5, 26, 93, 121, 183, 85, 121, 97, 2, 2.5074
97, 1, bw, filler, NA, 999, 999, 5, 26, 93, 121, 183, 85, 121, 97, 1, 0.581096
97, 1, bw, attraction, a-b-db, 5, 2, 5, 27, 165, 90, 88, 161, 90, 165, 1, 3.82751
97, 1, bw, attraction, a-b-db, 5, 2, 5, 27, 165, 90, 88, 161, 90, 165, 2, 0.536386
97, 1, bw, attraction, a-b-db, 9, 2, 5, 28, 165, 90, 86, 157, 90, 165, 3, 4.97681
97, 1, bw, attraction, a-b-db, 9, 2, 5, 28, 165, 90, 86, 157, 90, 165, 2, 0.46322
97, 1, bw, filler, NA, 999, 999, 5, 29, 88, 99, 138, 58, 145, 134, 3, 0.842357
97, 1, bw, filler, NA, 999, 999, 5, 29, 88, 99, 138, 58, 145, 134, 2, 0.863445
97, 1, bw, attraction, a-b-da, 5, 1, 5, 30, 132, 58, 135, 60, 60, 135, 3, 3.85046
97, 1, bw, attraction, a-b-da, 5, 1, 5, 30, 132, 58, 135, 60, 60, 135, 1, 0.462413
97, 1, bw, attraction, a-b-da, 5, 3, 5, 31, 120, 195, 190, 117, 195, 120, 1, 2.55367
97, 1, bw, attraction, a-b-da, 5, 3, 5, 31, 120, 195, 190, 117, 195, 120, 2, 0.634198
97, 1, bw, attraction, a-b-da, 9, 3, 5, 32, 195, 120, 120, 195, 186, 114, 2, 2.42249
97, 1, bw, attraction, a-b-da, 9, 3, 5, 32, 195, 120, 120, 195, 186, 114, 3, 1.10773
97, 1, bw, filler, NA, 999, 999, 5, 33, 119, 157, 192, 166, 181, 80, 2, 0.940768
97, 1, bw, filler, NA, 999, 999, 5, 33, 119, 157, 192, 166, 181, 80, 1, 0.517705
97, 1, bw, attraction, a-b-db, 14, 3, 5, 34, 120, 195, 111, 181, 195, 120, 3, 2.75091
97, 1, bw, attraction, a-b-db, 14, 3, 5, 34, 120, 195, 111, 181, 195, 120, 2, 0.759245
97, 1, bw, attraction, a-b-db, 5, 1, 5, 35, 60, 135, 58, 132, 135, 60, 1, 1.79035
97, 1, bw, attraction, a-b-db, 5, 1, 5, 35, 60, 135, 58, 132, 135, 60, 3, 0.892978
97, 1, bw, filler, NA, 999, 999, 5, 36, 61, 78, 80, 119, 107, 121, 3, 1.07861
97, 1, bw, filler, NA, 999, 999, 5, 36, 61, 78, 80, 119, 107, 121, 1, 0.746372
97, 1, bw, attraction, a-b-da, 2, 1, 5, 37, 134, 59, 60, 135, 135, 60, 2, 2.49003
97, 1, bw, attraction, a-b-da, 2, 1, 5, 37, 134, 59, 60, 135, 135, 60, 3, 1.29257
97, 1, bw, attraction, a-b-da, 14, 1, 6, 1, 135, 60, 60, 135, 125, 56, 2, 1.74205
97, 1, bw, attraction, a-b-da, 14, 1, 6, 1, 135, 60, 60, 135, 125, 56, 3, 0.654832
97, 1, bw, attraction, a-b-da, 2, 2, 6, 2, 165, 90, 163, 89, 90, 165, 1, 1.69857
97, 1, bw, attraction, a-b-da, 2, 2, 6, 2, 165, 90, 163, 89, 90, 165, 2, 0.573383
97, 1, bw, attraction, a-b-da, 5, 1, 6, 3, 132, 58, 135, 60, 60, 135, 1, 2.45982
97, 1, bw, attraction, a-b-da, 5, 1, 6, 3, 132, 58, 135, 60, 60, 135, 2, 0.599698
97, 1, bw, filler, NA, 999, 999, 6, 4, 75, 145, 176, 158, 174, 112, 2, 0.893435
97, 1, bw, filler, NA, 999, 999, 6, 4, 75, 145, 176, 158, 174, 112, 1, 0.416485
97, 1, bw, attraction, a-b-db, 2, 2, 6, 5, 165, 90, 89, 163, 90, 165, 1, 4.55763
97, 1, bw, attraction, a-b-db, 2, 2, 6, 5, 165, 90, 89, 163, 90, 165, 3, 0.548826
97, 1, bw, attraction, a-b-da, 2, 1, 6, 6, 60, 135, 134, 59, 135, 60, 3, 2.54862
97, 1, bw, attraction, a-b-da, 2, 1, 6, 6, 60, 135, 134, 59, 135, 60, 1, 0.405074
97, 1, bw, attraction, a-b-da, 14, 3, 6, 7, 195, 120, 181, 111, 120, 195, 1, 1.49505
97, 1, bw, attraction, a-b-da, 14, 3, 6, 7, 195, 120, 181, 111, 120, 195, 2, 0.461789
97, 1, bw, filler, NA, 999, 999, 6, 8, 106, 189, 101, 77, 127, 71, 1, 0.64089
97, 1, bw, filler, NA, 999, 999, 6, 8, 106, 189, 101, 77, 127, 71, 2, 0.526062
97, 1, bw, filler, NA, 999, 999, 6, 9, 175, 66, 152, 87, 145, 58, 2, 1.03052
97, 1, bw, filler, NA, 999, 999, 6, 9, 175, 66, 152, 87, 145, 58, 3, 0.428025
97, 1, bw, filler, NA, 999, 999, 6, 10, 155, 181, 150, 108, 57, 174, 1, 1.32062
97, 1, bw, filler, NA, 999, 999, 6, 10, 155, 181, 150, 108, 57, 174, 3, 0.43415
97, 1, bw, attraction, a-b-db, 14, 3, 6, 11, 111, 181, 195, 120, 120, 195, 3, 0.934556
97, 1, bw, attraction, a-b-db, 14, 3, 6, 11, 111, 181, 195, 120, 120, 195, 1, 0.472289
97, 1, bw, filler, NA, 999, 999, 6, 12, 171, 94, 113, 110, 177, 66, 1, 1.46746
97, 1, bw, filler, NA, 999, 999, 6, 12, 171, 94, 113, 110, 177, 66, 3, 0.983652
97, 1, bw, attraction, a-b-db, 14, 2, 6, 13, 165, 90, 83, 153, 90, 165, 3, 1.6059
97, 1, bw, attraction, a-b-db, 14, 2, 6, 13, 165, 90, 83, 153, 90, 165, 2, 0.444132
97, 1, bw, attraction, a-b-da, 5, 2, 6, 14, 90, 165, 161, 88, 165, 90, 1, 1.05579
97, 1, bw, attraction, a-b-da, 5, 2, 6, 14, 90, 165, 161, 88, 165, 90, 2, 0.332167
97, 1, bw, attraction, a-b-db, 2, 3, 6, 15, 120, 195, 195, 120, 119, 193, 1, 1.97263
97, 1, bw, attraction, a-b-db, 2, 3, 6, 15, 120, 195, 195, 120, 119, 193, 2, 0.708004
97, 1, bw, catch, NA, 999, 999, 6, 16, 79, 116, 93, 162, 180, 135, 3, 0.981061
97, 1, bw, catch, NA, 999, 999, 6, 16, 79, 116, 93, 162, 180, 135, 1, 0.52473
97, 1, bw, attraction, a-b-db, 9, 1, 6, 17, 60, 135, 57, 129, 135, 60, 1, 1.75711
97, 1, bw, attraction, a-b-db, 9, 1, 6, 17, 60, 135, 57, 129, 135, 60, 2, 0.541245
97, 1, bw, attraction, a-b-db, 9, 3, 6, 18, 195, 120, 114, 186, 120, 195, 1, 2.34097
97, 1, bw, attraction, a-b-db, 9, 3, 6, 18, 195, 120, 114, 186, 120, 195, 2, 0.421497
97, 1, bw, catch, NA, 999, 999, 6, 19, 115, 140, 72, 123, 158, 157, 3, 1.33868
97, 1, bw, catch, NA, 999, 999, 6, 19, 115, 140, 72, 123, 158, 157, 2, 0.587978
97, 1, bw, attraction, a-b-da, 5, 3, 6, 20, 120, 195, 190, 117, 195, 120, 1, 1.73003
97, 1, bw, attraction, a-b-da, 5, 3, 6, 20, 120, 195, 190, 117, 195, 120, 2, 0.411489
97, 1, bw, filler, NA, 999, 999, 6, 21, 84, 156, 185, 162, 191, 90, 2, 0.768612
97, 1, bw, filler, NA, 999, 999, 6, 21, 84, 156, 185, 162, 191, 90, 1, 0.448983
97, 1, bw, filler, NA, 999, 999, 6, 22, 63, 177, 172, 109, 163, 63, 2, 1.82883
97, 1, bw, filler, NA, 999, 999, 6, 22, 63, 177, 172, 109, 163, 63, 1, 0.458301
97, 1, bw, filler, NA, 999, 999, 6, 23, 130, 140, 185, 143, 141, 99, 2, 1.47739
97, 1, bw, filler, NA, 999, 999, 6, 23, 130, 140, 185, 143, 141, 99, 3, 1.46488
97, 1, bw, attraction, a-b-da, 14, 2, 6, 24, 90, 165, 165, 90, 153, 83, 1, 2.13974
97, 1, bw, attraction, a-b-da, 14, 2, 6, 24, 90, 165, 165, 90, 153, 83, 3, 0.580371
97, 1, bw, attraction, a-b-db, 5, 1, 6, 25, 60, 135, 135, 60, 58, 132, 1, 2.07481
97, 1, bw, attraction, a-b-db, 5, 1, 6, 25, 60, 135, 135, 60, 58, 132, 3, 0.822239
97, 1, bw, attraction, a-b-db, 9, 2, 6, 26, 165, 90, 90, 165, 86, 157, 2, 1.77906
97, 1, bw, attraction, a-b-db, 9, 2, 6, 26, 165, 90, 90, 165, 86, 157, 1, 0.55444
97, 1, bw, attraction, a-b-da, 9, 1, 6, 27, 60, 135, 129, 57, 135, 60, 1, 2.23431
97, 1, bw, attraction, a-b-da, 9, 1, 6, 27, 60, 135, 129, 57, 135, 60, 3, 0.519728
97, 1, bw, attraction, a-b-db, 5, 3, 6, 28, 117, 190, 120, 195, 195, 120, 2, 2.58459
97, 1, bw, attraction, a-b-db, 5, 3, 6, 28, 117, 190, 120, 195, 195, 120, 1, 0.599843
97, 1, bw, attraction, a-b-db, 5, 2, 6, 29, 90, 165, 165, 90, 88, 161, 2, 3.19758
97, 1, bw, attraction, a-b-db, 5, 2, 6, 29, 90, 165, 165, 90, 88, 161, 3, 1.49994
97, 1, bw, attraction, a-b-db, 14, 1, 6, 30, 56, 125, 135, 60, 60, 135, 3, 1.59734
97, 1, bw, attraction, a-b-db, 14, 1, 6, 30, 56, 125, 135, 60, 60, 135, 2, 1.01228
97, 1, bw, filler, NA, 999, 999, 6, 31, 69, 147, 108, 84, 68, 180, 1, 1.50514
97, 1, bw, filler, NA, 999, 999, 6, 31, 69, 147, 108, 84, 68, 180, 2, 0.747278
97, 1, bw, filler, NA, 999, 999, 6, 32, 106, 74, 150, 80, 82, 73, 2, 1.27499
97, 1, bw, filler, NA, 999, 999, 6, 32, 106, 74, 150, 80, 82, 73, 3, 0.470564
97, 1, bw, attraction, a-b-db, 2, 1, 6, 33, 59, 134, 60, 135, 135, 60, 2, 1.94584
97, 1, bw, attraction, a-b-db, 2, 1, 6, 33, 59, 134, 60, 135, 135, 60, 3, 0.706373
97, 1, bw, attraction, a-b-da, 9, 3, 6, 34, 195, 120, 120, 195, 186, 114, 1, 3.08412
97, 1, bw, attraction, a-b-da, 9, 3, 6, 34, 195, 120, 120, 195, 186, 114, 3, 0.71913
97, 1, bw, attraction, a-b-da, 2, 3, 6, 35, 193, 119, 195, 120, 120, 195, 3, 1.16183
97, 1, bw, attraction, a-b-da, 2, 3, 6, 35, 193, 119, 195, 120, 120, 195, 2, 0.440553
97, 1, bw, attraction, a-b-da, 9, 2, 6, 36, 90, 165, 157, 86, 165, 90, 1, 1.79622
97, 1, bw, attraction, a-b-da, 9, 2, 6, 36, 90, 165, 157, 86, 165, 90, 2, 0.538991
97, 1, bw, catch, NA, 999, 999, 6, 37, 102, 153, 156, 159, 128, 67, 2, 0.915525
97, 1, bw, catch, NA, 999, 999, 6, 37, 102, 153, 156, 159, 128, 67, 3, 0.485785
97, 1, bw, attraction, a-b-da, 5, 3, 7, 1, 195, 120, 190, 117, 120, 195, 3, 0.912262
97, 1, bw, attraction, a-b-da, 5, 3, 7, 1, 195, 120, 190, 117, 120, 195, 2, 0.450729
97, 1, bw, attraction, a-b-da, 5, 1, 7, 2, 135, 60, 60, 135, 132, 58, 1, 2.56649
97, 1, bw, attraction, a-b-da, 5, 1, 7, 2, 135, 60, 60, 135, 132, 58, 3, 1.00635
97, 1, bw, filler, NA, 999, 999, 7, 3, 97, 101, 65, 186, 133, 169, 3, 0.884
97, 1, bw, filler, NA, 999, 999, 7, 3, 97, 101, 65, 186, 133, 169, 1, 0.67976
97, 1, bw, attraction, a-b-db, 5, 1, 7, 4, 135, 60, 60, 135, 58, 132, 2, 2.23394
97, 1, bw, attraction, a-b-db, 5, 1, 7, 4, 135, 60, 60, 135, 58, 132, 3, 0.60728
97, 1, bw, attraction, a-b-db, 2, 1, 7, 5, 135, 60, 60, 135, 59, 134, 3, 2.11638
97, 1, bw, attraction, a-b-db, 2, 1, 7, 5, 135, 60, 60, 135, 59, 134, 2, 0.630373
97, 1, bw, attraction, a-b-da, 5, 2, 7, 6, 90, 165, 165, 90, 161, 88, 2, 1.36274
97, 1, bw, attraction, a-b-da, 5, 2, 7, 6, 90, 165, 165, 90, 161, 88, 3, 0.514958
97, 1, bw, attraction, a-b-db, 5, 2, 7, 7, 90, 165, 88, 161, 165, 90, 3, 1.38
97, 1, bw, attraction, a-b-db, 5, 2, 7, 7, 90, 165, 88, 161, 165, 90, 2, 0.39554
97, 1, bw, attraction, a-b-db, 9, 3, 7, 8, 114, 186, 195, 120, 120, 195, 2, 1.54541
97, 1, bw, attraction, a-b-db, 9, 3, 7, 8, 114, 186, 195, 120, 120, 195, 1, 0.426179
97, 1, bw, attraction, a-b-da, 14, 2, 7, 9, 165, 90, 90, 165, 153, 83, 2, 1.74269
97, 1, bw, attraction, a-b-da, 14, 2, 7, 9, 165, 90, 90, 165, 153, 83, 3, 0.375475
97, 1, bw, attraction, a-b-db, 14, 3, 7, 10, 111, 181, 195, 120, 120, 195, 2, 3.0621
97, 1, bw, attraction, a-b-db, 14, 3, 7, 10, 111, 181, 195, 120, 120, 195, 1, 0.457756
97, 1, bw, filler, NA, 999, 999, 7, 11, 189, 149, 126, 106, 107, 156, 1, 0.716771
97, 1, bw, filler, NA, 999, 999, 7, 11, 189, 149, 126, 106, 107, 156, 2, 0.327214
97, 1, bw, attraction, a-b-da, 2, 1, 7, 12, 135, 60, 134, 59, 60, 135, 3, 1.31178
97, 1, bw, attraction, a-b-da, 2, 1, 7, 12, 135, 60, 134, 59, 60, 135, 2, 0.505998
97, 1, bw, attraction, a-b-db, 2, 2, 7, 13, 90, 165, 165, 90, 89, 163, 2, 2.31569
97, 1, bw, attraction, a-b-db, 2, 2, 7, 13, 90, 165, 165, 90, 89, 163, 1, 0.405666
97, 1, bw, attraction, a-b-da, 14, 1, 7, 14, 135, 60, 60, 135, 125, 56, 1, 2.73948
97, 1, bw, attraction, a-b-da, 14, 1, 7, 14, 135, 60, 60, 135, 125, 56, 3, 0.876001
97, 1, bw, catch, NA, 999, 999, 7, 15, 125, 70, 192, 123, 133, 122, 2, 1.72623
97, 1, bw, catch, NA, 999, 999, 7, 15, 125, 70, 192, 123, 133, 122, 1, 0.607696
97, 1, bw, attraction, a-b-da, 9, 1, 7, 16, 135, 60, 129, 57, 60, 135, 3, 2.62082
97, 1, bw, attraction, a-b-da, 9, 1, 7, 16, 135, 60, 129, 57, 60, 135, 2, 0.698683
97, 1, bw, attraction, a-b-da, 9, 3, 7, 17, 186, 114, 195, 120, 120, 195, 2, 2.07623
97, 1, bw, attraction, a-b-da, 9, 3, 7, 17, 186, 114, 195, 120, 120, 195, 1, 0.647553
97, 1, bw, filler, NA, 999, 999, 7, 18, 73, 169, 109, 101, 171, 166, 3, 1.5555
97, 1, bw, filler, NA, 999, 999, 7, 18, 73, 169, 109, 101, 171, 166, 2, 0.515475
97, 1, bw, filler, NA, 999, 999, 7, 19, 116, 192, 128, 120, 173, 115, 1, 1.93252
97, 1, bw, filler, NA, 999, 999, 7, 19, 116, 192, 128, 120, 173, 115, 2, 0.477934
97, 1, bw, filler, NA, 999, 999, 7, 20, 66, 136, 136, 60, 137, 128, 3, 2.39251
97, 1, bw, filler, NA, 999, 999, 7, 20, 66, 136, 136, 60, 137, 128, 1, 0.82302
97, 1, bw, filler, NA, 999, 999, 7, 21, 164, 126, 176, 188, 114, 139, 2, 0.980003
97, 1, bw, filler, NA, 999, 999, 7, 21, 164, 126, 176, 188, 114, 139, 3, 0.379798
97, 1, bw, catch, NA, 999, 999, 7, 22, 98, 157, 183, 132, 121, 74, 2, 1.51421
97, 1, bw, catch, NA, 999, 999, 7, 22, 98, 157, 183, 132, 121, 74, 3, 1.14032
97, 1, bw, filler, NA, 999, 999, 7, 23, 84, 165, 65, 134, 168, 127, 3, 1.33188
97, 1, bw, filler, NA, 999, 999, 7, 23, 84, 165, 65, 134, 168, 127, 2, 0.405545
97, 1, bw, filler, NA, 999, 999, 7, 24, 185, 66, 66, 86, 128, 82, 1, 1.83532
97, 1, bw, filler, NA, 999, 999, 7, 24, 185, 66, 66, 86, 128, 82, 2, 1.18471
97, 1, bw, attraction, a-b-da, 2, 2, 7, 25, 163, 89, 165, 90, 90, 165, 3, 2.84475
97, 1, bw, attraction, a-b-da, 2, 2, 7, 25, 163, 89, 165, 90, 90, 165, 2, 0.523491
97, 1, bw, attraction, a-b-db, 9, 1, 7, 26, 60, 135, 135, 60, 57, 129, 1, 2.12378
97, 1, bw, attraction, a-b-db, 9, 1, 7, 26, 60, 135, 135, 60, 57, 129, 3, 0.453143
97, 1, bw, attraction, a-b-da, 2, 3, 7, 27, 120, 195, 195, 120, 193, 119, 1, 3.99299
97, 1, bw, attraction, a-b-da, 2, 3, 7, 27, 120, 195, 195, 120, 193, 119, 3, 0.822971
97, 1, bw, attraction, a-b-db, 9, 2, 7, 28, 90, 165, 165, 90, 86, 157, 1, 1.54802
97, 1, bw, attraction, a-b-db, 9, 2, 7, 28, 90, 165, 165, 90, 86, 157, 3, 1.7489
97, 1, bw, attraction, a-b-db, 14, 2, 7, 29, 90, 165, 165, 90, 83, 153, 1, 2.89232
97, 1, bw, attraction, a-b-db, 14, 2, 7, 29, 90, 165, 165, 90, 83, 153, 3, 0.966596
97, 1, bw, attraction, a-b-db, 14, 1, 7, 30, 60, 135, 56, 125, 135, 60, 1, 3.16566
97, 1, bw, attraction, a-b-db, 14, 1, 7, 30, 60, 135, 56, 125, 135, 60, 2, 0.485195
97, 1, bw, attraction, a-b-da, 9, 2, 7, 31, 157, 86, 90, 165, 165, 90, 3, 3.11968
97, 1, bw, attraction, a-b-da, 9, 2, 7, 31, 157, 86, 90, 165, 165, 90, 1, 0.857305
97, 1, bw, filler, NA, 999, 999, 7, 32, 106, 117, 187, 161, 130, 119, 2, 0.804395
97, 1, bw, filler, NA, 999, 999, 7, 32, 106, 117, 187, 161, 130, 119, 1, 0.451403
97, 1, bw, attraction, a-b-db, 2, 3, 7, 33, 119, 193, 120, 195, 195, 120, 3, 2.91137
97, 1, bw, attraction, a-b-db, 2, 3, 7, 33, 119, 193, 120, 195, 195, 120, 1, 0.992895
97, 1, bw, attraction, a-b-db, 5, 3, 7, 34, 120, 195, 195, 120, 117, 190, 1, 2.53463
97, 1, bw, attraction, a-b-db, 5, 3, 7, 34, 120, 195, 195, 120, 117, 190, 3, 0.871829
97, 1, bw, filler, NA, 999, 999, 7, 35, 167, 127, 190, 70, 60, 80, 1, 1.01078
97, 1, bw, filler, NA, 999, 999, 7, 35, 167, 127, 190, 70, 60, 80, 3, 0.54515
97, 1, bw, catch, NA, 999, 999, 7, 36, 77, 118, 131, 184, 104, 151, 2, 2.43303
97, 1, bw, catch, NA, 999, 999, 7, 36, 77, 118, 131, 184, 104, 151, 1, 0.486063
97, 1, bw, attraction, a-b-da, 14, 3, 7, 37, 181, 111, 120, 195, 195, 120, 2, 3.12066
97, 1, bw, attraction, a-b-da, 14, 3, 7, 37, 181, 111, 120, 195, 195, 120, 1, 0.402148
97, 1, bw, attraction, a-b-da, 9, 2, 8, 1, 90, 165, 165, 90, 157, 86, 1, 3.568
97, 1, bw, attraction, a-b-da, 9, 2, 8, 1, 90, 165, 165, 90, 157, 86, 3, 0.519517
97, 1, bw, attraction, a-b-db, 2, 1, 8, 2, 59, 134, 135, 60, 60, 135, 3, 1.96077
97, 1, bw, attraction, a-b-db, 2, 1, 8, 2, 59, 134, 135, 60, 60, 135, 2, 0.792689
97, 1, bw, attraction, a-b-db, 5, 2, 8, 3, 88, 161, 90, 165, 165, 90, 2, 2.6464
97, 1, bw, attraction, a-b-db, 5, 2, 8, 3, 88, 161, 90, 165, 165, 90, 1, 0.522952
97, 1, bw, attraction, a-b-da, 14, 3, 8, 4, 120, 195, 195, 120, 181, 111, 1, 1.88393
97, 1, bw, attraction, a-b-da, 14, 3, 8, 4, 120, 195, 195, 120, 181, 111, 3, 0.423431
97, 1, bw, filler, NA, 999, 999, 8, 5, 144, 81, 167, 130, 91, 110, 2, 0.779838
97, 1, bw, filler, NA, 999, 999, 8, 5, 144, 81, 167, 130, 91, 110, 3, 0.451752
97, 1, bw, attraction, a-b-da, 14, 1, 8, 6, 125, 56, 135, 60, 60, 135, 3, 1.78331
97, 1, bw, attraction, a-b-da, 14, 1, 8, 6, 125, 56, 135, 60, 60, 135, 1, 0.61473
97, 1, bw, attraction, a-b-da, 5, 2, 8, 7, 90, 165, 165, 90, 161, 88, 1, 2.82808
97, 1, bw, attraction, a-b-da, 5, 2, 8, 7, 90, 165, 165, 90, 161, 88, 2, 0.321044
97, 1, bw, attraction, a-b-da, 5, 3, 8, 8, 195, 120, 120, 195, 190, 117, 1, 2.91421
97, 1, bw, attraction, a-b-da, 5, 3, 8, 8, 195, 120, 120, 195, 190, 117, 3, 0.483898
97, 1, bw, attraction, a-b-db, 5, 1, 8, 9, 58, 132, 135, 60, 60, 135, 1, 1.45433
97, 1, bw, attraction, a-b-db, 5, 1, 8, 9, 58, 132, 135, 60, 60, 135, 2, 0.52315
97, 1, bw, catch, NA, 999, 999, 8, 10, 99, 96, 140, 115, 169, 146, 3, 0.932292
97, 1, bw, catch, NA, 999, 999, 8, 10, 99, 96, 140, 115, 169, 146, 1, 0.525921
97, 1, bw, attraction, a-b-db, 2, 2, 8, 11, 89, 163, 90, 165, 165, 90, 1, 1.52648
97, 1, bw, attraction, a-b-db, 2, 2, 8, 11, 89, 163, 90, 165, 165, 90, 2, 0.303918
97, 1, bw, filler, NA, 999, 999, 8, 12, 147, 190, 128, 174, 142, 179, 1, 1.76179
97, 1, bw, filler, NA, 999, 999, 8, 12, 147, 190, 128, 174, 142, 179, 2, 0.345968
97, 1, bw, filler, NA, 999, 999, 8, 13, 104, 128, 142, 147, 175, 77, 2, 1.12164
97, 1, bw, filler, NA, 999, 999, 8, 13, 104, 128, 142, 147, 175, 77, 1, 0.427277
97, 1, bw, catch, NA, 999, 999, 8, 14, 168, 147, 93, 162, 60, 135, 1, 0.959789
97, 1, bw, catch, NA, 999, 999, 8, 14, 168, 147, 93, 162, 60, 135, 3, 0.584073
97, 1, bw, attraction, a-b-db, 9, 3, 8, 15, 120, 195, 114, 186, 195, 120, 3, 1.76648
97, 1, bw, attraction, a-b-db, 9, 3, 8, 15, 120, 195, 114, 186, 195, 120, 2, 0.774646
97, 1, bw, attraction, a-b-da, 9, 1, 8, 16, 129, 57, 60, 135, 135, 60, 2, 3.34913
97, 1, bw, attraction, a-b-da, 9, 1, 8, 16, 129, 57, 60, 135, 135, 60, 1, 0.557261
97, 1, bw, attraction, a-b-da, 5, 1, 8, 17, 132, 58, 60, 135, 135, 60, 3, 1.65237
97, 1, bw, attraction, a-b-da, 5, 1, 8, 17, 132, 58, 60, 135, 135, 60, 2, 0.465159
97, 1, bw, attraction, a-b-da, 14, 2, 8, 18, 153, 83, 165, 90, 90, 165, 3, 1.15632
97, 1, bw, attraction, a-b-da, 14, 2, 8, 18, 153, 83, 165, 90, 90, 165, 1, 0.500552
97, 1, bw, attraction, a-b-db, 14, 2, 8, 19, 165, 90, 83, 153, 90, 165, 3, 2.12641
97, 1, bw, attraction, a-b-db, 14, 2, 8, 19, 165, 90, 83, 153, 90, 165, 2, 0.471774
97, 1, bw, filler, NA, 999, 999, 8, 20, 146, 180, 94, 88, 194, 77, 1, 0.698865
97, 1, bw, filler, NA, 999, 999, 8, 20, 146, 180, 94, 88, 194, 77, 2, 0.557887
97, 1, bw, attraction, a-b-db, 9, 2, 8, 21, 165, 90, 90, 165, 86, 157, 2, 2.71695
97, 1, bw, attraction, a-b-db, 9, 2, 8, 21, 165, 90, 90, 165, 86, 157, 3, 0.310773
97, 1, bw, filler, NA, 999, 999, 8, 22, 74, 79, 158, 73, 74, 87, 2, 1.376
97, 1, bw, filler, NA, 999, 999, 8, 22, 74, 79, 158, 73, 74, 87, 1, 0.399459
97, 1, bw, attraction, a-b-db, 14, 3, 8, 23, 120, 195, 195, 120, 111, 181, 2, 2.6133
97, 1, bw, attraction, a-b-db, 14, 3, 8, 23, 120, 195, 195, 120, 111, 181, 3, 0.339175
97, 1, bw, attraction, a-b-da, 9, 3, 8, 24, 120, 195, 186, 114, 195, 120, 3, 2.34761
97, 1, bw, attraction, a-b-da, 9, 3, 8, 24, 120, 195, 186, 114, 195, 120, 1, 0.340199
97, 1, bw, attraction, a-b-db, 2, 3, 8, 25, 120, 195, 195, 120, 119, 193, 1, 2.92408
97, 1, bw, attraction, a-b-db, 2, 3, 8, 25, 120, 195, 195, 120, 119, 193, 3, 0.309184
97, 1, bw, attraction, a-b-da, 2, 1, 8, 26, 135, 60, 134, 59, 60, 135, 3, 1.35827
97, 1, bw, attraction, a-b-da, 2, 1, 8, 26, 135, 60, 134, 59, 60, 135, 2, 0.430483
97, 1, bw, filler, NA, 999, 999, 8, 27, 102, 101, 75, 110, 170, 135, 3, 1.043
97, 1, bw, filler, NA, 999, 999, 8, 27, 102, 101, 75, 110, 170, 135, 2, 0.855873
97, 1, bw, attraction, a-b-db, 9, 1, 8, 28, 135, 60, 57, 129, 60, 135, 1, 1.43553
97, 1, bw, attraction, a-b-db, 9, 1, 8, 28, 135, 60, 57, 129, 60, 135, 3, 0.473139
97, 1, bw, filler, NA, 999, 999, 8, 29, 74, 84, 178, 137, 86, 113, 2, 0.72432
97, 1, bw, filler, NA, 999, 999, 8, 29, 74, 84, 178, 137, 86, 113, 1, 0.382042
97, 1, bw, attraction, a-b-db, 5, 3, 8, 30, 120, 195, 117, 190, 195, 120, 1, 1.3004
97, 1, bw, attraction, a-b-db, 5, 3, 8, 30, 120, 195, 117, 190, 195, 120, 3, 0.639453
97, 1, bw, attraction, a-b-da, 2, 2, 8, 31, 165, 90, 90, 165, 163, 89, 1, 1.18788
97, 1, bw, attraction, a-b-da, 2, 2, 8, 31, 165, 90, 90, 165, 163, 89, 2, 0.378759
97, 1, bw, filler, NA, 999, 999, 8, 32, 181, 192, 112, 60, 146, 79, 1, 0.569231
97, 1, bw, filler, NA, 999, 999, 8, 32, 181, 192, 112, 60, 146, 79, 2, 0.617762
97, 1, bw, filler, NA, 999, 999, 8, 33, 94, 163, 177, 185, 107, 174, 2, 0.726777
97, 1, bw, filler, NA, 999, 999, 8, 33, 94, 163, 177, 185, 107, 174, 1, 0.344582
97, 1, bw, catch, NA, 999, 999, 8, 34, 177, 138, 106, 89, 146, 109, 1, 1.07239
97, 1, bw, catch, NA, 999, 999, 8, 34, 177, 138, 106, 89, 146, 109, 2, 0.49194
97, 1, bw, attraction, a-b-db, 14, 1, 8, 35, 60, 135, 135, 60, 56, 125, 1, 2.0779
97, 1, bw, attraction, a-b-db, 14, 1, 8, 35, 60, 135, 135, 60, 56, 125, 2, 0.585131
97, 1, bw, attraction, a-b-da, 2, 3, 8, 36, 193, 119, 195, 120, 120, 195, 3, 3.92755
97, 1, bw, attraction, a-b-da, 2, 3, 8, 36, 193, 119, 195, 120, 120, 195, 2, 0.368434
97, 1, bw, filler, NA, 999, 999, 8, 37, 91, 138, 131, 132, 188, 169, 3, 0.919437
97, 1, bw, filler, NA, 999, 999, 8, 37, 91, 138, 131, 132, 188, 169, 1, 0.481742
