sub_n, computer_n, bw_cond, effect, set, distance, diag, block_n, trial_n, h1, w1, h2, w2, h3, w3, choice, rt 
93, 1, bw, practice, NA, 999, 999, 0, 1, 178, 92, 179, 191, 169, 123, 2, 6.67678
93, 1, bw, practice, NA, 999, 999, 0, 1, 178, 92, 179, 191, 169, 123, 1, 3.67231
93, 1, bw, practice, NA, 999, 999, 0, 2, 180, 130, 98, 100, 171, 109, 1, 2.21409
93, 1, bw, practice, NA, 999, 999, 0, 2, 180, 130, 98, 100, 171, 109, 2, 1.80504
93, 1, bw, practice, NA, 999, 999, 0, 3, 112, 148, 79, 123, 111, 140, 1, 15.4057
93, 1, bw, practice, NA, 999, 999, 0, 3, 112, 148, 79, 123, 111, 140, 2, 2.32898
93, 1, bw, attraction, a-b-db, 2, 2, 1, 1, 165, 90, 89, 163, 90, 165, 3, 32
93, 1, bw, attraction, a-b-db, 2, 2, 1, 1, 165, 90, 89, 163, 90, 165, 1, 2.92537
93, 1, bw, attraction, a-b-da, 14, 2, 1, 2, 153, 83, 165, 90, 90, 165, 3, 2.03713
93, 1, bw, attraction, a-b-da, 14, 2, 1, 2, 153, 83, 165, 90, 90, 165, 1, 1.96239
93, 1, bw, filler, NA, 999, 999, 1, 3, 154, 170, 142, 79, 100, 106, 1, 1.03308
93, 1, bw, filler, NA, 999, 999, 1, 3, 154, 170, 142, 79, 100, 106, 2, 1.11069
93, 1, bw, filler, NA, 999, 999, 1, 4, 135, 162, 112, 103, 100, 168, 1, 1.39961
93, 1, bw, filler, NA, 999, 999, 1, 4, 135, 162, 112, 103, 100, 168, 2, 1.00648
93, 1, bw, filler, NA, 999, 999, 1, 5, 134, 105, 118, 104, 142, 88, 1, 2.36412
93, 1, bw, filler, NA, 999, 999, 1, 5, 134, 105, 118, 104, 142, 88, 3, 1.25204
93, 1, bw, catch, NA, 999, 999, 1, 6, 192, 123, 103, 152, 94, 101, 1, 0.999618
93, 1, bw, catch, NA, 999, 999, 1, 6, 192, 123, 103, 152, 94, 101, 3, 0.990618
93, 1, bw, attraction, a-b-db, 9, 3, 1, 7, 120, 195, 114, 186, 195, 120, 1, 5.27618
93, 1, bw, attraction, a-b-db, 9, 3, 1, 7, 120, 195, 114, 186, 195, 120, 3, 1.90257
93, 1, bw, attraction, a-b-db, 14, 2, 1, 8, 90, 165, 83, 153, 165, 90, 3, 5.2879
93, 1, bw, attraction, a-b-db, 14, 2, 1, 8, 90, 165, 83, 153, 165, 90, 1, 1.3862
93, 1, bw, attraction, a-b-da, 5, 1, 1, 9, 135, 60, 132, 58, 60, 135, 3, 6.34448
93, 1, bw, attraction, a-b-da, 5, 1, 1, 9, 135, 60, 132, 58, 60, 135, 2, 1.17576
93, 1, bw, filler, NA, 999, 999, 1, 10, 74, 82, 66, 63, 62, 135, 3, 2.24606
93, 1, bw, filler, NA, 999, 999, 1, 10, 74, 82, 66, 63, 62, 135, 2, 1.8825
93, 1, bw, attraction, a-b-da, 9, 3, 1, 11, 186, 114, 195, 120, 120, 195, 3, 1.35649
93, 1, bw, attraction, a-b-da, 9, 3, 1, 11, 186, 114, 195, 120, 120, 195, 1, 1.18871
93, 1, bw, attraction, a-b-da, 14, 1, 1, 12, 135, 60, 60, 135, 125, 56, 3, 2.45911
93, 1, bw, attraction, a-b-da, 14, 1, 1, 12, 135, 60, 60, 135, 125, 56, 2, 1.29491
93, 1, bw, attraction, a-b-db, 9, 2, 1, 13, 90, 165, 165, 90, 86, 157, 1, 1.9285
93, 1, bw, attraction, a-b-db, 9, 2, 1, 13, 90, 165, 165, 90, 86, 157, 2, 1.16982
93, 1, bw, attraction, a-b-da, 2, 2, 1, 14, 90, 165, 165, 90, 163, 89, 1, 1.83277
93, 1, bw, attraction, a-b-da, 2, 2, 1, 14, 90, 165, 165, 90, 163, 89, 2, 0.99024
93, 1, bw, catch, NA, 999, 999, 1, 15, 152, 103, 93, 102, 153, 162, 3, 1.71583
93, 1, bw, catch, NA, 999, 999, 1, 15, 152, 103, 93, 102, 153, 162, 2, 2.73388
93, 1, bw, filler, NA, 999, 999, 1, 16, 121, 130, 91, 111, 164, 138, 3, 1.15763
93, 1, bw, filler, NA, 999, 999, 1, 16, 121, 130, 91, 111, 164, 138, 2, 1.0299
93, 1, bw, attraction, a-b-da, 5, 3, 1, 17, 195, 120, 120, 195, 190, 117, 2, 2.10621
93, 1, bw, attraction, a-b-da, 5, 3, 1, 17, 195, 120, 120, 195, 190, 117, 3, 3.22013
93, 1, bw, attraction, a-b-da, 9, 2, 1, 18, 90, 165, 165, 90, 157, 86, 1, 1.88041
93, 1, bw, attraction, a-b-da, 9, 2, 1, 18, 90, 165, 165, 90, 157, 86, 2, 1.14801
93, 1, bw, catch, NA, 999, 999, 1, 19, 97, 98, 156, 159, 152, 103, 2, 0.883316
93, 1, bw, catch, NA, 999, 999, 1, 19, 97, 98, 156, 159, 152, 103, 1, 1.31909
93, 1, bw, attraction, a-b-db, 14, 1, 1, 20, 56, 125, 135, 60, 60, 135, 3, 1.70391
93, 1, bw, attraction, a-b-db, 14, 1, 1, 20, 56, 125, 135, 60, 60, 135, 1, 1.66682
93, 1, bw, attraction, a-b-da, 2, 1, 1, 21, 60, 135, 135, 60, 134, 59, 1, 4.51743
93, 1, bw, attraction, a-b-da, 2, 1, 1, 21, 60, 135, 135, 60, 134, 59, 2, 1.11083
93, 1, bw, attraction, a-b-db, 5, 2, 1, 22, 165, 90, 88, 161, 90, 165, 1, 1.87971
93, 1, bw, attraction, a-b-db, 5, 2, 1, 22, 165, 90, 88, 161, 90, 165, 2, 0.819055
93, 1, bw, filler, NA, 999, 999, 1, 23, 175, 89, 94, 70, 103, 104, 1, 1.30399
93, 1, bw, filler, NA, 999, 999, 1, 23, 175, 89, 94, 70, 103, 104, 2, 0.731126
93, 1, bw, filler, NA, 999, 999, 1, 24, 132, 108, 120, 171, 148, 177, 3, 1.10733
93, 1, bw, filler, NA, 999, 999, 1, 24, 132, 108, 120, 171, 148, 177, 1, 0.821629
93, 1, bw, attraction, a-b-da, 2, 3, 1, 25, 193, 119, 120, 195, 195, 120, 3, 2.51467
93, 1, bw, attraction, a-b-da, 2, 3, 1, 25, 193, 119, 120, 195, 195, 120, 1, 1.57248
93, 1, bw, attraction, a-b-da, 9, 1, 1, 26, 60, 135, 135, 60, 129, 57, 3, 1.41132
93, 1, bw, attraction, a-b-da, 9, 1, 1, 26, 60, 135, 135, 60, 129, 57, 1, 0.977407
93, 1, bw, attraction, a-b-db, 5, 3, 1, 27, 120, 195, 117, 190, 195, 120, 1, 3.39173
93, 1, bw, attraction, a-b-db, 5, 3, 1, 27, 120, 195, 117, 190, 195, 120, 2, 1.91802
93, 1, bw, attraction, a-b-db, 14, 3, 1, 28, 195, 120, 111, 181, 120, 195, 3, 5.30267
93, 1, bw, attraction, a-b-db, 14, 3, 1, 28, 195, 120, 111, 181, 120, 195, 1, 1.59234
93, 1, bw, filler, NA, 999, 999, 1, 29, 116, 129, 92, 60, 167, 132, 3, 1.01395
93, 1, bw, filler, NA, 999, 999, 1, 29, 116, 129, 92, 60, 167, 132, 2, 1.0441
93, 1, bw, filler, NA, 999, 999, 1, 30, 128, 148, 188, 115, 129, 142, 2, 3.2157
93, 1, bw, filler, NA, 999, 999, 1, 30, 128, 148, 188, 115, 129, 142, 1, 1.04536
93, 1, bw, attraction, a-b-db, 9, 1, 1, 31, 135, 60, 60, 135, 57, 129, 3, 3.16099
93, 1, bw, attraction, a-b-db, 9, 1, 1, 31, 135, 60, 60, 135, 57, 129, 1, 2.03262
93, 1, bw, attraction, a-b-db, 5, 1, 1, 32, 58, 132, 60, 135, 135, 60, 1, 2.55659
93, 1, bw, attraction, a-b-db, 5, 1, 1, 32, 58, 132, 60, 135, 135, 60, 3, 1.03639
93, 1, bw, attraction, a-b-db, 2, 3, 1, 33, 195, 120, 120, 195, 119, 193, 3, 3.19272
93, 1, bw, attraction, a-b-db, 2, 3, 1, 33, 195, 120, 120, 195, 119, 193, 2, 0.943044
93, 1, bw, filler, NA, 999, 999, 1, 34, 192, 92, 100, 77, 78, 175, 3, 1.99064
93, 1, bw, filler, NA, 999, 999, 1, 34, 192, 92, 100, 77, 78, 175, 2, 2.42942
93, 1, bw, attraction, a-b-da, 14, 3, 1, 35, 181, 111, 195, 120, 120, 195, 3, 1.52125
93, 1, bw, attraction, a-b-da, 14, 3, 1, 35, 181, 111, 195, 120, 120, 195, 1, 0.851394
93, 1, bw, attraction, a-b-db, 2, 1, 1, 36, 60, 135, 59, 134, 135, 60, 1, 1.55113
93, 1, bw, attraction, a-b-db, 2, 1, 1, 36, 60, 135, 59, 134, 135, 60, 3, 1.81594
93, 1, bw, attraction, a-b-da, 5, 2, 1, 37, 161, 88, 165, 90, 90, 165, 3, 1.05266
93, 1, bw, attraction, a-b-da, 5, 2, 1, 37, 161, 88, 165, 90, 90, 165, 2, 0.761538
93, 1, bw, attraction, a-b-db, 9, 1, 2, 1, 57, 129, 60, 135, 135, 60, 3, 1.74452
93, 1, bw, attraction, a-b-db, 9, 1, 2, 1, 57, 129, 60, 135, 135, 60, 1, 1.81727
93, 1, bw, catch, NA, 999, 999, 2, 2, 130, 125, 173, 142, 130, 65, 2, 0.838091
93, 1, bw, catch, NA, 999, 999, 2, 2, 130, 125, 173, 142, 130, 65, 3, 1.40325
93, 1, bw, attraction, a-b-db, 14, 2, 2, 3, 165, 90, 83, 153, 90, 165, 3, 1.51268
93, 1, bw, attraction, a-b-db, 14, 2, 2, 3, 165, 90, 83, 153, 90, 165, 2, 0.5389
93, 1, bw, attraction, a-b-db, 2, 3, 2, 4, 119, 193, 120, 195, 195, 120, 2, 2.13928
93, 1, bw, attraction, a-b-db, 2, 3, 2, 4, 119, 193, 120, 195, 195, 120, 3, 1.41997
93, 1, bw, attraction, a-b-da, 2, 1, 2, 5, 135, 60, 60, 135, 134, 59, 2, 2.57664
93, 1, bw, attraction, a-b-da, 2, 1, 2, 5, 135, 60, 60, 135, 134, 59, 3, 1.49587
93, 1, bw, catch, NA, 999, 999, 2, 6, 70, 125, 125, 190, 95, 160, 2, 0.929273
93, 1, bw, catch, NA, 999, 999, 2, 6, 70, 125, 125, 190, 95, 160, 1, 0.731025
93, 1, bw, attraction, a-b-da, 2, 2, 2, 7, 90, 165, 163, 89, 165, 90, 1, 3.93935
93, 1, bw, attraction, a-b-da, 2, 2, 2, 7, 90, 165, 163, 89, 165, 90, 2, 0.635517
93, 1, bw, attraction, a-b-da, 9, 2, 2, 8, 90, 165, 157, 86, 165, 90, 1, 2.07186
93, 1, bw, attraction, a-b-da, 9, 2, 2, 8, 90, 165, 157, 86, 165, 90, 2, 0.851259
93, 1, bw, catch, NA, 999, 999, 2, 9, 184, 131, 106, 89, 129, 126, 1, 1.15088
93, 1, bw, catch, NA, 999, 999, 2, 9, 184, 131, 106, 89, 129, 126, 2, 0.759815
93, 1, bw, attraction, a-b-db, 9, 2, 2, 10, 90, 165, 86, 157, 165, 90, 3, 1.3589
93, 1, bw, attraction, a-b-db, 9, 2, 2, 10, 90, 165, 86, 157, 165, 90, 2, 0.695114
93, 1, bw, filler, NA, 999, 999, 2, 11, 56, 102, 77, 153, 63, 154, 2, 0.848795
93, 1, bw, filler, NA, 999, 999, 2, 11, 56, 102, 77, 153, 63, 154, 1, 1.22185
93, 1, bw, attraction, a-b-db, 5, 1, 2, 12, 60, 135, 135, 60, 58, 132, 3, 1.95464
93, 1, bw, attraction, a-b-db, 5, 1, 2, 12, 60, 135, 135, 60, 58, 132, 2, 1.13145
93, 1, bw, attraction, a-b-da, 9, 3, 2, 13, 120, 195, 195, 120, 186, 114, 1, 0.89973
93, 1, bw, attraction, a-b-da, 9, 3, 2, 13, 120, 195, 195, 120, 186, 114, 3, 0.97465
93, 1, bw, attraction, a-b-db, 14, 1, 2, 14, 56, 125, 60, 135, 135, 60, 2, 2.37293
93, 1, bw, attraction, a-b-db, 14, 1, 2, 14, 56, 125, 60, 135, 135, 60, 3, 0.852252
93, 1, bw, filler, NA, 999, 999, 2, 15, 194, 81, 188, 179, 86, 171, 2, 0.719994
93, 1, bw, filler, NA, 999, 999, 2, 15, 194, 81, 188, 179, 86, 171, 1, 0.882216
93, 1, bw, attraction, a-b-db, 2, 1, 2, 16, 60, 135, 59, 134, 135, 60, 2, 2.02074
93, 1, bw, attraction, a-b-db, 2, 1, 2, 16, 60, 135, 59, 134, 135, 60, 3, 0.874708
93, 1, bw, attraction, a-b-db, 14, 3, 2, 17, 120, 195, 111, 181, 195, 120, 1, 0.829024
93, 1, bw, attraction, a-b-db, 14, 3, 2, 17, 120, 195, 111, 181, 195, 120, 3, 1.19478
93, 1, bw, filler, NA, 999, 999, 2, 18, 114, 148, 179, 91, 116, 114, 1, 1.02435
93, 1, bw, filler, NA, 999, 999, 2, 18, 114, 148, 179, 91, 116, 114, 2, 0.902089
93, 1, bw, filler, NA, 999, 999, 2, 19, 123, 165, 192, 167, 187, 62, 2, 2.17569
93, 1, bw, filler, NA, 999, 999, 2, 19, 123, 165, 192, 167, 187, 62, 3, 0.646886
93, 1, bw, attraction, a-b-da, 14, 3, 2, 20, 195, 120, 181, 111, 120, 195, 3, 1.54655
93, 1, bw, attraction, a-b-da, 14, 3, 2, 20, 195, 120, 181, 111, 120, 195, 2, 0.763537
93, 1, bw, attraction, a-b-db, 2, 2, 2, 21, 165, 90, 90, 165, 89, 163, 1, 1.12249
93, 1, bw, attraction, a-b-db, 2, 2, 2, 21, 165, 90, 90, 165, 89, 163, 2, 0.684133
93, 1, bw, attraction, a-b-db, 5, 2, 2, 22, 165, 90, 90, 165, 88, 161, 2, 2.12649
93, 1, bw, attraction, a-b-db, 5, 2, 2, 22, 165, 90, 90, 165, 88, 161, 3, 0.775862
93, 1, bw, attraction, a-b-da, 5, 1, 2, 23, 60, 135, 132, 58, 135, 60, 1, 1.7982
93, 1, bw, attraction, a-b-da, 5, 1, 2, 23, 60, 135, 132, 58, 135, 60, 2, 1.72496
93, 1, bw, filler, NA, 999, 999, 2, 24, 148, 104, 67, 125, 175, 178, 3, 2.10092
93, 1, bw, filler, NA, 999, 999, 2, 24, 148, 104, 67, 125, 175, 178, 2, 0.887654
93, 1, bw, attraction, a-b-db, 9, 3, 2, 25, 114, 186, 195, 120, 120, 195, 3, 1.40995
93, 1, bw, attraction, a-b-db, 9, 3, 2, 25, 114, 186, 195, 120, 120, 195, 2, 1.55224
93, 1, bw, filler, NA, 999, 999, 2, 26, 192, 125, 117, 112, 109, 129, 1, 0.727663
93, 1, bw, filler, NA, 999, 999, 2, 26, 192, 125, 117, 112, 109, 129, 2, 0.489365
93, 1, bw, attraction, a-b-da, 14, 1, 2, 27, 135, 60, 125, 56, 60, 135, 3, 0.987769
93, 1, bw, attraction, a-b-da, 14, 1, 2, 27, 135, 60, 125, 56, 60, 135, 2, 0.843525
93, 1, bw, attraction, a-b-db, 5, 3, 2, 28, 117, 190, 195, 120, 120, 195, 3, 1.3192
93, 1, bw, attraction, a-b-db, 5, 3, 2, 28, 117, 190, 195, 120, 120, 195, 2, 0.51336
93, 1, bw, filler, NA, 999, 999, 2, 29, 60, 119, 104, 134, 143, 71, 2, 0.762446
93, 1, bw, filler, NA, 999, 999, 2, 29, 60, 119, 104, 134, 143, 71, 3, 0.794927
93, 1, bw, attraction, a-b-da, 5, 2, 2, 30, 165, 90, 161, 88, 90, 165, 1, 1.12055
93, 1, bw, attraction, a-b-da, 5, 2, 2, 30, 165, 90, 161, 88, 90, 165, 2, 0.890923
93, 1, bw, attraction, a-b-da, 2, 3, 2, 31, 193, 119, 195, 120, 120, 195, 1, 0.756489
93, 1, bw, attraction, a-b-da, 2, 3, 2, 31, 193, 119, 195, 120, 120, 195, 2, 0.557021
93, 1, bw, filler, NA, 999, 999, 2, 32, 85, 104, 56, 182, 181, 165, 3, 1.22001
93, 1, bw, filler, NA, 999, 999, 2, 32, 85, 104, 56, 182, 181, 165, 1, 0.746341
93, 1, bw, attraction, a-b-da, 5, 3, 2, 33, 195, 120, 120, 195, 190, 117, 2, 0.858111
93, 1, bw, attraction, a-b-da, 5, 3, 2, 33, 195, 120, 120, 195, 190, 117, 3, 0.726358
93, 1, bw, filler, NA, 999, 999, 2, 34, 115, 85, 154, 103, 145, 89, 2, 0.718713
93, 1, bw, filler, NA, 999, 999, 2, 34, 115, 85, 154, 103, 145, 89, 1, 0.559477
93, 1, bw, filler, NA, 999, 999, 2, 35, 178, 81, 139, 107, 67, 167, 2, 1.70436
93, 1, bw, filler, NA, 999, 999, 2, 35, 178, 81, 139, 107, 67, 167, 3, 1.41915
93, 1, bw, attraction, a-b-da, 14, 2, 2, 36, 90, 165, 165, 90, 153, 83, 1, 0.599965
93, 1, bw, attraction, a-b-da, 14, 2, 2, 36, 90, 165, 165, 90, 153, 83, 2, 0.519052
93, 1, bw, attraction, a-b-da, 9, 1, 2, 37, 129, 57, 60, 135, 135, 60, 2, 0.968148
93, 1, bw, attraction, a-b-da, 9, 1, 2, 37, 129, 57, 60, 135, 135, 60, 3, 0.560622
93, 1, bw, filler, NA, 999, 999, 3, 1, 118, 96, 68, 157, 113, 164, 2, 0.535574
93, 1, bw, filler, NA, 999, 999, 3, 1, 118, 96, 68, 157, 113, 164, 1, 0.881331
93, 1, bw, attraction, a-b-db, 5, 3, 3, 2, 195, 120, 120, 195, 117, 190, 1, 0.65163
93, 1, bw, attraction, a-b-db, 5, 3, 3, 2, 195, 120, 120, 195, 117, 190, 2, 0.704799
93, 1, bw, filler, NA, 999, 999, 3, 3, 184, 161, 64, 131, 92, 146, 1, 1.09864
93, 1, bw, filler, NA, 999, 999, 3, 3, 184, 161, 64, 131, 92, 146, 2, 0.733678
93, 1, bw, attraction, a-b-da, 5, 1, 3, 4, 135, 60, 132, 58, 60, 135, 3, 1.74998
93, 1, bw, attraction, a-b-da, 5, 1, 3, 4, 135, 60, 132, 58, 60, 135, 2, 0.934706
93, 1, bw, attraction, a-b-db, 9, 2, 3, 5, 165, 90, 90, 165, 86, 157, 2, 2.18292
93, 1, bw, attraction, a-b-db, 9, 2, 3, 5, 165, 90, 90, 165, 86, 157, 1, 2.23829
93, 1, bw, filler, NA, 999, 999, 3, 6, 153, 97, 148, 152, 163, 185, 3, 0.962177
93, 1, bw, filler, NA, 999, 999, 3, 6, 153, 97, 148, 152, 163, 185, 1, 0.650593
93, 1, bw, filler, NA, 999, 999, 3, 7, 59, 141, 110, 186, 126, 85, 2, 0.998252
93, 1, bw, filler, NA, 999, 999, 3, 7, 59, 141, 110, 186, 126, 85, 1, 0.789303
93, 1, bw, attraction, a-b-da, 9, 3, 3, 8, 120, 195, 195, 120, 186, 114, 3, 0.971615
93, 1, bw, attraction, a-b-da, 9, 3, 3, 8, 120, 195, 195, 120, 186, 114, 1, 0.595395
93, 1, bw, filler, NA, 999, 999, 3, 9, 172, 195, 181, 171, 172, 78, 1, 0.977149
93, 1, bw, filler, NA, 999, 999, 3, 9, 172, 195, 181, 171, 172, 78, 3, 0.744796
93, 1, bw, attraction, a-b-db, 2, 1, 3, 10, 59, 134, 60, 135, 135, 60, 2, 1.52847
93, 1, bw, attraction, a-b-db, 2, 1, 3, 10, 59, 134, 60, 135, 135, 60, 3, 0.849947
93, 1, bw, attraction, a-b-db, 14, 3, 3, 11, 195, 120, 120, 195, 111, 181, 2, 2.35758
93, 1, bw, attraction, a-b-db, 14, 3, 3, 11, 195, 120, 120, 195, 111, 181, 1, 2.99743
93, 1, bw, attraction, a-b-db, 9, 3, 3, 12, 114, 186, 195, 120, 120, 195, 3, 1.13852
93, 1, bw, attraction, a-b-db, 9, 3, 3, 12, 114, 186, 195, 120, 120, 195, 1, 2.16347
93, 1, bw, attraction, a-b-db, 9, 1, 3, 13, 60, 135, 135, 60, 57, 129, 3, 1.76202
93, 1, bw, attraction, a-b-db, 9, 1, 3, 13, 60, 135, 135, 60, 57, 129, 2, 0.954083
93, 1, bw, attraction, a-b-db, 2, 2, 3, 14, 165, 90, 89, 163, 90, 165, 2, 4.74584
93, 1, bw, attraction, a-b-db, 2, 2, 3, 14, 165, 90, 89, 163, 90, 165, 1, 0.689713
93, 1, bw, attraction, a-b-db, 2, 3, 3, 15, 119, 193, 120, 195, 195, 120, 2, 2.316
93, 1, bw, attraction, a-b-db, 2, 3, 3, 15, 119, 193, 120, 195, 195, 120, 3, 0.661984
93, 1, bw, catch, NA, 999, 999, 3, 16, 120, 135, 129, 186, 131, 64, 2, 0.808976
93, 1, bw, catch, NA, 999, 999, 3, 16, 120, 135, 129, 186, 131, 64, 3, 1.03134
93, 1, bw, attraction, a-b-db, 5, 1, 3, 17, 60, 135, 135, 60, 58, 132, 1, 2.89961
93, 1, bw, attraction, a-b-db, 5, 1, 3, 17, 60, 135, 135, 60, 58, 132, 3, 1.40601
93, 1, bw, filler, NA, 999, 999, 3, 18, 195, 58, 124, 183, 176, 134, 2, 0.707546
93, 1, bw, filler, NA, 999, 999, 3, 18, 195, 58, 124, 183, 176, 134, 1, 0.685884
93, 1, bw, attraction, a-b-db, 14, 1, 3, 19, 56, 125, 135, 60, 60, 135, 2, 0.928361
93, 1, bw, attraction, a-b-db, 14, 1, 3, 19, 56, 125, 135, 60, 60, 135, 3, 0.522259
93, 1, bw, attraction, a-b-db, 5, 2, 3, 20, 88, 161, 165, 90, 90, 165, 3, 2.48311
93, 1, bw, attraction, a-b-db, 5, 2, 3, 20, 88, 161, 165, 90, 90, 165, 2, 0.726328
93, 1, bw, attraction, a-b-da, 14, 3, 3, 21, 195, 120, 181, 111, 120, 195, 3, 1.39877
93, 1, bw, attraction, a-b-da, 14, 3, 3, 21, 195, 120, 181, 111, 120, 195, 2, 0.789615
93, 1, bw, attraction, a-b-da, 2, 1, 3, 22, 134, 59, 135, 60, 60, 135, 3, 0.804005
93, 1, bw, attraction, a-b-da, 2, 1, 3, 22, 134, 59, 135, 60, 60, 135, 2, 0.65903
93, 1, bw, filler, NA, 999, 999, 3, 23, 140, 115, 73, 92, 170, 144, 3, 0.726081
93, 1, bw, filler, NA, 999, 999, 3, 23, 140, 115, 73, 92, 170, 144, 2, 0.967808
93, 1, bw, attraction, a-b-da, 5, 2, 3, 24, 90, 165, 161, 88, 165, 90, 1, 4.09484
93, 1, bw, attraction, a-b-da, 5, 2, 3, 24, 90, 165, 161, 88, 165, 90, 2, 0.576911
93, 1, bw, filler, NA, 999, 999, 3, 25, 86, 193, 134, 162, 102, 101, 2, 1.05524
93, 1, bw, filler, NA, 999, 999, 3, 25, 86, 193, 134, 162, 102, 101, 1, 0.491584
93, 1, bw, attraction, a-b-da, 14, 2, 3, 26, 165, 90, 90, 165, 153, 83, 2, 21.9974
93, 1, bw, attraction, a-b-da, 14, 2, 3, 26, 165, 90, 90, 165, 153, 83, 1, 0.669759
93, 1, bw, attraction, a-b-da, 9, 2, 3, 27, 90, 165, 157, 86, 165, 90, 1, 1.00882
93, 1, bw, attraction, a-b-da, 9, 2, 3, 27, 90, 165, 157, 86, 165, 90, 2, 0.87916
93, 1, bw, catch, NA, 999, 999, 3, 28, 138, 117, 134, 61, 193, 122, 3, 0.993665
93, 1, bw, catch, NA, 999, 999, 3, 28, 138, 117, 134, 61, 193, 122, 2, 0.936625
93, 1, bw, attraction, a-b-da, 5, 3, 3, 29, 195, 120, 120, 195, 190, 117, 2, 0.984906
93, 1, bw, attraction, a-b-da, 5, 3, 3, 29, 195, 120, 120, 195, 190, 117, 1, 0.456621
93, 1, bw, attraction, a-b-da, 9, 1, 3, 30, 129, 57, 60, 135, 135, 60, 3, 1.34831
93, 1, bw, attraction, a-b-da, 9, 1, 3, 30, 129, 57, 60, 135, 135, 60, 2, 0.957195
93, 1, bw, catch, NA, 999, 999, 3, 31, 124, 191, 108, 87, 149, 106, 1, 0.97217
93, 1, bw, catch, NA, 999, 999, 3, 31, 124, 191, 108, 87, 149, 106, 2, 0.515964
93, 1, bw, attraction, a-b-da, 14, 1, 3, 32, 135, 60, 125, 56, 60, 135, 3, 0.964984
93, 1, bw, attraction, a-b-da, 14, 1, 3, 32, 135, 60, 125, 56, 60, 135, 2, 0.501257
93, 1, bw, attraction, a-b-db, 14, 2, 3, 33, 165, 90, 83, 153, 90, 165, 3, 2.8631
93, 1, bw, attraction, a-b-db, 14, 2, 3, 33, 165, 90, 83, 153, 90, 165, 2, 1.20278
93, 1, bw, filler, NA, 999, 999, 3, 34, 142, 184, 180, 164, 95, 175, 2, 2.15234
93, 1, bw, filler, NA, 999, 999, 3, 34, 142, 184, 180, 164, 95, 175, 3, 0.865092
93, 1, bw, attraction, a-b-da, 2, 2, 3, 35, 163, 89, 165, 90, 90, 165, 3, 6.98015
93, 1, bw, attraction, a-b-da, 2, 2, 3, 35, 163, 89, 165, 90, 90, 165, 2, 1.01782
93, 1, bw, filler, NA, 999, 999, 3, 36, 112, 149, 163, 193, 194, 176, 3, 1.12677
93, 1, bw, filler, NA, 999, 999, 3, 36, 112, 149, 163, 193, 194, 176, 1, 1.30437
93, 1, bw, attraction, a-b-da, 2, 3, 3, 37, 195, 120, 120, 195, 193, 119, 1, 1.07392
93, 1, bw, attraction, a-b-da, 2, 3, 3, 37, 195, 120, 120, 195, 193, 119, 2, 4.78963
93, 1, bw, attraction, a-b-da, 2, 3, 4, 1, 195, 120, 120, 195, 193, 119, 2, 0.962651
93, 1, bw, attraction, a-b-da, 2, 3, 4, 1, 195, 120, 120, 195, 193, 119, 1, 0.979013
93, 1, bw, filler, NA, 999, 999, 4, 2, 70, 155, 98, 73, 155, 176, 3, 0.985337
93, 1, bw, filler, NA, 999, 999, 4, 2, 70, 155, 98, 73, 155, 176, 2, 0.976953
93, 1, bw, attraction, a-b-da, 14, 1, 4, 3, 60, 135, 125, 56, 135, 60, 1, 2.4072
93, 1, bw, attraction, a-b-da, 14, 1, 4, 3, 60, 135, 125, 56, 135, 60, 2, 0.629107
93, 1, bw, attraction, a-b-da, 14, 2, 4, 4, 165, 90, 153, 83, 90, 165, 3, 1.18551
93, 1, bw, attraction, a-b-da, 14, 2, 4, 4, 165, 90, 153, 83, 90, 165, 2, 0.497224
93, 1, bw, attraction, a-b-da, 9, 1, 4, 5, 60, 135, 129, 57, 135, 60, 1, 15.819
93, 1, bw, attraction, a-b-da, 9, 1, 4, 5, 60, 135, 129, 57, 135, 60, 2, 0.900769
93, 1, bw, attraction, a-b-db, 5, 2, 4, 6, 90, 165, 88, 161, 165, 90, 1, 0.918398
93, 1, bw, attraction, a-b-db, 5, 2, 4, 6, 90, 165, 88, 161, 165, 90, 3, 1.09681
93, 1, bw, attraction, a-b-da, 9, 3, 4, 7, 186, 114, 120, 195, 195, 120, 2, 0.762368
93, 1, bw, attraction, a-b-da, 9, 3, 4, 7, 186, 114, 120, 195, 195, 120, 1, 0.522643
93, 1, bw, attraction, a-b-da, 5, 2, 4, 8, 90, 165, 161, 88, 165, 90, 1, 1.58788
93, 1, bw, attraction, a-b-da, 5, 2, 4, 8, 90, 165, 161, 88, 165, 90, 2, 0.627223
93, 1, bw, filler, NA, 999, 999, 4, 9, 93, 173, 194, 130, 68, 179, 2, 0.887697
93, 1, bw, filler, NA, 999, 999, 4, 9, 93, 173, 194, 130, 68, 179, 3, 0.6914
93, 1, bw, attraction, a-b-db, 14, 2, 4, 10, 83, 153, 165, 90, 90, 165, 3, 1.07706
93, 1, bw, attraction, a-b-db, 14, 2, 4, 10, 83, 153, 165, 90, 90, 165, 2, 0.48895
93, 1, bw, attraction, a-b-db, 2, 3, 4, 11, 120, 195, 119, 193, 195, 120, 2, 1.15519
93, 1, bw, attraction, a-b-db, 2, 3, 4, 11, 120, 195, 119, 193, 195, 120, 1, 1.26749
93, 1, bw, attraction, a-b-da, 5, 1, 4, 12, 60, 135, 132, 58, 135, 60, 1, 1.13443
93, 1, bw, attraction, a-b-da, 5, 1, 4, 12, 60, 135, 132, 58, 135, 60, 2, 0.968078
93, 1, bw, catch, NA, 999, 999, 4, 13, 106, 89, 136, 179, 115, 140, 2, 4.04696
93, 1, bw, catch, NA, 999, 999, 4, 13, 106, 89, 136, 179, 115, 140, 1, 0.802994
93, 1, bw, catch, NA, 999, 999, 4, 14, 75, 120, 127, 188, 115, 140, 2, 1.9606
93, 1, bw, catch, NA, 999, 999, 4, 14, 75, 120, 127, 188, 115, 140, 1, 0.488674
93, 1, bw, attraction, a-b-db, 2, 1, 4, 15, 59, 134, 135, 60, 60, 135, 1, 1.15516
93, 1, bw, attraction, a-b-db, 2, 1, 4, 15, 59, 134, 135, 60, 60, 135, 2, 1.07551
93, 1, bw, attraction, a-b-db, 2, 2, 4, 16, 90, 165, 89, 163, 165, 90, 2, 2.61382
93, 1, bw, attraction, a-b-db, 2, 2, 4, 16, 90, 165, 89, 163, 165, 90, 3, 0.803591
93, 1, bw, attraction, a-b-da, 9, 2, 4, 17, 90, 165, 157, 86, 165, 90, 1, 1.64941
93, 1, bw, attraction, a-b-da, 9, 2, 4, 17, 90, 165, 157, 86, 165, 90, 2, 0.574028
93, 1, bw, attraction, a-b-db, 9, 3, 4, 18, 114, 186, 120, 195, 195, 120, 2, 0.73248
93, 1, bw, attraction, a-b-db, 9, 3, 4, 18, 114, 186, 120, 195, 195, 120, 3, 1.50235
93, 1, bw, filler, NA, 999, 999, 4, 19, 144, 164, 84, 185, 156, 113, 1, 0.911739
93, 1, bw, filler, NA, 999, 999, 4, 19, 144, 164, 84, 185, 156, 113, 2, 0.594141
93, 1, bw, attraction, a-b-db, 5, 1, 4, 20, 58, 132, 60, 135, 135, 60, 2, 1.89577
93, 1, bw, attraction, a-b-db, 5, 1, 4, 20, 58, 132, 60, 135, 135, 60, 3, 0.970528
93, 1, bw, filler, NA, 999, 999, 4, 21, 118, 139, 116, 189, 97, 151, 2, 0.673483
93, 1, bw, filler, NA, 999, 999, 4, 21, 118, 139, 116, 189, 97, 151, 1, 2.23725
93, 1, bw, attraction, a-b-da, 2, 2, 4, 22, 163, 89, 165, 90, 90, 165, 3, 2.61713
93, 1, bw, attraction, a-b-da, 2, 2, 4, 22, 163, 89, 165, 90, 90, 165, 2, 0.494895
93, 1, bw, attraction, a-b-db, 9, 2, 4, 23, 90, 165, 165, 90, 86, 157, 1, 0.992821
93, 1, bw, attraction, a-b-db, 9, 2, 4, 23, 90, 165, 165, 90, 86, 157, 2, 0.62373
93, 1, bw, attraction, a-b-db, 14, 3, 4, 24, 120, 195, 195, 120, 111, 181, 2, 0.772268
93, 1, bw, attraction, a-b-db, 14, 3, 4, 24, 120, 195, 195, 120, 111, 181, 1, 0.491868
93, 1, bw, attraction, a-b-da, 5, 3, 4, 25, 120, 195, 190, 117, 195, 120, 2, 0.86969
93, 1, bw, attraction, a-b-da, 5, 3, 4, 25, 120, 195, 190, 117, 195, 120, 3, 7.07416
93, 1, bw, filler, NA, 999, 999, 4, 26, 120, 88, 88, 67, 127, 120, 3, 0.963165
93, 1, bw, filler, NA, 999, 999, 4, 26, 120, 88, 88, 67, 127, 120, 2, 1.05152
93, 1, bw, attraction, a-b-db, 5, 3, 4, 27, 117, 190, 120, 195, 195, 120, 2, 1.63906
93, 1, bw, attraction, a-b-db, 5, 3, 4, 27, 117, 190, 120, 195, 195, 120, 3, 0.651892
93, 1, bw, filler, NA, 999, 999, 4, 28, 133, 65, 163, 131, 86, 68, 2, 0.775647
93, 1, bw, filler, NA, 999, 999, 4, 28, 133, 65, 163, 131, 86, 68, 3, 0.95937
93, 1, bw, catch, NA, 999, 999, 4, 29, 106, 89, 96, 159, 121, 194, 2, 1.84624
93, 1, bw, catch, NA, 999, 999, 4, 29, 106, 89, 96, 159, 121, 194, 1, 2.33907
93, 1, bw, filler, NA, 999, 999, 4, 30, 82, 183, 118, 180, 120, 163, 2, 1.88303
93, 1, bw, filler, NA, 999, 999, 4, 30, 82, 183, 118, 180, 120, 163, 1, 0.638343
93, 1, bw, attraction, a-b-da, 14, 3, 4, 31, 195, 120, 120, 195, 181, 111, 2, 1.24263
93, 1, bw, attraction, a-b-da, 14, 3, 4, 31, 195, 120, 120, 195, 181, 111, 3, 0.583639
93, 1, bw, attraction, a-b-db, 9, 1, 4, 32, 60, 135, 135, 60, 57, 129, 1, 2.59815
93, 1, bw, attraction, a-b-db, 9, 1, 4, 32, 60, 135, 135, 60, 57, 129, 2, 0.660492
93, 1, bw, filler, NA, 999, 999, 4, 33, 190, 176, 71, 176, 84, 120, 1, 0.719519
93, 1, bw, filler, NA, 999, 999, 4, 33, 190, 176, 71, 176, 84, 120, 3, 0.802057
93, 1, bw, attraction, a-b-da, 2, 1, 4, 34, 135, 60, 134, 59, 60, 135, 3, 7.11175
93, 1, bw, attraction, a-b-da, 2, 1, 4, 34, 135, 60, 134, 59, 60, 135, 2, 0.520108
93, 1, bw, attraction, a-b-db, 14, 1, 4, 35, 56, 125, 60, 135, 135, 60, 3, 1.20141
93, 1, bw, attraction, a-b-db, 14, 1, 4, 35, 56, 125, 60, 135, 135, 60, 2, 0.544294
93, 1, bw, filler, NA, 999, 999, 4, 36, 145, 116, 175, 174, 104, 137, 2, 0.592044
93, 1, bw, filler, NA, 999, 999, 4, 36, 145, 116, 175, 174, 104, 137, 1, 0.623212
93, 1, bw, filler, NA, 999, 999, 4, 37, 75, 122, 163, 136, 131, 107, 2, 1.00413
93, 1, bw, filler, NA, 999, 999, 4, 37, 75, 122, 163, 136, 131, 107, 1, 0.63506
93, 1, bw, attraction, a-b-db, 2, 3, 5, 1, 119, 193, 195, 120, 120, 195, 3, 13.8783
93, 1, bw, attraction, a-b-db, 2, 3, 5, 1, 119, 193, 195, 120, 120, 195, 2, 0.493803
93, 1, bw, filler, NA, 999, 999, 5, 2, 84, 98, 115, 100, 119, 152, 3, 1.96764
93, 1, bw, filler, NA, 999, 999, 5, 2, 84, 98, 115, 100, 119, 152, 1, 0.943559
93, 1, bw, catch, NA, 999, 999, 5, 3, 118, 137, 131, 64, 177, 138, 3, 1.07923
93, 1, bw, catch, NA, 999, 999, 5, 3, 118, 137, 131, 64, 177, 138, 2, 0.443053
93, 1, bw, filler, NA, 999, 999, 5, 4, 109, 191, 97, 84, 186, 65, 1, 0.710744
93, 1, bw, filler, NA, 999, 999, 5, 4, 109, 191, 97, 84, 186, 65, 3, 0.505172
93, 1, bw, attraction, a-b-da, 5, 1, 5, 5, 135, 60, 60, 135, 132, 58, 2, 2.90694
93, 1, bw, attraction, a-b-da, 5, 1, 5, 5, 135, 60, 60, 135, 132, 58, 3, 0.74864
93, 1, bw, attraction, a-b-da, 14, 2, 5, 6, 153, 83, 165, 90, 90, 165, 3, 0.908455
93, 1, bw, attraction, a-b-da, 14, 2, 5, 6, 153, 83, 165, 90, 90, 165, 1, 0.75871
93, 1, bw, attraction, a-b-da, 9, 2, 5, 7, 90, 165, 165, 90, 157, 86, 1, 0.973805
93, 1, bw, attraction, a-b-da, 9, 2, 5, 7, 90, 165, 165, 90, 157, 86, 2, 0.613528
93, 1, bw, attraction, a-b-db, 5, 2, 5, 8, 165, 90, 90, 165, 88, 161, 1, 0.81048
93, 1, bw, attraction, a-b-db, 5, 2, 5, 8, 165, 90, 90, 165, 88, 161, 3, 0.672927
93, 1, bw, attraction, a-b-da, 14, 1, 5, 9, 60, 135, 135, 60, 125, 56, 1, 1.32399
93, 1, bw, attraction, a-b-da, 14, 1, 5, 9, 60, 135, 135, 60, 125, 56, 3, 0.669514
93, 1, bw, filler, NA, 999, 999, 5, 10, 111, 125, 86, 76, 154, 138, 3, 1.32854
93, 1, bw, filler, NA, 999, 999, 5, 10, 111, 125, 86, 76, 154, 138, 2, 0.53813
93, 1, bw, attraction, a-b-db, 5, 3, 5, 11, 117, 190, 195, 120, 120, 195, 3, 2.98658
93, 1, bw, attraction, a-b-db, 5, 3, 5, 11, 117, 190, 195, 120, 120, 195, 2, 0.56165
93, 1, bw, attraction, a-b-db, 9, 1, 5, 12, 60, 135, 135, 60, 57, 129, 1, 0.856659
93, 1, bw, attraction, a-b-db, 9, 1, 5, 12, 60, 135, 135, 60, 57, 129, 2, 0.605117
93, 1, bw, filler, NA, 999, 999, 5, 13, 162, 166, 132, 130, 119, 165, 1, 0.658834
93, 1, bw, filler, NA, 999, 999, 5, 13, 162, 166, 132, 130, 119, 165, 2, 0.847263
93, 1, bw, attraction, a-b-da, 2, 2, 5, 14, 165, 90, 90, 165, 163, 89, 1, 2.155
93, 1, bw, attraction, a-b-da, 2, 2, 5, 14, 165, 90, 90, 165, 163, 89, 2, 1.76297
93, 1, bw, attraction, a-b-da, 5, 3, 5, 15, 195, 120, 190, 117, 120, 195, 3, 1.36964
93, 1, bw, attraction, a-b-da, 5, 3, 5, 15, 195, 120, 190, 117, 120, 195, 2, 0.489866
93, 1, bw, attraction, a-b-db, 2, 1, 5, 16, 59, 134, 135, 60, 60, 135, 1, 1.21228
93, 1, bw, attraction, a-b-db, 2, 1, 5, 16, 59, 134, 135, 60, 60, 135, 2, 0.650635
93, 1, bw, filler, NA, 999, 999, 5, 17, 159, 129, 70, 58, 192, 93, 1, 0.950309
93, 1, bw, filler, NA, 999, 999, 5, 17, 159, 129, 70, 58, 192, 93, 2, 0.687429
93, 1, bw, attraction, a-b-da, 9, 1, 5, 18, 129, 57, 135, 60, 60, 135, 3, 3.38578
93, 1, bw, attraction, a-b-da, 9, 1, 5, 18, 129, 57, 135, 60, 60, 135, 2, 0.632659
93, 1, bw, filler, NA, 999, 999, 5, 19, 100, 71, 87, 173, 81, 144, 2, 0.781105
93, 1, bw, filler, NA, 999, 999, 5, 19, 100, 71, 87, 173, 81, 144, 1, 0.80471
93, 1, bw, attraction, a-b-db, 5, 1, 5, 20, 135, 60, 60, 135, 58, 132, 1, 0.906425
93, 1, bw, attraction, a-b-db, 5, 1, 5, 20, 135, 60, 60, 135, 58, 132, 2, 1.21283
93, 1, bw, catch, NA, 999, 999, 5, 21, 79, 116, 172, 143, 116, 139, 2, 1.18564
93, 1, bw, catch, NA, 999, 999, 5, 21, 79, 116, 172, 143, 116, 139, 1, 0.497346
93, 1, bw, attraction, a-b-db, 14, 2, 5, 22, 90, 165, 165, 90, 83, 153, 1, 1.23512
93, 1, bw, attraction, a-b-db, 14, 2, 5, 22, 90, 165, 165, 90, 83, 153, 2, 0.624703
93, 1, bw, filler, NA, 999, 999, 5, 23, 108, 173, 138, 93, 106, 111, 1, 0.573055
93, 1, bw, filler, NA, 999, 999, 5, 23, 108, 173, 138, 93, 106, 111, 3, 0.980931
93, 1, bw, attraction, a-b-da, 9, 3, 5, 24, 195, 120, 120, 195, 186, 114, 2, 1.21124
93, 1, bw, attraction, a-b-da, 9, 3, 5, 24, 195, 120, 120, 195, 186, 114, 3, 0.721615
93, 1, bw, attraction, a-b-db, 14, 1, 5, 25, 56, 125, 135, 60, 60, 135, 3, 1.94654
93, 1, bw, attraction, a-b-db, 14, 1, 5, 25, 56, 125, 135, 60, 60, 135, 2, 0.675214
93, 1, bw, attraction, a-b-db, 14, 3, 5, 26, 120, 195, 195, 120, 111, 181, 1, 1.89361
93, 1, bw, attraction, a-b-db, 14, 3, 5, 26, 120, 195, 195, 120, 111, 181, 2, 0.608276
93, 1, bw, attraction, a-b-db, 2, 2, 5, 27, 165, 90, 89, 163, 90, 165, 3, 2.82944
93, 1, bw, attraction, a-b-db, 2, 2, 5, 27, 165, 90, 89, 163, 90, 165, 1, 1.05843
93, 1, bw, attraction, a-b-da, 2, 1, 5, 28, 135, 60, 60, 135, 134, 59, 2, 1.91738
93, 1, bw, attraction, a-b-da, 2, 1, 5, 28, 135, 60, 60, 135, 134, 59, 1, 1.05554
93, 1, bw, attraction, a-b-da, 5, 2, 5, 29, 161, 88, 165, 90, 90, 165, 3, 1.11518
93, 1, bw, attraction, a-b-da, 5, 2, 5, 29, 161, 88, 165, 90, 90, 165, 2, 0.789631
93, 1, bw, attraction, a-b-da, 14, 3, 5, 30, 181, 111, 195, 120, 120, 195, 3, 1.24379
93, 1, bw, attraction, a-b-da, 14, 3, 5, 30, 181, 111, 195, 120, 120, 195, 2, 0.608717
93, 1, bw, filler, NA, 999, 999, 5, 31, 177, 119, 59, 186, 60, 120, 1, 3.80576
93, 1, bw, filler, NA, 999, 999, 5, 31, 177, 119, 59, 186, 60, 120, 3, 0.843336
93, 1, bw, attraction, a-b-db, 9, 2, 5, 32, 165, 90, 90, 165, 86, 157, 2, 1.95086
93, 1, bw, attraction, a-b-db, 9, 2, 5, 32, 165, 90, 90, 165, 86, 157, 1, 0.783503
93, 1, bw, filler, NA, 999, 999, 5, 33, 73, 138, 69, 95, 148, 100, 3, 0.733934
93, 1, bw, filler, NA, 999, 999, 5, 33, 73, 138, 69, 95, 148, 100, 2, 0.783735
93, 1, bw, attraction, a-b-db, 9, 3, 5, 34, 120, 195, 114, 186, 195, 120, 1, 1.75016
93, 1, bw, attraction, a-b-db, 9, 3, 5, 34, 120, 195, 114, 186, 195, 120, 3, 1.27886
93, 1, bw, attraction, a-b-da, 2, 3, 5, 35, 195, 120, 193, 119, 120, 195, 3, 1.60901
93, 1, bw, attraction, a-b-da, 2, 3, 5, 35, 195, 120, 193, 119, 120, 195, 2, 0.647291
93, 1, bw, filler, NA, 999, 999, 5, 36, 167, 118, 88, 111, 147, 60, 1, 1.52291
93, 1, bw, filler, NA, 999, 999, 5, 36, 167, 118, 88, 111, 147, 60, 2, 2.4844
93, 1, bw, catch, NA, 999, 999, 5, 37, 163, 152, 96, 99, 128, 127, 1, 0.83828
93, 1, bw, catch, NA, 999, 999, 5, 37, 163, 152, 96, 99, 128, 127, 2, 0.547279
93, 1, bw, filler, NA, 999, 999, 6, 1, 74, 116, 98, 181, 183, 100, 2, 1.88313
93, 1, bw, filler, NA, 999, 999, 6, 1, 74, 116, 98, 181, 183, 100, 1, 0.622592
93, 1, bw, attraction, a-b-db, 5, 1, 6, 2, 135, 60, 58, 132, 60, 135, 3, 1.42753
93, 1, bw, attraction, a-b-db, 5, 1, 6, 2, 135, 60, 58, 132, 60, 135, 2, 0.66518
93, 1, bw, filler, NA, 999, 999, 6, 3, 103, 110, 132, 145, 134, 66, 2, 0.844219
93, 1, bw, filler, NA, 999, 999, 6, 3, 103, 110, 132, 145, 134, 66, 3, 0.897132
93, 1, bw, attraction, a-b-da, 9, 1, 6, 4, 60, 135, 129, 57, 135, 60, 3, 0.986814
93, 1, bw, attraction, a-b-da, 9, 1, 6, 4, 60, 135, 129, 57, 135, 60, 1, 3.53047
93, 1, bw, attraction, a-b-db, 9, 2, 6, 5, 90, 165, 165, 90, 86, 157, 3, 1.32197
93, 1, bw, attraction, a-b-db, 9, 2, 6, 5, 90, 165, 165, 90, 86, 157, 2, 0.563525
93, 1, bw, attraction, a-b-db, 2, 1, 6, 6, 135, 60, 59, 134, 60, 135, 3, 1.55461
93, 1, bw, attraction, a-b-db, 2, 1, 6, 6, 135, 60, 59, 134, 60, 135, 1, 0.610814
93, 1, bw, filler, NA, 999, 999, 6, 7, 170, 130, 177, 147, 128, 181, 2, 0.807791
93, 1, bw, filler, NA, 999, 999, 6, 7, 170, 130, 177, 147, 128, 181, 1, 1.10229
93, 1, bw, attraction, a-b-da, 5, 3, 6, 8, 195, 120, 190, 117, 120, 195, 3, 1.14379
93, 1, bw, attraction, a-b-da, 5, 3, 6, 8, 195, 120, 190, 117, 120, 195, 2, 0.648753
93, 1, bw, attraction, a-b-db, 2, 2, 6, 9, 165, 90, 90, 165, 89, 163, 2, 1.69254
93, 1, bw, attraction, a-b-db, 2, 2, 6, 9, 165, 90, 90, 165, 89, 163, 1, 0.463268
93, 1, bw, attraction, a-b-db, 14, 1, 6, 10, 135, 60, 56, 125, 60, 135, 3, 1.93042
93, 1, bw, attraction, a-b-db, 14, 1, 6, 10, 135, 60, 56, 125, 60, 135, 1, 1.11591
93, 1, bw, attraction, a-b-da, 2, 1, 6, 11, 60, 135, 135, 60, 134, 59, 1, 3.78075
93, 1, bw, attraction, a-b-da, 2, 1, 6, 11, 60, 135, 135, 60, 134, 59, 2, 0.691546
93, 1, bw, attraction, a-b-db, 14, 2, 6, 12, 165, 90, 83, 153, 90, 165, 3, 2.33327
93, 1, bw, attraction, a-b-db, 14, 2, 6, 12, 165, 90, 83, 153, 90, 165, 1, 0.5107
93, 1, bw, attraction, a-b-db, 5, 3, 6, 13, 117, 190, 120, 195, 195, 120, 1, 1.84766
93, 1, bw, attraction, a-b-db, 5, 3, 6, 13, 117, 190, 120, 195, 195, 120, 3, 0.996362
93, 1, bw, attraction, a-b-da, 14, 2, 6, 14, 153, 83, 90, 165, 165, 90, 2, 1.98614
93, 1, bw, attraction, a-b-da, 14, 2, 6, 14, 153, 83, 90, 165, 165, 90, 1, 0.617465
93, 1, bw, filler, NA, 999, 999, 6, 15, 183, 70, 175, 56, 173, 117, 3, 0.894433
93, 1, bw, filler, NA, 999, 999, 6, 15, 183, 70, 175, 56, 173, 117, 2, 0.929618
93, 1, bw, attraction, a-b-db, 9, 1, 6, 16, 135, 60, 60, 135, 57, 129, 2, 3.45791
93, 1, bw, attraction, a-b-db, 9, 1, 6, 16, 135, 60, 60, 135, 57, 129, 3, 0.693258
93, 1, bw, filler, NA, 999, 999, 6, 17, 131, 173, 84, 155, 171, 144, 3, 1.09502
93, 1, bw, filler, NA, 999, 999, 6, 17, 131, 173, 84, 155, 171, 144, 2, 0.69797
93, 1, bw, catch, NA, 999, 999, 6, 18, 122, 133, 161, 154, 111, 84, 2, 0.71576
93, 1, bw, catch, NA, 999, 999, 6, 18, 122, 133, 161, 154, 111, 84, 3, 0.49418
93, 1, bw, attraction, a-b-db, 9, 3, 6, 19, 120, 195, 114, 186, 195, 120, 1, 1.20788
93, 1, bw, attraction, a-b-db, 9, 3, 6, 19, 120, 195, 114, 186, 195, 120, 3, 1.27834
93, 1, bw, attraction, a-b-da, 5, 2, 6, 20, 165, 90, 161, 88, 90, 165, 3, 0.89634
93, 1, bw, attraction, a-b-da, 5, 2, 6, 20, 165, 90, 161, 88, 90, 165, 2, 0.547495
93, 1, bw, catch, NA, 999, 999, 6, 21, 170, 145, 147, 108, 100, 95, 1, 0.907193
93, 1, bw, catch, NA, 999, 999, 6, 21, 170, 145, 147, 108, 100, 95, 3, 0.845576
93, 1, bw, attraction, a-b-db, 5, 2, 6, 22, 90, 165, 88, 161, 165, 90, 3, 1.49719
93, 1, bw, attraction, a-b-db, 5, 2, 6, 22, 90, 165, 88, 161, 165, 90, 2, 0.56406
93, 1, bw, filler, NA, 999, 999, 6, 23, 113, 122, 128, 153, 133, 104, 2, 0.811118
93, 1, bw, filler, NA, 999, 999, 6, 23, 113, 122, 128, 153, 133, 104, 1, 0.521494
93, 1, bw, catch, NA, 999, 999, 6, 24, 159, 156, 90, 105, 102, 153, 1, 1.37065
93, 1, bw, catch, NA, 999, 999, 6, 24, 159, 156, 90, 105, 102, 153, 2, 0.570887
93, 1, bw, filler, NA, 999, 999, 6, 25, 118, 86, 112, 182, 75, 61, 2, 2.09006
93, 1, bw, filler, NA, 999, 999, 6, 25, 118, 86, 112, 182, 75, 61, 3, 0.924597
93, 1, bw, attraction, a-b-db, 2, 3, 6, 26, 119, 193, 195, 120, 120, 195, 3, 0.74894
93, 1, bw, attraction, a-b-db, 2, 3, 6, 26, 119, 193, 195, 120, 120, 195, 2, 0.57401
93, 1, bw, filler, NA, 999, 999, 6, 27, 163, 84, 130, 114, 165, 132, 3, 1.38837
93, 1, bw, filler, NA, 999, 999, 6, 27, 163, 84, 130, 114, 165, 132, 1, 1.61936
93, 1, bw, attraction, a-b-db, 14, 3, 6, 28, 111, 181, 120, 195, 195, 120, 3, 1.46399
93, 1, bw, attraction, a-b-db, 14, 3, 6, 28, 111, 181, 120, 195, 195, 120, 1, 0.47633
93, 1, bw, filler, NA, 999, 999, 6, 29, 189, 75, 116, 76, 132, 58, 1, 0.918746
93, 1, bw, filler, NA, 999, 999, 6, 29, 189, 75, 116, 76, 132, 58, 3, 1.04907
93, 1, bw, attraction, a-b-da, 14, 3, 6, 30, 120, 195, 195, 120, 181, 111, 1, 2.53261
93, 1, bw, attraction, a-b-da, 14, 3, 6, 30, 120, 195, 195, 120, 181, 111, 3, 1.07802
93, 1, bw, attraction, a-b-da, 14, 1, 6, 31, 135, 60, 60, 135, 125, 56, 2, 1.6001
93, 1, bw, attraction, a-b-da, 14, 1, 6, 31, 135, 60, 60, 135, 125, 56, 3, 0.67104
93, 1, bw, attraction, a-b-da, 5, 1, 6, 32, 135, 60, 132, 58, 60, 135, 3, 1.00217
93, 1, bw, attraction, a-b-da, 5, 1, 6, 32, 135, 60, 132, 58, 60, 135, 2, 0.993041
93, 1, bw, attraction, a-b-da, 9, 2, 6, 33, 90, 165, 165, 90, 157, 86, 1, 2.33462
93, 1, bw, attraction, a-b-da, 9, 2, 6, 33, 90, 165, 165, 90, 157, 86, 3, 1.43995
93, 1, bw, attraction, a-b-da, 9, 3, 6, 34, 120, 195, 195, 120, 186, 114, 1, 1.06809
93, 1, bw, attraction, a-b-da, 9, 3, 6, 34, 120, 195, 195, 120, 186, 114, 3, 1.51246
93, 1, bw, attraction, a-b-da, 2, 3, 6, 35, 195, 120, 120, 195, 193, 119, 1, 0.721152
93, 1, bw, attraction, a-b-da, 2, 3, 6, 35, 195, 120, 120, 195, 193, 119, 2, 0.547074
93, 1, bw, attraction, a-b-da, 2, 2, 6, 36, 163, 89, 165, 90, 90, 165, 3, 1.11459
93, 1, bw, attraction, a-b-da, 2, 2, 6, 36, 163, 89, 165, 90, 90, 165, 2, 0.597049
93, 1, bw, filler, NA, 999, 999, 6, 37, 56, 191, 110, 64, 86, 86, 1, 2.24283
93, 1, bw, filler, NA, 999, 999, 6, 37, 56, 191, 110, 64, 86, 86, 2, 0.807494
93, 1, bw, filler, NA, 999, 999, 7, 1, 109, 188, 118, 70, 160, 113, 3, 1.0043
93, 1, bw, filler, NA, 999, 999, 7, 1, 109, 188, 118, 70, 160, 113, 2, 0.723325
93, 1, bw, catch, NA, 999, 999, 7, 2, 179, 136, 105, 90, 125, 130, 1, 0.875817
93, 1, bw, catch, NA, 999, 999, 7, 2, 179, 136, 105, 90, 125, 130, 2, 0.807468
93, 1, bw, attraction, a-b-da, 2, 3, 7, 3, 195, 120, 193, 119, 120, 195, 3, 1.30046
93, 1, bw, attraction, a-b-da, 2, 3, 7, 3, 195, 120, 193, 119, 120, 195, 2, 0.655526
93, 1, bw, attraction, a-b-da, 2, 2, 7, 4, 165, 90, 163, 89, 90, 165, 3, 1.15511
93, 1, bw, attraction, a-b-da, 2, 2, 7, 4, 165, 90, 163, 89, 90, 165, 2, 0.803409
93, 1, bw, filler, NA, 999, 999, 7, 5, 186, 94, 151, 68, 148, 142, 3, 0.696998
93, 1, bw, filler, NA, 999, 999, 7, 5, 186, 94, 151, 68, 148, 142, 2, 0.900157
93, 1, bw, filler, NA, 999, 999, 7, 6, 160, 63, 101, 91, 122, 151, 3, 1.28577
93, 1, bw, filler, NA, 999, 999, 7, 6, 160, 63, 101, 91, 122, 151, 1, 0.873358
93, 1, bw, attraction, a-b-db, 9, 2, 7, 7, 165, 90, 90, 165, 86, 157, 2, 2.39646
93, 1, bw, attraction, a-b-db, 9, 2, 7, 7, 165, 90, 90, 165, 86, 157, 3, 0.50713
93, 1, bw, attraction, a-b-da, 9, 1, 7, 8, 129, 57, 60, 135, 135, 60, 2, 1.40404
93, 1, bw, attraction, a-b-da, 9, 1, 7, 8, 129, 57, 60, 135, 135, 60, 3, 0.850997
93, 1, bw, filler, NA, 999, 999, 7, 9, 151, 120, 63, 184, 175, 118, 3, 0.862625
93, 1, bw, filler, NA, 999, 999, 7, 9, 151, 120, 63, 184, 175, 118, 2, 1.25898
93, 1, bw, filler, NA, 999, 999, 7, 10, 69, 178, 136, 182, 76, 134, 2, 0.830984
93, 1, bw, filler, NA, 999, 999, 7, 10, 69, 178, 136, 182, 76, 134, 3, 0.683588
93, 1, bw, attraction, a-b-da, 5, 3, 7, 11, 195, 120, 120, 195, 190, 117, 3, 1.02193
93, 1, bw, attraction, a-b-da, 5, 3, 7, 11, 195, 120, 120, 195, 190, 117, 2, 0.587656
93, 1, bw, attraction, a-b-da, 9, 2, 7, 12, 165, 90, 90, 165, 157, 86, 2, 0.842012
93, 1, bw, attraction, a-b-da, 9, 2, 7, 12, 165, 90, 90, 165, 157, 86, 3, 0.663056
93, 1, bw, attraction, a-b-da, 14, 3, 7, 13, 120, 195, 181, 111, 195, 120, 3, 0.674359
93, 1, bw, attraction, a-b-da, 14, 3, 7, 13, 120, 195, 181, 111, 195, 120, 2, 0.661893
93, 1, bw, attraction, a-b-db, 5, 3, 7, 14, 117, 190, 120, 195, 195, 120, 2, 0.976912
93, 1, bw, attraction, a-b-db, 5, 3, 7, 14, 117, 190, 120, 195, 195, 120, 3, 0.544592
93, 1, bw, attraction, a-b-db, 14, 2, 7, 15, 90, 165, 165, 90, 83, 153, 2, 1.55236
93, 1, bw, attraction, a-b-db, 14, 2, 7, 15, 90, 165, 165, 90, 83, 153, 3, 0.761261
93, 1, bw, attraction, a-b-db, 14, 3, 7, 16, 120, 195, 195, 120, 111, 181, 3, 2.76037
93, 1, bw, attraction, a-b-db, 14, 3, 7, 16, 120, 195, 195, 120, 111, 181, 2, 0.68808
93, 1, bw, filler, NA, 999, 999, 7, 17, 176, 190, 143, 56, 152, 69, 1, 4.18647
93, 1, bw, filler, NA, 999, 999, 7, 17, 176, 190, 143, 56, 152, 69, 2, 0.833148
93, 1, bw, attraction, a-b-db, 5, 2, 7, 18, 90, 165, 165, 90, 88, 161, 3, 1.33345
93, 1, bw, attraction, a-b-db, 5, 2, 7, 18, 90, 165, 165, 90, 88, 161, 2, 0.511019
93, 1, bw, attraction, a-b-da, 9, 3, 7, 19, 186, 114, 195, 120, 120, 195, 3, 1.08013
93, 1, bw, attraction, a-b-da, 9, 3, 7, 19, 186, 114, 195, 120, 120, 195, 2, 0.635873
93, 1, bw, filler, NA, 999, 999, 7, 20, 109, 78, 69, 138, 169, 166, 3, 0.752152
93, 1, bw, filler, NA, 999, 999, 7, 20, 109, 78, 69, 138, 169, 166, 2, 0.945279
93, 1, bw, attraction, a-b-db, 2, 2, 7, 21, 165, 90, 89, 163, 90, 165, 2, 1.705
93, 1, bw, attraction, a-b-db, 2, 2, 7, 21, 165, 90, 89, 163, 90, 165, 1, 1.32302
93, 1, bw, attraction, a-b-da, 5, 2, 7, 22, 161, 88, 165, 90, 90, 165, 3, 1.10787
93, 1, bw, attraction, a-b-da, 5, 2, 7, 22, 161, 88, 165, 90, 90, 165, 2, 0.734187
93, 1, bw, catch, NA, 999, 999, 7, 23, 151, 164, 135, 60, 91, 164, 1, 0.630512
93, 1, bw, catch, NA, 999, 999, 7, 23, 151, 164, 135, 60, 91, 164, 2, 1.55636
93, 1, bw, filler, NA, 999, 999, 7, 24, 138, 81, 82, 99, 191, 111, 3, 0.731747
93, 1, bw, filler, NA, 999, 999, 7, 24, 138, 81, 82, 99, 191, 111, 2, 0.725551
93, 1, bw, attraction, a-b-db, 14, 1, 7, 25, 60, 135, 135, 60, 56, 125, 1, 1.30996
93, 1, bw, attraction, a-b-db, 14, 1, 7, 25, 60, 135, 135, 60, 56, 125, 2, 0.760087
93, 1, bw, attraction, a-b-da, 5, 1, 7, 26, 60, 135, 135, 60, 132, 58, 1, 1.15112
93, 1, bw, attraction, a-b-da, 5, 1, 7, 26, 60, 135, 135, 60, 132, 58, 3, 1.06417
93, 1, bw, filler, NA, 999, 999, 7, 27, 92, 148, 82, 131, 141, 180, 3, 0.555165
93, 1, bw, filler, NA, 999, 999, 7, 27, 92, 148, 82, 131, 141, 180, 2, 0.819507
93, 1, bw, attraction, a-b-db, 9, 1, 7, 28, 60, 135, 57, 129, 135, 60, 1, 1.1686
93, 1, bw, attraction, a-b-db, 9, 1, 7, 28, 60, 135, 57, 129, 135, 60, 2, 0.744991
93, 1, bw, attraction, a-b-da, 2, 1, 7, 29, 135, 60, 60, 135, 134, 59, 2, 2.08849
93, 1, bw, attraction, a-b-da, 2, 1, 7, 29, 135, 60, 60, 135, 134, 59, 3, 0.699254
93, 1, bw, attraction, a-b-db, 2, 1, 7, 30, 135, 60, 59, 134, 60, 135, 3, 2.36491
93, 1, bw, attraction, a-b-db, 2, 1, 7, 30, 135, 60, 59, 134, 60, 135, 1, 0.636743
93, 1, bw, attraction, a-b-db, 9, 3, 7, 31, 114, 186, 120, 195, 195, 120, 2, 0.729233
93, 1, bw, attraction, a-b-db, 9, 3, 7, 31, 114, 186, 120, 195, 195, 120, 3, 0.586967
93, 1, bw, catch, NA, 999, 999, 7, 32, 91, 164, 122, 193, 78, 117, 2, 0.75348
93, 1, bw, catch, NA, 999, 999, 7, 32, 91, 164, 122, 193, 78, 117, 3, 0.938494
93, 1, bw, attraction, a-b-db, 2, 3, 7, 33, 119, 193, 120, 195, 195, 120, 2, 1.60288
93, 1, bw, attraction, a-b-db, 2, 3, 7, 33, 119, 193, 120, 195, 195, 120, 3, 0.713613
93, 1, bw, filler, NA, 999, 999, 7, 34, 136, 94, 178, 80, 100, 80, 2, 7.7387
93, 1, bw, filler, NA, 999, 999, 7, 34, 136, 94, 178, 80, 100, 80, 3, 0.962184
93, 1, bw, attraction, a-b-da, 14, 2, 7, 35, 165, 90, 90, 165, 153, 83, 2, 0.96112
93, 1, bw, attraction, a-b-da, 14, 2, 7, 35, 165, 90, 90, 165, 153, 83, 3, 2.52151
93, 1, bw, attraction, a-b-da, 14, 1, 7, 36, 60, 135, 125, 56, 135, 60, 3, 2.138
93, 1, bw, attraction, a-b-da, 14, 1, 7, 36, 60, 135, 125, 56, 135, 60, 2, 0.835298
93, 1, bw, attraction, a-b-db, 5, 1, 7, 37, 60, 135, 58, 132, 135, 60, 2, 0.919579
93, 1, bw, attraction, a-b-db, 5, 1, 7, 37, 60, 135, 58, 132, 135, 60, 3, 0.938095
93, 1, bw, catch, NA, 999, 999, 8, 1, 152, 163, 149, 106, 80, 115, 1, 0.786275
93, 1, bw, catch, NA, 999, 999, 8, 1, 152, 163, 149, 106, 80, 115, 3, 0.978065
93, 1, bw, attraction, a-b-da, 5, 1, 8, 2, 135, 60, 60, 135, 132, 58, 2, 2.18441
93, 1, bw, attraction, a-b-da, 5, 1, 8, 2, 135, 60, 60, 135, 132, 58, 3, 1.04766
93, 1, bw, attraction, a-b-db, 9, 1, 8, 3, 57, 129, 135, 60, 60, 135, 3, 1.14713
93, 1, bw, attraction, a-b-db, 9, 1, 8, 3, 57, 129, 135, 60, 60, 135, 2, 0.820199
93, 1, bw, attraction, a-b-da, 2, 3, 8, 4, 193, 119, 120, 195, 195, 120, 2, 1.57723
93, 1, bw, attraction, a-b-da, 2, 3, 8, 4, 193, 119, 120, 195, 195, 120, 3, 0.552689
93, 1, bw, filler, NA, 999, 999, 8, 5, 114, 78, 100, 125, 107, 118, 2, 1.04855
93, 1, bw, filler, NA, 999, 999, 8, 5, 114, 78, 100, 125, 107, 118, 1, 1.46142
93, 1, bw, attraction, a-b-da, 9, 2, 8, 6, 157, 86, 90, 165, 165, 90, 2, 1.83224
93, 1, bw, attraction, a-b-da, 9, 2, 8, 6, 157, 86, 90, 165, 165, 90, 3, 0.661673
93, 1, bw, filler, NA, 999, 999, 8, 7, 121, 115, 67, 174, 73, 149, 1, 0.840728
93, 1, bw, filler, NA, 999, 999, 8, 7, 121, 115, 67, 174, 73, 149, 3, 0.565812
93, 1, bw, attraction, a-b-da, 14, 2, 8, 8, 90, 165, 153, 83, 165, 90, 1, 0.692847
93, 1, bw, attraction, a-b-da, 14, 2, 8, 8, 90, 165, 153, 83, 165, 90, 3, 0.495969
93, 1, bw, filler, NA, 999, 999, 8, 9, 175, 185, 116, 130, 153, 84, 1, 0.64184
93, 1, bw, filler, NA, 999, 999, 8, 9, 175, 185, 116, 130, 153, 84, 3, 0.822862
93, 1, bw, attraction, a-b-da, 2, 2, 8, 10, 165, 90, 90, 165, 163, 89, 2, 0.923856
93, 1, bw, attraction, a-b-da, 2, 2, 8, 10, 165, 90, 90, 165, 163, 89, 1, 0.797559
93, 1, bw, attraction, a-b-db, 14, 3, 8, 11, 111, 181, 195, 120, 120, 195, 3, 3.42735
93, 1, bw, attraction, a-b-db, 14, 3, 8, 11, 111, 181, 195, 120, 120, 195, 1, 0.536089
93, 1, bw, attraction, a-b-db, 2, 2, 8, 12, 165, 90, 90, 165, 89, 163, 3, 2.45657
93, 1, bw, attraction, a-b-db, 2, 2, 8, 12, 165, 90, 90, 165, 89, 163, 1, 0.796576
93, 1, bw, attraction, a-b-da, 9, 1, 8, 13, 60, 135, 135, 60, 129, 57, 2, 1.37014
93, 1, bw, attraction, a-b-da, 9, 1, 8, 13, 60, 135, 135, 60, 129, 57, 3, 2.41046
93, 1, bw, attraction, a-b-db, 14, 1, 8, 14, 60, 135, 56, 125, 135, 60, 1, 1.95882
93, 1, bw, attraction, a-b-db, 14, 1, 8, 14, 60, 135, 56, 125, 135, 60, 3, 0.926895
93, 1, bw, filler, NA, 999, 999, 8, 15, 163, 138, 165, 193, 99, 177, 2, 0.487227
93, 1, bw, filler, NA, 999, 999, 8, 15, 163, 138, 165, 193, 99, 177, 3, 0.482411
93, 1, bw, filler, NA, 999, 999, 8, 16, 150, 79, 82, 58, 59, 153, 1, 0.644856
93, 1, bw, filler, NA, 999, 999, 8, 16, 150, 79, 82, 58, 59, 153, 2, 0.546007
93, 1, bw, filler, NA, 999, 999, 8, 17, 122, 71, 62, 170, 102, 178, 3, 0.809726
93, 1, bw, filler, NA, 999, 999, 8, 17, 122, 71, 62, 170, 102, 178, 2, 0.584068
93, 1, bw, attraction, a-b-da, 14, 1, 8, 18, 125, 56, 60, 135, 135, 60, 3, 1.33454
93, 1, bw, attraction, a-b-da, 14, 1, 8, 18, 125, 56, 60, 135, 135, 60, 1, 2.47218
93, 1, bw, attraction, a-b-da, 14, 3, 8, 19, 195, 120, 120, 195, 181, 111, 2, 1.57068
93, 1, bw, attraction, a-b-da, 14, 3, 8, 19, 195, 120, 120, 195, 181, 111, 3, 0.618764
93, 1, bw, attraction, a-b-db, 2, 1, 8, 20, 135, 60, 59, 134, 60, 135, 2, 2.86382
93, 1, bw, attraction, a-b-db, 2, 1, 8, 20, 135, 60, 59, 134, 60, 135, 1, 0.467529
93, 1, bw, attraction, a-b-db, 9, 2, 8, 21, 165, 90, 86, 157, 90, 165, 3, 1.87074
93, 1, bw, attraction, a-b-db, 9, 2, 8, 21, 165, 90, 86, 157, 90, 165, 1, 0.786118
93, 1, bw, filler, NA, 999, 999, 8, 22, 101, 80, 63, 156, 88, 171, 3, 0.800425
93, 1, bw, filler, NA, 999, 999, 8, 22, 101, 80, 63, 156, 88, 171, 2, 0.503512
93, 1, bw, attraction, a-b-db, 14, 2, 8, 23, 165, 90, 83, 153, 90, 165, 3, 3.19332
93, 1, bw, attraction, a-b-db, 14, 2, 8, 23, 165, 90, 83, 153, 90, 165, 1, 1.08764
93, 1, bw, catch, NA, 999, 999, 8, 24, 125, 130, 135, 60, 188, 127, 3, 1.28984
93, 1, bw, catch, NA, 999, 999, 8, 24, 125, 130, 135, 60, 188, 127, 2, 0.908876
93, 1, bw, catch, NA, 999, 999, 8, 25, 166, 149, 72, 123, 98, 157, 1, 1.05378
93, 1, bw, catch, NA, 999, 999, 8, 25, 166, 149, 72, 123, 98, 157, 2, 0.642731
93, 1, bw, filler, NA, 999, 999, 8, 26, 195, 170, 63, 159, 186, 167, 1, 1.01449
93, 1, bw, filler, NA, 999, 999, 8, 26, 195, 170, 63, 159, 186, 167, 2, 0.660984
93, 1, bw, attraction, a-b-da, 9, 3, 8, 27, 120, 195, 186, 114, 195, 120, 3, 4.58411
93, 1, bw, attraction, a-b-da, 9, 3, 8, 27, 120, 195, 186, 114, 195, 120, 2, 1.41446
93, 1, bw, attraction, a-b-db, 5, 3, 8, 28, 117, 190, 120, 195, 195, 120, 2, 1.82721
93, 1, bw, attraction, a-b-db, 5, 3, 8, 28, 117, 190, 120, 195, 195, 120, 3, 0.456847
93, 1, bw, attraction, a-b-da, 2, 1, 8, 29, 134, 59, 135, 60, 60, 135, 3, 1.21193
93, 1, bw, attraction, a-b-da, 2, 1, 8, 29, 134, 59, 135, 60, 60, 135, 2, 0.626206
93, 1, bw, attraction, a-b-db, 5, 2, 8, 30, 88, 161, 165, 90, 90, 165, 3, 1.65441
93, 1, bw, attraction, a-b-db, 5, 2, 8, 30, 88, 161, 165, 90, 90, 165, 2, 0.82722
93, 1, bw, attraction, a-b-da, 5, 3, 8, 31, 190, 117, 120, 195, 195, 120, 3, 1.23163
93, 1, bw, attraction, a-b-da, 5, 3, 8, 31, 190, 117, 120, 195, 195, 120, 2, 1.03716
93, 1, bw, filler, NA, 999, 999, 8, 32, 184, 186, 114, 178, 111, 129, 1, 1.12946
93, 1, bw, filler, NA, 999, 999, 8, 32, 184, 186, 114, 178, 111, 129, 3, 0.443267
93, 1, bw, attraction, a-b-db, 5, 1, 8, 33, 58, 132, 60, 135, 135, 60, 1, 2.65484
93, 1, bw, attraction, a-b-db, 5, 1, 8, 33, 58, 132, 60, 135, 135, 60, 3, 0.899461
93, 1, bw, filler, NA, 999, 999, 8, 34, 98, 103, 135, 70, 119, 110, 3, 0.773089
93, 1, bw, filler, NA, 999, 999, 8, 34, 98, 103, 135, 70, 119, 110, 2, 0.500788
93, 1, bw, attraction, a-b-da, 5, 2, 8, 35, 161, 88, 90, 165, 165, 90, 2, 1.16656
93, 1, bw, attraction, a-b-da, 5, 2, 8, 35, 161, 88, 90, 165, 165, 90, 3, 0.45487
93, 1, bw, attraction, a-b-db, 2, 3, 8, 36, 120, 195, 119, 193, 195, 120, 2, 0.642544
93, 1, bw, attraction, a-b-db, 2, 3, 8, 36, 120, 195, 119, 193, 195, 120, 1, 0.559682
93, 1, bw, attraction, a-b-db, 9, 3, 8, 37, 114, 186, 120, 195, 195, 120, 2, 0.606849
93, 1, bw, attraction, a-b-db, 9, 3, 8, 37, 114, 186, 120, 195, 195, 120, 3, 0.477372
